"success","trial_type","trial_index","time_elapsed","internal_node_id","assignmentID","mturkID","hitID","view_history","rt","stimulus","key_press","reactionTime","a","r","s","cond","reward_cond","reward_cond_actual","reward_matrix_idx","responses","question_order"
"true","fullscreen","0","5779","0.0-0.0","3Y5140Z9DY2P932BJQ8EAXQFXV7IPM","A3DG8M8G0L4DNZ","3566S7OX5D5NH74JOVOPTTMK8IR17K","","","","","","","","","","","","","",""
"","instructions","1","12414","0.0-1.0","3Y5140Z9DY2P932BJQ8EAXQFXV7IPM","A3DG8M8G0L4DNZ","3566S7OX5D5NH74JOVOPTTMK8IR17K","[{""page_index"":0,""viewing_time"":972.4000000357628},{""page_index"":1,""viewing_time"":432.89999997615814},{""page_index"":2,""viewing_time"":741.8999999761581},{""page_index"":3,""viewing_time"":790.1000000238419},{""page_index"":4,""viewing_time"":1715.5},{""page_index"":5,""viewing_time"":961.3000000119209},{""page_index"":6,""viewing_time"":1019.8000000119209}]","6634.300000011921","","","","","","","","","","","",""
"","image-keyboard-response","2","13164","0.0-2.0","3Y5140Z9DY2P932BJQ8EAXQFXV7IPM","A3DG8M8G0L4DNZ","3566S7OX5D5NH74JOVOPTTMK8IR17K","","748.3000000119209","img/land1.png","74","749.3000000119209","1","1","1","2","0.8,0.2,0.2,0.2,0.8,0.2,0.2,0.2,0.8","0.2,0.8,0.2,0.2,0.2,0.8,0.8,0.2,0.2","3","",""
"","html-keyboard-response","3","13467","0.0-3.0","3Y5140Z9DY2P932BJQ8EAXQFXV7IPM","A3DG8M8G0L4DNZ","3566S7OX5D5NH74JOVOPTTMK8IR17K","","null","<img src=""img/land1.png"" style=""width:200px; border:14px solid green;"">","null","","","","","","","","","",""
"","image-keyboard-response","4","13505","0.0-4.0","3Y5140Z9DY2P932BJQ8EAXQFXV7IPM","A3DG8M8G0L4DNZ","3566S7OX5D5NH74JOVOPTTMK8IR17K","","36.90000003576279","img/land5.png","74","37.89999997615814","1","0","3","2","0.8,0.2,0.2,0.2,0.8,0.2,0.2,0.2,0.8","0.2,0.8,0.2,0.2,0.2,0.8,0.8,0.2,0.2","3","",""
"","html-keyboard-response","5","13809","0.0-5.0","3Y5140Z9DY2P932BJQ8EAXQFXV7IPM","A3DG8M8G0L4DNZ","3566S7OX5D5NH74JOVOPTTMK8IR17K","","null","<img src=""img/land5.png"" style=""width:200px;border:14px solid red;"">","null","","","","","","","","","",""
"","image-keyboard-response","6","13855","0.0-6.0","3Y5140Z9DY2P932BJQ8EAXQFXV7IPM","A3DG8M8G0L4DNZ","3566S7OX5D5NH74JOVOPTTMK8IR17K","","45","img/land1.png","76","45.80000001192093","3","0","1","2","0.8,0.2,0.2,0.2,0.8,0.2,0.2,0.2,0.8","0.2,0.8,0.2,0.2,0.2,0.8,0.8,0.2,0.2","3","",""
"","html-keyboard-response","7","14166","0.0-7.0","3Y5140Z9DY2P932BJQ8EAXQFXV7IPM","A3DG8M8G0L4DNZ","3566S7OX5D5NH74JOVOPTTMK8IR17K","","null","<img src=""img/land1.png"" style=""width:200px;border:14px solid red;"">","null","","","","","","","","","",""
"","image-keyboard-response","8","14210","0.0-8.0","3Y5140Z9DY2P932BJQ8EAXQFXV7IPM","A3DG8M8G0L4DNZ","3566S7OX5D5NH74JOVOPTTMK8IR17K","","42.59999996423721","img/land1.png","75","43.80000001192093","2","1","1","2","0.8,0.2,0.2,0.2,0.8,0.2,0.2,0.2,0.8","0.2,0.8,0.2,0.2,0.2,0.8,0.8,0.2,0.2","3","",""
"","html-keyboard-response","9","14527","0.0-9.0","3Y5140Z9DY2P932BJQ8EAXQFXV7IPM","A3DG8M8G0L4DNZ","3566S7OX5D5NH74JOVOPTTMK8IR17K","","null","<img src=""img/land1.png"" style=""width:200px; border:14px solid green;"">","null","","","","","","","","","",""
"","image-keyboard-response","10","14566","0.0-10.0","3Y5140Z9DY2P932BJQ8EAXQFXV7IPM","A3DG8M8G0L4DNZ","3566S7OX5D5NH74JOVOPTTMK8IR17K","","38.19999998807907","img/land1.png","75","38.80000001192093","2","1","1","2","0.8,0.2,0.2,0.2,0.8,0.2,0.2,0.2,0.8","0.2,0.8,0.2,0.2,0.2,0.8,0.8,0.2,0.2","3","",""
"","html-keyboard-response","11","14872","0.0-11.0","3Y5140Z9DY2P932BJQ8EAXQFXV7IPM","A3DG8M8G0L4DNZ","3566S7OX5D5NH74JOVOPTTMK8IR17K","","null","<img src=""img/land1.png"" style=""width:200px; border:14px solid green;"">","null","","","","","","","","","",""
"","image-keyboard-response","12","14916","0.0-12.0","3Y5140Z9DY2P932BJQ8EAXQFXV7IPM","A3DG8M8G0L4DNZ","3566S7OX5D5NH74JOVOPTTMK8IR17K","","42.69999998807907","img/land5.png","75","43.80000001192093","2","0","3","2","0.8,0.2,0.2,0.2,0.8,0.2,0.2,0.2,0.8","0.2,0.8,0.2,0.2,0.2,0.8,0.8,0.2,0.2","3","",""
"","html-keyboard-response","13","15228","0.0-13.0","3Y5140Z9DY2P932BJQ8EAXQFXV7IPM","A3DG8M8G0L4DNZ","3566S7OX5D5NH74JOVOPTTMK8IR17K","","null","<img src=""img/land5.png"" style=""width:200px;border:14px solid red;"">","null","","","","","","","","","",""
"","image-keyboard-response","14","15262","0.0-14.0","3Y5140Z9DY2P932BJQ8EAXQFXV7IPM","A3DG8M8G0L4DNZ","3566S7OX5D5NH74JOVOPTTMK8IR17K","","32.10000002384186","img/land4.png","75","33","2","0","2","2","0.8,0.2,0.2,0.2,0.8,0.2,0.2,0.2,0.8","0.2,0.8,0.2,0.2,0.2,0.8,0.8,0.2,0.2","3","",""
"","html-keyboard-response","15","15570","0.0-15.0","3Y5140Z9DY2P932BJQ8EAXQFXV7IPM","A3DG8M8G0L4DNZ","3566S7OX5D5NH74JOVOPTTMK8IR17K","","null","<img src=""img/land4.png"" style=""width:200px;border:14px solid red;"">","null","","","","","","","","","",""
"","image-keyboard-response","16","15642","0.0-16.0","3Y5140Z9DY2P932BJQ8EAXQFXV7IPM","A3DG8M8G0L4DNZ","3566S7OX5D5NH74JOVOPTTMK8IR17K","","70.69999998807907","img/land4.png","75","71.40000003576279","2","0","2","2","0.8,0.2,0.2,0.2,0.8,0.2,0.2,0.2,0.8","0.2,0.8,0.2,0.2,0.2,0.8,0.8,0.2,0.2","3","",""
"","html-keyboard-response","17","15943","0.0-17.0","3Y5140Z9DY2P932BJQ8EAXQFXV7IPM","A3DG8M8G0L4DNZ","3566S7OX5D5NH74JOVOPTTMK8IR17K","","null","<img src=""img/land4.png"" style=""width:200px;border:14px solid red;"">","null","","","","","","","","","",""
"","image-keyboard-response","18","16015","0.0-18.0","3Y5140Z9DY2P932BJQ8EAXQFXV7IPM","A3DG8M8G0L4DNZ","3566S7OX5D5NH74JOVOPTTMK8IR17K","","70.5","img/land1.png","75","71.39999997615814","2","0","1","2","0.8,0.2,0.2,0.2,0.8,0.2,0.2,0.2,0.8","0.2,0.8,0.2,0.2,0.2,0.8,0.8,0.2,0.2","3","",""
"","html-keyboard-response","19","16321","0.0-19.0","3Y5140Z9DY2P932BJQ8EAXQFXV7IPM","A3DG8M8G0L4DNZ","3566S7OX5D5NH74JOVOPTTMK8IR17K","","null","<img src=""img/land1.png"" style=""width:200px;border:14px solid red;"">","null","","","","","","","","","",""
"","image-keyboard-response","20","16376","0.0-20.0","3Y5140Z9DY2P932BJQ8EAXQFXV7IPM","A3DG8M8G0L4DNZ","3566S7OX5D5NH74JOVOPTTMK8IR17K","","53.89999997615814","img/land1.png","76","54.69999998807907","3","1","1","2","0.8,0.2,0.2,0.2,0.8,0.2,0.2,0.2,0.8","0.2,0.8,0.2,0.2,0.2,0.8,0.8,0.2,0.2","3","",""
"","html-keyboard-response","21","16677","0.0-21.0","3Y5140Z9DY2P932BJQ8EAXQFXV7IPM","A3DG8M8G0L4DNZ","3566S7OX5D5NH74JOVOPTTMK8IR17K","","null","<img src=""img/land1.png"" style=""width:200px; border:14px solid green;"">","null","","","","","","","","","",""
"","image-keyboard-response","22","16751","0.0-22.0","3Y5140Z9DY2P932BJQ8EAXQFXV7IPM","A3DG8M8G0L4DNZ","3566S7OX5D5NH74JOVOPTTMK8IR17K","","72.69999998807907","img/land4.png","76","73.70000004768372","3","1","2","2","0.8,0.2,0.2,0.2,0.8,0.2,0.2,0.2,0.8","0.2,0.8,0.2,0.2,0.2,0.8,0.8,0.2,0.2","3","",""
"","html-keyboard-response","23","17053","0.0-23.0","3Y5140Z9DY2P932BJQ8EAXQFXV7IPM","A3DG8M8G0L4DNZ","3566S7OX5D5NH74JOVOPTTMK8IR17K","","null","<img src=""img/land4.png"" style=""width:200px; border:14px solid green;"">","null","","","","","","","","","",""
"","image-keyboard-response","24","17103","0.0-24.0","3Y5140Z9DY2P932BJQ8EAXQFXV7IPM","A3DG8M8G0L4DNZ","3566S7OX5D5NH74JOVOPTTMK8IR17K","","49","img/land1.png","76","49.69999998807907","3","0","1","2","0.8,0.2,0.2,0.2,0.8,0.2,0.2,0.2,0.8","0.2,0.8,0.2,0.2,0.2,0.8,0.8,0.2,0.2","3","",""
"","html-keyboard-response","25","17411","0.0-25.0","3Y5140Z9DY2P932BJQ8EAXQFXV7IPM","A3DG8M8G0L4DNZ","3566S7OX5D5NH74JOVOPTTMK8IR17K","","null","<img src=""img/land1.png"" style=""width:200px;border:14px solid red;"">","null","","","","","","","","","",""
"","image-keyboard-response","26","17426","0.0-26.0","3Y5140Z9DY2P932BJQ8EAXQFXV7IPM","A3DG8M8G0L4DNZ","3566S7OX5D5NH74JOVOPTTMK8IR17K","","13.699999988079071","img/land5.png","74","14.5","1","0","3","2","0.8,0.2,0.2,0.2,0.8,0.2,0.2,0.2,0.8","0.2,0.8,0.2,0.2,0.2,0.8,0.8,0.2,0.2","3","",""
"","html-keyboard-response","27","17732","0.0-27.0","3Y5140Z9DY2P932BJQ8EAXQFXV7IPM","A3DG8M8G0L4DNZ","3566S7OX5D5NH74JOVOPTTMK8IR17K","","null","<img src=""img/land5.png"" style=""width:200px;border:14px solid red;"">","null","","","","","","","","","",""
"","image-keyboard-response","28","17800","0.0-28.0","3Y5140Z9DY2P932BJQ8EAXQFXV7IPM","A3DG8M8G0L4DNZ","3566S7OX5D5NH74JOVOPTTMK8IR17K","","67.5","img/land4.png","74","68.10000002384186","1","1","2","2","0.8,0.2,0.2,0.2,0.8,0.2,0.2,0.2,0.8","0.2,0.8,0.2,0.2,0.2,0.8,0.8,0.2,0.2","3","",""
"","html-keyboard-response","29","18103","0.0-29.0","3Y5140Z9DY2P932BJQ8EAXQFXV7IPM","A3DG8M8G0L4DNZ","3566S7OX5D5NH74JOVOPTTMK8IR17K","","null","<img src=""img/land4.png"" style=""width:200px; border:14px solid green;"">","null","","","","","","","","","",""
"","image-keyboard-response","30","18200","0.0-30.0","3Y5140Z9DY2P932BJQ8EAXQFXV7IPM","A3DG8M8G0L4DNZ","3566S7OX5D5NH74JOVOPTTMK8IR17K","","95.69999998807907","img/land4.png","74","96.60000002384186","1","0","2","2","0.8,0.2,0.2,0.2,0.8,0.2,0.2,0.2,0.8","0.2,0.8,0.2,0.2,0.2,0.8,0.8,0.2,0.2","3","",""
"","html-keyboard-response","31","18502","0.0-31.0","3Y5140Z9DY2P932BJQ8EAXQFXV7IPM","A3DG8M8G0L4DNZ","3566S7OX5D5NH74JOVOPTTMK8IR17K","","null","<img src=""img/land4.png"" style=""width:200px;border:14px solid red;"">","null","","","","","","","","","",""
"","image-keyboard-response","32","18571","0.0-32.0","3Y5140Z9DY2P932BJQ8EAXQFXV7IPM","A3DG8M8G0L4DNZ","3566S7OX5D5NH74JOVOPTTMK8IR17K","","68.69999998807907","img/land1.png","74","69.5","1","0","1","2","0.8,0.2,0.2,0.2,0.8,0.2,0.2,0.2,0.8","0.2,0.8,0.2,0.2,0.2,0.8,0.8,0.2,0.2","3","",""
"","html-keyboard-response","33","18877","0.0-33.0","3Y5140Z9DY2P932BJQ8EAXQFXV7IPM","A3DG8M8G0L4DNZ","3566S7OX5D5NH74JOVOPTTMK8IR17K","","null","<img src=""img/land1.png"" style=""width:200px;border:14px solid red;"">","null","","","","","","","","","",""
"","image-keyboard-response","34","18878","0.0-34.0","3Y5140Z9DY2P932BJQ8EAXQFXV7IPM","A3DG8M8G0L4DNZ","3566S7OX5D5NH74JOVOPTTMK8IR17K","","0.3999999761581421","img/land1.png","75","1.2000000476837158","2","1","1","2","0.8,0.2,0.2,0.2,0.8,0.2,0.2,0.2,0.8","0.2,0.8,0.2,0.2,0.2,0.8,0.8,0.2,0.2","3","",""
"","html-keyboard-response","35","19181","0.0-35.0","3Y5140Z9DY2P932BJQ8EAXQFXV7IPM","A3DG8M8G0L4DNZ","3566S7OX5D5NH74JOVOPTTMK8IR17K","","null","<img src=""img/land1.png"" style=""width:200px; border:14px solid green;"">","null","","","","","","","","","",""
"","image-keyboard-response","36","19290","0.0-36.0","3Y5140Z9DY2P932BJQ8EAXQFXV7IPM","A3DG8M8G0L4DNZ","3566S7OX5D5NH74JOVOPTTMK8IR17K","","107.69999998807907","img/land1.png","75","108.40000003576279","2","1","1","2","0.8,0.2,0.2,0.2,0.8,0.2,0.2,0.2,0.8","0.2,0.8,0.2,0.2,0.2,0.8,0.8,0.2,0.2","3","",""
"","html-keyboard-response","37","19592","0.0-37.0","3Y5140Z9DY2P932BJQ8EAXQFXV7IPM","A3DG8M8G0L4DNZ","3566S7OX5D5NH74JOVOPTTMK8IR17K","","null","<img src=""img/land1.png"" style=""width:200px; border:14px solid green;"">","null","","","","","","","","","",""
"","image-keyboard-response","38","19690","0.0-38.0","3Y5140Z9DY2P932BJQ8EAXQFXV7IPM","A3DG8M8G0L4DNZ","3566S7OX5D5NH74JOVOPTTMK8IR17K","","95.90000003576279","img/land4.png","75","96.60000002384186","2","0","2","2","0.8,0.2,0.2,0.2,0.8,0.2,0.2,0.2,0.8","0.2,0.8,0.2,0.2,0.2,0.8,0.8,0.2,0.2","3","",""
"","html-keyboard-response","39","19998","0.0-39.0","3Y5140Z9DY2P932BJQ8EAXQFXV7IPM","A3DG8M8G0L4DNZ","3566S7OX5D5NH74JOVOPTTMK8IR17K","","null","<img src=""img/land4.png"" style=""width:200px;border:14px solid red;"">","null","","","","","","","","","",""
"","image-keyboard-response","40","20005","0.0-40.0","3Y5140Z9DY2P932BJQ8EAXQFXV7IPM","A3DG8M8G0L4DNZ","3566S7OX5D5NH74JOVOPTTMK8IR17K","","6.299999952316284","img/land5.png","74","7.200000047683716","1","1","3","2","0.8,0.2,0.2,0.2,0.8,0.2,0.2,0.2,0.8","0.2,0.8,0.2,0.2,0.2,0.8,0.8,0.2,0.2","3","",""
"","html-keyboard-response","41","20308","0.0-41.0","3Y5140Z9DY2P932BJQ8EAXQFXV7IPM","A3DG8M8G0L4DNZ","3566S7OX5D5NH74JOVOPTTMK8IR17K","","null","<img src=""img/land5.png"" style=""width:200px; border:14px solid green;"">","null","","","","","","","","","",""
"","image-keyboard-response","42","20313","0.0-42.0","3Y5140Z9DY2P932BJQ8EAXQFXV7IPM","A3DG8M8G0L4DNZ","3566S7OX5D5NH74JOVOPTTMK8IR17K","","3.900000035762787","img/land1.png","76","4.899999976158142","3","0","1","2","0.8,0.2,0.2,0.2,0.8,0.2,0.2,0.2,0.8","0.2,0.8,0.2,0.2,0.2,0.8,0.8,0.2,0.2","3","",""
"","html-keyboard-response","43","20622","0.0-43.0","3Y5140Z9DY2P932BJQ8EAXQFXV7IPM","A3DG8M8G0L4DNZ","3566S7OX5D5NH74JOVOPTTMK8IR17K","","null","<img src=""img/land1.png"" style=""width:200px;border:14px solid red;"">","null","","","","","","","","","",""
"","image-keyboard-response","44","20690","0.0-44.0","3Y5140Z9DY2P932BJQ8EAXQFXV7IPM","A3DG8M8G0L4DNZ","3566S7OX5D5NH74JOVOPTTMK8IR17K","","66.70000004768372","img/land5.png","76","67.40000003576279","3","0","3","2","0.8,0.2,0.2,0.2,0.8,0.2,0.2,0.2,0.8","0.2,0.8,0.2,0.2,0.2,0.8,0.8,0.2,0.2","3","",""
"","html-keyboard-response","45","20996","0.0-45.0","3Y5140Z9DY2P932BJQ8EAXQFXV7IPM","A3DG8M8G0L4DNZ","3566S7OX5D5NH74JOVOPTTMK8IR17K","","null","<img src=""img/land5.png"" style=""width:200px;border:14px solid red;"">","null","","","","","","","","","",""
"","image-keyboard-response","46","21001","0.0-46.0","3Y5140Z9DY2P932BJQ8EAXQFXV7IPM","A3DG8M8G0L4DNZ","3566S7OX5D5NH74JOVOPTTMK8IR17K","","4","img/land4.png","74","4.899999976158142","1","0","2","2","0.8,0.2,0.2,0.2,0.8,0.2,0.2,0.2,0.8","0.2,0.8,0.2,0.2,0.2,0.8,0.8,0.2,0.2","3","",""
"","html-keyboard-response","47","21308","0.0-47.0","3Y5140Z9DY2P932BJQ8EAXQFXV7IPM","A3DG8M8G0L4DNZ","3566S7OX5D5NH74JOVOPTTMK8IR17K","","null","<img src=""img/land4.png"" style=""width:200px;border:14px solid red;"">","null","","","","","","","","","",""
"","image-keyboard-response","48","21310","0.0-48.0","3Y5140Z9DY2P932BJQ8EAXQFXV7IPM","A3DG8M8G0L4DNZ","3566S7OX5D5NH74JOVOPTTMK8IR17K","","1.300000011920929","img/land5.png","75","2.300000011920929","2","1","3","2","0.8,0.2,0.2,0.2,0.8,0.2,0.2,0.2,0.8","0.2,0.8,0.2,0.2,0.2,0.8,0.8,0.2,0.2","3","",""
"","html-keyboard-response","49","21620","0.0-49.0","3Y5140Z9DY2P932BJQ8EAXQFXV7IPM","A3DG8M8G0L4DNZ","3566S7OX5D5NH74JOVOPTTMK8IR17K","","null","<img src=""img/land5.png"" style=""width:200px; border:14px solid green;"">","null","","","","","","","","","",""
"","image-keyboard-response","50","21688","0.0-50.0","3Y5140Z9DY2P932BJQ8EAXQFXV7IPM","A3DG8M8G0L4DNZ","3566S7OX5D5NH74JOVOPTTMK8IR17K","","67.19999998807907","img/land1.png","75","68.19999998807907","2","1","1","2","0.8,0.2,0.2,0.2,0.8,0.2,0.2,0.2,0.8","0.2,0.8,0.2,0.2,0.2,0.8,0.8,0.2,0.2","3","",""
"","html-keyboard-response","51","21996","0.0-51.0","3Y5140Z9DY2P932BJQ8EAXQFXV7IPM","A3DG8M8G0L4DNZ","3566S7OX5D5NH74JOVOPTTMK8IR17K","","null","<img src=""img/land1.png"" style=""width:200px; border:14px solid green;"">","null","","","","","","","","","",""
"","image-keyboard-response","52","22086","0.0-52.0","3Y5140Z9DY2P932BJQ8EAXQFXV7IPM","A3DG8M8G0L4DNZ","3566S7OX5D5NH74JOVOPTTMK8IR17K","","89","img/land4.png","75","89.90000003576279","2","0","2","2","0.8,0.2,0.2,0.2,0.8,0.2,0.2,0.2,0.8","0.2,0.8,0.2,0.2,0.2,0.8,0.8,0.2,0.2","3","",""
"","html-keyboard-response","53","22387","0.0-53.0","3Y5140Z9DY2P932BJQ8EAXQFXV7IPM","A3DG8M8G0L4DNZ","3566S7OX5D5NH74JOVOPTTMK8IR17K","","null","<img src=""img/land4.png"" style=""width:200px;border:14px solid red;"">","null","","","","","","","","","",""
"","image-keyboard-response","54","22390","0.0-54.0","3Y5140Z9DY2P932BJQ8EAXQFXV7IPM","A3DG8M8G0L4DNZ","3566S7OX5D5NH74JOVOPTTMK8IR17K","","1.600000023841858","img/land1.png","74","2.199999988079071","1","0","1","2","0.8,0.2,0.2,0.2,0.8,0.2,0.2,0.2,0.8","0.2,0.8,0.2,0.2,0.2,0.8,0.8,0.2,0.2","3","",""
"","html-keyboard-response","55","22692","0.0-55.0","3Y5140Z9DY2P932BJQ8EAXQFXV7IPM","A3DG8M8G0L4DNZ","3566S7OX5D5NH74JOVOPTTMK8IR17K","","null","<img src=""img/land1.png"" style=""width:200px;border:14px solid red;"">","null","","","","","","","","","",""
"","image-keyboard-response","56","22703","0.0-56.0","3Y5140Z9DY2P932BJQ8EAXQFXV7IPM","A3DG8M8G0L4DNZ","3566S7OX5D5NH74JOVOPTTMK8IR17K","","9.800000011920929","img/land5.png","76","10.600000023841858","3","0","3","2","0.8,0.2,0.2,0.2,0.8,0.2,0.2,0.2,0.8","0.2,0.8,0.2,0.2,0.2,0.8,0.8,0.2,0.2","3","",""
"","html-keyboard-response","57","23004","0.0-57.0","3Y5140Z9DY2P932BJQ8EAXQFXV7IPM","A3DG8M8G0L4DNZ","3566S7OX5D5NH74JOVOPTTMK8IR17K","","null","<img src=""img/land5.png"" style=""width:200px;border:14px solid red;"">","null","","","","","","","","","",""
"","image-keyboard-response","58","23091","0.0-58.0","3Y5140Z9DY2P932BJQ8EAXQFXV7IPM","A3DG8M8G0L4DNZ","3566S7OX5D5NH74JOVOPTTMK8IR17K","","85.90000003576279","img/land5.png","75","86.69999998807907","2","1","3","2","0.8,0.2,0.2,0.2,0.8,0.2,0.2,0.2,0.8","0.2,0.8,0.2,0.2,0.2,0.8,0.8,0.2,0.2","3","",""
"","html-keyboard-response","59","23395","0.0-59.0","3Y5140Z9DY2P932BJQ8EAXQFXV7IPM","A3DG8M8G0L4DNZ","3566S7OX5D5NH74JOVOPTTMK8IR17K","","null","<img src=""img/land5.png"" style=""width:200px; border:14px solid green;"">","null","","","","","","","","","",""
"","image-keyboard-response","60","23492","0.0-60.0","3Y5140Z9DY2P932BJQ8EAXQFXV7IPM","A3DG8M8G0L4DNZ","3566S7OX5D5NH74JOVOPTTMK8IR17K","","95.69999998807907","img/land1.png","76","96.5","3","0","1","2","0.8,0.2,0.2,0.2,0.8,0.2,0.2,0.2,0.8","0.2,0.8,0.2,0.2,0.2,0.8,0.8,0.2,0.2","3","",""
"","html-keyboard-response","61","23796","0.0-61.0","3Y5140Z9DY2P932BJQ8EAXQFXV7IPM","A3DG8M8G0L4DNZ","3566S7OX5D5NH74JOVOPTTMK8IR17K","","null","<img src=""img/land1.png"" style=""width:200px;border:14px solid red;"">","null","","","","","","","","","",""
"","image-keyboard-response","62","23800","0.0-62.0","3Y5140Z9DY2P932BJQ8EAXQFXV7IPM","A3DG8M8G0L4DNZ","3566S7OX5D5NH74JOVOPTTMK8IR17K","","2.5","img/land1.png","74","3.400000035762787","1","1","1","2","0.8,0.2,0.2,0.2,0.8,0.2,0.2,0.2,0.8","0.2,0.8,0.2,0.2,0.2,0.8,0.8,0.2,0.2","3","",""
"","html-keyboard-response","63","24101","0.0-63.0","3Y5140Z9DY2P932BJQ8EAXQFXV7IPM","A3DG8M8G0L4DNZ","3566S7OX5D5NH74JOVOPTTMK8IR17K","","null","<img src=""img/land1.png"" style=""width:200px; border:14px solid green;"">","null","","","","","","","","","",""
"","image-keyboard-response","64","24202","0.0-64.0","3Y5140Z9DY2P932BJQ8EAXQFXV7IPM","A3DG8M8G0L4DNZ","3566S7OX5D5NH74JOVOPTTMK8IR17K","","100","img/land1.png","74","100.5","1","0","1","2","0.8,0.2,0.2,0.2,0.8,0.2,0.2,0.2,0.8","0.2,0.8,0.2,0.2,0.2,0.8,0.8,0.2,0.2","3","",""
"","html-keyboard-response","65","24504","0.0-65.0","3Y5140Z9DY2P932BJQ8EAXQFXV7IPM","A3DG8M8G0L4DNZ","3566S7OX5D5NH74JOVOPTTMK8IR17K","","null","<img src=""img/land1.png"" style=""width:200px;border:14px solid red;"">","null","","","","","","","","","",""
"","image-keyboard-response","66","24513","0.0-66.0","3Y5140Z9DY2P932BJQ8EAXQFXV7IPM","A3DG8M8G0L4DNZ","3566S7OX5D5NH74JOVOPTTMK8IR17K","","8","img/land4.png","75","8.800000011920929","2","0","2","2","0.8,0.2,0.2,0.2,0.8,0.2,0.2,0.2,0.8","0.2,0.8,0.2,0.2,0.2,0.8,0.8,0.2,0.2","3","",""
"","html-keyboard-response","67","24816","0.0-67.0","3Y5140Z9DY2P932BJQ8EAXQFXV7IPM","A3DG8M8G0L4DNZ","3566S7OX5D5NH74JOVOPTTMK8IR17K","","null","<img src=""img/land4.png"" style=""width:200px;border:14px solid red;"">","null","","","","","","","","","",""
"","image-keyboard-response","68","24828","0.0-68.0","3Y5140Z9DY2P932BJQ8EAXQFXV7IPM","A3DG8M8G0L4DNZ","3566S7OX5D5NH74JOVOPTTMK8IR17K","","10.300000011920929","img/land1.png","74","11.399999976158142","1","0","1","2","0.8,0.2,0.2,0.2,0.8,0.2,0.2,0.2,0.8","0.2,0.8,0.2,0.2,0.2,0.8,0.8,0.2,0.2","3","",""
"","html-keyboard-response","69","25143","0.0-69.0","3Y5140Z9DY2P932BJQ8EAXQFXV7IPM","A3DG8M8G0L4DNZ","3566S7OX5D5NH74JOVOPTTMK8IR17K","","null","<img src=""img/land1.png"" style=""width:200px;border:14px solid red;"">","null","","","","","","","","","",""
"","image-keyboard-response","70","25146","0.0-70.0","3Y5140Z9DY2P932BJQ8EAXQFXV7IPM","A3DG8M8G0L4DNZ","3566S7OX5D5NH74JOVOPTTMK8IR17K","","1.399999976158142","img/land5.png","75","2.199999988079071","2","1","3","2","0.8,0.2,0.2,0.2,0.8,0.2,0.2,0.2,0.8","0.2,0.8,0.2,0.2,0.2,0.8,0.8,0.2,0.2","3","",""
"","html-keyboard-response","71","25453","0.0-71.0","3Y5140Z9DY2P932BJQ8EAXQFXV7IPM","A3DG8M8G0L4DNZ","3566S7OX5D5NH74JOVOPTTMK8IR17K","","null","<img src=""img/land5.png"" style=""width:200px; border:14px solid green;"">","null","","","","","","","","","",""
"","image-keyboard-response","72","25459","0.0-72.0","3Y5140Z9DY2P932BJQ8EAXQFXV7IPM","A3DG8M8G0L4DNZ","3566S7OX5D5NH74JOVOPTTMK8IR17K","","5.699999988079071","img/land4.png","74","6.300000011920929","1","0","2","2","0.8,0.2,0.2,0.2,0.8,0.2,0.2,0.2,0.8","0.2,0.8,0.2,0.2,0.2,0.8,0.8,0.2,0.2","3","",""
"","html-keyboard-response","73","25763","0.0-73.0","3Y5140Z9DY2P932BJQ8EAXQFXV7IPM","A3DG8M8G0L4DNZ","3566S7OX5D5NH74JOVOPTTMK8IR17K","","null","<img src=""img/land4.png"" style=""width:200px;border:14px solid red;"">","null","","","","","","","","","",""
"","image-keyboard-response","74","25770","0.0-74.0","3Y5140Z9DY2P932BJQ8EAXQFXV7IPM","A3DG8M8G0L4DNZ","3566S7OX5D5NH74JOVOPTTMK8IR17K","","5.5","img/land1.png","75","6.099999964237213","2","0","1","2","0.8,0.2,0.2,0.2,0.8,0.2,0.2,0.2,0.8","0.2,0.8,0.2,0.2,0.2,0.8,0.8,0.2,0.2","3","",""
"","html-keyboard-response","75","26076","0.0-75.0","3Y5140Z9DY2P932BJQ8EAXQFXV7IPM","A3DG8M8G0L4DNZ","3566S7OX5D5NH74JOVOPTTMK8IR17K","","null","<img src=""img/land1.png"" style=""width:200px;border:14px solid red;"">","null","","","","","","","","","",""
"","image-keyboard-response","76","26082","0.0-76.0","3Y5140Z9DY2P932BJQ8EAXQFXV7IPM","A3DG8M8G0L4DNZ","3566S7OX5D5NH74JOVOPTTMK8IR17K","","5.600000023841858","img/land1.png","74","6.199999988079071","1","0","1","2","0.8,0.2,0.2,0.2,0.8,0.2,0.2,0.2,0.8","0.2,0.8,0.2,0.2,0.2,0.8,0.8,0.2,0.2","3","",""
"","html-keyboard-response","77","26385","0.0-77.0","3Y5140Z9DY2P932BJQ8EAXQFXV7IPM","A3DG8M8G0L4DNZ","3566S7OX5D5NH74JOVOPTTMK8IR17K","","null","<img src=""img/land1.png"" style=""width:200px;border:14px solid red;"">","null","","","","","","","","","",""
"","image-keyboard-response","78","26404","0.0-78.0","3Y5140Z9DY2P932BJQ8EAXQFXV7IPM","A3DG8M8G0L4DNZ","3566S7OX5D5NH74JOVOPTTMK8IR17K","","17.80000001192093","img/land1.png","75","18.5","2","1","1","2","0.8,0.2,0.2,0.2,0.8,0.2,0.2,0.2,0.8","0.2,0.8,0.2,0.2,0.2,0.8,0.8,0.2,0.2","3","",""
"","html-keyboard-response","79","26712","0.0-79.0","3Y5140Z9DY2P932BJQ8EAXQFXV7IPM","A3DG8M8G0L4DNZ","3566S7OX5D5NH74JOVOPTTMK8IR17K","","null","<img src=""img/land1.png"" style=""width:200px; border:14px solid green;"">","null","","","","","","","","","",""
"","image-keyboard-response","80","26729","0.0-80.0","3Y5140Z9DY2P932BJQ8EAXQFXV7IPM","A3DG8M8G0L4DNZ","3566S7OX5D5NH74JOVOPTTMK8IR17K","","16.399999976158142","img/land4.png","74","17.5","1","0","2","2","0.8,0.2,0.2,0.2,0.8,0.2,0.2,0.2,0.8","0.2,0.8,0.2,0.2,0.2,0.8,0.8,0.2,0.2","3","",""
"","html-keyboard-response","81","27038","0.0-81.0","3Y5140Z9DY2P932BJQ8EAXQFXV7IPM","A3DG8M8G0L4DNZ","3566S7OX5D5NH74JOVOPTTMK8IR17K","","null","<img src=""img/land4.png"" style=""width:200px;border:14px solid red;"">","null","","","","","","","","","",""
"","image-keyboard-response","82","27045","0.0-82.0","3Y5140Z9DY2P932BJQ8EAXQFXV7IPM","A3DG8M8G0L4DNZ","3566S7OX5D5NH74JOVOPTTMK8IR17K","","6.399999976158142","img/land1.png","75","7.200000047683716","2","1","1","2","0.8,0.2,0.2,0.2,0.8,0.2,0.2,0.2,0.8","0.2,0.8,0.2,0.2,0.2,0.8,0.8,0.2,0.2","3","",""
"","html-keyboard-response","83","27351","0.0-83.0","3Y5140Z9DY2P932BJQ8EAXQFXV7IPM","A3DG8M8G0L4DNZ","3566S7OX5D5NH74JOVOPTTMK8IR17K","","null","<img src=""img/land1.png"" style=""width:200px; border:14px solid green;"">","null","","","","","","","","","",""
"","image-keyboard-response","84","27368","0.0-84.0","3Y5140Z9DY2P932BJQ8EAXQFXV7IPM","A3DG8M8G0L4DNZ","3566S7OX5D5NH74JOVOPTTMK8IR17K","","16.799999952316284","img/land1.png","74","17.600000023841858","1","0","1","2","0.8,0.2,0.2,0.2,0.8,0.2,0.2,0.2,0.8","0.2,0.8,0.2,0.2,0.2,0.8,0.8,0.2,0.2","3","",""
"","html-keyboard-response","85","27674","0.0-85.0","3Y5140Z9DY2P932BJQ8EAXQFXV7IPM","A3DG8M8G0L4DNZ","3566S7OX5D5NH74JOVOPTTMK8IR17K","","null","<img src=""img/land1.png"" style=""width:200px;border:14px solid red;"">","null","","","","","","","","","",""
"","image-keyboard-response","86","27715","0.0-86.0","3Y5140Z9DY2P932BJQ8EAXQFXV7IPM","A3DG8M8G0L4DNZ","3566S7OX5D5NH74JOVOPTTMK8IR17K","","41","img/land4.png","75","41.5","2","0","2","2","0.8,0.2,0.2,0.2,0.8,0.2,0.2,0.2,0.8","0.2,0.8,0.2,0.2,0.2,0.8,0.8,0.2,0.2","3","",""
"","html-keyboard-response","87","28017","0.0-87.0","3Y5140Z9DY2P932BJQ8EAXQFXV7IPM","A3DG8M8G0L4DNZ","3566S7OX5D5NH74JOVOPTTMK8IR17K","","null","<img src=""img/land4.png"" style=""width:200px;border:14px solid red;"">","null","","","","","","","","","",""
"","image-keyboard-response","88","28057","0.0-88.0","3Y5140Z9DY2P932BJQ8EAXQFXV7IPM","A3DG8M8G0L4DNZ","3566S7OX5D5NH74JOVOPTTMK8IR17K","","39.30000001192093","img/land5.png","74","40.10000002384186","1","1","3","2","0.8,0.2,0.2,0.2,0.8,0.2,0.2,0.2,0.8","0.2,0.8,0.2,0.2,0.2,0.8,0.8,0.2,0.2","3","",""
"","html-keyboard-response","89","28361","0.0-89.0","3Y5140Z9DY2P932BJQ8EAXQFXV7IPM","A3DG8M8G0L4DNZ","3566S7OX5D5NH74JOVOPTTMK8IR17K","","null","<img src=""img/land5.png"" style=""width:200px; border:14px solid green;"">","null","","","","","","","","","",""
"","image-keyboard-response","90","28376","0.0-90.0","3Y5140Z9DY2P932BJQ8EAXQFXV7IPM","A3DG8M8G0L4DNZ","3566S7OX5D5NH74JOVOPTTMK8IR17K","","13.399999976158142","img/land1.png","75","14.300000011920929","2","1","1","2","0.8,0.2,0.2,0.2,0.8,0.2,0.2,0.2,0.8","0.2,0.8,0.2,0.2,0.2,0.8,0.8,0.2,0.2","3","",""
"","html-keyboard-response","91","28685","0.0-91.0","3Y5140Z9DY2P932BJQ8EAXQFXV7IPM","A3DG8M8G0L4DNZ","3566S7OX5D5NH74JOVOPTTMK8IR17K","","null","<img src=""img/land1.png"" style=""width:200px; border:14px solid green;"">","null","","","","","","","","","",""
"","image-keyboard-response","92","28699","0.0-92.0","3Y5140Z9DY2P932BJQ8EAXQFXV7IPM","A3DG8M8G0L4DNZ","3566S7OX5D5NH74JOVOPTTMK8IR17K","","13.199999988079071","img/land4.png","74","13.899999976158142","1","1","2","2","0.8,0.2,0.2,0.2,0.8,0.2,0.2,0.2,0.8","0.2,0.8,0.2,0.2,0.2,0.8,0.8,0.2,0.2","3","",""
"","html-keyboard-response","93","29011","0.0-93.0","3Y5140Z9DY2P932BJQ8EAXQFXV7IPM","A3DG8M8G0L4DNZ","3566S7OX5D5NH74JOVOPTTMK8IR17K","","null","<img src=""img/land4.png"" style=""width:200px; border:14px solid green;"">","null","","","","","","","","","",""
"","image-keyboard-response","94","29030","0.0-94.0","3Y5140Z9DY2P932BJQ8EAXQFXV7IPM","A3DG8M8G0L4DNZ","3566S7OX5D5NH74JOVOPTTMK8IR17K","","17.69999998807907","img/land5.png","75","18.69999998807907","2","0","3","2","0.8,0.2,0.2,0.2,0.8,0.2,0.2,0.2,0.8","0.2,0.8,0.2,0.2,0.2,0.8,0.8,0.2,0.2","3","",""
"","html-keyboard-response","95","29334","0.0-95.0","3Y5140Z9DY2P932BJQ8EAXQFXV7IPM","A3DG8M8G0L4DNZ","3566S7OX5D5NH74JOVOPTTMK8IR17K","","null","<img src=""img/land5.png"" style=""width:200px;border:14px solid red;"">","null","","","","","","","","","",""
"","image-keyboard-response","96","29352","0.0-96.0","3Y5140Z9DY2P932BJQ8EAXQFXV7IPM","A3DG8M8G0L4DNZ","3566S7OX5D5NH74JOVOPTTMK8IR17K","","17.200000047683716","img/land1.png","74","17.899999976158142","1","0","1","2","0.8,0.2,0.2,0.2,0.8,0.2,0.2,0.2,0.8","0.2,0.8,0.2,0.2,0.2,0.8,0.8,0.2,0.2","3","",""
"","html-keyboard-response","97","29653","0.0-97.0","3Y5140Z9DY2P932BJQ8EAXQFXV7IPM","A3DG8M8G0L4DNZ","3566S7OX5D5NH74JOVOPTTMK8IR17K","","null","<img src=""img/land1.png"" style=""width:200px;border:14px solid red;"">","null","","","","","","","","","",""
"","image-keyboard-response","98","29674","0.0-98.0","3Y5140Z9DY2P932BJQ8EAXQFXV7IPM","A3DG8M8G0L4DNZ","3566S7OX5D5NH74JOVOPTTMK8IR17K","","20.100000023841858","img/land1.png","76","20.80000001192093","3","0","1","2","0.8,0.2,0.2,0.2,0.8,0.2,0.2,0.2,0.8","0.2,0.8,0.2,0.2,0.2,0.8,0.8,0.2,0.2","3","",""
"","html-keyboard-response","99","29976","0.0-99.0","3Y5140Z9DY2P932BJQ8EAXQFXV7IPM","A3DG8M8G0L4DNZ","3566S7OX5D5NH74JOVOPTTMK8IR17K","","null","<img src=""img/land1.png"" style=""width:200px;border:14px solid red;"">","null","","","","","","","","","",""
"","image-keyboard-response","100","30027","0.0-100.0","3Y5140Z9DY2P932BJQ8EAXQFXV7IPM","A3DG8M8G0L4DNZ","3566S7OX5D5NH74JOVOPTTMK8IR17K","","50.89999997615814","img/land1.png","74","51.700000047683716","1","0","1","2","0.8,0.2,0.2,0.2,0.8,0.2,0.2,0.2,0.8","0.2,0.8,0.2,0.2,0.2,0.8,0.8,0.2,0.2","3","",""
"","html-keyboard-response","101","30329","0.0-101.0","3Y5140Z9DY2P932BJQ8EAXQFXV7IPM","A3DG8M8G0L4DNZ","3566S7OX5D5NH74JOVOPTTMK8IR17K","","null","<img src=""img/land1.png"" style=""width:200px;border:14px solid red;"">","null","","","","","","","","","",""
"","image-keyboard-response","102","30362","0.0-102.0","3Y5140Z9DY2P932BJQ8EAXQFXV7IPM","A3DG8M8G0L4DNZ","3566S7OX5D5NH74JOVOPTTMK8IR17K","","32.5","img/land1.png","75","33.19999998807907","2","1","1","2","0.8,0.2,0.2,0.2,0.8,0.2,0.2,0.2,0.8","0.2,0.8,0.2,0.2,0.2,0.8,0.8,0.2,0.2","3","",""
"","html-keyboard-response","103","30664","0.0-103.0","3Y5140Z9DY2P932BJQ8EAXQFXV7IPM","A3DG8M8G0L4DNZ","3566S7OX5D5NH74JOVOPTTMK8IR17K","","null","<img src=""img/land1.png"" style=""width:200px; border:14px solid green;"">","null","","","","","","","","","",""
"","image-keyboard-response","104","30666","0.0-104.0","3Y5140Z9DY2P932BJQ8EAXQFXV7IPM","A3DG8M8G0L4DNZ","3566S7OX5D5NH74JOVOPTTMK8IR17K","","1.300000011920929","img/land1.png","74","2","1","1","1","2","0.8,0.2,0.2,0.2,0.8,0.2,0.2,0.2,0.8","0.2,0.8,0.2,0.2,0.2,0.8,0.8,0.2,0.2","3","",""
"","html-keyboard-response","105","30968","0.0-105.0","3Y5140Z9DY2P932BJQ8EAXQFXV7IPM","A3DG8M8G0L4DNZ","3566S7OX5D5NH74JOVOPTTMK8IR17K","","null","<img src=""img/land1.png"" style=""width:200px; border:14px solid green;"">","null","","","","","","","","","",""
"","image-keyboard-response","106","30994","0.0-106.0","3Y5140Z9DY2P932BJQ8EAXQFXV7IPM","A3DG8M8G0L4DNZ","3566S7OX5D5NH74JOVOPTTMK8IR17K","","24.899999976158142","img/land1.png","75","25.599999964237213","2","1","1","2","0.8,0.2,0.2,0.2,0.8,0.2,0.2,0.2,0.8","0.2,0.8,0.2,0.2,0.2,0.8,0.8,0.2,0.2","3","",""
"","html-keyboard-response","107","31297","0.0-107.0","3Y5140Z9DY2P932BJQ8EAXQFXV7IPM","A3DG8M8G0L4DNZ","3566S7OX5D5NH74JOVOPTTMK8IR17K","","null","<img src=""img/land1.png"" style=""width:200px; border:14px solid green;"">","null","","","","","","","","","",""
"","image-keyboard-response","108","31338","0.0-108.0","3Y5140Z9DY2P932BJQ8EAXQFXV7IPM","A3DG8M8G0L4DNZ","3566S7OX5D5NH74JOVOPTTMK8IR17K","","40.10000002384186","img/land1.png","74","40.89999997615814","1","0","1","2","0.8,0.2,0.2,0.2,0.8,0.2,0.2,0.2,0.8","0.2,0.8,0.2,0.2,0.2,0.8,0.8,0.2,0.2","3","",""
"","html-keyboard-response","109","31640","0.0-109.0","3Y5140Z9DY2P932BJQ8EAXQFXV7IPM","A3DG8M8G0L4DNZ","3566S7OX5D5NH74JOVOPTTMK8IR17K","","null","<img src=""img/land1.png"" style=""width:200px;border:14px solid red;"">","null","","","","","","","","","",""
"","image-keyboard-response","110","31646","0.0-110.0","3Y5140Z9DY2P932BJQ8EAXQFXV7IPM","A3DG8M8G0L4DNZ","3566S7OX5D5NH74JOVOPTTMK8IR17K","","4.700000047683716","img/land5.png","76","5.800000011920929","3","1","3","2","0.8,0.2,0.2,0.2,0.8,0.2,0.2,0.2,0.8","0.2,0.8,0.2,0.2,0.2,0.8,0.8,0.2,0.2","3","",""
"","html-keyboard-response","111","31947","0.0-111.0","3Y5140Z9DY2P932BJQ8EAXQFXV7IPM","A3DG8M8G0L4DNZ","3566S7OX5D5NH74JOVOPTTMK8IR17K","","null","<img src=""img/land5.png"" style=""width:200px; border:14px solid green;"">","null","","","","","","","","","",""
"","image-keyboard-response","112","32012","0.0-112.0","3Y5140Z9DY2P932BJQ8EAXQFXV7IPM","A3DG8M8G0L4DNZ","3566S7OX5D5NH74JOVOPTTMK8IR17K","","63.10000002384186","img/land1.png","74","64.09999996423721","1","0","1","2","0.8,0.2,0.2,0.2,0.8,0.2,0.2,0.2,0.8","0.2,0.8,0.2,0.2,0.2,0.8,0.8,0.2,0.2","3","",""
"","html-keyboard-response","113","32313","0.0-113.0","3Y5140Z9DY2P932BJQ8EAXQFXV7IPM","A3DG8M8G0L4DNZ","3566S7OX5D5NH74JOVOPTTMK8IR17K","","null","<img src=""img/land1.png"" style=""width:200px;border:14px solid red;"">","null","","","","","","","","","",""
"","image-keyboard-response","114","32345","0.0-114.0","3Y5140Z9DY2P932BJQ8EAXQFXV7IPM","A3DG8M8G0L4DNZ","3566S7OX5D5NH74JOVOPTTMK8IR17K","","31.700000047683716","img/land1.png","75","32.19999998807907","2","1","1","2","0.8,0.2,0.2,0.2,0.8,0.2,0.2,0.2,0.8","0.2,0.8,0.2,0.2,0.2,0.8,0.8,0.2,0.2","3","",""
"","html-keyboard-response","115","32647","0.0-115.0","3Y5140Z9DY2P932BJQ8EAXQFXV7IPM","A3DG8M8G0L4DNZ","3566S7OX5D5NH74JOVOPTTMK8IR17K","","null","<img src=""img/land1.png"" style=""width:200px; border:14px solid green;"">","null","","","","","","","","","",""
"","image-keyboard-response","116","32713","0.0-116.0","3Y5140Z9DY2P932BJQ8EAXQFXV7IPM","A3DG8M8G0L4DNZ","3566S7OX5D5NH74JOVOPTTMK8IR17K","","65.09999996423721","img/land1.png","74","66","1","0","1","2","0.8,0.2,0.2,0.2,0.8,0.2,0.2,0.2,0.8","0.2,0.8,0.2,0.2,0.2,0.8,0.8,0.2,0.2","3","",""
"","html-keyboard-response","117","33015","0.0-117.0","3Y5140Z9DY2P932BJQ8EAXQFXV7IPM","A3DG8M8G0L4DNZ","3566S7OX5D5NH74JOVOPTTMK8IR17K","","null","<img src=""img/land1.png"" style=""width:200px;border:14px solid red;"">","null","","","","","","","","","",""
"","image-keyboard-response","118","33030","0.0-118.0","3Y5140Z9DY2P932BJQ8EAXQFXV7IPM","A3DG8M8G0L4DNZ","3566S7OX5D5NH74JOVOPTTMK8IR17K","","13.600000023841858","img/land1.png","75","14.799999952316284","2","1","1","2","0.8,0.2,0.2,0.2,0.8,0.2,0.2,0.2,0.8","0.2,0.8,0.2,0.2,0.2,0.8,0.8,0.2,0.2","3","",""
"","html-keyboard-response","119","33331","0.0-119.0","3Y5140Z9DY2P932BJQ8EAXQFXV7IPM","A3DG8M8G0L4DNZ","3566S7OX5D5NH74JOVOPTTMK8IR17K","","null","<img src=""img/land1.png"" style=""width:200px; border:14px solid green;"">","null","","","","","","","","","",""
"","image-keyboard-response","120","33354","0.0-120.0","3Y5140Z9DY2P932BJQ8EAXQFXV7IPM","A3DG8M8G0L4DNZ","3566S7OX5D5NH74JOVOPTTMK8IR17K","","21.5","img/land5.png","74","22.399999976158142","1","0","3","2","0.8,0.2,0.2,0.2,0.8,0.2,0.2,0.2,0.8","0.2,0.8,0.2,0.2,0.2,0.8,0.8,0.2,0.2","3","",""
"","html-keyboard-response","121","33656","0.0-121.0","3Y5140Z9DY2P932BJQ8EAXQFXV7IPM","A3DG8M8G0L4DNZ","3566S7OX5D5NH74JOVOPTTMK8IR17K","","null","<img src=""img/land5.png"" style=""width:200px;border:14px solid red;"">","null","","","","","","","","","",""
"","image-keyboard-response","122","33686","0.0-122.0","3Y5140Z9DY2P932BJQ8EAXQFXV7IPM","A3DG8M8G0L4DNZ","3566S7OX5D5NH74JOVOPTTMK8IR17K","","29.30000001192093","img/land1.png","75","30.299999952316284","2","1","1","2","0.8,0.2,0.2,0.2,0.8,0.2,0.2,0.2,0.8","0.2,0.8,0.2,0.2,0.2,0.8,0.8,0.2,0.2","3","",""
"","html-keyboard-response","123","33989","0.0-123.0","3Y5140Z9DY2P932BJQ8EAXQFXV7IPM","A3DG8M8G0L4DNZ","3566S7OX5D5NH74JOVOPTTMK8IR17K","","null","<img src=""img/land1.png"" style=""width:200px; border:14px solid green;"">","null","","","","","","","","","",""
"","image-keyboard-response","124","34009","0.0-124.0","3Y5140Z9DY2P932BJQ8EAXQFXV7IPM","A3DG8M8G0L4DNZ","3566S7OX5D5NH74JOVOPTTMK8IR17K","","19","img/land4.png","74","19.69999998807907","1","0","2","2","0.8,0.2,0.2,0.2,0.8,0.2,0.2,0.2,0.8","0.2,0.8,0.2,0.2,0.2,0.8,0.8,0.2,0.2","3","",""
"","html-keyboard-response","125","34311","0.0-125.0","3Y5140Z9DY2P932BJQ8EAXQFXV7IPM","A3DG8M8G0L4DNZ","3566S7OX5D5NH74JOVOPTTMK8IR17K","","null","<img src=""img/land4.png"" style=""width:200px;border:14px solid red;"">","null","","","","","","","","","",""
"","image-keyboard-response","126","34350","0.0-126.0","3Y5140Z9DY2P932BJQ8EAXQFXV7IPM","A3DG8M8G0L4DNZ","3566S7OX5D5NH74JOVOPTTMK8IR17K","","38.10000002384186","img/land1.png","75","38.89999997615814","2","1","1","2","0.8,0.2,0.2,0.2,0.8,0.2,0.2,0.2,0.8","0.2,0.8,0.2,0.2,0.2,0.8,0.8,0.2,0.2","3","",""
"","html-keyboard-response","127","34652","0.0-127.0","3Y5140Z9DY2P932BJQ8EAXQFXV7IPM","A3DG8M8G0L4DNZ","3566S7OX5D5NH74JOVOPTTMK8IR17K","","null","<img src=""img/land1.png"" style=""width:200px; border:14px solid green;"">","null","","","","","","","","","",""
"","image-keyboard-response","128","34662","0.0-128.0","3Y5140Z9DY2P932BJQ8EAXQFXV7IPM","A3DG8M8G0L4DNZ","3566S7OX5D5NH74JOVOPTTMK8IR17K","","8.799999952316284","img/land1.png","74","9.900000035762787","1","0","1","2","0.8,0.2,0.2,0.2,0.8,0.2,0.2,0.2,0.8","0.2,0.8,0.2,0.2,0.2,0.8,0.8,0.2,0.2","3","",""
"","html-keyboard-response","129","34965","0.0-129.0","3Y5140Z9DY2P932BJQ8EAXQFXV7IPM","A3DG8M8G0L4DNZ","3566S7OX5D5NH74JOVOPTTMK8IR17K","","null","<img src=""img/land1.png"" style=""width:200px;border:14px solid red;"">","null","","","","","","","","","",""
"","image-keyboard-response","130","35004","0.0-130.0","3Y5140Z9DY2P932BJQ8EAXQFXV7IPM","A3DG8M8G0L4DNZ","3566S7OX5D5NH74JOVOPTTMK8IR17K","","38.09999996423721","img/land5.png","75","38.69999998807907","2","0","3","2","0.8,0.2,0.2,0.2,0.8,0.2,0.2,0.2,0.8","0.2,0.8,0.2,0.2,0.2,0.8,0.8,0.2,0.2","3","",""
"","html-keyboard-response","131","35306","0.0-131.0","3Y5140Z9DY2P932BJQ8EAXQFXV7IPM","A3DG8M8G0L4DNZ","3566S7OX5D5NH74JOVOPTTMK8IR17K","","null","<img src=""img/land5.png"" style=""width:200px;border:14px solid red;"">","null","","","","","","","","","",""
"","image-keyboard-response","132","35344","0.0-132.0","3Y5140Z9DY2P932BJQ8EAXQFXV7IPM","A3DG8M8G0L4DNZ","3566S7OX5D5NH74JOVOPTTMK8IR17K","","36.5","img/land4.png","74","37.40000003576279","1","0","2","2","0.8,0.2,0.2,0.2,0.8,0.2,0.2,0.2,0.8","0.2,0.8,0.2,0.2,0.2,0.8,0.8,0.2,0.2","3","",""
"","html-keyboard-response","133","35645","0.0-133.0","3Y5140Z9DY2P932BJQ8EAXQFXV7IPM","A3DG8M8G0L4DNZ","3566S7OX5D5NH74JOVOPTTMK8IR17K","","null","<img src=""img/land4.png"" style=""width:200px;border:14px solid red;"">","null","","","","","","","","","",""
"","image-keyboard-response","134","35662","0.0-134.0","3Y5140Z9DY2P932BJQ8EAXQFXV7IPM","A3DG8M8G0L4DNZ","3566S7OX5D5NH74JOVOPTTMK8IR17K","","15.5","img/land5.png","75","16.19999998807907","2","0","3","2","0.8,0.2,0.2,0.2,0.8,0.2,0.2,0.2,0.8","0.2,0.8,0.2,0.2,0.2,0.8,0.8,0.2,0.2","3","",""
"","html-keyboard-response","135","35963","0.0-135.0","3Y5140Z9DY2P932BJQ8EAXQFXV7IPM","A3DG8M8G0L4DNZ","3566S7OX5D5NH74JOVOPTTMK8IR17K","","null","<img src=""img/land5.png"" style=""width:200px;border:14px solid red;"">","null","","","","","","","","","",""
"","image-keyboard-response","136","35972","0.0-136.0","3Y5140Z9DY2P932BJQ8EAXQFXV7IPM","A3DG8M8G0L4DNZ","3566S7OX5D5NH74JOVOPTTMK8IR17K","","7.5","img/land5.png","74","8.299999952316284","1","1","3","2","0.8,0.2,0.2,0.2,0.8,0.2,0.2,0.2,0.8","0.2,0.8,0.2,0.2,0.2,0.8,0.8,0.2,0.2","3","",""
"","html-keyboard-response","137","36273","0.0-137.0","3Y5140Z9DY2P932BJQ8EAXQFXV7IPM","A3DG8M8G0L4DNZ","3566S7OX5D5NH74JOVOPTTMK8IR17K","","null","<img src=""img/land5.png"" style=""width:200px; border:14px solid green;"">","null","","","","","","","","","",""
"","image-keyboard-response","138","36312","0.0-138.0","3Y5140Z9DY2P932BJQ8EAXQFXV7IPM","A3DG8M8G0L4DNZ","3566S7OX5D5NH74JOVOPTTMK8IR17K","","37.59999996423721","img/land1.png","75","38.60000002384186","2","0","1","2","0.8,0.2,0.2,0.2,0.8,0.2,0.2,0.2,0.8","0.2,0.8,0.2,0.2,0.2,0.8,0.8,0.2,0.2","3","",""
"","html-keyboard-response","139","36615","0.0-139.0","3Y5140Z9DY2P932BJQ8EAXQFXV7IPM","A3DG8M8G0L4DNZ","3566S7OX5D5NH74JOVOPTTMK8IR17K","","null","<img src=""img/land1.png"" style=""width:200px;border:14px solid red;"">","null","","","","","","","","","",""
"","image-keyboard-response","140","36670","0.0-140.0","3Y5140Z9DY2P932BJQ8EAXQFXV7IPM","A3DG8M8G0L4DNZ","3566S7OX5D5NH74JOVOPTTMK8IR17K","","54.80000001192093","img/land5.png","74","55.60000002384186","1","1","3","2","0.8,0.2,0.2,0.2,0.8,0.2,0.2,0.2,0.8","0.2,0.8,0.2,0.2,0.2,0.8,0.8,0.2,0.2","3","",""
"","html-keyboard-response","141","36972","0.0-141.0","3Y5140Z9DY2P932BJQ8EAXQFXV7IPM","A3DG8M8G0L4DNZ","3566S7OX5D5NH74JOVOPTTMK8IR17K","","null","<img src=""img/land5.png"" style=""width:200px; border:14px solid green;"">","null","","","","","","","","","",""
"","image-keyboard-response","142","37022","0.0-142.0","3Y5140Z9DY2P932BJQ8EAXQFXV7IPM","A3DG8M8G0L4DNZ","3566S7OX5D5NH74JOVOPTTMK8IR17K","","48.39999997615814","img/land1.png","75","49.5","2","1","1","2","0.8,0.2,0.2,0.2,0.8,0.2,0.2,0.2,0.8","0.2,0.8,0.2,0.2,0.2,0.8,0.8,0.2,0.2","3","",""
"","html-keyboard-response","143","37324","0.0-143.0","3Y5140Z9DY2P932BJQ8EAXQFXV7IPM","A3DG8M8G0L4DNZ","3566S7OX5D5NH74JOVOPTTMK8IR17K","","null","<img src=""img/land1.png"" style=""width:200px; border:14px solid green;"">","null","","","","","","","","","",""
"","image-keyboard-response","144","37348","0.0-144.0","3Y5140Z9DY2P932BJQ8EAXQFXV7IPM","A3DG8M8G0L4DNZ","3566S7OX5D5NH74JOVOPTTMK8IR17K","","23.80000001192093","img/land4.png","74","24.700000047683716","1","0","2","2","0.8,0.2,0.2,0.2,0.8,0.2,0.2,0.2,0.8","0.2,0.8,0.2,0.2,0.2,0.8,0.8,0.2,0.2","3","",""
"","html-keyboard-response","145","37650","0.0-145.0","3Y5140Z9DY2P932BJQ8EAXQFXV7IPM","A3DG8M8G0L4DNZ","3566S7OX5D5NH74JOVOPTTMK8IR17K","","null","<img src=""img/land4.png"" style=""width:200px;border:14px solid red;"">","null","","","","","","","","","",""
"","image-keyboard-response","146","37661","0.0-146.0","3Y5140Z9DY2P932BJQ8EAXQFXV7IPM","A3DG8M8G0L4DNZ","3566S7OX5D5NH74JOVOPTTMK8IR17K","","9.099999964237213","img/land4.png","76","10","3","1","2","2","0.8,0.2,0.2,0.2,0.8,0.2,0.2,0.2,0.8","0.2,0.8,0.2,0.2,0.2,0.8,0.8,0.2,0.2","3","",""
"","html-keyboard-response","147","37962","0.0-147.0","3Y5140Z9DY2P932BJQ8EAXQFXV7IPM","A3DG8M8G0L4DNZ","3566S7OX5D5NH74JOVOPTTMK8IR17K","","null","<img src=""img/land4.png"" style=""width:200px; border:14px solid green;"">","null","","","","","","","","","",""
"","image-keyboard-response","148","37998","0.0-148.0","3Y5140Z9DY2P932BJQ8EAXQFXV7IPM","A3DG8M8G0L4DNZ","3566S7OX5D5NH74JOVOPTTMK8IR17K","","35.30000001192093","img/land5.png","74","36","1","1","3","2","0.8,0.2,0.2,0.2,0.8,0.2,0.2,0.2,0.8","0.2,0.8,0.2,0.2,0.2,0.8,0.8,0.2,0.2","3","",""
"","html-keyboard-response","149","38299","0.0-149.0","3Y5140Z9DY2P932BJQ8EAXQFXV7IPM","A3DG8M8G0L4DNZ","3566S7OX5D5NH74JOVOPTTMK8IR17K","","null","<img src=""img/land5.png"" style=""width:200px; border:14px solid green;"">","null","","","","","","","","","",""
"","image-keyboard-response","150","38348","0.0-150.0","3Y5140Z9DY2P932BJQ8EAXQFXV7IPM","A3DG8M8G0L4DNZ","3566S7OX5D5NH74JOVOPTTMK8IR17K","","48.10000002384186","img/land1.png","75","48.80000001192093","2","1","1","2","0.8,0.2,0.2,0.2,0.8,0.2,0.2,0.2,0.8","0.2,0.8,0.2,0.2,0.2,0.8,0.8,0.2,0.2","3","",""
"","html-keyboard-response","151","38656","0.0-151.0","3Y5140Z9DY2P932BJQ8EAXQFXV7IPM","A3DG8M8G0L4DNZ","3566S7OX5D5NH74JOVOPTTMK8IR17K","","null","<img src=""img/land1.png"" style=""width:200px; border:14px solid green;"">","null","","","","","","","","","",""
"","image-keyboard-response","152","38684","0.0-152.0","3Y5140Z9DY2P932BJQ8EAXQFXV7IPM","A3DG8M8G0L4DNZ","3566S7OX5D5NH74JOVOPTTMK8IR17K","","27.100000023841858","img/land4.png","74","27.80000001192093","1","0","2","2","0.8,0.2,0.2,0.2,0.8,0.2,0.2,0.2,0.8","0.2,0.8,0.2,0.2,0.2,0.8,0.8,0.2,0.2","3","",""
"","html-keyboard-response","153","38985","0.0-153.0","3Y5140Z9DY2P932BJQ8EAXQFXV7IPM","A3DG8M8G0L4DNZ","3566S7OX5D5NH74JOVOPTTMK8IR17K","","null","<img src=""img/land4.png"" style=""width:200px;border:14px solid red;"">","null","","","","","","","","","",""
"","image-keyboard-response","154","39022","0.0-154.0","3Y5140Z9DY2P932BJQ8EAXQFXV7IPM","A3DG8M8G0L4DNZ","3566S7OX5D5NH74JOVOPTTMK8IR17K","","36.5","img/land5.png","75","37.30000001192093","2","0","3","2","0.8,0.2,0.2,0.2,0.8,0.2,0.2,0.2,0.8","0.2,0.8,0.2,0.2,0.2,0.8,0.8,0.2,0.2","3","",""
"","html-keyboard-response","155","39324","0.0-155.0","3Y5140Z9DY2P932BJQ8EAXQFXV7IPM","A3DG8M8G0L4DNZ","3566S7OX5D5NH74JOVOPTTMK8IR17K","","null","<img src=""img/land5.png"" style=""width:200px;border:14px solid red;"">","null","","","","","","","","","",""
"","image-keyboard-response","156","39357","0.0-156.0","3Y5140Z9DY2P932BJQ8EAXQFXV7IPM","A3DG8M8G0L4DNZ","3566S7OX5D5NH74JOVOPTTMK8IR17K","","31.700000047683716","img/land1.png","74","32.80000001192093","1","1","1","2","0.8,0.2,0.2,0.2,0.8,0.2,0.2,0.2,0.8","0.2,0.8,0.2,0.2,0.2,0.8,0.8,0.2,0.2","3","",""
"","html-keyboard-response","157","39659","0.0-157.0","3Y5140Z9DY2P932BJQ8EAXQFXV7IPM","A3DG8M8G0L4DNZ","3566S7OX5D5NH74JOVOPTTMK8IR17K","","null","<img src=""img/land1.png"" style=""width:200px; border:14px solid green;"">","null","","","","","","","","","",""
"","image-keyboard-response","158","39688","0.0-158.0","3Y5140Z9DY2P932BJQ8EAXQFXV7IPM","A3DG8M8G0L4DNZ","3566S7OX5D5NH74JOVOPTTMK8IR17K","","28.5","img/land5.png","75","29.399999976158142","2","1","3","2","0.8,0.2,0.2,0.2,0.8,0.2,0.2,0.2,0.8","0.2,0.8,0.2,0.2,0.2,0.8,0.8,0.2,0.2","3","",""
"","html-keyboard-response","159","39990","0.0-159.0","3Y5140Z9DY2P932BJQ8EAXQFXV7IPM","A3DG8M8G0L4DNZ","3566S7OX5D5NH74JOVOPTTMK8IR17K","","null","<img src=""img/land5.png"" style=""width:200px; border:14px solid green;"">","null","","","","","","","","","",""
"","image-keyboard-response","160","40012","0.0-160.0","3Y5140Z9DY2P932BJQ8EAXQFXV7IPM","A3DG8M8G0L4DNZ","3566S7OX5D5NH74JOVOPTTMK8IR17K","","21.5","img/land1.png","74","22.19999998807907","1","0","1","2","0.8,0.2,0.2,0.2,0.8,0.2,0.2,0.2,0.8","0.2,0.8,0.2,0.2,0.2,0.8,0.8,0.2,0.2","3","",""
"","html-keyboard-response","161","40314","0.0-161.0","3Y5140Z9DY2P932BJQ8EAXQFXV7IPM","A3DG8M8G0L4DNZ","3566S7OX5D5NH74JOVOPTTMK8IR17K","","null","<img src=""img/land1.png"" style=""width:200px;border:14px solid red;"">","null","","","","","","","","","",""
"","image-keyboard-response","162","40362","0.0-162.0","3Y5140Z9DY2P932BJQ8EAXQFXV7IPM","A3DG8M8G0L4DNZ","3566S7OX5D5NH74JOVOPTTMK8IR17K","","46.60000002384186","img/land1.png","75","47.39999997615814","2","1","1","2","0.8,0.2,0.2,0.2,0.8,0.2,0.2,0.2,0.8","0.2,0.8,0.2,0.2,0.2,0.8,0.8,0.2,0.2","3","",""
"","html-keyboard-response","163","40663","0.0-163.0","3Y5140Z9DY2P932BJQ8EAXQFXV7IPM","A3DG8M8G0L4DNZ","3566S7OX5D5NH74JOVOPTTMK8IR17K","","null","<img src=""img/land1.png"" style=""width:200px; border:14px solid green;"">","null","","","","","","","","","",""
"","image-keyboard-response","164","40702","0.0-164.0","3Y5140Z9DY2P932BJQ8EAXQFXV7IPM","A3DG8M8G0L4DNZ","3566S7OX5D5NH74JOVOPTTMK8IR17K","","37.80000001192093","img/land4.png","74","38.60000002384186","1","0","2","2","0.8,0.2,0.2,0.2,0.8,0.2,0.2,0.2,0.8","0.2,0.8,0.2,0.2,0.2,0.8,0.8,0.2,0.2","3","",""
"","html-keyboard-response","165","41004","0.0-165.0","3Y5140Z9DY2P932BJQ8EAXQFXV7IPM","A3DG8M8G0L4DNZ","3566S7OX5D5NH74JOVOPTTMK8IR17K","","null","<img src=""img/land4.png"" style=""width:200px;border:14px solid red;"">","null","","","","","","","","","",""
"","image-keyboard-response","166","41050","0.0-166.0","3Y5140Z9DY2P932BJQ8EAXQFXV7IPM","A3DG8M8G0L4DNZ","3566S7OX5D5NH74JOVOPTTMK8IR17K","","45.40000003576279","img/land1.png","76","46.5","3","0","1","2","0.8,0.2,0.2,0.2,0.8,0.2,0.2,0.2,0.8","0.2,0.8,0.2,0.2,0.2,0.8,0.8,0.2,0.2","3","",""
"","html-keyboard-response","167","41353","0.0-167.0","3Y5140Z9DY2P932BJQ8EAXQFXV7IPM","A3DG8M8G0L4DNZ","3566S7OX5D5NH74JOVOPTTMK8IR17K","","null","<img src=""img/land1.png"" style=""width:200px;border:14px solid red;"">","null","","","","","","","","","",""
"","image-keyboard-response","168","41377","0.0-168.0","3Y5140Z9DY2P932BJQ8EAXQFXV7IPM","A3DG8M8G0L4DNZ","3566S7OX5D5NH74JOVOPTTMK8IR17K","","22.80000001192093","img/land4.png","74","23.600000023841858","1","1","2","2","0.8,0.2,0.2,0.2,0.8,0.2,0.2,0.2,0.8","0.2,0.8,0.2,0.2,0.2,0.8,0.8,0.2,0.2","3","",""
"","html-keyboard-response","169","41679","0.0-169.0","3Y5140Z9DY2P932BJQ8EAXQFXV7IPM","A3DG8M8G0L4DNZ","3566S7OX5D5NH74JOVOPTTMK8IR17K","","null","<img src=""img/land4.png"" style=""width:200px; border:14px solid green;"">","null","","","","","","","","","",""
"","image-keyboard-response","170","41721","0.0-170.0","3Y5140Z9DY2P932BJQ8EAXQFXV7IPM","A3DG8M8G0L4DNZ","3566S7OX5D5NH74JOVOPTTMK8IR17K","","41.19999998807907","img/land1.png","75","42","2","1","1","2","0.8,0.2,0.2,0.2,0.8,0.2,0.2,0.2,0.8","0.2,0.8,0.2,0.2,0.2,0.8,0.8,0.2,0.2","3","",""
"","html-keyboard-response","171","42023","0.0-171.0","3Y5140Z9DY2P932BJQ8EAXQFXV7IPM","A3DG8M8G0L4DNZ","3566S7OX5D5NH74JOVOPTTMK8IR17K","","null","<img src=""img/land1.png"" style=""width:200px; border:14px solid green;"">","null","","","","","","","","","",""
"","image-keyboard-response","172","42028","0.0-172.0","3Y5140Z9DY2P932BJQ8EAXQFXV7IPM","A3DG8M8G0L4DNZ","3566S7OX5D5NH74JOVOPTTMK8IR17K","","4.800000011920929","img/land1.png","74","5.600000023841858","1","0","1","2","0.8,0.2,0.2,0.2,0.8,0.2,0.2,0.2,0.8","0.2,0.8,0.2,0.2,0.2,0.8,0.8,0.2,0.2","3","",""
"","html-keyboard-response","173","42330","0.0-173.0","3Y5140Z9DY2P932BJQ8EAXQFXV7IPM","A3DG8M8G0L4DNZ","3566S7OX5D5NH74JOVOPTTMK8IR17K","","null","<img src=""img/land1.png"" style=""width:200px;border:14px solid red;"">","null","","","","","","","","","",""
"","image-keyboard-response","174","42386","0.0-174.0","3Y5140Z9DY2P932BJQ8EAXQFXV7IPM","A3DG8M8G0L4DNZ","3566S7OX5D5NH74JOVOPTTMK8IR17K","","55.5","img/land1.png","75","56","2","0","1","2","0.8,0.2,0.2,0.2,0.8,0.2,0.2,0.2,0.8","0.2,0.8,0.2,0.2,0.2,0.8,0.8,0.2,0.2","3","",""
"","html-keyboard-response","175","42687","0.0-175.0","3Y5140Z9DY2P932BJQ8EAXQFXV7IPM","A3DG8M8G0L4DNZ","3566S7OX5D5NH74JOVOPTTMK8IR17K","","null","<img src=""img/land1.png"" style=""width:200px;border:14px solid red;"">","null","","","","","","","","","",""
"","image-keyboard-response","176","42690","0.0-176.0","3Y5140Z9DY2P932BJQ8EAXQFXV7IPM","A3DG8M8G0L4DNZ","3566S7OX5D5NH74JOVOPTTMK8IR17K","","1.800000011920929","img/land1.png","76","3","3","1","1","2","0.8,0.2,0.2,0.2,0.8,0.2,0.2,0.2,0.8","0.2,0.8,0.2,0.2,0.2,0.8,0.8,0.2,0.2","3","",""
"","html-keyboard-response","177","42992","0.0-177.0","3Y5140Z9DY2P932BJQ8EAXQFXV7IPM","A3DG8M8G0L4DNZ","3566S7OX5D5NH74JOVOPTTMK8IR17K","","null","<img src=""img/land1.png"" style=""width:200px; border:14px solid green;"">","null","","","","","","","","","",""
"","image-keyboard-response","178","43050","0.0-178.0","3Y5140Z9DY2P932BJQ8EAXQFXV7IPM","A3DG8M8G0L4DNZ","3566S7OX5D5NH74JOVOPTTMK8IR17K","","57.299999952316284","img/land1.png","75","57.90000003576279","2","1","1","2","0.8,0.2,0.2,0.2,0.8,0.2,0.2,0.2,0.8","0.2,0.8,0.2,0.2,0.2,0.8,0.8,0.2,0.2","3","",""
"","html-keyboard-response","179","43351","0.0-179.0","3Y5140Z9DY2P932BJQ8EAXQFXV7IPM","A3DG8M8G0L4DNZ","3566S7OX5D5NH74JOVOPTTMK8IR17K","","null","<img src=""img/land1.png"" style=""width:200px; border:14px solid green;"">","null","","","","","","","","","",""
"","image-keyboard-response","180","43396","0.0-180.0","3Y5140Z9DY2P932BJQ8EAXQFXV7IPM","A3DG8M8G0L4DNZ","3566S7OX5D5NH74JOVOPTTMK8IR17K","","43.5","img/land1.png","74","44.19999998807907","1","0","1","2","0.8,0.2,0.2,0.2,0.8,0.2,0.2,0.2,0.8","0.2,0.8,0.2,0.2,0.2,0.8,0.8,0.2,0.2","3","",""
"","html-keyboard-response","181","43697","0.0-181.0","3Y5140Z9DY2P932BJQ8EAXQFXV7IPM","A3DG8M8G0L4DNZ","3566S7OX5D5NH74JOVOPTTMK8IR17K","","null","<img src=""img/land1.png"" style=""width:200px;border:14px solid red;"">","null","","","","","","","","","",""
"","image-keyboard-response","182","43736","0.0-182.0","3Y5140Z9DY2P932BJQ8EAXQFXV7IPM","A3DG8M8G0L4DNZ","3566S7OX5D5NH74JOVOPTTMK8IR17K","","37.80000001192093","img/land1.png","75","38.69999998807907","2","1","1","2","0.8,0.2,0.2,0.2,0.8,0.2,0.2,0.2,0.8","0.2,0.8,0.2,0.2,0.2,0.8,0.8,0.2,0.2","3","",""
"","html-keyboard-response","183","44038","0.0-183.0","3Y5140Z9DY2P932BJQ8EAXQFXV7IPM","A3DG8M8G0L4DNZ","3566S7OX5D5NH74JOVOPTTMK8IR17K","","null","<img src=""img/land1.png"" style=""width:200px; border:14px solid green;"">","null","","","","","","","","","",""
"","image-keyboard-response","184","44067","0.0-184.0","3Y5140Z9DY2P932BJQ8EAXQFXV7IPM","A3DG8M8G0L4DNZ","3566S7OX5D5NH74JOVOPTTMK8IR17K","","28.19999998807907","img/land4.png","74","29","1","0","2","2","0.8,0.2,0.2,0.2,0.8,0.2,0.2,0.2,0.8","0.2,0.8,0.2,0.2,0.2,0.8,0.8,0.2,0.2","3","",""
"","html-keyboard-response","185","44369","0.0-185.0","3Y5140Z9DY2P932BJQ8EAXQFXV7IPM","A3DG8M8G0L4DNZ","3566S7OX5D5NH74JOVOPTTMK8IR17K","","null","<img src=""img/land4.png"" style=""width:200px;border:14px solid red;"">","null","","","","","","","","","",""
"","image-keyboard-response","186","44421","0.0-186.0","3Y5140Z9DY2P932BJQ8EAXQFXV7IPM","A3DG8M8G0L4DNZ","3566S7OX5D5NH74JOVOPTTMK8IR17K","","51.200000047683716","img/land5.png","75","52","2","0","3","2","0.8,0.2,0.2,0.2,0.8,0.2,0.2,0.2,0.8","0.2,0.8,0.2,0.2,0.2,0.8,0.8,0.2,0.2","3","",""
"","html-keyboard-response","187","44722","0.0-187.0","3Y5140Z9DY2P932BJQ8EAXQFXV7IPM","A3DG8M8G0L4DNZ","3566S7OX5D5NH74JOVOPTTMK8IR17K","","null","<img src=""img/land5.png"" style=""width:200px;border:14px solid red;"">","null","","","","","","","","","",""
"","image-keyboard-response","188","44728","0.0-188.0","3Y5140Z9DY2P932BJQ8EAXQFXV7IPM","A3DG8M8G0L4DNZ","3566S7OX5D5NH74JOVOPTTMK8IR17K","","5.399999976158142","img/land5.png","74","6.299999952316284","1","1","3","2","0.8,0.2,0.2,0.2,0.8,0.2,0.2,0.2,0.8","0.2,0.8,0.2,0.2,0.2,0.8,0.8,0.2,0.2","3","",""
"","html-keyboard-response","189","45029","0.0-189.0","3Y5140Z9DY2P932BJQ8EAXQFXV7IPM","A3DG8M8G0L4DNZ","3566S7OX5D5NH74JOVOPTTMK8IR17K","","null","<img src=""img/land5.png"" style=""width:200px; border:14px solid green;"">","null","","","","","","","","","",""
"","image-keyboard-response","190","45044","0.0-190.0","3Y5140Z9DY2P932BJQ8EAXQFXV7IPM","A3DG8M8G0L4DNZ","3566S7OX5D5NH74JOVOPTTMK8IR17K","","14.300000011920929","img/land1.png","75","15.100000023841858","2","1","1","2","0.8,0.2,0.2,0.2,0.8,0.2,0.2,0.2,0.8","0.2,0.8,0.2,0.2,0.2,0.8,0.8,0.2,0.2","3","",""
"","html-keyboard-response","191","45346","0.0-191.0","3Y5140Z9DY2P932BJQ8EAXQFXV7IPM","A3DG8M8G0L4DNZ","3566S7OX5D5NH74JOVOPTTMK8IR17K","","null","<img src=""img/land1.png"" style=""width:200px; border:14px solid green;"">","null","","","","","","","","","",""
"","image-keyboard-response","192","45369","0.0-192.0","3Y5140Z9DY2P932BJQ8EAXQFXV7IPM","A3DG8M8G0L4DNZ","3566S7OX5D5NH74JOVOPTTMK8IR17K","","21.69999998807907","img/land1.png","74","22.599999964237213","1","0","1","2","0.8,0.2,0.2,0.2,0.8,0.2,0.2,0.2,0.8","0.2,0.8,0.2,0.2,0.2,0.8,0.8,0.2,0.2","3","",""
"","html-keyboard-response","193","45670","0.0-193.0","3Y5140Z9DY2P932BJQ8EAXQFXV7IPM","A3DG8M8G0L4DNZ","3566S7OX5D5NH74JOVOPTTMK8IR17K","","null","<img src=""img/land1.png"" style=""width:200px;border:14px solid red;"">","null","","","","","","","","","",""
"","image-keyboard-response","194","45728","0.0-194.0","3Y5140Z9DY2P932BJQ8EAXQFXV7IPM","A3DG8M8G0L4DNZ","3566S7OX5D5NH74JOVOPTTMK8IR17K","","57.5","img/land1.png","75","58.19999998807907","2","1","1","2","0.8,0.2,0.2,0.2,0.8,0.2,0.2,0.2,0.8","0.2,0.8,0.2,0.2,0.2,0.8,0.8,0.2,0.2","3","",""
"","html-keyboard-response","195","46030","0.0-195.0","3Y5140Z9DY2P932BJQ8EAXQFXV7IPM","A3DG8M8G0L4DNZ","3566S7OX5D5NH74JOVOPTTMK8IR17K","","null","<img src=""img/land1.png"" style=""width:200px; border:14px solid green;"">","null","","","","","","","","","",""
"","image-keyboard-response","196","46046","0.0-196.0","3Y5140Z9DY2P932BJQ8EAXQFXV7IPM","A3DG8M8G0L4DNZ","3566S7OX5D5NH74JOVOPTTMK8IR17K","","15.399999976158142","img/land1.png","74","16.099999964237213","1","1","1","2","0.8,0.2,0.2,0.2,0.8,0.2,0.2,0.2,0.8","0.2,0.8,0.2,0.2,0.2,0.8,0.8,0.2,0.2","3","",""
"","html-keyboard-response","197","46349","0.0-197.0","3Y5140Z9DY2P932BJQ8EAXQFXV7IPM","A3DG8M8G0L4DNZ","3566S7OX5D5NH74JOVOPTTMK8IR17K","","null","<img src=""img/land1.png"" style=""width:200px; border:14px solid green;"">","null","","","","","","","","","",""
"","image-keyboard-response","198","46389","0.0-198.0","3Y5140Z9DY2P932BJQ8EAXQFXV7IPM","A3DG8M8G0L4DNZ","3566S7OX5D5NH74JOVOPTTMK8IR17K","","38.90000003576279","img/land1.png","75","39.90000003576279","2","1","1","2","0.8,0.2,0.2,0.2,0.8,0.2,0.2,0.2,0.8","0.2,0.8,0.2,0.2,0.2,0.8,0.8,0.2,0.2","3","",""
"","html-keyboard-response","199","46690","0.0-199.0","3Y5140Z9DY2P932BJQ8EAXQFXV7IPM","A3DG8M8G0L4DNZ","3566S7OX5D5NH74JOVOPTTMK8IR17K","","null","<img src=""img/land1.png"" style=""width:200px; border:14px solid green;"">","null","","","","","","","","","",""
"","image-keyboard-response","200","46694","0.0-200.0","3Y5140Z9DY2P932BJQ8EAXQFXV7IPM","A3DG8M8G0L4DNZ","3566S7OX5D5NH74JOVOPTTMK8IR17K","","3.399999976158142","img/land1.png","76","4.300000011920929","3","0","1","2","0.8,0.2,0.2,0.2,0.8,0.2,0.2,0.2,0.8","0.2,0.8,0.2,0.2,0.2,0.8,0.8,0.2,0.2","3","",""
"","html-keyboard-response","201","46996","0.0-201.0","3Y5140Z9DY2P932BJQ8EAXQFXV7IPM","A3DG8M8G0L4DNZ","3566S7OX5D5NH74JOVOPTTMK8IR17K","","null","<img src=""img/land1.png"" style=""width:200px;border:14px solid red;"">","null","","","","","","","","","",""
"","image-keyboard-response","202","47038","0.0-202.0","3Y5140Z9DY2P932BJQ8EAXQFXV7IPM","A3DG8M8G0L4DNZ","3566S7OX5D5NH74JOVOPTTMK8IR17K","","41.19999998807907","img/land1.png","75","42.19999998807907","2","1","1","2","0.8,0.2,0.2,0.2,0.8,0.2,0.2,0.2,0.8","0.2,0.8,0.2,0.2,0.2,0.8,0.8,0.2,0.2","3","",""
"","html-keyboard-response","203","47340","0.0-203.0","3Y5140Z9DY2P932BJQ8EAXQFXV7IPM","A3DG8M8G0L4DNZ","3566S7OX5D5NH74JOVOPTTMK8IR17K","","null","<img src=""img/land1.png"" style=""width:200px; border:14px solid green;"">","null","","","","","","","","","",""
"","image-keyboard-response","204","47361","0.0-204.0","3Y5140Z9DY2P932BJQ8EAXQFXV7IPM","A3DG8M8G0L4DNZ","3566S7OX5D5NH74JOVOPTTMK8IR17K","","20.19999998807907","img/land4.png","74","21.099999964237213","1","0","2","2","0.8,0.2,0.2,0.2,0.8,0.2,0.2,0.2,0.8","0.2,0.8,0.2,0.2,0.2,0.8,0.8,0.2,0.2","3","",""
"","html-keyboard-response","205","47663","0.0-205.0","3Y5140Z9DY2P932BJQ8EAXQFXV7IPM","A3DG8M8G0L4DNZ","3566S7OX5D5NH74JOVOPTTMK8IR17K","","null","<img src=""img/land4.png"" style=""width:200px;border:14px solid red;"">","null","","","","","","","","","",""
"","image-keyboard-response","206","47742","0.0-206.0","3Y5140Z9DY2P932BJQ8EAXQFXV7IPM","A3DG8M8G0L4DNZ","3566S7OX5D5NH74JOVOPTTMK8IR17K","","78.80000001192093","img/land4.png","75","79.69999998807907","2","0","2","2","0.8,0.2,0.2,0.2,0.8,0.2,0.2,0.2,0.8","0.2,0.8,0.2,0.2,0.2,0.8,0.8,0.2,0.2","3","",""
"","html-keyboard-response","207","48044","0.0-207.0","3Y5140Z9DY2P932BJQ8EAXQFXV7IPM","A3DG8M8G0L4DNZ","3566S7OX5D5NH74JOVOPTTMK8IR17K","","null","<img src=""img/land4.png"" style=""width:200px;border:14px solid red;"">","null","","","","","","","","","",""
"","image-keyboard-response","208","48058","0.0-208.0","3Y5140Z9DY2P932BJQ8EAXQFXV7IPM","A3DG8M8G0L4DNZ","3566S7OX5D5NH74JOVOPTTMK8IR17K","","13.300000011920929","img/land5.png","74","14.099999964237213","1","1","3","2","0.8,0.2,0.2,0.2,0.8,0.2,0.2,0.2,0.8","0.2,0.8,0.2,0.2,0.2,0.8,0.8,0.2,0.2","3","",""
"","html-keyboard-response","209","48360","0.0-209.0","3Y5140Z9DY2P932BJQ8EAXQFXV7IPM","A3DG8M8G0L4DNZ","3566S7OX5D5NH74JOVOPTTMK8IR17K","","null","<img src=""img/land5.png"" style=""width:200px; border:14px solid green;"">","null","","","","","","","","","",""
"","image-keyboard-response","210","48383","0.0-210.0","3Y5140Z9DY2P932BJQ8EAXQFXV7IPM","A3DG8M8G0L4DNZ","3566S7OX5D5NH74JOVOPTTMK8IR17K","","21.80000001192093","img/land4.png","76","22.69999998807907","3","1","2","2","0.8,0.2,0.2,0.2,0.8,0.2,0.2,0.2,0.8","0.2,0.8,0.2,0.2,0.2,0.8,0.8,0.2,0.2","3","",""
"","html-keyboard-response","211","48685","0.0-211.0","3Y5140Z9DY2P932BJQ8EAXQFXV7IPM","A3DG8M8G0L4DNZ","3566S7OX5D5NH74JOVOPTTMK8IR17K","","null","<img src=""img/land4.png"" style=""width:200px; border:14px solid green;"">","null","","","","","","","","","",""
"","image-keyboard-response","212","48711","0.0-212.0","3Y5140Z9DY2P932BJQ8EAXQFXV7IPM","A3DG8M8G0L4DNZ","3566S7OX5D5NH74JOVOPTTMK8IR17K","","25.200000047683716","img/land1.png","74","25.900000035762787","1","0","1","2","0.8,0.2,0.2,0.2,0.8,0.2,0.2,0.2,0.8","0.2,0.8,0.2,0.2,0.2,0.8,0.8,0.2,0.2","3","",""
"","html-keyboard-response","213","49012","0.0-213.0","3Y5140Z9DY2P932BJQ8EAXQFXV7IPM","A3DG8M8G0L4DNZ","3566S7OX5D5NH74JOVOPTTMK8IR17K","","null","<img src=""img/land1.png"" style=""width:200px;border:14px solid red;"">","null","","","","","","","","","",""
"","image-keyboard-response","214","49066","0.0-214.0","3Y5140Z9DY2P932BJQ8EAXQFXV7IPM","A3DG8M8G0L4DNZ","3566S7OX5D5NH74JOVOPTTMK8IR17K","","53.40000003576279","img/land5.png","75","54.19999998807907","2","0","3","2","0.8,0.2,0.2,0.2,0.8,0.2,0.2,0.2,0.8","0.2,0.8,0.2,0.2,0.2,0.8,0.8,0.2,0.2","3","",""
"","html-keyboard-response","215","49367","0.0-215.0","3Y5140Z9DY2P932BJQ8EAXQFXV7IPM","A3DG8M8G0L4DNZ","3566S7OX5D5NH74JOVOPTTMK8IR17K","","null","<img src=""img/land5.png"" style=""width:200px;border:14px solid red;"">","null","","","","","","","","","",""
"","image-keyboard-response","216","49431","0.0-216.0","3Y5140Z9DY2P932BJQ8EAXQFXV7IPM","A3DG8M8G0L4DNZ","3566S7OX5D5NH74JOVOPTTMK8IR17K","","62.60000002384186","img/land4.png","76","63.5","3","1","2","2","0.8,0.2,0.2,0.2,0.8,0.2,0.2,0.2,0.8","0.2,0.8,0.2,0.2,0.2,0.8,0.8,0.2,0.2","3","",""
"","html-keyboard-response","217","49733","0.0-217.0","3Y5140Z9DY2P932BJQ8EAXQFXV7IPM","A3DG8M8G0L4DNZ","3566S7OX5D5NH74JOVOPTTMK8IR17K","","null","<img src=""img/land4.png"" style=""width:200px; border:14px solid green;"">","null","","","","","","","","","",""
"","image-keyboard-response","218","49812","0.0-218.0","3Y5140Z9DY2P932BJQ8EAXQFXV7IPM","A3DG8M8G0L4DNZ","3566S7OX5D5NH74JOVOPTTMK8IR17K","","78","img/land1.png","74","78.89999997615814","1","0","1","2","0.8,0.2,0.2,0.2,0.8,0.2,0.2,0.2,0.8","0.2,0.8,0.2,0.2,0.2,0.8,0.8,0.2,0.2","3","",""
"","html-keyboard-response","219","50113","0.0-219.0","3Y5140Z9DY2P932BJQ8EAXQFXV7IPM","A3DG8M8G0L4DNZ","3566S7OX5D5NH74JOVOPTTMK8IR17K","","null","<img src=""img/land1.png"" style=""width:200px;border:14px solid red;"">","null","","","","","","","","","",""
"","image-keyboard-response","220","50160","0.0-220.0","3Y5140Z9DY2P932BJQ8EAXQFXV7IPM","A3DG8M8G0L4DNZ","3566S7OX5D5NH74JOVOPTTMK8IR17K","","46.80000001192093","img/land1.png","75","47.39999997615814","2","1","1","2","0.8,0.2,0.2,0.2,0.8,0.2,0.2,0.2,0.8","0.2,0.8,0.2,0.2,0.2,0.8,0.8,0.2,0.2","3","",""
"","html-keyboard-response","221","50474","0.0-221.0","3Y5140Z9DY2P932BJQ8EAXQFXV7IPM","A3DG8M8G0L4DNZ","3566S7OX5D5NH74JOVOPTTMK8IR17K","","null","<img src=""img/land1.png"" style=""width:200px; border:14px solid green;"">","null","","","","","","","","","",""
"","image-keyboard-response","222","50490","0.0-222.0","3Y5140Z9DY2P932BJQ8EAXQFXV7IPM","A3DG8M8G0L4DNZ","3566S7OX5D5NH74JOVOPTTMK8IR17K","","15.799999952316284","img/land5.png","76","16.600000023841858","3","0","3","2","0.8,0.2,0.2,0.2,0.8,0.2,0.2,0.2,0.8","0.2,0.8,0.2,0.2,0.2,0.8,0.8,0.2,0.2","3","",""
"","html-keyboard-response","223","50792","0.0-223.0","3Y5140Z9DY2P932BJQ8EAXQFXV7IPM","A3DG8M8G0L4DNZ","3566S7OX5D5NH74JOVOPTTMK8IR17K","","null","<img src=""img/land5.png"" style=""width:200px;border:14px solid red;"">","null","","","","","","","","","",""
"","image-keyboard-response","224","50833","0.0-224.0","3Y5140Z9DY2P932BJQ8EAXQFXV7IPM","A3DG8M8G0L4DNZ","3566S7OX5D5NH74JOVOPTTMK8IR17K","","40.19999998807907","img/land1.png","75","40.799999952316284","2","0","1","2","0.8,0.2,0.2,0.2,0.8,0.2,0.2,0.2,0.8","0.2,0.8,0.2,0.2,0.2,0.8,0.8,0.2,0.2","3","",""
"","html-keyboard-response","225","51135","0.0-225.0","3Y5140Z9DY2P932BJQ8EAXQFXV7IPM","A3DG8M8G0L4DNZ","3566S7OX5D5NH74JOVOPTTMK8IR17K","","null","<img src=""img/land1.png"" style=""width:200px;border:14px solid red;"">","null","","","","","","","","","",""
"","image-keyboard-response","226","51143","0.0-226.0","3Y5140Z9DY2P932BJQ8EAXQFXV7IPM","A3DG8M8G0L4DNZ","3566S7OX5D5NH74JOVOPTTMK8IR17K","","7.400000035762787","img/land4.png","74","8.099999964237213","1","0","2","2","0.8,0.2,0.2,0.2,0.8,0.2,0.2,0.2,0.8","0.2,0.8,0.2,0.2,0.2,0.8,0.8,0.2,0.2","3","",""
"","html-keyboard-response","227","51444","0.0-227.0","3Y5140Z9DY2P932BJQ8EAXQFXV7IPM","A3DG8M8G0L4DNZ","3566S7OX5D5NH74JOVOPTTMK8IR17K","","null","<img src=""img/land4.png"" style=""width:200px;border:14px solid red;"">","null","","","","","","","","","",""
"","image-keyboard-response","228","51473","0.0-228.0","3Y5140Z9DY2P932BJQ8EAXQFXV7IPM","A3DG8M8G0L4DNZ","3566S7OX5D5NH74JOVOPTTMK8IR17K","","27.69999998807907","img/land1.png","75","28.400000035762787","2","1","1","2","0.8,0.2,0.2,0.2,0.8,0.2,0.2,0.2,0.8","0.2,0.8,0.2,0.2,0.2,0.8,0.8,0.2,0.2","3","",""
"","html-keyboard-response","229","51774","0.0-229.0","3Y5140Z9DY2P932BJQ8EAXQFXV7IPM","A3DG8M8G0L4DNZ","3566S7OX5D5NH74JOVOPTTMK8IR17K","","null","<img src=""img/land1.png"" style=""width:200px; border:14px solid green;"">","null","","","","","","","","","",""
"","image-keyboard-response","230","51824","0.0-230.0","3Y5140Z9DY2P932BJQ8EAXQFXV7IPM","A3DG8M8G0L4DNZ","3566S7OX5D5NH74JOVOPTTMK8IR17K","","48.69999998807907","img/land1.png","74","49.5","1","0","1","2","0.8,0.2,0.2,0.2,0.8,0.2,0.2,0.2,0.8","0.2,0.8,0.2,0.2,0.2,0.8,0.8,0.2,0.2","3","",""
"","html-keyboard-response","231","52126","0.0-231.0","3Y5140Z9DY2P932BJQ8EAXQFXV7IPM","A3DG8M8G0L4DNZ","3566S7OX5D5NH74JOVOPTTMK8IR17K","","null","<img src=""img/land1.png"" style=""width:200px;border:14px solid red;"">","null","","","","","","","","","",""
"","image-keyboard-response","232","52149","0.0-232.0","3Y5140Z9DY2P932BJQ8EAXQFXV7IPM","A3DG8M8G0L4DNZ","3566S7OX5D5NH74JOVOPTTMK8IR17K","","21.100000023841858","img/land1.png","76","22.100000023841858","3","0","1","2","0.8,0.2,0.2,0.2,0.8,0.2,0.2,0.2,0.8","0.2,0.8,0.2,0.2,0.2,0.8,0.8,0.2,0.2","3","",""
"","html-keyboard-response","233","52450","0.0-233.0","3Y5140Z9DY2P932BJQ8EAXQFXV7IPM","A3DG8M8G0L4DNZ","3566S7OX5D5NH74JOVOPTTMK8IR17K","","null","<img src=""img/land1.png"" style=""width:200px;border:14px solid red;"">","null","","","","","","","","","",""
"","image-keyboard-response","234","52497","0.0-234.0","3Y5140Z9DY2P932BJQ8EAXQFXV7IPM","A3DG8M8G0L4DNZ","3566S7OX5D5NH74JOVOPTTMK8IR17K","","45.30000001192093","img/land5.png","74","46.40000003576279","1","1","3","2","0.8,0.2,0.2,0.2,0.8,0.2,0.2,0.2,0.8","0.2,0.8,0.2,0.2,0.2,0.8,0.8,0.2,0.2","3","",""
"","html-keyboard-response","235","52799","0.0-235.0","3Y5140Z9DY2P932BJQ8EAXQFXV7IPM","A3DG8M8G0L4DNZ","3566S7OX5D5NH74JOVOPTTMK8IR17K","","null","<img src=""img/land5.png"" style=""width:200px; border:14px solid green;"">","null","","","","","","","","","",""
"","image-keyboard-response","236","52869","0.0-236.0","3Y5140Z9DY2P932BJQ8EAXQFXV7IPM","A3DG8M8G0L4DNZ","3566S7OX5D5NH74JOVOPTTMK8IR17K","","68.60000002384186","img/land1.png","75","69.60000002384186","2","1","1","2","0.8,0.2,0.2,0.2,0.8,0.2,0.2,0.2,0.8","0.2,0.8,0.2,0.2,0.2,0.8,0.8,0.2,0.2","3","",""
"","html-keyboard-response","237","53171","0.0-237.0","3Y5140Z9DY2P932BJQ8EAXQFXV7IPM","A3DG8M8G0L4DNZ","3566S7OX5D5NH74JOVOPTTMK8IR17K","","null","<img src=""img/land1.png"" style=""width:200px; border:14px solid green;"">","null","","","","","","","","","",""
"","image-keyboard-response","238","53182","0.0-238.0","3Y5140Z9DY2P932BJQ8EAXQFXV7IPM","A3DG8M8G0L4DNZ","3566S7OX5D5NH74JOVOPTTMK8IR17K","","10.199999988079071","img/land1.png","74","11.200000047683716","1","0","1","2","0.8,0.2,0.2,0.2,0.8,0.2,0.2,0.2,0.8","0.2,0.8,0.2,0.2,0.2,0.8,0.8,0.2,0.2","3","",""
"","html-keyboard-response","239","53484","0.0-239.0","3Y5140Z9DY2P932BJQ8EAXQFXV7IPM","A3DG8M8G0L4DNZ","3566S7OX5D5NH74JOVOPTTMK8IR17K","","null","<img src=""img/land1.png"" style=""width:200px;border:14px solid red;"">","null","","","","","","","","","",""
"","image-keyboard-response","240","53527","0.0-240.0","3Y5140Z9DY2P932BJQ8EAXQFXV7IPM","A3DG8M8G0L4DNZ","3566S7OX5D5NH74JOVOPTTMK8IR17K","","41.799999952316284","img/land1.png","75","43","2","1","1","2","0.8,0.2,0.2,0.2,0.8,0.2,0.2,0.2,0.8","0.2,0.8,0.2,0.2,0.2,0.8,0.8,0.2,0.2","3","",""
"","html-keyboard-response","241","53828","0.0-241.0","3Y5140Z9DY2P932BJQ8EAXQFXV7IPM","A3DG8M8G0L4DNZ","3566S7OX5D5NH74JOVOPTTMK8IR17K","","null","<img src=""img/land1.png"" style=""width:200px; border:14px solid green;"">","null","","","","","","","","","",""
"","image-keyboard-response","242","53871","0.0-242.0","3Y5140Z9DY2P932BJQ8EAXQFXV7IPM","A3DG8M8G0L4DNZ","3566S7OX5D5NH74JOVOPTTMK8IR17K","","41.89999997615814","img/land1.png","76","42.80000001192093","3","0","1","2","0.8,0.2,0.2,0.2,0.8,0.2,0.2,0.2,0.8","0.2,0.8,0.2,0.2,0.2,0.8,0.8,0.2,0.2","3","",""
"","html-keyboard-response","243","54173","0.0-243.0","3Y5140Z9DY2P932BJQ8EAXQFXV7IPM","A3DG8M8G0L4DNZ","3566S7OX5D5NH74JOVOPTTMK8IR17K","","null","<img src=""img/land1.png"" style=""width:200px;border:14px solid red;"">","null","","","","","","","","","",""
"","image-keyboard-response","244","54215","0.0-244.0","3Y5140Z9DY2P932BJQ8EAXQFXV7IPM","A3DG8M8G0L4DNZ","3566S7OX5D5NH74JOVOPTTMK8IR17K","","41.19999998807907","img/land1.png","75","42.19999998807907","2","0","1","2","0.8,0.2,0.2,0.2,0.8,0.2,0.2,0.2,0.8","0.2,0.8,0.2,0.2,0.2,0.8,0.8,0.2,0.2","3","",""
"","html-keyboard-response","245","54517","0.0-245.0","3Y5140Z9DY2P932BJQ8EAXQFXV7IPM","A3DG8M8G0L4DNZ","3566S7OX5D5NH74JOVOPTTMK8IR17K","","null","<img src=""img/land1.png"" style=""width:200px;border:14px solid red;"">","null","","","","","","","","","",""
"","image-keyboard-response","246","54561","0.0-246.0","3Y5140Z9DY2P932BJQ8EAXQFXV7IPM","A3DG8M8G0L4DNZ","3566S7OX5D5NH74JOVOPTTMK8IR17K","","43.09999996423721","img/land4.png","74","44.19999998807907","1","0","2","2","0.8,0.2,0.2,0.2,0.8,0.2,0.2,0.2,0.8","0.2,0.8,0.2,0.2,0.2,0.8,0.8,0.2,0.2","3","",""
"","html-keyboard-response","247","54863","0.0-247.0","3Y5140Z9DY2P932BJQ8EAXQFXV7IPM","A3DG8M8G0L4DNZ","3566S7OX5D5NH74JOVOPTTMK8IR17K","","null","<img src=""img/land4.png"" style=""width:200px;border:14px solid red;"">","null","","","","","","","","","",""
"","image-keyboard-response","248","54916","0.0-248.0","3Y5140Z9DY2P932BJQ8EAXQFXV7IPM","A3DG8M8G0L4DNZ","3566S7OX5D5NH74JOVOPTTMK8IR17K","","52.30000001192093","img/land5.png","75","53.19999998807907","2","0","3","2","0.8,0.2,0.2,0.2,0.8,0.2,0.2,0.2,0.8","0.2,0.8,0.2,0.2,0.2,0.8,0.8,0.2,0.2","3","",""
"","html-keyboard-response","249","55217","0.0-249.0","3Y5140Z9DY2P932BJQ8EAXQFXV7IPM","A3DG8M8G0L4DNZ","3566S7OX5D5NH74JOVOPTTMK8IR17K","","null","<img src=""img/land5.png"" style=""width:200px;border:14px solid red;"">","null","","","","","","","","","",""
"","image-keyboard-response","250","55243","0.0-250.0","3Y5140Z9DY2P932BJQ8EAXQFXV7IPM","A3DG8M8G0L4DNZ","3566S7OX5D5NH74JOVOPTTMK8IR17K","","24.099999964237213","img/land1.png","74","25.399999976158142","1","0","1","2","0.8,0.2,0.2,0.2,0.8,0.2,0.2,0.2,0.8","0.2,0.8,0.2,0.2,0.2,0.8,0.8,0.2,0.2","3","",""
"","html-keyboard-response","251","55545","0.0-251.0","3Y5140Z9DY2P932BJQ8EAXQFXV7IPM","A3DG8M8G0L4DNZ","3566S7OX5D5NH74JOVOPTTMK8IR17K","","null","<img src=""img/land1.png"" style=""width:200px;border:14px solid red;"">","null","","","","","","","","","",""
"","image-keyboard-response","252","55585","0.0-252.0","3Y5140Z9DY2P932BJQ8EAXQFXV7IPM","A3DG8M8G0L4DNZ","3566S7OX5D5NH74JOVOPTTMK8IR17K","","39","img/land1.png","75","39.69999998807907","2","1","1","2","0.8,0.2,0.2,0.2,0.8,0.2,0.2,0.2,0.8","0.2,0.8,0.2,0.2,0.2,0.8,0.8,0.2,0.2","3","",""
"","html-keyboard-response","253","55886","0.0-253.0","3Y5140Z9DY2P932BJQ8EAXQFXV7IPM","A3DG8M8G0L4DNZ","3566S7OX5D5NH74JOVOPTTMK8IR17K","","null","<img src=""img/land1.png"" style=""width:200px; border:14px solid green;"">","null","","","","","","","","","",""
"","image-keyboard-response","254","55902","0.0-254.0","3Y5140Z9DY2P932BJQ8EAXQFXV7IPM","A3DG8M8G0L4DNZ","3566S7OX5D5NH74JOVOPTTMK8IR17K","","15.5","img/land4.png","74","16","1","0","2","2","0.8,0.2,0.2,0.2,0.8,0.2,0.2,0.2,0.8","0.2,0.8,0.2,0.2,0.2,0.8,0.8,0.2,0.2","3","",""
"","html-keyboard-response","255","56204","0.0-255.0","3Y5140Z9DY2P932BJQ8EAXQFXV7IPM","A3DG8M8G0L4DNZ","3566S7OX5D5NH74JOVOPTTMK8IR17K","","null","<img src=""img/land4.png"" style=""width:200px;border:14px solid red;"">","null","","","","","","","","","",""
"","image-keyboard-response","256","56241","0.0-256.0","3Y5140Z9DY2P932BJQ8EAXQFXV7IPM","A3DG8M8G0L4DNZ","3566S7OX5D5NH74JOVOPTTMK8IR17K","","35.69999998807907","img/land1.png","76","36.69999998807907","3","0","1","2","0.8,0.2,0.2,0.2,0.8,0.2,0.2,0.2,0.8","0.2,0.8,0.2,0.2,0.2,0.8,0.8,0.2,0.2","3","",""
"","html-keyboard-response","257","56542","0.0-257.0","3Y5140Z9DY2P932BJQ8EAXQFXV7IPM","A3DG8M8G0L4DNZ","3566S7OX5D5NH74JOVOPTTMK8IR17K","","null","<img src=""img/land1.png"" style=""width:200px;border:14px solid red;"">","null","","","","","","","","","",""
"","image-keyboard-response","258","56635","0.0-258.0","3Y5140Z9DY2P932BJQ8EAXQFXV7IPM","A3DG8M8G0L4DNZ","3566S7OX5D5NH74JOVOPTTMK8IR17K","","91.60000002384186","img/land5.png","74","92.60000002384186","1","1","3","2","0.8,0.2,0.2,0.2,0.8,0.2,0.2,0.2,0.8","0.2,0.8,0.2,0.2,0.2,0.8,0.8,0.2,0.2","3","",""
"","html-keyboard-response","259","56936","0.0-259.0","3Y5140Z9DY2P932BJQ8EAXQFXV7IPM","A3DG8M8G0L4DNZ","3566S7OX5D5NH74JOVOPTTMK8IR17K","","null","<img src=""img/land5.png"" style=""width:200px; border:14px solid green;"">","null","","","","","","","","","",""
"","image-keyboard-response","260","56974","0.0-260.0","3Y5140Z9DY2P932BJQ8EAXQFXV7IPM","A3DG8M8G0L4DNZ","3566S7OX5D5NH74JOVOPTTMK8IR17K","","37.69999998807907","img/land1.png","75","38.30000001192093","2","0","1","2","0.8,0.2,0.2,0.2,0.8,0.2,0.2,0.2,0.8","0.2,0.8,0.2,0.2,0.2,0.8,0.8,0.2,0.2","3","",""
"","html-keyboard-response","261","57275","0.0-261.0","3Y5140Z9DY2P932BJQ8EAXQFXV7IPM","A3DG8M8G0L4DNZ","3566S7OX5D5NH74JOVOPTTMK8IR17K","","null","<img src=""img/land1.png"" style=""width:200px;border:14px solid red;"">","null","","","","","","","","","",""
"","image-keyboard-response","262","57310","0.0-262.0","3Y5140Z9DY2P932BJQ8EAXQFXV7IPM","A3DG8M8G0L4DNZ","3566S7OX5D5NH74JOVOPTTMK8IR17K","","34.39999997615814","img/land4.png","76","35.19999998807907","3","1","2","2","0.8,0.2,0.2,0.2,0.8,0.2,0.2,0.2,0.8","0.2,0.8,0.2,0.2,0.2,0.8,0.8,0.2,0.2","3","",""
"","html-keyboard-response","263","57612","0.0-263.0","3Y5140Z9DY2P932BJQ8EAXQFXV7IPM","A3DG8M8G0L4DNZ","3566S7OX5D5NH74JOVOPTTMK8IR17K","","null","<img src=""img/land4.png"" style=""width:200px; border:14px solid green;"">","null","","","","","","","","","",""
"","image-keyboard-response","264","57707","0.0-264.0","3Y5140Z9DY2P932BJQ8EAXQFXV7IPM","A3DG8M8G0L4DNZ","3566S7OX5D5NH74JOVOPTTMK8IR17K","","94","img/land1.png","75","94.69999998807907","2","1","1","2","0.8,0.2,0.2,0.2,0.8,0.2,0.2,0.2,0.8","0.2,0.8,0.2,0.2,0.2,0.8,0.8,0.2,0.2","3","",""
"","html-keyboard-response","265","58009","0.0-265.0","3Y5140Z9DY2P932BJQ8EAXQFXV7IPM","A3DG8M8G0L4DNZ","3566S7OX5D5NH74JOVOPTTMK8IR17K","","null","<img src=""img/land1.png"" style=""width:200px; border:14px solid green;"">","null","","","","","","","","","",""
"","image-keyboard-response","266","58028","0.0-266.0","3Y5140Z9DY2P932BJQ8EAXQFXV7IPM","A3DG8M8G0L4DNZ","3566S7OX5D5NH74JOVOPTTMK8IR17K","","18.900000035762787","img/land5.png","74","19.80000001192093","1","1","3","2","0.8,0.2,0.2,0.2,0.8,0.2,0.2,0.2,0.8","0.2,0.8,0.2,0.2,0.2,0.8,0.8,0.2,0.2","3","",""
"","html-keyboard-response","267","58330","0.0-267.0","3Y5140Z9DY2P932BJQ8EAXQFXV7IPM","A3DG8M8G0L4DNZ","3566S7OX5D5NH74JOVOPTTMK8IR17K","","null","<img src=""img/land5.png"" style=""width:200px; border:14px solid green;"">","null","","","","","","","","","",""
"","image-keyboard-response","268","58380","0.0-268.0","3Y5140Z9DY2P932BJQ8EAXQFXV7IPM","A3DG8M8G0L4DNZ","3566S7OX5D5NH74JOVOPTTMK8IR17K","","48.5","img/land1.png","76","49.40000003576279","3","0","1","2","0.8,0.2,0.2,0.2,0.8,0.2,0.2,0.2,0.8","0.2,0.8,0.2,0.2,0.2,0.8,0.8,0.2,0.2","3","",""
"","html-keyboard-response","269","58681","0.0-269.0","3Y5140Z9DY2P932BJQ8EAXQFXV7IPM","A3DG8M8G0L4DNZ","3566S7OX5D5NH74JOVOPTTMK8IR17K","","null","<img src=""img/land1.png"" style=""width:200px;border:14px solid red;"">","null","","","","","","","","","",""
"","image-keyboard-response","270","58749","0.0-270.0","3Y5140Z9DY2P932BJQ8EAXQFXV7IPM","A3DG8M8G0L4DNZ","3566S7OX5D5NH74JOVOPTTMK8IR17K","","67.19999998807907","img/land1.png","74","68","1","0","1","2","0.8,0.2,0.2,0.2,0.8,0.2,0.2,0.2,0.8","0.2,0.8,0.2,0.2,0.2,0.8,0.8,0.2,0.2","3","",""
"","html-keyboard-response","271","59051","0.0-271.0","3Y5140Z9DY2P932BJQ8EAXQFXV7IPM","A3DG8M8G0L4DNZ","3566S7OX5D5NH74JOVOPTTMK8IR17K","","null","<img src=""img/land1.png"" style=""width:200px;border:14px solid red;"">","null","","","","","","","","","",""
"","image-keyboard-response","272","59139","0.0-272.0","3Y5140Z9DY2P932BJQ8EAXQFXV7IPM","A3DG8M8G0L4DNZ","3566S7OX5D5NH74JOVOPTTMK8IR17K","","87.19999998807907","img/land1.png","75","87.90000003576279","2","1","1","2","0.8,0.2,0.2,0.2,0.8,0.2,0.2,0.2,0.8","0.2,0.8,0.2,0.2,0.2,0.8,0.8,0.2,0.2","3","",""
"","html-keyboard-response","273","59440","0.0-273.0","3Y5140Z9DY2P932BJQ8EAXQFXV7IPM","A3DG8M8G0L4DNZ","3566S7OX5D5NH74JOVOPTTMK8IR17K","","null","<img src=""img/land1.png"" style=""width:200px; border:14px solid green;"">","null","","","","","","","","","",""
"","image-keyboard-response","274","59491","0.0-274.0","3Y5140Z9DY2P932BJQ8EAXQFXV7IPM","A3DG8M8G0L4DNZ","3566S7OX5D5NH74JOVOPTTMK8IR17K","","50.5","img/land1.png","74","51.30000001192093","1","0","1","2","0.8,0.2,0.2,0.2,0.8,0.2,0.2,0.2,0.8","0.2,0.8,0.2,0.2,0.2,0.8,0.8,0.2,0.2","3","",""
"","html-keyboard-response","275","59793","0.0-275.0","3Y5140Z9DY2P932BJQ8EAXQFXV7IPM","A3DG8M8G0L4DNZ","3566S7OX5D5NH74JOVOPTTMK8IR17K","","null","<img src=""img/land1.png"" style=""width:200px;border:14px solid red;"">","null","","","","","","","","","",""
"","image-keyboard-response","276","59848","0.0-276.0","3Y5140Z9DY2P932BJQ8EAXQFXV7IPM","A3DG8M8G0L4DNZ","3566S7OX5D5NH74JOVOPTTMK8IR17K","","54","img/land1.png","75","54.80000001192093","2","0","1","2","0.8,0.2,0.2,0.2,0.8,0.2,0.2,0.2,0.8","0.2,0.8,0.2,0.2,0.2,0.8,0.8,0.2,0.2","3","",""
"","html-keyboard-response","277","60150","0.0-277.0","3Y5140Z9DY2P932BJQ8EAXQFXV7IPM","A3DG8M8G0L4DNZ","3566S7OX5D5NH74JOVOPTTMK8IR17K","","null","<img src=""img/land1.png"" style=""width:200px;border:14px solid red;"">","null","","","","","","","","","",""
"","image-keyboard-response","278","60187","0.0-278.0","3Y5140Z9DY2P932BJQ8EAXQFXV7IPM","A3DG8M8G0L4DNZ","3566S7OX5D5NH74JOVOPTTMK8IR17K","","36.40000003576279","img/land1.png","74","37.30000001192093","1","0","1","2","0.8,0.2,0.2,0.2,0.8,0.2,0.2,0.2,0.8","0.2,0.8,0.2,0.2,0.2,0.8,0.8,0.2,0.2","3","",""
"","html-keyboard-response","279","60489","0.0-279.0","3Y5140Z9DY2P932BJQ8EAXQFXV7IPM","A3DG8M8G0L4DNZ","3566S7OX5D5NH74JOVOPTTMK8IR17K","","null","<img src=""img/land1.png"" style=""width:200px;border:14px solid red;"">","null","","","","","","","","","",""
"","image-keyboard-response","280","60506","0.0-280.0","3Y5140Z9DY2P932BJQ8EAXQFXV7IPM","A3DG8M8G0L4DNZ","3566S7OX5D5NH74JOVOPTTMK8IR17K","","14.5","img/land5.png","76","16","3","0","3","2","0.8,0.2,0.2,0.2,0.8,0.2,0.2,0.2,0.8","0.2,0.8,0.2,0.2,0.2,0.8,0.8,0.2,0.2","3","",""
"","html-keyboard-response","281","60807","0.0-281.0","3Y5140Z9DY2P932BJQ8EAXQFXV7IPM","A3DG8M8G0L4DNZ","3566S7OX5D5NH74JOVOPTTMK8IR17K","","null","<img src=""img/land5.png"" style=""width:200px;border:14px solid red;"">","null","","","","","","","","","",""
"","image-keyboard-response","282","60896","0.0-282.0","3Y5140Z9DY2P932BJQ8EAXQFXV7IPM","A3DG8M8G0L4DNZ","3566S7OX5D5NH74JOVOPTTMK8IR17K","","87.5","img/land1.png","74","88.30000001192093","1","0","1","2","0.8,0.2,0.2,0.2,0.8,0.2,0.2,0.2,0.8","0.2,0.8,0.2,0.2,0.2,0.8,0.8,0.2,0.2","3","",""
"","html-keyboard-response","283","61198","0.0-283.0","3Y5140Z9DY2P932BJQ8EAXQFXV7IPM","A3DG8M8G0L4DNZ","3566S7OX5D5NH74JOVOPTTMK8IR17K","","null","<img src=""img/land1.png"" style=""width:200px;border:14px solid red;"">","null","","","","","","","","","",""
"","image-keyboard-response","284","61248","0.0-284.0","3Y5140Z9DY2P932BJQ8EAXQFXV7IPM","A3DG8M8G0L4DNZ","3566S7OX5D5NH74JOVOPTTMK8IR17K","","48.299999952316284","img/land1.png","75","49.5","2","1","1","2","0.8,0.2,0.2,0.2,0.8,0.2,0.2,0.2,0.8","0.2,0.8,0.2,0.2,0.2,0.8,0.8,0.2,0.2","3","",""
"","html-keyboard-response","285","61554","0.0-285.0","3Y5140Z9DY2P932BJQ8EAXQFXV7IPM","A3DG8M8G0L4DNZ","3566S7OX5D5NH74JOVOPTTMK8IR17K","","null","<img src=""img/land1.png"" style=""width:200px; border:14px solid green;"">","null","","","","","","","","","",""
"","image-keyboard-response","286","61562","0.0-286.0","3Y5140Z9DY2P932BJQ8EAXQFXV7IPM","A3DG8M8G0L4DNZ","3566S7OX5D5NH74JOVOPTTMK8IR17K","","6.699999988079071","img/land1.png","74","7.5","1","1","1","2","0.8,0.2,0.2,0.2,0.8,0.2,0.2,0.2,0.8","0.2,0.8,0.2,0.2,0.2,0.8,0.8,0.2,0.2","3","",""
"","html-keyboard-response","287","61863","0.0-287.0","3Y5140Z9DY2P932BJQ8EAXQFXV7IPM","A3DG8M8G0L4DNZ","3566S7OX5D5NH74JOVOPTTMK8IR17K","","null","<img src=""img/land1.png"" style=""width:200px; border:14px solid green;"">","null","","","","","","","","","",""
"","image-keyboard-response","288","61913","0.0-288.0","3Y5140Z9DY2P932BJQ8EAXQFXV7IPM","A3DG8M8G0L4DNZ","3566S7OX5D5NH74JOVOPTTMK8IR17K","","49.69999998807907","img/land1.png","75","50.69999998807907","2","0","1","2","0.8,0.2,0.2,0.2,0.8,0.2,0.2,0.2,0.8","0.2,0.8,0.2,0.2,0.2,0.8,0.8,0.2,0.2","3","",""
"","html-keyboard-response","289","62216","0.0-289.0","3Y5140Z9DY2P932BJQ8EAXQFXV7IPM","A3DG8M8G0L4DNZ","3566S7OX5D5NH74JOVOPTTMK8IR17K","","null","<img src=""img/land1.png"" style=""width:200px;border:14px solid red;"">","null","","","","","","","","","",""
"","image-keyboard-response","290","62226","0.0-290.0","3Y5140Z9DY2P932BJQ8EAXQFXV7IPM","A3DG8M8G0L4DNZ","3566S7OX5D5NH74JOVOPTTMK8IR17K","","8.899999976158142","img/land1.png","74","9.800000011920929","1","0","1","2","0.8,0.2,0.2,0.2,0.8,0.2,0.2,0.2,0.8","0.2,0.8,0.2,0.2,0.2,0.8,0.8,0.2,0.2","3","",""
"","html-keyboard-response","291","62527","0.0-291.0","3Y5140Z9DY2P932BJQ8EAXQFXV7IPM","A3DG8M8G0L4DNZ","3566S7OX5D5NH74JOVOPTTMK8IR17K","","null","<img src=""img/land1.png"" style=""width:200px;border:14px solid red;"">","null","","","","","","","","","",""
"","image-keyboard-response","292","62574","0.0-292.0","3Y5140Z9DY2P932BJQ8EAXQFXV7IPM","A3DG8M8G0L4DNZ","3566S7OX5D5NH74JOVOPTTMK8IR17K","","45.89999997615814","img/land1.png","75","46.69999998807907","2","1","1","2","0.8,0.2,0.2,0.2,0.8,0.2,0.2,0.2,0.8","0.2,0.8,0.2,0.2,0.2,0.8,0.8,0.2,0.2","3","",""
"","html-keyboard-response","293","62877","0.0-293.0","3Y5140Z9DY2P932BJQ8EAXQFXV7IPM","A3DG8M8G0L4DNZ","3566S7OX5D5NH74JOVOPTTMK8IR17K","","null","<img src=""img/land1.png"" style=""width:200px; border:14px solid green;"">","null","","","","","","","","","",""
"","image-keyboard-response","294","62883","0.0-294.0","3Y5140Z9DY2P932BJQ8EAXQFXV7IPM","A3DG8M8G0L4DNZ","3566S7OX5D5NH74JOVOPTTMK8IR17K","","5.300000011920929","img/land4.png","76","5.899999976158142","3","1","2","2","0.8,0.2,0.2,0.2,0.8,0.2,0.2,0.2,0.8","0.2,0.8,0.2,0.2,0.2,0.8,0.8,0.2,0.2","3","",""
"","html-keyboard-response","295","63185","0.0-295.0","3Y5140Z9DY2P932BJQ8EAXQFXV7IPM","A3DG8M8G0L4DNZ","3566S7OX5D5NH74JOVOPTTMK8IR17K","","null","<img src=""img/land4.png"" style=""width:200px; border:14px solid green;"">","null","","","","","","","","","",""
"","image-keyboard-response","296","63263","0.0-296.0","3Y5140Z9DY2P932BJQ8EAXQFXV7IPM","A3DG8M8G0L4DNZ","3566S7OX5D5NH74JOVOPTTMK8IR17K","","78","img/land1.png","75","78.60000002384186","2","1","1","2","0.8,0.2,0.2,0.2,0.8,0.2,0.2,0.2,0.8","0.2,0.8,0.2,0.2,0.2,0.8,0.8,0.2,0.2","3","",""
"","html-keyboard-response","297","63577","0.0-297.0","3Y5140Z9DY2P932BJQ8EAXQFXV7IPM","A3DG8M8G0L4DNZ","3566S7OX5D5NH74JOVOPTTMK8IR17K","","null","<img src=""img/land1.png"" style=""width:200px; border:14px solid green;"">","null","","","","","","","","","",""
"","image-keyboard-response","298","63595","0.0-298.0","3Y5140Z9DY2P932BJQ8EAXQFXV7IPM","A3DG8M8G0L4DNZ","3566S7OX5D5NH74JOVOPTTMK8IR17K","","17.30000001192093","img/land1.png","74","18.099999964237213","1","1","1","2","0.8,0.2,0.2,0.2,0.8,0.2,0.2,0.2,0.8","0.2,0.8,0.2,0.2,0.2,0.8,0.8,0.2,0.2","3","",""
"","html-keyboard-response","299","63898","0.0-299.0","3Y5140Z9DY2P932BJQ8EAXQFXV7IPM","A3DG8M8G0L4DNZ","3566S7OX5D5NH74JOVOPTTMK8IR17K","","null","<img src=""img/land1.png"" style=""width:200px; border:14px solid green;"">","null","","","","","","","","","",""
"","image-keyboard-response","300","63946","0.0-300.0","3Y5140Z9DY2P932BJQ8EAXQFXV7IPM","A3DG8M8G0L4DNZ","3566S7OX5D5NH74JOVOPTTMK8IR17K","","47.10000002384186","img/land1.png","75","47.80000001192093","2","1","1","2","0.8,0.2,0.2,0.2,0.8,0.2,0.2,0.2,0.8","0.2,0.8,0.2,0.2,0.2,0.8,0.8,0.2,0.2","3","",""
"","html-keyboard-response","301","64260","0.0-301.0","3Y5140Z9DY2P932BJQ8EAXQFXV7IPM","A3DG8M8G0L4DNZ","3566S7OX5D5NH74JOVOPTTMK8IR17K","","null","<img src=""img/land1.png"" style=""width:200px; border:14px solid green;"">","null","","","","","","","","","",""
"","image-keyboard-response","302","64283","0.0-302.0","3Y5140Z9DY2P932BJQ8EAXQFXV7IPM","A3DG8M8G0L4DNZ","3566S7OX5D5NH74JOVOPTTMK8IR17K","","22.100000023841858","img/land3.png","74","22.80000001192093","1","0","3","1","0.8,0.2,0.2,0.2,0.8,0.2,0.2,0.2,0.8","0.8,0.2,0.2,0.2,0.8,0.2,0.2,0.2,0.8","1","",""
"","html-keyboard-response","303","64589","0.0-303.0","3Y5140Z9DY2P932BJQ8EAXQFXV7IPM","A3DG8M8G0L4DNZ","3566S7OX5D5NH74JOVOPTTMK8IR17K","","null","<img src=""img/land3.png"" style=""width:200px;border:14px solid red;"">","null","","","","","","","","","",""
"","image-keyboard-response","304","64644","0.0-304.0","3Y5140Z9DY2P932BJQ8EAXQFXV7IPM","A3DG8M8G0L4DNZ","3566S7OX5D5NH74JOVOPTTMK8IR17K","","53.40000003576279","img/land6.png","75","54.39999997615814","2","1","1","1","0.8,0.2,0.2,0.2,0.8,0.2,0.2,0.2,0.8","0.8,0.2,0.2,0.2,0.8,0.2,0.2,0.2,0.8","1","",""
"","html-keyboard-response","305","64946","0.0-305.0","3Y5140Z9DY2P932BJQ8EAXQFXV7IPM","A3DG8M8G0L4DNZ","3566S7OX5D5NH74JOVOPTTMK8IR17K","","null","<img src=""img/land6.png"" style=""width:200px; border:14px solid green;"">","null","","","","","","","","","",""
"","image-keyboard-response","306","64968","0.0-306.0","3Y5140Z9DY2P932BJQ8EAXQFXV7IPM","A3DG8M8G0L4DNZ","3566S7OX5D5NH74JOVOPTTMK8IR17K","","21.19999998807907","img/land6.png","74","21.799999952316284","1","0","1","1","0.8,0.2,0.2,0.2,0.8,0.2,0.2,0.2,0.8","0.8,0.2,0.2,0.2,0.8,0.2,0.2,0.2,0.8","1","",""
"","html-keyboard-response","307","65269","0.0-307.0","3Y5140Z9DY2P932BJQ8EAXQFXV7IPM","A3DG8M8G0L4DNZ","3566S7OX5D5NH74JOVOPTTMK8IR17K","","null","<img src=""img/land6.png"" style=""width:200px;border:14px solid red;"">","null","","","","","","","","","",""
"","image-keyboard-response","308","65295","0.0-308.0","3Y5140Z9DY2P932BJQ8EAXQFXV7IPM","A3DG8M8G0L4DNZ","3566S7OX5D5NH74JOVOPTTMK8IR17K","","25.80000001192093","img/land3.png","76","26.399999976158142","3","1","3","1","0.8,0.2,0.2,0.2,0.8,0.2,0.2,0.2,0.8","0.8,0.2,0.2,0.2,0.8,0.2,0.2,0.2,0.8","1","",""
"","html-keyboard-response","309","65597","0.0-309.0","3Y5140Z9DY2P932BJQ8EAXQFXV7IPM","A3DG8M8G0L4DNZ","3566S7OX5D5NH74JOVOPTTMK8IR17K","","null","<img src=""img/land3.png"" style=""width:200px; border:14px solid green;"">","null","","","","","","","","","",""
"","image-keyboard-response","310","65696","0.0-310.0","3Y5140Z9DY2P932BJQ8EAXQFXV7IPM","A3DG8M8G0L4DNZ","3566S7OX5D5NH74JOVOPTTMK8IR17K","","98.59999996423721","img/land3.png","74","99.30000001192093","1","0","3","1","0.8,0.2,0.2,0.2,0.8,0.2,0.2,0.2,0.8","0.8,0.2,0.2,0.2,0.8,0.2,0.2,0.2,0.8","1","",""
"","html-keyboard-response","311","66001","0.0-311.0","3Y5140Z9DY2P932BJQ8EAXQFXV7IPM","A3DG8M8G0L4DNZ","3566S7OX5D5NH74JOVOPTTMK8IR17K","","null","<img src=""img/land3.png"" style=""width:200px;border:14px solid red;"">","null","","","","","","","","","",""
"","image-keyboard-response","312","66043","0.0-312.0","3Y5140Z9DY2P932BJQ8EAXQFXV7IPM","A3DG8M8G0L4DNZ","3566S7OX5D5NH74JOVOPTTMK8IR17K","","41.200000047683716","img/land6.png","75","42","2","1","1","1","0.8,0.2,0.2,0.2,0.8,0.2,0.2,0.2,0.8","0.8,0.2,0.2,0.2,0.8,0.2,0.2,0.2,0.8","1","",""
"","html-keyboard-response","313","66346","0.0-313.0","3Y5140Z9DY2P932BJQ8EAXQFXV7IPM","A3DG8M8G0L4DNZ","3566S7OX5D5NH74JOVOPTTMK8IR17K","","null","<img src=""img/land6.png"" style=""width:200px; border:14px solid green;"">","null","","","","","","","","","",""
"","image-keyboard-response","314","66371","0.0-314.0","3Y5140Z9DY2P932BJQ8EAXQFXV7IPM","A3DG8M8G0L4DNZ","3566S7OX5D5NH74JOVOPTTMK8IR17K","","23.5","img/land2.png","76","24.599999964237213","3","0","2","1","0.8,0.2,0.2,0.2,0.8,0.2,0.2,0.2,0.8","0.8,0.2,0.2,0.2,0.8,0.2,0.2,0.2,0.8","1","",""
"","html-keyboard-response","315","66672","0.0-315.0","3Y5140Z9DY2P932BJQ8EAXQFXV7IPM","A3DG8M8G0L4DNZ","3566S7OX5D5NH74JOVOPTTMK8IR17K","","null","<img src=""img/land2.png"" style=""width:200px;border:14px solid red;"">","null","","","","","","","","","",""
"","image-keyboard-response","316","66737","0.0-316.0","3Y5140Z9DY2P932BJQ8EAXQFXV7IPM","A3DG8M8G0L4DNZ","3566S7OX5D5NH74JOVOPTTMK8IR17K","","64.20000004768372","img/land2.png","75","65.10000002384186","2","1","2","1","0.8,0.2,0.2,0.2,0.8,0.2,0.2,0.2,0.8","0.8,0.2,0.2,0.2,0.8,0.2,0.2,0.2,0.8","1","",""
"","html-keyboard-response","317","67039","0.0-317.0","3Y5140Z9DY2P932BJQ8EAXQFXV7IPM","A3DG8M8G0L4DNZ","3566S7OX5D5NH74JOVOPTTMK8IR17K","","null","<img src=""img/land2.png"" style=""width:200px; border:14px solid green;"">","null","","","","","","","","","",""
"","image-keyboard-response","318","67082","0.0-318.0","3Y5140Z9DY2P932BJQ8EAXQFXV7IPM","A3DG8M8G0L4DNZ","3566S7OX5D5NH74JOVOPTTMK8IR17K","","41.700000047683716","img/land3.png","74","42.5","1","1","3","1","0.8,0.2,0.2,0.2,0.8,0.2,0.2,0.2,0.8","0.8,0.2,0.2,0.2,0.8,0.2,0.2,0.2,0.8","1","",""
"","html-keyboard-response","319","67383","0.0-319.0","3Y5140Z9DY2P932BJQ8EAXQFXV7IPM","A3DG8M8G0L4DNZ","3566S7OX5D5NH74JOVOPTTMK8IR17K","","null","<img src=""img/land3.png"" style=""width:200px; border:14px solid green;"">","null","","","","","","","","","",""
"","image-keyboard-response","320","67441","0.0-320.0","3Y5140Z9DY2P932BJQ8EAXQFXV7IPM","A3DG8M8G0L4DNZ","3566S7OX5D5NH74JOVOPTTMK8IR17K","","57.5","img/land6.png","75","58.19999998807907","2","0","1","1","0.8,0.2,0.2,0.2,0.8,0.2,0.2,0.2,0.8","0.8,0.2,0.2,0.2,0.8,0.2,0.2,0.2,0.8","1","",""
"","html-keyboard-response","321","67743","0.0-321.0","3Y5140Z9DY2P932BJQ8EAXQFXV7IPM","A3DG8M8G0L4DNZ","3566S7OX5D5NH74JOVOPTTMK8IR17K","","null","<img src=""img/land6.png"" style=""width:200px;border:14px solid red;"">","null","","","","","","","","","",""
"","image-keyboard-response","322","67754","0.0-322.0","3Y5140Z9DY2P932BJQ8EAXQFXV7IPM","A3DG8M8G0L4DNZ","3566S7OX5D5NH74JOVOPTTMK8IR17K","","9.699999988079071","img/land3.png","74","10.300000011920929","1","1","3","1","0.8,0.2,0.2,0.2,0.8,0.2,0.2,0.2,0.8","0.8,0.2,0.2,0.2,0.8,0.2,0.2,0.2,0.8","1","",""
"","html-keyboard-response","323","68055","0.0-323.0","3Y5140Z9DY2P932BJQ8EAXQFXV7IPM","A3DG8M8G0L4DNZ","3566S7OX5D5NH74JOVOPTTMK8IR17K","","null","<img src=""img/land3.png"" style=""width:200px; border:14px solid green;"">","null","","","","","","","","","",""
"","image-keyboard-response","324","68126","0.0-324.0","3Y5140Z9DY2P932BJQ8EAXQFXV7IPM","A3DG8M8G0L4DNZ","3566S7OX5D5NH74JOVOPTTMK8IR17K","","69.60000002384186","img/land2.png","76","70.09999996423721","3","0","2","1","0.8,0.2,0.2,0.2,0.8,0.2,0.2,0.2,0.8","0.8,0.2,0.2,0.2,0.8,0.2,0.2,0.2,0.8","1","",""
"","html-keyboard-response","325","68427","0.0-325.0","3Y5140Z9DY2P932BJQ8EAXQFXV7IPM","A3DG8M8G0L4DNZ","3566S7OX5D5NH74JOVOPTTMK8IR17K","","null","<img src=""img/land2.png"" style=""width:200px;border:14px solid red;"">","null","","","","","","","","","",""
"","image-keyboard-response","326","68437","0.0-326.0","3Y5140Z9DY2P932BJQ8EAXQFXV7IPM","A3DG8M8G0L4DNZ","3566S7OX5D5NH74JOVOPTTMK8IR17K","","9.399999976158142","img/land6.png","74","10.399999976158142","1","1","1","1","0.8,0.2,0.2,0.2,0.8,0.2,0.2,0.2,0.8","0.8,0.2,0.2,0.2,0.8,0.2,0.2,0.2,0.8","1","",""
"","html-keyboard-response","327","68746","0.0-327.0","3Y5140Z9DY2P932BJQ8EAXQFXV7IPM","A3DG8M8G0L4DNZ","3566S7OX5D5NH74JOVOPTTMK8IR17K","","null","<img src=""img/land6.png"" style=""width:200px; border:14px solid green;"">","null","","","","","","","","","",""
"","image-keyboard-response","328","68768","0.0-328.0","3Y5140Z9DY2P932BJQ8EAXQFXV7IPM","A3DG8M8G0L4DNZ","3566S7OX5D5NH74JOVOPTTMK8IR17K","","21.30000001192093","img/land6.png","76","22.099999964237213","3","0","1","1","0.8,0.2,0.2,0.2,0.8,0.2,0.2,0.2,0.8","0.8,0.2,0.2,0.2,0.8,0.2,0.2,0.2,0.8","1","",""
"","html-keyboard-response","329","69070","0.0-329.0","3Y5140Z9DY2P932BJQ8EAXQFXV7IPM","A3DG8M8G0L4DNZ","3566S7OX5D5NH74JOVOPTTMK8IR17K","","null","<img src=""img/land6.png"" style=""width:200px;border:14px solid red;"">","null","","","","","","","","","",""
"","image-keyboard-response","330","69124","0.0-330.0","3Y5140Z9DY2P932BJQ8EAXQFXV7IPM","A3DG8M8G0L4DNZ","3566S7OX5D5NH74JOVOPTTMK8IR17K","","52.5","img/land6.png","74","53.30000001192093","1","1","1","1","0.8,0.2,0.2,0.2,0.8,0.2,0.2,0.2,0.8","0.8,0.2,0.2,0.2,0.8,0.2,0.2,0.2,0.8","1","",""
"","html-keyboard-response","331","69425","0.0-331.0","3Y5140Z9DY2P932BJQ8EAXQFXV7IPM","A3DG8M8G0L4DNZ","3566S7OX5D5NH74JOVOPTTMK8IR17K","","null","<img src=""img/land6.png"" style=""width:200px; border:14px solid green;"">","null","","","","","","","","","",""
"","image-keyboard-response","332","69474","0.0-332.0","3Y5140Z9DY2P932BJQ8EAXQFXV7IPM","A3DG8M8G0L4DNZ","3566S7OX5D5NH74JOVOPTTMK8IR17K","","48.39999997615814","img/land2.png","75","49","2","1","2","1","0.8,0.2,0.2,0.2,0.8,0.2,0.2,0.2,0.8","0.8,0.2,0.2,0.2,0.8,0.2,0.2,0.2,0.8","1","",""
"","html-keyboard-response","333","69776","0.0-333.0","3Y5140Z9DY2P932BJQ8EAXQFXV7IPM","A3DG8M8G0L4DNZ","3566S7OX5D5NH74JOVOPTTMK8IR17K","","null","<img src=""img/land2.png"" style=""width:200px; border:14px solid green;"">","null","","","","","","","","","",""
"","image-keyboard-response","334","69818","0.0-334.0","3Y5140Z9DY2P932BJQ8EAXQFXV7IPM","A3DG8M8G0L4DNZ","3566S7OX5D5NH74JOVOPTTMK8IR17K","","40.69999998807907","img/land3.png","74","41.5","1","1","3","1","0.8,0.2,0.2,0.2,0.8,0.2,0.2,0.2,0.8","0.8,0.2,0.2,0.2,0.8,0.2,0.2,0.2,0.8","1","",""
"","html-keyboard-response","335","70120","0.0-335.0","3Y5140Z9DY2P932BJQ8EAXQFXV7IPM","A3DG8M8G0L4DNZ","3566S7OX5D5NH74JOVOPTTMK8IR17K","","null","<img src=""img/land3.png"" style=""width:200px; border:14px solid green;"">","null","","","","","","","","","",""
"","image-keyboard-response","336","70166","0.0-336.0","3Y5140Z9DY2P932BJQ8EAXQFXV7IPM","A3DG8M8G0L4DNZ","3566S7OX5D5NH74JOVOPTTMK8IR17K","","44.90000003576279","img/land2.png","75","45.80000001192093","2","0","2","1","0.8,0.2,0.2,0.2,0.8,0.2,0.2,0.2,0.8","0.8,0.2,0.2,0.2,0.8,0.2,0.2,0.2,0.8","1","",""
"","html-keyboard-response","337","70468","0.0-337.0","3Y5140Z9DY2P932BJQ8EAXQFXV7IPM","A3DG8M8G0L4DNZ","3566S7OX5D5NH74JOVOPTTMK8IR17K","","null","<img src=""img/land2.png"" style=""width:200px;border:14px solid red;"">","null","","","","","","","","","",""
"","image-keyboard-response","338","70492","0.0-338.0","3Y5140Z9DY2P932BJQ8EAXQFXV7IPM","A3DG8M8G0L4DNZ","3566S7OX5D5NH74JOVOPTTMK8IR17K","","22.799999952316284","img/land6.png","76","23.600000023841858","3","0","1","1","0.8,0.2,0.2,0.2,0.8,0.2,0.2,0.2,0.8","0.8,0.2,0.2,0.2,0.8,0.2,0.2,0.2,0.8","1","",""
"","html-keyboard-response","339","70793","0.0-339.0","3Y5140Z9DY2P932BJQ8EAXQFXV7IPM","A3DG8M8G0L4DNZ","3566S7OX5D5NH74JOVOPTTMK8IR17K","","null","<img src=""img/land6.png"" style=""width:200px;border:14px solid red;"">","null","","","","","","","","","",""
"","image-keyboard-response","340","70864","0.0-340.0","3Y5140Z9DY2P932BJQ8EAXQFXV7IPM","A3DG8M8G0L4DNZ","3566S7OX5D5NH74JOVOPTTMK8IR17K","","69.5","img/land2.png","75","70.19999998807907","2","1","2","1","0.8,0.2,0.2,0.2,0.8,0.2,0.2,0.2,0.8","0.8,0.2,0.2,0.2,0.8,0.2,0.2,0.2,0.8","1","",""
"","html-keyboard-response","341","71166","0.0-341.0","3Y5140Z9DY2P932BJQ8EAXQFXV7IPM","A3DG8M8G0L4DNZ","3566S7OX5D5NH74JOVOPTTMK8IR17K","","null","<img src=""img/land2.png"" style=""width:200px; border:14px solid green;"">","null","","","","","","","","","",""
"","image-keyboard-response","342","71216","0.0-342.0","3Y5140Z9DY2P932BJQ8EAXQFXV7IPM","A3DG8M8G0L4DNZ","3566S7OX5D5NH74JOVOPTTMK8IR17K","","48.59999996423721","img/land3.png","74","49.40000003576279","1","0","3","1","0.8,0.2,0.2,0.2,0.8,0.2,0.2,0.2,0.8","0.8,0.2,0.2,0.2,0.8,0.2,0.2,0.2,0.8","1","",""
"","html-keyboard-response","343","71517","0.0-343.0","3Y5140Z9DY2P932BJQ8EAXQFXV7IPM","A3DG8M8G0L4DNZ","3566S7OX5D5NH74JOVOPTTMK8IR17K","","null","<img src=""img/land3.png"" style=""width:200px;border:14px solid red;"">","null","","","","","","","","","",""
"","image-keyboard-response","344","71583","0.0-344.0","3Y5140Z9DY2P932BJQ8EAXQFXV7IPM","A3DG8M8G0L4DNZ","3566S7OX5D5NH74JOVOPTTMK8IR17K","","65.59999996423721","img/land6.png","75","66.19999998807907","2","0","1","1","0.8,0.2,0.2,0.2,0.8,0.2,0.2,0.2,0.8","0.8,0.2,0.2,0.2,0.8,0.2,0.2,0.2,0.8","1","",""
"","html-keyboard-response","345","71885","0.0-345.0","3Y5140Z9DY2P932BJQ8EAXQFXV7IPM","A3DG8M8G0L4DNZ","3566S7OX5D5NH74JOVOPTTMK8IR17K","","null","<img src=""img/land6.png"" style=""width:200px;border:14px solid red;"">","null","","","","","","","","","",""
"","image-keyboard-response","346","71910","0.0-346.0","3Y5140Z9DY2P932BJQ8EAXQFXV7IPM","A3DG8M8G0L4DNZ","3566S7OX5D5NH74JOVOPTTMK8IR17K","","23.900000035762787","img/land6.png","74","24.69999998807907","1","0","1","1","0.8,0.2,0.2,0.2,0.8,0.2,0.2,0.2,0.8","0.8,0.2,0.2,0.2,0.8,0.2,0.2,0.2,0.8","1","",""
"","html-keyboard-response","347","72212","0.0-347.0","3Y5140Z9DY2P932BJQ8EAXQFXV7IPM","A3DG8M8G0L4DNZ","3566S7OX5D5NH74JOVOPTTMK8IR17K","","null","<img src=""img/land6.png"" style=""width:200px;border:14px solid red;"">","null","","","","","","","","","",""
"","image-keyboard-response","348","72250","0.0-348.0","3Y5140Z9DY2P932BJQ8EAXQFXV7IPM","A3DG8M8G0L4DNZ","3566S7OX5D5NH74JOVOPTTMK8IR17K","","37.80000001192093","img/land3.png","76","38.60000002384186","3","1","3","1","0.8,0.2,0.2,0.2,0.8,0.2,0.2,0.2,0.8","0.8,0.2,0.2,0.2,0.8,0.2,0.2,0.2,0.8","1","",""
"","html-keyboard-response","349","72552","0.0-349.0","3Y5140Z9DY2P932BJQ8EAXQFXV7IPM","A3DG8M8G0L4DNZ","3566S7OX5D5NH74JOVOPTTMK8IR17K","","null","<img src=""img/land3.png"" style=""width:200px; border:14px solid green;"">","null","","","","","","","","","",""
"","image-keyboard-response","350","72646","0.0-350.0","3Y5140Z9DY2P932BJQ8EAXQFXV7IPM","A3DG8M8G0L4DNZ","3566S7OX5D5NH74JOVOPTTMK8IR17K","","93.09999996423721","img/land3.png","74","94","1","0","3","1","0.8,0.2,0.2,0.2,0.8,0.2,0.2,0.2,0.8","0.8,0.2,0.2,0.2,0.8,0.2,0.2,0.2,0.8","1","",""
"","html-keyboard-response","351","72949","0.0-351.0","3Y5140Z9DY2P932BJQ8EAXQFXV7IPM","A3DG8M8G0L4DNZ","3566S7OX5D5NH74JOVOPTTMK8IR17K","","null","<img src=""img/land3.png"" style=""width:200px;border:14px solid red;"">","null","","","","","","","","","",""
"","image-keyboard-response","352","73016","0.0-352.0","3Y5140Z9DY2P932BJQ8EAXQFXV7IPM","A3DG8M8G0L4DNZ","3566S7OX5D5NH74JOVOPTTMK8IR17K","","65.79999995231628","img/land2.png","75","66.89999997615814","2","1","2","1","0.8,0.2,0.2,0.2,0.8,0.2,0.2,0.2,0.8","0.8,0.2,0.2,0.2,0.8,0.2,0.2,0.2,0.8","1","",""
"","html-keyboard-response","353","73317","0.0-353.0","3Y5140Z9DY2P932BJQ8EAXQFXV7IPM","A3DG8M8G0L4DNZ","3566S7OX5D5NH74JOVOPTTMK8IR17K","","null","<img src=""img/land2.png"" style=""width:200px; border:14px solid green;"">","null","","","","","","","","","",""
"","image-keyboard-response","354","73342","0.0-354.0","3Y5140Z9DY2P932BJQ8EAXQFXV7IPM","A3DG8M8G0L4DNZ","3566S7OX5D5NH74JOVOPTTMK8IR17K","","23.80000001192093","img/land3.png","76","24.69999998807907","3","1","3","1","0.8,0.2,0.2,0.2,0.8,0.2,0.2,0.2,0.8","0.8,0.2,0.2,0.2,0.8,0.2,0.2,0.2,0.8","1","",""
"","html-keyboard-response","355","73644","0.0-355.0","3Y5140Z9DY2P932BJQ8EAXQFXV7IPM","A3DG8M8G0L4DNZ","3566S7OX5D5NH74JOVOPTTMK8IR17K","","null","<img src=""img/land3.png"" style=""width:200px; border:14px solid green;"">","null","","","","","","","","","",""
