"success","trial_type","trial_index","time_elapsed","internal_node_id","assignmentID","mturkID","hitID","view_history","rt","stimulus","key_press","reactionTime","a","r","s","cond","reward_cond","reward_cond_actual","reward_matrix_idx","responses","question_order"
"true","fullscreen","0","3011","0.0-0.0","3X4JMASXCNVCYEKLWV1799LUUZ40BL","A3DKM1KM4C4G05","3UUIU9GZC5R93N292LT21FRJ9VS5TN","","","","","","","","","","","","","",""
"","instructions","1","19843","0.0-1.0","3X4JMASXCNVCYEKLWV1799LUUZ40BL","A3DKM1KM4C4G05","3UUIU9GZC5R93N292LT21FRJ9VS5TN","[{""page_index"":0,""viewing_time"":1492},{""page_index"":1,""viewing_time"":1538},{""page_index"":2,""viewing_time"":1235},{""page_index"":3,""viewing_time"":6508},{""page_index"":4,""viewing_time"":2623},{""page_index"":5,""viewing_time"":1847},{""page_index"":6,""viewing_time"":1586}]","16830","","","","","","","","","","","",""
"","image-keyboard-response","2","20454","0.0-2.0","3X4JMASXCNVCYEKLWV1799LUUZ40BL","A3DKM1KM4C4G05","3UUIU9GZC5R93N292LT21FRJ9VS5TN","","607","img/land2.png","75","610.0000000000036","2","0","2","1","0.8,0.2,0.2,0.2,0.8,0.2,0.2,0.2,0.8","0.8,0.2,0.2,0.2,0.8,0.2,0.2,0.2,0.8","1","",""
"","html-keyboard-response","3","20759","0.0-3.0","3X4JMASXCNVCYEKLWV1799LUUZ40BL","A3DKM1KM4C4G05","3UUIU9GZC5R93N292LT21FRJ9VS5TN","","null","<img src=""img/land2.png"" style=""width:200px;border:14px solid red;"">","null","","","","","","","","","",""
"","image-keyboard-response","4","21373","0.0-4.0","3X4JMASXCNVCYEKLWV1799LUUZ40BL","A3DKM1KM4C4G05","3UUIU9GZC5R93N292LT21FRJ9VS5TN","","612","img/land4.png","74","613.9999999999964","1","1","1","1","0.8,0.2,0.2,0.2,0.8,0.2,0.2,0.2,0.8","0.8,0.2,0.2,0.2,0.8,0.2,0.2,0.2,0.8","1","",""
"","html-keyboard-response","5","21677","0.0-5.0","3X4JMASXCNVCYEKLWV1799LUUZ40BL","A3DKM1KM4C4G05","3UUIU9GZC5R93N292LT21FRJ9VS5TN","","null","<img src=""img/land4.png"" style=""width:200px; border:14px solid green;"">","null","","","","","","","","","",""
"","image-keyboard-response","6","22280","0.0-6.0","3X4JMASXCNVCYEKLWV1799LUUZ40BL","A3DKM1KM4C4G05","3UUIU9GZC5R93N292LT21FRJ9VS5TN","","601","img/land6.png","74","602","1","1","3","1","0.8,0.2,0.2,0.2,0.8,0.2,0.2,0.2,0.8","0.8,0.2,0.2,0.2,0.8,0.2,0.2,0.2,0.8","1","",""
"","html-keyboard-response","7","22582","0.0-7.0","3X4JMASXCNVCYEKLWV1799LUUZ40BL","A3DKM1KM4C4G05","3UUIU9GZC5R93N292LT21FRJ9VS5TN","","null","<img src=""img/land6.png"" style=""width:200px; border:14px solid green;"">","null","","","","","","","","","",""
"","image-keyboard-response","8","23033","0.0-8.0","3X4JMASXCNVCYEKLWV1799LUUZ40BL","A3DKM1KM4C4G05","3UUIU9GZC5R93N292LT21FRJ9VS5TN","","449","img/land2.png","74","449.99999999999636","1","0","2","1","0.8,0.2,0.2,0.2,0.8,0.2,0.2,0.2,0.8","0.8,0.2,0.2,0.2,0.8,0.2,0.2,0.2,0.8","1","",""
"","html-keyboard-response","9","23336","0.0-9.0","3X4JMASXCNVCYEKLWV1799LUUZ40BL","A3DKM1KM4C4G05","3UUIU9GZC5R93N292LT21FRJ9VS5TN","","null","<img src=""img/land2.png"" style=""width:200px;border:14px solid red;"">","null","","","","","","","","","",""
"","image-keyboard-response","10","23974","0.0-10.0","3X4JMASXCNVCYEKLWV1799LUUZ40BL","A3DKM1KM4C4G05","3UUIU9GZC5R93N292LT21FRJ9VS5TN","","636","img/land4.png","76","637","3","1","1","1","0.8,0.2,0.2,0.2,0.8,0.2,0.2,0.2,0.8","0.8,0.2,0.2,0.2,0.8,0.2,0.2,0.2,0.8","1","",""
"","html-keyboard-response","11","24277","0.0-11.0","3X4JMASXCNVCYEKLWV1799LUUZ40BL","A3DKM1KM4C4G05","3UUIU9GZC5R93N292LT21FRJ9VS5TN","","null","<img src=""img/land4.png"" style=""width:200px; border:14px solid green;"">","null","","","","","","","","","",""
"","image-keyboard-response","12","24796","0.0-12.0","3X4JMASXCNVCYEKLWV1799LUUZ40BL","A3DKM1KM4C4G05","3UUIU9GZC5R93N292LT21FRJ9VS5TN","","517","img/land2.png","76","519","3","0","2","1","0.8,0.2,0.2,0.2,0.8,0.2,0.2,0.2,0.8","0.8,0.2,0.2,0.2,0.8,0.2,0.2,0.2,0.8","1","",""
"","html-keyboard-response","13","25100","0.0-13.0","3X4JMASXCNVCYEKLWV1799LUUZ40BL","A3DKM1KM4C4G05","3UUIU9GZC5R93N292LT21FRJ9VS5TN","","null","<img src=""img/land2.png"" style=""width:200px;border:14px solid red;"">","null","","","","","","","","","",""
"","image-keyboard-response","14","26227","0.0-14.0","3X4JMASXCNVCYEKLWV1799LUUZ40BL","A3DKM1KM4C4G05","3UUIU9GZC5R93N292LT21FRJ9VS5TN","","1124.9999999999964","img/land2.png","75","1127.0000000000036","2","1","2","1","0.8,0.2,0.2,0.2,0.8,0.2,0.2,0.2,0.8","0.8,0.2,0.2,0.2,0.8,0.2,0.2,0.2,0.8","1","",""
"","html-keyboard-response","15","26531","0.0-15.0","3X4JMASXCNVCYEKLWV1799LUUZ40BL","A3DKM1KM4C4G05","3UUIU9GZC5R93N292LT21FRJ9VS5TN","","null","<img src=""img/land2.png"" style=""width:200px; border:14px solid green;"">","null","","","","","","","","","",""
"","image-keyboard-response","16","27243","0.0-16.0","3X4JMASXCNVCYEKLWV1799LUUZ40BL","A3DKM1KM4C4G05","3UUIU9GZC5R93N292LT21FRJ9VS5TN","","708","img/land4.png","75","710","2","0","1","1","0.8,0.2,0.2,0.2,0.8,0.2,0.2,0.2,0.8","0.8,0.2,0.2,0.2,0.8,0.2,0.2,0.2,0.8","1","",""
"","html-keyboard-response","17","27546","0.0-17.0","3X4JMASXCNVCYEKLWV1799LUUZ40BL","A3DKM1KM4C4G05","3UUIU9GZC5R93N292LT21FRJ9VS5TN","","null","<img src=""img/land4.png"" style=""width:200px;border:14px solid red;"">","null","","","","","","","","","",""
"","image-keyboard-response","18","27689","0.0-18.0","3X4JMASXCNVCYEKLWV1799LUUZ40BL","A3DKM1KM4C4G05","3UUIU9GZC5R93N292LT21FRJ9VS5TN","","141","img/land6.png","74","143","1","0","3","1","0.8,0.2,0.2,0.2,0.8,0.2,0.2,0.2,0.8","0.8,0.2,0.2,0.2,0.8,0.2,0.2,0.2,0.8","1","",""
"","html-keyboard-response","19","27993","0.0-19.0","3X4JMASXCNVCYEKLWV1799LUUZ40BL","A3DKM1KM4C4G05","3UUIU9GZC5R93N292LT21FRJ9VS5TN","","null","<img src=""img/land6.png"" style=""width:200px;border:14px solid red;"">","null","","","","","","","","","",""
"","image-keyboard-response","20","28409","0.0-20.0","3X4JMASXCNVCYEKLWV1799LUUZ40BL","A3DKM1KM4C4G05","3UUIU9GZC5R93N292LT21FRJ9VS5TN","","414","img/land6.png","76","415","3","1","3","1","0.8,0.2,0.2,0.2,0.8,0.2,0.2,0.2,0.8","0.8,0.2,0.2,0.2,0.8,0.2,0.2,0.2,0.8","1","",""
"","html-keyboard-response","21","28712","0.0-21.0","3X4JMASXCNVCYEKLWV1799LUUZ40BL","A3DKM1KM4C4G05","3UUIU9GZC5R93N292LT21FRJ9VS5TN","","null","<img src=""img/land6.png"" style=""width:200px; border:14px solid green;"">","null","","","","","","","","","",""
"","image-keyboard-response","22","29099","0.0-22.0","3X4JMASXCNVCYEKLWV1799LUUZ40BL","A3DKM1KM4C4G05","3UUIU9GZC5R93N292LT21FRJ9VS5TN","","384","img/land6.png","76","385.0000000000073","3","1","3","1","0.8,0.2,0.2,0.2,0.8,0.2,0.2,0.2,0.8","0.8,0.2,0.2,0.2,0.8,0.2,0.2,0.2,0.8","1","",""
"","html-keyboard-response","23","29402","0.0-23.0","3X4JMASXCNVCYEKLWV1799LUUZ40BL","A3DKM1KM4C4G05","3UUIU9GZC5R93N292LT21FRJ9VS5TN","","null","<img src=""img/land6.png"" style=""width:200px; border:14px solid green;"">","null","","","","","","","","","",""
"","image-keyboard-response","24","30056","0.0-24.0","3X4JMASXCNVCYEKLWV1799LUUZ40BL","A3DKM1KM4C4G05","3UUIU9GZC5R93N292LT21FRJ9VS5TN","","651.9999999999927","img/land2.png","76","653","3","0","2","1","0.8,0.2,0.2,0.2,0.8,0.2,0.2,0.2,0.8","0.8,0.2,0.2,0.2,0.8,0.2,0.2,0.2,0.8","1","",""
"","html-keyboard-response","25","30359","0.0-25.0","3X4JMASXCNVCYEKLWV1799LUUZ40BL","A3DKM1KM4C4G05","3UUIU9GZC5R93N292LT21FRJ9VS5TN","","null","<img src=""img/land2.png"" style=""width:200px;border:14px solid red;"">","null","","","","","","","","","",""
"","image-keyboard-response","26","30553","0.0-26.0","3X4JMASXCNVCYEKLWV1799LUUZ40BL","A3DKM1KM4C4G05","3UUIU9GZC5R93N292LT21FRJ9VS5TN","","191","img/land4.png","75","193","2","0","1","1","0.8,0.2,0.2,0.2,0.8,0.2,0.2,0.2,0.8","0.8,0.2,0.2,0.2,0.8,0.2,0.2,0.2,0.8","1","",""
"","html-keyboard-response","27","30857","0.0-27.0","3X4JMASXCNVCYEKLWV1799LUUZ40BL","A3DKM1KM4C4G05","3UUIU9GZC5R93N292LT21FRJ9VS5TN","","null","<img src=""img/land4.png"" style=""width:200px;border:14px solid red;"">","null","","","","","","","","","",""
"","image-keyboard-response","28","31154","0.0-28.0","3X4JMASXCNVCYEKLWV1799LUUZ40BL","A3DKM1KM4C4G05","3UUIU9GZC5R93N292LT21FRJ9VS5TN","","295.0000000000073","img/land6.png","74","297","1","0","3","1","0.8,0.2,0.2,0.2,0.8,0.2,0.2,0.2,0.8","0.8,0.2,0.2,0.2,0.8,0.2,0.2,0.2,0.8","1","",""
"","html-keyboard-response","29","31457","0.0-29.0","3X4JMASXCNVCYEKLWV1799LUUZ40BL","A3DKM1KM4C4G05","3UUIU9GZC5R93N292LT21FRJ9VS5TN","","null","<img src=""img/land6.png"" style=""width:200px;border:14px solid red;"">","null","","","","","","","","","",""
"","image-keyboard-response","30","32087","0.0-30.0","3X4JMASXCNVCYEKLWV1799LUUZ40BL","A3DKM1KM4C4G05","3UUIU9GZC5R93N292LT21FRJ9VS5TN","","628.0000000000073","img/land4.png","74","630","1","0","1","1","0.8,0.2,0.2,0.2,0.8,0.2,0.2,0.2,0.8","0.8,0.2,0.2,0.2,0.8,0.2,0.2,0.2,0.8","1","",""
"","html-keyboard-response","31","32391","0.0-31.0","3X4JMASXCNVCYEKLWV1799LUUZ40BL","A3DKM1KM4C4G05","3UUIU9GZC5R93N292LT21FRJ9VS5TN","","null","<img src=""img/land4.png"" style=""width:200px;border:14px solid red;"">","null","","","","","","","","","",""
"","image-keyboard-response","32","32880","0.0-32.0","3X4JMASXCNVCYEKLWV1799LUUZ40BL","A3DKM1KM4C4G05","3UUIU9GZC5R93N292LT21FRJ9VS5TN","","487","img/land6.png","75","489","2","0","3","1","0.8,0.2,0.2,0.2,0.8,0.2,0.2,0.2,0.8","0.8,0.2,0.2,0.2,0.8,0.2,0.2,0.2,0.8","1","",""
"","html-keyboard-response","33","33183","0.0-33.0","3X4JMASXCNVCYEKLWV1799LUUZ40BL","A3DKM1KM4C4G05","3UUIU9GZC5R93N292LT21FRJ9VS5TN","","null","<img src=""img/land6.png"" style=""width:200px;border:14px solid red;"">","null","","","","","","","","","",""
"","image-keyboard-response","34","33752","0.0-34.0","3X4JMASXCNVCYEKLWV1799LUUZ40BL","A3DKM1KM4C4G05","3UUIU9GZC5R93N292LT21FRJ9VS5TN","","566","img/land2.png","75","567","2","0","2","1","0.8,0.2,0.2,0.2,0.8,0.2,0.2,0.2,0.8","0.8,0.2,0.2,0.2,0.8,0.2,0.2,0.2,0.8","1","",""
"","html-keyboard-response","35","34055","0.0-35.0","3X4JMASXCNVCYEKLWV1799LUUZ40BL","A3DKM1KM4C4G05","3UUIU9GZC5R93N292LT21FRJ9VS5TN","","null","<img src=""img/land2.png"" style=""width:200px;border:14px solid red;"">","null","","","","","","","","","",""
"","image-keyboard-response","36","34482","0.0-36.0","3X4JMASXCNVCYEKLWV1799LUUZ40BL","A3DKM1KM4C4G05","3UUIU9GZC5R93N292LT21FRJ9VS5TN","","425","img/land4.png","76","427","3","1","1","1","0.8,0.2,0.2,0.2,0.8,0.2,0.2,0.2,0.8","0.8,0.2,0.2,0.2,0.8,0.2,0.2,0.2,0.8","1","",""
"","html-keyboard-response","37","34785","0.0-37.0","3X4JMASXCNVCYEKLWV1799LUUZ40BL","A3DKM1KM4C4G05","3UUIU9GZC5R93N292LT21FRJ9VS5TN","","null","<img src=""img/land4.png"" style=""width:200px; border:14px solid green;"">","null","","","","","","","","","",""
"","image-keyboard-response","38","35490","0.0-38.0","3X4JMASXCNVCYEKLWV1799LUUZ40BL","A3DKM1KM4C4G05","3UUIU9GZC5R93N292LT21FRJ9VS5TN","","703","img/land4.png","75","705","2","0","1","1","0.8,0.2,0.2,0.2,0.8,0.2,0.2,0.2,0.8","0.8,0.2,0.2,0.2,0.8,0.2,0.2,0.2,0.8","1","",""
"","html-keyboard-response","39","35794","0.0-39.0","3X4JMASXCNVCYEKLWV1799LUUZ40BL","A3DKM1KM4C4G05","3UUIU9GZC5R93N292LT21FRJ9VS5TN","","null","<img src=""img/land4.png"" style=""width:200px;border:14px solid red;"">","null","","","","","","","","","",""
"","image-keyboard-response","40","36573","0.0-40.0","3X4JMASXCNVCYEKLWV1799LUUZ40BL","A3DKM1KM4C4G05","3UUIU9GZC5R93N292LT21FRJ9VS5TN","","777","img/land6.png","75","778","2","0","3","1","0.8,0.2,0.2,0.2,0.8,0.2,0.2,0.2,0.8","0.8,0.2,0.2,0.2,0.8,0.2,0.2,0.2,0.8","1","",""
"","html-keyboard-response","41","36876","0.0-41.0","3X4JMASXCNVCYEKLWV1799LUUZ40BL","A3DKM1KM4C4G05","3UUIU9GZC5R93N292LT21FRJ9VS5TN","","null","<img src=""img/land6.png"" style=""width:200px;border:14px solid red;"">","null","","","","","","","","","",""
"","image-keyboard-response","42","37804","0.0-42.0","3X4JMASXCNVCYEKLWV1799LUUZ40BL","A3DKM1KM4C4G05","3UUIU9GZC5R93N292LT21FRJ9VS5TN","","926","img/land4.png","76","927","3","0","1","1","0.8,0.2,0.2,0.2,0.8,0.2,0.2,0.2,0.8","0.8,0.2,0.2,0.2,0.8,0.2,0.2,0.2,0.8","1","",""
"","html-keyboard-response","43","38107","0.0-43.0","3X4JMASXCNVCYEKLWV1799LUUZ40BL","A3DKM1KM4C4G05","3UUIU9GZC5R93N292LT21FRJ9VS5TN","","null","<img src=""img/land4.png"" style=""width:200px;border:14px solid red;"">","null","","","","","","","","","",""
"","image-keyboard-response","44","38478","0.0-44.0","3X4JMASXCNVCYEKLWV1799LUUZ40BL","A3DKM1KM4C4G05","3UUIU9GZC5R93N292LT21FRJ9VS5TN","","369","img/land4.png","74","370","1","1","1","1","0.8,0.2,0.2,0.2,0.8,0.2,0.2,0.2,0.8","0.8,0.2,0.2,0.2,0.8,0.2,0.2,0.2,0.8","1","",""
"","html-keyboard-response","45","38782","0.0-45.0","3X4JMASXCNVCYEKLWV1799LUUZ40BL","A3DKM1KM4C4G05","3UUIU9GZC5R93N292LT21FRJ9VS5TN","","null","<img src=""img/land4.png"" style=""width:200px; border:14px solid green;"">","null","","","","","","","","","",""
"","image-keyboard-response","46","39688","0.0-46.0","3X4JMASXCNVCYEKLWV1799LUUZ40BL","A3DKM1KM4C4G05","3UUIU9GZC5R93N292LT21FRJ9VS5TN","","902.9999999999927","img/land6.png","76","906","3","1","3","1","0.8,0.2,0.2,0.2,0.8,0.2,0.2,0.2,0.8","0.8,0.2,0.2,0.2,0.8,0.2,0.2,0.2,0.8","1","",""
"","html-keyboard-response","47","39991","0.0-47.0","3X4JMASXCNVCYEKLWV1799LUUZ40BL","A3DKM1KM4C4G05","3UUIU9GZC5R93N292LT21FRJ9VS5TN","","null","<img src=""img/land6.png"" style=""width:200px; border:14px solid green;"">","null","","","","","","","","","",""
"","image-keyboard-response","48","40983","0.0-48.0","3X4JMASXCNVCYEKLWV1799LUUZ40BL","A3DKM1KM4C4G05","3UUIU9GZC5R93N292LT21FRJ9VS5TN","","990.0000000000073","img/land2.png","74","992","1","0","2","1","0.8,0.2,0.2,0.2,0.8,0.2,0.2,0.2,0.8","0.8,0.2,0.2,0.2,0.8,0.2,0.2,0.2,0.8","1","",""
"","html-keyboard-response","49","41287","0.0-49.0","3X4JMASXCNVCYEKLWV1799LUUZ40BL","A3DKM1KM4C4G05","3UUIU9GZC5R93N292LT21FRJ9VS5TN","","null","<img src=""img/land2.png"" style=""width:200px;border:14px solid red;"">","null","","","","","","","","","",""
"","image-keyboard-response","50","41585","0.0-50.0","3X4JMASXCNVCYEKLWV1799LUUZ40BL","A3DKM1KM4C4G05","3UUIU9GZC5R93N292LT21FRJ9VS5TN","","295","img/land2.png","75","297.9999999999927","2","1","2","1","0.8,0.2,0.2,0.2,0.8,0.2,0.2,0.2,0.8","0.8,0.2,0.2,0.2,0.8,0.2,0.2,0.2,0.8","1","",""
"","html-keyboard-response","51","41889","0.0-51.0","3X4JMASXCNVCYEKLWV1799LUUZ40BL","A3DKM1KM4C4G05","3UUIU9GZC5R93N292LT21FRJ9VS5TN","","null","<img src=""img/land2.png"" style=""width:200px; border:14px solid green;"">","null","","","","","","","","","",""
"","image-keyboard-response","52","42867","0.0-52.0","3X4JMASXCNVCYEKLWV1799LUUZ40BL","A3DKM1KM4C4G05","3UUIU9GZC5R93N292LT21FRJ9VS5TN","","976","img/land4.png","76","978","3","0","1","1","0.8,0.2,0.2,0.2,0.8,0.2,0.2,0.2,0.8","0.8,0.2,0.2,0.2,0.8,0.2,0.2,0.2,0.8","1","",""
"","html-keyboard-response","53","43170","0.0-53.0","3X4JMASXCNVCYEKLWV1799LUUZ40BL","A3DKM1KM4C4G05","3UUIU9GZC5R93N292LT21FRJ9VS5TN","","null","<img src=""img/land4.png"" style=""width:200px;border:14px solid red;"">","null","","","","","","","","","",""
"","image-keyboard-response","54","43386","0.0-54.0","3X4JMASXCNVCYEKLWV1799LUUZ40BL","A3DKM1KM4C4G05","3UUIU9GZC5R93N292LT21FRJ9VS5TN","","213.99999999999272","img/land4.png","74","216","1","0","1","1","0.8,0.2,0.2,0.2,0.8,0.2,0.2,0.2,0.8","0.8,0.2,0.2,0.2,0.8,0.2,0.2,0.2,0.8","1","",""
"","html-keyboard-response","55","43690","0.0-55.0","3X4JMASXCNVCYEKLWV1799LUUZ40BL","A3DKM1KM4C4G05","3UUIU9GZC5R93N292LT21FRJ9VS5TN","","null","<img src=""img/land4.png"" style=""width:200px;border:14px solid red;"">","null","","","","","","","","","",""
"","image-keyboard-response","56","44116","0.0-56.0","3X4JMASXCNVCYEKLWV1799LUUZ40BL","A3DKM1KM4C4G05","3UUIU9GZC5R93N292LT21FRJ9VS5TN","","425","img/land6.png","75","426","2","0","3","1","0.8,0.2,0.2,0.2,0.8,0.2,0.2,0.2,0.8","0.8,0.2,0.2,0.2,0.8,0.2,0.2,0.2,0.8","1","",""
"","html-keyboard-response","57","44420","0.0-57.0","3X4JMASXCNVCYEKLWV1799LUUZ40BL","A3DKM1KM4C4G05","3UUIU9GZC5R93N292LT21FRJ9VS5TN","","null","<img src=""img/land6.png"" style=""width:200px;border:14px solid red;"">","null","","","","","","","","","",""
"","image-keyboard-response","58","44973","0.0-58.0","3X4JMASXCNVCYEKLWV1799LUUZ40BL","A3DKM1KM4C4G05","3UUIU9GZC5R93N292LT21FRJ9VS5TN","","550.9999999999927","img/land6.png","74","553.0000000000073","1","0","3","1","0.8,0.2,0.2,0.2,0.8,0.2,0.2,0.2,0.8","0.8,0.2,0.2,0.2,0.8,0.2,0.2,0.2,0.8","1","",""
"","html-keyboard-response","59","45277","0.0-59.0","3X4JMASXCNVCYEKLWV1799LUUZ40BL","A3DKM1KM4C4G05","3UUIU9GZC5R93N292LT21FRJ9VS5TN","","null","<img src=""img/land6.png"" style=""width:200px;border:14px solid red;"">","null","","","","","","","","","",""
"","image-keyboard-response","60","45367","0.0-60.0","3X4JMASXCNVCYEKLWV1799LUUZ40BL","A3DKM1KM4C4G05","3UUIU9GZC5R93N292LT21FRJ9VS5TN","","88.99999999999272","img/land4.png","76","90","3","0","1","1","0.8,0.2,0.2,0.2,0.8,0.2,0.2,0.2,0.8","0.8,0.2,0.2,0.2,0.8,0.2,0.2,0.2,0.8","1","",""
"","html-keyboard-response","61","45671","0.0-61.0","3X4JMASXCNVCYEKLWV1799LUUZ40BL","A3DKM1KM4C4G05","3UUIU9GZC5R93N292LT21FRJ9VS5TN","","null","<img src=""img/land4.png"" style=""width:200px;border:14px solid red;"">","null","","","","","","","","","",""
"","image-keyboard-response","62","46158","0.0-62.0","3X4JMASXCNVCYEKLWV1799LUUZ40BL","A3DKM1KM4C4G05","3UUIU9GZC5R93N292LT21FRJ9VS5TN","","485","img/land6.png","76","486.9999999999927","3","0","3","1","0.8,0.2,0.2,0.2,0.8,0.2,0.2,0.2,0.8","0.8,0.2,0.2,0.2,0.8,0.2,0.2,0.2,0.8","1","",""
"","html-keyboard-response","63","46461","0.0-63.0","3X4JMASXCNVCYEKLWV1799LUUZ40BL","A3DKM1KM4C4G05","3UUIU9GZC5R93N292LT21FRJ9VS5TN","","null","<img src=""img/land6.png"" style=""width:200px;border:14px solid red;"">","null","","","","","","","","","",""
"","image-keyboard-response","64","46656","0.0-64.0","3X4JMASXCNVCYEKLWV1799LUUZ40BL","A3DKM1KM4C4G05","3UUIU9GZC5R93N292LT21FRJ9VS5TN","","193","img/land2.png","75","195","2","1","2","1","0.8,0.2,0.2,0.2,0.8,0.2,0.2,0.2,0.8","0.8,0.2,0.2,0.2,0.8,0.2,0.2,0.2,0.8","1","",""
"","html-keyboard-response","65","46960","0.0-65.0","3X4JMASXCNVCYEKLWV1799LUUZ40BL","A3DKM1KM4C4G05","3UUIU9GZC5R93N292LT21FRJ9VS5TN","","null","<img src=""img/land2.png"" style=""width:200px; border:14px solid green;"">","null","","","","","","","","","",""
"","image-keyboard-response","66","47224","0.0-66.0","3X4JMASXCNVCYEKLWV1799LUUZ40BL","A3DKM1KM4C4G05","3UUIU9GZC5R93N292LT21FRJ9VS5TN","","262","img/land4.png","75","264","2","0","1","1","0.8,0.2,0.2,0.2,0.8,0.2,0.2,0.2,0.8","0.8,0.2,0.2,0.2,0.8,0.2,0.2,0.2,0.8","1","",""
"","html-keyboard-response","67","47528","0.0-67.0","3X4JMASXCNVCYEKLWV1799LUUZ40BL","A3DKM1KM4C4G05","3UUIU9GZC5R93N292LT21FRJ9VS5TN","","null","<img src=""img/land4.png"" style=""width:200px;border:14px solid red;"">","null","","","","","","","","","",""
"","image-keyboard-response","68","47677","0.0-68.0","3X4JMASXCNVCYEKLWV1799LUUZ40BL","A3DKM1KM4C4G05","3UUIU9GZC5R93N292LT21FRJ9VS5TN","","144.99999999999272","img/land2.png","74","148.99999999999272","1","0","2","1","0.8,0.2,0.2,0.2,0.8,0.2,0.2,0.2,0.8","0.8,0.2,0.2,0.2,0.8,0.2,0.2,0.2,0.8","1","",""
"","html-keyboard-response","69","47981","0.0-69.0","3X4JMASXCNVCYEKLWV1799LUUZ40BL","A3DKM1KM4C4G05","3UUIU9GZC5R93N292LT21FRJ9VS5TN","","null","<img src=""img/land2.png"" style=""width:200px;border:14px solid red;"">","null","","","","","","","","","",""
"","image-keyboard-response","70","48274","0.0-70.0","3X4JMASXCNVCYEKLWV1799LUUZ40BL","A3DKM1KM4C4G05","3UUIU9GZC5R93N292LT21FRJ9VS5TN","","291","img/land2.png","74","291.9999999999927","1","0","2","1","0.8,0.2,0.2,0.2,0.8,0.2,0.2,0.2,0.8","0.8,0.2,0.2,0.2,0.8,0.2,0.2,0.2,0.8","1","",""
"","html-keyboard-response","71","48578","0.0-71.0","3X4JMASXCNVCYEKLWV1799LUUZ40BL","A3DKM1KM4C4G05","3UUIU9GZC5R93N292LT21FRJ9VS5TN","","null","<img src=""img/land2.png"" style=""width:200px;border:14px solid red;"">","null","","","","","","","","","",""
"","image-keyboard-response","72","48619","0.0-72.0","3X4JMASXCNVCYEKLWV1799LUUZ40BL","A3DKM1KM4C4G05","3UUIU9GZC5R93N292LT21FRJ9VS5TN","","38","img/land6.png","75","40","2","0","3","1","0.8,0.2,0.2,0.2,0.8,0.2,0.2,0.2,0.8","0.8,0.2,0.2,0.2,0.8,0.2,0.2,0.2,0.8","1","",""
"","html-keyboard-response","73","48923","0.0-73.0","3X4JMASXCNVCYEKLWV1799LUUZ40BL","A3DKM1KM4C4G05","3UUIU9GZC5R93N292LT21FRJ9VS5TN","","null","<img src=""img/land6.png"" style=""width:200px;border:14px solid red;"">","null","","","","","","","","","",""
"","image-keyboard-response","74","49145","0.0-74.0","3X4JMASXCNVCYEKLWV1799LUUZ40BL","A3DKM1KM4C4G05","3UUIU9GZC5R93N292LT21FRJ9VS5TN","","219.99999999999272","img/land2.png","76","222","3","0","2","1","0.8,0.2,0.2,0.2,0.8,0.2,0.2,0.2,0.8","0.8,0.2,0.2,0.2,0.8,0.2,0.2,0.2,0.8","1","",""
"","html-keyboard-response","75","49449","0.0-75.0","3X4JMASXCNVCYEKLWV1799LUUZ40BL","A3DKM1KM4C4G05","3UUIU9GZC5R93N292LT21FRJ9VS5TN","","null","<img src=""img/land2.png"" style=""width:200px;border:14px solid red;"">","null","","","","","","","","","",""
"","image-keyboard-response","76","49732","0.0-76.0","3X4JMASXCNVCYEKLWV1799LUUZ40BL","A3DKM1KM4C4G05","3UUIU9GZC5R93N292LT21FRJ9VS5TN","","281","img/land2.png","76","283.0000000000073","3","1","2","1","0.8,0.2,0.2,0.2,0.8,0.2,0.2,0.2,0.8","0.8,0.2,0.2,0.2,0.8,0.2,0.2,0.2,0.8","1","",""
"","html-keyboard-response","77","50034","0.0-77.0","3X4JMASXCNVCYEKLWV1799LUUZ40BL","A3DKM1KM4C4G05","3UUIU9GZC5R93N292LT21FRJ9VS5TN","","null","<img src=""img/land2.png"" style=""width:200px; border:14px solid green;"">","null","","","","","","","","","",""
"","image-keyboard-response","78","50656","0.0-78.0","3X4JMASXCNVCYEKLWV1799LUUZ40BL","A3DKM1KM4C4G05","3UUIU9GZC5R93N292LT21FRJ9VS5TN","","619","img/land6.png","75","621.0000000000073","2","0","3","1","0.8,0.2,0.2,0.2,0.8,0.2,0.2,0.2,0.8","0.8,0.2,0.2,0.2,0.8,0.2,0.2,0.2,0.8","1","",""
"","html-keyboard-response","79","50960","0.0-79.0","3X4JMASXCNVCYEKLWV1799LUUZ40BL","A3DKM1KM4C4G05","3UUIU9GZC5R93N292LT21FRJ9VS5TN","","null","<img src=""img/land6.png"" style=""width:200px;border:14px solid red;"">","null","","","","","","","","","",""
"","image-keyboard-response","80","51180","0.0-80.0","3X4JMASXCNVCYEKLWV1799LUUZ40BL","A3DKM1KM4C4G05","3UUIU9GZC5R93N292LT21FRJ9VS5TN","","217.99999999999272","img/land6.png","74","220","1","0","3","1","0.8,0.2,0.2,0.2,0.8,0.2,0.2,0.2,0.8","0.8,0.2,0.2,0.2,0.8,0.2,0.2,0.2,0.8","1","",""
"","html-keyboard-response","81","51483","0.0-81.0","3X4JMASXCNVCYEKLWV1799LUUZ40BL","A3DKM1KM4C4G05","3UUIU9GZC5R93N292LT21FRJ9VS5TN","","null","<img src=""img/land6.png"" style=""width:200px;border:14px solid red;"">","null","","","","","","","","","",""
"","image-keyboard-response","82","52064","0.0-82.0","3X4JMASXCNVCYEKLWV1799LUUZ40BL","A3DKM1KM4C4G05","3UUIU9GZC5R93N292LT21FRJ9VS5TN","","579","img/land2.png","76","580","3","0","2","1","0.8,0.2,0.2,0.2,0.8,0.2,0.2,0.2,0.8","0.8,0.2,0.2,0.2,0.8,0.2,0.2,0.2,0.8","1","",""
"","html-keyboard-response","83","52368","0.0-83.0","3X4JMASXCNVCYEKLWV1799LUUZ40BL","A3DKM1KM4C4G05","3UUIU9GZC5R93N292LT21FRJ9VS5TN","","null","<img src=""img/land2.png"" style=""width:200px;border:14px solid red;"">","null","","","","","","","","","",""
"","image-keyboard-response","84","52678","0.0-84.0","3X4JMASXCNVCYEKLWV1799LUUZ40BL","A3DKM1KM4C4G05","3UUIU9GZC5R93N292LT21FRJ9VS5TN","","307.0000000000073","img/land4.png","75","309","2","1","1","1","0.8,0.2,0.2,0.2,0.8,0.2,0.2,0.2,0.8","0.8,0.2,0.2,0.2,0.8,0.2,0.2,0.2,0.8","1","",""
"","html-keyboard-response","85","52983","0.0-85.0","3X4JMASXCNVCYEKLWV1799LUUZ40BL","A3DKM1KM4C4G05","3UUIU9GZC5R93N292LT21FRJ9VS5TN","","null","<img src=""img/land4.png"" style=""width:200px; border:14px solid green;"">","null","","","","","","","","","",""
"","image-keyboard-response","86","53466","0.0-86.0","3X4JMASXCNVCYEKLWV1799LUUZ40BL","A3DKM1KM4C4G05","3UUIU9GZC5R93N292LT21FRJ9VS5TN","","479","img/land4.png","75","483.0000000000073","2","1","1","1","0.8,0.2,0.2,0.2,0.8,0.2,0.2,0.2,0.8","0.8,0.2,0.2,0.2,0.8,0.2,0.2,0.2,0.8","1","",""
"","html-keyboard-response","87","53770","0.0-87.0","3X4JMASXCNVCYEKLWV1799LUUZ40BL","A3DKM1KM4C4G05","3UUIU9GZC5R93N292LT21FRJ9VS5TN","","null","<img src=""img/land4.png"" style=""width:200px; border:14px solid green;"">","null","","","","","","","","","",""
"","image-keyboard-response","88","54090","0.0-88.0","3X4JMASXCNVCYEKLWV1799LUUZ40BL","A3DKM1KM4C4G05","3UUIU9GZC5R93N292LT21FRJ9VS5TN","","318.0000000000073","img/land4.png","75","320","2","0","1","1","0.8,0.2,0.2,0.2,0.8,0.2,0.2,0.2,0.8","0.8,0.2,0.2,0.2,0.8,0.2,0.2,0.2,0.8","1","",""
"","html-keyboard-response","89","54393","0.0-89.0","3X4JMASXCNVCYEKLWV1799LUUZ40BL","A3DKM1KM4C4G05","3UUIU9GZC5R93N292LT21FRJ9VS5TN","","null","<img src=""img/land4.png"" style=""width:200px;border:14px solid red;"">","null","","","","","","","","","",""
"","image-keyboard-response","90","54661","0.0-90.0","3X4JMASXCNVCYEKLWV1799LUUZ40BL","A3DKM1KM4C4G05","3UUIU9GZC5R93N292LT21FRJ9VS5TN","","267","img/land2.png","74","268","1","1","2","1","0.8,0.2,0.2,0.2,0.8,0.2,0.2,0.2,0.8","0.8,0.2,0.2,0.2,0.8,0.2,0.2,0.2,0.8","1","",""
"","html-keyboard-response","91","54964","0.0-91.0","3X4JMASXCNVCYEKLWV1799LUUZ40BL","A3DKM1KM4C4G05","3UUIU9GZC5R93N292LT21FRJ9VS5TN","","null","<img src=""img/land2.png"" style=""width:200px; border:14px solid green;"">","null","","","","","","","","","",""
"","image-keyboard-response","92","55307","0.0-92.0","3X4JMASXCNVCYEKLWV1799LUUZ40BL","A3DKM1KM4C4G05","3UUIU9GZC5R93N292LT21FRJ9VS5TN","","340","img/land2.png","74","342","1","1","2","1","0.8,0.2,0.2,0.2,0.8,0.2,0.2,0.2,0.8","0.8,0.2,0.2,0.2,0.8,0.2,0.2,0.2,0.8","1","",""
"","html-keyboard-response","93","55610","0.0-93.0","3X4JMASXCNVCYEKLWV1799LUUZ40BL","A3DKM1KM4C4G05","3UUIU9GZC5R93N292LT21FRJ9VS5TN","","null","<img src=""img/land2.png"" style=""width:200px; border:14px solid green;"">","null","","","","","","","","","",""
"","image-keyboard-response","94","55793","0.0-94.0","3X4JMASXCNVCYEKLWV1799LUUZ40BL","A3DKM1KM4C4G05","3UUIU9GZC5R93N292LT21FRJ9VS5TN","","180","img/land4.png","74","182.00000000000728","1","0","1","1","0.8,0.2,0.2,0.2,0.8,0.2,0.2,0.2,0.8","0.8,0.2,0.2,0.2,0.8,0.2,0.2,0.2,0.8","1","",""
"","html-keyboard-response","95","56096","0.0-95.0","3X4JMASXCNVCYEKLWV1799LUUZ40BL","A3DKM1KM4C4G05","3UUIU9GZC5R93N292LT21FRJ9VS5TN","","null","<img src=""img/land4.png"" style=""width:200px;border:14px solid red;"">","null","","","","","","","","","",""
"","image-keyboard-response","96","56470","0.0-96.0","3X4JMASXCNVCYEKLWV1799LUUZ40BL","A3DKM1KM4C4G05","3UUIU9GZC5R93N292LT21FRJ9VS5TN","","372","img/land6.png","76","374.0000000000073","3","1","3","1","0.8,0.2,0.2,0.2,0.8,0.2,0.2,0.2,0.8","0.8,0.2,0.2,0.2,0.8,0.2,0.2,0.2,0.8","1","",""
"","html-keyboard-response","97","56773","0.0-97.0","3X4JMASXCNVCYEKLWV1799LUUZ40BL","A3DKM1KM4C4G05","3UUIU9GZC5R93N292LT21FRJ9VS5TN","","null","<img src=""img/land6.png"" style=""width:200px; border:14px solid green;"">","null","","","","","","","","","",""
"","image-keyboard-response","98","57105","0.0-98.0","3X4JMASXCNVCYEKLWV1799LUUZ40BL","A3DKM1KM4C4G05","3UUIU9GZC5R93N292LT21FRJ9VS5TN","","330.0000000000073","img/land6.png","76","332","3","1","3","1","0.8,0.2,0.2,0.2,0.8,0.2,0.2,0.2,0.8","0.8,0.2,0.2,0.2,0.8,0.2,0.2,0.2,0.8","1","",""
"","html-keyboard-response","99","57408","0.0-99.0","3X4JMASXCNVCYEKLWV1799LUUZ40BL","A3DKM1KM4C4G05","3UUIU9GZC5R93N292LT21FRJ9VS5TN","","null","<img src=""img/land6.png"" style=""width:200px; border:14px solid green;"">","null","","","","","","","","","",""
"","image-keyboard-response","100","57623","0.0-100.0","3X4JMASXCNVCYEKLWV1799LUUZ40BL","A3DKM1KM4C4G05","3UUIU9GZC5R93N292LT21FRJ9VS5TN","","212.99999999999272","img/land4.png","75","215","2","0","1","1","0.8,0.2,0.2,0.2,0.8,0.2,0.2,0.2,0.8","0.8,0.2,0.2,0.2,0.8,0.2,0.2,0.2,0.8","1","",""
"","html-keyboard-response","101","57926","0.0-101.0","3X4JMASXCNVCYEKLWV1799LUUZ40BL","A3DKM1KM4C4G05","3UUIU9GZC5R93N292LT21FRJ9VS5TN","","null","<img src=""img/land4.png"" style=""width:200px;border:14px solid red;"">","null","","","","","","","","","",""
"","image-keyboard-response","102","58251","0.0-102.0","3X4JMASXCNVCYEKLWV1799LUUZ40BL","A3DKM1KM4C4G05","3UUIU9GZC5R93N292LT21FRJ9VS5TN","","322.9999999999927","img/land2.png","76","325","3","0","2","1","0.8,0.2,0.2,0.2,0.8,0.2,0.2,0.2,0.8","0.8,0.2,0.2,0.2,0.8,0.2,0.2,0.2,0.8","1","",""
"","html-keyboard-response","103","58554","0.0-103.0","3X4JMASXCNVCYEKLWV1799LUUZ40BL","A3DKM1KM4C4G05","3UUIU9GZC5R93N292LT21FRJ9VS5TN","","null","<img src=""img/land2.png"" style=""width:200px;border:14px solid red;"">","null","","","","","","","","","",""
"","image-keyboard-response","104","58750","0.0-104.0","3X4JMASXCNVCYEKLWV1799LUUZ40BL","A3DKM1KM4C4G05","3UUIU9GZC5R93N292LT21FRJ9VS5TN","","193.00000000001455","img/land2.png","75","194","2","1","2","1","0.8,0.2,0.2,0.2,0.8,0.2,0.2,0.2,0.8","0.8,0.2,0.2,0.2,0.8,0.2,0.2,0.2,0.8","1","",""
"","html-keyboard-response","105","59053","0.0-105.0","3X4JMASXCNVCYEKLWV1799LUUZ40BL","A3DKM1KM4C4G05","3UUIU9GZC5R93N292LT21FRJ9VS5TN","","null","<img src=""img/land2.png"" style=""width:200px; border:14px solid green;"">","null","","","","","","","","","",""
"","image-keyboard-response","106","59175","0.0-106.0","3X4JMASXCNVCYEKLWV1799LUUZ40BL","A3DKM1KM4C4G05","3UUIU9GZC5R93N292LT21FRJ9VS5TN","","121","img/land4.png","74","122.00000000000728","1","1","1","1","0.8,0.2,0.2,0.2,0.8,0.2,0.2,0.2,0.8","0.8,0.2,0.2,0.2,0.8,0.2,0.2,0.2,0.8","1","",""
"","html-keyboard-response","107","59479","0.0-107.0","3X4JMASXCNVCYEKLWV1799LUUZ40BL","A3DKM1KM4C4G05","3UUIU9GZC5R93N292LT21FRJ9VS5TN","","null","<img src=""img/land4.png"" style=""width:200px; border:14px solid green;"">","null","","","","","","","","","",""
"","image-keyboard-response","108","59825","0.0-108.0","3X4JMASXCNVCYEKLWV1799LUUZ40BL","A3DKM1KM4C4G05","3UUIU9GZC5R93N292LT21FRJ9VS5TN","","345","img/land4.png","74","346","1","0","1","1","0.8,0.2,0.2,0.2,0.8,0.2,0.2,0.2,0.8","0.8,0.2,0.2,0.2,0.8,0.2,0.2,0.2,0.8","1","",""
"","html-keyboard-response","109","60128","0.0-109.0","3X4JMASXCNVCYEKLWV1799LUUZ40BL","A3DKM1KM4C4G05","3UUIU9GZC5R93N292LT21FRJ9VS5TN","","null","<img src=""img/land4.png"" style=""width:200px;border:14px solid red;"">","null","","","","","","","","","",""
"","image-keyboard-response","110","60308","0.0-110.0","3X4JMASXCNVCYEKLWV1799LUUZ40BL","A3DKM1KM4C4G05","3UUIU9GZC5R93N292LT21FRJ9VS5TN","","177.99999999998545","img/land6.png","75","179","2","0","3","1","0.8,0.2,0.2,0.2,0.8,0.2,0.2,0.2,0.8","0.8,0.2,0.2,0.2,0.8,0.2,0.2,0.2,0.8","1","",""
"","html-keyboard-response","111","60612","0.0-111.0","3X4JMASXCNVCYEKLWV1799LUUZ40BL","A3DKM1KM4C4G05","3UUIU9GZC5R93N292LT21FRJ9VS5TN","","null","<img src=""img/land6.png"" style=""width:200px;border:14px solid red;"">","null","","","","","","","","","",""
"","image-keyboard-response","112","60838","0.0-112.0","3X4JMASXCNVCYEKLWV1799LUUZ40BL","A3DKM1KM4C4G05","3UUIU9GZC5R93N292LT21FRJ9VS5TN","","224","img/land6.png","75","226","2","1","3","1","0.8,0.2,0.2,0.2,0.8,0.2,0.2,0.2,0.8","0.8,0.2,0.2,0.2,0.8,0.2,0.2,0.2,0.8","1","",""
"","html-keyboard-response","113","61141","0.0-113.0","3X4JMASXCNVCYEKLWV1799LUUZ40BL","A3DKM1KM4C4G05","3UUIU9GZC5R93N292LT21FRJ9VS5TN","","null","<img src=""img/land6.png"" style=""width:200px; border:14px solid green;"">","null","","","","","","","","","",""
"","image-keyboard-response","114","61223","0.0-114.0","3X4JMASXCNVCYEKLWV1799LUUZ40BL","A3DKM1KM4C4G05","3UUIU9GZC5R93N292LT21FRJ9VS5TN","","80.99999999998545","img/land2.png","76","82","3","0","2","1","0.8,0.2,0.2,0.2,0.8,0.2,0.2,0.2,0.8","0.8,0.2,0.2,0.2,0.8,0.2,0.2,0.2,0.8","1","",""
"","html-keyboard-response","115","61527","0.0-115.0","3X4JMASXCNVCYEKLWV1799LUUZ40BL","A3DKM1KM4C4G05","3UUIU9GZC5R93N292LT21FRJ9VS5TN","","null","<img src=""img/land2.png"" style=""width:200px;border:14px solid red;"">","null","","","","","","","","","",""
"","image-keyboard-response","116","61670","0.0-116.0","3X4JMASXCNVCYEKLWV1799LUUZ40BL","A3DKM1KM4C4G05","3UUIU9GZC5R93N292LT21FRJ9VS5TN","","142","img/land6.png","76","143","3","1","3","1","0.8,0.2,0.2,0.2,0.8,0.2,0.2,0.2,0.8","0.8,0.2,0.2,0.2,0.8,0.2,0.2,0.2,0.8","1","",""
"","html-keyboard-response","117","61974","0.0-117.0","3X4JMASXCNVCYEKLWV1799LUUZ40BL","A3DKM1KM4C4G05","3UUIU9GZC5R93N292LT21FRJ9VS5TN","","null","<img src=""img/land6.png"" style=""width:200px; border:14px solid green;"">","null","","","","","","","","","",""
"","image-keyboard-response","118","62368","0.0-118.0","3X4JMASXCNVCYEKLWV1799LUUZ40BL","A3DKM1KM4C4G05","3UUIU9GZC5R93N292LT21FRJ9VS5TN","","392","img/land4.png","76","394","3","0","1","1","0.8,0.2,0.2,0.2,0.8,0.2,0.2,0.2,0.8","0.8,0.2,0.2,0.2,0.8,0.2,0.2,0.2,0.8","1","",""
"","html-keyboard-response","119","62671","0.0-119.0","3X4JMASXCNVCYEKLWV1799LUUZ40BL","A3DKM1KM4C4G05","3UUIU9GZC5R93N292LT21FRJ9VS5TN","","null","<img src=""img/land4.png"" style=""width:200px;border:14px solid red;"">","null","","","","","","","","","",""
"","image-keyboard-response","120","62852","0.0-120.0","3X4JMASXCNVCYEKLWV1799LUUZ40BL","A3DKM1KM4C4G05","3UUIU9GZC5R93N292LT21FRJ9VS5TN","","178","img/land6.png","75","180","2","0","3","1","0.8,0.2,0.2,0.2,0.8,0.2,0.2,0.2,0.8","0.8,0.2,0.2,0.2,0.8,0.2,0.2,0.2,0.8","1","",""
"","html-keyboard-response","121","63155","0.0-121.0","3X4JMASXCNVCYEKLWV1799LUUZ40BL","A3DKM1KM4C4G05","3UUIU9GZC5R93N292LT21FRJ9VS5TN","","null","<img src=""img/land6.png"" style=""width:200px;border:14px solid red;"">","null","","","","","","","","","",""
"","image-keyboard-response","122","63395","0.0-122.0","3X4JMASXCNVCYEKLWV1799LUUZ40BL","A3DKM1KM4C4G05","3UUIU9GZC5R93N292LT21FRJ9VS5TN","","237","img/land6.png","75","239.00000000001455","2","1","3","1","0.8,0.2,0.2,0.2,0.8,0.2,0.2,0.2,0.8","0.8,0.2,0.2,0.2,0.8,0.2,0.2,0.2,0.8","1","",""
"","html-keyboard-response","123","63700","0.0-123.0","3X4JMASXCNVCYEKLWV1799LUUZ40BL","A3DKM1KM4C4G05","3UUIU9GZC5R93N292LT21FRJ9VS5TN","","null","<img src=""img/land6.png"" style=""width:200px; border:14px solid green;"">","null","","","","","","","","","",""
"","image-keyboard-response","124","63733","0.0-124.0","3X4JMASXCNVCYEKLWV1799LUUZ40BL","A3DKM1KM4C4G05","3UUIU9GZC5R93N292LT21FRJ9VS5TN","","32","img/land6.png","74","33","1","0","3","1","0.8,0.2,0.2,0.2,0.8,0.2,0.2,0.2,0.8","0.8,0.2,0.2,0.2,0.8,0.2,0.2,0.2,0.8","1","",""
"","html-keyboard-response","125","64037","0.0-125.0","3X4JMASXCNVCYEKLWV1799LUUZ40BL","A3DKM1KM4C4G05","3UUIU9GZC5R93N292LT21FRJ9VS5TN","","null","<img src=""img/land6.png"" style=""width:200px;border:14px solid red;"">","null","","","","","","","","","",""
"","image-keyboard-response","126","64335","0.0-126.0","3X4JMASXCNVCYEKLWV1799LUUZ40BL","A3DKM1KM4C4G05","3UUIU9GZC5R93N292LT21FRJ9VS5TN","","293","img/land6.png","75","297","2","0","3","1","0.8,0.2,0.2,0.2,0.8,0.2,0.2,0.2,0.8","0.8,0.2,0.2,0.2,0.8,0.2,0.2,0.2,0.8","1","",""
"","html-keyboard-response","127","64639","0.0-127.0","3X4JMASXCNVCYEKLWV1799LUUZ40BL","A3DKM1KM4C4G05","3UUIU9GZC5R93N292LT21FRJ9VS5TN","","null","<img src=""img/land6.png"" style=""width:200px;border:14px solid red;"">","null","","","","","","","","","",""
"","image-keyboard-response","128","64812","0.0-128.0","3X4JMASXCNVCYEKLWV1799LUUZ40BL","A3DKM1KM4C4G05","3UUIU9GZC5R93N292LT21FRJ9VS5TN","","168.99999999998545","img/land2.png","75","171","2","1","2","1","0.8,0.2,0.2,0.2,0.8,0.2,0.2,0.2,0.8","0.8,0.2,0.2,0.2,0.8,0.2,0.2,0.2,0.8","1","",""
"","html-keyboard-response","129","65115","0.0-129.0","3X4JMASXCNVCYEKLWV1799LUUZ40BL","A3DKM1KM4C4G05","3UUIU9GZC5R93N292LT21FRJ9VS5TN","","null","<img src=""img/land2.png"" style=""width:200px; border:14px solid green;"">","null","","","","","","","","","",""
"","image-keyboard-response","130","65208","0.0-130.0","3X4JMASXCNVCYEKLWV1799LUUZ40BL","A3DKM1KM4C4G05","3UUIU9GZC5R93N292LT21FRJ9VS5TN","","90","img/land2.png","76","92","3","0","2","1","0.8,0.2,0.2,0.2,0.8,0.2,0.2,0.2,0.8","0.8,0.2,0.2,0.2,0.8,0.2,0.2,0.2,0.8","1","",""
"","html-keyboard-response","131","65511","0.0-131.0","3X4JMASXCNVCYEKLWV1799LUUZ40BL","A3DKM1KM4C4G05","3UUIU9GZC5R93N292LT21FRJ9VS5TN","","null","<img src=""img/land2.png"" style=""width:200px;border:14px solid red;"">","null","","","","","","","","","",""
"","image-keyboard-response","132","65915","0.0-132.0","3X4JMASXCNVCYEKLWV1799LUUZ40BL","A3DKM1KM4C4G05","3UUIU9GZC5R93N292LT21FRJ9VS5TN","","401","img/land2.png","75","403","2","1","2","1","0.8,0.2,0.2,0.2,0.8,0.2,0.2,0.2,0.8","0.8,0.2,0.2,0.2,0.8,0.2,0.2,0.2,0.8","1","",""
"","html-keyboard-response","133","66219","0.0-133.0","3X4JMASXCNVCYEKLWV1799LUUZ40BL","A3DKM1KM4C4G05","3UUIU9GZC5R93N292LT21FRJ9VS5TN","","null","<img src=""img/land2.png"" style=""width:200px; border:14px solid green;"">","null","","","","","","","","","",""
"","image-keyboard-response","134","66399","0.0-134.0","3X4JMASXCNVCYEKLWV1799LUUZ40BL","A3DKM1KM4C4G05","3UUIU9GZC5R93N292LT21FRJ9VS5TN","","178.00000000001455","img/land2.png","75","179","2","1","2","1","0.8,0.2,0.2,0.2,0.8,0.2,0.2,0.2,0.8","0.8,0.2,0.2,0.2,0.8,0.2,0.2,0.2,0.8","1","",""
"","html-keyboard-response","135","66703","0.0-135.0","3X4JMASXCNVCYEKLWV1799LUUZ40BL","A3DKM1KM4C4G05","3UUIU9GZC5R93N292LT21FRJ9VS5TN","","null","<img src=""img/land2.png"" style=""width:200px; border:14px solid green;"">","null","","","","","","","","","",""
"","image-keyboard-response","136","66849","0.0-136.0","3X4JMASXCNVCYEKLWV1799LUUZ40BL","A3DKM1KM4C4G05","3UUIU9GZC5R93N292LT21FRJ9VS5TN","","144","img/land4.png","75","146","2","0","1","1","0.8,0.2,0.2,0.2,0.8,0.2,0.2,0.2,0.8","0.8,0.2,0.2,0.2,0.8,0.2,0.2,0.2,0.8","1","",""
"","html-keyboard-response","137","67153","0.0-137.0","3X4JMASXCNVCYEKLWV1799LUUZ40BL","A3DKM1KM4C4G05","3UUIU9GZC5R93N292LT21FRJ9VS5TN","","null","<img src=""img/land4.png"" style=""width:200px;border:14px solid red;"">","null","","","","","","","","","",""
"","image-keyboard-response","138","67466","0.0-138.0","3X4JMASXCNVCYEKLWV1799LUUZ40BL","A3DKM1KM4C4G05","3UUIU9GZC5R93N292LT21FRJ9VS5TN","","311","img/land6.png","74","313","1","0","3","1","0.8,0.2,0.2,0.2,0.8,0.2,0.2,0.2,0.8","0.8,0.2,0.2,0.2,0.8,0.2,0.2,0.2,0.8","1","",""
"","html-keyboard-response","139","67769","0.0-139.0","3X4JMASXCNVCYEKLWV1799LUUZ40BL","A3DKM1KM4C4G05","3UUIU9GZC5R93N292LT21FRJ9VS5TN","","null","<img src=""img/land6.png"" style=""width:200px;border:14px solid red;"">","null","","","","","","","","","",""
"","image-keyboard-response","140","67952","0.0-140.0","3X4JMASXCNVCYEKLWV1799LUUZ40BL","A3DKM1KM4C4G05","3UUIU9GZC5R93N292LT21FRJ9VS5TN","","180","img/land4.png","74","182.99999999998545","1","0","1","1","0.8,0.2,0.2,0.2,0.8,0.2,0.2,0.2,0.8","0.8,0.2,0.2,0.2,0.8,0.2,0.2,0.2,0.8","1","",""
"","html-keyboard-response","141","68256","0.0-141.0","3X4JMASXCNVCYEKLWV1799LUUZ40BL","A3DKM1KM4C4G05","3UUIU9GZC5R93N292LT21FRJ9VS5TN","","null","<img src=""img/land4.png"" style=""width:200px;border:14px solid red;"">","null","","","","","","","","","",""
"","image-keyboard-response","142","68563","0.0-142.0","3X4JMASXCNVCYEKLWV1799LUUZ40BL","A3DKM1KM4C4G05","3UUIU9GZC5R93N292LT21FRJ9VS5TN","","303.99999999998545","img/land6.png","74","306","1","1","3","1","0.8,0.2,0.2,0.2,0.8,0.2,0.2,0.2,0.8","0.8,0.2,0.2,0.2,0.8,0.2,0.2,0.2,0.8","1","",""
"","html-keyboard-response","143","68866","0.0-143.0","3X4JMASXCNVCYEKLWV1799LUUZ40BL","A3DKM1KM4C4G05","3UUIU9GZC5R93N292LT21FRJ9VS5TN","","null","<img src=""img/land6.png"" style=""width:200px; border:14px solid green;"">","null","","","","","","","","","",""
"","image-keyboard-response","144","69163","0.0-144.0","3X4JMASXCNVCYEKLWV1799LUUZ40BL","A3DKM1KM4C4G05","3UUIU9GZC5R93N292LT21FRJ9VS5TN","","294","img/land2.png","74","297","1","0","2","1","0.8,0.2,0.2,0.2,0.8,0.2,0.2,0.2,0.8","0.8,0.2,0.2,0.2,0.8,0.2,0.2,0.2,0.8","1","",""
"","html-keyboard-response","145","69466","0.0-145.0","3X4JMASXCNVCYEKLWV1799LUUZ40BL","A3DKM1KM4C4G05","3UUIU9GZC5R93N292LT21FRJ9VS5TN","","null","<img src=""img/land2.png"" style=""width:200px;border:14px solid red;"">","null","","","","","","","","","",""
"","image-keyboard-response","146","69919","0.0-146.0","3X4JMASXCNVCYEKLWV1799LUUZ40BL","A3DKM1KM4C4G05","3UUIU9GZC5R93N292LT21FRJ9VS5TN","","450","img/land6.png","74","452","1","1","3","1","0.8,0.2,0.2,0.2,0.8,0.2,0.2,0.2,0.8","0.8,0.2,0.2,0.2,0.8,0.2,0.2,0.2,0.8","1","",""
"","html-keyboard-response","147","70222","0.0-147.0","3X4JMASXCNVCYEKLWV1799LUUZ40BL","A3DKM1KM4C4G05","3UUIU9GZC5R93N292LT21FRJ9VS5TN","","null","<img src=""img/land6.png"" style=""width:200px; border:14px solid green;"">","null","","","","","","","","","",""
"","image-keyboard-response","148","70476","0.0-148.0","3X4JMASXCNVCYEKLWV1799LUUZ40BL","A3DKM1KM4C4G05","3UUIU9GZC5R93N292LT21FRJ9VS5TN","","253","img/land4.png","74","254","1","1","1","1","0.8,0.2,0.2,0.2,0.8,0.2,0.2,0.2,0.8","0.8,0.2,0.2,0.2,0.8,0.2,0.2,0.2,0.8","1","",""
"","html-keyboard-response","149","70779","0.0-149.0","3X4JMASXCNVCYEKLWV1799LUUZ40BL","A3DKM1KM4C4G05","3UUIU9GZC5R93N292LT21FRJ9VS5TN","","null","<img src=""img/land4.png"" style=""width:200px; border:14px solid green;"">","null","","","","","","","","","",""
"","image-keyboard-response","150","71002","0.0-150.0","3X4JMASXCNVCYEKLWV1799LUUZ40BL","A3DKM1KM4C4G05","3UUIU9GZC5R93N292LT21FRJ9VS5TN","","221","img/land2.png","74","223","1","0","2","1","0.8,0.2,0.2,0.2,0.8,0.2,0.2,0.2,0.8","0.8,0.2,0.2,0.2,0.8,0.2,0.2,0.2,0.8","1","",""
"","html-keyboard-response","151","71305","0.0-151.0","3X4JMASXCNVCYEKLWV1799LUUZ40BL","A3DKM1KM4C4G05","3UUIU9GZC5R93N292LT21FRJ9VS5TN","","null","<img src=""img/land2.png"" style=""width:200px;border:14px solid red;"">","null","","","","","","","","","",""
"","image-keyboard-response","152","71545","0.0-152.0","3X4JMASXCNVCYEKLWV1799LUUZ40BL","A3DKM1KM4C4G05","3UUIU9GZC5R93N292LT21FRJ9VS5TN","","238","img/land2.png","75","239","2","0","2","1","0.8,0.2,0.2,0.2,0.8,0.2,0.2,0.2,0.8","0.8,0.2,0.2,0.2,0.8,0.2,0.2,0.2,0.8","1","",""
"","html-keyboard-response","153","71849","0.0-153.0","3X4JMASXCNVCYEKLWV1799LUUZ40BL","A3DKM1KM4C4G05","3UUIU9GZC5R93N292LT21FRJ9VS5TN","","null","<img src=""img/land2.png"" style=""width:200px;border:14px solid red;"">","null","","","","","","","","","",""
"","image-keyboard-response","154","71994","0.0-154.0","3X4JMASXCNVCYEKLWV1799LUUZ40BL","A3DKM1KM4C4G05","3UUIU9GZC5R93N292LT21FRJ9VS5TN","","142","img/land2.png","75","144","2","1","2","1","0.8,0.2,0.2,0.2,0.8,0.2,0.2,0.2,0.8","0.8,0.2,0.2,0.2,0.8,0.2,0.2,0.2,0.8","1","",""
"","html-keyboard-response","155","72297","0.0-155.0","3X4JMASXCNVCYEKLWV1799LUUZ40BL","A3DKM1KM4C4G05","3UUIU9GZC5R93N292LT21FRJ9VS5TN","","null","<img src=""img/land2.png"" style=""width:200px; border:14px solid green;"">","null","","","","","","","","","",""
"","image-keyboard-response","156","72396","0.0-156.0","3X4JMASXCNVCYEKLWV1799LUUZ40BL","A3DKM1KM4C4G05","3UUIU9GZC5R93N292LT21FRJ9VS5TN","","98","img/land2.png","75","99","2","1","2","1","0.8,0.2,0.2,0.2,0.8,0.2,0.2,0.2,0.8","0.8,0.2,0.2,0.2,0.8,0.2,0.2,0.2,0.8","1","",""
"","html-keyboard-response","157","72699","0.0-157.0","3X4JMASXCNVCYEKLWV1799LUUZ40BL","A3DKM1KM4C4G05","3UUIU9GZC5R93N292LT21FRJ9VS5TN","","null","<img src=""img/land2.png"" style=""width:200px; border:14px solid green;"">","null","","","","","","","","","",""
"","image-keyboard-response","158","72804","0.0-158.0","3X4JMASXCNVCYEKLWV1799LUUZ40BL","A3DKM1KM4C4G05","3UUIU9GZC5R93N292LT21FRJ9VS5TN","","102","img/land6.png","75","103","2","0","3","1","0.8,0.2,0.2,0.2,0.8,0.2,0.2,0.2,0.8","0.8,0.2,0.2,0.2,0.8,0.2,0.2,0.2,0.8","1","",""
"","html-keyboard-response","159","73107","0.0-159.0","3X4JMASXCNVCYEKLWV1799LUUZ40BL","A3DKM1KM4C4G05","3UUIU9GZC5R93N292LT21FRJ9VS5TN","","null","<img src=""img/land6.png"" style=""width:200px;border:14px solid red;"">","null","","","","","","","","","",""
"","image-keyboard-response","160","73468","0.0-160.0","3X4JMASXCNVCYEKLWV1799LUUZ40BL","A3DKM1KM4C4G05","3UUIU9GZC5R93N292LT21FRJ9VS5TN","","359","img/land4.png","76","360","3","0","1","1","0.8,0.2,0.2,0.2,0.8,0.2,0.2,0.2,0.8","0.8,0.2,0.2,0.2,0.8,0.2,0.2,0.2,0.8","1","",""
"","html-keyboard-response","161","73772","0.0-161.0","3X4JMASXCNVCYEKLWV1799LUUZ40BL","A3DKM1KM4C4G05","3UUIU9GZC5R93N292LT21FRJ9VS5TN","","null","<img src=""img/land4.png"" style=""width:200px;border:14px solid red;"">","null","","","","","","","","","",""
"","image-keyboard-response","162","74209","0.0-162.0","3X4JMASXCNVCYEKLWV1799LUUZ40BL","A3DKM1KM4C4G05","3UUIU9GZC5R93N292LT21FRJ9VS5TN","","434.99999999998545","img/land4.png","74","437","1","1","1","1","0.8,0.2,0.2,0.2,0.8,0.2,0.2,0.2,0.8","0.8,0.2,0.2,0.2,0.8,0.2,0.2,0.2,0.8","1","",""
"","html-keyboard-response","163","74512","0.0-163.0","3X4JMASXCNVCYEKLWV1799LUUZ40BL","A3DKM1KM4C4G05","3UUIU9GZC5R93N292LT21FRJ9VS5TN","","null","<img src=""img/land4.png"" style=""width:200px; border:14px solid green;"">","null","","","","","","","","","",""
"","image-keyboard-response","164","74628","0.0-164.0","3X4JMASXCNVCYEKLWV1799LUUZ40BL","A3DKM1KM4C4G05","3UUIU9GZC5R93N292LT21FRJ9VS5TN","","113","img/land2.png","74","115","1","0","2","1","0.8,0.2,0.2,0.2,0.8,0.2,0.2,0.2,0.8","0.8,0.2,0.2,0.2,0.8,0.2,0.2,0.2,0.8","1","",""
"","html-keyboard-response","165","74931","0.0-165.0","3X4JMASXCNVCYEKLWV1799LUUZ40BL","A3DKM1KM4C4G05","3UUIU9GZC5R93N292LT21FRJ9VS5TN","","null","<img src=""img/land2.png"" style=""width:200px;border:14px solid red;"">","null","","","","","","","","","",""
"","image-keyboard-response","166","75320","0.0-166.0","3X4JMASXCNVCYEKLWV1799LUUZ40BL","A3DKM1KM4C4G05","3UUIU9GZC5R93N292LT21FRJ9VS5TN","","386","img/land4.png","75","389","2","0","1","1","0.8,0.2,0.2,0.2,0.8,0.2,0.2,0.2,0.8","0.8,0.2,0.2,0.2,0.8,0.2,0.2,0.2,0.8","1","",""
"","html-keyboard-response","167","75623","0.0-167.0","3X4JMASXCNVCYEKLWV1799LUUZ40BL","A3DKM1KM4C4G05","3UUIU9GZC5R93N292LT21FRJ9VS5TN","","null","<img src=""img/land4.png"" style=""width:200px;border:14px solid red;"">","null","","","","","","","","","",""
"","image-keyboard-response","168","75795","0.0-168.0","3X4JMASXCNVCYEKLWV1799LUUZ40BL","A3DKM1KM4C4G05","3UUIU9GZC5R93N292LT21FRJ9VS5TN","","169","img/land4.png","75","170.99999999998545","2","0","1","1","0.8,0.2,0.2,0.2,0.8,0.2,0.2,0.2,0.8","0.8,0.2,0.2,0.2,0.8,0.2,0.2,0.2,0.8","1","",""
"","html-keyboard-response","169","76098","0.0-169.0","3X4JMASXCNVCYEKLWV1799LUUZ40BL","A3DKM1KM4C4G05","3UUIU9GZC5R93N292LT21FRJ9VS5TN","","null","<img src=""img/land4.png"" style=""width:200px;border:14px solid red;"">","null","","","","","","","","","",""
"","image-keyboard-response","170","76176","0.0-170.0","3X4JMASXCNVCYEKLWV1799LUUZ40BL","A3DKM1KM4C4G05","3UUIU9GZC5R93N292LT21FRJ9VS5TN","","76","img/land6.png","76","78","3","1","3","1","0.8,0.2,0.2,0.2,0.8,0.2,0.2,0.2,0.8","0.8,0.2,0.2,0.2,0.8,0.2,0.2,0.2,0.8","1","",""
"","html-keyboard-response","171","76479","0.0-171.0","3X4JMASXCNVCYEKLWV1799LUUZ40BL","A3DKM1KM4C4G05","3UUIU9GZC5R93N292LT21FRJ9VS5TN","","null","<img src=""img/land6.png"" style=""width:200px; border:14px solid green;"">","null","","","","","","","","","",""
"","image-keyboard-response","172","76582","0.0-172.0","3X4JMASXCNVCYEKLWV1799LUUZ40BL","A3DKM1KM4C4G05","3UUIU9GZC5R93N292LT21FRJ9VS5TN","","100","img/land4.png","76","102","3","0","1","1","0.8,0.2,0.2,0.2,0.8,0.2,0.2,0.2,0.8","0.8,0.2,0.2,0.2,0.8,0.2,0.2,0.2,0.8","1","",""
"","html-keyboard-response","173","76885","0.0-173.0","3X4JMASXCNVCYEKLWV1799LUUZ40BL","A3DKM1KM4C4G05","3UUIU9GZC5R93N292LT21FRJ9VS5TN","","null","<img src=""img/land4.png"" style=""width:200px;border:14px solid red;"">","null","","","","","","","","","",""
"","image-keyboard-response","174","77114","0.0-174.0","3X4JMASXCNVCYEKLWV1799LUUZ40BL","A3DKM1KM4C4G05","3UUIU9GZC5R93N292LT21FRJ9VS5TN","","226","img/land2.png","75","227.99999999998545","2","1","2","1","0.8,0.2,0.2,0.2,0.8,0.2,0.2,0.2,0.8","0.8,0.2,0.2,0.2,0.8,0.2,0.2,0.2,0.8","1","",""
"","html-keyboard-response","175","77417","0.0-175.0","3X4JMASXCNVCYEKLWV1799LUUZ40BL","A3DKM1KM4C4G05","3UUIU9GZC5R93N292LT21FRJ9VS5TN","","null","<img src=""img/land2.png"" style=""width:200px; border:14px solid green;"">","null","","","","","","","","","",""
"","image-keyboard-response","176","77572","0.0-176.0","3X4JMASXCNVCYEKLWV1799LUUZ40BL","A3DKM1KM4C4G05","3UUIU9GZC5R93N292LT21FRJ9VS5TN","","153","img/land4.png","75","154","2","1","1","1","0.8,0.2,0.2,0.2,0.8,0.2,0.2,0.2,0.8","0.8,0.2,0.2,0.2,0.8,0.2,0.2,0.2,0.8","1","",""
"","html-keyboard-response","177","77875","0.0-177.0","3X4JMASXCNVCYEKLWV1799LUUZ40BL","A3DKM1KM4C4G05","3UUIU9GZC5R93N292LT21FRJ9VS5TN","","null","<img src=""img/land4.png"" style=""width:200px; border:14px solid green;"">","null","","","","","","","","","",""
"","image-keyboard-response","178","78099","0.0-178.0","3X4JMASXCNVCYEKLWV1799LUUZ40BL","A3DKM1KM4C4G05","3UUIU9GZC5R93N292LT21FRJ9VS5TN","","220.99999999998545","img/land6.png","75","223","2","0","3","1","0.8,0.2,0.2,0.2,0.8,0.2,0.2,0.2,0.8","0.8,0.2,0.2,0.2,0.8,0.2,0.2,0.2,0.8","1","",""
"","html-keyboard-response","179","78402","0.0-179.0","3X4JMASXCNVCYEKLWV1799LUUZ40BL","A3DKM1KM4C4G05","3UUIU9GZC5R93N292LT21FRJ9VS5TN","","null","<img src=""img/land6.png"" style=""width:200px;border:14px solid red;"">","null","","","","","","","","","",""
"","image-keyboard-response","180","78581","0.0-180.0","3X4JMASXCNVCYEKLWV1799LUUZ40BL","A3DKM1KM4C4G05","3UUIU9GZC5R93N292LT21FRJ9VS5TN","","175.99999999998545","img/land6.png","74","178","1","0","3","1","0.8,0.2,0.2,0.2,0.8,0.2,0.2,0.2,0.8","0.8,0.2,0.2,0.2,0.8,0.2,0.2,0.2,0.8","1","",""
"","html-keyboard-response","181","78883","0.0-181.0","3X4JMASXCNVCYEKLWV1799LUUZ40BL","A3DKM1KM4C4G05","3UUIU9GZC5R93N292LT21FRJ9VS5TN","","null","<img src=""img/land6.png"" style=""width:200px;border:14px solid red;"">","null","","","","","","","","","",""
"","html-keyboard-response","182","83926","0.0-182.0","3X4JMASXCNVCYEKLWV1799LUUZ40BL","A3DKM1KM4C4G05","3UUIU9GZC5R93N292LT21FRJ9VS5TN","","","","","","","","","","","","","",""
"","image-keyboard-response","183","85774","0.0-183.0","3X4JMASXCNVCYEKLWV1799LUUZ40BL","A3DKM1KM4C4G05","3UUIU9GZC5R93N292LT21FRJ9VS5TN","","1846.0000000000146","img/land1.png","75","1848","2","0","1","2","0.8,0.2,0.2,0.2,0.8,0.2,0.2,0.2,0.8","0.2,0.2,0.8,0.8,0.2,0.2,0.2,0.8,0.2","2","",""
"","html-keyboard-response","184","86077","0.0-184.0","3X4JMASXCNVCYEKLWV1799LUUZ40BL","A3DKM1KM4C4G05","3UUIU9GZC5R93N292LT21FRJ9VS5TN","","null","<img src=""img/land1.png"" style=""width:200px;border:14px solid red;"">","null","","","","","","","","","",""
"","image-keyboard-response","185","86406","0.0-185.0","3X4JMASXCNVCYEKLWV1799LUUZ40BL","A3DKM1KM4C4G05","3UUIU9GZC5R93N292LT21FRJ9VS5TN","","326","img/land1.png","74","328","1","1","1","2","0.8,0.2,0.2,0.2,0.8,0.2,0.2,0.2,0.8","0.2,0.2,0.8,0.8,0.2,0.2,0.2,0.8,0.2","2","",""
"","html-keyboard-response","186","86709","0.0-186.0","3X4JMASXCNVCYEKLWV1799LUUZ40BL","A3DKM1KM4C4G05","3UUIU9GZC5R93N292LT21FRJ9VS5TN","","null","<img src=""img/land1.png"" style=""width:200px; border:14px solid green;"">","null","","","","","","","","","",""
"","image-keyboard-response","187","86928","0.0-187.0","3X4JMASXCNVCYEKLWV1799LUUZ40BL","A3DKM1KM4C4G05","3UUIU9GZC5R93N292LT21FRJ9VS5TN","","216","img/land1.png","74","218","1","0","1","2","0.8,0.2,0.2,0.2,0.8,0.2,0.2,0.2,0.8","0.2,0.2,0.8,0.8,0.2,0.2,0.2,0.8,0.2","2","",""
"","html-keyboard-response","188","87232","0.0-188.0","3X4JMASXCNVCYEKLWV1799LUUZ40BL","A3DKM1KM4C4G05","3UUIU9GZC5R93N292LT21FRJ9VS5TN","","null","<img src=""img/land1.png"" style=""width:200px;border:14px solid red;"">","null","","","","","","","","","",""
"","image-keyboard-response","189","87388","0.0-189.0","3X4JMASXCNVCYEKLWV1799LUUZ40BL","A3DKM1KM4C4G05","3UUIU9GZC5R93N292LT21FRJ9VS5TN","","154","img/land1.png","75","156.00000000001455","2","1","1","2","0.8,0.2,0.2,0.2,0.8,0.2,0.2,0.2,0.8","0.2,0.2,0.8,0.8,0.2,0.2,0.2,0.8,0.2","2","",""
"","html-keyboard-response","190","87692","0.0-190.0","3X4JMASXCNVCYEKLWV1799LUUZ40BL","A3DKM1KM4C4G05","3UUIU9GZC5R93N292LT21FRJ9VS5TN","","null","<img src=""img/land1.png"" style=""width:200px; border:14px solid green;"">","null","","","","","","","","","",""
"","image-keyboard-response","191","87734","0.0-191.0","3X4JMASXCNVCYEKLWV1799LUUZ40BL","A3DKM1KM4C4G05","3UUIU9GZC5R93N292LT21FRJ9VS5TN","","40","img/land1.png","76","42","3","1","1","2","0.8,0.2,0.2,0.2,0.8,0.2,0.2,0.2,0.8","0.2,0.2,0.8,0.8,0.2,0.2,0.2,0.8,0.2","2","",""
"","html-keyboard-response","192","88036","0.0-192.0","3X4JMASXCNVCYEKLWV1799LUUZ40BL","A3DKM1KM4C4G05","3UUIU9GZC5R93N292LT21FRJ9VS5TN","","null","<img src=""img/land1.png"" style=""width:200px; border:14px solid green;"">","null","","","","","","","","","",""
"","image-keyboard-response","193","88241","0.0-193.0","3X4JMASXCNVCYEKLWV1799LUUZ40BL","A3DKM1KM4C4G05","3UUIU9GZC5R93N292LT21FRJ9VS5TN","","202","img/land5.png","76","203.99999999998545","3","0","3","2","0.8,0.2,0.2,0.2,0.8,0.2,0.2,0.2,0.8","0.2,0.2,0.8,0.8,0.2,0.2,0.2,0.8,0.2","2","",""
"","html-keyboard-response","194","88545","0.0-194.0","3X4JMASXCNVCYEKLWV1799LUUZ40BL","A3DKM1KM4C4G05","3UUIU9GZC5R93N292LT21FRJ9VS5TN","","null","<img src=""img/land5.png"" style=""width:200px;border:14px solid red;"">","null","","","","","","","","","",""
"","image-keyboard-response","195","88905","0.0-195.0","3X4JMASXCNVCYEKLWV1799LUUZ40BL","A3DKM1KM4C4G05","3UUIU9GZC5R93N292LT21FRJ9VS5TN","","356.00000000001455","img/land5.png","75","358","2","0","3","2","0.8,0.2,0.2,0.2,0.8,0.2,0.2,0.2,0.8","0.2,0.2,0.8,0.8,0.2,0.2,0.2,0.8,0.2","2","",""
"","html-keyboard-response","196","89208","0.0-196.0","3X4JMASXCNVCYEKLWV1799LUUZ40BL","A3DKM1KM4C4G05","3UUIU9GZC5R93N292LT21FRJ9VS5TN","","null","<img src=""img/land5.png"" style=""width:200px;border:14px solid red;"">","null","","","","","","","","","",""
"","image-keyboard-response","197","89400","0.0-197.0","3X4JMASXCNVCYEKLWV1799LUUZ40BL","A3DKM1KM4C4G05","3UUIU9GZC5R93N292LT21FRJ9VS5TN","","189","img/land5.png","74","191","1","0","3","2","0.8,0.2,0.2,0.2,0.8,0.2,0.2,0.2,0.8","0.2,0.2,0.8,0.8,0.2,0.2,0.2,0.8,0.2","2","",""
"","html-keyboard-response","198","89703","0.0-198.0","3X4JMASXCNVCYEKLWV1799LUUZ40BL","A3DKM1KM4C4G05","3UUIU9GZC5R93N292LT21FRJ9VS5TN","","null","<img src=""img/land5.png"" style=""width:200px;border:14px solid red;"">","null","","","","","","","","","",""
"","image-keyboard-response","199","89822","0.0-199.0","3X4JMASXCNVCYEKLWV1799LUUZ40BL","A3DKM1KM4C4G05","3UUIU9GZC5R93N292LT21FRJ9VS5TN","","116","img/land1.png","74","118","1","0","1","2","0.8,0.2,0.2,0.2,0.8,0.2,0.2,0.2,0.8","0.2,0.2,0.8,0.8,0.2,0.2,0.2,0.8,0.2","2","",""
"","html-keyboard-response","200","90125","0.0-200.0","3X4JMASXCNVCYEKLWV1799LUUZ40BL","A3DKM1KM4C4G05","3UUIU9GZC5R93N292LT21FRJ9VS5TN","","null","<img src=""img/land1.png"" style=""width:200px;border:14px solid red;"">","null","","","","","","","","","",""
"","image-keyboard-response","201","90389","0.0-201.0","3X4JMASXCNVCYEKLWV1799LUUZ40BL","A3DKM1KM4C4G05","3UUIU9GZC5R93N292LT21FRJ9VS5TN","","260.99999999998545","img/land5.png","74","263.00000000001455","1","0","3","2","0.8,0.2,0.2,0.2,0.8,0.2,0.2,0.2,0.8","0.2,0.2,0.8,0.8,0.2,0.2,0.2,0.8,0.2","2","",""
"","html-keyboard-response","202","90692","0.0-202.0","3X4JMASXCNVCYEKLWV1799LUUZ40BL","A3DKM1KM4C4G05","3UUIU9GZC5R93N292LT21FRJ9VS5TN","","null","<img src=""img/land5.png"" style=""width:200px;border:14px solid red;"">","null","","","","","","","","","",""
"","image-keyboard-response","203","90727","0.0-203.0","3X4JMASXCNVCYEKLWV1799LUUZ40BL","A3DKM1KM4C4G05","3UUIU9GZC5R93N292LT21FRJ9VS5TN","","33","img/land1.png","75","34","2","0","1","2","0.8,0.2,0.2,0.2,0.8,0.2,0.2,0.2,0.8","0.2,0.2,0.8,0.8,0.2,0.2,0.2,0.8,0.2","2","",""
"","html-keyboard-response","204","91030","0.0-204.0","3X4JMASXCNVCYEKLWV1799LUUZ40BL","A3DKM1KM4C4G05","3UUIU9GZC5R93N292LT21FRJ9VS5TN","","null","<img src=""img/land1.png"" style=""width:200px;border:14px solid red;"">","null","","","","","","","","","",""
"","image-keyboard-response","205","91120","0.0-205.0","3X4JMASXCNVCYEKLWV1799LUUZ40BL","A3DKM1KM4C4G05","3UUIU9GZC5R93N292LT21FRJ9VS5TN","","86.99999999998545","img/land1.png","75","89","2","0","1","2","0.8,0.2,0.2,0.2,0.8,0.2,0.2,0.2,0.8","0.2,0.2,0.8,0.8,0.2,0.2,0.2,0.8,0.2","2","",""
"","html-keyboard-response","206","91423","0.0-206.0","3X4JMASXCNVCYEKLWV1799LUUZ40BL","A3DKM1KM4C4G05","3UUIU9GZC5R93N292LT21FRJ9VS5TN","","null","<img src=""img/land1.png"" style=""width:200px;border:14px solid red;"">","null","","","","","","","","","",""
"","image-keyboard-response","207","91434","0.0-207.0","3X4JMASXCNVCYEKLWV1799LUUZ40BL","A3DKM1KM4C4G05","3UUIU9GZC5R93N292LT21FRJ9VS5TN","","9","img/land1.png","76","11","3","1","1","2","0.8,0.2,0.2,0.2,0.8,0.2,0.2,0.2,0.8","0.2,0.2,0.8,0.8,0.2,0.2,0.2,0.8,0.2","2","",""
"","html-keyboard-response","208","91737","0.0-208.0","3X4JMASXCNVCYEKLWV1799LUUZ40BL","A3DKM1KM4C4G05","3UUIU9GZC5R93N292LT21FRJ9VS5TN","","null","<img src=""img/land1.png"" style=""width:200px; border:14px solid green;"">","null","","","","","","","","","",""
"","image-keyboard-response","209","91828","0.0-209.0","3X4JMASXCNVCYEKLWV1799LUUZ40BL","A3DKM1KM4C4G05","3UUIU9GZC5R93N292LT21FRJ9VS5TN","","88","img/land3.png","76","90","3","0","2","2","0.8,0.2,0.2,0.2,0.8,0.2,0.2,0.2,0.8","0.2,0.2,0.8,0.8,0.2,0.2,0.2,0.8,0.2","2","",""
"","html-keyboard-response","210","92131","0.0-210.0","3X4JMASXCNVCYEKLWV1799LUUZ40BL","A3DKM1KM4C4G05","3UUIU9GZC5R93N292LT21FRJ9VS5TN","","null","<img src=""img/land3.png"" style=""width:200px;border:14px solid red;"">","null","","","","","","","","","",""
"","image-keyboard-response","211","92242","0.0-211.0","3X4JMASXCNVCYEKLWV1799LUUZ40BL","A3DKM1KM4C4G05","3UUIU9GZC5R93N292LT21FRJ9VS5TN","","108.99999999998545","img/land1.png","75","110","2","1","1","2","0.8,0.2,0.2,0.2,0.8,0.2,0.2,0.2,0.8","0.2,0.2,0.8,0.8,0.2,0.2,0.2,0.8,0.2","2","",""
"","html-keyboard-response","212","92545","0.0-212.0","3X4JMASXCNVCYEKLWV1799LUUZ40BL","A3DKM1KM4C4G05","3UUIU9GZC5R93N292LT21FRJ9VS5TN","","null","<img src=""img/land1.png"" style=""width:200px; border:14px solid green;"">","null","","","","","","","","","",""
"","image-keyboard-response","213","92662","0.0-213.0","3X4JMASXCNVCYEKLWV1799LUUZ40BL","A3DKM1KM4C4G05","3UUIU9GZC5R93N292LT21FRJ9VS5TN","","115","img/land1.png","75","117.00000000001455","2","0","1","2","0.8,0.2,0.2,0.2,0.8,0.2,0.2,0.2,0.8","0.2,0.2,0.8,0.8,0.2,0.2,0.2,0.8,0.2","2","",""
"","html-keyboard-response","214","92965","0.0-214.0","3X4JMASXCNVCYEKLWV1799LUUZ40BL","A3DKM1KM4C4G05","3UUIU9GZC5R93N292LT21FRJ9VS5TN","","null","<img src=""img/land1.png"" style=""width:200px;border:14px solid red;"">","null","","","","","","","","","",""
"","image-keyboard-response","215","93022","0.0-215.0","3X4JMASXCNVCYEKLWV1799LUUZ40BL","A3DKM1KM4C4G05","3UUIU9GZC5R93N292LT21FRJ9VS5TN","","55","img/land5.png","75","57.00000000001455","2","1","3","2","0.8,0.2,0.2,0.2,0.8,0.2,0.2,0.2,0.8","0.2,0.2,0.8,0.8,0.2,0.2,0.2,0.8,0.2","2","",""
"","html-keyboard-response","216","93325","0.0-216.0","3X4JMASXCNVCYEKLWV1799LUUZ40BL","A3DKM1KM4C4G05","3UUIU9GZC5R93N292LT21FRJ9VS5TN","","null","<img src=""img/land5.png"" style=""width:200px; border:14px solid green;"">","null","","","","","","","","","",""
"","image-keyboard-response","217","93396","0.0-217.0","3X4JMASXCNVCYEKLWV1799LUUZ40BL","A3DKM1KM4C4G05","3UUIU9GZC5R93N292LT21FRJ9VS5TN","","69","img/land5.png","74","71","1","0","3","2","0.8,0.2,0.2,0.2,0.8,0.2,0.2,0.2,0.8","0.2,0.2,0.8,0.8,0.2,0.2,0.2,0.8,0.2","2","",""
"","html-keyboard-response","218","93699","0.0-218.0","3X4JMASXCNVCYEKLWV1799LUUZ40BL","A3DKM1KM4C4G05","3UUIU9GZC5R93N292LT21FRJ9VS5TN","","null","<img src=""img/land5.png"" style=""width:200px;border:14px solid red;"">","null","","","","","","","","","",""
"","image-keyboard-response","219","93815","0.0-219.0","3X4JMASXCNVCYEKLWV1799LUUZ40BL","A3DKM1KM4C4G05","3UUIU9GZC5R93N292LT21FRJ9VS5TN","","114","img/land1.png","74","116","1","0","1","2","0.8,0.2,0.2,0.2,0.8,0.2,0.2,0.2,0.8","0.2,0.2,0.8,0.8,0.2,0.2,0.2,0.8,0.2","2","",""
"","html-keyboard-response","220","94118","0.0-220.0","3X4JMASXCNVCYEKLWV1799LUUZ40BL","A3DKM1KM4C4G05","3UUIU9GZC5R93N292LT21FRJ9VS5TN","","null","<img src=""img/land1.png"" style=""width:200px;border:14px solid red;"">","null","","","","","","","","","",""
"","image-keyboard-response","221","94451","0.0-221.0","3X4JMASXCNVCYEKLWV1799LUUZ40BL","A3DKM1KM4C4G05","3UUIU9GZC5R93N292LT21FRJ9VS5TN","","328.99999999998545","img/land1.png","75","331","2","0","1","2","0.8,0.2,0.2,0.2,0.8,0.2,0.2,0.2,0.8","0.2,0.2,0.8,0.8,0.2,0.2,0.2,0.8,0.2","2","",""
"","html-keyboard-response","222","94754","0.0-222.0","3X4JMASXCNVCYEKLWV1799LUUZ40BL","A3DKM1KM4C4G05","3UUIU9GZC5R93N292LT21FRJ9VS5TN","","null","<img src=""img/land1.png"" style=""width:200px;border:14px solid red;"">","null","","","","","","","","","",""
"","image-keyboard-response","223","94780","0.0-223.0","3X4JMASXCNVCYEKLWV1799LUUZ40BL","A3DKM1KM4C4G05","3UUIU9GZC5R93N292LT21FRJ9VS5TN","","24.999999999985448","img/land1.png","75","27","2","0","1","2","0.8,0.2,0.2,0.2,0.8,0.2,0.2,0.2,0.8","0.2,0.2,0.8,0.8,0.2,0.2,0.2,0.8,0.2","2","",""
"","html-keyboard-response","224","95083","0.0-224.0","3X4JMASXCNVCYEKLWV1799LUUZ40BL","A3DKM1KM4C4G05","3UUIU9GZC5R93N292LT21FRJ9VS5TN","","null","<img src=""img/land1.png"" style=""width:200px;border:14px solid red;"">","null","","","","","","","","","",""
"","image-keyboard-response","225","95129","0.0-225.0","3X4JMASXCNVCYEKLWV1799LUUZ40BL","A3DKM1KM4C4G05","3UUIU9GZC5R93N292LT21FRJ9VS5TN","","45","img/land5.png","76","46","3","0","3","2","0.8,0.2,0.2,0.2,0.8,0.2,0.2,0.2,0.8","0.2,0.2,0.8,0.8,0.2,0.2,0.2,0.8,0.2","2","",""
"","html-keyboard-response","226","95432","0.0-226.0","3X4JMASXCNVCYEKLWV1799LUUZ40BL","A3DKM1KM4C4G05","3UUIU9GZC5R93N292LT21FRJ9VS5TN","","null","<img src=""img/land5.png"" style=""width:200px;border:14px solid red;"">","null","","","","","","","","","",""
"","image-keyboard-response","227","95553","0.0-227.0","3X4JMASXCNVCYEKLWV1799LUUZ40BL","A3DKM1KM4C4G05","3UUIU9GZC5R93N292LT21FRJ9VS5TN","","118","img/land3.png","76","120","3","0","2","2","0.8,0.2,0.2,0.2,0.8,0.2,0.2,0.2,0.8","0.2,0.2,0.8,0.8,0.2,0.2,0.2,0.8,0.2","2","",""
"","html-keyboard-response","228","95856","0.0-228.0","3X4JMASXCNVCYEKLWV1799LUUZ40BL","A3DKM1KM4C4G05","3UUIU9GZC5R93N292LT21FRJ9VS5TN","","null","<img src=""img/land3.png"" style=""width:200px;border:14px solid red;"">","null","","","","","","","","","",""
"","image-keyboard-response","229","95914","0.0-229.0","3X4JMASXCNVCYEKLWV1799LUUZ40BL","A3DKM1KM4C4G05","3UUIU9GZC5R93N292LT21FRJ9VS5TN","","55.00000000001455","img/land1.png","75","57","2","1","1","2","0.8,0.2,0.2,0.2,0.8,0.2,0.2,0.2,0.8","0.2,0.2,0.8,0.8,0.2,0.2,0.2,0.8,0.2","2","",""
"","html-keyboard-response","230","96217","0.0-230.0","3X4JMASXCNVCYEKLWV1799LUUZ40BL","A3DKM1KM4C4G05","3UUIU9GZC5R93N292LT21FRJ9VS5TN","","null","<img src=""img/land1.png"" style=""width:200px; border:14px solid green;"">","null","","","","","","","","","",""
"","image-keyboard-response","231","96307","0.0-231.0","3X4JMASXCNVCYEKLWV1799LUUZ40BL","A3DKM1KM4C4G05","3UUIU9GZC5R93N292LT21FRJ9VS5TN","","88","img/land1.png","74","90","1","0","1","2","0.8,0.2,0.2,0.2,0.8,0.2,0.2,0.2,0.8","0.2,0.2,0.8,0.8,0.2,0.2,0.2,0.8,0.2","2","",""
"","html-keyboard-response","232","96611","0.0-232.0","3X4JMASXCNVCYEKLWV1799LUUZ40BL","A3DKM1KM4C4G05","3UUIU9GZC5R93N292LT21FRJ9VS5TN","","null","<img src=""img/land1.png"" style=""width:200px;border:14px solid red;"">","null","","","","","","","","","",""
"","image-keyboard-response","233","96810","0.0-233.0","3X4JMASXCNVCYEKLWV1799LUUZ40BL","A3DKM1KM4C4G05","3UUIU9GZC5R93N292LT21FRJ9VS5TN","","197","img/land5.png","75","200","2","0","3","2","0.8,0.2,0.2,0.2,0.8,0.2,0.2,0.2,0.8","0.2,0.2,0.8,0.8,0.2,0.2,0.2,0.8,0.2","2","",""
"","html-keyboard-response","234","97113","0.0-234.0","3X4JMASXCNVCYEKLWV1799LUUZ40BL","A3DKM1KM4C4G05","3UUIU9GZC5R93N292LT21FRJ9VS5TN","","null","<img src=""img/land5.png"" style=""width:200px;border:14px solid red;"">","null","","","","","","","","","",""
"","image-keyboard-response","235","97321","0.0-235.0","3X4JMASXCNVCYEKLWV1799LUUZ40BL","A3DKM1KM4C4G05","3UUIU9GZC5R93N292LT21FRJ9VS5TN","","205","img/land1.png","75","207","2","1","1","2","0.8,0.2,0.2,0.2,0.8,0.2,0.2,0.2,0.8","0.2,0.2,0.8,0.8,0.2,0.2,0.2,0.8,0.2","2","",""
"","html-keyboard-response","236","97624","0.0-236.0","3X4JMASXCNVCYEKLWV1799LUUZ40BL","A3DKM1KM4C4G05","3UUIU9GZC5R93N292LT21FRJ9VS5TN","","null","<img src=""img/land1.png"" style=""width:200px; border:14px solid green;"">","null","","","","","","","","","",""
"","image-keyboard-response","237","97833","0.0-237.0","3X4JMASXCNVCYEKLWV1799LUUZ40BL","A3DKM1KM4C4G05","3UUIU9GZC5R93N292LT21FRJ9VS5TN","","207","img/land1.png","75","209","2","0","1","2","0.8,0.2,0.2,0.2,0.8,0.2,0.2,0.2,0.8","0.2,0.2,0.8,0.8,0.2,0.2,0.2,0.8,0.2","2","",""
"","html-keyboard-response","238","98137","0.0-238.0","3X4JMASXCNVCYEKLWV1799LUUZ40BL","A3DKM1KM4C4G05","3UUIU9GZC5R93N292LT21FRJ9VS5TN","","null","<img src=""img/land1.png"" style=""width:200px;border:14px solid red;"">","null","","","","","","","","","",""
"","image-keyboard-response","239","98423","0.0-239.0","3X4JMASXCNVCYEKLWV1799LUUZ40BL","A3DKM1KM4C4G05","3UUIU9GZC5R93N292LT21FRJ9VS5TN","","282.99999999998545","img/land3.png","76","285","3","0","2","2","0.8,0.2,0.2,0.2,0.8,0.2,0.2,0.2,0.8","0.2,0.2,0.8,0.8,0.2,0.2,0.2,0.8,0.2","2","",""
"","html-keyboard-response","240","98726","0.0-240.0","3X4JMASXCNVCYEKLWV1799LUUZ40BL","A3DKM1KM4C4G05","3UUIU9GZC5R93N292LT21FRJ9VS5TN","","null","<img src=""img/land3.png"" style=""width:200px;border:14px solid red;"">","null","","","","","","","","","",""
"","image-keyboard-response","241","98795","0.0-241.0","3X4JMASXCNVCYEKLWV1799LUUZ40BL","A3DKM1KM4C4G05","3UUIU9GZC5R93N292LT21FRJ9VS5TN","","66","img/land3.png","76","69","3","0","2","2","0.8,0.2,0.2,0.2,0.8,0.2,0.2,0.2,0.8","0.2,0.2,0.8,0.8,0.2,0.2,0.2,0.8,0.2","2","",""
"","html-keyboard-response","242","99098","0.0-242.0","3X4JMASXCNVCYEKLWV1799LUUZ40BL","A3DKM1KM4C4G05","3UUIU9GZC5R93N292LT21FRJ9VS5TN","","null","<img src=""img/land3.png"" style=""width:200px;border:14px solid red;"">","null","","","","","","","","","",""
"","image-keyboard-response","243","99215","0.0-243.0","3X4JMASXCNVCYEKLWV1799LUUZ40BL","A3DKM1KM4C4G05","3UUIU9GZC5R93N292LT21FRJ9VS5TN","","115","img/land1.png","76","117","3","1","1","2","0.8,0.2,0.2,0.2,0.8,0.2,0.2,0.2,0.8","0.2,0.2,0.8,0.8,0.2,0.2,0.2,0.8,0.2","2","",""
"","html-keyboard-response","244","99518","0.0-244.0","3X4JMASXCNVCYEKLWV1799LUUZ40BL","A3DKM1KM4C4G05","3UUIU9GZC5R93N292LT21FRJ9VS5TN","","null","<img src=""img/land1.png"" style=""width:200px; border:14px solid green;"">","null","","","","","","","","","",""
"","image-keyboard-response","245","100100","0.0-245.0","3X4JMASXCNVCYEKLWV1799LUUZ40BL","A3DKM1KM4C4G05","3UUIU9GZC5R93N292LT21FRJ9VS5TN","","579.9999999999854","img/land1.png","75","581","2","0","1","2","0.8,0.2,0.2,0.2,0.8,0.2,0.2,0.2,0.8","0.2,0.2,0.8,0.8,0.2,0.2,0.2,0.8,0.2","2","",""
"","html-keyboard-response","246","100403","0.0-246.0","3X4JMASXCNVCYEKLWV1799LUUZ40BL","A3DKM1KM4C4G05","3UUIU9GZC5R93N292LT21FRJ9VS5TN","","null","<img src=""img/land1.png"" style=""width:200px;border:14px solid red;"">","null","","","","","","","","","",""
"","image-keyboard-response","247","100605","0.0-247.0","3X4JMASXCNVCYEKLWV1799LUUZ40BL","A3DKM1KM4C4G05","3UUIU9GZC5R93N292LT21FRJ9VS5TN","","200","img/land5.png","76","200.99999999998545","3","0","3","2","0.8,0.2,0.2,0.2,0.8,0.2,0.2,0.2,0.8","0.2,0.2,0.8,0.8,0.2,0.2,0.2,0.8,0.2","2","",""
"","html-keyboard-response","248","100908","0.0-248.0","3X4JMASXCNVCYEKLWV1799LUUZ40BL","A3DKM1KM4C4G05","3UUIU9GZC5R93N292LT21FRJ9VS5TN","","null","<img src=""img/land5.png"" style=""width:200px;border:14px solid red;"">","null","","","","","","","","","",""
"","image-keyboard-response","249","101091","0.0-249.0","3X4JMASXCNVCYEKLWV1799LUUZ40BL","A3DKM1KM4C4G05","3UUIU9GZC5R93N292LT21FRJ9VS5TN","","179.99999999998545","img/land1.png","76","182","3","0","1","2","0.8,0.2,0.2,0.2,0.8,0.2,0.2,0.2,0.8","0.2,0.2,0.8,0.8,0.2,0.2,0.2,0.8,0.2","2","",""
"","html-keyboard-response","250","101394","0.0-250.0","3X4JMASXCNVCYEKLWV1799LUUZ40BL","A3DKM1KM4C4G05","3UUIU9GZC5R93N292LT21FRJ9VS5TN","","null","<img src=""img/land1.png"" style=""width:200px;border:14px solid red;"">","null","","","","","","","","","",""
"","image-keyboard-response","251","101454","0.0-251.0","3X4JMASXCNVCYEKLWV1799LUUZ40BL","A3DKM1KM4C4G05","3UUIU9GZC5R93N292LT21FRJ9VS5TN","","58","img/land1.png","75","59.99999999998545","2","1","1","2","0.8,0.2,0.2,0.2,0.8,0.2,0.2,0.2,0.8","0.2,0.2,0.8,0.8,0.2,0.2,0.2,0.8,0.2","2","",""
"","html-keyboard-response","252","101758","0.0-252.0","3X4JMASXCNVCYEKLWV1799LUUZ40BL","A3DKM1KM4C4G05","3UUIU9GZC5R93N292LT21FRJ9VS5TN","","null","<img src=""img/land1.png"" style=""width:200px; border:14px solid green;"">","null","","","","","","","","","",""
"","image-keyboard-response","253","101790","0.0-253.0","3X4JMASXCNVCYEKLWV1799LUUZ40BL","A3DKM1KM4C4G05","3UUIU9GZC5R93N292LT21FRJ9VS5TN","","30","img/land5.png","74","32.00000000001455","1","0","3","2","0.8,0.2,0.2,0.2,0.8,0.2,0.2,0.2,0.8","0.2,0.2,0.8,0.8,0.2,0.2,0.2,0.8,0.2","2","",""
"","html-keyboard-response","254","102094","0.0-254.0","3X4JMASXCNVCYEKLWV1799LUUZ40BL","A3DKM1KM4C4G05","3UUIU9GZC5R93N292LT21FRJ9VS5TN","","null","<img src=""img/land5.png"" style=""width:200px;border:14px solid red;"">","null","","","","","","","","","",""
"","image-keyboard-response","255","102229","0.0-255.0","3X4JMASXCNVCYEKLWV1799LUUZ40BL","A3DKM1KM4C4G05","3UUIU9GZC5R93N292LT21FRJ9VS5TN","","134","img/land3.png","75","135","2","0","2","2","0.8,0.2,0.2,0.2,0.8,0.2,0.2,0.2,0.8","0.2,0.2,0.8,0.8,0.2,0.2,0.2,0.8,0.2","2","",""
"","html-keyboard-response","256","102533","0.0-256.0","3X4JMASXCNVCYEKLWV1799LUUZ40BL","A3DKM1KM4C4G05","3UUIU9GZC5R93N292LT21FRJ9VS5TN","","null","<img src=""img/land3.png"" style=""width:200px;border:14px solid red;"">","null","","","","","","","","","",""
"","image-keyboard-response","257","102873","0.0-257.0","3X4JMASXCNVCYEKLWV1799LUUZ40BL","A3DKM1KM4C4G05","3UUIU9GZC5R93N292LT21FRJ9VS5TN","","337.00000000001455","img/land5.png","76","339","3","1","3","2","0.8,0.2,0.2,0.2,0.8,0.2,0.2,0.2,0.8","0.2,0.2,0.8,0.8,0.2,0.2,0.2,0.8,0.2","2","",""
"","html-keyboard-response","258","103177","0.0-258.0","3X4JMASXCNVCYEKLWV1799LUUZ40BL","A3DKM1KM4C4G05","3UUIU9GZC5R93N292LT21FRJ9VS5TN","","null","<img src=""img/land5.png"" style=""width:200px; border:14px solid green;"">","null","","","","","","","","","",""
"","image-keyboard-response","259","103412","0.0-259.0","3X4JMASXCNVCYEKLWV1799LUUZ40BL","A3DKM1KM4C4G05","3UUIU9GZC5R93N292LT21FRJ9VS5TN","","233","img/land3.png","76","234","3","0","2","2","0.8,0.2,0.2,0.2,0.8,0.2,0.2,0.2,0.8","0.2,0.2,0.8,0.8,0.2,0.2,0.2,0.8,0.2","2","",""
"","html-keyboard-response","260","103715","0.0-260.0","3X4JMASXCNVCYEKLWV1799LUUZ40BL","A3DKM1KM4C4G05","3UUIU9GZC5R93N292LT21FRJ9VS5TN","","null","<img src=""img/land3.png"" style=""width:200px;border:14px solid red;"">","null","","","","","","","","","",""
"","image-keyboard-response","261","103892","0.0-261.0","3X4JMASXCNVCYEKLWV1799LUUZ40BL","A3DKM1KM4C4G05","3UUIU9GZC5R93N292LT21FRJ9VS5TN","","175.00000000001455","img/land1.png","75","177","2","0","1","2","0.8,0.2,0.2,0.2,0.8,0.2,0.2,0.2,0.8","0.2,0.2,0.8,0.8,0.2,0.2,0.2,0.8,0.2","2","",""
"","html-keyboard-response","262","104196","0.0-262.0","3X4JMASXCNVCYEKLWV1799LUUZ40BL","A3DKM1KM4C4G05","3UUIU9GZC5R93N292LT21FRJ9VS5TN","","null","<img src=""img/land1.png"" style=""width:200px;border:14px solid red;"">","null","","","","","","","","","",""
"","image-keyboard-response","263","104318","0.0-263.0","3X4JMASXCNVCYEKLWV1799LUUZ40BL","A3DKM1KM4C4G05","3UUIU9GZC5R93N292LT21FRJ9VS5TN","","121","img/land1.png","74","122","1","0","1","2","0.8,0.2,0.2,0.2,0.8,0.2,0.2,0.2,0.8","0.2,0.2,0.8,0.8,0.2,0.2,0.2,0.8,0.2","2","",""
"","html-keyboard-response","264","104621","0.0-264.0","3X4JMASXCNVCYEKLWV1799LUUZ40BL","A3DKM1KM4C4G05","3UUIU9GZC5R93N292LT21FRJ9VS5TN","","null","<img src=""img/land1.png"" style=""width:200px;border:14px solid red;"">","null","","","","","","","","","",""
"","image-keyboard-response","265","104699","0.0-265.0","3X4JMASXCNVCYEKLWV1799LUUZ40BL","A3DKM1KM4C4G05","3UUIU9GZC5R93N292LT21FRJ9VS5TN","","76","img/land1.png","74","77","1","1","1","2","0.8,0.2,0.2,0.2,0.8,0.2,0.2,0.2,0.8","0.2,0.2,0.8,0.8,0.2,0.2,0.2,0.8,0.2","2","",""
"","html-keyboard-response","266","105002","0.0-266.0","3X4JMASXCNVCYEKLWV1799LUUZ40BL","A3DKM1KM4C4G05","3UUIU9GZC5R93N292LT21FRJ9VS5TN","","null","<img src=""img/land1.png"" style=""width:200px; border:14px solid green;"">","null","","","","","","","","","",""
"","image-keyboard-response","267","105484","0.0-267.0","3X4JMASXCNVCYEKLWV1799LUUZ40BL","A3DKM1KM4C4G05","3UUIU9GZC5R93N292LT21FRJ9VS5TN","","480","img/land1.png","74","481","1","1","1","2","0.8,0.2,0.2,0.2,0.8,0.2,0.2,0.2,0.8","0.2,0.2,0.8,0.8,0.2,0.2,0.2,0.8,0.2","2","",""
"","html-keyboard-response","268","105787","0.0-268.0","3X4JMASXCNVCYEKLWV1799LUUZ40BL","A3DKM1KM4C4G05","3UUIU9GZC5R93N292LT21FRJ9VS5TN","","null","<img src=""img/land1.png"" style=""width:200px; border:14px solid green;"">","null","","","","","","","","","",""
"","image-keyboard-response","269","105912","0.0-269.0","3X4JMASXCNVCYEKLWV1799LUUZ40BL","A3DKM1KM4C4G05","3UUIU9GZC5R93N292LT21FRJ9VS5TN","","123","img/land1.png","74","123.99999999998545","1","0","1","2","0.8,0.2,0.2,0.2,0.8,0.2,0.2,0.2,0.8","0.2,0.2,0.8,0.8,0.2,0.2,0.2,0.8,0.2","2","",""
"","html-keyboard-response","270","106214","0.0-270.0","3X4JMASXCNVCYEKLWV1799LUUZ40BL","A3DKM1KM4C4G05","3UUIU9GZC5R93N292LT21FRJ9VS5TN","","null","<img src=""img/land1.png"" style=""width:200px;border:14px solid red;"">","null","","","","","","","","","",""
"","image-keyboard-response","271","106519","0.0-271.0","3X4JMASXCNVCYEKLWV1799LUUZ40BL","A3DKM1KM4C4G05","3UUIU9GZC5R93N292LT21FRJ9VS5TN","","303","img/land1.png","75","305.00000000001455","2","0","1","2","0.8,0.2,0.2,0.2,0.8,0.2,0.2,0.2,0.8","0.2,0.2,0.8,0.8,0.2,0.2,0.2,0.8,0.2","2","",""
"","html-keyboard-response","272","106823","0.0-272.0","3X4JMASXCNVCYEKLWV1799LUUZ40BL","A3DKM1KM4C4G05","3UUIU9GZC5R93N292LT21FRJ9VS5TN","","null","<img src=""img/land1.png"" style=""width:200px;border:14px solid red;"">","null","","","","","","","","","",""
"","image-keyboard-response","273","107277","0.0-273.0","3X4JMASXCNVCYEKLWV1799LUUZ40BL","A3DKM1KM4C4G05","3UUIU9GZC5R93N292LT21FRJ9VS5TN","","453","img/land3.png","76","454","3","0","2","2","0.8,0.2,0.2,0.2,0.8,0.2,0.2,0.2,0.8","0.2,0.2,0.8,0.8,0.2,0.2,0.2,0.8,0.2","2","",""
"","html-keyboard-response","274","107580","0.0-274.0","3X4JMASXCNVCYEKLWV1799LUUZ40BL","A3DKM1KM4C4G05","3UUIU9GZC5R93N292LT21FRJ9VS5TN","","null","<img src=""img/land3.png"" style=""width:200px;border:14px solid red;"">","null","","","","","","","","","",""
"","image-keyboard-response","275","107835","0.0-275.0","3X4JMASXCNVCYEKLWV1799LUUZ40BL","A3DKM1KM4C4G05","3UUIU9GZC5R93N292LT21FRJ9VS5TN","","253","img/land3.png","76","255","3","0","2","2","0.8,0.2,0.2,0.2,0.8,0.2,0.2,0.2,0.8","0.2,0.2,0.8,0.8,0.2,0.2,0.2,0.8,0.2","2","",""
"","html-keyboard-response","276","108138","0.0-276.0","3X4JMASXCNVCYEKLWV1799LUUZ40BL","A3DKM1KM4C4G05","3UUIU9GZC5R93N292LT21FRJ9VS5TN","","null","<img src=""img/land3.png"" style=""width:200px;border:14px solid red;"">","null","","","","","","","","","",""
"","image-keyboard-response","277","108659","0.0-277.0","3X4JMASXCNVCYEKLWV1799LUUZ40BL","A3DKM1KM4C4G05","3UUIU9GZC5R93N292LT21FRJ9VS5TN","","518","img/land1.png","74","519.0000000000146","1","0","1","2","0.8,0.2,0.2,0.2,0.8,0.2,0.2,0.2,0.8","0.2,0.2,0.8,0.8,0.2,0.2,0.2,0.8,0.2","2","",""
"","html-keyboard-response","278","108962","0.0-278.0","3X4JMASXCNVCYEKLWV1799LUUZ40BL","A3DKM1KM4C4G05","3UUIU9GZC5R93N292LT21FRJ9VS5TN","","null","<img src=""img/land1.png"" style=""width:200px;border:14px solid red;"">","null","","","","","","","","","",""
"","image-keyboard-response","279","109172","0.0-279.0","3X4JMASXCNVCYEKLWV1799LUUZ40BL","A3DKM1KM4C4G05","3UUIU9GZC5R93N292LT21FRJ9VS5TN","","208.00000000001455","img/land1.png","75","210","2","0","1","2","0.8,0.2,0.2,0.2,0.8,0.2,0.2,0.2,0.8","0.2,0.2,0.8,0.8,0.2,0.2,0.2,0.8,0.2","2","",""
"","html-keyboard-response","280","109475","0.0-280.0","3X4JMASXCNVCYEKLWV1799LUUZ40BL","A3DKM1KM4C4G05","3UUIU9GZC5R93N292LT21FRJ9VS5TN","","null","<img src=""img/land1.png"" style=""width:200px;border:14px solid red;"">","null","","","","","","","","","",""
"","image-keyboard-response","281","109537","0.0-281.0","3X4JMASXCNVCYEKLWV1799LUUZ40BL","A3DKM1KM4C4G05","3UUIU9GZC5R93N292LT21FRJ9VS5TN","","60","img/land3.png","76","61","3","0","2","2","0.8,0.2,0.2,0.2,0.8,0.2,0.2,0.2,0.8","0.2,0.2,0.8,0.8,0.2,0.2,0.2,0.8,0.2","2","",""
"","html-keyboard-response","282","109839","0.0-282.0","3X4JMASXCNVCYEKLWV1799LUUZ40BL","A3DKM1KM4C4G05","3UUIU9GZC5R93N292LT21FRJ9VS5TN","","null","<img src=""img/land3.png"" style=""width:200px;border:14px solid red;"">","null","","","","","","","","","",""
"","image-keyboard-response","283","110371","0.0-283.0","3X4JMASXCNVCYEKLWV1799LUUZ40BL","A3DKM1KM4C4G05","3UUIU9GZC5R93N292LT21FRJ9VS5TN","","531.0000000000146","img/land1.png","76","531.0000000000146","3","1","1","2","0.8,0.2,0.2,0.2,0.8,0.2,0.2,0.2,0.8","0.2,0.2,0.8,0.8,0.2,0.2,0.2,0.8,0.2","2","",""
"","html-keyboard-response","284","110675","0.0-284.0","3X4JMASXCNVCYEKLWV1799LUUZ40BL","A3DKM1KM4C4G05","3UUIU9GZC5R93N292LT21FRJ9VS5TN","","null","<img src=""img/land1.png"" style=""width:200px; border:14px solid green;"">","null","","","","","","","","","",""
"","image-keyboard-response","285","110941","0.0-285.0","3X4JMASXCNVCYEKLWV1799LUUZ40BL","A3DKM1KM4C4G05","3UUIU9GZC5R93N292LT21FRJ9VS5TN","","264","img/land5.png","76","269","3","0","3","2","0.8,0.2,0.2,0.2,0.8,0.2,0.2,0.2,0.8","0.2,0.2,0.8,0.8,0.2,0.2,0.2,0.8,0.2","2","",""
"","html-keyboard-response","286","111248","0.0-286.0","3X4JMASXCNVCYEKLWV1799LUUZ40BL","A3DKM1KM4C4G05","3UUIU9GZC5R93N292LT21FRJ9VS5TN","","null","<img src=""img/land5.png"" style=""width:200px;border:14px solid red;"">","null","","","","","","","","","",""
"","image-keyboard-response","287","111422","0.0-287.0","3X4JMASXCNVCYEKLWV1799LUUZ40BL","A3DKM1KM4C4G05","3UUIU9GZC5R93N292LT21FRJ9VS5TN","","170","img/land1.png","75","172.00000000001455","2","1","1","2","0.8,0.2,0.2,0.2,0.8,0.2,0.2,0.2,0.8","0.2,0.2,0.8,0.8,0.2,0.2,0.2,0.8,0.2","2","",""
"","html-keyboard-response","288","111726","0.0-288.0","3X4JMASXCNVCYEKLWV1799LUUZ40BL","A3DKM1KM4C4G05","3UUIU9GZC5R93N292LT21FRJ9VS5TN","","null","<img src=""img/land1.png"" style=""width:200px; border:14px solid green;"">","null","","","","","","","","","",""
"","image-keyboard-response","289","112053","0.0-289.0","3X4JMASXCNVCYEKLWV1799LUUZ40BL","A3DKM1KM4C4G05","3UUIU9GZC5R93N292LT21FRJ9VS5TN","","325.00000000001455","img/land1.png","75","327","2","1","1","2","0.8,0.2,0.2,0.2,0.8,0.2,0.2,0.2,0.8","0.2,0.2,0.8,0.8,0.2,0.2,0.2,0.8,0.2","2","",""
"","html-keyboard-response","290","112356","0.0-290.0","3X4JMASXCNVCYEKLWV1799LUUZ40BL","A3DKM1KM4C4G05","3UUIU9GZC5R93N292LT21FRJ9VS5TN","","null","<img src=""img/land1.png"" style=""width:200px; border:14px solid green;"">","null","","","","","","","","","",""
"","image-keyboard-response","291","112498","0.0-291.0","3X4JMASXCNVCYEKLWV1799LUUZ40BL","A3DKM1KM4C4G05","3UUIU9GZC5R93N292LT21FRJ9VS5TN","","139","img/land5.png","75","142.00000000001455","2","1","3","2","0.8,0.2,0.2,0.2,0.8,0.2,0.2,0.2,0.8","0.2,0.2,0.8,0.8,0.2,0.2,0.2,0.8,0.2","2","",""
"","html-keyboard-response","292","112802","0.0-292.0","3X4JMASXCNVCYEKLWV1799LUUZ40BL","A3DKM1KM4C4G05","3UUIU9GZC5R93N292LT21FRJ9VS5TN","","null","<img src=""img/land5.png"" style=""width:200px; border:14px solid green;"">","null","","","","","","","","","",""
"","image-keyboard-response","293","113348","0.0-293.0","3X4JMASXCNVCYEKLWV1799LUUZ40BL","A3DKM1KM4C4G05","3UUIU9GZC5R93N292LT21FRJ9VS5TN","","544","img/land1.png","75","545.9999999999854","2","1","1","2","0.8,0.2,0.2,0.2,0.8,0.2,0.2,0.2,0.8","0.2,0.2,0.8,0.8,0.2,0.2,0.2,0.8,0.2","2","",""
"","html-keyboard-response","294","113652","0.0-294.0","3X4JMASXCNVCYEKLWV1799LUUZ40BL","A3DKM1KM4C4G05","3UUIU9GZC5R93N292LT21FRJ9VS5TN","","null","<img src=""img/land1.png"" style=""width:200px; border:14px solid green;"">","null","","","","","","","","","",""
"","image-keyboard-response","295","113804","0.0-295.0","3X4JMASXCNVCYEKLWV1799LUUZ40BL","A3DKM1KM4C4G05","3UUIU9GZC5R93N292LT21FRJ9VS5TN","","149.99999999998545","img/land5.png","75","151","2","0","3","2","0.8,0.2,0.2,0.2,0.8,0.2,0.2,0.2,0.8","0.2,0.2,0.8,0.8,0.2,0.2,0.2,0.8,0.2","2","",""
"","html-keyboard-response","296","114106","0.0-296.0","3X4JMASXCNVCYEKLWV1799LUUZ40BL","A3DKM1KM4C4G05","3UUIU9GZC5R93N292LT21FRJ9VS5TN","","null","<img src=""img/land5.png"" style=""width:200px;border:14px solid red;"">","null","","","","","","","","","",""
"","image-keyboard-response","297","114528","0.0-297.0","3X4JMASXCNVCYEKLWV1799LUUZ40BL","A3DKM1KM4C4G05","3UUIU9GZC5R93N292LT21FRJ9VS5TN","","420","img/land1.png","74","421","1","1","1","2","0.8,0.2,0.2,0.2,0.8,0.2,0.2,0.2,0.8","0.2,0.2,0.8,0.8,0.2,0.2,0.2,0.8,0.2","2","",""
"","html-keyboard-response","298","114831","0.0-298.0","3X4JMASXCNVCYEKLWV1799LUUZ40BL","A3DKM1KM4C4G05","3UUIU9GZC5R93N292LT21FRJ9VS5TN","","null","<img src=""img/land1.png"" style=""width:200px; border:14px solid green;"">","null","","","","","","","","","",""
"","image-keyboard-response","299","115091","0.0-299.0","3X4JMASXCNVCYEKLWV1799LUUZ40BL","A3DKM1KM4C4G05","3UUIU9GZC5R93N292LT21FRJ9VS5TN","","259","img/land5.png","74","260","1","0","3","2","0.8,0.2,0.2,0.2,0.8,0.2,0.2,0.2,0.8","0.2,0.2,0.8,0.8,0.2,0.2,0.2,0.8,0.2","2","",""
"","html-keyboard-response","300","115393","0.0-300.0","3X4JMASXCNVCYEKLWV1799LUUZ40BL","A3DKM1KM4C4G05","3UUIU9GZC5R93N292LT21FRJ9VS5TN","","null","<img src=""img/land5.png"" style=""width:200px;border:14px solid red;"">","null","","","","","","","","","",""
"","image-keyboard-response","301","115545","0.0-301.0","3X4JMASXCNVCYEKLWV1799LUUZ40BL","A3DKM1KM4C4G05","3UUIU9GZC5R93N292LT21FRJ9VS5TN","","149.99999999998545","img/land1.png","75","151","2","0","1","2","0.8,0.2,0.2,0.2,0.8,0.2,0.2,0.2,0.8","0.2,0.2,0.8,0.8,0.2,0.2,0.2,0.8,0.2","2","",""
"","html-keyboard-response","302","115849","0.0-302.0","3X4JMASXCNVCYEKLWV1799LUUZ40BL","A3DKM1KM4C4G05","3UUIU9GZC5R93N292LT21FRJ9VS5TN","","null","<img src=""img/land1.png"" style=""width:200px;border:14px solid red;"">","null","","","","","","","","","",""
"","image-keyboard-response","303","116105","0.0-303.0","3X4JMASXCNVCYEKLWV1799LUUZ40BL","A3DKM1KM4C4G05","3UUIU9GZC5R93N292LT21FRJ9VS5TN","","254","img/land1.png","75","256","2","0","1","2","0.8,0.2,0.2,0.2,0.8,0.2,0.2,0.2,0.8","0.2,0.2,0.8,0.8,0.2,0.2,0.2,0.8,0.2","2","",""
"","html-keyboard-response","304","116408","0.0-304.0","3X4JMASXCNVCYEKLWV1799LUUZ40BL","A3DKM1KM4C4G05","3UUIU9GZC5R93N292LT21FRJ9VS5TN","","null","<img src=""img/land1.png"" style=""width:200px;border:14px solid red;"">","null","","","","","","","","","",""
"","image-keyboard-response","305","116519","0.0-305.0","3X4JMASXCNVCYEKLWV1799LUUZ40BL","A3DKM1KM4C4G05","3UUIU9GZC5R93N292LT21FRJ9VS5TN","","108.99999999998545","img/land5.png","76","111.00000000001455","3","0","3","2","0.8,0.2,0.2,0.2,0.8,0.2,0.2,0.2,0.8","0.2,0.2,0.8,0.8,0.2,0.2,0.2,0.8,0.2","2","",""
"","html-keyboard-response","306","116822","0.0-306.0","3X4JMASXCNVCYEKLWV1799LUUZ40BL","A3DKM1KM4C4G05","3UUIU9GZC5R93N292LT21FRJ9VS5TN","","null","<img src=""img/land5.png"" style=""width:200px;border:14px solid red;"">","null","","","","","","","","","",""
"","image-keyboard-response","307","117132","0.0-307.0","3X4JMASXCNVCYEKLWV1799LUUZ40BL","A3DKM1KM4C4G05","3UUIU9GZC5R93N292LT21FRJ9VS5TN","","307","img/land3.png","76","309.00000000001455","3","1","2","2","0.8,0.2,0.2,0.2,0.8,0.2,0.2,0.2,0.8","0.2,0.2,0.8,0.8,0.2,0.2,0.2,0.8,0.2","2","",""
"","html-keyboard-response","308","117435","0.0-308.0","3X4JMASXCNVCYEKLWV1799LUUZ40BL","A3DKM1KM4C4G05","3UUIU9GZC5R93N292LT21FRJ9VS5TN","","null","<img src=""img/land3.png"" style=""width:200px; border:14px solid green;"">","null","","","","","","","","","",""
"","image-keyboard-response","309","117744","0.0-309.0","3X4JMASXCNVCYEKLWV1799LUUZ40BL","A3DKM1KM4C4G05","3UUIU9GZC5R93N292LT21FRJ9VS5TN","","308","img/land3.png","76","309","3","0","2","2","0.8,0.2,0.2,0.2,0.8,0.2,0.2,0.2,0.8","0.2,0.2,0.8,0.8,0.2,0.2,0.2,0.8,0.2","2","",""
"","html-keyboard-response","310","118048","0.0-310.0","3X4JMASXCNVCYEKLWV1799LUUZ40BL","A3DKM1KM4C4G05","3UUIU9GZC5R93N292LT21FRJ9VS5TN","","null","<img src=""img/land3.png"" style=""width:200px;border:14px solid red;"">","null","","","","","","","","","",""
"","image-keyboard-response","311","118152","0.0-311.0","3X4JMASXCNVCYEKLWV1799LUUZ40BL","A3DKM1KM4C4G05","3UUIU9GZC5R93N292LT21FRJ9VS5TN","","103","img/land1.png","76","104","3","1","1","2","0.8,0.2,0.2,0.2,0.8,0.2,0.2,0.2,0.8","0.2,0.2,0.8,0.8,0.2,0.2,0.2,0.8,0.2","2","",""
"","html-keyboard-response","312","118455","0.0-312.0","3X4JMASXCNVCYEKLWV1799LUUZ40BL","A3DKM1KM4C4G05","3UUIU9GZC5R93N292LT21FRJ9VS5TN","","null","<img src=""img/land1.png"" style=""width:200px; border:14px solid green;"">","null","","","","","","","","","",""
"","image-keyboard-response","313","118834","0.0-313.0","3X4JMASXCNVCYEKLWV1799LUUZ40BL","A3DKM1KM4C4G05","3UUIU9GZC5R93N292LT21FRJ9VS5TN","","378","img/land5.png","75","379","2","1","3","2","0.8,0.2,0.2,0.2,0.8,0.2,0.2,0.2,0.8","0.2,0.2,0.8,0.8,0.2,0.2,0.2,0.8,0.2","2","",""
"","html-keyboard-response","314","119137","0.0-314.0","3X4JMASXCNVCYEKLWV1799LUUZ40BL","A3DKM1KM4C4G05","3UUIU9GZC5R93N292LT21FRJ9VS5TN","","null","<img src=""img/land5.png"" style=""width:200px; border:14px solid green;"">","null","","","","","","","","","",""
"","image-keyboard-response","315","119513","0.0-315.0","3X4JMASXCNVCYEKLWV1799LUUZ40BL","A3DKM1KM4C4G05","3UUIU9GZC5R93N292LT21FRJ9VS5TN","","373.99999999998545","img/land3.png","75","375","2","0","2","2","0.8,0.2,0.2,0.2,0.8,0.2,0.2,0.2,0.8","0.2,0.2,0.8,0.8,0.2,0.2,0.2,0.8,0.2","2","",""
"","html-keyboard-response","316","119815","0.0-316.0","3X4JMASXCNVCYEKLWV1799LUUZ40BL","A3DKM1KM4C4G05","3UUIU9GZC5R93N292LT21FRJ9VS5TN","","null","<img src=""img/land3.png"" style=""width:200px;border:14px solid red;"">","null","","","","","","","","","",""
"","image-keyboard-response","317","120053","0.0-317.0","3X4JMASXCNVCYEKLWV1799LUUZ40BL","A3DKM1KM4C4G05","3UUIU9GZC5R93N292LT21FRJ9VS5TN","","236.00000000001455","img/land5.png","76","238","3","0","3","2","0.8,0.2,0.2,0.2,0.8,0.2,0.2,0.2,0.8","0.2,0.2,0.8,0.8,0.2,0.2,0.2,0.8,0.2","2","",""
"","html-keyboard-response","318","120357","0.0-318.0","3X4JMASXCNVCYEKLWV1799LUUZ40BL","A3DKM1KM4C4G05","3UUIU9GZC5R93N292LT21FRJ9VS5TN","","null","<img src=""img/land5.png"" style=""width:200px;border:14px solid red;"">","null","","","","","","","","","",""
"","image-keyboard-response","319","120599","0.0-319.0","3X4JMASXCNVCYEKLWV1799LUUZ40BL","A3DKM1KM4C4G05","3UUIU9GZC5R93N292LT21FRJ9VS5TN","","240","img/land3.png","75","241","2","0","2","2","0.8,0.2,0.2,0.2,0.8,0.2,0.2,0.2,0.8","0.2,0.2,0.8,0.8,0.2,0.2,0.2,0.8,0.2","2","",""
"","html-keyboard-response","320","120902","0.0-320.0","3X4JMASXCNVCYEKLWV1799LUUZ40BL","A3DKM1KM4C4G05","3UUIU9GZC5R93N292LT21FRJ9VS5TN","","null","<img src=""img/land3.png"" style=""width:200px;border:14px solid red;"">","null","","","","","","","","","",""
"","image-keyboard-response","321","121080","0.0-321.0","3X4JMASXCNVCYEKLWV1799LUUZ40BL","A3DKM1KM4C4G05","3UUIU9GZC5R93N292LT21FRJ9VS5TN","","175.99999999998545","img/land1.png","74","178","1","0","1","2","0.8,0.2,0.2,0.2,0.8,0.2,0.2,0.2,0.8","0.2,0.2,0.8,0.8,0.2,0.2,0.2,0.8,0.2","2","",""
"","html-keyboard-response","322","121383","0.0-322.0","3X4JMASXCNVCYEKLWV1799LUUZ40BL","A3DKM1KM4C4G05","3UUIU9GZC5R93N292LT21FRJ9VS5TN","","null","<img src=""img/land1.png"" style=""width:200px;border:14px solid red;"">","null","","","","","","","","","",""
"","image-keyboard-response","323","121519","0.0-323.0","3X4JMASXCNVCYEKLWV1799LUUZ40BL","A3DKM1KM4C4G05","3UUIU9GZC5R93N292LT21FRJ9VS5TN","","134","img/land1.png","74","136.00000000001455","1","0","1","2","0.8,0.2,0.2,0.2,0.8,0.2,0.2,0.2,0.8","0.2,0.2,0.8,0.8,0.2,0.2,0.2,0.8,0.2","2","",""
"","html-keyboard-response","324","121822","0.0-324.0","3X4JMASXCNVCYEKLWV1799LUUZ40BL","A3DKM1KM4C4G05","3UUIU9GZC5R93N292LT21FRJ9VS5TN","","null","<img src=""img/land1.png"" style=""width:200px;border:14px solid red;"">","null","","","","","","","","","",""
"","image-keyboard-response","325","121834","0.0-325.0","3X4JMASXCNVCYEKLWV1799LUUZ40BL","A3DKM1KM4C4G05","3UUIU9GZC5R93N292LT21FRJ9VS5TN","","9.999999999985448","img/land1.png","75","12","2","1","1","2","0.8,0.2,0.2,0.2,0.8,0.2,0.2,0.2,0.8","0.2,0.2,0.8,0.8,0.2,0.2,0.2,0.8,0.2","2","",""
"","html-keyboard-response","326","122137","0.0-326.0","3X4JMASXCNVCYEKLWV1799LUUZ40BL","A3DKM1KM4C4G05","3UUIU9GZC5R93N292LT21FRJ9VS5TN","","null","<img src=""img/land1.png"" style=""width:200px; border:14px solid green;"">","null","","","","","","","","","",""
"","image-keyboard-response","327","122241","0.0-327.0","3X4JMASXCNVCYEKLWV1799LUUZ40BL","A3DKM1KM4C4G05","3UUIU9GZC5R93N292LT21FRJ9VS5TN","","102","img/land1.png","76","104.00000000001455","3","1","1","2","0.8,0.2,0.2,0.2,0.8,0.2,0.2,0.2,0.8","0.2,0.2,0.8,0.8,0.2,0.2,0.2,0.8,0.2","2","",""
"","html-keyboard-response","328","122545","0.0-328.0","3X4JMASXCNVCYEKLWV1799LUUZ40BL","A3DKM1KM4C4G05","3UUIU9GZC5R93N292LT21FRJ9VS5TN","","null","<img src=""img/land1.png"" style=""width:200px; border:14px solid green;"">","null","","","","","","","","","",""
"","image-keyboard-response","329","122672","0.0-329.0","3X4JMASXCNVCYEKLWV1799LUUZ40BL","A3DKM1KM4C4G05","3UUIU9GZC5R93N292LT21FRJ9VS5TN","","125","img/land5.png","76","126.00000000001455","3","0","3","2","0.8,0.2,0.2,0.2,0.8,0.2,0.2,0.2,0.8","0.2,0.2,0.8,0.8,0.2,0.2,0.2,0.8,0.2","2","",""
"","html-keyboard-response","330","122975","0.0-330.0","3X4JMASXCNVCYEKLWV1799LUUZ40BL","A3DKM1KM4C4G05","3UUIU9GZC5R93N292LT21FRJ9VS5TN","","null","<img src=""img/land5.png"" style=""width:200px;border:14px solid red;"">","null","","","","","","","","","",""
"","image-keyboard-response","331","123145","0.0-331.0","3X4JMASXCNVCYEKLWV1799LUUZ40BL","A3DKM1KM4C4G05","3UUIU9GZC5R93N292LT21FRJ9VS5TN","","167.99999999998545","img/land5.png","75","168.99999999998545","2","1","3","2","0.8,0.2,0.2,0.2,0.8,0.2,0.2,0.2,0.8","0.2,0.2,0.8,0.8,0.2,0.2,0.2,0.8,0.2","2","",""
"","html-keyboard-response","332","123449","0.0-332.0","3X4JMASXCNVCYEKLWV1799LUUZ40BL","A3DKM1KM4C4G05","3UUIU9GZC5R93N292LT21FRJ9VS5TN","","null","<img src=""img/land5.png"" style=""width:200px; border:14px solid green;"">","null","","","","","","","","","",""
"","image-keyboard-response","333","123585","0.0-333.0","3X4JMASXCNVCYEKLWV1799LUUZ40BL","A3DKM1KM4C4G05","3UUIU9GZC5R93N292LT21FRJ9VS5TN","","133.99999999998545","img/land3.png","75","135","2","0","2","2","0.8,0.2,0.2,0.2,0.8,0.2,0.2,0.2,0.8","0.2,0.2,0.8,0.8,0.2,0.2,0.2,0.8,0.2","2","",""
"","html-keyboard-response","334","123889","0.0-334.0","3X4JMASXCNVCYEKLWV1799LUUZ40BL","A3DKM1KM4C4G05","3UUIU9GZC5R93N292LT21FRJ9VS5TN","","null","<img src=""img/land3.png"" style=""width:200px;border:14px solid red;"">","null","","","","","","","","","",""
"","image-keyboard-response","335","124026","0.0-335.0","3X4JMASXCNVCYEKLWV1799LUUZ40BL","A3DKM1KM4C4G05","3UUIU9GZC5R93N292LT21FRJ9VS5TN","","135","img/land1.png","75","137","2","0","1","2","0.8,0.2,0.2,0.2,0.8,0.2,0.2,0.2,0.8","0.2,0.2,0.8,0.8,0.2,0.2,0.2,0.8,0.2","2","",""
"","html-keyboard-response","336","124330","0.0-336.0","3X4JMASXCNVCYEKLWV1799LUUZ40BL","A3DKM1KM4C4G05","3UUIU9GZC5R93N292LT21FRJ9VS5TN","","null","<img src=""img/land1.png"" style=""width:200px;border:14px solid red;"">","null","","","","","","","","","",""
"","image-keyboard-response","337","124352","0.0-337.0","3X4JMASXCNVCYEKLWV1799LUUZ40BL","A3DKM1KM4C4G05","3UUIU9GZC5R93N292LT21FRJ9VS5TN","","20.000000000014552","img/land1.png","74","21.999999999985448","1","1","1","2","0.8,0.2,0.2,0.2,0.8,0.2,0.2,0.2,0.8","0.2,0.2,0.8,0.8,0.2,0.2,0.2,0.8,0.2","2","",""
"","html-keyboard-response","338","124655","0.0-338.0","3X4JMASXCNVCYEKLWV1799LUUZ40BL","A3DKM1KM4C4G05","3UUIU9GZC5R93N292LT21FRJ9VS5TN","","null","<img src=""img/land1.png"" style=""width:200px; border:14px solid green;"">","null","","","","","","","","","",""
"","image-keyboard-response","339","124734","0.0-339.0","3X4JMASXCNVCYEKLWV1799LUUZ40BL","A3DKM1KM4C4G05","3UUIU9GZC5R93N292LT21FRJ9VS5TN","","77","img/land5.png","74","80","1","1","3","2","0.8,0.2,0.2,0.2,0.8,0.2,0.2,0.2,0.8","0.2,0.2,0.8,0.8,0.2,0.2,0.2,0.8,0.2","2","",""
"","html-keyboard-response","340","125040","0.0-340.0","3X4JMASXCNVCYEKLWV1799LUUZ40BL","A3DKM1KM4C4G05","3UUIU9GZC5R93N292LT21FRJ9VS5TN","","null","<img src=""img/land5.png"" style=""width:200px; border:14px solid green;"">","null","","","","","","","","","",""
"","image-keyboard-response","341","125362","0.0-341.0","3X4JMASXCNVCYEKLWV1799LUUZ40BL","A3DKM1KM4C4G05","3UUIU9GZC5R93N292LT21FRJ9VS5TN","","320","img/land1.png","75","322","2","0","1","2","0.8,0.2,0.2,0.2,0.8,0.2,0.2,0.2,0.8","0.2,0.2,0.8,0.8,0.2,0.2,0.2,0.8,0.2","2","",""
"","html-keyboard-response","342","125665","0.0-342.0","3X4JMASXCNVCYEKLWV1799LUUZ40BL","A3DKM1KM4C4G05","3UUIU9GZC5R93N292LT21FRJ9VS5TN","","null","<img src=""img/land1.png"" style=""width:200px;border:14px solid red;"">","null","","","","","","","","","",""
"","image-keyboard-response","343","125804","0.0-343.0","3X4JMASXCNVCYEKLWV1799LUUZ40BL","A3DKM1KM4C4G05","3UUIU9GZC5R93N292LT21FRJ9VS5TN","","136","img/land1.png","75","138","2","0","1","2","0.8,0.2,0.2,0.2,0.8,0.2,0.2,0.2,0.8","0.2,0.2,0.8,0.8,0.2,0.2,0.2,0.8,0.2","2","",""
"","html-keyboard-response","344","126107","0.0-344.0","3X4JMASXCNVCYEKLWV1799LUUZ40BL","A3DKM1KM4C4G05","3UUIU9GZC5R93N292LT21FRJ9VS5TN","","null","<img src=""img/land1.png"" style=""width:200px;border:14px solid red;"">","null","","","","","","","","","",""
"","image-keyboard-response","345","126109","0.0-345.0","3X4JMASXCNVCYEKLWV1799LUUZ40BL","A3DKM1KM4C4G05","3UUIU9GZC5R93N292LT21FRJ9VS5TN","","0","img/land1.png","76","1","3","1","1","2","0.8,0.2,0.2,0.2,0.8,0.2,0.2,0.2,0.8","0.2,0.2,0.8,0.8,0.2,0.2,0.2,0.8,0.2","2","",""
"","html-keyboard-response","346","126412","0.0-346.0","3X4JMASXCNVCYEKLWV1799LUUZ40BL","A3DKM1KM4C4G05","3UUIU9GZC5R93N292LT21FRJ9VS5TN","","null","<img src=""img/land1.png"" style=""width:200px; border:14px solid green;"">","null","","","","","","","","","",""
"","image-keyboard-response","347","126526","0.0-347.0","3X4JMASXCNVCYEKLWV1799LUUZ40BL","A3DKM1KM4C4G05","3UUIU9GZC5R93N292LT21FRJ9VS5TN","","112","img/land1.png","76","114","3","1","1","2","0.8,0.2,0.2,0.2,0.8,0.2,0.2,0.2,0.8","0.2,0.2,0.8,0.8,0.2,0.2,0.2,0.8,0.2","2","",""
"","html-keyboard-response","348","126829","0.0-348.0","3X4JMASXCNVCYEKLWV1799LUUZ40BL","A3DKM1KM4C4G05","3UUIU9GZC5R93N292LT21FRJ9VS5TN","","null","<img src=""img/land1.png"" style=""width:200px; border:14px solid green;"">","null","","","","","","","","","",""
"","image-keyboard-response","349","126896","0.0-349.0","3X4JMASXCNVCYEKLWV1799LUUZ40BL","A3DKM1KM4C4G05","3UUIU9GZC5R93N292LT21FRJ9VS5TN","","64","img/land3.png","76","66","3","0","2","2","0.8,0.2,0.2,0.2,0.8,0.2,0.2,0.2,0.8","0.2,0.2,0.8,0.8,0.2,0.2,0.2,0.8,0.2","2","",""
"","html-keyboard-response","350","127200","0.0-350.0","3X4JMASXCNVCYEKLWV1799LUUZ40BL","A3DKM1KM4C4G05","3UUIU9GZC5R93N292LT21FRJ9VS5TN","","null","<img src=""img/land3.png"" style=""width:200px;border:14px solid red;"">","null","","","","","","","","","",""
"","image-keyboard-response","351","127426","0.0-351.0","3X4JMASXCNVCYEKLWV1799LUUZ40BL","A3DKM1KM4C4G05","3UUIU9GZC5R93N292LT21FRJ9VS5TN","","225","img/land1.png","75","226","2","1","1","2","0.8,0.2,0.2,0.2,0.8,0.2,0.2,0.2,0.8","0.2,0.2,0.8,0.8,0.2,0.2,0.2,0.8,0.2","2","",""
"","html-keyboard-response","352","127730","0.0-352.0","3X4JMASXCNVCYEKLWV1799LUUZ40BL","A3DKM1KM4C4G05","3UUIU9GZC5R93N292LT21FRJ9VS5TN","","null","<img src=""img/land1.png"" style=""width:200px; border:14px solid green;"">","null","","","","","","","","","",""
"","image-keyboard-response","353","127864","0.0-353.0","3X4JMASXCNVCYEKLWV1799LUUZ40BL","A3DKM1KM4C4G05","3UUIU9GZC5R93N292LT21FRJ9VS5TN","","132.0000000000291","img/land3.png","75","134","2","0","2","2","0.8,0.2,0.2,0.2,0.8,0.2,0.2,0.2,0.8","0.2,0.2,0.8,0.8,0.2,0.2,0.2,0.8,0.2","2","",""
"","html-keyboard-response","354","128167","0.0-354.0","3X4JMASXCNVCYEKLWV1799LUUZ40BL","A3DKM1KM4C4G05","3UUIU9GZC5R93N292LT21FRJ9VS5TN","","null","<img src=""img/land3.png"" style=""width:200px;border:14px solid red;"">","null","","","","","","","","","",""
"","image-keyboard-response","355","128515","0.0-355.0","3X4JMASXCNVCYEKLWV1799LUUZ40BL","A3DKM1KM4C4G05","3UUIU9GZC5R93N292LT21FRJ9VS5TN","","346","img/land1.png","74","348","1","0","1","2","0.8,0.2,0.2,0.2,0.8,0.2,0.2,0.2,0.8","0.2,0.2,0.8,0.8,0.2,0.2,0.2,0.8,0.2","2","",""
"","html-keyboard-response","356","128819","0.0-356.0","3X4JMASXCNVCYEKLWV1799LUUZ40BL","A3DKM1KM4C4G05","3UUIU9GZC5R93N292LT21FRJ9VS5TN","","null","<img src=""img/land1.png"" style=""width:200px;border:14px solid red;"">","null","","","","","","","","","",""
"","image-keyboard-response","357","129326","0.0-357.0","3X4JMASXCNVCYEKLWV1799LUUZ40BL","A3DKM1KM4C4G05","3UUIU9GZC5R93N292LT21FRJ9VS5TN","","505","img/land1.png","74","507","1","0","1","2","0.8,0.2,0.2,0.2,0.8,0.2,0.2,0.2,0.8","0.2,0.2,0.8,0.8,0.2,0.2,0.2,0.8,0.2","2","",""
"","html-keyboard-response","358","129630","0.0-358.0","3X4JMASXCNVCYEKLWV1799LUUZ40BL","A3DKM1KM4C4G05","3UUIU9GZC5R93N292LT21FRJ9VS5TN","","null","<img src=""img/land1.png"" style=""width:200px;border:14px solid red;"">","null","","","","","","","","","",""
"","image-keyboard-response","359","129745","0.0-359.0","3X4JMASXCNVCYEKLWV1799LUUZ40BL","A3DKM1KM4C4G05","3UUIU9GZC5R93N292LT21FRJ9VS5TN","","113.0000000000291","img/land1.png","75","115","2","0","1","2","0.8,0.2,0.2,0.2,0.8,0.2,0.2,0.2,0.8","0.2,0.2,0.8,0.8,0.2,0.2,0.2,0.8,0.2","2","",""
"","html-keyboard-response","360","130048","0.0-360.0","3X4JMASXCNVCYEKLWV1799LUUZ40BL","A3DKM1KM4C4G05","3UUIU9GZC5R93N292LT21FRJ9VS5TN","","null","<img src=""img/land1.png"" style=""width:200px;border:14px solid red;"">","null","","","","","","","","","",""
"","image-keyboard-response","361","130086","0.0-361.0","3X4JMASXCNVCYEKLWV1799LUUZ40BL","A3DKM1KM4C4G05","3UUIU9GZC5R93N292LT21FRJ9VS5TN","","35","img/land5.png","75","38","2","1","3","2","0.8,0.2,0.2,0.2,0.8,0.2,0.2,0.2,0.8","0.2,0.2,0.8,0.8,0.2,0.2,0.2,0.8,0.2","2","",""
"","html-keyboard-response","362","130389","0.0-362.0","3X4JMASXCNVCYEKLWV1799LUUZ40BL","A3DKM1KM4C4G05","3UUIU9GZC5R93N292LT21FRJ9VS5TN","","null","<img src=""img/land5.png"" style=""width:200px; border:14px solid green;"">","null","","","","","","","","","",""
"","image-keyboard-response","363","130439","0.0-363.0","3X4JMASXCNVCYEKLWV1799LUUZ40BL","A3DKM1KM4C4G05","3UUIU9GZC5R93N292LT21FRJ9VS5TN","","46","img/land3.png","75","47","2","0","2","2","0.8,0.2,0.2,0.2,0.8,0.2,0.2,0.2,0.8","0.2,0.2,0.8,0.8,0.2,0.2,0.2,0.8,0.2","2","",""
"","html-keyboard-response","364","130742","0.0-364.0","3X4JMASXCNVCYEKLWV1799LUUZ40BL","A3DKM1KM4C4G05","3UUIU9GZC5R93N292LT21FRJ9VS5TN","","null","<img src=""img/land3.png"" style=""width:200px;border:14px solid red;"">","null","","","","","","","","","",""
"","image-keyboard-response","365","130897","0.0-365.0","3X4JMASXCNVCYEKLWV1799LUUZ40BL","A3DKM1KM4C4G05","3UUIU9GZC5R93N292LT21FRJ9VS5TN","","151.9999999999709","img/land3.png","76","155","3","0","2","2","0.8,0.2,0.2,0.2,0.8,0.2,0.2,0.2,0.8","0.2,0.2,0.8,0.8,0.2,0.2,0.2,0.8,0.2","2","",""
"","html-keyboard-response","366","131200","0.0-366.0","3X4JMASXCNVCYEKLWV1799LUUZ40BL","A3DKM1KM4C4G05","3UUIU9GZC5R93N292LT21FRJ9VS5TN","","null","<img src=""img/land3.png"" style=""width:200px;border:14px solid red;"">","null","","","","","","","","","",""
