"success","trial_type","trial_index","time_elapsed","internal_node_id","assignmentID","mturkID","hitID","view_history","rt","stimulus","key_press","reactionTime","a","r","s","cond","reward_cond","reward_cond_actual","reward_matrix_idx","responses","question_order"
"true","fullscreen","0","3717","0.0-0.0","3PDJHANYK62H329MYCRK4LYJ2D2H6M","A3DMSP55I880KW","3566S7OX5D5NH74JOVOPTTMK8IR17K","","","","","","","","","","","","","",""
"","instructions","1","46528","0.0-1.0","3PDJHANYK62H329MYCRK4LYJ2D2H6M","A3DMSP55I880KW","3566S7OX5D5NH74JOVOPTTMK8IR17K","[{""page_index"":0,""viewing_time"":3498.5},{""page_index"":1,""viewing_time"":2646.9000000953674},{""page_index"":2,""viewing_time"":2195.899999856949},{""page_index"":3,""viewing_time"":5063.799999952316},{""page_index"":4,""viewing_time"":2122.300000190735},{""page_index"":5,""viewing_time"":2977.199999809265},{""page_index"":6,""viewing_time"":2505.7000000476837},{""page_index"":5,""viewing_time"":5241.600000143051},{""page_index"":4,""viewing_time"":3686.5999999046326},{""page_index"":3,""viewing_time"":3571.5},{""page_index"":4,""viewing_time"":1437.0999999046326},{""page_index"":5,""viewing_time"":6033.5},{""page_index"":6,""viewing_time"":1820.1000001430511}]","42801.90000009537","","","","","","","","","","","",""
"","image-keyboard-response","2","47714","0.0-2.0","3PDJHANYK62H329MYCRK4LYJ2D2H6M","A3DMSP55I880KW","3566S7OX5D5NH74JOVOPTTMK8IR17K","","1178.1000001430511","img/land6.png","75","1183","2","0","1","1","0.8,0.2,0.2,0.2,0.8,0.2,0.2,0.2,0.8","0.8,0.2,0.2,0.2,0.8,0.2,0.2,0.2,0.8","1","",""
"","html-keyboard-response","3","48021","0.0-3.0","3PDJHANYK62H329MYCRK4LYJ2D2H6M","A3DMSP55I880KW","3566S7OX5D5NH74JOVOPTTMK8IR17K","","null","<img src=""img/land6.png"" style=""width:200px;border:14px solid red;"">","null","","","","","","","","","",""
"","image-keyboard-response","4","48946","0.0-4.0","3PDJHANYK62H329MYCRK4LYJ2D2H6M","A3DMSP55I880KW","3566S7OX5D5NH74JOVOPTTMK8IR17K","","921","img/land4.png","75","924.2000000476837","2","1","2","1","0.8,0.2,0.2,0.2,0.8,0.2,0.2,0.2,0.8","0.8,0.2,0.2,0.2,0.8,0.2,0.2,0.2,0.8","1","",""
"","html-keyboard-response","5","49250","0.0-5.0","3PDJHANYK62H329MYCRK4LYJ2D2H6M","A3DMSP55I880KW","3566S7OX5D5NH74JOVOPTTMK8IR17K","","null","<img src=""img/land4.png"" style=""width:200px; border:14px solid green;"">","null","","","","","","","","","",""
"","image-keyboard-response","6","50049","0.0-6.0","3PDJHANYK62H329MYCRK4LYJ2D2H6M","A3DMSP55I880KW","3566S7OX5D5NH74JOVOPTTMK8IR17K","","795.8999998569489","img/land6.png","75","798.4000000953674","2","0","1","1","0.8,0.2,0.2,0.2,0.8,0.2,0.2,0.2,0.8","0.8,0.2,0.2,0.2,0.8,0.2,0.2,0.2,0.8","1","",""
"","html-keyboard-response","7","50353","0.0-7.0","3PDJHANYK62H329MYCRK4LYJ2D2H6M","A3DMSP55I880KW","3566S7OX5D5NH74JOVOPTTMK8IR17K","","null","<img src=""img/land6.png"" style=""width:200px;border:14px solid red;"">","null","","","","","","","","","",""
"","image-keyboard-response","8","51513","0.0-8.0","3PDJHANYK62H329MYCRK4LYJ2D2H6M","A3DMSP55I880KW","3566S7OX5D5NH74JOVOPTTMK8IR17K","","1156.9000000953674","img/land1.png","74","1159.7000000476837","1","0","3","1","0.8,0.2,0.2,0.2,0.8,0.2,0.2,0.2,0.8","0.8,0.2,0.2,0.2,0.8,0.2,0.2,0.2,0.8","1","",""
"","html-keyboard-response","9","51817","0.0-9.0","3PDJHANYK62H329MYCRK4LYJ2D2H6M","A3DMSP55I880KW","3566S7OX5D5NH74JOVOPTTMK8IR17K","","null","<img src=""img/land1.png"" style=""width:200px;border:14px solid red;"">","null","","","","","","","","","",""
"","image-keyboard-response","10","52918","0.0-10.0","3PDJHANYK62H329MYCRK4LYJ2D2H6M","A3DMSP55I880KW","3566S7OX5D5NH74JOVOPTTMK8IR17K","","1097","img/land6.png","76","1099.9000000953674","3","0","1","1","0.8,0.2,0.2,0.2,0.8,0.2,0.2,0.2,0.8","0.8,0.2,0.2,0.2,0.8,0.2,0.2,0.2,0.8","1","",""
"","html-keyboard-response","11","53221","0.0-11.0","3PDJHANYK62H329MYCRK4LYJ2D2H6M","A3DMSP55I880KW","3566S7OX5D5NH74JOVOPTTMK8IR17K","","null","<img src=""img/land6.png"" style=""width:200px;border:14px solid red;"">","null","","","","","","","","","",""
"","image-keyboard-response","12","54016","0.0-12.0","3PDJHANYK62H329MYCRK4LYJ2D2H6M","A3DMSP55I880KW","3566S7OX5D5NH74JOVOPTTMK8IR17K","","791.5999999046326","img/land1.png","76","794.1000001430511","3","1","3","1","0.8,0.2,0.2,0.2,0.8,0.2,0.2,0.2,0.8","0.8,0.2,0.2,0.2,0.8,0.2,0.2,0.2,0.8","1","",""
"","html-keyboard-response","13","54320","0.0-13.0","3PDJHANYK62H329MYCRK4LYJ2D2H6M","A3DMSP55I880KW","3566S7OX5D5NH74JOVOPTTMK8IR17K","","null","<img src=""img/land1.png"" style=""width:200px; border:14px solid green;"">","null","","","","","","","","","",""
"","image-keyboard-response","14","54777","0.0-14.0","3PDJHANYK62H329MYCRK4LYJ2D2H6M","A3DMSP55I880KW","3566S7OX5D5NH74JOVOPTTMK8IR17K","","454.89999985694885","img/land1.png","76","457.10000014305115","3","0","3","1","0.8,0.2,0.2,0.2,0.8,0.2,0.2,0.2,0.8","0.8,0.2,0.2,0.2,0.8,0.2,0.2,0.2,0.8","1","",""
"","html-keyboard-response","15","55079","0.0-15.0","3PDJHANYK62H329MYCRK4LYJ2D2H6M","A3DMSP55I880KW","3566S7OX5D5NH74JOVOPTTMK8IR17K","","null","<img src=""img/land1.png"" style=""width:200px;border:14px solid red;"">","null","","","","","","","","","",""
"","image-keyboard-response","16","55832","0.0-16.0","3PDJHANYK62H329MYCRK4LYJ2D2H6M","A3DMSP55I880KW","3566S7OX5D5NH74JOVOPTTMK8IR17K","","750.6999998092651","img/land4.png","75","752.3999998569489","2","1","2","1","0.8,0.2,0.2,0.2,0.8,0.2,0.2,0.2,0.8","0.8,0.2,0.2,0.2,0.8,0.2,0.2,0.2,0.8","1","",""
"","html-keyboard-response","17","56135","0.0-17.0","3PDJHANYK62H329MYCRK4LYJ2D2H6M","A3DMSP55I880KW","3566S7OX5D5NH74JOVOPTTMK8IR17K","","null","<img src=""img/land4.png"" style=""width:200px; border:14px solid green;"">","null","","","","","","","","","",""
"","image-keyboard-response","18","56820","0.0-18.0","3PDJHANYK62H329MYCRK4LYJ2D2H6M","A3DMSP55I880KW","3566S7OX5D5NH74JOVOPTTMK8IR17K","","682.8999998569489","img/land1.png","74","684.7000000476837","1","0","3","1","0.8,0.2,0.2,0.2,0.8,0.2,0.2,0.2,0.8","0.8,0.2,0.2,0.2,0.8,0.2,0.2,0.2,0.8","1","",""
"","html-keyboard-response","19","57137","0.0-19.0","3PDJHANYK62H329MYCRK4LYJ2D2H6M","A3DMSP55I880KW","3566S7OX5D5NH74JOVOPTTMK8IR17K","","null","<img src=""img/land1.png"" style=""width:200px;border:14px solid red;"">","null","","","","","","","","","",""
"","image-keyboard-response","20","58038","0.0-20.0","3PDJHANYK62H329MYCRK4LYJ2D2H6M","A3DMSP55I880KW","3566S7OX5D5NH74JOVOPTTMK8IR17K","","897.5999999046326","img/land4.png","75","900.3999998569489","2","1","2","1","0.8,0.2,0.2,0.2,0.8,0.2,0.2,0.2,0.8","0.8,0.2,0.2,0.2,0.8,0.2,0.2,0.2,0.8","1","",""
"","html-keyboard-response","21","58342","0.0-21.0","3PDJHANYK62H329MYCRK4LYJ2D2H6M","A3DMSP55I880KW","3566S7OX5D5NH74JOVOPTTMK8IR17K","","null","<img src=""img/land4.png"" style=""width:200px; border:14px solid green;"">","null","","","","","","","","","",""
"","image-keyboard-response","22","59171","0.0-22.0","3PDJHANYK62H329MYCRK4LYJ2D2H6M","A3DMSP55I880KW","3566S7OX5D5NH74JOVOPTTMK8IR17K","","826.2999999523163","img/land1.png","76","828.5999999046326","3","0","3","1","0.8,0.2,0.2,0.2,0.8,0.2,0.2,0.2,0.8","0.8,0.2,0.2,0.2,0.8,0.2,0.2,0.2,0.8","1","",""
"","html-keyboard-response","23","59475","0.0-23.0","3PDJHANYK62H329MYCRK4LYJ2D2H6M","A3DMSP55I880KW","3566S7OX5D5NH74JOVOPTTMK8IR17K","","null","<img src=""img/land1.png"" style=""width:200px;border:14px solid red;"">","null","","","","","","","","","",""
"","image-keyboard-response","24","60259","0.0-24.0","3PDJHANYK62H329MYCRK4LYJ2D2H6M","A3DMSP55I880KW","3566S7OX5D5NH74JOVOPTTMK8IR17K","","782","img/land6.png","74","784.2999999523163","1","1","1","1","0.8,0.2,0.2,0.2,0.8,0.2,0.2,0.2,0.8","0.8,0.2,0.2,0.2,0.8,0.2,0.2,0.2,0.8","1","",""
"","html-keyboard-response","25","60563","0.0-25.0","3PDJHANYK62H329MYCRK4LYJ2D2H6M","A3DMSP55I880KW","3566S7OX5D5NH74JOVOPTTMK8IR17K","","null","<img src=""img/land6.png"" style=""width:200px; border:14px solid green;"">","null","","","","","","","","","",""
"","image-keyboard-response","26","61232","0.0-26.0","3PDJHANYK62H329MYCRK4LYJ2D2H6M","A3DMSP55I880KW","3566S7OX5D5NH74JOVOPTTMK8IR17K","","667.6000001430511","img/land1.png","76","669.4000000953674","3","1","3","1","0.8,0.2,0.2,0.2,0.8,0.2,0.2,0.2,0.8","0.8,0.2,0.2,0.2,0.8,0.2,0.2,0.2,0.8","1","",""
"","html-keyboard-response","27","61536","0.0-27.0","3PDJHANYK62H329MYCRK4LYJ2D2H6M","A3DMSP55I880KW","3566S7OX5D5NH74JOVOPTTMK8IR17K","","null","<img src=""img/land1.png"" style=""width:200px; border:14px solid green;"">","null","","","","","","","","","",""
"","image-keyboard-response","28","62270","0.0-28.0","3PDJHANYK62H329MYCRK4LYJ2D2H6M","A3DMSP55I880KW","3566S7OX5D5NH74JOVOPTTMK8IR17K","","731.7999999523163","img/land4.png","75","734.2999999523163","2","1","2","1","0.8,0.2,0.2,0.2,0.8,0.2,0.2,0.2,0.8","0.8,0.2,0.2,0.2,0.8,0.2,0.2,0.2,0.8","1","",""
"","html-keyboard-response","29","62574","0.0-29.0","3PDJHANYK62H329MYCRK4LYJ2D2H6M","A3DMSP55I880KW","3566S7OX5D5NH74JOVOPTTMK8IR17K","","null","<img src=""img/land4.png"" style=""width:200px; border:14px solid green;"">","null","","","","","","","","","",""
"","image-keyboard-response","30","63023","0.0-30.0","3PDJHANYK62H329MYCRK4LYJ2D2H6M","A3DMSP55I880KW","3566S7OX5D5NH74JOVOPTTMK8IR17K","","446.59999990463257","img/land4.png","75","449.10000014305115","2","1","2","1","0.8,0.2,0.2,0.2,0.8,0.2,0.2,0.2,0.8","0.8,0.2,0.2,0.2,0.8,0.2,0.2,0.2,0.8","1","",""
"","html-keyboard-response","31","63327","0.0-31.0","3PDJHANYK62H329MYCRK4LYJ2D2H6M","A3DMSP55I880KW","3566S7OX5D5NH74JOVOPTTMK8IR17K","","null","<img src=""img/land4.png"" style=""width:200px; border:14px solid green;"">","null","","","","","","","","","",""
"","image-keyboard-response","32","63906","0.0-32.0","3PDJHANYK62H329MYCRK4LYJ2D2H6M","A3DMSP55I880KW","3566S7OX5D5NH74JOVOPTTMK8IR17K","","575.2000000476837","img/land1.png","76","578.2000000476837","3","1","3","1","0.8,0.2,0.2,0.2,0.8,0.2,0.2,0.2,0.8","0.8,0.2,0.2,0.2,0.8,0.2,0.2,0.2,0.8","1","",""
"","html-keyboard-response","33","64210","0.0-33.0","3PDJHANYK62H329MYCRK4LYJ2D2H6M","A3DMSP55I880KW","3566S7OX5D5NH74JOVOPTTMK8IR17K","","null","<img src=""img/land1.png"" style=""width:200px; border:14px solid green;"">","null","","","","","","","","","",""
"","image-keyboard-response","34","64678","0.0-34.0","3PDJHANYK62H329MYCRK4LYJ2D2H6M","A3DMSP55I880KW","3566S7OX5D5NH74JOVOPTTMK8IR17K","","464.5","img/land1.png","76","468.10000014305115","3","1","3","1","0.8,0.2,0.2,0.2,0.8,0.2,0.2,0.2,0.8","0.8,0.2,0.2,0.2,0.8,0.2,0.2,0.2,0.8","1","",""
"","html-keyboard-response","35","64982","0.0-35.0","3PDJHANYK62H329MYCRK4LYJ2D2H6M","A3DMSP55I880KW","3566S7OX5D5NH74JOVOPTTMK8IR17K","","null","<img src=""img/land1.png"" style=""width:200px; border:14px solid green;"">","null","","","","","","","","","",""
"","image-keyboard-response","36","65872","0.0-36.0","3PDJHANYK62H329MYCRK4LYJ2D2H6M","A3DMSP55I880KW","3566S7OX5D5NH74JOVOPTTMK8IR17K","","887.7999999523163","img/land4.png","74","889.8999998569489","1","0","2","1","0.8,0.2,0.2,0.2,0.8,0.2,0.2,0.2,0.8","0.8,0.2,0.2,0.2,0.8,0.2,0.2,0.2,0.8","1","",""
"","html-keyboard-response","37","66175","0.0-37.0","3PDJHANYK62H329MYCRK4LYJ2D2H6M","A3DMSP55I880KW","3566S7OX5D5NH74JOVOPTTMK8IR17K","","null","<img src=""img/land4.png"" style=""width:200px;border:14px solid red;"">","null","","","","","","","","","",""
"","image-keyboard-response","38","66686","0.0-38.0","3PDJHANYK62H329MYCRK4LYJ2D2H6M","A3DMSP55I880KW","3566S7OX5D5NH74JOVOPTTMK8IR17K","","509.59999990463257","img/land1.png","75","510.89999985694885","2","0","3","1","0.8,0.2,0.2,0.2,0.8,0.2,0.2,0.2,0.8","0.8,0.2,0.2,0.2,0.8,0.2,0.2,0.2,0.8","1","",""
"","html-keyboard-response","39","66988","0.0-39.0","3PDJHANYK62H329MYCRK4LYJ2D2H6M","A3DMSP55I880KW","3566S7OX5D5NH74JOVOPTTMK8IR17K","","null","<img src=""img/land1.png"" style=""width:200px;border:14px solid red;"">","null","","","","","","","","","",""
"","image-keyboard-response","40","67587","0.0-40.0","3PDJHANYK62H329MYCRK4LYJ2D2H6M","A3DMSP55I880KW","3566S7OX5D5NH74JOVOPTTMK8IR17K","","596.4000000953674","img/land4.png","75","598.2000000476837","2","0","2","1","0.8,0.2,0.2,0.2,0.8,0.2,0.2,0.2,0.8","0.8,0.2,0.2,0.2,0.8,0.2,0.2,0.2,0.8","1","",""
"","html-keyboard-response","41","67890","0.0-41.0","3PDJHANYK62H329MYCRK4LYJ2D2H6M","A3DMSP55I880KW","3566S7OX5D5NH74JOVOPTTMK8IR17K","","null","<img src=""img/land4.png"" style=""width:200px;border:14px solid red;"">","null","","","","","","","","","",""
"","image-keyboard-response","42","68674","0.0-42.0","3PDJHANYK62H329MYCRK4LYJ2D2H6M","A3DMSP55I880KW","3566S7OX5D5NH74JOVOPTTMK8IR17K","","780.7000000476837","img/land6.png","75","783.0999999046326","2","0","1","1","0.8,0.2,0.2,0.2,0.8,0.2,0.2,0.2,0.8","0.8,0.2,0.2,0.2,0.8,0.2,0.2,0.2,0.8","1","",""
"","html-keyboard-response","43","68977","0.0-43.0","3PDJHANYK62H329MYCRK4LYJ2D2H6M","A3DMSP55I880KW","3566S7OX5D5NH74JOVOPTTMK8IR17K","","null","<img src=""img/land6.png"" style=""width:200px;border:14px solid red;"">","null","","","","","","","","","",""
"","image-keyboard-response","44","69668","0.0-44.0","3PDJHANYK62H329MYCRK4LYJ2D2H6M","A3DMSP55I880KW","3566S7OX5D5NH74JOVOPTTMK8IR17K","","687.5999999046326","img/land1.png","76","690.4000000953674","3","1","3","1","0.8,0.2,0.2,0.2,0.8,0.2,0.2,0.2,0.8","0.8,0.2,0.2,0.2,0.8,0.2,0.2,0.2,0.8","1","",""
"","html-keyboard-response","45","69971","0.0-45.0","3PDJHANYK62H329MYCRK4LYJ2D2H6M","A3DMSP55I880KW","3566S7OX5D5NH74JOVOPTTMK8IR17K","","null","<img src=""img/land1.png"" style=""width:200px; border:14px solid green;"">","null","","","","","","","","","",""
"","image-keyboard-response","46","70471","0.0-46.0","3PDJHANYK62H329MYCRK4LYJ2D2H6M","A3DMSP55I880KW","3566S7OX5D5NH74JOVOPTTMK8IR17K","","496.40000009536743","img/land1.png","76","499.5","3","1","3","1","0.8,0.2,0.2,0.2,0.8,0.2,0.2,0.2,0.8","0.8,0.2,0.2,0.2,0.8,0.2,0.2,0.2,0.8","1","",""
"","html-keyboard-response","47","70775","0.0-47.0","3PDJHANYK62H329MYCRK4LYJ2D2H6M","A3DMSP55I880KW","3566S7OX5D5NH74JOVOPTTMK8IR17K","","null","<img src=""img/land1.png"" style=""width:200px; border:14px solid green;"">","null","","","","","","","","","",""
"","image-keyboard-response","48","71082","0.0-48.0","3PDJHANYK62H329MYCRK4LYJ2D2H6M","A3DMSP55I880KW","3566S7OX5D5NH74JOVOPTTMK8IR17K","","302.7000000476837","img/land1.png","76","306.19999980926514","3","1","3","1","0.8,0.2,0.2,0.2,0.8,0.2,0.2,0.2,0.8","0.8,0.2,0.2,0.2,0.8,0.2,0.2,0.2,0.8","1","",""
"","html-keyboard-response","49","71390","0.0-49.0","3PDJHANYK62H329MYCRK4LYJ2D2H6M","A3DMSP55I880KW","3566S7OX5D5NH74JOVOPTTMK8IR17K","","null","<img src=""img/land1.png"" style=""width:200px; border:14px solid green;"">","null","","","","","","","","","",""
"","image-keyboard-response","50","72336","0.0-50.0","3PDJHANYK62H329MYCRK4LYJ2D2H6M","A3DMSP55I880KW","3566S7OX5D5NH74JOVOPTTMK8IR17K","","943.2999999523163","img/land6.png","74","945.7000000476837","1","0","1","1","0.8,0.2,0.2,0.2,0.8,0.2,0.2,0.2,0.8","0.8,0.2,0.2,0.2,0.8,0.2,0.2,0.2,0.8","1","",""
"","html-keyboard-response","51","72640","0.0-51.0","3PDJHANYK62H329MYCRK4LYJ2D2H6M","A3DMSP55I880KW","3566S7OX5D5NH74JOVOPTTMK8IR17K","","null","<img src=""img/land6.png"" style=""width:200px;border:14px solid red;"">","null","","","","","","","","","",""
"","image-keyboard-response","52","73254","0.0-52.0","3PDJHANYK62H329MYCRK4LYJ2D2H6M","A3DMSP55I880KW","3566S7OX5D5NH74JOVOPTTMK8IR17K","","611.1000001430511","img/land1.png","74","613.5999999046326","1","0","3","1","0.8,0.2,0.2,0.2,0.8,0.2,0.2,0.2,0.8","0.8,0.2,0.2,0.2,0.8,0.2,0.2,0.2,0.8","1","",""
"","html-keyboard-response","53","73558","0.0-53.0","3PDJHANYK62H329MYCRK4LYJ2D2H6M","A3DMSP55I880KW","3566S7OX5D5NH74JOVOPTTMK8IR17K","","null","<img src=""img/land1.png"" style=""width:200px;border:14px solid red;"">","null","","","","","","","","","",""
"","image-keyboard-response","54","74062","0.0-54.0","3PDJHANYK62H329MYCRK4LYJ2D2H6M","A3DMSP55I880KW","3566S7OX5D5NH74JOVOPTTMK8IR17K","","499.2000000476837","img/land4.png","75","503","2","1","2","1","0.8,0.2,0.2,0.2,0.8,0.2,0.2,0.2,0.8","0.8,0.2,0.2,0.2,0.8,0.2,0.2,0.2,0.8","1","",""
"","html-keyboard-response","55","74366","0.0-55.0","3PDJHANYK62H329MYCRK4LYJ2D2H6M","A3DMSP55I880KW","3566S7OX5D5NH74JOVOPTTMK8IR17K","","null","<img src=""img/land4.png"" style=""width:200px; border:14px solid green;"">","null","","","","","","","","","",""
"","image-keyboard-response","56","75466","0.0-56.0","3PDJHANYK62H329MYCRK4LYJ2D2H6M","A3DMSP55I880KW","3566S7OX5D5NH74JOVOPTTMK8IR17K","","1096.9000000953674","img/land6.png","74","1099.5","1","1","1","1","0.8,0.2,0.2,0.2,0.8,0.2,0.2,0.2,0.8","0.8,0.2,0.2,0.2,0.8,0.2,0.2,0.2,0.8","1","",""
"","html-keyboard-response","57","75769","0.0-57.0","3PDJHANYK62H329MYCRK4LYJ2D2H6M","A3DMSP55I880KW","3566S7OX5D5NH74JOVOPTTMK8IR17K","","null","<img src=""img/land6.png"" style=""width:200px; border:14px solid green;"">","null","","","","","","","","","",""
"","image-keyboard-response","58","76434","0.0-58.0","3PDJHANYK62H329MYCRK4LYJ2D2H6M","A3DMSP55I880KW","3566S7OX5D5NH74JOVOPTTMK8IR17K","","662.2999999523163","img/land1.png","76","664.7999999523163","3","1","3","1","0.8,0.2,0.2,0.2,0.8,0.2,0.2,0.2,0.8","0.8,0.2,0.2,0.2,0.8,0.2,0.2,0.2,0.8","1","",""
"","html-keyboard-response","59","76739","0.0-59.0","3PDJHANYK62H329MYCRK4LYJ2D2H6M","A3DMSP55I880KW","3566S7OX5D5NH74JOVOPTTMK8IR17K","","null","<img src=""img/land1.png"" style=""width:200px; border:14px solid green;"">","null","","","","","","","","","",""
"","image-keyboard-response","60","77190","0.0-60.0","3PDJHANYK62H329MYCRK4LYJ2D2H6M","A3DMSP55I880KW","3566S7OX5D5NH74JOVOPTTMK8IR17K","","448.89999985694885","img/land1.png","76","451.40000009536743","3","1","3","1","0.8,0.2,0.2,0.2,0.8,0.2,0.2,0.2,0.8","0.8,0.2,0.2,0.2,0.8,0.2,0.2,0.2,0.8","1","",""
"","html-keyboard-response","61","77494","0.0-61.0","3PDJHANYK62H329MYCRK4LYJ2D2H6M","A3DMSP55I880KW","3566S7OX5D5NH74JOVOPTTMK8IR17K","","null","<img src=""img/land1.png"" style=""width:200px; border:14px solid green;"">","null","","","","","","","","","",""
"","image-keyboard-response","62","78319","0.0-62.0","3PDJHANYK62H329MYCRK4LYJ2D2H6M","A3DMSP55I880KW","3566S7OX5D5NH74JOVOPTTMK8IR17K","","822","img/land4.png","75","824.6999998092651","2","0","2","1","0.8,0.2,0.2,0.2,0.8,0.2,0.2,0.2,0.8","0.8,0.2,0.2,0.2,0.8,0.2,0.2,0.2,0.8","1","",""
"","html-keyboard-response","63","78623","0.0-63.0","3PDJHANYK62H329MYCRK4LYJ2D2H6M","A3DMSP55I880KW","3566S7OX5D5NH74JOVOPTTMK8IR17K","","null","<img src=""img/land4.png"" style=""width:200px;border:14px solid red;"">","null","","","","","","","","","",""
"","image-keyboard-response","64","79026","0.0-64.0","3PDJHANYK62H329MYCRK4LYJ2D2H6M","A3DMSP55I880KW","3566S7OX5D5NH74JOVOPTTMK8IR17K","","400","img/land4.png","75","402.89999985694885","2","1","2","1","0.8,0.2,0.2,0.2,0.8,0.2,0.2,0.2,0.8","0.8,0.2,0.2,0.2,0.8,0.2,0.2,0.2,0.8","1","",""
"","html-keyboard-response","65","79331","0.0-65.0","3PDJHANYK62H329MYCRK4LYJ2D2H6M","A3DMSP55I880KW","3566S7OX5D5NH74JOVOPTTMK8IR17K","","null","<img src=""img/land4.png"" style=""width:200px; border:14px solid green;"">","null","","","","","","","","","",""
"","image-keyboard-response","66","79768","0.0-66.0","3PDJHANYK62H329MYCRK4LYJ2D2H6M","A3DMSP55I880KW","3566S7OX5D5NH74JOVOPTTMK8IR17K","","434.30000019073486","img/land4.png","75","437","2","1","2","1","0.8,0.2,0.2,0.2,0.8,0.2,0.2,0.2,0.8","0.8,0.2,0.2,0.2,0.8,0.2,0.2,0.2,0.8","1","",""
"","html-keyboard-response","67","80072","0.0-67.0","3PDJHANYK62H329MYCRK4LYJ2D2H6M","A3DMSP55I880KW","3566S7OX5D5NH74JOVOPTTMK8IR17K","","null","<img src=""img/land4.png"" style=""width:200px; border:14px solid green;"">","null","","","","","","","","","",""
"","image-keyboard-response","68","80415","0.0-68.0","3PDJHANYK62H329MYCRK4LYJ2D2H6M","A3DMSP55I880KW","3566S7OX5D5NH74JOVOPTTMK8IR17K","","340.09999990463257","img/land4.png","75","342.7999999523163","2","1","2","1","0.8,0.2,0.2,0.2,0.8,0.2,0.2,0.2,0.8","0.8,0.2,0.2,0.2,0.8,0.2,0.2,0.2,0.8","1","",""
"","html-keyboard-response","69","80719","0.0-69.0","3PDJHANYK62H329MYCRK4LYJ2D2H6M","A3DMSP55I880KW","3566S7OX5D5NH74JOVOPTTMK8IR17K","","null","<img src=""img/land4.png"" style=""width:200px; border:14px solid green;"">","null","","","","","","","","","",""
"","image-keyboard-response","70","81037","0.0-70.0","3PDJHANYK62H329MYCRK4LYJ2D2H6M","A3DMSP55I880KW","3566S7OX5D5NH74JOVOPTTMK8IR17K","","315.10000014305115","img/land4.png","75","317.5","2","1","2","1","0.8,0.2,0.2,0.2,0.8,0.2,0.2,0.2,0.8","0.8,0.2,0.2,0.2,0.8,0.2,0.2,0.2,0.8","1","",""
"","html-keyboard-response","71","81341","0.0-71.0","3PDJHANYK62H329MYCRK4LYJ2D2H6M","A3DMSP55I880KW","3566S7OX5D5NH74JOVOPTTMK8IR17K","","null","<img src=""img/land4.png"" style=""width:200px; border:14px solid green;"">","null","","","","","","","","","",""
"","image-keyboard-response","72","81679","0.0-72.0","3PDJHANYK62H329MYCRK4LYJ2D2H6M","A3DMSP55I880KW","3566S7OX5D5NH74JOVOPTTMK8IR17K","","334.2000000476837","img/land4.png","75","337.2999999523163","2","0","2","1","0.8,0.2,0.2,0.2,0.8,0.2,0.2,0.2,0.8","0.8,0.2,0.2,0.2,0.8,0.2,0.2,0.2,0.8","1","",""
"","html-keyboard-response","73","81983","0.0-73.0","3PDJHANYK62H329MYCRK4LYJ2D2H6M","A3DMSP55I880KW","3566S7OX5D5NH74JOVOPTTMK8IR17K","","null","<img src=""img/land4.png"" style=""width:200px;border:14px solid red;"">","null","","","","","","","","","",""
"","image-keyboard-response","74","82797","0.0-74.0","3PDJHANYK62H329MYCRK4LYJ2D2H6M","A3DMSP55I880KW","3566S7OX5D5NH74JOVOPTTMK8IR17K","","811.9000000953674","img/land1.png","76","814.4000000953674","3","1","3","1","0.8,0.2,0.2,0.2,0.8,0.2,0.2,0.2,0.8","0.8,0.2,0.2,0.2,0.8,0.2,0.2,0.2,0.8","1","",""
"","html-keyboard-response","75","83101","0.0-75.0","3PDJHANYK62H329MYCRK4LYJ2D2H6M","A3DMSP55I880KW","3566S7OX5D5NH74JOVOPTTMK8IR17K","","null","<img src=""img/land1.png"" style=""width:200px; border:14px solid green;"">","null","","","","","","","","","",""
"","image-keyboard-response","76","83976","0.0-76.0","3PDJHANYK62H329MYCRK4LYJ2D2H6M","A3DMSP55I880KW","3566S7OX5D5NH74JOVOPTTMK8IR17K","","871.5999999046326","img/land6.png","74","874.0999999046326","1","1","1","1","0.8,0.2,0.2,0.2,0.8,0.2,0.2,0.2,0.8","0.8,0.2,0.2,0.2,0.8,0.2,0.2,0.2,0.8","1","",""
"","html-keyboard-response","77","84281","0.0-77.0","3PDJHANYK62H329MYCRK4LYJ2D2H6M","A3DMSP55I880KW","3566S7OX5D5NH74JOVOPTTMK8IR17K","","null","<img src=""img/land6.png"" style=""width:200px; border:14px solid green;"">","null","","","","","","","","","",""
"","image-keyboard-response","78","85220","0.0-78.0","3PDJHANYK62H329MYCRK4LYJ2D2H6M","A3DMSP55I880KW","3566S7OX5D5NH74JOVOPTTMK8IR17K","","936","img/land1.png","74","938.3999998569489","1","0","3","1","0.8,0.2,0.2,0.2,0.8,0.2,0.2,0.2,0.8","0.8,0.2,0.2,0.2,0.8,0.2,0.2,0.2,0.8","1","",""
"","html-keyboard-response","79","85524","0.0-79.0","3PDJHANYK62H329MYCRK4LYJ2D2H6M","A3DMSP55I880KW","3566S7OX5D5NH74JOVOPTTMK8IR17K","","null","<img src=""img/land1.png"" style=""width:200px;border:14px solid red;"">","null","","","","","","","","","",""
"","image-keyboard-response","80","86293","0.0-80.0","3PDJHANYK62H329MYCRK4LYJ2D2H6M","A3DMSP55I880KW","3566S7OX5D5NH74JOVOPTTMK8IR17K","","766.2000000476837","img/land4.png","75","768.7999999523163","2","1","2","1","0.8,0.2,0.2,0.2,0.8,0.2,0.2,0.2,0.8","0.8,0.2,0.2,0.2,0.8,0.2,0.2,0.2,0.8","1","",""
"","html-keyboard-response","81","86597","0.0-81.0","3PDJHANYK62H329MYCRK4LYJ2D2H6M","A3DMSP55I880KW","3566S7OX5D5NH74JOVOPTTMK8IR17K","","null","<img src=""img/land4.png"" style=""width:200px; border:14px solid green;"">","null","","","","","","","","","",""
"","image-keyboard-response","82","87452","0.0-82.0","3PDJHANYK62H329MYCRK4LYJ2D2H6M","A3DMSP55I880KW","3566S7OX5D5NH74JOVOPTTMK8IR17K","","852","img/land6.png","74","854.5","1","1","1","1","0.8,0.2,0.2,0.2,0.8,0.2,0.2,0.2,0.8","0.8,0.2,0.2,0.2,0.8,0.2,0.2,0.2,0.8","1","",""
"","html-keyboard-response","83","87755","0.0-83.0","3PDJHANYK62H329MYCRK4LYJ2D2H6M","A3DMSP55I880KW","3566S7OX5D5NH74JOVOPTTMK8IR17K","","null","<img src=""img/land6.png"" style=""width:200px; border:14px solid green;"">","null","","","","","","","","","",""
"","image-keyboard-response","84","88374","0.0-84.0","3PDJHANYK62H329MYCRK4LYJ2D2H6M","A3DMSP55I880KW","3566S7OX5D5NH74JOVOPTTMK8IR17K","","615.8999998569489","img/land1.png","76","618.3999998569489","3","1","3","1","0.8,0.2,0.2,0.2,0.8,0.2,0.2,0.2,0.8","0.8,0.2,0.2,0.2,0.8,0.2,0.2,0.2,0.8","1","",""
"","html-keyboard-response","85","88679","0.0-85.0","3PDJHANYK62H329MYCRK4LYJ2D2H6M","A3DMSP55I880KW","3566S7OX5D5NH74JOVOPTTMK8IR17K","","null","<img src=""img/land1.png"" style=""width:200px; border:14px solid green;"">","null","","","","","","","","","",""
"","image-keyboard-response","86","89077","0.0-86.0","3PDJHANYK62H329MYCRK4LYJ2D2H6M","A3DMSP55I880KW","3566S7OX5D5NH74JOVOPTTMK8IR17K","","394.7999999523163","img/land1.png","76","397.5","3","0","3","1","0.8,0.2,0.2,0.2,0.8,0.2,0.2,0.2,0.8","0.8,0.2,0.2,0.2,0.8,0.2,0.2,0.2,0.8","1","",""
"","html-keyboard-response","87","89381","0.0-87.0","3PDJHANYK62H329MYCRK4LYJ2D2H6M","A3DMSP55I880KW","3566S7OX5D5NH74JOVOPTTMK8IR17K","","null","<img src=""img/land1.png"" style=""width:200px;border:14px solid red;"">","null","","","","","","","","","",""
"","image-keyboard-response","88","90089","0.0-88.0","3PDJHANYK62H329MYCRK4LYJ2D2H6M","A3DMSP55I880KW","3566S7OX5D5NH74JOVOPTTMK8IR17K","","705.3999998569489","img/land4.png","75","707.9000000953674","2","0","2","1","0.8,0.2,0.2,0.2,0.8,0.2,0.2,0.2,0.8","0.8,0.2,0.2,0.2,0.8,0.2,0.2,0.2,0.8","1","",""
"","html-keyboard-response","89","90392","0.0-89.0","3PDJHANYK62H329MYCRK4LYJ2D2H6M","A3DMSP55I880KW","3566S7OX5D5NH74JOVOPTTMK8IR17K","","null","<img src=""img/land4.png"" style=""width:200px;border:14px solid red;"">","null","","","","","","","","","",""
"","image-keyboard-response","90","91152","0.0-90.0","3PDJHANYK62H329MYCRK4LYJ2D2H6M","A3DMSP55I880KW","3566S7OX5D5NH74JOVOPTTMK8IR17K","","756","img/land1.png","76","758.5","3","1","3","1","0.8,0.2,0.2,0.2,0.8,0.2,0.2,0.2,0.8","0.8,0.2,0.2,0.2,0.8,0.2,0.2,0.2,0.8","1","",""
"","html-keyboard-response","91","91455","0.0-91.0","3PDJHANYK62H329MYCRK4LYJ2D2H6M","A3DMSP55I880KW","3566S7OX5D5NH74JOVOPTTMK8IR17K","","null","<img src=""img/land1.png"" style=""width:200px; border:14px solid green;"">","null","","","","","","","","","",""
"","image-keyboard-response","92","92155","0.0-92.0","3PDJHANYK62H329MYCRK4LYJ2D2H6M","A3DMSP55I880KW","3566S7OX5D5NH74JOVOPTTMK8IR17K","","697","img/land6.png","74","699.5","1","1","1","1","0.8,0.2,0.2,0.2,0.8,0.2,0.2,0.2,0.8","0.8,0.2,0.2,0.2,0.8,0.2,0.2,0.2,0.8","1","",""
"","html-keyboard-response","93","92459","0.0-93.0","3PDJHANYK62H329MYCRK4LYJ2D2H6M","A3DMSP55I880KW","3566S7OX5D5NH74JOVOPTTMK8IR17K","","null","<img src=""img/land6.png"" style=""width:200px; border:14px solid green;"">","null","","","","","","","","","",""
"","image-keyboard-response","94","93294","0.0-94.0","3PDJHANYK62H329MYCRK4LYJ2D2H6M","A3DMSP55I880KW","3566S7OX5D5NH74JOVOPTTMK8IR17K","","831.0999999046326","img/land4.png","75","834.6000001430511","2","1","2","1","0.8,0.2,0.2,0.2,0.8,0.2,0.2,0.2,0.8","0.8,0.2,0.2,0.2,0.8,0.2,0.2,0.2,0.8","1","",""
"","html-keyboard-response","95","93598","0.0-95.0","3PDJHANYK62H329MYCRK4LYJ2D2H6M","A3DMSP55I880KW","3566S7OX5D5NH74JOVOPTTMK8IR17K","","null","<img src=""img/land4.png"" style=""width:200px; border:14px solid green;"">","null","","","","","","","","","",""
"","image-keyboard-response","96","93947","0.0-96.0","3PDJHANYK62H329MYCRK4LYJ2D2H6M","A3DMSP55I880KW","3566S7OX5D5NH74JOVOPTTMK8IR17K","","346","img/land4.png","75","348.5","2","1","2","1","0.8,0.2,0.2,0.2,0.8,0.2,0.2,0.2,0.8","0.8,0.2,0.2,0.2,0.8,0.2,0.2,0.2,0.8","1","",""
"","html-keyboard-response","97","94250","0.0-97.0","3PDJHANYK62H329MYCRK4LYJ2D2H6M","A3DMSP55I880KW","3566S7OX5D5NH74JOVOPTTMK8IR17K","","null","<img src=""img/land4.png"" style=""width:200px; border:14px solid green;"">","null","","","","","","","","","",""
"","image-keyboard-response","98","94603","0.0-98.0","3PDJHANYK62H329MYCRK4LYJ2D2H6M","A3DMSP55I880KW","3566S7OX5D5NH74JOVOPTTMK8IR17K","","349.5","img/land4.png","75","351.89999985694885","2","0","2","1","0.8,0.2,0.2,0.2,0.8,0.2,0.2,0.2,0.8","0.8,0.2,0.2,0.2,0.8,0.2,0.2,0.2,0.8","1","",""
"","html-keyboard-response","99","94906","0.0-99.0","3PDJHANYK62H329MYCRK4LYJ2D2H6M","A3DMSP55I880KW","3566S7OX5D5NH74JOVOPTTMK8IR17K","","null","<img src=""img/land4.png"" style=""width:200px;border:14px solid red;"">","null","","","","","","","","","",""
"","image-keyboard-response","100","95651","0.0-100.0","3PDJHANYK62H329MYCRK4LYJ2D2H6M","A3DMSP55I880KW","3566S7OX5D5NH74JOVOPTTMK8IR17K","","741.5","img/land6.png","74","744","1","0","1","1","0.8,0.2,0.2,0.2,0.8,0.2,0.2,0.2,0.8","0.8,0.2,0.2,0.2,0.8,0.2,0.2,0.2,0.8","1","",""
"","html-keyboard-response","101","95954","0.0-101.0","3PDJHANYK62H329MYCRK4LYJ2D2H6M","A3DMSP55I880KW","3566S7OX5D5NH74JOVOPTTMK8IR17K","","null","<img src=""img/land6.png"" style=""width:200px;border:14px solid red;"">","null","","","","","","","","","",""
"","image-keyboard-response","102","96373","0.0-102.0","3PDJHANYK62H329MYCRK4LYJ2D2H6M","A3DMSP55I880KW","3566S7OX5D5NH74JOVOPTTMK8IR17K","","415.5","img/land6.png","74","417.90000009536743","1","1","1","1","0.8,0.2,0.2,0.2,0.8,0.2,0.2,0.2,0.8","0.8,0.2,0.2,0.2,0.8,0.2,0.2,0.2,0.8","1","",""
"","html-keyboard-response","103","96679","0.0-103.0","3PDJHANYK62H329MYCRK4LYJ2D2H6M","A3DMSP55I880KW","3566S7OX5D5NH74JOVOPTTMK8IR17K","","null","<img src=""img/land6.png"" style=""width:200px; border:14px solid green;"">","null","","","","","","","","","",""
"","image-keyboard-response","104","97180","0.0-104.0","3PDJHANYK62H329MYCRK4LYJ2D2H6M","A3DMSP55I880KW","3566S7OX5D5NH74JOVOPTTMK8IR17K","","497.7000000476837","img/land6.png","74","500.5","1","1","1","1","0.8,0.2,0.2,0.2,0.8,0.2,0.2,0.2,0.8","0.8,0.2,0.2,0.2,0.8,0.2,0.2,0.2,0.8","1","",""
"","html-keyboard-response","105","97484","0.0-105.0","3PDJHANYK62H329MYCRK4LYJ2D2H6M","A3DMSP55I880KW","3566S7OX5D5NH74JOVOPTTMK8IR17K","","null","<img src=""img/land6.png"" style=""width:200px; border:14px solid green;"">","null","","","","","","","","","",""
"","image-keyboard-response","106","97793","0.0-106.0","3PDJHANYK62H329MYCRK4LYJ2D2H6M","A3DMSP55I880KW","3566S7OX5D5NH74JOVOPTTMK8IR17K","","306","img/land6.png","74","308.69999980926514","1","0","1","1","0.8,0.2,0.2,0.2,0.8,0.2,0.2,0.2,0.8","0.8,0.2,0.2,0.2,0.8,0.2,0.2,0.2,0.8","1","",""
"","html-keyboard-response","107","98097","0.0-107.0","3PDJHANYK62H329MYCRK4LYJ2D2H6M","A3DMSP55I880KW","3566S7OX5D5NH74JOVOPTTMK8IR17K","","null","<img src=""img/land6.png"" style=""width:200px;border:14px solid red;"">","null","","","","","","","","","",""
"","image-keyboard-response","108","98685","0.0-108.0","3PDJHANYK62H329MYCRK4LYJ2D2H6M","A3DMSP55I880KW","3566S7OX5D5NH74JOVOPTTMK8IR17K","","585","img/land1.png","76","587.3999998569489","3","0","3","1","0.8,0.2,0.2,0.2,0.8,0.2,0.2,0.2,0.8","0.8,0.2,0.2,0.2,0.8,0.2,0.2,0.2,0.8","1","",""
"","html-keyboard-response","109","98989","0.0-109.0","3PDJHANYK62H329MYCRK4LYJ2D2H6M","A3DMSP55I880KW","3566S7OX5D5NH74JOVOPTTMK8IR17K","","null","<img src=""img/land1.png"" style=""width:200px;border:14px solid red;"">","null","","","","","","","","","",""
"","image-keyboard-response","110","99678","0.0-110.0","3PDJHANYK62H329MYCRK4LYJ2D2H6M","A3DMSP55I880KW","3566S7OX5D5NH74JOVOPTTMK8IR17K","","686.3999998569489","img/land4.png","75","689.0999999046326","2","0","2","1","0.8,0.2,0.2,0.2,0.8,0.2,0.2,0.2,0.8","0.8,0.2,0.2,0.2,0.8,0.2,0.2,0.2,0.8","1","",""
"","html-keyboard-response","111","99982","0.0-111.0","3PDJHANYK62H329MYCRK4LYJ2D2H6M","A3DMSP55I880KW","3566S7OX5D5NH74JOVOPTTMK8IR17K","","null","<img src=""img/land4.png"" style=""width:200px;border:14px solid red;"">","null","","","","","","","","","",""
"","image-keyboard-response","112","101202","0.0-112.0","3PDJHANYK62H329MYCRK4LYJ2D2H6M","A3DMSP55I880KW","3566S7OX5D5NH74JOVOPTTMK8IR17K","","1217.1000001430511","img/land6.png","74","1219.5999999046326","1","0","1","1","0.8,0.2,0.2,0.2,0.8,0.2,0.2,0.2,0.8","0.8,0.2,0.2,0.2,0.8,0.2,0.2,0.2,0.8","1","",""
"","html-keyboard-response","113","101506","0.0-113.0","3PDJHANYK62H329MYCRK4LYJ2D2H6M","A3DMSP55I880KW","3566S7OX5D5NH74JOVOPTTMK8IR17K","","null","<img src=""img/land6.png"" style=""width:200px;border:14px solid red;"">","null","","","","","","","","","",""
"","image-keyboard-response","114","102035","0.0-114.0","3PDJHANYK62H329MYCRK4LYJ2D2H6M","A3DMSP55I880KW","3566S7OX5D5NH74JOVOPTTMK8IR17K","","526.1000001430511","img/land4.png","76","528.6000001430511","3","1","2","1","0.8,0.2,0.2,0.2,0.8,0.2,0.2,0.2,0.8","0.8,0.2,0.2,0.2,0.8,0.2,0.2,0.2,0.8","1","",""
"","html-keyboard-response","115","102339","0.0-115.0","3PDJHANYK62H329MYCRK4LYJ2D2H6M","A3DMSP55I880KW","3566S7OX5D5NH74JOVOPTTMK8IR17K","","null","<img src=""img/land4.png"" style=""width:200px; border:14px solid green;"">","null","","","","","","","","","",""
"","image-keyboard-response","116","102792","0.0-116.0","3PDJHANYK62H329MYCRK4LYJ2D2H6M","A3DMSP55I880KW","3566S7OX5D5NH74JOVOPTTMK8IR17K","","449.90000009536743","img/land4.png","75","452.40000009536743","2","1","2","1","0.8,0.2,0.2,0.2,0.8,0.2,0.2,0.2,0.8","0.8,0.2,0.2,0.2,0.8,0.2,0.2,0.2,0.8","1","",""
"","html-keyboard-response","117","103096","0.0-117.0","3PDJHANYK62H329MYCRK4LYJ2D2H6M","A3DMSP55I880KW","3566S7OX5D5NH74JOVOPTTMK8IR17K","","null","<img src=""img/land4.png"" style=""width:200px; border:14px solid green;"">","null","","","","","","","","","",""
"","image-keyboard-response","118","104001","0.0-118.0","3PDJHANYK62H329MYCRK4LYJ2D2H6M","A3DMSP55I880KW","3566S7OX5D5NH74JOVOPTTMK8IR17K","","903.3999998569489","img/land6.png","74","905","1","1","1","1","0.8,0.2,0.2,0.2,0.8,0.2,0.2,0.2,0.8","0.8,0.2,0.2,0.2,0.8,0.2,0.2,0.2,0.8","1","",""
"","html-keyboard-response","119","104305","0.0-119.0","3PDJHANYK62H329MYCRK4LYJ2D2H6M","A3DMSP55I880KW","3566S7OX5D5NH74JOVOPTTMK8IR17K","","null","<img src=""img/land6.png"" style=""width:200px; border:14px solid green;"">","null","","","","","","","","","",""
"","image-keyboard-response","120","104803","0.0-120.0","3PDJHANYK62H329MYCRK4LYJ2D2H6M","A3DMSP55I880KW","3566S7OX5D5NH74JOVOPTTMK8IR17K","","495.40000009536743","img/land6.png","74","498","1","0","1","1","0.8,0.2,0.2,0.2,0.8,0.2,0.2,0.2,0.8","0.8,0.2,0.2,0.2,0.8,0.2,0.2,0.2,0.8","1","",""
"","html-keyboard-response","121","105107","0.0-121.0","3PDJHANYK62H329MYCRK4LYJ2D2H6M","A3DMSP55I880KW","3566S7OX5D5NH74JOVOPTTMK8IR17K","","null","<img src=""img/land6.png"" style=""width:200px;border:14px solid red;"">","null","","","","","","","","","",""
"","image-keyboard-response","122","105579","0.0-122.0","3PDJHANYK62H329MYCRK4LYJ2D2H6M","A3DMSP55I880KW","3566S7OX5D5NH74JOVOPTTMK8IR17K","","470","img/land6.png","74","472","1","1","1","1","0.8,0.2,0.2,0.2,0.8,0.2,0.2,0.2,0.8","0.8,0.2,0.2,0.2,0.8,0.2,0.2,0.2,0.8","1","",""
"","html-keyboard-response","123","105882","0.0-123.0","3PDJHANYK62H329MYCRK4LYJ2D2H6M","A3DMSP55I880KW","3566S7OX5D5NH74JOVOPTTMK8IR17K","","null","<img src=""img/land6.png"" style=""width:200px; border:14px solid green;"">","null","","","","","","","","","",""
"","image-keyboard-response","124","106228","0.0-124.0","3PDJHANYK62H329MYCRK4LYJ2D2H6M","A3DMSP55I880KW","3566S7OX5D5NH74JOVOPTTMK8IR17K","","343.09999990463257","img/land6.png","74","345.5","1","1","1","1","0.8,0.2,0.2,0.2,0.8,0.2,0.2,0.2,0.8","0.8,0.2,0.2,0.2,0.8,0.2,0.2,0.2,0.8","1","",""
"","html-keyboard-response","125","106532","0.0-125.0","3PDJHANYK62H329MYCRK4LYJ2D2H6M","A3DMSP55I880KW","3566S7OX5D5NH74JOVOPTTMK8IR17K","","null","<img src=""img/land6.png"" style=""width:200px; border:14px solid green;"">","null","","","","","","","","","",""
"","image-keyboard-response","126","107144","0.0-126.0","3PDJHANYK62H329MYCRK4LYJ2D2H6M","A3DMSP55I880KW","3566S7OX5D5NH74JOVOPTTMK8IR17K","","609.2999999523163","img/land4.png","75","611.5","2","1","2","1","0.8,0.2,0.2,0.2,0.8,0.2,0.2,0.2,0.8","0.8,0.2,0.2,0.2,0.8,0.2,0.2,0.2,0.8","1","",""
"","html-keyboard-response","127","107446","0.0-127.0","3PDJHANYK62H329MYCRK4LYJ2D2H6M","A3DMSP55I880KW","3566S7OX5D5NH74JOVOPTTMK8IR17K","","null","<img src=""img/land4.png"" style=""width:200px; border:14px solid green;"">","null","","","","","","","","","",""
"","image-keyboard-response","128","107888","0.0-128.0","3PDJHANYK62H329MYCRK4LYJ2D2H6M","A3DMSP55I880KW","3566S7OX5D5NH74JOVOPTTMK8IR17K","","438.90000009536743","img/land1.png","76","443.40000009536743","3","1","3","1","0.8,0.2,0.2,0.2,0.8,0.2,0.2,0.2,0.8","0.8,0.2,0.2,0.2,0.8,0.2,0.2,0.2,0.8","1","",""
"","html-keyboard-response","129","108196","0.0-129.0","3PDJHANYK62H329MYCRK4LYJ2D2H6M","A3DMSP55I880KW","3566S7OX5D5NH74JOVOPTTMK8IR17K","","null","<img src=""img/land1.png"" style=""width:200px; border:14px solid green;"">","null","","","","","","","","","",""
"","image-keyboard-response","130","108650","0.0-130.0","3PDJHANYK62H329MYCRK4LYJ2D2H6M","A3DMSP55I880KW","3566S7OX5D5NH74JOVOPTTMK8IR17K","","451.09999990463257","img/land6.png","74","453.7000000476837","1","1","1","1","0.8,0.2,0.2,0.2,0.8,0.2,0.2,0.2,0.8","0.8,0.2,0.2,0.2,0.8,0.2,0.2,0.2,0.8","1","",""
"","html-keyboard-response","131","108953","0.0-131.0","3PDJHANYK62H329MYCRK4LYJ2D2H6M","A3DMSP55I880KW","3566S7OX5D5NH74JOVOPTTMK8IR17K","","null","<img src=""img/land6.png"" style=""width:200px; border:14px solid green;"">","null","","","","","","","","","",""
"","image-keyboard-response","132","109633","0.0-132.0","3PDJHANYK62H329MYCRK4LYJ2D2H6M","A3DMSP55I880KW","3566S7OX5D5NH74JOVOPTTMK8IR17K","","677.2000000476837","img/land1.png","76","679.5","3","1","3","1","0.8,0.2,0.2,0.2,0.8,0.2,0.2,0.2,0.8","0.8,0.2,0.2,0.2,0.8,0.2,0.2,0.2,0.8","1","",""
"","html-keyboard-response","133","109937","0.0-133.0","3PDJHANYK62H329MYCRK4LYJ2D2H6M","A3DMSP55I880KW","3566S7OX5D5NH74JOVOPTTMK8IR17K","","null","<img src=""img/land1.png"" style=""width:200px; border:14px solid green;"">","null","","","","","","","","","",""
"","image-keyboard-response","134","110341","0.0-134.0","3PDJHANYK62H329MYCRK4LYJ2D2H6M","A3DMSP55I880KW","3566S7OX5D5NH74JOVOPTTMK8IR17K","","400.59999990463257","img/land1.png","76","403.40000009536743","3","1","3","1","0.8,0.2,0.2,0.2,0.8,0.2,0.2,0.2,0.8","0.8,0.2,0.2,0.2,0.8,0.2,0.2,0.2,0.8","1","",""
"","html-keyboard-response","135","110646","0.0-135.0","3PDJHANYK62H329MYCRK4LYJ2D2H6M","A3DMSP55I880KW","3566S7OX5D5NH74JOVOPTTMK8IR17K","","null","<img src=""img/land1.png"" style=""width:200px; border:14px solid green;"">","null","","","","","","","","","",""
"","image-keyboard-response","136","110933","0.0-136.0","3PDJHANYK62H329MYCRK4LYJ2D2H6M","A3DMSP55I880KW","3566S7OX5D5NH74JOVOPTTMK8IR17K","","283.5","img/land1.png","76","286.10000014305115","3","1","3","1","0.8,0.2,0.2,0.2,0.8,0.2,0.2,0.2,0.8","0.8,0.2,0.2,0.2,0.8,0.2,0.2,0.2,0.8","1","",""
"","html-keyboard-response","137","111236","0.0-137.0","3PDJHANYK62H329MYCRK4LYJ2D2H6M","A3DMSP55I880KW","3566S7OX5D5NH74JOVOPTTMK8IR17K","","null","<img src=""img/land1.png"" style=""width:200px; border:14px solid green;"">","null","","","","","","","","","",""
"","image-keyboard-response","138","111824","0.0-138.0","3PDJHANYK62H329MYCRK4LYJ2D2H6M","A3DMSP55I880KW","3566S7OX5D5NH74JOVOPTTMK8IR17K","","585.0999999046326","img/land4.png","75","587.5999999046326","2","1","2","1","0.8,0.2,0.2,0.2,0.8,0.2,0.2,0.2,0.8","0.8,0.2,0.2,0.2,0.8,0.2,0.2,0.2,0.8","1","",""
"","html-keyboard-response","139","112128","0.0-139.0","3PDJHANYK62H329MYCRK4LYJ2D2H6M","A3DMSP55I880KW","3566S7OX5D5NH74JOVOPTTMK8IR17K","","null","<img src=""img/land4.png"" style=""width:200px; border:14px solid green;"">","null","","","","","","","","","",""
"","image-keyboard-response","140","113073","0.0-140.0","3PDJHANYK62H329MYCRK4LYJ2D2H6M","A3DMSP55I880KW","3566S7OX5D5NH74JOVOPTTMK8IR17K","","941.7000000476837","img/land1.png","76","944.2999999523163","3","0","3","1","0.8,0.2,0.2,0.2,0.8,0.2,0.2,0.2,0.8","0.8,0.2,0.2,0.2,0.8,0.2,0.2,0.2,0.8","1","",""
"","html-keyboard-response","141","113377","0.0-141.0","3PDJHANYK62H329MYCRK4LYJ2D2H6M","A3DMSP55I880KW","3566S7OX5D5NH74JOVOPTTMK8IR17K","","null","<img src=""img/land1.png"" style=""width:200px;border:14px solid red;"">","null","","","","","","","","","",""
"","image-keyboard-response","142","114041","0.0-142.0","3PDJHANYK62H329MYCRK4LYJ2D2H6M","A3DMSP55I880KW","3566S7OX5D5NH74JOVOPTTMK8IR17K","","661.0999999046326","img/land4.png","75","663.5999999046326","2","1","2","1","0.8,0.2,0.2,0.2,0.8,0.2,0.2,0.2,0.8","0.8,0.2,0.2,0.2,0.8,0.2,0.2,0.2,0.8","1","",""
"","html-keyboard-response","143","114346","0.0-143.0","3PDJHANYK62H329MYCRK4LYJ2D2H6M","A3DMSP55I880KW","3566S7OX5D5NH74JOVOPTTMK8IR17K","","null","<img src=""img/land4.png"" style=""width:200px; border:14px solid green;"">","null","","","","","","","","","",""
"","image-keyboard-response","144","114913","0.0-144.0","3PDJHANYK62H329MYCRK4LYJ2D2H6M","A3DMSP55I880KW","3566S7OX5D5NH74JOVOPTTMK8IR17K","","564.5","img/land6.png","74","566.8999998569489","1","0","1","1","0.8,0.2,0.2,0.2,0.8,0.2,0.2,0.2,0.8","0.8,0.2,0.2,0.2,0.8,0.2,0.2,0.2,0.8","1","",""
"","html-keyboard-response","145","115217","0.0-145.0","3PDJHANYK62H329MYCRK4LYJ2D2H6M","A3DMSP55I880KW","3566S7OX5D5NH74JOVOPTTMK8IR17K","","null","<img src=""img/land6.png"" style=""width:200px;border:14px solid red;"">","null","","","","","","","","","",""
"","image-keyboard-response","146","115636","0.0-146.0","3PDJHANYK62H329MYCRK4LYJ2D2H6M","A3DMSP55I880KW","3566S7OX5D5NH74JOVOPTTMK8IR17K","","416.5","img/land6.png","74","418.2999999523163","1","1","1","1","0.8,0.2,0.2,0.2,0.8,0.2,0.2,0.2,0.8","0.8,0.2,0.2,0.2,0.8,0.2,0.2,0.2,0.8","1","",""
"","html-keyboard-response","147","115939","0.0-147.0","3PDJHANYK62H329MYCRK4LYJ2D2H6M","A3DMSP55I880KW","3566S7OX5D5NH74JOVOPTTMK8IR17K","","null","<img src=""img/land6.png"" style=""width:200px; border:14px solid green;"">","null","","","","","","","","","",""
"","image-keyboard-response","148","116577","0.0-148.0","3PDJHANYK62H329MYCRK4LYJ2D2H6M","A3DMSP55I880KW","3566S7OX5D5NH74JOVOPTTMK8IR17K","","635.6999998092651","img/land4.png","75","637.7000000476837","2","1","2","1","0.8,0.2,0.2,0.2,0.8,0.2,0.2,0.2,0.8","0.8,0.2,0.2,0.2,0.8,0.2,0.2,0.2,0.8","1","",""
"","html-keyboard-response","149","116880","0.0-149.0","3PDJHANYK62H329MYCRK4LYJ2D2H6M","A3DMSP55I880KW","3566S7OX5D5NH74JOVOPTTMK8IR17K","","null","<img src=""img/land4.png"" style=""width:200px; border:14px solid green;"">","null","","","","","","","","","",""
"","image-keyboard-response","150","117678","0.0-150.0","3PDJHANYK62H329MYCRK4LYJ2D2H6M","A3DMSP55I880KW","3566S7OX5D5NH74JOVOPTTMK8IR17K","","794.0999999046326","img/land6.png","76","797.2000000476837","3","1","1","1","0.8,0.2,0.2,0.2,0.8,0.2,0.2,0.2,0.8","0.8,0.2,0.2,0.2,0.8,0.2,0.2,0.2,0.8","1","",""
"","html-keyboard-response","151","117981","0.0-151.0","3PDJHANYK62H329MYCRK4LYJ2D2H6M","A3DMSP55I880KW","3566S7OX5D5NH74JOVOPTTMK8IR17K","","null","<img src=""img/land6.png"" style=""width:200px; border:14px solid green;"">","null","","","","","","","","","",""
"","image-keyboard-response","152","118626","0.0-152.0","3PDJHANYK62H329MYCRK4LYJ2D2H6M","A3DMSP55I880KW","3566S7OX5D5NH74JOVOPTTMK8IR17K","","641","img/land4.png","75","643.7000000476837","2","1","2","1","0.8,0.2,0.2,0.2,0.8,0.2,0.2,0.2,0.8","0.8,0.2,0.2,0.2,0.8,0.2,0.2,0.2,0.8","1","",""
"","html-keyboard-response","153","118929","0.0-153.0","3PDJHANYK62H329MYCRK4LYJ2D2H6M","A3DMSP55I880KW","3566S7OX5D5NH74JOVOPTTMK8IR17K","","null","<img src=""img/land4.png"" style=""width:200px; border:14px solid green;"">","null","","","","","","","","","",""
"","image-keyboard-response","154","119522","0.0-154.0","3PDJHANYK62H329MYCRK4LYJ2D2H6M","A3DMSP55I880KW","3566S7OX5D5NH74JOVOPTTMK8IR17K","","590.2000000476837","img/land6.png","76","592.5999999046326","3","0","1","1","0.8,0.2,0.2,0.2,0.8,0.2,0.2,0.2,0.8","0.8,0.2,0.2,0.2,0.8,0.2,0.2,0.2,0.8","1","",""
"","html-keyboard-response","155","119827","0.0-155.0","3PDJHANYK62H329MYCRK4LYJ2D2H6M","A3DMSP55I880KW","3566S7OX5D5NH74JOVOPTTMK8IR17K","","null","<img src=""img/land6.png"" style=""width:200px;border:14px solid red;"">","null","","","","","","","","","",""
"","image-keyboard-response","156","120254","0.0-156.0","3PDJHANYK62H329MYCRK4LYJ2D2H6M","A3DMSP55I880KW","3566S7OX5D5NH74JOVOPTTMK8IR17K","","425","img/land6.png","76","427.5","3","0","1","1","0.8,0.2,0.2,0.2,0.8,0.2,0.2,0.2,0.8","0.8,0.2,0.2,0.2,0.8,0.2,0.2,0.2,0.8","1","",""
"","html-keyboard-response","157","120559","0.0-157.0","3PDJHANYK62H329MYCRK4LYJ2D2H6M","A3DMSP55I880KW","3566S7OX5D5NH74JOVOPTTMK8IR17K","","null","<img src=""img/land6.png"" style=""width:200px;border:14px solid red;"">","null","","","","","","","","","",""
"","image-keyboard-response","158","120861","0.0-158.0","3PDJHANYK62H329MYCRK4LYJ2D2H6M","A3DMSP55I880KW","3566S7OX5D5NH74JOVOPTTMK8IR17K","","299.69999980926514","img/land6.png","76","302.2999999523163","3","1","1","1","0.8,0.2,0.2,0.2,0.8,0.2,0.2,0.2,0.8","0.8,0.2,0.2,0.2,0.8,0.2,0.2,0.2,0.8","1","",""
"","html-keyboard-response","159","121165","0.0-159.0","3PDJHANYK62H329MYCRK4LYJ2D2H6M","A3DMSP55I880KW","3566S7OX5D5NH74JOVOPTTMK8IR17K","","null","<img src=""img/land6.png"" style=""width:200px; border:14px solid green;"">","null","","","","","","","","","",""
"","image-keyboard-response","160","121829","0.0-160.0","3PDJHANYK62H329MYCRK4LYJ2D2H6M","A3DMSP55I880KW","3566S7OX5D5NH74JOVOPTTMK8IR17K","","661.5999999046326","img/land4.png","75","664.1000001430511","2","1","2","1","0.8,0.2,0.2,0.2,0.8,0.2,0.2,0.2,0.8","0.8,0.2,0.2,0.2,0.8,0.2,0.2,0.2,0.8","1","",""
"","html-keyboard-response","161","122132","0.0-161.0","3PDJHANYK62H329MYCRK4LYJ2D2H6M","A3DMSP55I880KW","3566S7OX5D5NH74JOVOPTTMK8IR17K","","null","<img src=""img/land4.png"" style=""width:200px; border:14px solid green;"">","null","","","","","","","","","",""
"","image-keyboard-response","162","122612","0.0-162.0","3PDJHANYK62H329MYCRK4LYJ2D2H6M","A3DMSP55I880KW","3566S7OX5D5NH74JOVOPTTMK8IR17K","","476.5","img/land4.png","76","478.90000009536743","3","0","2","1","0.8,0.2,0.2,0.2,0.8,0.2,0.2,0.2,0.8","0.8,0.2,0.2,0.2,0.8,0.2,0.2,0.2,0.8","1","",""
"","html-keyboard-response","163","122916","0.0-163.0","3PDJHANYK62H329MYCRK4LYJ2D2H6M","A3DMSP55I880KW","3566S7OX5D5NH74JOVOPTTMK8IR17K","","null","<img src=""img/land4.png"" style=""width:200px;border:14px solid red;"">","null","","","","","","","","","",""
"","image-keyboard-response","164","123484","0.0-164.0","3PDJHANYK62H329MYCRK4LYJ2D2H6M","A3DMSP55I880KW","3566S7OX5D5NH74JOVOPTTMK8IR17K","","565.4000000953674","img/land1.png","74","567.9000000953674","1","0","3","1","0.8,0.2,0.2,0.2,0.8,0.2,0.2,0.2,0.8","0.8,0.2,0.2,0.2,0.8,0.2,0.2,0.2,0.8","1","",""
"","html-keyboard-response","165","123788","0.0-165.0","3PDJHANYK62H329MYCRK4LYJ2D2H6M","A3DMSP55I880KW","3566S7OX5D5NH74JOVOPTTMK8IR17K","","null","<img src=""img/land1.png"" style=""width:200px;border:14px solid red;"">","null","","","","","","","","","",""
"","image-keyboard-response","166","124272","0.0-166.0","3PDJHANYK62H329MYCRK4LYJ2D2H6M","A3DMSP55I880KW","3566S7OX5D5NH74JOVOPTTMK8IR17K","","480.2999999523163","img/land6.png","75","482.7999999523163","2","0","1","1","0.8,0.2,0.2,0.2,0.8,0.2,0.2,0.2,0.8","0.8,0.2,0.2,0.2,0.8,0.2,0.2,0.2,0.8","1","",""
"","html-keyboard-response","167","124576","0.0-167.0","3PDJHANYK62H329MYCRK4LYJ2D2H6M","A3DMSP55I880KW","3566S7OX5D5NH74JOVOPTTMK8IR17K","","null","<img src=""img/land6.png"" style=""width:200px;border:14px solid red;"">","null","","","","","","","","","",""
"","image-keyboard-response","168","124995","0.0-168.0","3PDJHANYK62H329MYCRK4LYJ2D2H6M","A3DMSP55I880KW","3566S7OX5D5NH74JOVOPTTMK8IR17K","","417.09999990463257","img/land6.png","75","418.7000000476837","2","0","1","1","0.8,0.2,0.2,0.2,0.8,0.2,0.2,0.2,0.8","0.8,0.2,0.2,0.2,0.8,0.2,0.2,0.2,0.8","1","",""
"","html-keyboard-response","169","125299","0.0-169.0","3PDJHANYK62H329MYCRK4LYJ2D2H6M","A3DMSP55I880KW","3566S7OX5D5NH74JOVOPTTMK8IR17K","","null","<img src=""img/land6.png"" style=""width:200px;border:14px solid red;"">","null","","","","","","","","","",""
"","image-keyboard-response","170","125936","0.0-170.0","3PDJHANYK62H329MYCRK4LYJ2D2H6M","A3DMSP55I880KW","3566S7OX5D5NH74JOVOPTTMK8IR17K","","635","img/land4.png","75","637.5","2","1","2","1","0.8,0.2,0.2,0.2,0.8,0.2,0.2,0.2,0.8","0.8,0.2,0.2,0.2,0.8,0.2,0.2,0.2,0.8","1","",""
"","html-keyboard-response","171","126241","0.0-171.0","3PDJHANYK62H329MYCRK4LYJ2D2H6M","A3DMSP55I880KW","3566S7OX5D5NH74JOVOPTTMK8IR17K","","null","<img src=""img/land4.png"" style=""width:200px; border:14px solid green;"">","null","","","","","","","","","",""
"","image-keyboard-response","172","127090","0.0-172.0","3PDJHANYK62H329MYCRK4LYJ2D2H6M","A3DMSP55I880KW","3566S7OX5D5NH74JOVOPTTMK8IR17K","","845.5999999046326","img/land1.png","76","848.7999999523163","3","1","3","1","0.8,0.2,0.2,0.2,0.8,0.2,0.2,0.2,0.8","0.8,0.2,0.2,0.2,0.8,0.2,0.2,0.2,0.8","1","",""
"","html-keyboard-response","173","127394","0.0-173.0","3PDJHANYK62H329MYCRK4LYJ2D2H6M","A3DMSP55I880KW","3566S7OX5D5NH74JOVOPTTMK8IR17K","","null","<img src=""img/land1.png"" style=""width:200px; border:14px solid green;"">","null","","","","","","","","","",""
"","image-keyboard-response","174","128034","0.0-174.0","3PDJHANYK62H329MYCRK4LYJ2D2H6M","A3DMSP55I880KW","3566S7OX5D5NH74JOVOPTTMK8IR17K","","637.4000000953674","img/land6.png","74","639.2000000476837","1","1","1","1","0.8,0.2,0.2,0.2,0.8,0.2,0.2,0.2,0.8","0.8,0.2,0.2,0.2,0.8,0.2,0.2,0.2,0.8","1","",""
"","html-keyboard-response","175","128337","0.0-175.0","3PDJHANYK62H329MYCRK4LYJ2D2H6M","A3DMSP55I880KW","3566S7OX5D5NH74JOVOPTTMK8IR17K","","null","<img src=""img/land6.png"" style=""width:200px; border:14px solid green;"">","null","","","","","","","","","",""
"","image-keyboard-response","176","128831","0.0-176.0","3PDJHANYK62H329MYCRK4LYJ2D2H6M","A3DMSP55I880KW","3566S7OX5D5NH74JOVOPTTMK8IR17K","","490.7000000476837","img/land1.png","75","493.19999980926514","2","0","3","1","0.8,0.2,0.2,0.2,0.8,0.2,0.2,0.2,0.8","0.8,0.2,0.2,0.2,0.8,0.2,0.2,0.2,0.8","1","",""
"","html-keyboard-response","177","129134","0.0-177.0","3PDJHANYK62H329MYCRK4LYJ2D2H6M","A3DMSP55I880KW","3566S7OX5D5NH74JOVOPTTMK8IR17K","","null","<img src=""img/land1.png"" style=""width:200px;border:14px solid red;"">","null","","","","","","","","","",""
"","image-keyboard-response","178","129653","0.0-178.0","3PDJHANYK62H329MYCRK4LYJ2D2H6M","A3DMSP55I880KW","3566S7OX5D5NH74JOVOPTTMK8IR17K","","515.3999998569489","img/land1.png","76","518","3","0","3","1","0.8,0.2,0.2,0.2,0.8,0.2,0.2,0.2,0.8","0.8,0.2,0.2,0.2,0.8,0.2,0.2,0.2,0.8","1","",""
"","html-keyboard-response","179","129956","0.0-179.0","3PDJHANYK62H329MYCRK4LYJ2D2H6M","A3DMSP55I880KW","3566S7OX5D5NH74JOVOPTTMK8IR17K","","null","<img src=""img/land1.png"" style=""width:200px;border:14px solid red;"">","null","","","","","","","","","",""
"","image-keyboard-response","180","130585","0.0-180.0","3PDJHANYK62H329MYCRK4LYJ2D2H6M","A3DMSP55I880KW","3566S7OX5D5NH74JOVOPTTMK8IR17K","","625.8999998569489","img/land6.png","75","629.4000000953674","2","1","1","1","0.8,0.2,0.2,0.2,0.8,0.2,0.2,0.2,0.8","0.8,0.2,0.2,0.2,0.8,0.2,0.2,0.2,0.8","1","",""
"","html-keyboard-response","181","130889","0.0-181.0","3PDJHANYK62H329MYCRK4LYJ2D2H6M","A3DMSP55I880KW","3566S7OX5D5NH74JOVOPTTMK8IR17K","","null","<img src=""img/land6.png"" style=""width:200px; border:14px solid green;"">","null","","","","","","","","","",""
"","html-keyboard-response","182","133973","0.0-182.0","3PDJHANYK62H329MYCRK4LYJ2D2H6M","A3DMSP55I880KW","3566S7OX5D5NH74JOVOPTTMK8IR17K","","","","","","","","","","","","","",""
"","image-keyboard-response","183","135736","0.0-183.0","3PDJHANYK62H329MYCRK4LYJ2D2H6M","A3DMSP55I880KW","3566S7OX5D5NH74JOVOPTTMK8IR17K","","1755.7999999523163","img/land5.png","74","1762.0999999046326","1","0","1","2","0.8,0.2,0.2,0.2,0.8,0.2,0.2,0.2,0.8","0.2,0.8,0.2,0.2,0.2,0.8,0.8,0.2,0.2","3","",""
"","html-keyboard-response","184","136040","0.0-184.0","3PDJHANYK62H329MYCRK4LYJ2D2H6M","A3DMSP55I880KW","3566S7OX5D5NH74JOVOPTTMK8IR17K","","null","<img src=""img/land5.png"" style=""width:200px;border:14px solid red;"">","null","","","","","","","","","",""
"","image-keyboard-response","185","136717","0.0-185.0","3PDJHANYK62H329MYCRK4LYJ2D2H6M","A3DMSP55I880KW","3566S7OX5D5NH74JOVOPTTMK8IR17K","","674.0999999046326","img/land5.png","75","677.1000001430511","2","1","1","2","0.8,0.2,0.2,0.2,0.8,0.2,0.2,0.2,0.8","0.2,0.8,0.2,0.2,0.2,0.8,0.8,0.2,0.2","3","",""
"","html-keyboard-response","186","137020","0.0-186.0","3PDJHANYK62H329MYCRK4LYJ2D2H6M","A3DMSP55I880KW","3566S7OX5D5NH74JOVOPTTMK8IR17K","","null","<img src=""img/land5.png"" style=""width:200px; border:14px solid green;"">","null","","","","","","","","","",""
"","image-keyboard-response","187","137330","0.0-187.0","3PDJHANYK62H329MYCRK4LYJ2D2H6M","A3DMSP55I880KW","3566S7OX5D5NH74JOVOPTTMK8IR17K","","307.60000014305115","img/land5.png","75","310.30000019073486","2","1","1","2","0.8,0.2,0.2,0.2,0.8,0.2,0.2,0.2,0.8","0.2,0.8,0.2,0.2,0.2,0.8,0.8,0.2,0.2","3","",""
"","html-keyboard-response","188","137648","0.0-188.0","3PDJHANYK62H329MYCRK4LYJ2D2H6M","A3DMSP55I880KW","3566S7OX5D5NH74JOVOPTTMK8IR17K","","null","<img src=""img/land5.png"" style=""width:200px; border:14px solid green;"">","null","","","","","","","","","",""
"","image-keyboard-response","189","137938","0.0-189.0","3PDJHANYK62H329MYCRK4LYJ2D2H6M","A3DMSP55I880KW","3566S7OX5D5NH74JOVOPTTMK8IR17K","","284.60000014305115","img/land3.png","75","287.89999985694885","2","0","3","2","0.8,0.2,0.2,0.2,0.8,0.2,0.2,0.2,0.8","0.2,0.8,0.2,0.2,0.2,0.8,0.8,0.2,0.2","3","",""
"","html-keyboard-response","190","138242","0.0-190.0","3PDJHANYK62H329MYCRK4LYJ2D2H6M","A3DMSP55I880KW","3566S7OX5D5NH74JOVOPTTMK8IR17K","","null","<img src=""img/land3.png"" style=""width:200px;border:14px solid red;"">","null","","","","","","","","","",""
"","image-keyboard-response","191","138464","0.0-191.0","3PDJHANYK62H329MYCRK4LYJ2D2H6M","A3DMSP55I880KW","3566S7OX5D5NH74JOVOPTTMK8IR17K","","218.60000014305115","img/land3.png","76","221.29999995231628","3","0","3","2","0.8,0.2,0.2,0.2,0.8,0.2,0.2,0.2,0.8","0.2,0.8,0.2,0.2,0.2,0.8,0.8,0.2,0.2","3","",""
"","html-keyboard-response","192","138768","0.0-192.0","3PDJHANYK62H329MYCRK4LYJ2D2H6M","A3DMSP55I880KW","3566S7OX5D5NH74JOVOPTTMK8IR17K","","null","<img src=""img/land3.png"" style=""width:200px;border:14px solid red;"">","null","","","","","","","","","",""
"","image-keyboard-response","193","139096","0.0-193.0","3PDJHANYK62H329MYCRK4LYJ2D2H6M","A3DMSP55I880KW","3566S7OX5D5NH74JOVOPTTMK8IR17K","","325.09999990463257","img/land3.png","74","327.90000009536743","1","1","3","2","0.8,0.2,0.2,0.2,0.8,0.2,0.2,0.2,0.8","0.2,0.8,0.2,0.2,0.2,0.8,0.8,0.2,0.2","3","",""
"","html-keyboard-response","194","139400","0.0-194.0","3PDJHANYK62H329MYCRK4LYJ2D2H6M","A3DMSP55I880KW","3566S7OX5D5NH74JOVOPTTMK8IR17K","","null","<img src=""img/land3.png"" style=""width:200px; border:14px solid green;"">","null","","","","","","","","","",""
"","image-keyboard-response","195","139694","0.0-195.0","3PDJHANYK62H329MYCRK4LYJ2D2H6M","A3DMSP55I880KW","3566S7OX5D5NH74JOVOPTTMK8IR17K","","289.2999999523163","img/land3.png","74","292.5","1","1","3","2","0.8,0.2,0.2,0.2,0.8,0.2,0.2,0.2,0.8","0.2,0.8,0.2,0.2,0.2,0.8,0.8,0.2,0.2","3","",""
"","html-keyboard-response","196","139997","0.0-196.0","3PDJHANYK62H329MYCRK4LYJ2D2H6M","A3DMSP55I880KW","3566S7OX5D5NH74JOVOPTTMK8IR17K","","null","<img src=""img/land3.png"" style=""width:200px; border:14px solid green;"">","null","","","","","","","","","",""
"","image-keyboard-response","197","140585","0.0-197.0","3PDJHANYK62H329MYCRK4LYJ2D2H6M","A3DMSP55I880KW","3566S7OX5D5NH74JOVOPTTMK8IR17K","","585.5","img/land5.png","75","588","2","1","1","2","0.8,0.2,0.2,0.2,0.8,0.2,0.2,0.2,0.8","0.2,0.8,0.2,0.2,0.2,0.8,0.8,0.2,0.2","3","",""
"","html-keyboard-response","198","140890","0.0-198.0","3PDJHANYK62H329MYCRK4LYJ2D2H6M","A3DMSP55I880KW","3566S7OX5D5NH74JOVOPTTMK8IR17K","","null","<img src=""img/land5.png"" style=""width:200px; border:14px solid green;"">","null","","","","","","","","","",""
"","image-keyboard-response","199","141167","0.0-199.0","3PDJHANYK62H329MYCRK4LYJ2D2H6M","A3DMSP55I880KW","3566S7OX5D5NH74JOVOPTTMK8IR17K","","273.10000014305115","img/land5.png","75","276.39999985694885","2","1","1","2","0.8,0.2,0.2,0.2,0.8,0.2,0.2,0.2,0.8","0.2,0.8,0.2,0.2,0.2,0.8,0.8,0.2,0.2","3","",""
"","html-keyboard-response","200","141470","0.0-200.0","3PDJHANYK62H329MYCRK4LYJ2D2H6M","A3DMSP55I880KW","3566S7OX5D5NH74JOVOPTTMK8IR17K","","null","<img src=""img/land5.png"" style=""width:200px; border:14px solid green;"">","null","","","","","","","","","",""
"","image-keyboard-response","201","141719","0.0-201.0","3PDJHANYK62H329MYCRK4LYJ2D2H6M","A3DMSP55I880KW","3566S7OX5D5NH74JOVOPTTMK8IR17K","","245.5","img/land5.png","75","247.90000009536743","2","1","1","2","0.8,0.2,0.2,0.2,0.8,0.2,0.2,0.2,0.8","0.2,0.8,0.2,0.2,0.2,0.8,0.8,0.2,0.2","3","",""
"","html-keyboard-response","202","142022","0.0-202.0","3PDJHANYK62H329MYCRK4LYJ2D2H6M","A3DMSP55I880KW","3566S7OX5D5NH74JOVOPTTMK8IR17K","","null","<img src=""img/land5.png"" style=""width:200px; border:14px solid green;"">","null","","","","","","","","","",""
"","image-keyboard-response","203","142255","0.0-203.0","3PDJHANYK62H329MYCRK4LYJ2D2H6M","A3DMSP55I880KW","3566S7OX5D5NH74JOVOPTTMK8IR17K","","228.40000009536743","img/land5.png","75","232.40000009536743","2","0","1","2","0.8,0.2,0.2,0.2,0.8,0.2,0.2,0.2,0.8","0.2,0.8,0.2,0.2,0.2,0.8,0.8,0.2,0.2","3","",""
"","html-keyboard-response","204","142560","0.0-204.0","3PDJHANYK62H329MYCRK4LYJ2D2H6M","A3DMSP55I880KW","3566S7OX5D5NH74JOVOPTTMK8IR17K","","null","<img src=""img/land5.png"" style=""width:200px;border:14px solid red;"">","null","","","","","","","","","",""
"","image-keyboard-response","205","143263","0.0-205.0","3PDJHANYK62H329MYCRK4LYJ2D2H6M","A3DMSP55I880KW","3566S7OX5D5NH74JOVOPTTMK8IR17K","","700.5","img/land2.png","76","703.0999999046326","3","1","2","2","0.8,0.2,0.2,0.2,0.8,0.2,0.2,0.2,0.8","0.2,0.8,0.2,0.2,0.2,0.8,0.8,0.2,0.2","3","",""
"","html-keyboard-response","206","143567","0.0-206.0","3PDJHANYK62H329MYCRK4LYJ2D2H6M","A3DMSP55I880KW","3566S7OX5D5NH74JOVOPTTMK8IR17K","","null","<img src=""img/land2.png"" style=""width:200px; border:14px solid green;"">","null","","","","","","","","","",""
"","image-keyboard-response","207","144327","0.0-207.0","3PDJHANYK62H329MYCRK4LYJ2D2H6M","A3DMSP55I880KW","3566S7OX5D5NH74JOVOPTTMK8IR17K","","757.7000000476837","img/land3.png","74","759.4000000953674","1","0","3","2","0.8,0.2,0.2,0.2,0.8,0.2,0.2,0.2,0.8","0.2,0.8,0.2,0.2,0.2,0.8,0.8,0.2,0.2","3","",""
"","html-keyboard-response","208","144632","0.0-208.0","3PDJHANYK62H329MYCRK4LYJ2D2H6M","A3DMSP55I880KW","3566S7OX5D5NH74JOVOPTTMK8IR17K","","null","<img src=""img/land3.png"" style=""width:200px;border:14px solid red;"">","null","","","","","","","","","",""
"","image-keyboard-response","209","145474","0.0-209.0","3PDJHANYK62H329MYCRK4LYJ2D2H6M","A3DMSP55I880KW","3566S7OX5D5NH74JOVOPTTMK8IR17K","","839.1000001430511","img/land5.png","75","841.5999999046326","2","1","1","2","0.8,0.2,0.2,0.2,0.8,0.2,0.2,0.2,0.8","0.2,0.8,0.2,0.2,0.2,0.8,0.8,0.2,0.2","3","",""
"","html-keyboard-response","210","145778","0.0-210.0","3PDJHANYK62H329MYCRK4LYJ2D2H6M","A3DMSP55I880KW","3566S7OX5D5NH74JOVOPTTMK8IR17K","","null","<img src=""img/land5.png"" style=""width:200px; border:14px solid green;"">","null","","","","","","","","","",""
"","image-keyboard-response","211","146297","0.0-211.0","3PDJHANYK62H329MYCRK4LYJ2D2H6M","A3DMSP55I880KW","3566S7OX5D5NH74JOVOPTTMK8IR17K","","516.3000001907349","img/land5.png","75","519","2","1","1","2","0.8,0.2,0.2,0.2,0.8,0.2,0.2,0.2,0.8","0.2,0.8,0.2,0.2,0.2,0.8,0.8,0.2,0.2","3","",""
"","html-keyboard-response","212","146601","0.0-212.0","3PDJHANYK62H329MYCRK4LYJ2D2H6M","A3DMSP55I880KW","3566S7OX5D5NH74JOVOPTTMK8IR17K","","null","<img src=""img/land5.png"" style=""width:200px; border:14px solid green;"">","null","","","","","","","","","",""
"","image-keyboard-response","213","146864","0.0-213.0","3PDJHANYK62H329MYCRK4LYJ2D2H6M","A3DMSP55I880KW","3566S7OX5D5NH74JOVOPTTMK8IR17K","","259.7999999523163","img/land5.png","75","262.40000009536743","2","1","1","2","0.8,0.2,0.2,0.2,0.8,0.2,0.2,0.2,0.8","0.2,0.8,0.2,0.2,0.2,0.8,0.8,0.2,0.2","3","",""
"","html-keyboard-response","214","147168","0.0-214.0","3PDJHANYK62H329MYCRK4LYJ2D2H6M","A3DMSP55I880KW","3566S7OX5D5NH74JOVOPTTMK8IR17K","","null","<img src=""img/land5.png"" style=""width:200px; border:14px solid green;"">","null","","","","","","","","","",""
"","image-keyboard-response","215","147982","0.0-215.0","3PDJHANYK62H329MYCRK4LYJ2D2H6M","A3DMSP55I880KW","3566S7OX5D5NH74JOVOPTTMK8IR17K","","811.5","img/land2.png","76","814","3","1","2","2","0.8,0.2,0.2,0.2,0.8,0.2,0.2,0.2,0.8","0.2,0.8,0.2,0.2,0.2,0.8,0.8,0.2,0.2","3","",""
"","html-keyboard-response","216","148286","0.0-216.0","3PDJHANYK62H329MYCRK4LYJ2D2H6M","A3DMSP55I880KW","3566S7OX5D5NH74JOVOPTTMK8IR17K","","null","<img src=""img/land2.png"" style=""width:200px; border:14px solid green;"">","null","","","","","","","","","",""
"","image-keyboard-response","217","149142","0.0-217.0","3PDJHANYK62H329MYCRK4LYJ2D2H6M","A3DMSP55I880KW","3566S7OX5D5NH74JOVOPTTMK8IR17K","","852.3000001907349","img/land5.png","75","855.5","2","0","1","2","0.8,0.2,0.2,0.2,0.8,0.2,0.2,0.2,0.8","0.2,0.8,0.2,0.2,0.2,0.8,0.8,0.2,0.2","3","",""
"","html-keyboard-response","218","149446","0.0-218.0","3PDJHANYK62H329MYCRK4LYJ2D2H6M","A3DMSP55I880KW","3566S7OX5D5NH74JOVOPTTMK8IR17K","","null","<img src=""img/land5.png"" style=""width:200px;border:14px solid red;"">","null","","","","","","","","","",""
"","image-keyboard-response","219","150219","0.0-219.0","3PDJHANYK62H329MYCRK4LYJ2D2H6M","A3DMSP55I880KW","3566S7OX5D5NH74JOVOPTTMK8IR17K","","770.1999998092651","img/land2.png","76","772.7000000476837","3","1","2","2","0.8,0.2,0.2,0.2,0.8,0.2,0.2,0.2,0.8","0.2,0.8,0.2,0.2,0.2,0.8,0.8,0.2,0.2","3","",""
"","html-keyboard-response","220","150523","0.0-220.0","3PDJHANYK62H329MYCRK4LYJ2D2H6M","A3DMSP55I880KW","3566S7OX5D5NH74JOVOPTTMK8IR17K","","null","<img src=""img/land2.png"" style=""width:200px; border:14px solid green;"">","null","","","","","","","","","",""
"","image-keyboard-response","221","151258","0.0-221.0","3PDJHANYK62H329MYCRK4LYJ2D2H6M","A3DMSP55I880KW","3566S7OX5D5NH74JOVOPTTMK8IR17K","","730.2000000476837","img/land3.png","74","734.7000000476837","1","1","3","2","0.8,0.2,0.2,0.2,0.8,0.2,0.2,0.2,0.8","0.2,0.8,0.2,0.2,0.2,0.8,0.8,0.2,0.2","3","",""
"","html-keyboard-response","222","151562","0.0-222.0","3PDJHANYK62H329MYCRK4LYJ2D2H6M","A3DMSP55I880KW","3566S7OX5D5NH74JOVOPTTMK8IR17K","","null","<img src=""img/land3.png"" style=""width:200px; border:14px solid green;"">","null","","","","","","","","","",""
"","image-keyboard-response","223","151954","0.0-223.0","3PDJHANYK62H329MYCRK4LYJ2D2H6M","A3DMSP55I880KW","3566S7OX5D5NH74JOVOPTTMK8IR17K","","389.39999985694885","img/land3.png","74","391.7999999523163","1","1","3","2","0.8,0.2,0.2,0.2,0.8,0.2,0.2,0.2,0.8","0.2,0.8,0.2,0.2,0.2,0.8,0.8,0.2,0.2","3","",""
"","html-keyboard-response","224","152259","0.0-224.0","3PDJHANYK62H329MYCRK4LYJ2D2H6M","A3DMSP55I880KW","3566S7OX5D5NH74JOVOPTTMK8IR17K","","null","<img src=""img/land3.png"" style=""width:200px; border:14px solid green;"">","null","","","","","","","","","",""
"","image-keyboard-response","225","152932","0.0-225.0","3PDJHANYK62H329MYCRK4LYJ2D2H6M","A3DMSP55I880KW","3566S7OX5D5NH74JOVOPTTMK8IR17K","","670.6000001430511","img/land5.png","75","673.1999998092651","2","0","1","2","0.8,0.2,0.2,0.2,0.8,0.2,0.2,0.2,0.8","0.2,0.8,0.2,0.2,0.2,0.8,0.8,0.2,0.2","3","",""
"","html-keyboard-response","226","153236","0.0-226.0","3PDJHANYK62H329MYCRK4LYJ2D2H6M","A3DMSP55I880KW","3566S7OX5D5NH74JOVOPTTMK8IR17K","","null","<img src=""img/land5.png"" style=""width:200px;border:14px solid red;"">","null","","","","","","","","","",""
"","image-keyboard-response","227","153509","0.0-227.0","3PDJHANYK62H329MYCRK4LYJ2D2H6M","A3DMSP55I880KW","3566S7OX5D5NH74JOVOPTTMK8IR17K","","269.90000009536743","img/land5.png","75","272.40000009536743","2","1","1","2","0.8,0.2,0.2,0.2,0.8,0.2,0.2,0.2,0.8","0.2,0.8,0.2,0.2,0.2,0.8,0.8,0.2,0.2","3","",""
"","html-keyboard-response","228","153813","0.0-228.0","3PDJHANYK62H329MYCRK4LYJ2D2H6M","A3DMSP55I880KW","3566S7OX5D5NH74JOVOPTTMK8IR17K","","null","<img src=""img/land5.png"" style=""width:200px; border:14px solid green;"">","null","","","","","","","","","",""
"","image-keyboard-response","229","154411","0.0-229.0","3PDJHANYK62H329MYCRK4LYJ2D2H6M","A3DMSP55I880KW","3566S7OX5D5NH74JOVOPTTMK8IR17K","","595.2999999523163","img/land2.png","76","597.7999999523163","3","1","2","2","0.8,0.2,0.2,0.2,0.8,0.2,0.2,0.2,0.8","0.2,0.8,0.2,0.2,0.2,0.8,0.8,0.2,0.2","3","",""
"","html-keyboard-response","230","154714","0.0-230.0","3PDJHANYK62H329MYCRK4LYJ2D2H6M","A3DMSP55I880KW","3566S7OX5D5NH74JOVOPTTMK8IR17K","","null","<img src=""img/land2.png"" style=""width:200px; border:14px solid green;"">","null","","","","","","","","","",""
"","image-keyboard-response","231","155289","0.0-231.0","3PDJHANYK62H329MYCRK4LYJ2D2H6M","A3DMSP55I880KW","3566S7OX5D5NH74JOVOPTTMK8IR17K","","571.6000001430511","img/land5.png","75","574.0999999046326","2","1","1","2","0.8,0.2,0.2,0.2,0.8,0.2,0.2,0.2,0.8","0.2,0.8,0.2,0.2,0.2,0.8,0.8,0.2,0.2","3","",""
"","html-keyboard-response","232","155594","0.0-232.0","3PDJHANYK62H329MYCRK4LYJ2D2H6M","A3DMSP55I880KW","3566S7OX5D5NH74JOVOPTTMK8IR17K","","null","<img src=""img/land5.png"" style=""width:200px; border:14px solid green;"">","null","","","","","","","","","",""
"","image-keyboard-response","233","155936","0.0-233.0","3PDJHANYK62H329MYCRK4LYJ2D2H6M","A3DMSP55I880KW","3566S7OX5D5NH74JOVOPTTMK8IR17K","","339.2999999523163","img/land5.png","75","341.69999980926514","2","1","1","2","0.8,0.2,0.2,0.2,0.8,0.2,0.2,0.2,0.8","0.2,0.8,0.2,0.2,0.2,0.8,0.8,0.2,0.2","3","",""
"","html-keyboard-response","234","156240","0.0-234.0","3PDJHANYK62H329MYCRK4LYJ2D2H6M","A3DMSP55I880KW","3566S7OX5D5NH74JOVOPTTMK8IR17K","","null","<img src=""img/land5.png"" style=""width:200px; border:14px solid green;"">","null","","","","","","","","","",""
"","image-keyboard-response","235","156502","0.0-235.0","3PDJHANYK62H329MYCRK4LYJ2D2H6M","A3DMSP55I880KW","3566S7OX5D5NH74JOVOPTTMK8IR17K","","259","img/land5.png","75","261.7999999523163","2","1","1","2","0.8,0.2,0.2,0.2,0.8,0.2,0.2,0.2,0.8","0.2,0.8,0.2,0.2,0.2,0.8,0.8,0.2,0.2","3","",""
"","html-keyboard-response","236","156806","0.0-236.0","3PDJHANYK62H329MYCRK4LYJ2D2H6M","A3DMSP55I880KW","3566S7OX5D5NH74JOVOPTTMK8IR17K","","null","<img src=""img/land5.png"" style=""width:200px; border:14px solid green;"">","null","","","","","","","","","",""
"","image-keyboard-response","237","157556","0.0-237.0","3PDJHANYK62H329MYCRK4LYJ2D2H6M","A3DMSP55I880KW","3566S7OX5D5NH74JOVOPTTMK8IR17K","","746.1000001430511","img/land2.png","76","749.6000001430511","3","1","2","2","0.8,0.2,0.2,0.2,0.8,0.2,0.2,0.2,0.8","0.2,0.8,0.2,0.2,0.2,0.8,0.8,0.2,0.2","3","",""
"","html-keyboard-response","238","157860","0.0-238.0","3PDJHANYK62H329MYCRK4LYJ2D2H6M","A3DMSP55I880KW","3566S7OX5D5NH74JOVOPTTMK8IR17K","","null","<img src=""img/land2.png"" style=""width:200px; border:14px solid green;"">","null","","","","","","","","","",""
"","image-keyboard-response","239","158328","0.0-239.0","3PDJHANYK62H329MYCRK4LYJ2D2H6M","A3DMSP55I880KW","3566S7OX5D5NH74JOVOPTTMK8IR17K","","465.2000000476837","img/land3.png","74","467.80000019073486","1","1","3","2","0.8,0.2,0.2,0.2,0.8,0.2,0.2,0.2,0.8","0.2,0.8,0.2,0.2,0.2,0.8,0.8,0.2,0.2","3","",""
"","html-keyboard-response","240","158632","0.0-240.0","3PDJHANYK62H329MYCRK4LYJ2D2H6M","A3DMSP55I880KW","3566S7OX5D5NH74JOVOPTTMK8IR17K","","null","<img src=""img/land3.png"" style=""width:200px; border:14px solid green;"">","null","","","","","","","","","",""
"","image-keyboard-response","241","159052","0.0-241.0","3PDJHANYK62H329MYCRK4LYJ2D2H6M","A3DMSP55I880KW","3566S7OX5D5NH74JOVOPTTMK8IR17K","","416.7000000476837","img/land3.png","74","419.40000009536743","1","1","3","2","0.8,0.2,0.2,0.2,0.8,0.2,0.2,0.2,0.8","0.2,0.8,0.2,0.2,0.2,0.8,0.8,0.2,0.2","3","",""
"","html-keyboard-response","242","159355","0.0-242.0","3PDJHANYK62H329MYCRK4LYJ2D2H6M","A3DMSP55I880KW","3566S7OX5D5NH74JOVOPTTMK8IR17K","","null","<img src=""img/land3.png"" style=""width:200px; border:14px solid green;"">","null","","","","","","","","","",""
"","image-keyboard-response","243","159955","0.0-243.0","3PDJHANYK62H329MYCRK4LYJ2D2H6M","A3DMSP55I880KW","3566S7OX5D5NH74JOVOPTTMK8IR17K","","595.4000000953674","img/land5.png","75","599.3999998569489","2","0","1","2","0.8,0.2,0.2,0.2,0.8,0.2,0.2,0.2,0.8","0.2,0.8,0.2,0.2,0.2,0.8,0.8,0.2,0.2","3","",""
"","html-keyboard-response","244","160260","0.0-244.0","3PDJHANYK62H329MYCRK4LYJ2D2H6M","A3DMSP55I880KW","3566S7OX5D5NH74JOVOPTTMK8IR17K","","null","<img src=""img/land5.png"" style=""width:200px;border:14px solid red;"">","null","","","","","","","","","",""
"","image-keyboard-response","245","160835","0.0-245.0","3PDJHANYK62H329MYCRK4LYJ2D2H6M","A3DMSP55I880KW","3566S7OX5D5NH74JOVOPTTMK8IR17K","","572.3999998569489","img/land3.png","76","574.9000000953674","3","0","3","2","0.8,0.2,0.2,0.2,0.8,0.2,0.2,0.2,0.8","0.2,0.8,0.2,0.2,0.2,0.8,0.8,0.2,0.2","3","",""
"","html-keyboard-response","246","161139","0.0-246.0","3PDJHANYK62H329MYCRK4LYJ2D2H6M","A3DMSP55I880KW","3566S7OX5D5NH74JOVOPTTMK8IR17K","","null","<img src=""img/land3.png"" style=""width:200px;border:14px solid red;"">","null","","","","","","","","","",""
"","image-keyboard-response","247","162054","0.0-247.0","3PDJHANYK62H329MYCRK4LYJ2D2H6M","A3DMSP55I880KW","3566S7OX5D5NH74JOVOPTTMK8IR17K","","911.6000001430511","img/land5.png","75","915","2","1","1","2","0.8,0.2,0.2,0.2,0.8,0.2,0.2,0.2,0.8","0.2,0.8,0.2,0.2,0.2,0.8,0.8,0.2,0.2","3","",""
"","html-keyboard-response","248","162358","0.0-248.0","3PDJHANYK62H329MYCRK4LYJ2D2H6M","A3DMSP55I880KW","3566S7OX5D5NH74JOVOPTTMK8IR17K","","null","<img src=""img/land5.png"" style=""width:200px; border:14px solid green;"">","null","","","","","","","","","",""
"","image-keyboard-response","249","162741","0.0-249.0","3PDJHANYK62H329MYCRK4LYJ2D2H6M","A3DMSP55I880KW","3566S7OX5D5NH74JOVOPTTMK8IR17K","","379.7999999523163","img/land5.png","76","382.5","3","0","1","2","0.8,0.2,0.2,0.2,0.8,0.2,0.2,0.2,0.8","0.2,0.8,0.2,0.2,0.2,0.8,0.8,0.2,0.2","3","",""
"","html-keyboard-response","250","163045","0.0-250.0","3PDJHANYK62H329MYCRK4LYJ2D2H6M","A3DMSP55I880KW","3566S7OX5D5NH74JOVOPTTMK8IR17K","","null","<img src=""img/land5.png"" style=""width:200px;border:14px solid red;"">","null","","","","","","","","","",""
"","image-keyboard-response","251","163318","0.0-251.0","3PDJHANYK62H329MYCRK4LYJ2D2H6M","A3DMSP55I880KW","3566S7OX5D5NH74JOVOPTTMK8IR17K","","270.09999990463257","img/land5.png","75","272.7000000476837","2","1","1","2","0.8,0.2,0.2,0.2,0.8,0.2,0.2,0.2,0.8","0.2,0.8,0.2,0.2,0.2,0.8,0.8,0.2,0.2","3","",""
"","html-keyboard-response","252","163621","0.0-252.0","3PDJHANYK62H329MYCRK4LYJ2D2H6M","A3DMSP55I880KW","3566S7OX5D5NH74JOVOPTTMK8IR17K","","null","<img src=""img/land5.png"" style=""width:200px; border:14px solid green;"">","null","","","","","","","","","",""
"","image-keyboard-response","253","164587","0.0-253.0","3PDJHANYK62H329MYCRK4LYJ2D2H6M","A3DMSP55I880KW","3566S7OX5D5NH74JOVOPTTMK8IR17K","","961.3999998569489","img/land3.png","76","964.6000001430511","3","0","3","2","0.8,0.2,0.2,0.2,0.8,0.2,0.2,0.2,0.8","0.2,0.8,0.2,0.2,0.2,0.8,0.8,0.2,0.2","3","",""
"","html-keyboard-response","254","164891","0.0-254.0","3PDJHANYK62H329MYCRK4LYJ2D2H6M","A3DMSP55I880KW","3566S7OX5D5NH74JOVOPTTMK8IR17K","","null","<img src=""img/land3.png"" style=""width:200px;border:14px solid red;"">","null","","","","","","","","","",""
"","image-keyboard-response","255","165429","0.0-255.0","3PDJHANYK62H329MYCRK4LYJ2D2H6M","A3DMSP55I880KW","3566S7OX5D5NH74JOVOPTTMK8IR17K","","535.2999999523163","img/land2.png","74","537.7000000476837","1","0","2","2","0.8,0.2,0.2,0.2,0.8,0.2,0.2,0.2,0.8","0.2,0.8,0.2,0.2,0.2,0.8,0.8,0.2,0.2","3","",""
"","html-keyboard-response","256","165733","0.0-256.0","3PDJHANYK62H329MYCRK4LYJ2D2H6M","A3DMSP55I880KW","3566S7OX5D5NH74JOVOPTTMK8IR17K","","null","<img src=""img/land2.png"" style=""width:200px;border:14px solid red;"">","null","","","","","","","","","",""
"","image-keyboard-response","257","166893","0.0-257.0","3PDJHANYK62H329MYCRK4LYJ2D2H6M","A3DMSP55I880KW","3566S7OX5D5NH74JOVOPTTMK8IR17K","","1157.0999999046326","img/land5.png","75","1159.7000000476837","2","1","1","2","0.8,0.2,0.2,0.2,0.8,0.2,0.2,0.2,0.8","0.2,0.8,0.2,0.2,0.2,0.8,0.8,0.2,0.2","3","",""
"","html-keyboard-response","258","167198","0.0-258.0","3PDJHANYK62H329MYCRK4LYJ2D2H6M","A3DMSP55I880KW","3566S7OX5D5NH74JOVOPTTMK8IR17K","","null","<img src=""img/land5.png"" style=""width:200px; border:14px solid green;"">","null","","","","","","","","","",""
"","image-keyboard-response","259","167520","0.0-259.0","3PDJHANYK62H329MYCRK4LYJ2D2H6M","A3DMSP55I880KW","3566S7OX5D5NH74JOVOPTTMK8IR17K","","319.2000000476837","img/land5.png","75","321.7999999523163","2","1","1","2","0.8,0.2,0.2,0.2,0.8,0.2,0.2,0.2,0.8","0.2,0.8,0.2,0.2,0.2,0.8,0.8,0.2,0.2","3","",""
"","html-keyboard-response","260","167824","0.0-260.0","3PDJHANYK62H329MYCRK4LYJ2D2H6M","A3DMSP55I880KW","3566S7OX5D5NH74JOVOPTTMK8IR17K","","null","<img src=""img/land5.png"" style=""width:200px; border:14px solid green;"">","null","","","","","","","","","",""
"","image-keyboard-response","261","168323","0.0-261.0","3PDJHANYK62H329MYCRK4LYJ2D2H6M","A3DMSP55I880KW","3566S7OX5D5NH74JOVOPTTMK8IR17K","","497.39999985694885","img/land3.png","74","499.30000019073486","1","0","3","2","0.8,0.2,0.2,0.2,0.8,0.2,0.2,0.2,0.8","0.2,0.8,0.2,0.2,0.2,0.8,0.8,0.2,0.2","3","",""
"","html-keyboard-response","262","168626","0.0-262.0","3PDJHANYK62H329MYCRK4LYJ2D2H6M","A3DMSP55I880KW","3566S7OX5D5NH74JOVOPTTMK8IR17K","","null","<img src=""img/land3.png"" style=""width:200px;border:14px solid red;"">","null","","","","","","","","","",""
"","image-keyboard-response","263","168980","0.0-263.0","3PDJHANYK62H329MYCRK4LYJ2D2H6M","A3DMSP55I880KW","3566S7OX5D5NH74JOVOPTTMK8IR17K","","351.09999990463257","img/land3.png","74","353.5","1","1","3","2","0.8,0.2,0.2,0.2,0.8,0.2,0.2,0.2,0.8","0.2,0.8,0.2,0.2,0.2,0.8,0.8,0.2,0.2","3","",""
"","html-keyboard-response","264","169284","0.0-264.0","3PDJHANYK62H329MYCRK4LYJ2D2H6M","A3DMSP55I880KW","3566S7OX5D5NH74JOVOPTTMK8IR17K","","null","<img src=""img/land3.png"" style=""width:200px; border:14px solid green;"">","null","","","","","","","","","",""
"","image-keyboard-response","265","169817","0.0-265.0","3PDJHANYK62H329MYCRK4LYJ2D2H6M","A3DMSP55I880KW","3566S7OX5D5NH74JOVOPTTMK8IR17K","","529","img/land2.png","76","532.6999998092651","3","1","2","2","0.8,0.2,0.2,0.2,0.8,0.2,0.2,0.2,0.8","0.2,0.8,0.2,0.2,0.2,0.8,0.8,0.2,0.2","3","",""
"","html-keyboard-response","266","170121","0.0-266.0","3PDJHANYK62H329MYCRK4LYJ2D2H6M","A3DMSP55I880KW","3566S7OX5D5NH74JOVOPTTMK8IR17K","","null","<img src=""img/land2.png"" style=""width:200px; border:14px solid green;"">","null","","","","","","","","","",""
"","image-keyboard-response","267","170721","0.0-267.0","3PDJHANYK62H329MYCRK4LYJ2D2H6M","A3DMSP55I880KW","3566S7OX5D5NH74JOVOPTTMK8IR17K","","596.8000001907349","img/land5.png","75","599.2000000476837","2","1","1","2","0.8,0.2,0.2,0.2,0.8,0.2,0.2,0.2,0.8","0.2,0.8,0.2,0.2,0.2,0.8,0.8,0.2,0.2","3","",""
"","html-keyboard-response","268","171024","0.0-268.0","3PDJHANYK62H329MYCRK4LYJ2D2H6M","A3DMSP55I880KW","3566S7OX5D5NH74JOVOPTTMK8IR17K","","null","<img src=""img/land5.png"" style=""width:200px; border:14px solid green;"">","null","","","","","","","","","",""
"","image-keyboard-response","269","171638","0.0-269.0","3PDJHANYK62H329MYCRK4LYJ2D2H6M","A3DMSP55I880KW","3566S7OX5D5NH74JOVOPTTMK8IR17K","","610.3000001907349","img/land3.png","76","612.8999998569489","3","1","3","2","0.8,0.2,0.2,0.2,0.8,0.2,0.2,0.2,0.8","0.2,0.8,0.2,0.2,0.2,0.8,0.8,0.2,0.2","3","",""
"","html-keyboard-response","270","171943","0.0-270.0","3PDJHANYK62H329MYCRK4LYJ2D2H6M","A3DMSP55I880KW","3566S7OX5D5NH74JOVOPTTMK8IR17K","","null","<img src=""img/land3.png"" style=""width:200px; border:14px solid green;"">","null","","","","","","","","","",""
"","image-keyboard-response","271","172801","0.0-271.0","3PDJHANYK62H329MYCRK4LYJ2D2H6M","A3DMSP55I880KW","3566S7OX5D5NH74JOVOPTTMK8IR17K","","855.1000001430511","img/land5.png","75","857.8999998569489","2","1","1","2","0.8,0.2,0.2,0.2,0.8,0.2,0.2,0.2,0.8","0.2,0.8,0.2,0.2,0.2,0.8,0.8,0.2,0.2","3","",""
"","html-keyboard-response","272","173105","0.0-272.0","3PDJHANYK62H329MYCRK4LYJ2D2H6M","A3DMSP55I880KW","3566S7OX5D5NH74JOVOPTTMK8IR17K","","null","<img src=""img/land5.png"" style=""width:200px; border:14px solid green;"">","null","","","","","","","","","",""
"","image-keyboard-response","273","173649","0.0-273.0","3PDJHANYK62H329MYCRK4LYJ2D2H6M","A3DMSP55I880KW","3566S7OX5D5NH74JOVOPTTMK8IR17K","","539.7000000476837","img/land5.png","75","543.1999998092651","2","1","1","2","0.8,0.2,0.2,0.2,0.8,0.2,0.2,0.2,0.8","0.2,0.8,0.2,0.2,0.2,0.8,0.8,0.2,0.2","3","",""
"","html-keyboard-response","274","173952","0.0-274.0","3PDJHANYK62H329MYCRK4LYJ2D2H6M","A3DMSP55I880KW","3566S7OX5D5NH74JOVOPTTMK8IR17K","","null","<img src=""img/land5.png"" style=""width:200px; border:14px solid green;"">","null","","","","","","","","","",""
"","image-keyboard-response","275","174702","0.0-275.0","3PDJHANYK62H329MYCRK4LYJ2D2H6M","A3DMSP55I880KW","3566S7OX5D5NH74JOVOPTTMK8IR17K","","744","img/land2.png","76","749.6000001430511","3","0","2","2","0.8,0.2,0.2,0.2,0.8,0.2,0.2,0.2,0.8","0.2,0.8,0.2,0.2,0.2,0.8,0.8,0.2,0.2","3","",""
"","html-keyboard-response","276","175006","0.0-276.0","3PDJHANYK62H329MYCRK4LYJ2D2H6M","A3DMSP55I880KW","3566S7OX5D5NH74JOVOPTTMK8IR17K","","null","<img src=""img/land2.png"" style=""width:200px;border:14px solid red;"">","null","","","","","","","","","",""
"","image-keyboard-response","277","175795","0.0-277.0","3PDJHANYK62H329MYCRK4LYJ2D2H6M","A3DMSP55I880KW","3566S7OX5D5NH74JOVOPTTMK8IR17K","","786.0999999046326","img/land5.png","75","789","2","1","1","2","0.8,0.2,0.2,0.2,0.8,0.2,0.2,0.2,0.8","0.2,0.8,0.2,0.2,0.2,0.8,0.8,0.2,0.2","3","",""
"","html-keyboard-response","278","176099","0.0-278.0","3PDJHANYK62H329MYCRK4LYJ2D2H6M","A3DMSP55I880KW","3566S7OX5D5NH74JOVOPTTMK8IR17K","","null","<img src=""img/land5.png"" style=""width:200px; border:14px solid green;"">","null","","","","","","","","","",""
"","image-keyboard-response","279","176442","0.0-279.0","3PDJHANYK62H329MYCRK4LYJ2D2H6M","A3DMSP55I880KW","3566S7OX5D5NH74JOVOPTTMK8IR17K","","340.2000000476837","img/land5.png","76","342.7999999523163","3","0","1","2","0.8,0.2,0.2,0.2,0.8,0.2,0.2,0.2,0.8","0.2,0.8,0.2,0.2,0.2,0.8,0.8,0.2,0.2","3","",""
"","html-keyboard-response","280","176746","0.0-280.0","3PDJHANYK62H329MYCRK4LYJ2D2H6M","A3DMSP55I880KW","3566S7OX5D5NH74JOVOPTTMK8IR17K","","null","<img src=""img/land5.png"" style=""width:200px;border:14px solid red;"">","null","","","","","","","","","",""
"","image-keyboard-response","281","177009","0.0-281.0","3PDJHANYK62H329MYCRK4LYJ2D2H6M","A3DMSP55I880KW","3566S7OX5D5NH74JOVOPTTMK8IR17K","","261.40000009536743","img/land5.png","75","263.2999999523163","2","1","1","2","0.8,0.2,0.2,0.2,0.8,0.2,0.2,0.2,0.8","0.2,0.8,0.2,0.2,0.2,0.8,0.8,0.2,0.2","3","",""
"","html-keyboard-response","282","177312","0.0-282.0","3PDJHANYK62H329MYCRK4LYJ2D2H6M","A3DMSP55I880KW","3566S7OX5D5NH74JOVOPTTMK8IR17K","","null","<img src=""img/land5.png"" style=""width:200px; border:14px solid green;"">","null","","","","","","","","","",""
"","image-keyboard-response","283","177624","0.0-283.0","3PDJHANYK62H329MYCRK4LYJ2D2H6M","A3DMSP55I880KW","3566S7OX5D5NH74JOVOPTTMK8IR17K","","309.40000009536743","img/land5.png","75","311.40000009536743","2","1","1","2","0.8,0.2,0.2,0.2,0.8,0.2,0.2,0.2,0.8","0.2,0.8,0.2,0.2,0.2,0.8,0.8,0.2,0.2","3","",""
"","html-keyboard-response","284","177926","0.0-284.0","3PDJHANYK62H329MYCRK4LYJ2D2H6M","A3DMSP55I880KW","3566S7OX5D5NH74JOVOPTTMK8IR17K","","null","<img src=""img/land5.png"" style=""width:200px; border:14px solid green;"">","null","","","","","","","","","",""
"","image-keyboard-response","285","178168","0.0-285.0","3PDJHANYK62H329MYCRK4LYJ2D2H6M","A3DMSP55I880KW","3566S7OX5D5NH74JOVOPTTMK8IR17K","","238.59999990463257","img/land5.png","75","241.29999995231628","2","1","1","2","0.8,0.2,0.2,0.2,0.8,0.2,0.2,0.2,0.8","0.2,0.8,0.2,0.2,0.2,0.8,0.8,0.2,0.2","3","",""
"","html-keyboard-response","286","178472","0.0-286.0","3PDJHANYK62H329MYCRK4LYJ2D2H6M","A3DMSP55I880KW","3566S7OX5D5NH74JOVOPTTMK8IR17K","","null","<img src=""img/land5.png"" style=""width:200px; border:14px solid green;"">","null","","","","","","","","","",""
"","image-keyboard-response","287","178784","0.0-287.0","3PDJHANYK62H329MYCRK4LYJ2D2H6M","A3DMSP55I880KW","3566S7OX5D5NH74JOVOPTTMK8IR17K","","308.5","img/land5.png","75","311.5","2","1","1","2","0.8,0.2,0.2,0.2,0.8,0.2,0.2,0.2,0.8","0.2,0.8,0.2,0.2,0.2,0.8,0.8,0.2,0.2","3","",""
"","html-keyboard-response","288","179089","0.0-288.0","3PDJHANYK62H329MYCRK4LYJ2D2H6M","A3DMSP55I880KW","3566S7OX5D5NH74JOVOPTTMK8IR17K","","null","<img src=""img/land5.png"" style=""width:200px; border:14px solid green;"">","null","","","","","","","","","",""
"","image-keyboard-response","289","179391","0.0-289.0","3PDJHANYK62H329MYCRK4LYJ2D2H6M","A3DMSP55I880KW","3566S7OX5D5NH74JOVOPTTMK8IR17K","","299","img/land5.png","75","302","2","1","1","2","0.8,0.2,0.2,0.2,0.8,0.2,0.2,0.2,0.8","0.2,0.8,0.2,0.2,0.2,0.8,0.8,0.2,0.2","3","",""
"","html-keyboard-response","290","179695","0.0-290.0","3PDJHANYK62H329MYCRK4LYJ2D2H6M","A3DMSP55I880KW","3566S7OX5D5NH74JOVOPTTMK8IR17K","","null","<img src=""img/land5.png"" style=""width:200px; border:14px solid green;"">","null","","","","","","","","","",""
"","image-keyboard-response","291","180414","0.0-291.0","3PDJHANYK62H329MYCRK4LYJ2D2H6M","A3DMSP55I880KW","3566S7OX5D5NH74JOVOPTTMK8IR17K","","715.7999999523163","img/land3.png","76","718.3000001907349","3","1","3","2","0.8,0.2,0.2,0.2,0.8,0.2,0.2,0.2,0.8","0.2,0.8,0.2,0.2,0.2,0.8,0.8,0.2,0.2","3","",""
"","html-keyboard-response","292","180717","0.0-292.0","3PDJHANYK62H329MYCRK4LYJ2D2H6M","A3DMSP55I880KW","3566S7OX5D5NH74JOVOPTTMK8IR17K","","null","<img src=""img/land3.png"" style=""width:200px; border:14px solid green;"">","null","","","","","","","","","",""
"","image-keyboard-response","293","181418","0.0-293.0","3PDJHANYK62H329MYCRK4LYJ2D2H6M","A3DMSP55I880KW","3566S7OX5D5NH74JOVOPTTMK8IR17K","","697.2000000476837","img/land5.png","75","700","2","0","1","2","0.8,0.2,0.2,0.2,0.8,0.2,0.2,0.2,0.8","0.2,0.8,0.2,0.2,0.2,0.8,0.8,0.2,0.2","3","",""
"","html-keyboard-response","294","181722","0.0-294.0","3PDJHANYK62H329MYCRK4LYJ2D2H6M","A3DMSP55I880KW","3566S7OX5D5NH74JOVOPTTMK8IR17K","","null","<img src=""img/land5.png"" style=""width:200px;border:14px solid red;"">","null","","","","","","","","","",""
"","image-keyboard-response","295","182089","0.0-295.0","3PDJHANYK62H329MYCRK4LYJ2D2H6M","A3DMSP55I880KW","3566S7OX5D5NH74JOVOPTTMK8IR17K","","363.7000000476837","img/land5.png","75","366.5","2","1","1","2","0.8,0.2,0.2,0.2,0.8,0.2,0.2,0.2,0.8","0.2,0.8,0.2,0.2,0.2,0.8,0.8,0.2,0.2","3","",""
"","html-keyboard-response","296","182393","0.0-296.0","3PDJHANYK62H329MYCRK4LYJ2D2H6M","A3DMSP55I880KW","3566S7OX5D5NH74JOVOPTTMK8IR17K","","null","<img src=""img/land5.png"" style=""width:200px; border:14px solid green;"">","null","","","","","","","","","",""
"","image-keyboard-response","297","182691","0.0-297.0","3PDJHANYK62H329MYCRK4LYJ2D2H6M","A3DMSP55I880KW","3566S7OX5D5NH74JOVOPTTMK8IR17K","","294.2999999523163","img/land5.png","75","297.19999980926514","2","1","1","2","0.8,0.2,0.2,0.2,0.8,0.2,0.2,0.2,0.8","0.2,0.8,0.2,0.2,0.2,0.8,0.8,0.2,0.2","3","",""
"","html-keyboard-response","298","183006","0.0-298.0","3PDJHANYK62H329MYCRK4LYJ2D2H6M","A3DMSP55I880KW","3566S7OX5D5NH74JOVOPTTMK8IR17K","","null","<img src=""img/land5.png"" style=""width:200px; border:14px solid green;"">","null","","","","","","","","","",""
"","image-keyboard-response","299","183277","0.0-299.0","3PDJHANYK62H329MYCRK4LYJ2D2H6M","A3DMSP55I880KW","3566S7OX5D5NH74JOVOPTTMK8IR17K","","267.2000000476837","img/land5.png","75","270.59999990463257","2","1","1","2","0.8,0.2,0.2,0.2,0.8,0.2,0.2,0.2,0.8","0.2,0.8,0.2,0.2,0.2,0.8,0.8,0.2,0.2","3","",""
"","html-keyboard-response","300","183581","0.0-300.0","3PDJHANYK62H329MYCRK4LYJ2D2H6M","A3DMSP55I880KW","3566S7OX5D5NH74JOVOPTTMK8IR17K","","null","<img src=""img/land5.png"" style=""width:200px; border:14px solid green;"">","null","","","","","","","","","",""
"","image-keyboard-response","301","183804","0.0-301.0","3PDJHANYK62H329MYCRK4LYJ2D2H6M","A3DMSP55I880KW","3566S7OX5D5NH74JOVOPTTMK8IR17K","","219.70000004768372","img/land5.png","75","222.20000004768372","2","1","1","2","0.8,0.2,0.2,0.2,0.8,0.2,0.2,0.2,0.8","0.2,0.8,0.2,0.2,0.2,0.8,0.8,0.2,0.2","3","",""
"","html-keyboard-response","302","184109","0.0-302.0","3PDJHANYK62H329MYCRK4LYJ2D2H6M","A3DMSP55I880KW","3566S7OX5D5NH74JOVOPTTMK8IR17K","","null","<img src=""img/land5.png"" style=""width:200px; border:14px solid green;"">","null","","","","","","","","","",""
"","image-keyboard-response","303","184346","0.0-303.0","3PDJHANYK62H329MYCRK4LYJ2D2H6M","A3DMSP55I880KW","3566S7OX5D5NH74JOVOPTTMK8IR17K","","233.5","img/land5.png","75","236.5","2","1","1","2","0.8,0.2,0.2,0.2,0.8,0.2,0.2,0.2,0.8","0.2,0.8,0.2,0.2,0.2,0.8,0.8,0.2,0.2","3","",""
"","html-keyboard-response","304","184649","0.0-304.0","3PDJHANYK62H329MYCRK4LYJ2D2H6M","A3DMSP55I880KW","3566S7OX5D5NH74JOVOPTTMK8IR17K","","null","<img src=""img/land5.png"" style=""width:200px; border:14px solid green;"">","null","","","","","","","","","",""
"","image-keyboard-response","305","184891","0.0-305.0","3PDJHANYK62H329MYCRK4LYJ2D2H6M","A3DMSP55I880KW","3566S7OX5D5NH74JOVOPTTMK8IR17K","","239.79999995231628","img/land5.png","75","241.20000004768372","2","1","1","2","0.8,0.2,0.2,0.2,0.8,0.2,0.2,0.2,0.8","0.2,0.8,0.2,0.2,0.2,0.8,0.8,0.2,0.2","3","",""
"","html-keyboard-response","306","185193","0.0-306.0","3PDJHANYK62H329MYCRK4LYJ2D2H6M","A3DMSP55I880KW","3566S7OX5D5NH74JOVOPTTMK8IR17K","","null","<img src=""img/land5.png"" style=""width:200px; border:14px solid green;"">","null","","","","","","","","","",""
"","image-keyboard-response","307","185429","0.0-307.0","3PDJHANYK62H329MYCRK4LYJ2D2H6M","A3DMSP55I880KW","3566S7OX5D5NH74JOVOPTTMK8IR17K","","232.59999990463257","img/land5.png","75","235.09999990463257","2","0","1","2","0.8,0.2,0.2,0.2,0.8,0.2,0.2,0.2,0.8","0.2,0.8,0.2,0.2,0.2,0.8,0.8,0.2,0.2","3","",""
"","html-keyboard-response","308","185733","0.0-308.0","3PDJHANYK62H329MYCRK4LYJ2D2H6M","A3DMSP55I880KW","3566S7OX5D5NH74JOVOPTTMK8IR17K","","null","<img src=""img/land5.png"" style=""width:200px;border:14px solid red;"">","null","","","","","","","","","",""
"","image-keyboard-response","309","186841","0.0-309.0","3PDJHANYK62H329MYCRK4LYJ2D2H6M","A3DMSP55I880KW","3566S7OX5D5NH74JOVOPTTMK8IR17K","","1105.4000000953674","img/land3.png","76","1107.2999999523163","3","0","3","2","0.8,0.2,0.2,0.2,0.8,0.2,0.2,0.2,0.8","0.2,0.8,0.2,0.2,0.2,0.8,0.8,0.2,0.2","3","",""
"","html-keyboard-response","310","187143","0.0-310.0","3PDJHANYK62H329MYCRK4LYJ2D2H6M","A3DMSP55I880KW","3566S7OX5D5NH74JOVOPTTMK8IR17K","","null","<img src=""img/land3.png"" style=""width:200px;border:14px solid red;"">","null","","","","","","","","","",""
"","image-keyboard-response","311","187890","0.0-311.0","3PDJHANYK62H329MYCRK4LYJ2D2H6M","A3DMSP55I880KW","3566S7OX5D5NH74JOVOPTTMK8IR17K","","743.7999999523163","img/land2.png","74","745.7999999523163","1","0","2","2","0.8,0.2,0.2,0.2,0.8,0.2,0.2,0.2,0.8","0.2,0.8,0.2,0.2,0.2,0.8,0.8,0.2,0.2","3","",""
"","html-keyboard-response","312","188192","0.0-312.0","3PDJHANYK62H329MYCRK4LYJ2D2H6M","A3DMSP55I880KW","3566S7OX5D5NH74JOVOPTTMK8IR17K","","null","<img src=""img/land2.png"" style=""width:200px;border:14px solid red;"">","null","","","","","","","","","",""
"","image-keyboard-response","313","188802","0.0-313.0","3PDJHANYK62H329MYCRK4LYJ2D2H6M","A3DMSP55I880KW","3566S7OX5D5NH74JOVOPTTMK8IR17K","","608.2000000476837","img/land5.png","75","609.3999998569489","2","1","1","2","0.8,0.2,0.2,0.2,0.8,0.2,0.2,0.2,0.8","0.2,0.8,0.2,0.2,0.2,0.8,0.8,0.2,0.2","3","",""
"","html-keyboard-response","314","189104","0.0-314.0","3PDJHANYK62H329MYCRK4LYJ2D2H6M","A3DMSP55I880KW","3566S7OX5D5NH74JOVOPTTMK8IR17K","","null","<img src=""img/land5.png"" style=""width:200px; border:14px solid green;"">","null","","","","","","","","","",""
"","image-keyboard-response","315","189660","0.0-315.0","3PDJHANYK62H329MYCRK4LYJ2D2H6M","A3DMSP55I880KW","3566S7OX5D5NH74JOVOPTTMK8IR17K","","554.5999999046326","img/land5.png","75","556","2","1","1","2","0.8,0.2,0.2,0.2,0.8,0.2,0.2,0.2,0.8","0.2,0.8,0.2,0.2,0.2,0.8,0.8,0.2,0.2","3","",""
"","html-keyboard-response","316","189962","0.0-316.0","3PDJHANYK62H329MYCRK4LYJ2D2H6M","A3DMSP55I880KW","3566S7OX5D5NH74JOVOPTTMK8IR17K","","null","<img src=""img/land5.png"" style=""width:200px; border:14px solid green;"">","null","","","","","","","","","",""
"","image-keyboard-response","317","190197","0.0-317.0","3PDJHANYK62H329MYCRK4LYJ2D2H6M","A3DMSP55I880KW","3566S7OX5D5NH74JOVOPTTMK8IR17K","","232","img/land3.png","75","234","2","1","3","2","0.8,0.2,0.2,0.2,0.8,0.2,0.2,0.2,0.8","0.2,0.8,0.2,0.2,0.2,0.8,0.8,0.2,0.2","3","",""
"","html-keyboard-response","318","190499","0.0-318.0","3PDJHANYK62H329MYCRK4LYJ2D2H6M","A3DMSP55I880KW","3566S7OX5D5NH74JOVOPTTMK8IR17K","","null","<img src=""img/land3.png"" style=""width:200px; border:14px solid green;"">","null","","","","","","","","","",""
"","image-keyboard-response","319","191412","0.0-319.0","3PDJHANYK62H329MYCRK4LYJ2D2H6M","A3DMSP55I880KW","3566S7OX5D5NH74JOVOPTTMK8IR17K","","909.2999999523163","img/land2.png","76","911.9000000953674","3","0","2","2","0.8,0.2,0.2,0.2,0.8,0.2,0.2,0.2,0.8","0.2,0.8,0.2,0.2,0.2,0.8,0.8,0.2,0.2","3","",""
"","html-keyboard-response","320","191715","0.0-320.0","3PDJHANYK62H329MYCRK4LYJ2D2H6M","A3DMSP55I880KW","3566S7OX5D5NH74JOVOPTTMK8IR17K","","null","<img src=""img/land2.png"" style=""width:200px;border:14px solid red;"">","null","","","","","","","","","",""
"","image-keyboard-response","321","192320","0.0-321.0","3PDJHANYK62H329MYCRK4LYJ2D2H6M","A3DMSP55I880KW","3566S7OX5D5NH74JOVOPTTMK8IR17K","","601.5","img/land5.png","75","604.2000000476837","2","1","1","2","0.8,0.2,0.2,0.2,0.8,0.2,0.2,0.2,0.8","0.2,0.8,0.2,0.2,0.2,0.8,0.8,0.2,0.2","3","",""
"","html-keyboard-response","322","192624","0.0-322.0","3PDJHANYK62H329MYCRK4LYJ2D2H6M","A3DMSP55I880KW","3566S7OX5D5NH74JOVOPTTMK8IR17K","","null","<img src=""img/land5.png"" style=""width:200px; border:14px solid green;"">","null","","","","","","","","","",""
"","image-keyboard-response","323","192971","0.0-323.0","3PDJHANYK62H329MYCRK4LYJ2D2H6M","A3DMSP55I880KW","3566S7OX5D5NH74JOVOPTTMK8IR17K","","344.5","img/land5.png","75","347.2000000476837","2","1","1","2","0.8,0.2,0.2,0.2,0.8,0.2,0.2,0.2,0.8","0.2,0.8,0.2,0.2,0.2,0.8,0.8,0.2,0.2","3","",""
"","html-keyboard-response","324","193275","0.0-324.0","3PDJHANYK62H329MYCRK4LYJ2D2H6M","A3DMSP55I880KW","3566S7OX5D5NH74JOVOPTTMK8IR17K","","null","<img src=""img/land5.png"" style=""width:200px; border:14px solid green;"">","null","","","","","","","","","",""
"","image-keyboard-response","325","193558","0.0-325.0","3PDJHANYK62H329MYCRK4LYJ2D2H6M","A3DMSP55I880KW","3566S7OX5D5NH74JOVOPTTMK8IR17K","","279.5","img/land5.png","75","282.09999990463257","2","1","1","2","0.8,0.2,0.2,0.2,0.8,0.2,0.2,0.2,0.8","0.2,0.8,0.2,0.2,0.2,0.8,0.8,0.2,0.2","3","",""
"","html-keyboard-response","326","193862","0.0-326.0","3PDJHANYK62H329MYCRK4LYJ2D2H6M","A3DMSP55I880KW","3566S7OX5D5NH74JOVOPTTMK8IR17K","","null","<img src=""img/land5.png"" style=""width:200px; border:14px solid green;"">","null","","","","","","","","","",""
"","image-keyboard-response","327","194425","0.0-327.0","3PDJHANYK62H329MYCRK4LYJ2D2H6M","A3DMSP55I880KW","3566S7OX5D5NH74JOVOPTTMK8IR17K","","560.7999999523163","img/land2.png","76","563.4000000953674","3","1","2","2","0.8,0.2,0.2,0.2,0.8,0.2,0.2,0.2,0.8","0.2,0.8,0.2,0.2,0.2,0.8,0.8,0.2,0.2","3","",""
"","html-keyboard-response","328","194729","0.0-328.0","3PDJHANYK62H329MYCRK4LYJ2D2H6M","A3DMSP55I880KW","3566S7OX5D5NH74JOVOPTTMK8IR17K","","null","<img src=""img/land2.png"" style=""width:200px; border:14px solid green;"">","null","","","","","","","","","",""
"","image-keyboard-response","329","195418","0.0-329.0","3PDJHANYK62H329MYCRK4LYJ2D2H6M","A3DMSP55I880KW","3566S7OX5D5NH74JOVOPTTMK8IR17K","","686","img/land5.png","75","688.5","2","1","1","2","0.8,0.2,0.2,0.2,0.8,0.2,0.2,0.2,0.8","0.2,0.8,0.2,0.2,0.2,0.8,0.8,0.2,0.2","3","",""
"","html-keyboard-response","330","195723","0.0-330.0","3PDJHANYK62H329MYCRK4LYJ2D2H6M","A3DMSP55I880KW","3566S7OX5D5NH74JOVOPTTMK8IR17K","","null","<img src=""img/land5.png"" style=""width:200px; border:14px solid green;"">","null","","","","","","","","","",""
"","image-keyboard-response","331","196462","0.0-331.0","3PDJHANYK62H329MYCRK4LYJ2D2H6M","A3DMSP55I880KW","3566S7OX5D5NH74JOVOPTTMK8IR17K","","735.9000000953674","img/land3.png","74","738.5","1","1","3","2","0.8,0.2,0.2,0.2,0.8,0.2,0.2,0.2,0.8","0.2,0.8,0.2,0.2,0.2,0.8,0.8,0.2,0.2","3","",""
"","html-keyboard-response","332","196780","0.0-332.0","3PDJHANYK62H329MYCRK4LYJ2D2H6M","A3DMSP55I880KW","3566S7OX5D5NH74JOVOPTTMK8IR17K","","null","<img src=""img/land3.png"" style=""width:200px; border:14px solid green;"">","null","","","","","","","","","",""
"","image-keyboard-response","333","197205","0.0-333.0","3PDJHANYK62H329MYCRK4LYJ2D2H6M","A3DMSP55I880KW","3566S7OX5D5NH74JOVOPTTMK8IR17K","","421.40000009536743","img/land3.png","74","424.2000000476837","1","1","3","2","0.8,0.2,0.2,0.2,0.8,0.2,0.2,0.2,0.8","0.2,0.8,0.2,0.2,0.2,0.8,0.8,0.2,0.2","3","",""
"","html-keyboard-response","334","197510","0.0-334.0","3PDJHANYK62H329MYCRK4LYJ2D2H6M","A3DMSP55I880KW","3566S7OX5D5NH74JOVOPTTMK8IR17K","","null","<img src=""img/land3.png"" style=""width:200px; border:14px solid green;"">","null","","","","","","","","","",""
"","image-keyboard-response","335","198051","0.0-335.0","3PDJHANYK62H329MYCRK4LYJ2D2H6M","A3DMSP55I880KW","3566S7OX5D5NH74JOVOPTTMK8IR17K","","538.7999999523163","img/land5.png","75","541.2999999523163","2","1","1","2","0.8,0.2,0.2,0.2,0.8,0.2,0.2,0.2,0.8","0.2,0.8,0.2,0.2,0.2,0.8,0.8,0.2,0.2","3","",""
"","html-keyboard-response","336","198356","0.0-336.0","3PDJHANYK62H329MYCRK4LYJ2D2H6M","A3DMSP55I880KW","3566S7OX5D5NH74JOVOPTTMK8IR17K","","null","<img src=""img/land5.png"" style=""width:200px; border:14px solid green;"">","null","","","","","","","","","",""
"","image-keyboard-response","337","198849","0.0-337.0","3PDJHANYK62H329MYCRK4LYJ2D2H6M","A3DMSP55I880KW","3566S7OX5D5NH74JOVOPTTMK8IR17K","","489.90000009536743","img/land2.png","76","492.2999999523163","3","1","2","2","0.8,0.2,0.2,0.2,0.8,0.2,0.2,0.2,0.8","0.2,0.8,0.2,0.2,0.2,0.8,0.8,0.2,0.2","3","",""
"","html-keyboard-response","338","199153","0.0-338.0","3PDJHANYK62H329MYCRK4LYJ2D2H6M","A3DMSP55I880KW","3566S7OX5D5NH74JOVOPTTMK8IR17K","","null","<img src=""img/land2.png"" style=""width:200px; border:14px solid green;"">","null","","","","","","","","","",""
"","image-keyboard-response","339","199653","0.0-339.0","3PDJHANYK62H329MYCRK4LYJ2D2H6M","A3DMSP55I880KW","3566S7OX5D5NH74JOVOPTTMK8IR17K","","495.5","img/land5.png","75","499.90000009536743","2","1","1","2","0.8,0.2,0.2,0.2,0.8,0.2,0.2,0.2,0.8","0.2,0.8,0.2,0.2,0.2,0.8,0.8,0.2,0.2","3","",""
"","html-keyboard-response","340","199958","0.0-340.0","3PDJHANYK62H329MYCRK4LYJ2D2H6M","A3DMSP55I880KW","3566S7OX5D5NH74JOVOPTTMK8IR17K","","null","<img src=""img/land5.png"" style=""width:200px; border:14px solid green;"">","null","","","","","","","","","",""
"","image-keyboard-response","341","200353","0.0-341.0","3PDJHANYK62H329MYCRK4LYJ2D2H6M","A3DMSP55I880KW","3566S7OX5D5NH74JOVOPTTMK8IR17K","","392.2000000476837","img/land3.png","74","394.7999999523163","1","1","3","2","0.8,0.2,0.2,0.2,0.8,0.2,0.2,0.2,0.8","0.2,0.8,0.2,0.2,0.2,0.8,0.8,0.2,0.2","3","",""
"","html-keyboard-response","342","200658","0.0-342.0","3PDJHANYK62H329MYCRK4LYJ2D2H6M","A3DMSP55I880KW","3566S7OX5D5NH74JOVOPTTMK8IR17K","","null","<img src=""img/land3.png"" style=""width:200px; border:14px solid green;"">","null","","","","","","","","","",""
"","image-keyboard-response","343","201070","0.0-343.0","3PDJHANYK62H329MYCRK4LYJ2D2H6M","A3DMSP55I880KW","3566S7OX5D5NH74JOVOPTTMK8IR17K","","409.09999990463257","img/land5.png","75","411.7999999523163","2","1","1","2","0.8,0.2,0.2,0.2,0.8,0.2,0.2,0.2,0.8","0.2,0.8,0.2,0.2,0.2,0.8,0.8,0.2,0.2","3","",""
"","html-keyboard-response","344","201375","0.0-344.0","3PDJHANYK62H329MYCRK4LYJ2D2H6M","A3DMSP55I880KW","3566S7OX5D5NH74JOVOPTTMK8IR17K","","null","<img src=""img/land5.png"" style=""width:200px; border:14px solid green;"">","null","","","","","","","","","",""
"","image-keyboard-response","345","201769","0.0-345.0","3PDJHANYK62H329MYCRK4LYJ2D2H6M","A3DMSP55I880KW","3566S7OX5D5NH74JOVOPTTMK8IR17K","","391","img/land5.png","75","394","2","1","1","2","0.8,0.2,0.2,0.2,0.8,0.2,0.2,0.2,0.8","0.2,0.8,0.2,0.2,0.2,0.8,0.8,0.2,0.2","3","",""
"","html-keyboard-response","346","202073","0.0-346.0","3PDJHANYK62H329MYCRK4LYJ2D2H6M","A3DMSP55I880KW","3566S7OX5D5NH74JOVOPTTMK8IR17K","","null","<img src=""img/land5.png"" style=""width:200px; border:14px solid green;"">","null","","","","","","","","","",""
"","image-keyboard-response","347","202396","0.0-347.0","3PDJHANYK62H329MYCRK4LYJ2D2H6M","A3DMSP55I880KW","3566S7OX5D5NH74JOVOPTTMK8IR17K","","319.80000019073486","img/land5.png","75","322.2000000476837","2","1","1","2","0.8,0.2,0.2,0.2,0.8,0.2,0.2,0.2,0.8","0.2,0.8,0.2,0.2,0.2,0.8,0.8,0.2,0.2","3","",""
"","html-keyboard-response","348","202699","0.0-348.0","3PDJHANYK62H329MYCRK4LYJ2D2H6M","A3DMSP55I880KW","3566S7OX5D5NH74JOVOPTTMK8IR17K","","null","<img src=""img/land5.png"" style=""width:200px; border:14px solid green;"">","null","","","","","","","","","",""
"","image-keyboard-response","349","202961","0.0-349.0","3PDJHANYK62H329MYCRK4LYJ2D2H6M","A3DMSP55I880KW","3566S7OX5D5NH74JOVOPTTMK8IR17K","","260.39999985694885","img/land5.png","75","262.5","2","1","1","2","0.8,0.2,0.2,0.2,0.8,0.2,0.2,0.2,0.8","0.2,0.8,0.2,0.2,0.2,0.8,0.8,0.2,0.2","3","",""
"","html-keyboard-response","350","203265","0.0-350.0","3PDJHANYK62H329MYCRK4LYJ2D2H6M","A3DMSP55I880KW","3566S7OX5D5NH74JOVOPTTMK8IR17K","","null","<img src=""img/land5.png"" style=""width:200px; border:14px solid green;"">","null","","","","","","","","","",""
"","image-keyboard-response","351","203493","0.0-351.0","3PDJHANYK62H329MYCRK4LYJ2D2H6M","A3DMSP55I880KW","3566S7OX5D5NH74JOVOPTTMK8IR17K","","224.90000009536743","img/land5.png","75","227.5","2","1","1","2","0.8,0.2,0.2,0.2,0.8,0.2,0.2,0.2,0.8","0.2,0.8,0.2,0.2,0.2,0.8,0.8,0.2,0.2","3","",""
"","html-keyboard-response","352","203796","0.0-352.0","3PDJHANYK62H329MYCRK4LYJ2D2H6M","A3DMSP55I880KW","3566S7OX5D5NH74JOVOPTTMK8IR17K","","null","<img src=""img/land5.png"" style=""width:200px; border:14px solid green;"">","null","","","","","","","","","",""
"","image-keyboard-response","353","204034","0.0-353.0","3PDJHANYK62H329MYCRK4LYJ2D2H6M","A3DMSP55I880KW","3566S7OX5D5NH74JOVOPTTMK8IR17K","","234.90000009536743","img/land5.png","75","237.5","2","1","1","2","0.8,0.2,0.2,0.2,0.8,0.2,0.2,0.2,0.8","0.2,0.8,0.2,0.2,0.2,0.8,0.8,0.2,0.2","3","",""
"","html-keyboard-response","354","204338","0.0-354.0","3PDJHANYK62H329MYCRK4LYJ2D2H6M","A3DMSP55I880KW","3566S7OX5D5NH74JOVOPTTMK8IR17K","","null","<img src=""img/land5.png"" style=""width:200px; border:14px solid green;"">","null","","","","","","","","","",""
