"success","trial_type","trial_index","time_elapsed","internal_node_id","assignmentID","mturkID","hitID","view_history","rt","stimulus","key_press","reactionTime","a","r","s","cond","reward_cond","reward_cond_actual","reward_matrix_idx","responses","question_order"
"true","fullscreen","0","3818","0.0-0.0","3Z4GS9HPNWW3EDHF4DA0JM9LJL477N","A3EA4SHCLJ1UZQ","36U4VBVNQOZD8NFWZXWF9CIHKRIURB","","","","","","","","","","","","","",""
"","instructions","1","12373","0.0-1.0","3Z4GS9HPNWW3EDHF4DA0JM9LJL477N","A3EA4SHCLJ1UZQ","36U4VBVNQOZD8NFWZXWF9CIHKRIURB","[{""page_index"":0,""viewing_time"":1588.199999988079},{""page_index"":1,""viewing_time"":799},{""page_index"":2,""viewing_time"":875.1000000238419},{""page_index"":3,""viewing_time"":1144.8999999761581},{""page_index"":4,""viewing_time"":1195.9000000357628},{""page_index"":5,""viewing_time"":1956.0999999642372},{""page_index"":6,""viewing_time"":984.4000000357628}]","8544","","","","","","","","","","","",""
"","image-keyboard-response","2","12929","0.0-2.0","3Z4GS9HPNWW3EDHF4DA0JM9LJL477N","A3EA4SHCLJ1UZQ","36U4VBVNQOZD8NFWZXWF9CIHKRIURB","","553.8999999761581","img/land1.png","74","555.1999999880791","1","1","2","2","0.8,0.2,0.2,0.2,0.8,0.2,0.2,0.2,0.8","0.8,0.2,0.2,0.2,0.8,0.2,0.2,0.2,0.8","1","",""
"","html-keyboard-response","3","13232","0.0-3.0","3Z4GS9HPNWW3EDHF4DA0JM9LJL477N","A3EA4SHCLJ1UZQ","36U4VBVNQOZD8NFWZXWF9CIHKRIURB","","null","<img src=""img/land1.png"" style=""width:200px; border:14px solid green;"">","null","","","","","","","","","",""
"","image-keyboard-response","4","13570","0.0-4.0","3Z4GS9HPNWW3EDHF4DA0JM9LJL477N","A3EA4SHCLJ1UZQ","36U4VBVNQOZD8NFWZXWF9CIHKRIURB","","336.19999998807907","img/land1.png","74","337.0999999642372","1","1","2","2","0.8,0.2,0.2,0.2,0.8,0.2,0.2,0.2,0.8","0.8,0.2,0.2,0.2,0.8,0.2,0.2,0.2,0.8","1","",""
"","html-keyboard-response","5","13873","0.0-5.0","3Z4GS9HPNWW3EDHF4DA0JM9LJL477N","A3EA4SHCLJ1UZQ","36U4VBVNQOZD8NFWZXWF9CIHKRIURB","","null","<img src=""img/land1.png"" style=""width:200px; border:14px solid green;"">","null","","","","","","","","","",""
"","image-keyboard-response","6","14418","0.0-6.0","3Z4GS9HPNWW3EDHF4DA0JM9LJL477N","A3EA4SHCLJ1UZQ","36U4VBVNQOZD8NFWZXWF9CIHKRIURB","","543.1000000238419","img/land5.png","75","544","2","0","3","2","0.8,0.2,0.2,0.2,0.8,0.2,0.2,0.2,0.8","0.8,0.2,0.2,0.2,0.8,0.2,0.2,0.2,0.8","1","",""
"","html-keyboard-response","7","14721","0.0-7.0","3Z4GS9HPNWW3EDHF4DA0JM9LJL477N","A3EA4SHCLJ1UZQ","36U4VBVNQOZD8NFWZXWF9CIHKRIURB","","null","<img src=""img/land5.png"" style=""width:200px;border:14px solid red;"">","null","","","","","","","","","",""
"","image-keyboard-response","8","15522","0.0-8.0","3Z4GS9HPNWW3EDHF4DA0JM9LJL477N","A3EA4SHCLJ1UZQ","36U4VBVNQOZD8NFWZXWF9CIHKRIURB","","799.5","img/land4.png","74","800.2999999523163","1","0","1","2","0.8,0.2,0.2,0.2,0.8,0.2,0.2,0.2,0.8","0.8,0.2,0.2,0.2,0.8,0.2,0.2,0.2,0.8","1","",""
"","html-keyboard-response","9","15826","0.0-9.0","3Z4GS9HPNWW3EDHF4DA0JM9LJL477N","A3EA4SHCLJ1UZQ","36U4VBVNQOZD8NFWZXWF9CIHKRIURB","","null","<img src=""img/land4.png"" style=""width:200px;border:14px solid red;"">","null","","","","","","","","","",""
"","image-keyboard-response","10","16339","0.0-10.0","3Z4GS9HPNWW3EDHF4DA0JM9LJL477N","A3EA4SHCLJ1UZQ","36U4VBVNQOZD8NFWZXWF9CIHKRIURB","","510.89999997615814","img/land4.png","74","511.9000000357628","1","0","1","2","0.8,0.2,0.2,0.2,0.8,0.2,0.2,0.2,0.8","0.8,0.2,0.2,0.2,0.8,0.2,0.2,0.2,0.8","1","",""
"","html-keyboard-response","11","16642","0.0-11.0","3Z4GS9HPNWW3EDHF4DA0JM9LJL477N","A3EA4SHCLJ1UZQ","36U4VBVNQOZD8NFWZXWF9CIHKRIURB","","null","<img src=""img/land4.png"" style=""width:200px;border:14px solid red;"">","null","","","","","","","","","",""
"","image-keyboard-response","12","17219","0.0-12.0","3Z4GS9HPNWW3EDHF4DA0JM9LJL477N","A3EA4SHCLJ1UZQ","36U4VBVNQOZD8NFWZXWF9CIHKRIURB","","575.8999999761581","img/land1.png","74","576.8000000119209","1","0","2","2","0.8,0.2,0.2,0.2,0.8,0.2,0.2,0.2,0.8","0.8,0.2,0.2,0.2,0.8,0.2,0.2,0.2,0.8","1","",""
"","html-keyboard-response","13","17522","0.0-13.0","3Z4GS9HPNWW3EDHF4DA0JM9LJL477N","A3EA4SHCLJ1UZQ","36U4VBVNQOZD8NFWZXWF9CIHKRIURB","","null","<img src=""img/land1.png"" style=""width:200px;border:14px solid red;"">","null","","","","","","","","","",""
"","image-keyboard-response","14","17827","0.0-14.0","3Z4GS9HPNWW3EDHF4DA0JM9LJL477N","A3EA4SHCLJ1UZQ","36U4VBVNQOZD8NFWZXWF9CIHKRIURB","","303.9000000357628","img/land1.png","74","304.60000002384186","1","1","2","2","0.8,0.2,0.2,0.2,0.8,0.2,0.2,0.2,0.8","0.8,0.2,0.2,0.2,0.8,0.2,0.2,0.2,0.8","1","",""
"","html-keyboard-response","15","18131","0.0-15.0","3Z4GS9HPNWW3EDHF4DA0JM9LJL477N","A3EA4SHCLJ1UZQ","36U4VBVNQOZD8NFWZXWF9CIHKRIURB","","null","<img src=""img/land1.png"" style=""width:200px; border:14px solid green;"">","null","","","","","","","","","",""
"","image-keyboard-response","16","18804","0.0-16.0","3Z4GS9HPNWW3EDHF4DA0JM9LJL477N","A3EA4SHCLJ1UZQ","36U4VBVNQOZD8NFWZXWF9CIHKRIURB","","672.0999999642372","img/land4.png","76","673","3","1","1","2","0.8,0.2,0.2,0.2,0.8,0.2,0.2,0.2,0.8","0.8,0.2,0.2,0.2,0.8,0.2,0.2,0.2,0.8","1","",""
"","html-keyboard-response","17","19108","0.0-17.0","3Z4GS9HPNWW3EDHF4DA0JM9LJL477N","A3EA4SHCLJ1UZQ","36U4VBVNQOZD8NFWZXWF9CIHKRIURB","","null","<img src=""img/land4.png"" style=""width:200px; border:14px solid green;"">","null","","","","","","","","","",""
"","image-keyboard-response","18","19412","0.0-18.0","3Z4GS9HPNWW3EDHF4DA0JM9LJL477N","A3EA4SHCLJ1UZQ","36U4VBVNQOZD8NFWZXWF9CIHKRIURB","","303.5","img/land4.png","76","304.30000001192093","3","0","1","2","0.8,0.2,0.2,0.2,0.8,0.2,0.2,0.2,0.8","0.8,0.2,0.2,0.2,0.8,0.2,0.2,0.2,0.8","1","",""
"","html-keyboard-response","19","19715","0.0-19.0","3Z4GS9HPNWW3EDHF4DA0JM9LJL477N","A3EA4SHCLJ1UZQ","36U4VBVNQOZD8NFWZXWF9CIHKRIURB","","null","<img src=""img/land4.png"" style=""width:200px;border:14px solid red;"">","null","","","","","","","","","",""
"","image-keyboard-response","20","20037","0.0-20.0","3Z4GS9HPNWW3EDHF4DA0JM9LJL477N","A3EA4SHCLJ1UZQ","36U4VBVNQOZD8NFWZXWF9CIHKRIURB","","320.69999998807907","img/land4.png","76","321.39999997615814","3","1","1","2","0.8,0.2,0.2,0.2,0.8,0.2,0.2,0.2,0.8","0.8,0.2,0.2,0.2,0.8,0.2,0.2,0.2,0.8","1","",""
"","html-keyboard-response","21","20341","0.0-21.0","3Z4GS9HPNWW3EDHF4DA0JM9LJL477N","A3EA4SHCLJ1UZQ","36U4VBVNQOZD8NFWZXWF9CIHKRIURB","","null","<img src=""img/land4.png"" style=""width:200px; border:14px solid green;"">","null","","","","","","","","","",""
"","image-keyboard-response","22","20661","0.0-22.0","3Z4GS9HPNWW3EDHF4DA0JM9LJL477N","A3EA4SHCLJ1UZQ","36U4VBVNQOZD8NFWZXWF9CIHKRIURB","","319.39999997615814","img/land4.png","76","320.0999999642372","3","0","1","2","0.8,0.2,0.2,0.2,0.8,0.2,0.2,0.2,0.8","0.8,0.2,0.2,0.2,0.8,0.2,0.2,0.2,0.8","1","",""
"","html-keyboard-response","23","20964","0.0-23.0","3Z4GS9HPNWW3EDHF4DA0JM9LJL477N","A3EA4SHCLJ1UZQ","36U4VBVNQOZD8NFWZXWF9CIHKRIURB","","null","<img src=""img/land4.png"" style=""width:200px;border:14px solid red;"">","null","","","","","","","","","",""
"","image-keyboard-response","24","21485","0.0-24.0","3Z4GS9HPNWW3EDHF4DA0JM9LJL477N","A3EA4SHCLJ1UZQ","36U4VBVNQOZD8NFWZXWF9CIHKRIURB","","520.3999999761581","img/land4.png","75","521.2000000476837","2","0","1","2","0.8,0.2,0.2,0.2,0.8,0.2,0.2,0.2,0.8","0.8,0.2,0.2,0.2,0.8,0.2,0.2,0.2,0.8","1","",""
"","html-keyboard-response","25","21788","0.0-25.0","3Z4GS9HPNWW3EDHF4DA0JM9LJL477N","A3EA4SHCLJ1UZQ","36U4VBVNQOZD8NFWZXWF9CIHKRIURB","","null","<img src=""img/land4.png"" style=""width:200px;border:14px solid red;"">","null","","","","","","","","","",""
"","image-keyboard-response","26","22133","0.0-26.0","3Z4GS9HPNWW3EDHF4DA0JM9LJL477N","A3EA4SHCLJ1UZQ","36U4VBVNQOZD8NFWZXWF9CIHKRIURB","","343.80000001192093","img/land4.png","76","344.69999998807907","3","0","1","2","0.8,0.2,0.2,0.2,0.8,0.2,0.2,0.2,0.8","0.8,0.2,0.2,0.2,0.8,0.2,0.2,0.2,0.8","1","",""
"","html-keyboard-response","27","22437","0.0-27.0","3Z4GS9HPNWW3EDHF4DA0JM9LJL477N","A3EA4SHCLJ1UZQ","36U4VBVNQOZD8NFWZXWF9CIHKRIURB","","null","<img src=""img/land4.png"" style=""width:200px;border:14px solid red;"">","null","","","","","","","","","",""
"","image-keyboard-response","28","22814","0.0-28.0","3Z4GS9HPNWW3EDHF4DA0JM9LJL477N","A3EA4SHCLJ1UZQ","36U4VBVNQOZD8NFWZXWF9CIHKRIURB","","375.9000000357628","img/land4.png","74","376.5999999642372","1","1","1","2","0.8,0.2,0.2,0.2,0.8,0.2,0.2,0.2,0.8","0.8,0.2,0.2,0.2,0.8,0.2,0.2,0.2,0.8","1","",""
"","html-keyboard-response","29","23118","0.0-29.0","3Z4GS9HPNWW3EDHF4DA0JM9LJL477N","A3EA4SHCLJ1UZQ","36U4VBVNQOZD8NFWZXWF9CIHKRIURB","","null","<img src=""img/land4.png"" style=""width:200px; border:14px solid green;"">","null","","","","","","","","","",""
"","image-keyboard-response","30","23454","0.0-30.0","3Z4GS9HPNWW3EDHF4DA0JM9LJL477N","A3EA4SHCLJ1UZQ","36U4VBVNQOZD8NFWZXWF9CIHKRIURB","","335.69999998807907","img/land4.png","74","336.39999997615814","1","1","1","2","0.8,0.2,0.2,0.2,0.8,0.2,0.2,0.2,0.8","0.8,0.2,0.2,0.2,0.8,0.2,0.2,0.2,0.8","1","",""
"","html-keyboard-response","31","23758","0.0-31.0","3Z4GS9HPNWW3EDHF4DA0JM9LJL477N","A3EA4SHCLJ1UZQ","36U4VBVNQOZD8NFWZXWF9CIHKRIURB","","null","<img src=""img/land4.png"" style=""width:200px; border:14px solid green;"">","null","","","","","","","","","",""
"","image-keyboard-response","32","24823","0.0-32.0","3Z4GS9HPNWW3EDHF4DA0JM9LJL477N","A3EA4SHCLJ1UZQ","36U4VBVNQOZD8NFWZXWF9CIHKRIURB","","1063.2000000476837","img/land5.png","75","1064","2","0","3","2","0.8,0.2,0.2,0.2,0.8,0.2,0.2,0.2,0.8","0.8,0.2,0.2,0.2,0.8,0.2,0.2,0.2,0.8","1","",""
"","html-keyboard-response","33","25126","0.0-33.0","3Z4GS9HPNWW3EDHF4DA0JM9LJL477N","A3EA4SHCLJ1UZQ","36U4VBVNQOZD8NFWZXWF9CIHKRIURB","","null","<img src=""img/land5.png"" style=""width:200px;border:14px solid red;"">","null","","","","","","","","","",""
"","image-keyboard-response","34","25663","0.0-34.0","3Z4GS9HPNWW3EDHF4DA0JM9LJL477N","A3EA4SHCLJ1UZQ","36U4VBVNQOZD8NFWZXWF9CIHKRIURB","","535.6999999880791","img/land4.png","74","536.4000000357628","1","1","1","2","0.8,0.2,0.2,0.2,0.8,0.2,0.2,0.2,0.8","0.8,0.2,0.2,0.2,0.8,0.2,0.2,0.2,0.8","1","",""
"","html-keyboard-response","35","25966","0.0-35.0","3Z4GS9HPNWW3EDHF4DA0JM9LJL477N","A3EA4SHCLJ1UZQ","36U4VBVNQOZD8NFWZXWF9CIHKRIURB","","null","<img src=""img/land4.png"" style=""width:200px; border:14px solid green;"">","null","","","","","","","","","",""
"","image-keyboard-response","36","26271","0.0-36.0","3Z4GS9HPNWW3EDHF4DA0JM9LJL477N","A3EA4SHCLJ1UZQ","36U4VBVNQOZD8NFWZXWF9CIHKRIURB","","303.89999997615814","img/land1.png","74","304.5","1","0","2","2","0.8,0.2,0.2,0.2,0.8,0.2,0.2,0.2,0.8","0.8,0.2,0.2,0.2,0.8,0.2,0.2,0.2,0.8","1","",""
"","html-keyboard-response","37","26574","0.0-37.0","3Z4GS9HPNWW3EDHF4DA0JM9LJL477N","A3EA4SHCLJ1UZQ","36U4VBVNQOZD8NFWZXWF9CIHKRIURB","","null","<img src=""img/land1.png"" style=""width:200px;border:14px solid red;"">","null","","","","","","","","","",""
"","image-keyboard-response","38","27183","0.0-38.0","3Z4GS9HPNWW3EDHF4DA0JM9LJL477N","A3EA4SHCLJ1UZQ","36U4VBVNQOZD8NFWZXWF9CIHKRIURB","","608.3000000119209","img/land5.png","74","609.1000000238419","1","0","3","2","0.8,0.2,0.2,0.2,0.8,0.2,0.2,0.2,0.8","0.8,0.2,0.2,0.2,0.8,0.2,0.2,0.2,0.8","1","",""
"","html-keyboard-response","39","27487","0.0-39.0","3Z4GS9HPNWW3EDHF4DA0JM9LJL477N","A3EA4SHCLJ1UZQ","36U4VBVNQOZD8NFWZXWF9CIHKRIURB","","null","<img src=""img/land5.png"" style=""width:200px;border:14px solid red;"">","null","","","","","","","","","",""
"","image-keyboard-response","40","27791","0.0-40.0","3Z4GS9HPNWW3EDHF4DA0JM9LJL477N","A3EA4SHCLJ1UZQ","36U4VBVNQOZD8NFWZXWF9CIHKRIURB","","303.4000000357628","img/land5.png","74","304.30000001192093","1","1","3","2","0.8,0.2,0.2,0.2,0.8,0.2,0.2,0.2,0.8","0.8,0.2,0.2,0.2,0.8,0.2,0.2,0.2,0.8","1","",""
"","html-keyboard-response","41","28095","0.0-41.0","3Z4GS9HPNWW3EDHF4DA0JM9LJL477N","A3EA4SHCLJ1UZQ","36U4VBVNQOZD8NFWZXWF9CIHKRIURB","","null","<img src=""img/land5.png"" style=""width:200px; border:14px solid green;"">","null","","","","","","","","","",""
"","image-keyboard-response","42","28631","0.0-42.0","3Z4GS9HPNWW3EDHF4DA0JM9LJL477N","A3EA4SHCLJ1UZQ","36U4VBVNQOZD8NFWZXWF9CIHKRIURB","","535.3999999761581","img/land1.png","74","536","1","0","2","2","0.8,0.2,0.2,0.2,0.8,0.2,0.2,0.2,0.8","0.8,0.2,0.2,0.2,0.8,0.2,0.2,0.2,0.8","1","",""
"","html-keyboard-response","43","28935","0.0-43.0","3Z4GS9HPNWW3EDHF4DA0JM9LJL477N","A3EA4SHCLJ1UZQ","36U4VBVNQOZD8NFWZXWF9CIHKRIURB","","null","<img src=""img/land1.png"" style=""width:200px;border:14px solid red;"">","null","","","","","","","","","",""
"","image-keyboard-response","44","29352","0.0-44.0","3Z4GS9HPNWW3EDHF4DA0JM9LJL477N","A3EA4SHCLJ1UZQ","36U4VBVNQOZD8NFWZXWF9CIHKRIURB","","415.80000001192093","img/land4.png","75","416.5","2","0","1","2","0.8,0.2,0.2,0.2,0.8,0.2,0.2,0.2,0.8","0.8,0.2,0.2,0.2,0.8,0.2,0.2,0.2,0.8","1","",""
"","html-keyboard-response","45","29656","0.0-45.0","3Z4GS9HPNWW3EDHF4DA0JM9LJL477N","A3EA4SHCLJ1UZQ","36U4VBVNQOZD8NFWZXWF9CIHKRIURB","","null","<img src=""img/land4.png"" style=""width:200px;border:14px solid red;"">","null","","","","","","","","","",""
"","image-keyboard-response","46","29840","0.0-46.0","3Z4GS9HPNWW3EDHF4DA0JM9LJL477N","A3EA4SHCLJ1UZQ","36U4VBVNQOZD8NFWZXWF9CIHKRIURB","","183.5","img/land5.png","76","184.30000001192093","3","1","3","2","0.8,0.2,0.2,0.2,0.8,0.2,0.2,0.2,0.8","0.8,0.2,0.2,0.2,0.8,0.2,0.2,0.2,0.8","1","",""
"","html-keyboard-response","47","30144","0.0-47.0","3Z4GS9HPNWW3EDHF4DA0JM9LJL477N","A3EA4SHCLJ1UZQ","36U4VBVNQOZD8NFWZXWF9CIHKRIURB","","null","<img src=""img/land5.png"" style=""width:200px; border:14px solid green;"">","null","","","","","","","","","",""
"","image-keyboard-response","48","30520","0.0-48.0","3Z4GS9HPNWW3EDHF4DA0JM9LJL477N","A3EA4SHCLJ1UZQ","36U4VBVNQOZD8NFWZXWF9CIHKRIURB","","375.10000002384186","img/land5.png","76","375.9000000357628","3","1","3","2","0.8,0.2,0.2,0.2,0.8,0.2,0.2,0.2,0.8","0.8,0.2,0.2,0.2,0.8,0.2,0.2,0.2,0.8","1","",""
"","html-keyboard-response","49","30823","0.0-49.0","3Z4GS9HPNWW3EDHF4DA0JM9LJL477N","A3EA4SHCLJ1UZQ","36U4VBVNQOZD8NFWZXWF9CIHKRIURB","","null","<img src=""img/land5.png"" style=""width:200px; border:14px solid green;"">","null","","","","","","","","","",""
"","image-keyboard-response","50","31144","0.0-50.0","3Z4GS9HPNWW3EDHF4DA0JM9LJL477N","A3EA4SHCLJ1UZQ","36U4VBVNQOZD8NFWZXWF9CIHKRIURB","","320.30000001192093","img/land5.png","76","321","3","1","3","2","0.8,0.2,0.2,0.2,0.8,0.2,0.2,0.2,0.8","0.8,0.2,0.2,0.2,0.8,0.2,0.2,0.2,0.8","1","",""
"","html-keyboard-response","51","31447","0.0-51.0","3Z4GS9HPNWW3EDHF4DA0JM9LJL477N","A3EA4SHCLJ1UZQ","36U4VBVNQOZD8NFWZXWF9CIHKRIURB","","null","<img src=""img/land5.png"" style=""width:200px; border:14px solid green;"">","null","","","","","","","","","",""
"","image-keyboard-response","52","32312","0.0-52.0","3Z4GS9HPNWW3EDHF4DA0JM9LJL477N","A3EA4SHCLJ1UZQ","36U4VBVNQOZD8NFWZXWF9CIHKRIURB","","864.1999999880791","img/land4.png","74","864.8999999761581","1","1","1","2","0.8,0.2,0.2,0.2,0.8,0.2,0.2,0.2,0.8","0.8,0.2,0.2,0.2,0.8,0.2,0.2,0.2,0.8","1","",""
"","html-keyboard-response","53","32615","0.0-53.0","3Z4GS9HPNWW3EDHF4DA0JM9LJL477N","A3EA4SHCLJ1UZQ","36U4VBVNQOZD8NFWZXWF9CIHKRIURB","","null","<img src=""img/land4.png"" style=""width:200px; border:14px solid green;"">","null","","","","","","","","","",""
"","image-keyboard-response","54","33016","0.0-54.0","3Z4GS9HPNWW3EDHF4DA0JM9LJL477N","A3EA4SHCLJ1UZQ","36U4VBVNQOZD8NFWZXWF9CIHKRIURB","","400","img/land5.png","74","400.69999998807907","1","0","3","2","0.8,0.2,0.2,0.2,0.8,0.2,0.2,0.2,0.8","0.8,0.2,0.2,0.2,0.8,0.2,0.2,0.2,0.8","1","",""
"","html-keyboard-response","55","33320","0.0-55.0","3Z4GS9HPNWW3EDHF4DA0JM9LJL477N","A3EA4SHCLJ1UZQ","36U4VBVNQOZD8NFWZXWF9CIHKRIURB","","null","<img src=""img/land5.png"" style=""width:200px;border:14px solid red;"">","null","","","","","","","","","",""
"","image-keyboard-response","56","33961","0.0-56.0","3Z4GS9HPNWW3EDHF4DA0JM9LJL477N","A3EA4SHCLJ1UZQ","36U4VBVNQOZD8NFWZXWF9CIHKRIURB","","640.2000000476837","img/land1.png","74","641","1","0","2","2","0.8,0.2,0.2,0.2,0.8,0.2,0.2,0.2,0.8","0.8,0.2,0.2,0.2,0.8,0.2,0.2,0.2,0.8","1","",""
"","html-keyboard-response","57","34264","0.0-57.0","3Z4GS9HPNWW3EDHF4DA0JM9LJL477N","A3EA4SHCLJ1UZQ","36U4VBVNQOZD8NFWZXWF9CIHKRIURB","","null","<img src=""img/land1.png"" style=""width:200px;border:14px solid red;"">","null","","","","","","","","","",""
"","image-keyboard-response","58","35345","0.0-58.0","3Z4GS9HPNWW3EDHF4DA0JM9LJL477N","A3EA4SHCLJ1UZQ","36U4VBVNQOZD8NFWZXWF9CIHKRIURB","","1080.300000011921","img/land5.png","76","1081","3","0","3","2","0.8,0.2,0.2,0.2,0.8,0.2,0.2,0.2,0.8","0.8,0.2,0.2,0.2,0.8,0.2,0.2,0.2,0.8","1","",""
"","html-keyboard-response","59","35648","0.0-59.0","3Z4GS9HPNWW3EDHF4DA0JM9LJL477N","A3EA4SHCLJ1UZQ","36U4VBVNQOZD8NFWZXWF9CIHKRIURB","","null","<img src=""img/land5.png"" style=""width:200px;border:14px solid red;"">","null","","","","","","","","","",""
"","image-keyboard-response","60","36209","0.0-60.0","3Z4GS9HPNWW3EDHF4DA0JM9LJL477N","A3EA4SHCLJ1UZQ","36U4VBVNQOZD8NFWZXWF9CIHKRIURB","","560.4000000357628","img/land1.png","76","561.2999999523163","3","0","2","2","0.8,0.2,0.2,0.2,0.8,0.2,0.2,0.2,0.8","0.8,0.2,0.2,0.2,0.8,0.2,0.2,0.2,0.8","1","",""
"","html-keyboard-response","61","36512","0.0-61.0","3Z4GS9HPNWW3EDHF4DA0JM9LJL477N","A3EA4SHCLJ1UZQ","36U4VBVNQOZD8NFWZXWF9CIHKRIURB","","null","<img src=""img/land1.png"" style=""width:200px;border:14px solid red;"">","null","","","","","","","","","",""
"","image-keyboard-response","62","36961","0.0-62.0","3Z4GS9HPNWW3EDHF4DA0JM9LJL477N","A3EA4SHCLJ1UZQ","36U4VBVNQOZD8NFWZXWF9CIHKRIURB","","448.30000001192093","img/land5.png","74","449","1","0","3","2","0.8,0.2,0.2,0.2,0.8,0.2,0.2,0.2,0.8","0.8,0.2,0.2,0.2,0.8,0.2,0.2,0.2,0.8","1","",""
"","html-keyboard-response","63","37264","0.0-63.0","3Z4GS9HPNWW3EDHF4DA0JM9LJL477N","A3EA4SHCLJ1UZQ","36U4VBVNQOZD8NFWZXWF9CIHKRIURB","","null","<img src=""img/land5.png"" style=""width:200px;border:14px solid red;"">","null","","","","","","","","","",""
"","image-keyboard-response","64","37665","0.0-64.0","3Z4GS9HPNWW3EDHF4DA0JM9LJL477N","A3EA4SHCLJ1UZQ","36U4VBVNQOZD8NFWZXWF9CIHKRIURB","","400.30000001192093","img/land1.png","76","401","3","0","2","2","0.8,0.2,0.2,0.2,0.8,0.2,0.2,0.2,0.8","0.8,0.2,0.2,0.2,0.8,0.2,0.2,0.2,0.8","1","",""
"","html-keyboard-response","65","37969","0.0-65.0","3Z4GS9HPNWW3EDHF4DA0JM9LJL477N","A3EA4SHCLJ1UZQ","36U4VBVNQOZD8NFWZXWF9CIHKRIURB","","null","<img src=""img/land1.png"" style=""width:200px;border:14px solid red;"">","null","","","","","","","","","",""
"","image-keyboard-response","66","38225","0.0-66.0","3Z4GS9HPNWW3EDHF4DA0JM9LJL477N","A3EA4SHCLJ1UZQ","36U4VBVNQOZD8NFWZXWF9CIHKRIURB","","255.19999998807907","img/land4.png","75","255.9000000357628","2","0","1","2","0.8,0.2,0.2,0.2,0.8,0.2,0.2,0.2,0.8","0.8,0.2,0.2,0.2,0.8,0.2,0.2,0.2,0.8","1","",""
"","html-keyboard-response","67","38529","0.0-67.0","3Z4GS9HPNWW3EDHF4DA0JM9LJL477N","A3EA4SHCLJ1UZQ","36U4VBVNQOZD8NFWZXWF9CIHKRIURB","","null","<img src=""img/land4.png"" style=""width:200px;border:14px solid red;"">","null","","","","","","","","","",""
"","image-keyboard-response","68","38737","0.0-68.0","3Z4GS9HPNWW3EDHF4DA0JM9LJL477N","A3EA4SHCLJ1UZQ","36U4VBVNQOZD8NFWZXWF9CIHKRIURB","","207.5","img/land5.png","74","208.0999999642372","1","0","3","2","0.8,0.2,0.2,0.2,0.8,0.2,0.2,0.2,0.8","0.8,0.2,0.2,0.2,0.8,0.2,0.2,0.2,0.8","1","",""
"","html-keyboard-response","69","39041","0.0-69.0","3Z4GS9HPNWW3EDHF4DA0JM9LJL477N","A3EA4SHCLJ1UZQ","36U4VBVNQOZD8NFWZXWF9CIHKRIURB","","null","<img src=""img/land5.png"" style=""width:200px;border:14px solid red;"">","null","","","","","","","","","",""
"","image-keyboard-response","70","39450","0.0-70.0","3Z4GS9HPNWW3EDHF4DA0JM9LJL477N","A3EA4SHCLJ1UZQ","36U4VBVNQOZD8NFWZXWF9CIHKRIURB","","407.89999997615814","img/land1.png","75","408.60000002384186","2","1","2","2","0.8,0.2,0.2,0.2,0.8,0.2,0.2,0.2,0.8","0.8,0.2,0.2,0.2,0.8,0.2,0.2,0.2,0.8","1","",""
"","html-keyboard-response","71","39753","0.0-71.0","3Z4GS9HPNWW3EDHF4DA0JM9LJL477N","A3EA4SHCLJ1UZQ","36U4VBVNQOZD8NFWZXWF9CIHKRIURB","","null","<img src=""img/land1.png"" style=""width:200px; border:14px solid green;"">","null","","","","","","","","","",""
"","image-keyboard-response","72","40602","0.0-72.0","3Z4GS9HPNWW3EDHF4DA0JM9LJL477N","A3EA4SHCLJ1UZQ","36U4VBVNQOZD8NFWZXWF9CIHKRIURB","","847.5","img/land4.png","76","848.0999999642372","3","0","1","2","0.8,0.2,0.2,0.2,0.8,0.2,0.2,0.2,0.8","0.8,0.2,0.2,0.2,0.8,0.2,0.2,0.2,0.8","1","",""
"","html-keyboard-response","73","40906","0.0-73.0","3Z4GS9HPNWW3EDHF4DA0JM9LJL477N","A3EA4SHCLJ1UZQ","36U4VBVNQOZD8NFWZXWF9CIHKRIURB","","null","<img src=""img/land4.png"" style=""width:200px;border:14px solid red;"">","null","","","","","","","","","",""
"","image-keyboard-response","74","41306","0.0-74.0","3Z4GS9HPNWW3EDHF4DA0JM9LJL477N","A3EA4SHCLJ1UZQ","36U4VBVNQOZD8NFWZXWF9CIHKRIURB","","399","img/land4.png","76","399.69999998807907","3","0","1","2","0.8,0.2,0.2,0.2,0.8,0.2,0.2,0.2,0.8","0.8,0.2,0.2,0.2,0.8,0.2,0.2,0.2,0.8","1","",""
"","html-keyboard-response","75","41609","0.0-75.0","3Z4GS9HPNWW3EDHF4DA0JM9LJL477N","A3EA4SHCLJ1UZQ","36U4VBVNQOZD8NFWZXWF9CIHKRIURB","","null","<img src=""img/land4.png"" style=""width:200px;border:14px solid red;"">","null","","","","","","","","","",""
"","image-keyboard-response","76","41978","0.0-76.0","3Z4GS9HPNWW3EDHF4DA0JM9LJL477N","A3EA4SHCLJ1UZQ","36U4VBVNQOZD8NFWZXWF9CIHKRIURB","","368.19999998807907","img/land1.png","76","368.7999999523163","3","1","2","2","0.8,0.2,0.2,0.2,0.8,0.2,0.2,0.2,0.8","0.8,0.2,0.2,0.2,0.8,0.2,0.2,0.2,0.8","1","",""
"","html-keyboard-response","77","42281","0.0-77.0","3Z4GS9HPNWW3EDHF4DA0JM9LJL477N","A3EA4SHCLJ1UZQ","36U4VBVNQOZD8NFWZXWF9CIHKRIURB","","null","<img src=""img/land1.png"" style=""width:200px; border:14px solid green;"">","null","","","","","","","","","",""
"","image-keyboard-response","78","42698","0.0-78.0","3Z4GS9HPNWW3EDHF4DA0JM9LJL477N","A3EA4SHCLJ1UZQ","36U4VBVNQOZD8NFWZXWF9CIHKRIURB","","416.19999998807907","img/land4.png","76","416.9000000357628","3","0","1","2","0.8,0.2,0.2,0.2,0.8,0.2,0.2,0.2,0.8","0.8,0.2,0.2,0.2,0.8,0.2,0.2,0.2,0.8","1","",""
"","html-keyboard-response","79","43002","0.0-79.0","3Z4GS9HPNWW3EDHF4DA0JM9LJL477N","A3EA4SHCLJ1UZQ","36U4VBVNQOZD8NFWZXWF9CIHKRIURB","","null","<img src=""img/land4.png"" style=""width:200px;border:14px solid red;"">","null","","","","","","","","","",""
"","image-keyboard-response","80","43682","0.0-80.0","3Z4GS9HPNWW3EDHF4DA0JM9LJL477N","A3EA4SHCLJ1UZQ","36U4VBVNQOZD8NFWZXWF9CIHKRIURB","","679.2000000476837","img/land1.png","75","679.8999999761581","2","1","2","2","0.8,0.2,0.2,0.2,0.8,0.2,0.2,0.2,0.8","0.8,0.2,0.2,0.2,0.8,0.2,0.2,0.2,0.8","1","",""
"","html-keyboard-response","81","43985","0.0-81.0","3Z4GS9HPNWW3EDHF4DA0JM9LJL477N","A3EA4SHCLJ1UZQ","36U4VBVNQOZD8NFWZXWF9CIHKRIURB","","null","<img src=""img/land1.png"" style=""width:200px; border:14px solid green;"">","null","","","","","","","","","",""
"","image-keyboard-response","82","44354","0.0-82.0","3Z4GS9HPNWW3EDHF4DA0JM9LJL477N","A3EA4SHCLJ1UZQ","36U4VBVNQOZD8NFWZXWF9CIHKRIURB","","368.5","img/land4.png","75","369.39999997615814","2","0","1","2","0.8,0.2,0.2,0.2,0.8,0.2,0.2,0.2,0.8","0.8,0.2,0.2,0.2,0.8,0.2,0.2,0.2,0.8","1","",""
"","html-keyboard-response","83","44658","0.0-83.0","3Z4GS9HPNWW3EDHF4DA0JM9LJL477N","A3EA4SHCLJ1UZQ","36U4VBVNQOZD8NFWZXWF9CIHKRIURB","","null","<img src=""img/land4.png"" style=""width:200px;border:14px solid red;"">","null","","","","","","","","","",""
"","image-keyboard-response","84","45082","0.0-84.0","3Z4GS9HPNWW3EDHF4DA0JM9LJL477N","A3EA4SHCLJ1UZQ","36U4VBVNQOZD8NFWZXWF9CIHKRIURB","","421.4000000357628","img/land4.png","74","422.2000000476837","1","1","1","2","0.8,0.2,0.2,0.2,0.8,0.2,0.2,0.2,0.8","0.8,0.2,0.2,0.2,0.8,0.2,0.2,0.2,0.8","1","",""
"","html-keyboard-response","85","45386","0.0-85.0","3Z4GS9HPNWW3EDHF4DA0JM9LJL477N","A3EA4SHCLJ1UZQ","36U4VBVNQOZD8NFWZXWF9CIHKRIURB","","null","<img src=""img/land4.png"" style=""width:200px; border:14px solid green;"">","null","","","","","","","","","",""
"","image-keyboard-response","86","46059","0.0-86.0","3Z4GS9HPNWW3EDHF4DA0JM9LJL477N","A3EA4SHCLJ1UZQ","36U4VBVNQOZD8NFWZXWF9CIHKRIURB","","671.6999999880791","img/land5.png","76","672.5","3","0","3","2","0.8,0.2,0.2,0.2,0.8,0.2,0.2,0.2,0.8","0.8,0.2,0.2,0.2,0.8,0.2,0.2,0.2,0.8","1","",""
"","html-keyboard-response","87","46361","0.0-87.0","3Z4GS9HPNWW3EDHF4DA0JM9LJL477N","A3EA4SHCLJ1UZQ","36U4VBVNQOZD8NFWZXWF9CIHKRIURB","","null","<img src=""img/land5.png"" style=""width:200px;border:14px solid red;"">","null","","","","","","","","","",""
"","image-keyboard-response","88","46995","0.0-88.0","3Z4GS9HPNWW3EDHF4DA0JM9LJL477N","A3EA4SHCLJ1UZQ","36U4VBVNQOZD8NFWZXWF9CIHKRIURB","","632.3999999761581","img/land4.png","75","633.3000000119209","2","1","1","2","0.8,0.2,0.2,0.2,0.8,0.2,0.2,0.2,0.8","0.8,0.2,0.2,0.2,0.8,0.2,0.2,0.2,0.8","1","",""
"","html-keyboard-response","89","47297","0.0-89.0","3Z4GS9HPNWW3EDHF4DA0JM9LJL477N","A3EA4SHCLJ1UZQ","36U4VBVNQOZD8NFWZXWF9CIHKRIURB","","null","<img src=""img/land4.png"" style=""width:200px; border:14px solid green;"">","null","","","","","","","","","",""
"","image-keyboard-response","90","47620","0.0-90.0","3Z4GS9HPNWW3EDHF4DA0JM9LJL477N","A3EA4SHCLJ1UZQ","36U4VBVNQOZD8NFWZXWF9CIHKRIURB","","322.60000002384186","img/land4.png","75","323.19999998807907","2","0","1","2","0.8,0.2,0.2,0.2,0.8,0.2,0.2,0.2,0.8","0.8,0.2,0.2,0.2,0.8,0.2,0.2,0.2,0.8","1","",""
"","html-keyboard-response","91","47922","0.0-91.0","3Z4GS9HPNWW3EDHF4DA0JM9LJL477N","A3EA4SHCLJ1UZQ","36U4VBVNQOZD8NFWZXWF9CIHKRIURB","","null","<img src=""img/land4.png"" style=""width:200px;border:14px solid red;"">","null","","","","","","","","","",""
"","image-keyboard-response","92","48210","0.0-92.0","3Z4GS9HPNWW3EDHF4DA0JM9LJL477N","A3EA4SHCLJ1UZQ","36U4VBVNQOZD8NFWZXWF9CIHKRIURB","","287.19999998807907","img/land4.png","75","288","2","0","1","2","0.8,0.2,0.2,0.2,0.8,0.2,0.2,0.2,0.8","0.8,0.2,0.2,0.2,0.8,0.2,0.2,0.2,0.8","1","",""
"","html-keyboard-response","93","48513","0.0-93.0","3Z4GS9HPNWW3EDHF4DA0JM9LJL477N","A3EA4SHCLJ1UZQ","36U4VBVNQOZD8NFWZXWF9CIHKRIURB","","null","<img src=""img/land4.png"" style=""width:200px;border:14px solid red;"">","null","","","","","","","","","",""
"","image-keyboard-response","94","48938","0.0-94.0","3Z4GS9HPNWW3EDHF4DA0JM9LJL477N","A3EA4SHCLJ1UZQ","36U4VBVNQOZD8NFWZXWF9CIHKRIURB","","424","img/land4.png","74","424.80000001192093","1","1","1","2","0.8,0.2,0.2,0.2,0.8,0.2,0.2,0.2,0.8","0.8,0.2,0.2,0.2,0.8,0.2,0.2,0.2,0.8","1","",""
"","html-keyboard-response","95","49242","0.0-95.0","3Z4GS9HPNWW3EDHF4DA0JM9LJL477N","A3EA4SHCLJ1UZQ","36U4VBVNQOZD8NFWZXWF9CIHKRIURB","","null","<img src=""img/land4.png"" style=""width:200px; border:14px solid green;"">","null","","","","","","","","","",""
"","image-keyboard-response","96","49594","0.0-96.0","3Z4GS9HPNWW3EDHF4DA0JM9LJL477N","A3EA4SHCLJ1UZQ","36U4VBVNQOZD8NFWZXWF9CIHKRIURB","","351.2000000476837","img/land4.png","74","352","1","1","1","2","0.8,0.2,0.2,0.2,0.8,0.2,0.2,0.2,0.8","0.8,0.2,0.2,0.2,0.8,0.2,0.2,0.2,0.8","1","",""
"","html-keyboard-response","97","49897","0.0-97.0","3Z4GS9HPNWW3EDHF4DA0JM9LJL477N","A3EA4SHCLJ1UZQ","36U4VBVNQOZD8NFWZXWF9CIHKRIURB","","null","<img src=""img/land4.png"" style=""width:200px; border:14px solid green;"">","null","","","","","","","","","",""
"","image-keyboard-response","98","50722","0.0-98.0","3Z4GS9HPNWW3EDHF4DA0JM9LJL477N","A3EA4SHCLJ1UZQ","36U4VBVNQOZD8NFWZXWF9CIHKRIURB","","824.3999999761581","img/land5.png","76","825.1999999880791","3","1","3","2","0.8,0.2,0.2,0.2,0.8,0.2,0.2,0.2,0.8","0.8,0.2,0.2,0.2,0.8,0.2,0.2,0.2,0.8","1","",""
"","html-keyboard-response","99","51026","0.0-99.0","3Z4GS9HPNWW3EDHF4DA0JM9LJL477N","A3EA4SHCLJ1UZQ","36U4VBVNQOZD8NFWZXWF9CIHKRIURB","","null","<img src=""img/land5.png"" style=""width:200px; border:14px solid green;"">","null","","","","","","","","","",""
"","image-keyboard-response","100","51786","0.0-100.0","3Z4GS9HPNWW3EDHF4DA0JM9LJL477N","A3EA4SHCLJ1UZQ","36U4VBVNQOZD8NFWZXWF9CIHKRIURB","","759.2000000476837","img/land4.png","74","760.0999999642372","1","1","1","2","0.8,0.2,0.2,0.2,0.8,0.2,0.2,0.2,0.8","0.8,0.2,0.2,0.2,0.8,0.2,0.2,0.2,0.8","1","",""
"","html-keyboard-response","101","52090","0.0-101.0","3Z4GS9HPNWW3EDHF4DA0JM9LJL477N","A3EA4SHCLJ1UZQ","36U4VBVNQOZD8NFWZXWF9CIHKRIURB","","null","<img src=""img/land4.png"" style=""width:200px; border:14px solid green;"">","null","","","","","","","","","",""
"","image-keyboard-response","102","52514","0.0-102.0","3Z4GS9HPNWW3EDHF4DA0JM9LJL477N","A3EA4SHCLJ1UZQ","36U4VBVNQOZD8NFWZXWF9CIHKRIURB","","423.5","img/land1.png","74","424.19999998807907","1","0","2","2","0.8,0.2,0.2,0.2,0.8,0.2,0.2,0.2,0.8","0.8,0.2,0.2,0.2,0.8,0.2,0.2,0.2,0.8","1","",""
"","html-keyboard-response","103","52818","0.0-103.0","3Z4GS9HPNWW3EDHF4DA0JM9LJL477N","A3EA4SHCLJ1UZQ","36U4VBVNQOZD8NFWZXWF9CIHKRIURB","","null","<img src=""img/land1.png"" style=""width:200px;border:14px solid red;"">","null","","","","","","","","","",""
"","image-keyboard-response","104","53122","0.0-104.0","3Z4GS9HPNWW3EDHF4DA0JM9LJL477N","A3EA4SHCLJ1UZQ","36U4VBVNQOZD8NFWZXWF9CIHKRIURB","","303.30000001192093","img/land4.png","74","304.0999999642372","1","1","1","2","0.8,0.2,0.2,0.2,0.8,0.2,0.2,0.2,0.8","0.8,0.2,0.2,0.2,0.8,0.2,0.2,0.2,0.8","1","",""
"","html-keyboard-response","105","53425","0.0-105.0","3Z4GS9HPNWW3EDHF4DA0JM9LJL477N","A3EA4SHCLJ1UZQ","36U4VBVNQOZD8NFWZXWF9CIHKRIURB","","null","<img src=""img/land4.png"" style=""width:200px; border:14px solid green;"">","null","","","","","","","","","",""
"","image-keyboard-response","106","53698","0.0-106.0","3Z4GS9HPNWW3EDHF4DA0JM9LJL477N","A3EA4SHCLJ1UZQ","36U4VBVNQOZD8NFWZXWF9CIHKRIURB","","272.9000000357628","img/land1.png","74","273.5","1","0","2","2","0.8,0.2,0.2,0.2,0.8,0.2,0.2,0.2,0.8","0.8,0.2,0.2,0.2,0.8,0.2,0.2,0.2,0.8","1","",""
"","html-keyboard-response","107","54002","0.0-107.0","3Z4GS9HPNWW3EDHF4DA0JM9LJL477N","A3EA4SHCLJ1UZQ","36U4VBVNQOZD8NFWZXWF9CIHKRIURB","","null","<img src=""img/land1.png"" style=""width:200px;border:14px solid red;"">","null","","","","","","","","","",""
"","image-keyboard-response","108","54306","0.0-108.0","3Z4GS9HPNWW3EDHF4DA0JM9LJL477N","A3EA4SHCLJ1UZQ","36U4VBVNQOZD8NFWZXWF9CIHKRIURB","","303.2000000476837","img/land5.png","74","304.0999999642372","1","0","3","2","0.8,0.2,0.2,0.2,0.8,0.2,0.2,0.2,0.8","0.8,0.2,0.2,0.2,0.8,0.2,0.2,0.2,0.8","1","",""
"","html-keyboard-response","109","54609","0.0-109.0","3Z4GS9HPNWW3EDHF4DA0JM9LJL477N","A3EA4SHCLJ1UZQ","36U4VBVNQOZD8NFWZXWF9CIHKRIURB","","null","<img src=""img/land5.png"" style=""width:200px;border:14px solid red;"">","null","","","","","","","","","",""
"","image-keyboard-response","110","55379","0.0-110.0","3Z4GS9HPNWW3EDHF4DA0JM9LJL477N","A3EA4SHCLJ1UZQ","36U4VBVNQOZD8NFWZXWF9CIHKRIURB","","768.6999999880791","img/land4.png","74","769.6999999880791","1","1","1","2","0.8,0.2,0.2,0.2,0.8,0.2,0.2,0.2,0.8","0.8,0.2,0.2,0.2,0.8,0.2,0.2,0.2,0.8","1","",""
"","html-keyboard-response","111","55682","0.0-111.0","3Z4GS9HPNWW3EDHF4DA0JM9LJL477N","A3EA4SHCLJ1UZQ","36U4VBVNQOZD8NFWZXWF9CIHKRIURB","","null","<img src=""img/land4.png"" style=""width:200px; border:14px solid green;"">","null","","","","","","","","","",""
"","image-keyboard-response","112","56043","0.0-112.0","3Z4GS9HPNWW3EDHF4DA0JM9LJL477N","A3EA4SHCLJ1UZQ","36U4VBVNQOZD8NFWZXWF9CIHKRIURB","","360.30000001192093","img/land1.png","74","361","1","0","2","2","0.8,0.2,0.2,0.2,0.8,0.2,0.2,0.2,0.8","0.8,0.2,0.2,0.2,0.8,0.2,0.2,0.2,0.8","1","",""
"","html-keyboard-response","113","56345","0.0-113.0","3Z4GS9HPNWW3EDHF4DA0JM9LJL477N","A3EA4SHCLJ1UZQ","36U4VBVNQOZD8NFWZXWF9CIHKRIURB","","null","<img src=""img/land1.png"" style=""width:200px;border:14px solid red;"">","null","","","","","","","","","",""
"","image-keyboard-response","114","56859","0.0-114.0","3Z4GS9HPNWW3EDHF4DA0JM9LJL477N","A3EA4SHCLJ1UZQ","36U4VBVNQOZD8NFWZXWF9CIHKRIURB","","512.2000000476837","img/land4.png","76","512.9000000357628","3","0","1","2","0.8,0.2,0.2,0.2,0.8,0.2,0.2,0.2,0.8","0.8,0.2,0.2,0.2,0.8,0.2,0.2,0.2,0.8","1","",""
"","html-keyboard-response","115","57162","0.0-115.0","3Z4GS9HPNWW3EDHF4DA0JM9LJL477N","A3EA4SHCLJ1UZQ","36U4VBVNQOZD8NFWZXWF9CIHKRIURB","","null","<img src=""img/land4.png"" style=""width:200px;border:14px solid red;"">","null","","","","","","","","","",""
"","image-keyboard-response","116","57611","0.0-116.0","3Z4GS9HPNWW3EDHF4DA0JM9LJL477N","A3EA4SHCLJ1UZQ","36U4VBVNQOZD8NFWZXWF9CIHKRIURB","","448.4000000357628","img/land4.png","74","449.30000001192093","1","1","1","2","0.8,0.2,0.2,0.2,0.8,0.2,0.2,0.2,0.8","0.8,0.2,0.2,0.2,0.8,0.2,0.2,0.2,0.8","1","",""
"","html-keyboard-response","117","57914","0.0-117.0","3Z4GS9HPNWW3EDHF4DA0JM9LJL477N","A3EA4SHCLJ1UZQ","36U4VBVNQOZD8NFWZXWF9CIHKRIURB","","null","<img src=""img/land4.png"" style=""width:200px; border:14px solid green;"">","null","","","","","","","","","",""
"","image-keyboard-response","118","58154","0.0-118.0","3Z4GS9HPNWW3EDHF4DA0JM9LJL477N","A3EA4SHCLJ1UZQ","36U4VBVNQOZD8NFWZXWF9CIHKRIURB","","239.5999999642372","img/land5.png","74","240.39999997615814","1","0","3","2","0.8,0.2,0.2,0.2,0.8,0.2,0.2,0.2,0.8","0.8,0.2,0.2,0.2,0.8,0.2,0.2,0.2,0.8","1","",""
"","html-keyboard-response","119","58457","0.0-119.0","3Z4GS9HPNWW3EDHF4DA0JM9LJL477N","A3EA4SHCLJ1UZQ","36U4VBVNQOZD8NFWZXWF9CIHKRIURB","","null","<img src=""img/land5.png"" style=""width:200px;border:14px solid red;"">","null","","","","","","","","","",""
"","image-keyboard-response","120","59018","0.0-120.0","3Z4GS9HPNWW3EDHF4DA0JM9LJL477N","A3EA4SHCLJ1UZQ","36U4VBVNQOZD8NFWZXWF9CIHKRIURB","","560.7999999523163","img/land1.png","74","561.5999999642372","1","0","2","2","0.8,0.2,0.2,0.2,0.8,0.2,0.2,0.2,0.8","0.8,0.2,0.2,0.2,0.8,0.2,0.2,0.2,0.8","1","",""
"","html-keyboard-response","121","59321","0.0-121.0","3Z4GS9HPNWW3EDHF4DA0JM9LJL477N","A3EA4SHCLJ1UZQ","36U4VBVNQOZD8NFWZXWF9CIHKRIURB","","null","<img src=""img/land1.png"" style=""width:200px;border:14px solid red;"">","null","","","","","","","","","",""
"","image-keyboard-response","122","59818","0.0-122.0","3Z4GS9HPNWW3EDHF4DA0JM9LJL477N","A3EA4SHCLJ1UZQ","36U4VBVNQOZD8NFWZXWF9CIHKRIURB","","496.19999998807907","img/land5.png","74","497","1","0","3","2","0.8,0.2,0.2,0.2,0.8,0.2,0.2,0.2,0.8","0.8,0.2,0.2,0.2,0.8,0.2,0.2,0.2,0.8","1","",""
"","html-keyboard-response","123","60121","0.0-123.0","3Z4GS9HPNWW3EDHF4DA0JM9LJL477N","A3EA4SHCLJ1UZQ","36U4VBVNQOZD8NFWZXWF9CIHKRIURB","","null","<img src=""img/land5.png"" style=""width:200px;border:14px solid red;"">","null","","","","","","","","","",""
"","image-keyboard-response","124","60130","0.0-124.0","3Z4GS9HPNWW3EDHF4DA0JM9LJL477N","A3EA4SHCLJ1UZQ","36U4VBVNQOZD8NFWZXWF9CIHKRIURB","","8","img/land4.png","76","9","3","0","1","2","0.8,0.2,0.2,0.2,0.8,0.2,0.2,0.2,0.8","0.8,0.2,0.2,0.2,0.8,0.2,0.2,0.2,0.8","1","",""
"","html-keyboard-response","125","60433","0.0-125.0","3Z4GS9HPNWW3EDHF4DA0JM9LJL477N","A3EA4SHCLJ1UZQ","36U4VBVNQOZD8NFWZXWF9CIHKRIURB","","null","<img src=""img/land4.png"" style=""width:200px;border:14px solid red;"">","null","","","","","","","","","",""
"","image-keyboard-response","126","60498","0.0-126.0","3Z4GS9HPNWW3EDHF4DA0JM9LJL477N","A3EA4SHCLJ1UZQ","36U4VBVNQOZD8NFWZXWF9CIHKRIURB","","63.89999997615814","img/land4.png","76","64.80000001192093","3","0","1","2","0.8,0.2,0.2,0.2,0.8,0.2,0.2,0.2,0.8","0.8,0.2,0.2,0.2,0.8,0.2,0.2,0.2,0.8","1","",""
"","html-keyboard-response","127","60801","0.0-127.0","3Z4GS9HPNWW3EDHF4DA0JM9LJL477N","A3EA4SHCLJ1UZQ","36U4VBVNQOZD8NFWZXWF9CIHKRIURB","","null","<img src=""img/land4.png"" style=""width:200px;border:14px solid red;"">","null","","","","","","","","","",""
"","image-keyboard-response","128","60954","0.0-128.0","3Z4GS9HPNWW3EDHF4DA0JM9LJL477N","A3EA4SHCLJ1UZQ","36U4VBVNQOZD8NFWZXWF9CIHKRIURB","","152.80000001192093","img/land4.png","74","153.5","1","1","1","2","0.8,0.2,0.2,0.2,0.8,0.2,0.2,0.2,0.8","0.8,0.2,0.2,0.2,0.8,0.2,0.2,0.2,0.8","1","",""
"","html-keyboard-response","129","61258","0.0-129.0","3Z4GS9HPNWW3EDHF4DA0JM9LJL477N","A3EA4SHCLJ1UZQ","36U4VBVNQOZD8NFWZXWF9CIHKRIURB","","null","<img src=""img/land4.png"" style=""width:200px; border:14px solid green;"">","null","","","","","","","","","",""
"","image-keyboard-response","130","61322","0.0-130.0","3Z4GS9HPNWW3EDHF4DA0JM9LJL477N","A3EA4SHCLJ1UZQ","36U4VBVNQOZD8NFWZXWF9CIHKRIURB","","63.69999998807907","img/land4.png","74","64.39999997615814","1","1","1","2","0.8,0.2,0.2,0.2,0.8,0.2,0.2,0.2,0.8","0.8,0.2,0.2,0.2,0.8,0.2,0.2,0.2,0.8","1","",""
"","html-keyboard-response","131","61625","0.0-131.0","3Z4GS9HPNWW3EDHF4DA0JM9LJL477N","A3EA4SHCLJ1UZQ","36U4VBVNQOZD8NFWZXWF9CIHKRIURB","","null","<img src=""img/land4.png"" style=""width:200px; border:14px solid green;"">","null","","","","","","","","","",""
"","image-keyboard-response","132","61754","0.0-132.0","3Z4GS9HPNWW3EDHF4DA0JM9LJL477N","A3EA4SHCLJ1UZQ","36U4VBVNQOZD8NFWZXWF9CIHKRIURB","","128.30000001192093","img/land1.png","76","129","3","0","2","2","0.8,0.2,0.2,0.2,0.8,0.2,0.2,0.2,0.8","0.8,0.2,0.2,0.2,0.8,0.2,0.2,0.2,0.8","1","",""
"","html-keyboard-response","133","62058","0.0-133.0","3Z4GS9HPNWW3EDHF4DA0JM9LJL477N","A3EA4SHCLJ1UZQ","36U4VBVNQOZD8NFWZXWF9CIHKRIURB","","null","<img src=""img/land1.png"" style=""width:200px;border:14px solid red;"">","null","","","","","","","","","",""
"","image-keyboard-response","134","62626","0.0-134.0","3Z4GS9HPNWW3EDHF4DA0JM9LJL477N","A3EA4SHCLJ1UZQ","36U4VBVNQOZD8NFWZXWF9CIHKRIURB","","567.4000000357628","img/land4.png","76","568.1000000238419","3","0","1","2","0.8,0.2,0.2,0.2,0.8,0.2,0.2,0.2,0.8","0.8,0.2,0.2,0.2,0.8,0.2,0.2,0.2,0.8","1","",""
"","html-keyboard-response","135","62929","0.0-135.0","3Z4GS9HPNWW3EDHF4DA0JM9LJL477N","A3EA4SHCLJ1UZQ","36U4VBVNQOZD8NFWZXWF9CIHKRIURB","","null","<img src=""img/land4.png"" style=""width:200px;border:14px solid red;"">","null","","","","","","","","","",""
"","image-keyboard-response","136","63802","0.0-136.0","3Z4GS9HPNWW3EDHF4DA0JM9LJL477N","A3EA4SHCLJ1UZQ","36U4VBVNQOZD8NFWZXWF9CIHKRIURB","","871.8999999761581","img/land4.png","74","872.6999999880791","1","1","1","2","0.8,0.2,0.2,0.2,0.8,0.2,0.2,0.2,0.8","0.8,0.2,0.2,0.2,0.8,0.2,0.2,0.2,0.8","1","",""
"","html-keyboard-response","137","64106","0.0-137.0","3Z4GS9HPNWW3EDHF4DA0JM9LJL477N","A3EA4SHCLJ1UZQ","36U4VBVNQOZD8NFWZXWF9CIHKRIURB","","null","<img src=""img/land4.png"" style=""width:200px; border:14px solid green;"">","null","","","","","","","","","",""
"","image-keyboard-response","138","64870","0.0-138.0","3Z4GS9HPNWW3EDHF4DA0JM9LJL477N","A3EA4SHCLJ1UZQ","36U4VBVNQOZD8NFWZXWF9CIHKRIURB","","762.5999999642372","img/land5.png","76","763.3999999761581","3","1","3","2","0.8,0.2,0.2,0.2,0.8,0.2,0.2,0.2,0.8","0.8,0.2,0.2,0.2,0.8,0.2,0.2,0.2,0.8","1","",""
"","html-keyboard-response","139","65174","0.0-139.0","3Z4GS9HPNWW3EDHF4DA0JM9LJL477N","A3EA4SHCLJ1UZQ","36U4VBVNQOZD8NFWZXWF9CIHKRIURB","","null","<img src=""img/land5.png"" style=""width:200px; border:14px solid green;"">","null","","","","","","","","","",""
"","image-keyboard-response","140","65795","0.0-140.0","3Z4GS9HPNWW3EDHF4DA0JM9LJL477N","A3EA4SHCLJ1UZQ","36U4VBVNQOZD8NFWZXWF9CIHKRIURB","","620.4000000357628","img/land4.png","75","621.1000000238419","2","0","1","2","0.8,0.2,0.2,0.2,0.8,0.2,0.2,0.2,0.8","0.8,0.2,0.2,0.2,0.8,0.2,0.2,0.2,0.8","1","",""
"","html-keyboard-response","141","66098","0.0-141.0","3Z4GS9HPNWW3EDHF4DA0JM9LJL477N","A3EA4SHCLJ1UZQ","36U4VBVNQOZD8NFWZXWF9CIHKRIURB","","null","<img src=""img/land4.png"" style=""width:200px;border:14px solid red;"">","null","","","","","","","","","",""
"","image-keyboard-response","142","66547","0.0-142.0","3Z4GS9HPNWW3EDHF4DA0JM9LJL477N","A3EA4SHCLJ1UZQ","36U4VBVNQOZD8NFWZXWF9CIHKRIURB","","447.30000001192093","img/land4.png","74","448.19999998807907","1","1","1","2","0.8,0.2,0.2,0.2,0.8,0.2,0.2,0.2,0.8","0.8,0.2,0.2,0.2,0.8,0.2,0.2,0.2,0.8","1","",""
"","html-keyboard-response","143","66849","0.0-143.0","3Z4GS9HPNWW3EDHF4DA0JM9LJL477N","A3EA4SHCLJ1UZQ","36U4VBVNQOZD8NFWZXWF9CIHKRIURB","","null","<img src=""img/land4.png"" style=""width:200px; border:14px solid green;"">","null","","","","","","","","","",""
"","image-keyboard-response","144","67588","0.0-144.0","3Z4GS9HPNWW3EDHF4DA0JM9LJL477N","A3EA4SHCLJ1UZQ","36U4VBVNQOZD8NFWZXWF9CIHKRIURB","","737.6999999880791","img/land5.png","76","738.3999999761581","3","0","3","2","0.8,0.2,0.2,0.2,0.8,0.2,0.2,0.2,0.8","0.8,0.2,0.2,0.2,0.8,0.2,0.2,0.2,0.8","1","",""
"","html-keyboard-response","145","67889","0.0-145.0","3Z4GS9HPNWW3EDHF4DA0JM9LJL477N","A3EA4SHCLJ1UZQ","36U4VBVNQOZD8NFWZXWF9CIHKRIURB","","null","<img src=""img/land5.png"" style=""width:200px;border:14px solid red;"">","null","","","","","","","","","",""
"","image-keyboard-response","146","68402","0.0-146.0","3Z4GS9HPNWW3EDHF4DA0JM9LJL477N","A3EA4SHCLJ1UZQ","36U4VBVNQOZD8NFWZXWF9CIHKRIURB","","511.80000001192093","img/land4.png","74","512.6000000238419","1","1","1","2","0.8,0.2,0.2,0.2,0.8,0.2,0.2,0.2,0.8","0.8,0.2,0.2,0.2,0.8,0.2,0.2,0.2,0.8","1","",""
"","html-keyboard-response","147","68706","0.0-147.0","3Z4GS9HPNWW3EDHF4DA0JM9LJL477N","A3EA4SHCLJ1UZQ","36U4VBVNQOZD8NFWZXWF9CIHKRIURB","","null","<img src=""img/land4.png"" style=""width:200px; border:14px solid green;"">","null","","","","","","","","","",""
"","image-keyboard-response","148","69018","0.0-148.0","3Z4GS9HPNWW3EDHF4DA0JM9LJL477N","A3EA4SHCLJ1UZQ","36U4VBVNQOZD8NFWZXWF9CIHKRIURB","","311.60000002384186","img/land4.png","74","312.4000000357628","1","0","1","2","0.8,0.2,0.2,0.2,0.8,0.2,0.2,0.2,0.8","0.8,0.2,0.2,0.2,0.8,0.2,0.2,0.2,0.8","1","",""
"","html-keyboard-response","149","69321","0.0-149.0","3Z4GS9HPNWW3EDHF4DA0JM9LJL477N","A3EA4SHCLJ1UZQ","36U4VBVNQOZD8NFWZXWF9CIHKRIURB","","null","<img src=""img/land4.png"" style=""width:200px;border:14px solid red;"">","null","","","","","","","","","",""
"","image-keyboard-response","150","69690","0.0-150.0","3Z4GS9HPNWW3EDHF4DA0JM9LJL477N","A3EA4SHCLJ1UZQ","36U4VBVNQOZD8NFWZXWF9CIHKRIURB","","368","img/land5.png","74","368.7999999523163","1","0","3","2","0.8,0.2,0.2,0.2,0.8,0.2,0.2,0.2,0.8","0.8,0.2,0.2,0.2,0.8,0.2,0.2,0.2,0.8","1","",""
"","html-keyboard-response","151","69994","0.0-151.0","3Z4GS9HPNWW3EDHF4DA0JM9LJL477N","A3EA4SHCLJ1UZQ","36U4VBVNQOZD8NFWZXWF9CIHKRIURB","","null","<img src=""img/land5.png"" style=""width:200px;border:14px solid red;"">","null","","","","","","","","","",""
"","image-keyboard-response","152","70314","0.0-152.0","3Z4GS9HPNWW3EDHF4DA0JM9LJL477N","A3EA4SHCLJ1UZQ","36U4VBVNQOZD8NFWZXWF9CIHKRIURB","","319.69999998807907","img/land4.png","74","320.30000001192093","1","1","1","2","0.8,0.2,0.2,0.2,0.8,0.2,0.2,0.2,0.8","0.8,0.2,0.2,0.2,0.8,0.2,0.2,0.2,0.8","1","",""
"","html-keyboard-response","153","70618","0.0-153.0","3Z4GS9HPNWW3EDHF4DA0JM9LJL477N","A3EA4SHCLJ1UZQ","36U4VBVNQOZD8NFWZXWF9CIHKRIURB","","null","<img src=""img/land4.png"" style=""width:200px; border:14px solid green;"">","null","","","","","","","","","",""
"","image-keyboard-response","154","70954","0.0-154.0","3Z4GS9HPNWW3EDHF4DA0JM9LJL477N","A3EA4SHCLJ1UZQ","36U4VBVNQOZD8NFWZXWF9CIHKRIURB","","335.30000001192093","img/land4.png","74","336.10000002384186","1","1","1","2","0.8,0.2,0.2,0.2,0.8,0.2,0.2,0.2,0.8","0.8,0.2,0.2,0.2,0.8,0.2,0.2,0.2,0.8","1","",""
"","html-keyboard-response","155","71258","0.0-155.0","3Z4GS9HPNWW3EDHF4DA0JM9LJL477N","A3EA4SHCLJ1UZQ","36U4VBVNQOZD8NFWZXWF9CIHKRIURB","","null","<img src=""img/land4.png"" style=""width:200px; border:14px solid green;"">","null","","","","","","","","","",""
"","image-keyboard-response","156","71298","0.0-156.0","3Z4GS9HPNWW3EDHF4DA0JM9LJL477N","A3EA4SHCLJ1UZQ","36U4VBVNQOZD8NFWZXWF9CIHKRIURB","","39.30000001192093","img/land5.png","76","40.19999998807907","3","1","3","2","0.8,0.2,0.2,0.2,0.8,0.2,0.2,0.2,0.8","0.8,0.2,0.2,0.2,0.8,0.2,0.2,0.2,0.8","1","",""
"","html-keyboard-response","157","71601","0.0-157.0","3Z4GS9HPNWW3EDHF4DA0JM9LJL477N","A3EA4SHCLJ1UZQ","36U4VBVNQOZD8NFWZXWF9CIHKRIURB","","null","<img src=""img/land5.png"" style=""width:200px; border:14px solid green;"">","null","","","","","","","","","",""
"","image-keyboard-response","158","71738","0.0-158.0","3Z4GS9HPNWW3EDHF4DA0JM9LJL477N","A3EA4SHCLJ1UZQ","36U4VBVNQOZD8NFWZXWF9CIHKRIURB","","136.19999998807907","img/land4.png","76","136.89999997615814","3","0","1","2","0.8,0.2,0.2,0.2,0.8,0.2,0.2,0.2,0.8","0.8,0.2,0.2,0.2,0.8,0.2,0.2,0.2,0.8","1","",""
"","html-keyboard-response","159","72041","0.0-159.0","3Z4GS9HPNWW3EDHF4DA0JM9LJL477N","A3EA4SHCLJ1UZQ","36U4VBVNQOZD8NFWZXWF9CIHKRIURB","","null","<img src=""img/land4.png"" style=""width:200px;border:14px solid red;"">","null","","","","","","","","","",""
"","image-keyboard-response","160","72074","0.0-160.0","3Z4GS9HPNWW3EDHF4DA0JM9LJL477N","A3EA4SHCLJ1UZQ","36U4VBVNQOZD8NFWZXWF9CIHKRIURB","","31.899999976158142","img/land4.png","74","32.59999996423721","1","1","1","2","0.8,0.2,0.2,0.2,0.8,0.2,0.2,0.2,0.8","0.8,0.2,0.2,0.2,0.8,0.2,0.2,0.2,0.8","1","",""
"","html-keyboard-response","161","72378","0.0-161.0","3Z4GS9HPNWW3EDHF4DA0JM9LJL477N","A3EA4SHCLJ1UZQ","36U4VBVNQOZD8NFWZXWF9CIHKRIURB","","null","<img src=""img/land4.png"" style=""width:200px; border:14px solid green;"">","null","","","","","","","","","",""
"","image-keyboard-response","162","72450","0.0-162.0","3Z4GS9HPNWW3EDHF4DA0JM9LJL477N","A3EA4SHCLJ1UZQ","36U4VBVNQOZD8NFWZXWF9CIHKRIURB","","70.89999997615814","img/land1.png","76","71.79999995231628","3","0","2","2","0.8,0.2,0.2,0.2,0.8,0.2,0.2,0.2,0.8","0.8,0.2,0.2,0.2,0.8,0.2,0.2,0.2,0.8","1","",""
"","html-keyboard-response","163","72754","0.0-163.0","3Z4GS9HPNWW3EDHF4DA0JM9LJL477N","A3EA4SHCLJ1UZQ","36U4VBVNQOZD8NFWZXWF9CIHKRIURB","","null","<img src=""img/land1.png"" style=""width:200px;border:14px solid red;"">","null","","","","","","","","","",""
"","image-keyboard-response","164","72962","0.0-164.0","3Z4GS9HPNWW3EDHF4DA0JM9LJL477N","A3EA4SHCLJ1UZQ","36U4VBVNQOZD8NFWZXWF9CIHKRIURB","","207.5999999642372","img/land4.png","76","208.39999997615814","3","0","1","2","0.8,0.2,0.2,0.2,0.8,0.2,0.2,0.2,0.8","0.8,0.2,0.2,0.2,0.8,0.2,0.2,0.2,0.8","1","",""
"","html-keyboard-response","165","73266","0.0-165.0","3Z4GS9HPNWW3EDHF4DA0JM9LJL477N","A3EA4SHCLJ1UZQ","36U4VBVNQOZD8NFWZXWF9CIHKRIURB","","null","<img src=""img/land4.png"" style=""width:200px;border:14px solid red;"">","null","","","","","","","","","",""
"","image-keyboard-response","166","73346","0.0-166.0","3Z4GS9HPNWW3EDHF4DA0JM9LJL477N","A3EA4SHCLJ1UZQ","36U4VBVNQOZD8NFWZXWF9CIHKRIURB","","79.19999998807907","img/land4.png","76","79.89999997615814","3","0","1","2","0.8,0.2,0.2,0.2,0.8,0.2,0.2,0.2,0.8","0.8,0.2,0.2,0.2,0.8,0.2,0.2,0.2,0.8","1","",""
"","html-keyboard-response","167","73649","0.0-167.0","3Z4GS9HPNWW3EDHF4DA0JM9LJL477N","A3EA4SHCLJ1UZQ","36U4VBVNQOZD8NFWZXWF9CIHKRIURB","","null","<img src=""img/land4.png"" style=""width:200px;border:14px solid red;"">","null","","","","","","","","","",""
"","image-keyboard-response","168","73706","0.0-168.0","3Z4GS9HPNWW3EDHF4DA0JM9LJL477N","A3EA4SHCLJ1UZQ","36U4VBVNQOZD8NFWZXWF9CIHKRIURB","","56.10000002384186","img/land4.png","76","56.69999998807907","3","0","1","2","0.8,0.2,0.2,0.2,0.8,0.2,0.2,0.2,0.8","0.8,0.2,0.2,0.2,0.8,0.2,0.2,0.2,0.8","1","",""
"","html-keyboard-response","169","74009","0.0-169.0","3Z4GS9HPNWW3EDHF4DA0JM9LJL477N","A3EA4SHCLJ1UZQ","36U4VBVNQOZD8NFWZXWF9CIHKRIURB","","null","<img src=""img/land4.png"" style=""width:200px;border:14px solid red;"">","null","","","","","","","","","",""
"","image-keyboard-response","170","74122","0.0-170.0","3Z4GS9HPNWW3EDHF4DA0JM9LJL477N","A3EA4SHCLJ1UZQ","36U4VBVNQOZD8NFWZXWF9CIHKRIURB","","112.40000003576279","img/land4.png","76","113.09999996423721","3","1","1","2","0.8,0.2,0.2,0.2,0.8,0.2,0.2,0.2,0.8","0.8,0.2,0.2,0.2,0.8,0.2,0.2,0.2,0.8","1","",""
"","html-keyboard-response","171","74426","0.0-171.0","3Z4GS9HPNWW3EDHF4DA0JM9LJL477N","A3EA4SHCLJ1UZQ","36U4VBVNQOZD8NFWZXWF9CIHKRIURB","","null","<img src=""img/land4.png"" style=""width:200px; border:14px solid green;"">","null","","","","","","","","","",""
"","image-keyboard-response","172","74506","0.0-172.0","3Z4GS9HPNWW3EDHF4DA0JM9LJL477N","A3EA4SHCLJ1UZQ","36U4VBVNQOZD8NFWZXWF9CIHKRIURB","","79","img/land4.png","76","79.79999995231628","3","0","1","2","0.8,0.2,0.2,0.2,0.8,0.2,0.2,0.2,0.8","0.8,0.2,0.2,0.2,0.8,0.2,0.2,0.2,0.8","1","",""
"","html-keyboard-response","173","74809","0.0-173.0","3Z4GS9HPNWW3EDHF4DA0JM9LJL477N","A3EA4SHCLJ1UZQ","36U4VBVNQOZD8NFWZXWF9CIHKRIURB","","null","<img src=""img/land4.png"" style=""width:200px;border:14px solid red;"">","null","","","","","","","","","",""
"","image-keyboard-response","174","74922","0.0-174.0","3Z4GS9HPNWW3EDHF4DA0JM9LJL477N","A3EA4SHCLJ1UZQ","36U4VBVNQOZD8NFWZXWF9CIHKRIURB","","111.89999997615814","img/land4.png","74","112.60000002384186","1","1","1","2","0.8,0.2,0.2,0.2,0.8,0.2,0.2,0.2,0.8","0.8,0.2,0.2,0.2,0.8,0.2,0.2,0.2,0.8","1","",""
"","html-keyboard-response","175","75225","0.0-175.0","3Z4GS9HPNWW3EDHF4DA0JM9LJL477N","A3EA4SHCLJ1UZQ","36U4VBVNQOZD8NFWZXWF9CIHKRIURB","","null","<img src=""img/land4.png"" style=""width:200px; border:14px solid green;"">","null","","","","","","","","","",""
"","image-keyboard-response","176","75298","0.0-176.0","3Z4GS9HPNWW3EDHF4DA0JM9LJL477N","A3EA4SHCLJ1UZQ","36U4VBVNQOZD8NFWZXWF9CIHKRIURB","","72.39999997615814","img/land4.png","76","73.19999998807907","3","0","1","2","0.8,0.2,0.2,0.2,0.8,0.2,0.2,0.2,0.8","0.8,0.2,0.2,0.2,0.8,0.2,0.2,0.2,0.8","1","",""
"","html-keyboard-response","177","75602","0.0-177.0","3Z4GS9HPNWW3EDHF4DA0JM9LJL477N","A3EA4SHCLJ1UZQ","36U4VBVNQOZD8NFWZXWF9CIHKRIURB","","null","<img src=""img/land4.png"" style=""width:200px;border:14px solid red;"">","null","","","","","","","","","",""
"","image-keyboard-response","178","75674","0.0-178.0","3Z4GS9HPNWW3EDHF4DA0JM9LJL477N","A3EA4SHCLJ1UZQ","36U4VBVNQOZD8NFWZXWF9CIHKRIURB","","71.69999998807907","img/land4.png","74","72.5","1","1","1","2","0.8,0.2,0.2,0.2,0.8,0.2,0.2,0.2,0.8","0.8,0.2,0.2,0.2,0.8,0.2,0.2,0.2,0.8","1","",""
"","html-keyboard-response","179","75977","0.0-179.0","3Z4GS9HPNWW3EDHF4DA0JM9LJL477N","A3EA4SHCLJ1UZQ","36U4VBVNQOZD8NFWZXWF9CIHKRIURB","","null","<img src=""img/land4.png"" style=""width:200px; border:14px solid green;"">","null","","","","","","","","","",""
"","image-keyboard-response","180","76107","0.0-180.0","3Z4GS9HPNWW3EDHF4DA0JM9LJL477N","A3EA4SHCLJ1UZQ","36U4VBVNQOZD8NFWZXWF9CIHKRIURB","","128.5","img/land4.png","76","129.4000000357628","3","0","1","2","0.8,0.2,0.2,0.2,0.8,0.2,0.2,0.2,0.8","0.8,0.2,0.2,0.2,0.8,0.2,0.2,0.2,0.8","1","",""
"","html-keyboard-response","181","76410","0.0-181.0","3Z4GS9HPNWW3EDHF4DA0JM9LJL477N","A3EA4SHCLJ1UZQ","36U4VBVNQOZD8NFWZXWF9CIHKRIURB","","null","<img src=""img/land4.png"" style=""width:200px;border:14px solid red;"">","null","","","","","","","","","",""
"","image-keyboard-response","182","76850","0.0-182.0","3Z4GS9HPNWW3EDHF4DA0JM9LJL477N","A3EA4SHCLJ1UZQ","36U4VBVNQOZD8NFWZXWF9CIHKRIURB","","439","img/land4.png","76","439.9000000357628","3","0","1","2","0.8,0.2,0.2,0.2,0.8,0.2,0.2,0.2,0.8","0.8,0.2,0.2,0.2,0.8,0.2,0.2,0.2,0.8","1","",""
"","html-keyboard-response","183","77154","0.0-183.0","3Z4GS9HPNWW3EDHF4DA0JM9LJL477N","A3EA4SHCLJ1UZQ","36U4VBVNQOZD8NFWZXWF9CIHKRIURB","","null","<img src=""img/land4.png"" style=""width:200px;border:14px solid red;"">","null","","","","","","","","","",""
"","image-keyboard-response","184","77594","0.0-184.0","3Z4GS9HPNWW3EDHF4DA0JM9LJL477N","A3EA4SHCLJ1UZQ","36U4VBVNQOZD8NFWZXWF9CIHKRIURB","","439.19999998807907","img/land1.png","76","440","3","0","2","2","0.8,0.2,0.2,0.2,0.8,0.2,0.2,0.2,0.8","0.8,0.2,0.2,0.2,0.8,0.2,0.2,0.2,0.8","1","",""
"","html-keyboard-response","185","77898","0.0-185.0","3Z4GS9HPNWW3EDHF4DA0JM9LJL477N","A3EA4SHCLJ1UZQ","36U4VBVNQOZD8NFWZXWF9CIHKRIURB","","null","<img src=""img/land1.png"" style=""width:200px;border:14px solid red;"">","null","","","","","","","","","",""
"","image-keyboard-response","186","78498","0.0-186.0","3Z4GS9HPNWW3EDHF4DA0JM9LJL477N","A3EA4SHCLJ1UZQ","36U4VBVNQOZD8NFWZXWF9CIHKRIURB","","599.2000000476837","img/land5.png","76","600.0999999642372","3","1","3","2","0.8,0.2,0.2,0.2,0.8,0.2,0.2,0.2,0.8","0.8,0.2,0.2,0.2,0.8,0.2,0.2,0.2,0.8","1","",""
"","html-keyboard-response","187","78801","0.0-187.0","3Z4GS9HPNWW3EDHF4DA0JM9LJL477N","A3EA4SHCLJ1UZQ","36U4VBVNQOZD8NFWZXWF9CIHKRIURB","","null","<img src=""img/land5.png"" style=""width:200px; border:14px solid green;"">","null","","","","","","","","","",""
"","image-keyboard-response","188","79114","0.0-188.0","3Z4GS9HPNWW3EDHF4DA0JM9LJL477N","A3EA4SHCLJ1UZQ","36U4VBVNQOZD8NFWZXWF9CIHKRIURB","","312.30000001192093","img/land5.png","76","313","3","1","3","2","0.8,0.2,0.2,0.2,0.8,0.2,0.2,0.2,0.8","0.8,0.2,0.2,0.2,0.8,0.2,0.2,0.2,0.8","1","",""
"","html-keyboard-response","189","79417","0.0-189.0","3Z4GS9HPNWW3EDHF4DA0JM9LJL477N","A3EA4SHCLJ1UZQ","36U4VBVNQOZD8NFWZXWF9CIHKRIURB","","null","<img src=""img/land5.png"" style=""width:200px; border:14px solid green;"">","null","","","","","","","","","",""
"","image-keyboard-response","190","80010","0.0-190.0","3Z4GS9HPNWW3EDHF4DA0JM9LJL477N","A3EA4SHCLJ1UZQ","36U4VBVNQOZD8NFWZXWF9CIHKRIURB","","592.4000000357628","img/land4.png","75","593.1000000238419","2","0","1","2","0.8,0.2,0.2,0.2,0.8,0.2,0.2,0.2,0.8","0.8,0.2,0.2,0.2,0.8,0.2,0.2,0.2,0.8","1","",""
"","html-keyboard-response","191","80313","0.0-191.0","3Z4GS9HPNWW3EDHF4DA0JM9LJL477N","A3EA4SHCLJ1UZQ","36U4VBVNQOZD8NFWZXWF9CIHKRIURB","","null","<img src=""img/land4.png"" style=""width:200px;border:14px solid red;"">","null","","","","","","","","","",""
"","image-keyboard-response","192","80530","0.0-192.0","3Z4GS9HPNWW3EDHF4DA0JM9LJL477N","A3EA4SHCLJ1UZQ","36U4VBVNQOZD8NFWZXWF9CIHKRIURB","","215.60000002384186","img/land5.png","75","216.39999997615814","2","0","3","2","0.8,0.2,0.2,0.2,0.8,0.2,0.2,0.2,0.8","0.8,0.2,0.2,0.2,0.8,0.2,0.2,0.2,0.8","1","",""
"","html-keyboard-response","193","80833","0.0-193.0","3Z4GS9HPNWW3EDHF4DA0JM9LJL477N","A3EA4SHCLJ1UZQ","36U4VBVNQOZD8NFWZXWF9CIHKRIURB","","null","<img src=""img/land5.png"" style=""width:200px;border:14px solid red;"">","null","","","","","","","","","",""
"","image-keyboard-response","194","81098","0.0-194.0","3Z4GS9HPNWW3EDHF4DA0JM9LJL477N","A3EA4SHCLJ1UZQ","36U4VBVNQOZD8NFWZXWF9CIHKRIURB","","264.5","img/land5.png","76","265.5","3","1","3","2","0.8,0.2,0.2,0.2,0.8,0.2,0.2,0.2,0.8","0.8,0.2,0.2,0.2,0.8,0.2,0.2,0.2,0.8","1","",""
"","html-keyboard-response","195","81401","0.0-195.0","3Z4GS9HPNWW3EDHF4DA0JM9LJL477N","A3EA4SHCLJ1UZQ","36U4VBVNQOZD8NFWZXWF9CIHKRIURB","","null","<img src=""img/land5.png"" style=""width:200px; border:14px solid green;"">","null","","","","","","","","","",""
"","image-keyboard-response","196","81858","0.0-196.0","3Z4GS9HPNWW3EDHF4DA0JM9LJL477N","A3EA4SHCLJ1UZQ","36U4VBVNQOZD8NFWZXWF9CIHKRIURB","","455.5999999642372","img/land1.png","74","456.39999997615814","1","0","2","2","0.8,0.2,0.2,0.2,0.8,0.2,0.2,0.2,0.8","0.8,0.2,0.2,0.2,0.8,0.2,0.2,0.2,0.8","1","",""
"","html-keyboard-response","197","82162","0.0-197.0","3Z4GS9HPNWW3EDHF4DA0JM9LJL477N","A3EA4SHCLJ1UZQ","36U4VBVNQOZD8NFWZXWF9CIHKRIURB","","null","<img src=""img/land1.png"" style=""width:200px;border:14px solid red;"">","null","","","","","","","","","",""
"","image-keyboard-response","198","82354","0.0-198.0","3Z4GS9HPNWW3EDHF4DA0JM9LJL477N","A3EA4SHCLJ1UZQ","36U4VBVNQOZD8NFWZXWF9CIHKRIURB","","191.0999999642372","img/land4.png","75","191.69999998807907","2","0","1","2","0.8,0.2,0.2,0.2,0.8,0.2,0.2,0.2,0.8","0.8,0.2,0.2,0.2,0.8,0.2,0.2,0.2,0.8","1","",""
"","html-keyboard-response","199","82657","0.0-199.0","3Z4GS9HPNWW3EDHF4DA0JM9LJL477N","A3EA4SHCLJ1UZQ","36U4VBVNQOZD8NFWZXWF9CIHKRIURB","","null","<img src=""img/land4.png"" style=""width:200px;border:14px solid red;"">","null","","","","","","","","","",""
"","image-keyboard-response","200","82842","0.0-200.0","3Z4GS9HPNWW3EDHF4DA0JM9LJL477N","A3EA4SHCLJ1UZQ","36U4VBVNQOZD8NFWZXWF9CIHKRIURB","","184.0999999642372","img/land5.png","74","184.89999997615814","1","0","3","2","0.8,0.2,0.2,0.2,0.8,0.2,0.2,0.2,0.8","0.8,0.2,0.2,0.2,0.8,0.2,0.2,0.2,0.8","1","",""
"","html-keyboard-response","201","83145","0.0-201.0","3Z4GS9HPNWW3EDHF4DA0JM9LJL477N","A3EA4SHCLJ1UZQ","36U4VBVNQOZD8NFWZXWF9CIHKRIURB","","null","<img src=""img/land5.png"" style=""width:200px;border:14px solid red;"">","null","","","","","","","","","",""
"","image-keyboard-response","202","83258","0.0-202.0","3Z4GS9HPNWW3EDHF4DA0JM9LJL477N","A3EA4SHCLJ1UZQ","36U4VBVNQOZD8NFWZXWF9CIHKRIURB","","112","img/land4.png","74","113","1","1","1","2","0.8,0.2,0.2,0.2,0.8,0.2,0.2,0.2,0.8","0.8,0.2,0.2,0.2,0.8,0.2,0.2,0.2,0.8","1","",""
"","html-keyboard-response","203","83561","0.0-203.0","3Z4GS9HPNWW3EDHF4DA0JM9LJL477N","A3EA4SHCLJ1UZQ","36U4VBVNQOZD8NFWZXWF9CIHKRIURB","","null","<img src=""img/land4.png"" style=""width:200px; border:14px solid green;"">","null","","","","","","","","","",""
"","image-keyboard-response","204","83778","0.0-204.0","3Z4GS9HPNWW3EDHF4DA0JM9LJL477N","A3EA4SHCLJ1UZQ","36U4VBVNQOZD8NFWZXWF9CIHKRIURB","","216","img/land4.png","75","216.69999998807907","2","0","1","2","0.8,0.2,0.2,0.2,0.8,0.2,0.2,0.2,0.8","0.8,0.2,0.2,0.2,0.8,0.2,0.2,0.2,0.8","1","",""
"","html-keyboard-response","205","84082","0.0-205.0","3Z4GS9HPNWW3EDHF4DA0JM9LJL477N","A3EA4SHCLJ1UZQ","36U4VBVNQOZD8NFWZXWF9CIHKRIURB","","null","<img src=""img/land4.png"" style=""width:200px;border:14px solid red;"">","null","","","","","","","","","",""
"","image-keyboard-response","206","84194","0.0-206.0","3Z4GS9HPNWW3EDHF4DA0JM9LJL477N","A3EA4SHCLJ1UZQ","36U4VBVNQOZD8NFWZXWF9CIHKRIURB","","111.19999998807907","img/land4.png","75","112","2","0","1","2","0.8,0.2,0.2,0.2,0.8,0.2,0.2,0.2,0.8","0.8,0.2,0.2,0.2,0.8,0.2,0.2,0.2,0.8","1","",""
"","html-keyboard-response","207","84496","0.0-207.0","3Z4GS9HPNWW3EDHF4DA0JM9LJL477N","A3EA4SHCLJ1UZQ","36U4VBVNQOZD8NFWZXWF9CIHKRIURB","","null","<img src=""img/land4.png"" style=""width:200px;border:14px solid red;"">","null","","","","","","","","","",""
"","image-keyboard-response","208","84610","0.0-208.0","3Z4GS9HPNWW3EDHF4DA0JM9LJL477N","A3EA4SHCLJ1UZQ","36U4VBVNQOZD8NFWZXWF9CIHKRIURB","","112.59999996423721","img/land4.png","75","113.5","2","0","1","2","0.8,0.2,0.2,0.2,0.8,0.2,0.2,0.2,0.8","0.8,0.2,0.2,0.2,0.8,0.2,0.2,0.2,0.8","1","",""
"","html-keyboard-response","209","84914","0.0-209.0","3Z4GS9HPNWW3EDHF4DA0JM9LJL477N","A3EA4SHCLJ1UZQ","36U4VBVNQOZD8NFWZXWF9CIHKRIURB","","null","<img src=""img/land4.png"" style=""width:200px;border:14px solid red;"">","null","","","","","","","","","",""
"","image-keyboard-response","210","84962","0.0-210.0","3Z4GS9HPNWW3EDHF4DA0JM9LJL477N","A3EA4SHCLJ1UZQ","36U4VBVNQOZD8NFWZXWF9CIHKRIURB","","47.39999997615814","img/land4.png","75","48.10000002384186","2","0","1","2","0.8,0.2,0.2,0.2,0.8,0.2,0.2,0.2,0.8","0.8,0.2,0.2,0.2,0.8,0.2,0.2,0.2,0.8","1","",""
"","html-keyboard-response","211","85265","0.0-211.0","3Z4GS9HPNWW3EDHF4DA0JM9LJL477N","A3EA4SHCLJ1UZQ","36U4VBVNQOZD8NFWZXWF9CIHKRIURB","","null","<img src=""img/land4.png"" style=""width:200px;border:14px solid red;"">","null","","","","","","","","","",""
"","image-keyboard-response","212","85362","0.0-212.0","3Z4GS9HPNWW3EDHF4DA0JM9LJL477N","A3EA4SHCLJ1UZQ","36U4VBVNQOZD8NFWZXWF9CIHKRIURB","","96.30000001192093","img/land4.png","75","97.10000002384186","2","0","1","2","0.8,0.2,0.2,0.2,0.8,0.2,0.2,0.2,0.8","0.8,0.2,0.2,0.2,0.8,0.2,0.2,0.2,0.8","1","",""
"","html-keyboard-response","213","85665","0.0-213.0","3Z4GS9HPNWW3EDHF4DA0JM9LJL477N","A3EA4SHCLJ1UZQ","36U4VBVNQOZD8NFWZXWF9CIHKRIURB","","null","<img src=""img/land4.png"" style=""width:200px;border:14px solid red;"">","null","","","","","","","","","",""
"","image-keyboard-response","214","85778","0.0-214.0","3Z4GS9HPNWW3EDHF4DA0JM9LJL477N","A3EA4SHCLJ1UZQ","36U4VBVNQOZD8NFWZXWF9CIHKRIURB","","112.20000004768372","img/land5.png","74","112.80000001192093","1","1","3","2","0.8,0.2,0.2,0.2,0.8,0.2,0.2,0.2,0.8","0.8,0.2,0.2,0.2,0.8,0.2,0.2,0.2,0.8","1","",""
"","html-keyboard-response","215","86081","0.0-215.0","3Z4GS9HPNWW3EDHF4DA0JM9LJL477N","A3EA4SHCLJ1UZQ","36U4VBVNQOZD8NFWZXWF9CIHKRIURB","","null","<img src=""img/land5.png"" style=""width:200px; border:14px solid green;"">","null","","","","","","","","","",""
"","image-keyboard-response","216","86178","0.0-216.0","3Z4GS9HPNWW3EDHF4DA0JM9LJL477N","A3EA4SHCLJ1UZQ","36U4VBVNQOZD8NFWZXWF9CIHKRIURB","","96.19999998807907","img/land4.png","74","97","1","1","1","2","0.8,0.2,0.2,0.2,0.8,0.2,0.2,0.2,0.8","0.8,0.2,0.2,0.2,0.8,0.2,0.2,0.2,0.8","1","",""
"","html-keyboard-response","217","86482","0.0-217.0","3Z4GS9HPNWW3EDHF4DA0JM9LJL477N","A3EA4SHCLJ1UZQ","36U4VBVNQOZD8NFWZXWF9CIHKRIURB","","null","<img src=""img/land4.png"" style=""width:200px; border:14px solid green;"">","null","","","","","","","","","",""
"","image-keyboard-response","218","86570","0.0-218.0","3Z4GS9HPNWW3EDHF4DA0JM9LJL477N","A3EA4SHCLJ1UZQ","36U4VBVNQOZD8NFWZXWF9CIHKRIURB","","87.30000001192093","img/land5.png","74","88.19999998807907","1","0","3","2","0.8,0.2,0.2,0.2,0.8,0.2,0.2,0.2,0.8","0.8,0.2,0.2,0.2,0.8,0.2,0.2,0.2,0.8","1","",""
"","html-keyboard-response","219","86872","0.0-219.0","3Z4GS9HPNWW3EDHF4DA0JM9LJL477N","A3EA4SHCLJ1UZQ","36U4VBVNQOZD8NFWZXWF9CIHKRIURB","","null","<img src=""img/land5.png"" style=""width:200px;border:14px solid red;"">","null","","","","","","","","","",""
"","image-keyboard-response","220","86938","0.0-220.0","3Z4GS9HPNWW3EDHF4DA0JM9LJL477N","A3EA4SHCLJ1UZQ","36U4VBVNQOZD8NFWZXWF9CIHKRIURB","","65","img/land4.png","74","65.69999998807907","1","1","1","2","0.8,0.2,0.2,0.2,0.8,0.2,0.2,0.2,0.8","0.8,0.2,0.2,0.2,0.8,0.2,0.2,0.2,0.8","1","",""
"","html-keyboard-response","221","87242","0.0-221.0","3Z4GS9HPNWW3EDHF4DA0JM9LJL477N","A3EA4SHCLJ1UZQ","36U4VBVNQOZD8NFWZXWF9CIHKRIURB","","null","<img src=""img/land4.png"" style=""width:200px; border:14px solid green;"">","null","","","","","","","","","",""
"","image-keyboard-response","222","87330","0.0-222.0","3Z4GS9HPNWW3EDHF4DA0JM9LJL477N","A3EA4SHCLJ1UZQ","36U4VBVNQOZD8NFWZXWF9CIHKRIURB","","87.5","img/land1.png","74","88.30000001192093","1","0","2","2","0.8,0.2,0.2,0.2,0.8,0.2,0.2,0.2,0.8","0.8,0.2,0.2,0.2,0.8,0.2,0.2,0.2,0.8","1","",""
"","html-keyboard-response","223","87634","0.0-223.0","3Z4GS9HPNWW3EDHF4DA0JM9LJL477N","A3EA4SHCLJ1UZQ","36U4VBVNQOZD8NFWZXWF9CIHKRIURB","","null","<img src=""img/land1.png"" style=""width:200px;border:14px solid red;"">","null","","","","","","","","","",""
"","image-keyboard-response","224","87746","0.0-224.0","3Z4GS9HPNWW3EDHF4DA0JM9LJL477N","A3EA4SHCLJ1UZQ","36U4VBVNQOZD8NFWZXWF9CIHKRIURB","","111.39999997615814","img/land1.png","74","112.09999996423721","1","0","2","2","0.8,0.2,0.2,0.2,0.8,0.2,0.2,0.2,0.8","0.8,0.2,0.2,0.2,0.8,0.2,0.2,0.2,0.8","1","",""
"","html-keyboard-response","225","88050","0.0-225.0","3Z4GS9HPNWW3EDHF4DA0JM9LJL477N","A3EA4SHCLJ1UZQ","36U4VBVNQOZD8NFWZXWF9CIHKRIURB","","null","<img src=""img/land1.png"" style=""width:200px;border:14px solid red;"">","null","","","","","","","","","",""
"","image-keyboard-response","226","88130","0.0-226.0","3Z4GS9HPNWW3EDHF4DA0JM9LJL477N","A3EA4SHCLJ1UZQ","36U4VBVNQOZD8NFWZXWF9CIHKRIURB","","79.30000001192093","img/land1.png","74","80.10000002384186","1","1","2","2","0.8,0.2,0.2,0.2,0.8,0.2,0.2,0.2,0.8","0.8,0.2,0.2,0.2,0.8,0.2,0.2,0.2,0.8","1","",""
"","html-keyboard-response","227","88433","0.0-227.0","3Z4GS9HPNWW3EDHF4DA0JM9LJL477N","A3EA4SHCLJ1UZQ","36U4VBVNQOZD8NFWZXWF9CIHKRIURB","","null","<img src=""img/land1.png"" style=""width:200px; border:14px solid green;"">","null","","","","","","","","","",""
"","image-keyboard-response","228","88498","0.0-228.0","3Z4GS9HPNWW3EDHF4DA0JM9LJL477N","A3EA4SHCLJ1UZQ","36U4VBVNQOZD8NFWZXWF9CIHKRIURB","","64.20000004768372","img/land4.png","74","65.19999998807907","1","1","1","2","0.8,0.2,0.2,0.2,0.8,0.2,0.2,0.2,0.8","0.8,0.2,0.2,0.2,0.8,0.2,0.2,0.2,0.8","1","",""
"","html-keyboard-response","229","88801","0.0-229.0","3Z4GS9HPNWW3EDHF4DA0JM9LJL477N","A3EA4SHCLJ1UZQ","36U4VBVNQOZD8NFWZXWF9CIHKRIURB","","null","<img src=""img/land4.png"" style=""width:200px; border:14px solid green;"">","null","","","","","","","","","",""
"","image-keyboard-response","230","88858","0.0-230.0","3Z4GS9HPNWW3EDHF4DA0JM9LJL477N","A3EA4SHCLJ1UZQ","36U4VBVNQOZD8NFWZXWF9CIHKRIURB","","56.10000002384186","img/land4.png","74","56.89999997615814","1","1","1","2","0.8,0.2,0.2,0.2,0.8,0.2,0.2,0.2,0.8","0.8,0.2,0.2,0.2,0.8,0.2,0.2,0.2,0.8","1","",""
"","html-keyboard-response","231","89161","0.0-231.0","3Z4GS9HPNWW3EDHF4DA0JM9LJL477N","A3EA4SHCLJ1UZQ","36U4VBVNQOZD8NFWZXWF9CIHKRIURB","","null","<img src=""img/land4.png"" style=""width:200px; border:14px solid green;"">","null","","","","","","","","","",""
"","image-keyboard-response","232","89226","0.0-232.0","3Z4GS9HPNWW3EDHF4DA0JM9LJL477N","A3EA4SHCLJ1UZQ","36U4VBVNQOZD8NFWZXWF9CIHKRIURB","","64.19999998807907","img/land4.png","74","65","1","1","1","2","0.8,0.2,0.2,0.2,0.8,0.2,0.2,0.2,0.8","0.8,0.2,0.2,0.2,0.8,0.2,0.2,0.2,0.8","1","",""
"","html-keyboard-response","233","89529","0.0-233.0","3Z4GS9HPNWW3EDHF4DA0JM9LJL477N","A3EA4SHCLJ1UZQ","36U4VBVNQOZD8NFWZXWF9CIHKRIURB","","null","<img src=""img/land4.png"" style=""width:200px; border:14px solid green;"">","null","","","","","","","","","",""
"","image-keyboard-response","234","89719","0.0-234.0","3Z4GS9HPNWW3EDHF4DA0JM9LJL477N","A3EA4SHCLJ1UZQ","36U4VBVNQOZD8NFWZXWF9CIHKRIURB","","188.5","img/land5.png","74","189.20000004768372","1","0","3","2","0.8,0.2,0.2,0.2,0.8,0.2,0.2,0.2,0.8","0.8,0.2,0.2,0.2,0.8,0.2,0.2,0.2,0.8","1","",""
"","html-keyboard-response","235","90021","0.0-235.0","3Z4GS9HPNWW3EDHF4DA0JM9LJL477N","A3EA4SHCLJ1UZQ","36U4VBVNQOZD8NFWZXWF9CIHKRIURB","","null","<img src=""img/land5.png"" style=""width:200px;border:14px solid red;"">","null","","","","","","","","","",""
"","image-keyboard-response","236","91050","0.0-236.0","3Z4GS9HPNWW3EDHF4DA0JM9LJL477N","A3EA4SHCLJ1UZQ","36U4VBVNQOZD8NFWZXWF9CIHKRIURB","","1028.300000011921","img/land4.png","76","1029.1000000238419","3","1","1","2","0.8,0.2,0.2,0.2,0.8,0.2,0.2,0.2,0.8","0.8,0.2,0.2,0.2,0.8,0.2,0.2,0.2,0.8","1","",""
"","html-keyboard-response","237","91353","0.0-237.0","3Z4GS9HPNWW3EDHF4DA0JM9LJL477N","A3EA4SHCLJ1UZQ","36U4VBVNQOZD8NFWZXWF9CIHKRIURB","","null","<img src=""img/land4.png"" style=""width:200px; border:14px solid green;"">","null","","","","","","","","","",""
"","image-keyboard-response","238","91450","0.0-238.0","3Z4GS9HPNWW3EDHF4DA0JM9LJL477N","A3EA4SHCLJ1UZQ","36U4VBVNQOZD8NFWZXWF9CIHKRIURB","","96.29999995231628","img/land1.png","76","97","3","0","2","2","0.8,0.2,0.2,0.2,0.8,0.2,0.2,0.2,0.8","0.8,0.2,0.2,0.2,0.8,0.2,0.2,0.2,0.8","1","",""
"","html-keyboard-response","239","91754","0.0-239.0","3Z4GS9HPNWW3EDHF4DA0JM9LJL477N","A3EA4SHCLJ1UZQ","36U4VBVNQOZD8NFWZXWF9CIHKRIURB","","null","<img src=""img/land1.png"" style=""width:200px;border:14px solid red;"">","null","","","","","","","","","",""
"","image-keyboard-response","240","91986","0.0-240.0","3Z4GS9HPNWW3EDHF4DA0JM9LJL477N","A3EA4SHCLJ1UZQ","36U4VBVNQOZD8NFWZXWF9CIHKRIURB","","231.10000002384186","img/land4.png","76","232","3","0","1","2","0.8,0.2,0.2,0.2,0.8,0.2,0.2,0.2,0.8","0.8,0.2,0.2,0.2,0.8,0.2,0.2,0.2,0.8","1","",""
"","html-keyboard-response","241","92288","0.0-241.0","3Z4GS9HPNWW3EDHF4DA0JM9LJL477N","A3EA4SHCLJ1UZQ","36U4VBVNQOZD8NFWZXWF9CIHKRIURB","","null","<img src=""img/land4.png"" style=""width:200px;border:14px solid red;"">","null","","","","","","","","","",""
"","image-keyboard-response","242","92978","0.0-242.0","3Z4GS9HPNWW3EDHF4DA0JM9LJL477N","A3EA4SHCLJ1UZQ","36U4VBVNQOZD8NFWZXWF9CIHKRIURB","","688.8000000119209","img/land4.png","74","689.6000000238419","1","0","1","2","0.8,0.2,0.2,0.2,0.8,0.2,0.2,0.2,0.8","0.8,0.2,0.2,0.2,0.8,0.2,0.2,0.2,0.8","1","",""
"","html-keyboard-response","243","93281","0.0-243.0","3Z4GS9HPNWW3EDHF4DA0JM9LJL477N","A3EA4SHCLJ1UZQ","36U4VBVNQOZD8NFWZXWF9CIHKRIURB","","null","<img src=""img/land4.png"" style=""width:200px;border:14px solid red;"">","null","","","","","","","","","",""
"","image-keyboard-response","244","93474","0.0-244.0","3Z4GS9HPNWW3EDHF4DA0JM9LJL477N","A3EA4SHCLJ1UZQ","36U4VBVNQOZD8NFWZXWF9CIHKRIURB","","192","img/land1.png","74","192.80000001192093","1","0","2","2","0.8,0.2,0.2,0.2,0.8,0.2,0.2,0.2,0.8","0.8,0.2,0.2,0.2,0.8,0.2,0.2,0.2,0.8","1","",""
"","html-keyboard-response","245","93778","0.0-245.0","3Z4GS9HPNWW3EDHF4DA0JM9LJL477N","A3EA4SHCLJ1UZQ","36U4VBVNQOZD8NFWZXWF9CIHKRIURB","","null","<img src=""img/land1.png"" style=""width:200px;border:14px solid red;"">","null","","","","","","","","","",""
"","image-keyboard-response","246","94114","0.0-246.0","3Z4GS9HPNWW3EDHF4DA0JM9LJL477N","A3EA4SHCLJ1UZQ","36U4VBVNQOZD8NFWZXWF9CIHKRIURB","","335.10000002384186","img/land4.png","75","335.69999998807907","2","0","1","2","0.8,0.2,0.2,0.2,0.8,0.2,0.2,0.2,0.8","0.8,0.2,0.2,0.2,0.8,0.2,0.2,0.2,0.8","1","",""
"","html-keyboard-response","247","94418","0.0-247.0","3Z4GS9HPNWW3EDHF4DA0JM9LJL477N","A3EA4SHCLJ1UZQ","36U4VBVNQOZD8NFWZXWF9CIHKRIURB","","null","<img src=""img/land4.png"" style=""width:200px;border:14px solid red;"">","null","","","","","","","","","",""
"","image-keyboard-response","248","94722","0.0-248.0","3Z4GS9HPNWW3EDHF4DA0JM9LJL477N","A3EA4SHCLJ1UZQ","36U4VBVNQOZD8NFWZXWF9CIHKRIURB","","303.10000002384186","img/land4.png","75","304","2","0","1","2","0.8,0.2,0.2,0.2,0.8,0.2,0.2,0.2,0.8","0.8,0.2,0.2,0.2,0.8,0.2,0.2,0.2,0.8","1","",""
"","html-keyboard-response","249","95025","0.0-249.0","3Z4GS9HPNWW3EDHF4DA0JM9LJL477N","A3EA4SHCLJ1UZQ","36U4VBVNQOZD8NFWZXWF9CIHKRIURB","","null","<img src=""img/land4.png"" style=""width:200px;border:14px solid red;"">","null","","","","","","","","","",""
"","image-keyboard-response","250","95122","0.0-250.0","3Z4GS9HPNWW3EDHF4DA0JM9LJL477N","A3EA4SHCLJ1UZQ","36U4VBVNQOZD8NFWZXWF9CIHKRIURB","","95.79999995231628","img/land1.png","75","96.40000003576279","2","1","2","2","0.8,0.2,0.2,0.2,0.8,0.2,0.2,0.2,0.8","0.8,0.2,0.2,0.2,0.8,0.2,0.2,0.2,0.8","1","",""
"","html-keyboard-response","251","95424","0.0-251.0","3Z4GS9HPNWW3EDHF4DA0JM9LJL477N","A3EA4SHCLJ1UZQ","36U4VBVNQOZD8NFWZXWF9CIHKRIURB","","null","<img src=""img/land1.png"" style=""width:200px; border:14px solid green;"">","null","","","","","","","","","",""
"","image-keyboard-response","252","95434","0.0-252.0","3Z4GS9HPNWW3EDHF4DA0JM9LJL477N","A3EA4SHCLJ1UZQ","36U4VBVNQOZD8NFWZXWF9CIHKRIURB","","8.100000023841858","img/land4.png","75","8.799999952316284","2","0","1","2","0.8,0.2,0.2,0.2,0.8,0.2,0.2,0.2,0.8","0.8,0.2,0.2,0.2,0.8,0.2,0.2,0.2,0.8","1","",""
"","html-keyboard-response","253","95737","0.0-253.0","3Z4GS9HPNWW3EDHF4DA0JM9LJL477N","A3EA4SHCLJ1UZQ","36U4VBVNQOZD8NFWZXWF9CIHKRIURB","","null","<img src=""img/land4.png"" style=""width:200px;border:14px solid red;"">","null","","","","","","","","","",""
"","image-keyboard-response","254","95938","0.0-254.0","3Z4GS9HPNWW3EDHF4DA0JM9LJL477N","A3EA4SHCLJ1UZQ","36U4VBVNQOZD8NFWZXWF9CIHKRIURB","","200.30000001192093","img/land4.png","75","201.0999999642372","2","0","1","2","0.8,0.2,0.2,0.2,0.8,0.2,0.2,0.2,0.8","0.8,0.2,0.2,0.2,0.8,0.2,0.2,0.2,0.8","1","",""
"","html-keyboard-response","255","96241","0.0-255.0","3Z4GS9HPNWW3EDHF4DA0JM9LJL477N","A3EA4SHCLJ1UZQ","36U4VBVNQOZD8NFWZXWF9CIHKRIURB","","null","<img src=""img/land4.png"" style=""width:200px;border:14px solid red;"">","null","","","","","","","","","",""
"","image-keyboard-response","256","96306","0.0-256.0","3Z4GS9HPNWW3EDHF4DA0JM9LJL477N","A3EA4SHCLJ1UZQ","36U4VBVNQOZD8NFWZXWF9CIHKRIURB","","63.80000001192093","img/land4.png","75","64.69999998807907","2","0","1","2","0.8,0.2,0.2,0.2,0.8,0.2,0.2,0.2,0.8","0.8,0.2,0.2,0.2,0.8,0.2,0.2,0.2,0.8","1","",""
"","html-keyboard-response","257","96609","0.0-257.0","3Z4GS9HPNWW3EDHF4DA0JM9LJL477N","A3EA4SHCLJ1UZQ","36U4VBVNQOZD8NFWZXWF9CIHKRIURB","","null","<img src=""img/land4.png"" style=""width:200px;border:14px solid red;"">","null","","","","","","","","","",""
"","image-keyboard-response","258","96682","0.0-258.0","3Z4GS9HPNWW3EDHF4DA0JM9LJL477N","A3EA4SHCLJ1UZQ","36U4VBVNQOZD8NFWZXWF9CIHKRIURB","","72.40000003576279","img/land4.png","75","73.30000001192093","2","1","1","2","0.8,0.2,0.2,0.2,0.8,0.2,0.2,0.2,0.8","0.8,0.2,0.2,0.2,0.8,0.2,0.2,0.2,0.8","1","",""
"","html-keyboard-response","259","96986","0.0-259.0","3Z4GS9HPNWW3EDHF4DA0JM9LJL477N","A3EA4SHCLJ1UZQ","36U4VBVNQOZD8NFWZXWF9CIHKRIURB","","null","<img src=""img/land4.png"" style=""width:200px; border:14px solid green;"">","null","","","","","","","","","",""
"","image-keyboard-response","260","97066","0.0-260.0","3Z4GS9HPNWW3EDHF4DA0JM9LJL477N","A3EA4SHCLJ1UZQ","36U4VBVNQOZD8NFWZXWF9CIHKRIURB","","79.39999997615814","img/land4.png","75","80.30000001192093","2","0","1","2","0.8,0.2,0.2,0.2,0.8,0.2,0.2,0.2,0.8","0.8,0.2,0.2,0.2,0.8,0.2,0.2,0.2,0.8","1","",""
"","html-keyboard-response","261","97369","0.0-261.0","3Z4GS9HPNWW3EDHF4DA0JM9LJL477N","A3EA4SHCLJ1UZQ","36U4VBVNQOZD8NFWZXWF9CIHKRIURB","","null","<img src=""img/land4.png"" style=""width:200px;border:14px solid red;"">","null","","","","","","","","","",""
"","image-keyboard-response","262","97434","0.0-262.0","3Z4GS9HPNWW3EDHF4DA0JM9LJL477N","A3EA4SHCLJ1UZQ","36U4VBVNQOZD8NFWZXWF9CIHKRIURB","","64.19999998807907","img/land4.png","75","65.10000002384186","2","0","1","2","0.8,0.2,0.2,0.2,0.8,0.2,0.2,0.2,0.8","0.8,0.2,0.2,0.2,0.8,0.2,0.2,0.2,0.8","1","",""
"","html-keyboard-response","263","97737","0.0-263.0","3Z4GS9HPNWW3EDHF4DA0JM9LJL477N","A3EA4SHCLJ1UZQ","36U4VBVNQOZD8NFWZXWF9CIHKRIURB","","null","<img src=""img/land4.png"" style=""width:200px;border:14px solid red;"">","null","","","","","","","","","",""
"","image-keyboard-response","264","97858","0.0-264.0","3Z4GS9HPNWW3EDHF4DA0JM9LJL477N","A3EA4SHCLJ1UZQ","36U4VBVNQOZD8NFWZXWF9CIHKRIURB","","119.5","img/land1.png","75","120.29999995231628","2","1","2","2","0.8,0.2,0.2,0.2,0.8,0.2,0.2,0.2,0.8","0.8,0.2,0.2,0.2,0.8,0.2,0.2,0.2,0.8","1","",""
"","html-keyboard-response","265","98161","0.0-265.0","3Z4GS9HPNWW3EDHF4DA0JM9LJL477N","A3EA4SHCLJ1UZQ","36U4VBVNQOZD8NFWZXWF9CIHKRIURB","","null","<img src=""img/land1.png"" style=""width:200px; border:14px solid green;"">","null","","","","","","","","","",""
"","image-keyboard-response","266","98194","0.0-266.0","3Z4GS9HPNWW3EDHF4DA0JM9LJL477N","A3EA4SHCLJ1UZQ","36U4VBVNQOZD8NFWZXWF9CIHKRIURB","","30.5","img/land1.png","74","31.19999998807907","1","0","2","2","0.8,0.2,0.2,0.2,0.8,0.2,0.2,0.2,0.8","0.8,0.2,0.2,0.2,0.8,0.2,0.2,0.2,0.8","1","",""
"","html-keyboard-response","267","98497","0.0-267.0","3Z4GS9HPNWW3EDHF4DA0JM9LJL477N","A3EA4SHCLJ1UZQ","36U4VBVNQOZD8NFWZXWF9CIHKRIURB","","null","<img src=""img/land1.png"" style=""width:200px;border:14px solid red;"">","null","","","","","","","","","",""
"","image-keyboard-response","268","98674","0.0-268.0","3Z4GS9HPNWW3EDHF4DA0JM9LJL477N","A3EA4SHCLJ1UZQ","36U4VBVNQOZD8NFWZXWF9CIHKRIURB","","175.4000000357628","img/land1.png","74","176.29999995231628","1","0","2","2","0.8,0.2,0.2,0.2,0.8,0.2,0.2,0.2,0.8","0.8,0.2,0.2,0.2,0.8,0.2,0.2,0.2,0.8","1","",""
"","html-keyboard-response","269","98977","0.0-269.0","3Z4GS9HPNWW3EDHF4DA0JM9LJL477N","A3EA4SHCLJ1UZQ","36U4VBVNQOZD8NFWZXWF9CIHKRIURB","","null","<img src=""img/land1.png"" style=""width:200px;border:14px solid red;"">","null","","","","","","","","","",""
"","image-keyboard-response","270","99130","0.0-270.0","3Z4GS9HPNWW3EDHF4DA0JM9LJL477N","A3EA4SHCLJ1UZQ","36U4VBVNQOZD8NFWZXWF9CIHKRIURB","","152.10000002384186","img/land4.png","74","152.9000000357628","1","1","1","2","0.8,0.2,0.2,0.2,0.8,0.2,0.2,0.2,0.8","0.8,0.2,0.2,0.2,0.8,0.2,0.2,0.2,0.8","1","",""
"","html-keyboard-response","271","99432","0.0-271.0","3Z4GS9HPNWW3EDHF4DA0JM9LJL477N","A3EA4SHCLJ1UZQ","36U4VBVNQOZD8NFWZXWF9CIHKRIURB","","null","<img src=""img/land4.png"" style=""width:200px; border:14px solid green;"">","null","","","","","","","","","",""
"","image-keyboard-response","272","99554","0.0-272.0","3Z4GS9HPNWW3EDHF4DA0JM9LJL477N","A3EA4SHCLJ1UZQ","36U4VBVNQOZD8NFWZXWF9CIHKRIURB","","120.69999998807907","img/land4.png","74","121.5","1","1","1","2","0.8,0.2,0.2,0.2,0.8,0.2,0.2,0.2,0.8","0.8,0.2,0.2,0.2,0.8,0.2,0.2,0.2,0.8","1","",""
"","html-keyboard-response","273","99856","0.0-273.0","3Z4GS9HPNWW3EDHF4DA0JM9LJL477N","A3EA4SHCLJ1UZQ","36U4VBVNQOZD8NFWZXWF9CIHKRIURB","","null","<img src=""img/land4.png"" style=""width:200px; border:14px solid green;"">","null","","","","","","","","","",""
"","image-keyboard-response","274","99969","0.0-274.0","3Z4GS9HPNWW3EDHF4DA0JM9LJL477N","A3EA4SHCLJ1UZQ","36U4VBVNQOZD8NFWZXWF9CIHKRIURB","","112.19999998807907","img/land4.png","74","112.89999997615814","1","1","1","2","0.8,0.2,0.2,0.2,0.8,0.2,0.2,0.2,0.8","0.8,0.2,0.2,0.2,0.8,0.2,0.2,0.2,0.8","1","",""
"","html-keyboard-response","275","100273","0.0-275.0","3Z4GS9HPNWW3EDHF4DA0JM9LJL477N","A3EA4SHCLJ1UZQ","36U4VBVNQOZD8NFWZXWF9CIHKRIURB","","null","<img src=""img/land4.png"" style=""width:200px; border:14px solid green;"">","null","","","","","","","","","",""
"","image-keyboard-response","276","100425","0.0-276.0","3Z4GS9HPNWW3EDHF4DA0JM9LJL477N","A3EA4SHCLJ1UZQ","36U4VBVNQOZD8NFWZXWF9CIHKRIURB","","151.10000002384186","img/land5.png","74","152","1","0","3","2","0.8,0.2,0.2,0.2,0.8,0.2,0.2,0.2,0.8","0.8,0.2,0.2,0.2,0.8,0.2,0.2,0.2,0.8","1","",""
"","html-keyboard-response","277","100729","0.0-277.0","3Z4GS9HPNWW3EDHF4DA0JM9LJL477N","A3EA4SHCLJ1UZQ","36U4VBVNQOZD8NFWZXWF9CIHKRIURB","","null","<img src=""img/land5.png"" style=""width:200px;border:14px solid red;"">","null","","","","","","","","","",""
"","image-keyboard-response","278","101042","0.0-278.0","3Z4GS9HPNWW3EDHF4DA0JM9LJL477N","A3EA4SHCLJ1UZQ","36U4VBVNQOZD8NFWZXWF9CIHKRIURB","","311.30000001192093","img/land4.png","76","312","3","0","1","2","0.8,0.2,0.2,0.2,0.8,0.2,0.2,0.2,0.8","0.8,0.2,0.2,0.2,0.8,0.2,0.2,0.2,0.8","1","",""
"","html-keyboard-response","279","101345","0.0-279.0","3Z4GS9HPNWW3EDHF4DA0JM9LJL477N","A3EA4SHCLJ1UZQ","36U4VBVNQOZD8NFWZXWF9CIHKRIURB","","null","<img src=""img/land4.png"" style=""width:200px;border:14px solid red;"">","null","","","","","","","","","",""
"","image-keyboard-response","280","101490","0.0-280.0","3Z4GS9HPNWW3EDHF4DA0JM9LJL477N","A3EA4SHCLJ1UZQ","36U4VBVNQOZD8NFWZXWF9CIHKRIURB","","143.69999998807907","img/land4.png","74","144.80000001192093","1","1","1","2","0.8,0.2,0.2,0.2,0.8,0.2,0.2,0.2,0.8","0.8,0.2,0.2,0.2,0.8,0.2,0.2,0.2,0.8","1","",""
"","html-keyboard-response","281","101792","0.0-281.0","3Z4GS9HPNWW3EDHF4DA0JM9LJL477N","A3EA4SHCLJ1UZQ","36U4VBVNQOZD8NFWZXWF9CIHKRIURB","","null","<img src=""img/land4.png"" style=""width:200px; border:14px solid green;"">","null","","","","","","","","","",""
"","image-keyboard-response","282","101882","0.0-282.0","3Z4GS9HPNWW3EDHF4DA0JM9LJL477N","A3EA4SHCLJ1UZQ","36U4VBVNQOZD8NFWZXWF9CIHKRIURB","","88.59999996423721","img/land4.png","74","89.39999997615814","1","1","1","2","0.8,0.2,0.2,0.2,0.8,0.2,0.2,0.2,0.8","0.8,0.2,0.2,0.2,0.8,0.2,0.2,0.2,0.8","1","",""
"","html-keyboard-response","283","102184","0.0-283.0","3Z4GS9HPNWW3EDHF4DA0JM9LJL477N","A3EA4SHCLJ1UZQ","36U4VBVNQOZD8NFWZXWF9CIHKRIURB","","null","<img src=""img/land4.png"" style=""width:200px; border:14px solid green;"">","null","","","","","","","","","",""
"","image-keyboard-response","284","102257","0.0-284.0","3Z4GS9HPNWW3EDHF4DA0JM9LJL477N","A3EA4SHCLJ1UZQ","36U4VBVNQOZD8NFWZXWF9CIHKRIURB","","72.30000001192093","img/land4.png","74","73","1","0","1","2","0.8,0.2,0.2,0.2,0.8,0.2,0.2,0.2,0.8","0.8,0.2,0.2,0.2,0.8,0.2,0.2,0.2,0.8","1","",""
"","html-keyboard-response","285","102561","0.0-285.0","3Z4GS9HPNWW3EDHF4DA0JM9LJL477N","A3EA4SHCLJ1UZQ","36U4VBVNQOZD8NFWZXWF9CIHKRIURB","","null","<img src=""img/land4.png"" style=""width:200px;border:14px solid red;"">","null","","","","","","","","","",""
"","image-keyboard-response","286","102809","0.0-286.0","3Z4GS9HPNWW3EDHF4DA0JM9LJL477N","A3EA4SHCLJ1UZQ","36U4VBVNQOZD8NFWZXWF9CIHKRIURB","","247.4000000357628","img/land4.png","74","248.20000004768372","1","0","1","2","0.8,0.2,0.2,0.2,0.8,0.2,0.2,0.2,0.8","0.8,0.2,0.2,0.2,0.8,0.2,0.2,0.2,0.8","1","",""
"","html-keyboard-response","287","103113","0.0-287.0","3Z4GS9HPNWW3EDHF4DA0JM9LJL477N","A3EA4SHCLJ1UZQ","36U4VBVNQOZD8NFWZXWF9CIHKRIURB","","null","<img src=""img/land4.png"" style=""width:200px;border:14px solid red;"">","null","","","","","","","","","",""
"","image-keyboard-response","288","103137","0.0-288.0","3Z4GS9HPNWW3EDHF4DA0JM9LJL477N","A3EA4SHCLJ1UZQ","36U4VBVNQOZD8NFWZXWF9CIHKRIURB","","24","img/land1.png","74","24.80000001192093","1","0","2","2","0.8,0.2,0.2,0.2,0.8,0.2,0.2,0.2,0.8","0.8,0.2,0.2,0.2,0.8,0.2,0.2,0.2,0.8","1","",""
"","html-keyboard-response","289","103440","0.0-289.0","3Z4GS9HPNWW3EDHF4DA0JM9LJL477N","A3EA4SHCLJ1UZQ","36U4VBVNQOZD8NFWZXWF9CIHKRIURB","","null","<img src=""img/land1.png"" style=""width:200px;border:14px solid red;"">","null","","","","","","","","","",""
"","image-keyboard-response","290","104465","0.0-290.0","3Z4GS9HPNWW3EDHF4DA0JM9LJL477N","A3EA4SHCLJ1UZQ","36U4VBVNQOZD8NFWZXWF9CIHKRIURB","","1024.300000011921","img/land5.png","76","1025.1000000238419","3","1","3","2","0.8,0.2,0.2,0.2,0.8,0.2,0.2,0.2,0.8","0.8,0.2,0.2,0.2,0.8,0.2,0.2,0.2,0.8","1","",""
"","html-keyboard-response","291","104769","0.0-291.0","3Z4GS9HPNWW3EDHF4DA0JM9LJL477N","A3EA4SHCLJ1UZQ","36U4VBVNQOZD8NFWZXWF9CIHKRIURB","","null","<img src=""img/land5.png"" style=""width:200px; border:14px solid green;"">","null","","","","","","","","","",""
"","image-keyboard-response","292","105145","0.0-292.0","3Z4GS9HPNWW3EDHF4DA0JM9LJL477N","A3EA4SHCLJ1UZQ","36U4VBVNQOZD8NFWZXWF9CIHKRIURB","","375.39999997615814","img/land4.png","76","376.2000000476837","3","0","1","2","0.8,0.2,0.2,0.2,0.8,0.2,0.2,0.2,0.8","0.8,0.2,0.2,0.2,0.8,0.2,0.2,0.2,0.8","1","",""
"","html-keyboard-response","293","105449","0.0-293.0","3Z4GS9HPNWW3EDHF4DA0JM9LJL477N","A3EA4SHCLJ1UZQ","36U4VBVNQOZD8NFWZXWF9CIHKRIURB","","null","<img src=""img/land4.png"" style=""width:200px;border:14px solid red;"">","null","","","","","","","","","",""
"","image-keyboard-response","294","105713","0.0-294.0","3Z4GS9HPNWW3EDHF4DA0JM9LJL477N","A3EA4SHCLJ1UZQ","36U4VBVNQOZD8NFWZXWF9CIHKRIURB","","263.0999999642372","img/land4.png","74","263.80000001192093","1","1","1","2","0.8,0.2,0.2,0.2,0.8,0.2,0.2,0.2,0.8","0.8,0.2,0.2,0.2,0.8,0.2,0.2,0.2,0.8","1","",""
"","html-keyboard-response","295","106016","0.0-295.0","3Z4GS9HPNWW3EDHF4DA0JM9LJL477N","A3EA4SHCLJ1UZQ","36U4VBVNQOZD8NFWZXWF9CIHKRIURB","","null","<img src=""img/land4.png"" style=""width:200px; border:14px solid green;"">","null","","","","","","","","","",""
"","image-keyboard-response","296","106321","0.0-296.0","3Z4GS9HPNWW3EDHF4DA0JM9LJL477N","A3EA4SHCLJ1UZQ","36U4VBVNQOZD8NFWZXWF9CIHKRIURB","","304.0999999642372","img/land4.png","74","304.9000000357628","1","1","1","2","0.8,0.2,0.2,0.2,0.8,0.2,0.2,0.2,0.8","0.8,0.2,0.2,0.2,0.8,0.2,0.2,0.2,0.8","1","",""
"","html-keyboard-response","297","106624","0.0-297.0","3Z4GS9HPNWW3EDHF4DA0JM9LJL477N","A3EA4SHCLJ1UZQ","36U4VBVNQOZD8NFWZXWF9CIHKRIURB","","null","<img src=""img/land4.png"" style=""width:200px; border:14px solid green;"">","null","","","","","","","","","",""
"","image-keyboard-response","298","106745","0.0-298.0","3Z4GS9HPNWW3EDHF4DA0JM9LJL477N","A3EA4SHCLJ1UZQ","36U4VBVNQOZD8NFWZXWF9CIHKRIURB","","120.40000003576279","img/land4.png","74","121.10000002384186","1","1","1","2","0.8,0.2,0.2,0.2,0.8,0.2,0.2,0.2,0.8","0.8,0.2,0.2,0.2,0.8,0.2,0.2,0.2,0.8","1","",""
"","html-keyboard-response","299","107048","0.0-299.0","3Z4GS9HPNWW3EDHF4DA0JM9LJL477N","A3EA4SHCLJ1UZQ","36U4VBVNQOZD8NFWZXWF9CIHKRIURB","","null","<img src=""img/land4.png"" style=""width:200px; border:14px solid green;"">","null","","","","","","","","","",""
"","image-keyboard-response","300","107210","0.0-300.0","3Z4GS9HPNWW3EDHF4DA0JM9LJL477N","A3EA4SHCLJ1UZQ","36U4VBVNQOZD8NFWZXWF9CIHKRIURB","","160.30000001192093","img/land4.png","74","161.10000002384186","1","0","1","2","0.8,0.2,0.2,0.2,0.8,0.2,0.2,0.2,0.8","0.8,0.2,0.2,0.2,0.8,0.2,0.2,0.2,0.8","1","",""
"","html-keyboard-response","301","107513","0.0-301.0","3Z4GS9HPNWW3EDHF4DA0JM9LJL477N","A3EA4SHCLJ1UZQ","36U4VBVNQOZD8NFWZXWF9CIHKRIURB","","null","<img src=""img/land4.png"" style=""width:200px;border:14px solid red;"">","null","","","","","","","","","",""
"","image-keyboard-response","302","107594","0.0-302.0","3Z4GS9HPNWW3EDHF4DA0JM9LJL477N","A3EA4SHCLJ1UZQ","36U4VBVNQOZD8NFWZXWF9CIHKRIURB","","79.69999998807907","img/land3.png","74","80.39999997615814","1","0","3","1","0.8,0.2,0.2,0.2,0.8,0.2,0.2,0.2,0.8","0.8,0.2,0.2,0.2,0.8,0.2,0.2,0.2,0.8","1","",""
"","html-keyboard-response","303","107897","0.0-303.0","3Z4GS9HPNWW3EDHF4DA0JM9LJL477N","A3EA4SHCLJ1UZQ","36U4VBVNQOZD8NFWZXWF9CIHKRIURB","","null","<img src=""img/land3.png"" style=""width:200px;border:14px solid red;"">","null","","","","","","","","","",""
"","image-keyboard-response","304","107962","0.0-304.0","3Z4GS9HPNWW3EDHF4DA0JM9LJL477N","A3EA4SHCLJ1UZQ","36U4VBVNQOZD8NFWZXWF9CIHKRIURB","","63.30000001192093","img/land2.png","76","64.09999996423721","3","0","1","1","0.8,0.2,0.2,0.2,0.8,0.2,0.2,0.2,0.8","0.8,0.2,0.2,0.2,0.8,0.2,0.2,0.2,0.8","1","",""
"","html-keyboard-response","305","108265","0.0-305.0","3Z4GS9HPNWW3EDHF4DA0JM9LJL477N","A3EA4SHCLJ1UZQ","36U4VBVNQOZD8NFWZXWF9CIHKRIURB","","null","<img src=""img/land2.png"" style=""width:200px;border:14px solid red;"">","null","","","","","","","","","",""
"","image-keyboard-response","306","108314","0.0-306.0","3Z4GS9HPNWW3EDHF4DA0JM9LJL477N","A3EA4SHCLJ1UZQ","36U4VBVNQOZD8NFWZXWF9CIHKRIURB","","47.39999997615814","img/land2.png","76","48.10000002384186","3","0","1","1","0.8,0.2,0.2,0.2,0.8,0.2,0.2,0.2,0.8","0.8,0.2,0.2,0.2,0.8,0.2,0.2,0.2,0.8","1","",""
"","html-keyboard-response","307","108616","0.0-307.0","3Z4GS9HPNWW3EDHF4DA0JM9LJL477N","A3EA4SHCLJ1UZQ","36U4VBVNQOZD8NFWZXWF9CIHKRIURB","","null","<img src=""img/land2.png"" style=""width:200px;border:14px solid red;"">","null","","","","","","","","","",""
"","image-keyboard-response","308","109002","0.0-308.0","3Z4GS9HPNWW3EDHF4DA0JM9LJL477N","A3EA4SHCLJ1UZQ","36U4VBVNQOZD8NFWZXWF9CIHKRIURB","","384.30000001192093","img/land2.png","76","385.5","3","0","1","1","0.8,0.2,0.2,0.2,0.8,0.2,0.2,0.2,0.8","0.8,0.2,0.2,0.2,0.8,0.2,0.2,0.2,0.8","1","",""
"","html-keyboard-response","309","109304","0.0-309.0","3Z4GS9HPNWW3EDHF4DA0JM9LJL477N","A3EA4SHCLJ1UZQ","36U4VBVNQOZD8NFWZXWF9CIHKRIURB","","null","<img src=""img/land2.png"" style=""width:200px;border:14px solid red;"">","null","","","","","","","","","",""
"","image-keyboard-response","310","109842","0.0-310.0","3Z4GS9HPNWW3EDHF4DA0JM9LJL477N","A3EA4SHCLJ1UZQ","36U4VBVNQOZD8NFWZXWF9CIHKRIURB","","536.3999999761581","img/land6.png","75","537.3000000119209","2","0","2","1","0.8,0.2,0.2,0.2,0.8,0.2,0.2,0.2,0.8","0.8,0.2,0.2,0.2,0.8,0.2,0.2,0.2,0.8","1","",""
"","html-keyboard-response","311","110145","0.0-311.0","3Z4GS9HPNWW3EDHF4DA0JM9LJL477N","A3EA4SHCLJ1UZQ","36U4VBVNQOZD8NFWZXWF9CIHKRIURB","","null","<img src=""img/land6.png"" style=""width:200px;border:14px solid red;"">","null","","","","","","","","","",""
"","image-keyboard-response","312","110553","0.0-312.0","3Z4GS9HPNWW3EDHF4DA0JM9LJL477N","A3EA4SHCLJ1UZQ","36U4VBVNQOZD8NFWZXWF9CIHKRIURB","","407","img/land6.png","74","407.80000001192093","1","1","2","1","0.8,0.2,0.2,0.2,0.8,0.2,0.2,0.2,0.8","0.8,0.2,0.2,0.2,0.8,0.2,0.2,0.2,0.8","1","",""
"","html-keyboard-response","313","110857","0.0-313.0","3Z4GS9HPNWW3EDHF4DA0JM9LJL477N","A3EA4SHCLJ1UZQ","36U4VBVNQOZD8NFWZXWF9CIHKRIURB","","null","<img src=""img/land6.png"" style=""width:200px; border:14px solid green;"">","null","","","","","","","","","",""
"","image-keyboard-response","314","111065","0.0-314.0","3Z4GS9HPNWW3EDHF4DA0JM9LJL477N","A3EA4SHCLJ1UZQ","36U4VBVNQOZD8NFWZXWF9CIHKRIURB","","207.69999998807907","img/land6.png","74","208.30000001192093","1","0","2","1","0.8,0.2,0.2,0.2,0.8,0.2,0.2,0.2,0.8","0.8,0.2,0.2,0.2,0.8,0.2,0.2,0.2,0.8","1","",""
"","html-keyboard-response","315","111368","0.0-315.0","3Z4GS9HPNWW3EDHF4DA0JM9LJL477N","A3EA4SHCLJ1UZQ","36U4VBVNQOZD8NFWZXWF9CIHKRIURB","","null","<img src=""img/land6.png"" style=""width:200px;border:14px solid red;"">","null","","","","","","","","","",""
"","image-keyboard-response","316","111785","0.0-316.0","3Z4GS9HPNWW3EDHF4DA0JM9LJL477N","A3EA4SHCLJ1UZQ","36U4VBVNQOZD8NFWZXWF9CIHKRIURB","","416.0999999642372","img/land3.png","74","417","1","0","3","1","0.8,0.2,0.2,0.2,0.8,0.2,0.2,0.2,0.8","0.8,0.2,0.2,0.2,0.8,0.2,0.2,0.2,0.8","1","",""
"","html-keyboard-response","317","112088","0.0-317.0","3Z4GS9HPNWW3EDHF4DA0JM9LJL477N","A3EA4SHCLJ1UZQ","36U4VBVNQOZD8NFWZXWF9CIHKRIURB","","null","<img src=""img/land3.png"" style=""width:200px;border:14px solid red;"">","null","","","","","","","","","",""
"","image-keyboard-response","318","112233","0.0-318.0","3Z4GS9HPNWW3EDHF4DA0JM9LJL477N","A3EA4SHCLJ1UZQ","36U4VBVNQOZD8NFWZXWF9CIHKRIURB","","143.69999998807907","img/land6.png","75","144.5","2","1","2","1","0.8,0.2,0.2,0.2,0.8,0.2,0.2,0.2,0.8","0.8,0.2,0.2,0.2,0.8,0.2,0.2,0.2,0.8","1","",""
"","html-keyboard-response","319","112536","0.0-319.0","3Z4GS9HPNWW3EDHF4DA0JM9LJL477N","A3EA4SHCLJ1UZQ","36U4VBVNQOZD8NFWZXWF9CIHKRIURB","","null","<img src=""img/land6.png"" style=""width:200px; border:14px solid green;"">","null","","","","","","","","","",""
"","image-keyboard-response","320","112793","0.0-320.0","3Z4GS9HPNWW3EDHF4DA0JM9LJL477N","A3EA4SHCLJ1UZQ","36U4VBVNQOZD8NFWZXWF9CIHKRIURB","","256.5","img/land2.png","75","257.30000001192093","2","1","1","1","0.8,0.2,0.2,0.2,0.8,0.2,0.2,0.2,0.8","0.8,0.2,0.2,0.2,0.8,0.2,0.2,0.2,0.8","1","",""
"","html-keyboard-response","321","113096","0.0-321.0","3Z4GS9HPNWW3EDHF4DA0JM9LJL477N","A3EA4SHCLJ1UZQ","36U4VBVNQOZD8NFWZXWF9CIHKRIURB","","null","<img src=""img/land2.png"" style=""width:200px; border:14px solid green;"">","null","","","","","","","","","",""
"","image-keyboard-response","322","113361","0.0-322.0","3Z4GS9HPNWW3EDHF4DA0JM9LJL477N","A3EA4SHCLJ1UZQ","36U4VBVNQOZD8NFWZXWF9CIHKRIURB","","263.80000001192093","img/land3.png","75","264.80000001192093","2","0","3","1","0.8,0.2,0.2,0.2,0.8,0.2,0.2,0.2,0.8","0.8,0.2,0.2,0.2,0.8,0.2,0.2,0.2,0.8","1","",""
"","html-keyboard-response","323","113664","0.0-323.0","3Z4GS9HPNWW3EDHF4DA0JM9LJL477N","A3EA4SHCLJ1UZQ","36U4VBVNQOZD8NFWZXWF9CIHKRIURB","","null","<img src=""img/land3.png"" style=""width:200px;border:14px solid red;"">","null","","","","","","","","","",""
"","image-keyboard-response","324","113881","0.0-324.0","3Z4GS9HPNWW3EDHF4DA0JM9LJL477N","A3EA4SHCLJ1UZQ","36U4VBVNQOZD8NFWZXWF9CIHKRIURB","","216.30000001192093","img/land2.png","76","216.89999997615814","3","0","1","1","0.8,0.2,0.2,0.2,0.8,0.2,0.2,0.2,0.8","0.8,0.2,0.2,0.2,0.8,0.2,0.2,0.2,0.8","1","",""
"","html-keyboard-response","325","114185","0.0-325.0","3Z4GS9HPNWW3EDHF4DA0JM9LJL477N","A3EA4SHCLJ1UZQ","36U4VBVNQOZD8NFWZXWF9CIHKRIURB","","null","<img src=""img/land2.png"" style=""width:200px;border:14px solid red;"">","null","","","","","","","","","",""
"","image-keyboard-response","326","114649","0.0-326.0","3Z4GS9HPNWW3EDHF4DA0JM9LJL477N","A3EA4SHCLJ1UZQ","36U4VBVNQOZD8NFWZXWF9CIHKRIURB","","463.5","img/land3.png","75","464.10000002384186","2","0","3","1","0.8,0.2,0.2,0.2,0.8,0.2,0.2,0.2,0.8","0.8,0.2,0.2,0.2,0.8,0.2,0.2,0.2,0.8","1","",""
"","html-keyboard-response","327","114953","0.0-327.0","3Z4GS9HPNWW3EDHF4DA0JM9LJL477N","A3EA4SHCLJ1UZQ","36U4VBVNQOZD8NFWZXWF9CIHKRIURB","","null","<img src=""img/land3.png"" style=""width:200px;border:14px solid red;"">","null","","","","","","","","","",""
"","image-keyboard-response","328","115489","0.0-328.0","3Z4GS9HPNWW3EDHF4DA0JM9LJL477N","A3EA4SHCLJ1UZQ","36U4VBVNQOZD8NFWZXWF9CIHKRIURB","","535.3000000119209","img/land2.png","74","536.1000000238419","1","1","1","1","0.8,0.2,0.2,0.2,0.8,0.2,0.2,0.2,0.8","0.8,0.2,0.2,0.2,0.8,0.2,0.2,0.2,0.8","1","",""
"","html-keyboard-response","329","115793","0.0-329.0","3Z4GS9HPNWW3EDHF4DA0JM9LJL477N","A3EA4SHCLJ1UZQ","36U4VBVNQOZD8NFWZXWF9CIHKRIURB","","null","<img src=""img/land2.png"" style=""width:200px; border:14px solid green;"">","null","","","","","","","","","",""
"","image-keyboard-response","330","116145","0.0-330.0","3Z4GS9HPNWW3EDHF4DA0JM9LJL477N","A3EA4SHCLJ1UZQ","36U4VBVNQOZD8NFWZXWF9CIHKRIURB","","351.4000000357628","img/land2.png","74","352.10000002384186","1","1","1","1","0.8,0.2,0.2,0.2,0.8,0.2,0.2,0.2,0.8","0.8,0.2,0.2,0.2,0.8,0.2,0.2,0.2,0.8","1","",""
"","html-keyboard-response","331","116448","0.0-331.0","3Z4GS9HPNWW3EDHF4DA0JM9LJL477N","A3EA4SHCLJ1UZQ","36U4VBVNQOZD8NFWZXWF9CIHKRIURB","","null","<img src=""img/land2.png"" style=""width:200px; border:14px solid green;"">","null","","","","","","","","","",""
"","image-keyboard-response","332","116737","0.0-332.0","3Z4GS9HPNWW3EDHF4DA0JM9LJL477N","A3EA4SHCLJ1UZQ","36U4VBVNQOZD8NFWZXWF9CIHKRIURB","","287.9000000357628","img/land2.png","74","288.9000000357628","1","1","1","1","0.8,0.2,0.2,0.2,0.8,0.2,0.2,0.2,0.8","0.8,0.2,0.2,0.2,0.8,0.2,0.2,0.2,0.8","1","",""
"","html-keyboard-response","333","117041","0.0-333.0","3Z4GS9HPNWW3EDHF4DA0JM9LJL477N","A3EA4SHCLJ1UZQ","36U4VBVNQOZD8NFWZXWF9CIHKRIURB","","null","<img src=""img/land2.png"" style=""width:200px; border:14px solid green;"">","null","","","","","","","","","",""
"","image-keyboard-response","334","117633","0.0-334.0","3Z4GS9HPNWW3EDHF4DA0JM9LJL477N","A3EA4SHCLJ1UZQ","36U4VBVNQOZD8NFWZXWF9CIHKRIURB","","591","img/land3.png","75","591.8999999761581","2","0","3","1","0.8,0.2,0.2,0.2,0.8,0.2,0.2,0.2,0.8","0.8,0.2,0.2,0.2,0.8,0.2,0.2,0.2,0.8","1","",""
"","html-keyboard-response","335","117937","0.0-335.0","3Z4GS9HPNWW3EDHF4DA0JM9LJL477N","A3EA4SHCLJ1UZQ","36U4VBVNQOZD8NFWZXWF9CIHKRIURB","","null","<img src=""img/land3.png"" style=""width:200px;border:14px solid red;"">","null","","","","","","","","","",""
"","image-keyboard-response","336","118721","0.0-336.0","3Z4GS9HPNWW3EDHF4DA0JM9LJL477N","A3EA4SHCLJ1UZQ","36U4VBVNQOZD8NFWZXWF9CIHKRIURB","","782.8000000119209","img/land6.png","76","783.6999999880791","3","0","2","1","0.8,0.2,0.2,0.2,0.8,0.2,0.2,0.2,0.8","0.8,0.2,0.2,0.2,0.8,0.2,0.2,0.2,0.8","1","",""
"","html-keyboard-response","337","119024","0.0-337.0","3Z4GS9HPNWW3EDHF4DA0JM9LJL477N","A3EA4SHCLJ1UZQ","36U4VBVNQOZD8NFWZXWF9CIHKRIURB","","null","<img src=""img/land6.png"" style=""width:200px;border:14px solid red;"">","null","","","","","","","","","",""
"","image-keyboard-response","338","119249","0.0-338.0","3Z4GS9HPNWW3EDHF4DA0JM9LJL477N","A3EA4SHCLJ1UZQ","36U4VBVNQOZD8NFWZXWF9CIHKRIURB","","224.19999998807907","img/land3.png","76","225.10000002384186","3","1","3","1","0.8,0.2,0.2,0.2,0.8,0.2,0.2,0.2,0.8","0.8,0.2,0.2,0.2,0.8,0.2,0.2,0.2,0.8","1","",""
"","html-keyboard-response","339","119552","0.0-339.0","3Z4GS9HPNWW3EDHF4DA0JM9LJL477N","A3EA4SHCLJ1UZQ","36U4VBVNQOZD8NFWZXWF9CIHKRIURB","","null","<img src=""img/land3.png"" style=""width:200px; border:14px solid green;"">","null","","","","","","","","","",""
"","image-keyboard-response","340","119801","0.0-340.0","3Z4GS9HPNWW3EDHF4DA0JM9LJL477N","A3EA4SHCLJ1UZQ","36U4VBVNQOZD8NFWZXWF9CIHKRIURB","","248.30000001192093","img/land2.png","76","249.10000002384186","3","0","1","1","0.8,0.2,0.2,0.2,0.8,0.2,0.2,0.2,0.8","0.8,0.2,0.2,0.2,0.8,0.2,0.2,0.2,0.8","1","",""
"","html-keyboard-response","341","120104","0.0-341.0","3Z4GS9HPNWW3EDHF4DA0JM9LJL477N","A3EA4SHCLJ1UZQ","36U4VBVNQOZD8NFWZXWF9CIHKRIURB","","null","<img src=""img/land2.png"" style=""width:200px;border:14px solid red;"">","null","","","","","","","","","",""
"","image-keyboard-response","342","120385","0.0-342.0","3Z4GS9HPNWW3EDHF4DA0JM9LJL477N","A3EA4SHCLJ1UZQ","36U4VBVNQOZD8NFWZXWF9CIHKRIURB","","280.39999997615814","img/land6.png","76","281.30000001192093","3","0","2","1","0.8,0.2,0.2,0.2,0.8,0.2,0.2,0.2,0.8","0.8,0.2,0.2,0.2,0.8,0.2,0.2,0.2,0.8","1","",""
"","html-keyboard-response","343","120688","0.0-343.0","3Z4GS9HPNWW3EDHF4DA0JM9LJL477N","A3EA4SHCLJ1UZQ","36U4VBVNQOZD8NFWZXWF9CIHKRIURB","","null","<img src=""img/land6.png"" style=""width:200px;border:14px solid red;"">","null","","","","","","","","","",""
"","image-keyboard-response","344","120921","0.0-344.0","3Z4GS9HPNWW3EDHF4DA0JM9LJL477N","A3EA4SHCLJ1UZQ","36U4VBVNQOZD8NFWZXWF9CIHKRIURB","","232.19999998807907","img/land6.png","75","232.89999997615814","2","1","2","1","0.8,0.2,0.2,0.2,0.8,0.2,0.2,0.2,0.8","0.8,0.2,0.2,0.2,0.8,0.2,0.2,0.2,0.8","1","",""
"","html-keyboard-response","345","121224","0.0-345.0","3Z4GS9HPNWW3EDHF4DA0JM9LJL477N","A3EA4SHCLJ1UZQ","36U4VBVNQOZD8NFWZXWF9CIHKRIURB","","null","<img src=""img/land6.png"" style=""width:200px; border:14px solid green;"">","null","","","","","","","","","",""
"","image-keyboard-response","346","121401","0.0-346.0","3Z4GS9HPNWW3EDHF4DA0JM9LJL477N","A3EA4SHCLJ1UZQ","36U4VBVNQOZD8NFWZXWF9CIHKRIURB","","175.39999997615814","img/land3.png","75","176.10000002384186","2","0","3","1","0.8,0.2,0.2,0.2,0.8,0.2,0.2,0.2,0.8","0.8,0.2,0.2,0.2,0.8,0.2,0.2,0.2,0.8","1","",""
"","html-keyboard-response","347","121704","0.0-347.0","3Z4GS9HPNWW3EDHF4DA0JM9LJL477N","A3EA4SHCLJ1UZQ","36U4VBVNQOZD8NFWZXWF9CIHKRIURB","","null","<img src=""img/land3.png"" style=""width:200px;border:14px solid red;"">","null","","","","","","","","","",""
"","image-keyboard-response","348","121937","0.0-348.0","3Z4GS9HPNWW3EDHF4DA0JM9LJL477N","A3EA4SHCLJ1UZQ","36U4VBVNQOZD8NFWZXWF9CIHKRIURB","","232.89999997615814","img/land3.png","74","233.5999999642372","1","0","3","1","0.8,0.2,0.2,0.2,0.8,0.2,0.2,0.2,0.8","0.8,0.2,0.2,0.2,0.8,0.2,0.2,0.2,0.8","1","",""
"","html-keyboard-response","349","122239","0.0-349.0","3Z4GS9HPNWW3EDHF4DA0JM9LJL477N","A3EA4SHCLJ1UZQ","36U4VBVNQOZD8NFWZXWF9CIHKRIURB","","null","<img src=""img/land3.png"" style=""width:200px;border:14px solid red;"">","null","","","","","","","","","",""
"","image-keyboard-response","350","122473","0.0-350.0","3Z4GS9HPNWW3EDHF4DA0JM9LJL477N","A3EA4SHCLJ1UZQ","36U4VBVNQOZD8NFWZXWF9CIHKRIURB","","232.4000000357628","img/land3.png","74","233.19999998807907","1","0","3","1","0.8,0.2,0.2,0.2,0.8,0.2,0.2,0.2,0.8","0.8,0.2,0.2,0.2,0.8,0.2,0.2,0.2,0.8","1","",""
"","html-keyboard-response","351","122776","0.0-351.0","3Z4GS9HPNWW3EDHF4DA0JM9LJL477N","A3EA4SHCLJ1UZQ","36U4VBVNQOZD8NFWZXWF9CIHKRIURB","","null","<img src=""img/land3.png"" style=""width:200px;border:14px solid red;"">","null","","","","","","","","","",""
"","image-keyboard-response","352","123201","0.0-352.0","3Z4GS9HPNWW3EDHF4DA0JM9LJL477N","A3EA4SHCLJ1UZQ","36U4VBVNQOZD8NFWZXWF9CIHKRIURB","","424.19999998807907","img/land6.png","76","424.89999997615814","3","0","2","1","0.8,0.2,0.2,0.2,0.8,0.2,0.2,0.2,0.8","0.8,0.2,0.2,0.2,0.8,0.2,0.2,0.2,0.8","1","",""
"","html-keyboard-response","353","123503","0.0-353.0","3Z4GS9HPNWW3EDHF4DA0JM9LJL477N","A3EA4SHCLJ1UZQ","36U4VBVNQOZD8NFWZXWF9CIHKRIURB","","null","<img src=""img/land6.png"" style=""width:200px;border:14px solid red;"">","null","","","","","","","","","",""
"","image-keyboard-response","354","123713","0.0-354.0","3Z4GS9HPNWW3EDHF4DA0JM9LJL477N","A3EA4SHCLJ1UZQ","36U4VBVNQOZD8NFWZXWF9CIHKRIURB","","208.5","img/land6.png","75","209.30000001192093","2","1","2","1","0.8,0.2,0.2,0.2,0.8,0.2,0.2,0.2,0.8","0.8,0.2,0.2,0.2,0.8,0.2,0.2,0.2,0.8","1","",""
"","html-keyboard-response","355","124015","0.0-355.0","3Z4GS9HPNWW3EDHF4DA0JM9LJL477N","A3EA4SHCLJ1UZQ","36U4VBVNQOZD8NFWZXWF9CIHKRIURB","","null","<img src=""img/land6.png"" style=""width:200px; border:14px solid green;"">","null","","","","","","","","","",""
