"success","trial_type","trial_index","time_elapsed","internal_node_id","assignmentID","mturkID","hitID","view_history","rt","stimulus","key_press","reactionTime","a","r","s","cond","reward_cond","reward_cond_actual","reward_matrix_idx","responses","question_order"
"true","fullscreen","0","6881","0.0-0.0","3A4TN5196L46JJIN834NQLQTY4MCHS","A3F51C49T9A34D","335VBRURDJMQFRMOFGHOE9WKSHX9E1","","","","","","","","","","","","","",""
"","instructions","1","21817","0.0-1.0","3A4TN5196L46JJIN834NQLQTY4MCHS","A3F51C49T9A34D","335VBRURDJMQFRMOFGHOE9WKSHX9E1","[{""page_index"":0,""viewing_time"":1307.2000000001863},{""page_index"":1,""viewing_time"":3730.9000000003725},{""page_index"":2,""viewing_time"":509},{""page_index"":3,""viewing_time"":1514},{""page_index"":4,""viewing_time"":3895.899999999441},{""page_index"":5,""viewing_time"":996},{""page_index"":6,""viewing_time"":2980.7999999998137}]","14934.5","","","","","","","","","","","",""
"","image-keyboard-response","2","23294","0.0-2.0","3A4TN5196L46JJIN834NQLQTY4MCHS","A3F51C49T9A34D","335VBRURDJMQFRMOFGHOE9WKSHX9E1","","1475.7999999998137","img/land6.png","75","1476.8999999994412","2","1","2","1","0.8,0.2,0.2,0.2,0.8,0.2,0.2,0.2,0.8","0.8,0.2,0.2,0.2,0.8,0.2,0.2,0.2,0.8","1","",""
"","html-keyboard-response","3","23602","0.0-3.0","3A4TN5196L46JJIN834NQLQTY4MCHS","A3F51C49T9A34D","335VBRURDJMQFRMOFGHOE9WKSHX9E1","","null","<img src=""img/land6.png"" style=""width:200px; border:14px solid green;"">","null","","","","","","","","","",""
"","image-keyboard-response","4","24222","0.0-4.0","3A4TN5196L46JJIN834NQLQTY4MCHS","A3F51C49T9A34D","335VBRURDJMQFRMOFGHOE9WKSHX9E1","","619","img/land1.png","74","619.7000000001863","1","0","1","1","0.8,0.2,0.2,0.2,0.8,0.2,0.2,0.2,0.8","0.8,0.2,0.2,0.2,0.8,0.2,0.2,0.2,0.8","1","",""
"","html-keyboard-response","5","24530","0.0-5.0","3A4TN5196L46JJIN834NQLQTY4MCHS","A3F51C49T9A34D","335VBRURDJMQFRMOFGHOE9WKSHX9E1","","null","<img src=""img/land1.png"" style=""width:200px;border:14px solid red;"">","null","","","","","","","","","",""
"","image-keyboard-response","6","24830","0.0-6.0","3A4TN5196L46JJIN834NQLQTY4MCHS","A3F51C49T9A34D","335VBRURDJMQFRMOFGHOE9WKSHX9E1","","299.09999999962747","img/land1.png","74","299.79999999981374","1","0","1","1","0.8,0.2,0.2,0.2,0.8,0.2,0.2,0.2,0.8","0.8,0.2,0.2,0.2,0.8,0.2,0.2,0.2,0.8","1","",""
"","html-keyboard-response","7","25137","0.0-7.0","3A4TN5196L46JJIN834NQLQTY4MCHS","A3F51C49T9A34D","335VBRURDJMQFRMOFGHOE9WKSHX9E1","","null","<img src=""img/land1.png"" style=""width:200px;border:14px solid red;"">","null","","","","","","","","","",""
"","image-keyboard-response","8","25342","0.0-8.0","3A4TN5196L46JJIN834NQLQTY4MCHS","A3F51C49T9A34D","335VBRURDJMQFRMOFGHOE9WKSHX9E1","","204.29999999981374","img/land6.png","74","204.8999999994412","1","0","2","1","0.8,0.2,0.2,0.2,0.8,0.2,0.2,0.2,0.8","0.8,0.2,0.2,0.2,0.8,0.2,0.2,0.2,0.8","1","",""
"","html-keyboard-response","9","25649","0.0-9.0","3A4TN5196L46JJIN834NQLQTY4MCHS","A3F51C49T9A34D","335VBRURDJMQFRMOFGHOE9WKSHX9E1","","null","<img src=""img/land6.png"" style=""width:200px;border:14px solid red;"">","null","","","","","","","","","",""
"","image-keyboard-response","10","25950","0.0-10.0","3A4TN5196L46JJIN834NQLQTY4MCHS","A3F51C49T9A34D","335VBRURDJMQFRMOFGHOE9WKSHX9E1","","300","img/land6.png","75","300.79999999981374","2","1","2","1","0.8,0.2,0.2,0.2,0.8,0.2,0.2,0.2,0.8","0.8,0.2,0.2,0.2,0.8,0.2,0.2,0.2,0.8","1","",""
"","html-keyboard-response","11","26257","0.0-11.0","3A4TN5196L46JJIN834NQLQTY4MCHS","A3F51C49T9A34D","335VBRURDJMQFRMOFGHOE9WKSHX9E1","","null","<img src=""img/land6.png"" style=""width:200px; border:14px solid green;"">","null","","","","","","","","","",""
"","image-keyboard-response","12","26558","0.0-12.0","3A4TN5196L46JJIN834NQLQTY4MCHS","A3F51C49T9A34D","335VBRURDJMQFRMOFGHOE9WKSHX9E1","","300.09999999962747","img/land6.png","75","300.70000000018626","2","1","2","1","0.8,0.2,0.2,0.2,0.8,0.2,0.2,0.2,0.8","0.8,0.2,0.2,0.2,0.8,0.2,0.2,0.2,0.8","1","",""
"","html-keyboard-response","13","26865","0.0-13.0","3A4TN5196L46JJIN834NQLQTY4MCHS","A3F51C49T9A34D","335VBRURDJMQFRMOFGHOE9WKSHX9E1","","null","<img src=""img/land6.png"" style=""width:200px; border:14px solid green;"">","null","","","","","","","","","",""
"","image-keyboard-response","14","27566","0.0-14.0","3A4TN5196L46JJIN834NQLQTY4MCHS","A3F51C49T9A34D","335VBRURDJMQFRMOFGHOE9WKSHX9E1","","700.0999999996275","img/land1.png","75","700.7999999998137","2","1","1","1","0.8,0.2,0.2,0.2,0.8,0.2,0.2,0.2,0.8","0.8,0.2,0.2,0.2,0.8,0.2,0.2,0.2,0.8","1","",""
"","html-keyboard-response","15","27873","0.0-15.0","3A4TN5196L46JJIN834NQLQTY4MCHS","A3F51C49T9A34D","335VBRURDJMQFRMOFGHOE9WKSHX9E1","","null","<img src=""img/land1.png"" style=""width:200px; border:14px solid green;"">","null","","","","","","","","","",""
"","image-keyboard-response","16","28478","0.0-16.0","3A4TN5196L46JJIN834NQLQTY4MCHS","A3F51C49T9A34D","335VBRURDJMQFRMOFGHOE9WKSHX9E1","","603.9000000003725","img/land5.png","75","604.5","2","0","3","1","0.8,0.2,0.2,0.2,0.8,0.2,0.2,0.2,0.8","0.8,0.2,0.2,0.2,0.8,0.2,0.2,0.2,0.8","1","",""
"","html-keyboard-response","17","28785","0.0-17.0","3A4TN5196L46JJIN834NQLQTY4MCHS","A3F51C49T9A34D","335VBRURDJMQFRMOFGHOE9WKSHX9E1","","null","<img src=""img/land5.png"" style=""width:200px;border:14px solid red;"">","null","","","","","","","","","",""
"","image-keyboard-response","18","29022","0.0-18.0","3A4TN5196L46JJIN834NQLQTY4MCHS","A3F51C49T9A34D","335VBRURDJMQFRMOFGHOE9WKSHX9E1","","236","img/land5.png","75","236.70000000018626","2","0","3","1","0.8,0.2,0.2,0.2,0.8,0.2,0.2,0.2,0.8","0.8,0.2,0.2,0.2,0.8,0.2,0.2,0.2,0.8","1","",""
"","html-keyboard-response","19","29333","0.0-19.0","3A4TN5196L46JJIN834NQLQTY4MCHS","A3F51C49T9A34D","335VBRURDJMQFRMOFGHOE9WKSHX9E1","","null","<img src=""img/land5.png"" style=""width:200px;border:14px solid red;"">","null","","","","","","","","","",""
"","image-keyboard-response","20","29518","0.0-20.0","3A4TN5196L46JJIN834NQLQTY4MCHS","A3F51C49T9A34D","335VBRURDJMQFRMOFGHOE9WKSHX9E1","","183.40000000037253","img/land1.png","75","184.20000000018626","2","0","1","1","0.8,0.2,0.2,0.2,0.8,0.2,0.2,0.2,0.8","0.8,0.2,0.2,0.2,0.8,0.2,0.2,0.2,0.8","1","",""
"","html-keyboard-response","21","29825","0.0-21.0","3A4TN5196L46JJIN834NQLQTY4MCHS","A3F51C49T9A34D","335VBRURDJMQFRMOFGHOE9WKSHX9E1","","null","<img src=""img/land1.png"" style=""width:200px;border:14px solid red;"">","null","","","","","","","","","",""
"","image-keyboard-response","22","29918","0.0-22.0","3A4TN5196L46JJIN834NQLQTY4MCHS","A3F51C49T9A34D","335VBRURDJMQFRMOFGHOE9WKSHX9E1","","91.90000000037253","img/land1.png","75","92.5","2","0","1","1","0.8,0.2,0.2,0.2,0.8,0.2,0.2,0.2,0.8","0.8,0.2,0.2,0.2,0.8,0.2,0.2,0.2,0.8","1","",""
"","html-keyboard-response","23","30225","0.0-23.0","3A4TN5196L46JJIN834NQLQTY4MCHS","A3F51C49T9A34D","335VBRURDJMQFRMOFGHOE9WKSHX9E1","","null","<img src=""img/land1.png"" style=""width:200px;border:14px solid red;"">","null","","","","","","","","","",""
"","image-keyboard-response","24","30302","0.0-24.0","3A4TN5196L46JJIN834NQLQTY4MCHS","A3F51C49T9A34D","335VBRURDJMQFRMOFGHOE9WKSHX9E1","","75.90000000037253","img/land1.png","75","76.6000000005588","2","0","1","1","0.8,0.2,0.2,0.2,0.8,0.2,0.2,0.2,0.8","0.8,0.2,0.2,0.2,0.8,0.2,0.2,0.2,0.8","1","",""
"","html-keyboard-response","25","30609","0.0-25.0","3A4TN5196L46JJIN834NQLQTY4MCHS","A3F51C49T9A34D","335VBRURDJMQFRMOFGHOE9WKSHX9E1","","null","<img src=""img/land1.png"" style=""width:200px;border:14px solid red;"">","null","","","","","","","","","",""
"","image-keyboard-response","26","30686","0.0-26.0","3A4TN5196L46JJIN834NQLQTY4MCHS","A3F51C49T9A34D","335VBRURDJMQFRMOFGHOE9WKSHX9E1","","75.90000000037253","img/land6.png","75","76.5","2","0","2","1","0.8,0.2,0.2,0.2,0.8,0.2,0.2,0.2,0.8","0.8,0.2,0.2,0.2,0.8,0.2,0.2,0.2,0.8","1","",""
"","html-keyboard-response","27","30993","0.0-27.0","3A4TN5196L46JJIN834NQLQTY4MCHS","A3F51C49T9A34D","335VBRURDJMQFRMOFGHOE9WKSHX9E1","","null","<img src=""img/land6.png"" style=""width:200px;border:14px solid red;"">","null","","","","","","","","","",""
"","image-keyboard-response","28","31598","0.0-28.0","3A4TN5196L46JJIN834NQLQTY4MCHS","A3F51C49T9A34D","335VBRURDJMQFRMOFGHOE9WKSHX9E1","","604","img/land1.png","75","604.3999999994412","2","0","1","1","0.8,0.2,0.2,0.2,0.8,0.2,0.2,0.2,0.8","0.8,0.2,0.2,0.2,0.8,0.2,0.2,0.2,0.8","1","",""
"","html-keyboard-response","29","31905","0.0-29.0","3A4TN5196L46JJIN834NQLQTY4MCHS","A3F51C49T9A34D","335VBRURDJMQFRMOFGHOE9WKSHX9E1","","null","<img src=""img/land1.png"" style=""width:200px;border:14px solid red;"">","null","","","","","","","","","",""
"","image-keyboard-response","30","32110","0.0-30.0","3A4TN5196L46JJIN834NQLQTY4MCHS","A3F51C49T9A34D","335VBRURDJMQFRMOFGHOE9WKSHX9E1","","203.90000000037253","img/land6.png","75","204.6000000005588","2","0","2","1","0.8,0.2,0.2,0.2,0.8,0.2,0.2,0.2,0.8","0.8,0.2,0.2,0.2,0.8,0.2,0.2,0.2,0.8","1","",""
"","html-keyboard-response","31","32417","0.0-31.0","3A4TN5196L46JJIN834NQLQTY4MCHS","A3F51C49T9A34D","335VBRURDJMQFRMOFGHOE9WKSHX9E1","","null","<img src=""img/land6.png"" style=""width:200px;border:14px solid red;"">","null","","","","","","","","","",""
"","image-keyboard-response","32","33310","0.0-32.0","3A4TN5196L46JJIN834NQLQTY4MCHS","A3F51C49T9A34D","335VBRURDJMQFRMOFGHOE9WKSHX9E1","","891.7000000001863","img/land5.png","74","892.3999999994412","1","0","3","1","0.8,0.2,0.2,0.2,0.8,0.2,0.2,0.2,0.8","0.8,0.2,0.2,0.2,0.8,0.2,0.2,0.2,0.8","1","",""
"","html-keyboard-response","33","33617","0.0-33.0","3A4TN5196L46JJIN834NQLQTY4MCHS","A3F51C49T9A34D","335VBRURDJMQFRMOFGHOE9WKSHX9E1","","null","<img src=""img/land5.png"" style=""width:200px;border:14px solid red;"">","null","","","","","","","","","",""
"","image-keyboard-response","34","33646","0.0-34.0","3A4TN5196L46JJIN834NQLQTY4MCHS","A3F51C49T9A34D","335VBRURDJMQFRMOFGHOE9WKSHX9E1","","27.700000000186265","img/land5.png","74","28.399999999441206","1","0","3","1","0.8,0.2,0.2,0.2,0.8,0.2,0.2,0.2,0.8","0.8,0.2,0.2,0.2,0.8,0.2,0.2,0.2,0.8","1","",""
"","html-keyboard-response","35","33953","0.0-35.0","3A4TN5196L46JJIN834NQLQTY4MCHS","A3F51C49T9A34D","335VBRURDJMQFRMOFGHOE9WKSHX9E1","","null","<img src=""img/land5.png"" style=""width:200px;border:14px solid red;"">","null","","","","","","","","","",""
"","image-keyboard-response","36","34189","0.0-36.0","3A4TN5196L46JJIN834NQLQTY4MCHS","A3F51C49T9A34D","335VBRURDJMQFRMOFGHOE9WKSHX9E1","","235.70000000018626","img/land5.png","74","236.3999999994412","1","0","3","1","0.8,0.2,0.2,0.2,0.8,0.2,0.2,0.2,0.8","0.8,0.2,0.2,0.2,0.8,0.2,0.2,0.2,0.8","1","",""
"","html-keyboard-response","37","34497","0.0-37.0","3A4TN5196L46JJIN834NQLQTY4MCHS","A3F51C49T9A34D","335VBRURDJMQFRMOFGHOE9WKSHX9E1","","null","<img src=""img/land5.png"" style=""width:200px;border:14px solid red;"">","null","","","","","","","","","",""
"","image-keyboard-response","38","34526","0.0-38.0","3A4TN5196L46JJIN834NQLQTY4MCHS","A3F51C49T9A34D","335VBRURDJMQFRMOFGHOE9WKSHX9E1","","27.700000000186265","img/land6.png","74","28.299999999813735","1","0","2","1","0.8,0.2,0.2,0.2,0.8,0.2,0.2,0.2,0.8","0.8,0.2,0.2,0.2,0.8,0.2,0.2,0.2,0.8","1","",""
"","html-keyboard-response","39","34833","0.0-39.0","3A4TN5196L46JJIN834NQLQTY4MCHS","A3F51C49T9A34D","335VBRURDJMQFRMOFGHOE9WKSHX9E1","","null","<img src=""img/land6.png"" style=""width:200px;border:14px solid red;"">","null","","","","","","","","","",""
"","image-keyboard-response","40","35774","0.0-40.0","3A4TN5196L46JJIN834NQLQTY4MCHS","A3F51C49T9A34D","335VBRURDJMQFRMOFGHOE9WKSHX9E1","","939.6000000005588","img/land5.png","74","940.2999999998137","1","0","3","1","0.8,0.2,0.2,0.2,0.8,0.2,0.2,0.2,0.8","0.8,0.2,0.2,0.2,0.8,0.2,0.2,0.2,0.8","1","",""
"","html-keyboard-response","41","36081","0.0-41.0","3A4TN5196L46JJIN834NQLQTY4MCHS","A3F51C49T9A34D","335VBRURDJMQFRMOFGHOE9WKSHX9E1","","null","<img src=""img/land5.png"" style=""width:200px;border:14px solid red;"">","null","","","","","","","","","",""
"","image-keyboard-response","42","36797","0.0-42.0","3A4TN5196L46JJIN834NQLQTY4MCHS","A3F51C49T9A34D","335VBRURDJMQFRMOFGHOE9WKSHX9E1","","715.6000000005588","img/land6.png","75","716.1999999992549","2","0","2","1","0.8,0.2,0.2,0.2,0.8,0.2,0.2,0.2,0.8","0.8,0.2,0.2,0.2,0.8,0.2,0.2,0.2,0.8","1","",""
"","html-keyboard-response","43","37105","0.0-43.0","3A4TN5196L46JJIN834NQLQTY4MCHS","A3F51C49T9A34D","335VBRURDJMQFRMOFGHOE9WKSHX9E1","","null","<img src=""img/land6.png"" style=""width:200px;border:14px solid red;"">","null","","","","","","","","","",""
"","image-keyboard-response","44","37149","0.0-44.0","3A4TN5196L46JJIN834NQLQTY4MCHS","A3F51C49T9A34D","335VBRURDJMQFRMOFGHOE9WKSHX9E1","","43.60000000055879","img/land5.png","75","44.19999999925494","2","0","3","1","0.8,0.2,0.2,0.2,0.8,0.2,0.2,0.2,0.8","0.8,0.2,0.2,0.2,0.8,0.2,0.2,0.2,0.8","1","",""
"","html-keyboard-response","45","37457","0.0-45.0","3A4TN5196L46JJIN834NQLQTY4MCHS","A3F51C49T9A34D","335VBRURDJMQFRMOFGHOE9WKSHX9E1","","null","<img src=""img/land5.png"" style=""width:200px;border:14px solid red;"">","null","","","","","","","","","",""
"","image-keyboard-response","46","37549","0.0-46.0","3A4TN5196L46JJIN834NQLQTY4MCHS","A3F51C49T9A34D","335VBRURDJMQFRMOFGHOE9WKSHX9E1","","91.5","img/land5.png","75","92.09999999962747","2","1","3","1","0.8,0.2,0.2,0.2,0.8,0.2,0.2,0.2,0.8","0.8,0.2,0.2,0.2,0.8,0.2,0.2,0.2,0.8","1","",""
"","html-keyboard-response","47","37857","0.0-47.0","3A4TN5196L46JJIN834NQLQTY4MCHS","A3F51C49T9A34D","335VBRURDJMQFRMOFGHOE9WKSHX9E1","","null","<img src=""img/land5.png"" style=""width:200px; border:14px solid green;"">","null","","","","","","","","","",""
"","image-keyboard-response","48","38397","0.0-48.0","3A4TN5196L46JJIN834NQLQTY4MCHS","A3F51C49T9A34D","335VBRURDJMQFRMOFGHOE9WKSHX9E1","","539.5","img/land1.png","76","540.1999999992549","3","1","1","1","0.8,0.2,0.2,0.2,0.8,0.2,0.2,0.2,0.8","0.8,0.2,0.2,0.2,0.8,0.2,0.2,0.2,0.8","1","",""
"","html-keyboard-response","49","38705","0.0-49.0","3A4TN5196L46JJIN834NQLQTY4MCHS","A3F51C49T9A34D","335VBRURDJMQFRMOFGHOE9WKSHX9E1","","null","<img src=""img/land1.png"" style=""width:200px; border:14px solid green;"">","null","","","","","","","","","",""
"","image-keyboard-response","50","38797","0.0-50.0","3A4TN5196L46JJIN834NQLQTY4MCHS","A3F51C49T9A34D","335VBRURDJMQFRMOFGHOE9WKSHX9E1","","91.5","img/land1.png","76","92.19999999925494","3","0","1","1","0.8,0.2,0.2,0.2,0.8,0.2,0.2,0.2,0.8","0.8,0.2,0.2,0.2,0.8,0.2,0.2,0.2,0.8","1","",""
"","html-keyboard-response","51","39105","0.0-51.0","3A4TN5196L46JJIN834NQLQTY4MCHS","A3F51C49T9A34D","335VBRURDJMQFRMOFGHOE9WKSHX9E1","","null","<img src=""img/land1.png"" style=""width:200px;border:14px solid red;"">","null","","","","","","","","","",""
"","image-keyboard-response","52","39165","0.0-52.0","3A4TN5196L46JJIN834NQLQTY4MCHS","A3F51C49T9A34D","335VBRURDJMQFRMOFGHOE9WKSHX9E1","","59.39999999944121","img/land1.png","76","60","3","0","1","1","0.8,0.2,0.2,0.2,0.8,0.2,0.2,0.2,0.8","0.8,0.2,0.2,0.2,0.8,0.2,0.2,0.2,0.8","1","",""
"","html-keyboard-response","53","39473","0.0-53.0","3A4TN5196L46JJIN834NQLQTY4MCHS","A3F51C49T9A34D","335VBRURDJMQFRMOFGHOE9WKSHX9E1","","null","<img src=""img/land1.png"" style=""width:200px;border:14px solid red;"">","null","","","","","","","","","",""
"","image-keyboard-response","54","40029","0.0-54.0","3A4TN5196L46JJIN834NQLQTY4MCHS","A3F51C49T9A34D","335VBRURDJMQFRMOFGHOE9WKSHX9E1","","555.1000000005588","img/land6.png","75","556","2","1","2","1","0.8,0.2,0.2,0.2,0.8,0.2,0.2,0.2,0.8","0.8,0.2,0.2,0.2,0.8,0.2,0.2,0.2,0.8","1","",""
"","html-keyboard-response","55","40337","0.0-55.0","3A4TN5196L46JJIN834NQLQTY4MCHS","A3F51C49T9A34D","335VBRURDJMQFRMOFGHOE9WKSHX9E1","","null","<img src=""img/land6.png"" style=""width:200px; border:14px solid green;"">","null","","","","","","","","","",""
"","image-keyboard-response","56","40413","0.0-56.0","3A4TN5196L46JJIN834NQLQTY4MCHS","A3F51C49T9A34D","335VBRURDJMQFRMOFGHOE9WKSHX9E1","","75.29999999981374","img/land6.png","75","75.90000000037253","2","1","2","1","0.8,0.2,0.2,0.2,0.8,0.2,0.2,0.2,0.8","0.8,0.2,0.2,0.2,0.8,0.2,0.2,0.2,0.8","1","",""
"","html-keyboard-response","57","40721","0.0-57.0","3A4TN5196L46JJIN834NQLQTY4MCHS","A3F51C49T9A34D","335VBRURDJMQFRMOFGHOE9WKSHX9E1","","null","<img src=""img/land6.png"" style=""width:200px; border:14px solid green;"">","null","","","","","","","","","",""
"","image-keyboard-response","58","40813","0.0-58.0","3A4TN5196L46JJIN834NQLQTY4MCHS","A3F51C49T9A34D","335VBRURDJMQFRMOFGHOE9WKSHX9E1","","91.20000000018626","img/land6.png","75","91.90000000037253","2","1","2","1","0.8,0.2,0.2,0.2,0.8,0.2,0.2,0.2,0.8","0.8,0.2,0.2,0.2,0.8,0.2,0.2,0.2,0.8","1","",""
"","html-keyboard-response","59","41121","0.0-59.0","3A4TN5196L46JJIN834NQLQTY4MCHS","A3F51C49T9A34D","335VBRURDJMQFRMOFGHOE9WKSHX9E1","","null","<img src=""img/land6.png"" style=""width:200px; border:14px solid green;"">","null","","","","","","","","","",""
"","image-keyboard-response","60","41341","0.0-60.0","3A4TN5196L46JJIN834NQLQTY4MCHS","A3F51C49T9A34D","335VBRURDJMQFRMOFGHOE9WKSHX9E1","","219.20000000018626","img/land1.png","75","220","2","0","1","1","0.8,0.2,0.2,0.2,0.8,0.2,0.2,0.2,0.8","0.8,0.2,0.2,0.2,0.8,0.2,0.2,0.2,0.8","1","",""
"","html-keyboard-response","61","41649","0.0-61.0","3A4TN5196L46JJIN834NQLQTY4MCHS","A3F51C49T9A34D","335VBRURDJMQFRMOFGHOE9WKSHX9E1","","null","<img src=""img/land1.png"" style=""width:200px;border:14px solid red;"">","null","","","","","","","","","",""
"","image-keyboard-response","62","42014","0.0-62.0","3A4TN5196L46JJIN834NQLQTY4MCHS","A3F51C49T9A34D","335VBRURDJMQFRMOFGHOE9WKSHX9E1","","363.5","img/land1.png","74","364.20000000018626","1","1","1","1","0.8,0.2,0.2,0.2,0.8,0.2,0.2,0.2,0.8","0.8,0.2,0.2,0.2,0.8,0.2,0.2,0.2,0.8","1","",""
"","html-keyboard-response","63","42321","0.0-63.0","3A4TN5196L46JJIN834NQLQTY4MCHS","A3F51C49T9A34D","335VBRURDJMQFRMOFGHOE9WKSHX9E1","","null","<img src=""img/land1.png"" style=""width:200px; border:14px solid green;"">","null","","","","","","","","","",""
"","image-keyboard-response","64","42493","0.0-64.0","3A4TN5196L46JJIN834NQLQTY4MCHS","A3F51C49T9A34D","335VBRURDJMQFRMOFGHOE9WKSHX9E1","","171.20000000018626","img/land1.png","74","171.80000000074506","1","1","1","1","0.8,0.2,0.2,0.2,0.8,0.2,0.2,0.2,0.8","0.8,0.2,0.2,0.2,0.8,0.2,0.2,0.2,0.8","1","",""
"","html-keyboard-response","65","42801","0.0-65.0","3A4TN5196L46JJIN834NQLQTY4MCHS","A3F51C49T9A34D","335VBRURDJMQFRMOFGHOE9WKSHX9E1","","null","<img src=""img/land1.png"" style=""width:200px; border:14px solid green;"">","null","","","","","","","","","",""
"","image-keyboard-response","66","42973","0.0-66.0","3A4TN5196L46JJIN834NQLQTY4MCHS","A3F51C49T9A34D","335VBRURDJMQFRMOFGHOE9WKSHX9E1","","171.20000000018626","img/land1.png","74","171.90000000037253","1","0","1","1","0.8,0.2,0.2,0.2,0.8,0.2,0.2,0.2,0.8","0.8,0.2,0.2,0.2,0.8,0.2,0.2,0.2,0.8","1","",""
"","html-keyboard-response","67","43281","0.0-67.0","3A4TN5196L46JJIN834NQLQTY4MCHS","A3F51C49T9A34D","335VBRURDJMQFRMOFGHOE9WKSHX9E1","","null","<img src=""img/land1.png"" style=""width:200px;border:14px solid red;"">","null","","","","","","","","","",""
"","image-keyboard-response","68","43421","0.0-68.0","3A4TN5196L46JJIN834NQLQTY4MCHS","A3F51C49T9A34D","335VBRURDJMQFRMOFGHOE9WKSHX9E1","","139.09999999962747","img/land5.png","74","139.79999999981374","1","1","3","1","0.8,0.2,0.2,0.2,0.8,0.2,0.2,0.2,0.8","0.8,0.2,0.2,0.2,0.8,0.2,0.2,0.2,0.8","1","",""
"","html-keyboard-response","69","43730","0.0-69.0","3A4TN5196L46JJIN834NQLQTY4MCHS","A3F51C49T9A34D","335VBRURDJMQFRMOFGHOE9WKSHX9E1","","null","<img src=""img/land5.png"" style=""width:200px; border:14px solid green;"">","null","","","","","","","","","",""
"","image-keyboard-response","70","44157","0.0-70.0","3A4TN5196L46JJIN834NQLQTY4MCHS","A3F51C49T9A34D","335VBRURDJMQFRMOFGHOE9WKSHX9E1","","427.09999999962747","img/land5.png","74","427.79999999981374","1","0","3","1","0.8,0.2,0.2,0.2,0.8,0.2,0.2,0.2,0.8","0.8,0.2,0.2,0.2,0.8,0.2,0.2,0.2,0.8","1","",""
"","html-keyboard-response","71","44465","0.0-71.0","3A4TN5196L46JJIN834NQLQTY4MCHS","A3F51C49T9A34D","335VBRURDJMQFRMOFGHOE9WKSHX9E1","","null","<img src=""img/land5.png"" style=""width:200px;border:14px solid red;"">","null","","","","","","","","","",""
"","image-keyboard-response","72","45357","0.0-72.0","3A4TN5196L46JJIN834NQLQTY4MCHS","A3F51C49T9A34D","335VBRURDJMQFRMOFGHOE9WKSHX9E1","","891.2000000001863","img/land6.png","75","891.7999999998137","2","1","2","1","0.8,0.2,0.2,0.2,0.8,0.2,0.2,0.2,0.8","0.8,0.2,0.2,0.2,0.8,0.2,0.2,0.2,0.8","1","",""
"","html-keyboard-response","73","45666","0.0-73.0","3A4TN5196L46JJIN834NQLQTY4MCHS","A3F51C49T9A34D","335VBRURDJMQFRMOFGHOE9WKSHX9E1","","null","<img src=""img/land6.png"" style=""width:200px; border:14px solid green;"">","null","","","","","","","","","",""
"","image-keyboard-response","74","45725","0.0-74.0","3A4TN5196L46JJIN834NQLQTY4MCHS","A3F51C49T9A34D","335VBRURDJMQFRMOFGHOE9WKSHX9E1","","59.09999999962747","img/land6.png","75","59.700000000186265","2","1","2","1","0.8,0.2,0.2,0.2,0.8,0.2,0.2,0.2,0.8","0.8,0.2,0.2,0.2,0.8,0.2,0.2,0.2,0.8","1","",""
"","html-keyboard-response","75","46034","0.0-75.0","3A4TN5196L46JJIN834NQLQTY4MCHS","A3F51C49T9A34D","335VBRURDJMQFRMOFGHOE9WKSHX9E1","","null","<img src=""img/land6.png"" style=""width:200px; border:14px solid green;"">","null","","","","","","","","","",""
"","image-keyboard-response","76","46141","0.0-76.0","3A4TN5196L46JJIN834NQLQTY4MCHS","A3F51C49T9A34D","335VBRURDJMQFRMOFGHOE9WKSHX9E1","","107.09999999962747","img/land1.png","75","107.6000000005588","2","0","1","1","0.8,0.2,0.2,0.2,0.8,0.2,0.2,0.2,0.8","0.8,0.2,0.2,0.2,0.8,0.2,0.2,0.2,0.8","1","",""
"","html-keyboard-response","77","46450","0.0-77.0","3A4TN5196L46JJIN834NQLQTY4MCHS","A3F51C49T9A34D","335VBRURDJMQFRMOFGHOE9WKSHX9E1","","null","<img src=""img/land1.png"" style=""width:200px;border:14px solid red;"">","null","","","","","","","","","",""
"","image-keyboard-response","78","46829","0.0-78.0","3A4TN5196L46JJIN834NQLQTY4MCHS","A3F51C49T9A34D","335VBRURDJMQFRMOFGHOE9WKSHX9E1","","379.09999999962747","img/land5.png","74","379.6000000005588","1","1","3","1","0.8,0.2,0.2,0.2,0.8,0.2,0.2,0.2,0.8","0.8,0.2,0.2,0.2,0.8,0.2,0.2,0.2,0.8","1","",""
"","html-keyboard-response","79","47137","0.0-79.0","3A4TN5196L46JJIN834NQLQTY4MCHS","A3F51C49T9A34D","335VBRURDJMQFRMOFGHOE9WKSHX9E1","","null","<img src=""img/land5.png"" style=""width:200px; border:14px solid green;"">","null","","","","","","","","","",""
"","image-keyboard-response","80","47661","0.0-80.0","3A4TN5196L46JJIN834NQLQTY4MCHS","A3F51C49T9A34D","335VBRURDJMQFRMOFGHOE9WKSHX9E1","","524","img/land5.png","76","524.5","3","1","3","1","0.8,0.2,0.2,0.2,0.8,0.2,0.2,0.2,0.8","0.8,0.2,0.2,0.2,0.8,0.2,0.2,0.2,0.8","1","",""
"","html-keyboard-response","81","47969","0.0-81.0","3A4TN5196L46JJIN834NQLQTY4MCHS","A3F51C49T9A34D","335VBRURDJMQFRMOFGHOE9WKSHX9E1","","null","<img src=""img/land5.png"" style=""width:200px; border:14px solid green;"">","null","","","","","","","","","",""
"","image-keyboard-response","82","48077","0.0-82.0","3A4TN5196L46JJIN834NQLQTY4MCHS","A3F51C49T9A34D","335VBRURDJMQFRMOFGHOE9WKSHX9E1","","108","img/land6.png","76","108.5","3","0","2","1","0.8,0.2,0.2,0.2,0.8,0.2,0.2,0.2,0.8","0.8,0.2,0.2,0.2,0.8,0.2,0.2,0.2,0.8","1","",""
"","html-keyboard-response","83","48385","0.0-83.0","3A4TN5196L46JJIN834NQLQTY4MCHS","A3F51C49T9A34D","335VBRURDJMQFRMOFGHOE9WKSHX9E1","","null","<img src=""img/land6.png"" style=""width:200px;border:14px solid red;"">","null","","","","","","","","","",""
"","image-keyboard-response","84","49277","0.0-84.0","3A4TN5196L46JJIN834NQLQTY4MCHS","A3F51C49T9A34D","335VBRURDJMQFRMOFGHOE9WKSHX9E1","","891.7999999998137","img/land1.png","74","892.6000000005588","1","0","1","1","0.8,0.2,0.2,0.2,0.8,0.2,0.2,0.2,0.8","0.8,0.2,0.2,0.2,0.8,0.2,0.2,0.2,0.8","1","",""
"","html-keyboard-response","85","49585","0.0-85.0","3A4TN5196L46JJIN834NQLQTY4MCHS","A3F51C49T9A34D","335VBRURDJMQFRMOFGHOE9WKSHX9E1","","null","<img src=""img/land1.png"" style=""width:200px;border:14px solid red;"">","null","","","","","","","","","",""
"","image-keyboard-response","86","50749","0.0-86.0","3A4TN5196L46JJIN834NQLQTY4MCHS","A3F51C49T9A34D","335VBRURDJMQFRMOFGHOE9WKSHX9E1","","1163.8999999994412","img/land5.png","76","1164.4000000003725","3","1","3","1","0.8,0.2,0.2,0.2,0.8,0.2,0.2,0.2,0.8","0.8,0.2,0.2,0.2,0.8,0.2,0.2,0.2,0.8","1","",""
"","html-keyboard-response","87","51057","0.0-87.0","3A4TN5196L46JJIN834NQLQTY4MCHS","A3F51C49T9A34D","335VBRURDJMQFRMOFGHOE9WKSHX9E1","","null","<img src=""img/land5.png"" style=""width:200px; border:14px solid green;"">","null","","","","","","","","","",""
"","image-keyboard-response","88","51261","0.0-88.0","3A4TN5196L46JJIN834NQLQTY4MCHS","A3F51C49T9A34D","335VBRURDJMQFRMOFGHOE9WKSHX9E1","","203.79999999981374","img/land6.png","76","204.29999999981374","3","0","2","1","0.8,0.2,0.2,0.2,0.8,0.2,0.2,0.2,0.8","0.8,0.2,0.2,0.2,0.8,0.2,0.2,0.2,0.8","1","",""
"","html-keyboard-response","89","51569","0.0-89.0","3A4TN5196L46JJIN834NQLQTY4MCHS","A3F51C49T9A34D","335VBRURDJMQFRMOFGHOE9WKSHX9E1","","null","<img src=""img/land6.png"" style=""width:200px;border:14px solid red;"">","null","","","","","","","","","",""
"","image-keyboard-response","90","51853","0.0-90.0","3A4TN5196L46JJIN834NQLQTY4MCHS","A3F51C49T9A34D","335VBRURDJMQFRMOFGHOE9WKSHX9E1","","283.70000000018626","img/land1.png","75","284.40000000037253","2","0","1","1","0.8,0.2,0.2,0.2,0.8,0.2,0.2,0.2,0.8","0.8,0.2,0.2,0.2,0.8,0.2,0.2,0.2,0.8","1","",""
"","html-keyboard-response","91","52161","0.0-91.0","3A4TN5196L46JJIN834NQLQTY4MCHS","A3F51C49T9A34D","335VBRURDJMQFRMOFGHOE9WKSHX9E1","","null","<img src=""img/land1.png"" style=""width:200px;border:14px solid red;"">","null","","","","","","","","","",""
"","image-keyboard-response","92","53518","0.0-92.0","3A4TN5196L46JJIN834NQLQTY4MCHS","A3F51C49T9A34D","335VBRURDJMQFRMOFGHOE9WKSHX9E1","","1356","img/land5.png","76","1356.5999999996275","3","1","3","1","0.8,0.2,0.2,0.2,0.8,0.2,0.2,0.2,0.8","0.8,0.2,0.2,0.2,0.8,0.2,0.2,0.2,0.8","1","",""
"","html-keyboard-response","93","53825","0.0-93.0","3A4TN5196L46JJIN834NQLQTY4MCHS","A3F51C49T9A34D","335VBRURDJMQFRMOFGHOE9WKSHX9E1","","null","<img src=""img/land5.png"" style=""width:200px; border:14px solid green;"">","null","","","","","","","","","",""
"","image-keyboard-response","94","54365","0.0-94.0","3A4TN5196L46JJIN834NQLQTY4MCHS","A3F51C49T9A34D","335VBRURDJMQFRMOFGHOE9WKSHX9E1","","539.6000000005588","img/land6.png","75","540.2000000001863","2","1","2","1","0.8,0.2,0.2,0.2,0.8,0.2,0.2,0.2,0.8","0.8,0.2,0.2,0.2,0.8,0.2,0.2,0.2,0.8","1","",""
"","html-keyboard-response","95","54673","0.0-95.0","3A4TN5196L46JJIN834NQLQTY4MCHS","A3F51C49T9A34D","335VBRURDJMQFRMOFGHOE9WKSHX9E1","","null","<img src=""img/land6.png"" style=""width:200px; border:14px solid green;"">","null","","","","","","","","","",""
"","image-keyboard-response","96","55053","0.0-96.0","3A4TN5196L46JJIN834NQLQTY4MCHS","A3F51C49T9A34D","335VBRURDJMQFRMOFGHOE9WKSHX9E1","","379.6000000005588","img/land6.png","75","380.20000000018626","2","1","2","1","0.8,0.2,0.2,0.2,0.8,0.2,0.2,0.2,0.8","0.8,0.2,0.2,0.2,0.8,0.2,0.2,0.2,0.8","1","",""
"","html-keyboard-response","97","55361","0.0-97.0","3A4TN5196L46JJIN834NQLQTY4MCHS","A3F51C49T9A34D","335VBRURDJMQFRMOFGHOE9WKSHX9E1","","null","<img src=""img/land6.png"" style=""width:200px; border:14px solid green;"">","null","","","","","","","","","",""
"","image-keyboard-response","98","55981","0.0-98.0","3A4TN5196L46JJIN834NQLQTY4MCHS","A3F51C49T9A34D","335VBRURDJMQFRMOFGHOE9WKSHX9E1","","619.5999999996275","img/land1.png","74","620.3000000007451","1","1","1","1","0.8,0.2,0.2,0.2,0.8,0.2,0.2,0.2,0.8","0.8,0.2,0.2,0.2,0.8,0.2,0.2,0.2,0.8","1","",""
"","html-keyboard-response","99","56289","0.0-99.0","3A4TN5196L46JJIN834NQLQTY4MCHS","A3F51C49T9A34D","335VBRURDJMQFRMOFGHOE9WKSHX9E1","","null","<img src=""img/land1.png"" style=""width:200px; border:14px solid green;"">","null","","","","","","","","","",""
"","image-keyboard-response","100","56957","0.0-100.0","3A4TN5196L46JJIN834NQLQTY4MCHS","A3F51C49T9A34D","335VBRURDJMQFRMOFGHOE9WKSHX9E1","","667.5","img/land6.png","75","668.0999999996275","2","1","2","1","0.8,0.2,0.2,0.2,0.8,0.2,0.2,0.2,0.8","0.8,0.2,0.2,0.2,0.8,0.2,0.2,0.2,0.8","1","",""
"","html-keyboard-response","101","57265","0.0-101.0","3A4TN5196L46JJIN834NQLQTY4MCHS","A3F51C49T9A34D","335VBRURDJMQFRMOFGHOE9WKSHX9E1","","null","<img src=""img/land6.png"" style=""width:200px; border:14px solid green;"">","null","","","","","","","","","",""
"","image-keyboard-response","102","58205","0.0-102.0","3A4TN5196L46JJIN834NQLQTY4MCHS","A3F51C49T9A34D","335VBRURDJMQFRMOFGHOE9WKSHX9E1","","939.2999999998137","img/land5.png","76","940","3","0","3","1","0.8,0.2,0.2,0.2,0.8,0.2,0.2,0.2,0.8","0.8,0.2,0.2,0.2,0.8,0.2,0.2,0.2,0.8","1","",""
"","html-keyboard-response","103","58513","0.0-103.0","3A4TN5196L46JJIN834NQLQTY4MCHS","A3F51C49T9A34D","335VBRURDJMQFRMOFGHOE9WKSHX9E1","","null","<img src=""img/land5.png"" style=""width:200px;border:14px solid red;"">","null","","","","","","","","","",""
"","image-keyboard-response","104","59085","0.0-104.0","3A4TN5196L46JJIN834NQLQTY4MCHS","A3F51C49T9A34D","335VBRURDJMQFRMOFGHOE9WKSHX9E1","","571.2999999998137","img/land1.png","75","572","2","0","1","1","0.8,0.2,0.2,0.2,0.8,0.2,0.2,0.2,0.8","0.8,0.2,0.2,0.2,0.8,0.2,0.2,0.2,0.8","1","",""
"","html-keyboard-response","105","59395","0.0-105.0","3A4TN5196L46JJIN834NQLQTY4MCHS","A3F51C49T9A34D","335VBRURDJMQFRMOFGHOE9WKSHX9E1","","null","<img src=""img/land1.png"" style=""width:200px;border:14px solid red;"">","null","","","","","","","","","",""
"","image-keyboard-response","106","60063","0.0-106.0","3A4TN5196L46JJIN834NQLQTY4MCHS","A3F51C49T9A34D","335VBRURDJMQFRMOFGHOE9WKSHX9E1","","667.2999999998137","img/land6.png","75","667.8999999994412","2","1","2","1","0.8,0.2,0.2,0.2,0.8,0.2,0.2,0.2,0.8","0.8,0.2,0.2,0.2,0.8,0.2,0.2,0.2,0.8","1","",""
"","html-keyboard-response","107","60371","0.0-107.0","3A4TN5196L46JJIN834NQLQTY4MCHS","A3F51C49T9A34D","335VBRURDJMQFRMOFGHOE9WKSHX9E1","","null","<img src=""img/land6.png"" style=""width:200px; border:14px solid green;"">","null","","","","","","","","","",""
"","image-keyboard-response","108","61231","0.0-108.0","3A4TN5196L46JJIN834NQLQTY4MCHS","A3F51C49T9A34D","335VBRURDJMQFRMOFGHOE9WKSHX9E1","","859.1999999992549","img/land1.png","74","860","1","1","1","1","0.8,0.2,0.2,0.2,0.8,0.2,0.2,0.2,0.8","0.8,0.2,0.2,0.2,0.8,0.2,0.2,0.2,0.8","1","",""
"","html-keyboard-response","109","61539","0.0-109.0","3A4TN5196L46JJIN834NQLQTY4MCHS","A3F51C49T9A34D","335VBRURDJMQFRMOFGHOE9WKSHX9E1","","null","<img src=""img/land1.png"" style=""width:200px; border:14px solid green;"">","null","","","","","","","","","",""
"","image-keyboard-response","110","62575","0.0-110.0","3A4TN5196L46JJIN834NQLQTY4MCHS","A3F51C49T9A34D","335VBRURDJMQFRMOFGHOE9WKSHX9E1","","1035.0999999996275","img/land5.png","74","1035.7000000001863","1","0","3","1","0.8,0.2,0.2,0.2,0.8,0.2,0.2,0.2,0.8","0.8,0.2,0.2,0.2,0.8,0.2,0.2,0.2,0.8","1","",""
"","html-keyboard-response","111","62883","0.0-111.0","3A4TN5196L46JJIN834NQLQTY4MCHS","A3F51C49T9A34D","335VBRURDJMQFRMOFGHOE9WKSHX9E1","","null","<img src=""img/land5.png"" style=""width:200px;border:14px solid red;"">","null","","","","","","","","","",""
"","image-keyboard-response","112","63359","0.0-112.0","3A4TN5196L46JJIN834NQLQTY4MCHS","A3F51C49T9A34D","335VBRURDJMQFRMOFGHOE9WKSHX9E1","","475","img/land6.png","75","475.70000000018626","2","0","2","1","0.8,0.2,0.2,0.2,0.8,0.2,0.2,0.2,0.8","0.8,0.2,0.2,0.2,0.8,0.2,0.2,0.2,0.8","1","",""
"","html-keyboard-response","113","63667","0.0-113.0","3A4TN5196L46JJIN834NQLQTY4MCHS","A3F51C49T9A34D","335VBRURDJMQFRMOFGHOE9WKSHX9E1","","null","<img src=""img/land6.png"" style=""width:200px;border:14px solid red;"">","null","","","","","","","","","",""
"","image-keyboard-response","114","64367","0.0-114.0","3A4TN5196L46JJIN834NQLQTY4MCHS","A3F51C49T9A34D","335VBRURDJMQFRMOFGHOE9WKSHX9E1","","699.4000000003725","img/land5.png","76","699.9000000003725","3","0","3","1","0.8,0.2,0.2,0.2,0.8,0.2,0.2,0.2,0.8","0.8,0.2,0.2,0.2,0.8,0.2,0.2,0.2,0.8","1","",""
"","html-keyboard-response","115","64675","0.0-115.0","3A4TN5196L46JJIN834NQLQTY4MCHS","A3F51C49T9A34D","335VBRURDJMQFRMOFGHOE9WKSHX9E1","","null","<img src=""img/land5.png"" style=""width:200px;border:14px solid red;"">","null","","","","","","","","","",""
"","image-keyboard-response","116","65103","0.0-116.0","3A4TN5196L46JJIN834NQLQTY4MCHS","A3F51C49T9A34D","335VBRURDJMQFRMOFGHOE9WKSHX9E1","","427","img/land5.png","76","427.6000000005588","3","1","3","1","0.8,0.2,0.2,0.2,0.8,0.2,0.2,0.2,0.8","0.8,0.2,0.2,0.2,0.8,0.2,0.2,0.2,0.8","1","",""
"","html-keyboard-response","117","65411","0.0-117.0","3A4TN5196L46JJIN834NQLQTY4MCHS","A3F51C49T9A34D","335VBRURDJMQFRMOFGHOE9WKSHX9E1","","null","<img src=""img/land5.png"" style=""width:200px; border:14px solid green;"">","null","","","","","","","","","",""
"","image-keyboard-response","118","65983","0.0-118.0","3A4TN5196L46JJIN834NQLQTY4MCHS","A3F51C49T9A34D","335VBRURDJMQFRMOFGHOE9WKSHX9E1","","571","img/land6.png","75","571.7000000001863","2","1","2","1","0.8,0.2,0.2,0.2,0.8,0.2,0.2,0.2,0.8","0.8,0.2,0.2,0.2,0.8,0.2,0.2,0.2,0.8","1","",""
"","html-keyboard-response","119","66291","0.0-119.0","3A4TN5196L46JJIN834NQLQTY4MCHS","A3F51C49T9A34D","335VBRURDJMQFRMOFGHOE9WKSHX9E1","","null","<img src=""img/land6.png"" style=""width:200px; border:14px solid green;"">","null","","","","","","","","","",""
"","image-keyboard-response","120","66975","0.0-120.0","3A4TN5196L46JJIN834NQLQTY4MCHS","A3F51C49T9A34D","335VBRURDJMQFRMOFGHOE9WKSHX9E1","","682.9000000003725","img/land1.png","74","683.5","1","1","1","1","0.8,0.2,0.2,0.2,0.8,0.2,0.2,0.2,0.8","0.8,0.2,0.2,0.2,0.8,0.2,0.2,0.2,0.8","1","",""
"","html-keyboard-response","121","67283","0.0-121.0","3A4TN5196L46JJIN834NQLQTY4MCHS","A3F51C49T9A34D","335VBRURDJMQFRMOFGHOE9WKSHX9E1","","null","<img src=""img/land1.png"" style=""width:200px; border:14px solid green;"">","null","","","","","","","","","",""
"","image-keyboard-response","122","67743","0.0-122.0","3A4TN5196L46JJIN834NQLQTY4MCHS","A3F51C49T9A34D","335VBRURDJMQFRMOFGHOE9WKSHX9E1","","458.8999999994412","img/land6.png","75","459.59999999962747","2","1","2","1","0.8,0.2,0.2,0.2,0.8,0.2,0.2,0.2,0.8","0.8,0.2,0.2,0.2,0.8,0.2,0.2,0.2,0.8","1","",""
"","html-keyboard-response","123","68051","0.0-123.0","3A4TN5196L46JJIN834NQLQTY4MCHS","A3F51C49T9A34D","335VBRURDJMQFRMOFGHOE9WKSHX9E1","","null","<img src=""img/land6.png"" style=""width:200px; border:14px solid green;"">","null","","","","","","","","","",""
"","image-keyboard-response","124","68415","0.0-124.0","3A4TN5196L46JJIN834NQLQTY4MCHS","A3F51C49T9A34D","335VBRURDJMQFRMOFGHOE9WKSHX9E1","","362.79999999981374","img/land6.png","75","363.40000000037253","2","1","2","1","0.8,0.2,0.2,0.2,0.8,0.2,0.2,0.2,0.8","0.8,0.2,0.2,0.2,0.8,0.2,0.2,0.2,0.8","1","",""
"","html-keyboard-response","125","68723","0.0-125.0","3A4TN5196L46JJIN834NQLQTY4MCHS","A3F51C49T9A34D","335VBRURDJMQFRMOFGHOE9WKSHX9E1","","null","<img src=""img/land6.png"" style=""width:200px; border:14px solid green;"">","null","","","","","","","","","",""
"","image-keyboard-response","126","69663","0.0-126.0","3A4TN5196L46JJIN834NQLQTY4MCHS","A3F51C49T9A34D","335VBRURDJMQFRMOFGHOE9WKSHX9E1","","938.7999999998137","img/land5.png","76","939.5","3","1","3","1","0.8,0.2,0.2,0.2,0.8,0.2,0.2,0.2,0.8","0.8,0.2,0.2,0.2,0.8,0.2,0.2,0.2,0.8","1","",""
"","html-keyboard-response","127","69970","0.0-127.0","3A4TN5196L46JJIN834NQLQTY4MCHS","A3F51C49T9A34D","335VBRURDJMQFRMOFGHOE9WKSHX9E1","","null","<img src=""img/land5.png"" style=""width:200px; border:14px solid green;"">","null","","","","","","","","","",""
"","image-keyboard-response","128","70751","0.0-128.0","3A4TN5196L46JJIN834NQLQTY4MCHS","A3F51C49T9A34D","335VBRURDJMQFRMOFGHOE9WKSHX9E1","","779.7000000001863","img/land1.png","74","780.2999999998137","1","1","1","1","0.8,0.2,0.2,0.2,0.8,0.2,0.2,0.2,0.8","0.8,0.2,0.2,0.2,0.8,0.2,0.2,0.2,0.8","1","",""
"","html-keyboard-response","129","71058","0.0-129.0","3A4TN5196L46JJIN834NQLQTY4MCHS","A3F51C49T9A34D","335VBRURDJMQFRMOFGHOE9WKSHX9E1","","null","<img src=""img/land1.png"" style=""width:200px; border:14px solid green;"">","null","","","","","","","","","",""
"","image-keyboard-response","130","71711","0.0-130.0","3A4TN5196L46JJIN834NQLQTY4MCHS","A3F51C49T9A34D","335VBRURDJMQFRMOFGHOE9WKSHX9E1","","651.5","img/land6.png","75","652.2999999998137","2","1","2","1","0.8,0.2,0.2,0.2,0.8,0.2,0.2,0.2,0.8","0.8,0.2,0.2,0.2,0.8,0.2,0.2,0.2,0.8","1","",""
"","html-keyboard-response","131","72018","0.0-131.0","3A4TN5196L46JJIN834NQLQTY4MCHS","A3F51C49T9A34D","335VBRURDJMQFRMOFGHOE9WKSHX9E1","","null","<img src=""img/land6.png"" style=""width:200px; border:14px solid green;"">","null","","","","","","","","","",""
"","image-keyboard-response","132","72895","0.0-132.0","3A4TN5196L46JJIN834NQLQTY4MCHS","A3F51C49T9A34D","335VBRURDJMQFRMOFGHOE9WKSHX9E1","","875.5","img/land5.png","76","876.2999999998137","3","0","3","1","0.8,0.2,0.2,0.2,0.8,0.2,0.2,0.2,0.8","0.8,0.2,0.2,0.2,0.8,0.2,0.2,0.2,0.8","1","",""
"","html-keyboard-response","133","73202","0.0-133.0","3A4TN5196L46JJIN834NQLQTY4MCHS","A3F51C49T9A34D","335VBRURDJMQFRMOFGHOE9WKSHX9E1","","null","<img src=""img/land5.png"" style=""width:200px;border:14px solid red;"">","null","","","","","","","","","",""
"","image-keyboard-response","134","73791","0.0-134.0","3A4TN5196L46JJIN834NQLQTY4MCHS","A3F51C49T9A34D","335VBRURDJMQFRMOFGHOE9WKSHX9E1","","587.5","img/land6.png","75","588.0999999996275","2","1","2","1","0.8,0.2,0.2,0.2,0.8,0.2,0.2,0.2,0.8","0.8,0.2,0.2,0.2,0.8,0.2,0.2,0.2,0.8","1","",""
"","html-keyboard-response","135","74098","0.0-135.0","3A4TN5196L46JJIN834NQLQTY4MCHS","A3F51C49T9A34D","335VBRURDJMQFRMOFGHOE9WKSHX9E1","","null","<img src=""img/land6.png"" style=""width:200px; border:14px solid green;"">","null","","","","","","","","","",""
"","image-keyboard-response","136","74703","0.0-136.0","3A4TN5196L46JJIN834NQLQTY4MCHS","A3F51C49T9A34D","335VBRURDJMQFRMOFGHOE9WKSHX9E1","","603.7999999998137","img/land1.png","74","604.4000000003725","1","1","1","1","0.8,0.2,0.2,0.2,0.8,0.2,0.2,0.2,0.8","0.8,0.2,0.2,0.2,0.8,0.2,0.2,0.2,0.8","1","",""
"","html-keyboard-response","137","75010","0.0-137.0","3A4TN5196L46JJIN834NQLQTY4MCHS","A3F51C49T9A34D","335VBRURDJMQFRMOFGHOE9WKSHX9E1","","null","<img src=""img/land1.png"" style=""width:200px; border:14px solid green;"">","null","","","","","","","","","",""
"","image-keyboard-response","138","75590","0.0-138.0","3A4TN5196L46JJIN834NQLQTY4MCHS","A3F51C49T9A34D","335VBRURDJMQFRMOFGHOE9WKSHX9E1","","578.7999999998137","img/land6.png","75","579.4000000003725","2","1","2","1","0.8,0.2,0.2,0.2,0.8,0.2,0.2,0.2,0.8","0.8,0.2,0.2,0.2,0.8,0.2,0.2,0.2,0.8","1","",""
"","html-keyboard-response","139","75898","0.0-139.0","3A4TN5196L46JJIN834NQLQTY4MCHS","A3F51C49T9A34D","335VBRURDJMQFRMOFGHOE9WKSHX9E1","","null","<img src=""img/land6.png"" style=""width:200px; border:14px solid green;"">","null","","","","","","","","","",""
"","image-keyboard-response","140","76558","0.0-140.0","3A4TN5196L46JJIN834NQLQTY4MCHS","A3F51C49T9A34D","335VBRURDJMQFRMOFGHOE9WKSHX9E1","","659.4000000003725","img/land5.png","76","660","3","0","3","1","0.8,0.2,0.2,0.2,0.8,0.2,0.2,0.2,0.8","0.8,0.2,0.2,0.2,0.8,0.2,0.2,0.2,0.8","1","",""
"","html-keyboard-response","141","76866","0.0-141.0","3A4TN5196L46JJIN834NQLQTY4MCHS","A3F51C49T9A34D","335VBRURDJMQFRMOFGHOE9WKSHX9E1","","null","<img src=""img/land5.png"" style=""width:200px;border:14px solid red;"">","null","","","","","","","","","",""
"","image-keyboard-response","142","77294","0.0-142.0","3A4TN5196L46JJIN834NQLQTY4MCHS","A3F51C49T9A34D","335VBRURDJMQFRMOFGHOE9WKSHX9E1","","427.30000000074506","img/land5.png","76","427.8999999994412","3","0","3","1","0.8,0.2,0.2,0.2,0.8,0.2,0.2,0.2,0.8","0.8,0.2,0.2,0.2,0.8,0.2,0.2,0.2,0.8","1","",""
"","html-keyboard-response","143","77609","0.0-143.0","3A4TN5196L46JJIN834NQLQTY4MCHS","A3F51C49T9A34D","335VBRURDJMQFRMOFGHOE9WKSHX9E1","","null","<img src=""img/land5.png"" style=""width:200px;border:14px solid red;"">","null","","","","","","","","","",""
"","image-keyboard-response","144","78222","0.0-144.0","3A4TN5196L46JJIN834NQLQTY4MCHS","A3F51C49T9A34D","335VBRURDJMQFRMOFGHOE9WKSHX9E1","","612.7999999998137","img/land5.png","75","613.5999999996275","2","0","3","1","0.8,0.2,0.2,0.2,0.8,0.2,0.2,0.2,0.8","0.8,0.2,0.2,0.2,0.8,0.2,0.2,0.2,0.8","1","",""
"","html-keyboard-response","145","78531","0.0-145.0","3A4TN5196L46JJIN834NQLQTY4MCHS","A3F51C49T9A34D","335VBRURDJMQFRMOFGHOE9WKSHX9E1","","null","<img src=""img/land5.png"" style=""width:200px;border:14px solid red;"">","null","","","","","","","","","",""
"","image-keyboard-response","146","79294","0.0-146.0","3A4TN5196L46JJIN834NQLQTY4MCHS","A3F51C49T9A34D","335VBRURDJMQFRMOFGHOE9WKSHX9E1","","763.0999999996275","img/land1.png","74","763.7999999998137","1","1","1","1","0.8,0.2,0.2,0.2,0.8,0.2,0.2,0.2,0.8","0.8,0.2,0.2,0.2,0.8,0.2,0.2,0.2,0.8","1","",""
"","html-keyboard-response","147","79603","0.0-147.0","3A4TN5196L46JJIN834NQLQTY4MCHS","A3F51C49T9A34D","335VBRURDJMQFRMOFGHOE9WKSHX9E1","","null","<img src=""img/land1.png"" style=""width:200px; border:14px solid green;"">","null","","","","","","","","","",""
"","image-keyboard-response","148","79998","0.0-148.0","3A4TN5196L46JJIN834NQLQTY4MCHS","A3F51C49T9A34D","335VBRURDJMQFRMOFGHOE9WKSHX9E1","","395.1000000005588","img/land1.png","74","395.79999999981374","1","1","1","1","0.8,0.2,0.2,0.2,0.8,0.2,0.2,0.2,0.8","0.8,0.2,0.2,0.2,0.8,0.2,0.2,0.2,0.8","1","",""
"","html-keyboard-response","149","80307","0.0-149.0","3A4TN5196L46JJIN834NQLQTY4MCHS","A3F51C49T9A34D","335VBRURDJMQFRMOFGHOE9WKSHX9E1","","null","<img src=""img/land1.png"" style=""width:200px; border:14px solid green;"">","null","","","","","","","","","",""
"","image-keyboard-response","150","80670","0.0-150.0","3A4TN5196L46JJIN834NQLQTY4MCHS","A3F51C49T9A34D","335VBRURDJMQFRMOFGHOE9WKSHX9E1","","363","img/land1.png","74","363.6000000005588","1","1","1","1","0.8,0.2,0.2,0.2,0.8,0.2,0.2,0.2,0.8","0.8,0.2,0.2,0.2,0.8,0.2,0.2,0.2,0.8","1","",""
"","html-keyboard-response","151","80979","0.0-151.0","3A4TN5196L46JJIN834NQLQTY4MCHS","A3F51C49T9A34D","335VBRURDJMQFRMOFGHOE9WKSHX9E1","","null","<img src=""img/land1.png"" style=""width:200px; border:14px solid green;"">","null","","","","","","","","","",""
"","image-keyboard-response","152","81694","0.0-152.0","3A4TN5196L46JJIN834NQLQTY4MCHS","A3F51C49T9A34D","335VBRURDJMQFRMOFGHOE9WKSHX9E1","","715","img/land5.png","74","715.7000000001863","1","0","3","1","0.8,0.2,0.2,0.2,0.8,0.2,0.2,0.2,0.8","0.8,0.2,0.2,0.2,0.8,0.2,0.2,0.2,0.8","1","",""
"","html-keyboard-response","153","82003","0.0-153.0","3A4TN5196L46JJIN834NQLQTY4MCHS","A3F51C49T9A34D","335VBRURDJMQFRMOFGHOE9WKSHX9E1","","null","<img src=""img/land5.png"" style=""width:200px;border:14px solid red;"">","null","","","","","","","","","",""
"","image-keyboard-response","154","82558","0.0-154.0","3A4TN5196L46JJIN834NQLQTY4MCHS","A3F51C49T9A34D","335VBRURDJMQFRMOFGHOE9WKSHX9E1","","555.1000000005588","img/land1.png","75","555.6999999992549","2","1","1","1","0.8,0.2,0.2,0.2,0.8,0.2,0.2,0.2,0.8","0.8,0.2,0.2,0.2,0.8,0.2,0.2,0.2,0.8","1","",""
"","html-keyboard-response","155","82867","0.0-155.0","3A4TN5196L46JJIN834NQLQTY4MCHS","A3F51C49T9A34D","335VBRURDJMQFRMOFGHOE9WKSHX9E1","","null","<img src=""img/land1.png"" style=""width:200px; border:14px solid green;"">","null","","","","","","","","","",""
"","image-keyboard-response","156","84158","0.0-156.0","3A4TN5196L46JJIN834NQLQTY4MCHS","A3F51C49T9A34D","335VBRURDJMQFRMOFGHOE9WKSHX9E1","","1290.8999999994412","img/land5.png","76","1291.5","3","1","3","1","0.8,0.2,0.2,0.2,0.8,0.2,0.2,0.2,0.8","0.8,0.2,0.2,0.2,0.8,0.2,0.2,0.2,0.8","1","",""
"","html-keyboard-response","157","84467","0.0-157.0","3A4TN5196L46JJIN834NQLQTY4MCHS","A3F51C49T9A34D","335VBRURDJMQFRMOFGHOE9WKSHX9E1","","null","<img src=""img/land5.png"" style=""width:200px; border:14px solid green;"">","null","","","","","","","","","",""
"","image-keyboard-response","158","84991","0.0-158.0","3A4TN5196L46JJIN834NQLQTY4MCHS","A3F51C49T9A34D","335VBRURDJMQFRMOFGHOE9WKSHX9E1","","523.1999999992549","img/land6.png","75","523.8999999994412","2","0","2","1","0.8,0.2,0.2,0.2,0.8,0.2,0.2,0.2,0.8","0.8,0.2,0.2,0.2,0.8,0.2,0.2,0.2,0.8","1","",""
"","html-keyboard-response","159","85299","0.0-159.0","3A4TN5196L46JJIN834NQLQTY4MCHS","A3F51C49T9A34D","335VBRURDJMQFRMOFGHOE9WKSHX9E1","","null","<img src=""img/land6.png"" style=""width:200px;border:14px solid red;"">","null","","","","","","","","","",""
"","image-keyboard-response","160","86398","0.0-160.0","3A4TN5196L46JJIN834NQLQTY4MCHS","A3F51C49T9A34D","335VBRURDJMQFRMOFGHOE9WKSHX9E1","","1098.7000000001863","img/land5.png","76","1099.5","3","1","3","1","0.8,0.2,0.2,0.2,0.8,0.2,0.2,0.2,0.8","0.8,0.2,0.2,0.2,0.8,0.2,0.2,0.2,0.8","1","",""
"","html-keyboard-response","161","86707","0.0-161.0","3A4TN5196L46JJIN834NQLQTY4MCHS","A3F51C49T9A34D","335VBRURDJMQFRMOFGHOE9WKSHX9E1","","null","<img src=""img/land5.png"" style=""width:200px; border:14px solid green;"">","null","","","","","","","","","",""
"","image-keyboard-response","162","87070","0.0-162.0","3A4TN5196L46JJIN834NQLQTY4MCHS","A3F51C49T9A34D","335VBRURDJMQFRMOFGHOE9WKSHX9E1","","362.70000000018626","img/land5.png","76","363.40000000037253","3","1","3","1","0.8,0.2,0.2,0.2,0.8,0.2,0.2,0.2,0.8","0.8,0.2,0.2,0.2,0.8,0.2,0.2,0.2,0.8","1","",""
"","html-keyboard-response","163","87379","0.0-163.0","3A4TN5196L46JJIN834NQLQTY4MCHS","A3F51C49T9A34D","335VBRURDJMQFRMOFGHOE9WKSHX9E1","","null","<img src=""img/land5.png"" style=""width:200px; border:14px solid green;"">","null","","","","","","","","","",""
"","image-keyboard-response","164","88030","0.0-164.0","3A4TN5196L46JJIN834NQLQTY4MCHS","A3F51C49T9A34D","335VBRURDJMQFRMOFGHOE9WKSHX9E1","","650.7000000001863","img/land1.png","74","651.3000000007451","1","1","1","1","0.8,0.2,0.2,0.2,0.8,0.2,0.2,0.2,0.8","0.8,0.2,0.2,0.2,0.8,0.2,0.2,0.2,0.8","1","",""
"","html-keyboard-response","165","88339","0.0-165.0","3A4TN5196L46JJIN834NQLQTY4MCHS","A3F51C49T9A34D","335VBRURDJMQFRMOFGHOE9WKSHX9E1","","null","<img src=""img/land1.png"" style=""width:200px; border:14px solid green;"">","null","","","","","","","","","",""
"","image-keyboard-response","166","89678","0.0-166.0","3A4TN5196L46JJIN834NQLQTY4MCHS","A3F51C49T9A34D","335VBRURDJMQFRMOFGHOE9WKSHX9E1","","1338.7000000001863","img/land5.png","76","1339.300000000745","3","1","3","1","0.8,0.2,0.2,0.2,0.8,0.2,0.2,0.2,0.8","0.8,0.2,0.2,0.2,0.8,0.2,0.2,0.2,0.8","1","",""
"","html-keyboard-response","167","89987","0.0-167.0","3A4TN5196L46JJIN834NQLQTY4MCHS","A3F51C49T9A34D","335VBRURDJMQFRMOFGHOE9WKSHX9E1","","null","<img src=""img/land5.png"" style=""width:200px; border:14px solid green;"">","null","","","","","","","","","",""
"","image-keyboard-response","168","90526","0.0-168.0","3A4TN5196L46JJIN834NQLQTY4MCHS","A3F51C49T9A34D","335VBRURDJMQFRMOFGHOE9WKSHX9E1","","538.5","img/land6.png","75","539.2000000001863","2","1","2","1","0.8,0.2,0.2,0.2,0.8,0.2,0.2,0.2,0.8","0.8,0.2,0.2,0.2,0.8,0.2,0.2,0.2,0.8","1","",""
"","html-keyboard-response","169","90835","0.0-169.0","3A4TN5196L46JJIN834NQLQTY4MCHS","A3F51C49T9A34D","335VBRURDJMQFRMOFGHOE9WKSHX9E1","","null","<img src=""img/land6.png"" style=""width:200px; border:14px solid green;"">","null","","","","","","","","","",""
"","image-keyboard-response","170","91390","0.0-170.0","3A4TN5196L46JJIN834NQLQTY4MCHS","A3F51C49T9A34D","335VBRURDJMQFRMOFGHOE9WKSHX9E1","","554.5","img/land1.png","74","555.1000000005588","1","0","1","1","0.8,0.2,0.2,0.2,0.8,0.2,0.2,0.2,0.8","0.8,0.2,0.2,0.2,0.8,0.2,0.2,0.2,0.8","1","",""
"","html-keyboard-response","171","91699","0.0-171.0","3A4TN5196L46JJIN834NQLQTY4MCHS","A3F51C49T9A34D","335VBRURDJMQFRMOFGHOE9WKSHX9E1","","null","<img src=""img/land1.png"" style=""width:200px;border:14px solid red;"">","null","","","","","","","","","",""
"","image-keyboard-response","172","92494","0.0-172.0","3A4TN5196L46JJIN834NQLQTY4MCHS","A3F51C49T9A34D","335VBRURDJMQFRMOFGHOE9WKSHX9E1","","794.2999999998137","img/land5.png","76","795.1000000005588","3","1","3","1","0.8,0.2,0.2,0.2,0.8,0.2,0.2,0.2,0.8","0.8,0.2,0.2,0.2,0.8,0.2,0.2,0.2,0.8","1","",""
"","html-keyboard-response","173","92802","0.0-173.0","3A4TN5196L46JJIN834NQLQTY4MCHS","A3F51C49T9A34D","335VBRURDJMQFRMOFGHOE9WKSHX9E1","","null","<img src=""img/land5.png"" style=""width:200px; border:14px solid green;"">","null","","","","","","","","","",""
"","image-keyboard-response","174","93310","0.0-174.0","3A4TN5196L46JJIN834NQLQTY4MCHS","A3F51C49T9A34D","335VBRURDJMQFRMOFGHOE9WKSHX9E1","","507.29999999981374","img/land6.png","75","508","2","1","2","1","0.8,0.2,0.2,0.2,0.8,0.2,0.2,0.2,0.8","0.8,0.2,0.2,0.2,0.8,0.2,0.2,0.2,0.8","1","",""
"","html-keyboard-response","175","93618","0.0-175.0","3A4TN5196L46JJIN834NQLQTY4MCHS","A3F51C49T9A34D","335VBRURDJMQFRMOFGHOE9WKSHX9E1","","null","<img src=""img/land6.png"" style=""width:200px; border:14px solid green;"">","null","","","","","","","","","",""
"","image-keyboard-response","176","94206","0.0-176.0","3A4TN5196L46JJIN834NQLQTY4MCHS","A3F51C49T9A34D","335VBRURDJMQFRMOFGHOE9WKSHX9E1","","587.4000000003725","img/land1.png","74","588","1","1","1","1","0.8,0.2,0.2,0.2,0.8,0.2,0.2,0.2,0.8","0.8,0.2,0.2,0.2,0.8,0.2,0.2,0.2,0.8","1","",""
"","html-keyboard-response","177","94514","0.0-177.0","3A4TN5196L46JJIN834NQLQTY4MCHS","A3F51C49T9A34D","335VBRURDJMQFRMOFGHOE9WKSHX9E1","","null","<img src=""img/land1.png"" style=""width:200px; border:14px solid green;"">","null","","","","","","","","","",""
"","image-keyboard-response","178","95199","0.0-178.0","3A4TN5196L46JJIN834NQLQTY4MCHS","A3F51C49T9A34D","335VBRURDJMQFRMOFGHOE9WKSHX9E1","","683.5","img/land5.png","76","684.1999999992549","3","1","3","1","0.8,0.2,0.2,0.2,0.8,0.2,0.2,0.2,0.8","0.8,0.2,0.2,0.2,0.8,0.2,0.2,0.2,0.8","1","",""
"","html-keyboard-response","179","95506","0.0-179.0","3A4TN5196L46JJIN834NQLQTY4MCHS","A3F51C49T9A34D","335VBRURDJMQFRMOFGHOE9WKSHX9E1","","null","<img src=""img/land5.png"" style=""width:200px; border:14px solid green;"">","null","","","","","","","","","",""
"","image-keyboard-response","180","96142","0.0-180.0","3A4TN5196L46JJIN834NQLQTY4MCHS","A3F51C49T9A34D","335VBRURDJMQFRMOFGHOE9WKSHX9E1","","635.1999999992549","img/land6.png","75","635.7999999998137","2","0","2","1","0.8,0.2,0.2,0.2,0.8,0.2,0.2,0.2,0.8","0.8,0.2,0.2,0.2,0.8,0.2,0.2,0.2,0.8","1","",""
"","html-keyboard-response","181","96450","0.0-181.0","3A4TN5196L46JJIN834NQLQTY4MCHS","A3F51C49T9A34D","335VBRURDJMQFRMOFGHOE9WKSHX9E1","","null","<img src=""img/land6.png"" style=""width:200px;border:14px solid red;"">","null","","","","","","","","","",""
"","html-keyboard-response","182","99473","0.0-182.0","3A4TN5196L46JJIN834NQLQTY4MCHS","A3F51C49T9A34D","335VBRURDJMQFRMOFGHOE9WKSHX9E1","","","","","","","","","","","","","",""
"","image-keyboard-response","183","101070","0.0-183.0","3A4TN5196L46JJIN834NQLQTY4MCHS","A3F51C49T9A34D","335VBRURDJMQFRMOFGHOE9WKSHX9E1","","1595.8999999994412","img/land2.png","75","1596.9000000003725","2","0","1","2","0.8,0.2,0.2,0.2,0.8,0.2,0.2,0.2,0.8","0.8,0.2,0.2,0.2,0.8,0.2,0.2,0.2,0.8","1","",""
"","html-keyboard-response","184","101379","0.0-184.0","3A4TN5196L46JJIN834NQLQTY4MCHS","A3F51C49T9A34D","335VBRURDJMQFRMOFGHOE9WKSHX9E1","","null","<img src=""img/land2.png"" style=""width:200px;border:14px solid red;"">","null","","","","","","","","","",""
"","image-keyboard-response","185","103387","0.0-185.0","3A4TN5196L46JJIN834NQLQTY4MCHS","A3F51C49T9A34D","335VBRURDJMQFRMOFGHOE9WKSHX9E1","","","img/land4.png","","2008.1000000005588","-1","0","2","2","0.8,0.2,0.2,0.2,0.8,0.2,0.2,0.2,0.8","0.8,0.2,0.2,0.2,0.8,0.2,0.2,0.2,0.8","1","",""
"","html-keyboard-response","186","103698","0.0-186.0","3A4TN5196L46JJIN834NQLQTY4MCHS","A3F51C49T9A34D","335VBRURDJMQFRMOFGHOE9WKSHX9E1","","null","<img src=""img/land4.png"" style=""width:200px;border:14px solid red;"">","null","","","","","","","","","",""
"","image-keyboard-response","187","104462","0.0-187.0","3A4TN5196L46JJIN834NQLQTY4MCHS","A3F51C49T9A34D","335VBRURDJMQFRMOFGHOE9WKSHX9E1","","763.1999999992549","img/land2.png","75","763.8999999994412","2","0","1","2","0.8,0.2,0.2,0.2,0.8,0.2,0.2,0.2,0.8","0.8,0.2,0.2,0.2,0.8,0.2,0.2,0.2,0.8","1","",""
"","html-keyboard-response","188","104771","0.0-188.0","3A4TN5196L46JJIN834NQLQTY4MCHS","A3F51C49T9A34D","335VBRURDJMQFRMOFGHOE9WKSHX9E1","","null","<img src=""img/land2.png"" style=""width:200px;border:14px solid red;"">","null","","","","","","","","","",""
"","image-keyboard-response","189","105631","0.0-189.0","3A4TN5196L46JJIN834NQLQTY4MCHS","A3F51C49T9A34D","335VBRURDJMQFRMOFGHOE9WKSHX9E1","","859.2000000001863","img/land3.png","76","859.7999999998137","3","1","3","2","0.8,0.2,0.2,0.2,0.8,0.2,0.2,0.2,0.8","0.8,0.2,0.2,0.2,0.8,0.2,0.2,0.2,0.8","1","",""
"","html-keyboard-response","190","105948","0.0-190.0","3A4TN5196L46JJIN834NQLQTY4MCHS","A3F51C49T9A34D","335VBRURDJMQFRMOFGHOE9WKSHX9E1","","null","<img src=""img/land3.png"" style=""width:200px; border:14px solid green;"">","null","","","","","","","","","",""
"","image-keyboard-response","191","106846","0.0-191.0","3A4TN5196L46JJIN834NQLQTY4MCHS","A3F51C49T9A34D","335VBRURDJMQFRMOFGHOE9WKSHX9E1","","897.0999999996275","img/land4.png","76","898","3","0","2","2","0.8,0.2,0.2,0.2,0.8,0.2,0.2,0.2,0.8","0.8,0.2,0.2,0.2,0.8,0.2,0.2,0.2,0.8","1","",""
"","html-keyboard-response","192","107155","0.0-192.0","3A4TN5196L46JJIN834NQLQTY4MCHS","A3F51C49T9A34D","335VBRURDJMQFRMOFGHOE9WKSHX9E1","","null","<img src=""img/land4.png"" style=""width:200px;border:14px solid red;"">","null","","","","","","","","","",""
"","image-keyboard-response","193","107950","0.0-193.0","3A4TN5196L46JJIN834NQLQTY4MCHS","A3F51C49T9A34D","335VBRURDJMQFRMOFGHOE9WKSHX9E1","","794.5","img/land3.png","74","795.2000000001863","1","0","3","2","0.8,0.2,0.2,0.2,0.8,0.2,0.2,0.2,0.8","0.8,0.2,0.2,0.2,0.8,0.2,0.2,0.2,0.8","1","",""
"","html-keyboard-response","194","108259","0.0-194.0","3A4TN5196L46JJIN834NQLQTY4MCHS","A3F51C49T9A34D","335VBRURDJMQFRMOFGHOE9WKSHX9E1","","null","<img src=""img/land3.png"" style=""width:200px;border:14px solid red;"">","null","","","","","","","","","",""
"","image-keyboard-response","195","109166","0.0-195.0","3A4TN5196L46JJIN834NQLQTY4MCHS","A3F51C49T9A34D","335VBRURDJMQFRMOFGHOE9WKSHX9E1","","906.5","img/land4.png","76","907.1000000005588","3","0","2","2","0.8,0.2,0.2,0.2,0.8,0.2,0.2,0.2,0.8","0.8,0.2,0.2,0.2,0.8,0.2,0.2,0.2,0.8","1","",""
"","html-keyboard-response","196","109475","0.0-196.0","3A4TN5196L46JJIN834NQLQTY4MCHS","A3F51C49T9A34D","335VBRURDJMQFRMOFGHOE9WKSHX9E1","","null","<img src=""img/land4.png"" style=""width:200px;border:14px solid red;"">","null","","","","","","","","","",""
"","image-keyboard-response","197","110222","0.0-197.0","3A4TN5196L46JJIN834NQLQTY4MCHS","A3F51C49T9A34D","335VBRURDJMQFRMOFGHOE9WKSHX9E1","","746.3000000007451","img/land3.png","74","747.1000000005588","1","0","3","2","0.8,0.2,0.2,0.2,0.8,0.2,0.2,0.2,0.8","0.8,0.2,0.2,0.2,0.8,0.2,0.2,0.2,0.8","1","",""
"","html-keyboard-response","198","110531","0.0-198.0","3A4TN5196L46JJIN834NQLQTY4MCHS","A3F51C49T9A34D","335VBRURDJMQFRMOFGHOE9WKSHX9E1","","null","<img src=""img/land3.png"" style=""width:200px;border:14px solid red;"">","null","","","","","","","","","",""
"","image-keyboard-response","199","111102","0.0-199.0","3A4TN5196L46JJIN834NQLQTY4MCHS","A3F51C49T9A34D","335VBRURDJMQFRMOFGHOE9WKSHX9E1","","570.2999999998137","img/land2.png","75","570.8999999994412","2","0","1","2","0.8,0.2,0.2,0.2,0.8,0.2,0.2,0.2,0.8","0.8,0.2,0.2,0.2,0.8,0.2,0.2,0.2,0.8","1","",""
"","html-keyboard-response","200","111411","0.0-200.0","3A4TN5196L46JJIN834NQLQTY4MCHS","A3F51C49T9A34D","335VBRURDJMQFRMOFGHOE9WKSHX9E1","","null","<img src=""img/land2.png"" style=""width:200px;border:14px solid red;"">","null","","","","","","","","","",""
"","image-keyboard-response","201","111838","0.0-201.0","3A4TN5196L46JJIN834NQLQTY4MCHS","A3F51C49T9A34D","335VBRURDJMQFRMOFGHOE9WKSHX9E1","","426.29999999981374","img/land2.png","75","427","2","0","1","2","0.8,0.2,0.2,0.2,0.8,0.2,0.2,0.2,0.8","0.8,0.2,0.2,0.2,0.8,0.2,0.2,0.2,0.8","1","",""
"","html-keyboard-response","202","112147","0.0-202.0","3A4TN5196L46JJIN834NQLQTY4MCHS","A3F51C49T9A34D","335VBRURDJMQFRMOFGHOE9WKSHX9E1","","null","<img src=""img/land2.png"" style=""width:200px;border:14px solid red;"">","null","","","","","","","","","",""
"","image-keyboard-response","203","112414","0.0-203.0","3A4TN5196L46JJIN834NQLQTY4MCHS","A3F51C49T9A34D","335VBRURDJMQFRMOFGHOE9WKSHX9E1","","266.29999999981374","img/land2.png","75","266.79999999981374","2","0","1","2","0.8,0.2,0.2,0.2,0.8,0.2,0.2,0.2,0.8","0.8,0.2,0.2,0.2,0.8,0.2,0.2,0.2,0.8","1","",""
"","html-keyboard-response","204","112723","0.0-204.0","3A4TN5196L46JJIN834NQLQTY4MCHS","A3F51C49T9A34D","335VBRURDJMQFRMOFGHOE9WKSHX9E1","","null","<img src=""img/land2.png"" style=""width:200px;border:14px solid red;"">","null","","","","","","","","","",""
"","image-keyboard-response","205","113454","0.0-205.0","3A4TN5196L46JJIN834NQLQTY4MCHS","A3F51C49T9A34D","335VBRURDJMQFRMOFGHOE9WKSHX9E1","","730.2999999998137","img/land3.png","76","730.8999999994412","3","1","3","2","0.8,0.2,0.2,0.2,0.8,0.2,0.2,0.2,0.8","0.8,0.2,0.2,0.2,0.8,0.2,0.2,0.2,0.8","1","",""
"","html-keyboard-response","206","113763","0.0-206.0","3A4TN5196L46JJIN834NQLQTY4MCHS","A3F51C49T9A34D","335VBRURDJMQFRMOFGHOE9WKSHX9E1","","null","<img src=""img/land3.png"" style=""width:200px; border:14px solid green;"">","null","","","","","","","","","",""
"","image-keyboard-response","207","114718","0.0-207.0","3A4TN5196L46JJIN834NQLQTY4MCHS","A3F51C49T9A34D","335VBRURDJMQFRMOFGHOE9WKSHX9E1","","954.2000000001863","img/land4.png","76","954.9000000003725","3","0","2","2","0.8,0.2,0.2,0.2,0.8,0.2,0.2,0.2,0.8","0.8,0.2,0.2,0.2,0.8,0.2,0.2,0.2,0.8","1","",""
"","html-keyboard-response","208","115026","0.0-208.0","3A4TN5196L46JJIN834NQLQTY4MCHS","A3F51C49T9A34D","335VBRURDJMQFRMOFGHOE9WKSHX9E1","","null","<img src=""img/land4.png"" style=""width:200px;border:14px solid red;"">","null","","","","","","","","","",""
"","image-keyboard-response","209","115470","0.0-209.0","3A4TN5196L46JJIN834NQLQTY4MCHS","A3F51C49T9A34D","335VBRURDJMQFRMOFGHOE9WKSHX9E1","","443.29999999981374","img/land4.png","76","444","3","1","2","2","0.8,0.2,0.2,0.2,0.8,0.2,0.2,0.2,0.8","0.8,0.2,0.2,0.2,0.8,0.2,0.2,0.2,0.8","1","",""
"","html-keyboard-response","210","115778","0.0-210.0","3A4TN5196L46JJIN834NQLQTY4MCHS","A3F51C49T9A34D","335VBRURDJMQFRMOFGHOE9WKSHX9E1","","null","<img src=""img/land4.png"" style=""width:200px; border:14px solid green;"">","null","","","","","","","","","",""
"","image-keyboard-response","211","116174","0.0-211.0","3A4TN5196L46JJIN834NQLQTY4MCHS","A3F51C49T9A34D","335VBRURDJMQFRMOFGHOE9WKSHX9E1","","395.20000000018626","img/land4.png","76","395.90000000037253","3","0","2","2","0.8,0.2,0.2,0.2,0.8,0.2,0.2,0.2,0.8","0.8,0.2,0.2,0.2,0.8,0.2,0.2,0.2,0.8","1","",""
"","html-keyboard-response","212","116482","0.0-212.0","3A4TN5196L46JJIN834NQLQTY4MCHS","A3F51C49T9A34D","335VBRURDJMQFRMOFGHOE9WKSHX9E1","","null","<img src=""img/land4.png"" style=""width:200px;border:14px solid red;"">","null","","","","","","","","","",""
"","image-keyboard-response","213","117166","0.0-213.0","3A4TN5196L46JJIN834NQLQTY4MCHS","A3F51C49T9A34D","335VBRURDJMQFRMOFGHOE9WKSHX9E1","","683","img/land2.png","74","683.5999999996275","1","1","1","2","0.8,0.2,0.2,0.2,0.8,0.2,0.2,0.2,0.8","0.8,0.2,0.2,0.2,0.8,0.2,0.2,0.2,0.8","1","",""
"","html-keyboard-response","214","117474","0.0-214.0","3A4TN5196L46JJIN834NQLQTY4MCHS","A3F51C49T9A34D","335VBRURDJMQFRMOFGHOE9WKSHX9E1","","null","<img src=""img/land2.png"" style=""width:200px; border:14px solid green;"">","null","","","","","","","","","",""
"","image-keyboard-response","215","118222","0.0-215.0","3A4TN5196L46JJIN834NQLQTY4MCHS","A3F51C49T9A34D","335VBRURDJMQFRMOFGHOE9WKSHX9E1","","747","img/land3.png","76","747.5","3","1","3","2","0.8,0.2,0.2,0.2,0.8,0.2,0.2,0.2,0.8","0.8,0.2,0.2,0.2,0.8,0.2,0.2,0.2,0.8","1","",""
"","html-keyboard-response","216","118530","0.0-216.0","3A4TN5196L46JJIN834NQLQTY4MCHS","A3F51C49T9A34D","335VBRURDJMQFRMOFGHOE9WKSHX9E1","","null","<img src=""img/land3.png"" style=""width:200px; border:14px solid green;"">","null","","","","","","","","","",""
"","image-keyboard-response","217","119310","0.0-217.0","3A4TN5196L46JJIN834NQLQTY4MCHS","A3F51C49T9A34D","335VBRURDJMQFRMOFGHOE9WKSHX9E1","","778.7999999998137","img/land2.png","74","779.5999999996275","1","0","1","2","0.8,0.2,0.2,0.2,0.8,0.2,0.2,0.2,0.8","0.8,0.2,0.2,0.2,0.8,0.2,0.2,0.2,0.8","1","",""
"","html-keyboard-response","218","119619","0.0-218.0","3A4TN5196L46JJIN834NQLQTY4MCHS","A3F51C49T9A34D","335VBRURDJMQFRMOFGHOE9WKSHX9E1","","null","<img src=""img/land2.png"" style=""width:200px;border:14px solid red;"">","null","","","","","","","","","",""
"","image-keyboard-response","219","119871","0.0-219.0","3A4TN5196L46JJIN834NQLQTY4MCHS","A3F51C49T9A34D","335VBRURDJMQFRMOFGHOE9WKSHX9E1","","250.90000000037253","img/land2.png","74","251.59999999962747","1","1","1","2","0.8,0.2,0.2,0.2,0.8,0.2,0.2,0.2,0.8","0.8,0.2,0.2,0.2,0.8,0.2,0.2,0.2,0.8","1","",""
"","html-keyboard-response","220","120179","0.0-220.0","3A4TN5196L46JJIN834NQLQTY4MCHS","A3F51C49T9A34D","335VBRURDJMQFRMOFGHOE9WKSHX9E1","","null","<img src=""img/land2.png"" style=""width:200px; border:14px solid green;"">","null","","","","","","","","","",""
"","image-keyboard-response","221","120527","0.0-221.0","3A4TN5196L46JJIN834NQLQTY4MCHS","A3F51C49T9A34D","335VBRURDJMQFRMOFGHOE9WKSHX9E1","","346.80000000074506","img/land2.png","74","347.5","1","0","1","2","0.8,0.2,0.2,0.2,0.8,0.2,0.2,0.2,0.8","0.8,0.2,0.2,0.2,0.8,0.2,0.2,0.2,0.8","1","",""
"","html-keyboard-response","222","120835","0.0-222.0","3A4TN5196L46JJIN834NQLQTY4MCHS","A3F51C49T9A34D","335VBRURDJMQFRMOFGHOE9WKSHX9E1","","null","<img src=""img/land2.png"" style=""width:200px;border:14px solid red;"">","null","","","","","","","","","",""
"","image-keyboard-response","223","121583","0.0-223.0","3A4TN5196L46JJIN834NQLQTY4MCHS","A3F51C49T9A34D","335VBRURDJMQFRMOFGHOE9WKSHX9E1","","746.8000000007451","img/land4.png","75","747.2999999998137","2","1","2","2","0.8,0.2,0.2,0.2,0.8,0.2,0.2,0.2,0.8","0.8,0.2,0.2,0.2,0.8,0.2,0.2,0.2,0.8","1","",""
"","html-keyboard-response","224","121891","0.0-224.0","3A4TN5196L46JJIN834NQLQTY4MCHS","A3F51C49T9A34D","335VBRURDJMQFRMOFGHOE9WKSHX9E1","","null","<img src=""img/land4.png"" style=""width:200px; border:14px solid green;"">","null","","","","","","","","","",""
"","image-keyboard-response","225","122175","0.0-225.0","3A4TN5196L46JJIN834NQLQTY4MCHS","A3F51C49T9A34D","335VBRURDJMQFRMOFGHOE9WKSHX9E1","","282.59999999962747","img/land2.png","75","283.29999999981374","2","0","1","2","0.8,0.2,0.2,0.2,0.8,0.2,0.2,0.2,0.8","0.8,0.2,0.2,0.2,0.8,0.2,0.2,0.2,0.8","1","",""
"","html-keyboard-response","226","122483","0.0-226.0","3A4TN5196L46JJIN834NQLQTY4MCHS","A3F51C49T9A34D","335VBRURDJMQFRMOFGHOE9WKSHX9E1","","null","<img src=""img/land2.png"" style=""width:200px;border:14px solid red;"">","null","","","","","","","","","",""
"","image-keyboard-response","227","123311","0.0-227.0","3A4TN5196L46JJIN834NQLQTY4MCHS","A3F51C49T9A34D","335VBRURDJMQFRMOFGHOE9WKSHX9E1","","826.5999999996275","img/land3.png","76","827.3999999994412","3","1","3","2","0.8,0.2,0.2,0.2,0.8,0.2,0.2,0.2,0.8","0.8,0.2,0.2,0.2,0.8,0.2,0.2,0.2,0.8","1","",""
"","html-keyboard-response","228","123619","0.0-228.0","3A4TN5196L46JJIN834NQLQTY4MCHS","A3F51C49T9A34D","335VBRURDJMQFRMOFGHOE9WKSHX9E1","","null","<img src=""img/land3.png"" style=""width:200px; border:14px solid green;"">","null","","","","","","","","","",""
"","image-keyboard-response","229","124399","0.0-229.0","3A4TN5196L46JJIN834NQLQTY4MCHS","A3F51C49T9A34D","335VBRURDJMQFRMOFGHOE9WKSHX9E1","","778.5999999996275","img/land2.png","74","779.2000000001863","1","1","1","2","0.8,0.2,0.2,0.2,0.8,0.2,0.2,0.2,0.8","0.8,0.2,0.2,0.2,0.8,0.2,0.2,0.2,0.8","1","",""
"","html-keyboard-response","230","124707","0.0-230.0","3A4TN5196L46JJIN834NQLQTY4MCHS","A3F51C49T9A34D","335VBRURDJMQFRMOFGHOE9WKSHX9E1","","null","<img src=""img/land2.png"" style=""width:200px; border:14px solid green;"">","null","","","","","","","","","",""
"","image-keyboard-response","231","125519","0.0-231.0","3A4TN5196L46JJIN834NQLQTY4MCHS","A3F51C49T9A34D","335VBRURDJMQFRMOFGHOE9WKSHX9E1","","810.4000000003725","img/land3.png","76","811.2000000001863","3","0","3","2","0.8,0.2,0.2,0.2,0.8,0.2,0.2,0.2,0.8","0.8,0.2,0.2,0.2,0.8,0.2,0.2,0.2,0.8","1","",""
"","html-keyboard-response","232","125827","0.0-232.0","3A4TN5196L46JJIN834NQLQTY4MCHS","A3F51C49T9A34D","335VBRURDJMQFRMOFGHOE9WKSHX9E1","","null","<img src=""img/land3.png"" style=""width:200px;border:14px solid red;"">","null","","","","","","","","","",""
"","image-keyboard-response","233","126191","0.0-233.0","3A4TN5196L46JJIN834NQLQTY4MCHS","A3F51C49T9A34D","335VBRURDJMQFRMOFGHOE9WKSHX9E1","","362.70000000018626","img/land3.png","76","363.40000000037253","3","0","3","2","0.8,0.2,0.2,0.2,0.8,0.2,0.2,0.2,0.8","0.8,0.2,0.2,0.2,0.8,0.2,0.2,0.2,0.8","1","",""
"","html-keyboard-response","234","126499","0.0-234.0","3A4TN5196L46JJIN834NQLQTY4MCHS","A3F51C49T9A34D","335VBRURDJMQFRMOFGHOE9WKSHX9E1","","null","<img src=""img/land3.png"" style=""width:200px;border:14px solid red;"">","null","","","","","","","","","",""
"","image-keyboard-response","235","126639","0.0-235.0","3A4TN5196L46JJIN834NQLQTY4MCHS","A3F51C49T9A34D","335VBRURDJMQFRMOFGHOE9WKSHX9E1","","138.5","img/land2.png","76","139.09999999962747","3","0","1","2","0.8,0.2,0.2,0.2,0.8,0.2,0.2,0.2,0.8","0.8,0.2,0.2,0.2,0.8,0.2,0.2,0.2,0.8","1","",""
"","html-keyboard-response","236","126947","0.0-236.0","3A4TN5196L46JJIN834NQLQTY4MCHS","A3F51C49T9A34D","335VBRURDJMQFRMOFGHOE9WKSHX9E1","","null","<img src=""img/land2.png"" style=""width:200px;border:14px solid red;"">","null","","","","","","","","","",""
"","image-keyboard-response","237","127439","0.0-237.0","3A4TN5196L46JJIN834NQLQTY4MCHS","A3F51C49T9A34D","335VBRURDJMQFRMOFGHOE9WKSHX9E1","","490.3999999994412","img/land2.png","74","491","1","1","1","2","0.8,0.2,0.2,0.2,0.8,0.2,0.2,0.2,0.8","0.8,0.2,0.2,0.2,0.8,0.2,0.2,0.2,0.8","1","",""
"","html-keyboard-response","238","127747","0.0-238.0","3A4TN5196L46JJIN834NQLQTY4MCHS","A3F51C49T9A34D","335VBRURDJMQFRMOFGHOE9WKSHX9E1","","null","<img src=""img/land2.png"" style=""width:200px; border:14px solid green;"">","null","","","","","","","","","",""
"","image-keyboard-response","239","128159","0.0-239.0","3A4TN5196L46JJIN834NQLQTY4MCHS","A3F51C49T9A34D","335VBRURDJMQFRMOFGHOE9WKSHX9E1","","410.29999999981374","img/land2.png","74","411.09999999962747","1","0","1","2","0.8,0.2,0.2,0.2,0.8,0.2,0.2,0.2,0.8","0.8,0.2,0.2,0.2,0.8,0.2,0.2,0.2,0.8","1","",""
"","html-keyboard-response","240","128468","0.0-240.0","3A4TN5196L46JJIN834NQLQTY4MCHS","A3F51C49T9A34D","335VBRURDJMQFRMOFGHOE9WKSHX9E1","","null","<img src=""img/land2.png"" style=""width:200px;border:14px solid red;"">","null","","","","","","","","","",""
"","image-keyboard-response","241","128815","0.0-241.0","3A4TN5196L46JJIN834NQLQTY4MCHS","A3F51C49T9A34D","335VBRURDJMQFRMOFGHOE9WKSHX9E1","","346.29999999981374","img/land2.png","74","347","1","1","1","2","0.8,0.2,0.2,0.2,0.8,0.2,0.2,0.2,0.8","0.8,0.2,0.2,0.2,0.8,0.2,0.2,0.2,0.8","1","",""
"","html-keyboard-response","242","129124","0.0-242.0","3A4TN5196L46JJIN834NQLQTY4MCHS","A3F51C49T9A34D","335VBRURDJMQFRMOFGHOE9WKSHX9E1","","null","<img src=""img/land2.png"" style=""width:200px; border:14px solid green;"">","null","","","","","","","","","",""
"","image-keyboard-response","243","129471","0.0-243.0","3A4TN5196L46JJIN834NQLQTY4MCHS","A3F51C49T9A34D","335VBRURDJMQFRMOFGHOE9WKSHX9E1","","346.40000000037253","img/land2.png","74","347","1","0","1","2","0.8,0.2,0.2,0.2,0.8,0.2,0.2,0.2,0.8","0.8,0.2,0.2,0.2,0.8,0.2,0.2,0.2,0.8","1","",""
"","html-keyboard-response","244","129780","0.0-244.0","3A4TN5196L46JJIN834NQLQTY4MCHS","A3F51C49T9A34D","335VBRURDJMQFRMOFGHOE9WKSHX9E1","","null","<img src=""img/land2.png"" style=""width:200px;border:14px solid red;"">","null","","","","","","","","","",""
"","image-keyboard-response","245","130175","0.0-245.0","3A4TN5196L46JJIN834NQLQTY4MCHS","A3F51C49T9A34D","335VBRURDJMQFRMOFGHOE9WKSHX9E1","","394.1000000005588","img/land2.png","74","394.90000000037253","1","1","1","2","0.8,0.2,0.2,0.2,0.8,0.2,0.2,0.2,0.8","0.8,0.2,0.2,0.2,0.8,0.2,0.2,0.2,0.8","1","",""
"","html-keyboard-response","246","130484","0.0-246.0","3A4TN5196L46JJIN834NQLQTY4MCHS","A3F51C49T9A34D","335VBRURDJMQFRMOFGHOE9WKSHX9E1","","null","<img src=""img/land2.png"" style=""width:200px; border:14px solid green;"">","null","","","","","","","","","",""
"","image-keyboard-response","247","130831","0.0-247.0","3A4TN5196L46JJIN834NQLQTY4MCHS","A3F51C49T9A34D","335VBRURDJMQFRMOFGHOE9WKSHX9E1","","346.20000000018626","img/land2.png","74","347","1","1","1","2","0.8,0.2,0.2,0.2,0.8,0.2,0.2,0.2,0.8","0.8,0.2,0.2,0.2,0.8,0.2,0.2,0.2,0.8","1","",""
"","html-keyboard-response","248","131140","0.0-248.0","3A4TN5196L46JJIN834NQLQTY4MCHS","A3F51C49T9A34D","335VBRURDJMQFRMOFGHOE9WKSHX9E1","","null","<img src=""img/land2.png"" style=""width:200px; border:14px solid green;"">","null","","","","","","","","","",""
"","image-keyboard-response","249","131903","0.0-249.0","3A4TN5196L46JJIN834NQLQTY4MCHS","A3F51C49T9A34D","335VBRURDJMQFRMOFGHOE9WKSHX9E1","","762.2999999998137","img/land3.png","76","762.9000000003725","3","1","3","2","0.8,0.2,0.2,0.2,0.8,0.2,0.2,0.2,0.8","0.8,0.2,0.2,0.2,0.8,0.2,0.2,0.2,0.8","1","",""
"","html-keyboard-response","250","132212","0.0-250.0","3A4TN5196L46JJIN834NQLQTY4MCHS","A3F51C49T9A34D","335VBRURDJMQFRMOFGHOE9WKSHX9E1","","null","<img src=""img/land3.png"" style=""width:200px; border:14px solid green;"">","null","","","","","","","","","",""
"","image-keyboard-response","251","132911","0.0-251.0","3A4TN5196L46JJIN834NQLQTY4MCHS","A3F51C49T9A34D","335VBRURDJMQFRMOFGHOE9WKSHX9E1","","698.2000000001863","img/land2.png","74","699","1","1","1","2","0.8,0.2,0.2,0.2,0.8,0.2,0.2,0.2,0.8","0.8,0.2,0.2,0.2,0.8,0.2,0.2,0.2,0.8","1","",""
"","html-keyboard-response","252","133220","0.0-252.0","3A4TN5196L46JJIN834NQLQTY4MCHS","A3F51C49T9A34D","335VBRURDJMQFRMOFGHOE9WKSHX9E1","","null","<img src=""img/land2.png"" style=""width:200px; border:14px solid green;"">","null","","","","","","","","","",""
"","image-keyboard-response","253","133551","0.0-253.0","3A4TN5196L46JJIN834NQLQTY4MCHS","A3F51C49T9A34D","335VBRURDJMQFRMOFGHOE9WKSHX9E1","","330.1000000005588","img/land2.png","74","330.80000000074506","1","1","1","2","0.8,0.2,0.2,0.2,0.8,0.2,0.2,0.2,0.8","0.8,0.2,0.2,0.2,0.8,0.2,0.2,0.2,0.8","1","",""
"","html-keyboard-response","254","133860","0.0-254.0","3A4TN5196L46JJIN834NQLQTY4MCHS","A3F51C49T9A34D","335VBRURDJMQFRMOFGHOE9WKSHX9E1","","null","<img src=""img/land2.png"" style=""width:200px; border:14px solid green;"">","null","","","","","","","","","",""
"","image-keyboard-response","255","134447","0.0-255.0","3A4TN5196L46JJIN834NQLQTY4MCHS","A3F51C49T9A34D","335VBRURDJMQFRMOFGHOE9WKSHX9E1","","586","img/land3.png","76","586.5","3","0","3","2","0.8,0.2,0.2,0.2,0.8,0.2,0.2,0.2,0.8","0.8,0.2,0.2,0.2,0.8,0.2,0.2,0.2,0.8","1","",""
"","html-keyboard-response","256","134756","0.0-256.0","3A4TN5196L46JJIN834NQLQTY4MCHS","A3F51C49T9A34D","335VBRURDJMQFRMOFGHOE9WKSHX9E1","","null","<img src=""img/land3.png"" style=""width:200px;border:14px solid red;"">","null","","","","","","","","","",""
"","image-keyboard-response","257","135055","0.0-257.0","3A4TN5196L46JJIN834NQLQTY4MCHS","A3F51C49T9A34D","335VBRURDJMQFRMOFGHOE9WKSHX9E1","","297.8999999994412","img/land3.png","76","298.6000000005588","3","1","3","2","0.8,0.2,0.2,0.2,0.8,0.2,0.2,0.2,0.8","0.8,0.2,0.2,0.2,0.8,0.2,0.2,0.2,0.8","1","",""
"","html-keyboard-response","258","135364","0.0-258.0","3A4TN5196L46JJIN834NQLQTY4MCHS","A3F51C49T9A34D","335VBRURDJMQFRMOFGHOE9WKSHX9E1","","null","<img src=""img/land3.png"" style=""width:200px; border:14px solid green;"">","null","","","","","","","","","",""
"","image-keyboard-response","259","136190","0.0-259.0","3A4TN5196L46JJIN834NQLQTY4MCHS","A3F51C49T9A34D","335VBRURDJMQFRMOFGHOE9WKSHX9E1","","825.9000000003725","img/land2.png","74","826.6000000005588","1","1","1","2","0.8,0.2,0.2,0.2,0.8,0.2,0.2,0.2,0.8","0.8,0.2,0.2,0.2,0.8,0.2,0.2,0.2,0.8","1","",""
"","html-keyboard-response","260","136500","0.0-260.0","3A4TN5196L46JJIN834NQLQTY4MCHS","A3F51C49T9A34D","335VBRURDJMQFRMOFGHOE9WKSHX9E1","","null","<img src=""img/land2.png"" style=""width:200px; border:14px solid green;"">","null","","","","","","","","","",""
"","image-keyboard-response","261","137231","0.0-261.0","3A4TN5196L46JJIN834NQLQTY4MCHS","A3F51C49T9A34D","335VBRURDJMQFRMOFGHOE9WKSHX9E1","","730.1000000005588","img/land4.png","75","730.9000000003725","2","1","2","2","0.8,0.2,0.2,0.2,0.8,0.2,0.2,0.2,0.8","0.8,0.2,0.2,0.2,0.8,0.2,0.2,0.2,0.8","1","",""
"","html-keyboard-response","262","137539","0.0-262.0","3A4TN5196L46JJIN834NQLQTY4MCHS","A3F51C49T9A34D","335VBRURDJMQFRMOFGHOE9WKSHX9E1","","null","<img src=""img/land4.png"" style=""width:200px; border:14px solid green;"">","null","","","","","","","","","",""
"","image-keyboard-response","263","138158","0.0-263.0","3A4TN5196L46JJIN834NQLQTY4MCHS","A3F51C49T9A34D","335VBRURDJMQFRMOFGHOE9WKSHX9E1","","618.6999999992549","img/land2.png","74","619.3999999994412","1","1","1","2","0.8,0.2,0.2,0.2,0.8,0.2,0.2,0.2,0.8","0.8,0.2,0.2,0.2,0.8,0.2,0.2,0.2,0.8","1","",""
"","html-keyboard-response","264","138467","0.0-264.0","3A4TN5196L46JJIN834NQLQTY4MCHS","A3F51C49T9A34D","335VBRURDJMQFRMOFGHOE9WKSHX9E1","","null","<img src=""img/land2.png"" style=""width:200px; border:14px solid green;"">","null","","","","","","","","","",""
"","image-keyboard-response","265","138847","0.0-265.0","3A4TN5196L46JJIN834NQLQTY4MCHS","A3F51C49T9A34D","335VBRURDJMQFRMOFGHOE9WKSHX9E1","","378.79999999981374","img/land2.png","74","379.59999999962747","1","0","1","2","0.8,0.2,0.2,0.2,0.8,0.2,0.2,0.2,0.8","0.8,0.2,0.2,0.2,0.8,0.2,0.2,0.2,0.8","1","",""
"","html-keyboard-response","266","139155","0.0-266.0","3A4TN5196L46JJIN834NQLQTY4MCHS","A3F51C49T9A34D","335VBRURDJMQFRMOFGHOE9WKSHX9E1","","null","<img src=""img/land2.png"" style=""width:200px;border:14px solid red;"">","null","","","","","","","","","",""
"","image-keyboard-response","267","139518","0.0-267.0","3A4TN5196L46JJIN834NQLQTY4MCHS","A3F51C49T9A34D","335VBRURDJMQFRMOFGHOE9WKSHX9E1","","362.70000000018626","img/land2.png","74","363.3999999994412","1","1","1","2","0.8,0.2,0.2,0.2,0.8,0.2,0.2,0.2,0.8","0.8,0.2,0.2,0.2,0.8,0.2,0.2,0.2,0.8","1","",""
"","html-keyboard-response","268","139827","0.0-268.0","3A4TN5196L46JJIN834NQLQTY4MCHS","A3F51C49T9A34D","335VBRURDJMQFRMOFGHOE9WKSHX9E1","","null","<img src=""img/land2.png"" style=""width:200px; border:14px solid green;"">","null","","","","","","","","","",""
"","image-keyboard-response","269","140238","0.0-269.0","3A4TN5196L46JJIN834NQLQTY4MCHS","A3F51C49T9A34D","335VBRURDJMQFRMOFGHOE9WKSHX9E1","","410.5","img/land2.png","74","411.29999999981374","1","1","1","2","0.8,0.2,0.2,0.2,0.8,0.2,0.2,0.2,0.8","0.8,0.2,0.2,0.2,0.8,0.2,0.2,0.2,0.8","1","",""
"","html-keyboard-response","270","140547","0.0-270.0","3A4TN5196L46JJIN834NQLQTY4MCHS","A3F51C49T9A34D","335VBRURDJMQFRMOFGHOE9WKSHX9E1","","null","<img src=""img/land2.png"" style=""width:200px; border:14px solid green;"">","null","","","","","","","","","",""
"","image-keyboard-response","271","140910","0.0-271.0","3A4TN5196L46JJIN834NQLQTY4MCHS","A3F51C49T9A34D","335VBRURDJMQFRMOFGHOE9WKSHX9E1","","362.69999999925494","img/land2.png","74","363.40000000037253","1","1","1","2","0.8,0.2,0.2,0.2,0.8,0.2,0.2,0.2,0.8","0.8,0.2,0.2,0.2,0.8,0.2,0.2,0.2,0.8","1","",""
"","html-keyboard-response","272","141219","0.0-272.0","3A4TN5196L46JJIN834NQLQTY4MCHS","A3F51C49T9A34D","335VBRURDJMQFRMOFGHOE9WKSHX9E1","","null","<img src=""img/land2.png"" style=""width:200px; border:14px solid green;"">","null","","","","","","","","","",""
"","image-keyboard-response","273","141854","0.0-273.0","3A4TN5196L46JJIN834NQLQTY4MCHS","A3F51C49T9A34D","335VBRURDJMQFRMOFGHOE9WKSHX9E1","","634.5999999996275","img/land3.png","76","635.2999999998137","3","0","3","2","0.8,0.2,0.2,0.2,0.8,0.2,0.2,0.2,0.8","0.8,0.2,0.2,0.2,0.8,0.2,0.2,0.2,0.8","1","",""
"","html-keyboard-response","274","142163","0.0-274.0","3A4TN5196L46JJIN834NQLQTY4MCHS","A3F51C49T9A34D","335VBRURDJMQFRMOFGHOE9WKSHX9E1","","null","<img src=""img/land3.png"" style=""width:200px;border:14px solid red;"">","null","","","","","","","","","",""
"","image-keyboard-response","275","142863","0.0-275.0","3A4TN5196L46JJIN834NQLQTY4MCHS","A3F51C49T9A34D","335VBRURDJMQFRMOFGHOE9WKSHX9E1","","698.7000000001863","img/land2.png","74","699.4000000003725","1","0","1","2","0.8,0.2,0.2,0.2,0.8,0.2,0.2,0.2,0.8","0.8,0.2,0.2,0.2,0.8,0.2,0.2,0.2,0.8","1","",""
"","html-keyboard-response","276","143171","0.0-276.0","3A4TN5196L46JJIN834NQLQTY4MCHS","A3F51C49T9A34D","335VBRURDJMQFRMOFGHOE9WKSHX9E1","","null","<img src=""img/land2.png"" style=""width:200px;border:14px solid red;"">","null","","","","","","","","","",""
"","image-keyboard-response","277","143918","0.0-277.0","3A4TN5196L46JJIN834NQLQTY4MCHS","A3F51C49T9A34D","335VBRURDJMQFRMOFGHOE9WKSHX9E1","","746.5","img/land3.png","75","747.1000000005588","2","0","3","2","0.8,0.2,0.2,0.2,0.8,0.2,0.2,0.2,0.8","0.8,0.2,0.2,0.2,0.8,0.2,0.2,0.2,0.8","1","",""
"","html-keyboard-response","278","144227","0.0-278.0","3A4TN5196L46JJIN834NQLQTY4MCHS","A3F51C49T9A34D","335VBRURDJMQFRMOFGHOE9WKSHX9E1","","null","<img src=""img/land3.png"" style=""width:200px;border:14px solid red;"">","null","","","","","","","","","",""
"","image-keyboard-response","279","144606","0.0-279.0","3A4TN5196L46JJIN834NQLQTY4MCHS","A3F51C49T9A34D","335VBRURDJMQFRMOFGHOE9WKSHX9E1","","378.40000000037253","img/land2.png","76","379","3","0","1","2","0.8,0.2,0.2,0.2,0.8,0.2,0.2,0.2,0.8","0.8,0.2,0.2,0.2,0.8,0.2,0.2,0.2,0.8","1","",""
"","html-keyboard-response","280","144915","0.0-280.0","3A4TN5196L46JJIN834NQLQTY4MCHS","A3F51C49T9A34D","335VBRURDJMQFRMOFGHOE9WKSHX9E1","","null","<img src=""img/land2.png"" style=""width:200px;border:14px solid red;"">","null","","","","","","","","","",""
"","image-keyboard-response","281","145694","0.0-281.0","3A4TN5196L46JJIN834NQLQTY4MCHS","A3F51C49T9A34D","335VBRURDJMQFRMOFGHOE9WKSHX9E1","","778.2999999998137","img/land4.png","75","779.0999999996275","2","1","2","2","0.8,0.2,0.2,0.2,0.8,0.2,0.2,0.2,0.8","0.8,0.2,0.2,0.2,0.8,0.2,0.2,0.2,0.8","1","",""
"","html-keyboard-response","282","146003","0.0-282.0","3A4TN5196L46JJIN834NQLQTY4MCHS","A3F51C49T9A34D","335VBRURDJMQFRMOFGHOE9WKSHX9E1","","null","<img src=""img/land4.png"" style=""width:200px; border:14px solid green;"">","null","","","","","","","","","",""
"","image-keyboard-response","283","146622","0.0-283.0","3A4TN5196L46JJIN834NQLQTY4MCHS","A3F51C49T9A34D","335VBRURDJMQFRMOFGHOE9WKSHX9E1","","618.3999999994412","img/land2.png","74","618.9000000003725","1","1","1","2","0.8,0.2,0.2,0.2,0.8,0.2,0.2,0.2,0.8","0.8,0.2,0.2,0.2,0.8,0.2,0.2,0.2,0.8","1","",""
"","html-keyboard-response","284","146931","0.0-284.0","3A4TN5196L46JJIN834NQLQTY4MCHS","A3F51C49T9A34D","335VBRURDJMQFRMOFGHOE9WKSHX9E1","","null","<img src=""img/land2.png"" style=""width:200px; border:14px solid green;"">","null","","","","","","","","","",""
"","image-keyboard-response","285","147263","0.0-285.0","3A4TN5196L46JJIN834NQLQTY4MCHS","A3F51C49T9A34D","335VBRURDJMQFRMOFGHOE9WKSHX9E1","","330.40000000037253","img/land2.png","74","331.09999999962747","1","1","1","2","0.8,0.2,0.2,0.2,0.8,0.2,0.2,0.2,0.8","0.8,0.2,0.2,0.2,0.8,0.2,0.2,0.2,0.8","1","",""
"","html-keyboard-response","286","147571","0.0-286.0","3A4TN5196L46JJIN834NQLQTY4MCHS","A3F51C49T9A34D","335VBRURDJMQFRMOFGHOE9WKSHX9E1","","null","<img src=""img/land2.png"" style=""width:200px; border:14px solid green;"">","null","","","","","","","","","",""
"","image-keyboard-response","287","148382","0.0-287.0","3A4TN5196L46JJIN834NQLQTY4MCHS","A3F51C49T9A34D","335VBRURDJMQFRMOFGHOE9WKSHX9E1","","810.2000000001863","img/land4.png","75","810.7999999998137","2","1","2","2","0.8,0.2,0.2,0.2,0.8,0.2,0.2,0.2,0.8","0.8,0.2,0.2,0.2,0.8,0.2,0.2,0.2,0.8","1","",""
"","html-keyboard-response","288","148691","0.0-288.0","3A4TN5196L46JJIN834NQLQTY4MCHS","A3F51C49T9A34D","335VBRURDJMQFRMOFGHOE9WKSHX9E1","","null","<img src=""img/land4.png"" style=""width:200px; border:14px solid green;"">","null","","","","","","","","","",""
"","image-keyboard-response","289","149454","0.0-289.0","3A4TN5196L46JJIN834NQLQTY4MCHS","A3F51C49T9A34D","335VBRURDJMQFRMOFGHOE9WKSHX9E1","","762.0999999996275","img/land2.png","74","762.8999999994412","1","1","1","2","0.8,0.2,0.2,0.2,0.8,0.2,0.2,0.2,0.8","0.8,0.2,0.2,0.2,0.8,0.2,0.2,0.2,0.8","1","",""
"","html-keyboard-response","290","149763","0.0-290.0","3A4TN5196L46JJIN834NQLQTY4MCHS","A3F51C49T9A34D","335VBRURDJMQFRMOFGHOE9WKSHX9E1","","null","<img src=""img/land2.png"" style=""width:200px; border:14px solid green;"">","null","","","","","","","","","",""
"","image-keyboard-response","291","150238","0.0-291.0","3A4TN5196L46JJIN834NQLQTY4MCHS","A3F51C49T9A34D","335VBRURDJMQFRMOFGHOE9WKSHX9E1","","474.09999999962747","img/land2.png","74","474.69999999925494","1","0","1","2","0.8,0.2,0.2,0.2,0.8,0.2,0.2,0.2,0.8","0.8,0.2,0.2,0.2,0.8,0.2,0.2,0.2,0.8","1","",""
"","html-keyboard-response","292","150548","0.0-292.0","3A4TN5196L46JJIN834NQLQTY4MCHS","A3F51C49T9A34D","335VBRURDJMQFRMOFGHOE9WKSHX9E1","","null","<img src=""img/land2.png"" style=""width:200px;border:14px solid red;"">","null","","","","","","","","","",""
"","image-keyboard-response","293","151166","0.0-293.0","3A4TN5196L46JJIN834NQLQTY4MCHS","A3F51C49T9A34D","335VBRURDJMQFRMOFGHOE9WKSHX9E1","","618.0999999996275","img/land4.png","75","618.7999999998137","2","1","2","2","0.8,0.2,0.2,0.2,0.8,0.2,0.2,0.2,0.8","0.8,0.2,0.2,0.2,0.8,0.2,0.2,0.2,0.8","1","",""
"","html-keyboard-response","294","151491","0.0-294.0","3A4TN5196L46JJIN834NQLQTY4MCHS","A3F51C49T9A34D","335VBRURDJMQFRMOFGHOE9WKSHX9E1","","null","<img src=""img/land4.png"" style=""width:200px; border:14px solid green;"">","null","","","","","","","","","",""
"","image-keyboard-response","295","151822","0.0-295.0","3A4TN5196L46JJIN834NQLQTY4MCHS","A3F51C49T9A34D","335VBRURDJMQFRMOFGHOE9WKSHX9E1","","329.90000000037253","img/land4.png","75","330.59999999962747","2","1","2","2","0.8,0.2,0.2,0.2,0.8,0.2,0.2,0.2,0.8","0.8,0.2,0.2,0.2,0.8,0.2,0.2,0.2,0.8","1","",""
"","html-keyboard-response","296","152132","0.0-296.0","3A4TN5196L46JJIN834NQLQTY4MCHS","A3F51C49T9A34D","335VBRURDJMQFRMOFGHOE9WKSHX9E1","","null","<img src=""img/land4.png"" style=""width:200px; border:14px solid green;"">","null","","","","","","","","","",""
"","image-keyboard-response","297","152718","0.0-297.0","3A4TN5196L46JJIN834NQLQTY4MCHS","A3F51C49T9A34D","335VBRURDJMQFRMOFGHOE9WKSHX9E1","","586","img/land2.png","74","586.6000000005588","1","1","1","2","0.8,0.2,0.2,0.2,0.8,0.2,0.2,0.2,0.8","0.8,0.2,0.2,0.2,0.8,0.2,0.2,0.2,0.8","1","",""
"","html-keyboard-response","298","153028","0.0-298.0","3A4TN5196L46JJIN834NQLQTY4MCHS","A3F51C49T9A34D","335VBRURDJMQFRMOFGHOE9WKSHX9E1","","null","<img src=""img/land2.png"" style=""width:200px; border:14px solid green;"">","null","","","","","","","","","",""
"","image-keyboard-response","299","153358","0.0-299.0","3A4TN5196L46JJIN834NQLQTY4MCHS","A3F51C49T9A34D","335VBRURDJMQFRMOFGHOE9WKSHX9E1","","329.90000000037253","img/land2.png","74","330.5","1","1","1","2","0.8,0.2,0.2,0.2,0.8,0.2,0.2,0.2,0.8","0.8,0.2,0.2,0.2,0.8,0.2,0.2,0.2,0.8","1","",""
"","html-keyboard-response","300","153668","0.0-300.0","3A4TN5196L46JJIN834NQLQTY4MCHS","A3F51C49T9A34D","335VBRURDJMQFRMOFGHOE9WKSHX9E1","","null","<img src=""img/land2.png"" style=""width:200px; border:14px solid green;"">","null","","","","","","","","","",""
"","image-keyboard-response","301","154046","0.0-301.0","3A4TN5196L46JJIN834NQLQTY4MCHS","A3F51C49T9A34D","335VBRURDJMQFRMOFGHOE9WKSHX9E1","","377.80000000074506","img/land2.png","74","378.6000000005588","1","1","1","2","0.8,0.2,0.2,0.2,0.8,0.2,0.2,0.2,0.8","0.8,0.2,0.2,0.2,0.8,0.2,0.2,0.2,0.8","1","",""
"","html-keyboard-response","302","154356","0.0-302.0","3A4TN5196L46JJIN834NQLQTY4MCHS","A3F51C49T9A34D","335VBRURDJMQFRMOFGHOE9WKSHX9E1","","null","<img src=""img/land2.png"" style=""width:200px; border:14px solid green;"">","null","","","","","","","","","",""
"","image-keyboard-response","303","154718","0.0-303.0","3A4TN5196L46JJIN834NQLQTY4MCHS","A3F51C49T9A34D","335VBRURDJMQFRMOFGHOE9WKSHX9E1","","361.90000000037253","img/land2.png","74","362.5","1","1","1","2","0.8,0.2,0.2,0.2,0.8,0.2,0.2,0.2,0.8","0.8,0.2,0.2,0.2,0.8,0.2,0.2,0.2,0.8","1","",""
"","html-keyboard-response","304","155028","0.0-304.0","3A4TN5196L46JJIN834NQLQTY4MCHS","A3F51C49T9A34D","335VBRURDJMQFRMOFGHOE9WKSHX9E1","","null","<img src=""img/land2.png"" style=""width:200px; border:14px solid green;"">","null","","","","","","","","","",""
"","image-keyboard-response","305","155774","0.0-305.0","3A4TN5196L46JJIN834NQLQTY4MCHS","A3F51C49T9A34D","335VBRURDJMQFRMOFGHOE9WKSHX9E1","","745.7000000001863","img/land3.png","76","746.6000000005588","3","1","3","2","0.8,0.2,0.2,0.2,0.8,0.2,0.2,0.2,0.8","0.8,0.2,0.2,0.2,0.8,0.2,0.2,0.2,0.8","1","",""
"","html-keyboard-response","306","156084","0.0-306.0","3A4TN5196L46JJIN834NQLQTY4MCHS","A3F51C49T9A34D","335VBRURDJMQFRMOFGHOE9WKSHX9E1","","null","<img src=""img/land3.png"" style=""width:200px; border:14px solid green;"">","null","","","","","","","","","",""
"","image-keyboard-response","307","156414","0.0-307.0","3A4TN5196L46JJIN834NQLQTY4MCHS","A3F51C49T9A34D","335VBRURDJMQFRMOFGHOE9WKSHX9E1","","329.70000000018626","img/land3.png","76","330.3999999994412","3","0","3","2","0.8,0.2,0.2,0.2,0.8,0.2,0.2,0.2,0.8","0.8,0.2,0.2,0.2,0.8,0.2,0.2,0.2,0.8","1","",""
"","html-keyboard-response","308","156724","0.0-308.0","3A4TN5196L46JJIN834NQLQTY4MCHS","A3F51C49T9A34D","335VBRURDJMQFRMOFGHOE9WKSHX9E1","","null","<img src=""img/land3.png"" style=""width:200px;border:14px solid red;"">","null","","","","","","","","","",""
"","image-keyboard-response","309","157054","0.0-309.0","3A4TN5196L46JJIN834NQLQTY4MCHS","A3F51C49T9A34D","335VBRURDJMQFRMOFGHOE9WKSHX9E1","","329.6000000005588","img/land3.png","76","330.3999999994412","3","1","3","2","0.8,0.2,0.2,0.2,0.8,0.2,0.2,0.2,0.8","0.8,0.2,0.2,0.2,0.8,0.2,0.2,0.2,0.8","1","",""
"","html-keyboard-response","310","157364","0.0-310.0","3A4TN5196L46JJIN834NQLQTY4MCHS","A3F51C49T9A34D","335VBRURDJMQFRMOFGHOE9WKSHX9E1","","null","<img src=""img/land3.png"" style=""width:200px; border:14px solid green;"">","null","","","","","","","","","",""
"","image-keyboard-response","311","157695","0.0-311.0","3A4TN5196L46JJIN834NQLQTY4MCHS","A3F51C49T9A34D","335VBRURDJMQFRMOFGHOE9WKSHX9E1","","330","img/land3.png","76","330.70000000018626","3","1","3","2","0.8,0.2,0.2,0.2,0.8,0.2,0.2,0.2,0.8","0.8,0.2,0.2,0.2,0.8,0.2,0.2,0.2,0.8","1","",""
"","html-keyboard-response","312","158004","0.0-312.0","3A4TN5196L46JJIN834NQLQTY4MCHS","A3F51C49T9A34D","335VBRURDJMQFRMOFGHOE9WKSHX9E1","","null","<img src=""img/land3.png"" style=""width:200px; border:14px solid green;"">","null","","","","","","","","","",""
"","image-keyboard-response","313","158654","0.0-313.0","3A4TN5196L46JJIN834NQLQTY4MCHS","A3F51C49T9A34D","335VBRURDJMQFRMOFGHOE9WKSHX9E1","","649.6000000005588","img/land2.png","74","650.2000000001863","1","1","1","2","0.8,0.2,0.2,0.2,0.8,0.2,0.2,0.2,0.8","0.8,0.2,0.2,0.2,0.8,0.2,0.2,0.2,0.8","1","",""
"","html-keyboard-response","314","158964","0.0-314.0","3A4TN5196L46JJIN834NQLQTY4MCHS","A3F51C49T9A34D","335VBRURDJMQFRMOFGHOE9WKSHX9E1","","null","<img src=""img/land2.png"" style=""width:200px; border:14px solid green;"">","null","","","","","","","","","",""
"","image-keyboard-response","315","159694","0.0-315.0","3A4TN5196L46JJIN834NQLQTY4MCHS","A3F51C49T9A34D","335VBRURDJMQFRMOFGHOE9WKSHX9E1","","729.5","img/land4.png","75","730.2000000001863","2","1","2","2","0.8,0.2,0.2,0.2,0.8,0.2,0.2,0.2,0.8","0.8,0.2,0.2,0.2,0.8,0.2,0.2,0.2,0.8","1","",""
"","html-keyboard-response","316","160003","0.0-316.0","3A4TN5196L46JJIN834NQLQTY4MCHS","A3F51C49T9A34D","335VBRURDJMQFRMOFGHOE9WKSHX9E1","","null","<img src=""img/land4.png"" style=""width:200px; border:14px solid green;"">","null","","","","","","","","","",""
"","image-keyboard-response","317","160670","0.0-317.0","3A4TN5196L46JJIN834NQLQTY4MCHS","A3F51C49T9A34D","335VBRURDJMQFRMOFGHOE9WKSHX9E1","","666.1000000005588","img/land3.png","76","667","3","0","3","2","0.8,0.2,0.2,0.2,0.8,0.2,0.2,0.2,0.8","0.8,0.2,0.2,0.2,0.8,0.2,0.2,0.2,0.8","1","",""
"","html-keyboard-response","318","160979","0.0-318.0","3A4TN5196L46JJIN834NQLQTY4MCHS","A3F51C49T9A34D","335VBRURDJMQFRMOFGHOE9WKSHX9E1","","null","<img src=""img/land3.png"" style=""width:200px;border:14px solid red;"">","null","","","","","","","","","",""
"","image-keyboard-response","319","161758","0.0-319.0","3A4TN5196L46JJIN834NQLQTY4MCHS","A3F51C49T9A34D","335VBRURDJMQFRMOFGHOE9WKSHX9E1","","778.3999999994412","img/land2.png","74","779.1999999992549","1","1","1","2","0.8,0.2,0.2,0.2,0.8,0.2,0.2,0.2,0.8","0.8,0.2,0.2,0.2,0.8,0.2,0.2,0.2,0.8","1","",""
"","html-keyboard-response","320","162067","0.0-320.0","3A4TN5196L46JJIN834NQLQTY4MCHS","A3F51C49T9A34D","335VBRURDJMQFRMOFGHOE9WKSHX9E1","","null","<img src=""img/land2.png"" style=""width:200px; border:14px solid green;"">","null","","","","","","","","","",""
"","image-keyboard-response","321","162702","0.0-321.0","3A4TN5196L46JJIN834NQLQTY4MCHS","A3F51C49T9A34D","335VBRURDJMQFRMOFGHOE9WKSHX9E1","","634.4000000003725","img/land4.png","75","635.0999999996275","2","0","2","2","0.8,0.2,0.2,0.2,0.8,0.2,0.2,0.2,0.8","0.8,0.2,0.2,0.2,0.8,0.2,0.2,0.2,0.8","1","",""
"","html-keyboard-response","322","163011","0.0-322.0","3A4TN5196L46JJIN834NQLQTY4MCHS","A3F51C49T9A34D","335VBRURDJMQFRMOFGHOE9WKSHX9E1","","null","<img src=""img/land4.png"" style=""width:200px;border:14px solid red;"">","null","","","","","","","","","",""
"","image-keyboard-response","323","163806","0.0-323.0","3A4TN5196L46JJIN834NQLQTY4MCHS","A3F51C49T9A34D","335VBRURDJMQFRMOFGHOE9WKSHX9E1","","794.3999999994412","img/land2.png","74","795","1","0","1","2","0.8,0.2,0.2,0.2,0.8,0.2,0.2,0.2,0.8","0.8,0.2,0.2,0.2,0.8,0.2,0.2,0.2,0.8","1","",""
"","html-keyboard-response","324","164115","0.0-324.0","3A4TN5196L46JJIN834NQLQTY4MCHS","A3F51C49T9A34D","335VBRURDJMQFRMOFGHOE9WKSHX9E1","","null","<img src=""img/land2.png"" style=""width:200px;border:14px solid red;"">","null","","","","","","","","","",""
"","image-keyboard-response","325","164446","0.0-325.0","3A4TN5196L46JJIN834NQLQTY4MCHS","A3F51C49T9A34D","335VBRURDJMQFRMOFGHOE9WKSHX9E1","","330.20000000018626","img/land2.png","74","330.90000000037253","1","1","1","2","0.8,0.2,0.2,0.2,0.8,0.2,0.2,0.2,0.8","0.8,0.2,0.2,0.2,0.8,0.2,0.2,0.2,0.8","1","",""
"","html-keyboard-response","326","164755","0.0-326.0","3A4TN5196L46JJIN834NQLQTY4MCHS","A3F51C49T9A34D","335VBRURDJMQFRMOFGHOE9WKSHX9E1","","null","<img src=""img/land2.png"" style=""width:200px; border:14px solid green;"">","null","","","","","","","","","",""
"","image-keyboard-response","327","165086","0.0-327.0","3A4TN5196L46JJIN834NQLQTY4MCHS","A3F51C49T9A34D","335VBRURDJMQFRMOFGHOE9WKSHX9E1","","330.1000000005588","img/land2.png","74","330.80000000074506","1","0","1","2","0.8,0.2,0.2,0.2,0.8,0.2,0.2,0.2,0.8","0.8,0.2,0.2,0.2,0.8,0.2,0.2,0.2,0.8","1","",""
"","html-keyboard-response","328","165395","0.0-328.0","3A4TN5196L46JJIN834NQLQTY4MCHS","A3F51C49T9A34D","335VBRURDJMQFRMOFGHOE9WKSHX9E1","","null","<img src=""img/land2.png"" style=""width:200px;border:14px solid red;"">","null","","","","","","","","","",""
"","image-keyboard-response","329","165710","0.0-329.0","3A4TN5196L46JJIN834NQLQTY4MCHS","A3F51C49T9A34D","335VBRURDJMQFRMOFGHOE9WKSHX9E1","","314.20000000018626","img/land2.png","74","315","1","0","1","2","0.8,0.2,0.2,0.2,0.8,0.2,0.2,0.2,0.8","0.8,0.2,0.2,0.2,0.8,0.2,0.2,0.2,0.8","1","",""
"","html-keyboard-response","330","166019","0.0-330.0","3A4TN5196L46JJIN834NQLQTY4MCHS","A3F51C49T9A34D","335VBRURDJMQFRMOFGHOE9WKSHX9E1","","null","<img src=""img/land2.png"" style=""width:200px;border:14px solid red;"">","null","","","","","","","","","",""
"","image-keyboard-response","331","166926","0.0-331.0","3A4TN5196L46JJIN834NQLQTY4MCHS","A3F51C49T9A34D","335VBRURDJMQFRMOFGHOE9WKSHX9E1","","906.0999999996275","img/land4.png","75","906.7999999998137","2","1","2","2","0.8,0.2,0.2,0.2,0.8,0.2,0.2,0.2,0.8","0.8,0.2,0.2,0.2,0.8,0.2,0.2,0.2,0.8","1","",""
"","html-keyboard-response","332","167235","0.0-332.0","3A4TN5196L46JJIN834NQLQTY4MCHS","A3F51C49T9A34D","335VBRURDJMQFRMOFGHOE9WKSHX9E1","","null","<img src=""img/land4.png"" style=""width:200px; border:14px solid green;"">","null","","","","","","","","","",""
"","image-keyboard-response","333","167870","0.0-333.0","3A4TN5196L46JJIN834NQLQTY4MCHS","A3F51C49T9A34D","335VBRURDJMQFRMOFGHOE9WKSHX9E1","","634.3999999994412","img/land2.png","74","635.0999999996275","1","1","1","2","0.8,0.2,0.2,0.2,0.8,0.2,0.2,0.2,0.8","0.8,0.2,0.2,0.2,0.8,0.2,0.2,0.2,0.8","1","",""
"","html-keyboard-response","334","168179","0.0-334.0","3A4TN5196L46JJIN834NQLQTY4MCHS","A3F51C49T9A34D","335VBRURDJMQFRMOFGHOE9WKSHX9E1","","null","<img src=""img/land2.png"" style=""width:200px; border:14px solid green;"">","null","","","","","","","","","",""
"","image-keyboard-response","335","168926","0.0-335.0","3A4TN5196L46JJIN834NQLQTY4MCHS","A3F51C49T9A34D","335VBRURDJMQFRMOFGHOE9WKSHX9E1","","745.9000000003725","img/land3.png","76","746.7000000001863","3","1","3","2","0.8,0.2,0.2,0.2,0.8,0.2,0.2,0.2,0.8","0.8,0.2,0.2,0.2,0.8,0.2,0.2,0.2,0.8","1","",""
"","html-keyboard-response","336","169227","0.0-336.0","3A4TN5196L46JJIN834NQLQTY4MCHS","A3F51C49T9A34D","335VBRURDJMQFRMOFGHOE9WKSHX9E1","","null","<img src=""img/land3.png"" style=""width:200px; border:14px solid green;"">","null","","","","","","","","","",""
"","image-keyboard-response","337","169982","0.0-337.0","3A4TN5196L46JJIN834NQLQTY4MCHS","A3F51C49T9A34D","335VBRURDJMQFRMOFGHOE9WKSHX9E1","","754","img/land2.png","74","754.7000000001863","1","1","1","2","0.8,0.2,0.2,0.2,0.8,0.2,0.2,0.2,0.8","0.8,0.2,0.2,0.2,0.8,0.2,0.2,0.2,0.8","1","",""
"","html-keyboard-response","338","170291","0.0-338.0","3A4TN5196L46JJIN834NQLQTY4MCHS","A3F51C49T9A34D","335VBRURDJMQFRMOFGHOE9WKSHX9E1","","null","<img src=""img/land2.png"" style=""width:200px; border:14px solid green;"">","null","","","","","","","","","",""
"","image-keyboard-response","339","170862","0.0-339.0","3A4TN5196L46JJIN834NQLQTY4MCHS","A3F51C49T9A34D","335VBRURDJMQFRMOFGHOE9WKSHX9E1","","569.7999999998137","img/land4.png","75","570.6000000005588","2","0","2","2","0.8,0.2,0.2,0.2,0.8,0.2,0.2,0.2,0.8","0.8,0.2,0.2,0.2,0.8,0.2,0.2,0.2,0.8","1","",""
"","html-keyboard-response","340","171171","0.0-340.0","3A4TN5196L46JJIN834NQLQTY4MCHS","A3F51C49T9A34D","335VBRURDJMQFRMOFGHOE9WKSHX9E1","","null","<img src=""img/land4.png"" style=""width:200px;border:14px solid red;"">","null","","","","","","","","","",""
"","image-keyboard-response","341","171806","0.0-341.0","3A4TN5196L46JJIN834NQLQTY4MCHS","A3F51C49T9A34D","335VBRURDJMQFRMOFGHOE9WKSHX9E1","","633.9000000003725","img/land2.png","74","634.5999999996275","1","1","1","2","0.8,0.2,0.2,0.2,0.8,0.2,0.2,0.2,0.8","0.8,0.2,0.2,0.2,0.8,0.2,0.2,0.2,0.8","1","",""
"","html-keyboard-response","342","172115","0.0-342.0","3A4TN5196L46JJIN834NQLQTY4MCHS","A3F51C49T9A34D","335VBRURDJMQFRMOFGHOE9WKSHX9E1","","null","<img src=""img/land2.png"" style=""width:200px; border:14px solid green;"">","null","","","","","","","","","",""
"","image-keyboard-response","343","172926","0.0-343.0","3A4TN5196L46JJIN834NQLQTY4MCHS","A3F51C49T9A34D","335VBRURDJMQFRMOFGHOE9WKSHX9E1","","809.7000000001863","img/land4.png","75","810.5","2","1","2","2","0.8,0.2,0.2,0.2,0.8,0.2,0.2,0.2,0.8","0.8,0.2,0.2,0.2,0.8,0.2,0.2,0.2,0.8","1","",""
"","html-keyboard-response","344","173235","0.0-344.0","3A4TN5196L46JJIN834NQLQTY4MCHS","A3F51C49T9A34D","335VBRURDJMQFRMOFGHOE9WKSHX9E1","","null","<img src=""img/land4.png"" style=""width:200px; border:14px solid green;"">","null","","","","","","","","","",""
"","image-keyboard-response","345","173646","0.0-345.0","3A4TN5196L46JJIN834NQLQTY4MCHS","A3F51C49T9A34D","335VBRURDJMQFRMOFGHOE9WKSHX9E1","","409.79999999981374","img/land4.png","75","410.40000000037253","2","1","2","2","0.8,0.2,0.2,0.2,0.8,0.2,0.2,0.2,0.8","0.8,0.2,0.2,0.2,0.8,0.2,0.2,0.2,0.8","1","",""
"","html-keyboard-response","346","173956","0.0-346.0","3A4TN5196L46JJIN834NQLQTY4MCHS","A3F51C49T9A34D","335VBRURDJMQFRMOFGHOE9WKSHX9E1","","null","<img src=""img/land4.png"" style=""width:200px; border:14px solid green;"">","null","","","","","","","","","",""
"","image-keyboard-response","347","174558","0.0-347.0","3A4TN5196L46JJIN834NQLQTY4MCHS","A3F51C49T9A34D","335VBRURDJMQFRMOFGHOE9WKSHX9E1","","601.5999999996275","img/land3.png","76","602.5","3","0","3","2","0.8,0.2,0.2,0.2,0.8,0.2,0.2,0.2,0.8","0.8,0.2,0.2,0.2,0.8,0.2,0.2,0.2,0.8","1","",""
"","html-keyboard-response","348","174868","0.0-348.0","3A4TN5196L46JJIN834NQLQTY4MCHS","A3F51C49T9A34D","335VBRURDJMQFRMOFGHOE9WKSHX9E1","","null","<img src=""img/land3.png"" style=""width:200px;border:14px solid red;"">","null","","","","","","","","","",""
"","image-keyboard-response","349","175550","0.0-349.0","3A4TN5196L46JJIN834NQLQTY4MCHS","A3F51C49T9A34D","335VBRURDJMQFRMOFGHOE9WKSHX9E1","","681.5999999996275","img/land2.png","74","682.3000000007451","1","1","1","2","0.8,0.2,0.2,0.2,0.8,0.2,0.2,0.2,0.8","0.8,0.2,0.2,0.2,0.8,0.2,0.2,0.2,0.8","1","",""
"","html-keyboard-response","350","175860","0.0-350.0","3A4TN5196L46JJIN834NQLQTY4MCHS","A3F51C49T9A34D","335VBRURDJMQFRMOFGHOE9WKSHX9E1","","null","<img src=""img/land2.png"" style=""width:200px; border:14px solid green;"">","null","","","","","","","","","",""
"","image-keyboard-response","351","176286","0.0-351.0","3A4TN5196L46JJIN834NQLQTY4MCHS","A3F51C49T9A34D","335VBRURDJMQFRMOFGHOE9WKSHX9E1","","425.5","img/land2.png","74","426.30000000074506","1","1","1","2","0.8,0.2,0.2,0.2,0.8,0.2,0.2,0.2,0.8","0.8,0.2,0.2,0.2,0.8,0.2,0.2,0.2,0.8","1","",""
"","html-keyboard-response","352","176588","0.0-352.0","3A4TN5196L46JJIN834NQLQTY4MCHS","A3F51C49T9A34D","335VBRURDJMQFRMOFGHOE9WKSHX9E1","","null","<img src=""img/land2.png"" style=""width:200px; border:14px solid green;"">","null","","","","","","","","","",""
"","image-keyboard-response","353","177374","0.0-353.0","3A4TN5196L46JJIN834NQLQTY4MCHS","A3F51C49T9A34D","335VBRURDJMQFRMOFGHOE9WKSHX9E1","","785.5999999996275","img/land4.png","75","786.2000000001863","2","1","2","2","0.8,0.2,0.2,0.2,0.8,0.2,0.2,0.2,0.8","0.8,0.2,0.2,0.2,0.8,0.2,0.2,0.2,0.8","1","",""
"","html-keyboard-response","354","177676","0.0-354.0","3A4TN5196L46JJIN834NQLQTY4MCHS","A3F51C49T9A34D","335VBRURDJMQFRMOFGHOE9WKSHX9E1","","null","<img src=""img/land4.png"" style=""width:200px; border:14px solid green;"">","null","","","","","","","","","",""
"","image-keyboard-response","355","178030","0.0-355.0","3A4TN5196L46JJIN834NQLQTY4MCHS","A3F51C49T9A34D","335VBRURDJMQFRMOFGHOE9WKSHX9E1","","353.70000000018626","img/land4.png","75","354.3999999994412","2","1","2","2","0.8,0.2,0.2,0.2,0.8,0.2,0.2,0.2,0.8","0.8,0.2,0.2,0.2,0.8,0.2,0.2,0.2,0.8","1","",""
