"success","trial_type","trial_index","time_elapsed","internal_node_id","assignmentID","mturkID","hitID","view_history","rt","stimulus","key_press","reactionTime","a","r","s","reward_cond","responses","question_order"
"true","fullscreen","0","4629","0.0-0.0","32Z9ZLUT1M67S8FQY8DELLKAM9COHP","A3HFZPC8QR1Y54","338431Z1FL1IVIVZ3BK6A6QS21HROA","","","","","","","","","","",""
"","instructions","1","24325","0.0-1.0","32Z9ZLUT1M67S8FQY8DELLKAM9COHP","A3HFZPC8QR1Y54","338431Z1FL1IVIVZ3BK6A6QS21HROA","[{""page_index"":0,""viewing_time"":2293},{""page_index"":1,""viewing_time"":1085},{""page_index"":2,""viewing_time"":615},{""page_index"":3,""viewing_time"":10735},{""page_index"":4,""viewing_time"":1300},{""page_index"":5,""viewing_time"":1266},{""page_index"":6,""viewing_time"":2400}]","19694","","","","","","","","",""
"","image-keyboard-response","2","25138","0.0-2.0","32Z9ZLUT1M67S8FQY8DELLKAM9COHP","A3HFZPC8QR1Y54","338431Z1FL1IVIVZ3BK6A6QS21HROA","","804","img/land2.png","75","812","2","1","2","1,0.7,0.7,0.7,1,0.7,0.7,0.7,1","",""
"","html-keyboard-response","3","25442","0.0-3.0","32Z9ZLUT1M67S8FQY8DELLKAM9COHP","A3HFZPC8QR1Y54","338431Z1FL1IVIVZ3BK6A6QS21HROA","","null","<img src=""img/land2.png"" style=""width:200px; border:14px solid green;"">","null","","","","","","",""
"","image-keyboard-response","4","26057","0.0-4.0","32Z9ZLUT1M67S8FQY8DELLKAM9COHP","A3HFZPC8QR1Y54","338431Z1FL1IVIVZ3BK6A6QS21HROA","","613.0000000000036","img/land1.png","74","614","1","1","1","1,0.7,0.7,0.7,1,0.7,0.7,0.7,1","",""
"","html-keyboard-response","5","26360","0.0-5.0","32Z9ZLUT1M67S8FQY8DELLKAM9COHP","A3HFZPC8QR1Y54","338431Z1FL1IVIVZ3BK6A6QS21HROA","","null","<img src=""img/land1.png"" style=""width:200px; border:14px solid green;"">","null","","","","","","",""
"","image-keyboard-response","6","26808","0.0-6.0","32Z9ZLUT1M67S8FQY8DELLKAM9COHP","A3HFZPC8QR1Y54","338431Z1FL1IVIVZ3BK6A6QS21HROA","","445","img/land3.png","76","446","3","1","3","1,0.7,0.7,0.7,1,0.7,0.7,0.7,1","",""
"","html-keyboard-response","7","27111","0.0-7.0","32Z9ZLUT1M67S8FQY8DELLKAM9COHP","A3HFZPC8QR1Y54","338431Z1FL1IVIVZ3BK6A6QS21HROA","","null","<img src=""img/land3.png"" style=""width:200px; border:14px solid green;"">","null","","","","","","",""
"","image-keyboard-response","8","27464","0.0-8.0","32Z9ZLUT1M67S8FQY8DELLKAM9COHP","A3HFZPC8QR1Y54","338431Z1FL1IVIVZ3BK6A6QS21HROA","","351.00000000000364","img/land3.png","76","353","3","1","3","1,0.7,0.7,0.7,1,0.7,0.7,0.7,1","",""
"","html-keyboard-response","9","27767","0.0-9.0","32Z9ZLUT1M67S8FQY8DELLKAM9COHP","A3HFZPC8QR1Y54","338431Z1FL1IVIVZ3BK6A6QS21HROA","","null","<img src=""img/land3.png"" style=""width:200px; border:14px solid green;"">","null","","","","","","",""
"","image-keyboard-response","10","28252","0.0-10.0","32Z9ZLUT1M67S8FQY8DELLKAM9COHP","A3HFZPC8QR1Y54","338431Z1FL1IVIVZ3BK6A6QS21HROA","","483.00000000000364","img/land1.png","75","485","2","0","1","1,0.7,0.7,0.7,1,0.7,0.7,0.7,1","",""
"","html-keyboard-response","11","28556","0.0-11.0","32Z9ZLUT1M67S8FQY8DELLKAM9COHP","A3HFZPC8QR1Y54","338431Z1FL1IVIVZ3BK6A6QS21HROA","","null","<img src=""img/land1.png"" style=""width:200px;border:14px solid red;"">","null","","","","","","",""
"","image-keyboard-response","12","29220","0.0-12.0","32Z9ZLUT1M67S8FQY8DELLKAM9COHP","A3HFZPC8QR1Y54","338431Z1FL1IVIVZ3BK6A6QS21HROA","","662","img/land3.png","76","664","3","1","3","1,0.7,0.7,0.7,1,0.7,0.7,0.7,1","",""
"","html-keyboard-response","13","29522","0.0-13.0","32Z9ZLUT1M67S8FQY8DELLKAM9COHP","A3HFZPC8QR1Y54","338431Z1FL1IVIVZ3BK6A6QS21HROA","","null","<img src=""img/land3.png"" style=""width:200px; border:14px solid green;"">","null","","","","","","",""
"","image-keyboard-response","14","29865","0.0-14.0","32Z9ZLUT1M67S8FQY8DELLKAM9COHP","A3HFZPC8QR1Y54","338431Z1FL1IVIVZ3BK6A6QS21HROA","","340","img/land3.png","76","342","3","1","3","1,0.7,0.7,0.7,1,0.7,0.7,0.7,1","",""
"","html-keyboard-response","15","30168","0.0-15.0","32Z9ZLUT1M67S8FQY8DELLKAM9COHP","A3HFZPC8QR1Y54","338431Z1FL1IVIVZ3BK6A6QS21HROA","","null","<img src=""img/land3.png"" style=""width:200px; border:14px solid green;"">","null","","","","","","",""
"","image-keyboard-response","16","30555","0.0-16.0","32Z9ZLUT1M67S8FQY8DELLKAM9COHP","A3HFZPC8QR1Y54","338431Z1FL1IVIVZ3BK6A6QS21HROA","","385","img/land1.png","74","386.9999999999927","1","1","1","1,0.7,0.7,0.7,1,0.7,0.7,0.7,1","",""
"","html-keyboard-response","17","30858","0.0-17.0","32Z9ZLUT1M67S8FQY8DELLKAM9COHP","A3HFZPC8QR1Y54","338431Z1FL1IVIVZ3BK6A6QS21HROA","","null","<img src=""img/land1.png"" style=""width:200px; border:14px solid green;"">","null","","","","","","",""
"","image-keyboard-response","18","31196","0.0-18.0","32Z9ZLUT1M67S8FQY8DELLKAM9COHP","A3HFZPC8QR1Y54","338431Z1FL1IVIVZ3BK6A6QS21HROA","","337","img/land1.png","74","338","1","1","1","1,0.7,0.7,0.7,1,0.7,0.7,0.7,1","",""
"","html-keyboard-response","19","31499","0.0-19.0","32Z9ZLUT1M67S8FQY8DELLKAM9COHP","A3HFZPC8QR1Y54","338431Z1FL1IVIVZ3BK6A6QS21HROA","","null","<img src=""img/land1.png"" style=""width:200px; border:14px solid green;"">","null","","","","","","",""
"","image-keyboard-response","20","31807","0.0-20.0","32Z9ZLUT1M67S8FQY8DELLKAM9COHP","A3HFZPC8QR1Y54","338431Z1FL1IVIVZ3BK6A6QS21HROA","","306","img/land1.png","74","307","1","1","1","1,0.7,0.7,0.7,1,0.7,0.7,0.7,1","",""
"","html-keyboard-response","21","32110","0.0-21.0","32Z9ZLUT1M67S8FQY8DELLKAM9COHP","A3HFZPC8QR1Y54","338431Z1FL1IVIVZ3BK6A6QS21HROA","","null","<img src=""img/land1.png"" style=""width:200px; border:14px solid green;"">","null","","","","","","",""
"","image-keyboard-response","22","32439","0.0-22.0","32Z9ZLUT1M67S8FQY8DELLKAM9COHP","A3HFZPC8QR1Y54","338431Z1FL1IVIVZ3BK6A6QS21HROA","","328","img/land1.png","74","328.9999999999927","1","1","1","1,0.7,0.7,0.7,1,0.7,0.7,0.7,1","",""
"","html-keyboard-response","23","32742","0.0-23.0","32Z9ZLUT1M67S8FQY8DELLKAM9COHP","A3HFZPC8QR1Y54","338431Z1FL1IVIVZ3BK6A6QS21HROA","","null","<img src=""img/land1.png"" style=""width:200px; border:14px solid green;"">","null","","","","","","",""
"","image-keyboard-response","24","33171","0.0-24.0","32Z9ZLUT1M67S8FQY8DELLKAM9COHP","A3HFZPC8QR1Y54","338431Z1FL1IVIVZ3BK6A6QS21HROA","","426","img/land2.png","75","428.0000000000073","2","1","2","1,0.7,0.7,0.7,1,0.7,0.7,0.7,1","",""
"","html-keyboard-response","25","33473","0.0-25.0","32Z9ZLUT1M67S8FQY8DELLKAM9COHP","A3HFZPC8QR1Y54","338431Z1FL1IVIVZ3BK6A6QS21HROA","","null","<img src=""img/land2.png"" style=""width:200px; border:14px solid green;"">","null","","","","","","",""
"","image-keyboard-response","26","33821","0.0-26.0","32Z9ZLUT1M67S8FQY8DELLKAM9COHP","A3HFZPC8QR1Y54","338431Z1FL1IVIVZ3BK6A6QS21HROA","","345","img/land2.png","75","347","2","1","2","1,0.7,0.7,0.7,1,0.7,0.7,0.7,1","",""
"","html-keyboard-response","27","34124","0.0-27.0","32Z9ZLUT1M67S8FQY8DELLKAM9COHP","A3HFZPC8QR1Y54","338431Z1FL1IVIVZ3BK6A6QS21HROA","","null","<img src=""img/land2.png"" style=""width:200px; border:14px solid green;"">","null","","","","","","",""
"","image-keyboard-response","28","34648","0.0-28.0","32Z9ZLUT1M67S8FQY8DELLKAM9COHP","A3HFZPC8QR1Y54","338431Z1FL1IVIVZ3BK6A6QS21HROA","","522","img/land1.png","74","524","1","1","1","1,0.7,0.7,0.7,1,0.7,0.7,0.7,1","",""
"","html-keyboard-response","29","34950","0.0-29.0","32Z9ZLUT1M67S8FQY8DELLKAM9COHP","A3HFZPC8QR1Y54","338431Z1FL1IVIVZ3BK6A6QS21HROA","","null","<img src=""img/land1.png"" style=""width:200px; border:14px solid green;"">","null","","","","","","",""
"","image-keyboard-response","30","35581","0.0-30.0","32Z9ZLUT1M67S8FQY8DELLKAM9COHP","A3HFZPC8QR1Y54","338431Z1FL1IVIVZ3BK6A6QS21HROA","","628","img/land3.png","76","631","3","1","3","1,0.7,0.7,0.7,1,0.7,0.7,0.7,1","",""
"","html-keyboard-response","31","35884","0.0-31.0","32Z9ZLUT1M67S8FQY8DELLKAM9COHP","A3HFZPC8QR1Y54","338431Z1FL1IVIVZ3BK6A6QS21HROA","","null","<img src=""img/land3.png"" style=""width:200px; border:14px solid green;"">","null","","","","","","",""
"","image-keyboard-response","32","36588","0.0-32.0","32Z9ZLUT1M67S8FQY8DELLKAM9COHP","A3HFZPC8QR1Y54","338431Z1FL1IVIVZ3BK6A6QS21HROA","","703","img/land1.png","74","704","1","1","1","1,0.7,0.7,0.7,1,0.7,0.7,0.7,1","",""
"","html-keyboard-response","33","36891","0.0-33.0","32Z9ZLUT1M67S8FQY8DELLKAM9COHP","A3HFZPC8QR1Y54","338431Z1FL1IVIVZ3BK6A6QS21HROA","","null","<img src=""img/land1.png"" style=""width:200px; border:14px solid green;"">","null","","","","","","",""
"","image-keyboard-response","34","38754","0.0-34.0","32Z9ZLUT1M67S8FQY8DELLKAM9COHP","A3HFZPC8QR1Y54","338431Z1FL1IVIVZ3BK6A6QS21HROA","","1861","img/land1.png","74","1862","1","1","1","1,0.7,0.7,0.7,1,0.7,0.7,0.7,1","",""
"","html-keyboard-response","35","39057","0.0-35.0","32Z9ZLUT1M67S8FQY8DELLKAM9COHP","A3HFZPC8QR1Y54","338431Z1FL1IVIVZ3BK6A6QS21HROA","","null","<img src=""img/land1.png"" style=""width:200px; border:14px solid green;"">","null","","","","","","",""
"","image-keyboard-response","36","39414","0.0-36.0","32Z9ZLUT1M67S8FQY8DELLKAM9COHP","A3HFZPC8QR1Y54","338431Z1FL1IVIVZ3BK6A6QS21HROA","","356","img/land1.png","74","357","1","1","1","1,0.7,0.7,0.7,1,0.7,0.7,0.7,1","",""
"","html-keyboard-response","37","39717","0.0-37.0","32Z9ZLUT1M67S8FQY8DELLKAM9COHP","A3HFZPC8QR1Y54","338431Z1FL1IVIVZ3BK6A6QS21HROA","","null","<img src=""img/land1.png"" style=""width:200px; border:14px solid green;"">","null","","","","","","",""
"","image-keyboard-response","38","41726","0.0-38.0","32Z9ZLUT1M67S8FQY8DELLKAM9COHP","A3HFZPC8QR1Y54","338431Z1FL1IVIVZ3BK6A6QS21HROA","","2007.0000000000073","img/land1.png","74","2008.0000000000073","1","1","1","1,0.7,0.7,0.7,1,0.7,0.7,0.7,1","",""
"","html-keyboard-response","39","42029","0.0-39.0","32Z9ZLUT1M67S8FQY8DELLKAM9COHP","A3HFZPC8QR1Y54","338431Z1FL1IVIVZ3BK6A6QS21HROA","","null","<img src=""img/land1.png"" style=""width:200px; border:14px solid green;"">","null","","","","","","",""
"","image-keyboard-response","40","42325","0.0-40.0","32Z9ZLUT1M67S8FQY8DELLKAM9COHP","A3HFZPC8QR1Y54","338431Z1FL1IVIVZ3BK6A6QS21HROA","","293","img/land1.png","74","296","1","1","1","1,0.7,0.7,0.7,1,0.7,0.7,0.7,1","",""
"","html-keyboard-response","41","42628","0.0-41.0","32Z9ZLUT1M67S8FQY8DELLKAM9COHP","A3HFZPC8QR1Y54","338431Z1FL1IVIVZ3BK6A6QS21HROA","","null","<img src=""img/land1.png"" style=""width:200px; border:14px solid green;"">","null","","","","","","",""
"","image-keyboard-response","42","43179","0.0-42.0","32Z9ZLUT1M67S8FQY8DELLKAM9COHP","A3HFZPC8QR1Y54","338431Z1FL1IVIVZ3BK6A6QS21HROA","","549","img/land2.png","75","550","2","1","2","1,0.7,0.7,0.7,1,0.7,0.7,0.7,1","",""
"","html-keyboard-response","43","43482","0.0-43.0","32Z9ZLUT1M67S8FQY8DELLKAM9COHP","A3HFZPC8QR1Y54","338431Z1FL1IVIVZ3BK6A6QS21HROA","","null","<img src=""img/land2.png"" style=""width:200px; border:14px solid green;"">","null","","","","","","",""
"","image-keyboard-response","44","43918","0.0-44.0","32Z9ZLUT1M67S8FQY8DELLKAM9COHP","A3HFZPC8QR1Y54","338431Z1FL1IVIVZ3BK6A6QS21HROA","","435.0000000000073","img/land3.png","76","436","3","1","3","1,0.7,0.7,0.7,1,0.7,0.7,0.7,1","",""
"","html-keyboard-response","45","44221","0.0-45.0","32Z9ZLUT1M67S8FQY8DELLKAM9COHP","A3HFZPC8QR1Y54","338431Z1FL1IVIVZ3BK6A6QS21HROA","","null","<img src=""img/land3.png"" style=""width:200px; border:14px solid green;"">","null","","","","","","",""
"","image-keyboard-response","46","44561","0.0-46.0","32Z9ZLUT1M67S8FQY8DELLKAM9COHP","A3HFZPC8QR1Y54","338431Z1FL1IVIVZ3BK6A6QS21HROA","","338","img/land3.png","76","340","3","1","3","1,0.7,0.7,0.7,1,0.7,0.7,0.7,1","",""
"","html-keyboard-response","47","44864","0.0-47.0","32Z9ZLUT1M67S8FQY8DELLKAM9COHP","A3HFZPC8QR1Y54","338431Z1FL1IVIVZ3BK6A6QS21HROA","","null","<img src=""img/land3.png"" style=""width:200px; border:14px solid green;"">","null","","","","","","",""
"","image-keyboard-response","48","45585","0.0-48.0","32Z9ZLUT1M67S8FQY8DELLKAM9COHP","A3HFZPC8QR1Y54","338431Z1FL1IVIVZ3BK6A6QS21HROA","","718.9999999999927","img/land2.png","75","720","2","1","2","1,0.7,0.7,0.7,1,0.7,0.7,0.7,1","",""
"","html-keyboard-response","49","45887","0.0-49.0","32Z9ZLUT1M67S8FQY8DELLKAM9COHP","A3HFZPC8QR1Y54","338431Z1FL1IVIVZ3BK6A6QS21HROA","","null","<img src=""img/land2.png"" style=""width:200px; border:14px solid green;"">","null","","","","","","",""
"","image-keyboard-response","50","47241","0.0-50.0","32Z9ZLUT1M67S8FQY8DELLKAM9COHP","A3HFZPC8QR1Y54","338431Z1FL1IVIVZ3BK6A6QS21HROA","","1352.0000000000073","img/land1.png","74","1353.0000000000073","1","1","1","1,0.7,0.7,0.7,1,0.7,0.7,0.7,1","",""
"","html-keyboard-response","51","47544","0.0-51.0","32Z9ZLUT1M67S8FQY8DELLKAM9COHP","A3HFZPC8QR1Y54","338431Z1FL1IVIVZ3BK6A6QS21HROA","","null","<img src=""img/land1.png"" style=""width:200px; border:14px solid green;"">","null","","","","","","",""
"","image-keyboard-response","52","47870","0.0-52.0","32Z9ZLUT1M67S8FQY8DELLKAM9COHP","A3HFZPC8QR1Y54","338431Z1FL1IVIVZ3BK6A6QS21HROA","","325","img/land1.png","74","326","1","1","1","1,0.7,0.7,0.7,1,0.7,0.7,0.7,1","",""
"","html-keyboard-response","53","48173","0.0-53.0","32Z9ZLUT1M67S8FQY8DELLKAM9COHP","A3HFZPC8QR1Y54","338431Z1FL1IVIVZ3BK6A6QS21HROA","","null","<img src=""img/land1.png"" style=""width:200px; border:14px solid green;"">","null","","","","","","",""
"","image-keyboard-response","54","48743","0.0-54.0","32Z9ZLUT1M67S8FQY8DELLKAM9COHP","A3HFZPC8QR1Y54","338431Z1FL1IVIVZ3BK6A6QS21HROA","","568.9999999999927","img/land3.png","76","570","3","1","3","1,0.7,0.7,0.7,1,0.7,0.7,0.7,1","",""
"","html-keyboard-response","55","49046","0.0-55.0","32Z9ZLUT1M67S8FQY8DELLKAM9COHP","A3HFZPC8QR1Y54","338431Z1FL1IVIVZ3BK6A6QS21HROA","","null","<img src=""img/land3.png"" style=""width:200px; border:14px solid green;"">","null","","","","","","",""
"","image-keyboard-response","56","49666","0.0-56.0","32Z9ZLUT1M67S8FQY8DELLKAM9COHP","A3HFZPC8QR1Y54","338431Z1FL1IVIVZ3BK6A6QS21HROA","","619","img/land2.png","75","619.9999999999927","2","1","2","1,0.7,0.7,0.7,1,0.7,0.7,0.7,1","",""
"","html-keyboard-response","57","49968","0.0-57.0","32Z9ZLUT1M67S8FQY8DELLKAM9COHP","A3HFZPC8QR1Y54","338431Z1FL1IVIVZ3BK6A6QS21HROA","","null","<img src=""img/land2.png"" style=""width:200px; border:14px solid green;"">","null","","","","","","",""
"","image-keyboard-response","58","50541","0.0-58.0","32Z9ZLUT1M67S8FQY8DELLKAM9COHP","A3HFZPC8QR1Y54","338431Z1FL1IVIVZ3BK6A6QS21HROA","","571","img/land1.png","74","572","1","1","1","1,0.7,0.7,0.7,1,0.7,0.7,0.7,1","",""
"","html-keyboard-response","59","50843","0.0-59.0","32Z9ZLUT1M67S8FQY8DELLKAM9COHP","A3HFZPC8QR1Y54","338431Z1FL1IVIVZ3BK6A6QS21HROA","","null","<img src=""img/land1.png"" style=""width:200px; border:14px solid green;"">","null","","","","","","",""
"","image-keyboard-response","60","51283","0.0-60.0","32Z9ZLUT1M67S8FQY8DELLKAM9COHP","A3HFZPC8QR1Y54","338431Z1FL1IVIVZ3BK6A6QS21HROA","","438","img/land2.png","75","439","2","1","2","1,0.7,0.7,0.7,1,0.7,0.7,0.7,1","",""
"","html-keyboard-response","61","51586","0.0-61.0","32Z9ZLUT1M67S8FQY8DELLKAM9COHP","A3HFZPC8QR1Y54","338431Z1FL1IVIVZ3BK6A6QS21HROA","","null","<img src=""img/land2.png"" style=""width:200px; border:14px solid green;"">","null","","","","","","",""
"","image-keyboard-response","62","52024","0.0-62.0","32Z9ZLUT1M67S8FQY8DELLKAM9COHP","A3HFZPC8QR1Y54","338431Z1FL1IVIVZ3BK6A6QS21HROA","","436","img/land3.png","76","437","3","1","3","1,0.7,0.7,0.7,1,0.7,0.7,0.7,1","",""
"","html-keyboard-response","63","52327","0.0-63.0","32Z9ZLUT1M67S8FQY8DELLKAM9COHP","A3HFZPC8QR1Y54","338431Z1FL1IVIVZ3BK6A6QS21HROA","","null","<img src=""img/land3.png"" style=""width:200px; border:14px solid green;"">","null","","","","","","",""
"","image-keyboard-response","64","53310","0.0-64.0","32Z9ZLUT1M67S8FQY8DELLKAM9COHP","A3HFZPC8QR1Y54","338431Z1FL1IVIVZ3BK6A6QS21HROA","","982","img/land1.png","74","983","1","1","1","1,0.7,0.7,0.7,1,0.7,0.7,0.7,1","",""
"","html-keyboard-response","65","53612","0.0-65.0","32Z9ZLUT1M67S8FQY8DELLKAM9COHP","A3HFZPC8QR1Y54","338431Z1FL1IVIVZ3BK6A6QS21HROA","","null","<img src=""img/land1.png"" style=""width:200px; border:14px solid green;"">","null","","","","","","",""
"","image-keyboard-response","66","54136","0.0-66.0","32Z9ZLUT1M67S8FQY8DELLKAM9COHP","A3HFZPC8QR1Y54","338431Z1FL1IVIVZ3BK6A6QS21HROA","","522","img/land3.png","75","523.9999999999927","2","1","3","1,0.7,0.7,0.7,1,0.7,0.7,0.7,1","",""
"","html-keyboard-response","67","54439","0.0-67.0","32Z9ZLUT1M67S8FQY8DELLKAM9COHP","A3HFZPC8QR1Y54","338431Z1FL1IVIVZ3BK6A6QS21HROA","","null","<img src=""img/land3.png"" style=""width:200px; border:14px solid green;"">","null","","","","","","",""
"","image-keyboard-response","68","55144","0.0-68.0","32Z9ZLUT1M67S8FQY8DELLKAM9COHP","A3HFZPC8QR1Y54","338431Z1FL1IVIVZ3BK6A6QS21HROA","","704","img/land1.png","74","705","1","1","1","1,0.7,0.7,0.7,1,0.7,0.7,0.7,1","",""
"","html-keyboard-response","69","55448","0.0-69.0","32Z9ZLUT1M67S8FQY8DELLKAM9COHP","A3HFZPC8QR1Y54","338431Z1FL1IVIVZ3BK6A6QS21HROA","","null","<img src=""img/land1.png"" style=""width:200px; border:14px solid green;"">","null","","","","","","",""
"","image-keyboard-response","70","56093","0.0-70.0","32Z9ZLUT1M67S8FQY8DELLKAM9COHP","A3HFZPC8QR1Y54","338431Z1FL1IVIVZ3BK6A6QS21HROA","","643","img/land2.png","75","645","2","1","2","1,0.7,0.7,0.7,1,0.7,0.7,0.7,1","",""
"","html-keyboard-response","71","56396","0.0-71.0","32Z9ZLUT1M67S8FQY8DELLKAM9COHP","A3HFZPC8QR1Y54","338431Z1FL1IVIVZ3BK6A6QS21HROA","","null","<img src=""img/land2.png"" style=""width:200px; border:14px solid green;"">","null","","","","","","",""
"","image-keyboard-response","72","56748","0.0-72.0","32Z9ZLUT1M67S8FQY8DELLKAM9COHP","A3HFZPC8QR1Y54","338431Z1FL1IVIVZ3BK6A6QS21HROA","","350","img/land2.png","75","351","2","1","2","1,0.7,0.7,0.7,1,0.7,0.7,0.7,1","",""
"","html-keyboard-response","73","57051","0.0-73.0","32Z9ZLUT1M67S8FQY8DELLKAM9COHP","A3HFZPC8QR1Y54","338431Z1FL1IVIVZ3BK6A6QS21HROA","","null","<img src=""img/land2.png"" style=""width:200px; border:14px solid green;"">","null","","","","","","",""
"","image-keyboard-response","74","57363","0.0-74.0","32Z9ZLUT1M67S8FQY8DELLKAM9COHP","A3HFZPC8QR1Y54","338431Z1FL1IVIVZ3BK6A6QS21HROA","","309.0000000000073","img/land2.png","75","311","2","1","2","1,0.7,0.7,0.7,1,0.7,0.7,0.7,1","",""
"","html-keyboard-response","75","57667","0.0-75.0","32Z9ZLUT1M67S8FQY8DELLKAM9COHP","A3HFZPC8QR1Y54","338431Z1FL1IVIVZ3BK6A6QS21HROA","","null","<img src=""img/land2.png"" style=""width:200px; border:14px solid green;"">","null","","","","","","",""
"","image-keyboard-response","76","57976","0.0-76.0","32Z9ZLUT1M67S8FQY8DELLKAM9COHP","A3HFZPC8QR1Y54","338431Z1FL1IVIVZ3BK6A6QS21HROA","","307.0000000000073","img/land2.png","75","308.9999999999927","2","1","2","1,0.7,0.7,0.7,1,0.7,0.7,0.7,1","",""
"","html-keyboard-response","77","58279","0.0-77.0","32Z9ZLUT1M67S8FQY8DELLKAM9COHP","A3HFZPC8QR1Y54","338431Z1FL1IVIVZ3BK6A6QS21HROA","","null","<img src=""img/land2.png"" style=""width:200px; border:14px solid green;"">","null","","","","","","",""
"","image-keyboard-response","78","58909","0.0-78.0","32Z9ZLUT1M67S8FQY8DELLKAM9COHP","A3HFZPC8QR1Y54","338431Z1FL1IVIVZ3BK6A6QS21HROA","","628","img/land1.png","74","629","1","1","1","1,0.7,0.7,0.7,1,0.7,0.7,0.7,1","",""
"","html-keyboard-response","79","59211","0.0-79.0","32Z9ZLUT1M67S8FQY8DELLKAM9COHP","A3HFZPC8QR1Y54","338431Z1FL1IVIVZ3BK6A6QS21HROA","","null","<img src=""img/land1.png"" style=""width:200px; border:14px solid green;"">","null","","","","","","",""
"","image-keyboard-response","80","59603","0.0-80.0","32Z9ZLUT1M67S8FQY8DELLKAM9COHP","A3HFZPC8QR1Y54","338431Z1FL1IVIVZ3BK6A6QS21HROA","","389","img/land1.png","74","391.0000000000073","1","1","1","1,0.7,0.7,0.7,1,0.7,0.7,0.7,1","",""
"","html-keyboard-response","81","59906","0.0-81.0","32Z9ZLUT1M67S8FQY8DELLKAM9COHP","A3HFZPC8QR1Y54","338431Z1FL1IVIVZ3BK6A6QS21HROA","","null","<img src=""img/land1.png"" style=""width:200px; border:14px solid green;"">","null","","","","","","",""
"","image-keyboard-response","82","60292","0.0-82.0","32Z9ZLUT1M67S8FQY8DELLKAM9COHP","A3HFZPC8QR1Y54","338431Z1FL1IVIVZ3BK6A6QS21HROA","","385.0000000000073","img/land1.png","74","386.0000000000073","1","1","1","1,0.7,0.7,0.7,1,0.7,0.7,0.7,1","",""
"","html-keyboard-response","83","60595","0.0-83.0","32Z9ZLUT1M67S8FQY8DELLKAM9COHP","A3HFZPC8QR1Y54","338431Z1FL1IVIVZ3BK6A6QS21HROA","","null","<img src=""img/land1.png"" style=""width:200px; border:14px solid green;"">","null","","","","","","",""
"","image-keyboard-response","84","61312","0.0-84.0","32Z9ZLUT1M67S8FQY8DELLKAM9COHP","A3HFZPC8QR1Y54","338431Z1FL1IVIVZ3BK6A6QS21HROA","","714.9999999999927","img/land3.png","76","717","3","1","3","1,0.7,0.7,0.7,1,0.7,0.7,0.7,1","",""
"","html-keyboard-response","85","61615","0.0-85.0","32Z9ZLUT1M67S8FQY8DELLKAM9COHP","A3HFZPC8QR1Y54","338431Z1FL1IVIVZ3BK6A6QS21HROA","","null","<img src=""img/land3.png"" style=""width:200px; border:14px solid green;"">","null","","","","","","",""
"","image-keyboard-response","86","62334","0.0-86.0","32Z9ZLUT1M67S8FQY8DELLKAM9COHP","A3HFZPC8QR1Y54","338431Z1FL1IVIVZ3BK6A6QS21HROA","","717","img/land2.png","75","719.0000000000073","2","1","2","1,0.7,0.7,0.7,1,0.7,0.7,0.7,1","",""
"","html-keyboard-response","87","62637","0.0-87.0","32Z9ZLUT1M67S8FQY8DELLKAM9COHP","A3HFZPC8QR1Y54","338431Z1FL1IVIVZ3BK6A6QS21HROA","","null","<img src=""img/land2.png"" style=""width:200px; border:14px solid green;"">","null","","","","","","",""
"","image-keyboard-response","88","63368","0.0-88.0","32Z9ZLUT1M67S8FQY8DELLKAM9COHP","A3HFZPC8QR1Y54","338431Z1FL1IVIVZ3BK6A6QS21HROA","","729.9999999999854","img/land3.png","74","731","1","1","3","1,0.7,0.7,0.7,1,0.7,0.7,0.7,1","",""
"","html-keyboard-response","89","63671","0.0-89.0","32Z9ZLUT1M67S8FQY8DELLKAM9COHP","A3HFZPC8QR1Y54","338431Z1FL1IVIVZ3BK6A6QS21HROA","","null","<img src=""img/land3.png"" style=""width:200px; border:14px solid green;"">","null","","","","","","",""
"","image-keyboard-response","90","64209","0.0-90.0","32Z9ZLUT1M67S8FQY8DELLKAM9COHP","A3HFZPC8QR1Y54","338431Z1FL1IVIVZ3BK6A6QS21HROA","","537","img/land2.png","75","538","2","1","2","1,0.7,0.7,0.7,1,0.7,0.7,0.7,1","",""
"","html-keyboard-response","91","64512","0.0-91.0","32Z9ZLUT1M67S8FQY8DELLKAM9COHP","A3HFZPC8QR1Y54","338431Z1FL1IVIVZ3BK6A6QS21HROA","","null","<img src=""img/land2.png"" style=""width:200px; border:14px solid green;"">","null","","","","","","",""
"","image-keyboard-response","92","65199","0.0-92.0","32Z9ZLUT1M67S8FQY8DELLKAM9COHP","A3HFZPC8QR1Y54","338431Z1FL1IVIVZ3BK6A6QS21HROA","","684","img/land3.png","76","687","3","1","3","1,0.7,0.7,0.7,1,0.7,0.7,0.7,1","",""
"","html-keyboard-response","93","65502","0.0-93.0","32Z9ZLUT1M67S8FQY8DELLKAM9COHP","A3HFZPC8QR1Y54","338431Z1FL1IVIVZ3BK6A6QS21HROA","","null","<img src=""img/land3.png"" style=""width:200px; border:14px solid green;"">","null","","","","","","",""
"","image-keyboard-response","94","65880","0.0-94.0","32Z9ZLUT1M67S8FQY8DELLKAM9COHP","A3HFZPC8QR1Y54","338431Z1FL1IVIVZ3BK6A6QS21HROA","","375","img/land3.png","76","377","3","1","3","1,0.7,0.7,0.7,1,0.7,0.7,0.7,1","",""
"","html-keyboard-response","95","66182","0.0-95.0","32Z9ZLUT1M67S8FQY8DELLKAM9COHP","A3HFZPC8QR1Y54","338431Z1FL1IVIVZ3BK6A6QS21HROA","","null","<img src=""img/land3.png"" style=""width:200px; border:14px solid green;"">","null","","","","","","",""
"","image-keyboard-response","96","66809","0.0-96.0","32Z9ZLUT1M67S8FQY8DELLKAM9COHP","A3HFZPC8QR1Y54","338431Z1FL1IVIVZ3BK6A6QS21HROA","","625","img/land2.png","75","627","2","1","2","1,0.7,0.7,0.7,1,0.7,0.7,0.7,1","",""
"","html-keyboard-response","97","67113","0.0-97.0","32Z9ZLUT1M67S8FQY8DELLKAM9COHP","A3HFZPC8QR1Y54","338431Z1FL1IVIVZ3BK6A6QS21HROA","","null","<img src=""img/land2.png"" style=""width:200px; border:14px solid green;"">","null","","","","","","",""
"","image-keyboard-response","98","67683","0.0-98.0","32Z9ZLUT1M67S8FQY8DELLKAM9COHP","A3HFZPC8QR1Y54","338431Z1FL1IVIVZ3BK6A6QS21HROA","","569","img/land3.png","76","570","3","1","3","1,0.7,0.7,0.7,1,0.7,0.7,0.7,1","",""
"","html-keyboard-response","99","67986","0.0-99.0","32Z9ZLUT1M67S8FQY8DELLKAM9COHP","A3HFZPC8QR1Y54","338431Z1FL1IVIVZ3BK6A6QS21HROA","","null","<img src=""img/land3.png"" style=""width:200px; border:14px solid green;"">","null","","","","","","",""
"","image-keyboard-response","100","68596","0.0-100.0","32Z9ZLUT1M67S8FQY8DELLKAM9COHP","A3HFZPC8QR1Y54","338431Z1FL1IVIVZ3BK6A6QS21HROA","","609","img/land2.png","75","611","2","1","2","1,0.7,0.7,0.7,1,0.7,0.7,0.7,1","",""
"","html-keyboard-response","101","68899","0.0-101.0","32Z9ZLUT1M67S8FQY8DELLKAM9COHP","A3HFZPC8QR1Y54","338431Z1FL1IVIVZ3BK6A6QS21HROA","","null","<img src=""img/land2.png"" style=""width:200px; border:14px solid green;"">","null","","","","","","",""
"","image-keyboard-response","102","69527","0.0-102.0","32Z9ZLUT1M67S8FQY8DELLKAM9COHP","A3HFZPC8QR1Y54","338431Z1FL1IVIVZ3BK6A6QS21HROA","","625","img/land1.png","74","626.9999999999854","1","1","1","1,0.7,0.7,0.7,1,0.7,0.7,0.7,1","",""
"","html-keyboard-response","103","69829","0.0-103.0","32Z9ZLUT1M67S8FQY8DELLKAM9COHP","A3HFZPC8QR1Y54","338431Z1FL1IVIVZ3BK6A6QS21HROA","","null","<img src=""img/land1.png"" style=""width:200px; border:14px solid green;"">","null","","","","","","",""
"","image-keyboard-response","104","70528","0.0-104.0","32Z9ZLUT1M67S8FQY8DELLKAM9COHP","A3HFZPC8QR1Y54","338431Z1FL1IVIVZ3BK6A6QS21HROA","","696.0000000000146","img/land2.png","75","698","2","1","2","1,0.7,0.7,0.7,1,0.7,0.7,0.7,1","",""
"","html-keyboard-response","105","70831","0.0-105.0","32Z9ZLUT1M67S8FQY8DELLKAM9COHP","A3HFZPC8QR1Y54","338431Z1FL1IVIVZ3BK6A6QS21HROA","","null","<img src=""img/land2.png"" style=""width:200px; border:14px solid green;"">","null","","","","","","",""
"","image-keyboard-response","106","71552","0.0-106.0","32Z9ZLUT1M67S8FQY8DELLKAM9COHP","A3HFZPC8QR1Y54","338431Z1FL1IVIVZ3BK6A6QS21HROA","","719","img/land3.png","76","720","3","1","3","1,0.7,0.7,0.7,1,0.7,0.7,0.7,1","",""
"","html-keyboard-response","107","71855","0.0-107.0","32Z9ZLUT1M67S8FQY8DELLKAM9COHP","A3HFZPC8QR1Y54","338431Z1FL1IVIVZ3BK6A6QS21HROA","","null","<img src=""img/land3.png"" style=""width:200px; border:14px solid green;"">","null","","","","","","",""
"","image-keyboard-response","108","72210","0.0-108.0","32Z9ZLUT1M67S8FQY8DELLKAM9COHP","A3HFZPC8QR1Y54","338431Z1FL1IVIVZ3BK6A6QS21HROA","","354","img/land3.png","76","355","3","1","3","1,0.7,0.7,0.7,1,0.7,0.7,0.7,1","",""
"","html-keyboard-response","109","72513","0.0-109.0","32Z9ZLUT1M67S8FQY8DELLKAM9COHP","A3HFZPC8QR1Y54","338431Z1FL1IVIVZ3BK6A6QS21HROA","","null","<img src=""img/land3.png"" style=""width:200px; border:14px solid green;"">","null","","","","","","",""
"","image-keyboard-response","110","72830","0.0-110.0","32Z9ZLUT1M67S8FQY8DELLKAM9COHP","A3HFZPC8QR1Y54","338431Z1FL1IVIVZ3BK6A6QS21HROA","","315","img/land3.png","76","317","3","1","3","1,0.7,0.7,0.7,1,0.7,0.7,0.7,1","",""
"","html-keyboard-response","111","73134","0.0-111.0","32Z9ZLUT1M67S8FQY8DELLKAM9COHP","A3HFZPC8QR1Y54","338431Z1FL1IVIVZ3BK6A6QS21HROA","","null","<img src=""img/land3.png"" style=""width:200px; border:14px solid green;"">","null","","","","","","",""
"","image-keyboard-response","112","73453","0.0-112.0","32Z9ZLUT1M67S8FQY8DELLKAM9COHP","A3HFZPC8QR1Y54","338431Z1FL1IVIVZ3BK6A6QS21HROA","","317","img/land3.png","76","319","3","1","3","1,0.7,0.7,0.7,1,0.7,0.7,0.7,1","",""
"","html-keyboard-response","113","73756","0.0-113.0","32Z9ZLUT1M67S8FQY8DELLKAM9COHP","A3HFZPC8QR1Y54","338431Z1FL1IVIVZ3BK6A6QS21HROA","","null","<img src=""img/land3.png"" style=""width:200px; border:14px solid green;"">","null","","","","","","",""
"","image-keyboard-response","114","74330","0.0-114.0","32Z9ZLUT1M67S8FQY8DELLKAM9COHP","A3HFZPC8QR1Y54","338431Z1FL1IVIVZ3BK6A6QS21HROA","","572","img/land1.png","74","574","1","1","1","1,0.7,0.7,0.7,1,0.7,0.7,0.7,1","",""
"","html-keyboard-response","115","74633","0.0-115.0","32Z9ZLUT1M67S8FQY8DELLKAM9COHP","A3HFZPC8QR1Y54","338431Z1FL1IVIVZ3BK6A6QS21HROA","","null","<img src=""img/land1.png"" style=""width:200px; border:14px solid green;"">","null","","","","","","",""
"","image-keyboard-response","116","75062","0.0-116.0","32Z9ZLUT1M67S8FQY8DELLKAM9COHP","A3HFZPC8QR1Y54","338431Z1FL1IVIVZ3BK6A6QS21HROA","","428","img/land2.png","75","428","2","1","2","1,0.7,0.7,0.7,1,0.7,0.7,0.7,1","",""
"","html-keyboard-response","117","75364","0.0-117.0","32Z9ZLUT1M67S8FQY8DELLKAM9COHP","A3HFZPC8QR1Y54","338431Z1FL1IVIVZ3BK6A6QS21HROA","","null","<img src=""img/land2.png"" style=""width:200px; border:14px solid green;"">","null","","","","","","",""
"","image-keyboard-response","118","75970","0.0-118.0","32Z9ZLUT1M67S8FQY8DELLKAM9COHP","A3HFZPC8QR1Y54","338431Z1FL1IVIVZ3BK6A6QS21HROA","","603","img/land3.png","76","605","3","1","3","1,0.7,0.7,0.7,1,0.7,0.7,0.7,1","",""
"","html-keyboard-response","119","76273","0.0-119.0","32Z9ZLUT1M67S8FQY8DELLKAM9COHP","A3HFZPC8QR1Y54","338431Z1FL1IVIVZ3BK6A6QS21HROA","","null","<img src=""img/land3.png"" style=""width:200px; border:14px solid green;"">","null","","","","","","",""
"","image-keyboard-response","120","77017","0.0-120.0","32Z9ZLUT1M67S8FQY8DELLKAM9COHP","A3HFZPC8QR1Y54","338431Z1FL1IVIVZ3BK6A6QS21HROA","","743","img/land2.png","75","745","2","1","2","1,0.7,0.7,0.7,1,0.7,0.7,0.7,1","",""
"","html-keyboard-response","121","77319","0.0-121.0","32Z9ZLUT1M67S8FQY8DELLKAM9COHP","A3HFZPC8QR1Y54","338431Z1FL1IVIVZ3BK6A6QS21HROA","","null","<img src=""img/land2.png"" style=""width:200px; border:14px solid green;"">","null","","","","","","",""
"","image-keyboard-response","122","77712","0.0-122.0","32Z9ZLUT1M67S8FQY8DELLKAM9COHP","A3HFZPC8QR1Y54","338431Z1FL1IVIVZ3BK6A6QS21HROA","","391","img/land2.png","75","392","2","1","2","1,0.7,0.7,0.7,1,0.7,0.7,0.7,1","",""
"","html-keyboard-response","123","78014","0.0-123.0","32Z9ZLUT1M67S8FQY8DELLKAM9COHP","A3HFZPC8QR1Y54","338431Z1FL1IVIVZ3BK6A6QS21HROA","","null","<img src=""img/land2.png"" style=""width:200px; border:14px solid green;"">","null","","","","","","",""
"","image-keyboard-response","124","78924","0.0-124.0","32Z9ZLUT1M67S8FQY8DELLKAM9COHP","A3HFZPC8QR1Y54","338431Z1FL1IVIVZ3BK6A6QS21HROA","","907.9999999999854","img/land3.png","74","910","1","1","3","1,0.7,0.7,0.7,1,0.7,0.7,0.7,1","",""
"","html-keyboard-response","125","79227","0.0-125.0","32Z9ZLUT1M67S8FQY8DELLKAM9COHP","A3HFZPC8QR1Y54","338431Z1FL1IVIVZ3BK6A6QS21HROA","","null","<img src=""img/land3.png"" style=""width:200px; border:14px solid green;"">","null","","","","","","",""
"","image-keyboard-response","126","79921","0.0-126.0","32Z9ZLUT1M67S8FQY8DELLKAM9COHP","A3HFZPC8QR1Y54","338431Z1FL1IVIVZ3BK6A6QS21HROA","","692.0000000000146","img/land2.png","75","694","2","1","2","1,0.7,0.7,0.7,1,0.7,0.7,0.7,1","",""
"","html-keyboard-response","127","80223","0.0-127.0","32Z9ZLUT1M67S8FQY8DELLKAM9COHP","A3HFZPC8QR1Y54","338431Z1FL1IVIVZ3BK6A6QS21HROA","","null","<img src=""img/land2.png"" style=""width:200px; border:14px solid green;"">","null","","","","","","",""
"","image-keyboard-response","128","81205","0.0-128.0","32Z9ZLUT1M67S8FQY8DELLKAM9COHP","A3HFZPC8QR1Y54","338431Z1FL1IVIVZ3BK6A6QS21HROA","","981","img/land1.png","74","983","1","1","1","1,0.7,0.7,0.7,1,0.7,0.7,0.7,1","",""
"","html-keyboard-response","129","81509","0.0-129.0","32Z9ZLUT1M67S8FQY8DELLKAM9COHP","A3HFZPC8QR1Y54","338431Z1FL1IVIVZ3BK6A6QS21HROA","","null","<img src=""img/land1.png"" style=""width:200px; border:14px solid green;"">","null","","","","","","",""
"","image-keyboard-response","130","81843","0.0-130.0","32Z9ZLUT1M67S8FQY8DELLKAM9COHP","A3HFZPC8QR1Y54","338431Z1FL1IVIVZ3BK6A6QS21HROA","","332","img/land1.png","74","333.99999999998545","1","1","1","1,0.7,0.7,0.7,1,0.7,0.7,0.7,1","",""
"","html-keyboard-response","131","82145","0.0-131.0","32Z9ZLUT1M67S8FQY8DELLKAM9COHP","A3HFZPC8QR1Y54","338431Z1FL1IVIVZ3BK6A6QS21HROA","","null","<img src=""img/land1.png"" style=""width:200px; border:14px solid green;"">","null","","","","","","",""
"","image-keyboard-response","132","82944","0.0-132.0","32Z9ZLUT1M67S8FQY8DELLKAM9COHP","A3HFZPC8QR1Y54","338431Z1FL1IVIVZ3BK6A6QS21HROA","","797.9999999999854","img/land3.png","76","799","3","1","3","1,0.7,0.7,0.7,1,0.7,0.7,0.7,1","",""
"","html-keyboard-response","133","83247","0.0-133.0","32Z9ZLUT1M67S8FQY8DELLKAM9COHP","A3HFZPC8QR1Y54","338431Z1FL1IVIVZ3BK6A6QS21HROA","","null","<img src=""img/land3.png"" style=""width:200px; border:14px solid green;"">","null","","","","","","",""
"","image-keyboard-response","134","84613","0.0-134.0","32Z9ZLUT1M67S8FQY8DELLKAM9COHP","A3HFZPC8QR1Y54","338431Z1FL1IVIVZ3BK6A6QS21HROA","","1364","img/land1.png","74","1366","1","1","1","1,0.7,0.7,0.7,1,0.7,0.7,0.7,1","",""
"","html-keyboard-response","135","84916","0.0-135.0","32Z9ZLUT1M67S8FQY8DELLKAM9COHP","A3HFZPC8QR1Y54","338431Z1FL1IVIVZ3BK6A6QS21HROA","","null","<img src=""img/land1.png"" style=""width:200px; border:14px solid green;"">","null","","","","","","",""
"","image-keyboard-response","136","85518","0.0-136.0","32Z9ZLUT1M67S8FQY8DELLKAM9COHP","A3HFZPC8QR1Y54","338431Z1FL1IVIVZ3BK6A6QS21HROA","","598","img/land2.png","75","600.0000000000146","2","1","2","1,0.7,0.7,0.7,1,0.7,0.7,0.7,1","",""
"","html-keyboard-response","137","85821","0.0-137.0","32Z9ZLUT1M67S8FQY8DELLKAM9COHP","A3HFZPC8QR1Y54","338431Z1FL1IVIVZ3BK6A6QS21HROA","","null","<img src=""img/land2.png"" style=""width:200px; border:14px solid green;"">","null","","","","","","",""
"","image-keyboard-response","138","86405","0.0-138.0","32Z9ZLUT1M67S8FQY8DELLKAM9COHP","A3HFZPC8QR1Y54","338431Z1FL1IVIVZ3BK6A6QS21HROA","","582.0000000000146","img/land2.png","75","584.0000000000146","2","1","2","1,0.7,0.7,0.7,1,0.7,0.7,0.7,1","",""
"","html-keyboard-response","139","86708","0.0-139.0","32Z9ZLUT1M67S8FQY8DELLKAM9COHP","A3HFZPC8QR1Y54","338431Z1FL1IVIVZ3BK6A6QS21HROA","","null","<img src=""img/land2.png"" style=""width:200px; border:14px solid green;"">","null","","","","","","",""
"","image-keyboard-response","140","87283","0.0-140.0","32Z9ZLUT1M67S8FQY8DELLKAM9COHP","A3HFZPC8QR1Y54","338431Z1FL1IVIVZ3BK6A6QS21HROA","","574.0000000000146","img/land3.png","76","575.0000000000146","3","1","3","1,0.7,0.7,0.7,1,0.7,0.7,0.7,1","",""
"","html-keyboard-response","141","87585","0.0-141.0","32Z9ZLUT1M67S8FQY8DELLKAM9COHP","A3HFZPC8QR1Y54","338431Z1FL1IVIVZ3BK6A6QS21HROA","","null","<img src=""img/land3.png"" style=""width:200px; border:14px solid green;"">","null","","","","","","",""
"","image-keyboard-response","142","88133","0.0-142.0","32Z9ZLUT1M67S8FQY8DELLKAM9COHP","A3HFZPC8QR1Y54","338431Z1FL1IVIVZ3BK6A6QS21HROA","","544","img/land2.png","75","546","2","1","2","1,0.7,0.7,0.7,1,0.7,0.7,0.7,1","",""
"","html-keyboard-response","143","88436","0.0-143.0","32Z9ZLUT1M67S8FQY8DELLKAM9COHP","A3HFZPC8QR1Y54","338431Z1FL1IVIVZ3BK6A6QS21HROA","","null","<img src=""img/land2.png"" style=""width:200px; border:14px solid green;"">","null","","","","","","",""
"","image-keyboard-response","144","88938","0.0-144.0","32Z9ZLUT1M67S8FQY8DELLKAM9COHP","A3HFZPC8QR1Y54","338431Z1FL1IVIVZ3BK6A6QS21HROA","","499","img/land3.png","76","501","3","1","3","1,0.7,0.7,0.7,1,0.7,0.7,0.7,1","",""
"","html-keyboard-response","145","89241","0.0-145.0","32Z9ZLUT1M67S8FQY8DELLKAM9COHP","A3HFZPC8QR1Y54","338431Z1FL1IVIVZ3BK6A6QS21HROA","","null","<img src=""img/land3.png"" style=""width:200px; border:14px solid green;"">","null","","","","","","",""
"","image-keyboard-response","146","89634","0.0-146.0","32Z9ZLUT1M67S8FQY8DELLKAM9COHP","A3HFZPC8QR1Y54","338431Z1FL1IVIVZ3BK6A6QS21HROA","","390","img/land3.png","76","392.00000000001455","3","1","3","1,0.7,0.7,0.7,1,0.7,0.7,0.7,1","",""
"","html-keyboard-response","147","89937","0.0-147.0","32Z9ZLUT1M67S8FQY8DELLKAM9COHP","A3HFZPC8QR1Y54","338431Z1FL1IVIVZ3BK6A6QS21HROA","","null","<img src=""img/land3.png"" style=""width:200px; border:14px solid green;"">","null","","","","","","",""
"","image-keyboard-response","148","90633","0.0-148.0","32Z9ZLUT1M67S8FQY8DELLKAM9COHP","A3HFZPC8QR1Y54","338431Z1FL1IVIVZ3BK6A6QS21HROA","","693","img/land1.png","74","696","1","1","1","1,0.7,0.7,0.7,1,0.7,0.7,0.7,1","",""
"","html-keyboard-response","149","90935","0.0-149.0","32Z9ZLUT1M67S8FQY8DELLKAM9COHP","A3HFZPC8QR1Y54","338431Z1FL1IVIVZ3BK6A6QS21HROA","","null","<img src=""img/land1.png"" style=""width:200px; border:14px solid green;"">","null","","","","","","",""
"","image-keyboard-response","150","91257","0.0-150.0","32Z9ZLUT1M67S8FQY8DELLKAM9COHP","A3HFZPC8QR1Y54","338431Z1FL1IVIVZ3BK6A6QS21HROA","","320","img/land1.png","74","322","1","1","1","1,0.7,0.7,0.7,1,0.7,0.7,0.7,1","",""
"","html-keyboard-response","151","91560","0.0-151.0","32Z9ZLUT1M67S8FQY8DELLKAM9COHP","A3HFZPC8QR1Y54","338431Z1FL1IVIVZ3BK6A6QS21HROA","","null","<img src=""img/land1.png"" style=""width:200px; border:14px solid green;"">","null","","","","","","",""
"","image-keyboard-response","152","92226","0.0-152.0","32Z9ZLUT1M67S8FQY8DELLKAM9COHP","A3HFZPC8QR1Y54","338431Z1FL1IVIVZ3BK6A6QS21HROA","","664","img/land3.png","76","666","3","1","3","1,0.7,0.7,0.7,1,0.7,0.7,0.7,1","",""
"","html-keyboard-response","153","92528","0.0-153.0","32Z9ZLUT1M67S8FQY8DELLKAM9COHP","A3HFZPC8QR1Y54","338431Z1FL1IVIVZ3BK6A6QS21HROA","","null","<img src=""img/land3.png"" style=""width:200px; border:14px solid green;"">","null","","","","","","",""
"","image-keyboard-response","154","93201","0.0-154.0","32Z9ZLUT1M67S8FQY8DELLKAM9COHP","A3HFZPC8QR1Y54","338431Z1FL1IVIVZ3BK6A6QS21HROA","","669.9999999999854","img/land1.png","74","672","1","1","1","1,0.7,0.7,0.7,1,0.7,0.7,0.7,1","",""
"","html-keyboard-response","155","93504","0.0-155.0","32Z9ZLUT1M67S8FQY8DELLKAM9COHP","A3HFZPC8QR1Y54","338431Z1FL1IVIVZ3BK6A6QS21HROA","","null","<img src=""img/land1.png"" style=""width:200px; border:14px solid green;"">","null","","","","","","",""
"","image-keyboard-response","156","94450","0.0-156.0","32Z9ZLUT1M67S8FQY8DELLKAM9COHP","A3HFZPC8QR1Y54","338431Z1FL1IVIVZ3BK6A6QS21HROA","","945","img/land3.png","76","946","3","1","3","1,0.7,0.7,0.7,1,0.7,0.7,0.7,1","",""
"","html-keyboard-response","157","94752","0.0-157.0","32Z9ZLUT1M67S8FQY8DELLKAM9COHP","A3HFZPC8QR1Y54","338431Z1FL1IVIVZ3BK6A6QS21HROA","","null","<img src=""img/land3.png"" style=""width:200px; border:14px solid green;"">","null","","","","","","",""
"","image-keyboard-response","158","95070","0.0-158.0","32Z9ZLUT1M67S8FQY8DELLKAM9COHP","A3HFZPC8QR1Y54","338431Z1FL1IVIVZ3BK6A6QS21HROA","","317","img/land3.png","76","318","3","1","3","1,0.7,0.7,0.7,1,0.7,0.7,0.7,1","",""
"","html-keyboard-response","159","95374","0.0-159.0","32Z9ZLUT1M67S8FQY8DELLKAM9COHP","A3HFZPC8QR1Y54","338431Z1FL1IVIVZ3BK6A6QS21HROA","","null","<img src=""img/land3.png"" style=""width:200px; border:14px solid green;"">","null","","","","","","",""
"","image-keyboard-response","160","96942","0.0-160.0","32Z9ZLUT1M67S8FQY8DELLKAM9COHP","A3HFZPC8QR1Y54","338431Z1FL1IVIVZ3BK6A6QS21HROA","","1567","img/land2.png","75","1568","2","1","2","1,0.7,0.7,0.7,1,0.7,0.7,0.7,1","",""
"","html-keyboard-response","161","97246","0.0-161.0","32Z9ZLUT1M67S8FQY8DELLKAM9COHP","A3HFZPC8QR1Y54","338431Z1FL1IVIVZ3BK6A6QS21HROA","","null","<img src=""img/land2.png"" style=""width:200px; border:14px solid green;"">","null","","","","","","",""
"","image-keyboard-response","162","97554","0.0-162.0","32Z9ZLUT1M67S8FQY8DELLKAM9COHP","A3HFZPC8QR1Y54","338431Z1FL1IVIVZ3BK6A6QS21HROA","","305","img/land2.png","75","308.00000000001455","2","1","2","1,0.7,0.7,0.7,1,0.7,0.7,0.7,1","",""
"","html-keyboard-response","163","97857","0.0-163.0","32Z9ZLUT1M67S8FQY8DELLKAM9COHP","A3HFZPC8QR1Y54","338431Z1FL1IVIVZ3BK6A6QS21HROA","","null","<img src=""img/land2.png"" style=""width:200px; border:14px solid green;"">","null","","","","","","",""
"","image-keyboard-response","164","98165","0.0-164.0","32Z9ZLUT1M67S8FQY8DELLKAM9COHP","A3HFZPC8QR1Y54","338431Z1FL1IVIVZ3BK6A6QS21HROA","","307","img/land2.png","75","308","2","1","2","1,0.7,0.7,0.7,1,0.7,0.7,0.7,1","",""
"","html-keyboard-response","165","98467","0.0-165.0","32Z9ZLUT1M67S8FQY8DELLKAM9COHP","A3HFZPC8QR1Y54","338431Z1FL1IVIVZ3BK6A6QS21HROA","","null","<img src=""img/land2.png"" style=""width:200px; border:14px solid green;"">","null","","","","","","",""
"","image-keyboard-response","166","101033","0.0-166.0","32Z9ZLUT1M67S8FQY8DELLKAM9COHP","A3HFZPC8QR1Y54","338431Z1FL1IVIVZ3BK6A6QS21HROA","","2565.0000000000146","img/land2.png","75","2565.0000000000146","2","1","2","1,0.7,0.7,0.7,1,0.7,0.7,0.7,1","",""
"","html-keyboard-response","167","101336","0.0-167.0","32Z9ZLUT1M67S8FQY8DELLKAM9COHP","A3HFZPC8QR1Y54","338431Z1FL1IVIVZ3BK6A6QS21HROA","","null","<img src=""img/land2.png"" style=""width:200px; border:14px solid green;"">","null","","","","","","",""
"","image-keyboard-response","168","102679","0.0-168.0","32Z9ZLUT1M67S8FQY8DELLKAM9COHP","A3HFZPC8QR1Y54","338431Z1FL1IVIVZ3BK6A6QS21HROA","","1341.0000000000146","img/land2.png","75","1342.0000000000146","2","1","2","1,0.7,0.7,0.7,1,0.7,0.7,0.7,1","",""
"","html-keyboard-response","169","102981","0.0-169.0","32Z9ZLUT1M67S8FQY8DELLKAM9COHP","A3HFZPC8QR1Y54","338431Z1FL1IVIVZ3BK6A6QS21HROA","","null","<img src=""img/land2.png"" style=""width:200px; border:14px solid green;"">","null","","","","","","",""
"","html-keyboard-response","170","120225","0.0-170.0","32Z9ZLUT1M67S8FQY8DELLKAM9COHP","A3HFZPC8QR1Y54","338431Z1FL1IVIVZ3BK6A6QS21HROA","","","","","","","","","","",""
"","image-keyboard-response","171","121270","0.0-171.0","32Z9ZLUT1M67S8FQY8DELLKAM9COHP","A3HFZPC8QR1Y54","338431Z1FL1IVIVZ3BK6A6QS21HROA","","1044.0000000000146","img/land6.png","74","1045","1","0","3","1,0.7,0.7,0.7,1,0.7,0.7,0.7,1","",""
"","html-keyboard-response","172","121573","0.0-172.0","32Z9ZLUT1M67S8FQY8DELLKAM9COHP","A3HFZPC8QR1Y54","338431Z1FL1IVIVZ3BK6A6QS21HROA","","null","<img src=""img/land6.png"" style=""width:200px;border:14px solid red;"">","null","","","","","","",""
"","image-keyboard-response","173","122424","0.0-173.0","32Z9ZLUT1M67S8FQY8DELLKAM9COHP","A3HFZPC8QR1Y54","338431Z1FL1IVIVZ3BK6A6QS21HROA","","848","img/land5.png","75","851.0000000000146","2","1","2","1,0.7,0.7,0.7,1,0.7,0.7,0.7,1","",""
"","html-keyboard-response","174","122728","0.0-174.0","32Z9ZLUT1M67S8FQY8DELLKAM9COHP","A3HFZPC8QR1Y54","338431Z1FL1IVIVZ3BK6A6QS21HROA","","null","<img src=""img/land5.png"" style=""width:200px; border:14px solid green;"">","null","","","","","","",""
"","image-keyboard-response","175","123128","0.0-175.0","32Z9ZLUT1M67S8FQY8DELLKAM9COHP","A3HFZPC8QR1Y54","338431Z1FL1IVIVZ3BK6A6QS21HROA","","396","img/land5.png","75","398","2","1","2","1,0.7,0.7,0.7,1,0.7,0.7,0.7,1","",""
"","html-keyboard-response","176","123431","0.0-176.0","32Z9ZLUT1M67S8FQY8DELLKAM9COHP","A3HFZPC8QR1Y54","338431Z1FL1IVIVZ3BK6A6QS21HROA","","null","<img src=""img/land5.png"" style=""width:200px; border:14px solid green;"">","null","","","","","","",""
"","image-keyboard-response","177","124139","0.0-177.0","32Z9ZLUT1M67S8FQY8DELLKAM9COHP","A3HFZPC8QR1Y54","338431Z1FL1IVIVZ3BK6A6QS21HROA","","706.0000000000146","img/land4.png","76","708","3","1","1","1,0.7,0.7,0.7,1,0.7,0.7,0.7,1","",""
"","html-keyboard-response","178","124442","0.0-178.0","32Z9ZLUT1M67S8FQY8DELLKAM9COHP","A3HFZPC8QR1Y54","338431Z1FL1IVIVZ3BK6A6QS21HROA","","null","<img src=""img/land4.png"" style=""width:200px; border:14px solid green;"">","null","","","","","","",""
"","image-keyboard-response","179","124954","0.0-179.0","32Z9ZLUT1M67S8FQY8DELLKAM9COHP","A3HFZPC8QR1Y54","338431Z1FL1IVIVZ3BK6A6QS21HROA","","510","img/land6.png","74","511.99999999998545","1","1","3","1,0.7,0.7,0.7,1,0.7,0.7,0.7,1","",""
"","html-keyboard-response","180","125258","0.0-180.0","32Z9ZLUT1M67S8FQY8DELLKAM9COHP","A3HFZPC8QR1Y54","338431Z1FL1IVIVZ3BK6A6QS21HROA","","null","<img src=""img/land6.png"" style=""width:200px; border:14px solid green;"">","null","","","","","","",""
"","image-keyboard-response","181","125704","0.0-181.0","32Z9ZLUT1M67S8FQY8DELLKAM9COHP","A3HFZPC8QR1Y54","338431Z1FL1IVIVZ3BK6A6QS21HROA","","443.99999999998545","img/land4.png","75","446","2","1","1","1,0.7,0.7,0.7,1,0.7,0.7,0.7,1","",""
"","html-keyboard-response","182","126007","0.0-182.0","32Z9ZLUT1M67S8FQY8DELLKAM9COHP","A3HFZPC8QR1Y54","338431Z1FL1IVIVZ3BK6A6QS21HROA","","null","<img src=""img/land4.png"" style=""width:200px; border:14px solid green;"">","null","","","","","","",""
"","image-keyboard-response","183","126340","0.0-183.0","32Z9ZLUT1M67S8FQY8DELLKAM9COHP","A3HFZPC8QR1Y54","338431Z1FL1IVIVZ3BK6A6QS21HROA","","331.00000000001455","img/land4.png","75","332.00000000001455","2","1","1","1,0.7,0.7,0.7,1,0.7,0.7,0.7,1","",""
"","html-keyboard-response","184","126642","0.0-184.0","32Z9ZLUT1M67S8FQY8DELLKAM9COHP","A3HFZPC8QR1Y54","338431Z1FL1IVIVZ3BK6A6QS21HROA","","null","<img src=""img/land4.png"" style=""width:200px; border:14px solid green;"">","null","","","","","","",""
"","image-keyboard-response","185","126982","0.0-185.0","32Z9ZLUT1M67S8FQY8DELLKAM9COHP","A3HFZPC8QR1Y54","338431Z1FL1IVIVZ3BK6A6QS21HROA","","338.0000000000291","img/land4.png","75","339","2","0","1","1,0.7,0.7,0.7,1,0.7,0.7,0.7,1","",""
"","html-keyboard-response","186","127284","0.0-186.0","32Z9ZLUT1M67S8FQY8DELLKAM9COHP","A3HFZPC8QR1Y54","338431Z1FL1IVIVZ3BK6A6QS21HROA","","null","<img src=""img/land4.png"" style=""width:200px;border:14px solid red;"">","null","","","","","","",""
"","image-keyboard-response","187","127664","0.0-187.0","32Z9ZLUT1M67S8FQY8DELLKAM9COHP","A3HFZPC8QR1Y54","338431Z1FL1IVIVZ3BK6A6QS21HROA","","377.99999999998545","img/land4.png","75","378.99999999998545","2","1","1","1,0.7,0.7,0.7,1,0.7,0.7,0.7,1","",""
"","html-keyboard-response","188","127967","0.0-188.0","32Z9ZLUT1M67S8FQY8DELLKAM9COHP","A3HFZPC8QR1Y54","338431Z1FL1IVIVZ3BK6A6QS21HROA","","null","<img src=""img/land4.png"" style=""width:200px; border:14px solid green;"">","null","","","","","","",""
"","image-keyboard-response","189","128827","0.0-189.0","32Z9ZLUT1M67S8FQY8DELLKAM9COHP","A3HFZPC8QR1Y54","338431Z1FL1IVIVZ3BK6A6QS21HROA","","858","img/land5.png","76","860.0000000000291","3","1","2","1,0.7,0.7,0.7,1,0.7,0.7,0.7,1","",""
"","html-keyboard-response","190","129132","0.0-190.0","32Z9ZLUT1M67S8FQY8DELLKAM9COHP","A3HFZPC8QR1Y54","338431Z1FL1IVIVZ3BK6A6QS21HROA","","null","<img src=""img/land5.png"" style=""width:200px; border:14px solid green;"">","null","","","","","","",""
"","image-keyboard-response","191","129440","0.0-191.0","32Z9ZLUT1M67S8FQY8DELLKAM9COHP","A3HFZPC8QR1Y54","338431Z1FL1IVIVZ3BK6A6QS21HROA","","306","img/land5.png","76","307","3","1","2","1,0.7,0.7,0.7,1,0.7,0.7,0.7,1","",""
"","html-keyboard-response","192","129743","0.0-192.0","32Z9ZLUT1M67S8FQY8DELLKAM9COHP","A3HFZPC8QR1Y54","338431Z1FL1IVIVZ3BK6A6QS21HROA","","null","<img src=""img/land5.png"" style=""width:200px; border:14px solid green;"">","null","","","","","","",""
"","image-keyboard-response","193","130693","0.0-193.0","32Z9ZLUT1M67S8FQY8DELLKAM9COHP","A3HFZPC8QR1Y54","338431Z1FL1IVIVZ3BK6A6QS21HROA","","947.9999999999709","img/land4.png","75","950","2","0","1","1,0.7,0.7,0.7,1,0.7,0.7,0.7,1","",""
"","html-keyboard-response","194","130996","0.0-194.0","32Z9ZLUT1M67S8FQY8DELLKAM9COHP","A3HFZPC8QR1Y54","338431Z1FL1IVIVZ3BK6A6QS21HROA","","null","<img src=""img/land4.png"" style=""width:200px;border:14px solid red;"">","null","","","","","","",""
"","image-keyboard-response","195","131450","0.0-195.0","32Z9ZLUT1M67S8FQY8DELLKAM9COHP","A3HFZPC8QR1Y54","338431Z1FL1IVIVZ3BK6A6QS21HROA","","452","img/land4.png","74","454","1","1","1","1,0.7,0.7,0.7,1,0.7,0.7,0.7,1","",""
"","html-keyboard-response","196","131752","0.0-196.0","32Z9ZLUT1M67S8FQY8DELLKAM9COHP","A3HFZPC8QR1Y54","338431Z1FL1IVIVZ3BK6A6QS21HROA","","null","<img src=""img/land4.png"" style=""width:200px; border:14px solid green;"">","null","","","","","","",""
"","image-keyboard-response","197","132362","0.0-197.0","32Z9ZLUT1M67S8FQY8DELLKAM9COHP","A3HFZPC8QR1Y54","338431Z1FL1IVIVZ3BK6A6QS21HROA","","608","img/land6.png","75","609","2","0","3","1,0.7,0.7,0.7,1,0.7,0.7,0.7,1","",""
"","html-keyboard-response","198","132664","0.0-198.0","32Z9ZLUT1M67S8FQY8DELLKAM9COHP","A3HFZPC8QR1Y54","338431Z1FL1IVIVZ3BK6A6QS21HROA","","null","<img src=""img/land6.png"" style=""width:200px;border:14px solid red;"">","null","","","","","","",""
"","image-keyboard-response","199","133444","0.0-199.0","32Z9ZLUT1M67S8FQY8DELLKAM9COHP","A3HFZPC8QR1Y54","338431Z1FL1IVIVZ3BK6A6QS21HROA","","778","img/land5.png","76","780","3","0","2","1,0.7,0.7,0.7,1,0.7,0.7,0.7,1","",""
"","html-keyboard-response","200","133748","0.0-200.0","32Z9ZLUT1M67S8FQY8DELLKAM9COHP","A3HFZPC8QR1Y54","338431Z1FL1IVIVZ3BK6A6QS21HROA","","null","<img src=""img/land5.png"" style=""width:200px;border:14px solid red;"">","null","","","","","","",""
"","image-keyboard-response","201","134346","0.0-201.0","32Z9ZLUT1M67S8FQY8DELLKAM9COHP","A3HFZPC8QR1Y54","338431Z1FL1IVIVZ3BK6A6QS21HROA","","597","img/land6.png","75","598","2","1","3","1,0.7,0.7,0.7,1,0.7,0.7,0.7,1","",""
"","html-keyboard-response","202","134649","0.0-202.0","32Z9ZLUT1M67S8FQY8DELLKAM9COHP","A3HFZPC8QR1Y54","338431Z1FL1IVIVZ3BK6A6QS21HROA","","null","<img src=""img/land6.png"" style=""width:200px; border:14px solid green;"">","null","","","","","","",""
"","image-keyboard-response","203","134992","0.0-203.0","32Z9ZLUT1M67S8FQY8DELLKAM9COHP","A3HFZPC8QR1Y54","338431Z1FL1IVIVZ3BK6A6QS21HROA","","341","img/land6.png","75","343","2","1","3","1,0.7,0.7,0.7,1,0.7,0.7,0.7,1","",""
"","html-keyboard-response","204","135295","0.0-204.0","32Z9ZLUT1M67S8FQY8DELLKAM9COHP","A3HFZPC8QR1Y54","338431Z1FL1IVIVZ3BK6A6QS21HROA","","null","<img src=""img/land6.png"" style=""width:200px; border:14px solid green;"">","null","","","","","","",""
"","image-keyboard-response","205","136239","0.0-205.0","32Z9ZLUT1M67S8FQY8DELLKAM9COHP","A3HFZPC8QR1Y54","338431Z1FL1IVIVZ3BK6A6QS21HROA","","942.0000000000291","img/land4.png","74","944","1","1","1","1,0.7,0.7,0.7,1,0.7,0.7,0.7,1","",""
"","html-keyboard-response","206","136542","0.0-206.0","32Z9ZLUT1M67S8FQY8DELLKAM9COHP","A3HFZPC8QR1Y54","338431Z1FL1IVIVZ3BK6A6QS21HROA","","null","<img src=""img/land4.png"" style=""width:200px; border:14px solid green;"">","null","","","","","","",""
"","image-keyboard-response","207","137016","0.0-207.0","32Z9ZLUT1M67S8FQY8DELLKAM9COHP","A3HFZPC8QR1Y54","338431Z1FL1IVIVZ3BK6A6QS21HROA","","472","img/land4.png","74","474","1","1","1","1,0.7,0.7,0.7,1,0.7,0.7,0.7,1","",""
"","html-keyboard-response","208","137319","0.0-208.0","32Z9ZLUT1M67S8FQY8DELLKAM9COHP","A3HFZPC8QR1Y54","338431Z1FL1IVIVZ3BK6A6QS21HROA","","null","<img src=""img/land4.png"" style=""width:200px; border:14px solid green;"">","null","","","","","","",""
"","image-keyboard-response","209","138283","0.0-209.0","32Z9ZLUT1M67S8FQY8DELLKAM9COHP","A3HFZPC8QR1Y54","338431Z1FL1IVIVZ3BK6A6QS21HROA","","961","img/land6.png","75","963","2","0","3","1,0.7,0.7,0.7,1,0.7,0.7,0.7,1","",""
"","html-keyboard-response","210","138585","0.0-210.0","32Z9ZLUT1M67S8FQY8DELLKAM9COHP","A3HFZPC8QR1Y54","338431Z1FL1IVIVZ3BK6A6QS21HROA","","null","<img src=""img/land6.png"" style=""width:200px;border:14px solid red;"">","null","","","","","","",""
"","image-keyboard-response","211","139794","0.0-211.0","32Z9ZLUT1M67S8FQY8DELLKAM9COHP","A3HFZPC8QR1Y54","338431Z1FL1IVIVZ3BK6A6QS21HROA","","1206","img/land4.png","75","1209","2","1","1","1,0.7,0.7,0.7,1,0.7,0.7,0.7,1","",""
"","html-keyboard-response","212","140097","0.0-212.0","32Z9ZLUT1M67S8FQY8DELLKAM9COHP","A3HFZPC8QR1Y54","338431Z1FL1IVIVZ3BK6A6QS21HROA","","null","<img src=""img/land4.png"" style=""width:200px; border:14px solid green;"">","null","","","","","","",""
"","image-keyboard-response","213","140719","0.0-213.0","32Z9ZLUT1M67S8FQY8DELLKAM9COHP","A3HFZPC8QR1Y54","338431Z1FL1IVIVZ3BK6A6QS21HROA","","620","img/land5.png","76","622","3","1","2","1,0.7,0.7,0.7,1,0.7,0.7,0.7,1","",""
"","html-keyboard-response","214","141022","0.0-214.0","32Z9ZLUT1M67S8FQY8DELLKAM9COHP","A3HFZPC8QR1Y54","338431Z1FL1IVIVZ3BK6A6QS21HROA","","null","<img src=""img/land5.png"" style=""width:200px; border:14px solid green;"">","null","","","","","","",""
"","image-keyboard-response","215","142594","0.0-215.0","32Z9ZLUT1M67S8FQY8DELLKAM9COHP","A3HFZPC8QR1Y54","338431Z1FL1IVIVZ3BK6A6QS21HROA","","1569","img/land4.png","74","1571","1","1","1","1,0.7,0.7,0.7,1,0.7,0.7,0.7,1","",""
"","html-keyboard-response","216","142897","0.0-216.0","32Z9ZLUT1M67S8FQY8DELLKAM9COHP","A3HFZPC8QR1Y54","338431Z1FL1IVIVZ3BK6A6QS21HROA","","null","<img src=""img/land4.png"" style=""width:200px; border:14px solid green;"">","null","","","","","","",""
"","image-keyboard-response","217","143541","0.0-217.0","32Z9ZLUT1M67S8FQY8DELLKAM9COHP","A3HFZPC8QR1Y54","338431Z1FL1IVIVZ3BK6A6QS21HROA","","642","img/land5.png","75","644","2","1","2","1,0.7,0.7,0.7,1,0.7,0.7,0.7,1","",""
"","html-keyboard-response","218","143844","0.0-218.0","32Z9ZLUT1M67S8FQY8DELLKAM9COHP","A3HFZPC8QR1Y54","338431Z1FL1IVIVZ3BK6A6QS21HROA","","null","<img src=""img/land5.png"" style=""width:200px; border:14px solid green;"">","null","","","","","","",""
"","image-keyboard-response","219","144709","0.0-219.0","32Z9ZLUT1M67S8FQY8DELLKAM9COHP","A3HFZPC8QR1Y54","338431Z1FL1IVIVZ3BK6A6QS21HROA","","862.0000000000291","img/land6.png","75","863.9999999999709","2","1","3","1,0.7,0.7,0.7,1,0.7,0.7,0.7,1","",""
"","html-keyboard-response","220","145012","0.0-220.0","32Z9ZLUT1M67S8FQY8DELLKAM9COHP","A3HFZPC8QR1Y54","338431Z1FL1IVIVZ3BK6A6QS21HROA","","null","<img src=""img/land6.png"" style=""width:200px; border:14px solid green;"">","null","","","","","","",""
"","image-keyboard-response","221","145445","0.0-221.0","32Z9ZLUT1M67S8FQY8DELLKAM9COHP","A3HFZPC8QR1Y54","338431Z1FL1IVIVZ3BK6A6QS21HROA","","431","img/land6.png","75","432.9999999999709","2","1","3","1,0.7,0.7,0.7,1,0.7,0.7,0.7,1","",""
"","html-keyboard-response","222","145748","0.0-222.0","32Z9ZLUT1M67S8FQY8DELLKAM9COHP","A3HFZPC8QR1Y54","338431Z1FL1IVIVZ3BK6A6QS21HROA","","null","<img src=""img/land6.png"" style=""width:200px; border:14px solid green;"">","null","","","","","","",""
"","image-keyboard-response","223","146516","0.0-223.0","32Z9ZLUT1M67S8FQY8DELLKAM9COHP","A3HFZPC8QR1Y54","338431Z1FL1IVIVZ3BK6A6QS21HROA","","764.9999999999709","img/land4.png","74","767","1","1","1","1,0.7,0.7,0.7,1,0.7,0.7,0.7,1","",""
"","html-keyboard-response","224","146818","0.0-224.0","32Z9ZLUT1M67S8FQY8DELLKAM9COHP","A3HFZPC8QR1Y54","338431Z1FL1IVIVZ3BK6A6QS21HROA","","null","<img src=""img/land4.png"" style=""width:200px; border:14px solid green;"">","null","","","","","","",""
"","image-keyboard-response","225","147360","0.0-225.0","32Z9ZLUT1M67S8FQY8DELLKAM9COHP","A3HFZPC8QR1Y54","338431Z1FL1IVIVZ3BK6A6QS21HROA","","538","img/land4.png","74","541","1","1","1","1,0.7,0.7,0.7,1,0.7,0.7,0.7,1","",""
"","html-keyboard-response","226","147663","0.0-226.0","32Z9ZLUT1M67S8FQY8DELLKAM9COHP","A3HFZPC8QR1Y54","338431Z1FL1IVIVZ3BK6A6QS21HROA","","null","<img src=""img/land4.png"" style=""width:200px; border:14px solid green;"">","null","","","","","","",""
"","image-keyboard-response","227","148030","0.0-227.0","32Z9ZLUT1M67S8FQY8DELLKAM9COHP","A3HFZPC8QR1Y54","338431Z1FL1IVIVZ3BK6A6QS21HROA","","364","img/land4.png","74","366","1","1","1","1,0.7,0.7,0.7,1,0.7,0.7,0.7,1","",""
"","html-keyboard-response","228","148332","0.0-228.0","32Z9ZLUT1M67S8FQY8DELLKAM9COHP","A3HFZPC8QR1Y54","338431Z1FL1IVIVZ3BK6A6QS21HROA","","null","<img src=""img/land4.png"" style=""width:200px; border:14px solid green;"">","null","","","","","","",""
"","image-keyboard-response","229","148698","0.0-229.0","32Z9ZLUT1M67S8FQY8DELLKAM9COHP","A3HFZPC8QR1Y54","338431Z1FL1IVIVZ3BK6A6QS21HROA","","364","img/land4.png","74","364.9999999999709","1","1","1","1,0.7,0.7,0.7,1,0.7,0.7,0.7,1","",""
"","html-keyboard-response","230","149001","0.0-230.0","32Z9ZLUT1M67S8FQY8DELLKAM9COHP","A3HFZPC8QR1Y54","338431Z1FL1IVIVZ3BK6A6QS21HROA","","null","<img src=""img/land4.png"" style=""width:200px; border:14px solid green;"">","null","","","","","","",""
"","image-keyboard-response","231","149346","0.0-231.0","32Z9ZLUT1M67S8FQY8DELLKAM9COHP","A3HFZPC8QR1Y54","338431Z1FL1IVIVZ3BK6A6QS21HROA","","343","img/land4.png","74","345","1","1","1","1,0.7,0.7,0.7,1,0.7,0.7,0.7,1","",""
"","html-keyboard-response","232","149649","0.0-232.0","32Z9ZLUT1M67S8FQY8DELLKAM9COHP","A3HFZPC8QR1Y54","338431Z1FL1IVIVZ3BK6A6QS21HROA","","null","<img src=""img/land4.png"" style=""width:200px; border:14px solid green;"">","null","","","","","","",""
"","image-keyboard-response","233","149998","0.0-233.0","32Z9ZLUT1M67S8FQY8DELLKAM9COHP","A3HFZPC8QR1Y54","338431Z1FL1IVIVZ3BK6A6QS21HROA","","347","img/land4.png","74","349","1","1","1","1,0.7,0.7,0.7,1,0.7,0.7,0.7,1","",""
"","html-keyboard-response","234","150302","0.0-234.0","32Z9ZLUT1M67S8FQY8DELLKAM9COHP","A3HFZPC8QR1Y54","338431Z1FL1IVIVZ3BK6A6QS21HROA","","null","<img src=""img/land4.png"" style=""width:200px; border:14px solid green;"">","null","","","","","","",""
"","image-keyboard-response","235","151330","0.0-235.0","32Z9ZLUT1M67S8FQY8DELLKAM9COHP","A3HFZPC8QR1Y54","338431Z1FL1IVIVZ3BK6A6QS21HROA","","1027","img/land6.png","75","1027","2","1","3","1,0.7,0.7,0.7,1,0.7,0.7,0.7,1","",""
"","html-keyboard-response","236","151634","0.0-236.0","32Z9ZLUT1M67S8FQY8DELLKAM9COHP","A3HFZPC8QR1Y54","338431Z1FL1IVIVZ3BK6A6QS21HROA","","null","<img src=""img/land6.png"" style=""width:200px; border:14px solid green;"">","null","","","","","","",""
"","image-keyboard-response","237","152252","0.0-237.0","32Z9ZLUT1M67S8FQY8DELLKAM9COHP","A3HFZPC8QR1Y54","338431Z1FL1IVIVZ3BK6A6QS21HROA","","616","img/land4.png","74","619","1","1","1","1,0.7,0.7,0.7,1,0.7,0.7,0.7,1","",""
"","html-keyboard-response","238","152555","0.0-238.0","32Z9ZLUT1M67S8FQY8DELLKAM9COHP","A3HFZPC8QR1Y54","338431Z1FL1IVIVZ3BK6A6QS21HROA","","null","<img src=""img/land4.png"" style=""width:200px; border:14px solid green;"">","null","","","","","","",""
"","image-keyboard-response","239","153402","0.0-239.0","32Z9ZLUT1M67S8FQY8DELLKAM9COHP","A3HFZPC8QR1Y54","338431Z1FL1IVIVZ3BK6A6QS21HROA","","845","img/land5.png","76","846","3","1","2","1,0.7,0.7,0.7,1,0.7,0.7,0.7,1","",""
"","html-keyboard-response","240","153705","0.0-240.0","32Z9ZLUT1M67S8FQY8DELLKAM9COHP","A3HFZPC8QR1Y54","338431Z1FL1IVIVZ3BK6A6QS21HROA","","null","<img src=""img/land5.png"" style=""width:200px; border:14px solid green;"">","null","","","","","","",""
"","image-keyboard-response","241","154645","0.0-241.0","32Z9ZLUT1M67S8FQY8DELLKAM9COHP","A3HFZPC8QR1Y54","338431Z1FL1IVIVZ3BK6A6QS21HROA","","937","img/land4.png","74","939","1","1","1","1,0.7,0.7,0.7,1,0.7,0.7,0.7,1","",""
"","html-keyboard-response","242","154948","0.0-242.0","32Z9ZLUT1M67S8FQY8DELLKAM9COHP","A3HFZPC8QR1Y54","338431Z1FL1IVIVZ3BK6A6QS21HROA","","null","<img src=""img/land4.png"" style=""width:200px; border:14px solid green;"">","null","","","","","","",""
"","image-keyboard-response","243","155264","0.0-243.0","32Z9ZLUT1M67S8FQY8DELLKAM9COHP","A3HFZPC8QR1Y54","338431Z1FL1IVIVZ3BK6A6QS21HROA","","313","img/land4.png","74","316","1","1","1","1,0.7,0.7,0.7,1,0.7,0.7,0.7,1","",""
"","html-keyboard-response","244","155568","0.0-244.0","32Z9ZLUT1M67S8FQY8DELLKAM9COHP","A3HFZPC8QR1Y54","338431Z1FL1IVIVZ3BK6A6QS21HROA","","null","<img src=""img/land4.png"" style=""width:200px; border:14px solid green;"">","null","","","","","","",""
"","image-keyboard-response","245","156015","0.0-245.0","32Z9ZLUT1M67S8FQY8DELLKAM9COHP","A3HFZPC8QR1Y54","338431Z1FL1IVIVZ3BK6A6QS21HROA","","445","img/land6.png","75","447","2","1","3","1,0.7,0.7,0.7,1,0.7,0.7,0.7,1","",""
"","html-keyboard-response","246","156318","0.0-246.0","32Z9ZLUT1M67S8FQY8DELLKAM9COHP","A3HFZPC8QR1Y54","338431Z1FL1IVIVZ3BK6A6QS21HROA","","null","<img src=""img/land6.png"" style=""width:200px; border:14px solid green;"">","null","","","","","","",""
"","image-keyboard-response","247","156954","0.0-247.0","32Z9ZLUT1M67S8FQY8DELLKAM9COHP","A3HFZPC8QR1Y54","338431Z1FL1IVIVZ3BK6A6QS21HROA","","634","img/land4.png","74","635","1","1","1","1,0.7,0.7,0.7,1,0.7,0.7,0.7,1","",""
"","html-keyboard-response","248","157256","0.0-248.0","32Z9ZLUT1M67S8FQY8DELLKAM9COHP","A3HFZPC8QR1Y54","338431Z1FL1IVIVZ3BK6A6QS21HROA","","null","<img src=""img/land4.png"" style=""width:200px; border:14px solid green;"">","null","","","","","","",""
"","image-keyboard-response","249","157534","0.0-249.0","32Z9ZLUT1M67S8FQY8DELLKAM9COHP","A3HFZPC8QR1Y54","338431Z1FL1IVIVZ3BK6A6QS21HROA","","275","img/land4.png","74","277","1","1","1","1,0.7,0.7,0.7,1,0.7,0.7,0.7,1","",""
"","html-keyboard-response","250","157836","0.0-250.0","32Z9ZLUT1M67S8FQY8DELLKAM9COHP","A3HFZPC8QR1Y54","338431Z1FL1IVIVZ3BK6A6QS21HROA","","null","<img src=""img/land4.png"" style=""width:200px; border:14px solid green;"">","null","","","","","","",""
"","image-keyboard-response","251","158107","0.0-251.0","32Z9ZLUT1M67S8FQY8DELLKAM9COHP","A3HFZPC8QR1Y54","338431Z1FL1IVIVZ3BK6A6QS21HROA","","269.0000000000291","img/land4.png","74","270.0000000000291","1","1","1","1,0.7,0.7,0.7,1,0.7,0.7,0.7,1","",""
"","html-keyboard-response","252","158411","0.0-252.0","32Z9ZLUT1M67S8FQY8DELLKAM9COHP","A3HFZPC8QR1Y54","338431Z1FL1IVIVZ3BK6A6QS21HROA","","null","<img src=""img/land4.png"" style=""width:200px; border:14px solid green;"">","null","","","","","","",""
"","image-keyboard-response","253","158884","0.0-253.0","32Z9ZLUT1M67S8FQY8DELLKAM9COHP","A3HFZPC8QR1Y54","338431Z1FL1IVIVZ3BK6A6QS21HROA","","470","img/land5.png","76","472","3","1","2","1,0.7,0.7,0.7,1,0.7,0.7,0.7,1","",""
"","html-keyboard-response","254","159187","0.0-254.0","32Z9ZLUT1M67S8FQY8DELLKAM9COHP","A3HFZPC8QR1Y54","338431Z1FL1IVIVZ3BK6A6QS21HROA","","null","<img src=""img/land5.png"" style=""width:200px; border:14px solid green;"">","null","","","","","","",""
"","image-keyboard-response","255","159811","0.0-255.0","32Z9ZLUT1M67S8FQY8DELLKAM9COHP","A3HFZPC8QR1Y54","338431Z1FL1IVIVZ3BK6A6QS21HROA","","622","img/land6.png","75","623","2","1","3","1,0.7,0.7,0.7,1,0.7,0.7,0.7,1","",""
"","html-keyboard-response","256","160112","0.0-256.0","32Z9ZLUT1M67S8FQY8DELLKAM9COHP","A3HFZPC8QR1Y54","338431Z1FL1IVIVZ3BK6A6QS21HROA","","null","<img src=""img/land6.png"" style=""width:200px; border:14px solid green;"">","null","","","","","","",""
"","image-keyboard-response","257","160821","0.0-257.0","32Z9ZLUT1M67S8FQY8DELLKAM9COHP","A3HFZPC8QR1Y54","338431Z1FL1IVIVZ3BK6A6QS21HROA","","707","img/land4.png","74","707.9999999999709","1","1","1","1,0.7,0.7,0.7,1,0.7,0.7,0.7,1","",""
"","html-keyboard-response","258","161124","0.0-258.0","32Z9ZLUT1M67S8FQY8DELLKAM9COHP","A3HFZPC8QR1Y54","338431Z1FL1IVIVZ3BK6A6QS21HROA","","null","<img src=""img/land4.png"" style=""width:200px; border:14px solid green;"">","null","","","","","","",""
"","image-keyboard-response","259","161442","0.0-259.0","32Z9ZLUT1M67S8FQY8DELLKAM9COHP","A3HFZPC8QR1Y54","338431Z1FL1IVIVZ3BK6A6QS21HROA","","316","img/land4.png","74","316.9999999999709","1","1","1","1,0.7,0.7,0.7,1,0.7,0.7,0.7,1","",""
"","html-keyboard-response","260","161744","0.0-260.0","32Z9ZLUT1M67S8FQY8DELLKAM9COHP","A3HFZPC8QR1Y54","338431Z1FL1IVIVZ3BK6A6QS21HROA","","null","<img src=""img/land4.png"" style=""width:200px; border:14px solid green;"">","null","","","","","","",""
"","image-keyboard-response","261","162084","0.0-261.0","32Z9ZLUT1M67S8FQY8DELLKAM9COHP","A3HFZPC8QR1Y54","338431Z1FL1IVIVZ3BK6A6QS21HROA","","338","img/land4.png","74","339","1","1","1","1,0.7,0.7,0.7,1,0.7,0.7,0.7,1","",""
"","html-keyboard-response","262","162388","0.0-262.0","32Z9ZLUT1M67S8FQY8DELLKAM9COHP","A3HFZPC8QR1Y54","338431Z1FL1IVIVZ3BK6A6QS21HROA","","null","<img src=""img/land4.png"" style=""width:200px; border:14px solid green;"">","null","","","","","","",""
"","image-keyboard-response","263","162701","0.0-263.0","32Z9ZLUT1M67S8FQY8DELLKAM9COHP","A3HFZPC8QR1Y54","338431Z1FL1IVIVZ3BK6A6QS21HROA","","313.0000000000291","img/land4.png","74","314.0000000000291","1","1","1","1,0.7,0.7,0.7,1,0.7,0.7,0.7,1","",""
"","html-keyboard-response","264","163004","0.0-264.0","32Z9ZLUT1M67S8FQY8DELLKAM9COHP","A3HFZPC8QR1Y54","338431Z1FL1IVIVZ3BK6A6QS21HROA","","null","<img src=""img/land4.png"" style=""width:200px; border:14px solid green;"">","null","","","","","","",""
"","image-keyboard-response","265","163508","0.0-265.0","32Z9ZLUT1M67S8FQY8DELLKAM9COHP","A3HFZPC8QR1Y54","338431Z1FL1IVIVZ3BK6A6QS21HROA","","501.9999999999709","img/land6.png","75","504","2","1","3","1,0.7,0.7,0.7,1,0.7,0.7,0.7,1","",""
"","html-keyboard-response","266","163811","0.0-266.0","32Z9ZLUT1M67S8FQY8DELLKAM9COHP","A3HFZPC8QR1Y54","338431Z1FL1IVIVZ3BK6A6QS21HROA","","null","<img src=""img/land6.png"" style=""width:200px; border:14px solid green;"">","null","","","","","","",""
"","image-keyboard-response","267","164366","0.0-267.0","32Z9ZLUT1M67S8FQY8DELLKAM9COHP","A3HFZPC8QR1Y54","338431Z1FL1IVIVZ3BK6A6QS21HROA","","554","img/land4.png","74","555","1","1","1","1,0.7,0.7,0.7,1,0.7,0.7,0.7,1","",""
"","html-keyboard-response","268","164668","0.0-268.0","32Z9ZLUT1M67S8FQY8DELLKAM9COHP","A3HFZPC8QR1Y54","338431Z1FL1IVIVZ3BK6A6QS21HROA","","null","<img src=""img/land4.png"" style=""width:200px; border:14px solid green;"">","null","","","","","","",""
"","image-keyboard-response","269","164959","0.0-269.0","32Z9ZLUT1M67S8FQY8DELLKAM9COHP","A3HFZPC8QR1Y54","338431Z1FL1IVIVZ3BK6A6QS21HROA","","287","img/land4.png","74","289","1","1","1","1,0.7,0.7,0.7,1,0.7,0.7,0.7,1","",""
"","html-keyboard-response","270","165262","0.0-270.0","32Z9ZLUT1M67S8FQY8DELLKAM9COHP","A3HFZPC8QR1Y54","338431Z1FL1IVIVZ3BK6A6QS21HROA","","null","<img src=""img/land4.png"" style=""width:200px; border:14px solid green;"">","null","","","","","","",""
"","image-keyboard-response","271","165868","0.0-271.0","32Z9ZLUT1M67S8FQY8DELLKAM9COHP","A3HFZPC8QR1Y54","338431Z1FL1IVIVZ3BK6A6QS21HROA","","605.0000000000291","img/land5.png","76","606.0000000000291","3","1","2","1,0.7,0.7,0.7,1,0.7,0.7,0.7,1","",""
"","html-keyboard-response","272","166171","0.0-272.0","32Z9ZLUT1M67S8FQY8DELLKAM9COHP","A3HFZPC8QR1Y54","338431Z1FL1IVIVZ3BK6A6QS21HROA","","null","<img src=""img/land5.png"" style=""width:200px; border:14px solid green;"">","null","","","","","","",""
"","image-keyboard-response","273","166492","0.0-273.0","32Z9ZLUT1M67S8FQY8DELLKAM9COHP","A3HFZPC8QR1Y54","338431Z1FL1IVIVZ3BK6A6QS21HROA","","318","img/land5.png","76","320","3","0","2","1,0.7,0.7,0.7,1,0.7,0.7,0.7,1","",""
"","html-keyboard-response","274","166795","0.0-274.0","32Z9ZLUT1M67S8FQY8DELLKAM9COHP","A3HFZPC8QR1Y54","338431Z1FL1IVIVZ3BK6A6QS21HROA","","null","<img src=""img/land5.png"" style=""width:200px;border:14px solid red;"">","null","","","","","","",""
"","image-keyboard-response","275","167600","0.0-275.0","32Z9ZLUT1M67S8FQY8DELLKAM9COHP","A3HFZPC8QR1Y54","338431Z1FL1IVIVZ3BK6A6QS21HROA","","804.0000000000291","img/land6.png","75","805.0000000000291","2","1","3","1,0.7,0.7,0.7,1,0.7,0.7,0.7,1","",""
"","html-keyboard-response","276","167902","0.0-276.0","32Z9ZLUT1M67S8FQY8DELLKAM9COHP","A3HFZPC8QR1Y54","338431Z1FL1IVIVZ3BK6A6QS21HROA","","null","<img src=""img/land6.png"" style=""width:200px; border:14px solid green;"">","null","","","","","","",""
"","image-keyboard-response","277","168536","0.0-277.0","32Z9ZLUT1M67S8FQY8DELLKAM9COHP","A3HFZPC8QR1Y54","338431Z1FL1IVIVZ3BK6A6QS21HROA","","630.9999999999709","img/land4.png","74","633","1","1","1","1,0.7,0.7,0.7,1,0.7,0.7,0.7,1","",""
"","html-keyboard-response","278","168838","0.0-278.0","32Z9ZLUT1M67S8FQY8DELLKAM9COHP","A3HFZPC8QR1Y54","338431Z1FL1IVIVZ3BK6A6QS21HROA","","null","<img src=""img/land4.png"" style=""width:200px; border:14px solid green;"">","null","","","","","","",""
"","image-keyboard-response","279","169525","0.0-279.0","32Z9ZLUT1M67S8FQY8DELLKAM9COHP","A3HFZPC8QR1Y54","338431Z1FL1IVIVZ3BK6A6QS21HROA","","684","img/land6.png","75","686","2","1","3","1,0.7,0.7,0.7,1,0.7,0.7,0.7,1","",""
"","html-keyboard-response","280","169827","0.0-280.0","32Z9ZLUT1M67S8FQY8DELLKAM9COHP","A3HFZPC8QR1Y54","338431Z1FL1IVIVZ3BK6A6QS21HROA","","null","<img src=""img/land6.png"" style=""width:200px; border:14px solid green;"">","null","","","","","","",""
"","image-keyboard-response","281","170388","0.0-281.0","32Z9ZLUT1M67S8FQY8DELLKAM9COHP","A3HFZPC8QR1Y54","338431Z1FL1IVIVZ3BK6A6QS21HROA","","559","img/land5.png","76","560","3","1","2","1,0.7,0.7,0.7,1,0.7,0.7,0.7,1","",""
"","html-keyboard-response","282","170691","0.0-282.0","32Z9ZLUT1M67S8FQY8DELLKAM9COHP","A3HFZPC8QR1Y54","338431Z1FL1IVIVZ3BK6A6QS21HROA","","null","<img src=""img/land5.png"" style=""width:200px; border:14px solid green;"">","null","","","","","","",""
"","image-keyboard-response","283","171348","0.0-283.0","32Z9ZLUT1M67S8FQY8DELLKAM9COHP","A3HFZPC8QR1Y54","338431Z1FL1IVIVZ3BK6A6QS21HROA","","655","img/land6.png","75","657","2","1","3","1,0.7,0.7,0.7,1,0.7,0.7,0.7,1","",""
"","html-keyboard-response","284","171651","0.0-284.0","32Z9ZLUT1M67S8FQY8DELLKAM9COHP","A3HFZPC8QR1Y54","338431Z1FL1IVIVZ3BK6A6QS21HROA","","null","<img src=""img/land6.png"" style=""width:200px; border:14px solid green;"">","null","","","","","","",""
"","image-keyboard-response","285","172278","0.0-285.0","32Z9ZLUT1M67S8FQY8DELLKAM9COHP","A3HFZPC8QR1Y54","338431Z1FL1IVIVZ3BK6A6QS21HROA","","625","img/land4.png","74","627","1","1","1","1,0.7,0.7,0.7,1,0.7,0.7,0.7,1","",""
"","html-keyboard-response","286","172581","0.0-286.0","32Z9ZLUT1M67S8FQY8DELLKAM9COHP","A3HFZPC8QR1Y54","338431Z1FL1IVIVZ3BK6A6QS21HROA","","null","<img src=""img/land4.png"" style=""width:200px; border:14px solid green;"">","null","","","","","","",""
"","image-keyboard-response","287","173051","0.0-287.0","32Z9ZLUT1M67S8FQY8DELLKAM9COHP","A3HFZPC8QR1Y54","338431Z1FL1IVIVZ3BK6A6QS21HROA","","467","img/land6.png","75","469","2","1","3","1,0.7,0.7,0.7,1,0.7,0.7,0.7,1","",""
"","html-keyboard-response","288","173354","0.0-288.0","32Z9ZLUT1M67S8FQY8DELLKAM9COHP","A3HFZPC8QR1Y54","338431Z1FL1IVIVZ3BK6A6QS21HROA","","null","<img src=""img/land6.png"" style=""width:200px; border:14px solid green;"">","null","","","","","","",""
"","image-keyboard-response","289","173790","0.0-289.0","32Z9ZLUT1M67S8FQY8DELLKAM9COHP","A3HFZPC8QR1Y54","338431Z1FL1IVIVZ3BK6A6QS21HROA","","433.9999999999709","img/land6.png","75","435","2","1","3","1,0.7,0.7,0.7,1,0.7,0.7,0.7,1","",""
"","html-keyboard-response","290","174093","0.0-290.0","32Z9ZLUT1M67S8FQY8DELLKAM9COHP","A3HFZPC8QR1Y54","338431Z1FL1IVIVZ3BK6A6QS21HROA","","null","<img src=""img/land6.png"" style=""width:200px; border:14px solid green;"">","null","","","","","","",""
"","image-keyboard-response","291","174386","0.0-291.0","32Z9ZLUT1M67S8FQY8DELLKAM9COHP","A3HFZPC8QR1Y54","338431Z1FL1IVIVZ3BK6A6QS21HROA","","292","img/land6.png","75","293.0000000000291","2","1","3","1,0.7,0.7,0.7,1,0.7,0.7,0.7,1","",""
"","html-keyboard-response","292","174689","0.0-292.0","32Z9ZLUT1M67S8FQY8DELLKAM9COHP","A3HFZPC8QR1Y54","338431Z1FL1IVIVZ3BK6A6QS21HROA","","null","<img src=""img/land6.png"" style=""width:200px; border:14px solid green;"">","null","","","","","","",""
"","image-keyboard-response","293","175288","0.0-293.0","32Z9ZLUT1M67S8FQY8DELLKAM9COHP","A3HFZPC8QR1Y54","338431Z1FL1IVIVZ3BK6A6QS21HROA","","597","img/land4.png","74","598","1","1","1","1,0.7,0.7,0.7,1,0.7,0.7,0.7,1","",""
"","html-keyboard-response","294","175591","0.0-294.0","32Z9ZLUT1M67S8FQY8DELLKAM9COHP","A3HFZPC8QR1Y54","338431Z1FL1IVIVZ3BK6A6QS21HROA","","null","<img src=""img/land4.png"" style=""width:200px; border:14px solid green;"">","null","","","","","","",""
"","image-keyboard-response","295","176002","0.0-295.0","32Z9ZLUT1M67S8FQY8DELLKAM9COHP","A3HFZPC8QR1Y54","338431Z1FL1IVIVZ3BK6A6QS21HROA","","409","img/land4.png","74","412","1","1","1","1,0.7,0.7,0.7,1,0.7,0.7,0.7,1","",""
"","html-keyboard-response","296","176306","0.0-296.0","32Z9ZLUT1M67S8FQY8DELLKAM9COHP","A3HFZPC8QR1Y54","338431Z1FL1IVIVZ3BK6A6QS21HROA","","null","<img src=""img/land4.png"" style=""width:200px; border:14px solid green;"">","null","","","","","","",""
"","image-keyboard-response","297","176671","0.0-297.0","32Z9ZLUT1M67S8FQY8DELLKAM9COHP","A3HFZPC8QR1Y54","338431Z1FL1IVIVZ3BK6A6QS21HROA","","363","img/land4.png","74","364","1","1","1","1,0.7,0.7,0.7,1,0.7,0.7,0.7,1","",""
"","html-keyboard-response","298","176974","0.0-298.0","32Z9ZLUT1M67S8FQY8DELLKAM9COHP","A3HFZPC8QR1Y54","338431Z1FL1IVIVZ3BK6A6QS21HROA","","null","<img src=""img/land4.png"" style=""width:200px; border:14px solid green;"">","null","","","","","","",""
"","image-keyboard-response","299","177540","0.0-299.0","32Z9ZLUT1M67S8FQY8DELLKAM9COHP","A3HFZPC8QR1Y54","338431Z1FL1IVIVZ3BK6A6QS21HROA","","562","img/land5.png","76","564.9999999999709","3","1","2","1,0.7,0.7,0.7,1,0.7,0.7,0.7,1","",""
"","html-keyboard-response","300","177843","0.0-300.0","32Z9ZLUT1M67S8FQY8DELLKAM9COHP","A3HFZPC8QR1Y54","338431Z1FL1IVIVZ3BK6A6QS21HROA","","null","<img src=""img/land5.png"" style=""width:200px; border:14px solid green;"">","null","","","","","","",""
"","image-keyboard-response","301","178216","0.0-301.0","32Z9ZLUT1M67S8FQY8DELLKAM9COHP","A3HFZPC8QR1Y54","338431Z1FL1IVIVZ3BK6A6QS21HROA","","371","img/land5.png","76","371.9999999999709","3","1","2","1,0.7,0.7,0.7,1,0.7,0.7,0.7,1","",""
"","html-keyboard-response","302","178518","0.0-302.0","32Z9ZLUT1M67S8FQY8DELLKAM9COHP","A3HFZPC8QR1Y54","338431Z1FL1IVIVZ3BK6A6QS21HROA","","null","<img src=""img/land5.png"" style=""width:200px; border:14px solid green;"">","null","","","","","","",""
"","image-keyboard-response","303","178849","0.0-303.0","32Z9ZLUT1M67S8FQY8DELLKAM9COHP","A3HFZPC8QR1Y54","338431Z1FL1IVIVZ3BK6A6QS21HROA","","328","img/land5.png","76","330","3","1","2","1,0.7,0.7,0.7,1,0.7,0.7,0.7,1","",""
"","html-keyboard-response","304","179152","0.0-304.0","32Z9ZLUT1M67S8FQY8DELLKAM9COHP","A3HFZPC8QR1Y54","338431Z1FL1IVIVZ3BK6A6QS21HROA","","null","<img src=""img/land5.png"" style=""width:200px; border:14px solid green;"">","null","","","","","","",""
"","image-keyboard-response","305","180363","0.0-305.0","32Z9ZLUT1M67S8FQY8DELLKAM9COHP","A3HFZPC8QR1Y54","338431Z1FL1IVIVZ3BK6A6QS21HROA","","1208.999999999971","img/land4.png","74","1211","1","1","1","1,0.7,0.7,0.7,1,0.7,0.7,0.7,1","",""
"","html-keyboard-response","306","180667","0.0-306.0","32Z9ZLUT1M67S8FQY8DELLKAM9COHP","A3HFZPC8QR1Y54","338431Z1FL1IVIVZ3BK6A6QS21HROA","","null","<img src=""img/land4.png"" style=""width:200px; border:14px solid green;"">","null","","","","","","",""
"","image-keyboard-response","307","181057","0.0-307.0","32Z9ZLUT1M67S8FQY8DELLKAM9COHP","A3HFZPC8QR1Y54","338431Z1FL1IVIVZ3BK6A6QS21HROA","","388","img/land6.png","75","390","2","1","3","1,0.7,0.7,0.7,1,0.7,0.7,0.7,1","",""
"","html-keyboard-response","308","181361","0.0-308.0","32Z9ZLUT1M67S8FQY8DELLKAM9COHP","A3HFZPC8QR1Y54","338431Z1FL1IVIVZ3BK6A6QS21HROA","","null","<img src=""img/land6.png"" style=""width:200px; border:14px solid green;"">","null","","","","","","",""
"","image-keyboard-response","309","181923","0.0-309.0","32Z9ZLUT1M67S8FQY8DELLKAM9COHP","A3HFZPC8QR1Y54","338431Z1FL1IVIVZ3BK6A6QS21HROA","","560","img/land4.png","74","560.9999999999709","1","1","1","1,0.7,0.7,0.7,1,0.7,0.7,0.7,1","",""
"","html-keyboard-response","310","182225","0.0-310.0","32Z9ZLUT1M67S8FQY8DELLKAM9COHP","A3HFZPC8QR1Y54","338431Z1FL1IVIVZ3BK6A6QS21HROA","","null","<img src=""img/land4.png"" style=""width:200px; border:14px solid green;"">","null","","","","","","",""
"","image-keyboard-response","311","182687","0.0-311.0","32Z9ZLUT1M67S8FQY8DELLKAM9COHP","A3HFZPC8QR1Y54","338431Z1FL1IVIVZ3BK6A6QS21HROA","","461","img/land4.png","74","461.9999999999709","1","1","1","1,0.7,0.7,0.7,1,0.7,0.7,0.7,1","",""
"","html-keyboard-response","312","182990","0.0-312.0","32Z9ZLUT1M67S8FQY8DELLKAM9COHP","A3HFZPC8QR1Y54","338431Z1FL1IVIVZ3BK6A6QS21HROA","","null","<img src=""img/land4.png"" style=""width:200px; border:14px solid green;"">","null","","","","","","",""
"","image-keyboard-response","313","183720","0.0-313.0","32Z9ZLUT1M67S8FQY8DELLKAM9COHP","A3HFZPC8QR1Y54","338431Z1FL1IVIVZ3BK6A6QS21HROA","","728","img/land5.png","76","730","3","0","2","1,0.7,0.7,0.7,1,0.7,0.7,0.7,1","",""
"","html-keyboard-response","314","184024","0.0-314.0","32Z9ZLUT1M67S8FQY8DELLKAM9COHP","A3HFZPC8QR1Y54","338431Z1FL1IVIVZ3BK6A6QS21HROA","","null","<img src=""img/land5.png"" style=""width:200px;border:14px solid red;"">","null","","","","","","",""
"","image-keyboard-response","315","184346","0.0-315.0","32Z9ZLUT1M67S8FQY8DELLKAM9COHP","A3HFZPC8QR1Y54","338431Z1FL1IVIVZ3BK6A6QS21HROA","","320","img/land5.png","76","321","3","1","2","1,0.7,0.7,0.7,1,0.7,0.7,0.7,1","",""
"","html-keyboard-response","316","184649","0.0-316.0","32Z9ZLUT1M67S8FQY8DELLKAM9COHP","A3HFZPC8QR1Y54","338431Z1FL1IVIVZ3BK6A6QS21HROA","","null","<img src=""img/land5.png"" style=""width:200px; border:14px solid green;"">","null","","","","","","",""
"","image-keyboard-response","317","185330","0.0-317.0","32Z9ZLUT1M67S8FQY8DELLKAM9COHP","A3HFZPC8QR1Y54","338431Z1FL1IVIVZ3BK6A6QS21HROA","","680","img/land6.png","75","681","2","0","3","1,0.7,0.7,0.7,1,0.7,0.7,0.7,1","",""
"","html-keyboard-response","318","185633","0.0-318.0","32Z9ZLUT1M67S8FQY8DELLKAM9COHP","A3HFZPC8QR1Y54","338431Z1FL1IVIVZ3BK6A6QS21HROA","","null","<img src=""img/land6.png"" style=""width:200px;border:14px solid red;"">","null","","","","","","",""
"","image-keyboard-response","319","186166","0.0-319.0","32Z9ZLUT1M67S8FQY8DELLKAM9COHP","A3HFZPC8QR1Y54","338431Z1FL1IVIVZ3BK6A6QS21HROA","","531","img/land5.png","74","532","1","1","2","1,0.7,0.7,0.7,1,0.7,0.7,0.7,1","",""
"","html-keyboard-response","320","186469","0.0-320.0","32Z9ZLUT1M67S8FQY8DELLKAM9COHP","A3HFZPC8QR1Y54","338431Z1FL1IVIVZ3BK6A6QS21HROA","","null","<img src=""img/land5.png"" style=""width:200px; border:14px solid green;"">","null","","","","","","",""
"","image-keyboard-response","321","186815","0.0-321.0","32Z9ZLUT1M67S8FQY8DELLKAM9COHP","A3HFZPC8QR1Y54","338431Z1FL1IVIVZ3BK6A6QS21HROA","","344","img/land5.png","76","345","3","1","2","1,0.7,0.7,0.7,1,0.7,0.7,0.7,1","",""
"","html-keyboard-response","322","187119","0.0-322.0","32Z9ZLUT1M67S8FQY8DELLKAM9COHP","A3HFZPC8QR1Y54","338431Z1FL1IVIVZ3BK6A6QS21HROA","","null","<img src=""img/land5.png"" style=""width:200px; border:14px solid green;"">","null","","","","","","",""
"","image-keyboard-response","323","187939","0.0-323.0","32Z9ZLUT1M67S8FQY8DELLKAM9COHP","A3HFZPC8QR1Y54","338431Z1FL1IVIVZ3BK6A6QS21HROA","","817","img/land4.png","74","819","1","1","1","1,0.7,0.7,0.7,1,0.7,0.7,0.7,1","",""
"","html-keyboard-response","324","188242","0.0-324.0","32Z9ZLUT1M67S8FQY8DELLKAM9COHP","A3HFZPC8QR1Y54","338431Z1FL1IVIVZ3BK6A6QS21HROA","","null","<img src=""img/land4.png"" style=""width:200px; border:14px solid green;"">","null","","","","","","",""
"","image-keyboard-response","325","188610","0.0-325.0","32Z9ZLUT1M67S8FQY8DELLKAM9COHP","A3HFZPC8QR1Y54","338431Z1FL1IVIVZ3BK6A6QS21HROA","","366","img/land4.png","74","367.9999999999709","1","1","1","1,0.7,0.7,0.7,1,0.7,0.7,0.7,1","",""
"","html-keyboard-response","326","188913","0.0-326.0","32Z9ZLUT1M67S8FQY8DELLKAM9COHP","A3HFZPC8QR1Y54","338431Z1FL1IVIVZ3BK6A6QS21HROA","","null","<img src=""img/land4.png"" style=""width:200px; border:14px solid green;"">","null","","","","","","",""
"","image-keyboard-response","327","189507","0.0-327.0","32Z9ZLUT1M67S8FQY8DELLKAM9COHP","A3HFZPC8QR1Y54","338431Z1FL1IVIVZ3BK6A6QS21HROA","","590.9999999999709","img/land6.png","75","593","2","1","3","1,0.7,0.7,0.7,1,0.7,0.7,0.7,1","",""
"","html-keyboard-response","328","189811","0.0-328.0","32Z9ZLUT1M67S8FQY8DELLKAM9COHP","A3HFZPC8QR1Y54","338431Z1FL1IVIVZ3BK6A6QS21HROA","","null","<img src=""img/land6.png"" style=""width:200px; border:14px solid green;"">","null","","","","","","",""
"","image-keyboard-response","329","190384","0.0-329.0","32Z9ZLUT1M67S8FQY8DELLKAM9COHP","A3HFZPC8QR1Y54","338431Z1FL1IVIVZ3BK6A6QS21HROA","","571","img/land4.png","74","573","1","1","1","1,0.7,0.7,0.7,1,0.7,0.7,0.7,1","",""
"","html-keyboard-response","330","190687","0.0-330.0","32Z9ZLUT1M67S8FQY8DELLKAM9COHP","A3HFZPC8QR1Y54","338431Z1FL1IVIVZ3BK6A6QS21HROA","","null","<img src=""img/land4.png"" style=""width:200px; border:14px solid green;"">","null","","","","","","",""
"","image-keyboard-response","331","191372","0.0-331.0","32Z9ZLUT1M67S8FQY8DELLKAM9COHP","A3HFZPC8QR1Y54","338431Z1FL1IVIVZ3BK6A6QS21HROA","","683","img/land5.png","76","685","3","1","2","1,0.7,0.7,0.7,1,0.7,0.7,0.7,1","",""
"","html-keyboard-response","332","191675","0.0-332.0","32Z9ZLUT1M67S8FQY8DELLKAM9COHP","A3HFZPC8QR1Y54","338431Z1FL1IVIVZ3BK6A6QS21HROA","","null","<img src=""img/land5.png"" style=""width:200px; border:14px solid green;"">","null","","","","","","",""
"","image-keyboard-response","333","192747","0.0-333.0","32Z9ZLUT1M67S8FQY8DELLKAM9COHP","A3HFZPC8QR1Y54","338431Z1FL1IVIVZ3BK6A6QS21HROA","","1070","img/land4.png","74","1072","1","1","1","1,0.7,0.7,0.7,1,0.7,0.7,0.7,1","",""
"","html-keyboard-response","334","193050","0.0-334.0","32Z9ZLUT1M67S8FQY8DELLKAM9COHP","A3HFZPC8QR1Y54","338431Z1FL1IVIVZ3BK6A6QS21HROA","","null","<img src=""img/land4.png"" style=""width:200px; border:14px solid green;"">","null","","","","","","",""
"","image-keyboard-response","335","193624","0.0-335.0","32Z9ZLUT1M67S8FQY8DELLKAM9COHP","A3HFZPC8QR1Y54","338431Z1FL1IVIVZ3BK6A6QS21HROA","","571.0000000000291","img/land5.png","76","573","3","0","2","1,0.7,0.7,0.7,1,0.7,0.7,0.7,1","",""
"","html-keyboard-response","336","193928","0.0-336.0","32Z9ZLUT1M67S8FQY8DELLKAM9COHP","A3HFZPC8QR1Y54","338431Z1FL1IVIVZ3BK6A6QS21HROA","","null","<img src=""img/land5.png"" style=""width:200px;border:14px solid red;"">","null","","","","","","",""
"","image-keyboard-response","337","194110","0.0-337.0","32Z9ZLUT1M67S8FQY8DELLKAM9COHP","A3HFZPC8QR1Y54","338431Z1FL1IVIVZ3BK6A6QS21HROA","","181","img/land4.png","76","182","3","1","1","1,0.7,0.7,0.7,1,0.7,0.7,0.7,1","",""
"","html-keyboard-response","338","194413","0.0-338.0","32Z9ZLUT1M67S8FQY8DELLKAM9COHP","A3HFZPC8QR1Y54","338431Z1FL1IVIVZ3BK6A6QS21HROA","","null","<img src=""img/land4.png"" style=""width:200px; border:14px solid green;"">","null","","","","","","",""
"","instructions","339","197391","0.0-339.0","32Z9ZLUT1M67S8FQY8DELLKAM9COHP","A3HFZPC8QR1Y54","338431Z1FL1IVIVZ3BK6A6QS21HROA","[{""page_index"":0,""viewing_time"":2976}]","2976","","","","","","","","",""
"","survey-text","340","203963","0.0-340.0-0.0","32Z9ZLUT1M67S8FQY8DELLKAM9COHP","A3HFZPC8QR1Y54","338431Z1FL1IVIVZ3BK6A6QS21HROA","","6555","","","","","","","","{""Q0"":""37""}",""
"","survey-multi-choice","341","206027","0.0-340.0-1.0","32Z9ZLUT1M67S8FQY8DELLKAM9COHP","A3HFZPC8QR1Y54","338431Z1FL1IVIVZ3BK6A6QS21HROA","","2063","","","","","","","","{""gender"":""M""}","[0]"
"","survey-text","342","212412","0.0-341.0","32Z9ZLUT1M67S8FQY8DELLKAM9COHP","A3HFZPC8QR1Y54","338431Z1FL1IVIVZ3BK6A6QS21HROA","","6377","","","","","","","","{""Q0"":""A3HFZPC8QR1Y54""}",""
