"success","trial_type","trial_index","time_elapsed","internal_node_id","assignmentID","mturkID","hitID","view_history","rt","stimulus","key_press","reactionTime","a","r","s","cond","reward_cond","reward_cond_actual","reward_matrix_idx","responses","question_order"
"true","fullscreen","0","3216","0.0-0.0","3R9WASFE202ZDG2R5R0VYYF1R4FFZA","A3HL2LL0LEPZT8","3UUIU9GZC5R93N292LT21FRJ9VS5TN","","","","","","","","","","","","","",""
"","instructions","1","29376","0.0-1.0","3R9WASFE202ZDG2R5R0VYYF1R4FFZA","A3HL2LL0LEPZT8","3UUIU9GZC5R93N292LT21FRJ9VS5TN","[{""page_index"":0,""viewing_time"":4561.100000008941},{""page_index"":1,""viewing_time"":1537.5999999940395},{""page_index"":2,""viewing_time"":3927.9000000059605},{""page_index"":3,""viewing_time"":2169.8999999910593},{""page_index"":4,""viewing_time"":3239.2000000029802},{""page_index"":5,""viewing_time"":5733.79999999702},{""page_index"":6,""viewing_time"":4988.100000008941}]","26158","","","","","","","","","","","",""
"","image-keyboard-response","2","30446","0.0-2.0","3R9WASFE202ZDG2R5R0VYYF1R4FFZA","A3HL2LL0LEPZT8","3UUIU9GZC5R93N292LT21FRJ9VS5TN","","1069","img/land6.png","74","1070.3999999910593","1","0","3","2","0.8,0.2,0.2,0.2,0.8,0.2,0.2,0.2,0.8","0.2,0.8,0.2,0.2,0.2,0.8,0.8,0.2,0.2","3","",""
"","html-keyboard-response","3","30749","0.0-3.0","3R9WASFE202ZDG2R5R0VYYF1R4FFZA","A3HL2LL0LEPZT8","3UUIU9GZC5R93N292LT21FRJ9VS5TN","","null","<img src=""img/land6.png"" style=""width:200px;border:14px solid red;"">","null","","","","","","","","","",""
"","image-keyboard-response","4","31627","0.0-4.0","3R9WASFE202ZDG2R5R0VYYF1R4FFZA","A3HL2LL0LEPZT8","3UUIU9GZC5R93N292LT21FRJ9VS5TN","","876.9000000059605","img/land5.png","75","877.7999999970198","2","1","1","2","0.8,0.2,0.2,0.2,0.8,0.2,0.2,0.2,0.8","0.2,0.8,0.2,0.2,0.2,0.8,0.8,0.2,0.2","3","",""
"","html-keyboard-response","5","31930","0.0-5.0","3R9WASFE202ZDG2R5R0VYYF1R4FFZA","A3HL2LL0LEPZT8","3UUIU9GZC5R93N292LT21FRJ9VS5TN","","null","<img src=""img/land5.png"" style=""width:200px; border:14px solid green;"">","null","","","","","","","","","",""
"","image-keyboard-response","6","32692","0.0-6.0","3R9WASFE202ZDG2R5R0VYYF1R4FFZA","A3HL2LL0LEPZT8","3UUIU9GZC5R93N292LT21FRJ9VS5TN","","760.0999999940395","img/land5.png","75","761.0999999940395","2","1","1","2","0.8,0.2,0.2,0.2,0.8,0.2,0.2,0.2,0.8","0.2,0.8,0.2,0.2,0.2,0.8,0.8,0.2,0.2","3","",""
"","html-keyboard-response","7","32994","0.0-7.0","3R9WASFE202ZDG2R5R0VYYF1R4FFZA","A3HL2LL0LEPZT8","3UUIU9GZC5R93N292LT21FRJ9VS5TN","","null","<img src=""img/land5.png"" style=""width:200px; border:14px solid green;"">","null","","","","","","","","","",""
"","image-keyboard-response","8","33890","0.0-8.0","3R9WASFE202ZDG2R5R0VYYF1R4FFZA","A3HL2LL0LEPZT8","3UUIU9GZC5R93N292LT21FRJ9VS5TN","","894.3000000119209","img/land4.png","76","895.2999999970198","3","1","2","2","0.8,0.2,0.2,0.2,0.8,0.2,0.2,0.2,0.8","0.2,0.8,0.2,0.2,0.2,0.8,0.8,0.2,0.2","3","",""
"","html-keyboard-response","9","34192","0.0-9.0","3R9WASFE202ZDG2R5R0VYYF1R4FFZA","A3HL2LL0LEPZT8","3UUIU9GZC5R93N292LT21FRJ9VS5TN","","null","<img src=""img/land4.png"" style=""width:200px; border:14px solid green;"">","null","","","","","","","","","",""
"","image-keyboard-response","10","34800","0.0-10.0","3R9WASFE202ZDG2R5R0VYYF1R4FFZA","A3HL2LL0LEPZT8","3UUIU9GZC5R93N292LT21FRJ9VS5TN","","607.0999999940395","img/land4.png","76","608.1000000089407","3","1","2","2","0.8,0.2,0.2,0.2,0.8,0.2,0.2,0.2,0.8","0.2,0.8,0.2,0.2,0.2,0.8,0.8,0.2,0.2","3","",""
"","html-keyboard-response","11","35102","0.0-11.0","3R9WASFE202ZDG2R5R0VYYF1R4FFZA","A3HL2LL0LEPZT8","3UUIU9GZC5R93N292LT21FRJ9VS5TN","","null","<img src=""img/land4.png"" style=""width:200px; border:14px solid green;"">","null","","","","","","","","","",""
"","image-keyboard-response","12","35908","0.0-12.0","3R9WASFE202ZDG2R5R0VYYF1R4FFZA","A3HL2LL0LEPZT8","3UUIU9GZC5R93N292LT21FRJ9VS5TN","","805.5","img/land6.png","74","806.2999999970198","1","1","3","2","0.8,0.2,0.2,0.2,0.8,0.2,0.2,0.2,0.8","0.2,0.8,0.2,0.2,0.2,0.8,0.8,0.2,0.2","3","",""
"","html-keyboard-response","13","36211","0.0-13.0","3R9WASFE202ZDG2R5R0VYYF1R4FFZA","A3HL2LL0LEPZT8","3UUIU9GZC5R93N292LT21FRJ9VS5TN","","null","<img src=""img/land6.png"" style=""width:200px; border:14px solid green;"">","null","","","","","","","","","",""
"","image-keyboard-response","14","36595","0.0-14.0","3R9WASFE202ZDG2R5R0VYYF1R4FFZA","A3HL2LL0LEPZT8","3UUIU9GZC5R93N292LT21FRJ9VS5TN","","382.5","img/land6.png","74","383.3999999910593","1","1","3","2","0.8,0.2,0.2,0.2,0.8,0.2,0.2,0.2,0.8","0.2,0.8,0.2,0.2,0.2,0.8,0.8,0.2,0.2","3","",""
"","html-keyboard-response","15","36898","0.0-15.0","3R9WASFE202ZDG2R5R0VYYF1R4FFZA","A3HL2LL0LEPZT8","3UUIU9GZC5R93N292LT21FRJ9VS5TN","","null","<img src=""img/land6.png"" style=""width:200px; border:14px solid green;"">","null","","","","","","","","","",""
"","image-keyboard-response","16","38031","0.0-16.0","3R9WASFE202ZDG2R5R0VYYF1R4FFZA","A3HL2LL0LEPZT8","3UUIU9GZC5R93N292LT21FRJ9VS5TN","","1131.7999999970198","img/land4.png","76","1132.5","3","1","2","2","0.8,0.2,0.2,0.2,0.8,0.2,0.2,0.2,0.8","0.2,0.8,0.2,0.2,0.2,0.8,0.8,0.2,0.2","3","",""
"","html-keyboard-response","17","38333","0.0-17.0","3R9WASFE202ZDG2R5R0VYYF1R4FFZA","A3HL2LL0LEPZT8","3UUIU9GZC5R93N292LT21FRJ9VS5TN","","null","<img src=""img/land4.png"" style=""width:200px; border:14px solid green;"">","null","","","","","","","","","",""
"","image-keyboard-response","18","38545","0.0-18.0","3R9WASFE202ZDG2R5R0VYYF1R4FFZA","A3HL2LL0LEPZT8","3UUIU9GZC5R93N292LT21FRJ9VS5TN","","211.19999998807907","img/land5.png","76","211.8999999910593","3","0","1","2","0.8,0.2,0.2,0.2,0.8,0.2,0.2,0.2,0.8","0.2,0.8,0.2,0.2,0.2,0.8,0.8,0.2,0.2","3","",""
"","html-keyboard-response","19","38847","0.0-19.0","3R9WASFE202ZDG2R5R0VYYF1R4FFZA","A3HL2LL0LEPZT8","3UUIU9GZC5R93N292LT21FRJ9VS5TN","","null","<img src=""img/land5.png"" style=""width:200px;border:14px solid red;"">","null","","","","","","","","","",""
"","image-keyboard-response","20","38945","0.0-20.0","3R9WASFE202ZDG2R5R0VYYF1R4FFZA","A3HL2LL0LEPZT8","3UUIU9GZC5R93N292LT21FRJ9VS5TN","","97.20000000298023","img/land5.png","75","98.09999999403954","2","0","1","2","0.8,0.2,0.2,0.2,0.8,0.2,0.2,0.2,0.8","0.2,0.8,0.2,0.2,0.2,0.8,0.8,0.2,0.2","3","",""
"","html-keyboard-response","21","39247","0.0-21.0","3R9WASFE202ZDG2R5R0VYYF1R4FFZA","A3HL2LL0LEPZT8","3UUIU9GZC5R93N292LT21FRJ9VS5TN","","null","<img src=""img/land5.png"" style=""width:200px;border:14px solid red;"">","null","","","","","","","","","",""
"","image-keyboard-response","22","39821","0.0-22.0","3R9WASFE202ZDG2R5R0VYYF1R4FFZA","A3HL2LL0LEPZT8","3UUIU9GZC5R93N292LT21FRJ9VS5TN","","573","img/land5.png","74","574","1","0","1","2","0.8,0.2,0.2,0.2,0.8,0.2,0.2,0.2,0.8","0.2,0.8,0.2,0.2,0.2,0.8,0.8,0.2,0.2","3","",""
"","html-keyboard-response","23","40123","0.0-23.0","3R9WASFE202ZDG2R5R0VYYF1R4FFZA","A3HL2LL0LEPZT8","3UUIU9GZC5R93N292LT21FRJ9VS5TN","","null","<img src=""img/land5.png"" style=""width:200px;border:14px solid red;"">","null","","","","","","","","","",""
"","image-keyboard-response","24","40660","0.0-24.0","3R9WASFE202ZDG2R5R0VYYF1R4FFZA","A3HL2LL0LEPZT8","3UUIU9GZC5R93N292LT21FRJ9VS5TN","","535.7999999970198","img/land5.png","76","536.5","3","0","1","2","0.8,0.2,0.2,0.2,0.8,0.2,0.2,0.2,0.8","0.2,0.8,0.2,0.2,0.2,0.8,0.8,0.2,0.2","3","",""
"","html-keyboard-response","25","40964","0.0-25.0","3R9WASFE202ZDG2R5R0VYYF1R4FFZA","A3HL2LL0LEPZT8","3UUIU9GZC5R93N292LT21FRJ9VS5TN","","null","<img src=""img/land5.png"" style=""width:200px;border:14px solid red;"">","null","","","","","","","","","",""
"","image-keyboard-response","26","41664","0.0-26.0","3R9WASFE202ZDG2R5R0VYYF1R4FFZA","A3HL2LL0LEPZT8","3UUIU9GZC5R93N292LT21FRJ9VS5TN","","699.5999999940395","img/land6.png","75","700.5","2","0","3","2","0.8,0.2,0.2,0.2,0.8,0.2,0.2,0.2,0.8","0.2,0.8,0.2,0.2,0.2,0.8,0.8,0.2,0.2","3","",""
"","html-keyboard-response","27","41967","0.0-27.0","3R9WASFE202ZDG2R5R0VYYF1R4FFZA","A3HL2LL0LEPZT8","3UUIU9GZC5R93N292LT21FRJ9VS5TN","","null","<img src=""img/land6.png"" style=""width:200px;border:14px solid red;"">","null","","","","","","","","","",""
"","image-keyboard-response","28","42500","0.0-28.0","3R9WASFE202ZDG2R5R0VYYF1R4FFZA","A3HL2LL0LEPZT8","3UUIU9GZC5R93N292LT21FRJ9VS5TN","","532.2000000029802","img/land6.png","74","533.1999999880791","1","1","3","2","0.8,0.2,0.2,0.2,0.8,0.2,0.2,0.2,0.8","0.2,0.8,0.2,0.2,0.2,0.8,0.8,0.2,0.2","3","",""
"","html-keyboard-response","29","42803","0.0-29.0","3R9WASFE202ZDG2R5R0VYYF1R4FFZA","A3HL2LL0LEPZT8","3UUIU9GZC5R93N292LT21FRJ9VS5TN","","null","<img src=""img/land6.png"" style=""width:200px; border:14px solid green;"">","null","","","","","","","","","",""
"","image-keyboard-response","30","43193","0.0-30.0","3R9WASFE202ZDG2R5R0VYYF1R4FFZA","A3HL2LL0LEPZT8","3UUIU9GZC5R93N292LT21FRJ9VS5TN","","389.1000000089407","img/land6.png","74","390","1","1","3","2","0.8,0.2,0.2,0.2,0.8,0.2,0.2,0.2,0.8","0.2,0.8,0.2,0.2,0.2,0.8,0.8,0.2,0.2","3","",""
"","html-keyboard-response","31","43495","0.0-31.0","3R9WASFE202ZDG2R5R0VYYF1R4FFZA","A3HL2LL0LEPZT8","3UUIU9GZC5R93N292LT21FRJ9VS5TN","","null","<img src=""img/land6.png"" style=""width:200px; border:14px solid green;"">","null","","","","","","","","","",""
"","image-keyboard-response","32","44546","0.0-32.0","3R9WASFE202ZDG2R5R0VYYF1R4FFZA","A3HL2LL0LEPZT8","3UUIU9GZC5R93N292LT21FRJ9VS5TN","","1049.7999999970198","img/land4.png","75","1050.699999988079","2","1","2","2","0.8,0.2,0.2,0.2,0.8,0.2,0.2,0.2,0.8","0.2,0.8,0.2,0.2,0.2,0.8,0.8,0.2,0.2","3","",""
"","html-keyboard-response","33","44848","0.0-33.0","3R9WASFE202ZDG2R5R0VYYF1R4FFZA","A3HL2LL0LEPZT8","3UUIU9GZC5R93N292LT21FRJ9VS5TN","","null","<img src=""img/land4.png"" style=""width:200px; border:14px solid green;"">","null","","","","","","","","","",""
"","image-keyboard-response","34","46165","0.0-34.0","3R9WASFE202ZDG2R5R0VYYF1R4FFZA","A3HL2LL0LEPZT8","3UUIU9GZC5R93N292LT21FRJ9VS5TN","","1316.7000000029802","img/land5.png","76","1317.5","3","0","1","2","0.8,0.2,0.2,0.2,0.8,0.2,0.2,0.2,0.8","0.2,0.8,0.2,0.2,0.2,0.8,0.8,0.2,0.2","3","",""
"","html-keyboard-response","35","46468","0.0-35.0","3R9WASFE202ZDG2R5R0VYYF1R4FFZA","A3HL2LL0LEPZT8","3UUIU9GZC5R93N292LT21FRJ9VS5TN","","null","<img src=""img/land5.png"" style=""width:200px;border:14px solid red;"">","null","","","","","","","","","",""
"","image-keyboard-response","36","46682","0.0-36.0","3R9WASFE202ZDG2R5R0VYYF1R4FFZA","A3HL2LL0LEPZT8","3UUIU9GZC5R93N292LT21FRJ9VS5TN","","213.29999999701977","img/land5.png","75","214.20000000298023","2","1","1","2","0.8,0.2,0.2,0.2,0.8,0.2,0.2,0.2,0.8","0.2,0.8,0.2,0.2,0.2,0.8,0.8,0.2,0.2","3","",""
"","html-keyboard-response","37","46984","0.0-37.0","3R9WASFE202ZDG2R5R0VYYF1R4FFZA","A3HL2LL0LEPZT8","3UUIU9GZC5R93N292LT21FRJ9VS5TN","","null","<img src=""img/land5.png"" style=""width:200px; border:14px solid green;"">","null","","","","","","","","","",""
"","image-keyboard-response","38","47265","0.0-38.0","3R9WASFE202ZDG2R5R0VYYF1R4FFZA","A3HL2LL0LEPZT8","3UUIU9GZC5R93N292LT21FRJ9VS5TN","","279.5","img/land5.png","75","280.40000000596046","2","1","1","2","0.8,0.2,0.2,0.2,0.8,0.2,0.2,0.2,0.8","0.2,0.8,0.2,0.2,0.2,0.8,0.8,0.2,0.2","3","",""
"","html-keyboard-response","39","47567","0.0-39.0","3R9WASFE202ZDG2R5R0VYYF1R4FFZA","A3HL2LL0LEPZT8","3UUIU9GZC5R93N292LT21FRJ9VS5TN","","null","<img src=""img/land5.png"" style=""width:200px; border:14px solid green;"">","null","","","","","","","","","",""
"","image-keyboard-response","40","48486","0.0-40.0","3R9WASFE202ZDG2R5R0VYYF1R4FFZA","A3HL2LL0LEPZT8","3UUIU9GZC5R93N292LT21FRJ9VS5TN","","917.6000000089407","img/land5.png","75","918.5999999940395","2","1","1","2","0.8,0.2,0.2,0.2,0.8,0.2,0.2,0.2,0.8","0.2,0.8,0.2,0.2,0.2,0.8,0.8,0.2,0.2","3","",""
"","html-keyboard-response","41","48788","0.0-41.0","3R9WASFE202ZDG2R5R0VYYF1R4FFZA","A3HL2LL0LEPZT8","3UUIU9GZC5R93N292LT21FRJ9VS5TN","","null","<img src=""img/land5.png"" style=""width:200px; border:14px solid green;"">","null","","","","","","","","","",""
"","image-keyboard-response","42","49310","0.0-42.0","3R9WASFE202ZDG2R5R0VYYF1R4FFZA","A3HL2LL0LEPZT8","3UUIU9GZC5R93N292LT21FRJ9VS5TN","","521.6000000089407","img/land5.png","75","522.4000000059605","2","1","1","2","0.8,0.2,0.2,0.2,0.8,0.2,0.2,0.2,0.8","0.2,0.8,0.2,0.2,0.2,0.8,0.8,0.2,0.2","3","",""
"","html-keyboard-response","43","49613","0.0-43.0","3R9WASFE202ZDG2R5R0VYYF1R4FFZA","A3HL2LL0LEPZT8","3UUIU9GZC5R93N292LT21FRJ9VS5TN","","null","<img src=""img/land5.png"" style=""width:200px; border:14px solid green;"">","null","","","","","","","","","",""
"","image-keyboard-response","44","50199","0.0-44.0","3R9WASFE202ZDG2R5R0VYYF1R4FFZA","A3HL2LL0LEPZT8","3UUIU9GZC5R93N292LT21FRJ9VS5TN","","585.6000000089407","img/land5.png","75","586.6000000089407","2","1","1","2","0.8,0.2,0.2,0.2,0.8,0.2,0.2,0.2,0.8","0.2,0.8,0.2,0.2,0.2,0.8,0.8,0.2,0.2","3","",""
"","html-keyboard-response","45","50502","0.0-45.0","3R9WASFE202ZDG2R5R0VYYF1R4FFZA","A3HL2LL0LEPZT8","3UUIU9GZC5R93N292LT21FRJ9VS5TN","","null","<img src=""img/land5.png"" style=""width:200px; border:14px solid green;"">","null","","","","","","","","","",""
"","image-keyboard-response","46","50989","0.0-46.0","3R9WASFE202ZDG2R5R0VYYF1R4FFZA","A3HL2LL0LEPZT8","3UUIU9GZC5R93N292LT21FRJ9VS5TN","","486.29999999701977","img/land5.png","75","487.1000000089407","2","0","1","2","0.8,0.2,0.2,0.2,0.8,0.2,0.2,0.2,0.8","0.2,0.8,0.2,0.2,0.2,0.8,0.8,0.2,0.2","3","",""
"","html-keyboard-response","47","51292","0.0-47.0","3R9WASFE202ZDG2R5R0VYYF1R4FFZA","A3HL2LL0LEPZT8","3UUIU9GZC5R93N292LT21FRJ9VS5TN","","null","<img src=""img/land5.png"" style=""width:200px;border:14px solid red;"">","null","","","","","","","","","",""
"","image-keyboard-response","48","51895","0.0-48.0","3R9WASFE202ZDG2R5R0VYYF1R4FFZA","A3HL2LL0LEPZT8","3UUIU9GZC5R93N292LT21FRJ9VS5TN","","602.5","img/land4.png","74","603.3000000119209","1","0","2","2","0.8,0.2,0.2,0.2,0.8,0.2,0.2,0.2,0.8","0.2,0.8,0.2,0.2,0.2,0.8,0.8,0.2,0.2","3","",""
"","html-keyboard-response","49","52197","0.0-49.0","3R9WASFE202ZDG2R5R0VYYF1R4FFZA","A3HL2LL0LEPZT8","3UUIU9GZC5R93N292LT21FRJ9VS5TN","","null","<img src=""img/land4.png"" style=""width:200px;border:14px solid red;"">","null","","","","","","","","","",""
"","image-keyboard-response","50","52864","0.0-50.0","3R9WASFE202ZDG2R5R0VYYF1R4FFZA","A3HL2LL0LEPZT8","3UUIU9GZC5R93N292LT21FRJ9VS5TN","","666.2999999970198","img/land5.png","75","667.2000000029802","2","1","1","2","0.8,0.2,0.2,0.2,0.8,0.2,0.2,0.2,0.8","0.2,0.8,0.2,0.2,0.2,0.8,0.8,0.2,0.2","3","",""
"","html-keyboard-response","51","53166","0.0-51.0","3R9WASFE202ZDG2R5R0VYYF1R4FFZA","A3HL2LL0LEPZT8","3UUIU9GZC5R93N292LT21FRJ9VS5TN","","null","<img src=""img/land5.png"" style=""width:200px; border:14px solid green;"">","null","","","","","","","","","",""
"","image-keyboard-response","52","54036","0.0-52.0","3R9WASFE202ZDG2R5R0VYYF1R4FFZA","A3HL2LL0LEPZT8","3UUIU9GZC5R93N292LT21FRJ9VS5TN","","868.7000000029802","img/land4.png","76","869.5999999940395","3","0","2","2","0.8,0.2,0.2,0.2,0.8,0.2,0.2,0.2,0.8","0.2,0.8,0.2,0.2,0.2,0.8,0.8,0.2,0.2","3","",""
"","html-keyboard-response","53","54338","0.0-53.0","3R9WASFE202ZDG2R5R0VYYF1R4FFZA","A3HL2LL0LEPZT8","3UUIU9GZC5R93N292LT21FRJ9VS5TN","","null","<img src=""img/land4.png"" style=""width:200px;border:14px solid red;"">","null","","","","","","","","","",""
"","image-keyboard-response","54","54902","0.0-54.0","3R9WASFE202ZDG2R5R0VYYF1R4FFZA","A3HL2LL0LEPZT8","3UUIU9GZC5R93N292LT21FRJ9VS5TN","","562.6999999880791","img/land5.png","75","563.5","2","1","1","2","0.8,0.2,0.2,0.2,0.8,0.2,0.2,0.2,0.8","0.2,0.8,0.2,0.2,0.2,0.8,0.8,0.2,0.2","3","",""
"","html-keyboard-response","55","55203","0.0-55.0","3R9WASFE202ZDG2R5R0VYYF1R4FFZA","A3HL2LL0LEPZT8","3UUIU9GZC5R93N292LT21FRJ9VS5TN","","null","<img src=""img/land5.png"" style=""width:200px; border:14px solid green;"">","null","","","","","","","","","",""
"","image-keyboard-response","56","55526","0.0-56.0","3R9WASFE202ZDG2R5R0VYYF1R4FFZA","A3HL2LL0LEPZT8","3UUIU9GZC5R93N292LT21FRJ9VS5TN","","322.40000000596046","img/land5.png","75","323.40000000596046","2","1","1","2","0.8,0.2,0.2,0.2,0.8,0.2,0.2,0.2,0.8","0.2,0.8,0.2,0.2,0.2,0.8,0.8,0.2,0.2","3","",""
"","html-keyboard-response","57","55829","0.0-57.0","3R9WASFE202ZDG2R5R0VYYF1R4FFZA","A3HL2LL0LEPZT8","3UUIU9GZC5R93N292LT21FRJ9VS5TN","","null","<img src=""img/land5.png"" style=""width:200px; border:14px solid green;"">","null","","","","","","","","","",""
"","image-keyboard-response","58","56122","0.0-58.0","3R9WASFE202ZDG2R5R0VYYF1R4FFZA","A3HL2LL0LEPZT8","3UUIU9GZC5R93N292LT21FRJ9VS5TN","","291.80000001192093","img/land5.png","75","292.79999999701977","2","0","1","2","0.8,0.2,0.2,0.2,0.8,0.2,0.2,0.2,0.8","0.2,0.8,0.2,0.2,0.2,0.8,0.8,0.2,0.2","3","",""
"","html-keyboard-response","59","56424","0.0-59.0","3R9WASFE202ZDG2R5R0VYYF1R4FFZA","A3HL2LL0LEPZT8","3UUIU9GZC5R93N292LT21FRJ9VS5TN","","null","<img src=""img/land5.png"" style=""width:200px;border:14px solid red;"">","null","","","","","","","","","",""
"","image-keyboard-response","60","57298","0.0-60.0","3R9WASFE202ZDG2R5R0VYYF1R4FFZA","A3HL2LL0LEPZT8","3UUIU9GZC5R93N292LT21FRJ9VS5TN","","873.7999999970198","img/land5.png","76","874.5","3","0","1","2","0.8,0.2,0.2,0.2,0.8,0.2,0.2,0.2,0.8","0.2,0.8,0.2,0.2,0.2,0.8,0.8,0.2,0.2","3","",""
"","html-keyboard-response","61","57601","0.0-61.0","3R9WASFE202ZDG2R5R0VYYF1R4FFZA","A3HL2LL0LEPZT8","3UUIU9GZC5R93N292LT21FRJ9VS5TN","","null","<img src=""img/land5.png"" style=""width:200px;border:14px solid red;"">","null","","","","","","","","","",""
"","image-keyboard-response","62","58018","0.0-62.0","3R9WASFE202ZDG2R5R0VYYF1R4FFZA","A3HL2LL0LEPZT8","3UUIU9GZC5R93N292LT21FRJ9VS5TN","","415.70000000298023","img/land6.png","74","416.59999999403954","1","0","3","2","0.8,0.2,0.2,0.2,0.8,0.2,0.2,0.2,0.8","0.2,0.8,0.2,0.2,0.2,0.8,0.8,0.2,0.2","3","",""
"","html-keyboard-response","63","58321","0.0-63.0","3R9WASFE202ZDG2R5R0VYYF1R4FFZA","A3HL2LL0LEPZT8","3UUIU9GZC5R93N292LT21FRJ9VS5TN","","null","<img src=""img/land6.png"" style=""width:200px;border:14px solid red;"">","null","","","","","","","","","",""
"","image-keyboard-response","64","58511","0.0-64.0","3R9WASFE202ZDG2R5R0VYYF1R4FFZA","A3HL2LL0LEPZT8","3UUIU9GZC5R93N292LT21FRJ9VS5TN","","189.90000000596046","img/land5.png","75","190.70000000298023","2","1","1","2","0.8,0.2,0.2,0.2,0.8,0.2,0.2,0.2,0.8","0.2,0.8,0.2,0.2,0.2,0.8,0.8,0.2,0.2","3","",""
"","html-keyboard-response","65","58814","0.0-65.0","3R9WASFE202ZDG2R5R0VYYF1R4FFZA","A3HL2LL0LEPZT8","3UUIU9GZC5R93N292LT21FRJ9VS5TN","","null","<img src=""img/land5.png"" style=""width:200px; border:14px solid green;"">","null","","","","","","","","","",""
"","image-keyboard-response","66","59044","0.0-66.0","3R9WASFE202ZDG2R5R0VYYF1R4FFZA","A3HL2LL0LEPZT8","3UUIU9GZC5R93N292LT21FRJ9VS5TN","","229.59999999403954","img/land5.png","75","230.29999999701977","2","1","1","2","0.8,0.2,0.2,0.2,0.8,0.2,0.2,0.2,0.8","0.2,0.8,0.2,0.2,0.2,0.8,0.8,0.2,0.2","3","",""
"","html-keyboard-response","67","59345","0.0-67.0","3R9WASFE202ZDG2R5R0VYYF1R4FFZA","A3HL2LL0LEPZT8","3UUIU9GZC5R93N292LT21FRJ9VS5TN","","null","<img src=""img/land5.png"" style=""width:200px; border:14px solid green;"">","null","","","","","","","","","",""
"","image-keyboard-response","68","59633","0.0-68.0","3R9WASFE202ZDG2R5R0VYYF1R4FFZA","A3HL2LL0LEPZT8","3UUIU9GZC5R93N292LT21FRJ9VS5TN","","286.5","img/land5.png","75","287.59999999403954","2","1","1","2","0.8,0.2,0.2,0.2,0.8,0.2,0.2,0.2,0.8","0.2,0.8,0.2,0.2,0.2,0.8,0.8,0.2,0.2","3","",""
"","html-keyboard-response","69","59936","0.0-69.0","3R9WASFE202ZDG2R5R0VYYF1R4FFZA","A3HL2LL0LEPZT8","3UUIU9GZC5R93N292LT21FRJ9VS5TN","","null","<img src=""img/land5.png"" style=""width:200px; border:14px solid green;"">","null","","","","","","","","","",""
"","image-keyboard-response","70","60220","0.0-70.0","3R9WASFE202ZDG2R5R0VYYF1R4FFZA","A3HL2LL0LEPZT8","3UUIU9GZC5R93N292LT21FRJ9VS5TN","","283.09999999403954","img/land5.png","75","284.09999999403954","2","0","1","2","0.8,0.2,0.2,0.2,0.8,0.2,0.2,0.2,0.8","0.2,0.8,0.2,0.2,0.2,0.8,0.8,0.2,0.2","3","",""
"","html-keyboard-response","71","60522","0.0-71.0","3R9WASFE202ZDG2R5R0VYYF1R4FFZA","A3HL2LL0LEPZT8","3UUIU9GZC5R93N292LT21FRJ9VS5TN","","null","<img src=""img/land5.png"" style=""width:200px;border:14px solid red;"">","null","","","","","","","","","",""
"","image-keyboard-response","72","61001","0.0-72.0","3R9WASFE202ZDG2R5R0VYYF1R4FFZA","A3HL2LL0LEPZT8","3UUIU9GZC5R93N292LT21FRJ9VS5TN","","478.59999999403954","img/land4.png","76","479.29999999701977","3","1","2","2","0.8,0.2,0.2,0.2,0.8,0.2,0.2,0.2,0.8","0.2,0.8,0.2,0.2,0.2,0.8,0.8,0.2,0.2","3","",""
"","html-keyboard-response","73","61304","0.0-73.0","3R9WASFE202ZDG2R5R0VYYF1R4FFZA","A3HL2LL0LEPZT8","3UUIU9GZC5R93N292LT21FRJ9VS5TN","","null","<img src=""img/land4.png"" style=""width:200px; border:14px solid green;"">","null","","","","","","","","","",""
"","image-keyboard-response","74","61771","0.0-74.0","3R9WASFE202ZDG2R5R0VYYF1R4FFZA","A3HL2LL0LEPZT8","3UUIU9GZC5R93N292LT21FRJ9VS5TN","","466.3999999910593","img/land5.png","75","467.19999998807907","2","1","1","2","0.8,0.2,0.2,0.2,0.8,0.2,0.2,0.2,0.8","0.2,0.8,0.2,0.2,0.2,0.8,0.8,0.2,0.2","3","",""
"","html-keyboard-response","75","62079","0.0-75.0","3R9WASFE202ZDG2R5R0VYYF1R4FFZA","A3HL2LL0LEPZT8","3UUIU9GZC5R93N292LT21FRJ9VS5TN","","null","<img src=""img/land5.png"" style=""width:200px; border:14px solid green;"">","null","","","","","","","","","",""
"","image-keyboard-response","76","62428","0.0-76.0","3R9WASFE202ZDG2R5R0VYYF1R4FFZA","A3HL2LL0LEPZT8","3UUIU9GZC5R93N292LT21FRJ9VS5TN","","348.20000000298023","img/land6.png","76","348.90000000596046","3","0","3","2","0.8,0.2,0.2,0.2,0.8,0.2,0.2,0.2,0.8","0.2,0.8,0.2,0.2,0.2,0.8,0.8,0.2,0.2","3","",""
"","html-keyboard-response","77","62729","0.0-77.0","3R9WASFE202ZDG2R5R0VYYF1R4FFZA","A3HL2LL0LEPZT8","3UUIU9GZC5R93N292LT21FRJ9VS5TN","","null","<img src=""img/land6.png"" style=""width:200px;border:14px solid red;"">","null","","","","","","","","","",""
"","image-keyboard-response","78","63224","0.0-78.0","3R9WASFE202ZDG2R5R0VYYF1R4FFZA","A3HL2LL0LEPZT8","3UUIU9GZC5R93N292LT21FRJ9VS5TN","","493.20000000298023","img/land5.png","75","493.90000000596046","2","1","1","2","0.8,0.2,0.2,0.2,0.8,0.2,0.2,0.2,0.8","0.2,0.8,0.2,0.2,0.2,0.8,0.8,0.2,0.2","3","",""
"","html-keyboard-response","79","63526","0.0-79.0","3R9WASFE202ZDG2R5R0VYYF1R4FFZA","A3HL2LL0LEPZT8","3UUIU9GZC5R93N292LT21FRJ9VS5TN","","null","<img src=""img/land5.png"" style=""width:200px; border:14px solid green;"">","null","","","","","","","","","",""
"","image-keyboard-response","80","63829","0.0-80.0","3R9WASFE202ZDG2R5R0VYYF1R4FFZA","A3HL2LL0LEPZT8","3UUIU9GZC5R93N292LT21FRJ9VS5TN","","301.3999999910593","img/land5.png","75","302.19999998807907","2","1","1","2","0.8,0.2,0.2,0.2,0.8,0.2,0.2,0.2,0.8","0.2,0.8,0.2,0.2,0.2,0.8,0.8,0.2,0.2","3","",""
"","html-keyboard-response","81","64131","0.0-81.0","3R9WASFE202ZDG2R5R0VYYF1R4FFZA","A3HL2LL0LEPZT8","3UUIU9GZC5R93N292LT21FRJ9VS5TN","","null","<img src=""img/land5.png"" style=""width:200px; border:14px solid green;"">","null","","","","","","","","","",""
"","image-keyboard-response","82","64614","0.0-82.0","3R9WASFE202ZDG2R5R0VYYF1R4FFZA","A3HL2LL0LEPZT8","3UUIU9GZC5R93N292LT21FRJ9VS5TN","","482.20000000298023","img/land6.png","75","483","2","0","3","2","0.8,0.2,0.2,0.2,0.8,0.2,0.2,0.2,0.8","0.2,0.8,0.2,0.2,0.2,0.8,0.8,0.2,0.2","3","",""
"","html-keyboard-response","83","64917","0.0-83.0","3R9WASFE202ZDG2R5R0VYYF1R4FFZA","A3HL2LL0LEPZT8","3UUIU9GZC5R93N292LT21FRJ9VS5TN","","null","<img src=""img/land6.png"" style=""width:200px;border:14px solid red;"">","null","","","","","","","","","",""
"","image-keyboard-response","84","65319","0.0-84.0","3R9WASFE202ZDG2R5R0VYYF1R4FFZA","A3HL2LL0LEPZT8","3UUIU9GZC5R93N292LT21FRJ9VS5TN","","401","img/land6.png","74","402.1000000089407","1","1","3","2","0.8,0.2,0.2,0.2,0.8,0.2,0.2,0.2,0.8","0.2,0.8,0.2,0.2,0.2,0.8,0.8,0.2,0.2","3","",""
"","html-keyboard-response","85","65621","0.0-85.0","3R9WASFE202ZDG2R5R0VYYF1R4FFZA","A3HL2LL0LEPZT8","3UUIU9GZC5R93N292LT21FRJ9VS5TN","","null","<img src=""img/land6.png"" style=""width:200px; border:14px solid green;"">","null","","","","","","","","","",""
"","image-keyboard-response","86","66189","0.0-86.0","3R9WASFE202ZDG2R5R0VYYF1R4FFZA","A3HL2LL0LEPZT8","3UUIU9GZC5R93N292LT21FRJ9VS5TN","","567.5","img/land5.png","75","568.0999999940395","2","1","1","2","0.8,0.2,0.2,0.2,0.8,0.2,0.2,0.2,0.8","0.2,0.8,0.2,0.2,0.2,0.8,0.8,0.2,0.2","3","",""
"","html-keyboard-response","87","66496","0.0-87.0","3R9WASFE202ZDG2R5R0VYYF1R4FFZA","A3HL2LL0LEPZT8","3UUIU9GZC5R93N292LT21FRJ9VS5TN","","null","<img src=""img/land5.png"" style=""width:200px; border:14px solid green;"">","null","","","","","","","","","",""
"","image-keyboard-response","88","66783","0.0-88.0","3R9WASFE202ZDG2R5R0VYYF1R4FFZA","A3HL2LL0LEPZT8","3UUIU9GZC5R93N292LT21FRJ9VS5TN","","285.90000000596046","img/land5.png","75","286.90000000596046","2","1","1","2","0.8,0.2,0.2,0.2,0.8,0.2,0.2,0.2,0.8","0.2,0.8,0.2,0.2,0.2,0.8,0.8,0.2,0.2","3","",""
"","html-keyboard-response","89","67084","0.0-89.0","3R9WASFE202ZDG2R5R0VYYF1R4FFZA","A3HL2LL0LEPZT8","3UUIU9GZC5R93N292LT21FRJ9VS5TN","","null","<img src=""img/land5.png"" style=""width:200px; border:14px solid green;"">","null","","","","","","","","","",""
"","image-keyboard-response","90","67366","0.0-90.0","3R9WASFE202ZDG2R5R0VYYF1R4FFZA","A3HL2LL0LEPZT8","3UUIU9GZC5R93N292LT21FRJ9VS5TN","","281.20000000298023","img/land5.png","75","281.90000000596046","2","1","1","2","0.8,0.2,0.2,0.2,0.8,0.2,0.2,0.2,0.8","0.2,0.8,0.2,0.2,0.2,0.8,0.8,0.2,0.2","3","",""
"","html-keyboard-response","91","67669","0.0-91.0","3R9WASFE202ZDG2R5R0VYYF1R4FFZA","A3HL2LL0LEPZT8","3UUIU9GZC5R93N292LT21FRJ9VS5TN","","null","<img src=""img/land5.png"" style=""width:200px; border:14px solid green;"">","null","","","","","","","","","",""
"","image-keyboard-response","92","68126","0.0-92.0","3R9WASFE202ZDG2R5R0VYYF1R4FFZA","A3HL2LL0LEPZT8","3UUIU9GZC5R93N292LT21FRJ9VS5TN","","456.20000000298023","img/land4.png","74","456.90000000596046","1","0","2","2","0.8,0.2,0.2,0.2,0.8,0.2,0.2,0.2,0.8","0.2,0.8,0.2,0.2,0.2,0.8,0.8,0.2,0.2","3","",""
"","html-keyboard-response","93","68427","0.0-93.0","3R9WASFE202ZDG2R5R0VYYF1R4FFZA","A3HL2LL0LEPZT8","3UUIU9GZC5R93N292LT21FRJ9VS5TN","","null","<img src=""img/land4.png"" style=""width:200px;border:14px solid red;"">","null","","","","","","","","","",""
"","image-keyboard-response","94","68611","0.0-94.0","3R9WASFE202ZDG2R5R0VYYF1R4FFZA","A3HL2LL0LEPZT8","3UUIU9GZC5R93N292LT21FRJ9VS5TN","","182.8999999910593","img/land5.png","76","183.79999999701977","3","1","1","2","0.8,0.2,0.2,0.2,0.8,0.2,0.2,0.2,0.8","0.2,0.8,0.2,0.2,0.2,0.8,0.8,0.2,0.2","3","",""
"","html-keyboard-response","95","68913","0.0-95.0","3R9WASFE202ZDG2R5R0VYYF1R4FFZA","A3HL2LL0LEPZT8","3UUIU9GZC5R93N292LT21FRJ9VS5TN","","null","<img src=""img/land5.png"" style=""width:200px; border:14px solid green;"">","null","","","","","","","","","",""
"","image-keyboard-response","96","69718","0.0-96.0","3R9WASFE202ZDG2R5R0VYYF1R4FFZA","A3HL2LL0LEPZT8","3UUIU9GZC5R93N292LT21FRJ9VS5TN","","803.2000000029802","img/land6.png","74","804.0999999940395","1","1","3","2","0.8,0.2,0.2,0.2,0.8,0.2,0.2,0.2,0.8","0.2,0.8,0.2,0.2,0.2,0.8,0.8,0.2,0.2","3","",""
"","html-keyboard-response","97","70020","0.0-97.0","3R9WASFE202ZDG2R5R0VYYF1R4FFZA","A3HL2LL0LEPZT8","3UUIU9GZC5R93N292LT21FRJ9VS5TN","","null","<img src=""img/land6.png"" style=""width:200px; border:14px solid green;"">","null","","","","","","","","","",""
"","image-keyboard-response","98","70297","0.0-98.0","3R9WASFE202ZDG2R5R0VYYF1R4FFZA","A3HL2LL0LEPZT8","3UUIU9GZC5R93N292LT21FRJ9VS5TN","","275.69999998807907","img/land6.png","74","276.59999999403954","1","1","3","2","0.8,0.2,0.2,0.2,0.8,0.2,0.2,0.2,0.8","0.2,0.8,0.2,0.2,0.2,0.8,0.8,0.2,0.2","3","",""
"","html-keyboard-response","99","70599","0.0-99.0","3R9WASFE202ZDG2R5R0VYYF1R4FFZA","A3HL2LL0LEPZT8","3UUIU9GZC5R93N292LT21FRJ9VS5TN","","null","<img src=""img/land6.png"" style=""width:200px; border:14px solid green;"">","null","","","","","","","","","",""
"","image-keyboard-response","100","70878","0.0-100.0","3R9WASFE202ZDG2R5R0VYYF1R4FFZA","A3HL2LL0LEPZT8","3UUIU9GZC5R93N292LT21FRJ9VS5TN","","278.09999999403954","img/land6.png","74","278.8999999910593","1","1","3","2","0.8,0.2,0.2,0.2,0.8,0.2,0.2,0.2,0.8","0.2,0.8,0.2,0.2,0.2,0.8,0.8,0.2,0.2","3","",""
"","html-keyboard-response","101","71181","0.0-101.0","3R9WASFE202ZDG2R5R0VYYF1R4FFZA","A3HL2LL0LEPZT8","3UUIU9GZC5R93N292LT21FRJ9VS5TN","","null","<img src=""img/land6.png"" style=""width:200px; border:14px solid green;"">","null","","","","","","","","","",""
"","image-keyboard-response","102","71359","0.0-102.0","3R9WASFE202ZDG2R5R0VYYF1R4FFZA","A3HL2LL0LEPZT8","3UUIU9GZC5R93N292LT21FRJ9VS5TN","","176.59999999403954","img/land5.png","74","177.40000000596046","1","0","1","2","0.8,0.2,0.2,0.2,0.8,0.2,0.2,0.2,0.8","0.2,0.8,0.2,0.2,0.2,0.8,0.8,0.2,0.2","3","",""
"","html-keyboard-response","103","71661","0.0-103.0","3R9WASFE202ZDG2R5R0VYYF1R4FFZA","A3HL2LL0LEPZT8","3UUIU9GZC5R93N292LT21FRJ9VS5TN","","null","<img src=""img/land5.png"" style=""width:200px;border:14px solid red;"">","null","","","","","","","","","",""
"","image-keyboard-response","104","71727","0.0-104.0","3R9WASFE202ZDG2R5R0VYYF1R4FFZA","A3HL2LL0LEPZT8","3UUIU9GZC5R93N292LT21FRJ9VS5TN","","64.80000001192093","img/land5.png","75","65.79999999701977","2","1","1","2","0.8,0.2,0.2,0.2,0.8,0.2,0.2,0.2,0.8","0.2,0.8,0.2,0.2,0.2,0.8,0.8,0.2,0.2","3","",""
"","html-keyboard-response","105","72030","0.0-105.0","3R9WASFE202ZDG2R5R0VYYF1R4FFZA","A3HL2LL0LEPZT8","3UUIU9GZC5R93N292LT21FRJ9VS5TN","","null","<img src=""img/land5.png"" style=""width:200px; border:14px solid green;"">","null","","","","","","","","","",""
"","image-keyboard-response","106","72189","0.0-106.0","3R9WASFE202ZDG2R5R0VYYF1R4FFZA","A3HL2LL0LEPZT8","3UUIU9GZC5R93N292LT21FRJ9VS5TN","","158.09999999403954","img/land5.png","75","158.79999999701977","2","1","1","2","0.8,0.2,0.2,0.2,0.8,0.2,0.2,0.2,0.8","0.2,0.8,0.2,0.2,0.2,0.8,0.8,0.2,0.2","3","",""
"","html-keyboard-response","107","72491","0.0-107.0","3R9WASFE202ZDG2R5R0VYYF1R4FFZA","A3HL2LL0LEPZT8","3UUIU9GZC5R93N292LT21FRJ9VS5TN","","null","<img src=""img/land5.png"" style=""width:200px; border:14px solid green;"">","null","","","","","","","","","",""
"","image-keyboard-response","108","73118","0.0-108.0","3R9WASFE202ZDG2R5R0VYYF1R4FFZA","A3HL2LL0LEPZT8","3UUIU9GZC5R93N292LT21FRJ9VS5TN","","625.7000000029802","img/land6.png","74","626.8999999910593","1","1","3","2","0.8,0.2,0.2,0.2,0.8,0.2,0.2,0.2,0.8","0.2,0.8,0.2,0.2,0.2,0.8,0.8,0.2,0.2","3","",""
"","html-keyboard-response","109","73420","0.0-109.0","3R9WASFE202ZDG2R5R0VYYF1R4FFZA","A3HL2LL0LEPZT8","3UUIU9GZC5R93N292LT21FRJ9VS5TN","","null","<img src=""img/land6.png"" style=""width:200px; border:14px solid green;"">","null","","","","","","","","","",""
"","image-keyboard-response","110","73943","0.0-110.0","3R9WASFE202ZDG2R5R0VYYF1R4FFZA","A3HL2LL0LEPZT8","3UUIU9GZC5R93N292LT21FRJ9VS5TN","","522.2000000029802","img/land5.png","75","523.1000000089407","2","0","1","2","0.8,0.2,0.2,0.2,0.8,0.2,0.2,0.2,0.8","0.2,0.8,0.2,0.2,0.2,0.8,0.8,0.2,0.2","3","",""
"","html-keyboard-response","111","74246","0.0-111.0","3R9WASFE202ZDG2R5R0VYYF1R4FFZA","A3HL2LL0LEPZT8","3UUIU9GZC5R93N292LT21FRJ9VS5TN","","null","<img src=""img/land5.png"" style=""width:200px;border:14px solid red;"">","null","","","","","","","","","",""
"","image-keyboard-response","112","74918","0.0-112.0","3R9WASFE202ZDG2R5R0VYYF1R4FFZA","A3HL2LL0LEPZT8","3UUIU9GZC5R93N292LT21FRJ9VS5TN","","670.0999999940395","img/land5.png","75","671.2000000029802","2","1","1","2","0.8,0.2,0.2,0.2,0.8,0.2,0.2,0.2,0.8","0.2,0.8,0.2,0.2,0.2,0.8,0.8,0.2,0.2","3","",""
"","html-keyboard-response","113","75219","0.0-113.0","3R9WASFE202ZDG2R5R0VYYF1R4FFZA","A3HL2LL0LEPZT8","3UUIU9GZC5R93N292LT21FRJ9VS5TN","","null","<img src=""img/land5.png"" style=""width:200px; border:14px solid green;"">","null","","","","","","","","","",""
"","image-keyboard-response","114","75352","0.0-114.0","3R9WASFE202ZDG2R5R0VYYF1R4FFZA","A3HL2LL0LEPZT8","3UUIU9GZC5R93N292LT21FRJ9VS5TN","","132.30000001192093","img/land4.png","75","133.20000000298023","2","0","2","2","0.8,0.2,0.2,0.2,0.8,0.2,0.2,0.2,0.8","0.2,0.8,0.2,0.2,0.2,0.8,0.8,0.2,0.2","3","",""
"","html-keyboard-response","115","75653","0.0-115.0","3R9WASFE202ZDG2R5R0VYYF1R4FFZA","A3HL2LL0LEPZT8","3UUIU9GZC5R93N292LT21FRJ9VS5TN","","null","<img src=""img/land4.png"" style=""width:200px;border:14px solid red;"">","null","","","","","","","","","",""
"","image-keyboard-response","116","76352","0.0-116.0","3R9WASFE202ZDG2R5R0VYYF1R4FFZA","A3HL2LL0LEPZT8","3UUIU9GZC5R93N292LT21FRJ9VS5TN","","698.0999999940395","img/land5.png","75","698.7999999970198","2","0","1","2","0.8,0.2,0.2,0.2,0.8,0.2,0.2,0.2,0.8","0.2,0.8,0.2,0.2,0.2,0.8,0.8,0.2,0.2","3","",""
"","html-keyboard-response","117","76654","0.0-117.0","3R9WASFE202ZDG2R5R0VYYF1R4FFZA","A3HL2LL0LEPZT8","3UUIU9GZC5R93N292LT21FRJ9VS5TN","","null","<img src=""img/land5.png"" style=""width:200px;border:14px solid red;"">","null","","","","","","","","","",""
"","image-keyboard-response","118","77047","0.0-118.0","3R9WASFE202ZDG2R5R0VYYF1R4FFZA","A3HL2LL0LEPZT8","3UUIU9GZC5R93N292LT21FRJ9VS5TN","","392.09999999403954","img/land5.png","75","392.79999999701977","2","1","1","2","0.8,0.2,0.2,0.2,0.8,0.2,0.2,0.2,0.8","0.2,0.8,0.2,0.2,0.2,0.8,0.8,0.2,0.2","3","",""
"","html-keyboard-response","119","77349","0.0-119.0","3R9WASFE202ZDG2R5R0VYYF1R4FFZA","A3HL2LL0LEPZT8","3UUIU9GZC5R93N292LT21FRJ9VS5TN","","null","<img src=""img/land5.png"" style=""width:200px; border:14px solid green;"">","null","","","","","","","","","",""
"","image-keyboard-response","120","78054","0.0-120.0","3R9WASFE202ZDG2R5R0VYYF1R4FFZA","A3HL2LL0LEPZT8","3UUIU9GZC5R93N292LT21FRJ9VS5TN","","703.3999999910593","img/land6.png","76","704.2000000029802","3","0","3","2","0.8,0.2,0.2,0.2,0.8,0.2,0.2,0.2,0.8","0.2,0.8,0.2,0.2,0.2,0.8,0.8,0.2,0.2","3","",""
"","html-keyboard-response","121","78355","0.0-121.0","3R9WASFE202ZDG2R5R0VYYF1R4FFZA","A3HL2LL0LEPZT8","3UUIU9GZC5R93N292LT21FRJ9VS5TN","","null","<img src=""img/land6.png"" style=""width:200px;border:14px solid red;"">","null","","","","","","","","","",""
"","image-keyboard-response","122","78904","0.0-122.0","3R9WASFE202ZDG2R5R0VYYF1R4FFZA","A3HL2LL0LEPZT8","3UUIU9GZC5R93N292LT21FRJ9VS5TN","","547.5","img/land5.png","75","548.4000000059605","2","1","1","2","0.8,0.2,0.2,0.2,0.8,0.2,0.2,0.2,0.8","0.2,0.8,0.2,0.2,0.2,0.8,0.8,0.2,0.2","3","",""
"","html-keyboard-response","123","79206","0.0-123.0","3R9WASFE202ZDG2R5R0VYYF1R4FFZA","A3HL2LL0LEPZT8","3UUIU9GZC5R93N292LT21FRJ9VS5TN","","null","<img src=""img/land5.png"" style=""width:200px; border:14px solid green;"">","null","","","","","","","","","",""
"","image-keyboard-response","124","79683","0.0-124.0","3R9WASFE202ZDG2R5R0VYYF1R4FFZA","A3HL2LL0LEPZT8","3UUIU9GZC5R93N292LT21FRJ9VS5TN","","475.29999999701977","img/land6.png","74","476.09999999403954","1","1","3","2","0.8,0.2,0.2,0.2,0.8,0.2,0.2,0.2,0.8","0.2,0.8,0.2,0.2,0.2,0.8,0.8,0.2,0.2","3","",""
"","html-keyboard-response","125","79984","0.0-125.0","3R9WASFE202ZDG2R5R0VYYF1R4FFZA","A3HL2LL0LEPZT8","3UUIU9GZC5R93N292LT21FRJ9VS5TN","","null","<img src=""img/land6.png"" style=""width:200px; border:14px solid green;"">","null","","","","","","","","","",""
"","image-keyboard-response","126","80455","0.0-126.0","3R9WASFE202ZDG2R5R0VYYF1R4FFZA","A3HL2LL0LEPZT8","3UUIU9GZC5R93N292LT21FRJ9VS5TN","","470.29999999701977","img/land4.png","75","471","2","0","2","2","0.8,0.2,0.2,0.2,0.8,0.2,0.2,0.2,0.8","0.2,0.8,0.2,0.2,0.2,0.8,0.8,0.2,0.2","3","",""
"","html-keyboard-response","127","80756","0.0-127.0","3R9WASFE202ZDG2R5R0VYYF1R4FFZA","A3HL2LL0LEPZT8","3UUIU9GZC5R93N292LT21FRJ9VS5TN","","null","<img src=""img/land4.png"" style=""width:200px;border:14px solid red;"">","null","","","","","","","","","",""
"","image-keyboard-response","128","81394","0.0-128.0","3R9WASFE202ZDG2R5R0VYYF1R4FFZA","A3HL2LL0LEPZT8","3UUIU9GZC5R93N292LT21FRJ9VS5TN","","637","img/land5.png","75","637.7000000029802","2","1","1","2","0.8,0.2,0.2,0.2,0.8,0.2,0.2,0.2,0.8","0.2,0.8,0.2,0.2,0.2,0.8,0.8,0.2,0.2","3","",""
"","html-keyboard-response","129","81696","0.0-129.0","3R9WASFE202ZDG2R5R0VYYF1R4FFZA","A3HL2LL0LEPZT8","3UUIU9GZC5R93N292LT21FRJ9VS5TN","","null","<img src=""img/land5.png"" style=""width:200px; border:14px solid green;"">","null","","","","","","","","","",""
"","image-keyboard-response","130","82014","0.0-130.0","3R9WASFE202ZDG2R5R0VYYF1R4FFZA","A3HL2LL0LEPZT8","3UUIU9GZC5R93N292LT21FRJ9VS5TN","","316.70000000298023","img/land5.png","75","317.5","2","1","1","2","0.8,0.2,0.2,0.2,0.8,0.2,0.2,0.2,0.8","0.2,0.8,0.2,0.2,0.2,0.8,0.8,0.2,0.2","3","",""
"","html-keyboard-response","131","82315","0.0-131.0","3R9WASFE202ZDG2R5R0VYYF1R4FFZA","A3HL2LL0LEPZT8","3UUIU9GZC5R93N292LT21FRJ9VS5TN","","null","<img src=""img/land5.png"" style=""width:200px; border:14px solid green;"">","null","","","","","","","","","",""
"","image-keyboard-response","132","83034","0.0-132.0","3R9WASFE202ZDG2R5R0VYYF1R4FFZA","A3HL2LL0LEPZT8","3UUIU9GZC5R93N292LT21FRJ9VS5TN","","718.2000000029802","img/land4.png","76","719","3","0","2","2","0.8,0.2,0.2,0.2,0.8,0.2,0.2,0.2,0.8","0.2,0.8,0.2,0.2,0.2,0.8,0.8,0.2,0.2","3","",""
"","html-keyboard-response","133","83336","0.0-133.0","3R9WASFE202ZDG2R5R0VYYF1R4FFZA","A3HL2LL0LEPZT8","3UUIU9GZC5R93N292LT21FRJ9VS5TN","","null","<img src=""img/land4.png"" style=""width:200px;border:14px solid red;"">","null","","","","","","","","","",""
"","image-keyboard-response","134","83874","0.0-134.0","3R9WASFE202ZDG2R5R0VYYF1R4FFZA","A3HL2LL0LEPZT8","3UUIU9GZC5R93N292LT21FRJ9VS5TN","","536.5999999940395","img/land5.png","75","537.3999999910593","2","0","1","2","0.8,0.2,0.2,0.2,0.8,0.2,0.2,0.2,0.8","0.2,0.8,0.2,0.2,0.2,0.8,0.8,0.2,0.2","3","",""
"","html-keyboard-response","135","84177","0.0-135.0","3R9WASFE202ZDG2R5R0VYYF1R4FFZA","A3HL2LL0LEPZT8","3UUIU9GZC5R93N292LT21FRJ9VS5TN","","null","<img src=""img/land5.png"" style=""width:200px;border:14px solid red;"">","null","","","","","","","","","",""
"","image-keyboard-response","136","84667","0.0-136.0","3R9WASFE202ZDG2R5R0VYYF1R4FFZA","A3HL2LL0LEPZT8","3UUIU9GZC5R93N292LT21FRJ9VS5TN","","489.29999999701977","img/land4.png","76","490.09999999403954","3","1","2","2","0.8,0.2,0.2,0.2,0.8,0.2,0.2,0.2,0.8","0.2,0.8,0.2,0.2,0.2,0.8,0.8,0.2,0.2","3","",""
"","html-keyboard-response","137","84970","0.0-137.0","3R9WASFE202ZDG2R5R0VYYF1R4FFZA","A3HL2LL0LEPZT8","3UUIU9GZC5R93N292LT21FRJ9VS5TN","","null","<img src=""img/land4.png"" style=""width:200px; border:14px solid green;"">","null","","","","","","","","","",""
"","image-keyboard-response","138","85289","0.0-138.0","3R9WASFE202ZDG2R5R0VYYF1R4FFZA","A3HL2LL0LEPZT8","3UUIU9GZC5R93N292LT21FRJ9VS5TN","","318.30000001192093","img/land4.png","76","319.09999999403954","3","1","2","2","0.8,0.2,0.2,0.2,0.8,0.2,0.2,0.2,0.8","0.2,0.8,0.2,0.2,0.2,0.8,0.8,0.2,0.2","3","",""
"","html-keyboard-response","139","85591","0.0-139.0","3R9WASFE202ZDG2R5R0VYYF1R4FFZA","A3HL2LL0LEPZT8","3UUIU9GZC5R93N292LT21FRJ9VS5TN","","null","<img src=""img/land4.png"" style=""width:200px; border:14px solid green;"">","null","","","","","","","","","",""
"","image-keyboard-response","140","86097","0.0-140.0","3R9WASFE202ZDG2R5R0VYYF1R4FFZA","A3HL2LL0LEPZT8","3UUIU9GZC5R93N292LT21FRJ9VS5TN","","504.8999999910593","img/land5.png","75","505.5","2","1","1","2","0.8,0.2,0.2,0.2,0.8,0.2,0.2,0.2,0.8","0.2,0.8,0.2,0.2,0.2,0.8,0.8,0.2,0.2","3","",""
"","html-keyboard-response","141","86399","0.0-141.0","3R9WASFE202ZDG2R5R0VYYF1R4FFZA","A3HL2LL0LEPZT8","3UUIU9GZC5R93N292LT21FRJ9VS5TN","","null","<img src=""img/land5.png"" style=""width:200px; border:14px solid green;"">","null","","","","","","","","","",""
"","image-keyboard-response","142","86963","0.0-142.0","3R9WASFE202ZDG2R5R0VYYF1R4FFZA","A3HL2LL0LEPZT8","3UUIU9GZC5R93N292LT21FRJ9VS5TN","","563.2000000029802","img/land4.png","75","564","2","0","2","2","0.8,0.2,0.2,0.2,0.8,0.2,0.2,0.2,0.8","0.2,0.8,0.2,0.2,0.2,0.8,0.8,0.2,0.2","3","",""
"","html-keyboard-response","143","87264","0.0-143.0","3R9WASFE202ZDG2R5R0VYYF1R4FFZA","A3HL2LL0LEPZT8","3UUIU9GZC5R93N292LT21FRJ9VS5TN","","null","<img src=""img/land4.png"" style=""width:200px;border:14px solid red;"">","null","","","","","","","","","",""
"","image-keyboard-response","144","88463","0.0-144.0","3R9WASFE202ZDG2R5R0VYYF1R4FFZA","A3HL2LL0LEPZT8","3UUIU9GZC5R93N292LT21FRJ9VS5TN","","1197.3999999910593","img/land5.png","75","1198.2999999970198","2","1","1","2","0.8,0.2,0.2,0.2,0.8,0.2,0.2,0.2,0.8","0.2,0.8,0.2,0.2,0.2,0.8,0.8,0.2,0.2","3","",""
"","html-keyboard-response","145","88764","0.0-145.0","3R9WASFE202ZDG2R5R0VYYF1R4FFZA","A3HL2LL0LEPZT8","3UUIU9GZC5R93N292LT21FRJ9VS5TN","","null","<img src=""img/land5.png"" style=""width:200px; border:14px solid green;"">","null","","","","","","","","","",""
"","image-keyboard-response","146","89486","0.0-146.0","3R9WASFE202ZDG2R5R0VYYF1R4FFZA","A3HL2LL0LEPZT8","3UUIU9GZC5R93N292LT21FRJ9VS5TN","","720.8999999910593","img/land5.png","75","721.6999999880791","2","1","1","2","0.8,0.2,0.2,0.2,0.8,0.2,0.2,0.2,0.8","0.2,0.8,0.2,0.2,0.2,0.8,0.8,0.2,0.2","3","",""
"","html-keyboard-response","147","89788","0.0-147.0","3R9WASFE202ZDG2R5R0VYYF1R4FFZA","A3HL2LL0LEPZT8","3UUIU9GZC5R93N292LT21FRJ9VS5TN","","null","<img src=""img/land5.png"" style=""width:200px; border:14px solid green;"">","null","","","","","","","","","",""
"","image-keyboard-response","148","90234","0.0-148.0","3R9WASFE202ZDG2R5R0VYYF1R4FFZA","A3HL2LL0LEPZT8","3UUIU9GZC5R93N292LT21FRJ9VS5TN","","444.40000000596046","img/land5.png","75","445.20000000298023","2","1","1","2","0.8,0.2,0.2,0.2,0.8,0.2,0.2,0.2,0.8","0.2,0.8,0.2,0.2,0.2,0.8,0.8,0.2,0.2","3","",""
"","html-keyboard-response","149","90536","0.0-149.0","3R9WASFE202ZDG2R5R0VYYF1R4FFZA","A3HL2LL0LEPZT8","3UUIU9GZC5R93N292LT21FRJ9VS5TN","","null","<img src=""img/land5.png"" style=""width:200px; border:14px solid green;"">","null","","","","","","","","","",""
"","image-keyboard-response","150","90913","0.0-150.0","3R9WASFE202ZDG2R5R0VYYF1R4FFZA","A3HL2LL0LEPZT8","3UUIU9GZC5R93N292LT21FRJ9VS5TN","","375.20000000298023","img/land5.png","75","376.20000000298023","2","1","1","2","0.8,0.2,0.2,0.2,0.8,0.2,0.2,0.2,0.8","0.2,0.8,0.2,0.2,0.2,0.8,0.8,0.2,0.2","3","",""
"","html-keyboard-response","151","91215","0.0-151.0","3R9WASFE202ZDG2R5R0VYYF1R4FFZA","A3HL2LL0LEPZT8","3UUIU9GZC5R93N292LT21FRJ9VS5TN","","null","<img src=""img/land5.png"" style=""width:200px; border:14px solid green;"">","null","","","","","","","","","",""
"","image-keyboard-response","152","91598","0.0-152.0","3R9WASFE202ZDG2R5R0VYYF1R4FFZA","A3HL2LL0LEPZT8","3UUIU9GZC5R93N292LT21FRJ9VS5TN","","382","img/land5.png","75","382.8999999910593","2","1","1","2","0.8,0.2,0.2,0.2,0.8,0.2,0.2,0.2,0.8","0.2,0.8,0.2,0.2,0.2,0.8,0.8,0.2,0.2","3","",""
"","html-keyboard-response","153","91900","0.0-153.0","3R9WASFE202ZDG2R5R0VYYF1R4FFZA","A3HL2LL0LEPZT8","3UUIU9GZC5R93N292LT21FRJ9VS5TN","","null","<img src=""img/land5.png"" style=""width:200px; border:14px solid green;"">","null","","","","","","","","","",""
"","image-keyboard-response","154","92203","0.0-154.0","3R9WASFE202ZDG2R5R0VYYF1R4FFZA","A3HL2LL0LEPZT8","3UUIU9GZC5R93N292LT21FRJ9VS5TN","","301.5","img/land5.png","75","302.20000000298023","2","1","1","2","0.8,0.2,0.2,0.2,0.8,0.2,0.2,0.2,0.8","0.2,0.8,0.2,0.2,0.2,0.8,0.8,0.2,0.2","3","",""
"","html-keyboard-response","155","92504","0.0-155.0","3R9WASFE202ZDG2R5R0VYYF1R4FFZA","A3HL2LL0LEPZT8","3UUIU9GZC5R93N292LT21FRJ9VS5TN","","null","<img src=""img/land5.png"" style=""width:200px; border:14px solid green;"">","null","","","","","","","","","",""
"","image-keyboard-response","156","93102","0.0-156.0","3R9WASFE202ZDG2R5R0VYYF1R4FFZA","A3HL2LL0LEPZT8","3UUIU9GZC5R93N292LT21FRJ9VS5TN","","596.6000000089407","img/land5.png","75","597.5","2","1","1","2","0.8,0.2,0.2,0.2,0.8,0.2,0.2,0.2,0.8","0.2,0.8,0.2,0.2,0.2,0.8,0.8,0.2,0.2","3","",""
"","html-keyboard-response","157","93403","0.0-157.0","3R9WASFE202ZDG2R5R0VYYF1R4FFZA","A3HL2LL0LEPZT8","3UUIU9GZC5R93N292LT21FRJ9VS5TN","","null","<img src=""img/land5.png"" style=""width:200px; border:14px solid green;"">","null","","","","","","","","","",""
"","image-keyboard-response","158","93994","0.0-158.0","3R9WASFE202ZDG2R5R0VYYF1R4FFZA","A3HL2LL0LEPZT8","3UUIU9GZC5R93N292LT21FRJ9VS5TN","","589.9000000059605","img/land6.png","74","590.7000000029802","1","1","3","2","0.8,0.2,0.2,0.2,0.8,0.2,0.2,0.2,0.8","0.2,0.8,0.2,0.2,0.2,0.8,0.8,0.2,0.2","3","",""
"","html-keyboard-response","159","94296","0.0-159.0","3R9WASFE202ZDG2R5R0VYYF1R4FFZA","A3HL2LL0LEPZT8","3UUIU9GZC5R93N292LT21FRJ9VS5TN","","null","<img src=""img/land6.png"" style=""width:200px; border:14px solid green;"">","null","","","","","","","","","",""
"","image-keyboard-response","160","94823","0.0-160.0","3R9WASFE202ZDG2R5R0VYYF1R4FFZA","A3HL2LL0LEPZT8","3UUIU9GZC5R93N292LT21FRJ9VS5TN","","525.6000000089407","img/land5.png","75","526.6000000089407","2","1","1","2","0.8,0.2,0.2,0.2,0.8,0.2,0.2,0.2,0.8","0.2,0.8,0.2,0.2,0.2,0.8,0.8,0.2,0.2","3","",""
"","html-keyboard-response","161","95124","0.0-161.0","3R9WASFE202ZDG2R5R0VYYF1R4FFZA","A3HL2LL0LEPZT8","3UUIU9GZC5R93N292LT21FRJ9VS5TN","","null","<img src=""img/land5.png"" style=""width:200px; border:14px solid green;"">","null","","","","","","","","","",""
"","image-keyboard-response","162","95425","0.0-162.0","3R9WASFE202ZDG2R5R0VYYF1R4FFZA","A3HL2LL0LEPZT8","3UUIU9GZC5R93N292LT21FRJ9VS5TN","","299.19999998807907","img/land5.png","75","300.20000000298023","2","1","1","2","0.8,0.2,0.2,0.2,0.8,0.2,0.2,0.2,0.8","0.2,0.8,0.2,0.2,0.2,0.8,0.8,0.2,0.2","3","",""
"","html-keyboard-response","163","95727","0.0-163.0","3R9WASFE202ZDG2R5R0VYYF1R4FFZA","A3HL2LL0LEPZT8","3UUIU9GZC5R93N292LT21FRJ9VS5TN","","null","<img src=""img/land5.png"" style=""width:200px; border:14px solid green;"">","null","","","","","","","","","",""
"","image-keyboard-response","164","96032","0.0-164.0","3R9WASFE202ZDG2R5R0VYYF1R4FFZA","A3HL2LL0LEPZT8","3UUIU9GZC5R93N292LT21FRJ9VS5TN","","304","img/land5.png","75","304.6000000089407","2","1","1","2","0.8,0.2,0.2,0.2,0.8,0.2,0.2,0.2,0.8","0.2,0.8,0.2,0.2,0.2,0.8,0.8,0.2,0.2","3","",""
"","html-keyboard-response","165","96334","0.0-165.0","3R9WASFE202ZDG2R5R0VYYF1R4FFZA","A3HL2LL0LEPZT8","3UUIU9GZC5R93N292LT21FRJ9VS5TN","","null","<img src=""img/land5.png"" style=""width:200px; border:14px solid green;"">","null","","","","","","","","","",""
"","image-keyboard-response","166","96661","0.0-166.0","3R9WASFE202ZDG2R5R0VYYF1R4FFZA","A3HL2LL0LEPZT8","3UUIU9GZC5R93N292LT21FRJ9VS5TN","","325.6000000089407","img/land5.png","75","326.40000000596046","2","1","1","2","0.8,0.2,0.2,0.2,0.8,0.2,0.2,0.2,0.8","0.2,0.8,0.2,0.2,0.2,0.8,0.8,0.2,0.2","3","",""
"","html-keyboard-response","167","96963","0.0-167.0","3R9WASFE202ZDG2R5R0VYYF1R4FFZA","A3HL2LL0LEPZT8","3UUIU9GZC5R93N292LT21FRJ9VS5TN","","null","<img src=""img/land5.png"" style=""width:200px; border:14px solid green;"">","null","","","","","","","","","",""
"","image-keyboard-response","168","97303","0.0-168.0","3R9WASFE202ZDG2R5R0VYYF1R4FFZA","A3HL2LL0LEPZT8","3UUIU9GZC5R93N292LT21FRJ9VS5TN","","338.40000000596046","img/land5.png","75","339.40000000596046","2","1","1","2","0.8,0.2,0.2,0.2,0.8,0.2,0.2,0.2,0.8","0.2,0.8,0.2,0.2,0.2,0.8,0.8,0.2,0.2","3","",""
"","html-keyboard-response","169","97604","0.0-169.0","3R9WASFE202ZDG2R5R0VYYF1R4FFZA","A3HL2LL0LEPZT8","3UUIU9GZC5R93N292LT21FRJ9VS5TN","","null","<img src=""img/land5.png"" style=""width:200px; border:14px solid green;"">","null","","","","","","","","","",""
"","image-keyboard-response","170","97910","0.0-170.0","3R9WASFE202ZDG2R5R0VYYF1R4FFZA","A3HL2LL0LEPZT8","3UUIU9GZC5R93N292LT21FRJ9VS5TN","","305","img/land5.png","75","305.90000000596046","2","1","1","2","0.8,0.2,0.2,0.2,0.8,0.2,0.2,0.2,0.8","0.2,0.8,0.2,0.2,0.2,0.8,0.8,0.2,0.2","3","",""
"","html-keyboard-response","171","98213","0.0-171.0","3R9WASFE202ZDG2R5R0VYYF1R4FFZA","A3HL2LL0LEPZT8","3UUIU9GZC5R93N292LT21FRJ9VS5TN","","null","<img src=""img/land5.png"" style=""width:200px; border:14px solid green;"">","null","","","","","","","","","",""
"","image-keyboard-response","172","98911","0.0-172.0","3R9WASFE202ZDG2R5R0VYYF1R4FFZA","A3HL2LL0LEPZT8","3UUIU9GZC5R93N292LT21FRJ9VS5TN","","696.8000000119209","img/land6.png","74","697.6000000089407","1","1","3","2","0.8,0.2,0.2,0.2,0.8,0.2,0.2,0.2,0.8","0.2,0.8,0.2,0.2,0.2,0.8,0.8,0.2,0.2","3","",""
"","html-keyboard-response","173","99212","0.0-173.0","3R9WASFE202ZDG2R5R0VYYF1R4FFZA","A3HL2LL0LEPZT8","3UUIU9GZC5R93N292LT21FRJ9VS5TN","","null","<img src=""img/land6.png"" style=""width:200px; border:14px solid green;"">","null","","","","","","","","","",""
"","image-keyboard-response","174","99752","0.0-174.0","3R9WASFE202ZDG2R5R0VYYF1R4FFZA","A3HL2LL0LEPZT8","3UUIU9GZC5R93N292LT21FRJ9VS5TN","","538.3999999910593","img/land5.png","75","539.3999999910593","2","1","1","2","0.8,0.2,0.2,0.2,0.8,0.2,0.2,0.2,0.8","0.2,0.8,0.2,0.2,0.2,0.8,0.8,0.2,0.2","3","",""
"","html-keyboard-response","175","100060","0.0-175.0","3R9WASFE202ZDG2R5R0VYYF1R4FFZA","A3HL2LL0LEPZT8","3UUIU9GZC5R93N292LT21FRJ9VS5TN","","null","<img src=""img/land5.png"" style=""width:200px; border:14px solid green;"">","null","","","","","","","","","",""
"","image-keyboard-response","176","100521","0.0-176.0","3R9WASFE202ZDG2R5R0VYYF1R4FFZA","A3HL2LL0LEPZT8","3UUIU9GZC5R93N292LT21FRJ9VS5TN","","459.5","img/land6.png","74","460.5","1","1","3","2","0.8,0.2,0.2,0.2,0.8,0.2,0.2,0.2,0.8","0.2,0.8,0.2,0.2,0.2,0.8,0.8,0.2,0.2","3","",""
"","html-keyboard-response","177","100822","0.0-177.0","3R9WASFE202ZDG2R5R0VYYF1R4FFZA","A3HL2LL0LEPZT8","3UUIU9GZC5R93N292LT21FRJ9VS5TN","","null","<img src=""img/land6.png"" style=""width:200px; border:14px solid green;"">","null","","","","","","","","","",""
"","image-keyboard-response","178","101267","0.0-178.0","3R9WASFE202ZDG2R5R0VYYF1R4FFZA","A3HL2LL0LEPZT8","3UUIU9GZC5R93N292LT21FRJ9VS5TN","","444","img/land4.png","75","444.69999998807907","2","0","2","2","0.8,0.2,0.2,0.2,0.8,0.2,0.2,0.2,0.8","0.2,0.8,0.2,0.2,0.2,0.8,0.8,0.2,0.2","3","",""
"","html-keyboard-response","179","101570","0.0-179.0","3R9WASFE202ZDG2R5R0VYYF1R4FFZA","A3HL2LL0LEPZT8","3UUIU9GZC5R93N292LT21FRJ9VS5TN","","null","<img src=""img/land4.png"" style=""width:200px;border:14px solid red;"">","null","","","","","","","","","",""
"","image-keyboard-response","180","101766","0.0-180.0","3R9WASFE202ZDG2R5R0VYYF1R4FFZA","A3HL2LL0LEPZT8","3UUIU9GZC5R93N292LT21FRJ9VS5TN","","194.90000000596046","img/land4.png","76","195.70000000298023","3","0","2","2","0.8,0.2,0.2,0.2,0.8,0.2,0.2,0.2,0.8","0.2,0.8,0.2,0.2,0.2,0.8,0.8,0.2,0.2","3","",""
"","html-keyboard-response","181","102068","0.0-181.0","3R9WASFE202ZDG2R5R0VYYF1R4FFZA","A3HL2LL0LEPZT8","3UUIU9GZC5R93N292LT21FRJ9VS5TN","","null","<img src=""img/land4.png"" style=""width:200px;border:14px solid red;"">","null","","","","","","","","","",""
"","image-keyboard-response","182","102624","0.0-182.0","3R9WASFE202ZDG2R5R0VYYF1R4FFZA","A3HL2LL0LEPZT8","3UUIU9GZC5R93N292LT21FRJ9VS5TN","","554.5999999940395","img/land5.png","75","555.3999999910593","2","1","1","2","0.8,0.2,0.2,0.2,0.8,0.2,0.2,0.2,0.8","0.2,0.8,0.2,0.2,0.2,0.8,0.8,0.2,0.2","3","",""
"","html-keyboard-response","183","102925","0.0-183.0","3R9WASFE202ZDG2R5R0VYYF1R4FFZA","A3HL2LL0LEPZT8","3UUIU9GZC5R93N292LT21FRJ9VS5TN","","null","<img src=""img/land5.png"" style=""width:200px; border:14px solid green;"">","null","","","","","","","","","",""
"","image-keyboard-response","184","103308","0.0-184.0","3R9WASFE202ZDG2R5R0VYYF1R4FFZA","A3HL2LL0LEPZT8","3UUIU9GZC5R93N292LT21FRJ9VS5TN","","381","img/land6.png","76","382.29999999701977","3","0","3","2","0.8,0.2,0.2,0.2,0.8,0.2,0.2,0.2,0.8","0.2,0.8,0.2,0.2,0.2,0.8,0.8,0.2,0.2","3","",""
"","html-keyboard-response","185","103610","0.0-185.0","3R9WASFE202ZDG2R5R0VYYF1R4FFZA","A3HL2LL0LEPZT8","3UUIU9GZC5R93N292LT21FRJ9VS5TN","","null","<img src=""img/land6.png"" style=""width:200px;border:14px solid red;"">","null","","","","","","","","","",""
"","image-keyboard-response","186","103805","0.0-186.0","3R9WASFE202ZDG2R5R0VYYF1R4FFZA","A3HL2LL0LEPZT8","3UUIU9GZC5R93N292LT21FRJ9VS5TN","","193.79999999701977","img/land5.png","74","194.40000000596046","1","0","1","2","0.8,0.2,0.2,0.2,0.8,0.2,0.2,0.2,0.8","0.2,0.8,0.2,0.2,0.2,0.8,0.8,0.2,0.2","3","",""
"","html-keyboard-response","187","104107","0.0-187.0","3R9WASFE202ZDG2R5R0VYYF1R4FFZA","A3HL2LL0LEPZT8","3UUIU9GZC5R93N292LT21FRJ9VS5TN","","null","<img src=""img/land5.png"" style=""width:200px;border:14px solid red;"">","null","","","","","","","","","",""
"","image-keyboard-response","188","104837","0.0-188.0","3R9WASFE202ZDG2R5R0VYYF1R4FFZA","A3HL2LL0LEPZT8","3UUIU9GZC5R93N292LT21FRJ9VS5TN","","728.3999999910593","img/land4.png","76","729.0999999940395","3","1","2","2","0.8,0.2,0.2,0.2,0.8,0.2,0.2,0.2,0.8","0.2,0.8,0.2,0.2,0.2,0.8,0.8,0.2,0.2","3","",""
"","html-keyboard-response","189","105139","0.0-189.0","3R9WASFE202ZDG2R5R0VYYF1R4FFZA","A3HL2LL0LEPZT8","3UUIU9GZC5R93N292LT21FRJ9VS5TN","","null","<img src=""img/land4.png"" style=""width:200px; border:14px solid green;"">","null","","","","","","","","","",""
"","image-keyboard-response","190","105443","0.0-190.0","3R9WASFE202ZDG2R5R0VYYF1R4FFZA","A3HL2LL0LEPZT8","3UUIU9GZC5R93N292LT21FRJ9VS5TN","","302.6000000089407","img/land4.png","76","303.5","3","1","2","2","0.8,0.2,0.2,0.2,0.8,0.2,0.2,0.2,0.8","0.2,0.8,0.2,0.2,0.2,0.8,0.8,0.2,0.2","3","",""
"","html-keyboard-response","191","105745","0.0-191.0","3R9WASFE202ZDG2R5R0VYYF1R4FFZA","A3HL2LL0LEPZT8","3UUIU9GZC5R93N292LT21FRJ9VS5TN","","null","<img src=""img/land4.png"" style=""width:200px; border:14px solid green;"">","null","","","","","","","","","",""
"","image-keyboard-response","192","106207","0.0-192.0","3R9WASFE202ZDG2R5R0VYYF1R4FFZA","A3HL2LL0LEPZT8","3UUIU9GZC5R93N292LT21FRJ9VS5TN","","461.40000000596046","img/land6.png","75","462.20000000298023","2","0","3","2","0.8,0.2,0.2,0.2,0.8,0.2,0.2,0.2,0.8","0.2,0.8,0.2,0.2,0.2,0.8,0.8,0.2,0.2","3","",""
"","html-keyboard-response","193","106509","0.0-193.0","3R9WASFE202ZDG2R5R0VYYF1R4FFZA","A3HL2LL0LEPZT8","3UUIU9GZC5R93N292LT21FRJ9VS5TN","","null","<img src=""img/land6.png"" style=""width:200px;border:14px solid red;"">","null","","","","","","","","","",""
"","image-keyboard-response","194","106521","0.0-194.0","3R9WASFE202ZDG2R5R0VYYF1R4FFZA","A3HL2LL0LEPZT8","3UUIU9GZC5R93N292LT21FRJ9VS5TN","","11.200000002980232","img/land4.png","74","11.900000005960464","1","0","2","2","0.8,0.2,0.2,0.2,0.8,0.2,0.2,0.2,0.8","0.2,0.8,0.2,0.2,0.2,0.8,0.8,0.2,0.2","3","",""
"","html-keyboard-response","195","106823","0.0-195.0","3R9WASFE202ZDG2R5R0VYYF1R4FFZA","A3HL2LL0LEPZT8","3UUIU9GZC5R93N292LT21FRJ9VS5TN","","null","<img src=""img/land4.png"" style=""width:200px;border:14px solid red;"">","null","","","","","","","","","",""
"","image-keyboard-response","196","107578","0.0-196.0","3R9WASFE202ZDG2R5R0VYYF1R4FFZA","A3HL2LL0LEPZT8","3UUIU9GZC5R93N292LT21FRJ9VS5TN","","753.6999999880791","img/land5.png","75","754.6000000089407","2","1","1","2","0.8,0.2,0.2,0.2,0.8,0.2,0.2,0.2,0.8","0.2,0.8,0.2,0.2,0.2,0.8,0.8,0.2,0.2","3","",""
"","html-keyboard-response","197","107879","0.0-197.0","3R9WASFE202ZDG2R5R0VYYF1R4FFZA","A3HL2LL0LEPZT8","3UUIU9GZC5R93N292LT21FRJ9VS5TN","","null","<img src=""img/land5.png"" style=""width:200px; border:14px solid green;"">","null","","","","","","","","","",""
"","image-keyboard-response","198","108120","0.0-198.0","3R9WASFE202ZDG2R5R0VYYF1R4FFZA","A3HL2LL0LEPZT8","3UUIU9GZC5R93N292LT21FRJ9VS5TN","","239.70000000298023","img/land5.png","75","240.5","2","1","1","2","0.8,0.2,0.2,0.2,0.8,0.2,0.2,0.2,0.8","0.2,0.8,0.2,0.2,0.2,0.8,0.8,0.2,0.2","3","",""
"","html-keyboard-response","199","108421","0.0-199.0","3R9WASFE202ZDG2R5R0VYYF1R4FFZA","A3HL2LL0LEPZT8","3UUIU9GZC5R93N292LT21FRJ9VS5TN","","null","<img src=""img/land5.png"" style=""width:200px; border:14px solid green;"">","null","","","","","","","","","",""
"","image-keyboard-response","200","109161","0.0-200.0","3R9WASFE202ZDG2R5R0VYYF1R4FFZA","A3HL2LL0LEPZT8","3UUIU9GZC5R93N292LT21FRJ9VS5TN","","738.3999999910593","img/land4.png","76","739.1999999880791","3","1","2","2","0.8,0.2,0.2,0.2,0.8,0.2,0.2,0.2,0.8","0.2,0.8,0.2,0.2,0.2,0.8,0.8,0.2,0.2","3","",""
"","html-keyboard-response","201","109463","0.0-201.0","3R9WASFE202ZDG2R5R0VYYF1R4FFZA","A3HL2LL0LEPZT8","3UUIU9GZC5R93N292LT21FRJ9VS5TN","","null","<img src=""img/land4.png"" style=""width:200px; border:14px solid green;"">","null","","","","","","","","","",""
"","image-keyboard-response","202","109991","0.0-202.0","3R9WASFE202ZDG2R5R0VYYF1R4FFZA","A3HL2LL0LEPZT8","3UUIU9GZC5R93N292LT21FRJ9VS5TN","","527.2000000029802","img/land5.png","75","528.0999999940395","2","1","1","2","0.8,0.2,0.2,0.2,0.8,0.2,0.2,0.2,0.8","0.2,0.8,0.2,0.2,0.2,0.8,0.8,0.2,0.2","3","",""
"","html-keyboard-response","203","110295","0.0-203.0","3R9WASFE202ZDG2R5R0VYYF1R4FFZA","A3HL2LL0LEPZT8","3UUIU9GZC5R93N292LT21FRJ9VS5TN","","null","<img src=""img/land5.png"" style=""width:200px; border:14px solid green;"">","null","","","","","","","","","",""
"","image-keyboard-response","204","110594","0.0-204.0","3R9WASFE202ZDG2R5R0VYYF1R4FFZA","A3HL2LL0LEPZT8","3UUIU9GZC5R93N292LT21FRJ9VS5TN","","298.40000000596046","img/land5.png","75","299.29999999701977","2","1","1","2","0.8,0.2,0.2,0.2,0.8,0.2,0.2,0.2,0.8","0.2,0.8,0.2,0.2,0.2,0.8,0.8,0.2,0.2","3","",""
"","html-keyboard-response","205","110896","0.0-205.0","3R9WASFE202ZDG2R5R0VYYF1R4FFZA","A3HL2LL0LEPZT8","3UUIU9GZC5R93N292LT21FRJ9VS5TN","","null","<img src=""img/land5.png"" style=""width:200px; border:14px solid green;"">","null","","","","","","","","","",""
"","image-keyboard-response","206","111290","0.0-206.0","3R9WASFE202ZDG2R5R0VYYF1R4FFZA","A3HL2LL0LEPZT8","3UUIU9GZC5R93N292LT21FRJ9VS5TN","","393.29999999701977","img/land5.png","75","394.30000001192093","2","1","1","2","0.8,0.2,0.2,0.2,0.8,0.2,0.2,0.2,0.8","0.2,0.8,0.2,0.2,0.2,0.8,0.8,0.2,0.2","3","",""
"","html-keyboard-response","207","111592","0.0-207.0","3R9WASFE202ZDG2R5R0VYYF1R4FFZA","A3HL2LL0LEPZT8","3UUIU9GZC5R93N292LT21FRJ9VS5TN","","null","<img src=""img/land5.png"" style=""width:200px; border:14px solid green;"">","null","","","","","","","","","",""
"","image-keyboard-response","208","111906","0.0-208.0","3R9WASFE202ZDG2R5R0VYYF1R4FFZA","A3HL2LL0LEPZT8","3UUIU9GZC5R93N292LT21FRJ9VS5TN","","313","img/land5.png","75","313.69999998807907","2","1","1","2","0.8,0.2,0.2,0.2,0.8,0.2,0.2,0.2,0.8","0.2,0.8,0.2,0.2,0.2,0.8,0.8,0.2,0.2","3","",""
"","html-keyboard-response","209","112209","0.0-209.0","3R9WASFE202ZDG2R5R0VYYF1R4FFZA","A3HL2LL0LEPZT8","3UUIU9GZC5R93N292LT21FRJ9VS5TN","","null","<img src=""img/land5.png"" style=""width:200px; border:14px solid green;"">","null","","","","","","","","","",""
"","image-keyboard-response","210","112899","0.0-210.0","3R9WASFE202ZDG2R5R0VYYF1R4FFZA","A3HL2LL0LEPZT8","3UUIU9GZC5R93N292LT21FRJ9VS5TN","","689.5","img/land4.png","76","690.4000000059605","3","1","2","2","0.8,0.2,0.2,0.2,0.8,0.2,0.2,0.2,0.8","0.2,0.8,0.2,0.2,0.2,0.8,0.8,0.2,0.2","3","",""
"","html-keyboard-response","211","113202","0.0-211.0","3R9WASFE202ZDG2R5R0VYYF1R4FFZA","A3HL2LL0LEPZT8","3UUIU9GZC5R93N292LT21FRJ9VS5TN","","null","<img src=""img/land4.png"" style=""width:200px; border:14px solid green;"">","null","","","","","","","","","",""
"","image-keyboard-response","212","113480","0.0-212.0","3R9WASFE202ZDG2R5R0VYYF1R4FFZA","A3HL2LL0LEPZT8","3UUIU9GZC5R93N292LT21FRJ9VS5TN","","277.09999999403954","img/land4.png","76","277.79999999701977","3","0","2","2","0.8,0.2,0.2,0.2,0.8,0.2,0.2,0.2,0.8","0.2,0.8,0.2,0.2,0.2,0.8,0.8,0.2,0.2","3","",""
"","html-keyboard-response","213","113782","0.0-213.0","3R9WASFE202ZDG2R5R0VYYF1R4FFZA","A3HL2LL0LEPZT8","3UUIU9GZC5R93N292LT21FRJ9VS5TN","","null","<img src=""img/land4.png"" style=""width:200px;border:14px solid red;"">","null","","","","","","","","","",""
"","image-keyboard-response","214","114332","0.0-214.0","3R9WASFE202ZDG2R5R0VYYF1R4FFZA","A3HL2LL0LEPZT8","3UUIU9GZC5R93N292LT21FRJ9VS5TN","","549.1999999880791","img/land5.png","75","550","2","1","1","2","0.8,0.2,0.2,0.2,0.8,0.2,0.2,0.2,0.8","0.2,0.8,0.2,0.2,0.2,0.8,0.8,0.2,0.2","3","",""
"","html-keyboard-response","215","114633","0.0-215.0","3R9WASFE202ZDG2R5R0VYYF1R4FFZA","A3HL2LL0LEPZT8","3UUIU9GZC5R93N292LT21FRJ9VS5TN","","null","<img src=""img/land5.png"" style=""width:200px; border:14px solid green;"">","null","","","","","","","","","",""
"","image-keyboard-response","216","115285","0.0-216.0","3R9WASFE202ZDG2R5R0VYYF1R4FFZA","A3HL2LL0LEPZT8","3UUIU9GZC5R93N292LT21FRJ9VS5TN","","650.0999999940395","img/land6.png","74","650.9000000059605","1","0","3","2","0.8,0.2,0.2,0.2,0.8,0.2,0.2,0.2,0.8","0.2,0.8,0.2,0.2,0.2,0.8,0.8,0.2,0.2","3","",""
"","html-keyboard-response","217","115586","0.0-217.0","3R9WASFE202ZDG2R5R0VYYF1R4FFZA","A3HL2LL0LEPZT8","3UUIU9GZC5R93N292LT21FRJ9VS5TN","","null","<img src=""img/land6.png"" style=""width:200px;border:14px solid red;"">","null","","","","","","","","","",""
"","image-keyboard-response","218","116307","0.0-218.0","3R9WASFE202ZDG2R5R0VYYF1R4FFZA","A3HL2LL0LEPZT8","3UUIU9GZC5R93N292LT21FRJ9VS5TN","","720.0999999940395","img/land4.png","75","720.7999999970198","2","0","2","2","0.8,0.2,0.2,0.2,0.8,0.2,0.2,0.2,0.8","0.2,0.8,0.2,0.2,0.2,0.8,0.8,0.2,0.2","3","",""
"","html-keyboard-response","219","116609","0.0-219.0","3R9WASFE202ZDG2R5R0VYYF1R4FFZA","A3HL2LL0LEPZT8","3UUIU9GZC5R93N292LT21FRJ9VS5TN","","null","<img src=""img/land4.png"" style=""width:200px;border:14px solid red;"">","null","","","","","","","","","",""
"","image-keyboard-response","220","117823","0.0-220.0","3R9WASFE202ZDG2R5R0VYYF1R4FFZA","A3HL2LL0LEPZT8","3UUIU9GZC5R93N292LT21FRJ9VS5TN","","1213.2000000029802","img/land5.png","75","1214","2","1","1","2","0.8,0.2,0.2,0.2,0.8,0.2,0.2,0.2,0.8","0.2,0.8,0.2,0.2,0.2,0.8,0.8,0.2,0.2","3","",""
"","html-keyboard-response","221","118125","0.0-221.0","3R9WASFE202ZDG2R5R0VYYF1R4FFZA","A3HL2LL0LEPZT8","3UUIU9GZC5R93N292LT21FRJ9VS5TN","","null","<img src=""img/land5.png"" style=""width:200px; border:14px solid green;"">","null","","","","","","","","","",""
"","image-keyboard-response","222","118411","0.0-222.0","3R9WASFE202ZDG2R5R0VYYF1R4FFZA","A3HL2LL0LEPZT8","3UUIU9GZC5R93N292LT21FRJ9VS5TN","","284.79999999701977","img/land5.png","75","285.6000000089407","2","1","1","2","0.8,0.2,0.2,0.2,0.8,0.2,0.2,0.2,0.8","0.2,0.8,0.2,0.2,0.2,0.8,0.8,0.2,0.2","3","",""
"","html-keyboard-response","223","118713","0.0-223.0","3R9WASFE202ZDG2R5R0VYYF1R4FFZA","A3HL2LL0LEPZT8","3UUIU9GZC5R93N292LT21FRJ9VS5TN","","null","<img src=""img/land5.png"" style=""width:200px; border:14px solid green;"">","null","","","","","","","","","",""
"","image-keyboard-response","224","118988","0.0-224.0","3R9WASFE202ZDG2R5R0VYYF1R4FFZA","A3HL2LL0LEPZT8","3UUIU9GZC5R93N292LT21FRJ9VS5TN","","274.30000001192093","img/land5.png","75","275.20000000298023","2","1","1","2","0.8,0.2,0.2,0.2,0.8,0.2,0.2,0.2,0.8","0.2,0.8,0.2,0.2,0.2,0.8,0.8,0.2,0.2","3","",""
"","html-keyboard-response","225","119290","0.0-225.0","3R9WASFE202ZDG2R5R0VYYF1R4FFZA","A3HL2LL0LEPZT8","3UUIU9GZC5R93N292LT21FRJ9VS5TN","","null","<img src=""img/land5.png"" style=""width:200px; border:14px solid green;"">","null","","","","","","","","","",""
"","image-keyboard-response","226","119561","0.0-226.0","3R9WASFE202ZDG2R5R0VYYF1R4FFZA","A3HL2LL0LEPZT8","3UUIU9GZC5R93N292LT21FRJ9VS5TN","","269.8999999910593","img/land5.png","75","270.69999998807907","2","0","1","2","0.8,0.2,0.2,0.2,0.8,0.2,0.2,0.2,0.8","0.2,0.8,0.2,0.2,0.2,0.8,0.8,0.2,0.2","3","",""
"","html-keyboard-response","227","119863","0.0-227.0","3R9WASFE202ZDG2R5R0VYYF1R4FFZA","A3HL2LL0LEPZT8","3UUIU9GZC5R93N292LT21FRJ9VS5TN","","null","<img src=""img/land5.png"" style=""width:200px;border:14px solid red;"">","null","","","","","","","","","",""
"","image-keyboard-response","228","120415","0.0-228.0","3R9WASFE202ZDG2R5R0VYYF1R4FFZA","A3HL2LL0LEPZT8","3UUIU9GZC5R93N292LT21FRJ9VS5TN","","550.5","img/land6.png","74","551.0999999940395","1","1","3","2","0.8,0.2,0.2,0.2,0.8,0.2,0.2,0.2,0.8","0.2,0.8,0.2,0.2,0.2,0.8,0.8,0.2,0.2","3","",""
"","html-keyboard-response","229","120717","0.0-229.0","3R9WASFE202ZDG2R5R0VYYF1R4FFZA","A3HL2LL0LEPZT8","3UUIU9GZC5R93N292LT21FRJ9VS5TN","","null","<img src=""img/land6.png"" style=""width:200px; border:14px solid green;"">","null","","","","","","","","","",""
"","image-keyboard-response","230","121357","0.0-230.0","3R9WASFE202ZDG2R5R0VYYF1R4FFZA","A3HL2LL0LEPZT8","3UUIU9GZC5R93N292LT21FRJ9VS5TN","","638.2999999970198","img/land5.png","75","639.0999999940395","2","1","1","2","0.8,0.2,0.2,0.2,0.8,0.2,0.2,0.2,0.8","0.2,0.8,0.2,0.2,0.2,0.8,0.8,0.2,0.2","3","",""
"","html-keyboard-response","231","121659","0.0-231.0","3R9WASFE202ZDG2R5R0VYYF1R4FFZA","A3HL2LL0LEPZT8","3UUIU9GZC5R93N292LT21FRJ9VS5TN","","null","<img src=""img/land5.png"" style=""width:200px; border:14px solid green;"">","null","","","","","","","","","",""
"","image-keyboard-response","232","121986","0.0-232.0","3R9WASFE202ZDG2R5R0VYYF1R4FFZA","A3HL2LL0LEPZT8","3UUIU9GZC5R93N292LT21FRJ9VS5TN","","326.3999999910593","img/land5.png","75","327.09999999403954","2","1","1","2","0.8,0.2,0.2,0.2,0.8,0.2,0.2,0.2,0.8","0.2,0.8,0.2,0.2,0.2,0.8,0.8,0.2,0.2","3","",""
"","html-keyboard-response","233","122289","0.0-233.0","3R9WASFE202ZDG2R5R0VYYF1R4FFZA","A3HL2LL0LEPZT8","3UUIU9GZC5R93N292LT21FRJ9VS5TN","","null","<img src=""img/land5.png"" style=""width:200px; border:14px solid green;"">","null","","","","","","","","","",""
"","image-keyboard-response","234","122569","0.0-234.0","3R9WASFE202ZDG2R5R0VYYF1R4FFZA","A3HL2LL0LEPZT8","3UUIU9GZC5R93N292LT21FRJ9VS5TN","","279.1000000089407","img/land5.png","75","280","2","0","1","2","0.8,0.2,0.2,0.2,0.8,0.2,0.2,0.2,0.8","0.2,0.8,0.2,0.2,0.2,0.8,0.8,0.2,0.2","3","",""
"","html-keyboard-response","235","122870","0.0-235.0","3R9WASFE202ZDG2R5R0VYYF1R4FFZA","A3HL2LL0LEPZT8","3UUIU9GZC5R93N292LT21FRJ9VS5TN","","null","<img src=""img/land5.png"" style=""width:200px;border:14px solid red;"">","null","","","","","","","","","",""
"","image-keyboard-response","236","123281","0.0-236.0","3R9WASFE202ZDG2R5R0VYYF1R4FFZA","A3HL2LL0LEPZT8","3UUIU9GZC5R93N292LT21FRJ9VS5TN","","409.69999998807907","img/land6.png","76","410.69999998807907","3","0","3","2","0.8,0.2,0.2,0.2,0.8,0.2,0.2,0.2,0.8","0.2,0.8,0.2,0.2,0.2,0.8,0.8,0.2,0.2","3","",""
"","html-keyboard-response","237","123583","0.0-237.0","3R9WASFE202ZDG2R5R0VYYF1R4FFZA","A3HL2LL0LEPZT8","3UUIU9GZC5R93N292LT21FRJ9VS5TN","","null","<img src=""img/land6.png"" style=""width:200px;border:14px solid red;"">","null","","","","","","","","","",""
"","image-keyboard-response","238","123665","0.0-238.0","3R9WASFE202ZDG2R5R0VYYF1R4FFZA","A3HL2LL0LEPZT8","3UUIU9GZC5R93N292LT21FRJ9VS5TN","","80.40000000596046","img/land5.png","74","81.09999999403954","1","1","1","2","0.8,0.2,0.2,0.2,0.8,0.2,0.2,0.2,0.8","0.2,0.8,0.2,0.2,0.2,0.8,0.8,0.2,0.2","3","",""
"","html-keyboard-response","239","123967","0.0-239.0","3R9WASFE202ZDG2R5R0VYYF1R4FFZA","A3HL2LL0LEPZT8","3UUIU9GZC5R93N292LT21FRJ9VS5TN","","null","<img src=""img/land5.png"" style=""width:200px; border:14px solid green;"">","null","","","","","","","","","",""
"","image-keyboard-response","240","124278","0.0-240.0","3R9WASFE202ZDG2R5R0VYYF1R4FFZA","A3HL2LL0LEPZT8","3UUIU9GZC5R93N292LT21FRJ9VS5TN","","310.20000000298023","img/land5.png","75","310.90000000596046","2","1","1","2","0.8,0.2,0.2,0.2,0.8,0.2,0.2,0.2,0.8","0.2,0.8,0.2,0.2,0.2,0.8,0.8,0.2,0.2","3","",""
"","html-keyboard-response","241","124579","0.0-241.0","3R9WASFE202ZDG2R5R0VYYF1R4FFZA","A3HL2LL0LEPZT8","3UUIU9GZC5R93N292LT21FRJ9VS5TN","","null","<img src=""img/land5.png"" style=""width:200px; border:14px solid green;"">","null","","","","","","","","","",""
"","image-keyboard-response","242","125628","0.0-242.0","3R9WASFE202ZDG2R5R0VYYF1R4FFZA","A3HL2LL0LEPZT8","3UUIU9GZC5R93N292LT21FRJ9VS5TN","","1047.5","img/land6.png","74","1048.2999999970198","1","0","3","2","0.8,0.2,0.2,0.2,0.8,0.2,0.2,0.2,0.8","0.2,0.8,0.2,0.2,0.2,0.8,0.8,0.2,0.2","3","",""
"","html-keyboard-response","243","125931","0.0-243.0","3R9WASFE202ZDG2R5R0VYYF1R4FFZA","A3HL2LL0LEPZT8","3UUIU9GZC5R93N292LT21FRJ9VS5TN","","null","<img src=""img/land6.png"" style=""width:200px;border:14px solid red;"">","null","","","","","","","","","",""
"","image-keyboard-response","244","126123","0.0-244.0","3R9WASFE202ZDG2R5R0VYYF1R4FFZA","A3HL2LL0LEPZT8","3UUIU9GZC5R93N292LT21FRJ9VS5TN","","190.8999999910593","img/land4.png","74","192","1","0","2","2","0.8,0.2,0.2,0.2,0.8,0.2,0.2,0.2,0.8","0.2,0.8,0.2,0.2,0.2,0.8,0.8,0.2,0.2","3","",""
"","html-keyboard-response","245","126425","0.0-245.0","3R9WASFE202ZDG2R5R0VYYF1R4FFZA","A3HL2LL0LEPZT8","3UUIU9GZC5R93N292LT21FRJ9VS5TN","","null","<img src=""img/land4.png"" style=""width:200px;border:14px solid red;"">","null","","","","","","","","","",""
"","image-keyboard-response","246","127059","0.0-246.0","3R9WASFE202ZDG2R5R0VYYF1R4FFZA","A3HL2LL0LEPZT8","3UUIU9GZC5R93N292LT21FRJ9VS5TN","","633.2000000029802","img/land5.png","75","634","2","0","1","2","0.8,0.2,0.2,0.2,0.8,0.2,0.2,0.2,0.8","0.2,0.8,0.2,0.2,0.2,0.8,0.8,0.2,0.2","3","",""
"","html-keyboard-response","247","127361","0.0-247.0","3R9WASFE202ZDG2R5R0VYYF1R4FFZA","A3HL2LL0LEPZT8","3UUIU9GZC5R93N292LT21FRJ9VS5TN","","null","<img src=""img/land5.png"" style=""width:200px;border:14px solid red;"">","null","","","","","","","","","",""
"","image-keyboard-response","248","127592","0.0-248.0","3R9WASFE202ZDG2R5R0VYYF1R4FFZA","A3HL2LL0LEPZT8","3UUIU9GZC5R93N292LT21FRJ9VS5TN","","230.29999999701977","img/land5.png","75","231","2","1","1","2","0.8,0.2,0.2,0.2,0.8,0.2,0.2,0.2,0.8","0.2,0.8,0.2,0.2,0.2,0.8,0.8,0.2,0.2","3","",""
"","html-keyboard-response","249","127895","0.0-249.0","3R9WASFE202ZDG2R5R0VYYF1R4FFZA","A3HL2LL0LEPZT8","3UUIU9GZC5R93N292LT21FRJ9VS5TN","","null","<img src=""img/land5.png"" style=""width:200px; border:14px solid green;"">","null","","","","","","","","","",""
"","image-keyboard-response","250","128660","0.0-250.0","3R9WASFE202ZDG2R5R0VYYF1R4FFZA","A3HL2LL0LEPZT8","3UUIU9GZC5R93N292LT21FRJ9VS5TN","","764.2999999970198","img/land4.png","76","765.0999999940395","3","1","2","2","0.8,0.2,0.2,0.2,0.8,0.2,0.2,0.2,0.8","0.2,0.8,0.2,0.2,0.2,0.8,0.8,0.2,0.2","3","",""
"","html-keyboard-response","251","128962","0.0-251.0","3R9WASFE202ZDG2R5R0VYYF1R4FFZA","A3HL2LL0LEPZT8","3UUIU9GZC5R93N292LT21FRJ9VS5TN","","null","<img src=""img/land4.png"" style=""width:200px; border:14px solid green;"">","null","","","","","","","","","",""
"","image-keyboard-response","252","129602","0.0-252.0","3R9WASFE202ZDG2R5R0VYYF1R4FFZA","A3HL2LL0LEPZT8","3UUIU9GZC5R93N292LT21FRJ9VS5TN","","638.2999999970198","img/land6.png","74","639","1","0","3","2","0.8,0.2,0.2,0.2,0.8,0.2,0.2,0.2,0.8","0.2,0.8,0.2,0.2,0.2,0.8,0.8,0.2,0.2","3","",""
"","html-keyboard-response","253","129904","0.0-253.0","3R9WASFE202ZDG2R5R0VYYF1R4FFZA","A3HL2LL0LEPZT8","3UUIU9GZC5R93N292LT21FRJ9VS5TN","","null","<img src=""img/land6.png"" style=""width:200px;border:14px solid red;"">","null","","","","","","","","","",""
"","image-keyboard-response","254","130485","0.0-254.0","3R9WASFE202ZDG2R5R0VYYF1R4FFZA","A3HL2LL0LEPZT8","3UUIU9GZC5R93N292LT21FRJ9VS5TN","","578.7000000029802","img/land5.png","75","580","2","1","1","2","0.8,0.2,0.2,0.2,0.8,0.2,0.2,0.2,0.8","0.2,0.8,0.2,0.2,0.2,0.8,0.8,0.2,0.2","3","",""
"","html-keyboard-response","255","130787","0.0-255.0","3R9WASFE202ZDG2R5R0VYYF1R4FFZA","A3HL2LL0LEPZT8","3UUIU9GZC5R93N292LT21FRJ9VS5TN","","null","<img src=""img/land5.png"" style=""width:200px; border:14px solid green;"">","null","","","","","","","","","",""
"","image-keyboard-response","256","131114","0.0-256.0","3R9WASFE202ZDG2R5R0VYYF1R4FFZA","A3HL2LL0LEPZT8","3UUIU9GZC5R93N292LT21FRJ9VS5TN","","326.30000001192093","img/land5.png","75","327","2","0","1","2","0.8,0.2,0.2,0.2,0.8,0.2,0.2,0.2,0.8","0.2,0.8,0.2,0.2,0.2,0.8,0.8,0.2,0.2","3","",""
"","html-keyboard-response","257","131415","0.0-257.0","3R9WASFE202ZDG2R5R0VYYF1R4FFZA","A3HL2LL0LEPZT8","3UUIU9GZC5R93N292LT21FRJ9VS5TN","","null","<img src=""img/land5.png"" style=""width:200px;border:14px solid red;"">","null","","","","","","","","","",""
"","image-keyboard-response","258","132262","0.0-258.0","3R9WASFE202ZDG2R5R0VYYF1R4FFZA","A3HL2LL0LEPZT8","3UUIU9GZC5R93N292LT21FRJ9VS5TN","","845.4000000059605","img/land6.png","74","846.2000000029802","1","1","3","2","0.8,0.2,0.2,0.2,0.8,0.2,0.2,0.2,0.8","0.2,0.8,0.2,0.2,0.2,0.8,0.8,0.2,0.2","3","",""
"","html-keyboard-response","259","132563","0.0-259.0","3R9WASFE202ZDG2R5R0VYYF1R4FFZA","A3HL2LL0LEPZT8","3UUIU9GZC5R93N292LT21FRJ9VS5TN","","null","<img src=""img/land6.png"" style=""width:200px; border:14px solid green;"">","null","","","","","","","","","",""
"","image-keyboard-response","260","133724","0.0-260.0","3R9WASFE202ZDG2R5R0VYYF1R4FFZA","A3HL2LL0LEPZT8","3UUIU9GZC5R93N292LT21FRJ9VS5TN","","1160","img/land4.png","76","1160.7999999970198","3","1","2","2","0.8,0.2,0.2,0.2,0.8,0.2,0.2,0.2,0.8","0.2,0.8,0.2,0.2,0.2,0.8,0.8,0.2,0.2","3","",""
"","html-keyboard-response","261","134027","0.0-261.0","3R9WASFE202ZDG2R5R0VYYF1R4FFZA","A3HL2LL0LEPZT8","3UUIU9GZC5R93N292LT21FRJ9VS5TN","","null","<img src=""img/land4.png"" style=""width:200px; border:14px solid green;"">","null","","","","","","","","","",""
"","image-keyboard-response","262","134635","0.0-262.0","3R9WASFE202ZDG2R5R0VYYF1R4FFZA","A3HL2LL0LEPZT8","3UUIU9GZC5R93N292LT21FRJ9VS5TN","","606.3999999910593","img/land5.png","75","607.2000000029802","2","1","1","2","0.8,0.2,0.2,0.2,0.8,0.2,0.2,0.2,0.8","0.2,0.8,0.2,0.2,0.2,0.8,0.8,0.2,0.2","3","",""
"","html-keyboard-response","263","134937","0.0-263.0","3R9WASFE202ZDG2R5R0VYYF1R4FFZA","A3HL2LL0LEPZT8","3UUIU9GZC5R93N292LT21FRJ9VS5TN","","null","<img src=""img/land5.png"" style=""width:200px; border:14px solid green;"">","null","","","","","","","","","",""
"","image-keyboard-response","264","135639","0.0-264.0","3R9WASFE202ZDG2R5R0VYYF1R4FFZA","A3HL2LL0LEPZT8","3UUIU9GZC5R93N292LT21FRJ9VS5TN","","700.2000000029802","img/land4.png","76","701.0999999940395","3","1","2","2","0.8,0.2,0.2,0.2,0.8,0.2,0.2,0.2,0.8","0.2,0.8,0.2,0.2,0.2,0.8,0.8,0.2,0.2","3","",""
"","html-keyboard-response","265","135941","0.0-265.0","3R9WASFE202ZDG2R5R0VYYF1R4FFZA","A3HL2LL0LEPZT8","3UUIU9GZC5R93N292LT21FRJ9VS5TN","","null","<img src=""img/land4.png"" style=""width:200px; border:14px solid green;"">","null","","","","","","","","","",""
"","image-keyboard-response","266","136766","0.0-266.0","3R9WASFE202ZDG2R5R0VYYF1R4FFZA","A3HL2LL0LEPZT8","3UUIU9GZC5R93N292LT21FRJ9VS5TN","","824","img/land5.png","75","824.6999999880791","2","0","1","2","0.8,0.2,0.2,0.2,0.8,0.2,0.2,0.2,0.8","0.2,0.8,0.2,0.2,0.2,0.8,0.8,0.2,0.2","3","",""
"","html-keyboard-response","267","137068","0.0-267.0","3R9WASFE202ZDG2R5R0VYYF1R4FFZA","A3HL2LL0LEPZT8","3UUIU9GZC5R93N292LT21FRJ9VS5TN","","null","<img src=""img/land5.png"" style=""width:200px;border:14px solid red;"">","null","","","","","","","","","",""
"","image-keyboard-response","268","137452","0.0-268.0","3R9WASFE202ZDG2R5R0VYYF1R4FFZA","A3HL2LL0LEPZT8","3UUIU9GZC5R93N292LT21FRJ9VS5TN","","383.40000000596046","img/land5.png","75","384","2","1","1","2","0.8,0.2,0.2,0.2,0.8,0.2,0.2,0.2,0.8","0.2,0.8,0.2,0.2,0.2,0.8,0.8,0.2,0.2","3","",""
"","html-keyboard-response","269","137754","0.0-269.0","3R9WASFE202ZDG2R5R0VYYF1R4FFZA","A3HL2LL0LEPZT8","3UUIU9GZC5R93N292LT21FRJ9VS5TN","","null","<img src=""img/land5.png"" style=""width:200px; border:14px solid green;"">","null","","","","","","","","","",""
"","image-keyboard-response","270","138338","0.0-270.0","3R9WASFE202ZDG2R5R0VYYF1R4FFZA","A3HL2LL0LEPZT8","3UUIU9GZC5R93N292LT21FRJ9VS5TN","","582.7999999970198","img/land5.png","75","583.6000000089407","2","0","1","2","0.8,0.2,0.2,0.2,0.8,0.2,0.2,0.2,0.8","0.2,0.8,0.2,0.2,0.2,0.8,0.8,0.2,0.2","3","",""
"","html-keyboard-response","271","138640","0.0-271.0","3R9WASFE202ZDG2R5R0VYYF1R4FFZA","A3HL2LL0LEPZT8","3UUIU9GZC5R93N292LT21FRJ9VS5TN","","null","<img src=""img/land5.png"" style=""width:200px;border:14px solid red;"">","null","","","","","","","","","",""
"","image-keyboard-response","272","139146","0.0-272.0","3R9WASFE202ZDG2R5R0VYYF1R4FFZA","A3HL2LL0LEPZT8","3UUIU9GZC5R93N292LT21FRJ9VS5TN","","504.6000000089407","img/land5.png","75","505.5","2","0","1","2","0.8,0.2,0.2,0.2,0.8,0.2,0.2,0.2,0.8","0.2,0.8,0.2,0.2,0.2,0.8,0.8,0.2,0.2","3","",""
"","html-keyboard-response","273","139449","0.0-273.0","3R9WASFE202ZDG2R5R0VYYF1R4FFZA","A3HL2LL0LEPZT8","3UUIU9GZC5R93N292LT21FRJ9VS5TN","","null","<img src=""img/land5.png"" style=""width:200px;border:14px solid red;"">","null","","","","","","","","","",""
"","image-keyboard-response","274","140126","0.0-274.0","3R9WASFE202ZDG2R5R0VYYF1R4FFZA","A3HL2LL0LEPZT8","3UUIU9GZC5R93N292LT21FRJ9VS5TN","","676.5","img/land6.png","74","677.2999999970198","1","1","3","2","0.8,0.2,0.2,0.2,0.8,0.2,0.2,0.2,0.8","0.2,0.8,0.2,0.2,0.2,0.8,0.8,0.2,0.2","3","",""
"","html-keyboard-response","275","140434","0.0-275.0","3R9WASFE202ZDG2R5R0VYYF1R4FFZA","A3HL2LL0LEPZT8","3UUIU9GZC5R93N292LT21FRJ9VS5TN","","null","<img src=""img/land6.png"" style=""width:200px; border:14px solid green;"">","null","","","","","","","","","",""
"","image-keyboard-response","276","141150","0.0-276.0","3R9WASFE202ZDG2R5R0VYYF1R4FFZA","A3HL2LL0LEPZT8","3UUIU9GZC5R93N292LT21FRJ9VS5TN","","714.1999999880791","img/land5.png","75","715","2","1","1","2","0.8,0.2,0.2,0.2,0.8,0.2,0.2,0.2,0.8","0.2,0.8,0.2,0.2,0.2,0.8,0.8,0.2,0.2","3","",""
"","html-keyboard-response","277","141462","0.0-277.0","3R9WASFE202ZDG2R5R0VYYF1R4FFZA","A3HL2LL0LEPZT8","3UUIU9GZC5R93N292LT21FRJ9VS5TN","","null","<img src=""img/land5.png"" style=""width:200px; border:14px solid green;"">","null","","","","","","","","","",""
"","image-keyboard-response","278","142087","0.0-278.0","3R9WASFE202ZDG2R5R0VYYF1R4FFZA","A3HL2LL0LEPZT8","3UUIU9GZC5R93N292LT21FRJ9VS5TN","","620.2000000029802","img/land6.png","74","624.5999999940395","1","1","3","2","0.8,0.2,0.2,0.2,0.8,0.2,0.2,0.2,0.8","0.2,0.8,0.2,0.2,0.2,0.8,0.8,0.2,0.2","3","",""
"","html-keyboard-response","279","142389","0.0-279.0","3R9WASFE202ZDG2R5R0VYYF1R4FFZA","A3HL2LL0LEPZT8","3UUIU9GZC5R93N292LT21FRJ9VS5TN","","null","<img src=""img/land6.png"" style=""width:200px; border:14px solid green;"">","null","","","","","","","","","",""
"","image-keyboard-response","280","142888","0.0-280.0","3R9WASFE202ZDG2R5R0VYYF1R4FFZA","A3HL2LL0LEPZT8","3UUIU9GZC5R93N292LT21FRJ9VS5TN","","499","img/land5.png","75","499.8999999910593","2","1","1","2","0.8,0.2,0.2,0.2,0.8,0.2,0.2,0.2,0.8","0.2,0.8,0.2,0.2,0.2,0.8,0.8,0.2,0.2","3","",""
"","html-keyboard-response","281","143190","0.0-281.0","3R9WASFE202ZDG2R5R0VYYF1R4FFZA","A3HL2LL0LEPZT8","3UUIU9GZC5R93N292LT21FRJ9VS5TN","","null","<img src=""img/land5.png"" style=""width:200px; border:14px solid green;"">","null","","","","","","","","","",""
"","image-keyboard-response","282","143799","0.0-282.0","3R9WASFE202ZDG2R5R0VYYF1R4FFZA","A3HL2LL0LEPZT8","3UUIU9GZC5R93N292LT21FRJ9VS5TN","","607.9000000059605","img/land6.png","74","608.6000000089407","1","1","3","2","0.8,0.2,0.2,0.2,0.8,0.2,0.2,0.2,0.8","0.2,0.8,0.2,0.2,0.2,0.8,0.8,0.2,0.2","3","",""
"","html-keyboard-response","283","144101","0.0-283.0","3R9WASFE202ZDG2R5R0VYYF1R4FFZA","A3HL2LL0LEPZT8","3UUIU9GZC5R93N292LT21FRJ9VS5TN","","null","<img src=""img/land6.png"" style=""width:200px; border:14px solid green;"">","null","","","","","","","","","",""
"","image-keyboard-response","284","144567","0.0-284.0","3R9WASFE202ZDG2R5R0VYYF1R4FFZA","A3HL2LL0LEPZT8","3UUIU9GZC5R93N292LT21FRJ9VS5TN","","465.20000000298023","img/land5.png","75","466","2","1","1","2","0.8,0.2,0.2,0.2,0.8,0.2,0.2,0.2,0.8","0.2,0.8,0.2,0.2,0.2,0.8,0.8,0.2,0.2","3","",""
"","html-keyboard-response","285","144869","0.0-285.0","3R9WASFE202ZDG2R5R0VYYF1R4FFZA","A3HL2LL0LEPZT8","3UUIU9GZC5R93N292LT21FRJ9VS5TN","","null","<img src=""img/land5.png"" style=""width:200px; border:14px solid green;"">","null","","","","","","","","","",""
"","image-keyboard-response","286","146017","0.0-286.0","3R9WASFE202ZDG2R5R0VYYF1R4FFZA","A3HL2LL0LEPZT8","3UUIU9GZC5R93N292LT21FRJ9VS5TN","","1146.7000000029802","img/land4.png","74","1147.4000000059605","1","0","2","2","0.8,0.2,0.2,0.2,0.8,0.2,0.2,0.2,0.8","0.2,0.8,0.2,0.2,0.2,0.8,0.8,0.2,0.2","3","",""
"","html-keyboard-response","287","146319","0.0-287.0","3R9WASFE202ZDG2R5R0VYYF1R4FFZA","A3HL2LL0LEPZT8","3UUIU9GZC5R93N292LT21FRJ9VS5TN","","null","<img src=""img/land4.png"" style=""width:200px;border:14px solid red;"">","null","","","","","","","","","",""
"","image-keyboard-response","288","146829","0.0-288.0","3R9WASFE202ZDG2R5R0VYYF1R4FFZA","A3HL2LL0LEPZT8","3UUIU9GZC5R93N292LT21FRJ9VS5TN","","509.5","img/land5.png","75","510.20000000298023","2","1","1","2","0.8,0.2,0.2,0.2,0.8,0.2,0.2,0.2,0.8","0.2,0.8,0.2,0.2,0.2,0.8,0.8,0.2,0.2","3","",""
"","html-keyboard-response","289","147130","0.0-289.0","3R9WASFE202ZDG2R5R0VYYF1R4FFZA","A3HL2LL0LEPZT8","3UUIU9GZC5R93N292LT21FRJ9VS5TN","","null","<img src=""img/land5.png"" style=""width:200px; border:14px solid green;"">","null","","","","","","","","","",""
"","image-keyboard-response","290","147931","0.0-290.0","3R9WASFE202ZDG2R5R0VYYF1R4FFZA","A3HL2LL0LEPZT8","3UUIU9GZC5R93N292LT21FRJ9VS5TN","","799.9000000059605","img/land4.png","76","800.7999999970198","3","1","2","2","0.8,0.2,0.2,0.2,0.8,0.2,0.2,0.2,0.8","0.2,0.8,0.2,0.2,0.2,0.8,0.8,0.2,0.2","3","",""
"","html-keyboard-response","291","148233","0.0-291.0","3R9WASFE202ZDG2R5R0VYYF1R4FFZA","A3HL2LL0LEPZT8","3UUIU9GZC5R93N292LT21FRJ9VS5TN","","null","<img src=""img/land4.png"" style=""width:200px; border:14px solid green;"">","null","","","","","","","","","",""
"","image-keyboard-response","292","148771","0.0-292.0","3R9WASFE202ZDG2R5R0VYYF1R4FFZA","A3HL2LL0LEPZT8","3UUIU9GZC5R93N292LT21FRJ9VS5TN","","536.7999999970198","img/land5.png","75","537.7000000029802","2","1","1","2","0.8,0.2,0.2,0.2,0.8,0.2,0.2,0.2,0.8","0.2,0.8,0.2,0.2,0.2,0.8,0.8,0.2,0.2","3","",""
"","html-keyboard-response","293","149076","0.0-293.0","3R9WASFE202ZDG2R5R0VYYF1R4FFZA","A3HL2LL0LEPZT8","3UUIU9GZC5R93N292LT21FRJ9VS5TN","","null","<img src=""img/land5.png"" style=""width:200px; border:14px solid green;"">","null","","","","","","","","","",""
"","image-keyboard-response","294","149480","0.0-294.0","3R9WASFE202ZDG2R5R0VYYF1R4FFZA","A3HL2LL0LEPZT8","3UUIU9GZC5R93N292LT21FRJ9VS5TN","","402.69999998807907","img/land5.png","75","403.5","2","1","1","2","0.8,0.2,0.2,0.2,0.8,0.2,0.2,0.2,0.8","0.2,0.8,0.2,0.2,0.2,0.8,0.8,0.2,0.2","3","",""
"","html-keyboard-response","295","149782","0.0-295.0","3R9WASFE202ZDG2R5R0VYYF1R4FFZA","A3HL2LL0LEPZT8","3UUIU9GZC5R93N292LT21FRJ9VS5TN","","null","<img src=""img/land5.png"" style=""width:200px; border:14px solid green;"">","null","","","","","","","","","",""
"","image-keyboard-response","296","150355","0.0-296.0","3R9WASFE202ZDG2R5R0VYYF1R4FFZA","A3HL2LL0LEPZT8","3UUIU9GZC5R93N292LT21FRJ9VS5TN","","571","img/land5.png","75","572","2","1","1","2","0.8,0.2,0.2,0.2,0.8,0.2,0.2,0.2,0.8","0.2,0.8,0.2,0.2,0.2,0.8,0.8,0.2,0.2","3","",""
"","html-keyboard-response","297","150657","0.0-297.0","3R9WASFE202ZDG2R5R0VYYF1R4FFZA","A3HL2LL0LEPZT8","3UUIU9GZC5R93N292LT21FRJ9VS5TN","","null","<img src=""img/land5.png"" style=""width:200px; border:14px solid green;"">","null","","","","","","","","","",""
"","image-keyboard-response","298","151334","0.0-298.0","3R9WASFE202ZDG2R5R0VYYF1R4FFZA","A3HL2LL0LEPZT8","3UUIU9GZC5R93N292LT21FRJ9VS5TN","","676.5999999940395","img/land4.png","76","677.5999999940395","3","1","2","2","0.8,0.2,0.2,0.2,0.8,0.2,0.2,0.2,0.8","0.2,0.8,0.2,0.2,0.2,0.8,0.8,0.2,0.2","3","",""
"","html-keyboard-response","299","151636","0.0-299.0","3R9WASFE202ZDG2R5R0VYYF1R4FFZA","A3HL2LL0LEPZT8","3UUIU9GZC5R93N292LT21FRJ9VS5TN","","null","<img src=""img/land4.png"" style=""width:200px; border:14px solid green;"">","null","","","","","","","","","",""
"","image-keyboard-response","300","152105","0.0-300.0","3R9WASFE202ZDG2R5R0VYYF1R4FFZA","A3HL2LL0LEPZT8","3UUIU9GZC5R93N292LT21FRJ9VS5TN","","467.69999998807907","img/land5.png","75","468.5","2","1","1","2","0.8,0.2,0.2,0.2,0.8,0.2,0.2,0.2,0.8","0.2,0.8,0.2,0.2,0.2,0.8,0.8,0.2,0.2","3","",""
"","html-keyboard-response","301","152407","0.0-301.0","3R9WASFE202ZDG2R5R0VYYF1R4FFZA","A3HL2LL0LEPZT8","3UUIU9GZC5R93N292LT21FRJ9VS5TN","","null","<img src=""img/land5.png"" style=""width:200px; border:14px solid green;"">","null","","","","","","","","","",""
"","image-keyboard-response","302","153661","0.0-302.0","3R9WASFE202ZDG2R5R0VYYF1R4FFZA","A3HL2LL0LEPZT8","3UUIU9GZC5R93N292LT21FRJ9VS5TN","","1253","img/land1.png","75","1254","2","0","1","1","0.8,0.2,0.2,0.2,0.8,0.2,0.2,0.2,0.8","0.8,0.2,0.2,0.2,0.8,0.2,0.2,0.2,0.8","1","",""
"","html-keyboard-response","303","153964","0.0-303.0","3R9WASFE202ZDG2R5R0VYYF1R4FFZA","A3HL2LL0LEPZT8","3UUIU9GZC5R93N292LT21FRJ9VS5TN","","null","<img src=""img/land1.png"" style=""width:200px;border:14px solid red;"">","null","","","","","","","","","",""
"","image-keyboard-response","304","154705","0.0-304.0","3R9WASFE202ZDG2R5R0VYYF1R4FFZA","A3HL2LL0LEPZT8","3UUIU9GZC5R93N292LT21FRJ9VS5TN","","739.2999999970198","img/land1.png","74","740.3000000119209","1","1","1","1","0.8,0.2,0.2,0.2,0.8,0.2,0.2,0.2,0.8","0.8,0.2,0.2,0.2,0.8,0.2,0.2,0.2,0.8","1","",""
"","html-keyboard-response","305","155007","0.0-305.0","3R9WASFE202ZDG2R5R0VYYF1R4FFZA","A3HL2LL0LEPZT8","3UUIU9GZC5R93N292LT21FRJ9VS5TN","","null","<img src=""img/land1.png"" style=""width:200px; border:14px solid green;"">","null","","","","","","","","","",""
"","image-keyboard-response","306","155889","0.0-306.0","3R9WASFE202ZDG2R5R0VYYF1R4FFZA","A3HL2LL0LEPZT8","3UUIU9GZC5R93N292LT21FRJ9VS5TN","","880.5999999940395","img/land3.png","74","881.5","1","0","2","1","0.8,0.2,0.2,0.2,0.8,0.2,0.2,0.2,0.8","0.8,0.2,0.2,0.2,0.8,0.2,0.2,0.2,0.8","1","",""
"","html-keyboard-response","307","156191","0.0-307.0","3R9WASFE202ZDG2R5R0VYYF1R4FFZA","A3HL2LL0LEPZT8","3UUIU9GZC5R93N292LT21FRJ9VS5TN","","null","<img src=""img/land3.png"" style=""width:200px;border:14px solid red;"">","null","","","","","","","","","",""
"","image-keyboard-response","308","156946","0.0-308.0","3R9WASFE202ZDG2R5R0VYYF1R4FFZA","A3HL2LL0LEPZT8","3UUIU9GZC5R93N292LT21FRJ9VS5TN","","753.7999999970198","img/land1.png","75","754.7000000029802","2","0","1","1","0.8,0.2,0.2,0.2,0.8,0.2,0.2,0.2,0.8","0.8,0.2,0.2,0.2,0.8,0.2,0.2,0.2,0.8","1","",""
"","html-keyboard-response","309","157252","0.0-309.0","3R9WASFE202ZDG2R5R0VYYF1R4FFZA","A3HL2LL0LEPZT8","3UUIU9GZC5R93N292LT21FRJ9VS5TN","","null","<img src=""img/land1.png"" style=""width:200px;border:14px solid red;"">","null","","","","","","","","","",""
"","image-keyboard-response","310","158098","0.0-310.0","3R9WASFE202ZDG2R5R0VYYF1R4FFZA","A3HL2LL0LEPZT8","3UUIU9GZC5R93N292LT21FRJ9VS5TN","","845.1000000089407","img/land3.png","75","846.2999999970198","2","1","2","1","0.8,0.2,0.2,0.2,0.8,0.2,0.2,0.2,0.8","0.8,0.2,0.2,0.2,0.8,0.2,0.2,0.2,0.8","1","",""
"","html-keyboard-response","311","158399","0.0-311.0","3R9WASFE202ZDG2R5R0VYYF1R4FFZA","A3HL2LL0LEPZT8","3UUIU9GZC5R93N292LT21FRJ9VS5TN","","null","<img src=""img/land3.png"" style=""width:200px; border:14px solid green;"">","null","","","","","","","","","",""
"","image-keyboard-response","312","158764","0.0-312.0","3R9WASFE202ZDG2R5R0VYYF1R4FFZA","A3HL2LL0LEPZT8","3UUIU9GZC5R93N292LT21FRJ9VS5TN","","363.90000000596046","img/land3.png","75","364.5","2","1","2","1","0.8,0.2,0.2,0.2,0.8,0.2,0.2,0.2,0.8","0.8,0.2,0.2,0.2,0.8,0.2,0.2,0.2,0.8","1","",""
"","html-keyboard-response","313","159067","0.0-313.0","3R9WASFE202ZDG2R5R0VYYF1R4FFZA","A3HL2LL0LEPZT8","3UUIU9GZC5R93N292LT21FRJ9VS5TN","","null","<img src=""img/land3.png"" style=""width:200px; border:14px solid green;"">","null","","","","","","","","","",""
"","image-keyboard-response","314","159377","0.0-314.0","3R9WASFE202ZDG2R5R0VYYF1R4FFZA","A3HL2LL0LEPZT8","3UUIU9GZC5R93N292LT21FRJ9VS5TN","","309","img/land3.png","75","309.70000000298023","2","1","2","1","0.8,0.2,0.2,0.2,0.8,0.2,0.2,0.2,0.8","0.8,0.2,0.2,0.2,0.8,0.2,0.2,0.2,0.8","1","",""
"","html-keyboard-response","315","159679","0.0-315.0","3R9WASFE202ZDG2R5R0VYYF1R4FFZA","A3HL2LL0LEPZT8","3UUIU9GZC5R93N292LT21FRJ9VS5TN","","null","<img src=""img/land3.png"" style=""width:200px; border:14px solid green;"">","null","","","","","","","","","",""
"","image-keyboard-response","316","160101","0.0-316.0","3R9WASFE202ZDG2R5R0VYYF1R4FFZA","A3HL2LL0LEPZT8","3UUIU9GZC5R93N292LT21FRJ9VS5TN","","420.6000000089407","img/land1.png","74","421.6000000089407","1","1","1","1","0.8,0.2,0.2,0.2,0.8,0.2,0.2,0.2,0.8","0.8,0.2,0.2,0.2,0.8,0.2,0.2,0.2,0.8","1","",""
"","html-keyboard-response","317","160404","0.0-317.0","3R9WASFE202ZDG2R5R0VYYF1R4FFZA","A3HL2LL0LEPZT8","3UUIU9GZC5R93N292LT21FRJ9VS5TN","","null","<img src=""img/land1.png"" style=""width:200px; border:14px solid green;"">","null","","","","","","","","","",""
"","image-keyboard-response","318","161002","0.0-318.0","3R9WASFE202ZDG2R5R0VYYF1R4FFZA","A3HL2LL0LEPZT8","3UUIU9GZC5R93N292LT21FRJ9VS5TN","","597.3000000119209","img/land2.png","76","598.2999999970198","3","0","3","1","0.8,0.2,0.2,0.2,0.8,0.2,0.2,0.2,0.8","0.8,0.2,0.2,0.2,0.8,0.2,0.2,0.2,0.8","1","",""
"","html-keyboard-response","319","161303","0.0-319.0","3R9WASFE202ZDG2R5R0VYYF1R4FFZA","A3HL2LL0LEPZT8","3UUIU9GZC5R93N292LT21FRJ9VS5TN","","null","<img src=""img/land2.png"" style=""width:200px;border:14px solid red;"">","null","","","","","","","","","",""
"","image-keyboard-response","320","162694","0.0-320.0","3R9WASFE202ZDG2R5R0VYYF1R4FFZA","A3HL2LL0LEPZT8","3UUIU9GZC5R93N292LT21FRJ9VS5TN","","1389.6000000089407","img/land3.png","75","1390.4000000059605","2","1","2","1","0.8,0.2,0.2,0.2,0.8,0.2,0.2,0.2,0.8","0.8,0.2,0.2,0.2,0.8,0.2,0.2,0.2,0.8","1","",""
"","html-keyboard-response","321","162996","0.0-321.0","3R9WASFE202ZDG2R5R0VYYF1R4FFZA","A3HL2LL0LEPZT8","3UUIU9GZC5R93N292LT21FRJ9VS5TN","","null","<img src=""img/land3.png"" style=""width:200px; border:14px solid green;"">","null","","","","","","","","","",""
"","image-keyboard-response","322","163279","0.0-322.0","3R9WASFE202ZDG2R5R0VYYF1R4FFZA","A3HL2LL0LEPZT8","3UUIU9GZC5R93N292LT21FRJ9VS5TN","","281.90000000596046","img/land3.png","75","282.70000000298023","2","1","2","1","0.8,0.2,0.2,0.2,0.8,0.2,0.2,0.2,0.8","0.8,0.2,0.2,0.2,0.8,0.2,0.2,0.2,0.8","1","",""
"","html-keyboard-response","323","163582","0.0-323.0","3R9WASFE202ZDG2R5R0VYYF1R4FFZA","A3HL2LL0LEPZT8","3UUIU9GZC5R93N292LT21FRJ9VS5TN","","null","<img src=""img/land3.png"" style=""width:200px; border:14px solid green;"">","null","","","","","","","","","",""
"","image-keyboard-response","324","164309","0.0-324.0","3R9WASFE202ZDG2R5R0VYYF1R4FFZA","A3HL2LL0LEPZT8","3UUIU9GZC5R93N292LT21FRJ9VS5TN","","725.6000000089407","img/land2.png","76","726.3999999910593","3","0","3","1","0.8,0.2,0.2,0.2,0.8,0.2,0.2,0.2,0.8","0.8,0.2,0.2,0.2,0.8,0.2,0.2,0.2,0.8","1","",""
"","html-keyboard-response","325","164611","0.0-325.0","3R9WASFE202ZDG2R5R0VYYF1R4FFZA","A3HL2LL0LEPZT8","3UUIU9GZC5R93N292LT21FRJ9VS5TN","","null","<img src=""img/land2.png"" style=""width:200px;border:14px solid red;"">","null","","","","","","","","","",""
"","image-keyboard-response","326","165365","0.0-326.0","3R9WASFE202ZDG2R5R0VYYF1R4FFZA","A3HL2LL0LEPZT8","3UUIU9GZC5R93N292LT21FRJ9VS5TN","","753.1000000089407","img/land1.png","74","754","1","1","1","1","0.8,0.2,0.2,0.2,0.8,0.2,0.2,0.2,0.8","0.8,0.2,0.2,0.2,0.8,0.2,0.2,0.2,0.8","1","",""
"","html-keyboard-response","327","165668","0.0-327.0","3R9WASFE202ZDG2R5R0VYYF1R4FFZA","A3HL2LL0LEPZT8","3UUIU9GZC5R93N292LT21FRJ9VS5TN","","null","<img src=""img/land1.png"" style=""width:200px; border:14px solid green;"">","null","","","","","","","","","",""
"","image-keyboard-response","328","166824","0.0-328.0","3R9WASFE202ZDG2R5R0VYYF1R4FFZA","A3HL2LL0LEPZT8","3UUIU9GZC5R93N292LT21FRJ9VS5TN","","1154.7999999970198","img/land3.png","75","1155.7999999970198","2","0","2","1","0.8,0.2,0.2,0.2,0.8,0.2,0.2,0.2,0.8","0.8,0.2,0.2,0.2,0.8,0.2,0.2,0.2,0.8","1","",""
"","html-keyboard-response","329","167126","0.0-329.0","3R9WASFE202ZDG2R5R0VYYF1R4FFZA","A3HL2LL0LEPZT8","3UUIU9GZC5R93N292LT21FRJ9VS5TN","","null","<img src=""img/land3.png"" style=""width:200px;border:14px solid red;"">","null","","","","","","","","","",""
"","image-keyboard-response","330","167395","0.0-330.0","3R9WASFE202ZDG2R5R0VYYF1R4FFZA","A3HL2LL0LEPZT8","3UUIU9GZC5R93N292LT21FRJ9VS5TN","","268","img/land3.png","75","268.90000000596046","2","1","2","1","0.8,0.2,0.2,0.2,0.8,0.2,0.2,0.2,0.8","0.8,0.2,0.2,0.2,0.8,0.2,0.2,0.2,0.8","1","",""
"","html-keyboard-response","331","167696","0.0-331.0","3R9WASFE202ZDG2R5R0VYYF1R4FFZA","A3HL2LL0LEPZT8","3UUIU9GZC5R93N292LT21FRJ9VS5TN","","null","<img src=""img/land3.png"" style=""width:200px; border:14px solid green;"">","null","","","","","","","","","",""
"","image-keyboard-response","332","168453","0.0-332.0","3R9WASFE202ZDG2R5R0VYYF1R4FFZA","A3HL2LL0LEPZT8","3UUIU9GZC5R93N292LT21FRJ9VS5TN","","755.3999999910593","img/land2.png","74","756.2999999970198","1","1","3","1","0.8,0.2,0.2,0.2,0.8,0.2,0.2,0.2,0.8","0.8,0.2,0.2,0.2,0.8,0.2,0.2,0.2,0.8","1","",""
"","html-keyboard-response","333","168754","0.0-333.0","3R9WASFE202ZDG2R5R0VYYF1R4FFZA","A3HL2LL0LEPZT8","3UUIU9GZC5R93N292LT21FRJ9VS5TN","","null","<img src=""img/land2.png"" style=""width:200px; border:14px solid green;"">","null","","","","","","","","","",""
"","image-keyboard-response","334","169058","0.0-334.0","3R9WASFE202ZDG2R5R0VYYF1R4FFZA","A3HL2LL0LEPZT8","3UUIU9GZC5R93N292LT21FRJ9VS5TN","","302.29999999701977","img/land2.png","74","303","1","1","3","1","0.8,0.2,0.2,0.2,0.8,0.2,0.2,0.2,0.8","0.8,0.2,0.2,0.2,0.8,0.2,0.2,0.2,0.8","1","",""
"","html-keyboard-response","335","169359","0.0-335.0","3R9WASFE202ZDG2R5R0VYYF1R4FFZA","A3HL2LL0LEPZT8","3UUIU9GZC5R93N292LT21FRJ9VS5TN","","null","<img src=""img/land2.png"" style=""width:200px; border:14px solid green;"">","null","","","","","","","","","",""
"","image-keyboard-response","336","169868","0.0-336.0","3R9WASFE202ZDG2R5R0VYYF1R4FFZA","A3HL2LL0LEPZT8","3UUIU9GZC5R93N292LT21FRJ9VS5TN","","507.69999998807907","img/land3.png","75","508.59999999403954","2","1","2","1","0.8,0.2,0.2,0.2,0.8,0.2,0.2,0.2,0.8","0.8,0.2,0.2,0.2,0.8,0.2,0.2,0.2,0.8","1","",""
"","html-keyboard-response","337","170170","0.0-337.0","3R9WASFE202ZDG2R5R0VYYF1R4FFZA","A3HL2LL0LEPZT8","3UUIU9GZC5R93N292LT21FRJ9VS5TN","","null","<img src=""img/land3.png"" style=""width:200px; border:14px solid green;"">","null","","","","","","","","","",""
"","image-keyboard-response","338","170708","0.0-338.0","3R9WASFE202ZDG2R5R0VYYF1R4FFZA","A3HL2LL0LEPZT8","3UUIU9GZC5R93N292LT21FRJ9VS5TN","","536.7999999970198","img/land1.png","74","537.6999999880791","1","1","1","1","0.8,0.2,0.2,0.2,0.8,0.2,0.2,0.2,0.8","0.8,0.2,0.2,0.2,0.8,0.2,0.2,0.2,0.8","1","",""
"","html-keyboard-response","339","171011","0.0-339.0","3R9WASFE202ZDG2R5R0VYYF1R4FFZA","A3HL2LL0LEPZT8","3UUIU9GZC5R93N292LT21FRJ9VS5TN","","null","<img src=""img/land1.png"" style=""width:200px; border:14px solid green;"">","null","","","","","","","","","",""
"","image-keyboard-response","340","171411","0.0-340.0","3R9WASFE202ZDG2R5R0VYYF1R4FFZA","A3HL2LL0LEPZT8","3UUIU9GZC5R93N292LT21FRJ9VS5TN","","399.29999999701977","img/land3.png","75","400.09999999403954","2","0","2","1","0.8,0.2,0.2,0.2,0.8,0.2,0.2,0.2,0.8","0.8,0.2,0.2,0.2,0.8,0.2,0.2,0.2,0.8","1","",""
"","html-keyboard-response","341","171714","0.0-341.0","3R9WASFE202ZDG2R5R0VYYF1R4FFZA","A3HL2LL0LEPZT8","3UUIU9GZC5R93N292LT21FRJ9VS5TN","","null","<img src=""img/land3.png"" style=""width:200px;border:14px solid red;"">","null","","","","","","","","","",""
"","image-keyboard-response","342","172398","0.0-342.0","3R9WASFE202ZDG2R5R0VYYF1R4FFZA","A3HL2LL0LEPZT8","3UUIU9GZC5R93N292LT21FRJ9VS5TN","","683","img/land1.png","74","683.6999999880791","1","0","1","1","0.8,0.2,0.2,0.2,0.8,0.2,0.2,0.2,0.8","0.8,0.2,0.2,0.2,0.8,0.2,0.2,0.2,0.8","1","",""
"","html-keyboard-response","343","172700","0.0-343.0","3R9WASFE202ZDG2R5R0VYYF1R4FFZA","A3HL2LL0LEPZT8","3UUIU9GZC5R93N292LT21FRJ9VS5TN","","null","<img src=""img/land1.png"" style=""width:200px;border:14px solid red;"">","null","","","","","","","","","",""
"","image-keyboard-response","344","172995","0.0-344.0","3R9WASFE202ZDG2R5R0VYYF1R4FFZA","A3HL2LL0LEPZT8","3UUIU9GZC5R93N292LT21FRJ9VS5TN","","293.69999998807907","img/land1.png","74","294.5","1","1","1","1","0.8,0.2,0.2,0.2,0.8,0.2,0.2,0.2,0.8","0.8,0.2,0.2,0.2,0.8,0.2,0.2,0.2,0.8","1","",""
"","html-keyboard-response","345","173297","0.0-345.0","3R9WASFE202ZDG2R5R0VYYF1R4FFZA","A3HL2LL0LEPZT8","3UUIU9GZC5R93N292LT21FRJ9VS5TN","","null","<img src=""img/land1.png"" style=""width:200px; border:14px solid green;"">","null","","","","","","","","","",""
"","image-keyboard-response","346","174012","0.0-346.0","3R9WASFE202ZDG2R5R0VYYF1R4FFZA","A3HL2LL0LEPZT8","3UUIU9GZC5R93N292LT21FRJ9VS5TN","","713.2999999970198","img/land2.png","74","714.0999999940395","1","1","3","1","0.8,0.2,0.2,0.2,0.8,0.2,0.2,0.2,0.8","0.8,0.2,0.2,0.2,0.8,0.2,0.2,0.2,0.8","1","",""
"","html-keyboard-response","347","174314","0.0-347.0","3R9WASFE202ZDG2R5R0VYYF1R4FFZA","A3HL2LL0LEPZT8","3UUIU9GZC5R93N292LT21FRJ9VS5TN","","null","<img src=""img/land2.png"" style=""width:200px; border:14px solid green;"">","null","","","","","","","","","",""
"","image-keyboard-response","348","174868","0.0-348.0","3R9WASFE202ZDG2R5R0VYYF1R4FFZA","A3HL2LL0LEPZT8","3UUIU9GZC5R93N292LT21FRJ9VS5TN","","552.8999999910593","img/land3.png","75","553.6999999880791","2","1","2","1","0.8,0.2,0.2,0.2,0.8,0.2,0.2,0.2,0.8","0.8,0.2,0.2,0.2,0.8,0.2,0.2,0.2,0.8","1","",""
"","html-keyboard-response","349","175170","0.0-349.0","3R9WASFE202ZDG2R5R0VYYF1R4FFZA","A3HL2LL0LEPZT8","3UUIU9GZC5R93N292LT21FRJ9VS5TN","","null","<img src=""img/land3.png"" style=""width:200px; border:14px solid green;"">","null","","","","","","","","","",""
"","image-keyboard-response","350","175692","0.0-350.0","3R9WASFE202ZDG2R5R0VYYF1R4FFZA","A3HL2LL0LEPZT8","3UUIU9GZC5R93N292LT21FRJ9VS5TN","","520","img/land2.png","74","520.9000000059605","1","0","3","1","0.8,0.2,0.2,0.2,0.8,0.2,0.2,0.2,0.8","0.8,0.2,0.2,0.2,0.8,0.2,0.2,0.2,0.8","1","",""
"","html-keyboard-response","351","175993","0.0-351.0","3R9WASFE202ZDG2R5R0VYYF1R4FFZA","A3HL2LL0LEPZT8","3UUIU9GZC5R93N292LT21FRJ9VS5TN","","null","<img src=""img/land2.png"" style=""width:200px;border:14px solid red;"">","null","","","","","","","","","",""
"","image-keyboard-response","352","176436","0.0-352.0","3R9WASFE202ZDG2R5R0VYYF1R4FFZA","A3HL2LL0LEPZT8","3UUIU9GZC5R93N292LT21FRJ9VS5TN","","441.19999998807907","img/land3.png","75","442.09999999403954","2","1","2","1","0.8,0.2,0.2,0.2,0.8,0.2,0.2,0.2,0.8","0.8,0.2,0.2,0.2,0.8,0.2,0.2,0.2,0.8","1","",""
"","html-keyboard-response","353","176738","0.0-353.0","3R9WASFE202ZDG2R5R0VYYF1R4FFZA","A3HL2LL0LEPZT8","3UUIU9GZC5R93N292LT21FRJ9VS5TN","","null","<img src=""img/land3.png"" style=""width:200px; border:14px solid green;"">","null","","","","","","","","","",""
"","image-keyboard-response","354","177266","0.0-354.0","3R9WASFE202ZDG2R5R0VYYF1R4FFZA","A3HL2LL0LEPZT8","3UUIU9GZC5R93N292LT21FRJ9VS5TN","","526.9000000059605","img/land2.png","74","527.7999999970198","1","0","3","1","0.8,0.2,0.2,0.2,0.8,0.2,0.2,0.2,0.8","0.8,0.2,0.2,0.2,0.8,0.2,0.2,0.2,0.8","1","",""
