"success","trial_type","trial_index","time_elapsed","internal_node_id","assignmentID","mturkID","hitID","view_history","rt","stimulus","key_press","reactionTime","a","r","s","cond","reward_cond","reward_cond_actual","reward_matrix_idx","responses","question_order"
"true","fullscreen","0","24327","0.0-0.0","3FK0YFF9P0270TJ749GWVE5RRJ9VVI","A3HVFSD8K94SOR","3HUR21WDDUBEMSLDIXZW1FAIHW8YX3","","","","","","","","","","","","","",""
"","instructions","1","47473","0.0-1.0","3FK0YFF9P0270TJ749GWVE5RRJ9VVI","A3HVFSD8K94SOR","3HUR21WDDUBEMSLDIXZW1FAIHW8YX3","[{""page_index"":0,""viewing_time"":3425},{""page_index"":1,""viewing_time"":1446},{""page_index"":2,""viewing_time"":736},{""page_index"":3,""viewing_time"":3531},{""page_index"":4,""viewing_time"":4297},{""page_index"":5,""viewing_time"":3783},{""page_index"":6,""viewing_time"":5924}]","23142","","","","","","","","","","","",""
"","image-keyboard-response","2","48644","0.0-2.0","3FK0YFF9P0270TJ749GWVE5RRJ9VVI","A3HVFSD8K94SOR","3HUR21WDDUBEMSLDIXZW1FAIHW8YX3","","1167","img/land2.png","74","1170","1","0","3","1","0.8,0.2,0.2,0.2,0.8,0.2,0.2,0.2,0.8","0.8,0.2,0.2,0.2,0.8,0.2,0.2,0.2,0.8","1","",""
"","html-keyboard-response","3","48950","0.0-3.0","3FK0YFF9P0270TJ749GWVE5RRJ9VVI","A3HVFSD8K94SOR","3HUR21WDDUBEMSLDIXZW1FAIHW8YX3","","null","<img src=""img/land2.png"" style=""width:200px;border:14px solid red;"">","null","","","","","","","","","",""
"","image-keyboard-response","4","50256","0.0-4.0","3FK0YFF9P0270TJ749GWVE5RRJ9VVI","A3HVFSD8K94SOR","3HUR21WDDUBEMSLDIXZW1FAIHW8YX3","","1305","img/land1.png","74","1305","1","0","1","1","0.8,0.2,0.2,0.2,0.8,0.2,0.2,0.2,0.8","0.8,0.2,0.2,0.2,0.8,0.2,0.2,0.2,0.8","1","",""
"","html-keyboard-response","5","50589","0.0-5.0","3FK0YFF9P0270TJ749GWVE5RRJ9VVI","A3HVFSD8K94SOR","3HUR21WDDUBEMSLDIXZW1FAIHW8YX3","","null","<img src=""img/land1.png"" style=""width:200px;border:14px solid red;"">","null","","","","","","","","","",""
"","image-keyboard-response","6","51895","0.0-6.0","3FK0YFF9P0270TJ749GWVE5RRJ9VVI","A3HVFSD8K94SOR","3HUR21WDDUBEMSLDIXZW1FAIHW8YX3","","1304","img/land2.png","74","1305","1","0","3","1","0.8,0.2,0.2,0.2,0.8,0.2,0.2,0.2,0.8","0.8,0.2,0.2,0.2,0.8,0.2,0.2,0.2,0.8","1","",""
"","html-keyboard-response","7","52199","0.0-7.0","3FK0YFF9P0270TJ749GWVE5RRJ9VVI","A3HVFSD8K94SOR","3HUR21WDDUBEMSLDIXZW1FAIHW8YX3","","null","<img src=""img/land2.png"" style=""width:200px;border:14px solid red;"">","null","","","","","","","","","",""
"","image-keyboard-response","8","53183","0.0-8.0","3FK0YFF9P0270TJ749GWVE5RRJ9VVI","A3HVFSD8K94SOR","3HUR21WDDUBEMSLDIXZW1FAIHW8YX3","","982","img/land5.png","74","983","1","0","2","1","0.8,0.2,0.2,0.2,0.8,0.2,0.2,0.2,0.8","0.8,0.2,0.2,0.2,0.8,0.2,0.2,0.2,0.8","1","",""
"","html-keyboard-response","9","53493","0.0-9.0","3FK0YFF9P0270TJ749GWVE5RRJ9VVI","A3HVFSD8K94SOR","3HUR21WDDUBEMSLDIXZW1FAIHW8YX3","","null","<img src=""img/land5.png"" style=""width:200px;border:14px solid red;"">","null","","","","","","","","","",""
"","image-keyboard-response","10","55312","0.0-10.0","3FK0YFF9P0270TJ749GWVE5RRJ9VVI","A3HVFSD8K94SOR","3HUR21WDDUBEMSLDIXZW1FAIHW8YX3","","1817","img/land2.png","75","1819","2","0","3","1","0.8,0.2,0.2,0.2,0.8,0.2,0.2,0.2,0.8","0.8,0.2,0.2,0.2,0.8,0.2,0.2,0.2,0.8","1","",""
"","html-keyboard-response","11","55637","0.0-11.0","3FK0YFF9P0270TJ749GWVE5RRJ9VVI","A3HVFSD8K94SOR","3HUR21WDDUBEMSLDIXZW1FAIHW8YX3","","null","<img src=""img/land2.png"" style=""width:200px;border:14px solid red;"">","null","","","","","","","","","",""
"","image-keyboard-response","12","56748","0.0-12.0","3FK0YFF9P0270TJ749GWVE5RRJ9VVI","A3HVFSD8K94SOR","3HUR21WDDUBEMSLDIXZW1FAIHW8YX3","","1110","img/land2.png","75","1110","2","0","3","1","0.8,0.2,0.2,0.2,0.8,0.2,0.2,0.2,0.8","0.8,0.2,0.2,0.2,0.8,0.2,0.2,0.2,0.8","1","",""
"","html-keyboard-response","13","57060","0.0-13.0","3FK0YFF9P0270TJ749GWVE5RRJ9VVI","A3HVFSD8K94SOR","3HUR21WDDUBEMSLDIXZW1FAIHW8YX3","","null","<img src=""img/land2.png"" style=""width:200px;border:14px solid red;"">","null","","","","","","","","","",""
"","image-keyboard-response","14","59073","0.0-14.0","3FK0YFF9P0270TJ749GWVE5RRJ9VVI","A3HVFSD8K94SOR","3HUR21WDDUBEMSLDIXZW1FAIHW8YX3","","","img/land5.png","","2013","-1","0","2","1","0.8,0.2,0.2,0.2,0.8,0.2,0.2,0.2,0.8","0.8,0.2,0.2,0.2,0.8,0.2,0.2,0.2,0.8","1","",""
"","html-keyboard-response","15","59375","0.0-15.0","3FK0YFF9P0270TJ749GWVE5RRJ9VVI","A3HVFSD8K94SOR","3HUR21WDDUBEMSLDIXZW1FAIHW8YX3","","null","<img src=""img/land5.png"" style=""width:200px;border:14px solid red;"">","null","","","","","","","","","",""
"","image-keyboard-response","16","60130","0.0-16.0","3FK0YFF9P0270TJ749GWVE5RRJ9VVI","A3HVFSD8K94SOR","3HUR21WDDUBEMSLDIXZW1FAIHW8YX3","","754","img/land5.png","76","755","3","0","2","1","0.8,0.2,0.2,0.2,0.8,0.2,0.2,0.2,0.8","0.8,0.2,0.2,0.2,0.8,0.2,0.2,0.2,0.8","1","",""
"","html-keyboard-response","17","60435","0.0-17.0","3FK0YFF9P0270TJ749GWVE5RRJ9VVI","A3HVFSD8K94SOR","3HUR21WDDUBEMSLDIXZW1FAIHW8YX3","","null","<img src=""img/land5.png"" style=""width:200px;border:14px solid red;"">","null","","","","","","","","","",""
"","image-keyboard-response","18","61482","0.0-18.0","3FK0YFF9P0270TJ749GWVE5RRJ9VVI","A3HVFSD8K94SOR","3HUR21WDDUBEMSLDIXZW1FAIHW8YX3","","1047","img/land2.png","76","1048","3","1","3","1","0.8,0.2,0.2,0.2,0.8,0.2,0.2,0.2,0.8","0.8,0.2,0.2,0.2,0.8,0.2,0.2,0.2,0.8","1","",""
"","html-keyboard-response","19","61788","0.0-19.0","3FK0YFF9P0270TJ749GWVE5RRJ9VVI","A3HVFSD8K94SOR","3HUR21WDDUBEMSLDIXZW1FAIHW8YX3","","null","<img src=""img/land2.png"" style=""width:200px; border:14px solid green;"">","null","","","","","","","","","",""
"","image-keyboard-response","20","62452","0.0-20.0","3FK0YFF9P0270TJ749GWVE5RRJ9VVI","A3HVFSD8K94SOR","3HUR21WDDUBEMSLDIXZW1FAIHW8YX3","","662","img/land5.png","76","663","3","0","2","1","0.8,0.2,0.2,0.2,0.8,0.2,0.2,0.2,0.8","0.8,0.2,0.2,0.2,0.8,0.2,0.2,0.2,0.8","1","",""
"","html-keyboard-response","21","62764","0.0-21.0","3FK0YFF9P0270TJ749GWVE5RRJ9VVI","A3HVFSD8K94SOR","3HUR21WDDUBEMSLDIXZW1FAIHW8YX3","","null","<img src=""img/land5.png"" style=""width:200px;border:14px solid red;"">","null","","","","","","","","","",""
"","image-keyboard-response","22","63525","0.0-22.0","3FK0YFF9P0270TJ749GWVE5RRJ9VVI","A3HVFSD8K94SOR","3HUR21WDDUBEMSLDIXZW1FAIHW8YX3","","760","img/land1.png","76","762","3","1","1","1","0.8,0.2,0.2,0.2,0.8,0.2,0.2,0.2,0.8","0.8,0.2,0.2,0.2,0.8,0.2,0.2,0.2,0.8","1","",""
"","html-keyboard-response","23","63838","0.0-23.0","3FK0YFF9P0270TJ749GWVE5RRJ9VVI","A3HVFSD8K94SOR","3HUR21WDDUBEMSLDIXZW1FAIHW8YX3","","null","<img src=""img/land1.png"" style=""width:200px; border:14px solid green;"">","null","","","","","","","","","",""
"","image-keyboard-response","24","64603","0.0-24.0","3FK0YFF9P0270TJ749GWVE5RRJ9VVI","A3HVFSD8K94SOR","3HUR21WDDUBEMSLDIXZW1FAIHW8YX3","","764","img/land2.png","76","765","3","1","3","1","0.8,0.2,0.2,0.2,0.8,0.2,0.2,0.2,0.8","0.8,0.2,0.2,0.2,0.8,0.2,0.2,0.2,0.8","1","",""
"","html-keyboard-response","25","64907","0.0-25.0","3FK0YFF9P0270TJ749GWVE5RRJ9VVI","A3HVFSD8K94SOR","3HUR21WDDUBEMSLDIXZW1FAIHW8YX3","","null","<img src=""img/land2.png"" style=""width:200px; border:14px solid green;"">","null","","","","","","","","","",""
"","image-keyboard-response","26","65917","0.0-26.0","3FK0YFF9P0270TJ749GWVE5RRJ9VVI","A3HVFSD8K94SOR","3HUR21WDDUBEMSLDIXZW1FAIHW8YX3","","1009","img/land2.png","76","1010","3","1","3","1","0.8,0.2,0.2,0.2,0.8,0.2,0.2,0.2,0.8","0.8,0.2,0.2,0.2,0.8,0.2,0.2,0.2,0.8","1","",""
"","html-keyboard-response","27","66232","0.0-27.0","3FK0YFF9P0270TJ749GWVE5RRJ9VVI","A3HVFSD8K94SOR","3HUR21WDDUBEMSLDIXZW1FAIHW8YX3","","null","<img src=""img/land2.png"" style=""width:200px; border:14px solid green;"">","null","","","","","","","","","",""
"","image-keyboard-response","28","67371","0.0-28.0","3FK0YFF9P0270TJ749GWVE5RRJ9VVI","A3HVFSD8K94SOR","3HUR21WDDUBEMSLDIXZW1FAIHW8YX3","","1139","img/land2.png","76","1139","3","1","3","1","0.8,0.2,0.2,0.2,0.8,0.2,0.2,0.2,0.8","0.8,0.2,0.2,0.2,0.8,0.2,0.2,0.2,0.8","1","",""
"","html-keyboard-response","29","67676","0.0-29.0","3FK0YFF9P0270TJ749GWVE5RRJ9VVI","A3HVFSD8K94SOR","3HUR21WDDUBEMSLDIXZW1FAIHW8YX3","","null","<img src=""img/land2.png"" style=""width:200px; border:14px solid green;"">","null","","","","","","","","","",""
"","image-keyboard-response","30","68315","0.0-30.0","3FK0YFF9P0270TJ749GWVE5RRJ9VVI","A3HVFSD8K94SOR","3HUR21WDDUBEMSLDIXZW1FAIHW8YX3","","637","img/land1.png","76","638","3","0","1","1","0.8,0.2,0.2,0.2,0.8,0.2,0.2,0.2,0.8","0.8,0.2,0.2,0.2,0.8,0.2,0.2,0.2,0.8","1","",""
"","html-keyboard-response","31","68621","0.0-31.0","3FK0YFF9P0270TJ749GWVE5RRJ9VVI","A3HVFSD8K94SOR","3HUR21WDDUBEMSLDIXZW1FAIHW8YX3","","null","<img src=""img/land1.png"" style=""width:200px;border:14px solid red;"">","null","","","","","","","","","",""
"","image-keyboard-response","32","69408","0.0-32.0","3FK0YFF9P0270TJ749GWVE5RRJ9VVI","A3HVFSD8K94SOR","3HUR21WDDUBEMSLDIXZW1FAIHW8YX3","","785","img/land2.png","76","786","3","0","3","1","0.8,0.2,0.2,0.2,0.8,0.2,0.2,0.2,0.8","0.8,0.2,0.2,0.2,0.8,0.2,0.2,0.2,0.8","1","",""
"","html-keyboard-response","33","69714","0.0-33.0","3FK0YFF9P0270TJ749GWVE5RRJ9VVI","A3HVFSD8K94SOR","3HUR21WDDUBEMSLDIXZW1FAIHW8YX3","","null","<img src=""img/land2.png"" style=""width:200px;border:14px solid red;"">","null","","","","","","","","","",""
"","image-keyboard-response","34","70302","0.0-34.0","3FK0YFF9P0270TJ749GWVE5RRJ9VVI","A3HVFSD8K94SOR","3HUR21WDDUBEMSLDIXZW1FAIHW8YX3","","586","img/land2.png","76","588","3","1","3","1","0.8,0.2,0.2,0.2,0.8,0.2,0.2,0.2,0.8","0.8,0.2,0.2,0.2,0.8,0.2,0.2,0.2,0.8","1","",""
"","html-keyboard-response","35","70617","0.0-35.0","3FK0YFF9P0270TJ749GWVE5RRJ9VVI","A3HVFSD8K94SOR","3HUR21WDDUBEMSLDIXZW1FAIHW8YX3","","null","<img src=""img/land2.png"" style=""width:200px; border:14px solid green;"">","null","","","","","","","","","",""
"","image-keyboard-response","36","71286","0.0-36.0","3FK0YFF9P0270TJ749GWVE5RRJ9VVI","A3HVFSD8K94SOR","3HUR21WDDUBEMSLDIXZW1FAIHW8YX3","","668","img/land5.png","76","668","3","0","2","1","0.8,0.2,0.2,0.2,0.8,0.2,0.2,0.2,0.8","0.8,0.2,0.2,0.2,0.8,0.2,0.2,0.2,0.8","1","",""
"","html-keyboard-response","37","71593","0.0-37.0","3FK0YFF9P0270TJ749GWVE5RRJ9VVI","A3HVFSD8K94SOR","3HUR21WDDUBEMSLDIXZW1FAIHW8YX3","","null","<img src=""img/land5.png"" style=""width:200px;border:14px solid red;"">","null","","","","","","","","","",""
"","image-keyboard-response","38","72529","0.0-38.0","3FK0YFF9P0270TJ749GWVE5RRJ9VVI","A3HVFSD8K94SOR","3HUR21WDDUBEMSLDIXZW1FAIHW8YX3","","936","img/land1.png","75","937","2","0","1","1","0.8,0.2,0.2,0.2,0.8,0.2,0.2,0.2,0.8","0.8,0.2,0.2,0.2,0.8,0.2,0.2,0.2,0.8","1","",""
"","html-keyboard-response","39","72845","0.0-39.0","3FK0YFF9P0270TJ749GWVE5RRJ9VVI","A3HVFSD8K94SOR","3HUR21WDDUBEMSLDIXZW1FAIHW8YX3","","null","<img src=""img/land1.png"" style=""width:200px;border:14px solid red;"">","null","","","","","","","","","",""
"","image-keyboard-response","40","73329","0.0-40.0","3FK0YFF9P0270TJ749GWVE5RRJ9VVI","A3HVFSD8K94SOR","3HUR21WDDUBEMSLDIXZW1FAIHW8YX3","","483","img/land1.png","75","483","2","0","1","1","0.8,0.2,0.2,0.2,0.8,0.2,0.2,0.2,0.8","0.8,0.2,0.2,0.2,0.8,0.2,0.2,0.2,0.8","1","",""
"","html-keyboard-response","41","73634","0.0-41.0","3FK0YFF9P0270TJ749GWVE5RRJ9VVI","A3HVFSD8K94SOR","3HUR21WDDUBEMSLDIXZW1FAIHW8YX3","","null","<img src=""img/land1.png"" style=""width:200px;border:14px solid red;"">","null","","","","","","","","","",""
"","image-keyboard-response","42","74382","0.0-42.0","3FK0YFF9P0270TJ749GWVE5RRJ9VVI","A3HVFSD8K94SOR","3HUR21WDDUBEMSLDIXZW1FAIHW8YX3","","746","img/land2.png","76","747","3","1","3","1","0.8,0.2,0.2,0.2,0.8,0.2,0.2,0.2,0.8","0.8,0.2,0.2,0.2,0.8,0.2,0.2,0.2,0.8","1","",""
"","html-keyboard-response","43","74692","0.0-43.0","3FK0YFF9P0270TJ749GWVE5RRJ9VVI","A3HVFSD8K94SOR","3HUR21WDDUBEMSLDIXZW1FAIHW8YX3","","null","<img src=""img/land2.png"" style=""width:200px; border:14px solid green;"">","null","","","","","","","","","",""
"","image-keyboard-response","44","75353","0.0-44.0","3FK0YFF9P0270TJ749GWVE5RRJ9VVI","A3HVFSD8K94SOR","3HUR21WDDUBEMSLDIXZW1FAIHW8YX3","","657","img/land2.png","76","659","3","1","3","1","0.8,0.2,0.2,0.2,0.8,0.2,0.2,0.2,0.8","0.8,0.2,0.2,0.2,0.8,0.2,0.2,0.2,0.8","1","",""
"","html-keyboard-response","45","75656","0.0-45.0","3FK0YFF9P0270TJ749GWVE5RRJ9VVI","A3HVFSD8K94SOR","3HUR21WDDUBEMSLDIXZW1FAIHW8YX3","","null","<img src=""img/land2.png"" style=""width:200px; border:14px solid green;"">","null","","","","","","","","","",""
"","image-keyboard-response","46","77054","0.0-46.0","3FK0YFF9P0270TJ749GWVE5RRJ9VVI","A3HVFSD8K94SOR","3HUR21WDDUBEMSLDIXZW1FAIHW8YX3","","1396","img/land1.png","74","1397","1","1","1","1","0.8,0.2,0.2,0.2,0.8,0.2,0.2,0.2,0.8","0.8,0.2,0.2,0.2,0.8,0.2,0.2,0.2,0.8","1","",""
"","html-keyboard-response","47","77369","0.0-47.0","3FK0YFF9P0270TJ749GWVE5RRJ9VVI","A3HVFSD8K94SOR","3HUR21WDDUBEMSLDIXZW1FAIHW8YX3","","null","<img src=""img/land1.png"" style=""width:200px; border:14px solid green;"">","null","","","","","","","","","",""
"","image-keyboard-response","48","78452","0.0-48.0","3FK0YFF9P0270TJ749GWVE5RRJ9VVI","A3HVFSD8K94SOR","3HUR21WDDUBEMSLDIXZW1FAIHW8YX3","","1082","img/land2.png","76","1083","3","1","3","1","0.8,0.2,0.2,0.2,0.8,0.2,0.2,0.2,0.8","0.8,0.2,0.2,0.2,0.8,0.2,0.2,0.2,0.8","1","",""
"","html-keyboard-response","49","78760","0.0-49.0","3FK0YFF9P0270TJ749GWVE5RRJ9VVI","A3HVFSD8K94SOR","3HUR21WDDUBEMSLDIXZW1FAIHW8YX3","","null","<img src=""img/land2.png"" style=""width:200px; border:14px solid green;"">","null","","","","","","","","","",""
"","image-keyboard-response","50","79710","0.0-50.0","3FK0YFF9P0270TJ749GWVE5RRJ9VVI","A3HVFSD8K94SOR","3HUR21WDDUBEMSLDIXZW1FAIHW8YX3","","948","img/land5.png","74","950","1","1","2","1","0.8,0.2,0.2,0.2,0.8,0.2,0.2,0.2,0.8","0.8,0.2,0.2,0.2,0.8,0.2,0.2,0.2,0.8","1","",""
"","html-keyboard-response","51","80022","0.0-51.0","3FK0YFF9P0270TJ749GWVE5RRJ9VVI","A3HVFSD8K94SOR","3HUR21WDDUBEMSLDIXZW1FAIHW8YX3","","null","<img src=""img/land5.png"" style=""width:200px; border:14px solid green;"">","null","","","","","","","","","",""
"","image-keyboard-response","52","80794","0.0-52.0","3FK0YFF9P0270TJ749GWVE5RRJ9VVI","A3HVFSD8K94SOR","3HUR21WDDUBEMSLDIXZW1FAIHW8YX3","","771","img/land5.png","74","772","1","0","2","1","0.8,0.2,0.2,0.2,0.8,0.2,0.2,0.2,0.8","0.8,0.2,0.2,0.2,0.8,0.2,0.2,0.2,0.8","1","",""
"","html-keyboard-response","53","81111","0.0-53.0","3FK0YFF9P0270TJ749GWVE5RRJ9VVI","A3HVFSD8K94SOR","3HUR21WDDUBEMSLDIXZW1FAIHW8YX3","","null","<img src=""img/land5.png"" style=""width:200px;border:14px solid red;"">","null","","","","","","","","","",""
"","image-keyboard-response","54","82092","0.0-54.0","3FK0YFF9P0270TJ749GWVE5RRJ9VVI","A3HVFSD8K94SOR","3HUR21WDDUBEMSLDIXZW1FAIHW8YX3","","978","img/land1.png","74","980","1","1","1","1","0.8,0.2,0.2,0.2,0.8,0.2,0.2,0.2,0.8","0.8,0.2,0.2,0.2,0.8,0.2,0.2,0.2,0.8","1","",""
"","html-keyboard-response","55","82395","0.0-55.0","3FK0YFF9P0270TJ749GWVE5RRJ9VVI","A3HVFSD8K94SOR","3HUR21WDDUBEMSLDIXZW1FAIHW8YX3","","null","<img src=""img/land1.png"" style=""width:200px; border:14px solid green;"">","null","","","","","","","","","",""
"","image-keyboard-response","56","83052","0.0-56.0","3FK0YFF9P0270TJ749GWVE5RRJ9VVI","A3HVFSD8K94SOR","3HUR21WDDUBEMSLDIXZW1FAIHW8YX3","","655","img/land5.png","74","657","1","0","2","1","0.8,0.2,0.2,0.2,0.8,0.2,0.2,0.2,0.8","0.8,0.2,0.2,0.2,0.8,0.2,0.2,0.2,0.8","1","",""
"","html-keyboard-response","57","83362","0.0-57.0","3FK0YFF9P0270TJ749GWVE5RRJ9VVI","A3HVFSD8K94SOR","3HUR21WDDUBEMSLDIXZW1FAIHW8YX3","","null","<img src=""img/land5.png"" style=""width:200px;border:14px solid red;"">","null","","","","","","","","","",""
"","image-keyboard-response","58","84429","0.0-58.0","3FK0YFF9P0270TJ749GWVE5RRJ9VVI","A3HVFSD8K94SOR","3HUR21WDDUBEMSLDIXZW1FAIHW8YX3","","1067","img/land2.png","76","1068","3","1","3","1","0.8,0.2,0.2,0.2,0.8,0.2,0.2,0.2,0.8","0.8,0.2,0.2,0.2,0.8,0.2,0.2,0.2,0.8","1","",""
"","html-keyboard-response","59","84745","0.0-59.0","3FK0YFF9P0270TJ749GWVE5RRJ9VVI","A3HVFSD8K94SOR","3HUR21WDDUBEMSLDIXZW1FAIHW8YX3","","null","<img src=""img/land2.png"" style=""width:200px; border:14px solid green;"">","null","","","","","","","","","",""
"","image-keyboard-response","60","85788","0.0-60.0","3FK0YFF9P0270TJ749GWVE5RRJ9VVI","A3HVFSD8K94SOR","3HUR21WDDUBEMSLDIXZW1FAIHW8YX3","","1043","img/land2.png","76","1043","3","1","3","1","0.8,0.2,0.2,0.2,0.8,0.2,0.2,0.2,0.8","0.8,0.2,0.2,0.2,0.8,0.2,0.2,0.2,0.8","1","",""
"","html-keyboard-response","61","86102","0.0-61.0","3FK0YFF9P0270TJ749GWVE5RRJ9VVI","A3HVFSD8K94SOR","3HUR21WDDUBEMSLDIXZW1FAIHW8YX3","","null","<img src=""img/land2.png"" style=""width:200px; border:14px solid green;"">","null","","","","","","","","","",""
"","image-keyboard-response","62","86776","0.0-62.0","3FK0YFF9P0270TJ749GWVE5RRJ9VVI","A3HVFSD8K94SOR","3HUR21WDDUBEMSLDIXZW1FAIHW8YX3","","674","img/land5.png","76","674","3","0","2","1","0.8,0.2,0.2,0.2,0.8,0.2,0.2,0.2,0.8","0.8,0.2,0.2,0.2,0.8,0.2,0.2,0.2,0.8","1","",""
"","html-keyboard-response","63","87091","0.0-63.0","3FK0YFF9P0270TJ749GWVE5RRJ9VVI","A3HVFSD8K94SOR","3HUR21WDDUBEMSLDIXZW1FAIHW8YX3","","null","<img src=""img/land5.png"" style=""width:200px;border:14px solid red;"">","null","","","","","","","","","",""
"","image-keyboard-response","64","88405","0.0-64.0","3FK0YFF9P0270TJ749GWVE5RRJ9VVI","A3HVFSD8K94SOR","3HUR21WDDUBEMSLDIXZW1FAIHW8YX3","","1313","img/land5.png","75","1314","2","1","2","1","0.8,0.2,0.2,0.2,0.8,0.2,0.2,0.2,0.8","0.8,0.2,0.2,0.2,0.8,0.2,0.2,0.2,0.8","1","",""
"","html-keyboard-response","65","88716","0.0-65.0","3FK0YFF9P0270TJ749GWVE5RRJ9VVI","A3HVFSD8K94SOR","3HUR21WDDUBEMSLDIXZW1FAIHW8YX3","","null","<img src=""img/land5.png"" style=""width:200px; border:14px solid green;"">","null","","","","","","","","","",""
"","image-keyboard-response","66","89879","0.0-66.0","3FK0YFF9P0270TJ749GWVE5RRJ9VVI","A3HVFSD8K94SOR","3HUR21WDDUBEMSLDIXZW1FAIHW8YX3","","1161","img/land5.png","75","1162","2","1","2","1","0.8,0.2,0.2,0.2,0.8,0.2,0.2,0.2,0.8","0.8,0.2,0.2,0.2,0.8,0.2,0.2,0.2,0.8","1","",""
"","html-keyboard-response","67","90193","0.0-67.0","3FK0YFF9P0270TJ749GWVE5RRJ9VVI","A3HVFSD8K94SOR","3HUR21WDDUBEMSLDIXZW1FAIHW8YX3","","null","<img src=""img/land5.png"" style=""width:200px; border:14px solid green;"">","null","","","","","","","","","",""
"","image-keyboard-response","68","91042","0.0-68.0","3FK0YFF9P0270TJ749GWVE5RRJ9VVI","A3HVFSD8K94SOR","3HUR21WDDUBEMSLDIXZW1FAIHW8YX3","","849","img/land2.png","76","849","3","0","3","1","0.8,0.2,0.2,0.2,0.8,0.2,0.2,0.2,0.8","0.8,0.2,0.2,0.2,0.8,0.2,0.2,0.2,0.8","1","",""
"","html-keyboard-response","69","91345","0.0-69.0","3FK0YFF9P0270TJ749GWVE5RRJ9VVI","A3HVFSD8K94SOR","3HUR21WDDUBEMSLDIXZW1FAIHW8YX3","","null","<img src=""img/land2.png"" style=""width:200px;border:14px solid red;"">","null","","","","","","","","","",""
"","image-keyboard-response","70","91847","0.0-70.0","3FK0YFF9P0270TJ749GWVE5RRJ9VVI","A3HVFSD8K94SOR","3HUR21WDDUBEMSLDIXZW1FAIHW8YX3","","500","img/land2.png","76","501","3","1","3","1","0.8,0.2,0.2,0.2,0.8,0.2,0.2,0.2,0.8","0.8,0.2,0.2,0.2,0.8,0.2,0.2,0.2,0.8","1","",""
"","html-keyboard-response","71","92171","0.0-71.0","3FK0YFF9P0270TJ749GWVE5RRJ9VVI","A3HVFSD8K94SOR","3HUR21WDDUBEMSLDIXZW1FAIHW8YX3","","null","<img src=""img/land2.png"" style=""width:200px; border:14px solid green;"">","null","","","","","","","","","",""
"","image-keyboard-response","72","93894","0.0-72.0","3FK0YFF9P0270TJ749GWVE5RRJ9VVI","A3HVFSD8K94SOR","3HUR21WDDUBEMSLDIXZW1FAIHW8YX3","","1723","img/land1.png","74","1723","1","1","1","1","0.8,0.2,0.2,0.2,0.8,0.2,0.2,0.2,0.8","0.8,0.2,0.2,0.2,0.8,0.2,0.2,0.2,0.8","1","",""
"","html-keyboard-response","73","94196","0.0-73.0","3FK0YFF9P0270TJ749GWVE5RRJ9VVI","A3HVFSD8K94SOR","3HUR21WDDUBEMSLDIXZW1FAIHW8YX3","","null","<img src=""img/land1.png"" style=""width:200px; border:14px solid green;"">","null","","","","","","","","","",""
"","image-keyboard-response","74","95097","0.0-74.0","3FK0YFF9P0270TJ749GWVE5RRJ9VVI","A3HVFSD8K94SOR","3HUR21WDDUBEMSLDIXZW1FAIHW8YX3","","899","img/land1.png","74","901","1","1","1","1","0.8,0.2,0.2,0.2,0.8,0.2,0.2,0.2,0.8","0.8,0.2,0.2,0.2,0.8,0.2,0.2,0.2,0.8","1","",""
"","html-keyboard-response","75","95403","0.0-75.0","3FK0YFF9P0270TJ749GWVE5RRJ9VVI","A3HVFSD8K94SOR","3HUR21WDDUBEMSLDIXZW1FAIHW8YX3","","null","<img src=""img/land1.png"" style=""width:200px; border:14px solid green;"">","null","","","","","","","","","",""
"","image-keyboard-response","76","96720","0.0-76.0","3FK0YFF9P0270TJ749GWVE5RRJ9VVI","A3HVFSD8K94SOR","3HUR21WDDUBEMSLDIXZW1FAIHW8YX3","","1317","img/land1.png","74","1317","1","1","1","1","0.8,0.2,0.2,0.2,0.8,0.2,0.2,0.2,0.8","0.8,0.2,0.2,0.2,0.8,0.2,0.2,0.2,0.8","1","",""
"","html-keyboard-response","77","97047","0.0-77.0","3FK0YFF9P0270TJ749GWVE5RRJ9VVI","A3HVFSD8K94SOR","3HUR21WDDUBEMSLDIXZW1FAIHW8YX3","","null","<img src=""img/land1.png"" style=""width:200px; border:14px solid green;"">","null","","","","","","","","","",""
"","image-keyboard-response","78","97964","0.0-78.0","3FK0YFF9P0270TJ749GWVE5RRJ9VVI","A3HVFSD8K94SOR","3HUR21WDDUBEMSLDIXZW1FAIHW8YX3","","915","img/land1.png","74","917","1","1","1","1","0.8,0.2,0.2,0.2,0.8,0.2,0.2,0.2,0.8","0.8,0.2,0.2,0.2,0.8,0.2,0.2,0.2,0.8","1","",""
"","html-keyboard-response","79","98272","0.0-79.0","3FK0YFF9P0270TJ749GWVE5RRJ9VVI","A3HVFSD8K94SOR","3HUR21WDDUBEMSLDIXZW1FAIHW8YX3","","null","<img src=""img/land1.png"" style=""width:200px; border:14px solid green;"">","null","","","","","","","","","",""
"","image-keyboard-response","80","99022","0.0-80.0","3FK0YFF9P0270TJ749GWVE5RRJ9VVI","A3HVFSD8K94SOR","3HUR21WDDUBEMSLDIXZW1FAIHW8YX3","","748","img/land1.png","74","749","1","0","1","1","0.8,0.2,0.2,0.2,0.8,0.2,0.2,0.2,0.8","0.8,0.2,0.2,0.2,0.8,0.2,0.2,0.2,0.8","1","",""
"","html-keyboard-response","81","99329","0.0-81.0","3FK0YFF9P0270TJ749GWVE5RRJ9VVI","A3HVFSD8K94SOR","3HUR21WDDUBEMSLDIXZW1FAIHW8YX3","","null","<img src=""img/land1.png"" style=""width:200px;border:14px solid red;"">","null","","","","","","","","","",""
"","image-keyboard-response","82","100257","0.0-82.0","3FK0YFF9P0270TJ749GWVE5RRJ9VVI","A3HVFSD8K94SOR","3HUR21WDDUBEMSLDIXZW1FAIHW8YX3","","928","img/land1.png","74","929","1","0","1","1","0.8,0.2,0.2,0.2,0.8,0.2,0.2,0.2,0.8","0.8,0.2,0.2,0.2,0.8,0.2,0.2,0.2,0.8","1","",""
"","html-keyboard-response","83","100562","0.0-83.0","3FK0YFF9P0270TJ749GWVE5RRJ9VVI","A3HVFSD8K94SOR","3HUR21WDDUBEMSLDIXZW1FAIHW8YX3","","null","<img src=""img/land1.png"" style=""width:200px;border:14px solid red;"">","null","","","","","","","","","",""
"","image-keyboard-response","84","101663","0.0-84.0","3FK0YFF9P0270TJ749GWVE5RRJ9VVI","A3HVFSD8K94SOR","3HUR21WDDUBEMSLDIXZW1FAIHW8YX3","","1101","img/land5.png","75","1102","2","1","2","1","0.8,0.2,0.2,0.2,0.8,0.2,0.2,0.2,0.8","0.8,0.2,0.2,0.2,0.8,0.2,0.2,0.2,0.8","1","",""
"","html-keyboard-response","85","101968","0.0-85.0","3FK0YFF9P0270TJ749GWVE5RRJ9VVI","A3HVFSD8K94SOR","3HUR21WDDUBEMSLDIXZW1FAIHW8YX3","","null","<img src=""img/land5.png"" style=""width:200px; border:14px solid green;"">","null","","","","","","","","","",""
"","image-keyboard-response","86","103377","0.0-86.0","3FK0YFF9P0270TJ749GWVE5RRJ9VVI","A3HVFSD8K94SOR","3HUR21WDDUBEMSLDIXZW1FAIHW8YX3","","1408","img/land1.png","74","1408","1","0","1","1","0.8,0.2,0.2,0.2,0.8,0.2,0.2,0.2,0.8","0.8,0.2,0.2,0.2,0.8,0.2,0.2,0.2,0.8","1","",""
"","html-keyboard-response","87","103692","0.0-87.0","3FK0YFF9P0270TJ749GWVE5RRJ9VVI","A3HVFSD8K94SOR","3HUR21WDDUBEMSLDIXZW1FAIHW8YX3","","null","<img src=""img/land1.png"" style=""width:200px;border:14px solid red;"">","null","","","","","","","","","",""
"","image-keyboard-response","88","104071","0.0-88.0","3FK0YFF9P0270TJ749GWVE5RRJ9VVI","A3HVFSD8K94SOR","3HUR21WDDUBEMSLDIXZW1FAIHW8YX3","","378","img/land1.png","74","379","1","1","1","1","0.8,0.2,0.2,0.2,0.8,0.2,0.2,0.2,0.8","0.8,0.2,0.2,0.2,0.8,0.2,0.2,0.2,0.8","1","",""
"","html-keyboard-response","89","104384","0.0-89.0","3FK0YFF9P0270TJ749GWVE5RRJ9VVI","A3HVFSD8K94SOR","3HUR21WDDUBEMSLDIXZW1FAIHW8YX3","","null","<img src=""img/land1.png"" style=""width:200px; border:14px solid green;"">","null","","","","","","","","","",""
"","image-keyboard-response","90","105220","0.0-90.0","3FK0YFF9P0270TJ749GWVE5RRJ9VVI","A3HVFSD8K94SOR","3HUR21WDDUBEMSLDIXZW1FAIHW8YX3","","836","img/land1.png","74","836","1","0","1","1","0.8,0.2,0.2,0.2,0.8,0.2,0.2,0.2,0.8","0.8,0.2,0.2,0.2,0.8,0.2,0.2,0.2,0.8","1","",""
"","html-keyboard-response","91","105538","0.0-91.0","3FK0YFF9P0270TJ749GWVE5RRJ9VVI","A3HVFSD8K94SOR","3HUR21WDDUBEMSLDIXZW1FAIHW8YX3","","null","<img src=""img/land1.png"" style=""width:200px;border:14px solid red;"">","null","","","","","","","","","",""
"","image-keyboard-response","92","105939","0.0-92.0","3FK0YFF9P0270TJ749GWVE5RRJ9VVI","A3HVFSD8K94SOR","3HUR21WDDUBEMSLDIXZW1FAIHW8YX3","","400","img/land1.png","74","401","1","1","1","1","0.8,0.2,0.2,0.2,0.8,0.2,0.2,0.2,0.8","0.8,0.2,0.2,0.2,0.8,0.2,0.2,0.2,0.8","1","",""
"","html-keyboard-response","93","106240","0.0-93.0","3FK0YFF9P0270TJ749GWVE5RRJ9VVI","A3HVFSD8K94SOR","3HUR21WDDUBEMSLDIXZW1FAIHW8YX3","","null","<img src=""img/land1.png"" style=""width:200px; border:14px solid green;"">","null","","","","","","","","","",""
"","image-keyboard-response","94","107254","0.0-94.0","3FK0YFF9P0270TJ749GWVE5RRJ9VVI","A3HVFSD8K94SOR","3HUR21WDDUBEMSLDIXZW1FAIHW8YX3","","1012","img/land5.png","75","1014","2","1","2","1","0.8,0.2,0.2,0.2,0.8,0.2,0.2,0.2,0.8","0.8,0.2,0.2,0.2,0.8,0.2,0.2,0.2,0.8","1","",""
"","html-keyboard-response","95","107564","0.0-95.0","3FK0YFF9P0270TJ749GWVE5RRJ9VVI","A3HVFSD8K94SOR","3HUR21WDDUBEMSLDIXZW1FAIHW8YX3","","null","<img src=""img/land5.png"" style=""width:200px; border:14px solid green;"">","null","","","","","","","","","",""
"","image-keyboard-response","96","108491","0.0-96.0","3FK0YFF9P0270TJ749GWVE5RRJ9VVI","A3HVFSD8K94SOR","3HUR21WDDUBEMSLDIXZW1FAIHW8YX3","","926","img/land1.png","74","927","1","1","1","1","0.8,0.2,0.2,0.2,0.8,0.2,0.2,0.2,0.8","0.8,0.2,0.2,0.2,0.8,0.2,0.2,0.2,0.8","1","",""
"","html-keyboard-response","97","108803","0.0-97.0","3FK0YFF9P0270TJ749GWVE5RRJ9VVI","A3HVFSD8K94SOR","3HUR21WDDUBEMSLDIXZW1FAIHW8YX3","","null","<img src=""img/land1.png"" style=""width:200px; border:14px solid green;"">","null","","","","","","","","","",""
"","image-keyboard-response","98","109660","0.0-98.0","3FK0YFF9P0270TJ749GWVE5RRJ9VVI","A3HVFSD8K94SOR","3HUR21WDDUBEMSLDIXZW1FAIHW8YX3","","855","img/land5.png","75","856","2","1","2","1","0.8,0.2,0.2,0.2,0.8,0.2,0.2,0.2,0.8","0.8,0.2,0.2,0.2,0.8,0.2,0.2,0.2,0.8","1","",""
"","html-keyboard-response","99","109966","0.0-99.0","3FK0YFF9P0270TJ749GWVE5RRJ9VVI","A3HVFSD8K94SOR","3HUR21WDDUBEMSLDIXZW1FAIHW8YX3","","null","<img src=""img/land5.png"" style=""width:200px; border:14px solid green;"">","null","","","","","","","","","",""
"","image-keyboard-response","100","110664","0.0-100.0","3FK0YFF9P0270TJ749GWVE5RRJ9VVI","A3HVFSD8K94SOR","3HUR21WDDUBEMSLDIXZW1FAIHW8YX3","","697","img/land5.png","75","697","2","0","2","1","0.8,0.2,0.2,0.2,0.8,0.2,0.2,0.2,0.8","0.8,0.2,0.2,0.2,0.8,0.2,0.2,0.2,0.8","1","",""
"","html-keyboard-response","101","110972","0.0-101.0","3FK0YFF9P0270TJ749GWVE5RRJ9VVI","A3HVFSD8K94SOR","3HUR21WDDUBEMSLDIXZW1FAIHW8YX3","","null","<img src=""img/land5.png"" style=""width:200px;border:14px solid red;"">","null","","","","","","","","","",""
"","image-keyboard-response","102","111498","0.0-102.0","3FK0YFF9P0270TJ749GWVE5RRJ9VVI","A3HVFSD8K94SOR","3HUR21WDDUBEMSLDIXZW1FAIHW8YX3","","524","img/land5.png","75","525","2","1","2","1","0.8,0.2,0.2,0.2,0.8,0.2,0.2,0.2,0.8","0.8,0.2,0.2,0.2,0.8,0.2,0.2,0.2,0.8","1","",""
"","html-keyboard-response","103","111809","0.0-103.0","3FK0YFF9P0270TJ749GWVE5RRJ9VVI","A3HVFSD8K94SOR","3HUR21WDDUBEMSLDIXZW1FAIHW8YX3","","null","<img src=""img/land5.png"" style=""width:200px; border:14px solid green;"">","null","","","","","","","","","",""
"","image-keyboard-response","104","112576","0.0-104.0","3FK0YFF9P0270TJ749GWVE5RRJ9VVI","A3HVFSD8K94SOR","3HUR21WDDUBEMSLDIXZW1FAIHW8YX3","","766","img/land1.png","74","767","1","1","1","1","0.8,0.2,0.2,0.2,0.8,0.2,0.2,0.2,0.8","0.8,0.2,0.2,0.2,0.8,0.2,0.2,0.2,0.8","1","",""
"","html-keyboard-response","105","112884","0.0-105.0","3FK0YFF9P0270TJ749GWVE5RRJ9VVI","A3HVFSD8K94SOR","3HUR21WDDUBEMSLDIXZW1FAIHW8YX3","","null","<img src=""img/land1.png"" style=""width:200px; border:14px solid green;"">","null","","","","","","","","","",""
"","image-keyboard-response","106","113521","0.0-106.0","3FK0YFF9P0270TJ749GWVE5RRJ9VVI","A3HVFSD8K94SOR","3HUR21WDDUBEMSLDIXZW1FAIHW8YX3","","635","img/land1.png","74","636","1","1","1","1","0.8,0.2,0.2,0.2,0.8,0.2,0.2,0.2,0.8","0.8,0.2,0.2,0.2,0.8,0.2,0.2,0.2,0.8","1","",""
"","html-keyboard-response","107","113836","0.0-107.0","3FK0YFF9P0270TJ749GWVE5RRJ9VVI","A3HVFSD8K94SOR","3HUR21WDDUBEMSLDIXZW1FAIHW8YX3","","null","<img src=""img/land1.png"" style=""width:200px; border:14px solid green;"">","null","","","","","","","","","",""
"","image-keyboard-response","108","114504","0.0-108.0","3FK0YFF9P0270TJ749GWVE5RRJ9VVI","A3HVFSD8K94SOR","3HUR21WDDUBEMSLDIXZW1FAIHW8YX3","","666","img/land1.png","74","667","1","1","1","1","0.8,0.2,0.2,0.2,0.8,0.2,0.2,0.2,0.8","0.8,0.2,0.2,0.2,0.8,0.2,0.2,0.2,0.8","1","",""
"","html-keyboard-response","109","114811","0.0-109.0","3FK0YFF9P0270TJ749GWVE5RRJ9VVI","A3HVFSD8K94SOR","3HUR21WDDUBEMSLDIXZW1FAIHW8YX3","","null","<img src=""img/land1.png"" style=""width:200px; border:14px solid green;"">","null","","","","","","","","","",""
"","image-keyboard-response","110","115522","0.0-110.0","3FK0YFF9P0270TJ749GWVE5RRJ9VVI","A3HVFSD8K94SOR","3HUR21WDDUBEMSLDIXZW1FAIHW8YX3","","711","img/land2.png","76","711","3","1","3","1","0.8,0.2,0.2,0.2,0.8,0.2,0.2,0.2,0.8","0.8,0.2,0.2,0.2,0.8,0.2,0.2,0.2,0.8","1","",""
"","html-keyboard-response","111","115832","0.0-111.0","3FK0YFF9P0270TJ749GWVE5RRJ9VVI","A3HVFSD8K94SOR","3HUR21WDDUBEMSLDIXZW1FAIHW8YX3","","null","<img src=""img/land2.png"" style=""width:200px; border:14px solid green;"">","null","","","","","","","","","",""
"","image-keyboard-response","112","116671","0.0-112.0","3FK0YFF9P0270TJ749GWVE5RRJ9VVI","A3HVFSD8K94SOR","3HUR21WDDUBEMSLDIXZW1FAIHW8YX3","","838","img/land1.png","74","839","1","1","1","1","0.8,0.2,0.2,0.2,0.8,0.2,0.2,0.2,0.8","0.8,0.2,0.2,0.2,0.8,0.2,0.2,0.2,0.8","1","",""
"","html-keyboard-response","113","116985","0.0-113.0","3FK0YFF9P0270TJ749GWVE5RRJ9VVI","A3HVFSD8K94SOR","3HUR21WDDUBEMSLDIXZW1FAIHW8YX3","","null","<img src=""img/land1.png"" style=""width:200px; border:14px solid green;"">","null","","","","","","","","","",""
"","image-keyboard-response","114","118035","0.0-114.0","3FK0YFF9P0270TJ749GWVE5RRJ9VVI","A3HVFSD8K94SOR","3HUR21WDDUBEMSLDIXZW1FAIHW8YX3","","1048","img/land1.png","74","1050","1","1","1","1","0.8,0.2,0.2,0.2,0.8,0.2,0.2,0.2,0.8","0.8,0.2,0.2,0.2,0.8,0.2,0.2,0.2,0.8","1","",""
"","html-keyboard-response","115","118348","0.0-115.0","3FK0YFF9P0270TJ749GWVE5RRJ9VVI","A3HVFSD8K94SOR","3HUR21WDDUBEMSLDIXZW1FAIHW8YX3","","null","<img src=""img/land1.png"" style=""width:200px; border:14px solid green;"">","null","","","","","","","","","",""
"","image-keyboard-response","116","119698","0.0-116.0","3FK0YFF9P0270TJ749GWVE5RRJ9VVI","A3HVFSD8K94SOR","3HUR21WDDUBEMSLDIXZW1FAIHW8YX3","","1349","img/land2.png","76","1350","3","1","3","1","0.8,0.2,0.2,0.2,0.8,0.2,0.2,0.2,0.8","0.8,0.2,0.2,0.2,0.8,0.2,0.2,0.2,0.8","1","",""
"","html-keyboard-response","117","120006","0.0-117.0","3FK0YFF9P0270TJ749GWVE5RRJ9VVI","A3HVFSD8K94SOR","3HUR21WDDUBEMSLDIXZW1FAIHW8YX3","","null","<img src=""img/land2.png"" style=""width:200px; border:14px solid green;"">","null","","","","","","","","","",""
"","image-keyboard-response","118","120995","0.0-118.0","3FK0YFF9P0270TJ749GWVE5RRJ9VVI","A3HVFSD8K94SOR","3HUR21WDDUBEMSLDIXZW1FAIHW8YX3","","988","img/land2.png","76","989","3","1","3","1","0.8,0.2,0.2,0.2,0.8,0.2,0.2,0.2,0.8","0.8,0.2,0.2,0.2,0.8,0.2,0.2,0.2,0.8","1","",""
"","html-keyboard-response","119","121312","0.0-119.0","3FK0YFF9P0270TJ749GWVE5RRJ9VVI","A3HVFSD8K94SOR","3HUR21WDDUBEMSLDIXZW1FAIHW8YX3","","null","<img src=""img/land2.png"" style=""width:200px; border:14px solid green;"">","null","","","","","","","","","",""
"","image-keyboard-response","120","122090","0.0-120.0","3FK0YFF9P0270TJ749GWVE5RRJ9VVI","A3HVFSD8K94SOR","3HUR21WDDUBEMSLDIXZW1FAIHW8YX3","","777","img/land1.png","74","778","1","0","1","1","0.8,0.2,0.2,0.2,0.8,0.2,0.2,0.2,0.8","0.8,0.2,0.2,0.2,0.8,0.2,0.2,0.2,0.8","1","",""
"","html-keyboard-response","121","122402","0.0-121.0","3FK0YFF9P0270TJ749GWVE5RRJ9VVI","A3HVFSD8K94SOR","3HUR21WDDUBEMSLDIXZW1FAIHW8YX3","","null","<img src=""img/land1.png"" style=""width:200px;border:14px solid red;"">","null","","","","","","","","","",""
"","image-keyboard-response","122","123533","0.0-122.0","3FK0YFF9P0270TJ749GWVE5RRJ9VVI","A3HVFSD8K94SOR","3HUR21WDDUBEMSLDIXZW1FAIHW8YX3","","1130","img/land5.png","75","1130","2","1","2","1","0.8,0.2,0.2,0.2,0.8,0.2,0.2,0.2,0.8","0.8,0.2,0.2,0.2,0.8,0.2,0.2,0.2,0.8","1","",""
"","html-keyboard-response","123","123849","0.0-123.0","3FK0YFF9P0270TJ749GWVE5RRJ9VVI","A3HVFSD8K94SOR","3HUR21WDDUBEMSLDIXZW1FAIHW8YX3","","null","<img src=""img/land5.png"" style=""width:200px; border:14px solid green;"">","null","","","","","","","","","",""
"","image-keyboard-response","124","125116","0.0-124.0","3FK0YFF9P0270TJ749GWVE5RRJ9VVI","A3HVFSD8K94SOR","3HUR21WDDUBEMSLDIXZW1FAIHW8YX3","","1266","img/land2.png","76","1266","3","1","3","1","0.8,0.2,0.2,0.2,0.8,0.2,0.2,0.2,0.8","0.8,0.2,0.2,0.2,0.8,0.2,0.2,0.2,0.8","1","",""
"","html-keyboard-response","125","125421","0.0-125.0","3FK0YFF9P0270TJ749GWVE5RRJ9VVI","A3HVFSD8K94SOR","3HUR21WDDUBEMSLDIXZW1FAIHW8YX3","","null","<img src=""img/land2.png"" style=""width:200px; border:14px solid green;"">","null","","","","","","","","","",""
"","image-keyboard-response","126","126196","0.0-126.0","3FK0YFF9P0270TJ749GWVE5RRJ9VVI","A3HVFSD8K94SOR","3HUR21WDDUBEMSLDIXZW1FAIHW8YX3","","773","img/land5.png","74","773","1","1","2","1","0.8,0.2,0.2,0.2,0.8,0.2,0.2,0.2,0.8","0.8,0.2,0.2,0.2,0.8,0.2,0.2,0.2,0.8","1","",""
"","html-keyboard-response","127","126511","0.0-127.0","3FK0YFF9P0270TJ749GWVE5RRJ9VVI","A3HVFSD8K94SOR","3HUR21WDDUBEMSLDIXZW1FAIHW8YX3","","null","<img src=""img/land5.png"" style=""width:200px; border:14px solid green;"">","null","","","","","","","","","",""
"","image-keyboard-response","128","127349","0.0-128.0","3FK0YFF9P0270TJ749GWVE5RRJ9VVI","A3HVFSD8K94SOR","3HUR21WDDUBEMSLDIXZW1FAIHW8YX3","","835","img/land2.png","76","836","3","1","3","1","0.8,0.2,0.2,0.2,0.8,0.2,0.2,0.2,0.8","0.8,0.2,0.2,0.2,0.8,0.2,0.2,0.2,0.8","1","",""
"","html-keyboard-response","129","127650","0.0-129.0","3FK0YFF9P0270TJ749GWVE5RRJ9VVI","A3HVFSD8K94SOR","3HUR21WDDUBEMSLDIXZW1FAIHW8YX3","","null","<img src=""img/land2.png"" style=""width:200px; border:14px solid green;"">","null","","","","","","","","","",""
"","image-keyboard-response","130","128787","0.0-130.0","3FK0YFF9P0270TJ749GWVE5RRJ9VVI","A3HVFSD8K94SOR","3HUR21WDDUBEMSLDIXZW1FAIHW8YX3","","1137","img/land5.png","75","1138","2","1","2","1","0.8,0.2,0.2,0.2,0.8,0.2,0.2,0.2,0.8","0.8,0.2,0.2,0.2,0.8,0.2,0.2,0.2,0.8","1","",""
"","html-keyboard-response","131","129096","0.0-131.0","3FK0YFF9P0270TJ749GWVE5RRJ9VVI","A3HVFSD8K94SOR","3HUR21WDDUBEMSLDIXZW1FAIHW8YX3","","null","<img src=""img/land5.png"" style=""width:200px; border:14px solid green;"">","null","","","","","","","","","",""
"","image-keyboard-response","132","129816","0.0-132.0","3FK0YFF9P0270TJ749GWVE5RRJ9VVI","A3HVFSD8K94SOR","3HUR21WDDUBEMSLDIXZW1FAIHW8YX3","","719","img/land1.png","74","720","1","1","1","1","0.8,0.2,0.2,0.2,0.8,0.2,0.2,0.2,0.8","0.8,0.2,0.2,0.2,0.8,0.2,0.2,0.2,0.8","1","",""
"","html-keyboard-response","133","130132","0.0-133.0","3FK0YFF9P0270TJ749GWVE5RRJ9VVI","A3HVFSD8K94SOR","3HUR21WDDUBEMSLDIXZW1FAIHW8YX3","","null","<img src=""img/land1.png"" style=""width:200px; border:14px solid green;"">","null","","","","","","","","","",""
"","image-keyboard-response","134","131154","0.0-134.0","3FK0YFF9P0270TJ749GWVE5RRJ9VVI","A3HVFSD8K94SOR","3HUR21WDDUBEMSLDIXZW1FAIHW8YX3","","1020","img/land2.png","76","1022","3","1","3","1","0.8,0.2,0.2,0.2,0.8,0.2,0.2,0.2,0.8","0.8,0.2,0.2,0.2,0.8,0.2,0.2,0.2,0.8","1","",""
"","html-keyboard-response","135","131457","0.0-135.0","3FK0YFF9P0270TJ749GWVE5RRJ9VVI","A3HVFSD8K94SOR","3HUR21WDDUBEMSLDIXZW1FAIHW8YX3","","null","<img src=""img/land2.png"" style=""width:200px; border:14px solid green;"">","null","","","","","","","","","",""
"","image-keyboard-response","136","132653","0.0-136.0","3FK0YFF9P0270TJ749GWVE5RRJ9VVI","A3HVFSD8K94SOR","3HUR21WDDUBEMSLDIXZW1FAIHW8YX3","","1196","img/land5.png","75","1196","2","1","2","1","0.8,0.2,0.2,0.2,0.8,0.2,0.2,0.2,0.8","0.8,0.2,0.2,0.2,0.8,0.2,0.2,0.2,0.8","1","",""
"","html-keyboard-response","137","132963","0.0-137.0","3FK0YFF9P0270TJ749GWVE5RRJ9VVI","A3HVFSD8K94SOR","3HUR21WDDUBEMSLDIXZW1FAIHW8YX3","","null","<img src=""img/land5.png"" style=""width:200px; border:14px solid green;"">","null","","","","","","","","","",""
"","image-keyboard-response","138","133571","0.0-138.0","3FK0YFF9P0270TJ749GWVE5RRJ9VVI","A3HVFSD8K94SOR","3HUR21WDDUBEMSLDIXZW1FAIHW8YX3","","607","img/land5.png","75","608","2","1","2","1","0.8,0.2,0.2,0.2,0.8,0.2,0.2,0.2,0.8","0.8,0.2,0.2,0.2,0.8,0.2,0.2,0.2,0.8","1","",""
"","html-keyboard-response","139","133883","0.0-139.0","3FK0YFF9P0270TJ749GWVE5RRJ9VVI","A3HVFSD8K94SOR","3HUR21WDDUBEMSLDIXZW1FAIHW8YX3","","null","<img src=""img/land5.png"" style=""width:200px; border:14px solid green;"">","null","","","","","","","","","",""
"","image-keyboard-response","140","134715","0.0-140.0","3FK0YFF9P0270TJ749GWVE5RRJ9VVI","A3HVFSD8K94SOR","3HUR21WDDUBEMSLDIXZW1FAIHW8YX3","","831","img/land5.png","75","831","2","1","2","1","0.8,0.2,0.2,0.2,0.8,0.2,0.2,0.2,0.8","0.8,0.2,0.2,0.2,0.8,0.2,0.2,0.2,0.8","1","",""
"","html-keyboard-response","141","135031","0.0-141.0","3FK0YFF9P0270TJ749GWVE5RRJ9VVI","A3HVFSD8K94SOR","3HUR21WDDUBEMSLDIXZW1FAIHW8YX3","","null","<img src=""img/land5.png"" style=""width:200px; border:14px solid green;"">","null","","","","","","","","","",""
"","image-keyboard-response","142","135854","0.0-142.0","3FK0YFF9P0270TJ749GWVE5RRJ9VVI","A3HVFSD8K94SOR","3HUR21WDDUBEMSLDIXZW1FAIHW8YX3","","823","img/land5.png","75","823","2","0","2","1","0.8,0.2,0.2,0.2,0.8,0.2,0.2,0.2,0.8","0.8,0.2,0.2,0.2,0.8,0.2,0.2,0.2,0.8","1","",""
"","html-keyboard-response","143","136165","0.0-143.0","3FK0YFF9P0270TJ749GWVE5RRJ9VVI","A3HVFSD8K94SOR","3HUR21WDDUBEMSLDIXZW1FAIHW8YX3","","null","<img src=""img/land5.png"" style=""width:200px;border:14px solid red;"">","null","","","","","","","","","",""
"","image-keyboard-response","144","138091","0.0-144.0","3FK0YFF9P0270TJ749GWVE5RRJ9VVI","A3HVFSD8K94SOR","3HUR21WDDUBEMSLDIXZW1FAIHW8YX3","","1925","img/land2.png","76","1926","3","0","3","1","0.8,0.2,0.2,0.2,0.8,0.2,0.2,0.2,0.8","0.8,0.2,0.2,0.2,0.8,0.2,0.2,0.2,0.8","1","",""
"","html-keyboard-response","145","138398","0.0-145.0","3FK0YFF9P0270TJ749GWVE5RRJ9VVI","A3HVFSD8K94SOR","3HUR21WDDUBEMSLDIXZW1FAIHW8YX3","","null","<img src=""img/land2.png"" style=""width:200px;border:14px solid red;"">","null","","","","","","","","","",""
"","image-keyboard-response","146","138881","0.0-146.0","3FK0YFF9P0270TJ749GWVE5RRJ9VVI","A3HVFSD8K94SOR","3HUR21WDDUBEMSLDIXZW1FAIHW8YX3","","481","img/land2.png","76","483","3","1","3","1","0.8,0.2,0.2,0.2,0.8,0.2,0.2,0.2,0.8","0.8,0.2,0.2,0.2,0.8,0.2,0.2,0.2,0.8","1","",""
"","html-keyboard-response","147","139191","0.0-147.0","3FK0YFF9P0270TJ749GWVE5RRJ9VVI","A3HVFSD8K94SOR","3HUR21WDDUBEMSLDIXZW1FAIHW8YX3","","null","<img src=""img/land2.png"" style=""width:200px; border:14px solid green;"">","null","","","","","","","","","",""
"","image-keyboard-response","148","139979","0.0-148.0","3FK0YFF9P0270TJ749GWVE5RRJ9VVI","A3HVFSD8K94SOR","3HUR21WDDUBEMSLDIXZW1FAIHW8YX3","","787","img/land2.png","76","788","3","1","3","1","0.8,0.2,0.2,0.2,0.8,0.2,0.2,0.2,0.8","0.8,0.2,0.2,0.2,0.8,0.2,0.2,0.2,0.8","1","",""
"","html-keyboard-response","149","140290","0.0-149.0","3FK0YFF9P0270TJ749GWVE5RRJ9VVI","A3HVFSD8K94SOR","3HUR21WDDUBEMSLDIXZW1FAIHW8YX3","","null","<img src=""img/land2.png"" style=""width:200px; border:14px solid green;"">","null","","","","","","","","","",""
"","image-keyboard-response","150","141332","0.0-150.0","3FK0YFF9P0270TJ749GWVE5RRJ9VVI","A3HVFSD8K94SOR","3HUR21WDDUBEMSLDIXZW1FAIHW8YX3","","1042","img/land5.png","74","1042","1","0","2","1","0.8,0.2,0.2,0.2,0.8,0.2,0.2,0.2,0.8","0.8,0.2,0.2,0.2,0.8,0.2,0.2,0.2,0.8","1","",""
"","html-keyboard-response","151","141650","0.0-151.0","3FK0YFF9P0270TJ749GWVE5RRJ9VVI","A3HVFSD8K94SOR","3HUR21WDDUBEMSLDIXZW1FAIHW8YX3","","null","<img src=""img/land5.png"" style=""width:200px;border:14px solid red;"">","null","","","","","","","","","",""
"","image-keyboard-response","152","142856","0.0-152.0","3FK0YFF9P0270TJ749GWVE5RRJ9VVI","A3HVFSD8K94SOR","3HUR21WDDUBEMSLDIXZW1FAIHW8YX3","","1206","img/land1.png","74","1207","1","1","1","1","0.8,0.2,0.2,0.2,0.8,0.2,0.2,0.2,0.8","0.8,0.2,0.2,0.2,0.8,0.2,0.2,0.2,0.8","1","",""
"","html-keyboard-response","153","143158","0.0-153.0","3FK0YFF9P0270TJ749GWVE5RRJ9VVI","A3HVFSD8K94SOR","3HUR21WDDUBEMSLDIXZW1FAIHW8YX3","","null","<img src=""img/land1.png"" style=""width:200px; border:14px solid green;"">","null","","","","","","","","","",""
"","image-keyboard-response","154","144059","0.0-154.0","3FK0YFF9P0270TJ749GWVE5RRJ9VVI","A3HVFSD8K94SOR","3HUR21WDDUBEMSLDIXZW1FAIHW8YX3","","901","img/land2.png","76","902","3","1","3","1","0.8,0.2,0.2,0.2,0.8,0.2,0.2,0.2,0.8","0.8,0.2,0.2,0.2,0.8,0.2,0.2,0.2,0.8","1","",""
"","html-keyboard-response","155","144366","0.0-155.0","3FK0YFF9P0270TJ749GWVE5RRJ9VVI","A3HVFSD8K94SOR","3HUR21WDDUBEMSLDIXZW1FAIHW8YX3","","null","<img src=""img/land2.png"" style=""width:200px; border:14px solid green;"">","null","","","","","","","","","",""
"","image-keyboard-response","156","145379","0.0-156.0","3FK0YFF9P0270TJ749GWVE5RRJ9VVI","A3HVFSD8K94SOR","3HUR21WDDUBEMSLDIXZW1FAIHW8YX3","","1012","img/land5.png","75","1012","2","1","2","1","0.8,0.2,0.2,0.2,0.8,0.2,0.2,0.2,0.8","0.8,0.2,0.2,0.2,0.8,0.2,0.2,0.2,0.8","1","",""
"","html-keyboard-response","157","145688","0.0-157.0","3FK0YFF9P0270TJ749GWVE5RRJ9VVI","A3HVFSD8K94SOR","3HUR21WDDUBEMSLDIXZW1FAIHW8YX3","","null","<img src=""img/land5.png"" style=""width:200px; border:14px solid green;"">","null","","","","","","","","","",""
"","image-keyboard-response","158","146557","0.0-158.0","3FK0YFF9P0270TJ749GWVE5RRJ9VVI","A3HVFSD8K94SOR","3HUR21WDDUBEMSLDIXZW1FAIHW8YX3","","867","img/land5.png","75","867","2","1","2","1","0.8,0.2,0.2,0.2,0.8,0.2,0.2,0.2,0.8","0.8,0.2,0.2,0.2,0.8,0.2,0.2,0.2,0.8","1","",""
"","html-keyboard-response","159","146860","0.0-159.0","3FK0YFF9P0270TJ749GWVE5RRJ9VVI","A3HVFSD8K94SOR","3HUR21WDDUBEMSLDIXZW1FAIHW8YX3","","null","<img src=""img/land5.png"" style=""width:200px; border:14px solid green;"">","null","","","","","","","","","",""
"","image-keyboard-response","160","147875","0.0-160.0","3FK0YFF9P0270TJ749GWVE5RRJ9VVI","A3HVFSD8K94SOR","3HUR21WDDUBEMSLDIXZW1FAIHW8YX3","","1014","img/land1.png","74","1015","1","1","1","1","0.8,0.2,0.2,0.2,0.8,0.2,0.2,0.2,0.8","0.8,0.2,0.2,0.2,0.8,0.2,0.2,0.2,0.8","1","",""
"","html-keyboard-response","161","148185","0.0-161.0","3FK0YFF9P0270TJ749GWVE5RRJ9VVI","A3HVFSD8K94SOR","3HUR21WDDUBEMSLDIXZW1FAIHW8YX3","","null","<img src=""img/land1.png"" style=""width:200px; border:14px solid green;"">","null","","","","","","","","","",""
"","image-keyboard-response","162","149013","0.0-162.0","3FK0YFF9P0270TJ749GWVE5RRJ9VVI","A3HVFSD8K94SOR","3HUR21WDDUBEMSLDIXZW1FAIHW8YX3","","828","img/land2.png","76","829","3","1","3","1","0.8,0.2,0.2,0.2,0.8,0.2,0.2,0.2,0.8","0.8,0.2,0.2,0.2,0.8,0.2,0.2,0.2,0.8","1","",""
"","html-keyboard-response","163","149320","0.0-163.0","3FK0YFF9P0270TJ749GWVE5RRJ9VVI","A3HVFSD8K94SOR","3HUR21WDDUBEMSLDIXZW1FAIHW8YX3","","null","<img src=""img/land2.png"" style=""width:200px; border:14px solid green;"">","null","","","","","","","","","",""
"","image-keyboard-response","164","150971","0.0-164.0","3FK0YFF9P0270TJ749GWVE5RRJ9VVI","A3HVFSD8K94SOR","3HUR21WDDUBEMSLDIXZW1FAIHW8YX3","","1650","img/land1.png","74","1651","1","1","1","1","0.8,0.2,0.2,0.2,0.8,0.2,0.2,0.2,0.8","0.8,0.2,0.2,0.2,0.8,0.2,0.2,0.2,0.8","1","",""
"","html-keyboard-response","165","151283","0.0-165.0","3FK0YFF9P0270TJ749GWVE5RRJ9VVI","A3HVFSD8K94SOR","3HUR21WDDUBEMSLDIXZW1FAIHW8YX3","","null","<img src=""img/land1.png"" style=""width:200px; border:14px solid green;"">","null","","","","","","","","","",""
"","image-keyboard-response","166","152241","0.0-166.0","3FK0YFF9P0270TJ749GWVE5RRJ9VVI","A3HVFSD8K94SOR","3HUR21WDDUBEMSLDIXZW1FAIHW8YX3","","957","img/land2.png","76","957","3","1","3","1","0.8,0.2,0.2,0.2,0.8,0.2,0.2,0.2,0.8","0.8,0.2,0.2,0.2,0.8,0.2,0.2,0.2,0.8","1","",""
"","html-keyboard-response","167","152544","0.0-167.0","3FK0YFF9P0270TJ749GWVE5RRJ9VVI","A3HVFSD8K94SOR","3HUR21WDDUBEMSLDIXZW1FAIHW8YX3","","null","<img src=""img/land2.png"" style=""width:200px; border:14px solid green;"">","null","","","","","","","","","",""
"","image-keyboard-response","168","153048","0.0-168.0","3FK0YFF9P0270TJ749GWVE5RRJ9VVI","A3HVFSD8K94SOR","3HUR21WDDUBEMSLDIXZW1FAIHW8YX3","","503","img/land2.png","76","504","3","1","3","1","0.8,0.2,0.2,0.2,0.8,0.2,0.2,0.2,0.8","0.8,0.2,0.2,0.2,0.8,0.2,0.2,0.2,0.8","1","",""
"","html-keyboard-response","169","153363","0.0-169.0","3FK0YFF9P0270TJ749GWVE5RRJ9VVI","A3HVFSD8K94SOR","3HUR21WDDUBEMSLDIXZW1FAIHW8YX3","","null","<img src=""img/land2.png"" style=""width:200px; border:14px solid green;"">","null","","","","","","","","","",""
"","image-keyboard-response","170","154312","0.0-170.0","3FK0YFF9P0270TJ749GWVE5RRJ9VVI","A3HVFSD8K94SOR","3HUR21WDDUBEMSLDIXZW1FAIHW8YX3","","948","img/land5.png","75","950","2","1","2","1","0.8,0.2,0.2,0.2,0.8,0.2,0.2,0.2,0.8","0.8,0.2,0.2,0.2,0.8,0.2,0.2,0.2,0.8","1","",""
"","html-keyboard-response","171","154618","0.0-171.0","3FK0YFF9P0270TJ749GWVE5RRJ9VVI","A3HVFSD8K94SOR","3HUR21WDDUBEMSLDIXZW1FAIHW8YX3","","null","<img src=""img/land5.png"" style=""width:200px; border:14px solid green;"">","null","","","","","","","","","",""
"","image-keyboard-response","172","155576","0.0-172.0","3FK0YFF9P0270TJ749GWVE5RRJ9VVI","A3HVFSD8K94SOR","3HUR21WDDUBEMSLDIXZW1FAIHW8YX3","","957","img/land5.png","75","958","2","1","2","1","0.8,0.2,0.2,0.2,0.8,0.2,0.2,0.2,0.8","0.8,0.2,0.2,0.2,0.8,0.2,0.2,0.2,0.8","1","",""
"","html-keyboard-response","173","155878","0.0-173.0","3FK0YFF9P0270TJ749GWVE5RRJ9VVI","A3HVFSD8K94SOR","3HUR21WDDUBEMSLDIXZW1FAIHW8YX3","","null","<img src=""img/land5.png"" style=""width:200px; border:14px solid green;"">","null","","","","","","","","","",""
"","image-keyboard-response","174","157144","0.0-174.0","3FK0YFF9P0270TJ749GWVE5RRJ9VVI","A3HVFSD8K94SOR","3HUR21WDDUBEMSLDIXZW1FAIHW8YX3","","1265","img/land1.png","74","1265","1","1","1","1","0.8,0.2,0.2,0.2,0.8,0.2,0.2,0.2,0.8","0.8,0.2,0.2,0.2,0.8,0.2,0.2,0.2,0.8","1","",""
"","html-keyboard-response","175","157456","0.0-175.0","3FK0YFF9P0270TJ749GWVE5RRJ9VVI","A3HVFSD8K94SOR","3HUR21WDDUBEMSLDIXZW1FAIHW8YX3","","null","<img src=""img/land1.png"" style=""width:200px; border:14px solid green;"">","null","","","","","","","","","",""
"","image-keyboard-response","176","158239","0.0-176.0","3FK0YFF9P0270TJ749GWVE5RRJ9VVI","A3HVFSD8K94SOR","3HUR21WDDUBEMSLDIXZW1FAIHW8YX3","","782","img/land5.png","75","783","2","1","2","1","0.8,0.2,0.2,0.2,0.8,0.2,0.2,0.2,0.8","0.8,0.2,0.2,0.2,0.8,0.2,0.2,0.2,0.8","1","",""
"","html-keyboard-response","177","158563","0.0-177.0","3FK0YFF9P0270TJ749GWVE5RRJ9VVI","A3HVFSD8K94SOR","3HUR21WDDUBEMSLDIXZW1FAIHW8YX3","","null","<img src=""img/land5.png"" style=""width:200px; border:14px solid green;"">","null","","","","","","","","","",""
"","image-keyboard-response","178","159565","0.0-178.0","3FK0YFF9P0270TJ749GWVE5RRJ9VVI","A3HVFSD8K94SOR","3HUR21WDDUBEMSLDIXZW1FAIHW8YX3","","1003","img/land5.png","75","1003","2","0","2","1","0.8,0.2,0.2,0.2,0.8,0.2,0.2,0.2,0.8","0.8,0.2,0.2,0.2,0.8,0.2,0.2,0.2,0.8","1","",""
"","html-keyboard-response","179","159869","0.0-179.0","3FK0YFF9P0270TJ749GWVE5RRJ9VVI","A3HVFSD8K94SOR","3HUR21WDDUBEMSLDIXZW1FAIHW8YX3","","null","<img src=""img/land5.png"" style=""width:200px;border:14px solid red;"">","null","","","","","","","","","",""
"","image-keyboard-response","180","160860","0.0-180.0","3FK0YFF9P0270TJ749GWVE5RRJ9VVI","A3HVFSD8K94SOR","3HUR21WDDUBEMSLDIXZW1FAIHW8YX3","","989","img/land1.png","74","989","1","1","1","1","0.8,0.2,0.2,0.2,0.8,0.2,0.2,0.2,0.8","0.8,0.2,0.2,0.2,0.8,0.2,0.2,0.2,0.8","1","",""
"","html-keyboard-response","181","161176","0.0-181.0","3FK0YFF9P0270TJ749GWVE5RRJ9VVI","A3HVFSD8K94SOR","3HUR21WDDUBEMSLDIXZW1FAIHW8YX3","","null","<img src=""img/land1.png"" style=""width:200px; border:14px solid green;"">","null","","","","","","","","","",""
"","html-keyboard-response","182","172435","0.0-182.0","3FK0YFF9P0270TJ749GWVE5RRJ9VVI","A3HVFSD8K94SOR","3HUR21WDDUBEMSLDIXZW1FAIHW8YX3","","","","","","","","","","","","","",""
"","image-keyboard-response","183","174064","0.0-183.0","3FK0YFF9P0270TJ749GWVE5RRJ9VVI","A3HVFSD8K94SOR","3HUR21WDDUBEMSLDIXZW1FAIHW8YX3","","1627","img/land4.png","74","1629","1","0","1","2","0.8,0.2,0.2,0.2,0.8,0.2,0.2,0.2,0.8","0.2,0.2,0.8,0.8,0.2,0.2,0.2,0.8,0.2","2","",""
"","html-keyboard-response","184","174378","0.0-184.0","3FK0YFF9P0270TJ749GWVE5RRJ9VVI","A3HVFSD8K94SOR","3HUR21WDDUBEMSLDIXZW1FAIHW8YX3","","null","<img src=""img/land4.png"" style=""width:200px;border:14px solid red;"">","null","","","","","","","","","",""
"","image-keyboard-response","185","175577","0.0-185.0","3FK0YFF9P0270TJ749GWVE5RRJ9VVI","A3HVFSD8K94SOR","3HUR21WDDUBEMSLDIXZW1FAIHW8YX3","","1197","img/land4.png","75","1199","2","0","1","2","0.8,0.2,0.2,0.2,0.8,0.2,0.2,0.2,0.8","0.2,0.2,0.8,0.8,0.2,0.2,0.2,0.8,0.2","2","",""
"","html-keyboard-response","186","175882","0.0-186.0","3FK0YFF9P0270TJ749GWVE5RRJ9VVI","A3HVFSD8K94SOR","3HUR21WDDUBEMSLDIXZW1FAIHW8YX3","","null","<img src=""img/land4.png"" style=""width:200px;border:14px solid red;"">","null","","","","","","","","","",""
"","image-keyboard-response","187","176431","0.0-187.0","3FK0YFF9P0270TJ749GWVE5RRJ9VVI","A3HVFSD8K94SOR","3HUR21WDDUBEMSLDIXZW1FAIHW8YX3","","548","img/land4.png","76","549","3","0","1","2","0.8,0.2,0.2,0.2,0.8,0.2,0.2,0.2,0.8","0.2,0.2,0.8,0.8,0.2,0.2,0.2,0.8,0.2","2","",""
"","html-keyboard-response","188","176752","0.0-188.0","3FK0YFF9P0270TJ749GWVE5RRJ9VVI","A3HVFSD8K94SOR","3HUR21WDDUBEMSLDIXZW1FAIHW8YX3","","null","<img src=""img/land4.png"" style=""width:200px;border:14px solid red;"">","null","","","","","","","","","",""
"","image-keyboard-response","189","177895","0.0-189.0","3FK0YFF9P0270TJ749GWVE5RRJ9VVI","A3HVFSD8K94SOR","3HUR21WDDUBEMSLDIXZW1FAIHW8YX3","","1140","img/land4.png","74","1141","1","0","1","2","0.8,0.2,0.2,0.2,0.8,0.2,0.2,0.2,0.8","0.2,0.2,0.8,0.8,0.2,0.2,0.2,0.8,0.2","2","",""
"","html-keyboard-response","190","178207","0.0-190.0","3FK0YFF9P0270TJ749GWVE5RRJ9VVI","A3HVFSD8K94SOR","3HUR21WDDUBEMSLDIXZW1FAIHW8YX3","","null","<img src=""img/land4.png"" style=""width:200px;border:14px solid red;"">","null","","","","","","","","","",""
"","image-keyboard-response","191","178838","0.0-191.0","3FK0YFF9P0270TJ749GWVE5RRJ9VVI","A3HVFSD8K94SOR","3HUR21WDDUBEMSLDIXZW1FAIHW8YX3","","629","img/land4.png","75","630","2","0","1","2","0.8,0.2,0.2,0.2,0.8,0.2,0.2,0.2,0.8","0.2,0.2,0.8,0.8,0.2,0.2,0.2,0.8,0.2","2","",""
"","html-keyboard-response","192","179142","0.0-192.0","3FK0YFF9P0270TJ749GWVE5RRJ9VVI","A3HVFSD8K94SOR","3HUR21WDDUBEMSLDIXZW1FAIHW8YX3","","null","<img src=""img/land4.png"" style=""width:200px;border:14px solid red;"">","null","","","","","","","","","",""
"","image-keyboard-response","193","180232","0.0-193.0","3FK0YFF9P0270TJ749GWVE5RRJ9VVI","A3HVFSD8K94SOR","3HUR21WDDUBEMSLDIXZW1FAIHW8YX3","","1090","img/land4.png","76","1091","3","0","1","2","0.8,0.2,0.2,0.2,0.8,0.2,0.2,0.2,0.8","0.2,0.2,0.8,0.8,0.2,0.2,0.2,0.8,0.2","2","",""
"","html-keyboard-response","194","180535","0.0-194.0","3FK0YFF9P0270TJ749GWVE5RRJ9VVI","A3HVFSD8K94SOR","3HUR21WDDUBEMSLDIXZW1FAIHW8YX3","","null","<img src=""img/land4.png"" style=""width:200px;border:14px solid red;"">","null","","","","","","","","","",""
"","image-keyboard-response","195","181316","0.0-195.0","3FK0YFF9P0270TJ749GWVE5RRJ9VVI","A3HVFSD8K94SOR","3HUR21WDDUBEMSLDIXZW1FAIHW8YX3","","780","img/land4.png","74","781","1","0","1","2","0.8,0.2,0.2,0.2,0.8,0.2,0.2,0.2,0.8","0.2,0.2,0.8,0.8,0.2,0.2,0.2,0.8,0.2","2","",""
"","html-keyboard-response","196","181620","0.0-196.0","3FK0YFF9P0270TJ749GWVE5RRJ9VVI","A3HVFSD8K94SOR","3HUR21WDDUBEMSLDIXZW1FAIHW8YX3","","null","<img src=""img/land4.png"" style=""width:200px;border:14px solid red;"">","null","","","","","","","","","",""
"","image-keyboard-response","197","183218","0.0-197.0","3FK0YFF9P0270TJ749GWVE5RRJ9VVI","A3HVFSD8K94SOR","3HUR21WDDUBEMSLDIXZW1FAIHW8YX3","","1597","img/land3.png","74","1598","1","1","3","2","0.8,0.2,0.2,0.2,0.8,0.2,0.2,0.2,0.8","0.2,0.2,0.8,0.8,0.2,0.2,0.2,0.8,0.2","2","",""
"","html-keyboard-response","198","183534","0.0-198.0","3FK0YFF9P0270TJ749GWVE5RRJ9VVI","A3HVFSD8K94SOR","3HUR21WDDUBEMSLDIXZW1FAIHW8YX3","","null","<img src=""img/land3.png"" style=""width:200px; border:14px solid green;"">","null","","","","","","","","","",""
"","image-keyboard-response","199","184697","0.0-199.0","3FK0YFF9P0270TJ749GWVE5RRJ9VVI","A3HVFSD8K94SOR","3HUR21WDDUBEMSLDIXZW1FAIHW8YX3","","1162","img/land3.png","74","1162","1","0","3","2","0.8,0.2,0.2,0.2,0.8,0.2,0.2,0.2,0.8","0.2,0.2,0.8,0.8,0.2,0.2,0.2,0.8,0.2","2","",""
"","html-keyboard-response","200","184996","0.0-200.0","3FK0YFF9P0270TJ749GWVE5RRJ9VVI","A3HVFSD8K94SOR","3HUR21WDDUBEMSLDIXZW1FAIHW8YX3","","null","<img src=""img/land3.png"" style=""width:200px;border:14px solid red;"">","null","","","","","","","","","",""
"","image-keyboard-response","201","186909","0.0-201.0","3FK0YFF9P0270TJ749GWVE5RRJ9VVI","A3HVFSD8K94SOR","3HUR21WDDUBEMSLDIXZW1FAIHW8YX3","","1910","img/land4.png","75","1912","2","0","1","2","0.8,0.2,0.2,0.2,0.8,0.2,0.2,0.2,0.8","0.2,0.2,0.8,0.8,0.2,0.2,0.2,0.8,0.2","2","",""
"","html-keyboard-response","202","187212","0.0-202.0","3FK0YFF9P0270TJ749GWVE5RRJ9VVI","A3HVFSD8K94SOR","3HUR21WDDUBEMSLDIXZW1FAIHW8YX3","","null","<img src=""img/land4.png"" style=""width:200px;border:14px solid red;"">","null","","","","","","","","","",""
"","image-keyboard-response","203","187922","0.0-203.0","3FK0YFF9P0270TJ749GWVE5RRJ9VVI","A3HVFSD8K94SOR","3HUR21WDDUBEMSLDIXZW1FAIHW8YX3","","708","img/land4.png","76","709","3","0","1","2","0.8,0.2,0.2,0.2,0.8,0.2,0.2,0.2,0.8","0.2,0.2,0.8,0.8,0.2,0.2,0.2,0.8,0.2","2","",""
"","html-keyboard-response","204","188230","0.0-204.0","3FK0YFF9P0270TJ749GWVE5RRJ9VVI","A3HVFSD8K94SOR","3HUR21WDDUBEMSLDIXZW1FAIHW8YX3","","null","<img src=""img/land4.png"" style=""width:200px;border:14px solid red;"">","null","","","","","","","","","",""
"","image-keyboard-response","205","189286","0.0-205.0","3FK0YFF9P0270TJ749GWVE5RRJ9VVI","A3HVFSD8K94SOR","3HUR21WDDUBEMSLDIXZW1FAIHW8YX3","","1055","img/land4.png","75","1056","2","0","1","2","0.8,0.2,0.2,0.2,0.8,0.2,0.2,0.2,0.8","0.2,0.2,0.8,0.8,0.2,0.2,0.2,0.8,0.2","2","",""
"","html-keyboard-response","206","189601","0.0-206.0","3FK0YFF9P0270TJ749GWVE5RRJ9VVI","A3HVFSD8K94SOR","3HUR21WDDUBEMSLDIXZW1FAIHW8YX3","","null","<img src=""img/land4.png"" style=""width:200px;border:14px solid red;"">","null","","","","","","","","","",""
"","image-keyboard-response","207","190813","0.0-207.0","3FK0YFF9P0270TJ749GWVE5RRJ9VVI","A3HVFSD8K94SOR","3HUR21WDDUBEMSLDIXZW1FAIHW8YX3","","1210","img/land6.png","76","1211","3","0","2","2","0.8,0.2,0.2,0.2,0.8,0.2,0.2,0.2,0.8","0.2,0.2,0.8,0.8,0.2,0.2,0.2,0.8,0.2","2","",""
"","html-keyboard-response","208","191130","0.0-208.0","3FK0YFF9P0270TJ749GWVE5RRJ9VVI","A3HVFSD8K94SOR","3HUR21WDDUBEMSLDIXZW1FAIHW8YX3","","null","<img src=""img/land6.png"" style=""width:200px;border:14px solid red;"">","null","","","","","","","","","",""
"","image-keyboard-response","209","192361","0.0-209.0","3FK0YFF9P0270TJ749GWVE5RRJ9VVI","A3HVFSD8K94SOR","3HUR21WDDUBEMSLDIXZW1FAIHW8YX3","","1231","img/land4.png","76","1232","3","0","1","2","0.8,0.2,0.2,0.2,0.8,0.2,0.2,0.2,0.8","0.2,0.2,0.8,0.8,0.2,0.2,0.2,0.8,0.2","2","",""
"","html-keyboard-response","210","192668","0.0-210.0","3FK0YFF9P0270TJ749GWVE5RRJ9VVI","A3HVFSD8K94SOR","3HUR21WDDUBEMSLDIXZW1FAIHW8YX3","","null","<img src=""img/land4.png"" style=""width:200px;border:14px solid red;"">","null","","","","","","","","","",""
"","image-keyboard-response","211","193235","0.0-211.0","3FK0YFF9P0270TJ749GWVE5RRJ9VVI","A3HVFSD8K94SOR","3HUR21WDDUBEMSLDIXZW1FAIHW8YX3","","566","img/land4.png","76","568","3","1","1","2","0.8,0.2,0.2,0.2,0.8,0.2,0.2,0.2,0.8","0.2,0.2,0.8,0.8,0.2,0.2,0.2,0.8,0.2","2","",""
"","html-keyboard-response","212","193542","0.0-212.0","3FK0YFF9P0270TJ749GWVE5RRJ9VVI","A3HVFSD8K94SOR","3HUR21WDDUBEMSLDIXZW1FAIHW8YX3","","null","<img src=""img/land4.png"" style=""width:200px; border:14px solid green;"">","null","","","","","","","","","",""
"","image-keyboard-response","213","194768","0.0-213.0","3FK0YFF9P0270TJ749GWVE5RRJ9VVI","A3HVFSD8K94SOR","3HUR21WDDUBEMSLDIXZW1FAIHW8YX3","","1225","img/land4.png","76","1226","3","1","1","2","0.8,0.2,0.2,0.2,0.8,0.2,0.2,0.2,0.8","0.2,0.2,0.8,0.8,0.2,0.2,0.2,0.8,0.2","2","",""
"","html-keyboard-response","214","195080","0.0-214.0","3FK0YFF9P0270TJ749GWVE5RRJ9VVI","A3HVFSD8K94SOR","3HUR21WDDUBEMSLDIXZW1FAIHW8YX3","","null","<img src=""img/land4.png"" style=""width:200px; border:14px solid green;"">","null","","","","","","","","","",""
"","image-keyboard-response","215","195967","0.0-215.0","3FK0YFF9P0270TJ749GWVE5RRJ9VVI","A3HVFSD8K94SOR","3HUR21WDDUBEMSLDIXZW1FAIHW8YX3","","886","img/land4.png","76","887","3","1","1","2","0.8,0.2,0.2,0.2,0.8,0.2,0.2,0.2,0.8","0.2,0.2,0.8,0.8,0.2,0.2,0.2,0.8,0.2","2","",""
"","html-keyboard-response","216","196282","0.0-216.0","3FK0YFF9P0270TJ749GWVE5RRJ9VVI","A3HVFSD8K94SOR","3HUR21WDDUBEMSLDIXZW1FAIHW8YX3","","null","<img src=""img/land4.png"" style=""width:200px; border:14px solid green;"">","null","","","","","","","","","",""
"","image-keyboard-response","217","196851","0.0-217.0","3FK0YFF9P0270TJ749GWVE5RRJ9VVI","A3HVFSD8K94SOR","3HUR21WDDUBEMSLDIXZW1FAIHW8YX3","","567","img/land4.png","76","568","3","0","1","2","0.8,0.2,0.2,0.2,0.8,0.2,0.2,0.2,0.8","0.2,0.2,0.8,0.8,0.2,0.2,0.2,0.8,0.2","2","",""
"","html-keyboard-response","218","197157","0.0-218.0","3FK0YFF9P0270TJ749GWVE5RRJ9VVI","A3HVFSD8K94SOR","3HUR21WDDUBEMSLDIXZW1FAIHW8YX3","","null","<img src=""img/land4.png"" style=""width:200px;border:14px solid red;"">","null","","","","","","","","","",""
"","image-keyboard-response","219","197670","0.0-219.0","3FK0YFF9P0270TJ749GWVE5RRJ9VVI","A3HVFSD8K94SOR","3HUR21WDDUBEMSLDIXZW1FAIHW8YX3","","513","img/land4.png","76","514","3","1","1","2","0.8,0.2,0.2,0.2,0.8,0.2,0.2,0.2,0.8","0.2,0.2,0.8,0.8,0.2,0.2,0.2,0.8,0.2","2","",""
"","html-keyboard-response","220","197977","0.0-220.0","3FK0YFF9P0270TJ749GWVE5RRJ9VVI","A3HVFSD8K94SOR","3HUR21WDDUBEMSLDIXZW1FAIHW8YX3","","null","<img src=""img/land4.png"" style=""width:200px; border:14px solid green;"">","null","","","","","","","","","",""
"","image-keyboard-response","221","199013","0.0-221.0","3FK0YFF9P0270TJ749GWVE5RRJ9VVI","A3HVFSD8K94SOR","3HUR21WDDUBEMSLDIXZW1FAIHW8YX3","","1036","img/land6.png","75","1037","2","0","2","2","0.8,0.2,0.2,0.2,0.8,0.2,0.2,0.2,0.8","0.2,0.2,0.8,0.8,0.2,0.2,0.2,0.8,0.2","2","",""
"","html-keyboard-response","222","199317","0.0-222.0","3FK0YFF9P0270TJ749GWVE5RRJ9VVI","A3HVFSD8K94SOR","3HUR21WDDUBEMSLDIXZW1FAIHW8YX3","","null","<img src=""img/land6.png"" style=""width:200px;border:14px solid red;"">","null","","","","","","","","","",""
"","image-keyboard-response","223","200446","0.0-223.0","3FK0YFF9P0270TJ749GWVE5RRJ9VVI","A3HVFSD8K94SOR","3HUR21WDDUBEMSLDIXZW1FAIHW8YX3","","1129","img/land3.png","75","1129","2","1","3","2","0.8,0.2,0.2,0.2,0.8,0.2,0.2,0.2,0.8","0.2,0.2,0.8,0.8,0.2,0.2,0.2,0.8,0.2","2","",""
"","html-keyboard-response","224","200755","0.0-224.0","3FK0YFF9P0270TJ749GWVE5RRJ9VVI","A3HVFSD8K94SOR","3HUR21WDDUBEMSLDIXZW1FAIHW8YX3","","null","<img src=""img/land3.png"" style=""width:200px; border:14px solid green;"">","null","","","","","","","","","",""
"","image-keyboard-response","225","201870","0.0-225.0","3FK0YFF9P0270TJ749GWVE5RRJ9VVI","A3HVFSD8K94SOR","3HUR21WDDUBEMSLDIXZW1FAIHW8YX3","","1114","img/land4.png","76","1114","3","1","1","2","0.8,0.2,0.2,0.2,0.8,0.2,0.2,0.2,0.8","0.2,0.2,0.8,0.8,0.2,0.2,0.2,0.8,0.2","2","",""
"","html-keyboard-response","226","202184","0.0-226.0","3FK0YFF9P0270TJ749GWVE5RRJ9VVI","A3HVFSD8K94SOR","3HUR21WDDUBEMSLDIXZW1FAIHW8YX3","","null","<img src=""img/land4.png"" style=""width:200px; border:14px solid green;"">","null","","","","","","","","","",""
"","image-keyboard-response","227","203004","0.0-227.0","3FK0YFF9P0270TJ749GWVE5RRJ9VVI","A3HVFSD8K94SOR","3HUR21WDDUBEMSLDIXZW1FAIHW8YX3","","818","img/land3.png","75","819","2","1","3","2","0.8,0.2,0.2,0.2,0.8,0.2,0.2,0.2,0.8","0.2,0.2,0.8,0.8,0.2,0.2,0.2,0.8,0.2","2","",""
"","html-keyboard-response","228","203320","0.0-228.0","3FK0YFF9P0270TJ749GWVE5RRJ9VVI","A3HVFSD8K94SOR","3HUR21WDDUBEMSLDIXZW1FAIHW8YX3","","null","<img src=""img/land3.png"" style=""width:200px; border:14px solid green;"">","null","","","","","","","","","",""
"","image-keyboard-response","229","204082","0.0-229.0","3FK0YFF9P0270TJ749GWVE5RRJ9VVI","A3HVFSD8K94SOR","3HUR21WDDUBEMSLDIXZW1FAIHW8YX3","","762","img/land4.png","76","763","3","1","1","2","0.8,0.2,0.2,0.2,0.8,0.2,0.2,0.2,0.8","0.2,0.2,0.8,0.8,0.2,0.2,0.2,0.8,0.2","2","",""
"","html-keyboard-response","230","204396","0.0-230.0","3FK0YFF9P0270TJ749GWVE5RRJ9VVI","A3HVFSD8K94SOR","3HUR21WDDUBEMSLDIXZW1FAIHW8YX3","","null","<img src=""img/land4.png"" style=""width:200px; border:14px solid green;"">","null","","","","","","","","","",""
"","image-keyboard-response","231","205680","0.0-231.0","3FK0YFF9P0270TJ749GWVE5RRJ9VVI","A3HVFSD8K94SOR","3HUR21WDDUBEMSLDIXZW1FAIHW8YX3","","1283","img/land6.png","75","1283","2","0","2","2","0.8,0.2,0.2,0.2,0.8,0.2,0.2,0.2,0.8","0.2,0.2,0.8,0.8,0.2,0.2,0.2,0.8,0.2","2","",""
"","html-keyboard-response","232","205990","0.0-232.0","3FK0YFF9P0270TJ749GWVE5RRJ9VVI","A3HVFSD8K94SOR","3HUR21WDDUBEMSLDIXZW1FAIHW8YX3","","null","<img src=""img/land6.png"" style=""width:200px;border:14px solid red;"">","null","","","","","","","","","",""
"","image-keyboard-response","233","207358","0.0-233.0","3FK0YFF9P0270TJ749GWVE5RRJ9VVI","A3HVFSD8K94SOR","3HUR21WDDUBEMSLDIXZW1FAIHW8YX3","","1367","img/land4.png","76","1369","3","1","1","2","0.8,0.2,0.2,0.2,0.8,0.2,0.2,0.2,0.8","0.2,0.2,0.8,0.8,0.2,0.2,0.2,0.8,0.2","2","",""
"","html-keyboard-response","234","207661","0.0-234.0","3FK0YFF9P0270TJ749GWVE5RRJ9VVI","A3HVFSD8K94SOR","3HUR21WDDUBEMSLDIXZW1FAIHW8YX3","","null","<img src=""img/land4.png"" style=""width:200px; border:14px solid green;"">","null","","","","","","","","","",""
"","image-keyboard-response","235","208836","0.0-235.0","3FK0YFF9P0270TJ749GWVE5RRJ9VVI","A3HVFSD8K94SOR","3HUR21WDDUBEMSLDIXZW1FAIHW8YX3","","1174","img/land6.png","74","1174","1","1","2","2","0.8,0.2,0.2,0.2,0.8,0.2,0.2,0.2,0.8","0.2,0.2,0.8,0.8,0.2,0.2,0.2,0.8,0.2","2","",""
"","html-keyboard-response","236","209152","0.0-236.0","3FK0YFF9P0270TJ749GWVE5RRJ9VVI","A3HVFSD8K94SOR","3HUR21WDDUBEMSLDIXZW1FAIHW8YX3","","null","<img src=""img/land6.png"" style=""width:200px; border:14px solid green;"">","null","","","","","","","","","",""
"","image-keyboard-response","237","210340","0.0-237.0","3FK0YFF9P0270TJ749GWVE5RRJ9VVI","A3HVFSD8K94SOR","3HUR21WDDUBEMSLDIXZW1FAIHW8YX3","","1186","img/land4.png","76","1187","3","1","1","2","0.8,0.2,0.2,0.2,0.8,0.2,0.2,0.2,0.8","0.2,0.2,0.8,0.8,0.2,0.2,0.2,0.8,0.2","2","",""
"","html-keyboard-response","238","210643","0.0-238.0","3FK0YFF9P0270TJ749GWVE5RRJ9VVI","A3HVFSD8K94SOR","3HUR21WDDUBEMSLDIXZW1FAIHW8YX3","","null","<img src=""img/land4.png"" style=""width:200px; border:14px solid green;"">","null","","","","","","","","","",""
"","image-keyboard-response","239","211284","0.0-239.0","3FK0YFF9P0270TJ749GWVE5RRJ9VVI","A3HVFSD8K94SOR","3HUR21WDDUBEMSLDIXZW1FAIHW8YX3","","639","img/land3.png","75","641","2","1","3","2","0.8,0.2,0.2,0.2,0.8,0.2,0.2,0.2,0.8","0.2,0.2,0.8,0.8,0.2,0.2,0.2,0.8,0.2","2","",""
"","html-keyboard-response","240","211594","0.0-240.0","3FK0YFF9P0270TJ749GWVE5RRJ9VVI","A3HVFSD8K94SOR","3HUR21WDDUBEMSLDIXZW1FAIHW8YX3","","null","<img src=""img/land3.png"" style=""width:200px; border:14px solid green;"">","null","","","","","","","","","",""
"","image-keyboard-response","241","212617","0.0-241.0","3FK0YFF9P0270TJ749GWVE5RRJ9VVI","A3HVFSD8K94SOR","3HUR21WDDUBEMSLDIXZW1FAIHW8YX3","","1023","img/land4.png","76","1023","3","0","1","2","0.8,0.2,0.2,0.2,0.8,0.2,0.2,0.2,0.8","0.2,0.2,0.8,0.8,0.2,0.2,0.2,0.8,0.2","2","",""
"","html-keyboard-response","242","212939","0.0-242.0","3FK0YFF9P0270TJ749GWVE5RRJ9VVI","A3HVFSD8K94SOR","3HUR21WDDUBEMSLDIXZW1FAIHW8YX3","","null","<img src=""img/land4.png"" style=""width:200px;border:14px solid red;"">","null","","","","","","","","","",""
"","image-keyboard-response","243","213700","0.0-243.0","3FK0YFF9P0270TJ749GWVE5RRJ9VVI","A3HVFSD8K94SOR","3HUR21WDDUBEMSLDIXZW1FAIHW8YX3","","759","img/land4.png","76","761","3","1","1","2","0.8,0.2,0.2,0.2,0.8,0.2,0.2,0.2,0.8","0.2,0.2,0.8,0.8,0.2,0.2,0.2,0.8,0.2","2","",""
"","html-keyboard-response","244","214014","0.0-244.0","3FK0YFF9P0270TJ749GWVE5RRJ9VVI","A3HVFSD8K94SOR","3HUR21WDDUBEMSLDIXZW1FAIHW8YX3","","null","<img src=""img/land4.png"" style=""width:200px; border:14px solid green;"">","null","","","","","","","","","",""
"","image-keyboard-response","245","214928","0.0-245.0","3FK0YFF9P0270TJ749GWVE5RRJ9VVI","A3HVFSD8K94SOR","3HUR21WDDUBEMSLDIXZW1FAIHW8YX3","","913","img/land3.png","75","914","2","1","3","2","0.8,0.2,0.2,0.2,0.8,0.2,0.2,0.2,0.8","0.2,0.2,0.8,0.8,0.2,0.2,0.2,0.8,0.2","2","",""
"","html-keyboard-response","246","215234","0.0-246.0","3FK0YFF9P0270TJ749GWVE5RRJ9VVI","A3HVFSD8K94SOR","3HUR21WDDUBEMSLDIXZW1FAIHW8YX3","","null","<img src=""img/land3.png"" style=""width:200px; border:14px solid green;"">","null","","","","","","","","","",""
"","image-keyboard-response","247","216163","0.0-247.0","3FK0YFF9P0270TJ749GWVE5RRJ9VVI","A3HVFSD8K94SOR","3HUR21WDDUBEMSLDIXZW1FAIHW8YX3","","928","img/land4.png","76","929","3","1","1","2","0.8,0.2,0.2,0.2,0.8,0.2,0.2,0.2,0.8","0.2,0.2,0.8,0.8,0.2,0.2,0.2,0.8,0.2","2","",""
"","html-keyboard-response","248","216478","0.0-248.0","3FK0YFF9P0270TJ749GWVE5RRJ9VVI","A3HVFSD8K94SOR","3HUR21WDDUBEMSLDIXZW1FAIHW8YX3","","null","<img src=""img/land4.png"" style=""width:200px; border:14px solid green;"">","null","","","","","","","","","",""
"","image-keyboard-response","249","217183","0.0-249.0","3FK0YFF9P0270TJ749GWVE5RRJ9VVI","A3HVFSD8K94SOR","3HUR21WDDUBEMSLDIXZW1FAIHW8YX3","","703","img/land6.png","74","704","1","1","2","2","0.8,0.2,0.2,0.2,0.8,0.2,0.2,0.2,0.8","0.2,0.2,0.8,0.8,0.2,0.2,0.2,0.8,0.2","2","",""
"","html-keyboard-response","250","217497","0.0-250.0","3FK0YFF9P0270TJ749GWVE5RRJ9VVI","A3HVFSD8K94SOR","3HUR21WDDUBEMSLDIXZW1FAIHW8YX3","","null","<img src=""img/land6.png"" style=""width:200px; border:14px solid green;"">","null","","","","","","","","","",""
"","image-keyboard-response","251","218768","0.0-251.0","3FK0YFF9P0270TJ749GWVE5RRJ9VVI","A3HVFSD8K94SOR","3HUR21WDDUBEMSLDIXZW1FAIHW8YX3","","1271","img/land4.png","76","1272","3","1","1","2","0.8,0.2,0.2,0.2,0.8,0.2,0.2,0.2,0.8","0.2,0.2,0.8,0.8,0.2,0.2,0.2,0.8,0.2","2","",""
"","html-keyboard-response","252","219090","0.0-252.0","3FK0YFF9P0270TJ749GWVE5RRJ9VVI","A3HVFSD8K94SOR","3HUR21WDDUBEMSLDIXZW1FAIHW8YX3","","null","<img src=""img/land4.png"" style=""width:200px; border:14px solid green;"">","null","","","","","","","","","",""
"","image-keyboard-response","253","219873","0.0-253.0","3FK0YFF9P0270TJ749GWVE5RRJ9VVI","A3HVFSD8K94SOR","3HUR21WDDUBEMSLDIXZW1FAIHW8YX3","","782","img/land4.png","76","782","3","1","1","2","0.8,0.2,0.2,0.2,0.8,0.2,0.2,0.2,0.8","0.2,0.2,0.8,0.8,0.2,0.2,0.2,0.8,0.2","2","",""
"","html-keyboard-response","254","220175","0.0-254.0","3FK0YFF9P0270TJ749GWVE5RRJ9VVI","A3HVFSD8K94SOR","3HUR21WDDUBEMSLDIXZW1FAIHW8YX3","","null","<img src=""img/land4.png"" style=""width:200px; border:14px solid green;"">","null","","","","","","","","","",""
"","image-keyboard-response","255","220747","0.0-255.0","3FK0YFF9P0270TJ749GWVE5RRJ9VVI","A3HVFSD8K94SOR","3HUR21WDDUBEMSLDIXZW1FAIHW8YX3","","571","img/land4.png","76","572","3","1","1","2","0.8,0.2,0.2,0.2,0.8,0.2,0.2,0.2,0.8","0.2,0.2,0.8,0.8,0.2,0.2,0.2,0.8,0.2","2","",""
"","html-keyboard-response","256","221062","0.0-256.0","3FK0YFF9P0270TJ749GWVE5RRJ9VVI","A3HVFSD8K94SOR","3HUR21WDDUBEMSLDIXZW1FAIHW8YX3","","null","<img src=""img/land4.png"" style=""width:200px; border:14px solid green;"">","null","","","","","","","","","",""
"","image-keyboard-response","257","221856","0.0-257.0","3FK0YFF9P0270TJ749GWVE5RRJ9VVI","A3HVFSD8K94SOR","3HUR21WDDUBEMSLDIXZW1FAIHW8YX3","","792","img/land3.png","75","793","2","0","3","2","0.8,0.2,0.2,0.2,0.8,0.2,0.2,0.2,0.8","0.2,0.2,0.8,0.8,0.2,0.2,0.2,0.8,0.2","2","",""
"","html-keyboard-response","258","222167","0.0-258.0","3FK0YFF9P0270TJ749GWVE5RRJ9VVI","A3HVFSD8K94SOR","3HUR21WDDUBEMSLDIXZW1FAIHW8YX3","","null","<img src=""img/land3.png"" style=""width:200px;border:14px solid red;"">","null","","","","","","","","","",""
"","image-keyboard-response","259","222679","0.0-259.0","3FK0YFF9P0270TJ749GWVE5RRJ9VVI","A3HVFSD8K94SOR","3HUR21WDDUBEMSLDIXZW1FAIHW8YX3","","510","img/land4.png","75","512","2","0","1","2","0.8,0.2,0.2,0.2,0.8,0.2,0.2,0.2,0.8","0.2,0.2,0.8,0.8,0.2,0.2,0.2,0.8,0.2","2","",""
"","html-keyboard-response","260","222986","0.0-260.0","3FK0YFF9P0270TJ749GWVE5RRJ9VVI","A3HVFSD8K94SOR","3HUR21WDDUBEMSLDIXZW1FAIHW8YX3","","null","<img src=""img/land4.png"" style=""width:200px;border:14px solid red;"">","null","","","","","","","","","",""
"","image-keyboard-response","261","223999","0.0-261.0","3FK0YFF9P0270TJ749GWVE5RRJ9VVI","A3HVFSD8K94SOR","3HUR21WDDUBEMSLDIXZW1FAIHW8YX3","","1011","img/land4.png","76","1011","3","0","1","2","0.8,0.2,0.2,0.2,0.8,0.2,0.2,0.2,0.8","0.2,0.2,0.8,0.8,0.2,0.2,0.2,0.8,0.2","2","",""
"","html-keyboard-response","262","224315","0.0-262.0","3FK0YFF9P0270TJ749GWVE5RRJ9VVI","A3HVFSD8K94SOR","3HUR21WDDUBEMSLDIXZW1FAIHW8YX3","","null","<img src=""img/land4.png"" style=""width:200px;border:14px solid red;"">","null","","","","","","","","","",""
"","image-keyboard-response","263","225143","0.0-263.0","3FK0YFF9P0270TJ749GWVE5RRJ9VVI","A3HVFSD8K94SOR","3HUR21WDDUBEMSLDIXZW1FAIHW8YX3","","827","img/land3.png","75","827","2","1","3","2","0.8,0.2,0.2,0.2,0.8,0.2,0.2,0.2,0.8","0.2,0.2,0.8,0.8,0.2,0.2,0.2,0.8,0.2","2","",""
"","html-keyboard-response","264","225453","0.0-264.0","3FK0YFF9P0270TJ749GWVE5RRJ9VVI","A3HVFSD8K94SOR","3HUR21WDDUBEMSLDIXZW1FAIHW8YX3","","null","<img src=""img/land3.png"" style=""width:200px; border:14px solid green;"">","null","","","","","","","","","",""
"","image-keyboard-response","265","226136","0.0-265.0","3FK0YFF9P0270TJ749GWVE5RRJ9VVI","A3HVFSD8K94SOR","3HUR21WDDUBEMSLDIXZW1FAIHW8YX3","","680","img/land4.png","76","682","3","1","1","2","0.8,0.2,0.2,0.2,0.8,0.2,0.2,0.2,0.8","0.2,0.2,0.8,0.8,0.2,0.2,0.2,0.8,0.2","2","",""
"","html-keyboard-response","266","226442","0.0-266.0","3FK0YFF9P0270TJ749GWVE5RRJ9VVI","A3HVFSD8K94SOR","3HUR21WDDUBEMSLDIXZW1FAIHW8YX3","","null","<img src=""img/land4.png"" style=""width:200px; border:14px solid green;"">","null","","","","","","","","","",""
"","image-keyboard-response","267","227454","0.0-267.0","3FK0YFF9P0270TJ749GWVE5RRJ9VVI","A3HVFSD8K94SOR","3HUR21WDDUBEMSLDIXZW1FAIHW8YX3","","1011","img/land4.png","76","1012","3","1","1","2","0.8,0.2,0.2,0.2,0.8,0.2,0.2,0.2,0.8","0.2,0.2,0.8,0.8,0.2,0.2,0.2,0.8,0.2","2","",""
"","html-keyboard-response","268","227764","0.0-268.0","3FK0YFF9P0270TJ749GWVE5RRJ9VVI","A3HVFSD8K94SOR","3HUR21WDDUBEMSLDIXZW1FAIHW8YX3","","null","<img src=""img/land4.png"" style=""width:200px; border:14px solid green;"">","null","","","","","","","","","",""
"","image-keyboard-response","269","228680","0.0-269.0","3FK0YFF9P0270TJ749GWVE5RRJ9VVI","A3HVFSD8K94SOR","3HUR21WDDUBEMSLDIXZW1FAIHW8YX3","","914","img/land6.png","74","915","1","1","2","2","0.8,0.2,0.2,0.2,0.8,0.2,0.2,0.2,0.8","0.2,0.2,0.8,0.8,0.2,0.2,0.2,0.8,0.2","2","",""
"","html-keyboard-response","270","228987","0.0-270.0","3FK0YFF9P0270TJ749GWVE5RRJ9VVI","A3HVFSD8K94SOR","3HUR21WDDUBEMSLDIXZW1FAIHW8YX3","","null","<img src=""img/land6.png"" style=""width:200px; border:14px solid green;"">","null","","","","","","","","","",""
"","image-keyboard-response","271","230365","0.0-271.0","3FK0YFF9P0270TJ749GWVE5RRJ9VVI","A3HVFSD8K94SOR","3HUR21WDDUBEMSLDIXZW1FAIHW8YX3","","1377","img/land3.png","75","1378","2","1","3","2","0.8,0.2,0.2,0.2,0.8,0.2,0.2,0.2,0.8","0.2,0.2,0.8,0.8,0.2,0.2,0.2,0.8,0.2","2","",""
"","html-keyboard-response","272","230681","0.0-272.0","3FK0YFF9P0270TJ749GWVE5RRJ9VVI","A3HVFSD8K94SOR","3HUR21WDDUBEMSLDIXZW1FAIHW8YX3","","null","<img src=""img/land3.png"" style=""width:200px; border:14px solid green;"">","null","","","","","","","","","",""
"","image-keyboard-response","273","231594","0.0-273.0","3FK0YFF9P0270TJ749GWVE5RRJ9VVI","A3HVFSD8K94SOR","3HUR21WDDUBEMSLDIXZW1FAIHW8YX3","","912","img/land4.png","76","913","3","0","1","2","0.8,0.2,0.2,0.2,0.8,0.2,0.2,0.2,0.8","0.2,0.2,0.8,0.8,0.2,0.2,0.2,0.8,0.2","2","",""
"","html-keyboard-response","274","231904","0.0-274.0","3FK0YFF9P0270TJ749GWVE5RRJ9VVI","A3HVFSD8K94SOR","3HUR21WDDUBEMSLDIXZW1FAIHW8YX3","","null","<img src=""img/land4.png"" style=""width:200px;border:14px solid red;"">","null","","","","","","","","","",""
"","image-keyboard-response","275","232537","0.0-275.0","3FK0YFF9P0270TJ749GWVE5RRJ9VVI","A3HVFSD8K94SOR","3HUR21WDDUBEMSLDIXZW1FAIHW8YX3","","633","img/land4.png","76","634","3","1","1","2","0.8,0.2,0.2,0.2,0.8,0.2,0.2,0.2,0.8","0.2,0.2,0.8,0.8,0.2,0.2,0.2,0.8,0.2","2","",""
"","html-keyboard-response","276","232841","0.0-276.0","3FK0YFF9P0270TJ749GWVE5RRJ9VVI","A3HVFSD8K94SOR","3HUR21WDDUBEMSLDIXZW1FAIHW8YX3","","null","<img src=""img/land4.png"" style=""width:200px; border:14px solid green;"">","null","","","","","","","","","",""
"","image-keyboard-response","277","233716","0.0-277.0","3FK0YFF9P0270TJ749GWVE5RRJ9VVI","A3HVFSD8K94SOR","3HUR21WDDUBEMSLDIXZW1FAIHW8YX3","","874","img/land4.png","76","875","3","1","1","2","0.8,0.2,0.2,0.2,0.8,0.2,0.2,0.2,0.8","0.2,0.2,0.8,0.8,0.2,0.2,0.2,0.8,0.2","2","",""
"","html-keyboard-response","278","234032","0.0-278.0","3FK0YFF9P0270TJ749GWVE5RRJ9VVI","A3HVFSD8K94SOR","3HUR21WDDUBEMSLDIXZW1FAIHW8YX3","","null","<img src=""img/land4.png"" style=""width:200px; border:14px solid green;"">","null","","","","","","","","","",""
"","image-keyboard-response","279","234860","0.0-279.0","3FK0YFF9P0270TJ749GWVE5RRJ9VVI","A3HVFSD8K94SOR","3HUR21WDDUBEMSLDIXZW1FAIHW8YX3","","827","img/land4.png","76","828","3","1","1","2","0.8,0.2,0.2,0.2,0.8,0.2,0.2,0.2,0.8","0.2,0.2,0.8,0.8,0.2,0.2,0.2,0.8,0.2","2","",""
"","html-keyboard-response","280","235177","0.0-280.0","3FK0YFF9P0270TJ749GWVE5RRJ9VVI","A3HVFSD8K94SOR","3HUR21WDDUBEMSLDIXZW1FAIHW8YX3","","null","<img src=""img/land4.png"" style=""width:200px; border:14px solid green;"">","null","","","","","","","","","",""
"","image-keyboard-response","281","236033","0.0-281.0","3FK0YFF9P0270TJ749GWVE5RRJ9VVI","A3HVFSD8K94SOR","3HUR21WDDUBEMSLDIXZW1FAIHW8YX3","","854","img/land3.png","75","856","2","1","3","2","0.8,0.2,0.2,0.2,0.8,0.2,0.2,0.2,0.8","0.2,0.2,0.8,0.8,0.2,0.2,0.2,0.8,0.2","2","",""
"","html-keyboard-response","282","236345","0.0-282.0","3FK0YFF9P0270TJ749GWVE5RRJ9VVI","A3HVFSD8K94SOR","3HUR21WDDUBEMSLDIXZW1FAIHW8YX3","","null","<img src=""img/land3.png"" style=""width:200px; border:14px solid green;"">","null","","","","","","","","","",""
"","image-keyboard-response","283","237068","0.0-283.0","3FK0YFF9P0270TJ749GWVE5RRJ9VVI","A3HVFSD8K94SOR","3HUR21WDDUBEMSLDIXZW1FAIHW8YX3","","723","img/land4.png","75","723","2","0","1","2","0.8,0.2,0.2,0.2,0.8,0.2,0.2,0.2,0.8","0.2,0.2,0.8,0.8,0.2,0.2,0.2,0.8,0.2","2","",""
"","html-keyboard-response","284","237388","0.0-284.0","3FK0YFF9P0270TJ749GWVE5RRJ9VVI","A3HVFSD8K94SOR","3HUR21WDDUBEMSLDIXZW1FAIHW8YX3","","null","<img src=""img/land4.png"" style=""width:200px;border:14px solid red;"">","null","","","","","","","","","",""
"","image-keyboard-response","285","238102","0.0-285.0","3FK0YFF9P0270TJ749GWVE5RRJ9VVI","A3HVFSD8K94SOR","3HUR21WDDUBEMSLDIXZW1FAIHW8YX3","","713","img/land6.png","74","713","1","1","2","2","0.8,0.2,0.2,0.2,0.8,0.2,0.2,0.2,0.8","0.2,0.2,0.8,0.8,0.2,0.2,0.2,0.8,0.2","2","",""
"","html-keyboard-response","286","238409","0.0-286.0","3FK0YFF9P0270TJ749GWVE5RRJ9VVI","A3HVFSD8K94SOR","3HUR21WDDUBEMSLDIXZW1FAIHW8YX3","","null","<img src=""img/land6.png"" style=""width:200px; border:14px solid green;"">","null","","","","","","","","","",""
"","image-keyboard-response","287","239578","0.0-287.0","3FK0YFF9P0270TJ749GWVE5RRJ9VVI","A3HVFSD8K94SOR","3HUR21WDDUBEMSLDIXZW1FAIHW8YX3","","1167","img/land4.png","76","1169","3","1","1","2","0.8,0.2,0.2,0.2,0.8,0.2,0.2,0.2,0.8","0.2,0.2,0.8,0.8,0.2,0.2,0.2,0.8,0.2","2","",""
"","html-keyboard-response","288","239901","0.0-288.0","3FK0YFF9P0270TJ749GWVE5RRJ9VVI","A3HVFSD8K94SOR","3HUR21WDDUBEMSLDIXZW1FAIHW8YX3","","null","<img src=""img/land4.png"" style=""width:200px; border:14px solid green;"">","null","","","","","","","","","",""
"","image-keyboard-response","289","240417","0.0-289.0","3FK0YFF9P0270TJ749GWVE5RRJ9VVI","A3HVFSD8K94SOR","3HUR21WDDUBEMSLDIXZW1FAIHW8YX3","","516","img/land4.png","76","517","3","1","1","2","0.8,0.2,0.2,0.2,0.8,0.2,0.2,0.2,0.8","0.2,0.2,0.8,0.8,0.2,0.2,0.2,0.8,0.2","2","",""
"","html-keyboard-response","290","240721","0.0-290.0","3FK0YFF9P0270TJ749GWVE5RRJ9VVI","A3HVFSD8K94SOR","3HUR21WDDUBEMSLDIXZW1FAIHW8YX3","","null","<img src=""img/land4.png"" style=""width:200px; border:14px solid green;"">","null","","","","","","","","","",""
"","image-keyboard-response","291","241442","0.0-291.0","3FK0YFF9P0270TJ749GWVE5RRJ9VVI","A3HVFSD8K94SOR","3HUR21WDDUBEMSLDIXZW1FAIHW8YX3","","719","img/land4.png","76","720","3","1","1","2","0.8,0.2,0.2,0.2,0.8,0.2,0.2,0.2,0.8","0.2,0.2,0.8,0.8,0.2,0.2,0.2,0.8,0.2","2","",""
"","html-keyboard-response","292","241758","0.0-292.0","3FK0YFF9P0270TJ749GWVE5RRJ9VVI","A3HVFSD8K94SOR","3HUR21WDDUBEMSLDIXZW1FAIHW8YX3","","null","<img src=""img/land4.png"" style=""width:200px; border:14px solid green;"">","null","","","","","","","","","",""
"","image-keyboard-response","293","242601","0.0-293.0","3FK0YFF9P0270TJ749GWVE5RRJ9VVI","A3HVFSD8K94SOR","3HUR21WDDUBEMSLDIXZW1FAIHW8YX3","","841","img/land4.png","76","843","3","1","1","2","0.8,0.2,0.2,0.2,0.8,0.2,0.2,0.2,0.8","0.2,0.2,0.8,0.8,0.2,0.2,0.2,0.8,0.2","2","",""
"","html-keyboard-response","294","242918","0.0-294.0","3FK0YFF9P0270TJ749GWVE5RRJ9VVI","A3HVFSD8K94SOR","3HUR21WDDUBEMSLDIXZW1FAIHW8YX3","","null","<img src=""img/land4.png"" style=""width:200px; border:14px solid green;"">","null","","","","","","","","","",""
"","image-keyboard-response","295","243424","0.0-295.0","3FK0YFF9P0270TJ749GWVE5RRJ9VVI","A3HVFSD8K94SOR","3HUR21WDDUBEMSLDIXZW1FAIHW8YX3","","504","img/land4.png","76","505","3","1","1","2","0.8,0.2,0.2,0.2,0.8,0.2,0.2,0.2,0.8","0.2,0.2,0.8,0.8,0.2,0.2,0.2,0.8,0.2","2","",""
"","html-keyboard-response","296","243738","0.0-296.0","3FK0YFF9P0270TJ749GWVE5RRJ9VVI","A3HVFSD8K94SOR","3HUR21WDDUBEMSLDIXZW1FAIHW8YX3","","null","<img src=""img/land4.png"" style=""width:200px; border:14px solid green;"">","null","","","","","","","","","",""
"","image-keyboard-response","297","244748","0.0-297.0","3FK0YFF9P0270TJ749GWVE5RRJ9VVI","A3HVFSD8K94SOR","3HUR21WDDUBEMSLDIXZW1FAIHW8YX3","","1008","img/land3.png","75","1010","2","1","3","2","0.8,0.2,0.2,0.2,0.8,0.2,0.2,0.2,0.8","0.2,0.2,0.8,0.8,0.2,0.2,0.2,0.8,0.2","2","",""
"","html-keyboard-response","298","245060","0.0-298.0","3FK0YFF9P0270TJ749GWVE5RRJ9VVI","A3HVFSD8K94SOR","3HUR21WDDUBEMSLDIXZW1FAIHW8YX3","","null","<img src=""img/land3.png"" style=""width:200px; border:14px solid green;"">","null","","","","","","","","","",""
"","image-keyboard-response","299","245987","0.0-299.0","3FK0YFF9P0270TJ749GWVE5RRJ9VVI","A3HVFSD8K94SOR","3HUR21WDDUBEMSLDIXZW1FAIHW8YX3","","926","img/land4.png","76","927","3","1","1","2","0.8,0.2,0.2,0.2,0.8,0.2,0.2,0.2,0.8","0.2,0.2,0.8,0.8,0.2,0.2,0.2,0.8,0.2","2","",""
"","html-keyboard-response","300","246297","0.0-300.0","3FK0YFF9P0270TJ749GWVE5RRJ9VVI","A3HVFSD8K94SOR","3HUR21WDDUBEMSLDIXZW1FAIHW8YX3","","null","<img src=""img/land4.png"" style=""width:200px; border:14px solid green;"">","null","","","","","","","","","",""
"","image-keyboard-response","301","247524","0.0-301.0","3FK0YFF9P0270TJ749GWVE5RRJ9VVI","A3HVFSD8K94SOR","3HUR21WDDUBEMSLDIXZW1FAIHW8YX3","","1226","img/land3.png","75","1227","2","1","3","2","0.8,0.2,0.2,0.2,0.8,0.2,0.2,0.2,0.8","0.2,0.2,0.8,0.8,0.2,0.2,0.2,0.8,0.2","2","",""
"","html-keyboard-response","302","247843","0.0-302.0","3FK0YFF9P0270TJ749GWVE5RRJ9VVI","A3HVFSD8K94SOR","3HUR21WDDUBEMSLDIXZW1FAIHW8YX3","","null","<img src=""img/land3.png"" style=""width:200px; border:14px solid green;"">","null","","","","","","","","","",""
"","image-keyboard-response","303","248712","0.0-303.0","3FK0YFF9P0270TJ749GWVE5RRJ9VVI","A3HVFSD8K94SOR","3HUR21WDDUBEMSLDIXZW1FAIHW8YX3","","868","img/land4.png","76","869","3","1","1","2","0.8,0.2,0.2,0.2,0.8,0.2,0.2,0.2,0.8","0.2,0.2,0.8,0.8,0.2,0.2,0.2,0.8,0.2","2","",""
"","html-keyboard-response","304","249027","0.0-304.0","3FK0YFF9P0270TJ749GWVE5RRJ9VVI","A3HVFSD8K94SOR","3HUR21WDDUBEMSLDIXZW1FAIHW8YX3","","null","<img src=""img/land4.png"" style=""width:200px; border:14px solid green;"">","null","","","","","","","","","",""
"","image-keyboard-response","305","249702","0.0-305.0","3FK0YFF9P0270TJ749GWVE5RRJ9VVI","A3HVFSD8K94SOR","3HUR21WDDUBEMSLDIXZW1FAIHW8YX3","","672","img/land4.png","76","673","3","1","1","2","0.8,0.2,0.2,0.2,0.8,0.2,0.2,0.2,0.8","0.2,0.2,0.8,0.8,0.2,0.2,0.2,0.8,0.2","2","",""
"","html-keyboard-response","306","250016","0.0-306.0","3FK0YFF9P0270TJ749GWVE5RRJ9VVI","A3HVFSD8K94SOR","3HUR21WDDUBEMSLDIXZW1FAIHW8YX3","","null","<img src=""img/land4.png"" style=""width:200px; border:14px solid green;"">","null","","","","","","","","","",""
"","image-keyboard-response","307","250885","0.0-307.0","3FK0YFF9P0270TJ749GWVE5RRJ9VVI","A3HVFSD8K94SOR","3HUR21WDDUBEMSLDIXZW1FAIHW8YX3","","867","img/land4.png","76","868","3","1","1","2","0.8,0.2,0.2,0.2,0.8,0.2,0.2,0.2,0.8","0.2,0.2,0.8,0.8,0.2,0.2,0.2,0.8,0.2","2","",""
"","html-keyboard-response","308","251191","0.0-308.0","3FK0YFF9P0270TJ749GWVE5RRJ9VVI","A3HVFSD8K94SOR","3HUR21WDDUBEMSLDIXZW1FAIHW8YX3","","null","<img src=""img/land4.png"" style=""width:200px; border:14px solid green;"">","null","","","","","","","","","",""
"","image-keyboard-response","309","251814","0.0-309.0","3FK0YFF9P0270TJ749GWVE5RRJ9VVI","A3HVFSD8K94SOR","3HUR21WDDUBEMSLDIXZW1FAIHW8YX3","","622","img/land3.png","75","622","2","1","3","2","0.8,0.2,0.2,0.2,0.8,0.2,0.2,0.2,0.8","0.2,0.2,0.8,0.8,0.2,0.2,0.2,0.8,0.2","2","",""
"","html-keyboard-response","310","252126","0.0-310.0","3FK0YFF9P0270TJ749GWVE5RRJ9VVI","A3HVFSD8K94SOR","3HUR21WDDUBEMSLDIXZW1FAIHW8YX3","","null","<img src=""img/land3.png"" style=""width:200px; border:14px solid green;"">","null","","","","","","","","","",""
"","image-keyboard-response","311","252933","0.0-311.0","3FK0YFF9P0270TJ749GWVE5RRJ9VVI","A3HVFSD8K94SOR","3HUR21WDDUBEMSLDIXZW1FAIHW8YX3","","806","img/land6.png","74","806","1","1","2","2","0.8,0.2,0.2,0.2,0.8,0.2,0.2,0.2,0.8","0.2,0.2,0.8,0.8,0.2,0.2,0.2,0.8,0.2","2","",""
"","html-keyboard-response","312","253249","0.0-312.0","3FK0YFF9P0270TJ749GWVE5RRJ9VVI","A3HVFSD8K94SOR","3HUR21WDDUBEMSLDIXZW1FAIHW8YX3","","null","<img src=""img/land6.png"" style=""width:200px; border:14px solid green;"">","null","","","","","","","","","",""
"","image-keyboard-response","313","254088","0.0-313.0","3FK0YFF9P0270TJ749GWVE5RRJ9VVI","A3HVFSD8K94SOR","3HUR21WDDUBEMSLDIXZW1FAIHW8YX3","","837","img/land3.png","75","838","2","1","3","2","0.8,0.2,0.2,0.2,0.8,0.2,0.2,0.2,0.8","0.2,0.2,0.8,0.8,0.2,0.2,0.2,0.8,0.2","2","",""
"","html-keyboard-response","314","254392","0.0-314.0","3FK0YFF9P0270TJ749GWVE5RRJ9VVI","A3HVFSD8K94SOR","3HUR21WDDUBEMSLDIXZW1FAIHW8YX3","","null","<img src=""img/land3.png"" style=""width:200px; border:14px solid green;"">","null","","","","","","","","","",""
"","image-keyboard-response","315","255290","0.0-315.0","3FK0YFF9P0270TJ749GWVE5RRJ9VVI","A3HVFSD8K94SOR","3HUR21WDDUBEMSLDIXZW1FAIHW8YX3","","896","img/land3.png","75","897","2","1","3","2","0.8,0.2,0.2,0.2,0.8,0.2,0.2,0.2,0.8","0.2,0.2,0.8,0.8,0.2,0.2,0.2,0.8,0.2","2","",""
"","html-keyboard-response","316","255598","0.0-316.0","3FK0YFF9P0270TJ749GWVE5RRJ9VVI","A3HVFSD8K94SOR","3HUR21WDDUBEMSLDIXZW1FAIHW8YX3","","null","<img src=""img/land3.png"" style=""width:200px; border:14px solid green;"">","null","","","","","","","","","",""
"","image-keyboard-response","317","256573","0.0-317.0","3FK0YFF9P0270TJ749GWVE5RRJ9VVI","A3HVFSD8K94SOR","3HUR21WDDUBEMSLDIXZW1FAIHW8YX3","","974","img/land6.png","74","975","1","1","2","2","0.8,0.2,0.2,0.2,0.8,0.2,0.2,0.2,0.8","0.2,0.2,0.8,0.8,0.2,0.2,0.2,0.8,0.2","2","",""
"","html-keyboard-response","318","256890","0.0-318.0","3FK0YFF9P0270TJ749GWVE5RRJ9VVI","A3HVFSD8K94SOR","3HUR21WDDUBEMSLDIXZW1FAIHW8YX3","","null","<img src=""img/land6.png"" style=""width:200px; border:14px solid green;"">","null","","","","","","","","","",""
"","image-keyboard-response","319","257782","0.0-319.0","3FK0YFF9P0270TJ749GWVE5RRJ9VVI","A3HVFSD8K94SOR","3HUR21WDDUBEMSLDIXZW1FAIHW8YX3","","890","img/land3.png","75","892","2","1","3","2","0.8,0.2,0.2,0.2,0.8,0.2,0.2,0.2,0.8","0.2,0.2,0.8,0.8,0.2,0.2,0.2,0.8,0.2","2","",""
"","html-keyboard-response","320","258096","0.0-320.0","3FK0YFF9P0270TJ749GWVE5RRJ9VVI","A3HVFSD8K94SOR","3HUR21WDDUBEMSLDIXZW1FAIHW8YX3","","null","<img src=""img/land3.png"" style=""width:200px; border:14px solid green;"">","null","","","","","","","","","",""
"","image-keyboard-response","321","258790","0.0-321.0","3FK0YFF9P0270TJ749GWVE5RRJ9VVI","A3HVFSD8K94SOR","3HUR21WDDUBEMSLDIXZW1FAIHW8YX3","","693","img/land6.png","74","694","1","1","2","2","0.8,0.2,0.2,0.2,0.8,0.2,0.2,0.2,0.8","0.2,0.2,0.8,0.8,0.2,0.2,0.2,0.8,0.2","2","",""
"","html-keyboard-response","322","259103","0.0-322.0","3FK0YFF9P0270TJ749GWVE5RRJ9VVI","A3HVFSD8K94SOR","3HUR21WDDUBEMSLDIXZW1FAIHW8YX3","","null","<img src=""img/land6.png"" style=""width:200px; border:14px solid green;"">","null","","","","","","","","","",""
"","image-keyboard-response","323","259889","0.0-323.0","3FK0YFF9P0270TJ749GWVE5RRJ9VVI","A3HVFSD8K94SOR","3HUR21WDDUBEMSLDIXZW1FAIHW8YX3","","785","img/land4.png","76","786","3","1","1","2","0.8,0.2,0.2,0.2,0.8,0.2,0.2,0.2,0.8","0.2,0.2,0.8,0.8,0.2,0.2,0.2,0.8,0.2","2","",""
"","html-keyboard-response","324","260207","0.0-324.0","3FK0YFF9P0270TJ749GWVE5RRJ9VVI","A3HVFSD8K94SOR","3HUR21WDDUBEMSLDIXZW1FAIHW8YX3","","null","<img src=""img/land4.png"" style=""width:200px; border:14px solid green;"">","null","","","","","","","","","",""
"","image-keyboard-response","325","260947","0.0-325.0","3FK0YFF9P0270TJ749GWVE5RRJ9VVI","A3HVFSD8K94SOR","3HUR21WDDUBEMSLDIXZW1FAIHW8YX3","","739","img/land6.png","74","740","1","1","2","2","0.8,0.2,0.2,0.2,0.8,0.2,0.2,0.2,0.8","0.2,0.2,0.8,0.8,0.2,0.2,0.2,0.8,0.2","2","",""
"","html-keyboard-response","326","261258","0.0-326.0","3FK0YFF9P0270TJ749GWVE5RRJ9VVI","A3HVFSD8K94SOR","3HUR21WDDUBEMSLDIXZW1FAIHW8YX3","","null","<img src=""img/land6.png"" style=""width:200px; border:14px solid green;"">","null","","","","","","","","","",""
"","image-keyboard-response","327","261875","0.0-327.0","3FK0YFF9P0270TJ749GWVE5RRJ9VVI","A3HVFSD8K94SOR","3HUR21WDDUBEMSLDIXZW1FAIHW8YX3","","618","img/land6.png","74","619","1","1","2","2","0.8,0.2,0.2,0.2,0.8,0.2,0.2,0.2,0.8","0.2,0.2,0.8,0.8,0.2,0.2,0.2,0.8,0.2","2","",""
"","html-keyboard-response","328","262191","0.0-328.0","3FK0YFF9P0270TJ749GWVE5RRJ9VVI","A3HVFSD8K94SOR","3HUR21WDDUBEMSLDIXZW1FAIHW8YX3","","null","<img src=""img/land6.png"" style=""width:200px; border:14px solid green;"">","null","","","","","","","","","",""
"","image-keyboard-response","329","262905","0.0-329.0","3FK0YFF9P0270TJ749GWVE5RRJ9VVI","A3HVFSD8K94SOR","3HUR21WDDUBEMSLDIXZW1FAIHW8YX3","","713","img/land6.png","74","714","1","0","2","2","0.8,0.2,0.2,0.2,0.8,0.2,0.2,0.2,0.8","0.2,0.2,0.8,0.8,0.2,0.2,0.2,0.8,0.2","2","",""
"","html-keyboard-response","330","263219","0.0-330.0","3FK0YFF9P0270TJ749GWVE5RRJ9VVI","A3HVFSD8K94SOR","3HUR21WDDUBEMSLDIXZW1FAIHW8YX3","","null","<img src=""img/land6.png"" style=""width:200px;border:14px solid red;"">","null","","","","","","","","","",""
"","image-keyboard-response","331","263774","0.0-331.0","3FK0YFF9P0270TJ749GWVE5RRJ9VVI","A3HVFSD8K94SOR","3HUR21WDDUBEMSLDIXZW1FAIHW8YX3","","555","img/land6.png","74","555","1","0","2","2","0.8,0.2,0.2,0.2,0.8,0.2,0.2,0.2,0.8","0.2,0.2,0.8,0.8,0.2,0.2,0.2,0.8,0.2","2","",""
"","html-keyboard-response","332","264081","0.0-332.0","3FK0YFF9P0270TJ749GWVE5RRJ9VVI","A3HVFSD8K94SOR","3HUR21WDDUBEMSLDIXZW1FAIHW8YX3","","null","<img src=""img/land6.png"" style=""width:200px;border:14px solid red;"">","null","","","","","","","","","",""
"","image-keyboard-response","333","264807","0.0-333.0","3FK0YFF9P0270TJ749GWVE5RRJ9VVI","A3HVFSD8K94SOR","3HUR21WDDUBEMSLDIXZW1FAIHW8YX3","","725","img/land3.png","75","725","2","0","3","2","0.8,0.2,0.2,0.2,0.8,0.2,0.2,0.2,0.8","0.2,0.2,0.8,0.8,0.2,0.2,0.2,0.8,0.2","2","",""
"","html-keyboard-response","334","265125","0.0-334.0","3FK0YFF9P0270TJ749GWVE5RRJ9VVI","A3HVFSD8K94SOR","3HUR21WDDUBEMSLDIXZW1FAIHW8YX3","","null","<img src=""img/land3.png"" style=""width:200px;border:14px solid red;"">","null","","","","","","","","","",""
"","image-keyboard-response","335","266092","0.0-335.0","3FK0YFF9P0270TJ749GWVE5RRJ9VVI","A3HVFSD8K94SOR","3HUR21WDDUBEMSLDIXZW1FAIHW8YX3","","966","img/land4.png","76","967","3","1","1","2","0.8,0.2,0.2,0.2,0.8,0.2,0.2,0.2,0.8","0.2,0.2,0.8,0.8,0.2,0.2,0.2,0.8,0.2","2","",""
"","html-keyboard-response","336","266406","0.0-336.0","3FK0YFF9P0270TJ749GWVE5RRJ9VVI","A3HVFSD8K94SOR","3HUR21WDDUBEMSLDIXZW1FAIHW8YX3","","null","<img src=""img/land4.png"" style=""width:200px; border:14px solid green;"">","null","","","","","","","","","",""
"","image-keyboard-response","337","266910","0.0-337.0","3FK0YFF9P0270TJ749GWVE5RRJ9VVI","A3HVFSD8K94SOR","3HUR21WDDUBEMSLDIXZW1FAIHW8YX3","","501","img/land4.png","76","503","3","0","1","2","0.8,0.2,0.2,0.2,0.8,0.2,0.2,0.2,0.8","0.2,0.2,0.8,0.8,0.2,0.2,0.2,0.8,0.2","2","",""
"","html-keyboard-response","338","267226","0.0-338.0","3FK0YFF9P0270TJ749GWVE5RRJ9VVI","A3HVFSD8K94SOR","3HUR21WDDUBEMSLDIXZW1FAIHW8YX3","","null","<img src=""img/land4.png"" style=""width:200px;border:14px solid red;"">","null","","","","","","","","","",""
"","image-keyboard-response","339","267779","0.0-339.0","3FK0YFF9P0270TJ749GWVE5RRJ9VVI","A3HVFSD8K94SOR","3HUR21WDDUBEMSLDIXZW1FAIHW8YX3","","552","img/land4.png","76","553","3","1","1","2","0.8,0.2,0.2,0.2,0.8,0.2,0.2,0.2,0.8","0.2,0.2,0.8,0.8,0.2,0.2,0.2,0.8,0.2","2","",""
"","html-keyboard-response","340","268089","0.0-340.0","3FK0YFF9P0270TJ749GWVE5RRJ9VVI","A3HVFSD8K94SOR","3HUR21WDDUBEMSLDIXZW1FAIHW8YX3","","null","<img src=""img/land4.png"" style=""width:200px; border:14px solid green;"">","null","","","","","","","","","",""
"","image-keyboard-response","341","268869","0.0-341.0","3FK0YFF9P0270TJ749GWVE5RRJ9VVI","A3HVFSD8K94SOR","3HUR21WDDUBEMSLDIXZW1FAIHW8YX3","","779","img/land6.png","74","779","1","1","2","2","0.8,0.2,0.2,0.2,0.8,0.2,0.2,0.2,0.8","0.2,0.2,0.8,0.8,0.2,0.2,0.2,0.8,0.2","2","",""
"","html-keyboard-response","342","269186","0.0-342.0","3FK0YFF9P0270TJ749GWVE5RRJ9VVI","A3HVFSD8K94SOR","3HUR21WDDUBEMSLDIXZW1FAIHW8YX3","","null","<img src=""img/land6.png"" style=""width:200px; border:14px solid green;"">","null","","","","","","","","","",""
"","image-keyboard-response","343","270311","0.0-343.0","3FK0YFF9P0270TJ749GWVE5RRJ9VVI","A3HVFSD8K94SOR","3HUR21WDDUBEMSLDIXZW1FAIHW8YX3","","1125","img/land4.png","76","1125","3","1","1","2","0.8,0.2,0.2,0.2,0.8,0.2,0.2,0.2,0.8","0.2,0.2,0.8,0.8,0.2,0.2,0.2,0.8,0.2","2","",""
"","html-keyboard-response","344","270621","0.0-344.0","3FK0YFF9P0270TJ749GWVE5RRJ9VVI","A3HVFSD8K94SOR","3HUR21WDDUBEMSLDIXZW1FAIHW8YX3","","null","<img src=""img/land4.png"" style=""width:200px; border:14px solid green;"">","null","","","","","","","","","",""
"","image-keyboard-response","345","271585","0.0-345.0","3FK0YFF9P0270TJ749GWVE5RRJ9VVI","A3HVFSD8K94SOR","3HUR21WDDUBEMSLDIXZW1FAIHW8YX3","","962","img/land4.png","76","962","3","1","1","2","0.8,0.2,0.2,0.2,0.8,0.2,0.2,0.2,0.8","0.2,0.2,0.8,0.8,0.2,0.2,0.2,0.8,0.2","2","",""
"","html-keyboard-response","346","271893","0.0-346.0","3FK0YFF9P0270TJ749GWVE5RRJ9VVI","A3HVFSD8K94SOR","3HUR21WDDUBEMSLDIXZW1FAIHW8YX3","","null","<img src=""img/land4.png"" style=""width:200px; border:14px solid green;"">","null","","","","","","","","","",""
"","image-keyboard-response","347","272514","0.0-347.0","3FK0YFF9P0270TJ749GWVE5RRJ9VVI","A3HVFSD8K94SOR","3HUR21WDDUBEMSLDIXZW1FAIHW8YX3","","619","img/land4.png","76","620","3","1","1","2","0.8,0.2,0.2,0.2,0.8,0.2,0.2,0.2,0.8","0.2,0.2,0.8,0.8,0.2,0.2,0.2,0.8,0.2","2","",""
"","html-keyboard-response","348","272828","0.0-348.0","3FK0YFF9P0270TJ749GWVE5RRJ9VVI","A3HVFSD8K94SOR","3HUR21WDDUBEMSLDIXZW1FAIHW8YX3","","null","<img src=""img/land4.png"" style=""width:200px; border:14px solid green;"">","null","","","","","","","","","",""
"","image-keyboard-response","349","273522","0.0-349.0","3FK0YFF9P0270TJ749GWVE5RRJ9VVI","A3HVFSD8K94SOR","3HUR21WDDUBEMSLDIXZW1FAIHW8YX3","","693","img/land4.png","76","694","3","1","1","2","0.8,0.2,0.2,0.2,0.8,0.2,0.2,0.2,0.8","0.2,0.2,0.8,0.8,0.2,0.2,0.2,0.8,0.2","2","",""
"","html-keyboard-response","350","273831","0.0-350.0","3FK0YFF9P0270TJ749GWVE5RRJ9VVI","A3HVFSD8K94SOR","3HUR21WDDUBEMSLDIXZW1FAIHW8YX3","","null","<img src=""img/land4.png"" style=""width:200px; border:14px solid green;"">","null","","","","","","","","","",""
"","image-keyboard-response","351","274570","0.0-351.0","3FK0YFF9P0270TJ749GWVE5RRJ9VVI","A3HVFSD8K94SOR","3HUR21WDDUBEMSLDIXZW1FAIHW8YX3","","738","img/land6.png","74","740","1","0","2","2","0.8,0.2,0.2,0.2,0.8,0.2,0.2,0.2,0.8","0.2,0.2,0.8,0.8,0.2,0.2,0.2,0.8,0.2","2","",""
"","html-keyboard-response","352","274887","0.0-352.0","3FK0YFF9P0270TJ749GWVE5RRJ9VVI","A3HVFSD8K94SOR","3HUR21WDDUBEMSLDIXZW1FAIHW8YX3","","null","<img src=""img/land6.png"" style=""width:200px;border:14px solid red;"">","null","","","","","","","","","",""
"","image-keyboard-response","353","275654","0.0-353.0","3FK0YFF9P0270TJ749GWVE5RRJ9VVI","A3HVFSD8K94SOR","3HUR21WDDUBEMSLDIXZW1FAIHW8YX3","","767","img/land4.png","76","768","3","0","1","2","0.8,0.2,0.2,0.2,0.8,0.2,0.2,0.2,0.8","0.2,0.2,0.8,0.8,0.2,0.2,0.2,0.8,0.2","2","",""
"","html-keyboard-response","354","275966","0.0-354.0","3FK0YFF9P0270TJ749GWVE5RRJ9VVI","A3HVFSD8K94SOR","3HUR21WDDUBEMSLDIXZW1FAIHW8YX3","","null","<img src=""img/land4.png"" style=""width:200px;border:14px solid red;"">","null","","","","","","","","","",""
"","image-keyboard-response","355","276604","0.0-355.0","3FK0YFF9P0270TJ749GWVE5RRJ9VVI","A3HVFSD8K94SOR","3HUR21WDDUBEMSLDIXZW1FAIHW8YX3","","636","img/land4.png","76","636","3","1","1","2","0.8,0.2,0.2,0.2,0.8,0.2,0.2,0.2,0.8","0.2,0.2,0.8,0.8,0.2,0.2,0.2,0.8,0.2","2","",""
"","html-keyboard-response","356","276906","0.0-356.0","3FK0YFF9P0270TJ749GWVE5RRJ9VVI","A3HVFSD8K94SOR","3HUR21WDDUBEMSLDIXZW1FAIHW8YX3","","null","<img src=""img/land4.png"" style=""width:200px; border:14px solid green;"">","null","","","","","","","","","",""
"","image-keyboard-response","357","277722","0.0-357.0","3FK0YFF9P0270TJ749GWVE5RRJ9VVI","A3HVFSD8K94SOR","3HUR21WDDUBEMSLDIXZW1FAIHW8YX3","","815","img/land4.png","76","815","3","1","1","2","0.8,0.2,0.2,0.2,0.8,0.2,0.2,0.2,0.8","0.2,0.2,0.8,0.8,0.2,0.2,0.2,0.8,0.2","2","",""
"","html-keyboard-response","358","278022","0.0-358.0","3FK0YFF9P0270TJ749GWVE5RRJ9VVI","A3HVFSD8K94SOR","3HUR21WDDUBEMSLDIXZW1FAIHW8YX3","","null","<img src=""img/land4.png"" style=""width:200px; border:14px solid green;"">","null","","","","","","","","","",""
"","image-keyboard-response","359","278720","0.0-359.0","3FK0YFF9P0270TJ749GWVE5RRJ9VVI","A3HVFSD8K94SOR","3HUR21WDDUBEMSLDIXZW1FAIHW8YX3","","696","img/land4.png","76","697","3","1","1","2","0.8,0.2,0.2,0.2,0.8,0.2,0.2,0.2,0.8","0.2,0.2,0.8,0.8,0.2,0.2,0.2,0.8,0.2","2","",""
"","html-keyboard-response","360","279030","0.0-360.0","3FK0YFF9P0270TJ749GWVE5RRJ9VVI","A3HVFSD8K94SOR","3HUR21WDDUBEMSLDIXZW1FAIHW8YX3","","null","<img src=""img/land4.png"" style=""width:200px; border:14px solid green;"">","null","","","","","","","","","",""
"","image-keyboard-response","361","279515","0.0-361.0","3FK0YFF9P0270TJ749GWVE5RRJ9VVI","A3HVFSD8K94SOR","3HUR21WDDUBEMSLDIXZW1FAIHW8YX3","","482","img/land4.png","76","484","3","1","1","2","0.8,0.2,0.2,0.2,0.8,0.2,0.2,0.2,0.8","0.2,0.2,0.8,0.8,0.2,0.2,0.2,0.8,0.2","2","",""
"","html-keyboard-response","362","279818","0.0-362.0","3FK0YFF9P0270TJ749GWVE5RRJ9VVI","A3HVFSD8K94SOR","3HUR21WDDUBEMSLDIXZW1FAIHW8YX3","","null","<img src=""img/land4.png"" style=""width:200px; border:14px solid green;"">","null","","","","","","","","","",""
"","image-keyboard-response","363","280648","0.0-363.0","3FK0YFF9P0270TJ749GWVE5RRJ9VVI","A3HVFSD8K94SOR","3HUR21WDDUBEMSLDIXZW1FAIHW8YX3","","829","img/land4.png","76","830","3","1","1","2","0.8,0.2,0.2,0.2,0.8,0.2,0.2,0.2,0.8","0.2,0.2,0.8,0.8,0.2,0.2,0.2,0.8,0.2","2","",""
"","html-keyboard-response","364","280952","0.0-364.0","3FK0YFF9P0270TJ749GWVE5RRJ9VVI","A3HVFSD8K94SOR","3HUR21WDDUBEMSLDIXZW1FAIHW8YX3","","null","<img src=""img/land4.png"" style=""width:200px; border:14px solid green;"">","null","","","","","","","","","",""
"","image-keyboard-response","365","281697","0.0-365.0","3FK0YFF9P0270TJ749GWVE5RRJ9VVI","A3HVFSD8K94SOR","3HUR21WDDUBEMSLDIXZW1FAIHW8YX3","","744","img/land6.png","74","744","1","1","2","2","0.8,0.2,0.2,0.2,0.8,0.2,0.2,0.2,0.8","0.2,0.2,0.8,0.8,0.2,0.2,0.2,0.8,0.2","2","",""
"","html-keyboard-response","366","282036","0.0-366.0","3FK0YFF9P0270TJ749GWVE5RRJ9VVI","A3HVFSD8K94SOR","3HUR21WDDUBEMSLDIXZW1FAIHW8YX3","","null","<img src=""img/land6.png"" style=""width:200px; border:14px solid green;"">","null","","","","","","","","","",""
"","image-keyboard-response","367","282870","0.0-367.0","3FK0YFF9P0270TJ749GWVE5RRJ9VVI","A3HVFSD8K94SOR","3HUR21WDDUBEMSLDIXZW1FAIHW8YX3","","833","img/land4.png","76","833","3","1","1","2","0.8,0.2,0.2,0.2,0.8,0.2,0.2,0.2,0.8","0.2,0.2,0.8,0.8,0.2,0.2,0.2,0.8,0.2","2","",""
"","html-keyboard-response","368","283175","0.0-368.0","3FK0YFF9P0270TJ749GWVE5RRJ9VVI","A3HVFSD8K94SOR","3HUR21WDDUBEMSLDIXZW1FAIHW8YX3","","null","<img src=""img/land4.png"" style=""width:200px; border:14px solid green;"">","null","","","","","","","","","",""
"","image-keyboard-response","369","283989","0.0-369.0","3FK0YFF9P0270TJ749GWVE5RRJ9VVI","A3HVFSD8K94SOR","3HUR21WDDUBEMSLDIXZW1FAIHW8YX3","","812","img/land3.png","75","813","2","1","3","2","0.8,0.2,0.2,0.2,0.8,0.2,0.2,0.2,0.8","0.2,0.2,0.8,0.8,0.2,0.2,0.2,0.8,0.2","2","",""
