"success","trial_type","trial_index","time_elapsed","internal_node_id","assignmentID","mturkID","hitID","view_history","rt","stimulus","key_press","reactionTime","a","r","warning","s","reward_cond","responses","question_order"
"true","fullscreen","0","3082","0.0-0.0","324G5B4FB4UPW2HVJEPR47ZY7SA701","A3HXCMU4MOPSQI","3TZDZ3Y0JSSRVQSC3SM97PDQ3Z7196","","","","","","","","","","","",""
"","instructions","1","22661","0.0-1.0","324G5B4FB4UPW2HVJEPR47ZY7SA701","A3HXCMU4MOPSQI","3TZDZ3Y0JSSRVQSC3SM97PDQ3Z7196","[{""page_index"":0,""viewing_time"":9487.70000000298},{""page_index"":1,""viewing_time"":2296},{""page_index"":2,""viewing_time"":552.8999999910593},{""page_index"":3,""viewing_time"":344.20000000298023},{""page_index"":4,""viewing_time"":1099.7000000029802},{""page_index"":5,""viewing_time"":1260.0999999940395},{""page_index"":6,""viewing_time"":3581.1000000089407},{""page_index"":7,""viewing_time"":955.8999999910593}]","19578.09999999404","","","","","","","","","",""
"","image-keyboard-response","2","23067","0.0-2.0","324G5B4FB4UPW2HVJEPR47ZY7SA701","A3HXCMU4MOPSQI","3TZDZ3Y0JSSRVQSC3SM97PDQ3Z7196","","405.30000001192093","img/land6.png","75","406.1000000089407","2","0","false","3","0.8,0.2,0.2,0.2,0.8,0.2,0.2,0.2,0.8","",""
"","html-keyboard-response","3","23373","0.0-3.0","324G5B4FB4UPW2HVJEPR47ZY7SA701","A3HXCMU4MOPSQI","3TZDZ3Y0JSSRVQSC3SM97PDQ3Z7196","","null","<img src=""img/land6.png"" style=""width:200px;border:14px solid red;"">","null","","","","","","","",""
"","image-keyboard-response","4","23893","0.0-5.0","324G5B4FB4UPW2HVJEPR47ZY7SA701","A3HXCMU4MOPSQI","3TZDZ3Y0JSSRVQSC3SM97PDQ3Z7196","","518.7999999970198","img/land9.png","76","519.5","3","0","false","1","0.8,0.2,0.2,0.2,0.8,0.2,0.2,0.2,0.8","",""
"","html-keyboard-response","5","24198","0.0-6.0","324G5B4FB4UPW2HVJEPR47ZY7SA701","A3HXCMU4MOPSQI","3TZDZ3Y0JSSRVQSC3SM97PDQ3Z7196","","null","<img src=""img/land9.png"" style=""width:200px;border:14px solid red;"">","null","","","","","","","",""
"","image-keyboard-response","6","24515","0.0-8.0","324G5B4FB4UPW2HVJEPR47ZY7SA701","A3HXCMU4MOPSQI","3TZDZ3Y0JSSRVQSC3SM97PDQ3Z7196","","315.8999999910593","img/land9.png","75","316.40000000596046","2","0","false","1","0.8,0.2,0.2,0.2,0.8,0.2,0.2,0.2,0.8","",""
"","html-keyboard-response","7","24828","0.0-9.0","324G5B4FB4UPW2HVJEPR47ZY7SA701","A3HXCMU4MOPSQI","3TZDZ3Y0JSSRVQSC3SM97PDQ3Z7196","","null","<img src=""img/land9.png"" style=""width:200px;border:14px solid red;"">","null","","","","","","","",""
"","image-keyboard-response","8","24941","0.0-11.0","324G5B4FB4UPW2HVJEPR47ZY7SA701","A3HXCMU4MOPSQI","3TZDZ3Y0JSSRVQSC3SM97PDQ3Z7196","","111.80000001192093","img/land9.png","74","112.5","1","1","false","1","0.8,0.2,0.2,0.2,0.8,0.2,0.2,0.2,0.8","",""
"","html-keyboard-response","9","25244","0.0-12.0","324G5B4FB4UPW2HVJEPR47ZY7SA701","A3HXCMU4MOPSQI","3TZDZ3Y0JSSRVQSC3SM97PDQ3Z7196","","null","<img src=""img/land9.png"" style=""width:200px; border:14px solid green;"">","null","","","","","","","",""
"","image-keyboard-response","10","25575","0.0-14.0","324G5B4FB4UPW2HVJEPR47ZY7SA701","A3HXCMU4MOPSQI","3TZDZ3Y0JSSRVQSC3SM97PDQ3Z7196","","330.40000000596046","img/land5.png","75","331","2","1","false","2","0.8,0.2,0.2,0.2,0.8,0.2,0.2,0.2,0.8","",""
"","html-keyboard-response","11","25883","0.0-15.0","324G5B4FB4UPW2HVJEPR47ZY7SA701","A3HXCMU4MOPSQI","3TZDZ3Y0JSSRVQSC3SM97PDQ3Z7196","","null","<img src=""img/land5.png"" style=""width:200px; border:14px solid green;"">","null","","","","","","","",""
"","image-keyboard-response","12","26235","0.0-17.0","324G5B4FB4UPW2HVJEPR47ZY7SA701","A3HXCMU4MOPSQI","3TZDZ3Y0JSSRVQSC3SM97PDQ3Z7196","","350.8999999910593","img/land9.png","75","351.70000000298023","2","0","false","1","0.8,0.2,0.2,0.2,0.8,0.2,0.2,0.2,0.8","",""
"","html-keyboard-response","13","26548","0.0-18.0","324G5B4FB4UPW2HVJEPR47ZY7SA701","A3HXCMU4MOPSQI","3TZDZ3Y0JSSRVQSC3SM97PDQ3Z7196","","null","<img src=""img/land9.png"" style=""width:200px;border:14px solid red;"">","null","","","","","","","",""
"","image-keyboard-response","14","26755","0.0-20.0","324G5B4FB4UPW2HVJEPR47ZY7SA701","A3HXCMU4MOPSQI","3TZDZ3Y0JSSRVQSC3SM97PDQ3Z7196","","206.69999998807907","img/land6.png","76","207.29999999701977","3","1","false","3","0.8,0.2,0.2,0.2,0.8,0.2,0.2,0.2,0.8","",""
"","html-keyboard-response","15","27068","0.0-21.0","324G5B4FB4UPW2HVJEPR47ZY7SA701","A3HXCMU4MOPSQI","3TZDZ3Y0JSSRVQSC3SM97PDQ3Z7196","","null","<img src=""img/land6.png"" style=""width:200px; border:14px solid green;"">","null","","","","","","","",""
"","image-keyboard-response","16","27353","0.0-23.0","324G5B4FB4UPW2HVJEPR47ZY7SA701","A3HXCMU4MOPSQI","3TZDZ3Y0JSSRVQSC3SM97PDQ3Z7196","","284.19999998807907","img/land5.png","75","285","2","0","false","2","0.8,0.2,0.2,0.2,0.8,0.2,0.2,0.2,0.8","",""
"","html-keyboard-response","17","27656","0.0-24.0","324G5B4FB4UPW2HVJEPR47ZY7SA701","A3HXCMU4MOPSQI","3TZDZ3Y0JSSRVQSC3SM97PDQ3Z7196","","null","<img src=""img/land5.png"" style=""width:200px;border:14px solid red;"">","null","","","","","","","",""
"","image-keyboard-response","18","27923","0.0-26.0","324G5B4FB4UPW2HVJEPR47ZY7SA701","A3HXCMU4MOPSQI","3TZDZ3Y0JSSRVQSC3SM97PDQ3Z7196","","266.69999998807907","img/land6.png","74","267.30000001192093","1","1","false","3","0.8,0.2,0.2,0.2,0.8,0.2,0.2,0.2,0.8","",""
"","html-keyboard-response","19","28234","0.0-27.0","324G5B4FB4UPW2HVJEPR47ZY7SA701","A3HXCMU4MOPSQI","3TZDZ3Y0JSSRVQSC3SM97PDQ3Z7196","","null","<img src=""img/land6.png"" style=""width:200px; border:14px solid green;"">","null","","","","","","","",""
"","image-keyboard-response","20","28513","0.0-29.0","324G5B4FB4UPW2HVJEPR47ZY7SA701","A3HXCMU4MOPSQI","3TZDZ3Y0JSSRVQSC3SM97PDQ3Z7196","","278.79999999701977","img/land6.png","75","279.59999999403954","2","0","false","3","0.8,0.2,0.2,0.2,0.8,0.2,0.2,0.2,0.8","",""
"","html-keyboard-response","21","28814","0.0-30.0","324G5B4FB4UPW2HVJEPR47ZY7SA701","A3HXCMU4MOPSQI","3TZDZ3Y0JSSRVQSC3SM97PDQ3Z7196","","null","<img src=""img/land6.png"" style=""width:200px;border:14px solid red;"">","null","","","","","","","",""
"","image-keyboard-response","22","29161","0.0-32.0","324G5B4FB4UPW2HVJEPR47ZY7SA701","A3HXCMU4MOPSQI","3TZDZ3Y0JSSRVQSC3SM97PDQ3Z7196","","346.29999999701977","img/land6.png","76","347","3","1","false","3","0.8,0.2,0.2,0.2,0.8,0.2,0.2,0.2,0.8","",""
"","html-keyboard-response","23","29463","0.0-33.0","324G5B4FB4UPW2HVJEPR47ZY7SA701","A3HXCMU4MOPSQI","3TZDZ3Y0JSSRVQSC3SM97PDQ3Z7196","","null","<img src=""img/land6.png"" style=""width:200px; border:14px solid green;"">","null","","","","","","","",""
"","image-keyboard-response","24","29628","0.0-35.0","324G5B4FB4UPW2HVJEPR47ZY7SA701","A3HXCMU4MOPSQI","3TZDZ3Y0JSSRVQSC3SM97PDQ3Z7196","","163.90000000596046","img/land9.png","76","164.3999999910593","3","1","false","1","0.8,0.2,0.2,0.2,0.8,0.2,0.2,0.2,0.8","",""
"","html-keyboard-response","25","29929","0.0-36.0","324G5B4FB4UPW2HVJEPR47ZY7SA701","A3HXCMU4MOPSQI","3TZDZ3Y0JSSRVQSC3SM97PDQ3Z7196","","null","<img src=""img/land9.png"" style=""width:200px; border:14px solid green;"">","null","","","","","","","",""
"","image-keyboard-response","26","30262","0.0-38.0","324G5B4FB4UPW2HVJEPR47ZY7SA701","A3HXCMU4MOPSQI","3TZDZ3Y0JSSRVQSC3SM97PDQ3Z7196","","332.29999999701977","img/land6.png","76","332.8999999910593","3","1","false","3","0.8,0.2,0.2,0.2,0.8,0.2,0.2,0.2,0.8","",""
"","html-keyboard-response","27","30563","0.0-39.0","324G5B4FB4UPW2HVJEPR47ZY7SA701","A3HXCMU4MOPSQI","3TZDZ3Y0JSSRVQSC3SM97PDQ3Z7196","","null","<img src=""img/land6.png"" style=""width:200px; border:14px solid green;"">","null","","","","","","","",""
"","image-keyboard-response","28","30846","0.0-41.0","324G5B4FB4UPW2HVJEPR47ZY7SA701","A3HXCMU4MOPSQI","3TZDZ3Y0JSSRVQSC3SM97PDQ3Z7196","","281.5","img/land6.png","76","282","3","1","false","3","0.8,0.2,0.2,0.2,0.8,0.2,0.2,0.2,0.8","",""
"","html-keyboard-response","29","31147","0.0-42.0","324G5B4FB4UPW2HVJEPR47ZY7SA701","A3HXCMU4MOPSQI","3TZDZ3Y0JSSRVQSC3SM97PDQ3Z7196","","null","<img src=""img/land6.png"" style=""width:200px; border:14px solid green;"">","null","","","","","","","",""
"","image-keyboard-response","30","31498","0.0-44.0","324G5B4FB4UPW2HVJEPR47ZY7SA701","A3HXCMU4MOPSQI","3TZDZ3Y0JSSRVQSC3SM97PDQ3Z7196","","349.90000000596046","img/land9.png","76","350.5","3","0","false","1","0.8,0.2,0.2,0.2,0.8,0.2,0.2,0.2,0.8","",""
"","html-keyboard-response","31","31799","0.0-45.0","324G5B4FB4UPW2HVJEPR47ZY7SA701","A3HXCMU4MOPSQI","3TZDZ3Y0JSSRVQSC3SM97PDQ3Z7196","","null","<img src=""img/land9.png"" style=""width:200px;border:14px solid red;"">","null","","","","","","","",""
"","image-keyboard-response","32","31996","0.0-47.0","324G5B4FB4UPW2HVJEPR47ZY7SA701","A3HXCMU4MOPSQI","3TZDZ3Y0JSSRVQSC3SM97PDQ3Z7196","","196.09999999403954","img/land6.png","75","196.90000000596046","2","0","false","3","0.8,0.2,0.2,0.2,0.8,0.2,0.2,0.2,0.8","",""
"","html-keyboard-response","33","32297","0.0-48.0","324G5B4FB4UPW2HVJEPR47ZY7SA701","A3HXCMU4MOPSQI","3TZDZ3Y0JSSRVQSC3SM97PDQ3Z7196","","null","<img src=""img/land6.png"" style=""width:200px;border:14px solid red;"">","null","","","","","","","",""
"","image-keyboard-response","34","32476","0.0-50.0","324G5B4FB4UPW2HVJEPR47ZY7SA701","A3HXCMU4MOPSQI","3TZDZ3Y0JSSRVQSC3SM97PDQ3Z7196","","177.79999999701977","img/land5.png","76","178.40000000596046","3","1","false","2","0.8,0.2,0.2,0.2,0.8,0.2,0.2,0.2,0.8","",""
"","html-keyboard-response","35","32777","0.0-51.0","324G5B4FB4UPW2HVJEPR47ZY7SA701","A3HXCMU4MOPSQI","3TZDZ3Y0JSSRVQSC3SM97PDQ3Z7196","","null","<img src=""img/land5.png"" style=""width:200px; border:14px solid green;"">","null","","","","","","","",""
"","image-keyboard-response","36","33122","0.0-53.0","324G5B4FB4UPW2HVJEPR47ZY7SA701","A3HXCMU4MOPSQI","3TZDZ3Y0JSSRVQSC3SM97PDQ3Z7196","","344","img/land9.png","76","344.70000000298023","3","0","false","1","0.8,0.2,0.2,0.2,0.8,0.2,0.2,0.2,0.8","",""
"","html-keyboard-response","37","33423","0.0-54.0","324G5B4FB4UPW2HVJEPR47ZY7SA701","A3HXCMU4MOPSQI","3TZDZ3Y0JSSRVQSC3SM97PDQ3Z7196","","null","<img src=""img/land9.png"" style=""width:200px;border:14px solid red;"">","null","","","","","","","",""
"","image-keyboard-response","38","33605","0.0-56.0","324G5B4FB4UPW2HVJEPR47ZY7SA701","A3HXCMU4MOPSQI","3TZDZ3Y0JSSRVQSC3SM97PDQ3Z7196","","181.8999999910593","img/land5.png","76","182.5","3","0","false","2","0.8,0.2,0.2,0.2,0.8,0.2,0.2,0.2,0.8","",""
"","html-keyboard-response","39","33907","0.0-57.0","324G5B4FB4UPW2HVJEPR47ZY7SA701","A3HXCMU4MOPSQI","3TZDZ3Y0JSSRVQSC3SM97PDQ3Z7196","","null","<img src=""img/land5.png"" style=""width:200px;border:14px solid red;"">","null","","","","","","","",""
"","image-keyboard-response","40","34117","0.0-59.0","324G5B4FB4UPW2HVJEPR47ZY7SA701","A3HXCMU4MOPSQI","3TZDZ3Y0JSSRVQSC3SM97PDQ3Z7196","","209.90000000596046","img/land6.png","75","210.3999999910593","2","0","false","3","0.8,0.2,0.2,0.2,0.8,0.2,0.2,0.2,0.8","",""
"","html-keyboard-response","41","34419","0.0-60.0","324G5B4FB4UPW2HVJEPR47ZY7SA701","A3HXCMU4MOPSQI","3TZDZ3Y0JSSRVQSC3SM97PDQ3Z7196","","null","<img src=""img/land6.png"" style=""width:200px;border:14px solid red;"">","null","","","","","","","",""
"","image-keyboard-response","42","34583","0.0-62.0","324G5B4FB4UPW2HVJEPR47ZY7SA701","A3HXCMU4MOPSQI","3TZDZ3Y0JSSRVQSC3SM97PDQ3Z7196","","163.09999999403954","img/land9.png","76","163.70000000298023","3","1","false","1","0.8,0.2,0.2,0.2,0.8,0.2,0.2,0.2,0.8","",""
"","html-keyboard-response","43","34885","0.0-63.0","324G5B4FB4UPW2HVJEPR47ZY7SA701","A3HXCMU4MOPSQI","3TZDZ3Y0JSSRVQSC3SM97PDQ3Z7196","","null","<img src=""img/land9.png"" style=""width:200px; border:14px solid green;"">","null","","","","","","","",""
"","image-keyboard-response","44","35129","0.0-65.0","324G5B4FB4UPW2HVJEPR47ZY7SA701","A3HXCMU4MOPSQI","3TZDZ3Y0JSSRVQSC3SM97PDQ3Z7196","","244","img/land6.png","74","244.5","1","0","false","3","0.8,0.2,0.2,0.2,0.8,0.2,0.2,0.2,0.8","",""
"","html-keyboard-response","45","35430","0.0-66.0","324G5B4FB4UPW2HVJEPR47ZY7SA701","A3HXCMU4MOPSQI","3TZDZ3Y0JSSRVQSC3SM97PDQ3Z7196","","null","<img src=""img/land6.png"" style=""width:200px;border:14px solid red;"">","null","","","","","","","",""
"","image-keyboard-response","46","35653","0.0-68.0","324G5B4FB4UPW2HVJEPR47ZY7SA701","A3HXCMU4MOPSQI","3TZDZ3Y0JSSRVQSC3SM97PDQ3Z7196","","222.20000000298023","img/land9.png","75","222.79999999701977","2","0","false","1","0.8,0.2,0.2,0.2,0.8,0.2,0.2,0.2,0.8","",""
"","html-keyboard-response","47","35955","0.0-69.0","324G5B4FB4UPW2HVJEPR47ZY7SA701","A3HXCMU4MOPSQI","3TZDZ3Y0JSSRVQSC3SM97PDQ3Z7196","","null","<img src=""img/land9.png"" style=""width:200px;border:14px solid red;"">","null","","","","","","","",""
"","image-keyboard-response","48","36202","0.0-71.0","324G5B4FB4UPW2HVJEPR47ZY7SA701","A3HXCMU4MOPSQI","3TZDZ3Y0JSSRVQSC3SM97PDQ3Z7196","","246","img/land6.png","76","246.59999999403954","3","1","false","3","0.8,0.2,0.2,0.2,0.8,0.2,0.2,0.2,0.8","",""
"","html-keyboard-response","49","36502","0.0-72.0","324G5B4FB4UPW2HVJEPR47ZY7SA701","A3HXCMU4MOPSQI","3TZDZ3Y0JSSRVQSC3SM97PDQ3Z7196","","null","<img src=""img/land6.png"" style=""width:200px; border:14px solid green;"">","null","","","","","","","",""
"","image-keyboard-response","50","36816","0.0-74.0","324G5B4FB4UPW2HVJEPR47ZY7SA701","A3HXCMU4MOPSQI","3TZDZ3Y0JSSRVQSC3SM97PDQ3Z7196","","312.5","img/land5.png","74","313.09999999403954","1","0","false","2","0.8,0.2,0.2,0.2,0.8,0.2,0.2,0.2,0.8","",""
"","html-keyboard-response","51","37117","0.0-75.0","324G5B4FB4UPW2HVJEPR47ZY7SA701","A3HXCMU4MOPSQI","3TZDZ3Y0JSSRVQSC3SM97PDQ3Z7196","","null","<img src=""img/land5.png"" style=""width:200px;border:14px solid red;"">","null","","","","","","","",""
"","image-keyboard-response","52","37424","0.0-77.0","324G5B4FB4UPW2HVJEPR47ZY7SA701","A3HXCMU4MOPSQI","3TZDZ3Y0JSSRVQSC3SM97PDQ3Z7196","","305.5","img/land9.png","75","306.09999999403954","2","1","false","1","0.8,0.2,0.2,0.2,0.8,0.2,0.2,0.2,0.8","",""
"","html-keyboard-response","53","37725","0.0-78.0","324G5B4FB4UPW2HVJEPR47ZY7SA701","A3HXCMU4MOPSQI","3TZDZ3Y0JSSRVQSC3SM97PDQ3Z7196","","null","<img src=""img/land9.png"" style=""width:200px; border:14px solid green;"">","null","","","","","","","",""
"","image-keyboard-response","54","38036","0.0-80.0","324G5B4FB4UPW2HVJEPR47ZY7SA701","A3HXCMU4MOPSQI","3TZDZ3Y0JSSRVQSC3SM97PDQ3Z7196","","310.3999999910593","img/land6.png","76","310.90000000596046","3","0","false","3","0.8,0.2,0.2,0.2,0.8,0.2,0.2,0.2,0.8","",""
"","html-keyboard-response","55","38337","0.0-81.0","324G5B4FB4UPW2HVJEPR47ZY7SA701","A3HXCMU4MOPSQI","3TZDZ3Y0JSSRVQSC3SM97PDQ3Z7196","","null","<img src=""img/land6.png"" style=""width:200px;border:14px solid red;"">","null","","","","","","","",""
"","image-keyboard-response","56","38596","0.0-83.0","324G5B4FB4UPW2HVJEPR47ZY7SA701","A3HXCMU4MOPSQI","3TZDZ3Y0JSSRVQSC3SM97PDQ3Z7196","","257.70000000298023","img/land9.png","75","258.3999999910593","2","0","false","1","0.8,0.2,0.2,0.2,0.8,0.2,0.2,0.2,0.8","",""
"","html-keyboard-response","57","38897","0.0-84.0","324G5B4FB4UPW2HVJEPR47ZY7SA701","A3HXCMU4MOPSQI","3TZDZ3Y0JSSRVQSC3SM97PDQ3Z7196","","null","<img src=""img/land9.png"" style=""width:200px;border:14px solid red;"">","null","","","","","","","",""
"","image-keyboard-response","58","39116","0.0-86.0","324G5B4FB4UPW2HVJEPR47ZY7SA701","A3HXCMU4MOPSQI","3TZDZ3Y0JSSRVQSC3SM97PDQ3Z7196","","218.5","img/land9.png","75","218.90000000596046","2","0","false","1","0.8,0.2,0.2,0.2,0.8,0.2,0.2,0.2,0.8","",""
"","html-keyboard-response","59","39417","0.0-87.0","324G5B4FB4UPW2HVJEPR47ZY7SA701","A3HXCMU4MOPSQI","3TZDZ3Y0JSSRVQSC3SM97PDQ3Z7196","","null","<img src=""img/land9.png"" style=""width:200px;border:14px solid red;"">","null","","","","","","","",""
"","image-keyboard-response","60","39560","0.0-89.0","324G5B4FB4UPW2HVJEPR47ZY7SA701","A3HXCMU4MOPSQI","3TZDZ3Y0JSSRVQSC3SM97PDQ3Z7196","","142.20000000298023","img/land9.png","74","142.8999999910593","1","1","false","1","0.8,0.2,0.2,0.2,0.8,0.2,0.2,0.2,0.8","",""
"","html-keyboard-response","61","39861","0.0-90.0","324G5B4FB4UPW2HVJEPR47ZY7SA701","A3HXCMU4MOPSQI","3TZDZ3Y0JSSRVQSC3SM97PDQ3Z7196","","null","<img src=""img/land9.png"" style=""width:200px; border:14px solid green;"">","null","","","","","","","",""
"","image-keyboard-response","62","40256","0.0-92.0","324G5B4FB4UPW2HVJEPR47ZY7SA701","A3HXCMU4MOPSQI","3TZDZ3Y0JSSRVQSC3SM97PDQ3Z7196","","394","img/land6.png","74","394.70000000298023","1","0","false","3","0.8,0.2,0.2,0.2,0.8,0.2,0.2,0.2,0.8","",""
"","html-keyboard-response","63","40557","0.0-93.0","324G5B4FB4UPW2HVJEPR47ZY7SA701","A3HXCMU4MOPSQI","3TZDZ3Y0JSSRVQSC3SM97PDQ3Z7196","","null","<img src=""img/land6.png"" style=""width:200px;border:14px solid red;"">","null","","","","","","","",""
"","image-keyboard-response","64","40684","0.0-95.0","324G5B4FB4UPW2HVJEPR47ZY7SA701","A3HXCMU4MOPSQI","3TZDZ3Y0JSSRVQSC3SM97PDQ3Z7196","","126.20000000298023","img/land5.png","76","126.8999999910593","3","0","false","2","0.8,0.2,0.2,0.2,0.8,0.2,0.2,0.2,0.8","",""
"","html-keyboard-response","65","40986","0.0-96.0","324G5B4FB4UPW2HVJEPR47ZY7SA701","A3HXCMU4MOPSQI","3TZDZ3Y0JSSRVQSC3SM97PDQ3Z7196","","null","<img src=""img/land5.png"" style=""width:200px;border:14px solid red;"">","null","","","","","","","",""
"","image-keyboard-response","66","41322","0.0-98.0","324G5B4FB4UPW2HVJEPR47ZY7SA701","A3HXCMU4MOPSQI","3TZDZ3Y0JSSRVQSC3SM97PDQ3Z7196","","335.5","img/land5.png","76","336.09999999403954","3","0","false","2","0.8,0.2,0.2,0.2,0.8,0.2,0.2,0.2,0.8","",""
"","html-keyboard-response","67","41623","0.0-99.0","324G5B4FB4UPW2HVJEPR47ZY7SA701","A3HXCMU4MOPSQI","3TZDZ3Y0JSSRVQSC3SM97PDQ3Z7196","","null","<img src=""img/land5.png"" style=""width:200px;border:14px solid red;"">","null","","","","","","","",""
"","image-keyboard-response","68","41966","0.0-101.0","324G5B4FB4UPW2HVJEPR47ZY7SA701","A3HXCMU4MOPSQI","3TZDZ3Y0JSSRVQSC3SM97PDQ3Z7196","","341.79999999701977","img/land6.png","76","342.5","3","1","false","3","0.8,0.2,0.2,0.2,0.8,0.2,0.2,0.2,0.8","",""
"","html-keyboard-response","69","42273","0.0-102.0","324G5B4FB4UPW2HVJEPR47ZY7SA701","A3HXCMU4MOPSQI","3TZDZ3Y0JSSRVQSC3SM97PDQ3Z7196","","null","<img src=""img/land6.png"" style=""width:200px; border:14px solid green;"">","null","","","","","","","",""
"","image-keyboard-response","70","42532","0.0-104.0","324G5B4FB4UPW2HVJEPR47ZY7SA701","A3HXCMU4MOPSQI","3TZDZ3Y0JSSRVQSC3SM97PDQ3Z7196","","258.20000000298023","img/land9.png","76","258.80000001192093","3","0","false","1","0.8,0.2,0.2,0.2,0.8,0.2,0.2,0.2,0.8","",""
"","html-keyboard-response","71","42834","0.0-105.0","324G5B4FB4UPW2HVJEPR47ZY7SA701","A3HXCMU4MOPSQI","3TZDZ3Y0JSSRVQSC3SM97PDQ3Z7196","","null","<img src=""img/land9.png"" style=""width:200px;border:14px solid red;"">","null","","","","","","","",""
"","image-keyboard-response","72","43192","0.0-107.0","324G5B4FB4UPW2HVJEPR47ZY7SA701","A3HXCMU4MOPSQI","3TZDZ3Y0JSSRVQSC3SM97PDQ3Z7196","","357.59999999403954","img/land5.png","75","358.20000000298023","2","1","false","2","0.8,0.2,0.2,0.2,0.8,0.2,0.2,0.2,0.8","",""
"","html-keyboard-response","73","43494","0.0-108.0","324G5B4FB4UPW2HVJEPR47ZY7SA701","A3HXCMU4MOPSQI","3TZDZ3Y0JSSRVQSC3SM97PDQ3Z7196","","null","<img src=""img/land5.png"" style=""width:200px; border:14px solid green;"">","null","","","","","","","",""
"","image-keyboard-response","74","43704","0.0-110.0","324G5B4FB4UPW2HVJEPR47ZY7SA701","A3HXCMU4MOPSQI","3TZDZ3Y0JSSRVQSC3SM97PDQ3Z7196","","209.90000000596046","img/land9.png","74","210.3999999910593","1","1","false","1","0.8,0.2,0.2,0.2,0.8,0.2,0.2,0.2,0.8","",""
"","html-keyboard-response","75","44006","0.0-111.0","324G5B4FB4UPW2HVJEPR47ZY7SA701","A3HXCMU4MOPSQI","3TZDZ3Y0JSSRVQSC3SM97PDQ3Z7196","","null","<img src=""img/land9.png"" style=""width:200px; border:14px solid green;"">","null","","","","","","","",""
"","image-keyboard-response","76","44355","0.0-113.0","324G5B4FB4UPW2HVJEPR47ZY7SA701","A3HXCMU4MOPSQI","3TZDZ3Y0JSSRVQSC3SM97PDQ3Z7196","","349","img/land5.png","74","349.6000000089407","1","0","false","2","0.8,0.2,0.2,0.2,0.8,0.2,0.2,0.2,0.8","",""
"","html-keyboard-response","77","44657","0.0-114.0","324G5B4FB4UPW2HVJEPR47ZY7SA701","A3HXCMU4MOPSQI","3TZDZ3Y0JSSRVQSC3SM97PDQ3Z7196","","null","<img src=""img/land5.png"" style=""width:200px;border:14px solid red;"">","null","","","","","","","",""
"","image-keyboard-response","78","44896","0.0-116.0","324G5B4FB4UPW2HVJEPR47ZY7SA701","A3HXCMU4MOPSQI","3TZDZ3Y0JSSRVQSC3SM97PDQ3Z7196","","238","img/land6.png","76","238.6000000089407","3","1","false","3","0.8,0.2,0.2,0.2,0.8,0.2,0.2,0.2,0.8","",""
"","html-keyboard-response","79","45197","0.0-117.0","324G5B4FB4UPW2HVJEPR47ZY7SA701","A3HXCMU4MOPSQI","3TZDZ3Y0JSSRVQSC3SM97PDQ3Z7196","","null","<img src=""img/land6.png"" style=""width:200px; border:14px solid green;"">","null","","","","","","","",""
"","image-keyboard-response","80","45359","0.0-119.0","324G5B4FB4UPW2HVJEPR47ZY7SA701","A3HXCMU4MOPSQI","3TZDZ3Y0JSSRVQSC3SM97PDQ3Z7196","","161.8999999910593","img/land5.png","76","162.3999999910593","3","1","false","2","0.8,0.2,0.2,0.2,0.8,0.2,0.2,0.2,0.8","",""
"","html-keyboard-response","81","45660","0.0-120.0","324G5B4FB4UPW2HVJEPR47ZY7SA701","A3HXCMU4MOPSQI","3TZDZ3Y0JSSRVQSC3SM97PDQ3Z7196","","null","<img src=""img/land5.png"" style=""width:200px; border:14px solid green;"">","null","","","","","","","",""
"","image-keyboard-response","82","45814","0.0-122.0","324G5B4FB4UPW2HVJEPR47ZY7SA701","A3HXCMU4MOPSQI","3TZDZ3Y0JSSRVQSC3SM97PDQ3Z7196","","152.29999999701977","img/land9.png","75","152.90000000596046","2","0","false","1","0.8,0.2,0.2,0.2,0.8,0.2,0.2,0.2,0.8","",""
"","html-keyboard-response","83","46114","0.0-123.0","324G5B4FB4UPW2HVJEPR47ZY7SA701","A3HXCMU4MOPSQI","3TZDZ3Y0JSSRVQSC3SM97PDQ3Z7196","","null","<img src=""img/land9.png"" style=""width:200px;border:14px solid red;"">","null","","","","","","","",""
"","image-keyboard-response","84","46360","0.0-125.0","324G5B4FB4UPW2HVJEPR47ZY7SA701","A3HXCMU4MOPSQI","3TZDZ3Y0JSSRVQSC3SM97PDQ3Z7196","","244.5","img/land9.png","76","245","3","0","false","1","0.8,0.2,0.2,0.2,0.8,0.2,0.2,0.2,0.8","",""
"","html-keyboard-response","85","46662","0.0-126.0","324G5B4FB4UPW2HVJEPR47ZY7SA701","A3HXCMU4MOPSQI","3TZDZ3Y0JSSRVQSC3SM97PDQ3Z7196","","null","<img src=""img/land9.png"" style=""width:200px;border:14px solid red;"">","null","","","","","","","",""
"","image-keyboard-response","86","46700","0.0-128.0","324G5B4FB4UPW2HVJEPR47ZY7SA701","A3HXCMU4MOPSQI","3TZDZ3Y0JSSRVQSC3SM97PDQ3Z7196","","37","img/land5.png","74","37.6000000089407","1","0","false","2","0.8,0.2,0.2,0.2,0.8,0.2,0.2,0.2,0.8","",""
"","html-keyboard-response","87","47002","0.0-129.0","324G5B4FB4UPW2HVJEPR47ZY7SA701","A3HXCMU4MOPSQI","3TZDZ3Y0JSSRVQSC3SM97PDQ3Z7196","","null","<img src=""img/land5.png"" style=""width:200px;border:14px solid red;"">","null","","","","","","","",""
"","image-keyboard-response","88","47122","0.0-131.0","324G5B4FB4UPW2HVJEPR47ZY7SA701","A3HXCMU4MOPSQI","3TZDZ3Y0JSSRVQSC3SM97PDQ3Z7196","","119.29999999701977","img/land6.png","75","119.90000000596046","2","0","false","3","0.8,0.2,0.2,0.2,0.8,0.2,0.2,0.2,0.8","",""
"","html-keyboard-response","89","47428","0.0-132.0","324G5B4FB4UPW2HVJEPR47ZY7SA701","A3HXCMU4MOPSQI","3TZDZ3Y0JSSRVQSC3SM97PDQ3Z7196","","null","<img src=""img/land6.png"" style=""width:200px;border:14px solid red;"">","null","","","","","","","",""
"","image-keyboard-response","90","47766","0.0-134.0","324G5B4FB4UPW2HVJEPR47ZY7SA701","A3HXCMU4MOPSQI","3TZDZ3Y0JSSRVQSC3SM97PDQ3Z7196","","336.5","img/land6.png","74","337","1","1","false","3","0.8,0.2,0.2,0.2,0.8,0.2,0.2,0.2,0.8","",""
"","html-keyboard-response","91","48067","0.0-135.0","324G5B4FB4UPW2HVJEPR47ZY7SA701","A3HXCMU4MOPSQI","3TZDZ3Y0JSSRVQSC3SM97PDQ3Z7196","","null","<img src=""img/land6.png"" style=""width:200px; border:14px solid green;"">","null","","","","","","","",""
"","image-keyboard-response","92","48300","0.0-137.0","324G5B4FB4UPW2HVJEPR47ZY7SA701","A3HXCMU4MOPSQI","3TZDZ3Y0JSSRVQSC3SM97PDQ3Z7196","","232","img/land5.png","74","232.6000000089407","1","1","false","2","0.8,0.2,0.2,0.2,0.8,0.2,0.2,0.2,0.8","",""
"","html-keyboard-response","93","48601","0.0-138.0","324G5B4FB4UPW2HVJEPR47ZY7SA701","A3HXCMU4MOPSQI","3TZDZ3Y0JSSRVQSC3SM97PDQ3Z7196","","null","<img src=""img/land5.png"" style=""width:200px; border:14px solid green;"">","null","","","","","","","",""
"","image-keyboard-response","94","48828","0.0-140.0","324G5B4FB4UPW2HVJEPR47ZY7SA701","A3HXCMU4MOPSQI","3TZDZ3Y0JSSRVQSC3SM97PDQ3Z7196","","226.40000000596046","img/land5.png","75","227.1000000089407","2","1","false","2","0.8,0.2,0.2,0.2,0.8,0.2,0.2,0.2,0.8","",""
"","html-keyboard-response","95","49130","0.0-141.0","324G5B4FB4UPW2HVJEPR47ZY7SA701","A3HXCMU4MOPSQI","3TZDZ3Y0JSSRVQSC3SM97PDQ3Z7196","","null","<img src=""img/land5.png"" style=""width:200px; border:14px solid green;"">","null","","","","","","","",""
"","image-keyboard-response","96","49268","0.0-143.0","324G5B4FB4UPW2HVJEPR47ZY7SA701","A3HXCMU4MOPSQI","3TZDZ3Y0JSSRVQSC3SM97PDQ3Z7196","","137.40000000596046","img/land9.png","76","138","3","0","false","1","0.8,0.2,0.2,0.2,0.8,0.2,0.2,0.2,0.8","",""
"","html-keyboard-response","97","49569","0.0-144.0","324G5B4FB4UPW2HVJEPR47ZY7SA701","A3HXCMU4MOPSQI","3TZDZ3Y0JSSRVQSC3SM97PDQ3Z7196","","null","<img src=""img/land9.png"" style=""width:200px;border:14px solid red;"">","null","","","","","","","",""
"","image-keyboard-response","98","49854","0.0-146.0","324G5B4FB4UPW2HVJEPR47ZY7SA701","A3HXCMU4MOPSQI","3TZDZ3Y0JSSRVQSC3SM97PDQ3Z7196","","283.70000000298023","img/land9.png","75","284.20000000298023","2","0","false","1","0.8,0.2,0.2,0.2,0.8,0.2,0.2,0.2,0.8","",""
"","html-keyboard-response","99","50155","0.0-147.0","324G5B4FB4UPW2HVJEPR47ZY7SA701","A3HXCMU4MOPSQI","3TZDZ3Y0JSSRVQSC3SM97PDQ3Z7196","","null","<img src=""img/land9.png"" style=""width:200px;border:14px solid red;"">","null","","","","","","","",""
"","image-keyboard-response","100","50314","0.0-149.0","324G5B4FB4UPW2HVJEPR47ZY7SA701","A3HXCMU4MOPSQI","3TZDZ3Y0JSSRVQSC3SM97PDQ3Z7196","","157.90000000596046","img/land9.png","76","158.5","3","0","false","1","0.8,0.2,0.2,0.2,0.8,0.2,0.2,0.2,0.8","",""
"","html-keyboard-response","101","50615","0.0-150.0","324G5B4FB4UPW2HVJEPR47ZY7SA701","A3HXCMU4MOPSQI","3TZDZ3Y0JSSRVQSC3SM97PDQ3Z7196","","null","<img src=""img/land9.png"" style=""width:200px;border:14px solid red;"">","null","","","","","","","",""
"","image-keyboard-response","102","50760","0.0-152.0","324G5B4FB4UPW2HVJEPR47ZY7SA701","A3HXCMU4MOPSQI","3TZDZ3Y0JSSRVQSC3SM97PDQ3Z7196","","144","img/land5.png","74","144.6000000089407","1","0","false","2","0.8,0.2,0.2,0.2,0.8,0.2,0.2,0.2,0.8","",""
"","html-keyboard-response","103","51062","0.0-153.0","324G5B4FB4UPW2HVJEPR47ZY7SA701","A3HXCMU4MOPSQI","3TZDZ3Y0JSSRVQSC3SM97PDQ3Z7196","","null","<img src=""img/land5.png"" style=""width:200px;border:14px solid red;"">","null","","","","","","","",""
"","image-keyboard-response","104","51282","0.0-155.0","324G5B4FB4UPW2HVJEPR47ZY7SA701","A3HXCMU4MOPSQI","3TZDZ3Y0JSSRVQSC3SM97PDQ3Z7196","","219.70000000298023","img/land6.png","74","220.29999999701977","1","0","false","3","0.8,0.2,0.2,0.2,0.8,0.2,0.2,0.2,0.8","",""
"","html-keyboard-response","105","51584","0.0-156.0","324G5B4FB4UPW2HVJEPR47ZY7SA701","A3HXCMU4MOPSQI","3TZDZ3Y0JSSRVQSC3SM97PDQ3Z7196","","null","<img src=""img/land6.png"" style=""width:200px;border:14px solid red;"">","null","","","","","","","",""
"","image-keyboard-response","106","51680","0.0-158.0","324G5B4FB4UPW2HVJEPR47ZY7SA701","A3HXCMU4MOPSQI","3TZDZ3Y0JSSRVQSC3SM97PDQ3Z7196","","95.59999999403954","img/land9.png","75","96.20000000298023","2","0","false","1","0.8,0.2,0.2,0.2,0.8,0.2,0.2,0.2,0.8","",""
"","html-keyboard-response","107","51982","0.0-159.0","324G5B4FB4UPW2HVJEPR47ZY7SA701","A3HXCMU4MOPSQI","3TZDZ3Y0JSSRVQSC3SM97PDQ3Z7196","","null","<img src=""img/land9.png"" style=""width:200px;border:14px solid red;"">","null","","","","","","","",""
"","image-keyboard-response","108","52274","0.0-161.0","324G5B4FB4UPW2HVJEPR47ZY7SA701","A3HXCMU4MOPSQI","3TZDZ3Y0JSSRVQSC3SM97PDQ3Z7196","","291.5","img/land5.png","76","292.19999998807907","3","0","false","2","0.8,0.2,0.2,0.2,0.8,0.2,0.2,0.2,0.8","",""
"","html-keyboard-response","109","52576","0.0-162.0","324G5B4FB4UPW2HVJEPR47ZY7SA701","A3HXCMU4MOPSQI","3TZDZ3Y0JSSRVQSC3SM97PDQ3Z7196","","null","<img src=""img/land5.png"" style=""width:200px;border:14px solid red;"">","null","","","","","","","",""
"","image-keyboard-response","110","52904","0.0-164.0","324G5B4FB4UPW2HVJEPR47ZY7SA701","A3HXCMU4MOPSQI","3TZDZ3Y0JSSRVQSC3SM97PDQ3Z7196","","327.6000000089407","img/land6.png","76","328.29999999701977","3","1","false","3","0.8,0.2,0.2,0.2,0.8,0.2,0.2,0.2,0.8","",""
"","html-keyboard-response","111","53206","0.0-165.0","324G5B4FB4UPW2HVJEPR47ZY7SA701","A3HXCMU4MOPSQI","3TZDZ3Y0JSSRVQSC3SM97PDQ3Z7196","","null","<img src=""img/land6.png"" style=""width:200px; border:14px solid green;"">","null","","","","","","","",""
"","image-keyboard-response","112","53465","0.0-167.0","324G5B4FB4UPW2HVJEPR47ZY7SA701","A3HXCMU4MOPSQI","3TZDZ3Y0JSSRVQSC3SM97PDQ3Z7196","","259","img/land9.png","75","259.70000000298023","2","0","false","1","0.8,0.2,0.2,0.2,0.8,0.2,0.2,0.2,0.8","",""
"","html-keyboard-response","113","53767","0.0-168.0","324G5B4FB4UPW2HVJEPR47ZY7SA701","A3HXCMU4MOPSQI","3TZDZ3Y0JSSRVQSC3SM97PDQ3Z7196","","null","<img src=""img/land9.png"" style=""width:200px;border:14px solid red;"">","null","","","","","","","",""
"","image-keyboard-response","114","54046","0.0-170.0","324G5B4FB4UPW2HVJEPR47ZY7SA701","A3HXCMU4MOPSQI","3TZDZ3Y0JSSRVQSC3SM97PDQ3Z7196","","279","img/land5.png","76","279.6000000089407","3","1","false","2","0.8,0.2,0.2,0.2,0.8,0.2,0.2,0.2,0.8","",""
"","html-keyboard-response","115","54347","0.0-171.0","324G5B4FB4UPW2HVJEPR47ZY7SA701","A3HXCMU4MOPSQI","3TZDZ3Y0JSSRVQSC3SM97PDQ3Z7196","","null","<img src=""img/land5.png"" style=""width:200px; border:14px solid green;"">","null","","","","","","","",""
"","image-keyboard-response","116","54723","0.0-173.0","324G5B4FB4UPW2HVJEPR47ZY7SA701","A3HXCMU4MOPSQI","3TZDZ3Y0JSSRVQSC3SM97PDQ3Z7196","","374.29999999701977","img/land6.png","75","375","2","0","false","3","0.8,0.2,0.2,0.2,0.8,0.2,0.2,0.2,0.8","",""
"","html-keyboard-response","117","55024","0.0-174.0","324G5B4FB4UPW2HVJEPR47ZY7SA701","A3HXCMU4MOPSQI","3TZDZ3Y0JSSRVQSC3SM97PDQ3Z7196","","null","<img src=""img/land6.png"" style=""width:200px;border:14px solid red;"">","null","","","","","","","",""
"","image-keyboard-response","118","55289","0.0-176.0","324G5B4FB4UPW2HVJEPR47ZY7SA701","A3HXCMU4MOPSQI","3TZDZ3Y0JSSRVQSC3SM97PDQ3Z7196","","264.20000000298023","img/land6.png","74","264.90000000596046","1","0","false","3","0.8,0.2,0.2,0.2,0.8,0.2,0.2,0.2,0.8","",""
"","html-keyboard-response","119","55590","0.0-177.0","324G5B4FB4UPW2HVJEPR47ZY7SA701","A3HXCMU4MOPSQI","3TZDZ3Y0JSSRVQSC3SM97PDQ3Z7196","","null","<img src=""img/land6.png"" style=""width:200px;border:14px solid red;"">","null","","","","","","","",""
"","image-keyboard-response","120","55799","0.0-179.0","324G5B4FB4UPW2HVJEPR47ZY7SA701","A3HXCMU4MOPSQI","3TZDZ3Y0JSSRVQSC3SM97PDQ3Z7196","","208.20000000298023","img/land5.png","75","208.79999999701977","2","1","false","2","0.8,0.2,0.2,0.2,0.8,0.2,0.2,0.2,0.8","",""
"","html-keyboard-response","121","56101","0.0-180.0","324G5B4FB4UPW2HVJEPR47ZY7SA701","A3HXCMU4MOPSQI","3TZDZ3Y0JSSRVQSC3SM97PDQ3Z7196","","null","<img src=""img/land5.png"" style=""width:200px; border:14px solid green;"">","null","","","","","","","",""
"","image-keyboard-response","122","56361","0.0-182.0","324G5B4FB4UPW2HVJEPR47ZY7SA701","A3HXCMU4MOPSQI","3TZDZ3Y0JSSRVQSC3SM97PDQ3Z7196","","258.6000000089407","img/land6.png","76","259.1000000089407","3","1","false","3","0.8,0.2,0.2,0.2,0.8,0.2,0.2,0.2,0.8","",""
"","html-keyboard-response","123","56662","0.0-183.0","324G5B4FB4UPW2HVJEPR47ZY7SA701","A3HXCMU4MOPSQI","3TZDZ3Y0JSSRVQSC3SM97PDQ3Z7196","","null","<img src=""img/land6.png"" style=""width:200px; border:14px solid green;"">","null","","","","","","","",""
"","image-keyboard-response","124","56945","0.0-185.0","324G5B4FB4UPW2HVJEPR47ZY7SA701","A3HXCMU4MOPSQI","3TZDZ3Y0JSSRVQSC3SM97PDQ3Z7196","","281.79999999701977","img/land6.png","76","282.30000001192093","3","0","false","3","0.8,0.2,0.2,0.2,0.8,0.2,0.2,0.2,0.8","",""
"","html-keyboard-response","125","57246","0.0-186.0","324G5B4FB4UPW2HVJEPR47ZY7SA701","A3HXCMU4MOPSQI","3TZDZ3Y0JSSRVQSC3SM97PDQ3Z7196","","null","<img src=""img/land6.png"" style=""width:200px;border:14px solid red;"">","null","","","","","","","",""
"","image-keyboard-response","126","57497","0.0-188.0","324G5B4FB4UPW2HVJEPR47ZY7SA701","A3HXCMU4MOPSQI","3TZDZ3Y0JSSRVQSC3SM97PDQ3Z7196","","250.5","img/land9.png","75","251.1000000089407","2","1","false","1","0.8,0.2,0.2,0.2,0.8,0.2,0.2,0.2,0.8","",""
"","html-keyboard-response","127","57798","0.0-189.0","324G5B4FB4UPW2HVJEPR47ZY7SA701","A3HXCMU4MOPSQI","3TZDZ3Y0JSSRVQSC3SM97PDQ3Z7196","","null","<img src=""img/land9.png"" style=""width:200px; border:14px solid green;"">","null","","","","","","","",""
"","image-keyboard-response","128","58033","0.0-191.0","324G5B4FB4UPW2HVJEPR47ZY7SA701","A3HXCMU4MOPSQI","3TZDZ3Y0JSSRVQSC3SM97PDQ3Z7196","","234.1000000089407","img/land5.png","74","234.70000000298023","1","0","false","2","0.8,0.2,0.2,0.2,0.8,0.2,0.2,0.2,0.8","",""
"","html-keyboard-response","129","58334","0.0-192.0","324G5B4FB4UPW2HVJEPR47ZY7SA701","A3HXCMU4MOPSQI","3TZDZ3Y0JSSRVQSC3SM97PDQ3Z7196","","null","<img src=""img/land5.png"" style=""width:200px;border:14px solid red;"">","null","","","","","","","",""
"","image-keyboard-response","130","58491","0.0-194.0","324G5B4FB4UPW2HVJEPR47ZY7SA701","A3HXCMU4MOPSQI","3TZDZ3Y0JSSRVQSC3SM97PDQ3Z7196","","156.59999999403954","img/land5.png","75","157.1000000089407","2","1","false","2","0.8,0.2,0.2,0.2,0.8,0.2,0.2,0.2,0.8","",""
"","html-keyboard-response","131","58806","0.0-195.0","324G5B4FB4UPW2HVJEPR47ZY7SA701","A3HXCMU4MOPSQI","3TZDZ3Y0JSSRVQSC3SM97PDQ3Z7196","","null","<img src=""img/land5.png"" style=""width:200px; border:14px solid green;"">","null","","","","","","","",""
"","image-keyboard-response","132","58973","0.0-197.0","324G5B4FB4UPW2HVJEPR47ZY7SA701","A3HXCMU4MOPSQI","3TZDZ3Y0JSSRVQSC3SM97PDQ3Z7196","","166","img/land5.png","75","166.5","2","0","false","2","0.8,0.2,0.2,0.2,0.8,0.2,0.2,0.2,0.8","",""
"","html-keyboard-response","133","59274","0.0-198.0","324G5B4FB4UPW2HVJEPR47ZY7SA701","A3HXCMU4MOPSQI","3TZDZ3Y0JSSRVQSC3SM97PDQ3Z7196","","null","<img src=""img/land5.png"" style=""width:200px;border:14px solid red;"">","null","","","","","","","",""
"","image-keyboard-response","134","59501","0.0-200.0","324G5B4FB4UPW2HVJEPR47ZY7SA701","A3HXCMU4MOPSQI","3TZDZ3Y0JSSRVQSC3SM97PDQ3Z7196","","226.20000000298023","img/land5.png","75","226.79999999701977","2","1","false","2","0.8,0.2,0.2,0.2,0.8,0.2,0.2,0.2,0.8","",""
"","html-keyboard-response","135","59802","0.0-201.0","324G5B4FB4UPW2HVJEPR47ZY7SA701","A3HXCMU4MOPSQI","3TZDZ3Y0JSSRVQSC3SM97PDQ3Z7196","","null","<img src=""img/land5.png"" style=""width:200px; border:14px solid green;"">","null","","","","","","","",""
"","image-keyboard-response","136","60285","0.0-203.0","324G5B4FB4UPW2HVJEPR47ZY7SA701","A3HXCMU4MOPSQI","3TZDZ3Y0JSSRVQSC3SM97PDQ3Z7196","","482.5","img/land6.png","76","483.09999999403954","3","1","false","3","0.8,0.2,0.2,0.2,0.8,0.2,0.2,0.2,0.8","",""
"","html-keyboard-response","137","60587","0.0-204.0","324G5B4FB4UPW2HVJEPR47ZY7SA701","A3HXCMU4MOPSQI","3TZDZ3Y0JSSRVQSC3SM97PDQ3Z7196","","null","<img src=""img/land6.png"" style=""width:200px; border:14px solid green;"">","null","","","","","","","",""
"","image-keyboard-response","138","60827","0.0-206.0","324G5B4FB4UPW2HVJEPR47ZY7SA701","A3HXCMU4MOPSQI","3TZDZ3Y0JSSRVQSC3SM97PDQ3Z7196","","239.09999999403954","img/land5.png","76","239.70000000298023","3","0","false","2","0.8,0.2,0.2,0.2,0.8,0.2,0.2,0.2,0.8","",""
"","html-keyboard-response","139","61129","0.0-207.0","324G5B4FB4UPW2HVJEPR47ZY7SA701","A3HXCMU4MOPSQI","3TZDZ3Y0JSSRVQSC3SM97PDQ3Z7196","","null","<img src=""img/land5.png"" style=""width:200px;border:14px solid red;"">","null","","","","","","","",""
"","image-keyboard-response","140","61403","0.0-209.0","324G5B4FB4UPW2HVJEPR47ZY7SA701","A3HXCMU4MOPSQI","3TZDZ3Y0JSSRVQSC3SM97PDQ3Z7196","","273.20000000298023","img/land9.png","76","273.8999999910593","3","0","false","1","0.8,0.2,0.2,0.2,0.8,0.2,0.2,0.2,0.8","",""
"","html-keyboard-response","141","61705","0.0-210.0","324G5B4FB4UPW2HVJEPR47ZY7SA701","A3HXCMU4MOPSQI","3TZDZ3Y0JSSRVQSC3SM97PDQ3Z7196","","null","<img src=""img/land9.png"" style=""width:200px;border:14px solid red;"">","null","","","","","","","",""
"","image-keyboard-response","142","62255","0.0-212.0","324G5B4FB4UPW2HVJEPR47ZY7SA701","A3HXCMU4MOPSQI","3TZDZ3Y0JSSRVQSC3SM97PDQ3Z7196","","549.9000000059605","img/land9.png","74","550.6000000089407","1","1","false","1","0.8,0.2,0.2,0.2,0.8,0.2,0.2,0.2,0.8","",""
"","html-keyboard-response","143","62566","0.0-213.0","324G5B4FB4UPW2HVJEPR47ZY7SA701","A3HXCMU4MOPSQI","3TZDZ3Y0JSSRVQSC3SM97PDQ3Z7196","","null","<img src=""img/land9.png"" style=""width:200px; border:14px solid green;"">","null","","","","","","","",""
"","image-keyboard-response","144","62857","0.0-215.0","324G5B4FB4UPW2HVJEPR47ZY7SA701","A3HXCMU4MOPSQI","3TZDZ3Y0JSSRVQSC3SM97PDQ3Z7196","","290.90000000596046","img/land5.png","75","291.59999999403954","2","1","false","2","0.8,0.2,0.2,0.2,0.8,0.2,0.2,0.2,0.8","",""
"","html-keyboard-response","145","63159","0.0-216.0","324G5B4FB4UPW2HVJEPR47ZY7SA701","A3HXCMU4MOPSQI","3TZDZ3Y0JSSRVQSC3SM97PDQ3Z7196","","null","<img src=""img/land5.png"" style=""width:200px; border:14px solid green;"">","null","","","","","","","",""
"","image-keyboard-response","146","63385","0.0-218.0","324G5B4FB4UPW2HVJEPR47ZY7SA701","A3HXCMU4MOPSQI","3TZDZ3Y0JSSRVQSC3SM97PDQ3Z7196","","224.19999998807907","img/land9.png","75","224.90000000596046","2","0","false","1","0.8,0.2,0.2,0.2,0.8,0.2,0.2,0.2,0.8","",""
"","html-keyboard-response","147","63686","0.0-219.0","324G5B4FB4UPW2HVJEPR47ZY7SA701","A3HXCMU4MOPSQI","3TZDZ3Y0JSSRVQSC3SM97PDQ3Z7196","","null","<img src=""img/land9.png"" style=""width:200px;border:14px solid red;"">","null","","","","","","","",""
"","image-keyboard-response","148","63999","0.0-221.0","324G5B4FB4UPW2HVJEPR47ZY7SA701","A3HXCMU4MOPSQI","3TZDZ3Y0JSSRVQSC3SM97PDQ3Z7196","","312.29999999701977","img/land9.png","76","312.90000000596046","3","0","false","1","0.8,0.2,0.2,0.2,0.8,0.2,0.2,0.2,0.8","",""
"","html-keyboard-response","149","64300","0.0-222.0","324G5B4FB4UPW2HVJEPR47ZY7SA701","A3HXCMU4MOPSQI","3TZDZ3Y0JSSRVQSC3SM97PDQ3Z7196","","null","<img src=""img/land9.png"" style=""width:200px;border:14px solid red;"">","null","","","","","","","",""
"","image-keyboard-response","150","64612","0.0-224.0","324G5B4FB4UPW2HVJEPR47ZY7SA701","A3HXCMU4MOPSQI","3TZDZ3Y0JSSRVQSC3SM97PDQ3Z7196","","311.8999999910593","img/land5.png","74","312.6000000089407","1","0","false","2","0.8,0.2,0.2,0.2,0.8,0.2,0.2,0.2,0.8","",""
"","html-keyboard-response","151","64914","0.0-225.0","324G5B4FB4UPW2HVJEPR47ZY7SA701","A3HXCMU4MOPSQI","3TZDZ3Y0JSSRVQSC3SM97PDQ3Z7196","","null","<img src=""img/land5.png"" style=""width:200px;border:14px solid red;"">","null","","","","","","","",""
"","image-keyboard-response","152","65165","0.0-227.0","324G5B4FB4UPW2HVJEPR47ZY7SA701","A3HXCMU4MOPSQI","3TZDZ3Y0JSSRVQSC3SM97PDQ3Z7196","","250.29999999701977","img/land6.png","75","250.80000001192093","2","0","false","3","0.8,0.2,0.2,0.2,0.8,0.2,0.2,0.2,0.8","",""
"","html-keyboard-response","153","65466","0.0-228.0","324G5B4FB4UPW2HVJEPR47ZY7SA701","A3HXCMU4MOPSQI","3TZDZ3Y0JSSRVQSC3SM97PDQ3Z7196","","null","<img src=""img/land6.png"" style=""width:200px;border:14px solid red;"">","null","","","","","","","",""
"","image-keyboard-response","154","65745","0.0-230.0","324G5B4FB4UPW2HVJEPR47ZY7SA701","A3HXCMU4MOPSQI","3TZDZ3Y0JSSRVQSC3SM97PDQ3Z7196","","278.1000000089407","img/land5.png","76","278.70000000298023","3","0","false","2","0.8,0.2,0.2,0.2,0.8,0.2,0.2,0.2,0.8","",""
"","html-keyboard-response","155","66046","0.0-231.0","324G5B4FB4UPW2HVJEPR47ZY7SA701","A3HXCMU4MOPSQI","3TZDZ3Y0JSSRVQSC3SM97PDQ3Z7196","","null","<img src=""img/land5.png"" style=""width:200px;border:14px solid red;"">","null","","","","","","","",""
"","image-keyboard-response","156","66349","0.0-233.0","324G5B4FB4UPW2HVJEPR47ZY7SA701","A3HXCMU4MOPSQI","3TZDZ3Y0JSSRVQSC3SM97PDQ3Z7196","","302.20000000298023","img/land9.png","74","302.79999999701977","1","1","false","1","0.8,0.2,0.2,0.2,0.8,0.2,0.2,0.2,0.8","",""
"","html-keyboard-response","157","66651","0.0-234.0","324G5B4FB4UPW2HVJEPR47ZY7SA701","A3HXCMU4MOPSQI","3TZDZ3Y0JSSRVQSC3SM97PDQ3Z7196","","null","<img src=""img/land9.png"" style=""width:200px; border:14px solid green;"">","null","","","","","","","",""
"","image-keyboard-response","158","66867","0.0-236.0","324G5B4FB4UPW2HVJEPR47ZY7SA701","A3HXCMU4MOPSQI","3TZDZ3Y0JSSRVQSC3SM97PDQ3Z7196","","215.29999999701977","img/land6.png","74","216","1","0","false","3","0.8,0.2,0.2,0.2,0.8,0.2,0.2,0.2,0.8","",""
"","html-keyboard-response","159","67168","0.0-237.0","324G5B4FB4UPW2HVJEPR47ZY7SA701","A3HXCMU4MOPSQI","3TZDZ3Y0JSSRVQSC3SM97PDQ3Z7196","","null","<img src=""img/land6.png"" style=""width:200px;border:14px solid red;"">","null","","","","","","","",""
"","image-keyboard-response","160","67405","0.0-239.0","324G5B4FB4UPW2HVJEPR47ZY7SA701","A3HXCMU4MOPSQI","3TZDZ3Y0JSSRVQSC3SM97PDQ3Z7196","","236.40000000596046","img/land5.png","74","236.8999999910593","1","0","false","2","0.8,0.2,0.2,0.2,0.8,0.2,0.2,0.2,0.8","",""
"","html-keyboard-response","161","67707","0.0-240.0","324G5B4FB4UPW2HVJEPR47ZY7SA701","A3HXCMU4MOPSQI","3TZDZ3Y0JSSRVQSC3SM97PDQ3Z7196","","null","<img src=""img/land5.png"" style=""width:200px;border:14px solid red;"">","null","","","","","","","",""
"","image-keyboard-response","162","67873","0.0-242.0","324G5B4FB4UPW2HVJEPR47ZY7SA701","A3HXCMU4MOPSQI","3TZDZ3Y0JSSRVQSC3SM97PDQ3Z7196","","165.30000001192093","img/land9.png","76","165.90000000596046","3","0","false","1","0.8,0.2,0.2,0.2,0.8,0.2,0.2,0.2,0.8","",""
"","html-keyboard-response","163","68174","0.0-243.0","324G5B4FB4UPW2HVJEPR47ZY7SA701","A3HXCMU4MOPSQI","3TZDZ3Y0JSSRVQSC3SM97PDQ3Z7196","","null","<img src=""img/land9.png"" style=""width:200px;border:14px solid red;"">","null","","","","","","","",""
"","image-keyboard-response","164","68357","0.0-245.0","324G5B4FB4UPW2HVJEPR47ZY7SA701","A3HXCMU4MOPSQI","3TZDZ3Y0JSSRVQSC3SM97PDQ3Z7196","","181.70000000298023","img/land6.png","74","182.29999999701977","1","0","false","3","0.8,0.2,0.2,0.2,0.8,0.2,0.2,0.2,0.8","",""
"","html-keyboard-response","165","68658","0.0-246.0","324G5B4FB4UPW2HVJEPR47ZY7SA701","A3HXCMU4MOPSQI","3TZDZ3Y0JSSRVQSC3SM97PDQ3Z7196","","null","<img src=""img/land6.png"" style=""width:200px;border:14px solid red;"">","null","","","","","","","",""
"","image-keyboard-response","166","68861","0.0-248.0","324G5B4FB4UPW2HVJEPR47ZY7SA701","A3HXCMU4MOPSQI","3TZDZ3Y0JSSRVQSC3SM97PDQ3Z7196","","201.70000000298023","img/land5.png","74","202.40000000596046","1","0","false","2","0.8,0.2,0.2,0.2,0.8,0.2,0.2,0.2,0.8","",""
"","html-keyboard-response","167","69162","0.0-249.0","324G5B4FB4UPW2HVJEPR47ZY7SA701","A3HXCMU4MOPSQI","3TZDZ3Y0JSSRVQSC3SM97PDQ3Z7196","","null","<img src=""img/land5.png"" style=""width:200px;border:14px solid red;"">","null","","","","","","","",""
"","image-keyboard-response","168","69301","0.0-251.0","324G5B4FB4UPW2HVJEPR47ZY7SA701","A3HXCMU4MOPSQI","3TZDZ3Y0JSSRVQSC3SM97PDQ3Z7196","","137.70000000298023","img/land6.png","75","138.20000000298023","2","1","false","3","0.8,0.2,0.2,0.2,0.8,0.2,0.2,0.2,0.8","",""
"","html-keyboard-response","169","69602","0.0-252.0","324G5B4FB4UPW2HVJEPR47ZY7SA701","A3HXCMU4MOPSQI","3TZDZ3Y0JSSRVQSC3SM97PDQ3Z7196","","null","<img src=""img/land6.png"" style=""width:200px; border:14px solid green;"">","null","","","","","","","",""
"","image-keyboard-response","170","69803","0.0-254.0","324G5B4FB4UPW2HVJEPR47ZY7SA701","A3HXCMU4MOPSQI","3TZDZ3Y0JSSRVQSC3SM97PDQ3Z7196","","200.19999998807907","img/land5.png","76","200.79999999701977","3","0","false","2","0.8,0.2,0.2,0.2,0.8,0.2,0.2,0.2,0.8","",""
"","html-keyboard-response","171","70105","0.0-255.0","324G5B4FB4UPW2HVJEPR47ZY7SA701","A3HXCMU4MOPSQI","3TZDZ3Y0JSSRVQSC3SM97PDQ3Z7196","","null","<img src=""img/land5.png"" style=""width:200px;border:14px solid red;"">","null","","","","","","","",""
"","image-keyboard-response","172","70299","0.0-257.0","324G5B4FB4UPW2HVJEPR47ZY7SA701","A3HXCMU4MOPSQI","3TZDZ3Y0JSSRVQSC3SM97PDQ3Z7196","","193.79999999701977","img/land9.png","75","194.29999999701977","2","0","false","1","0.8,0.2,0.2,0.2,0.8,0.2,0.2,0.2,0.8","",""
"","html-keyboard-response","173","70600","0.0-258.0","324G5B4FB4UPW2HVJEPR47ZY7SA701","A3HXCMU4MOPSQI","3TZDZ3Y0JSSRVQSC3SM97PDQ3Z7196","","null","<img src=""img/land9.png"" style=""width:200px;border:14px solid red;"">","null","","","","","","","",""
"","image-keyboard-response","174","70825","0.0-260.0","324G5B4FB4UPW2HVJEPR47ZY7SA701","A3HXCMU4MOPSQI","3TZDZ3Y0JSSRVQSC3SM97PDQ3Z7196","","224","img/land6.png","74","224.59999999403954","1","1","false","3","0.8,0.2,0.2,0.2,0.8,0.2,0.2,0.2,0.8","",""
"","html-keyboard-response","175","71127","0.0-261.0","324G5B4FB4UPW2HVJEPR47ZY7SA701","A3HXCMU4MOPSQI","3TZDZ3Y0JSSRVQSC3SM97PDQ3Z7196","","null","<img src=""img/land6.png"" style=""width:200px; border:14px solid green;"">","null","","","","","","","",""
"","image-keyboard-response","176","71311","0.0-263.0","324G5B4FB4UPW2HVJEPR47ZY7SA701","A3HXCMU4MOPSQI","3TZDZ3Y0JSSRVQSC3SM97PDQ3Z7196","","183.79999999701977","img/land6.png","75","184.5","2","0","false","3","0.8,0.2,0.2,0.2,0.8,0.2,0.2,0.2,0.8","",""
"","html-keyboard-response","177","71612","0.0-264.0","324G5B4FB4UPW2HVJEPR47ZY7SA701","A3HXCMU4MOPSQI","3TZDZ3Y0JSSRVQSC3SM97PDQ3Z7196","","null","<img src=""img/land6.png"" style=""width:200px;border:14px solid red;"">","null","","","","","","","",""
"","image-keyboard-response","178","71769","0.0-266.0","324G5B4FB4UPW2HVJEPR47ZY7SA701","A3HXCMU4MOPSQI","3TZDZ3Y0JSSRVQSC3SM97PDQ3Z7196","","156.1000000089407","img/land5.png","75","156.69999998807907","2","0","false","2","0.8,0.2,0.2,0.2,0.8,0.2,0.2,0.2,0.8","",""
"","html-keyboard-response","179","72071","0.0-267.0","324G5B4FB4UPW2HVJEPR47ZY7SA701","A3HXCMU4MOPSQI","3TZDZ3Y0JSSRVQSC3SM97PDQ3Z7196","","null","<img src=""img/land5.png"" style=""width:200px;border:14px solid red;"">","null","","","","","","","",""
"","image-keyboard-response","180","72131","0.0-269.0","324G5B4FB4UPW2HVJEPR47ZY7SA701","A3HXCMU4MOPSQI","3TZDZ3Y0JSSRVQSC3SM97PDQ3Z7196","","60","img/land5.png","76","60.599999994039536","3","0","false","2","0.8,0.2,0.2,0.2,0.8,0.2,0.2,0.2,0.8","",""
"","html-keyboard-response","181","72432","0.0-270.0","324G5B4FB4UPW2HVJEPR47ZY7SA701","A3HXCMU4MOPSQI","3TZDZ3Y0JSSRVQSC3SM97PDQ3Z7196","","null","<img src=""img/land5.png"" style=""width:200px;border:14px solid red;"">","null","","","","","","","",""
"","html-keyboard-response","182","74715","0.0-272.0","324G5B4FB4UPW2HVJEPR47ZY7SA701","A3HXCMU4MOPSQI","3TZDZ3Y0JSSRVQSC3SM97PDQ3Z7196","","","","","","","","","","","",""
"","image-keyboard-response","183","75144","0.0-273.0","324G5B4FB4UPW2HVJEPR47ZY7SA701","A3HXCMU4MOPSQI","3TZDZ3Y0JSSRVQSC3SM97PDQ3Z7196","","427.3999999910593","img/land1.png","75","428.19999998807907","2","0","false","3","0.8,0.8,0.2,0.2,0.8,0.8,0.8,0.2,0.8","",""
"","html-keyboard-response","184","75445","0.0-274.0","324G5B4FB4UPW2HVJEPR47ZY7SA701","A3HXCMU4MOPSQI","3TZDZ3Y0JSSRVQSC3SM97PDQ3Z7196","","null","<img src=""img/land1.png"" style=""width:200px;border:14px solid red;"">","null","","","","","","","",""
"","image-keyboard-response","185","75610","0.0-276.0","324G5B4FB4UPW2HVJEPR47ZY7SA701","A3HXCMU4MOPSQI","3TZDZ3Y0JSSRVQSC3SM97PDQ3Z7196","","164.1000000089407","img/land1.png","76","164.8999999910593","3","1","false","3","0.8,0.8,0.2,0.2,0.8,0.8,0.8,0.2,0.8","",""
"","html-keyboard-response","186","75912","0.0-277.0","324G5B4FB4UPW2HVJEPR47ZY7SA701","A3HXCMU4MOPSQI","3TZDZ3Y0JSSRVQSC3SM97PDQ3Z7196","","null","<img src=""img/land1.png"" style=""width:200px; border:14px solid green;"">","null","","","","","","","",""
"","image-keyboard-response","187","76114","0.0-279.0","324G5B4FB4UPW2HVJEPR47ZY7SA701","A3HXCMU4MOPSQI","3TZDZ3Y0JSSRVQSC3SM97PDQ3Z7196","","200.90000000596046","img/land1.png","74","201.5","1","1","false","3","0.8,0.8,0.2,0.2,0.8,0.8,0.8,0.2,0.8","",""
"","html-keyboard-response","188","76415","0.0-280.0","324G5B4FB4UPW2HVJEPR47ZY7SA701","A3HXCMU4MOPSQI","3TZDZ3Y0JSSRVQSC3SM97PDQ3Z7196","","null","<img src=""img/land1.png"" style=""width:200px; border:14px solid green;"">","null","","","","","","","",""
"","image-keyboard-response","189","76726","0.0-282.0","324G5B4FB4UPW2HVJEPR47ZY7SA701","A3HXCMU4MOPSQI","3TZDZ3Y0JSSRVQSC3SM97PDQ3Z7196","","310.29999999701977","img/land1.png","75","310.8999999910593","2","0","false","3","0.8,0.8,0.2,0.2,0.8,0.8,0.8,0.2,0.8","",""
"","html-keyboard-response","190","77027","0.0-283.0","324G5B4FB4UPW2HVJEPR47ZY7SA701","A3HXCMU4MOPSQI","3TZDZ3Y0JSSRVQSC3SM97PDQ3Z7196","","null","<img src=""img/land1.png"" style=""width:200px;border:14px solid red;"">","null","","","","","","","",""
"","image-keyboard-response","191","77258","0.0-285.0","324G5B4FB4UPW2HVJEPR47ZY7SA701","A3HXCMU4MOPSQI","3TZDZ3Y0JSSRVQSC3SM97PDQ3Z7196","","229.6000000089407","img/land1.png","76","230.19999998807907","3","1","false","3","0.8,0.8,0.2,0.2,0.8,0.8,0.8,0.2,0.8","",""
"","html-keyboard-response","192","77559","0.0-286.0","324G5B4FB4UPW2HVJEPR47ZY7SA701","A3HXCMU4MOPSQI","3TZDZ3Y0JSSRVQSC3SM97PDQ3Z7196","","null","<img src=""img/land1.png"" style=""width:200px; border:14px solid green;"">","null","","","","","","","",""
"","image-keyboard-response","193","77760","0.0-288.0","324G5B4FB4UPW2HVJEPR47ZY7SA701","A3HXCMU4MOPSQI","3TZDZ3Y0JSSRVQSC3SM97PDQ3Z7196","","199.69999998807907","img/land7.png","74","200.30000001192093","1","0","false","2","0.8,0.8,0.2,0.2,0.8,0.8,0.8,0.2,0.8","",""
"","html-keyboard-response","194","78076","0.0-289.0","324G5B4FB4UPW2HVJEPR47ZY7SA701","A3HXCMU4MOPSQI","3TZDZ3Y0JSSRVQSC3SM97PDQ3Z7196","","null","<img src=""img/land7.png"" style=""width:200px;border:14px solid red;"">","null","","","","","","","",""
"","image-keyboard-response","195","78344","0.0-291.0","324G5B4FB4UPW2HVJEPR47ZY7SA701","A3HXCMU4MOPSQI","3TZDZ3Y0JSSRVQSC3SM97PDQ3Z7196","","266.8999999910593","img/land1.png","75","267.5","2","0","false","3","0.8,0.8,0.2,0.2,0.8,0.8,0.8,0.2,0.8","",""
"","html-keyboard-response","196","78645","0.0-292.0","324G5B4FB4UPW2HVJEPR47ZY7SA701","A3HXCMU4MOPSQI","3TZDZ3Y0JSSRVQSC3SM97PDQ3Z7196","","null","<img src=""img/land1.png"" style=""width:200px;border:14px solid red;"">","null","","","","","","","",""
"","image-keyboard-response","197","78978","0.0-294.0","324G5B4FB4UPW2HVJEPR47ZY7SA701","A3HXCMU4MOPSQI","3TZDZ3Y0JSSRVQSC3SM97PDQ3Z7196","","331.79999999701977","img/land7.png","74","332.30000001192093","1","0","false","2","0.8,0.8,0.2,0.2,0.8,0.8,0.8,0.2,0.8","",""
"","html-keyboard-response","198","79279","0.0-295.0","324G5B4FB4UPW2HVJEPR47ZY7SA701","A3HXCMU4MOPSQI","3TZDZ3Y0JSSRVQSC3SM97PDQ3Z7196","","null","<img src=""img/land7.png"" style=""width:200px;border:14px solid red;"">","null","","","","","","","",""
"","image-keyboard-response","199","79396","0.0-297.0","324G5B4FB4UPW2HVJEPR47ZY7SA701","A3HXCMU4MOPSQI","3TZDZ3Y0JSSRVQSC3SM97PDQ3Z7196","","115.79999999701977","img/land1.png","76","116.40000000596046","3","1","false","3","0.8,0.8,0.2,0.2,0.8,0.8,0.8,0.2,0.8","",""
"","html-keyboard-response","200","79697","0.0-298.0","324G5B4FB4UPW2HVJEPR47ZY7SA701","A3HXCMU4MOPSQI","3TZDZ3Y0JSSRVQSC3SM97PDQ3Z7196","","null","<img src=""img/land1.png"" style=""width:200px; border:14px solid green;"">","null","","","","","","","",""
"","image-keyboard-response","201","79862","0.0-300.0","324G5B4FB4UPW2HVJEPR47ZY7SA701","A3HXCMU4MOPSQI","3TZDZ3Y0JSSRVQSC3SM97PDQ3Z7196","","164.20000000298023","img/land1.png","75","164.90000000596046","2","0","false","3","0.8,0.8,0.2,0.2,0.8,0.8,0.8,0.2,0.8","",""
"","html-keyboard-response","202","80165","0.0-301.0","324G5B4FB4UPW2HVJEPR47ZY7SA701","A3HXCMU4MOPSQI","3TZDZ3Y0JSSRVQSC3SM97PDQ3Z7196","","null","<img src=""img/land1.png"" style=""width:200px;border:14px solid red;"">","null","","","","","","","",""
"","image-keyboard-response","203","80336","0.0-303.0","324G5B4FB4UPW2HVJEPR47ZY7SA701","A3HXCMU4MOPSQI","3TZDZ3Y0JSSRVQSC3SM97PDQ3Z7196","","170.79999999701977","img/land1.png","74","171.5","1","1","false","3","0.8,0.8,0.2,0.2,0.8,0.8,0.8,0.2,0.8","",""
"","html-keyboard-response","204","80646","0.0-304.0","324G5B4FB4UPW2HVJEPR47ZY7SA701","A3HXCMU4MOPSQI","3TZDZ3Y0JSSRVQSC3SM97PDQ3Z7196","","null","<img src=""img/land1.png"" style=""width:200px; border:14px solid green;"">","null","","","","","","","",""
"","image-keyboard-response","205","80808","0.0-306.0","324G5B4FB4UPW2HVJEPR47ZY7SA701","A3HXCMU4MOPSQI","3TZDZ3Y0JSSRVQSC3SM97PDQ3Z7196","","161.09999999403954","img/land7.png","76","161.79999999701977","3","0","false","2","0.8,0.8,0.2,0.2,0.8,0.8,0.8,0.2,0.8","",""
"","html-keyboard-response","206","81110","0.0-307.0","324G5B4FB4UPW2HVJEPR47ZY7SA701","A3HXCMU4MOPSQI","3TZDZ3Y0JSSRVQSC3SM97PDQ3Z7196","","null","<img src=""img/land7.png"" style=""width:200px;border:14px solid red;"">","null","","","","","","","",""
"","image-keyboard-response","207","81248","0.0-309.0","324G5B4FB4UPW2HVJEPR47ZY7SA701","A3HXCMU4MOPSQI","3TZDZ3Y0JSSRVQSC3SM97PDQ3Z7196","","137.70000000298023","img/land8.png","75","138.29999999701977","2","1","false","1","0.8,0.8,0.2,0.2,0.8,0.8,0.8,0.2,0.8","",""
"","html-keyboard-response","208","81550","0.0-310.0","324G5B4FB4UPW2HVJEPR47ZY7SA701","A3HXCMU4MOPSQI","3TZDZ3Y0JSSRVQSC3SM97PDQ3Z7196","","null","<img src=""img/land8.png"" style=""width:200px; border:14px solid green;"">","null","","","","","","","",""
"","image-keyboard-response","209","81798","0.0-312.0","324G5B4FB4UPW2HVJEPR47ZY7SA701","A3HXCMU4MOPSQI","3TZDZ3Y0JSSRVQSC3SM97PDQ3Z7196","","247.79999999701977","img/land8.png","74","248.3999999910593","1","1","false","1","0.8,0.8,0.2,0.2,0.8,0.8,0.8,0.2,0.8","",""
"","html-keyboard-response","210","82100","0.0-313.0","324G5B4FB4UPW2HVJEPR47ZY7SA701","A3HXCMU4MOPSQI","3TZDZ3Y0JSSRVQSC3SM97PDQ3Z7196","","null","<img src=""img/land8.png"" style=""width:200px; border:14px solid green;"">","null","","","","","","","",""
"","image-keyboard-response","211","82272","0.0-315.0","324G5B4FB4UPW2HVJEPR47ZY7SA701","A3HXCMU4MOPSQI","3TZDZ3Y0JSSRVQSC3SM97PDQ3Z7196","","170.8999999910593","img/land8.png","76","171.5","3","0","false","1","0.8,0.8,0.2,0.2,0.8,0.8,0.8,0.2,0.8","",""
"","html-keyboard-response","212","82573","0.0-316.0","324G5B4FB4UPW2HVJEPR47ZY7SA701","A3HXCMU4MOPSQI","3TZDZ3Y0JSSRVQSC3SM97PDQ3Z7196","","null","<img src=""img/land8.png"" style=""width:200px;border:14px solid red;"">","null","","","","","","","",""
"","image-keyboard-response","213","82825","0.0-318.0","324G5B4FB4UPW2HVJEPR47ZY7SA701","A3HXCMU4MOPSQI","3TZDZ3Y0JSSRVQSC3SM97PDQ3Z7196","","252","img/land8.png","75","252.5","2","1","false","1","0.8,0.8,0.2,0.2,0.8,0.8,0.8,0.2,0.8","",""
"","html-keyboard-response","214","83127","0.0-319.0","324G5B4FB4UPW2HVJEPR47ZY7SA701","A3HXCMU4MOPSQI","3TZDZ3Y0JSSRVQSC3SM97PDQ3Z7196","","null","<img src=""img/land8.png"" style=""width:200px; border:14px solid green;"">","null","","","","","","","",""
"","image-keyboard-response","215","83356","0.0-321.0","324G5B4FB4UPW2HVJEPR47ZY7SA701","A3HXCMU4MOPSQI","3TZDZ3Y0JSSRVQSC3SM97PDQ3Z7196","","227.79999999701977","img/land8.png","74","228.5","1","1","false","1","0.8,0.8,0.2,0.2,0.8,0.8,0.8,0.2,0.8","",""
"","html-keyboard-response","216","83658","0.0-322.0","324G5B4FB4UPW2HVJEPR47ZY7SA701","A3HXCMU4MOPSQI","3TZDZ3Y0JSSRVQSC3SM97PDQ3Z7196","","null","<img src=""img/land8.png"" style=""width:200px; border:14px solid green;"">","null","","","","","","","",""
"","image-keyboard-response","217","83839","0.0-324.0","324G5B4FB4UPW2HVJEPR47ZY7SA701","A3HXCMU4MOPSQI","3TZDZ3Y0JSSRVQSC3SM97PDQ3Z7196","","180.79999999701977","img/land1.png","75","181.59999999403954","2","0","false","3","0.8,0.8,0.2,0.2,0.8,0.8,0.8,0.2,0.8","",""
"","html-keyboard-response","218","84142","0.0-325.0","324G5B4FB4UPW2HVJEPR47ZY7SA701","A3HXCMU4MOPSQI","3TZDZ3Y0JSSRVQSC3SM97PDQ3Z7196","","null","<img src=""img/land1.png"" style=""width:200px;border:14px solid red;"">","null","","","","","","","",""
"","image-keyboard-response","219","84342","0.0-327.0","324G5B4FB4UPW2HVJEPR47ZY7SA701","A3HXCMU4MOPSQI","3TZDZ3Y0JSSRVQSC3SM97PDQ3Z7196","","199.20000000298023","img/land8.png","75","199.90000000596046","2","1","false","1","0.8,0.8,0.2,0.2,0.8,0.8,0.8,0.2,0.8","",""
"","html-keyboard-response","220","84643","0.0-328.0","324G5B4FB4UPW2HVJEPR47ZY7SA701","A3HXCMU4MOPSQI","3TZDZ3Y0JSSRVQSC3SM97PDQ3Z7196","","null","<img src=""img/land8.png"" style=""width:200px; border:14px solid green;"">","null","","","","","","","",""
"","image-keyboard-response","221","84954","0.0-330.0","324G5B4FB4UPW2HVJEPR47ZY7SA701","A3HXCMU4MOPSQI","3TZDZ3Y0JSSRVQSC3SM97PDQ3Z7196","","309.8999999910593","img/land8.png","75","310.59999999403954","2","1","false","1","0.8,0.8,0.2,0.2,0.8,0.8,0.8,0.2,0.8","",""
"","html-keyboard-response","222","85255","0.0-331.0","324G5B4FB4UPW2HVJEPR47ZY7SA701","A3HXCMU4MOPSQI","3TZDZ3Y0JSSRVQSC3SM97PDQ3Z7196","","null","<img src=""img/land8.png"" style=""width:200px; border:14px solid green;"">","null","","","","","","","",""
"","image-keyboard-response","223","85520","0.0-333.0","324G5B4FB4UPW2HVJEPR47ZY7SA701","A3HXCMU4MOPSQI","3TZDZ3Y0JSSRVQSC3SM97PDQ3Z7196","","264.20000000298023","img/land8.png","75","264.79999999701977","2","1","false","1","0.8,0.8,0.2,0.2,0.8,0.8,0.8,0.2,0.8","",""
"","html-keyboard-response","224","85822","0.0-334.0","324G5B4FB4UPW2HVJEPR47ZY7SA701","A3HXCMU4MOPSQI","3TZDZ3Y0JSSRVQSC3SM97PDQ3Z7196","","null","<img src=""img/land8.png"" style=""width:200px; border:14px solid green;"">","null","","","","","","","",""
"","image-keyboard-response","225","86058","0.0-336.0","324G5B4FB4UPW2HVJEPR47ZY7SA701","A3HXCMU4MOPSQI","3TZDZ3Y0JSSRVQSC3SM97PDQ3Z7196","","235.20000000298023","img/land8.png","75","235.90000000596046","2","1","false","1","0.8,0.8,0.2,0.2,0.8,0.8,0.8,0.2,0.8","",""
"","html-keyboard-response","226","86359","0.0-337.0","324G5B4FB4UPW2HVJEPR47ZY7SA701","A3HXCMU4MOPSQI","3TZDZ3Y0JSSRVQSC3SM97PDQ3Z7196","","null","<img src=""img/land8.png"" style=""width:200px; border:14px solid green;"">","null","","","","","","","",""
"","image-keyboard-response","227","86624","0.0-339.0","324G5B4FB4UPW2HVJEPR47ZY7SA701","A3HXCMU4MOPSQI","3TZDZ3Y0JSSRVQSC3SM97PDQ3Z7196","","263.5","img/land8.png","75","264.20000000298023","2","1","false","1","0.8,0.8,0.2,0.2,0.8,0.8,0.8,0.2,0.8","",""
"","html-keyboard-response","228","86925","0.0-340.0","324G5B4FB4UPW2HVJEPR47ZY7SA701","A3HXCMU4MOPSQI","3TZDZ3Y0JSSRVQSC3SM97PDQ3Z7196","","null","<img src=""img/land8.png"" style=""width:200px; border:14px solid green;"">","null","","","","","","","",""
"","image-keyboard-response","229","87176","0.0-342.0","324G5B4FB4UPW2HVJEPR47ZY7SA701","A3HXCMU4MOPSQI","3TZDZ3Y0JSSRVQSC3SM97PDQ3Z7196","","250.20000000298023","img/land8.png","75","250.8999999910593","2","1","false","1","0.8,0.8,0.2,0.2,0.8,0.8,0.8,0.2,0.8","",""
"","html-keyboard-response","230","87478","0.0-343.0","324G5B4FB4UPW2HVJEPR47ZY7SA701","A3HXCMU4MOPSQI","3TZDZ3Y0JSSRVQSC3SM97PDQ3Z7196","","null","<img src=""img/land8.png"" style=""width:200px; border:14px solid green;"">","null","","","","","","","",""
"","image-keyboard-response","231","87720","0.0-345.0","324G5B4FB4UPW2HVJEPR47ZY7SA701","A3HXCMU4MOPSQI","3TZDZ3Y0JSSRVQSC3SM97PDQ3Z7196","","241.59999999403954","img/land8.png","75","242.29999999701977","2","1","false","1","0.8,0.8,0.2,0.2,0.8,0.8,0.8,0.2,0.8","",""
"","html-keyboard-response","232","88022","0.0-346.0","324G5B4FB4UPW2HVJEPR47ZY7SA701","A3HXCMU4MOPSQI","3TZDZ3Y0JSSRVQSC3SM97PDQ3Z7196","","null","<img src=""img/land8.png"" style=""width:200px; border:14px solid green;"">","null","","","","","","","",""
"","image-keyboard-response","233","88262","0.0-348.0","324G5B4FB4UPW2HVJEPR47ZY7SA701","A3HXCMU4MOPSQI","3TZDZ3Y0JSSRVQSC3SM97PDQ3Z7196","","239.19999998807907","img/land1.png","75","240.30000001192093","2","0","false","3","0.8,0.8,0.2,0.2,0.8,0.8,0.8,0.2,0.8","",""
"","html-keyboard-response","234","88563","0.0-349.0","324G5B4FB4UPW2HVJEPR47ZY7SA701","A3HXCMU4MOPSQI","3TZDZ3Y0JSSRVQSC3SM97PDQ3Z7196","","null","<img src=""img/land1.png"" style=""width:200px;border:14px solid red;"">","null","","","","","","","",""
"","image-keyboard-response","235","88714","0.0-351.0","324G5B4FB4UPW2HVJEPR47ZY7SA701","A3HXCMU4MOPSQI","3TZDZ3Y0JSSRVQSC3SM97PDQ3Z7196","","149.90000000596046","img/land7.png","74","150.40000000596046","1","0","false","2","0.8,0.8,0.2,0.2,0.8,0.8,0.8,0.2,0.8","",""
"","html-keyboard-response","236","89015","0.0-352.0","324G5B4FB4UPW2HVJEPR47ZY7SA701","A3HXCMU4MOPSQI","3TZDZ3Y0JSSRVQSC3SM97PDQ3Z7196","","null","<img src=""img/land7.png"" style=""width:200px;border:14px solid red;"">","null","","","","","","","",""
"","image-keyboard-response","237","89228","0.0-354.0","324G5B4FB4UPW2HVJEPR47ZY7SA701","A3HXCMU4MOPSQI","3TZDZ3Y0JSSRVQSC3SM97PDQ3Z7196","","211.8999999910593","img/land1.png","74","212.5","1","1","false","3","0.8,0.8,0.2,0.2,0.8,0.8,0.8,0.2,0.8","",""
"","html-keyboard-response","238","89531","0.0-355.0","324G5B4FB4UPW2HVJEPR47ZY7SA701","A3HXCMU4MOPSQI","3TZDZ3Y0JSSRVQSC3SM97PDQ3Z7196","","null","<img src=""img/land1.png"" style=""width:200px; border:14px solid green;"">","null","","","","","","","",""
"","image-keyboard-response","239","89766","0.0-357.0","324G5B4FB4UPW2HVJEPR47ZY7SA701","A3HXCMU4MOPSQI","3TZDZ3Y0JSSRVQSC3SM97PDQ3Z7196","","234.79999999701977","img/land7.png","75","235.29999999701977","2","1","false","2","0.8,0.8,0.2,0.2,0.8,0.8,0.8,0.2,0.8","",""
"","html-keyboard-response","240","90067","0.0-358.0","324G5B4FB4UPW2HVJEPR47ZY7SA701","A3HXCMU4MOPSQI","3TZDZ3Y0JSSRVQSC3SM97PDQ3Z7196","","null","<img src=""img/land7.png"" style=""width:200px; border:14px solid green;"">","null","","","","","","","",""
"","image-keyboard-response","241","90360","0.0-360.0","324G5B4FB4UPW2HVJEPR47ZY7SA701","A3HXCMU4MOPSQI","3TZDZ3Y0JSSRVQSC3SM97PDQ3Z7196","","292.09999999403954","img/land7.png","74","292.70000000298023","1","0","false","2","0.8,0.8,0.2,0.2,0.8,0.8,0.8,0.2,0.8","",""
"","html-keyboard-response","242","90663","0.0-361.0","324G5B4FB4UPW2HVJEPR47ZY7SA701","A3HXCMU4MOPSQI","3TZDZ3Y0JSSRVQSC3SM97PDQ3Z7196","","null","<img src=""img/land7.png"" style=""width:200px;border:14px solid red;"">","null","","","","","","","",""
"","image-keyboard-response","243","90726","0.0-363.0","324G5B4FB4UPW2HVJEPR47ZY7SA701","A3HXCMU4MOPSQI","3TZDZ3Y0JSSRVQSC3SM97PDQ3Z7196","","62","img/land7.png","75","62.599999994039536","2","1","false","2","0.8,0.8,0.2,0.2,0.8,0.8,0.8,0.2,0.8","",""
"","html-keyboard-response","244","91028","0.0-364.0","324G5B4FB4UPW2HVJEPR47ZY7SA701","A3HXCMU4MOPSQI","3TZDZ3Y0JSSRVQSC3SM97PDQ3Z7196","","null","<img src=""img/land7.png"" style=""width:200px; border:14px solid green;"">","null","","","","","","","",""
"","image-keyboard-response","245","91242","0.0-366.0","324G5B4FB4UPW2HVJEPR47ZY7SA701","A3HXCMU4MOPSQI","3TZDZ3Y0JSSRVQSC3SM97PDQ3Z7196","","213.70000000298023","img/land7.png","75","214.40000000596046","2","1","false","2","0.8,0.8,0.2,0.2,0.8,0.8,0.8,0.2,0.8","",""
"","html-keyboard-response","246","91544","0.0-367.0","324G5B4FB4UPW2HVJEPR47ZY7SA701","A3HXCMU4MOPSQI","3TZDZ3Y0JSSRVQSC3SM97PDQ3Z7196","","null","<img src=""img/land7.png"" style=""width:200px; border:14px solid green;"">","null","","","","","","","",""
"","image-keyboard-response","247","91678","0.0-369.0","324G5B4FB4UPW2HVJEPR47ZY7SA701","A3HXCMU4MOPSQI","3TZDZ3Y0JSSRVQSC3SM97PDQ3Z7196","","133.6000000089407","img/land7.png","75","134.20000000298023","2","1","false","2","0.8,0.8,0.2,0.2,0.8,0.8,0.8,0.2,0.8","",""
"","html-keyboard-response","248","91980","0.0-370.0","324G5B4FB4UPW2HVJEPR47ZY7SA701","A3HXCMU4MOPSQI","3TZDZ3Y0JSSRVQSC3SM97PDQ3Z7196","","null","<img src=""img/land7.png"" style=""width:200px; border:14px solid green;"">","null","","","","","","","",""
"","image-keyboard-response","249","92115","0.0-372.0","324G5B4FB4UPW2HVJEPR47ZY7SA701","A3HXCMU4MOPSQI","3TZDZ3Y0JSSRVQSC3SM97PDQ3Z7196","","133.3999999910593","img/land1.png","75","134.1000000089407","2","0","false","3","0.8,0.8,0.2,0.2,0.8,0.8,0.8,0.2,0.8","",""
"","html-keyboard-response","250","92416","0.0-373.0","324G5B4FB4UPW2HVJEPR47ZY7SA701","A3HXCMU4MOPSQI","3TZDZ3Y0JSSRVQSC3SM97PDQ3Z7196","","null","<img src=""img/land1.png"" style=""width:200px;border:14px solid red;"">","null","","","","","","","",""
"","image-keyboard-response","251","92637","0.0-375.0","324G5B4FB4UPW2HVJEPR47ZY7SA701","A3HXCMU4MOPSQI","3TZDZ3Y0JSSRVQSC3SM97PDQ3Z7196","","219.59999999403954","img/land7.png","76","220.30000001192093","3","1","false","2","0.8,0.8,0.2,0.2,0.8,0.8,0.8,0.2,0.8","",""
"","html-keyboard-response","252","92938","0.0-376.0","324G5B4FB4UPW2HVJEPR47ZY7SA701","A3HXCMU4MOPSQI","3TZDZ3Y0JSSRVQSC3SM97PDQ3Z7196","","null","<img src=""img/land7.png"" style=""width:200px; border:14px solid green;"">","null","","","","","","","",""
"","image-keyboard-response","253","93137","0.0-378.0","324G5B4FB4UPW2HVJEPR47ZY7SA701","A3HXCMU4MOPSQI","3TZDZ3Y0JSSRVQSC3SM97PDQ3Z7196","","198.1000000089407","img/land8.png","76","198.79999999701977","3","0","false","1","0.8,0.8,0.2,0.2,0.8,0.8,0.8,0.2,0.8","",""
"","html-keyboard-response","254","93438","0.0-379.0","324G5B4FB4UPW2HVJEPR47ZY7SA701","A3HXCMU4MOPSQI","3TZDZ3Y0JSSRVQSC3SM97PDQ3Z7196","","null","<img src=""img/land8.png"" style=""width:200px;border:14px solid red;"">","null","","","","","","","",""
"","image-keyboard-response","255","93527","0.0-381.0","324G5B4FB4UPW2HVJEPR47ZY7SA701","A3HXCMU4MOPSQI","3TZDZ3Y0JSSRVQSC3SM97PDQ3Z7196","","87.40000000596046","img/land7.png","75","87.90000000596046","2","1","false","2","0.8,0.8,0.2,0.2,0.8,0.8,0.8,0.2,0.8","",""
"","html-keyboard-response","256","93829","0.0-382.0","324G5B4FB4UPW2HVJEPR47ZY7SA701","A3HXCMU4MOPSQI","3TZDZ3Y0JSSRVQSC3SM97PDQ3Z7196","","null","<img src=""img/land7.png"" style=""width:200px; border:14px solid green;"">","null","","","","","","","",""
"","image-keyboard-response","257","94015","0.0-384.0","324G5B4FB4UPW2HVJEPR47ZY7SA701","A3HXCMU4MOPSQI","3TZDZ3Y0JSSRVQSC3SM97PDQ3Z7196","","185.29999999701977","img/land8.png","75","186","2","1","false","1","0.8,0.8,0.2,0.2,0.8,0.8,0.8,0.2,0.8","",""
"","html-keyboard-response","258","94316","0.0-385.0","324G5B4FB4UPW2HVJEPR47ZY7SA701","A3HXCMU4MOPSQI","3TZDZ3Y0JSSRVQSC3SM97PDQ3Z7196","","null","<img src=""img/land8.png"" style=""width:200px; border:14px solid green;"">","null","","","","","","","",""
"","image-keyboard-response","259","94485","0.0-387.0","324G5B4FB4UPW2HVJEPR47ZY7SA701","A3HXCMU4MOPSQI","3TZDZ3Y0JSSRVQSC3SM97PDQ3Z7196","","168.30000001192093","img/land8.png","75","168.8999999910593","2","0","false","1","0.8,0.8,0.2,0.2,0.8,0.8,0.8,0.2,0.8","",""
"","html-keyboard-response","260","94787","0.0-388.0","324G5B4FB4UPW2HVJEPR47ZY7SA701","A3HXCMU4MOPSQI","3TZDZ3Y0JSSRVQSC3SM97PDQ3Z7196","","null","<img src=""img/land8.png"" style=""width:200px;border:14px solid red;"">","null","","","","","","","",""
"","image-keyboard-response","261","94976","0.0-390.0","324G5B4FB4UPW2HVJEPR47ZY7SA701","A3HXCMU4MOPSQI","3TZDZ3Y0JSSRVQSC3SM97PDQ3Z7196","","188","img/land7.png","75","188.6000000089407","2","0","false","2","0.8,0.8,0.2,0.2,0.8,0.8,0.8,0.2,0.8","",""
"","html-keyboard-response","262","95277","0.0-391.0","324G5B4FB4UPW2HVJEPR47ZY7SA701","A3HXCMU4MOPSQI","3TZDZ3Y0JSSRVQSC3SM97PDQ3Z7196","","null","<img src=""img/land7.png"" style=""width:200px;border:14px solid red;"">","null","","","","","","","",""
"","image-keyboard-response","263","95409","0.0-393.0","324G5B4FB4UPW2HVJEPR47ZY7SA701","A3HXCMU4MOPSQI","3TZDZ3Y0JSSRVQSC3SM97PDQ3Z7196","","131.79999999701977","img/land7.png","74","132.5","1","0","false","2","0.8,0.8,0.2,0.2,0.8,0.8,0.8,0.2,0.8","",""
"","html-keyboard-response","264","95710","0.0-394.0","324G5B4FB4UPW2HVJEPR47ZY7SA701","A3HXCMU4MOPSQI","3TZDZ3Y0JSSRVQSC3SM97PDQ3Z7196","","null","<img src=""img/land7.png"" style=""width:200px;border:14px solid red;"">","null","","","","","","","",""
"","image-keyboard-response","265","95915","0.0-396.0","324G5B4FB4UPW2HVJEPR47ZY7SA701","A3HXCMU4MOPSQI","3TZDZ3Y0JSSRVQSC3SM97PDQ3Z7196","","204.30000001192093","img/land1.png","74","204.90000000596046","1","1","false","3","0.8,0.8,0.2,0.2,0.8,0.8,0.8,0.2,0.8","",""
"","html-keyboard-response","266","96217","0.0-397.0","324G5B4FB4UPW2HVJEPR47ZY7SA701","A3HXCMU4MOPSQI","3TZDZ3Y0JSSRVQSC3SM97PDQ3Z7196","","null","<img src=""img/land1.png"" style=""width:200px; border:14px solid green;"">","null","","","","","","","",""
"","image-keyboard-response","267","96250","0.0-399.0","324G5B4FB4UPW2HVJEPR47ZY7SA701","A3HXCMU4MOPSQI","3TZDZ3Y0JSSRVQSC3SM97PDQ3Z7196","","32.20000000298023","img/land1.png","75","32.8999999910593","2","0","false","3","0.8,0.8,0.2,0.2,0.8,0.8,0.8,0.2,0.8","",""
"","html-keyboard-response","268","96551","0.0-400.0","324G5B4FB4UPW2HVJEPR47ZY7SA701","A3HXCMU4MOPSQI","3TZDZ3Y0JSSRVQSC3SM97PDQ3Z7196","","null","<img src=""img/land1.png"" style=""width:200px;border:14px solid red;"">","null","","","","","","","",""
"","image-keyboard-response","269","96762","0.0-402.0","324G5B4FB4UPW2HVJEPR47ZY7SA701","A3HXCMU4MOPSQI","3TZDZ3Y0JSSRVQSC3SM97PDQ3Z7196","","209.40000000596046","img/land7.png","76","210","3","1","false","2","0.8,0.8,0.2,0.2,0.8,0.8,0.8,0.2,0.8","",""
"","html-keyboard-response","270","97063","0.0-403.0","324G5B4FB4UPW2HVJEPR47ZY7SA701","A3HXCMU4MOPSQI","3TZDZ3Y0JSSRVQSC3SM97PDQ3Z7196","","null","<img src=""img/land7.png"" style=""width:200px; border:14px solid green;"">","null","","","","","","","",""
"","image-keyboard-response","271","97292","0.0-405.0","324G5B4FB4UPW2HVJEPR47ZY7SA701","A3HXCMU4MOPSQI","3TZDZ3Y0JSSRVQSC3SM97PDQ3Z7196","","227.8999999910593","img/land8.png","76","228.5","3","1","false","1","0.8,0.8,0.2,0.2,0.8,0.8,0.8,0.2,0.8","",""
"","html-keyboard-response","272","97593","0.0-406.0","324G5B4FB4UPW2HVJEPR47ZY7SA701","A3HXCMU4MOPSQI","3TZDZ3Y0JSSRVQSC3SM97PDQ3Z7196","","null","<img src=""img/land8.png"" style=""width:200px; border:14px solid green;"">","null","","","","","","","",""
"","image-keyboard-response","273","97712","0.0-408.0","324G5B4FB4UPW2HVJEPR47ZY7SA701","A3HXCMU4MOPSQI","3TZDZ3Y0JSSRVQSC3SM97PDQ3Z7196","","118.09999999403954","img/land1.png","75","118.79999999701977","2","0","false","3","0.8,0.8,0.2,0.2,0.8,0.8,0.8,0.2,0.8","",""
"","html-keyboard-response","274","98013","0.0-409.0","324G5B4FB4UPW2HVJEPR47ZY7SA701","A3HXCMU4MOPSQI","3TZDZ3Y0JSSRVQSC3SM97PDQ3Z7196","","null","<img src=""img/land1.png"" style=""width:200px;border:14px solid red;"">","null","","","","","","","",""
"","image-keyboard-response","275","98116","0.0-411.0","324G5B4FB4UPW2HVJEPR47ZY7SA701","A3HXCMU4MOPSQI","3TZDZ3Y0JSSRVQSC3SM97PDQ3Z7196","","101.5","img/land1.png","75","102.20000000298023","2","1","false","3","0.8,0.8,0.2,0.2,0.8,0.8,0.8,0.2,0.8","",""
"","html-keyboard-response","276","98418","0.0-412.0","324G5B4FB4UPW2HVJEPR47ZY7SA701","A3HXCMU4MOPSQI","3TZDZ3Y0JSSRVQSC3SM97PDQ3Z7196","","null","<img src=""img/land1.png"" style=""width:200px; border:14px solid green;"">","null","","","","","","","",""
"","image-keyboard-response","277","98592","0.0-414.0","324G5B4FB4UPW2HVJEPR47ZY7SA701","A3HXCMU4MOPSQI","3TZDZ3Y0JSSRVQSC3SM97PDQ3Z7196","","173.20000000298023","img/land8.png","74","173.8999999910593","1","0","false","1","0.8,0.8,0.2,0.2,0.8,0.8,0.8,0.2,0.8","",""
"","html-keyboard-response","278","98894","0.0-415.0","324G5B4FB4UPW2HVJEPR47ZY7SA701","A3HXCMU4MOPSQI","3TZDZ3Y0JSSRVQSC3SM97PDQ3Z7196","","null","<img src=""img/land8.png"" style=""width:200px;border:14px solid red;"">","null","","","","","","","",""
"","image-keyboard-response","279","99020","0.0-417.0","324G5B4FB4UPW2HVJEPR47ZY7SA701","A3HXCMU4MOPSQI","3TZDZ3Y0JSSRVQSC3SM97PDQ3Z7196","","125.5","img/land7.png","74","126.19999998807907","1","0","false","2","0.8,0.8,0.2,0.2,0.8,0.8,0.8,0.2,0.8","",""
"","html-keyboard-response","280","99322","0.0-418.0","324G5B4FB4UPW2HVJEPR47ZY7SA701","A3HXCMU4MOPSQI","3TZDZ3Y0JSSRVQSC3SM97PDQ3Z7196","","null","<img src=""img/land7.png"" style=""width:200px;border:14px solid red;"">","null","","","","","","","",""
"","image-keyboard-response","281","99476","0.0-420.0","324G5B4FB4UPW2HVJEPR47ZY7SA701","A3HXCMU4MOPSQI","3TZDZ3Y0JSSRVQSC3SM97PDQ3Z7196","","153.5","img/land7.png","75","154.19999998807907","2","1","false","2","0.8,0.8,0.2,0.2,0.8,0.8,0.8,0.2,0.8","",""
"","html-keyboard-response","282","99777","0.0-421.0","324G5B4FB4UPW2HVJEPR47ZY7SA701","A3HXCMU4MOPSQI","3TZDZ3Y0JSSRVQSC3SM97PDQ3Z7196","","null","<img src=""img/land7.png"" style=""width:200px; border:14px solid green;"">","null","","","","","","","",""
"","image-keyboard-response","283","99856","0.0-423.0","324G5B4FB4UPW2HVJEPR47ZY7SA701","A3HXCMU4MOPSQI","3TZDZ3Y0JSSRVQSC3SM97PDQ3Z7196","","77.80000001192093","img/land8.png","76","78.3999999910593","3","0","false","1","0.8,0.8,0.2,0.2,0.8,0.8,0.8,0.2,0.8","",""
"","html-keyboard-response","284","100157","0.0-424.0","324G5B4FB4UPW2HVJEPR47ZY7SA701","A3HXCMU4MOPSQI","3TZDZ3Y0JSSRVQSC3SM97PDQ3Z7196","","null","<img src=""img/land8.png"" style=""width:200px;border:14px solid red;"">","null","","","","","","","",""
"","image-keyboard-response","285","100326","0.0-426.0","324G5B4FB4UPW2HVJEPR47ZY7SA701","A3HXCMU4MOPSQI","3TZDZ3Y0JSSRVQSC3SM97PDQ3Z7196","","168.20000000298023","img/land1.png","75","168.79999999701977","2","0","false","3","0.8,0.8,0.2,0.2,0.8,0.8,0.8,0.2,0.8","",""
"","html-keyboard-response","286","100634","0.0-427.0","324G5B4FB4UPW2HVJEPR47ZY7SA701","A3HXCMU4MOPSQI","3TZDZ3Y0JSSRVQSC3SM97PDQ3Z7196","","null","<img src=""img/land1.png"" style=""width:200px;border:14px solid red;"">","null","","","","","","","",""
"","image-keyboard-response","287","100812","0.0-429.0","324G5B4FB4UPW2HVJEPR47ZY7SA701","A3HXCMU4MOPSQI","3TZDZ3Y0JSSRVQSC3SM97PDQ3Z7196","","177","img/land8.png","74","177.5","1","1","false","1","0.8,0.8,0.2,0.2,0.8,0.8,0.8,0.2,0.8","",""
"","html-keyboard-response","288","101113","0.0-430.0","324G5B4FB4UPW2HVJEPR47ZY7SA701","A3HXCMU4MOPSQI","3TZDZ3Y0JSSRVQSC3SM97PDQ3Z7196","","null","<img src=""img/land8.png"" style=""width:200px; border:14px solid green;"">","null","","","","","","","",""
"","image-keyboard-response","289","101279","0.0-432.0","324G5B4FB4UPW2HVJEPR47ZY7SA701","A3HXCMU4MOPSQI","3TZDZ3Y0JSSRVQSC3SM97PDQ3Z7196","","165.29999999701977","img/land8.png","74","165.79999999701977","1","1","false","1","0.8,0.8,0.2,0.2,0.8,0.8,0.8,0.2,0.8","",""
"","html-keyboard-response","290","101581","0.0-433.0","324G5B4FB4UPW2HVJEPR47ZY7SA701","A3HXCMU4MOPSQI","3TZDZ3Y0JSSRVQSC3SM97PDQ3Z7196","","null","<img src=""img/land8.png"" style=""width:200px; border:14px solid green;"">","null","","","","","","","",""
"","image-keyboard-response","291","101903","0.0-435.0","324G5B4FB4UPW2HVJEPR47ZY7SA701","A3HXCMU4MOPSQI","3TZDZ3Y0JSSRVQSC3SM97PDQ3Z7196","","321.79999999701977","img/land8.png","75","322.5","2","1","false","1","0.8,0.8,0.2,0.2,0.8,0.8,0.8,0.2,0.8","",""
"","html-keyboard-response","292","102205","0.0-436.0","324G5B4FB4UPW2HVJEPR47ZY7SA701","A3HXCMU4MOPSQI","3TZDZ3Y0JSSRVQSC3SM97PDQ3Z7196","","null","<img src=""img/land8.png"" style=""width:200px; border:14px solid green;"">","null","","","","","","","",""
"","image-keyboard-response","293","102279","0.0-438.0","324G5B4FB4UPW2HVJEPR47ZY7SA701","A3HXCMU4MOPSQI","3TZDZ3Y0JSSRVQSC3SM97PDQ3Z7196","","73.5","img/land8.png","75","74.20000000298023","2","0","false","1","0.8,0.8,0.2,0.2,0.8,0.8,0.8,0.2,0.8","",""
"","html-keyboard-response","294","102580","0.0-439.0","324G5B4FB4UPW2HVJEPR47ZY7SA701","A3HXCMU4MOPSQI","3TZDZ3Y0JSSRVQSC3SM97PDQ3Z7196","","null","<img src=""img/land8.png"" style=""width:200px;border:14px solid red;"">","null","","","","","","","",""
"","image-keyboard-response","295","102757","0.0-441.0","324G5B4FB4UPW2HVJEPR47ZY7SA701","A3HXCMU4MOPSQI","3TZDZ3Y0JSSRVQSC3SM97PDQ3Z7196","","176.19999998807907","img/land7.png","74","176.79999999701977","1","0","false","2","0.8,0.8,0.2,0.2,0.8,0.8,0.8,0.2,0.8","",""
"","html-keyboard-response","296","103058","0.0-442.0","324G5B4FB4UPW2HVJEPR47ZY7SA701","A3HXCMU4MOPSQI","3TZDZ3Y0JSSRVQSC3SM97PDQ3Z7196","","null","<img src=""img/land7.png"" style=""width:200px;border:14px solid red;"">","null","","","","","","","",""
"","image-keyboard-response","297","103181","0.0-444.0","324G5B4FB4UPW2HVJEPR47ZY7SA701","A3HXCMU4MOPSQI","3TZDZ3Y0JSSRVQSC3SM97PDQ3Z7196","","122.1000000089407","img/land1.png","75","122.79999999701977","2","0","false","3","0.8,0.8,0.2,0.2,0.8,0.8,0.8,0.2,0.8","",""
"","html-keyboard-response","298","103482","0.0-445.0","324G5B4FB4UPW2HVJEPR47ZY7SA701","A3HXCMU4MOPSQI","3TZDZ3Y0JSSRVQSC3SM97PDQ3Z7196","","null","<img src=""img/land1.png"" style=""width:200px;border:14px solid red;"">","null","","","","","","","",""
"","image-keyboard-response","299","103583","0.0-447.0","324G5B4FB4UPW2HVJEPR47ZY7SA701","A3HXCMU4MOPSQI","3TZDZ3Y0JSSRVQSC3SM97PDQ3Z7196","","100.19999998807907","img/land7.png","76","100.80000001192093","3","0","false","2","0.8,0.8,0.2,0.2,0.8,0.8,0.8,0.2,0.8","",""
"","html-keyboard-response","300","103884","0.0-448.0","324G5B4FB4UPW2HVJEPR47ZY7SA701","A3HXCMU4MOPSQI","3TZDZ3Y0JSSRVQSC3SM97PDQ3Z7196","","null","<img src=""img/land7.png"" style=""width:200px;border:14px solid red;"">","null","","","","","","","",""
"","image-keyboard-response","301","104065","0.0-450.0","324G5B4FB4UPW2HVJEPR47ZY7SA701","A3HXCMU4MOPSQI","3TZDZ3Y0JSSRVQSC3SM97PDQ3Z7196","","180.5","img/land7.png","76","181.29999999701977","3","1","false","2","0.8,0.8,0.2,0.2,0.8,0.8,0.8,0.2,0.8","",""
"","html-keyboard-response","302","104367","0.0-451.0","324G5B4FB4UPW2HVJEPR47ZY7SA701","A3HXCMU4MOPSQI","3TZDZ3Y0JSSRVQSC3SM97PDQ3Z7196","","null","<img src=""img/land7.png"" style=""width:200px; border:14px solid green;"">","null","","","","","","","",""
"","image-keyboard-response","303","104519","0.0-453.0","324G5B4FB4UPW2HVJEPR47ZY7SA701","A3HXCMU4MOPSQI","3TZDZ3Y0JSSRVQSC3SM97PDQ3Z7196","","151.1000000089407","img/land1.png","75","151.79999999701977","2","0","false","3","0.8,0.8,0.2,0.2,0.8,0.8,0.8,0.2,0.8","",""
"","html-keyboard-response","304","104821","0.0-454.0","324G5B4FB4UPW2HVJEPR47ZY7SA701","A3HXCMU4MOPSQI","3TZDZ3Y0JSSRVQSC3SM97PDQ3Z7196","","null","<img src=""img/land1.png"" style=""width:200px;border:14px solid red;"">","null","","","","","","","",""
"","image-keyboard-response","305","104943","0.0-456.0","324G5B4FB4UPW2HVJEPR47ZY7SA701","A3HXCMU4MOPSQI","3TZDZ3Y0JSSRVQSC3SM97PDQ3Z7196","","121.90000000596046","img/land1.png","75","122.5","2","0","false","3","0.8,0.8,0.2,0.2,0.8,0.8,0.8,0.2,0.8","",""
"","html-keyboard-response","306","105245","0.0-457.0","324G5B4FB4UPW2HVJEPR47ZY7SA701","A3HXCMU4MOPSQI","3TZDZ3Y0JSSRVQSC3SM97PDQ3Z7196","","null","<img src=""img/land1.png"" style=""width:200px;border:14px solid red;"">","null","","","","","","","",""
"","image-keyboard-response","307","105382","0.0-459.0","324G5B4FB4UPW2HVJEPR47ZY7SA701","A3HXCMU4MOPSQI","3TZDZ3Y0JSSRVQSC3SM97PDQ3Z7196","","136","img/land1.png","74","136.70000000298023","1","1","false","3","0.8,0.8,0.2,0.2,0.8,0.8,0.8,0.2,0.8","",""
"","html-keyboard-response","308","105683","0.0-460.0","324G5B4FB4UPW2HVJEPR47ZY7SA701","A3HXCMU4MOPSQI","3TZDZ3Y0JSSRVQSC3SM97PDQ3Z7196","","null","<img src=""img/land1.png"" style=""width:200px; border:14px solid green;"">","null","","","","","","","",""
"","image-keyboard-response","309","105842","0.0-462.0","324G5B4FB4UPW2HVJEPR47ZY7SA701","A3HXCMU4MOPSQI","3TZDZ3Y0JSSRVQSC3SM97PDQ3Z7196","","157.90000000596046","img/land7.png","74","158.5","1","1","false","2","0.8,0.8,0.2,0.2,0.8,0.8,0.8,0.2,0.8","",""
"","html-keyboard-response","310","106144","0.0-463.0","324G5B4FB4UPW2HVJEPR47ZY7SA701","A3HXCMU4MOPSQI","3TZDZ3Y0JSSRVQSC3SM97PDQ3Z7196","","null","<img src=""img/land7.png"" style=""width:200px; border:14px solid green;"">","null","","","","","","","",""
"","image-keyboard-response","311","106222","0.0-465.0","324G5B4FB4UPW2HVJEPR47ZY7SA701","A3HXCMU4MOPSQI","3TZDZ3Y0JSSRVQSC3SM97PDQ3Z7196","","77","img/land1.png","74","77.59999999403954","1","1","false","3","0.8,0.8,0.2,0.2,0.8,0.8,0.8,0.2,0.8","",""
"","html-keyboard-response","312","106523","0.0-466.0","324G5B4FB4UPW2HVJEPR47ZY7SA701","A3HXCMU4MOPSQI","3TZDZ3Y0JSSRVQSC3SM97PDQ3Z7196","","null","<img src=""img/land1.png"" style=""width:200px; border:14px solid green;"">","null","","","","","","","",""
"","image-keyboard-response","313","106602","0.0-468.0","324G5B4FB4UPW2HVJEPR47ZY7SA701","A3HXCMU4MOPSQI","3TZDZ3Y0JSSRVQSC3SM97PDQ3Z7196","","78.29999999701977","img/land1.png","76","78.90000000596046","3","1","false","3","0.8,0.8,0.2,0.2,0.8,0.8,0.8,0.2,0.8","",""
"","html-keyboard-response","314","106903","0.0-469.0","324G5B4FB4UPW2HVJEPR47ZY7SA701","A3HXCMU4MOPSQI","3TZDZ3Y0JSSRVQSC3SM97PDQ3Z7196","","null","<img src=""img/land1.png"" style=""width:200px; border:14px solid green;"">","null","","","","","","","",""
"","image-keyboard-response","315","107116","0.0-471.0","324G5B4FB4UPW2HVJEPR47ZY7SA701","A3HXCMU4MOPSQI","3TZDZ3Y0JSSRVQSC3SM97PDQ3Z7196","","211.5","img/land1.png","76","212.29999999701977","3","1","false","3","0.8,0.8,0.2,0.2,0.8,0.8,0.8,0.2,0.8","",""
"","html-keyboard-response","316","107417","0.0-472.0","324G5B4FB4UPW2HVJEPR47ZY7SA701","A3HXCMU4MOPSQI","3TZDZ3Y0JSSRVQSC3SM97PDQ3Z7196","","null","<img src=""img/land1.png"" style=""width:200px; border:14px solid green;"">","null","","","","","","","",""
"","image-keyboard-response","317","107544","0.0-474.0","324G5B4FB4UPW2HVJEPR47ZY7SA701","A3HXCMU4MOPSQI","3TZDZ3Y0JSSRVQSC3SM97PDQ3Z7196","","126.19999998807907","img/land8.png","76","126.79999999701977","3","1","false","1","0.8,0.8,0.2,0.2,0.8,0.8,0.8,0.2,0.8","",""
"","html-keyboard-response","318","107845","0.0-475.0","324G5B4FB4UPW2HVJEPR47ZY7SA701","A3HXCMU4MOPSQI","3TZDZ3Y0JSSRVQSC3SM97PDQ3Z7196","","null","<img src=""img/land8.png"" style=""width:200px; border:14px solid green;"">","null","","","","","","","",""
"","image-keyboard-response","319","107916","0.0-477.0","324G5B4FB4UPW2HVJEPR47ZY7SA701","A3HXCMU4MOPSQI","3TZDZ3Y0JSSRVQSC3SM97PDQ3Z7196","","70.20000000298023","img/land8.png","75","70.79999999701977","2","1","false","1","0.8,0.8,0.2,0.2,0.8,0.8,0.8,0.2,0.8","",""
"","html-keyboard-response","320","108217","0.0-478.0","324G5B4FB4UPW2HVJEPR47ZY7SA701","A3HXCMU4MOPSQI","3TZDZ3Y0JSSRVQSC3SM97PDQ3Z7196","","null","<img src=""img/land8.png"" style=""width:200px; border:14px solid green;"">","null","","","","","","","",""
"","image-keyboard-response","321","108352","0.0-480.0","324G5B4FB4UPW2HVJEPR47ZY7SA701","A3HXCMU4MOPSQI","3TZDZ3Y0JSSRVQSC3SM97PDQ3Z7196","","133.6000000089407","img/land8.png","75","134.29999999701977","2","0","false","1","0.8,0.8,0.2,0.2,0.8,0.8,0.8,0.2,0.8","",""
"","html-keyboard-response","322","108653","0.0-481.0","324G5B4FB4UPW2HVJEPR47ZY7SA701","A3HXCMU4MOPSQI","3TZDZ3Y0JSSRVQSC3SM97PDQ3Z7196","","null","<img src=""img/land8.png"" style=""width:200px;border:14px solid red;"">","null","","","","","","","",""
"","image-keyboard-response","323","108762","0.0-483.0","324G5B4FB4UPW2HVJEPR47ZY7SA701","A3HXCMU4MOPSQI","3TZDZ3Y0JSSRVQSC3SM97PDQ3Z7196","","108","img/land1.png","75","108.5","2","0","false","3","0.8,0.8,0.2,0.2,0.8,0.8,0.8,0.2,0.8","",""
"","html-keyboard-response","324","109063","0.0-484.0","324G5B4FB4UPW2HVJEPR47ZY7SA701","A3HXCMU4MOPSQI","3TZDZ3Y0JSSRVQSC3SM97PDQ3Z7196","","null","<img src=""img/land1.png"" style=""width:200px;border:14px solid red;"">","null","","","","","","","",""
"","image-keyboard-response","325","109134","0.0-486.0","324G5B4FB4UPW2HVJEPR47ZY7SA701","A3HXCMU4MOPSQI","3TZDZ3Y0JSSRVQSC3SM97PDQ3Z7196","","70.3999999910593","img/land7.png","74","71","1","0","false","2","0.8,0.8,0.2,0.2,0.8,0.8,0.8,0.2,0.8","",""
"","html-keyboard-response","326","109435","0.0-487.0","324G5B4FB4UPW2HVJEPR47ZY7SA701","A3HXCMU4MOPSQI","3TZDZ3Y0JSSRVQSC3SM97PDQ3Z7196","","null","<img src=""img/land7.png"" style=""width:200px;border:14px solid red;"">","null","","","","","","","",""
"","image-keyboard-response","327","109512","0.0-489.0","324G5B4FB4UPW2HVJEPR47ZY7SA701","A3HXCMU4MOPSQI","3TZDZ3Y0JSSRVQSC3SM97PDQ3Z7196","","76.20000000298023","img/land7.png","74","76.79999999701977","1","0","false","2","0.8,0.8,0.2,0.2,0.8,0.8,0.8,0.2,0.8","",""
"","html-keyboard-response","328","109813","0.0-490.0","324G5B4FB4UPW2HVJEPR47ZY7SA701","A3HXCMU4MOPSQI","3TZDZ3Y0JSSRVQSC3SM97PDQ3Z7196","","null","<img src=""img/land7.png"" style=""width:200px;border:14px solid red;"">","null","","","","","","","",""
"","image-keyboard-response","329","110018","0.0-492.0","324G5B4FB4UPW2HVJEPR47ZY7SA701","A3HXCMU4MOPSQI","3TZDZ3Y0JSSRVQSC3SM97PDQ3Z7196","","203.80000001192093","img/land1.png","75","204.5","2","0","false","3","0.8,0.8,0.2,0.2,0.8,0.8,0.8,0.2,0.8","",""
"","html-keyboard-response","330","110320","0.0-493.0","324G5B4FB4UPW2HVJEPR47ZY7SA701","A3HXCMU4MOPSQI","3TZDZ3Y0JSSRVQSC3SM97PDQ3Z7196","","null","<img src=""img/land1.png"" style=""width:200px;border:14px solid red;"">","null","","","","","","","",""
"","image-keyboard-response","331","110455","0.0-495.0","324G5B4FB4UPW2HVJEPR47ZY7SA701","A3HXCMU4MOPSQI","3TZDZ3Y0JSSRVQSC3SM97PDQ3Z7196","","134.19999998807907","img/land8.png","76","134.90000000596046","3","1","false","1","0.8,0.8,0.2,0.2,0.8,0.8,0.8,0.2,0.8","",""
"","html-keyboard-response","332","110756","0.0-496.0","324G5B4FB4UPW2HVJEPR47ZY7SA701","A3HXCMU4MOPSQI","3TZDZ3Y0JSSRVQSC3SM97PDQ3Z7196","","null","<img src=""img/land8.png"" style=""width:200px; border:14px solid green;"">","null","","","","","","","",""
"","image-keyboard-response","333","110918","0.0-498.0","324G5B4FB4UPW2HVJEPR47ZY7SA701","A3HXCMU4MOPSQI","3TZDZ3Y0JSSRVQSC3SM97PDQ3Z7196","","161.09999999403954","img/land7.png","74","161.70000000298023","1","0","false","2","0.8,0.8,0.2,0.2,0.8,0.8,0.8,0.2,0.8","",""
"","html-keyboard-response","334","111220","0.0-499.0","324G5B4FB4UPW2HVJEPR47ZY7SA701","A3HXCMU4MOPSQI","3TZDZ3Y0JSSRVQSC3SM97PDQ3Z7196","","null","<img src=""img/land7.png"" style=""width:200px;border:14px solid red;"">","null","","","","","","","",""
"","image-keyboard-response","335","111352","0.0-501.0","324G5B4FB4UPW2HVJEPR47ZY7SA701","A3HXCMU4MOPSQI","3TZDZ3Y0JSSRVQSC3SM97PDQ3Z7196","","131.19999998807907","img/land1.png","76","131.79999999701977","3","1","false","3","0.8,0.8,0.2,0.2,0.8,0.8,0.8,0.2,0.8","",""
"","html-keyboard-response","336","111653","0.0-502.0","324G5B4FB4UPW2HVJEPR47ZY7SA701","A3HXCMU4MOPSQI","3TZDZ3Y0JSSRVQSC3SM97PDQ3Z7196","","null","<img src=""img/land1.png"" style=""width:200px; border:14px solid green;"">","null","","","","","","","",""
"","image-keyboard-response","337","111776","0.0-504.0","324G5B4FB4UPW2HVJEPR47ZY7SA701","A3HXCMU4MOPSQI","3TZDZ3Y0JSSRVQSC3SM97PDQ3Z7196","","122.29999999701977","img/land7.png","75","123","2","1","false","2","0.8,0.8,0.2,0.2,0.8,0.8,0.8,0.2,0.8","",""
"","html-keyboard-response","338","112078","0.0-505.0","324G5B4FB4UPW2HVJEPR47ZY7SA701","A3HXCMU4MOPSQI","3TZDZ3Y0JSSRVQSC3SM97PDQ3Z7196","","null","<img src=""img/land7.png"" style=""width:200px; border:14px solid green;"">","null","","","","","","","",""
"","image-keyboard-response","339","112224","0.0-507.0","324G5B4FB4UPW2HVJEPR47ZY7SA701","A3HXCMU4MOPSQI","3TZDZ3Y0JSSRVQSC3SM97PDQ3Z7196","","145.79999999701977","img/land7.png","74","146.5","1","0","false","2","0.8,0.8,0.2,0.2,0.8,0.8,0.8,0.2,0.8","",""
"","html-keyboard-response","340","112526","0.0-508.0","324G5B4FB4UPW2HVJEPR47ZY7SA701","A3HXCMU4MOPSQI","3TZDZ3Y0JSSRVQSC3SM97PDQ3Z7196","","null","<img src=""img/land7.png"" style=""width:200px;border:14px solid red;"">","null","","","","","","","",""
"","image-keyboard-response","341","112892","0.0-510.0","324G5B4FB4UPW2HVJEPR47ZY7SA701","A3HXCMU4MOPSQI","3TZDZ3Y0JSSRVQSC3SM97PDQ3Z7196","","365.59999999403954","img/land1.png","75","366.20000000298023","2","0","false","3","0.8,0.8,0.2,0.2,0.8,0.8,0.8,0.2,0.8","",""
"","html-keyboard-response","342","113201","0.0-511.0","324G5B4FB4UPW2HVJEPR47ZY7SA701","A3HXCMU4MOPSQI","3TZDZ3Y0JSSRVQSC3SM97PDQ3Z7196","","null","<img src=""img/land1.png"" style=""width:200px;border:14px solid red;"">","null","","","","","","","",""
"","image-keyboard-response","343","113246","0.0-513.0","324G5B4FB4UPW2HVJEPR47ZY7SA701","A3HXCMU4MOPSQI","3TZDZ3Y0JSSRVQSC3SM97PDQ3Z7196","","44.8999999910593","img/land7.png","75","45.70000000298023","2","0","false","2","0.8,0.8,0.2,0.2,0.8,0.8,0.8,0.2,0.8","",""
"","html-keyboard-response","344","113547","0.0-514.0","324G5B4FB4UPW2HVJEPR47ZY7SA701","A3HXCMU4MOPSQI","3TZDZ3Y0JSSRVQSC3SM97PDQ3Z7196","","null","<img src=""img/land7.png"" style=""width:200px;border:14px solid red;"">","null","","","","","","","",""
"","image-keyboard-response","345","113592","0.0-516.0","324G5B4FB4UPW2HVJEPR47ZY7SA701","A3HXCMU4MOPSQI","3TZDZ3Y0JSSRVQSC3SM97PDQ3Z7196","","44.29999999701977","img/land1.png","76","44.79999999701977","3","0","false","3","0.8,0.8,0.2,0.2,0.8,0.8,0.8,0.2,0.8","",""
"","html-keyboard-response","346","113893","0.0-517.0","324G5B4FB4UPW2HVJEPR47ZY7SA701","A3HXCMU4MOPSQI","3TZDZ3Y0JSSRVQSC3SM97PDQ3Z7196","","null","<img src=""img/land1.png"" style=""width:200px;border:14px solid red;"">","null","","","","","","","",""
"","image-keyboard-response","347","113926","0.0-519.0","324G5B4FB4UPW2HVJEPR47ZY7SA701","A3HXCMU4MOPSQI","3TZDZ3Y0JSSRVQSC3SM97PDQ3Z7196","","32.29999999701977","img/land7.png","74","33","1","0","false","2","0.8,0.8,0.2,0.2,0.8,0.8,0.8,0.2,0.8","",""
"","html-keyboard-response","348","114227","0.0-520.0","324G5B4FB4UPW2HVJEPR47ZY7SA701","A3HXCMU4MOPSQI","3TZDZ3Y0JSSRVQSC3SM97PDQ3Z7196","","null","<img src=""img/land7.png"" style=""width:200px;border:14px solid red;"">","null","","","","","","","",""
"","image-keyboard-response","349","114325","0.0-522.0","324G5B4FB4UPW2HVJEPR47ZY7SA701","A3HXCMU4MOPSQI","3TZDZ3Y0JSSRVQSC3SM97PDQ3Z7196","","96.5","img/land8.png","75","97.20000000298023","2","1","false","1","0.8,0.8,0.2,0.2,0.8,0.8,0.8,0.2,0.8","",""
"","html-keyboard-response","350","114626","0.0-523.0","324G5B4FB4UPW2HVJEPR47ZY7SA701","A3HXCMU4MOPSQI","3TZDZ3Y0JSSRVQSC3SM97PDQ3Z7196","","null","<img src=""img/land8.png"" style=""width:200px; border:14px solid green;"">","null","","","","","","","",""
"","image-keyboard-response","351","114678","0.0-525.0","324G5B4FB4UPW2HVJEPR47ZY7SA701","A3HXCMU4MOPSQI","3TZDZ3Y0JSSRVQSC3SM97PDQ3Z7196","","52.20000000298023","img/land8.png","76","52.70000000298023","3","1","false","1","0.8,0.8,0.2,0.2,0.8,0.8,0.8,0.2,0.8","",""
"","html-keyboard-response","352","114981","0.0-526.0","324G5B4FB4UPW2HVJEPR47ZY7SA701","A3HXCMU4MOPSQI","3TZDZ3Y0JSSRVQSC3SM97PDQ3Z7196","","null","<img src=""img/land8.png"" style=""width:200px; border:14px solid green;"">","null","","","","","","","",""
"","image-keyboard-response","353","115153","0.0-528.0","324G5B4FB4UPW2HVJEPR47ZY7SA701","A3HXCMU4MOPSQI","3TZDZ3Y0JSSRVQSC3SM97PDQ3Z7196","","171.29999999701977","img/land7.png","74","171.79999999701977","1","0","false","2","0.8,0.8,0.2,0.2,0.8,0.8,0.8,0.2,0.8","",""
"","html-keyboard-response","354","115454","0.0-529.0","324G5B4FB4UPW2HVJEPR47ZY7SA701","A3HXCMU4MOPSQI","3TZDZ3Y0JSSRVQSC3SM97PDQ3Z7196","","null","<img src=""img/land7.png"" style=""width:200px;border:14px solid red;"">","null","","","","","","","",""
"","image-keyboard-response","355","115597","0.0-531.0","324G5B4FB4UPW2HVJEPR47ZY7SA701","A3HXCMU4MOPSQI","3TZDZ3Y0JSSRVQSC3SM97PDQ3Z7196","","141.69999998807907","img/land7.png","75","142.30000001192093","2","1","false","2","0.8,0.8,0.2,0.2,0.8,0.8,0.8,0.2,0.8","",""
"","html-keyboard-response","356","115898","0.0-532.0","324G5B4FB4UPW2HVJEPR47ZY7SA701","A3HXCMU4MOPSQI","3TZDZ3Y0JSSRVQSC3SM97PDQ3Z7196","","null","<img src=""img/land7.png"" style=""width:200px; border:14px solid green;"">","null","","","","","","","",""
"","image-keyboard-response","357","116021","0.0-534.0","324G5B4FB4UPW2HVJEPR47ZY7SA701","A3HXCMU4MOPSQI","3TZDZ3Y0JSSRVQSC3SM97PDQ3Z7196","","121.79999999701977","img/land8.png","76","122.29999999701977","3","0","false","1","0.8,0.8,0.2,0.2,0.8,0.8,0.8,0.2,0.8","",""
"","html-keyboard-response","358","116324","0.0-535.0","324G5B4FB4UPW2HVJEPR47ZY7SA701","A3HXCMU4MOPSQI","3TZDZ3Y0JSSRVQSC3SM97PDQ3Z7196","","null","<img src=""img/land8.png"" style=""width:200px;border:14px solid red;"">","null","","","","","","","",""
"","image-keyboard-response","359","116445","0.0-537.0","324G5B4FB4UPW2HVJEPR47ZY7SA701","A3HXCMU4MOPSQI","3TZDZ3Y0JSSRVQSC3SM97PDQ3Z7196","","120.19999998807907","img/land7.png","74","120.70000000298023","1","0","false","2","0.8,0.8,0.2,0.2,0.8,0.8,0.8,0.2,0.8","",""
"","html-keyboard-response","360","116746","0.0-538.0","324G5B4FB4UPW2HVJEPR47ZY7SA701","A3HXCMU4MOPSQI","3TZDZ3Y0JSSRVQSC3SM97PDQ3Z7196","","null","<img src=""img/land7.png"" style=""width:200px;border:14px solid red;"">","null","","","","","","","",""
"","image-keyboard-response","361","116875","0.0-540.0","324G5B4FB4UPW2HVJEPR47ZY7SA701","A3HXCMU4MOPSQI","3TZDZ3Y0JSSRVQSC3SM97PDQ3Z7196","","127.79999999701977","img/land8.png","75","128.40000000596046","2","1","false","1","0.8,0.8,0.2,0.2,0.8,0.8,0.8,0.2,0.8","",""
"","html-keyboard-response","362","117176","0.0-541.0","324G5B4FB4UPW2HVJEPR47ZY7SA701","A3HXCMU4MOPSQI","3TZDZ3Y0JSSRVQSC3SM97PDQ3Z7196","","null","<img src=""img/land8.png"" style=""width:200px; border:14px solid green;"">","null","","","","","","","",""
"","html-keyboard-response","363","119748","0.0-543.0","324G5B4FB4UPW2HVJEPR47ZY7SA701","A3HXCMU4MOPSQI","3TZDZ3Y0JSSRVQSC3SM97PDQ3Z7196","","","","","","","","","","","",""
"","image-keyboard-response","364","120129","0.0-544.0","324G5B4FB4UPW2HVJEPR47ZY7SA701","A3HXCMU4MOPSQI","3TZDZ3Y0JSSRVQSC3SM97PDQ3Z7196","","380.1000000089407","img/land4.png","75","380.79999999701977","2","1","false","2","0.6,0.6,0,0,0.6,0.6,0.6,0,0.6","",""
"","html-keyboard-response","365","120431","0.0-545.0","324G5B4FB4UPW2HVJEPR47ZY7SA701","A3HXCMU4MOPSQI","3TZDZ3Y0JSSRVQSC3SM97PDQ3Z7196","","null","<img src=""img/land4.png"" style=""width:200px; border:14px solid green;"">","null","","","","","","","",""
"","image-keyboard-response","366","120531","0.0-547.0","324G5B4FB4UPW2HVJEPR47ZY7SA701","A3HXCMU4MOPSQI","3TZDZ3Y0JSSRVQSC3SM97PDQ3Z7196","","99.1000000089407","img/land4.png","76","99.6000000089407","3","1","false","2","0.6,0.6,0,0,0.6,0.6,0.6,0,0.6","",""
"","html-keyboard-response","367","120833","0.0-548.0","324G5B4FB4UPW2HVJEPR47ZY7SA701","A3HXCMU4MOPSQI","3TZDZ3Y0JSSRVQSC3SM97PDQ3Z7196","","null","<img src=""img/land4.png"" style=""width:200px; border:14px solid green;"">","null","","","","","","","",""
"","image-keyboard-response","368","120963","0.0-550.0","324G5B4FB4UPW2HVJEPR47ZY7SA701","A3HXCMU4MOPSQI","3TZDZ3Y0JSSRVQSC3SM97PDQ3Z7196","","129.70000000298023","img/land4.png","76","130.3999999910593","3","1","false","2","0.6,0.6,0,0,0.6,0.6,0.6,0,0.6","",""
"","html-keyboard-response","369","121264","0.0-551.0","324G5B4FB4UPW2HVJEPR47ZY7SA701","A3HXCMU4MOPSQI","3TZDZ3Y0JSSRVQSC3SM97PDQ3Z7196","","null","<img src=""img/land4.png"" style=""width:200px; border:14px solid green;"">","null","","","","","","","",""
"","image-keyboard-response","370","121367","0.0-553.0","324G5B4FB4UPW2HVJEPR47ZY7SA701","A3HXCMU4MOPSQI","3TZDZ3Y0JSSRVQSC3SM97PDQ3Z7196","","101.8999999910593","img/land2.png","76","102.5","3","0","false","3","0.6,0.6,0,0,0.6,0.6,0.6,0,0.6","",""
"","html-keyboard-response","371","121668","0.0-554.0","324G5B4FB4UPW2HVJEPR47ZY7SA701","A3HXCMU4MOPSQI","3TZDZ3Y0JSSRVQSC3SM97PDQ3Z7196","","null","<img src=""img/land2.png"" style=""width:200px;border:14px solid red;"">","null","","","","","","","",""
"","image-keyboard-response","372","121717","0.0-556.0","324G5B4FB4UPW2HVJEPR47ZY7SA701","A3HXCMU4MOPSQI","3TZDZ3Y0JSSRVQSC3SM97PDQ3Z7196","","47.900000005960464","img/land2.png","75","48.599999994039536","2","0","false","3","0.6,0.6,0,0,0.6,0.6,0.6,0,0.6","",""
"","html-keyboard-response","373","122018","0.0-557.0","324G5B4FB4UPW2HVJEPR47ZY7SA701","A3HXCMU4MOPSQI","3TZDZ3Y0JSSRVQSC3SM97PDQ3Z7196","","null","<img src=""img/land2.png"" style=""width:200px;border:14px solid red;"">","null","","","","","","","",""
"","image-keyboard-response","374","122133","0.0-559.0","324G5B4FB4UPW2HVJEPR47ZY7SA701","A3HXCMU4MOPSQI","3TZDZ3Y0JSSRVQSC3SM97PDQ3Z7196","","113.8999999910593","img/land4.png","75","114.70000000298023","2","1","false","2","0.6,0.6,0,0,0.6,0.6,0.6,0,0.6","",""
"","html-keyboard-response","375","122435","0.0-560.0","324G5B4FB4UPW2HVJEPR47ZY7SA701","A3HXCMU4MOPSQI","3TZDZ3Y0JSSRVQSC3SM97PDQ3Z7196","","null","<img src=""img/land4.png"" style=""width:200px; border:14px solid green;"">","null","","","","","","","",""
"","image-keyboard-response","376","122607","0.0-562.0","324G5B4FB4UPW2HVJEPR47ZY7SA701","A3HXCMU4MOPSQI","3TZDZ3Y0JSSRVQSC3SM97PDQ3Z7196","","171.79999999701977","img/land2.png","74","172.59999999403954","1","0","false","3","0.6,0.6,0,0,0.6,0.6,0.6,0,0.6","",""
"","html-keyboard-response","377","122909","0.0-563.0","324G5B4FB4UPW2HVJEPR47ZY7SA701","A3HXCMU4MOPSQI","3TZDZ3Y0JSSRVQSC3SM97PDQ3Z7196","","null","<img src=""img/land2.png"" style=""width:200px;border:14px solid red;"">","null","","","","","","","",""
"","image-keyboard-response","378","123022","0.0-565.0","324G5B4FB4UPW2HVJEPR47ZY7SA701","A3HXCMU4MOPSQI","3TZDZ3Y0JSSRVQSC3SM97PDQ3Z7196","","111.90000000596046","img/land4.png","75","112.70000000298023","2","0","false","2","0.6,0.6,0,0,0.6,0.6,0.6,0,0.6","",""
"","html-keyboard-response","379","123323","0.0-566.0","324G5B4FB4UPW2HVJEPR47ZY7SA701","A3HXCMU4MOPSQI","3TZDZ3Y0JSSRVQSC3SM97PDQ3Z7196","","null","<img src=""img/land4.png"" style=""width:200px;border:14px solid red;"">","null","","","","","","","",""
"","image-keyboard-response","380","123453","0.0-568.0","324G5B4FB4UPW2HVJEPR47ZY7SA701","A3HXCMU4MOPSQI","3TZDZ3Y0JSSRVQSC3SM97PDQ3Z7196","","129.70000000298023","img/land2.png","75","130.3999999910593","2","0","false","3","0.6,0.6,0,0,0.6,0.6,0.6,0,0.6","",""
"","html-keyboard-response","381","123755","0.0-569.0","324G5B4FB4UPW2HVJEPR47ZY7SA701","A3HXCMU4MOPSQI","3TZDZ3Y0JSSRVQSC3SM97PDQ3Z7196","","null","<img src=""img/land2.png"" style=""width:200px;border:14px solid red;"">","null","","","","","","","",""
"","image-keyboard-response","382","123956","0.0-571.0","324G5B4FB4UPW2HVJEPR47ZY7SA701","A3HXCMU4MOPSQI","3TZDZ3Y0JSSRVQSC3SM97PDQ3Z7196","","199.80000001192093","img/land2.png","76","200.5","3","0","false","3","0.6,0.6,0,0,0.6,0.6,0.6,0,0.6","",""
"","html-keyboard-response","383","124257","0.0-572.0","324G5B4FB4UPW2HVJEPR47ZY7SA701","A3HXCMU4MOPSQI","3TZDZ3Y0JSSRVQSC3SM97PDQ3Z7196","","null","<img src=""img/land2.png"" style=""width:200px;border:14px solid red;"">","null","","","","","","","",""
"","image-keyboard-response","384","124490","0.0-574.0","324G5B4FB4UPW2HVJEPR47ZY7SA701","A3HXCMU4MOPSQI","3TZDZ3Y0JSSRVQSC3SM97PDQ3Z7196","","231.90000000596046","img/land2.png","76","232.3999999910593","3","1","false","3","0.6,0.6,0,0,0.6,0.6,0.6,0,0.6","",""
"","html-keyboard-response","385","124791","0.0-575.0","324G5B4FB4UPW2HVJEPR47ZY7SA701","A3HXCMU4MOPSQI","3TZDZ3Y0JSSRVQSC3SM97PDQ3Z7196","","null","<img src=""img/land2.png"" style=""width:200px; border:14px solid green;"">","null","","","","","","","",""
