"success","trial_type","trial_index","time_elapsed","internal_node_id","assignmentID","mturkID","hitID","view_history","rt","stimulus","key_press","reactionTime","a","r","s","cond","reward_cond","reward_cond_actual","reward_matrix_idx","responses","question_order"
"true","fullscreen","0","15027","0.0-0.0","3TE3O85731U6AV4O7FRBSCJD9J3R2L","A3IXFZZ3JWTCPW","3WRBLBQ2GRU63BU2LFOJL1G32T90GO","","","","","","","","","","","","","",""
"","instructions","1","47521","0.0-1.0","3TE3O85731U6AV4O7FRBSCJD9J3R2L","A3IXFZZ3JWTCPW","3WRBLBQ2GRU63BU2LFOJL1G32T90GO","[{""page_index"":0,""viewing_time"":5445},{""page_index"":1,""viewing_time"":7792.700000000186},{""page_index"":2,""viewing_time"":1457.2999999998137},{""page_index"":3,""viewing_time"":7047.40000000014},{""page_index"":4,""viewing_time"":4491},{""page_index"":5,""viewing_time"":3403.3000000000466},{""page_index"":6,""viewing_time"":2852.6999999999534}]","32490.600000000093","","","","","","","","","","","",""
"","image-keyboard-response","2","49524","0.0-2.0","3TE3O85731U6AV4O7FRBSCJD9J3R2L","A3IXFZZ3JWTCPW","3WRBLBQ2GRU63BU2LFOJL1G32T90GO","","","img/land6.png","","2002.2000000001863","-1","0","1","2","0.8,0.2,0.2,0.2,0.8,0.2,0.2,0.2,0.8","0.8,0.2,0.2,0.2,0.8,0.2,0.2,0.2,0.8","1","",""
"","html-keyboard-response","3","49830","0.0-3.0","3TE3O85731U6AV4O7FRBSCJD9J3R2L","A3IXFZZ3JWTCPW","3WRBLBQ2GRU63BU2LFOJL1G32T90GO","","null","<img src=""img/land6.png"" style=""width:200px;border:14px solid red;"">","null","","","","","","","","","",""
"","image-keyboard-response","4","51268","0.0-4.0","3TE3O85731U6AV4O7FRBSCJD9J3R2L","A3IXFZZ3JWTCPW","3WRBLBQ2GRU63BU2LFOJL1G32T90GO","","1435.9000000001397","img/land5.png","74","1437.3000000000466","1","0","3","2","0.8,0.2,0.2,0.2,0.8,0.2,0.2,0.2,0.8","0.8,0.2,0.2,0.2,0.8,0.2,0.2,0.2,0.8","1","",""
"","html-keyboard-response","5","51570","0.0-5.0","3TE3O85731U6AV4O7FRBSCJD9J3R2L","A3IXFZZ3JWTCPW","3WRBLBQ2GRU63BU2LFOJL1G32T90GO","","null","<img src=""img/land5.png"" style=""width:200px;border:14px solid red;"">","null","","","","","","","","","",""
"","image-keyboard-response","6","51579","0.0-6.0","3TE3O85731U6AV4O7FRBSCJD9J3R2L","A3IXFZZ3JWTCPW","3WRBLBQ2GRU63BU2LFOJL1G32T90GO","","6.699999999953434","img/land6.png","75","8.199999999953434","2","0","1","2","0.8,0.2,0.2,0.2,0.8,0.2,0.2,0.2,0.8","0.8,0.2,0.2,0.2,0.8,0.2,0.2,0.2,0.8","1","",""
"","html-keyboard-response","7","51881","0.0-7.0","3TE3O85731U6AV4O7FRBSCJD9J3R2L","A3IXFZZ3JWTCPW","3WRBLBQ2GRU63BU2LFOJL1G32T90GO","","null","<img src=""img/land6.png"" style=""width:200px;border:14px solid red;"">","null","","","","","","","","","",""
"","image-keyboard-response","8","52099","0.0-8.0","3TE3O85731U6AV4O7FRBSCJD9J3R2L","A3IXFZZ3JWTCPW","3WRBLBQ2GRU63BU2LFOJL1G32T90GO","","214.10000000009313","img/land5.png","74","216.39999999990687","1","0","3","2","0.8,0.2,0.2,0.2,0.8,0.2,0.2,0.2,0.8","0.8,0.2,0.2,0.2,0.8,0.2,0.2,0.2,0.8","1","",""
"","html-keyboard-response","9","52401","0.0-9.0","3TE3O85731U6AV4O7FRBSCJD9J3R2L","A3IXFZZ3JWTCPW","3WRBLBQ2GRU63BU2LFOJL1G32T90GO","","null","<img src=""img/land5.png"" style=""width:200px;border:14px solid red;"">","null","","","","","","","","","",""
"","image-keyboard-response","10","52565","0.0-10.0","3TE3O85731U6AV4O7FRBSCJD9J3R2L","A3IXFZZ3JWTCPW","3WRBLBQ2GRU63BU2LFOJL1G32T90GO","","162.10000000009313","img/land4.png","76","163.39999999990687","3","1","2","2","0.8,0.2,0.2,0.2,0.8,0.2,0.2,0.2,0.8","0.8,0.2,0.2,0.2,0.8,0.2,0.2,0.2,0.8","1","",""
"","html-keyboard-response","11","52867","0.0-11.0","3TE3O85731U6AV4O7FRBSCJD9J3R2L","A3IXFZZ3JWTCPW","3WRBLBQ2GRU63BU2LFOJL1G32T90GO","","null","<img src=""img/land4.png"" style=""width:200px; border:14px solid green;"">","null","","","","","","","","","",""
"","image-keyboard-response","12","52887","0.0-12.0","3TE3O85731U6AV4O7FRBSCJD9J3R2L","A3IXFZZ3JWTCPW","3WRBLBQ2GRU63BU2LFOJL1G32T90GO","","18.100000000093132","img/land6.png","75","19.399999999906868","2","0","1","2","0.8,0.2,0.2,0.2,0.8,0.2,0.2,0.2,0.8","0.8,0.2,0.2,0.2,0.8,0.2,0.2,0.2,0.8","1","",""
"","html-keyboard-response","13","53188","0.0-13.0","3TE3O85731U6AV4O7FRBSCJD9J3R2L","A3IXFZZ3JWTCPW","3WRBLBQ2GRU63BU2LFOJL1G32T90GO","","null","<img src=""img/land6.png"" style=""width:200px;border:14px solid red;"">","null","","","","","","","","","",""
"","image-keyboard-response","14","53226","0.0-14.0","3TE3O85731U6AV4O7FRBSCJD9J3R2L","A3IXFZZ3JWTCPW","3WRBLBQ2GRU63BU2LFOJL1G32T90GO","","35.300000000046566","img/land5.png","75","36.800000000046566","2","0","3","2","0.8,0.2,0.2,0.2,0.8,0.2,0.2,0.2,0.8","0.8,0.2,0.2,0.2,0.8,0.2,0.2,0.2,0.8","1","",""
"","html-keyboard-response","15","53527","0.0-15.0","3TE3O85731U6AV4O7FRBSCJD9J3R2L","A3IXFZZ3JWTCPW","3WRBLBQ2GRU63BU2LFOJL1G32T90GO","","null","<img src=""img/land5.png"" style=""width:200px;border:14px solid red;"">","null","","","","","","","","","",""
"","image-keyboard-response","16","53698","0.0-16.0","3TE3O85731U6AV4O7FRBSCJD9J3R2L","A3IXFZZ3JWTCPW","3WRBLBQ2GRU63BU2LFOJL1G32T90GO","","168.5","img/land6.png","76","169.89999999990687","3","1","1","2","0.8,0.2,0.2,0.2,0.8,0.2,0.2,0.2,0.8","0.8,0.2,0.2,0.2,0.8,0.2,0.2,0.2,0.8","1","",""
"","html-keyboard-response","17","54000","0.0-17.0","3TE3O85731U6AV4O7FRBSCJD9J3R2L","A3IXFZZ3JWTCPW","3WRBLBQ2GRU63BU2LFOJL1G32T90GO","","null","<img src=""img/land6.png"" style=""width:200px; border:14px solid green;"">","null","","","","","","","","","",""
"","image-keyboard-response","18","54280","0.0-18.0","3TE3O85731U6AV4O7FRBSCJD9J3R2L","A3IXFZZ3JWTCPW","3WRBLBQ2GRU63BU2LFOJL1G32T90GO","","279","img/land5.png","76","280.39999999990687","3","1","3","2","0.8,0.2,0.2,0.2,0.8,0.2,0.2,0.2,0.8","0.8,0.2,0.2,0.2,0.8,0.2,0.2,0.2,0.8","1","",""
"","html-keyboard-response","19","54583","0.0-19.0","3TE3O85731U6AV4O7FRBSCJD9J3R2L","A3IXFZZ3JWTCPW","3WRBLBQ2GRU63BU2LFOJL1G32T90GO","","null","<img src=""img/land5.png"" style=""width:200px; border:14px solid green;"">","null","","","","","","","","","",""
"","image-keyboard-response","20","55051","0.0-20.0","3TE3O85731U6AV4O7FRBSCJD9J3R2L","A3IXFZZ3JWTCPW","3WRBLBQ2GRU63BU2LFOJL1G32T90GO","","466.89999999990687","img/land6.png","74","468.10000000009313","1","1","1","2","0.8,0.2,0.2,0.2,0.8,0.2,0.2,0.2,0.8","0.8,0.2,0.2,0.2,0.8,0.2,0.2,0.2,0.8","1","",""
"","html-keyboard-response","21","55353","0.0-21.0","3TE3O85731U6AV4O7FRBSCJD9J3R2L","A3IXFZZ3JWTCPW","3WRBLBQ2GRU63BU2LFOJL1G32T90GO","","null","<img src=""img/land6.png"" style=""width:200px; border:14px solid green;"">","null","","","","","","","","","",""
"","image-keyboard-response","22","56735","0.0-22.0","3TE3O85731U6AV4O7FRBSCJD9J3R2L","A3IXFZZ3JWTCPW","3WRBLBQ2GRU63BU2LFOJL1G32T90GO","","1379.5999999998603","img/land6.png","74","1381","1","1","1","2","0.8,0.2,0.2,0.2,0.8,0.2,0.2,0.2,0.8","0.8,0.2,0.2,0.2,0.8,0.2,0.2,0.2,0.8","1","",""
"","html-keyboard-response","23","57036","0.0-23.0","3TE3O85731U6AV4O7FRBSCJD9J3R2L","A3IXFZZ3JWTCPW","3WRBLBQ2GRU63BU2LFOJL1G32T90GO","","null","<img src=""img/land6.png"" style=""width:200px; border:14px solid green;"">","null","","","","","","","","","",""
"","image-keyboard-response","24","57715","0.0-24.0","3TE3O85731U6AV4O7FRBSCJD9J3R2L","A3IXFZZ3JWTCPW","3WRBLBQ2GRU63BU2LFOJL1G32T90GO","","676.5","img/land4.png","75","677.6999999999534","2","1","2","2","0.8,0.2,0.2,0.2,0.8,0.2,0.2,0.2,0.8","0.8,0.2,0.2,0.2,0.8,0.2,0.2,0.2,0.8","1","",""
"","html-keyboard-response","25","58022","0.0-25.0","3TE3O85731U6AV4O7FRBSCJD9J3R2L","A3IXFZZ3JWTCPW","3WRBLBQ2GRU63BU2LFOJL1G32T90GO","","null","<img src=""img/land4.png"" style=""width:200px; border:14px solid green;"">","null","","","","","","","","","",""
"","image-keyboard-response","26","58920","0.0-26.0","3TE3O85731U6AV4O7FRBSCJD9J3R2L","A3IXFZZ3JWTCPW","3WRBLBQ2GRU63BU2LFOJL1G32T90GO","","896.3999999999069","img/land6.png","74","897.8999999999069","1","0","1","2","0.8,0.2,0.2,0.2,0.8,0.2,0.2,0.2,0.8","0.8,0.2,0.2,0.2,0.8,0.2,0.2,0.2,0.8","1","",""
"","html-keyboard-response","27","59222","0.0-27.0","3TE3O85731U6AV4O7FRBSCJD9J3R2L","A3IXFZZ3JWTCPW","3WRBLBQ2GRU63BU2LFOJL1G32T90GO","","null","<img src=""img/land6.png"" style=""width:200px;border:14px solid red;"">","null","","","","","","","","","",""
"","image-keyboard-response","28","60132","0.0-28.0","3TE3O85731U6AV4O7FRBSCJD9J3R2L","A3IXFZZ3JWTCPW","3WRBLBQ2GRU63BU2LFOJL1G32T90GO","","908.1000000000931","img/land4.png","76","909.1999999999534","3","1","2","2","0.8,0.2,0.2,0.2,0.8,0.2,0.2,0.2,0.8","0.8,0.2,0.2,0.2,0.8,0.2,0.2,0.2,0.8","1","",""
"","html-keyboard-response","29","60434","0.0-29.0","3TE3O85731U6AV4O7FRBSCJD9J3R2L","A3IXFZZ3JWTCPW","3WRBLBQ2GRU63BU2LFOJL1G32T90GO","","null","<img src=""img/land4.png"" style=""width:200px; border:14px solid green;"">","null","","","","","","","","","",""
"","image-keyboard-response","30","61535","0.0-30.0","3TE3O85731U6AV4O7FRBSCJD9J3R2L","A3IXFZZ3JWTCPW","3WRBLBQ2GRU63BU2LFOJL1G32T90GO","","1099.1999999999534","img/land6.png","75","1100.5","2","0","1","2","0.8,0.2,0.2,0.2,0.8,0.2,0.2,0.2,0.8","0.8,0.2,0.2,0.2,0.8,0.2,0.2,0.2,0.8","1","",""
"","html-keyboard-response","31","61837","0.0-31.0","3TE3O85731U6AV4O7FRBSCJD9J3R2L","A3IXFZZ3JWTCPW","3WRBLBQ2GRU63BU2LFOJL1G32T90GO","","null","<img src=""img/land6.png"" style=""width:200px;border:14px solid red;"">","null","","","","","","","","","",""
"","image-keyboard-response","32","62093","0.0-32.0","3TE3O85731U6AV4O7FRBSCJD9J3R2L","A3IXFZZ3JWTCPW","3WRBLBQ2GRU63BU2LFOJL1G32T90GO","","253.5999999998603","img/land4.png","74","254.89999999990687","1","1","2","2","0.8,0.2,0.2,0.2,0.8,0.2,0.2,0.2,0.8","0.8,0.2,0.2,0.2,0.8,0.2,0.2,0.2,0.8","1","",""
"","html-keyboard-response","33","62395","0.0-33.0","3TE3O85731U6AV4O7FRBSCJD9J3R2L","A3IXFZZ3JWTCPW","3WRBLBQ2GRU63BU2LFOJL1G32T90GO","","null","<img src=""img/land4.png"" style=""width:200px; border:14px solid green;"">","null","","","","","","","","","",""
"","image-keyboard-response","34","63030","0.0-34.0","3TE3O85731U6AV4O7FRBSCJD9J3R2L","A3IXFZZ3JWTCPW","3WRBLBQ2GRU63BU2LFOJL1G32T90GO","","633.0999999998603","img/land4.png","75","634.4000000001397","2","1","2","2","0.8,0.2,0.2,0.2,0.8,0.2,0.2,0.2,0.8","0.8,0.2,0.2,0.2,0.8,0.2,0.2,0.2,0.8","1","",""
"","html-keyboard-response","35","63331","0.0-35.0","3TE3O85731U6AV4O7FRBSCJD9J3R2L","A3IXFZZ3JWTCPW","3WRBLBQ2GRU63BU2LFOJL1G32T90GO","","null","<img src=""img/land4.png"" style=""width:200px; border:14px solid green;"">","null","","","","","","","","","",""
"","image-keyboard-response","36","64839","0.0-36.0","3TE3O85731U6AV4O7FRBSCJD9J3R2L","A3IXFZZ3JWTCPW","3WRBLBQ2GRU63BU2LFOJL1G32T90GO","","1506","img/land4.png","75","1507.2999999998137","2","1","2","2","0.8,0.2,0.2,0.2,0.8,0.2,0.2,0.2,0.8","0.8,0.2,0.2,0.2,0.8,0.2,0.2,0.2,0.8","1","",""
"","html-keyboard-response","37","65141","0.0-37.0","3TE3O85731U6AV4O7FRBSCJD9J3R2L","A3IXFZZ3JWTCPW","3WRBLBQ2GRU63BU2LFOJL1G32T90GO","","null","<img src=""img/land4.png"" style=""width:200px; border:14px solid green;"">","null","","","","","","","","","",""
"","image-keyboard-response","38","65889","0.0-38.0","3TE3O85731U6AV4O7FRBSCJD9J3R2L","A3IXFZZ3JWTCPW","3WRBLBQ2GRU63BU2LFOJL1G32T90GO","","745.6999999999534","img/land6.png","76","746.9000000001397","3","0","1","2","0.8,0.2,0.2,0.2,0.8,0.2,0.2,0.2,0.8","0.8,0.2,0.2,0.2,0.8,0.2,0.2,0.2,0.8","1","",""
"","html-keyboard-response","39","66190","0.0-39.0","3TE3O85731U6AV4O7FRBSCJD9J3R2L","A3IXFZZ3JWTCPW","3WRBLBQ2GRU63BU2LFOJL1G32T90GO","","null","<img src=""img/land6.png"" style=""width:200px;border:14px solid red;"">","null","","","","","","","","","",""
"","image-keyboard-response","40","67328","0.0-40.0","3TE3O85731U6AV4O7FRBSCJD9J3R2L","A3IXFZZ3JWTCPW","3WRBLBQ2GRU63BU2LFOJL1G32T90GO","","1135.5","img/land5.png","74","1136.8000000000466","1","0","3","2","0.8,0.2,0.2,0.2,0.8,0.2,0.2,0.2,0.8","0.8,0.2,0.2,0.2,0.8,0.2,0.2,0.2,0.8","1","",""
"","html-keyboard-response","41","67630","0.0-41.0","3TE3O85731U6AV4O7FRBSCJD9J3R2L","A3IXFZZ3JWTCPW","3WRBLBQ2GRU63BU2LFOJL1G32T90GO","","null","<img src=""img/land5.png"" style=""width:200px;border:14px solid red;"">","null","","","","","","","","","",""
"","image-keyboard-response","42","68438","0.0-42.0","3TE3O85731U6AV4O7FRBSCJD9J3R2L","A3IXFZZ3JWTCPW","3WRBLBQ2GRU63BU2LFOJL1G32T90GO","","806.8000000000466","img/land6.png","74","808","1","1","1","2","0.8,0.2,0.2,0.2,0.8,0.2,0.2,0.2,0.8","0.8,0.2,0.2,0.2,0.8,0.2,0.2,0.2,0.8","1","",""
"","html-keyboard-response","43","68740","0.0-43.0","3TE3O85731U6AV4O7FRBSCJD9J3R2L","A3IXFZZ3JWTCPW","3WRBLBQ2GRU63BU2LFOJL1G32T90GO","","null","<img src=""img/land6.png"" style=""width:200px; border:14px solid green;"">","null","","","","","","","","","",""
"","image-keyboard-response","44","69514","0.0-44.0","3TE3O85731U6AV4O7FRBSCJD9J3R2L","A3IXFZZ3JWTCPW","3WRBLBQ2GRU63BU2LFOJL1G32T90GO","","772.4000000003725","img/land6.png","74","773.5","1","1","1","2","0.8,0.2,0.2,0.2,0.8,0.2,0.2,0.2,0.8","0.8,0.2,0.2,0.2,0.8,0.2,0.2,0.2,0.8","1","",""
"","html-keyboard-response","45","69816","0.0-45.0","3TE3O85731U6AV4O7FRBSCJD9J3R2L","A3IXFZZ3JWTCPW","3WRBLBQ2GRU63BU2LFOJL1G32T90GO","","null","<img src=""img/land6.png"" style=""width:200px; border:14px solid green;"">","null","","","","","","","","","",""
"","image-keyboard-response","46","70742","0.0-46.0","3TE3O85731U6AV4O7FRBSCJD9J3R2L","A3IXFZZ3JWTCPW","3WRBLBQ2GRU63BU2LFOJL1G32T90GO","","924.8999999999069","img/land6.png","74","926","1","1","1","2","0.8,0.2,0.2,0.2,0.8,0.2,0.2,0.2,0.8","0.8,0.2,0.2,0.2,0.8,0.2,0.2,0.2,0.8","1","",""
"","html-keyboard-response","47","71044","0.0-47.0","3TE3O85731U6AV4O7FRBSCJD9J3R2L","A3IXFZZ3JWTCPW","3WRBLBQ2GRU63BU2LFOJL1G32T90GO","","null","<img src=""img/land6.png"" style=""width:200px; border:14px solid green;"">","null","","","","","","","","","",""
"","image-keyboard-response","48","71906","0.0-48.0","3TE3O85731U6AV4O7FRBSCJD9J3R2L","A3IXFZZ3JWTCPW","3WRBLBQ2GRU63BU2LFOJL1G32T90GO","","859.7000000001863","img/land6.png","74","861.6000000000931","1","1","1","2","0.8,0.2,0.2,0.2,0.8,0.2,0.2,0.2,0.8","0.8,0.2,0.2,0.2,0.8,0.2,0.2,0.2,0.8","1","",""
"","html-keyboard-response","49","72208","0.0-49.0","3TE3O85731U6AV4O7FRBSCJD9J3R2L","A3IXFZZ3JWTCPW","3WRBLBQ2GRU63BU2LFOJL1G32T90GO","","null","<img src=""img/land6.png"" style=""width:200px; border:14px solid green;"">","null","","","","","","","","","",""
"","image-keyboard-response","50","73002","0.0-50.0","3TE3O85731U6AV4O7FRBSCJD9J3R2L","A3IXFZZ3JWTCPW","3WRBLBQ2GRU63BU2LFOJL1G32T90GO","","792.1000000000931","img/land5.png","76","793.6000000000931","3","0","3","2","0.8,0.2,0.2,0.2,0.8,0.2,0.2,0.2,0.8","0.8,0.2,0.2,0.2,0.8,0.2,0.2,0.2,0.8","1","",""
"","html-keyboard-response","51","73305","0.0-51.0","3TE3O85731U6AV4O7FRBSCJD9J3R2L","A3IXFZZ3JWTCPW","3WRBLBQ2GRU63BU2LFOJL1G32T90GO","","null","<img src=""img/land5.png"" style=""width:200px;border:14px solid red;"">","null","","","","","","","","","",""
"","image-keyboard-response","52","73920","0.0-52.0","3TE3O85731U6AV4O7FRBSCJD9J3R2L","A3IXFZZ3JWTCPW","3WRBLBQ2GRU63BU2LFOJL1G32T90GO","","613.7999999998137","img/land5.png","75","615.1000000000931","2","0","3","2","0.8,0.2,0.2,0.2,0.8,0.2,0.2,0.2,0.8","0.8,0.2,0.2,0.2,0.8,0.2,0.2,0.2,0.8","1","",""
"","html-keyboard-response","53","74222","0.0-53.0","3TE3O85731U6AV4O7FRBSCJD9J3R2L","A3IXFZZ3JWTCPW","3WRBLBQ2GRU63BU2LFOJL1G32T90GO","","null","<img src=""img/land5.png"" style=""width:200px;border:14px solid red;"">","null","","","","","","","","","",""
"","image-keyboard-response","54","74944","0.0-54.0","3TE3O85731U6AV4O7FRBSCJD9J3R2L","A3IXFZZ3JWTCPW","3WRBLBQ2GRU63BU2LFOJL1G32T90GO","","719.4000000003725","img/land5.png","74","720.7000000001863","1","0","3","2","0.8,0.2,0.2,0.2,0.8,0.2,0.2,0.2,0.8","0.8,0.2,0.2,0.2,0.8,0.2,0.2,0.2,0.8","1","",""
"","html-keyboard-response","55","75245","0.0-55.0","3TE3O85731U6AV4O7FRBSCJD9J3R2L","A3IXFZZ3JWTCPW","3WRBLBQ2GRU63BU2LFOJL1G32T90GO","","null","<img src=""img/land5.png"" style=""width:200px;border:14px solid red;"">","null","","","","","","","","","",""
"","image-keyboard-response","56","75533","0.0-56.0","3TE3O85731U6AV4O7FRBSCJD9J3R2L","A3IXFZZ3JWTCPW","3WRBLBQ2GRU63BU2LFOJL1G32T90GO","","285.8000000002794","img/land5.png","76","287","3","1","3","2","0.8,0.2,0.2,0.2,0.8,0.2,0.2,0.2,0.8","0.8,0.2,0.2,0.2,0.8,0.2,0.2,0.2,0.8","1","",""
"","html-keyboard-response","57","75835","0.0-57.0","3TE3O85731U6AV4O7FRBSCJD9J3R2L","A3IXFZZ3JWTCPW","3WRBLBQ2GRU63BU2LFOJL1G32T90GO","","null","<img src=""img/land5.png"" style=""width:200px; border:14px solid green;"">","null","","","","","","","","","",""
"","image-keyboard-response","58","76584","0.0-58.0","3TE3O85731U6AV4O7FRBSCJD9J3R2L","A3IXFZZ3JWTCPW","3WRBLBQ2GRU63BU2LFOJL1G32T90GO","","747.6999999997206","img/land5.png","76","749.2000000001863","3","1","3","2","0.8,0.2,0.2,0.2,0.8,0.2,0.2,0.2,0.8","0.8,0.2,0.2,0.2,0.8,0.2,0.2,0.2,0.8","1","",""
"","html-keyboard-response","59","76887","0.0-59.0","3TE3O85731U6AV4O7FRBSCJD9J3R2L","A3IXFZZ3JWTCPW","3WRBLBQ2GRU63BU2LFOJL1G32T90GO","","null","<img src=""img/land5.png"" style=""width:200px; border:14px solid green;"">","null","","","","","","","","","",""
"","image-keyboard-response","60","77466","0.0-60.0","3TE3O85731U6AV4O7FRBSCJD9J3R2L","A3IXFZZ3JWTCPW","3WRBLBQ2GRU63BU2LFOJL1G32T90GO","","577","img/land5.png","76","578.3000000002794","3","1","3","2","0.8,0.2,0.2,0.2,0.8,0.2,0.2,0.2,0.8","0.8,0.2,0.2,0.2,0.8,0.2,0.2,0.2,0.8","1","",""
"","html-keyboard-response","61","77767","0.0-61.0","3TE3O85731U6AV4O7FRBSCJD9J3R2L","A3IXFZZ3JWTCPW","3WRBLBQ2GRU63BU2LFOJL1G32T90GO","","null","<img src=""img/land5.png"" style=""width:200px; border:14px solid green;"">","null","","","","","","","","","",""
"","image-keyboard-response","62","78569","0.0-62.0","3TE3O85731U6AV4O7FRBSCJD9J3R2L","A3IXFZZ3JWTCPW","3WRBLBQ2GRU63BU2LFOJL1G32T90GO","","799.4000000003725","img/land6.png","74","800.7999999998137","1","1","1","2","0.8,0.2,0.2,0.2,0.8,0.2,0.2,0.2,0.8","0.8,0.2,0.2,0.2,0.8,0.2,0.2,0.2,0.8","1","",""
"","html-keyboard-response","63","78871","0.0-63.0","3TE3O85731U6AV4O7FRBSCJD9J3R2L","A3IXFZZ3JWTCPW","3WRBLBQ2GRU63BU2LFOJL1G32T90GO","","null","<img src=""img/land6.png"" style=""width:200px; border:14px solid green;"">","null","","","","","","","","","",""
"","image-keyboard-response","64","79410","0.0-64.0","3TE3O85731U6AV4O7FRBSCJD9J3R2L","A3IXFZZ3JWTCPW","3WRBLBQ2GRU63BU2LFOJL1G32T90GO","","537.6000000000931","img/land6.png","74","538.8999999999069","1","1","1","2","0.8,0.2,0.2,0.2,0.8,0.2,0.2,0.2,0.8","0.8,0.2,0.2,0.2,0.8,0.2,0.2,0.2,0.8","1","",""
"","html-keyboard-response","65","79712","0.0-65.0","3TE3O85731U6AV4O7FRBSCJD9J3R2L","A3IXFZZ3JWTCPW","3WRBLBQ2GRU63BU2LFOJL1G32T90GO","","null","<img src=""img/land6.png"" style=""width:200px; border:14px solid green;"">","null","","","","","","","","","",""
"","image-keyboard-response","66","80153","0.0-66.0","3TE3O85731U6AV4O7FRBSCJD9J3R2L","A3IXFZZ3JWTCPW","3WRBLBQ2GRU63BU2LFOJL1G32T90GO","","439.40000000037253","img/land6.png","74","440.60000000009313","1","1","1","2","0.8,0.2,0.2,0.2,0.8,0.2,0.2,0.2,0.8","0.8,0.2,0.2,0.2,0.8,0.2,0.2,0.2,0.8","1","",""
"","html-keyboard-response","67","80455","0.0-67.0","3TE3O85731U6AV4O7FRBSCJD9J3R2L","A3IXFZZ3JWTCPW","3WRBLBQ2GRU63BU2LFOJL1G32T90GO","","null","<img src=""img/land6.png"" style=""width:200px; border:14px solid green;"">","null","","","","","","","","","",""
"","image-keyboard-response","68","81073","0.0-68.0","3TE3O85731U6AV4O7FRBSCJD9J3R2L","A3IXFZZ3JWTCPW","3WRBLBQ2GRU63BU2LFOJL1G32T90GO","","615.7999999998137","img/land6.png","74","617.1000000000931","1","1","1","2","0.8,0.2,0.2,0.2,0.8,0.2,0.2,0.2,0.8","0.8,0.2,0.2,0.2,0.8,0.2,0.2,0.2,0.8","1","",""
"","html-keyboard-response","69","81375","0.0-69.0","3TE3O85731U6AV4O7FRBSCJD9J3R2L","A3IXFZZ3JWTCPW","3WRBLBQ2GRU63BU2LFOJL1G32T90GO","","null","<img src=""img/land6.png"" style=""width:200px; border:14px solid green;"">","null","","","","","","","","","",""
"","image-keyboard-response","70","81838","0.0-70.0","3TE3O85731U6AV4O7FRBSCJD9J3R2L","A3IXFZZ3JWTCPW","3WRBLBQ2GRU63BU2LFOJL1G32T90GO","","451.10000000009313","img/land6.png","74","452.29999999981374","1","1","1","2","0.8,0.2,0.2,0.2,0.8,0.2,0.2,0.2,0.8","0.8,0.2,0.2,0.2,0.8,0.2,0.2,0.2,0.8","1","",""
"","html-keyboard-response","71","82140","0.0-71.0","3TE3O85731U6AV4O7FRBSCJD9J3R2L","A3IXFZZ3JWTCPW","3WRBLBQ2GRU63BU2LFOJL1G32T90GO","","null","<img src=""img/land6.png"" style=""width:200px; border:14px solid green;"">","null","","","","","","","","","",""
"","image-keyboard-response","72","82647","0.0-72.0","3TE3O85731U6AV4O7FRBSCJD9J3R2L","A3IXFZZ3JWTCPW","3WRBLBQ2GRU63BU2LFOJL1G32T90GO","","505","img/land6.png","74","506.10000000009313","1","0","1","2","0.8,0.2,0.2,0.2,0.8,0.2,0.2,0.2,0.8","0.8,0.2,0.2,0.2,0.8,0.2,0.2,0.2,0.8","1","",""
"","html-keyboard-response","73","82949","0.0-73.0","3TE3O85731U6AV4O7FRBSCJD9J3R2L","A3IXFZZ3JWTCPW","3WRBLBQ2GRU63BU2LFOJL1G32T90GO","","null","<img src=""img/land6.png"" style=""width:200px;border:14px solid red;"">","null","","","","","","","","","",""
"","image-keyboard-response","74","84059","0.0-74.0","3TE3O85731U6AV4O7FRBSCJD9J3R2L","A3IXFZZ3JWTCPW","3WRBLBQ2GRU63BU2LFOJL1G32T90GO","","1107.6000000000931","img/land6.png","74","1108.8999999999069","1","1","1","2","0.8,0.2,0.2,0.2,0.8,0.2,0.2,0.2,0.8","0.8,0.2,0.2,0.2,0.8,0.2,0.2,0.2,0.8","1","",""
"","html-keyboard-response","75","84360","0.0-75.0","3TE3O85731U6AV4O7FRBSCJD9J3R2L","A3IXFZZ3JWTCPW","3WRBLBQ2GRU63BU2LFOJL1G32T90GO","","null","<img src=""img/land6.png"" style=""width:200px; border:14px solid green;"">","null","","","","","","","","","",""
"","image-keyboard-response","76","85347","0.0-76.0","3TE3O85731U6AV4O7FRBSCJD9J3R2L","A3IXFZZ3JWTCPW","3WRBLBQ2GRU63BU2LFOJL1G32T90GO","","985","img/land5.png","76","986.1000000000931","3","1","3","2","0.8,0.2,0.2,0.2,0.8,0.2,0.2,0.2,0.8","0.8,0.2,0.2,0.2,0.8,0.2,0.2,0.2,0.8","1","",""
"","html-keyboard-response","77","85650","0.0-77.0","3TE3O85731U6AV4O7FRBSCJD9J3R2L","A3IXFZZ3JWTCPW","3WRBLBQ2GRU63BU2LFOJL1G32T90GO","","null","<img src=""img/land5.png"" style=""width:200px; border:14px solid green;"">","null","","","","","","","","","",""
"","image-keyboard-response","78","86635","0.0-78.0","3TE3O85731U6AV4O7FRBSCJD9J3R2L","A3IXFZZ3JWTCPW","3WRBLBQ2GRU63BU2LFOJL1G32T90GO","","983.5","img/land6.png","74","984.7999999998137","1","1","1","2","0.8,0.2,0.2,0.2,0.8,0.2,0.2,0.2,0.8","0.8,0.2,0.2,0.2,0.8,0.2,0.2,0.2,0.8","1","",""
"","html-keyboard-response","79","86937","0.0-79.0","3TE3O85731U6AV4O7FRBSCJD9J3R2L","A3IXFZZ3JWTCPW","3WRBLBQ2GRU63BU2LFOJL1G32T90GO","","null","<img src=""img/land6.png"" style=""width:200px; border:14px solid green;"">","null","","","","","","","","","",""
"","image-keyboard-response","80","87717","0.0-80.0","3TE3O85731U6AV4O7FRBSCJD9J3R2L","A3IXFZZ3JWTCPW","3WRBLBQ2GRU63BU2LFOJL1G32T90GO","","778.7000000001863","img/land4.png","75","779.7000000001863","2","1","2","2","0.8,0.2,0.2,0.2,0.8,0.2,0.2,0.2,0.8","0.8,0.2,0.2,0.2,0.8,0.2,0.2,0.2,0.8","1","",""
"","html-keyboard-response","81","88021","0.0-81.0","3TE3O85731U6AV4O7FRBSCJD9J3R2L","A3IXFZZ3JWTCPW","3WRBLBQ2GRU63BU2LFOJL1G32T90GO","","null","<img src=""img/land4.png"" style=""width:200px; border:14px solid green;"">","null","","","","","","","","","",""
"","image-keyboard-response","82","88838","0.0-82.0","3TE3O85731U6AV4O7FRBSCJD9J3R2L","A3IXFZZ3JWTCPW","3WRBLBQ2GRU63BU2LFOJL1G32T90GO","","815","img/land6.png","74","816.2000000001863","1","1","1","2","0.8,0.2,0.2,0.2,0.8,0.2,0.2,0.2,0.8","0.8,0.2,0.2,0.2,0.8,0.2,0.2,0.2,0.8","1","",""
"","html-keyboard-response","83","89140","0.0-83.0","3TE3O85731U6AV4O7FRBSCJD9J3R2L","A3IXFZZ3JWTCPW","3WRBLBQ2GRU63BU2LFOJL1G32T90GO","","null","<img src=""img/land6.png"" style=""width:200px; border:14px solid green;"">","null","","","","","","","","","",""
"","image-keyboard-response","84","89957","0.0-84.0","3TE3O85731U6AV4O7FRBSCJD9J3R2L","A3IXFZZ3JWTCPW","3WRBLBQ2GRU63BU2LFOJL1G32T90GO","","815.2999999998137","img/land6.png","74","816.6000000000931","1","1","1","2","0.8,0.2,0.2,0.2,0.8,0.2,0.2,0.2,0.8","0.8,0.2,0.2,0.2,0.8,0.2,0.2,0.2,0.8","1","",""
"","html-keyboard-response","85","90259","0.0-85.0","3TE3O85731U6AV4O7FRBSCJD9J3R2L","A3IXFZZ3JWTCPW","3WRBLBQ2GRU63BU2LFOJL1G32T90GO","","null","<img src=""img/land6.png"" style=""width:200px; border:14px solid green;"">","null","","","","","","","","","",""
"","image-keyboard-response","86","90691","0.0-86.0","3TE3O85731U6AV4O7FRBSCJD9J3R2L","A3IXFZZ3JWTCPW","3WRBLBQ2GRU63BU2LFOJL1G32T90GO","","429.60000000009313","img/land6.png","74","431.39999999990687","1","1","1","2","0.8,0.2,0.2,0.2,0.8,0.2,0.2,0.2,0.8","0.8,0.2,0.2,0.2,0.8,0.2,0.2,0.2,0.8","1","",""
"","html-keyboard-response","87","90993","0.0-87.0","3TE3O85731U6AV4O7FRBSCJD9J3R2L","A3IXFZZ3JWTCPW","3WRBLBQ2GRU63BU2LFOJL1G32T90GO","","null","<img src=""img/land6.png"" style=""width:200px; border:14px solid green;"">","null","","","","","","","","","",""
"","image-keyboard-response","88","91777","0.0-88.0","3TE3O85731U6AV4O7FRBSCJD9J3R2L","A3IXFZZ3JWTCPW","3WRBLBQ2GRU63BU2LFOJL1G32T90GO","","782.3000000002794","img/land6.png","74","783.5","1","1","1","2","0.8,0.2,0.2,0.2,0.8,0.2,0.2,0.2,0.8","0.8,0.2,0.2,0.2,0.8,0.2,0.2,0.2,0.8","1","",""
"","html-keyboard-response","89","92079","0.0-89.0","3TE3O85731U6AV4O7FRBSCJD9J3R2L","A3IXFZZ3JWTCPW","3WRBLBQ2GRU63BU2LFOJL1G32T90GO","","null","<img src=""img/land6.png"" style=""width:200px; border:14px solid green;"">","null","","","","","","","","","",""
"","image-keyboard-response","90","92578","0.0-90.0","3TE3O85731U6AV4O7FRBSCJD9J3R2L","A3IXFZZ3JWTCPW","3WRBLBQ2GRU63BU2LFOJL1G32T90GO","","496.5","img/land6.png","74","497.70000000018626","1","1","1","2","0.8,0.2,0.2,0.2,0.8,0.2,0.2,0.2,0.8","0.8,0.2,0.2,0.2,0.8,0.2,0.2,0.2,0.8","1","",""
"","html-keyboard-response","91","92879","0.0-91.0","3TE3O85731U6AV4O7FRBSCJD9J3R2L","A3IXFZZ3JWTCPW","3WRBLBQ2GRU63BU2LFOJL1G32T90GO","","null","<img src=""img/land6.png"" style=""width:200px; border:14px solid green;"">","null","","","","","","","","","",""
"","image-keyboard-response","92","93274","0.0-92.0","3TE3O85731U6AV4O7FRBSCJD9J3R2L","A3IXFZZ3JWTCPW","3WRBLBQ2GRU63BU2LFOJL1G32T90GO","","393.5","img/land6.png","74","394.60000000009313","1","1","1","2","0.8,0.2,0.2,0.2,0.8,0.2,0.2,0.2,0.8","0.8,0.2,0.2,0.2,0.8,0.2,0.2,0.2,0.8","1","",""
"","html-keyboard-response","93","93576","0.0-93.0","3TE3O85731U6AV4O7FRBSCJD9J3R2L","A3IXFZZ3JWTCPW","3WRBLBQ2GRU63BU2LFOJL1G32T90GO","","null","<img src=""img/land6.png"" style=""width:200px; border:14px solid green;"">","null","","","","","","","","","",""
"","image-keyboard-response","94","94021","0.0-94.0","3TE3O85731U6AV4O7FRBSCJD9J3R2L","A3IXFZZ3JWTCPW","3WRBLBQ2GRU63BU2LFOJL1G32T90GO","","443.10000000009313","img/land6.png","74","444.5","1","0","1","2","0.8,0.2,0.2,0.2,0.8,0.2,0.2,0.2,0.8","0.8,0.2,0.2,0.2,0.8,0.2,0.2,0.2,0.8","1","",""
"","html-keyboard-response","95","94325","0.0-95.0","3TE3O85731U6AV4O7FRBSCJD9J3R2L","A3IXFZZ3JWTCPW","3WRBLBQ2GRU63BU2LFOJL1G32T90GO","","null","<img src=""img/land6.png"" style=""width:200px;border:14px solid red;"">","null","","","","","","","","","",""
"","image-keyboard-response","96","95087","0.0-96.0","3TE3O85731U6AV4O7FRBSCJD9J3R2L","A3IXFZZ3JWTCPW","3WRBLBQ2GRU63BU2LFOJL1G32T90GO","","760.1000000000931","img/land6.png","74","761.3999999999069","1","0","1","2","0.8,0.2,0.2,0.2,0.8,0.2,0.2,0.2,0.8","0.8,0.2,0.2,0.2,0.8,0.2,0.2,0.2,0.8","1","",""
"","html-keyboard-response","97","95389","0.0-97.0","3TE3O85731U6AV4O7FRBSCJD9J3R2L","A3IXFZZ3JWTCPW","3WRBLBQ2GRU63BU2LFOJL1G32T90GO","","null","<img src=""img/land6.png"" style=""width:200px;border:14px solid red;"">","null","","","","","","","","","",""
"","image-keyboard-response","98","95910","0.0-98.0","3TE3O85731U6AV4O7FRBSCJD9J3R2L","A3IXFZZ3JWTCPW","3WRBLBQ2GRU63BU2LFOJL1G32T90GO","","518.8999999999069","img/land6.png","74","520","1","1","1","2","0.8,0.2,0.2,0.2,0.8,0.2,0.2,0.2,0.8","0.8,0.2,0.2,0.2,0.8,0.2,0.2,0.2,0.8","1","",""
"","html-keyboard-response","99","96211","0.0-99.0","3TE3O85731U6AV4O7FRBSCJD9J3R2L","A3IXFZZ3JWTCPW","3WRBLBQ2GRU63BU2LFOJL1G32T90GO","","null","<img src=""img/land6.png"" style=""width:200px; border:14px solid green;"">","null","","","","","","","","","",""
"","image-keyboard-response","100","97147","0.0-100.0","3TE3O85731U6AV4O7FRBSCJD9J3R2L","A3IXFZZ3JWTCPW","3WRBLBQ2GRU63BU2LFOJL1G32T90GO","","933.3999999999069","img/land4.png","75","934.6999999997206","2","1","2","2","0.8,0.2,0.2,0.2,0.8,0.2,0.2,0.2,0.8","0.8,0.2,0.2,0.2,0.8,0.2,0.2,0.2,0.8","1","",""
"","html-keyboard-response","101","97448","0.0-101.0","3TE3O85731U6AV4O7FRBSCJD9J3R2L","A3IXFZZ3JWTCPW","3WRBLBQ2GRU63BU2LFOJL1G32T90GO","","null","<img src=""img/land4.png"" style=""width:200px; border:14px solid green;"">","null","","","","","","","","","",""
"","image-keyboard-response","102","98174","0.0-102.0","3TE3O85731U6AV4O7FRBSCJD9J3R2L","A3IXFZZ3JWTCPW","3WRBLBQ2GRU63BU2LFOJL1G32T90GO","","723.6000000000931","img/land6.png","74","725","1","1","1","2","0.8,0.2,0.2,0.2,0.8,0.2,0.2,0.2,0.8","0.8,0.2,0.2,0.2,0.8,0.2,0.2,0.2,0.8","1","",""
"","html-keyboard-response","103","98476","0.0-103.0","3TE3O85731U6AV4O7FRBSCJD9J3R2L","A3IXFZZ3JWTCPW","3WRBLBQ2GRU63BU2LFOJL1G32T90GO","","null","<img src=""img/land6.png"" style=""width:200px; border:14px solid green;"">","null","","","","","","","","","",""
"","image-keyboard-response","104","99182","0.0-104.0","3TE3O85731U6AV4O7FRBSCJD9J3R2L","A3IXFZZ3JWTCPW","3WRBLBQ2GRU63BU2LFOJL1G32T90GO","","704.6000000000931","img/land6.png","74","705.7999999998137","1","1","1","2","0.8,0.2,0.2,0.2,0.8,0.2,0.2,0.2,0.8","0.8,0.2,0.2,0.2,0.8,0.2,0.2,0.2,0.8","1","",""
"","html-keyboard-response","105","99484","0.0-105.0","3TE3O85731U6AV4O7FRBSCJD9J3R2L","A3IXFZZ3JWTCPW","3WRBLBQ2GRU63BU2LFOJL1G32T90GO","","null","<img src=""img/land6.png"" style=""width:200px; border:14px solid green;"">","null","","","","","","","","","",""
"","image-keyboard-response","106","99981","0.0-106.0","3TE3O85731U6AV4O7FRBSCJD9J3R2L","A3IXFZZ3JWTCPW","3WRBLBQ2GRU63BU2LFOJL1G32T90GO","","495.10000000009313","img/land6.png","74","496.1999999997206","1","1","1","2","0.8,0.2,0.2,0.2,0.8,0.2,0.2,0.2,0.8","0.8,0.2,0.2,0.2,0.8,0.2,0.2,0.2,0.8","1","",""
"","html-keyboard-response","107","100283","0.0-107.0","3TE3O85731U6AV4O7FRBSCJD9J3R2L","A3IXFZZ3JWTCPW","3WRBLBQ2GRU63BU2LFOJL1G32T90GO","","null","<img src=""img/land6.png"" style=""width:200px; border:14px solid green;"">","null","","","","","","","","","",""
"","image-keyboard-response","108","100990","0.0-108.0","3TE3O85731U6AV4O7FRBSCJD9J3R2L","A3IXFZZ3JWTCPW","3WRBLBQ2GRU63BU2LFOJL1G32T90GO","","704.8999999999069","img/land4.png","75","706","2","1","2","2","0.8,0.2,0.2,0.2,0.8,0.2,0.2,0.2,0.8","0.8,0.2,0.2,0.2,0.8,0.2,0.2,0.2,0.8","1","",""
"","html-keyboard-response","109","101292","0.0-109.0","3TE3O85731U6AV4O7FRBSCJD9J3R2L","A3IXFZZ3JWTCPW","3WRBLBQ2GRU63BU2LFOJL1G32T90GO","","null","<img src=""img/land4.png"" style=""width:200px; border:14px solid green;"">","null","","","","","","","","","",""
"","image-keyboard-response","110","101912","0.0-110.0","3TE3O85731U6AV4O7FRBSCJD9J3R2L","A3IXFZZ3JWTCPW","3WRBLBQ2GRU63BU2LFOJL1G32T90GO","","618.7000000001863","img/land6.png","74","619.8999999999069","1","1","1","2","0.8,0.2,0.2,0.2,0.8,0.2,0.2,0.2,0.8","0.8,0.2,0.2,0.2,0.8,0.2,0.2,0.2,0.8","1","",""
"","html-keyboard-response","111","102214","0.0-111.0","3TE3O85731U6AV4O7FRBSCJD9J3R2L","A3IXFZZ3JWTCPW","3WRBLBQ2GRU63BU2LFOJL1G32T90GO","","null","<img src=""img/land6.png"" style=""width:200px; border:14px solid green;"">","null","","","","","","","","","",""
"","image-keyboard-response","112","102956","0.0-112.0","3TE3O85731U6AV4O7FRBSCJD9J3R2L","A3IXFZZ3JWTCPW","3WRBLBQ2GRU63BU2LFOJL1G32T90GO","","740.3999999999069","img/land4.png","75","741.6000000000931","2","1","2","2","0.8,0.2,0.2,0.2,0.8,0.2,0.2,0.2,0.8","0.8,0.2,0.2,0.2,0.8,0.2,0.2,0.2,0.8","1","",""
"","html-keyboard-response","113","103258","0.0-113.0","3TE3O85731U6AV4O7FRBSCJD9J3R2L","A3IXFZZ3JWTCPW","3WRBLBQ2GRU63BU2LFOJL1G32T90GO","","null","<img src=""img/land4.png"" style=""width:200px; border:14px solid green;"">","null","","","","","","","","","",""
"","image-keyboard-response","114","103827","0.0-114.0","3TE3O85731U6AV4O7FRBSCJD9J3R2L","A3IXFZZ3JWTCPW","3WRBLBQ2GRU63BU2LFOJL1G32T90GO","","566.6999999997206","img/land6.png","74","568","1","0","1","2","0.8,0.2,0.2,0.2,0.8,0.2,0.2,0.2,0.8","0.8,0.2,0.2,0.2,0.8,0.2,0.2,0.2,0.8","1","",""
"","html-keyboard-response","115","104129","0.0-115.0","3TE3O85731U6AV4O7FRBSCJD9J3R2L","A3IXFZZ3JWTCPW","3WRBLBQ2GRU63BU2LFOJL1G32T90GO","","null","<img src=""img/land6.png"" style=""width:200px;border:14px solid red;"">","null","","","","","","","","","",""
"","image-keyboard-response","116","104781","0.0-116.0","3TE3O85731U6AV4O7FRBSCJD9J3R2L","A3IXFZZ3JWTCPW","3WRBLBQ2GRU63BU2LFOJL1G32T90GO","","650.2999999998137","img/land5.png","76","651.4000000003725","3","1","3","2","0.8,0.2,0.2,0.2,0.8,0.2,0.2,0.2,0.8","0.8,0.2,0.2,0.2,0.8,0.2,0.2,0.2,0.8","1","",""
"","html-keyboard-response","117","105082","0.0-117.0","3TE3O85731U6AV4O7FRBSCJD9J3R2L","A3IXFZZ3JWTCPW","3WRBLBQ2GRU63BU2LFOJL1G32T90GO","","null","<img src=""img/land5.png"" style=""width:200px; border:14px solid green;"">","null","","","","","","","","","",""
"","image-keyboard-response","118","105990","0.0-118.0","3TE3O85731U6AV4O7FRBSCJD9J3R2L","A3IXFZZ3JWTCPW","3WRBLBQ2GRU63BU2LFOJL1G32T90GO","","905.3000000002794","img/land6.png","74","906.7000000001863","1","0","1","2","0.8,0.2,0.2,0.2,0.8,0.2,0.2,0.2,0.8","0.8,0.2,0.2,0.2,0.8,0.2,0.2,0.2,0.8","1","",""
"","html-keyboard-response","119","106292","0.0-119.0","3TE3O85731U6AV4O7FRBSCJD9J3R2L","A3IXFZZ3JWTCPW","3WRBLBQ2GRU63BU2LFOJL1G32T90GO","","null","<img src=""img/land6.png"" style=""width:200px;border:14px solid red;"">","null","","","","","","","","","",""
"","image-keyboard-response","120","106824","0.0-120.0","3TE3O85731U6AV4O7FRBSCJD9J3R2L","A3IXFZZ3JWTCPW","3WRBLBQ2GRU63BU2LFOJL1G32T90GO","","530.0999999996275","img/land6.png","74","531.2000000001863","1","1","1","2","0.8,0.2,0.2,0.2,0.8,0.2,0.2,0.2,0.8","0.8,0.2,0.2,0.2,0.8,0.2,0.2,0.2,0.8","1","",""
"","html-keyboard-response","121","107125","0.0-121.0","3TE3O85731U6AV4O7FRBSCJD9J3R2L","A3IXFZZ3JWTCPW","3WRBLBQ2GRU63BU2LFOJL1G32T90GO","","null","<img src=""img/land6.png"" style=""width:200px; border:14px solid green;"">","null","","","","","","","","","",""
"","image-keyboard-response","122","107946","0.0-122.0","3TE3O85731U6AV4O7FRBSCJD9J3R2L","A3IXFZZ3JWTCPW","3WRBLBQ2GRU63BU2LFOJL1G32T90GO","","819.2999999998137","img/land5.png","76","820.5","3","1","3","2","0.8,0.2,0.2,0.2,0.8,0.2,0.2,0.2,0.8","0.8,0.2,0.2,0.2,0.8,0.2,0.2,0.2,0.8","1","",""
"","html-keyboard-response","123","108248","0.0-123.0","3TE3O85731U6AV4O7FRBSCJD9J3R2L","A3IXFZZ3JWTCPW","3WRBLBQ2GRU63BU2LFOJL1G32T90GO","","null","<img src=""img/land5.png"" style=""width:200px; border:14px solid green;"">","null","","","","","","","","","",""
"","image-keyboard-response","124","109063","0.0-124.0","3TE3O85731U6AV4O7FRBSCJD9J3R2L","A3IXFZZ3JWTCPW","3WRBLBQ2GRU63BU2LFOJL1G32T90GO","","812.7000000001863","img/land6.png","74","814.1000000000931","1","1","1","2","0.8,0.2,0.2,0.2,0.8,0.2,0.2,0.2,0.8","0.8,0.2,0.2,0.2,0.8,0.2,0.2,0.2,0.8","1","",""
"","html-keyboard-response","125","109366","0.0-125.0","3TE3O85731U6AV4O7FRBSCJD9J3R2L","A3IXFZZ3JWTCPW","3WRBLBQ2GRU63BU2LFOJL1G32T90GO","","null","<img src=""img/land6.png"" style=""width:200px; border:14px solid green;"">","null","","","","","","","","","",""
"","image-keyboard-response","126","109879","0.0-126.0","3TE3O85731U6AV4O7FRBSCJD9J3R2L","A3IXFZZ3JWTCPW","3WRBLBQ2GRU63BU2LFOJL1G32T90GO","","510.1999999997206","img/land4.png","75","511.60000000009313","2","1","2","2","0.8,0.2,0.2,0.2,0.8,0.2,0.2,0.2,0.8","0.8,0.2,0.2,0.2,0.8,0.2,0.2,0.2,0.8","1","",""
"","html-keyboard-response","127","110180","0.0-127.0","3TE3O85731U6AV4O7FRBSCJD9J3R2L","A3IXFZZ3JWTCPW","3WRBLBQ2GRU63BU2LFOJL1G32T90GO","","null","<img src=""img/land4.png"" style=""width:200px; border:14px solid green;"">","null","","","","","","","","","",""
"","image-keyboard-response","128","110839","0.0-128.0","3TE3O85731U6AV4O7FRBSCJD9J3R2L","A3IXFZZ3JWTCPW","3WRBLBQ2GRU63BU2LFOJL1G32T90GO","","656.5","img/land6.png","74","658.2999999998137","1","1","1","2","0.8,0.2,0.2,0.2,0.8,0.2,0.2,0.2,0.8","0.8,0.2,0.2,0.2,0.8,0.2,0.2,0.2,0.8","1","",""
"","html-keyboard-response","129","111141","0.0-129.0","3TE3O85731U6AV4O7FRBSCJD9J3R2L","A3IXFZZ3JWTCPW","3WRBLBQ2GRU63BU2LFOJL1G32T90GO","","null","<img src=""img/land6.png"" style=""width:200px; border:14px solid green;"">","null","","","","","","","","","",""
"","image-keyboard-response","130","111826","0.0-130.0","3TE3O85731U6AV4O7FRBSCJD9J3R2L","A3IXFZZ3JWTCPW","3WRBLBQ2GRU63BU2LFOJL1G32T90GO","","683.3999999999069","img/land5.png","76","684.5999999996275","3","1","3","2","0.8,0.2,0.2,0.2,0.8,0.2,0.2,0.2,0.8","0.8,0.2,0.2,0.2,0.8,0.2,0.2,0.2,0.8","1","",""
"","html-keyboard-response","131","112128","0.0-131.0","3TE3O85731U6AV4O7FRBSCJD9J3R2L","A3IXFZZ3JWTCPW","3WRBLBQ2GRU63BU2LFOJL1G32T90GO","","null","<img src=""img/land5.png"" style=""width:200px; border:14px solid green;"">","null","","","","","","","","","",""
"","image-keyboard-response","132","112855","0.0-132.0","3TE3O85731U6AV4O7FRBSCJD9J3R2L","A3IXFZZ3JWTCPW","3WRBLBQ2GRU63BU2LFOJL1G32T90GO","","725.1999999997206","img/land6.png","74","726.6000000000931","1","1","1","2","0.8,0.2,0.2,0.2,0.8,0.2,0.2,0.2,0.8","0.8,0.2,0.2,0.2,0.8,0.2,0.2,0.2,0.8","1","",""
"","html-keyboard-response","133","113157","0.0-133.0","3TE3O85731U6AV4O7FRBSCJD9J3R2L","A3IXFZZ3JWTCPW","3WRBLBQ2GRU63BU2LFOJL1G32T90GO","","null","<img src=""img/land6.png"" style=""width:200px; border:14px solid green;"">","null","","","","","","","","","",""
"","image-keyboard-response","134","113722","0.0-134.0","3TE3O85731U6AV4O7FRBSCJD9J3R2L","A3IXFZZ3JWTCPW","3WRBLBQ2GRU63BU2LFOJL1G32T90GO","","562.8000000002794","img/land4.png","75","564.1000000000931","2","0","2","2","0.8,0.2,0.2,0.2,0.8,0.2,0.2,0.2,0.8","0.8,0.2,0.2,0.2,0.8,0.2,0.2,0.2,0.8","1","",""
"","html-keyboard-response","135","114024","0.0-135.0","3TE3O85731U6AV4O7FRBSCJD9J3R2L","A3IXFZZ3JWTCPW","3WRBLBQ2GRU63BU2LFOJL1G32T90GO","","null","<img src=""img/land4.png"" style=""width:200px;border:14px solid red;"">","null","","","","","","","","","",""
"","image-keyboard-response","136","114850","0.0-136.0","3TE3O85731U6AV4O7FRBSCJD9J3R2L","A3IXFZZ3JWTCPW","3WRBLBQ2GRU63BU2LFOJL1G32T90GO","","823.8999999999069","img/land5.png","76","825.6000000000931","3","1","3","2","0.8,0.2,0.2,0.2,0.8,0.2,0.2,0.2,0.8","0.8,0.2,0.2,0.2,0.8,0.2,0.2,0.2,0.8","1","",""
"","html-keyboard-response","137","115152","0.0-137.0","3TE3O85731U6AV4O7FRBSCJD9J3R2L","A3IXFZZ3JWTCPW","3WRBLBQ2GRU63BU2LFOJL1G32T90GO","","null","<img src=""img/land5.png"" style=""width:200px; border:14px solid green;"">","null","","","","","","","","","",""
"","image-keyboard-response","138","115893","0.0-138.0","3TE3O85731U6AV4O7FRBSCJD9J3R2L","A3IXFZZ3JWTCPW","3WRBLBQ2GRU63BU2LFOJL1G32T90GO","","739.7999999998137","img/land6.png","74","740.8999999999069","1","1","1","2","0.8,0.2,0.2,0.2,0.8,0.2,0.2,0.2,0.8","0.8,0.2,0.2,0.2,0.8,0.2,0.2,0.2,0.8","1","",""
"","html-keyboard-response","139","116195","0.0-139.0","3TE3O85731U6AV4O7FRBSCJD9J3R2L","A3IXFZZ3JWTCPW","3WRBLBQ2GRU63BU2LFOJL1G32T90GO","","null","<img src=""img/land6.png"" style=""width:200px; border:14px solid green;"">","null","","","","","","","","","",""
"","image-keyboard-response","140","116793","0.0-140.0","3TE3O85731U6AV4O7FRBSCJD9J3R2L","A3IXFZZ3JWTCPW","3WRBLBQ2GRU63BU2LFOJL1G32T90GO","","596.2999999998137","img/land6.png","74","597.5","1","0","1","2","0.8,0.2,0.2,0.2,0.8,0.2,0.2,0.2,0.8","0.8,0.2,0.2,0.2,0.8,0.2,0.2,0.2,0.8","1","",""
"","html-keyboard-response","141","117095","0.0-141.0","3TE3O85731U6AV4O7FRBSCJD9J3R2L","A3IXFZZ3JWTCPW","3WRBLBQ2GRU63BU2LFOJL1G32T90GO","","null","<img src=""img/land6.png"" style=""width:200px;border:14px solid red;"">","null","","","","","","","","","",""
"","image-keyboard-response","142","117653","0.0-142.0","3TE3O85731U6AV4O7FRBSCJD9J3R2L","A3IXFZZ3JWTCPW","3WRBLBQ2GRU63BU2LFOJL1G32T90GO","","556.8999999999069","img/land6.png","74","558","1","1","1","2","0.8,0.2,0.2,0.2,0.8,0.2,0.2,0.2,0.8","0.8,0.2,0.2,0.2,0.8,0.2,0.2,0.2,0.8","1","",""
"","html-keyboard-response","143","117955","0.0-143.0","3TE3O85731U6AV4O7FRBSCJD9J3R2L","A3IXFZZ3JWTCPW","3WRBLBQ2GRU63BU2LFOJL1G32T90GO","","null","<img src=""img/land6.png"" style=""width:200px; border:14px solid green;"">","null","","","","","","","","","",""
"","image-keyboard-response","144","118486","0.0-144.0","3TE3O85731U6AV4O7FRBSCJD9J3R2L","A3IXFZZ3JWTCPW","3WRBLBQ2GRU63BU2LFOJL1G32T90GO","","529.3999999999069","img/land6.png","74","530.5","1","0","1","2","0.8,0.2,0.2,0.2,0.8,0.2,0.2,0.2,0.8","0.8,0.2,0.2,0.2,0.8,0.2,0.2,0.2,0.8","1","",""
"","html-keyboard-response","145","118788","0.0-145.0","3TE3O85731U6AV4O7FRBSCJD9J3R2L","A3IXFZZ3JWTCPW","3WRBLBQ2GRU63BU2LFOJL1G32T90GO","","null","<img src=""img/land6.png"" style=""width:200px;border:14px solid red;"">","null","","","","","","","","","",""
"","image-keyboard-response","146","119599","0.0-146.0","3TE3O85731U6AV4O7FRBSCJD9J3R2L","A3IXFZZ3JWTCPW","3WRBLBQ2GRU63BU2LFOJL1G32T90GO","","809.7000000001863","img/land4.png","75","810.8999999999069","2","1","2","2","0.8,0.2,0.2,0.2,0.8,0.2,0.2,0.2,0.8","0.8,0.2,0.2,0.2,0.8,0.2,0.2,0.2,0.8","1","",""
"","html-keyboard-response","147","119901","0.0-147.0","3TE3O85731U6AV4O7FRBSCJD9J3R2L","A3IXFZZ3JWTCPW","3WRBLBQ2GRU63BU2LFOJL1G32T90GO","","null","<img src=""img/land4.png"" style=""width:200px; border:14px solid green;"">","null","","","","","","","","","",""
"","image-keyboard-response","148","120535","0.0-148.0","3TE3O85731U6AV4O7FRBSCJD9J3R2L","A3IXFZZ3JWTCPW","3WRBLBQ2GRU63BU2LFOJL1G32T90GO","","632.0999999996275","img/land6.png","74","633.3000000002794","1","1","1","2","0.8,0.2,0.2,0.2,0.8,0.2,0.2,0.2,0.8","0.8,0.2,0.2,0.2,0.8,0.2,0.2,0.2,0.8","1","",""
"","html-keyboard-response","149","120836","0.0-149.0","3TE3O85731U6AV4O7FRBSCJD9J3R2L","A3IXFZZ3JWTCPW","3WRBLBQ2GRU63BU2LFOJL1G32T90GO","","null","<img src=""img/land6.png"" style=""width:200px; border:14px solid green;"">","null","","","","","","","","","",""
"","image-keyboard-response","150","121551","0.0-150.0","3TE3O85731U6AV4O7FRBSCJD9J3R2L","A3IXFZZ3JWTCPW","3WRBLBQ2GRU63BU2LFOJL1G32T90GO","","713","img/land6.png","74","714","1","1","1","2","0.8,0.2,0.2,0.2,0.8,0.2,0.2,0.2,0.8","0.8,0.2,0.2,0.2,0.8,0.2,0.2,0.2,0.8","1","",""
"","html-keyboard-response","151","121853","0.0-151.0","3TE3O85731U6AV4O7FRBSCJD9J3R2L","A3IXFZZ3JWTCPW","3WRBLBQ2GRU63BU2LFOJL1G32T90GO","","null","<img src=""img/land6.png"" style=""width:200px; border:14px solid green;"">","null","","","","","","","","","",""
"","image-keyboard-response","152","122510","0.0-152.0","3TE3O85731U6AV4O7FRBSCJD9J3R2L","A3IXFZZ3JWTCPW","3WRBLBQ2GRU63BU2LFOJL1G32T90GO","","654.8999999999069","img/land5.png","76","656.1000000000931","3","1","3","2","0.8,0.2,0.2,0.2,0.8,0.2,0.2,0.2,0.8","0.8,0.2,0.2,0.2,0.8,0.2,0.2,0.2,0.8","1","",""
"","html-keyboard-response","153","122811","0.0-153.0","3TE3O85731U6AV4O7FRBSCJD9J3R2L","A3IXFZZ3JWTCPW","3WRBLBQ2GRU63BU2LFOJL1G32T90GO","","null","<img src=""img/land5.png"" style=""width:200px; border:14px solid green;"">","null","","","","","","","","","",""
"","image-keyboard-response","154","123253","0.0-154.0","3TE3O85731U6AV4O7FRBSCJD9J3R2L","A3IXFZZ3JWTCPW","3WRBLBQ2GRU63BU2LFOJL1G32T90GO","","438.89999999990687","img/land5.png","76","440.10000000009313","3","0","3","2","0.8,0.2,0.2,0.2,0.8,0.2,0.2,0.2,0.8","0.8,0.2,0.2,0.2,0.8,0.2,0.2,0.2,0.8","1","",""
"","html-keyboard-response","155","123554","0.0-155.0","3TE3O85731U6AV4O7FRBSCJD9J3R2L","A3IXFZZ3JWTCPW","3WRBLBQ2GRU63BU2LFOJL1G32T90GO","","null","<img src=""img/land5.png"" style=""width:200px;border:14px solid red;"">","null","","","","","","","","","",""
"","image-keyboard-response","156","124117","0.0-156.0","3TE3O85731U6AV4O7FRBSCJD9J3R2L","A3IXFZZ3JWTCPW","3WRBLBQ2GRU63BU2LFOJL1G32T90GO","","560.5","img/land6.png","74","561.6999999997206","1","1","1","2","0.8,0.2,0.2,0.2,0.8,0.2,0.2,0.2,0.8","0.8,0.2,0.2,0.2,0.8,0.2,0.2,0.2,0.8","1","",""
"","html-keyboard-response","157","124419","0.0-157.0","3TE3O85731U6AV4O7FRBSCJD9J3R2L","A3IXFZZ3JWTCPW","3WRBLBQ2GRU63BU2LFOJL1G32T90GO","","null","<img src=""img/land6.png"" style=""width:200px; border:14px solid green;"">","null","","","","","","","","","",""
"","image-keyboard-response","158","125040","0.0-158.0","3TE3O85731U6AV4O7FRBSCJD9J3R2L","A3IXFZZ3JWTCPW","3WRBLBQ2GRU63BU2LFOJL1G32T90GO","","619.6000000000931","img/land4.png","75","620.7999999998137","2","0","2","2","0.8,0.2,0.2,0.2,0.8,0.2,0.2,0.2,0.8","0.8,0.2,0.2,0.2,0.8,0.2,0.2,0.2,0.8","1","",""
"","html-keyboard-response","159","125342","0.0-159.0","3TE3O85731U6AV4O7FRBSCJD9J3R2L","A3IXFZZ3JWTCPW","3WRBLBQ2GRU63BU2LFOJL1G32T90GO","","null","<img src=""img/land4.png"" style=""width:200px;border:14px solid red;"">","null","","","","","","","","","",""
"","image-keyboard-response","160","126271","0.0-160.0","3TE3O85731U6AV4O7FRBSCJD9J3R2L","A3IXFZZ3JWTCPW","3WRBLBQ2GRU63BU2LFOJL1G32T90GO","","927.7000000001863","img/land4.png","75","929","2","1","2","2","0.8,0.2,0.2,0.2,0.8,0.2,0.2,0.2,0.8","0.8,0.2,0.2,0.2,0.8,0.2,0.2,0.2,0.8","1","",""
"","html-keyboard-response","161","126573","0.0-161.0","3TE3O85731U6AV4O7FRBSCJD9J3R2L","A3IXFZZ3JWTCPW","3WRBLBQ2GRU63BU2LFOJL1G32T90GO","","null","<img src=""img/land4.png"" style=""width:200px; border:14px solid green;"">","null","","","","","","","","","",""
"","image-keyboard-response","162","127257","0.0-162.0","3TE3O85731U6AV4O7FRBSCJD9J3R2L","A3IXFZZ3JWTCPW","3WRBLBQ2GRU63BU2LFOJL1G32T90GO","","682.7000000001863","img/land5.png","76","683.8999999999069","3","1","3","2","0.8,0.2,0.2,0.2,0.8,0.2,0.2,0.2,0.8","0.8,0.2,0.2,0.2,0.8,0.2,0.2,0.2,0.8","1","",""
"","html-keyboard-response","163","127559","0.0-163.0","3TE3O85731U6AV4O7FRBSCJD9J3R2L","A3IXFZZ3JWTCPW","3WRBLBQ2GRU63BU2LFOJL1G32T90GO","","null","<img src=""img/land5.png"" style=""width:200px; border:14px solid green;"">","null","","","","","","","","","",""
"","image-keyboard-response","164","128309","0.0-164.0","3TE3O85731U6AV4O7FRBSCJD9J3R2L","A3IXFZZ3JWTCPW","3WRBLBQ2GRU63BU2LFOJL1G32T90GO","","747.3000000002794","img/land4.png","75","749.1000000000931","2","0","2","2","0.8,0.2,0.2,0.2,0.8,0.2,0.2,0.2,0.8","0.8,0.2,0.2,0.2,0.8,0.2,0.2,0.2,0.8","1","",""
"","html-keyboard-response","165","128611","0.0-165.0","3TE3O85731U6AV4O7FRBSCJD9J3R2L","A3IXFZZ3JWTCPW","3WRBLBQ2GRU63BU2LFOJL1G32T90GO","","null","<img src=""img/land4.png"" style=""width:200px;border:14px solid red;"">","null","","","","","","","","","",""
"","image-keyboard-response","166","129254","0.0-166.0","3TE3O85731U6AV4O7FRBSCJD9J3R2L","A3IXFZZ3JWTCPW","3WRBLBQ2GRU63BU2LFOJL1G32T90GO","","641.2000000001863","img/land6.png","74","642.3999999999069","1","1","1","2","0.8,0.2,0.2,0.2,0.8,0.2,0.2,0.2,0.8","0.8,0.2,0.2,0.2,0.8,0.2,0.2,0.2,0.8","1","",""
"","html-keyboard-response","167","129555","0.0-167.0","3TE3O85731U6AV4O7FRBSCJD9J3R2L","A3IXFZZ3JWTCPW","3WRBLBQ2GRU63BU2LFOJL1G32T90GO","","null","<img src=""img/land6.png"" style=""width:200px; border:14px solid green;"">","null","","","","","","","","","",""
"","image-keyboard-response","168","130168","0.0-168.0","3TE3O85731U6AV4O7FRBSCJD9J3R2L","A3IXFZZ3JWTCPW","3WRBLBQ2GRU63BU2LFOJL1G32T90GO","","611.0999999996275","img/land6.png","74","612.5","1","0","1","2","0.8,0.2,0.2,0.2,0.8,0.2,0.2,0.2,0.8","0.8,0.2,0.2,0.2,0.8,0.2,0.2,0.2,0.8","1","",""
"","html-keyboard-response","169","130470","0.0-169.0","3TE3O85731U6AV4O7FRBSCJD9J3R2L","A3IXFZZ3JWTCPW","3WRBLBQ2GRU63BU2LFOJL1G32T90GO","","null","<img src=""img/land6.png"" style=""width:200px;border:14px solid red;"">","null","","","","","","","","","",""
"","image-keyboard-response","170","130994","0.0-170.0","3TE3O85731U6AV4O7FRBSCJD9J3R2L","A3IXFZZ3JWTCPW","3WRBLBQ2GRU63BU2LFOJL1G32T90GO","","522.5","img/land6.png","74","523.5","1","1","1","2","0.8,0.2,0.2,0.2,0.8,0.2,0.2,0.2,0.8","0.8,0.2,0.2,0.2,0.8,0.2,0.2,0.2,0.8","1","",""
"","html-keyboard-response","171","131296","0.0-171.0","3TE3O85731U6AV4O7FRBSCJD9J3R2L","A3IXFZZ3JWTCPW","3WRBLBQ2GRU63BU2LFOJL1G32T90GO","","null","<img src=""img/land6.png"" style=""width:200px; border:14px solid green;"">","null","","","","","","","","","",""
"","image-keyboard-response","172","131876","0.0-172.0","3TE3O85731U6AV4O7FRBSCJD9J3R2L","A3IXFZZ3JWTCPW","3WRBLBQ2GRU63BU2LFOJL1G32T90GO","","578.7000000001863","img/land6.png","74","579.8999999999069","1","1","1","2","0.8,0.2,0.2,0.2,0.8,0.2,0.2,0.2,0.8","0.8,0.2,0.2,0.2,0.8,0.2,0.2,0.2,0.8","1","",""
"","html-keyboard-response","173","132178","0.0-173.0","3TE3O85731U6AV4O7FRBSCJD9J3R2L","A3IXFZZ3JWTCPW","3WRBLBQ2GRU63BU2LFOJL1G32T90GO","","null","<img src=""img/land6.png"" style=""width:200px; border:14px solid green;"">","null","","","","","","","","","",""
"","image-keyboard-response","174","132616","0.0-174.0","3TE3O85731U6AV4O7FRBSCJD9J3R2L","A3IXFZZ3JWTCPW","3WRBLBQ2GRU63BU2LFOJL1G32T90GO","","435.8000000002794","img/land6.png","74","437.29999999981374","1","1","1","2","0.8,0.2,0.2,0.2,0.8,0.2,0.2,0.2,0.8","0.8,0.2,0.2,0.2,0.8,0.2,0.2,0.2,0.8","1","",""
"","html-keyboard-response","175","132918","0.0-175.0","3TE3O85731U6AV4O7FRBSCJD9J3R2L","A3IXFZZ3JWTCPW","3WRBLBQ2GRU63BU2LFOJL1G32T90GO","","null","<img src=""img/land6.png"" style=""width:200px; border:14px solid green;"">","null","","","","","","","","","",""
"","image-keyboard-response","176","133342","0.0-176.0","3TE3O85731U6AV4O7FRBSCJD9J3R2L","A3IXFZZ3JWTCPW","3WRBLBQ2GRU63BU2LFOJL1G32T90GO","","421.59999999962747","img/land6.png","74","423","1","0","1","2","0.8,0.2,0.2,0.2,0.8,0.2,0.2,0.2,0.8","0.8,0.2,0.2,0.2,0.8,0.2,0.2,0.2,0.8","1","",""
"","html-keyboard-response","177","133644","0.0-177.0","3TE3O85731U6AV4O7FRBSCJD9J3R2L","A3IXFZZ3JWTCPW","3WRBLBQ2GRU63BU2LFOJL1G32T90GO","","null","<img src=""img/land6.png"" style=""width:200px;border:14px solid red;"">","null","","","","","","","","","",""
"","image-keyboard-response","178","134072","0.0-178.0","3TE3O85731U6AV4O7FRBSCJD9J3R2L","A3IXFZZ3JWTCPW","3WRBLBQ2GRU63BU2LFOJL1G32T90GO","","425.29999999981374","img/land6.png","74","426.5","1","1","1","2","0.8,0.2,0.2,0.2,0.8,0.2,0.2,0.2,0.8","0.8,0.2,0.2,0.2,0.8,0.2,0.2,0.2,0.8","1","",""
"","html-keyboard-response","179","134373","0.0-179.0","3TE3O85731U6AV4O7FRBSCJD9J3R2L","A3IXFZZ3JWTCPW","3WRBLBQ2GRU63BU2LFOJL1G32T90GO","","null","<img src=""img/land6.png"" style=""width:200px; border:14px solid green;"">","null","","","","","","","","","",""
"","image-keyboard-response","180","134883","0.0-180.0","3TE3O85731U6AV4O7FRBSCJD9J3R2L","A3IXFZZ3JWTCPW","3WRBLBQ2GRU63BU2LFOJL1G32T90GO","","508.40000000037253","img/land6.png","74","509.70000000018626","1","1","1","2","0.8,0.2,0.2,0.2,0.8,0.2,0.2,0.2,0.8","0.8,0.2,0.2,0.2,0.8,0.2,0.2,0.2,0.8","1","",""
"","html-keyboard-response","181","135185","0.0-181.0","3TE3O85731U6AV4O7FRBSCJD9J3R2L","A3IXFZZ3JWTCPW","3WRBLBQ2GRU63BU2LFOJL1G32T90GO","","null","<img src=""img/land6.png"" style=""width:200px; border:14px solid green;"">","null","","","","","","","","","",""
"","image-keyboard-response","182","135849","0.0-182.0","3TE3O85731U6AV4O7FRBSCJD9J3R2L","A3IXFZZ3JWTCPW","3WRBLBQ2GRU63BU2LFOJL1G32T90GO","","661.7999999998137","img/land5.png","76","663","3","1","3","2","0.8,0.2,0.2,0.2,0.8,0.2,0.2,0.2,0.8","0.8,0.2,0.2,0.2,0.8,0.2,0.2,0.2,0.8","1","",""
"","html-keyboard-response","183","136151","0.0-183.0","3TE3O85731U6AV4O7FRBSCJD9J3R2L","A3IXFZZ3JWTCPW","3WRBLBQ2GRU63BU2LFOJL1G32T90GO","","null","<img src=""img/land5.png"" style=""width:200px; border:14px solid green;"">","null","","","","","","","","","",""
"","image-keyboard-response","184","136885","0.0-184.0","3TE3O85731U6AV4O7FRBSCJD9J3R2L","A3IXFZZ3JWTCPW","3WRBLBQ2GRU63BU2LFOJL1G32T90GO","","731.9000000003725","img/land6.png","74","733.1000000000931","1","1","1","2","0.8,0.2,0.2,0.2,0.8,0.2,0.2,0.2,0.8","0.8,0.2,0.2,0.2,0.8,0.2,0.2,0.2,0.8","1","",""
"","html-keyboard-response","185","137186","0.0-185.0","3TE3O85731U6AV4O7FRBSCJD9J3R2L","A3IXFZZ3JWTCPW","3WRBLBQ2GRU63BU2LFOJL1G32T90GO","","null","<img src=""img/land6.png"" style=""width:200px; border:14px solid green;"">","null","","","","","","","","","",""
"","image-keyboard-response","186","137874","0.0-186.0","3TE3O85731U6AV4O7FRBSCJD9J3R2L","A3IXFZZ3JWTCPW","3WRBLBQ2GRU63BU2LFOJL1G32T90GO","","686","img/land4.png","75","687.2000000001863","2","1","2","2","0.8,0.2,0.2,0.2,0.8,0.2,0.2,0.2,0.8","0.8,0.2,0.2,0.2,0.8,0.2,0.2,0.2,0.8","1","",""
"","html-keyboard-response","187","138176","0.0-187.0","3TE3O85731U6AV4O7FRBSCJD9J3R2L","A3IXFZZ3JWTCPW","3WRBLBQ2GRU63BU2LFOJL1G32T90GO","","null","<img src=""img/land4.png"" style=""width:200px; border:14px solid green;"">","null","","","","","","","","","",""
"","image-keyboard-response","188","138830","0.0-188.0","3TE3O85731U6AV4O7FRBSCJD9J3R2L","A3IXFZZ3JWTCPW","3WRBLBQ2GRU63BU2LFOJL1G32T90GO","","652.3999999999069","img/land6.png","74","653.6000000000931","1","1","1","2","0.8,0.2,0.2,0.2,0.8,0.2,0.2,0.2,0.8","0.8,0.2,0.2,0.2,0.8,0.2,0.2,0.2,0.8","1","",""
"","html-keyboard-response","189","139132","0.0-189.0","3TE3O85731U6AV4O7FRBSCJD9J3R2L","A3IXFZZ3JWTCPW","3WRBLBQ2GRU63BU2LFOJL1G32T90GO","","null","<img src=""img/land6.png"" style=""width:200px; border:14px solid green;"">","null","","","","","","","","","",""
"","image-keyboard-response","190","139532","0.0-190.0","3TE3O85731U6AV4O7FRBSCJD9J3R2L","A3IXFZZ3JWTCPW","3WRBLBQ2GRU63BU2LFOJL1G32T90GO","","398.6999999997206","img/land6.png","74","400","1","0","1","2","0.8,0.2,0.2,0.2,0.8,0.2,0.2,0.2,0.8","0.8,0.2,0.2,0.2,0.8,0.2,0.2,0.2,0.8","1","",""
"","html-keyboard-response","191","139834","0.0-191.0","3TE3O85731U6AV4O7FRBSCJD9J3R2L","A3IXFZZ3JWTCPW","3WRBLBQ2GRU63BU2LFOJL1G32T90GO","","null","<img src=""img/land6.png"" style=""width:200px;border:14px solid red;"">","null","","","","","","","","","",""
"","image-keyboard-response","192","140501","0.0-192.0","3TE3O85731U6AV4O7FRBSCJD9J3R2L","A3IXFZZ3JWTCPW","3WRBLBQ2GRU63BU2LFOJL1G32T90GO","","665.3999999999069","img/land5.png","76","666.3999999999069","3","1","3","2","0.8,0.2,0.2,0.2,0.8,0.2,0.2,0.2,0.8","0.8,0.2,0.2,0.2,0.8,0.2,0.2,0.2,0.8","1","",""
"","html-keyboard-response","193","140803","0.0-193.0","3TE3O85731U6AV4O7FRBSCJD9J3R2L","A3IXFZZ3JWTCPW","3WRBLBQ2GRU63BU2LFOJL1G32T90GO","","null","<img src=""img/land5.png"" style=""width:200px; border:14px solid green;"">","null","","","","","","","","","",""
"","image-keyboard-response","194","141629","0.0-194.0","3TE3O85731U6AV4O7FRBSCJD9J3R2L","A3IXFZZ3JWTCPW","3WRBLBQ2GRU63BU2LFOJL1G32T90GO","","824.3999999999069","img/land4.png","75","825.6000000000931","2","1","2","2","0.8,0.2,0.2,0.2,0.8,0.2,0.2,0.2,0.8","0.8,0.2,0.2,0.2,0.8,0.2,0.2,0.2,0.8","1","",""
"","html-keyboard-response","195","141931","0.0-195.0","3TE3O85731U6AV4O7FRBSCJD9J3R2L","A3IXFZZ3JWTCPW","3WRBLBQ2GRU63BU2LFOJL1G32T90GO","","null","<img src=""img/land4.png"" style=""width:200px; border:14px solid green;"">","null","","","","","","","","","",""
"","image-keyboard-response","196","142497","0.0-196.0","3TE3O85731U6AV4O7FRBSCJD9J3R2L","A3IXFZZ3JWTCPW","3WRBLBQ2GRU63BU2LFOJL1G32T90GO","","564","img/land6.png","74","565.3999999999069","1","0","1","2","0.8,0.2,0.2,0.2,0.8,0.2,0.2,0.2,0.8","0.8,0.2,0.2,0.2,0.8,0.2,0.2,0.2,0.8","1","",""
"","html-keyboard-response","197","142798","0.0-197.0","3TE3O85731U6AV4O7FRBSCJD9J3R2L","A3IXFZZ3JWTCPW","3WRBLBQ2GRU63BU2LFOJL1G32T90GO","","null","<img src=""img/land6.png"" style=""width:200px;border:14px solid red;"">","null","","","","","","","","","",""
"","image-keyboard-response","198","143510","0.0-198.0","3TE3O85731U6AV4O7FRBSCJD9J3R2L","A3IXFZZ3JWTCPW","3WRBLBQ2GRU63BU2LFOJL1G32T90GO","","710.2000000001863","img/land4.png","75","711.3999999999069","2","1","2","2","0.8,0.2,0.2,0.2,0.8,0.2,0.2,0.2,0.8","0.8,0.2,0.2,0.2,0.8,0.2,0.2,0.2,0.8","1","",""
"","html-keyboard-response","199","143812","0.0-199.0","3TE3O85731U6AV4O7FRBSCJD9J3R2L","A3IXFZZ3JWTCPW","3WRBLBQ2GRU63BU2LFOJL1G32T90GO","","null","<img src=""img/land4.png"" style=""width:200px; border:14px solid green;"">","null","","","","","","","","","",""
"","image-keyboard-response","200","144431","0.0-200.0","3TE3O85731U6AV4O7FRBSCJD9J3R2L","A3IXFZZ3JWTCPW","3WRBLBQ2GRU63BU2LFOJL1G32T90GO","","616.7999999998137","img/land5.png","76","618","3","1","3","2","0.8,0.2,0.2,0.2,0.8,0.2,0.2,0.2,0.8","0.8,0.2,0.2,0.2,0.8,0.2,0.2,0.2,0.8","1","",""
"","html-keyboard-response","201","144733","0.0-201.0","3TE3O85731U6AV4O7FRBSCJD9J3R2L","A3IXFZZ3JWTCPW","3WRBLBQ2GRU63BU2LFOJL1G32T90GO","","null","<img src=""img/land5.png"" style=""width:200px; border:14px solid green;"">","null","","","","","","","","","",""
"","image-keyboard-response","202","145435","0.0-202.0","3TE3O85731U6AV4O7FRBSCJD9J3R2L","A3IXFZZ3JWTCPW","3WRBLBQ2GRU63BU2LFOJL1G32T90GO","","700.6999999997206","img/land6.png","74","702","1","0","1","2","0.8,0.2,0.2,0.2,0.8,0.2,0.2,0.2,0.8","0.8,0.2,0.2,0.2,0.8,0.2,0.2,0.2,0.8","1","",""
"","html-keyboard-response","203","145737","0.0-203.0","3TE3O85731U6AV4O7FRBSCJD9J3R2L","A3IXFZZ3JWTCPW","3WRBLBQ2GRU63BU2LFOJL1G32T90GO","","null","<img src=""img/land6.png"" style=""width:200px;border:14px solid red;"">","null","","","","","","","","","",""
"","image-keyboard-response","204","146410","0.0-204.0","3TE3O85731U6AV4O7FRBSCJD9J3R2L","A3IXFZZ3JWTCPW","3WRBLBQ2GRU63BU2LFOJL1G32T90GO","","671.2000000001863","img/land6.png","74","672.3999999999069","1","1","1","2","0.8,0.2,0.2,0.2,0.8,0.2,0.2,0.2,0.8","0.8,0.2,0.2,0.2,0.8,0.2,0.2,0.2,0.8","1","",""
"","html-keyboard-response","205","146712","0.0-205.0","3TE3O85731U6AV4O7FRBSCJD9J3R2L","A3IXFZZ3JWTCPW","3WRBLBQ2GRU63BU2LFOJL1G32T90GO","","null","<img src=""img/land6.png"" style=""width:200px; border:14px solid green;"">","null","","","","","","","","","",""
"","image-keyboard-response","206","147251","0.0-206.0","3TE3O85731U6AV4O7FRBSCJD9J3R2L","A3IXFZZ3JWTCPW","3WRBLBQ2GRU63BU2LFOJL1G32T90GO","","537.6000000000931","img/land6.png","74","539","1","1","1","2","0.8,0.2,0.2,0.2,0.8,0.2,0.2,0.2,0.8","0.8,0.2,0.2,0.2,0.8,0.2,0.2,0.2,0.8","1","",""
"","html-keyboard-response","207","147553","0.0-207.0","3TE3O85731U6AV4O7FRBSCJD9J3R2L","A3IXFZZ3JWTCPW","3WRBLBQ2GRU63BU2LFOJL1G32T90GO","","null","<img src=""img/land6.png"" style=""width:200px; border:14px solid green;"">","null","","","","","","","","","",""
"","image-keyboard-response","208","147974","0.0-208.0","3TE3O85731U6AV4O7FRBSCJD9J3R2L","A3IXFZZ3JWTCPW","3WRBLBQ2GRU63BU2LFOJL1G32T90GO","","419","img/land6.png","74","420.10000000009313","1","1","1","2","0.8,0.2,0.2,0.2,0.8,0.2,0.2,0.2,0.8","0.8,0.2,0.2,0.2,0.8,0.2,0.2,0.2,0.8","1","",""
"","html-keyboard-response","209","148276","0.0-209.0","3TE3O85731U6AV4O7FRBSCJD9J3R2L","A3IXFZZ3JWTCPW","3WRBLBQ2GRU63BU2LFOJL1G32T90GO","","null","<img src=""img/land6.png"" style=""width:200px; border:14px solid green;"">","null","","","","","","","","","",""
"","image-keyboard-response","210","148694","0.0-210.0","3TE3O85731U6AV4O7FRBSCJD9J3R2L","A3IXFZZ3JWTCPW","3WRBLBQ2GRU63BU2LFOJL1G32T90GO","","416.5","img/land6.png","74","417.6999999997206","1","1","1","2","0.8,0.2,0.2,0.2,0.8,0.2,0.2,0.2,0.8","0.8,0.2,0.2,0.2,0.8,0.2,0.2,0.2,0.8","1","",""
"","html-keyboard-response","211","148996","0.0-211.0","3TE3O85731U6AV4O7FRBSCJD9J3R2L","A3IXFZZ3JWTCPW","3WRBLBQ2GRU63BU2LFOJL1G32T90GO","","null","<img src=""img/land6.png"" style=""width:200px; border:14px solid green;"">","null","","","","","","","","","",""
"","image-keyboard-response","212","149515","0.0-212.0","3TE3O85731U6AV4O7FRBSCJD9J3R2L","A3IXFZZ3JWTCPW","3WRBLBQ2GRU63BU2LFOJL1G32T90GO","","517.6000000000931","img/land6.png","74","518.7999999998137","1","1","1","2","0.8,0.2,0.2,0.2,0.8,0.2,0.2,0.2,0.8","0.8,0.2,0.2,0.2,0.8,0.2,0.2,0.2,0.8","1","",""
"","html-keyboard-response","213","149817","0.0-213.0","3TE3O85731U6AV4O7FRBSCJD9J3R2L","A3IXFZZ3JWTCPW","3WRBLBQ2GRU63BU2LFOJL1G32T90GO","","null","<img src=""img/land6.png"" style=""width:200px; border:14px solid green;"">","null","","","","","","","","","",""
"","image-keyboard-response","214","150507","0.0-214.0","3TE3O85731U6AV4O7FRBSCJD9J3R2L","A3IXFZZ3JWTCPW","3WRBLBQ2GRU63BU2LFOJL1G32T90GO","","687.7999999998137","img/land5.png","76","689.1000000000931","3","1","3","2","0.8,0.2,0.2,0.2,0.8,0.2,0.2,0.2,0.8","0.8,0.2,0.2,0.2,0.8,0.2,0.2,0.2,0.8","1","",""
"","html-keyboard-response","215","150809","0.0-215.0","3TE3O85731U6AV4O7FRBSCJD9J3R2L","A3IXFZZ3JWTCPW","3WRBLBQ2GRU63BU2LFOJL1G32T90GO","","null","<img src=""img/land5.png"" style=""width:200px; border:14px solid green;"">","null","","","","","","","","","",""
"","image-keyboard-response","216","151528","0.0-216.0","3TE3O85731U6AV4O7FRBSCJD9J3R2L","A3IXFZZ3JWTCPW","3WRBLBQ2GRU63BU2LFOJL1G32T90GO","","717.6000000000931","img/land4.png","75","718.7999999998137","2","0","2","2","0.8,0.2,0.2,0.2,0.8,0.2,0.2,0.2,0.8","0.8,0.2,0.2,0.2,0.8,0.2,0.2,0.2,0.8","1","",""
"","html-keyboard-response","217","151830","0.0-217.0","3TE3O85731U6AV4O7FRBSCJD9J3R2L","A3IXFZZ3JWTCPW","3WRBLBQ2GRU63BU2LFOJL1G32T90GO","","null","<img src=""img/land4.png"" style=""width:200px;border:14px solid red;"">","null","","","","","","","","","",""
"","image-keyboard-response","218","152429","0.0-218.0","3TE3O85731U6AV4O7FRBSCJD9J3R2L","A3IXFZZ3JWTCPW","3WRBLBQ2GRU63BU2LFOJL1G32T90GO","","597.7999999998137","img/land6.png","74","598.8000000002794","1","1","1","2","0.8,0.2,0.2,0.2,0.8,0.2,0.2,0.2,0.8","0.8,0.2,0.2,0.2,0.8,0.2,0.2,0.2,0.8","1","",""
"","html-keyboard-response","219","152731","0.0-219.0","3TE3O85731U6AV4O7FRBSCJD9J3R2L","A3IXFZZ3JWTCPW","3WRBLBQ2GRU63BU2LFOJL1G32T90GO","","null","<img src=""img/land6.png"" style=""width:200px; border:14px solid green;"">","null","","","","","","","","","",""
"","image-keyboard-response","220","153297","0.0-220.0","3TE3O85731U6AV4O7FRBSCJD9J3R2L","A3IXFZZ3JWTCPW","3WRBLBQ2GRU63BU2LFOJL1G32T90GO","","564.5","img/land6.png","74","565.8000000002794","1","1","1","2","0.8,0.2,0.2,0.2,0.8,0.2,0.2,0.2,0.8","0.8,0.2,0.2,0.2,0.8,0.2,0.2,0.2,0.8","1","",""
"","html-keyboard-response","221","153599","0.0-221.0","3TE3O85731U6AV4O7FRBSCJD9J3R2L","A3IXFZZ3JWTCPW","3WRBLBQ2GRU63BU2LFOJL1G32T90GO","","null","<img src=""img/land6.png"" style=""width:200px; border:14px solid green;"">","null","","","","","","","","","",""
"","image-keyboard-response","222","154040","0.0-222.0","3TE3O85731U6AV4O7FRBSCJD9J3R2L","A3IXFZZ3JWTCPW","3WRBLBQ2GRU63BU2LFOJL1G32T90GO","","439.40000000037253","img/land6.png","74","440.70000000018626","1","1","1","2","0.8,0.2,0.2,0.2,0.8,0.2,0.2,0.2,0.8","0.8,0.2,0.2,0.2,0.8,0.2,0.2,0.2,0.8","1","",""
"","html-keyboard-response","223","154342","0.0-223.0","3TE3O85731U6AV4O7FRBSCJD9J3R2L","A3IXFZZ3JWTCPW","3WRBLBQ2GRU63BU2LFOJL1G32T90GO","","null","<img src=""img/land6.png"" style=""width:200px; border:14px solid green;"">","null","","","","","","","","","",""
"","image-keyboard-response","224","154701","0.0-224.0","3TE3O85731U6AV4O7FRBSCJD9J3R2L","A3IXFZZ3JWTCPW","3WRBLBQ2GRU63BU2LFOJL1G32T90GO","","357.29999999981374","img/land6.png","74","358.5","1","0","1","2","0.8,0.2,0.2,0.2,0.8,0.2,0.2,0.2,0.8","0.8,0.2,0.2,0.2,0.8,0.2,0.2,0.2,0.8","1","",""
"","html-keyboard-response","225","155003","0.0-225.0","3TE3O85731U6AV4O7FRBSCJD9J3R2L","A3IXFZZ3JWTCPW","3WRBLBQ2GRU63BU2LFOJL1G32T90GO","","null","<img src=""img/land6.png"" style=""width:200px;border:14px solid red;"">","null","","","","","","","","","",""
"","image-keyboard-response","226","155311","0.0-226.0","3TE3O85731U6AV4O7FRBSCJD9J3R2L","A3IXFZZ3JWTCPW","3WRBLBQ2GRU63BU2LFOJL1G32T90GO","","306.39999999990687","img/land6.png","74","307.60000000009313","1","1","1","2","0.8,0.2,0.2,0.2,0.8,0.2,0.2,0.2,0.8","0.8,0.2,0.2,0.2,0.8,0.2,0.2,0.2,0.8","1","",""
"","html-keyboard-response","227","155613","0.0-227.0","3TE3O85731U6AV4O7FRBSCJD9J3R2L","A3IXFZZ3JWTCPW","3WRBLBQ2GRU63BU2LFOJL1G32T90GO","","null","<img src=""img/land6.png"" style=""width:200px; border:14px solid green;"">","null","","","","","","","","","",""
"","image-keyboard-response","228","155889","0.0-228.0","3TE3O85731U6AV4O7FRBSCJD9J3R2L","A3IXFZZ3JWTCPW","3WRBLBQ2GRU63BU2LFOJL1G32T90GO","","274.8000000002794","img/land6.png","74","276","1","1","1","2","0.8,0.2,0.2,0.2,0.8,0.2,0.2,0.2,0.8","0.8,0.2,0.2,0.2,0.8,0.2,0.2,0.2,0.8","1","",""
"","html-keyboard-response","229","156191","0.0-229.0","3TE3O85731U6AV4O7FRBSCJD9J3R2L","A3IXFZZ3JWTCPW","3WRBLBQ2GRU63BU2LFOJL1G32T90GO","","null","<img src=""img/land6.png"" style=""width:200px; border:14px solid green;"">","null","","","","","","","","","",""
"","image-keyboard-response","230","157242","0.0-230.0","3TE3O85731U6AV4O7FRBSCJD9J3R2L","A3IXFZZ3JWTCPW","3WRBLBQ2GRU63BU2LFOJL1G32T90GO","","1049.1000000000931","img/land5.png","75","1050.3999999999069","2","0","3","2","0.8,0.2,0.2,0.2,0.8,0.2,0.2,0.2,0.8","0.8,0.2,0.2,0.2,0.8,0.2,0.2,0.2,0.8","1","",""
"","html-keyboard-response","231","157544","0.0-231.0","3TE3O85731U6AV4O7FRBSCJD9J3R2L","A3IXFZZ3JWTCPW","3WRBLBQ2GRU63BU2LFOJL1G32T90GO","","null","<img src=""img/land5.png"" style=""width:200px;border:14px solid red;"">","null","","","","","","","","","",""
"","image-keyboard-response","232","158272","0.0-232.0","3TE3O85731U6AV4O7FRBSCJD9J3R2L","A3IXFZZ3JWTCPW","3WRBLBQ2GRU63BU2LFOJL1G32T90GO","","726.1999999997206","img/land6.png","74","727.5","1","1","1","2","0.8,0.2,0.2,0.2,0.8,0.2,0.2,0.2,0.8","0.8,0.2,0.2,0.2,0.8,0.2,0.2,0.2,0.8","1","",""
"","html-keyboard-response","233","158574","0.0-233.0","3TE3O85731U6AV4O7FRBSCJD9J3R2L","A3IXFZZ3JWTCPW","3WRBLBQ2GRU63BU2LFOJL1G32T90GO","","null","<img src=""img/land6.png"" style=""width:200px; border:14px solid green;"">","null","","","","","","","","","",""
"","image-keyboard-response","234","159027","0.0-234.0","3TE3O85731U6AV4O7FRBSCJD9J3R2L","A3IXFZZ3JWTCPW","3WRBLBQ2GRU63BU2LFOJL1G32T90GO","","451.89999999990687","img/land5.png","76","453.10000000009313","3","0","3","2","0.8,0.2,0.2,0.2,0.8,0.2,0.2,0.2,0.8","0.8,0.2,0.2,0.2,0.8,0.2,0.2,0.2,0.8","1","",""
"","html-keyboard-response","235","159329","0.0-235.0","3TE3O85731U6AV4O7FRBSCJD9J3R2L","A3IXFZZ3JWTCPW","3WRBLBQ2GRU63BU2LFOJL1G32T90GO","","null","<img src=""img/land5.png"" style=""width:200px;border:14px solid red;"">","null","","","","","","","","","",""
"","image-keyboard-response","236","160054","0.0-236.0","3TE3O85731U6AV4O7FRBSCJD9J3R2L","A3IXFZZ3JWTCPW","3WRBLBQ2GRU63BU2LFOJL1G32T90GO","","723.3999999999069","img/land6.png","74","724.6000000000931","1","1","1","2","0.8,0.2,0.2,0.2,0.8,0.2,0.2,0.2,0.8","0.8,0.2,0.2,0.2,0.8,0.2,0.2,0.2,0.8","1","",""
"","html-keyboard-response","237","160356","0.0-237.0","3TE3O85731U6AV4O7FRBSCJD9J3R2L","A3IXFZZ3JWTCPW","3WRBLBQ2GRU63BU2LFOJL1G32T90GO","","null","<img src=""img/land6.png"" style=""width:200px; border:14px solid green;"">","null","","","","","","","","","",""
"","image-keyboard-response","238","160728","0.0-238.0","3TE3O85731U6AV4O7FRBSCJD9J3R2L","A3IXFZZ3JWTCPW","3WRBLBQ2GRU63BU2LFOJL1G32T90GO","","370.10000000009313","img/land5.png","76","371.1999999997206","3","1","3","2","0.8,0.2,0.2,0.2,0.8,0.2,0.2,0.2,0.8","0.8,0.2,0.2,0.2,0.8,0.2,0.2,0.2,0.8","1","",""
"","html-keyboard-response","239","161030","0.0-239.0","3TE3O85731U6AV4O7FRBSCJD9J3R2L","A3IXFZZ3JWTCPW","3WRBLBQ2GRU63BU2LFOJL1G32T90GO","","null","<img src=""img/land5.png"" style=""width:200px; border:14px solid green;"">","null","","","","","","","","","",""
"","image-keyboard-response","240","161508","0.0-240.0","3TE3O85731U6AV4O7FRBSCJD9J3R2L","A3IXFZZ3JWTCPW","3WRBLBQ2GRU63BU2LFOJL1G32T90GO","","476.5","img/land6.png","74","477.59999999962747","1","1","1","2","0.8,0.2,0.2,0.2,0.8,0.2,0.2,0.2,0.8","0.8,0.2,0.2,0.2,0.8,0.2,0.2,0.2,0.8","1","",""
"","html-keyboard-response","241","161809","0.0-241.0","3TE3O85731U6AV4O7FRBSCJD9J3R2L","A3IXFZZ3JWTCPW","3WRBLBQ2GRU63BU2LFOJL1G32T90GO","","null","<img src=""img/land6.png"" style=""width:200px; border:14px solid green;"">","null","","","","","","","","","",""
"","image-keyboard-response","242","162413","0.0-242.0","3TE3O85731U6AV4O7FRBSCJD9J3R2L","A3IXFZZ3JWTCPW","3WRBLBQ2GRU63BU2LFOJL1G32T90GO","","602.0999999996275","img/land6.png","74","603.3000000002794","1","1","1","2","0.8,0.2,0.2,0.2,0.8,0.2,0.2,0.2,0.8","0.8,0.2,0.2,0.2,0.8,0.2,0.2,0.2,0.8","1","",""
"","html-keyboard-response","243","162715","0.0-243.0","3TE3O85731U6AV4O7FRBSCJD9J3R2L","A3IXFZZ3JWTCPW","3WRBLBQ2GRU63BU2LFOJL1G32T90GO","","null","<img src=""img/land6.png"" style=""width:200px; border:14px solid green;"">","null","","","","","","","","","",""
"","image-keyboard-response","244","163208","0.0-244.0","3TE3O85731U6AV4O7FRBSCJD9J3R2L","A3IXFZZ3JWTCPW","3WRBLBQ2GRU63BU2LFOJL1G32T90GO","","491.29999999981374","img/land6.png","74","492.70000000018626","1","1","1","2","0.8,0.2,0.2,0.2,0.8,0.2,0.2,0.2,0.8","0.8,0.2,0.2,0.2,0.8,0.2,0.2,0.2,0.8","1","",""
"","html-keyboard-response","245","163510","0.0-245.0","3TE3O85731U6AV4O7FRBSCJD9J3R2L","A3IXFZZ3JWTCPW","3WRBLBQ2GRU63BU2LFOJL1G32T90GO","","null","<img src=""img/land6.png"" style=""width:200px; border:14px solid green;"">","null","","","","","","","","","",""
"","image-keyboard-response","246","164151","0.0-246.0","3TE3O85731U6AV4O7FRBSCJD9J3R2L","A3IXFZZ3JWTCPW","3WRBLBQ2GRU63BU2LFOJL1G32T90GO","","638.2000000001863","img/land5.png","76","639.5","3","0","3","2","0.8,0.2,0.2,0.2,0.8,0.2,0.2,0.2,0.8","0.8,0.2,0.2,0.2,0.8,0.2,0.2,0.2,0.8","1","",""
"","html-keyboard-response","247","164453","0.0-247.0","3TE3O85731U6AV4O7FRBSCJD9J3R2L","A3IXFZZ3JWTCPW","3WRBLBQ2GRU63BU2LFOJL1G32T90GO","","null","<img src=""img/land5.png"" style=""width:200px;border:14px solid red;"">","null","","","","","","","","","",""
"","image-keyboard-response","248","165283","0.0-248.0","3TE3O85731U6AV4O7FRBSCJD9J3R2L","A3IXFZZ3JWTCPW","3WRBLBQ2GRU63BU2LFOJL1G32T90GO","","828.7999999998137","img/land4.png","75","830","2","1","2","2","0.8,0.2,0.2,0.2,0.8,0.2,0.2,0.2,0.8","0.8,0.2,0.2,0.2,0.8,0.2,0.2,0.2,0.8","1","",""
"","html-keyboard-response","249","165585","0.0-249.0","3TE3O85731U6AV4O7FRBSCJD9J3R2L","A3IXFZZ3JWTCPW","3WRBLBQ2GRU63BU2LFOJL1G32T90GO","","null","<img src=""img/land4.png"" style=""width:200px; border:14px solid green;"">","null","","","","","","","","","",""
"","image-keyboard-response","250","166224","0.0-250.0","3TE3O85731U6AV4O7FRBSCJD9J3R2L","A3IXFZZ3JWTCPW","3WRBLBQ2GRU63BU2LFOJL1G32T90GO","","637.3999999999069","img/land4.png","75","638.6999999997206","2","0","2","2","0.8,0.2,0.2,0.2,0.8,0.2,0.2,0.2,0.8","0.8,0.2,0.2,0.2,0.8,0.2,0.2,0.2,0.8","1","",""
"","html-keyboard-response","251","166526","0.0-251.0","3TE3O85731U6AV4O7FRBSCJD9J3R2L","A3IXFZZ3JWTCPW","3WRBLBQ2GRU63BU2LFOJL1G32T90GO","","null","<img src=""img/land4.png"" style=""width:200px;border:14px solid red;"">","null","","","","","","","","","",""
"","image-keyboard-response","252","167148","0.0-252.0","3TE3O85731U6AV4O7FRBSCJD9J3R2L","A3IXFZZ3JWTCPW","3WRBLBQ2GRU63BU2LFOJL1G32T90GO","","619.7999999998137","img/land6.png","74","621.7000000001863","1","0","1","2","0.8,0.2,0.2,0.2,0.8,0.2,0.2,0.2,0.8","0.8,0.2,0.2,0.2,0.8,0.2,0.2,0.2,0.8","1","",""
"","html-keyboard-response","253","167450","0.0-253.0","3TE3O85731U6AV4O7FRBSCJD9J3R2L","A3IXFZZ3JWTCPW","3WRBLBQ2GRU63BU2LFOJL1G32T90GO","","null","<img src=""img/land6.png"" style=""width:200px;border:14px solid red;"">","null","","","","","","","","","",""
"","image-keyboard-response","254","168228","0.0-254.0","3TE3O85731U6AV4O7FRBSCJD9J3R2L","A3IXFZZ3JWTCPW","3WRBLBQ2GRU63BU2LFOJL1G32T90GO","","775.8000000002794","img/land4.png","75","777","2","1","2","2","0.8,0.2,0.2,0.2,0.8,0.2,0.2,0.2,0.8","0.8,0.2,0.2,0.2,0.8,0.2,0.2,0.2,0.8","1","",""
"","html-keyboard-response","255","168530","0.0-255.0","3TE3O85731U6AV4O7FRBSCJD9J3R2L","A3IXFZZ3JWTCPW","3WRBLBQ2GRU63BU2LFOJL1G32T90GO","","null","<img src=""img/land4.png"" style=""width:200px; border:14px solid green;"">","null","","","","","","","","","",""
"","image-keyboard-response","256","169151","0.0-256.0","3TE3O85731U6AV4O7FRBSCJD9J3R2L","A3IXFZZ3JWTCPW","3WRBLBQ2GRU63BU2LFOJL1G32T90GO","","619.5","img/land4.png","75","620.6999999997206","2","1","2","2","0.8,0.2,0.2,0.2,0.8,0.2,0.2,0.2,0.8","0.8,0.2,0.2,0.2,0.8,0.2,0.2,0.2,0.8","1","",""
"","html-keyboard-response","257","169453","0.0-257.0","3TE3O85731U6AV4O7FRBSCJD9J3R2L","A3IXFZZ3JWTCPW","3WRBLBQ2GRU63BU2LFOJL1G32T90GO","","null","<img src=""img/land4.png"" style=""width:200px; border:14px solid green;"">","null","","","","","","","","","",""
"","image-keyboard-response","258","170047","0.0-258.0","3TE3O85731U6AV4O7FRBSCJD9J3R2L","A3IXFZZ3JWTCPW","3WRBLBQ2GRU63BU2LFOJL1G32T90GO","","592.1000000000931","img/land6.png","74","593.3000000002794","1","1","1","2","0.8,0.2,0.2,0.2,0.8,0.2,0.2,0.2,0.8","0.8,0.2,0.2,0.2,0.8,0.2,0.2,0.2,0.8","1","",""
"","html-keyboard-response","259","170349","0.0-259.0","3TE3O85731U6AV4O7FRBSCJD9J3R2L","A3IXFZZ3JWTCPW","3WRBLBQ2GRU63BU2LFOJL1G32T90GO","","null","<img src=""img/land6.png"" style=""width:200px; border:14px solid green;"">","null","","","","","","","","","",""
"","image-keyboard-response","260","170958","0.0-260.0","3TE3O85731U6AV4O7FRBSCJD9J3R2L","A3IXFZZ3JWTCPW","3WRBLBQ2GRU63BU2LFOJL1G32T90GO","","607.5","img/land6.png","74","608.9000000003725","1","1","1","2","0.8,0.2,0.2,0.2,0.8,0.2,0.2,0.2,0.8","0.8,0.2,0.2,0.2,0.8,0.2,0.2,0.2,0.8","1","",""
"","html-keyboard-response","261","171260","0.0-261.0","3TE3O85731U6AV4O7FRBSCJD9J3R2L","A3IXFZZ3JWTCPW","3WRBLBQ2GRU63BU2LFOJL1G32T90GO","","null","<img src=""img/land6.png"" style=""width:200px; border:14px solid green;"">","null","","","","","","","","","",""
"","image-keyboard-response","262","172001","0.0-262.0","3TE3O85731U6AV4O7FRBSCJD9J3R2L","A3IXFZZ3JWTCPW","3WRBLBQ2GRU63BU2LFOJL1G32T90GO","","740","img/land4.png","75","741.1000000000931","2","0","2","2","0.8,0.2,0.2,0.2,0.8,0.2,0.2,0.2,0.8","0.8,0.2,0.2,0.2,0.8,0.2,0.2,0.2,0.8","1","",""
"","html-keyboard-response","263","172303","0.0-263.0","3TE3O85731U6AV4O7FRBSCJD9J3R2L","A3IXFZZ3JWTCPW","3WRBLBQ2GRU63BU2LFOJL1G32T90GO","","null","<img src=""img/land4.png"" style=""width:200px;border:14px solid red;"">","null","","","","","","","","","",""
"","image-keyboard-response","264","173000","0.0-264.0","3TE3O85731U6AV4O7FRBSCJD9J3R2L","A3IXFZZ3JWTCPW","3WRBLBQ2GRU63BU2LFOJL1G32T90GO","","695.1000000000931","img/land6.png","74","696.5","1","1","1","2","0.8,0.2,0.2,0.2,0.8,0.2,0.2,0.2,0.8","0.8,0.2,0.2,0.2,0.8,0.2,0.2,0.2,0.8","1","",""
"","html-keyboard-response","265","173302","0.0-265.0","3TE3O85731U6AV4O7FRBSCJD9J3R2L","A3IXFZZ3JWTCPW","3WRBLBQ2GRU63BU2LFOJL1G32T90GO","","null","<img src=""img/land6.png"" style=""width:200px; border:14px solid green;"">","null","","","","","","","","","",""
"","image-keyboard-response","266","173926","0.0-266.0","3TE3O85731U6AV4O7FRBSCJD9J3R2L","A3IXFZZ3JWTCPW","3WRBLBQ2GRU63BU2LFOJL1G32T90GO","","622.2999999998137","img/land5.png","76","623.5","3","1","3","2","0.8,0.2,0.2,0.2,0.8,0.2,0.2,0.2,0.8","0.8,0.2,0.2,0.2,0.8,0.2,0.2,0.2,0.8","1","",""
"","html-keyboard-response","267","174228","0.0-267.0","3TE3O85731U6AV4O7FRBSCJD9J3R2L","A3IXFZZ3JWTCPW","3WRBLBQ2GRU63BU2LFOJL1G32T90GO","","null","<img src=""img/land5.png"" style=""width:200px; border:14px solid green;"">","null","","","","","","","","","",""
"","image-keyboard-response","268","174837","0.0-268.0","3TE3O85731U6AV4O7FRBSCJD9J3R2L","A3IXFZZ3JWTCPW","3WRBLBQ2GRU63BU2LFOJL1G32T90GO","","606.8999999999069","img/land6.png","74","608.3000000002794","1","0","1","2","0.8,0.2,0.2,0.2,0.8,0.2,0.2,0.2,0.8","0.8,0.2,0.2,0.2,0.8,0.2,0.2,0.2,0.8","1","",""
"","html-keyboard-response","269","175139","0.0-269.0","3TE3O85731U6AV4O7FRBSCJD9J3R2L","A3IXFZZ3JWTCPW","3WRBLBQ2GRU63BU2LFOJL1G32T90GO","","null","<img src=""img/land6.png"" style=""width:200px;border:14px solid red;"">","null","","","","","","","","","",""
"","image-keyboard-response","270","175557","0.0-270.0","3TE3O85731U6AV4O7FRBSCJD9J3R2L","A3IXFZZ3JWTCPW","3WRBLBQ2GRU63BU2LFOJL1G32T90GO","","416.5","img/land5.png","76","417.70000000018626","3","1","3","2","0.8,0.2,0.2,0.2,0.8,0.2,0.2,0.2,0.8","0.8,0.2,0.2,0.2,0.8,0.2,0.2,0.2,0.8","1","",""
"","html-keyboard-response","271","175859","0.0-271.0","3TE3O85731U6AV4O7FRBSCJD9J3R2L","A3IXFZZ3JWTCPW","3WRBLBQ2GRU63BU2LFOJL1G32T90GO","","null","<img src=""img/land5.png"" style=""width:200px; border:14px solid green;"">","null","","","","","","","","","",""
"","image-keyboard-response","272","176326","0.0-272.0","3TE3O85731U6AV4O7FRBSCJD9J3R2L","A3IXFZZ3JWTCPW","3WRBLBQ2GRU63BU2LFOJL1G32T90GO","","465.39999999990687","img/land4.png","74","466.6999999997206","1","0","2","2","0.8,0.2,0.2,0.2,0.8,0.2,0.2,0.2,0.8","0.8,0.2,0.2,0.2,0.8,0.2,0.2,0.2,0.8","1","",""
"","html-keyboard-response","273","176627","0.0-273.0","3TE3O85731U6AV4O7FRBSCJD9J3R2L","A3IXFZZ3JWTCPW","3WRBLBQ2GRU63BU2LFOJL1G32T90GO","","null","<img src=""img/land4.png"" style=""width:200px;border:14px solid red;"">","null","","","","","","","","","",""
"","image-keyboard-response","274","176749","0.0-274.0","3TE3O85731U6AV4O7FRBSCJD9J3R2L","A3IXFZZ3JWTCPW","3WRBLBQ2GRU63BU2LFOJL1G32T90GO","","119.60000000009313","img/land6.png","75","121.29999999981374","2","0","1","2","0.8,0.2,0.2,0.2,0.8,0.2,0.2,0.2,0.8","0.8,0.2,0.2,0.2,0.8,0.2,0.2,0.2,0.8","1","",""
"","html-keyboard-response","275","177051","0.0-275.0","3TE3O85731U6AV4O7FRBSCJD9J3R2L","A3IXFZZ3JWTCPW","3WRBLBQ2GRU63BU2LFOJL1G32T90GO","","null","<img src=""img/land6.png"" style=""width:200px;border:14px solid red;"">","null","","","","","","","","","",""
"","image-keyboard-response","276","177576","0.0-276.0","3TE3O85731U6AV4O7FRBSCJD9J3R2L","A3IXFZZ3JWTCPW","3WRBLBQ2GRU63BU2LFOJL1G32T90GO","","523.3000000002794","img/land6.png","74","524.5","1","1","1","2","0.8,0.2,0.2,0.2,0.8,0.2,0.2,0.2,0.8","0.8,0.2,0.2,0.2,0.8,0.2,0.2,0.2,0.8","1","",""
"","html-keyboard-response","277","177878","0.0-277.0","3TE3O85731U6AV4O7FRBSCJD9J3R2L","A3IXFZZ3JWTCPW","3WRBLBQ2GRU63BU2LFOJL1G32T90GO","","null","<img src=""img/land6.png"" style=""width:200px; border:14px solid green;"">","null","","","","","","","","","",""
"","image-keyboard-response","278","178560","0.0-278.0","3TE3O85731U6AV4O7FRBSCJD9J3R2L","A3IXFZZ3JWTCPW","3WRBLBQ2GRU63BU2LFOJL1G32T90GO","","680.5","img/land4.png","75","681.7999999998137","2","1","2","2","0.8,0.2,0.2,0.2,0.8,0.2,0.2,0.2,0.8","0.8,0.2,0.2,0.2,0.8,0.2,0.2,0.2,0.8","1","",""
"","html-keyboard-response","279","178862","0.0-279.0","3TE3O85731U6AV4O7FRBSCJD9J3R2L","A3IXFZZ3JWTCPW","3WRBLBQ2GRU63BU2LFOJL1G32T90GO","","null","<img src=""img/land4.png"" style=""width:200px; border:14px solid green;"">","null","","","","","","","","","",""
"","image-keyboard-response","280","179949","0.0-280.0","3TE3O85731U6AV4O7FRBSCJD9J3R2L","A3IXFZZ3JWTCPW","3WRBLBQ2GRU63BU2LFOJL1G32T90GO","","1085.1999999997206","img/land6.png","76","1086.5","3","0","1","2","0.8,0.2,0.2,0.2,0.8,0.2,0.2,0.2,0.8","0.8,0.2,0.2,0.2,0.8,0.2,0.2,0.2,0.8","1","",""
"","html-keyboard-response","281","180251","0.0-281.0","3TE3O85731U6AV4O7FRBSCJD9J3R2L","A3IXFZZ3JWTCPW","3WRBLBQ2GRU63BU2LFOJL1G32T90GO","","null","<img src=""img/land6.png"" style=""width:200px;border:14px solid red;"">","null","","","","","","","","","",""
"","image-keyboard-response","282","180615","0.0-282.0","3TE3O85731U6AV4O7FRBSCJD9J3R2L","A3IXFZZ3JWTCPW","3WRBLBQ2GRU63BU2LFOJL1G32T90GO","","362","img/land6.png","76","363.20000000018626","3","0","1","2","0.8,0.2,0.2,0.2,0.8,0.2,0.2,0.2,0.8","0.8,0.2,0.2,0.2,0.8,0.2,0.2,0.2,0.8","1","",""
"","html-keyboard-response","283","180917","0.0-283.0","3TE3O85731U6AV4O7FRBSCJD9J3R2L","A3IXFZZ3JWTCPW","3WRBLBQ2GRU63BU2LFOJL1G32T90GO","","null","<img src=""img/land6.png"" style=""width:200px;border:14px solid red;"">","null","","","","","","","","","",""
"","image-keyboard-response","284","182231","0.0-284.0","3TE3O85731U6AV4O7FRBSCJD9J3R2L","A3IXFZZ3JWTCPW","3WRBLBQ2GRU63BU2LFOJL1G32T90GO","","1312.4000000003725","img/land4.png","75","1313.7000000001863","2","1","2","2","0.8,0.2,0.2,0.2,0.8,0.2,0.2,0.2,0.8","0.8,0.2,0.2,0.2,0.8,0.2,0.2,0.2,0.8","1","",""
"","html-keyboard-response","285","182533","0.0-285.0","3TE3O85731U6AV4O7FRBSCJD9J3R2L","A3IXFZZ3JWTCPW","3WRBLBQ2GRU63BU2LFOJL1G32T90GO","","null","<img src=""img/land4.png"" style=""width:200px; border:14px solid green;"">","null","","","","","","","","","",""
"","image-keyboard-response","286","183116","0.0-286.0","3TE3O85731U6AV4O7FRBSCJD9J3R2L","A3IXFZZ3JWTCPW","3WRBLBQ2GRU63BU2LFOJL1G32T90GO","","580.8999999999069","img/land6.png","74","582.2999999998137","1","0","1","2","0.8,0.2,0.2,0.2,0.8,0.2,0.2,0.2,0.8","0.8,0.2,0.2,0.2,0.8,0.2,0.2,0.2,0.8","1","",""
"","html-keyboard-response","287","183418","0.0-287.0","3TE3O85731U6AV4O7FRBSCJD9J3R2L","A3IXFZZ3JWTCPW","3WRBLBQ2GRU63BU2LFOJL1G32T90GO","","null","<img src=""img/land6.png"" style=""width:200px;border:14px solid red;"">","null","","","","","","","","","",""
"","image-keyboard-response","288","184163","0.0-288.0","3TE3O85731U6AV4O7FRBSCJD9J3R2L","A3IXFZZ3JWTCPW","3WRBLBQ2GRU63BU2LFOJL1G32T90GO","","743.2999999998137","img/land6.png","74","744.7000000001863","1","1","1","2","0.8,0.2,0.2,0.2,0.8,0.2,0.2,0.2,0.8","0.8,0.2,0.2,0.2,0.8,0.2,0.2,0.2,0.8","1","",""
"","html-keyboard-response","289","184465","0.0-289.0","3TE3O85731U6AV4O7FRBSCJD9J3R2L","A3IXFZZ3JWTCPW","3WRBLBQ2GRU63BU2LFOJL1G32T90GO","","null","<img src=""img/land6.png"" style=""width:200px; border:14px solid green;"">","null","","","","","","","","","",""
"","image-keyboard-response","290","184981","0.0-290.0","3TE3O85731U6AV4O7FRBSCJD9J3R2L","A3IXFZZ3JWTCPW","3WRBLBQ2GRU63BU2LFOJL1G32T90GO","","514","img/land6.png","74","515.4000000003725","1","1","1","2","0.8,0.2,0.2,0.2,0.8,0.2,0.2,0.2,0.8","0.8,0.2,0.2,0.2,0.8,0.2,0.2,0.2,0.8","1","",""
"","html-keyboard-response","291","185282","0.0-291.0","3TE3O85731U6AV4O7FRBSCJD9J3R2L","A3IXFZZ3JWTCPW","3WRBLBQ2GRU63BU2LFOJL1G32T90GO","","null","<img src=""img/land6.png"" style=""width:200px; border:14px solid green;"">","null","","","","","","","","","",""
"","image-keyboard-response","292","185888","0.0-292.0","3TE3O85731U6AV4O7FRBSCJD9J3R2L","A3IXFZZ3JWTCPW","3WRBLBQ2GRU63BU2LFOJL1G32T90GO","","603.5","img/land4.png","75","604.8000000002794","2","1","2","2","0.8,0.2,0.2,0.2,0.8,0.2,0.2,0.2,0.8","0.8,0.2,0.2,0.2,0.8,0.2,0.2,0.2,0.8","1","",""
"","html-keyboard-response","293","186189","0.0-293.0","3TE3O85731U6AV4O7FRBSCJD9J3R2L","A3IXFZZ3JWTCPW","3WRBLBQ2GRU63BU2LFOJL1G32T90GO","","null","<img src=""img/land4.png"" style=""width:200px; border:14px solid green;"">","null","","","","","","","","","",""
"","image-keyboard-response","294","186856","0.0-294.0","3TE3O85731U6AV4O7FRBSCJD9J3R2L","A3IXFZZ3JWTCPW","3WRBLBQ2GRU63BU2LFOJL1G32T90GO","","665.2000000001863","img/land5.png","76","666.3999999999069","3","1","3","2","0.8,0.2,0.2,0.2,0.8,0.2,0.2,0.2,0.8","0.8,0.2,0.2,0.2,0.8,0.2,0.2,0.2,0.8","1","",""
"","html-keyboard-response","295","187158","0.0-295.0","3TE3O85731U6AV4O7FRBSCJD9J3R2L","A3IXFZZ3JWTCPW","3WRBLBQ2GRU63BU2LFOJL1G32T90GO","","null","<img src=""img/land5.png"" style=""width:200px; border:14px solid green;"">","null","","","","","","","","","",""
"","image-keyboard-response","296","187814","0.0-296.0","3TE3O85731U6AV4O7FRBSCJD9J3R2L","A3IXFZZ3JWTCPW","3WRBLBQ2GRU63BU2LFOJL1G32T90GO","","653.6000000000931","img/land6.png","74","654.7000000001863","1","1","1","2","0.8,0.2,0.2,0.2,0.8,0.2,0.2,0.2,0.8","0.8,0.2,0.2,0.2,0.8,0.2,0.2,0.2,0.8","1","",""
"","html-keyboard-response","297","188115","0.0-297.0","3TE3O85731U6AV4O7FRBSCJD9J3R2L","A3IXFZZ3JWTCPW","3WRBLBQ2GRU63BU2LFOJL1G32T90GO","","null","<img src=""img/land6.png"" style=""width:200px; border:14px solid green;"">","null","","","","","","","","","",""
"","image-keyboard-response","298","188656","0.0-298.0","3TE3O85731U6AV4O7FRBSCJD9J3R2L","A3IXFZZ3JWTCPW","3WRBLBQ2GRU63BU2LFOJL1G32T90GO","","538.5","img/land6.png","74","539.8000000002794","1","1","1","2","0.8,0.2,0.2,0.2,0.8,0.2,0.2,0.2,0.8","0.8,0.2,0.2,0.2,0.8,0.2,0.2,0.2,0.8","1","",""
"","html-keyboard-response","299","188958","0.0-299.0","3TE3O85731U6AV4O7FRBSCJD9J3R2L","A3IXFZZ3JWTCPW","3WRBLBQ2GRU63BU2LFOJL1G32T90GO","","null","<img src=""img/land6.png"" style=""width:200px; border:14px solid green;"">","null","","","","","","","","","",""
"","image-keyboard-response","300","189697","0.0-300.0","3TE3O85731U6AV4O7FRBSCJD9J3R2L","A3IXFZZ3JWTCPW","3WRBLBQ2GRU63BU2LFOJL1G32T90GO","","737.5","img/land4.png","75","738.7999999998137","2","1","2","2","0.8,0.2,0.2,0.2,0.8,0.2,0.2,0.2,0.8","0.8,0.2,0.2,0.2,0.8,0.2,0.2,0.2,0.8","1","",""
"","html-keyboard-response","301","189999","0.0-301.0","3TE3O85731U6AV4O7FRBSCJD9J3R2L","A3IXFZZ3JWTCPW","3WRBLBQ2GRU63BU2LFOJL1G32T90GO","","null","<img src=""img/land4.png"" style=""width:200px; border:14px solid green;"">","null","","","","","","","","","",""
"","image-keyboard-response","302","191614","0.0-302.0","3TE3O85731U6AV4O7FRBSCJD9J3R2L","A3IXFZZ3JWTCPW","3WRBLBQ2GRU63BU2LFOJL1G32T90GO","","1612.8999999999069","img/land1.png","76","1614","3","1","3","1","0.8,0.2,0.2,0.2,0.8,0.2,0.2,0.2,0.8","0.8,0.2,0.2,0.2,0.8,0.2,0.2,0.2,0.8","1","",""
"","html-keyboard-response","303","191916","0.0-303.0","3TE3O85731U6AV4O7FRBSCJD9J3R2L","A3IXFZZ3JWTCPW","3WRBLBQ2GRU63BU2LFOJL1G32T90GO","","null","<img src=""img/land1.png"" style=""width:200px; border:14px solid green;"">","null","","","","","","","","","",""
"","image-keyboard-response","304","193195","0.0-304.0","3TE3O85731U6AV4O7FRBSCJD9J3R2L","A3IXFZZ3JWTCPW","3WRBLBQ2GRU63BU2LFOJL1G32T90GO","","1276.8999999999069","img/land3.png","76","1278.0999999996275","3","1","1","1","0.8,0.2,0.2,0.2,0.8,0.2,0.2,0.2,0.8","0.8,0.2,0.2,0.2,0.8,0.2,0.2,0.2,0.8","1","",""
"","html-keyboard-response","305","193496","0.0-305.0","3TE3O85731U6AV4O7FRBSCJD9J3R2L","A3IXFZZ3JWTCPW","3WRBLBQ2GRU63BU2LFOJL1G32T90GO","","null","<img src=""img/land3.png"" style=""width:200px; border:14px solid green;"">","null","","","","","","","","","",""
"","image-keyboard-response","306","193861","0.0-306.0","3TE3O85731U6AV4O7FRBSCJD9J3R2L","A3IXFZZ3JWTCPW","3WRBLBQ2GRU63BU2LFOJL1G32T90GO","","361.89999999990687","img/land2.png","75","363.5","2","1","2","1","0.8,0.2,0.2,0.2,0.8,0.2,0.2,0.2,0.8","0.8,0.2,0.2,0.2,0.8,0.2,0.2,0.2,0.8","1","",""
"","html-keyboard-response","307","194162","0.0-307.0","3TE3O85731U6AV4O7FRBSCJD9J3R2L","A3IXFZZ3JWTCPW","3WRBLBQ2GRU63BU2LFOJL1G32T90GO","","null","<img src=""img/land2.png"" style=""width:200px; border:14px solid green;"">","null","","","","","","","","","",""
"","image-keyboard-response","308","194651","0.0-308.0","3TE3O85731U6AV4O7FRBSCJD9J3R2L","A3IXFZZ3JWTCPW","3WRBLBQ2GRU63BU2LFOJL1G32T90GO","","486.20000000018626","img/land3.png","74","487.5","1","1","1","1","0.8,0.2,0.2,0.2,0.8,0.2,0.2,0.2,0.8","0.8,0.2,0.2,0.2,0.8,0.2,0.2,0.2,0.8","1","",""
"","html-keyboard-response","309","194953","0.0-309.0","3TE3O85731U6AV4O7FRBSCJD9J3R2L","A3IXFZZ3JWTCPW","3WRBLBQ2GRU63BU2LFOJL1G32T90GO","","null","<img src=""img/land3.png"" style=""width:200px; border:14px solid green;"">","null","","","","","","","","","",""
"","image-keyboard-response","310","195275","0.0-310.0","3TE3O85731U6AV4O7FRBSCJD9J3R2L","A3IXFZZ3JWTCPW","3WRBLBQ2GRU63BU2LFOJL1G32T90GO","","320.60000000009313","img/land2.png","74","321.79999999981374","1","1","2","1","0.8,0.2,0.2,0.2,0.8,0.2,0.2,0.2,0.8","0.8,0.2,0.2,0.2,0.8,0.2,0.2,0.2,0.8","1","",""
"","html-keyboard-response","311","195577","0.0-311.0","3TE3O85731U6AV4O7FRBSCJD9J3R2L","A3IXFZZ3JWTCPW","3WRBLBQ2GRU63BU2LFOJL1G32T90GO","","null","<img src=""img/land2.png"" style=""width:200px; border:14px solid green;"">","null","","","","","","","","","",""
"","image-keyboard-response","312","195681","0.0-312.0","3TE3O85731U6AV4O7FRBSCJD9J3R2L","A3IXFZZ3JWTCPW","3WRBLBQ2GRU63BU2LFOJL1G32T90GO","","102.70000000018626","img/land1.png","75","104","2","0","3","1","0.8,0.2,0.2,0.2,0.8,0.2,0.2,0.2,0.8","0.8,0.2,0.2,0.2,0.8,0.2,0.2,0.2,0.8","1","",""
"","html-keyboard-response","313","195983","0.0-313.0","3TE3O85731U6AV4O7FRBSCJD9J3R2L","A3IXFZZ3JWTCPW","3WRBLBQ2GRU63BU2LFOJL1G32T90GO","","null","<img src=""img/land1.png"" style=""width:200px;border:14px solid red;"">","null","","","","","","","","","",""
"","image-keyboard-response","314","195992","0.0-314.0","3TE3O85731U6AV4O7FRBSCJD9J3R2L","A3IXFZZ3JWTCPW","3WRBLBQ2GRU63BU2LFOJL1G32T90GO","","7.5","img/land2.png","76","8.700000000186265","3","0","2","1","0.8,0.2,0.2,0.2,0.8,0.2,0.2,0.2,0.8","0.8,0.2,0.2,0.2,0.8,0.2,0.2,0.2,0.8","1","",""
"","html-keyboard-response","315","196294","0.0-315.0","3TE3O85731U6AV4O7FRBSCJD9J3R2L","A3IXFZZ3JWTCPW","3WRBLBQ2GRU63BU2LFOJL1G32T90GO","","null","<img src=""img/land2.png"" style=""width:200px;border:14px solid red;"">","null","","","","","","","","","",""
"","image-keyboard-response","316","196403","0.0-316.0","3TE3O85731U6AV4O7FRBSCJD9J3R2L","A3IXFZZ3JWTCPW","3WRBLBQ2GRU63BU2LFOJL1G32T90GO","","106.89999999990687","img/land3.png","75","108","2","0","1","1","0.8,0.2,0.2,0.2,0.8,0.2,0.2,0.2,0.8","0.8,0.2,0.2,0.2,0.8,0.2,0.2,0.2,0.8","1","",""
"","html-keyboard-response","317","196705","0.0-317.0","3TE3O85731U6AV4O7FRBSCJD9J3R2L","A3IXFZZ3JWTCPW","3WRBLBQ2GRU63BU2LFOJL1G32T90GO","","null","<img src=""img/land3.png"" style=""width:200px;border:14px solid red;"">","null","","","","","","","","","",""
"","image-keyboard-response","318","197296","0.0-318.0","3TE3O85731U6AV4O7FRBSCJD9J3R2L","A3IXFZZ3JWTCPW","3WRBLBQ2GRU63BU2LFOJL1G32T90GO","","589.2999999998137","img/land3.png","74","590.5","1","0","1","1","0.8,0.2,0.2,0.2,0.8,0.2,0.2,0.2,0.8","0.8,0.2,0.2,0.2,0.8,0.2,0.2,0.2,0.8","1","",""
"","html-keyboard-response","319","197598","0.0-319.0","3TE3O85731U6AV4O7FRBSCJD9J3R2L","A3IXFZZ3JWTCPW","3WRBLBQ2GRU63BU2LFOJL1G32T90GO","","null","<img src=""img/land3.png"" style=""width:200px;border:14px solid red;"">","null","","","","","","","","","",""
"","image-keyboard-response","320","197655","0.0-320.0","3TE3O85731U6AV4O7FRBSCJD9J3R2L","A3IXFZZ3JWTCPW","3WRBLBQ2GRU63BU2LFOJL1G32T90GO","","55","img/land2.png","74","56.5","1","0","2","1","0.8,0.2,0.2,0.2,0.8,0.2,0.2,0.2,0.8","0.8,0.2,0.2,0.2,0.8,0.2,0.2,0.2,0.8","1","",""
"","html-keyboard-response","321","197957","0.0-321.0","3TE3O85731U6AV4O7FRBSCJD9J3R2L","A3IXFZZ3JWTCPW","3WRBLBQ2GRU63BU2LFOJL1G32T90GO","","null","<img src=""img/land2.png"" style=""width:200px;border:14px solid red;"">","null","","","","","","","","","",""
"","image-keyboard-response","322","198848","0.0-322.0","3TE3O85731U6AV4O7FRBSCJD9J3R2L","A3IXFZZ3JWTCPW","3WRBLBQ2GRU63BU2LFOJL1G32T90GO","","889","img/land1.png","74","890.1999999997206","1","0","3","1","0.8,0.2,0.2,0.2,0.8,0.2,0.2,0.2,0.8","0.8,0.2,0.2,0.2,0.8,0.2,0.2,0.2,0.8","1","",""
"","html-keyboard-response","323","199149","0.0-323.0","3TE3O85731U6AV4O7FRBSCJD9J3R2L","A3IXFZZ3JWTCPW","3WRBLBQ2GRU63BU2LFOJL1G32T90GO","","null","<img src=""img/land1.png"" style=""width:200px;border:14px solid red;"">","null","","","","","","","","","",""
"","image-keyboard-response","324","199808","0.0-324.0","3TE3O85731U6AV4O7FRBSCJD9J3R2L","A3IXFZZ3JWTCPW","3WRBLBQ2GRU63BU2LFOJL1G32T90GO","","657.1000000000931","img/land1.png","75","658.1999999997206","2","0","3","1","0.8,0.2,0.2,0.2,0.8,0.2,0.2,0.2,0.8","0.8,0.2,0.2,0.2,0.8,0.2,0.2,0.2,0.8","1","",""
"","html-keyboard-response","325","200111","0.0-325.0","3TE3O85731U6AV4O7FRBSCJD9J3R2L","A3IXFZZ3JWTCPW","3WRBLBQ2GRU63BU2LFOJL1G32T90GO","","null","<img src=""img/land1.png"" style=""width:200px;border:14px solid red;"">","null","","","","","","","","","",""
"","image-keyboard-response","326","201007","0.0-326.0","3TE3O85731U6AV4O7FRBSCJD9J3R2L","A3IXFZZ3JWTCPW","3WRBLBQ2GRU63BU2LFOJL1G32T90GO","","894.7999999998137","img/land2.png","74","896","1","0","2","1","0.8,0.2,0.2,0.2,0.8,0.2,0.2,0.2,0.8","0.8,0.2,0.2,0.2,0.8,0.2,0.2,0.2,0.8","1","",""
"","html-keyboard-response","327","201309","0.0-327.0","3TE3O85731U6AV4O7FRBSCJD9J3R2L","A3IXFZZ3JWTCPW","3WRBLBQ2GRU63BU2LFOJL1G32T90GO","","null","<img src=""img/land2.png"" style=""width:200px;border:14px solid red;"">","null","","","","","","","","","",""
"","image-keyboard-response","328","202360","0.0-328.0","3TE3O85731U6AV4O7FRBSCJD9J3R2L","A3IXFZZ3JWTCPW","3WRBLBQ2GRU63BU2LFOJL1G32T90GO","","1049.5","img/land1.png","74","1050.5999999996275","1","0","3","1","0.8,0.2,0.2,0.2,0.8,0.2,0.2,0.2,0.8","0.8,0.2,0.2,0.2,0.8,0.2,0.2,0.2,0.8","1","",""
"","html-keyboard-response","329","202662","0.0-329.0","3TE3O85731U6AV4O7FRBSCJD9J3R2L","A3IXFZZ3JWTCPW","3WRBLBQ2GRU63BU2LFOJL1G32T90GO","","null","<img src=""img/land1.png"" style=""width:200px;border:14px solid red;"">","null","","","","","","","","","",""
"","image-keyboard-response","330","203295","0.0-330.0","3TE3O85731U6AV4O7FRBSCJD9J3R2L","A3IXFZZ3JWTCPW","3WRBLBQ2GRU63BU2LFOJL1G32T90GO","","630.5","img/land1.png","76","631.8999999999069","3","1","3","1","0.8,0.2,0.2,0.2,0.8,0.2,0.2,0.2,0.8","0.8,0.2,0.2,0.2,0.8,0.2,0.2,0.2,0.8","1","",""
"","html-keyboard-response","331","203596","0.0-331.0","3TE3O85731U6AV4O7FRBSCJD9J3R2L","A3IXFZZ3JWTCPW","3WRBLBQ2GRU63BU2LFOJL1G32T90GO","","null","<img src=""img/land1.png"" style=""width:200px; border:14px solid green;"">","null","","","","","","","","","",""
"","image-keyboard-response","332","204375","0.0-332.0","3TE3O85731U6AV4O7FRBSCJD9J3R2L","A3IXFZZ3JWTCPW","3WRBLBQ2GRU63BU2LFOJL1G32T90GO","","777.1000000000931","img/land2.png","75","778.2999999998137","2","1","2","1","0.8,0.2,0.2,0.2,0.8,0.2,0.2,0.2,0.8","0.8,0.2,0.2,0.2,0.8,0.2,0.2,0.2,0.8","1","",""
"","html-keyboard-response","333","204677","0.0-333.0","3TE3O85731U6AV4O7FRBSCJD9J3R2L","A3IXFZZ3JWTCPW","3WRBLBQ2GRU63BU2LFOJL1G32T90GO","","null","<img src=""img/land2.png"" style=""width:200px; border:14px solid green;"">","null","","","","","","","","","",""
"","image-keyboard-response","334","205523","0.0-334.0","3TE3O85731U6AV4O7FRBSCJD9J3R2L","A3IXFZZ3JWTCPW","3WRBLBQ2GRU63BU2LFOJL1G32T90GO","","843.8999999999069","img/land3.png","75","845","2","0","1","1","0.8,0.2,0.2,0.2,0.8,0.2,0.2,0.2,0.8","0.8,0.2,0.2,0.2,0.8,0.2,0.2,0.2,0.8","1","",""
"","html-keyboard-response","335","205825","0.0-335.0","3TE3O85731U6AV4O7FRBSCJD9J3R2L","A3IXFZZ3JWTCPW","3WRBLBQ2GRU63BU2LFOJL1G32T90GO","","null","<img src=""img/land3.png"" style=""width:200px;border:14px solid red;"">","null","","","","","","","","","",""
"","image-keyboard-response","336","206105","0.0-336.0","3TE3O85731U6AV4O7FRBSCJD9J3R2L","A3IXFZZ3JWTCPW","3WRBLBQ2GRU63BU2LFOJL1G32T90GO","","277.79999999981374","img/land1.png","76","279.09999999962747","3","1","3","1","0.8,0.2,0.2,0.2,0.8,0.2,0.2,0.2,0.8","0.8,0.2,0.2,0.2,0.8,0.2,0.2,0.2,0.8","1","",""
"","html-keyboard-response","337","206406","0.0-337.0","3TE3O85731U6AV4O7FRBSCJD9J3R2L","A3IXFZZ3JWTCPW","3WRBLBQ2GRU63BU2LFOJL1G32T90GO","","null","<img src=""img/land1.png"" style=""width:200px; border:14px solid green;"">","null","","","","","","","","","",""
"","image-keyboard-response","338","207276","0.0-338.0","3TE3O85731U6AV4O7FRBSCJD9J3R2L","A3IXFZZ3JWTCPW","3WRBLBQ2GRU63BU2LFOJL1G32T90GO","","867.7999999998137","img/land1.png","76","869.1999999997206","3","1","3","1","0.8,0.2,0.2,0.2,0.8,0.2,0.2,0.2,0.8","0.8,0.2,0.2,0.2,0.8,0.2,0.2,0.2,0.8","1","",""
"","html-keyboard-response","339","207578","0.0-339.0","3TE3O85731U6AV4O7FRBSCJD9J3R2L","A3IXFZZ3JWTCPW","3WRBLBQ2GRU63BU2LFOJL1G32T90GO","","null","<img src=""img/land1.png"" style=""width:200px; border:14px solid green;"">","null","","","","","","","","","",""
"","image-keyboard-response","340","208264","0.0-340.0","3TE3O85731U6AV4O7FRBSCJD9J3R2L","A3IXFZZ3JWTCPW","3WRBLBQ2GRU63BU2LFOJL1G32T90GO","","683.3999999999069","img/land3.png","75","684.7000000001863","2","0","1","1","0.8,0.2,0.2,0.2,0.8,0.2,0.2,0.2,0.8","0.8,0.2,0.2,0.2,0.8,0.2,0.2,0.2,0.8","1","",""
"","html-keyboard-response","341","208566","0.0-341.0","3TE3O85731U6AV4O7FRBSCJD9J3R2L","A3IXFZZ3JWTCPW","3WRBLBQ2GRU63BU2LFOJL1G32T90GO","","null","<img src=""img/land3.png"" style=""width:200px;border:14px solid red;"">","null","","","","","","","","","",""
"","image-keyboard-response","342","208833","0.0-342.0","3TE3O85731U6AV4O7FRBSCJD9J3R2L","A3IXFZZ3JWTCPW","3WRBLBQ2GRU63BU2LFOJL1G32T90GO","","265.09999999962747","img/land3.png","74","266.39999999990687","1","0","1","1","0.8,0.2,0.2,0.2,0.8,0.2,0.2,0.2,0.8","0.8,0.2,0.2,0.2,0.8,0.2,0.2,0.2,0.8","1","",""
"","html-keyboard-response","343","209135","0.0-343.0","3TE3O85731U6AV4O7FRBSCJD9J3R2L","A3IXFZZ3JWTCPW","3WRBLBQ2GRU63BU2LFOJL1G32T90GO","","null","<img src=""img/land3.png"" style=""width:200px;border:14px solid red;"">","null","","","","","","","","","",""
"","image-keyboard-response","344","210275","0.0-344.0","3TE3O85731U6AV4O7FRBSCJD9J3R2L","A3IXFZZ3JWTCPW","3WRBLBQ2GRU63BU2LFOJL1G32T90GO","","1139","img/land3.png","76","1140.3000000002794","3","1","1","1","0.8,0.2,0.2,0.2,0.8,0.2,0.2,0.2,0.8","0.8,0.2,0.2,0.2,0.8,0.2,0.2,0.2,0.8","1","",""
"","html-keyboard-response","345","210578","0.0-345.0","3TE3O85731U6AV4O7FRBSCJD9J3R2L","A3IXFZZ3JWTCPW","3WRBLBQ2GRU63BU2LFOJL1G32T90GO","","null","<img src=""img/land3.png"" style=""width:200px; border:14px solid green;"">","null","","","","","","","","","",""
"","image-keyboard-response","346","211184","0.0-346.0","3TE3O85731U6AV4O7FRBSCJD9J3R2L","A3IXFZZ3JWTCPW","3WRBLBQ2GRU63BU2LFOJL1G32T90GO","","603.8000000002794","img/land3.png","76","605.3000000002794","3","0","1","1","0.8,0.2,0.2,0.2,0.8,0.2,0.2,0.2,0.8","0.8,0.2,0.2,0.2,0.8,0.2,0.2,0.2,0.8","1","",""
"","html-keyboard-response","347","211486","0.0-347.0","3TE3O85731U6AV4O7FRBSCJD9J3R2L","A3IXFZZ3JWTCPW","3WRBLBQ2GRU63BU2LFOJL1G32T90GO","","null","<img src=""img/land3.png"" style=""width:200px;border:14px solid red;"">","null","","","","","","","","","",""
"","image-keyboard-response","348","212398","0.0-348.0","3TE3O85731U6AV4O7FRBSCJD9J3R2L","A3IXFZZ3JWTCPW","3WRBLBQ2GRU63BU2LFOJL1G32T90GO","","910.3000000002794","img/land1.png","75","911.9000000003725","2","0","3","1","0.8,0.2,0.2,0.2,0.8,0.2,0.2,0.2,0.8","0.8,0.2,0.2,0.2,0.8,0.2,0.2,0.2,0.8","1","",""
"","html-keyboard-response","349","212700","0.0-349.0","3TE3O85731U6AV4O7FRBSCJD9J3R2L","A3IXFZZ3JWTCPW","3WRBLBQ2GRU63BU2LFOJL1G32T90GO","","null","<img src=""img/land1.png"" style=""width:200px;border:14px solid red;"">","null","","","","","","","","","",""
"","image-keyboard-response","350","212802","0.0-350.0","3TE3O85731U6AV4O7FRBSCJD9J3R2L","A3IXFZZ3JWTCPW","3WRBLBQ2GRU63BU2LFOJL1G32T90GO","","100.5","img/land3.png","76","101.79999999981374","3","0","1","1","0.8,0.2,0.2,0.2,0.8,0.2,0.2,0.2,0.8","0.8,0.2,0.2,0.2,0.8,0.2,0.2,0.2,0.8","1","",""
"","html-keyboard-response","351","213104","0.0-351.0","3TE3O85731U6AV4O7FRBSCJD9J3R2L","A3IXFZZ3JWTCPW","3WRBLBQ2GRU63BU2LFOJL1G32T90GO","","null","<img src=""img/land3.png"" style=""width:200px;border:14px solid red;"">","null","","","","","","","","","",""
"","image-keyboard-response","352","213820","0.0-352.0","3TE3O85731U6AV4O7FRBSCJD9J3R2L","A3IXFZZ3JWTCPW","3WRBLBQ2GRU63BU2LFOJL1G32T90GO","","713.6999999997206","img/land1.png","76","715","3","1","3","1","0.8,0.2,0.2,0.2,0.8,0.2,0.2,0.2,0.8","0.8,0.2,0.2,0.2,0.8,0.2,0.2,0.2,0.8","1","",""
"","html-keyboard-response","353","214121","0.0-353.0","3TE3O85731U6AV4O7FRBSCJD9J3R2L","A3IXFZZ3JWTCPW","3WRBLBQ2GRU63BU2LFOJL1G32T90GO","","null","<img src=""img/land1.png"" style=""width:200px; border:14px solid green;"">","null","","","","","","","","","",""
"","image-keyboard-response","354","215212","0.0-354.0","3TE3O85731U6AV4O7FRBSCJD9J3R2L","A3IXFZZ3JWTCPW","3WRBLBQ2GRU63BU2LFOJL1G32T90GO","","1088.7000000001863","img/land1.png","76","1089.8999999999069","3","1","3","1","0.8,0.2,0.2,0.2,0.8,0.2,0.2,0.2,0.8","0.8,0.2,0.2,0.2,0.8,0.2,0.2,0.2,0.8","1","",""
"","html-keyboard-response","355","215514","0.0-355.0","3TE3O85731U6AV4O7FRBSCJD9J3R2L","A3IXFZZ3JWTCPW","3WRBLBQ2GRU63BU2LFOJL1G32T90GO","","null","<img src=""img/land1.png"" style=""width:200px; border:14px solid green;"">","null","","","","","","","","","",""
