"success","trial_type","trial_index","time_elapsed","internal_node_id","assignmentID","mturkID","hitID","view_history","rt","stimulus","key_press","reactionTime","a","r","s","cond","reward_cond","reward_cond_actual","reward_matrix_idx","responses","question_order"
"true","fullscreen","0","2887","0.0-0.0","3JWH6J9I9TZFJACSX135KLH72Q0NB0","A3KH1OG87C8DCM","3P7RGTLO6EZ76AO3386R8ZK9IWWKAW","","","","","","","","","","","","","",""
"","instructions","1","30130","0.0-1.0","3JWH6J9I9TZFJACSX135KLH72Q0NB0","A3KH1OG87C8DCM","3P7RGTLO6EZ76AO3386R8ZK9IWWKAW","[{""page_index"":0,""viewing_time"":4438.099999964237},{""page_index"":1,""viewing_time"":2235},{""page_index"":2,""viewing_time"":3638},{""page_index"":3,""viewing_time"":5232},{""page_index"":4,""viewing_time"":3029.900000035763},{""page_index"":5,""viewing_time"":4185},{""page_index"":6,""viewing_time"":4484.599999964237}]","27242.899999976158","","","","","","","","","","","",""
"","image-keyboard-response","2","30602","0.0-2.0","3JWH6J9I9TZFJACSX135KLH72Q0NB0","A3KH1OG87C8DCM","3P7RGTLO6EZ76AO3386R8ZK9IWWKAW","","470.39999997615814","img/land5.png","74","471.19999998807907","1","0","3","1","0.8,0.2,0.2,0.2,0.8,0.2,0.2,0.2,0.8","0.8,0.2,0.2,0.2,0.8,0.2,0.2,0.2,0.8","1","",""
"","html-keyboard-response","3","30905","0.0-3.0","3JWH6J9I9TZFJACSX135KLH72Q0NB0","A3KH1OG87C8DCM","3P7RGTLO6EZ76AO3386R8ZK9IWWKAW","","null","<img src=""img/land5.png"" style=""width:200px;border:14px solid red;"">","null","","","","","","","","","",""
"","image-keyboard-response","4","31506","0.0-4.0","3JWH6J9I9TZFJACSX135KLH72Q0NB0","A3KH1OG87C8DCM","3P7RGTLO6EZ76AO3386R8ZK9IWWKAW","","600.3000000119209","img/land4.png","75","600.8999999761581","2","0","1","1","0.8,0.2,0.2,0.2,0.8,0.2,0.2,0.2,0.8","0.8,0.2,0.2,0.2,0.8,0.2,0.2,0.2,0.8","1","",""
"","html-keyboard-response","5","31807","0.0-5.0","3JWH6J9I9TZFJACSX135KLH72Q0NB0","A3KH1OG87C8DCM","3P7RGTLO6EZ76AO3386R8ZK9IWWKAW","","null","<img src=""img/land4.png"" style=""width:200px;border:14px solid red;"">","null","","","","","","","","","",""
"","image-keyboard-response","6","32306","0.0-6.0","3JWH6J9I9TZFJACSX135KLH72Q0NB0","A3KH1OG87C8DCM","3P7RGTLO6EZ76AO3386R8ZK9IWWKAW","","497.30000001192093","img/land3.png","75","498","2","0","2","1","0.8,0.2,0.2,0.2,0.8,0.2,0.2,0.2,0.8","0.8,0.2,0.2,0.2,0.8,0.2,0.2,0.2,0.8","1","",""
"","html-keyboard-response","7","32607","0.0-7.0","3JWH6J9I9TZFJACSX135KLH72Q0NB0","A3KH1OG87C8DCM","3P7RGTLO6EZ76AO3386R8ZK9IWWKAW","","null","<img src=""img/land3.png"" style=""width:200px;border:14px solid red;"">","null","","","","","","","","","",""
"","image-keyboard-response","8","33241","0.0-8.0","3JWH6J9I9TZFJACSX135KLH72Q0NB0","A3KH1OG87C8DCM","3P7RGTLO6EZ76AO3386R8ZK9IWWKAW","","633.8000000119209","img/land4.png","74","634.3000000119209","1","1","1","1","0.8,0.2,0.2,0.2,0.8,0.2,0.2,0.2,0.8","0.8,0.2,0.2,0.2,0.8,0.2,0.2,0.2,0.8","1","",""
"","html-keyboard-response","9","33544","0.0-9.0","3JWH6J9I9TZFJACSX135KLH72Q0NB0","A3KH1OG87C8DCM","3P7RGTLO6EZ76AO3386R8ZK9IWWKAW","","null","<img src=""img/land4.png"" style=""width:200px; border:14px solid green;"">","null","","","","","","","","","",""
"","image-keyboard-response","10","34186","0.0-10.0","3JWH6J9I9TZFJACSX135KLH72Q0NB0","A3KH1OG87C8DCM","3P7RGTLO6EZ76AO3386R8ZK9IWWKAW","","641.2000000476837","img/land5.png","74","641.8999999761581","1","1","3","1","0.8,0.2,0.2,0.2,0.8,0.2,0.2,0.2,0.8","0.8,0.2,0.2,0.2,0.8,0.2,0.2,0.2,0.8","1","",""
"","html-keyboard-response","11","34487","0.0-11.0","3JWH6J9I9TZFJACSX135KLH72Q0NB0","A3KH1OG87C8DCM","3P7RGTLO6EZ76AO3386R8ZK9IWWKAW","","null","<img src=""img/land5.png"" style=""width:200px; border:14px solid green;"">","null","","","","","","","","","",""
"","image-keyboard-response","12","35089","0.0-12.0","3JWH6J9I9TZFJACSX135KLH72Q0NB0","A3KH1OG87C8DCM","3P7RGTLO6EZ76AO3386R8ZK9IWWKAW","","601.7000000476837","img/land3.png","74","602.1999999880791","1","0","2","1","0.8,0.2,0.2,0.2,0.8,0.2,0.2,0.2,0.8","0.8,0.2,0.2,0.2,0.8,0.2,0.2,0.2,0.8","1","",""
"","html-keyboard-response","13","35392","0.0-13.0","3JWH6J9I9TZFJACSX135KLH72Q0NB0","A3KH1OG87C8DCM","3P7RGTLO6EZ76AO3386R8ZK9IWWKAW","","null","<img src=""img/land3.png"" style=""width:200px;border:14px solid red;"">","null","","","","","","","","","",""
"","image-keyboard-response","14","35994","0.0-14.0","3JWH6J9I9TZFJACSX135KLH72Q0NB0","A3KH1OG87C8DCM","3P7RGTLO6EZ76AO3386R8ZK9IWWKAW","","601.3000000119209","img/land4.png","74","601.8999999761581","1","1","1","1","0.8,0.2,0.2,0.2,0.8,0.2,0.2,0.2,0.8","0.8,0.2,0.2,0.2,0.8,0.2,0.2,0.2,0.8","1","",""
"","html-keyboard-response","15","36295","0.0-15.0","3JWH6J9I9TZFJACSX135KLH72Q0NB0","A3KH1OG87C8DCM","3P7RGTLO6EZ76AO3386R8ZK9IWWKAW","","null","<img src=""img/land4.png"" style=""width:200px; border:14px solid green;"">","null","","","","","","","","","",""
"","image-keyboard-response","16","36985","0.0-16.0","3JWH6J9I9TZFJACSX135KLH72Q0NB0","A3KH1OG87C8DCM","3P7RGTLO6EZ76AO3386R8ZK9IWWKAW","","689.7000000476837","img/land3.png","74","690.1999999880791","1","0","2","1","0.8,0.2,0.2,0.2,0.8,0.2,0.2,0.2,0.8","0.8,0.2,0.2,0.2,0.8,0.2,0.2,0.2,0.8","1","",""
"","html-keyboard-response","17","37288","0.0-17.0","3JWH6J9I9TZFJACSX135KLH72Q0NB0","A3KH1OG87C8DCM","3P7RGTLO6EZ76AO3386R8ZK9IWWKAW","","null","<img src=""img/land3.png"" style=""width:200px;border:14px solid red;"">","null","","","","","","","","","",""
"","image-keyboard-response","18","38089","0.0-18.0","3JWH6J9I9TZFJACSX135KLH72Q0NB0","A3KH1OG87C8DCM","3P7RGTLO6EZ76AO3386R8ZK9IWWKAW","","801.2000000476837","img/land3.png","76","801.8000000119209","3","0","2","1","0.8,0.2,0.2,0.2,0.8,0.2,0.2,0.2,0.8","0.8,0.2,0.2,0.2,0.8,0.2,0.2,0.2,0.8","1","",""
"","html-keyboard-response","19","38392","0.0-19.0","3JWH6J9I9TZFJACSX135KLH72Q0NB0","A3KH1OG87C8DCM","3P7RGTLO6EZ76AO3386R8ZK9IWWKAW","","null","<img src=""img/land3.png"" style=""width:200px;border:14px solid red;"">","null","","","","","","","","","",""
"","image-keyboard-response","20","39001","0.0-20.0","3JWH6J9I9TZFJACSX135KLH72Q0NB0","A3KH1OG87C8DCM","3P7RGTLO6EZ76AO3386R8ZK9IWWKAW","","609.2000000476837","img/land3.png","74","609.6999999880791","1","0","2","1","0.8,0.2,0.2,0.2,0.8,0.2,0.2,0.2,0.8","0.8,0.2,0.2,0.2,0.8,0.2,0.2,0.2,0.8","1","",""
"","html-keyboard-response","21","39303","0.0-21.0","3JWH6J9I9TZFJACSX135KLH72Q0NB0","A3KH1OG87C8DCM","3P7RGTLO6EZ76AO3386R8ZK9IWWKAW","","null","<img src=""img/land3.png"" style=""width:200px;border:14px solid red;"">","null","","","","","","","","","",""
"","image-keyboard-response","22","40050","0.0-22.0","3JWH6J9I9TZFJACSX135KLH72Q0NB0","A3KH1OG87C8DCM","3P7RGTLO6EZ76AO3386R8ZK9IWWKAW","","745.6000000238419","img/land4.png","74","746.1000000238419","1","1","1","1","0.8,0.2,0.2,0.2,0.8,0.2,0.2,0.2,0.8","0.8,0.2,0.2,0.2,0.8,0.2,0.2,0.2,0.8","1","",""
"","html-keyboard-response","23","40351","0.0-23.0","3JWH6J9I9TZFJACSX135KLH72Q0NB0","A3KH1OG87C8DCM","3P7RGTLO6EZ76AO3386R8ZK9IWWKAW","","null","<img src=""img/land4.png"" style=""width:200px; border:14px solid green;"">","null","","","","","","","","","",""
"","image-keyboard-response","24","40921","0.0-24.0","3JWH6J9I9TZFJACSX135KLH72Q0NB0","A3KH1OG87C8DCM","3P7RGTLO6EZ76AO3386R8ZK9IWWKAW","","569.5","img/land3.png","75","570","2","1","2","1","0.8,0.2,0.2,0.2,0.8,0.2,0.2,0.2,0.8","0.8,0.2,0.2,0.2,0.8,0.2,0.2,0.2,0.8","1","",""
"","html-keyboard-response","25","41223","0.0-25.0","3JWH6J9I9TZFJACSX135KLH72Q0NB0","A3KH1OG87C8DCM","3P7RGTLO6EZ76AO3386R8ZK9IWWKAW","","null","<img src=""img/land3.png"" style=""width:200px; border:14px solid green;"">","null","","","","","","","","","",""
"","image-keyboard-response","26","41930","0.0-26.0","3JWH6J9I9TZFJACSX135KLH72Q0NB0","A3KH1OG87C8DCM","3P7RGTLO6EZ76AO3386R8ZK9IWWKAW","","706","img/land5.png","76","706.5","3","1","3","1","0.8,0.2,0.2,0.2,0.8,0.2,0.2,0.2,0.8","0.8,0.2,0.2,0.2,0.8,0.2,0.2,0.2,0.8","1","",""
"","html-keyboard-response","27","42231","0.0-27.0","3JWH6J9I9TZFJACSX135KLH72Q0NB0","A3KH1OG87C8DCM","3P7RGTLO6EZ76AO3386R8ZK9IWWKAW","","null","<img src=""img/land5.png"" style=""width:200px; border:14px solid green;"">","null","","","","","","","","","",""
"","image-keyboard-response","28","42697","0.0-28.0","3JWH6J9I9TZFJACSX135KLH72Q0NB0","A3KH1OG87C8DCM","3P7RGTLO6EZ76AO3386R8ZK9IWWKAW","","465.5","img/land5.png","76","466","3","1","3","1","0.8,0.2,0.2,0.2,0.8,0.2,0.2,0.2,0.8","0.8,0.2,0.2,0.2,0.8,0.2,0.2,0.2,0.8","1","",""
"","html-keyboard-response","29","42999","0.0-29.0","3JWH6J9I9TZFJACSX135KLH72Q0NB0","A3KH1OG87C8DCM","3P7RGTLO6EZ76AO3386R8ZK9IWWKAW","","null","<img src=""img/land5.png"" style=""width:200px; border:14px solid green;"">","null","","","","","","","","","",""
"","image-keyboard-response","30","43529","0.0-30.0","3JWH6J9I9TZFJACSX135KLH72Q0NB0","A3KH1OG87C8DCM","3P7RGTLO6EZ76AO3386R8ZK9IWWKAW","","529.6000000238419","img/land3.png","75","530.1000000238419","2","0","2","1","0.8,0.2,0.2,0.2,0.8,0.2,0.2,0.2,0.8","0.8,0.2,0.2,0.2,0.8,0.2,0.2,0.2,0.8","1","",""
"","html-keyboard-response","31","43841","0.0-31.0","3JWH6J9I9TZFJACSX135KLH72Q0NB0","A3KH1OG87C8DCM","3P7RGTLO6EZ76AO3386R8ZK9IWWKAW","","null","<img src=""img/land3.png"" style=""width:200px;border:14px solid red;"">","null","","","","","","","","","",""
"","image-keyboard-response","32","44522","0.0-32.0","3JWH6J9I9TZFJACSX135KLH72Q0NB0","A3KH1OG87C8DCM","3P7RGTLO6EZ76AO3386R8ZK9IWWKAW","","679.8999999761581","img/land5.png","76","680.3999999761581","3","0","3","1","0.8,0.2,0.2,0.2,0.8,0.2,0.2,0.2,0.8","0.8,0.2,0.2,0.2,0.8,0.2,0.2,0.2,0.8","1","",""
"","html-keyboard-response","33","44823","0.0-33.0","3JWH6J9I9TZFJACSX135KLH72Q0NB0","A3KH1OG87C8DCM","3P7RGTLO6EZ76AO3386R8ZK9IWWKAW","","null","<img src=""img/land5.png"" style=""width:200px;border:14px solid red;"">","null","","","","","","","","","",""
"","image-keyboard-response","34","45369","0.0-34.0","3JWH6J9I9TZFJACSX135KLH72Q0NB0","A3KH1OG87C8DCM","3P7RGTLO6EZ76AO3386R8ZK9IWWKAW","","545.4000000357628","img/land5.png","76","545.9000000357628","3","1","3","1","0.8,0.2,0.2,0.2,0.8,0.2,0.2,0.2,0.8","0.8,0.2,0.2,0.2,0.8,0.2,0.2,0.2,0.8","1","",""
"","html-keyboard-response","35","45671","0.0-35.0","3JWH6J9I9TZFJACSX135KLH72Q0NB0","A3KH1OG87C8DCM","3P7RGTLO6EZ76AO3386R8ZK9IWWKAW","","null","<img src=""img/land5.png"" style=""width:200px; border:14px solid green;"">","null","","","","","","","","","",""
"","image-keyboard-response","36","46361","0.0-36.0","3JWH6J9I9TZFJACSX135KLH72Q0NB0","A3KH1OG87C8DCM","3P7RGTLO6EZ76AO3386R8ZK9IWWKAW","","689.7000000476837","img/land4.png","74","690.0999999642372","1","0","1","1","0.8,0.2,0.2,0.2,0.8,0.2,0.2,0.2,0.8","0.8,0.2,0.2,0.2,0.8,0.2,0.2,0.2,0.8","1","",""
"","html-keyboard-response","37","46664","0.0-37.0","3JWH6J9I9TZFJACSX135KLH72Q0NB0","A3KH1OG87C8DCM","3P7RGTLO6EZ76AO3386R8ZK9IWWKAW","","null","<img src=""img/land4.png"" style=""width:200px;border:14px solid red;"">","null","","","","","","","","","",""
"","image-keyboard-response","38","47289","0.0-38.0","3JWH6J9I9TZFJACSX135KLH72Q0NB0","A3KH1OG87C8DCM","3P7RGTLO6EZ76AO3386R8ZK9IWWKAW","","625.3999999761581","img/land3.png","75","625.8000000119209","2","0","2","1","0.8,0.2,0.2,0.2,0.8,0.2,0.2,0.2,0.8","0.8,0.2,0.2,0.2,0.8,0.2,0.2,0.2,0.8","1","",""
"","html-keyboard-response","39","47591","0.0-39.0","3JWH6J9I9TZFJACSX135KLH72Q0NB0","A3KH1OG87C8DCM","3P7RGTLO6EZ76AO3386R8ZK9IWWKAW","","null","<img src=""img/land3.png"" style=""width:200px;border:14px solid red;"">","null","","","","","","","","","",""
"","image-keyboard-response","40","48313","0.0-40.0","3JWH6J9I9TZFJACSX135KLH72Q0NB0","A3KH1OG87C8DCM","3P7RGTLO6EZ76AO3386R8ZK9IWWKAW","","721.9000000357628","img/land3.png","75","722.3000000119209","2","0","2","1","0.8,0.2,0.2,0.2,0.8,0.2,0.2,0.2,0.8","0.8,0.2,0.2,0.2,0.8,0.2,0.2,0.2,0.8","1","",""
"","html-keyboard-response","41","48615","0.0-41.0","3JWH6J9I9TZFJACSX135KLH72Q0NB0","A3KH1OG87C8DCM","3P7RGTLO6EZ76AO3386R8ZK9IWWKAW","","null","<img src=""img/land3.png"" style=""width:200px;border:14px solid red;"">","null","","","","","","","","","",""
"","image-keyboard-response","42","48953","0.0-42.0","3JWH6J9I9TZFJACSX135KLH72Q0NB0","A3KH1OG87C8DCM","3P7RGTLO6EZ76AO3386R8ZK9IWWKAW","","337.5","img/land3.png","76","338.10000002384186","3","0","2","1","0.8,0.2,0.2,0.2,0.8,0.2,0.2,0.2,0.8","0.8,0.2,0.2,0.2,0.8,0.2,0.2,0.2,0.8","1","",""
"","html-keyboard-response","43","49256","0.0-43.0","3JWH6J9I9TZFJACSX135KLH72Q0NB0","A3KH1OG87C8DCM","3P7RGTLO6EZ76AO3386R8ZK9IWWKAW","","null","<img src=""img/land3.png"" style=""width:200px;border:14px solid red;"">","null","","","","","","","","","",""
"","image-keyboard-response","44","50034","0.0-44.0","3JWH6J9I9TZFJACSX135KLH72Q0NB0","A3KH1OG87C8DCM","3P7RGTLO6EZ76AO3386R8ZK9IWWKAW","","777.3000000119209","img/land5.png","76","777.8999999761581","3","1","3","1","0.8,0.2,0.2,0.2,0.8,0.2,0.2,0.2,0.8","0.8,0.2,0.2,0.2,0.8,0.2,0.2,0.2,0.8","1","",""
"","html-keyboard-response","45","50336","0.0-45.0","3JWH6J9I9TZFJACSX135KLH72Q0NB0","A3KH1OG87C8DCM","3P7RGTLO6EZ76AO3386R8ZK9IWWKAW","","null","<img src=""img/land5.png"" style=""width:200px; border:14px solid green;"">","null","","","","","","","","","",""
"","image-keyboard-response","46","51025","0.0-46.0","3JWH6J9I9TZFJACSX135KLH72Q0NB0","A3KH1OG87C8DCM","3P7RGTLO6EZ76AO3386R8ZK9IWWKAW","","689.1000000238419","img/land3.png","74","689.5999999642372","1","1","2","1","0.8,0.2,0.2,0.2,0.8,0.2,0.2,0.2,0.8","0.8,0.2,0.2,0.2,0.8,0.2,0.2,0.2,0.8","1","",""
"","html-keyboard-response","47","51327","0.0-47.0","3JWH6J9I9TZFJACSX135KLH72Q0NB0","A3KH1OG87C8DCM","3P7RGTLO6EZ76AO3386R8ZK9IWWKAW","","null","<img src=""img/land3.png"" style=""width:200px; border:14px solid green;"">","null","","","","","","","","","",""
"","image-keyboard-response","48","52042","0.0-48.0","3JWH6J9I9TZFJACSX135KLH72Q0NB0","A3KH1OG87C8DCM","3P7RGTLO6EZ76AO3386R8ZK9IWWKAW","","714","img/land5.png","76","714.5","3","1","3","1","0.8,0.2,0.2,0.2,0.8,0.2,0.2,0.2,0.8","0.8,0.2,0.2,0.2,0.8,0.2,0.2,0.2,0.8","1","",""
"","html-keyboard-response","49","52346","0.0-49.0","3JWH6J9I9TZFJACSX135KLH72Q0NB0","A3KH1OG87C8DCM","3P7RGTLO6EZ76AO3386R8ZK9IWWKAW","","null","<img src=""img/land5.png"" style=""width:200px; border:14px solid green;"">","null","","","","","","","","","",""
"","image-keyboard-response","50","52794","0.0-50.0","3JWH6J9I9TZFJACSX135KLH72Q0NB0","A3KH1OG87C8DCM","3P7RGTLO6EZ76AO3386R8ZK9IWWKAW","","446.80000001192093","img/land5.png","76","447.0999999642372","3","1","3","1","0.8,0.2,0.2,0.2,0.8,0.2,0.2,0.2,0.8","0.8,0.2,0.2,0.2,0.8,0.2,0.2,0.2,0.8","1","",""
"","html-keyboard-response","51","53095","0.0-51.0","3JWH6J9I9TZFJACSX135KLH72Q0NB0","A3KH1OG87C8DCM","3P7RGTLO6EZ76AO3386R8ZK9IWWKAW","","null","<img src=""img/land5.png"" style=""width:200px; border:14px solid green;"">","null","","","","","","","","","",""
"","image-keyboard-response","52","53473","0.0-52.0","3JWH6J9I9TZFJACSX135KLH72Q0NB0","A3KH1OG87C8DCM","3P7RGTLO6EZ76AO3386R8ZK9IWWKAW","","377.69999998807907","img/land5.png","76","378.10000002384186","3","1","3","1","0.8,0.2,0.2,0.2,0.8,0.2,0.2,0.2,0.8","0.8,0.2,0.2,0.2,0.8,0.2,0.2,0.2,0.8","1","",""
"","html-keyboard-response","53","53775","0.0-53.0","3JWH6J9I9TZFJACSX135KLH72Q0NB0","A3KH1OG87C8DCM","3P7RGTLO6EZ76AO3386R8ZK9IWWKAW","","null","<img src=""img/land5.png"" style=""width:200px; border:14px solid green;"">","null","","","","","","","","","",""
"","image-keyboard-response","54","54297","0.0-54.0","3JWH6J9I9TZFJACSX135KLH72Q0NB0","A3KH1OG87C8DCM","3P7RGTLO6EZ76AO3386R8ZK9IWWKAW","","521.3000000119209","img/land3.png","74","521.9000000357628","1","0","2","1","0.8,0.2,0.2,0.2,0.8,0.2,0.2,0.2,0.8","0.8,0.2,0.2,0.2,0.8,0.2,0.2,0.2,0.8","1","",""
"","html-keyboard-response","55","54599","0.0-55.0","3JWH6J9I9TZFJACSX135KLH72Q0NB0","A3KH1OG87C8DCM","3P7RGTLO6EZ76AO3386R8ZK9IWWKAW","","null","<img src=""img/land3.png"" style=""width:200px;border:14px solid red;"">","null","","","","","","","","","",""
"","image-keyboard-response","56","55441","0.0-56.0","3JWH6J9I9TZFJACSX135KLH72Q0NB0","A3KH1OG87C8DCM","3P7RGTLO6EZ76AO3386R8ZK9IWWKAW","","841.4000000357628","img/land4.png","75","842.0999999642372","2","0","1","1","0.8,0.2,0.2,0.2,0.8,0.2,0.2,0.2,0.8","0.8,0.2,0.2,0.2,0.8,0.2,0.2,0.2,0.8","1","",""
"","html-keyboard-response","57","55743","0.0-57.0","3JWH6J9I9TZFJACSX135KLH72Q0NB0","A3KH1OG87C8DCM","3P7RGTLO6EZ76AO3386R8ZK9IWWKAW","","null","<img src=""img/land4.png"" style=""width:200px;border:14px solid red;"">","null","","","","","","","","","",""
"","image-keyboard-response","58","56281","0.0-58.0","3JWH6J9I9TZFJACSX135KLH72Q0NB0","A3KH1OG87C8DCM","3P7RGTLO6EZ76AO3386R8ZK9IWWKAW","","537.6000000238419","img/land5.png","76","538.1999999880791","3","1","3","1","0.8,0.2,0.2,0.2,0.8,0.2,0.2,0.2,0.8","0.8,0.2,0.2,0.2,0.8,0.2,0.2,0.2,0.8","1","",""
"","html-keyboard-response","59","56583","0.0-59.0","3JWH6J9I9TZFJACSX135KLH72Q0NB0","A3KH1OG87C8DCM","3P7RGTLO6EZ76AO3386R8ZK9IWWKAW","","null","<img src=""img/land5.png"" style=""width:200px; border:14px solid green;"">","null","","","","","","","","","",""
"","image-keyboard-response","60","57345","0.0-60.0","3JWH6J9I9TZFJACSX135KLH72Q0NB0","A3KH1OG87C8DCM","3P7RGTLO6EZ76AO3386R8ZK9IWWKAW","","761.9000000357628","img/land4.png","76","762.4000000357628","3","0","1","1","0.8,0.2,0.2,0.2,0.8,0.2,0.2,0.2,0.8","0.8,0.2,0.2,0.2,0.8,0.2,0.2,0.2,0.8","1","",""
"","html-keyboard-response","61","57647","0.0-61.0","3JWH6J9I9TZFJACSX135KLH72Q0NB0","A3KH1OG87C8DCM","3P7RGTLO6EZ76AO3386R8ZK9IWWKAW","","null","<img src=""img/land4.png"" style=""width:200px;border:14px solid red;"">","null","","","","","","","","","",""
"","image-keyboard-response","62","58121","0.0-62.0","3JWH6J9I9TZFJACSX135KLH72Q0NB0","A3KH1OG87C8DCM","3P7RGTLO6EZ76AO3386R8ZK9IWWKAW","","473.7000000476837","img/land4.png","76","474.39999997615814","3","0","1","1","0.8,0.2,0.2,0.2,0.8,0.2,0.2,0.2,0.8","0.8,0.2,0.2,0.2,0.8,0.2,0.2,0.2,0.8","1","",""
"","html-keyboard-response","63","58423","0.0-63.0","3JWH6J9I9TZFJACSX135KLH72Q0NB0","A3KH1OG87C8DCM","3P7RGTLO6EZ76AO3386R8ZK9IWWKAW","","null","<img src=""img/land4.png"" style=""width:200px;border:14px solid red;"">","null","","","","","","","","","",""
"","image-keyboard-response","64","58889","0.0-64.0","3JWH6J9I9TZFJACSX135KLH72Q0NB0","A3KH1OG87C8DCM","3P7RGTLO6EZ76AO3386R8ZK9IWWKAW","","465.80000001192093","img/land4.png","74","466.30000001192093","1","1","1","1","0.8,0.2,0.2,0.2,0.8,0.2,0.2,0.2,0.8","0.8,0.2,0.2,0.2,0.8,0.2,0.2,0.2,0.8","1","",""
"","html-keyboard-response","65","59204","0.0-65.0","3JWH6J9I9TZFJACSX135KLH72Q0NB0","A3KH1OG87C8DCM","3P7RGTLO6EZ76AO3386R8ZK9IWWKAW","","null","<img src=""img/land4.png"" style=""width:200px; border:14px solid green;"">","null","","","","","","","","","",""
"","image-keyboard-response","66","59690","0.0-66.0","3JWH6J9I9TZFJACSX135KLH72Q0NB0","A3KH1OG87C8DCM","3P7RGTLO6EZ76AO3386R8ZK9IWWKAW","","485","img/land4.png","74","485.4000000357628","1","1","1","1","0.8,0.2,0.2,0.2,0.8,0.2,0.2,0.2,0.8","0.8,0.2,0.2,0.2,0.8,0.2,0.2,0.2,0.8","1","",""
"","html-keyboard-response","67","59992","0.0-67.0","3JWH6J9I9TZFJACSX135KLH72Q0NB0","A3KH1OG87C8DCM","3P7RGTLO6EZ76AO3386R8ZK9IWWKAW","","null","<img src=""img/land4.png"" style=""width:200px; border:14px solid green;"">","null","","","","","","","","","",""
"","image-keyboard-response","68","60706","0.0-68.0","3JWH6J9I9TZFJACSX135KLH72Q0NB0","A3KH1OG87C8DCM","3P7RGTLO6EZ76AO3386R8ZK9IWWKAW","","713","img/land3.png","74","713.4000000357628","1","1","2","1","0.8,0.2,0.2,0.2,0.8,0.2,0.2,0.2,0.8","0.8,0.2,0.2,0.2,0.8,0.2,0.2,0.2,0.8","1","",""
"","html-keyboard-response","69","61008","0.0-69.0","3JWH6J9I9TZFJACSX135KLH72Q0NB0","A3KH1OG87C8DCM","3P7RGTLO6EZ76AO3386R8ZK9IWWKAW","","null","<img src=""img/land3.png"" style=""width:200px; border:14px solid green;"">","null","","","","","","","","","",""
"","image-keyboard-response","70","61546","0.0-70.0","3JWH6J9I9TZFJACSX135KLH72Q0NB0","A3KH1OG87C8DCM","3P7RGTLO6EZ76AO3386R8ZK9IWWKAW","","537.7000000476837","img/land5.png","76","538.3000000119209","3","1","3","1","0.8,0.2,0.2,0.2,0.8,0.2,0.2,0.2,0.8","0.8,0.2,0.2,0.2,0.8,0.2,0.2,0.2,0.8","1","",""
"","html-keyboard-response","71","61847","0.0-71.0","3JWH6J9I9TZFJACSX135KLH72Q0NB0","A3KH1OG87C8DCM","3P7RGTLO6EZ76AO3386R8ZK9IWWKAW","","null","<img src=""img/land5.png"" style=""width:200px; border:14px solid green;"">","null","","","","","","","","","",""
"","image-keyboard-response","72","62226","0.0-72.0","3JWH6J9I9TZFJACSX135KLH72Q0NB0","A3KH1OG87C8DCM","3P7RGTLO6EZ76AO3386R8ZK9IWWKAW","","378.0999999642372","img/land3.png","74","378.7000000476837","1","1","2","1","0.8,0.2,0.2,0.2,0.8,0.2,0.2,0.2,0.8","0.8,0.2,0.2,0.2,0.8,0.2,0.2,0.2,0.8","1","",""
"","html-keyboard-response","73","62529","0.0-73.0","3JWH6J9I9TZFJACSX135KLH72Q0NB0","A3KH1OG87C8DCM","3P7RGTLO6EZ76AO3386R8ZK9IWWKAW","","null","<img src=""img/land3.png"" style=""width:200px; border:14px solid green;"">","null","","","","","","","","","",""
"","image-keyboard-response","74","62914","0.0-74.0","3JWH6J9I9TZFJACSX135KLH72Q0NB0","A3KH1OG87C8DCM","3P7RGTLO6EZ76AO3386R8ZK9IWWKAW","","384.80000001192093","img/land4.png","76","385.39999997615814","3","0","1","1","0.8,0.2,0.2,0.2,0.8,0.2,0.2,0.2,0.8","0.8,0.2,0.2,0.2,0.8,0.2,0.2,0.2,0.8","1","",""
"","html-keyboard-response","75","63216","0.0-75.0","3JWH6J9I9TZFJACSX135KLH72Q0NB0","A3KH1OG87C8DCM","3P7RGTLO6EZ76AO3386R8ZK9IWWKAW","","null","<img src=""img/land4.png"" style=""width:200px;border:14px solid red;"">","null","","","","","","","","","",""
"","image-keyboard-response","76","63810","0.0-76.0","3JWH6J9I9TZFJACSX135KLH72Q0NB0","A3KH1OG87C8DCM","3P7RGTLO6EZ76AO3386R8ZK9IWWKAW","","593.6999999880791","img/land4.png","74","594.1000000238419","1","0","1","1","0.8,0.2,0.2,0.2,0.8,0.2,0.2,0.2,0.8","0.8,0.2,0.2,0.2,0.8,0.2,0.2,0.2,0.8","1","",""
"","html-keyboard-response","77","64112","0.0-77.0","3JWH6J9I9TZFJACSX135KLH72Q0NB0","A3KH1OG87C8DCM","3P7RGTLO6EZ76AO3386R8ZK9IWWKAW","","null","<img src=""img/land4.png"" style=""width:200px;border:14px solid red;"">","null","","","","","","","","","",""
"","image-keyboard-response","78","64594","0.0-78.0","3JWH6J9I9TZFJACSX135KLH72Q0NB0","A3KH1OG87C8DCM","3P7RGTLO6EZ76AO3386R8ZK9IWWKAW","","481","img/land4.png","74","481.5","1","1","1","1","0.8,0.2,0.2,0.2,0.8,0.2,0.2,0.2,0.8","0.8,0.2,0.2,0.2,0.8,0.2,0.2,0.2,0.8","1","",""
"","html-keyboard-response","79","64896","0.0-79.0","3JWH6J9I9TZFJACSX135KLH72Q0NB0","A3KH1OG87C8DCM","3P7RGTLO6EZ76AO3386R8ZK9IWWKAW","","null","<img src=""img/land4.png"" style=""width:200px; border:14px solid green;"">","null","","","","","","","","","",""
"","image-keyboard-response","80","65314","0.0-80.0","3JWH6J9I9TZFJACSX135KLH72Q0NB0","A3KH1OG87C8DCM","3P7RGTLO6EZ76AO3386R8ZK9IWWKAW","","417.2000000476837","img/land4.png","74","417.60000002384186","1","0","1","1","0.8,0.2,0.2,0.2,0.8,0.2,0.2,0.2,0.8","0.8,0.2,0.2,0.2,0.8,0.2,0.2,0.2,0.8","1","",""
"","html-keyboard-response","81","65616","0.0-81.0","3JWH6J9I9TZFJACSX135KLH72Q0NB0","A3KH1OG87C8DCM","3P7RGTLO6EZ76AO3386R8ZK9IWWKAW","","null","<img src=""img/land4.png"" style=""width:200px;border:14px solid red;"">","null","","","","","","","","","",""
"","image-keyboard-response","82","66338","0.0-82.0","3JWH6J9I9TZFJACSX135KLH72Q0NB0","A3KH1OG87C8DCM","3P7RGTLO6EZ76AO3386R8ZK9IWWKAW","","720.9000000357628","img/land3.png","74","721.5","1","1","2","1","0.8,0.2,0.2,0.2,0.8,0.2,0.2,0.2,0.8","0.8,0.2,0.2,0.2,0.8,0.2,0.2,0.2,0.8","1","",""
"","html-keyboard-response","83","66640","0.0-83.0","3JWH6J9I9TZFJACSX135KLH72Q0NB0","A3KH1OG87C8DCM","3P7RGTLO6EZ76AO3386R8ZK9IWWKAW","","null","<img src=""img/land3.png"" style=""width:200px; border:14px solid green;"">","null","","","","","","","","","",""
"","image-keyboard-response","84","67114","0.0-84.0","3JWH6J9I9TZFJACSX135KLH72Q0NB0","A3KH1OG87C8DCM","3P7RGTLO6EZ76AO3386R8ZK9IWWKAW","","473.80000001192093","img/land4.png","74","474.30000001192093","1","1","1","1","0.8,0.2,0.2,0.2,0.8,0.2,0.2,0.2,0.8","0.8,0.2,0.2,0.2,0.8,0.2,0.2,0.2,0.8","1","",""
"","html-keyboard-response","85","67416","0.0-85.0","3JWH6J9I9TZFJACSX135KLH72Q0NB0","A3KH1OG87C8DCM","3P7RGTLO6EZ76AO3386R8ZK9IWWKAW","","null","<img src=""img/land4.png"" style=""width:200px; border:14px solid green;"">","null","","","","","","","","","",""
"","image-keyboard-response","86","67794","0.0-86.0","3JWH6J9I9TZFJACSX135KLH72Q0NB0","A3KH1OG87C8DCM","3P7RGTLO6EZ76AO3386R8ZK9IWWKAW","","377.9000000357628","img/land4.png","74","378.30000001192093","1","1","1","1","0.8,0.2,0.2,0.2,0.8,0.2,0.2,0.2,0.8","0.8,0.2,0.2,0.2,0.8,0.2,0.2,0.2,0.8","1","",""
"","html-keyboard-response","87","68096","0.0-87.0","3JWH6J9I9TZFJACSX135KLH72Q0NB0","A3KH1OG87C8DCM","3P7RGTLO6EZ76AO3386R8ZK9IWWKAW","","null","<img src=""img/land4.png"" style=""width:200px; border:14px solid green;"">","null","","","","","","","","","",""
"","image-keyboard-response","88","68578","0.0-88.0","3JWH6J9I9TZFJACSX135KLH72Q0NB0","A3KH1OG87C8DCM","3P7RGTLO6EZ76AO3386R8ZK9IWWKAW","","481.60000002384186","img/land3.png","74","482.19999998807907","1","0","2","1","0.8,0.2,0.2,0.2,0.8,0.2,0.2,0.2,0.8","0.8,0.2,0.2,0.2,0.8,0.2,0.2,0.2,0.8","1","",""
"","html-keyboard-response","89","68880","0.0-89.0","3JWH6J9I9TZFJACSX135KLH72Q0NB0","A3KH1OG87C8DCM","3P7RGTLO6EZ76AO3386R8ZK9IWWKAW","","null","<img src=""img/land3.png"" style=""width:200px;border:14px solid red;"">","null","","","","","","","","","",""
"","image-keyboard-response","90","69314","0.0-90.0","3JWH6J9I9TZFJACSX135KLH72Q0NB0","A3KH1OG87C8DCM","3P7RGTLO6EZ76AO3386R8ZK9IWWKAW","","433.80000001192093","img/land4.png","74","434.19999998807907","1","1","1","1","0.8,0.2,0.2,0.2,0.8,0.2,0.2,0.2,0.8","0.8,0.2,0.2,0.2,0.8,0.2,0.2,0.2,0.8","1","",""
"","html-keyboard-response","91","69616","0.0-91.0","3JWH6J9I9TZFJACSX135KLH72Q0NB0","A3KH1OG87C8DCM","3P7RGTLO6EZ76AO3386R8ZK9IWWKAW","","null","<img src=""img/land4.png"" style=""width:200px; border:14px solid green;"">","null","","","","","","","","","",""
"","image-keyboard-response","92","70186","0.0-92.0","3JWH6J9I9TZFJACSX135KLH72Q0NB0","A3KH1OG87C8DCM","3P7RGTLO6EZ76AO3386R8ZK9IWWKAW","","569.7000000476837","img/land5.png","76","570.1999999880791","3","1","3","1","0.8,0.2,0.2,0.2,0.8,0.2,0.2,0.2,0.8","0.8,0.2,0.2,0.2,0.8,0.2,0.2,0.2,0.8","1","",""
"","html-keyboard-response","93","70488","0.0-93.0","3JWH6J9I9TZFJACSX135KLH72Q0NB0","A3KH1OG87C8DCM","3P7RGTLO6EZ76AO3386R8ZK9IWWKAW","","null","<img src=""img/land5.png"" style=""width:200px; border:14px solid green;"">","null","","","","","","","","","",""
"","image-keyboard-response","94","70891","0.0-94.0","3JWH6J9I9TZFJACSX135KLH72Q0NB0","A3KH1OG87C8DCM","3P7RGTLO6EZ76AO3386R8ZK9IWWKAW","","401.69999998807907","img/land3.png","74","402.30000001192093","1","0","2","1","0.8,0.2,0.2,0.2,0.8,0.2,0.2,0.2,0.8","0.8,0.2,0.2,0.2,0.8,0.2,0.2,0.2,0.8","1","",""
"","html-keyboard-response","95","71192","0.0-95.0","3JWH6J9I9TZFJACSX135KLH72Q0NB0","A3KH1OG87C8DCM","3P7RGTLO6EZ76AO3386R8ZK9IWWKAW","","null","<img src=""img/land3.png"" style=""width:200px;border:14px solid red;"">","null","","","","","","","","","",""
"","image-keyboard-response","96","71642","0.0-96.0","3JWH6J9I9TZFJACSX135KLH72Q0NB0","A3KH1OG87C8DCM","3P7RGTLO6EZ76AO3386R8ZK9IWWKAW","","449","img/land5.png","74","449.5","1","0","3","1","0.8,0.2,0.2,0.2,0.8,0.2,0.2,0.2,0.8","0.8,0.2,0.2,0.2,0.8,0.2,0.2,0.2,0.8","1","",""
"","html-keyboard-response","97","71943","0.0-97.0","3JWH6J9I9TZFJACSX135KLH72Q0NB0","A3KH1OG87C8DCM","3P7RGTLO6EZ76AO3386R8ZK9IWWKAW","","null","<img src=""img/land5.png"" style=""width:200px;border:14px solid red;"">","null","","","","","","","","","",""
"","image-keyboard-response","98","72533","0.0-98.0","3JWH6J9I9TZFJACSX135KLH72Q0NB0","A3KH1OG87C8DCM","3P7RGTLO6EZ76AO3386R8ZK9IWWKAW","","589.1999999880791","img/land5.png","76","589.8000000119209","3","1","3","1","0.8,0.2,0.2,0.2,0.8,0.2,0.2,0.2,0.8","0.8,0.2,0.2,0.2,0.8,0.2,0.2,0.2,0.8","1","",""
"","html-keyboard-response","99","72848","0.0-99.0","3JWH6J9I9TZFJACSX135KLH72Q0NB0","A3KH1OG87C8DCM","3P7RGTLO6EZ76AO3386R8ZK9IWWKAW","","null","<img src=""img/land5.png"" style=""width:200px; border:14px solid green;"">","null","","","","","","","","","",""
"","image-keyboard-response","100","73346","0.0-100.0","3JWH6J9I9TZFJACSX135KLH72Q0NB0","A3KH1OG87C8DCM","3P7RGTLO6EZ76AO3386R8ZK9IWWKAW","","497.4000000357628","img/land3.png","74","497.9000000357628","1","0","2","1","0.8,0.2,0.2,0.2,0.8,0.2,0.2,0.2,0.8","0.8,0.2,0.2,0.2,0.8,0.2,0.2,0.2,0.8","1","",""
"","html-keyboard-response","101","73648","0.0-101.0","3JWH6J9I9TZFJACSX135KLH72Q0NB0","A3KH1OG87C8DCM","3P7RGTLO6EZ76AO3386R8ZK9IWWKAW","","null","<img src=""img/land3.png"" style=""width:200px;border:14px solid red;"">","null","","","","","","","","","",""
"","image-keyboard-response","102","74298","0.0-102.0","3JWH6J9I9TZFJACSX135KLH72Q0NB0","A3KH1OG87C8DCM","3P7RGTLO6EZ76AO3386R8ZK9IWWKAW","","649.5","img/land4.png","74","650","1","1","1","1","0.8,0.2,0.2,0.2,0.8,0.2,0.2,0.2,0.8","0.8,0.2,0.2,0.2,0.8,0.2,0.2,0.2,0.8","1","",""
"","html-keyboard-response","103","74600","0.0-103.0","3JWH6J9I9TZFJACSX135KLH72Q0NB0","A3KH1OG87C8DCM","3P7RGTLO6EZ76AO3386R8ZK9IWWKAW","","null","<img src=""img/land4.png"" style=""width:200px; border:14px solid green;"">","null","","","","","","","","","",""
"","image-keyboard-response","104","75114","0.0-104.0","3JWH6J9I9TZFJACSX135KLH72Q0NB0","A3KH1OG87C8DCM","3P7RGTLO6EZ76AO3386R8ZK9IWWKAW","","513.1000000238419","img/land4.png","74","513.6000000238419","1","1","1","1","0.8,0.2,0.2,0.2,0.8,0.2,0.2,0.2,0.8","0.8,0.2,0.2,0.2,0.8,0.2,0.2,0.2,0.8","1","",""
"","html-keyboard-response","105","75416","0.0-105.0","3JWH6J9I9TZFJACSX135KLH72Q0NB0","A3KH1OG87C8DCM","3P7RGTLO6EZ76AO3386R8ZK9IWWKAW","","null","<img src=""img/land4.png"" style=""width:200px; border:14px solid green;"">","null","","","","","","","","","",""
"","image-keyboard-response","106","75754","0.0-106.0","3JWH6J9I9TZFJACSX135KLH72Q0NB0","A3KH1OG87C8DCM","3P7RGTLO6EZ76AO3386R8ZK9IWWKAW","","337.30000001192093","img/land4.png","74","337.7999999523163","1","0","1","1","0.8,0.2,0.2,0.2,0.8,0.2,0.2,0.2,0.8","0.8,0.2,0.2,0.2,0.8,0.2,0.2,0.2,0.8","1","",""
"","html-keyboard-response","107","76056","0.0-107.0","3JWH6J9I9TZFJACSX135KLH72Q0NB0","A3KH1OG87C8DCM","3P7RGTLO6EZ76AO3386R8ZK9IWWKAW","","null","<img src=""img/land4.png"" style=""width:200px;border:14px solid red;"">","null","","","","","","","","","",""
"","image-keyboard-response","108","76610","0.0-108.0","3JWH6J9I9TZFJACSX135KLH72Q0NB0","A3KH1OG87C8DCM","3P7RGTLO6EZ76AO3386R8ZK9IWWKAW","","552.9000000357628","img/land4.png","74","553.4000000357628","1","0","1","1","0.8,0.2,0.2,0.2,0.8,0.2,0.2,0.2,0.8","0.8,0.2,0.2,0.2,0.8,0.2,0.2,0.2,0.8","1","",""
"","html-keyboard-response","109","76912","0.0-109.0","3JWH6J9I9TZFJACSX135KLH72Q0NB0","A3KH1OG87C8DCM","3P7RGTLO6EZ76AO3386R8ZK9IWWKAW","","null","<img src=""img/land4.png"" style=""width:200px;border:14px solid red;"">","null","","","","","","","","","",""
"","image-keyboard-response","110","77650","0.0-110.0","3JWH6J9I9TZFJACSX135KLH72Q0NB0","A3KH1OG87C8DCM","3P7RGTLO6EZ76AO3386R8ZK9IWWKAW","","737.2000000476837","img/land5.png","76","737.6999999880791","3","1","3","1","0.8,0.2,0.2,0.2,0.8,0.2,0.2,0.2,0.8","0.8,0.2,0.2,0.2,0.8,0.2,0.2,0.2,0.8","1","",""
"","html-keyboard-response","111","77952","0.0-111.0","3JWH6J9I9TZFJACSX135KLH72Q0NB0","A3KH1OG87C8DCM","3P7RGTLO6EZ76AO3386R8ZK9IWWKAW","","null","<img src=""img/land5.png"" style=""width:200px; border:14px solid green;"">","null","","","","","","","","","",""
"","image-keyboard-response","112","78378","0.0-112.0","3JWH6J9I9TZFJACSX135KLH72Q0NB0","A3KH1OG87C8DCM","3P7RGTLO6EZ76AO3386R8ZK9IWWKAW","","425.10000002384186","img/land3.png","75","425.5","2","0","2","1","0.8,0.2,0.2,0.2,0.8,0.2,0.2,0.2,0.8","0.8,0.2,0.2,0.2,0.8,0.2,0.2,0.2,0.8","1","",""
"","html-keyboard-response","113","78680","0.0-113.0","3JWH6J9I9TZFJACSX135KLH72Q0NB0","A3KH1OG87C8DCM","3P7RGTLO6EZ76AO3386R8ZK9IWWKAW","","null","<img src=""img/land3.png"" style=""width:200px;border:14px solid red;"">","null","","","","","","","","","",""
"","image-keyboard-response","114","79218","0.0-114.0","3JWH6J9I9TZFJACSX135KLH72Q0NB0","A3KH1OG87C8DCM","3P7RGTLO6EZ76AO3386R8ZK9IWWKAW","","537","img/land5.png","74","537.4000000357628","1","0","3","1","0.8,0.2,0.2,0.2,0.8,0.2,0.2,0.2,0.8","0.8,0.2,0.2,0.2,0.8,0.2,0.2,0.2,0.8","1","",""
"","html-keyboard-response","115","79520","0.0-115.0","3JWH6J9I9TZFJACSX135KLH72Q0NB0","A3KH1OG87C8DCM","3P7RGTLO6EZ76AO3386R8ZK9IWWKAW","","null","<img src=""img/land5.png"" style=""width:200px;border:14px solid red;"">","null","","","","","","","","","",""
"","image-keyboard-response","116","80010","0.0-116.0","3JWH6J9I9TZFJACSX135KLH72Q0NB0","A3KH1OG87C8DCM","3P7RGTLO6EZ76AO3386R8ZK9IWWKAW","","488.69999998807907","img/land5.png","76","489.2999999523163","3","1","3","1","0.8,0.2,0.2,0.2,0.8,0.2,0.2,0.2,0.8","0.8,0.2,0.2,0.2,0.8,0.2,0.2,0.2,0.8","1","",""
"","html-keyboard-response","117","80312","0.0-117.0","3JWH6J9I9TZFJACSX135KLH72Q0NB0","A3KH1OG87C8DCM","3P7RGTLO6EZ76AO3386R8ZK9IWWKAW","","null","<img src=""img/land5.png"" style=""width:200px; border:14px solid green;"">","null","","","","","","","","","",""
"","image-keyboard-response","118","80818","0.0-118.0","3JWH6J9I9TZFJACSX135KLH72Q0NB0","A3KH1OG87C8DCM","3P7RGTLO6EZ76AO3386R8ZK9IWWKAW","","505.39999997615814","img/land3.png","76","505.80000001192093","3","0","2","1","0.8,0.2,0.2,0.2,0.8,0.2,0.2,0.2,0.8","0.8,0.2,0.2,0.2,0.8,0.2,0.2,0.2,0.8","1","",""
"","html-keyboard-response","119","81120","0.0-119.0","3JWH6J9I9TZFJACSX135KLH72Q0NB0","A3KH1OG87C8DCM","3P7RGTLO6EZ76AO3386R8ZK9IWWKAW","","null","<img src=""img/land3.png"" style=""width:200px;border:14px solid red;"">","null","","","","","","","","","",""
"","image-keyboard-response","120","81682","0.0-120.0","3JWH6J9I9TZFJACSX135KLH72Q0NB0","A3KH1OG87C8DCM","3P7RGTLO6EZ76AO3386R8ZK9IWWKAW","","561.5","img/land5.png","76","562","3","1","3","1","0.8,0.2,0.2,0.2,0.8,0.2,0.2,0.2,0.8","0.8,0.2,0.2,0.2,0.8,0.2,0.2,0.2,0.8","1","",""
"","html-keyboard-response","121","81984","0.0-121.0","3JWH6J9I9TZFJACSX135KLH72Q0NB0","A3KH1OG87C8DCM","3P7RGTLO6EZ76AO3386R8ZK9IWWKAW","","null","<img src=""img/land5.png"" style=""width:200px; border:14px solid green;"">","null","","","","","","","","","",""
"","image-keyboard-response","122","82370","0.0-122.0","3JWH6J9I9TZFJACSX135KLH72Q0NB0","A3KH1OG87C8DCM","3P7RGTLO6EZ76AO3386R8ZK9IWWKAW","","385.80000001192093","img/land5.png","76","386.30000001192093","3","1","3","1","0.8,0.2,0.2,0.2,0.8,0.2,0.2,0.2,0.8","0.8,0.2,0.2,0.2,0.8,0.2,0.2,0.2,0.8","1","",""
"","html-keyboard-response","123","82672","0.0-123.0","3JWH6J9I9TZFJACSX135KLH72Q0NB0","A3KH1OG87C8DCM","3P7RGTLO6EZ76AO3386R8ZK9IWWKAW","","null","<img src=""img/land5.png"" style=""width:200px; border:14px solid green;"">","null","","","","","","","","","",""
"","image-keyboard-response","124","83050","0.0-124.0","3JWH6J9I9TZFJACSX135KLH72Q0NB0","A3KH1OG87C8DCM","3P7RGTLO6EZ76AO3386R8ZK9IWWKAW","","377.9000000357628","img/land5.png","76","378.2999999523163","3","0","3","1","0.8,0.2,0.2,0.2,0.8,0.2,0.2,0.2,0.8","0.8,0.2,0.2,0.2,0.8,0.2,0.2,0.2,0.8","1","",""
"","html-keyboard-response","125","83352","0.0-125.0","3JWH6J9I9TZFJACSX135KLH72Q0NB0","A3KH1OG87C8DCM","3P7RGTLO6EZ76AO3386R8ZK9IWWKAW","","null","<img src=""img/land5.png"" style=""width:200px;border:14px solid red;"">","null","","","","","","","","","",""
"","image-keyboard-response","126","83930","0.0-126.0","3JWH6J9I9TZFJACSX135KLH72Q0NB0","A3KH1OG87C8DCM","3P7RGTLO6EZ76AO3386R8ZK9IWWKAW","","577.5","img/land4.png","74","578","1","1","1","1","0.8,0.2,0.2,0.2,0.8,0.2,0.2,0.2,0.8","0.8,0.2,0.2,0.2,0.8,0.2,0.2,0.2,0.8","1","",""
"","html-keyboard-response","127","84232","0.0-127.0","3JWH6J9I9TZFJACSX135KLH72Q0NB0","A3KH1OG87C8DCM","3P7RGTLO6EZ76AO3386R8ZK9IWWKAW","","null","<img src=""img/land4.png"" style=""width:200px; border:14px solid green;"">","null","","","","","","","","","",""
"","image-keyboard-response","128","84890","0.0-128.0","3JWH6J9I9TZFJACSX135KLH72Q0NB0","A3KH1OG87C8DCM","3P7RGTLO6EZ76AO3386R8ZK9IWWKAW","","658","img/land3.png","74","658.3999999761581","1","0","2","1","0.8,0.2,0.2,0.2,0.8,0.2,0.2,0.2,0.8","0.8,0.2,0.2,0.2,0.8,0.2,0.2,0.2,0.8","1","",""
"","html-keyboard-response","129","85195","0.0-129.0","3JWH6J9I9TZFJACSX135KLH72Q0NB0","A3KH1OG87C8DCM","3P7RGTLO6EZ76AO3386R8ZK9IWWKAW","","null","<img src=""img/land3.png"" style=""width:200px;border:14px solid red;"">","null","","","","","","","","","",""
"","image-keyboard-response","130","86002","0.0-130.0","3JWH6J9I9TZFJACSX135KLH72Q0NB0","A3KH1OG87C8DCM","3P7RGTLO6EZ76AO3386R8ZK9IWWKAW","","806.3999999761581","img/land4.png","74","806.8000000119209","1","1","1","1","0.8,0.2,0.2,0.2,0.8,0.2,0.2,0.2,0.8","0.8,0.2,0.2,0.2,0.8,0.2,0.2,0.2,0.8","1","",""
"","html-keyboard-response","131","86304","0.0-131.0","3JWH6J9I9TZFJACSX135KLH72Q0NB0","A3KH1OG87C8DCM","3P7RGTLO6EZ76AO3386R8ZK9IWWKAW","","null","<img src=""img/land4.png"" style=""width:200px; border:14px solid green;"">","null","","","","","","","","","",""
"","image-keyboard-response","132","86922","0.0-132.0","3JWH6J9I9TZFJACSX135KLH72Q0NB0","A3KH1OG87C8DCM","3P7RGTLO6EZ76AO3386R8ZK9IWWKAW","","617.4000000357628","img/land5.png","76","617.8000000119209","3","1","3","1","0.8,0.2,0.2,0.2,0.8,0.2,0.2,0.2,0.8","0.8,0.2,0.2,0.2,0.8,0.2,0.2,0.2,0.8","1","",""
"","html-keyboard-response","133","87224","0.0-133.0","3JWH6J9I9TZFJACSX135KLH72Q0NB0","A3KH1OG87C8DCM","3P7RGTLO6EZ76AO3386R8ZK9IWWKAW","","null","<img src=""img/land5.png"" style=""width:200px; border:14px solid green;"">","null","","","","","","","","","",""
"","image-keyboard-response","134","87770","0.0-134.0","3JWH6J9I9TZFJACSX135KLH72Q0NB0","A3KH1OG87C8DCM","3P7RGTLO6EZ76AO3386R8ZK9IWWKAW","","545.8000000119209","img/land4.png","74","546.4000000357628","1","1","1","1","0.8,0.2,0.2,0.2,0.8,0.2,0.2,0.2,0.8","0.8,0.2,0.2,0.2,0.8,0.2,0.2,0.2,0.8","1","",""
"","html-keyboard-response","135","88072","0.0-135.0","3JWH6J9I9TZFJACSX135KLH72Q0NB0","A3KH1OG87C8DCM","3P7RGTLO6EZ76AO3386R8ZK9IWWKAW","","null","<img src=""img/land4.png"" style=""width:200px; border:14px solid green;"">","null","","","","","","","","","",""
"","image-keyboard-response","136","88490","0.0-136.0","3JWH6J9I9TZFJACSX135KLH72Q0NB0","A3KH1OG87C8DCM","3P7RGTLO6EZ76AO3386R8ZK9IWWKAW","","417.19999998807907","img/land4.png","74","417.69999998807907","1","1","1","1","0.8,0.2,0.2,0.2,0.8,0.2,0.2,0.2,0.8","0.8,0.2,0.2,0.2,0.8,0.2,0.2,0.2,0.8","1","",""
"","html-keyboard-response","137","88801","0.0-137.0","3JWH6J9I9TZFJACSX135KLH72Q0NB0","A3KH1OG87C8DCM","3P7RGTLO6EZ76AO3386R8ZK9IWWKAW","","null","<img src=""img/land4.png"" style=""width:200px; border:14px solid green;"">","null","","","","","","","","","",""
"","image-keyboard-response","138","89410","0.0-138.0","3JWH6J9I9TZFJACSX135KLH72Q0NB0","A3KH1OG87C8DCM","3P7RGTLO6EZ76AO3386R8ZK9IWWKAW","","607.8999999761581","img/land5.png","75","608.3999999761581","2","0","3","1","0.8,0.2,0.2,0.2,0.8,0.2,0.2,0.2,0.8","0.8,0.2,0.2,0.2,0.8,0.2,0.2,0.2,0.8","1","",""
"","html-keyboard-response","139","89712","0.0-139.0","3JWH6J9I9TZFJACSX135KLH72Q0NB0","A3KH1OG87C8DCM","3P7RGTLO6EZ76AO3386R8ZK9IWWKAW","","null","<img src=""img/land5.png"" style=""width:200px;border:14px solid red;"">","null","","","","","","","","","",""
"","image-keyboard-response","140","90530","0.0-140.0","3JWH6J9I9TZFJACSX135KLH72Q0NB0","A3KH1OG87C8DCM","3P7RGTLO6EZ76AO3386R8ZK9IWWKAW","","817.5","img/land3.png","74","818","1","0","2","1","0.8,0.2,0.2,0.2,0.8,0.2,0.2,0.2,0.8","0.8,0.2,0.2,0.2,0.8,0.2,0.2,0.2,0.8","1","",""
"","html-keyboard-response","141","90832","0.0-141.0","3JWH6J9I9TZFJACSX135KLH72Q0NB0","A3KH1OG87C8DCM","3P7RGTLO6EZ76AO3386R8ZK9IWWKAW","","null","<img src=""img/land3.png"" style=""width:200px;border:14px solid red;"">","null","","","","","","","","","",""
"","image-keyboard-response","142","91594","0.0-142.0","3JWH6J9I9TZFJACSX135KLH72Q0NB0","A3KH1OG87C8DCM","3P7RGTLO6EZ76AO3386R8ZK9IWWKAW","","761.4000000357628","img/land3.png","76","761.9000000357628","3","0","2","1","0.8,0.2,0.2,0.2,0.8,0.2,0.2,0.2,0.8","0.8,0.2,0.2,0.2,0.8,0.2,0.2,0.2,0.8","1","",""
"","html-keyboard-response","143","91896","0.0-143.0","3JWH6J9I9TZFJACSX135KLH72Q0NB0","A3KH1OG87C8DCM","3P7RGTLO6EZ76AO3386R8ZK9IWWKAW","","null","<img src=""img/land3.png"" style=""width:200px;border:14px solid red;"">","null","","","","","","","","","",""
"","image-keyboard-response","144","92490","0.0-144.0","3JWH6J9I9TZFJACSX135KLH72Q0NB0","A3KH1OG87C8DCM","3P7RGTLO6EZ76AO3386R8ZK9IWWKAW","","593.3000000119209","img/land5.png","76","593.8000000119209","3","1","3","1","0.8,0.2,0.2,0.2,0.8,0.2,0.2,0.2,0.8","0.8,0.2,0.2,0.2,0.8,0.2,0.2,0.2,0.8","1","",""
"","html-keyboard-response","145","92792","0.0-145.0","3JWH6J9I9TZFJACSX135KLH72Q0NB0","A3KH1OG87C8DCM","3P7RGTLO6EZ76AO3386R8ZK9IWWKAW","","null","<img src=""img/land5.png"" style=""width:200px; border:14px solid green;"">","null","","","","","","","","","",""
"","image-keyboard-response","146","93346","0.0-146.0","3JWH6J9I9TZFJACSX135KLH72Q0NB0","A3KH1OG87C8DCM","3P7RGTLO6EZ76AO3386R8ZK9IWWKAW","","553.9000000357628","img/land3.png","75","554.3999999761581","2","0","2","1","0.8,0.2,0.2,0.2,0.8,0.2,0.2,0.2,0.8","0.8,0.2,0.2,0.2,0.8,0.2,0.2,0.2,0.8","1","",""
"","html-keyboard-response","147","93662","0.0-147.0","3JWH6J9I9TZFJACSX135KLH72Q0NB0","A3KH1OG87C8DCM","3P7RGTLO6EZ76AO3386R8ZK9IWWKAW","","null","<img src=""img/land3.png"" style=""width:200px;border:14px solid red;"">","null","","","","","","","","","",""
"","image-keyboard-response","148","94258","0.0-148.0","3JWH6J9I9TZFJACSX135KLH72Q0NB0","A3KH1OG87C8DCM","3P7RGTLO6EZ76AO3386R8ZK9IWWKAW","","595.0999999642372","img/land4.png","74","595.5","1","1","1","1","0.8,0.2,0.2,0.2,0.8,0.2,0.2,0.2,0.8","0.8,0.2,0.2,0.2,0.8,0.2,0.2,0.2,0.8","1","",""
"","html-keyboard-response","149","94560","0.0-149.0","3JWH6J9I9TZFJACSX135KLH72Q0NB0","A3KH1OG87C8DCM","3P7RGTLO6EZ76AO3386R8ZK9IWWKAW","","null","<img src=""img/land4.png"" style=""width:200px; border:14px solid green;"">","null","","","","","","","","","",""
"","image-keyboard-response","150","94978","0.0-150.0","3JWH6J9I9TZFJACSX135KLH72Q0NB0","A3KH1OG87C8DCM","3P7RGTLO6EZ76AO3386R8ZK9IWWKAW","","417.5","img/land4.png","74","417.80000001192093","1","1","1","1","0.8,0.2,0.2,0.2,0.8,0.2,0.2,0.2,0.8","0.8,0.2,0.2,0.2,0.8,0.2,0.2,0.2,0.8","1","",""
"","html-keyboard-response","151","95280","0.0-151.0","3JWH6J9I9TZFJACSX135KLH72Q0NB0","A3KH1OG87C8DCM","3P7RGTLO6EZ76AO3386R8ZK9IWWKAW","","null","<img src=""img/land4.png"" style=""width:200px; border:14px solid green;"">","null","","","","","","","","","",""
"","image-keyboard-response","152","95914","0.0-152.0","3JWH6J9I9TZFJACSX135KLH72Q0NB0","A3KH1OG87C8DCM","3P7RGTLO6EZ76AO3386R8ZK9IWWKAW","","633.5","img/land5.png","76","633.9000000357628","3","1","3","1","0.8,0.2,0.2,0.2,0.8,0.2,0.2,0.2,0.8","0.8,0.2,0.2,0.2,0.8,0.2,0.2,0.2,0.8","1","",""
"","html-keyboard-response","153","96219","0.0-153.0","3JWH6J9I9TZFJACSX135KLH72Q0NB0","A3KH1OG87C8DCM","3P7RGTLO6EZ76AO3386R8ZK9IWWKAW","","null","<img src=""img/land5.png"" style=""width:200px; border:14px solid green;"">","null","","","","","","","","","",""
"","image-keyboard-response","154","96570","0.0-154.0","3JWH6J9I9TZFJACSX135KLH72Q0NB0","A3KH1OG87C8DCM","3P7RGTLO6EZ76AO3386R8ZK9IWWKAW","","350","img/land5.png","76","350.39999997615814","3","1","3","1","0.8,0.2,0.2,0.2,0.8,0.2,0.2,0.2,0.8","0.8,0.2,0.2,0.2,0.8,0.2,0.2,0.2,0.8","1","",""
"","html-keyboard-response","155","96872","0.0-155.0","3JWH6J9I9TZFJACSX135KLH72Q0NB0","A3KH1OG87C8DCM","3P7RGTLO6EZ76AO3386R8ZK9IWWKAW","","null","<img src=""img/land5.png"" style=""width:200px; border:14px solid green;"">","null","","","","","","","","","",""
"","image-keyboard-response","156","97394","0.0-156.0","3JWH6J9I9TZFJACSX135KLH72Q0NB0","A3KH1OG87C8DCM","3P7RGTLO6EZ76AO3386R8ZK9IWWKAW","","521.7000000476837","img/land3.png","74","522.1000000238419","1","0","2","1","0.8,0.2,0.2,0.2,0.8,0.2,0.2,0.2,0.8","0.8,0.2,0.2,0.2,0.8,0.2,0.2,0.2,0.8","1","",""
"","html-keyboard-response","157","97696","0.0-157.0","3JWH6J9I9TZFJACSX135KLH72Q0NB0","A3KH1OG87C8DCM","3P7RGTLO6EZ76AO3386R8ZK9IWWKAW","","null","<img src=""img/land3.png"" style=""width:200px;border:14px solid red;"">","null","","","","","","","","","",""
"","image-keyboard-response","158","98210","0.0-158.0","3JWH6J9I9TZFJACSX135KLH72Q0NB0","A3KH1OG87C8DCM","3P7RGTLO6EZ76AO3386R8ZK9IWWKAW","","513.8000000119209","img/land3.png","75","514.3000000119209","2","1","2","1","0.8,0.2,0.2,0.2,0.8,0.2,0.2,0.2,0.8","0.8,0.2,0.2,0.2,0.8,0.2,0.2,0.2,0.8","1","",""
"","html-keyboard-response","159","98512","0.0-159.0","3JWH6J9I9TZFJACSX135KLH72Q0NB0","A3KH1OG87C8DCM","3P7RGTLO6EZ76AO3386R8ZK9IWWKAW","","null","<img src=""img/land3.png"" style=""width:200px; border:14px solid green;"">","null","","","","","","","","","",""
"","image-keyboard-response","160","99194","0.0-160.0","3JWH6J9I9TZFJACSX135KLH72Q0NB0","A3KH1OG87C8DCM","3P7RGTLO6EZ76AO3386R8ZK9IWWKAW","","680.9000000357628","img/land4.png","74","681.5","1","1","1","1","0.8,0.2,0.2,0.2,0.8,0.2,0.2,0.2,0.8","0.8,0.2,0.2,0.2,0.8,0.2,0.2,0.2,0.8","1","",""
"","html-keyboard-response","161","99496","0.0-161.0","3JWH6J9I9TZFJACSX135KLH72Q0NB0","A3KH1OG87C8DCM","3P7RGTLO6EZ76AO3386R8ZK9IWWKAW","","null","<img src=""img/land4.png"" style=""width:200px; border:14px solid green;"">","null","","","","","","","","","",""
"","image-keyboard-response","162","100202","0.0-162.0","3JWH6J9I9TZFJACSX135KLH72Q0NB0","A3KH1OG87C8DCM","3P7RGTLO6EZ76AO3386R8ZK9IWWKAW","","705.6000000238419","img/land3.png","75","706.1000000238419","2","1","2","1","0.8,0.2,0.2,0.2,0.8,0.2,0.2,0.2,0.8","0.8,0.2,0.2,0.2,0.8,0.2,0.2,0.2,0.8","1","",""
"","html-keyboard-response","163","100504","0.0-163.0","3JWH6J9I9TZFJACSX135KLH72Q0NB0","A3KH1OG87C8DCM","3P7RGTLO6EZ76AO3386R8ZK9IWWKAW","","null","<img src=""img/land3.png"" style=""width:200px; border:14px solid green;"">","null","","","","","","","","","",""
"","image-keyboard-response","164","101002","0.0-164.0","3JWH6J9I9TZFJACSX135KLH72Q0NB0","A3KH1OG87C8DCM","3P7RGTLO6EZ76AO3386R8ZK9IWWKAW","","497.30000001192093","img/land3.png","75","497.9000000357628","2","1","2","1","0.8,0.2,0.2,0.2,0.8,0.2,0.2,0.2,0.8","0.8,0.2,0.2,0.2,0.8,0.2,0.2,0.2,0.8","1","",""
"","html-keyboard-response","165","101318","0.0-165.0","3JWH6J9I9TZFJACSX135KLH72Q0NB0","A3KH1OG87C8DCM","3P7RGTLO6EZ76AO3386R8ZK9IWWKAW","","null","<img src=""img/land3.png"" style=""width:200px; border:14px solid green;"">","null","","","","","","","","","",""
"","image-keyboard-response","166","102018","0.0-166.0","3JWH6J9I9TZFJACSX135KLH72Q0NB0","A3KH1OG87C8DCM","3P7RGTLO6EZ76AO3386R8ZK9IWWKAW","","699.5999999642372","img/land4.png","74","700.0999999642372","1","1","1","1","0.8,0.2,0.2,0.2,0.8,0.2,0.2,0.2,0.8","0.8,0.2,0.2,0.2,0.8,0.2,0.2,0.2,0.8","1","",""
"","html-keyboard-response","167","102320","0.0-167.0","3JWH6J9I9TZFJACSX135KLH72Q0NB0","A3KH1OG87C8DCM","3P7RGTLO6EZ76AO3386R8ZK9IWWKAW","","null","<img src=""img/land4.png"" style=""width:200px; border:14px solid green;"">","null","","","","","","","","","",""
"","image-keyboard-response","168","102666","0.0-168.0","3JWH6J9I9TZFJACSX135KLH72Q0NB0","A3KH1OG87C8DCM","3P7RGTLO6EZ76AO3386R8ZK9IWWKAW","","345.2000000476837","img/land3.png","75","345.69999998807907","2","0","2","1","0.8,0.2,0.2,0.2,0.8,0.2,0.2,0.2,0.8","0.8,0.2,0.2,0.2,0.8,0.2,0.2,0.2,0.8","1","",""
"","html-keyboard-response","169","102971","0.0-169.0","3JWH6J9I9TZFJACSX135KLH72Q0NB0","A3KH1OG87C8DCM","3P7RGTLO6EZ76AO3386R8ZK9IWWKAW","","null","<img src=""img/land3.png"" style=""width:200px;border:14px solid red;"">","null","","","","","","","","","",""
"","image-keyboard-response","170","103458","0.0-170.0","3JWH6J9I9TZFJACSX135KLH72Q0NB0","A3KH1OG87C8DCM","3P7RGTLO6EZ76AO3386R8ZK9IWWKAW","","486.10000002384186","img/land3.png","75","486.5","2","1","2","1","0.8,0.2,0.2,0.2,0.8,0.2,0.2,0.2,0.8","0.8,0.2,0.2,0.2,0.8,0.2,0.2,0.2,0.8","1","",""
"","html-keyboard-response","171","103760","0.0-171.0","3JWH6J9I9TZFJACSX135KLH72Q0NB0","A3KH1OG87C8DCM","3P7RGTLO6EZ76AO3386R8ZK9IWWKAW","","null","<img src=""img/land3.png"" style=""width:200px; border:14px solid green;"">","null","","","","","","","","","",""
"","image-keyboard-response","172","104234","0.0-172.0","3JWH6J9I9TZFJACSX135KLH72Q0NB0","A3KH1OG87C8DCM","3P7RGTLO6EZ76AO3386R8ZK9IWWKAW","","473","img/land5.png","76","473.5999999642372","3","1","3","1","0.8,0.2,0.2,0.2,0.8,0.2,0.2,0.2,0.8","0.8,0.2,0.2,0.2,0.8,0.2,0.2,0.2,0.8","1","",""
"","html-keyboard-response","173","104536","0.0-173.0","3JWH6J9I9TZFJACSX135KLH72Q0NB0","A3KH1OG87C8DCM","3P7RGTLO6EZ76AO3386R8ZK9IWWKAW","","null","<img src=""img/land5.png"" style=""width:200px; border:14px solid green;"">","null","","","","","","","","","",""
"","image-keyboard-response","174","105066","0.0-174.0","3JWH6J9I9TZFJACSX135KLH72Q0NB0","A3KH1OG87C8DCM","3P7RGTLO6EZ76AO3386R8ZK9IWWKAW","","529","img/land5.png","76","529.3999999761581","3","1","3","1","0.8,0.2,0.2,0.2,0.8,0.2,0.2,0.2,0.8","0.8,0.2,0.2,0.2,0.8,0.2,0.2,0.2,0.8","1","",""
"","html-keyboard-response","175","105368","0.0-175.0","3JWH6J9I9TZFJACSX135KLH72Q0NB0","A3KH1OG87C8DCM","3P7RGTLO6EZ76AO3386R8ZK9IWWKAW","","null","<img src=""img/land5.png"" style=""width:200px; border:14px solid green;"">","null","","","","","","","","","",""
"","image-keyboard-response","176","105930","0.0-176.0","3JWH6J9I9TZFJACSX135KLH72Q0NB0","A3KH1OG87C8DCM","3P7RGTLO6EZ76AO3386R8ZK9IWWKAW","","561.3999999761581","img/land4.png","74","561.8999999761581","1","1","1","1","0.8,0.2,0.2,0.2,0.8,0.2,0.2,0.2,0.8","0.8,0.2,0.2,0.2,0.8,0.2,0.2,0.2,0.8","1","",""
"","html-keyboard-response","177","106232","0.0-177.0","3JWH6J9I9TZFJACSX135KLH72Q0NB0","A3KH1OG87C8DCM","3P7RGTLO6EZ76AO3386R8ZK9IWWKAW","","null","<img src=""img/land4.png"" style=""width:200px; border:14px solid green;"">","null","","","","","","","","","",""
"","image-keyboard-response","178","106778","0.0-178.0","3JWH6J9I9TZFJACSX135KLH72Q0NB0","A3KH1OG87C8DCM","3P7RGTLO6EZ76AO3386R8ZK9IWWKAW","","545.7000000476837","img/land5.png","76","546.1000000238419","3","1","3","1","0.8,0.2,0.2,0.2,0.8,0.2,0.2,0.2,0.8","0.8,0.2,0.2,0.2,0.8,0.2,0.2,0.2,0.8","1","",""
"","html-keyboard-response","179","107079","0.0-179.0","3JWH6J9I9TZFJACSX135KLH72Q0NB0","A3KH1OG87C8DCM","3P7RGTLO6EZ76AO3386R8ZK9IWWKAW","","null","<img src=""img/land5.png"" style=""width:200px; border:14px solid green;"">","null","","","","","","","","","",""
"","image-keyboard-response","180","107506","0.0-180.0","3JWH6J9I9TZFJACSX135KLH72Q0NB0","A3KH1OG87C8DCM","3P7RGTLO6EZ76AO3386R8ZK9IWWKAW","","426.0999999642372","img/land5.png","76","426.4000000357628","3","1","3","1","0.8,0.2,0.2,0.2,0.8,0.2,0.2,0.2,0.8","0.8,0.2,0.2,0.2,0.8,0.2,0.2,0.2,0.8","1","",""
"","html-keyboard-response","181","107808","0.0-181.0","3JWH6J9I9TZFJACSX135KLH72Q0NB0","A3KH1OG87C8DCM","3P7RGTLO6EZ76AO3386R8ZK9IWWKAW","","null","<img src=""img/land5.png"" style=""width:200px; border:14px solid green;"">","null","","","","","","","","","",""
"","html-keyboard-response","182","110205","0.0-182.0","3JWH6J9I9TZFJACSX135KLH72Q0NB0","A3KH1OG87C8DCM","3P7RGTLO6EZ76AO3386R8ZK9IWWKAW","","","","","","","","","","","","","",""
"","image-keyboard-response","183","111186","0.0-183.0","3JWH6J9I9TZFJACSX135KLH72Q0NB0","A3KH1OG87C8DCM","3P7RGTLO6EZ76AO3386R8ZK9IWWKAW","","980.3000000119209","img/land6.png","76","980.9000000357628","3","1","1","2","0.8,0.2,0.2,0.2,0.8,0.2,0.2,0.2,0.8","0.2,0.8,0.2,0.2,0.2,0.8,0.8,0.2,0.2","3","",""
"","html-keyboard-response","184","111488","0.0-184.0","3JWH6J9I9TZFJACSX135KLH72Q0NB0","A3KH1OG87C8DCM","3P7RGTLO6EZ76AO3386R8ZK9IWWKAW","","null","<img src=""img/land6.png"" style=""width:200px; border:14px solid green;"">","null","","","","","","","","","",""
"","image-keyboard-response","185","111938","0.0-185.0","3JWH6J9I9TZFJACSX135KLH72Q0NB0","A3KH1OG87C8DCM","3P7RGTLO6EZ76AO3386R8ZK9IWWKAW","","449.69999998807907","img/land6.png","76","450.2999999523163","3","0","1","2","0.8,0.2,0.2,0.2,0.8,0.2,0.2,0.2,0.8","0.2,0.8,0.2,0.2,0.2,0.8,0.8,0.2,0.2","3","",""
"","html-keyboard-response","186","112240","0.0-186.0","3JWH6J9I9TZFJACSX135KLH72Q0NB0","A3KH1OG87C8DCM","3P7RGTLO6EZ76AO3386R8ZK9IWWKAW","","null","<img src=""img/land6.png"" style=""width:200px;border:14px solid red;"">","null","","","","","","","","","",""
"","image-keyboard-response","187","112930","0.0-187.0","3JWH6J9I9TZFJACSX135KLH72Q0NB0","A3KH1OG87C8DCM","3P7RGTLO6EZ76AO3386R8ZK9IWWKAW","","689.7000000476837","img/land1.png","75","690.1999999880791","2","1","3","2","0.8,0.2,0.2,0.2,0.8,0.2,0.2,0.2,0.8","0.2,0.8,0.2,0.2,0.2,0.8,0.8,0.2,0.2","3","",""
"","html-keyboard-response","188","113232","0.0-188.0","3JWH6J9I9TZFJACSX135KLH72Q0NB0","A3KH1OG87C8DCM","3P7RGTLO6EZ76AO3386R8ZK9IWWKAW","","null","<img src=""img/land1.png"" style=""width:200px; border:14px solid green;"">","null","","","","","","","","","",""
"","image-keyboard-response","189","113826","0.0-189.0","3JWH6J9I9TZFJACSX135KLH72Q0NB0","A3KH1OG87C8DCM","3P7RGTLO6EZ76AO3386R8ZK9IWWKAW","","593.3000000119209","img/land1.png","75","593.6999999880791","2","0","3","2","0.8,0.2,0.2,0.2,0.8,0.2,0.2,0.2,0.8","0.2,0.8,0.2,0.2,0.2,0.8,0.8,0.2,0.2","3","",""
"","html-keyboard-response","190","114128","0.0-190.0","3JWH6J9I9TZFJACSX135KLH72Q0NB0","A3KH1OG87C8DCM","3P7RGTLO6EZ76AO3386R8ZK9IWWKAW","","null","<img src=""img/land1.png"" style=""width:200px;border:14px solid red;"">","null","","","","","","","","","",""
"","image-keyboard-response","191","114746","0.0-191.0","3JWH6J9I9TZFJACSX135KLH72Q0NB0","A3KH1OG87C8DCM","3P7RGTLO6EZ76AO3386R8ZK9IWWKAW","","617.7000000476837","img/land6.png","74","618.7999999523163","1","0","1","2","0.8,0.2,0.2,0.2,0.8,0.2,0.2,0.2,0.8","0.2,0.8,0.2,0.2,0.2,0.8,0.8,0.2,0.2","3","",""
"","html-keyboard-response","192","115048","0.0-192.0","3JWH6J9I9TZFJACSX135KLH72Q0NB0","A3KH1OG87C8DCM","3P7RGTLO6EZ76AO3386R8ZK9IWWKAW","","null","<img src=""img/land6.png"" style=""width:200px;border:14px solid red;"">","null","","","","","","","","","",""
"","image-keyboard-response","193","115706","0.0-193.0","3JWH6J9I9TZFJACSX135KLH72Q0NB0","A3KH1OG87C8DCM","3P7RGTLO6EZ76AO3386R8ZK9IWWKAW","","657.3000000119209","img/land6.png","76","657.6999999880791","3","0","1","2","0.8,0.2,0.2,0.2,0.8,0.2,0.2,0.2,0.8","0.2,0.8,0.2,0.2,0.2,0.8,0.8,0.2,0.2","3","",""
"","html-keyboard-response","194","116008","0.0-194.0","3JWH6J9I9TZFJACSX135KLH72Q0NB0","A3KH1OG87C8DCM","3P7RGTLO6EZ76AO3386R8ZK9IWWKAW","","null","<img src=""img/land6.png"" style=""width:200px;border:14px solid red;"">","null","","","","","","","","","",""
"","image-keyboard-response","195","116618","0.0-195.0","3JWH6J9I9TZFJACSX135KLH72Q0NB0","A3KH1OG87C8DCM","3P7RGTLO6EZ76AO3386R8ZK9IWWKAW","","609.7000000476837","img/land6.png","74","610.1000000238419","1","0","1","2","0.8,0.2,0.2,0.2,0.8,0.2,0.2,0.2,0.8","0.2,0.8,0.2,0.2,0.2,0.8,0.8,0.2,0.2","3","",""
"","html-keyboard-response","196","116920","0.0-196.0","3JWH6J9I9TZFJACSX135KLH72Q0NB0","A3KH1OG87C8DCM","3P7RGTLO6EZ76AO3386R8ZK9IWWKAW","","null","<img src=""img/land6.png"" style=""width:200px;border:14px solid red;"">","null","","","","","","","","","",""
"","image-keyboard-response","197","117394","0.0-197.0","3JWH6J9I9TZFJACSX135KLH72Q0NB0","A3KH1OG87C8DCM","3P7RGTLO6EZ76AO3386R8ZK9IWWKAW","","473.30000001192093","img/land6.png","75","473.69999998807907","2","1","1","2","0.8,0.2,0.2,0.2,0.8,0.2,0.2,0.2,0.8","0.2,0.8,0.2,0.2,0.2,0.8,0.8,0.2,0.2","3","",""
"","html-keyboard-response","198","117696","0.0-198.0","3JWH6J9I9TZFJACSX135KLH72Q0NB0","A3KH1OG87C8DCM","3P7RGTLO6EZ76AO3386R8ZK9IWWKAW","","null","<img src=""img/land6.png"" style=""width:200px; border:14px solid green;"">","null","","","","","","","","","",""
"","image-keyboard-response","199","118506","0.0-199.0","3JWH6J9I9TZFJACSX135KLH72Q0NB0","A3KH1OG87C8DCM","3P7RGTLO6EZ76AO3386R8ZK9IWWKAW","","809.3000000119209","img/land1.png","75","809.6999999880791","2","1","3","2","0.8,0.2,0.2,0.2,0.8,0.2,0.2,0.2,0.8","0.2,0.8,0.2,0.2,0.2,0.8,0.8,0.2,0.2","3","",""
"","html-keyboard-response","200","118808","0.0-200.0","3JWH6J9I9TZFJACSX135KLH72Q0NB0","A3KH1OG87C8DCM","3P7RGTLO6EZ76AO3386R8ZK9IWWKAW","","null","<img src=""img/land1.png"" style=""width:200px; border:14px solid green;"">","null","","","","","","","","","",""
"","image-keyboard-response","201","119378","0.0-201.0","3JWH6J9I9TZFJACSX135KLH72Q0NB0","A3KH1OG87C8DCM","3P7RGTLO6EZ76AO3386R8ZK9IWWKAW","","569.3999999761581","img/land6.png","75","569.8999999761581","2","1","1","2","0.8,0.2,0.2,0.2,0.8,0.2,0.2,0.2,0.8","0.2,0.8,0.2,0.2,0.2,0.8,0.8,0.2,0.2","3","",""
"","html-keyboard-response","202","119679","0.0-202.0","3JWH6J9I9TZFJACSX135KLH72Q0NB0","A3KH1OG87C8DCM","3P7RGTLO6EZ76AO3386R8ZK9IWWKAW","","null","<img src=""img/land6.png"" style=""width:200px; border:14px solid green;"">","null","","","","","","","","","",""
"","image-keyboard-response","203","120058","0.0-203.0","3JWH6J9I9TZFJACSX135KLH72Q0NB0","A3KH1OG87C8DCM","3P7RGTLO6EZ76AO3386R8ZK9IWWKAW","","377.69999998807907","img/land6.png","75","378.19999998807907","2","1","1","2","0.8,0.2,0.2,0.2,0.8,0.2,0.2,0.2,0.8","0.2,0.8,0.2,0.2,0.2,0.8,0.8,0.2,0.2","3","",""
"","html-keyboard-response","204","120360","0.0-204.0","3JWH6J9I9TZFJACSX135KLH72Q0NB0","A3KH1OG87C8DCM","3P7RGTLO6EZ76AO3386R8ZK9IWWKAW","","null","<img src=""img/land6.png"" style=""width:200px; border:14px solid green;"">","null","","","","","","","","","",""
"","image-keyboard-response","205","120810","0.0-205.0","3JWH6J9I9TZFJACSX135KLH72Q0NB0","A3KH1OG87C8DCM","3P7RGTLO6EZ76AO3386R8ZK9IWWKAW","","449.4000000357628","img/land2.png","75","449.9000000357628","2","1","2","2","0.8,0.2,0.2,0.2,0.8,0.2,0.2,0.2,0.8","0.2,0.8,0.2,0.2,0.2,0.8,0.8,0.2,0.2","3","",""
"","html-keyboard-response","206","121112","0.0-206.0","3JWH6J9I9TZFJACSX135KLH72Q0NB0","A3KH1OG87C8DCM","3P7RGTLO6EZ76AO3386R8ZK9IWWKAW","","null","<img src=""img/land2.png"" style=""width:200px; border:14px solid green;"">","null","","","","","","","","","",""
"","image-keyboard-response","207","121578","0.0-207.0","3JWH6J9I9TZFJACSX135KLH72Q0NB0","A3KH1OG87C8DCM","3P7RGTLO6EZ76AO3386R8ZK9IWWKAW","","465.69999998807907","img/land1.png","75","466","2","0","3","2","0.8,0.2,0.2,0.2,0.8,0.2,0.2,0.2,0.8","0.2,0.8,0.2,0.2,0.2,0.8,0.8,0.2,0.2","3","",""
"","html-keyboard-response","208","121879","0.0-208.0","3JWH6J9I9TZFJACSX135KLH72Q0NB0","A3KH1OG87C8DCM","3P7RGTLO6EZ76AO3386R8ZK9IWWKAW","","null","<img src=""img/land1.png"" style=""width:200px;border:14px solid red;"">","null","","","","","","","","","",""
"","image-keyboard-response","209","122298","0.0-209.0","3JWH6J9I9TZFJACSX135KLH72Q0NB0","A3KH1OG87C8DCM","3P7RGTLO6EZ76AO3386R8ZK9IWWKAW","","417.5","img/land6.png","75","418","2","1","1","2","0.8,0.2,0.2,0.2,0.8,0.2,0.2,0.2,0.8","0.2,0.8,0.2,0.2,0.2,0.8,0.8,0.2,0.2","3","",""
"","html-keyboard-response","210","122600","0.0-210.0","3JWH6J9I9TZFJACSX135KLH72Q0NB0","A3KH1OG87C8DCM","3P7RGTLO6EZ76AO3386R8ZK9IWWKAW","","null","<img src=""img/land6.png"" style=""width:200px; border:14px solid green;"">","null","","","","","","","","","",""
"","image-keyboard-response","211","123057","0.0-211.0","3JWH6J9I9TZFJACSX135KLH72Q0NB0","A3KH1OG87C8DCM","3P7RGTLO6EZ76AO3386R8ZK9IWWKAW","","457.4000000357628","img/land1.png","75","457.80000001192093","2","0","3","2","0.8,0.2,0.2,0.2,0.8,0.2,0.2,0.2,0.8","0.2,0.8,0.2,0.2,0.2,0.8,0.8,0.2,0.2","3","",""
"","html-keyboard-response","212","123360","0.0-212.0","3JWH6J9I9TZFJACSX135KLH72Q0NB0","A3KH1OG87C8DCM","3P7RGTLO6EZ76AO3386R8ZK9IWWKAW","","null","<img src=""img/land1.png"" style=""width:200px;border:14px solid red;"">","null","","","","","","","","","",""
"","image-keyboard-response","213","123826","0.0-213.0","3JWH6J9I9TZFJACSX135KLH72Q0NB0","A3KH1OG87C8DCM","3P7RGTLO6EZ76AO3386R8ZK9IWWKAW","","465.5999999642372","img/land2.png","75","466","2","1","2","2","0.8,0.2,0.2,0.2,0.8,0.2,0.2,0.2,0.8","0.2,0.8,0.2,0.2,0.2,0.8,0.8,0.2,0.2","3","",""
"","html-keyboard-response","214","124127","0.0-214.0","3JWH6J9I9TZFJACSX135KLH72Q0NB0","A3KH1OG87C8DCM","3P7RGTLO6EZ76AO3386R8ZK9IWWKAW","","null","<img src=""img/land2.png"" style=""width:200px; border:14px solid green;"">","null","","","","","","","","","",""
"","image-keyboard-response","215","124610","0.0-215.0","3JWH6J9I9TZFJACSX135KLH72Q0NB0","A3KH1OG87C8DCM","3P7RGTLO6EZ76AO3386R8ZK9IWWKAW","","481.5","img/land1.png","75","482","2","0","3","2","0.8,0.2,0.2,0.2,0.8,0.2,0.2,0.2,0.8","0.2,0.8,0.2,0.2,0.2,0.8,0.8,0.2,0.2","3","",""
"","html-keyboard-response","216","124911","0.0-216.0","3JWH6J9I9TZFJACSX135KLH72Q0NB0","A3KH1OG87C8DCM","3P7RGTLO6EZ76AO3386R8ZK9IWWKAW","","null","<img src=""img/land1.png"" style=""width:200px;border:14px solid red;"">","null","","","","","","","","","",""
"","image-keyboard-response","217","125514","0.0-217.0","3JWH6J9I9TZFJACSX135KLH72Q0NB0","A3KH1OG87C8DCM","3P7RGTLO6EZ76AO3386R8ZK9IWWKAW","","601.6000000238419","img/land6.png","75","602.1000000238419","2","1","1","2","0.8,0.2,0.2,0.2,0.8,0.2,0.2,0.2,0.8","0.2,0.8,0.2,0.2,0.2,0.8,0.8,0.2,0.2","3","",""
"","html-keyboard-response","218","125815","0.0-218.0","3JWH6J9I9TZFJACSX135KLH72Q0NB0","A3KH1OG87C8DCM","3P7RGTLO6EZ76AO3386R8ZK9IWWKAW","","null","<img src=""img/land6.png"" style=""width:200px; border:14px solid green;"">","null","","","","","","","","","",""
"","image-keyboard-response","219","126202","0.0-219.0","3JWH6J9I9TZFJACSX135KLH72Q0NB0","A3KH1OG87C8DCM","3P7RGTLO6EZ76AO3386R8ZK9IWWKAW","","385.9000000357628","img/land6.png","75","386.5999999642372","2","1","1","2","0.8,0.2,0.2,0.2,0.8,0.2,0.2,0.2,0.8","0.2,0.8,0.2,0.2,0.2,0.8,0.8,0.2,0.2","3","",""
"","html-keyboard-response","220","126503","0.0-220.0","3JWH6J9I9TZFJACSX135KLH72Q0NB0","A3KH1OG87C8DCM","3P7RGTLO6EZ76AO3386R8ZK9IWWKAW","","null","<img src=""img/land6.png"" style=""width:200px; border:14px solid green;"">","null","","","","","","","","","",""
"","image-keyboard-response","221","127010","0.0-221.0","3JWH6J9I9TZFJACSX135KLH72Q0NB0","A3KH1OG87C8DCM","3P7RGTLO6EZ76AO3386R8ZK9IWWKAW","","505.80000001192093","img/land2.png","76","506.39999997615814","3","1","2","2","0.8,0.2,0.2,0.2,0.8,0.2,0.2,0.2,0.8","0.2,0.8,0.2,0.2,0.2,0.8,0.8,0.2,0.2","3","",""
"","html-keyboard-response","222","127312","0.0-222.0","3JWH6J9I9TZFJACSX135KLH72Q0NB0","A3KH1OG87C8DCM","3P7RGTLO6EZ76AO3386R8ZK9IWWKAW","","null","<img src=""img/land2.png"" style=""width:200px; border:14px solid green;"">","null","","","","","","","","","",""
"","image-keyboard-response","223","128042","0.0-223.0","3JWH6J9I9TZFJACSX135KLH72Q0NB0","A3KH1OG87C8DCM","3P7RGTLO6EZ76AO3386R8ZK9IWWKAW","","729","img/land6.png","75","729.5","2","1","1","2","0.8,0.2,0.2,0.2,0.8,0.2,0.2,0.2,0.8","0.2,0.8,0.2,0.2,0.2,0.8,0.8,0.2,0.2","3","",""
"","html-keyboard-response","224","128343","0.0-224.0","3JWH6J9I9TZFJACSX135KLH72Q0NB0","A3KH1OG87C8DCM","3P7RGTLO6EZ76AO3386R8ZK9IWWKAW","","null","<img src=""img/land6.png"" style=""width:200px; border:14px solid green;"">","null","","","","","","","","","",""
"","image-keyboard-response","225","128722","0.0-225.0","3JWH6J9I9TZFJACSX135KLH72Q0NB0","A3KH1OG87C8DCM","3P7RGTLO6EZ76AO3386R8ZK9IWWKAW","","377.80000001192093","img/land6.png","75","378.30000001192093","2","1","1","2","0.8,0.2,0.2,0.2,0.8,0.2,0.2,0.2,0.8","0.2,0.8,0.2,0.2,0.2,0.8,0.8,0.2,0.2","3","",""
"","html-keyboard-response","226","129023","0.0-226.0","3JWH6J9I9TZFJACSX135KLH72Q0NB0","A3KH1OG87C8DCM","3P7RGTLO6EZ76AO3386R8ZK9IWWKAW","","null","<img src=""img/land6.png"" style=""width:200px; border:14px solid green;"">","null","","","","","","","","","",""
"","image-keyboard-response","227","129490","0.0-227.0","3JWH6J9I9TZFJACSX135KLH72Q0NB0","A3KH1OG87C8DCM","3P7RGTLO6EZ76AO3386R8ZK9IWWKAW","","465.60000002384186","img/land2.png","76","466","3","0","2","2","0.8,0.2,0.2,0.2,0.8,0.2,0.2,0.2,0.8","0.2,0.8,0.2,0.2,0.2,0.8,0.8,0.2,0.2","3","",""
"","html-keyboard-response","228","129791","0.0-228.0","3JWH6J9I9TZFJACSX135KLH72Q0NB0","A3KH1OG87C8DCM","3P7RGTLO6EZ76AO3386R8ZK9IWWKAW","","null","<img src=""img/land2.png"" style=""width:200px;border:14px solid red;"">","null","","","","","","","","","",""
"","image-keyboard-response","229","130266","0.0-229.0","3JWH6J9I9TZFJACSX135KLH72Q0NB0","A3KH1OG87C8DCM","3P7RGTLO6EZ76AO3386R8ZK9IWWKAW","","473.60000002384186","img/land2.png","75","474.10000002384186","2","1","2","2","0.8,0.2,0.2,0.2,0.8,0.2,0.2,0.2,0.8","0.2,0.8,0.2,0.2,0.2,0.8,0.8,0.2,0.2","3","",""
"","html-keyboard-response","230","130567","0.0-230.0","3JWH6J9I9TZFJACSX135KLH72Q0NB0","A3KH1OG87C8DCM","3P7RGTLO6EZ76AO3386R8ZK9IWWKAW","","null","<img src=""img/land2.png"" style=""width:200px; border:14px solid green;"">","null","","","","","","","","","",""
"","image-keyboard-response","231","131210","0.0-231.0","3JWH6J9I9TZFJACSX135KLH72Q0NB0","A3KH1OG87C8DCM","3P7RGTLO6EZ76AO3386R8ZK9IWWKAW","","641.7000000476837","img/land1.png","76","642.1999999880791","3","0","3","2","0.8,0.2,0.2,0.2,0.8,0.2,0.2,0.2,0.8","0.2,0.8,0.2,0.2,0.2,0.8,0.8,0.2,0.2","3","",""
"","html-keyboard-response","232","131512","0.0-232.0","3JWH6J9I9TZFJACSX135KLH72Q0NB0","A3KH1OG87C8DCM","3P7RGTLO6EZ76AO3386R8ZK9IWWKAW","","null","<img src=""img/land1.png"" style=""width:200px;border:14px solid red;"">","null","","","","","","","","","",""
"","image-keyboard-response","233","132002","0.0-233.0","3JWH6J9I9TZFJACSX135KLH72Q0NB0","A3KH1OG87C8DCM","3P7RGTLO6EZ76AO3386R8ZK9IWWKAW","","489.30000001192093","img/land6.png","75","490","2","1","1","2","0.8,0.2,0.2,0.2,0.8,0.2,0.2,0.2,0.8","0.2,0.8,0.2,0.2,0.2,0.8,0.8,0.2,0.2","3","",""
"","html-keyboard-response","234","132304","0.0-234.0","3JWH6J9I9TZFJACSX135KLH72Q0NB0","A3KH1OG87C8DCM","3P7RGTLO6EZ76AO3386R8ZK9IWWKAW","","null","<img src=""img/land6.png"" style=""width:200px; border:14px solid green;"">","null","","","","","","","","","",""
"","image-keyboard-response","235","132610","0.0-235.0","3JWH6J9I9TZFJACSX135KLH72Q0NB0","A3KH1OG87C8DCM","3P7RGTLO6EZ76AO3386R8ZK9IWWKAW","","305.30000001192093","img/land6.png","75","305.9000000357628","2","1","1","2","0.8,0.2,0.2,0.2,0.8,0.2,0.2,0.2,0.8","0.2,0.8,0.2,0.2,0.2,0.8,0.8,0.2,0.2","3","",""
"","html-keyboard-response","236","132911","0.0-236.0","3JWH6J9I9TZFJACSX135KLH72Q0NB0","A3KH1OG87C8DCM","3P7RGTLO6EZ76AO3386R8ZK9IWWKAW","","null","<img src=""img/land6.png"" style=""width:200px; border:14px solid green;"">","null","","","","","","","","","",""
"","image-keyboard-response","237","133266","0.0-237.0","3JWH6J9I9TZFJACSX135KLH72Q0NB0","A3KH1OG87C8DCM","3P7RGTLO6EZ76AO3386R8ZK9IWWKAW","","354","img/land6.png","75","354.5999999642372","2","0","1","2","0.8,0.2,0.2,0.2,0.8,0.2,0.2,0.2,0.8","0.2,0.8,0.2,0.2,0.2,0.8,0.8,0.2,0.2","3","",""
"","html-keyboard-response","238","133567","0.0-238.0","3JWH6J9I9TZFJACSX135KLH72Q0NB0","A3KH1OG87C8DCM","3P7RGTLO6EZ76AO3386R8ZK9IWWKAW","","null","<img src=""img/land6.png"" style=""width:200px;border:14px solid red;"">","null","","","","","","","","","",""
"","image-keyboard-response","239","133986","0.0-239.0","3JWH6J9I9TZFJACSX135KLH72Q0NB0","A3KH1OG87C8DCM","3P7RGTLO6EZ76AO3386R8ZK9IWWKAW","","417.80000001192093","img/land6.png","75","418.39999997615814","2","1","1","2","0.8,0.2,0.2,0.2,0.8,0.2,0.2,0.2,0.8","0.2,0.8,0.2,0.2,0.2,0.8,0.8,0.2,0.2","3","",""
"","html-keyboard-response","240","134287","0.0-240.0","3JWH6J9I9TZFJACSX135KLH72Q0NB0","A3KH1OG87C8DCM","3P7RGTLO6EZ76AO3386R8ZK9IWWKAW","","null","<img src=""img/land6.png"" style=""width:200px; border:14px solid green;"">","null","","","","","","","","","",""
"","image-keyboard-response","241","134714","0.0-241.0","3JWH6J9I9TZFJACSX135KLH72Q0NB0","A3KH1OG87C8DCM","3P7RGTLO6EZ76AO3386R8ZK9IWWKAW","","425.80000001192093","img/land6.png","75","426.19999998807907","2","1","1","2","0.8,0.2,0.2,0.2,0.8,0.2,0.2,0.2,0.8","0.2,0.8,0.2,0.2,0.2,0.8,0.8,0.2,0.2","3","",""
"","html-keyboard-response","242","135015","0.0-242.0","3JWH6J9I9TZFJACSX135KLH72Q0NB0","A3KH1OG87C8DCM","3P7RGTLO6EZ76AO3386R8ZK9IWWKAW","","null","<img src=""img/land6.png"" style=""width:200px; border:14px solid green;"">","null","","","","","","","","","",""
"","image-keyboard-response","243","135474","0.0-243.0","3JWH6J9I9TZFJACSX135KLH72Q0NB0","A3KH1OG87C8DCM","3P7RGTLO6EZ76AO3386R8ZK9IWWKAW","","457.60000002384186","img/land6.png","75","458.10000002384186","2","1","1","2","0.8,0.2,0.2,0.2,0.8,0.2,0.2,0.2,0.8","0.2,0.8,0.2,0.2,0.2,0.8,0.8,0.2,0.2","3","",""
"","html-keyboard-response","244","135775","0.0-244.0","3JWH6J9I9TZFJACSX135KLH72Q0NB0","A3KH1OG87C8DCM","3P7RGTLO6EZ76AO3386R8ZK9IWWKAW","","null","<img src=""img/land6.png"" style=""width:200px; border:14px solid green;"">","null","","","","","","","","","",""
"","image-keyboard-response","245","136146","0.0-245.0","3JWH6J9I9TZFJACSX135KLH72Q0NB0","A3KH1OG87C8DCM","3P7RGTLO6EZ76AO3386R8ZK9IWWKAW","","369.69999998807907","img/land6.png","75","370.19999998807907","2","1","1","2","0.8,0.2,0.2,0.2,0.8,0.2,0.2,0.2,0.8","0.2,0.8,0.2,0.2,0.2,0.8,0.8,0.2,0.2","3","",""
"","html-keyboard-response","246","136448","0.0-246.0","3JWH6J9I9TZFJACSX135KLH72Q0NB0","A3KH1OG87C8DCM","3P7RGTLO6EZ76AO3386R8ZK9IWWKAW","","null","<img src=""img/land6.png"" style=""width:200px; border:14px solid green;"">","null","","","","","","","","","",""
"","image-keyboard-response","247","136914","0.0-247.0","3JWH6J9I9TZFJACSX135KLH72Q0NB0","A3KH1OG87C8DCM","3P7RGTLO6EZ76AO3386R8ZK9IWWKAW","","465.4000000357628","img/land1.png","75","465.9000000357628","2","0","3","2","0.8,0.2,0.2,0.2,0.8,0.2,0.2,0.2,0.8","0.2,0.8,0.2,0.2,0.2,0.8,0.8,0.2,0.2","3","",""
"","html-keyboard-response","248","137215","0.0-248.0","3JWH6J9I9TZFJACSX135KLH72Q0NB0","A3KH1OG87C8DCM","3P7RGTLO6EZ76AO3386R8ZK9IWWKAW","","null","<img src=""img/land1.png"" style=""width:200px;border:14px solid red;"">","null","","","","","","","","","",""
"","image-keyboard-response","249","137762","0.0-249.0","3JWH6J9I9TZFJACSX135KLH72Q0NB0","A3KH1OG87C8DCM","3P7RGTLO6EZ76AO3386R8ZK9IWWKAW","","545.4000000357628","img/land6.png","75","546.0999999642372","2","1","1","2","0.8,0.2,0.2,0.2,0.8,0.2,0.2,0.2,0.8","0.2,0.8,0.2,0.2,0.2,0.8,0.8,0.2,0.2","3","",""
"","html-keyboard-response","250","138063","0.0-250.0","3JWH6J9I9TZFJACSX135KLH72Q0NB0","A3KH1OG87C8DCM","3P7RGTLO6EZ76AO3386R8ZK9IWWKAW","","null","<img src=""img/land6.png"" style=""width:200px; border:14px solid green;"">","null","","","","","","","","","",""
"","image-keyboard-response","251","138578","0.0-251.0","3JWH6J9I9TZFJACSX135KLH72Q0NB0","A3KH1OG87C8DCM","3P7RGTLO6EZ76AO3386R8ZK9IWWKAW","","513.6000000238419","img/land1.png","74","514.1999999880791","1","1","3","2","0.8,0.2,0.2,0.2,0.8,0.2,0.2,0.2,0.8","0.2,0.8,0.2,0.2,0.2,0.8,0.8,0.2,0.2","3","",""
"","html-keyboard-response","252","138880","0.0-252.0","3JWH6J9I9TZFJACSX135KLH72Q0NB0","A3KH1OG87C8DCM","3P7RGTLO6EZ76AO3386R8ZK9IWWKAW","","null","<img src=""img/land1.png"" style=""width:200px; border:14px solid green;"">","null","","","","","","","","","",""
"","image-keyboard-response","253","139298","0.0-253.0","3JWH6J9I9TZFJACSX135KLH72Q0NB0","A3KH1OG87C8DCM","3P7RGTLO6EZ76AO3386R8ZK9IWWKAW","","416.9000000357628","img/land6.png","75","417.4000000357628","2","1","1","2","0.8,0.2,0.2,0.2,0.8,0.2,0.2,0.2,0.8","0.2,0.8,0.2,0.2,0.2,0.8,0.8,0.2,0.2","3","",""
"","html-keyboard-response","254","139599","0.0-254.0","3JWH6J9I9TZFJACSX135KLH72Q0NB0","A3KH1OG87C8DCM","3P7RGTLO6EZ76AO3386R8ZK9IWWKAW","","null","<img src=""img/land6.png"" style=""width:200px; border:14px solid green;"">","null","","","","","","","","","",""
"","image-keyboard-response","255","140290","0.0-255.0","3JWH6J9I9TZFJACSX135KLH72Q0NB0","A3KH1OG87C8DCM","3P7RGTLO6EZ76AO3386R8ZK9IWWKAW","","689.7000000476837","img/land2.png","76","690.3000000119209","3","0","2","2","0.8,0.2,0.2,0.2,0.8,0.2,0.2,0.2,0.8","0.2,0.8,0.2,0.2,0.2,0.8,0.8,0.2,0.2","3","",""
"","html-keyboard-response","256","140598","0.0-256.0","3JWH6J9I9TZFJACSX135KLH72Q0NB0","A3KH1OG87C8DCM","3P7RGTLO6EZ76AO3386R8ZK9IWWKAW","","null","<img src=""img/land2.png"" style=""width:200px;border:14px solid red;"">","null","","","","","","","","","",""
"","image-keyboard-response","257","141130","0.0-257.0","3JWH6J9I9TZFJACSX135KLH72Q0NB0","A3KH1OG87C8DCM","3P7RGTLO6EZ76AO3386R8ZK9IWWKAW","","530.4000000357628","img/land6.png","75","531","2","1","1","2","0.8,0.2,0.2,0.2,0.8,0.2,0.2,0.2,0.8","0.2,0.8,0.2,0.2,0.2,0.8,0.8,0.2,0.2","3","",""
"","html-keyboard-response","258","141431","0.0-258.0","3JWH6J9I9TZFJACSX135KLH72Q0NB0","A3KH1OG87C8DCM","3P7RGTLO6EZ76AO3386R8ZK9IWWKAW","","null","<img src=""img/land6.png"" style=""width:200px; border:14px solid green;"">","null","","","","","","","","","",""
"","image-keyboard-response","259","141746","0.0-259.0","3JWH6J9I9TZFJACSX135KLH72Q0NB0","A3KH1OG87C8DCM","3P7RGTLO6EZ76AO3386R8ZK9IWWKAW","","313.7000000476837","img/land6.png","75","314.30000001192093","2","1","1","2","0.8,0.2,0.2,0.2,0.8,0.2,0.2,0.2,0.8","0.2,0.8,0.2,0.2,0.2,0.8,0.8,0.2,0.2","3","",""
"","html-keyboard-response","260","142048","0.0-260.0","3JWH6J9I9TZFJACSX135KLH72Q0NB0","A3KH1OG87C8DCM","3P7RGTLO6EZ76AO3386R8ZK9IWWKAW","","null","<img src=""img/land6.png"" style=""width:200px; border:14px solid green;"">","null","","","","","","","","","",""
"","image-keyboard-response","261","142474","0.0-261.0","3JWH6J9I9TZFJACSX135KLH72Q0NB0","A3KH1OG87C8DCM","3P7RGTLO6EZ76AO3386R8ZK9IWWKAW","","425.30000001192093","img/land2.png","75","425.89999997615814","2","0","2","2","0.8,0.2,0.2,0.2,0.8,0.2,0.2,0.2,0.8","0.2,0.8,0.2,0.2,0.2,0.8,0.8,0.2,0.2","3","",""
"","html-keyboard-response","262","142776","0.0-262.0","3JWH6J9I9TZFJACSX135KLH72Q0NB0","A3KH1OG87C8DCM","3P7RGTLO6EZ76AO3386R8ZK9IWWKAW","","null","<img src=""img/land2.png"" style=""width:200px;border:14px solid red;"">","null","","","","","","","","","",""
"","image-keyboard-response","263","143178","0.0-263.0","3JWH6J9I9TZFJACSX135KLH72Q0NB0","A3KH1OG87C8DCM","3P7RGTLO6EZ76AO3386R8ZK9IWWKAW","","401.30000001192093","img/land6.png","75","401.9000000357628","2","1","1","2","0.8,0.2,0.2,0.2,0.8,0.2,0.2,0.2,0.8","0.2,0.8,0.2,0.2,0.2,0.8,0.8,0.2,0.2","3","",""
"","html-keyboard-response","264","143480","0.0-264.0","3JWH6J9I9TZFJACSX135KLH72Q0NB0","A3KH1OG87C8DCM","3P7RGTLO6EZ76AO3386R8ZK9IWWKAW","","null","<img src=""img/land6.png"" style=""width:200px; border:14px solid green;"">","null","","","","","","","","","",""
"","image-keyboard-response","265","143786","0.0-265.0","3JWH6J9I9TZFJACSX135KLH72Q0NB0","A3KH1OG87C8DCM","3P7RGTLO6EZ76AO3386R8ZK9IWWKAW","","305.2000000476837","img/land6.png","75","305.7999999523163","2","0","1","2","0.8,0.2,0.2,0.2,0.8,0.2,0.2,0.2,0.8","0.2,0.8,0.2,0.2,0.2,0.8,0.8,0.2,0.2","3","",""
"","html-keyboard-response","266","144087","0.0-266.0","3JWH6J9I9TZFJACSX135KLH72Q0NB0","A3KH1OG87C8DCM","3P7RGTLO6EZ76AO3386R8ZK9IWWKAW","","null","<img src=""img/land6.png"" style=""width:200px;border:14px solid red;"">","null","","","","","","","","","",""
"","image-keyboard-response","267","144474","0.0-267.0","3JWH6J9I9TZFJACSX135KLH72Q0NB0","A3KH1OG87C8DCM","3P7RGTLO6EZ76AO3386R8ZK9IWWKAW","","385.89999997615814","img/land6.png","75","386.30000001192093","2","0","1","2","0.8,0.2,0.2,0.2,0.8,0.2,0.2,0.2,0.8","0.2,0.8,0.2,0.2,0.2,0.8,0.8,0.2,0.2","3","",""
"","html-keyboard-response","268","144775","0.0-268.0","3JWH6J9I9TZFJACSX135KLH72Q0NB0","A3KH1OG87C8DCM","3P7RGTLO6EZ76AO3386R8ZK9IWWKAW","","null","<img src=""img/land6.png"" style=""width:200px;border:14px solid red;"">","null","","","","","","","","","",""
"","image-keyboard-response","269","145154","0.0-269.0","3JWH6J9I9TZFJACSX135KLH72Q0NB0","A3KH1OG87C8DCM","3P7RGTLO6EZ76AO3386R8ZK9IWWKAW","","377.9000000357628","img/land6.png","75","378.39999997615814","2","1","1","2","0.8,0.2,0.2,0.2,0.8,0.2,0.2,0.2,0.8","0.2,0.8,0.2,0.2,0.2,0.8,0.8,0.2,0.2","3","",""
"","html-keyboard-response","270","145466","0.0-270.0","3JWH6J9I9TZFJACSX135KLH72Q0NB0","A3KH1OG87C8DCM","3P7RGTLO6EZ76AO3386R8ZK9IWWKAW","","null","<img src=""img/land6.png"" style=""width:200px; border:14px solid green;"">","null","","","","","","","","","",""
"","image-keyboard-response","271","145866","0.0-271.0","3JWH6J9I9TZFJACSX135KLH72Q0NB0","A3KH1OG87C8DCM","3P7RGTLO6EZ76AO3386R8ZK9IWWKAW","","399.4000000357628","img/land6.png","75","399.9000000357628","2","0","1","2","0.8,0.2,0.2,0.2,0.8,0.2,0.2,0.2,0.8","0.2,0.8,0.2,0.2,0.2,0.8,0.8,0.2,0.2","3","",""
"","html-keyboard-response","272","146168","0.0-272.0","3JWH6J9I9TZFJACSX135KLH72Q0NB0","A3KH1OG87C8DCM","3P7RGTLO6EZ76AO3386R8ZK9IWWKAW","","null","<img src=""img/land6.png"" style=""width:200px;border:14px solid red;"">","null","","","","","","","","","",""
"","image-keyboard-response","273","146610","0.0-273.0","3JWH6J9I9TZFJACSX135KLH72Q0NB0","A3KH1OG87C8DCM","3P7RGTLO6EZ76AO3386R8ZK9IWWKAW","","441.30000001192093","img/land6.png","75","441.9000000357628","2","1","1","2","0.8,0.2,0.2,0.2,0.8,0.2,0.2,0.2,0.8","0.2,0.8,0.2,0.2,0.2,0.8,0.8,0.2,0.2","3","",""
"","html-keyboard-response","274","146912","0.0-274.0","3JWH6J9I9TZFJACSX135KLH72Q0NB0","A3KH1OG87C8DCM","3P7RGTLO6EZ76AO3386R8ZK9IWWKAW","","null","<img src=""img/land6.png"" style=""width:200px; border:14px solid green;"">","null","","","","","","","","","",""
"","image-keyboard-response","275","147426","0.0-275.0","3JWH6J9I9TZFJACSX135KLH72Q0NB0","A3KH1OG87C8DCM","3P7RGTLO6EZ76AO3386R8ZK9IWWKAW","","513.4000000357628","img/land2.png","75","513.9000000357628","2","1","2","2","0.8,0.2,0.2,0.2,0.8,0.2,0.2,0.2,0.8","0.2,0.8,0.2,0.2,0.2,0.8,0.8,0.2,0.2","3","",""
"","html-keyboard-response","276","147727","0.0-276.0","3JWH6J9I9TZFJACSX135KLH72Q0NB0","A3KH1OG87C8DCM","3P7RGTLO6EZ76AO3386R8ZK9IWWKAW","","null","<img src=""img/land2.png"" style=""width:200px; border:14px solid green;"">","null","","","","","","","","","",""
"","image-keyboard-response","277","148226","0.0-277.0","3JWH6J9I9TZFJACSX135KLH72Q0NB0","A3KH1OG87C8DCM","3P7RGTLO6EZ76AO3386R8ZK9IWWKAW","","497.5","img/land1.png","74","498","1","1","3","2","0.8,0.2,0.2,0.2,0.8,0.2,0.2,0.2,0.8","0.2,0.8,0.2,0.2,0.2,0.8,0.8,0.2,0.2","3","",""
"","html-keyboard-response","278","148527","0.0-278.0","3JWH6J9I9TZFJACSX135KLH72Q0NB0","A3KH1OG87C8DCM","3P7RGTLO6EZ76AO3386R8ZK9IWWKAW","","null","<img src=""img/land1.png"" style=""width:200px; border:14px solid green;"">","null","","","","","","","","","",""
"","image-keyboard-response","279","149082","0.0-279.0","3JWH6J9I9TZFJACSX135KLH72Q0NB0","A3KH1OG87C8DCM","3P7RGTLO6EZ76AO3386R8ZK9IWWKAW","","553.8000000119209","img/land6.png","75","554.2999999523163","2","1","1","2","0.8,0.2,0.2,0.2,0.8,0.2,0.2,0.2,0.8","0.2,0.8,0.2,0.2,0.2,0.8,0.8,0.2,0.2","3","",""
"","html-keyboard-response","280","149384","0.0-280.0","3JWH6J9I9TZFJACSX135KLH72Q0NB0","A3KH1OG87C8DCM","3P7RGTLO6EZ76AO3386R8ZK9IWWKAW","","null","<img src=""img/land6.png"" style=""width:200px; border:14px solid green;"">","null","","","","","","","","","",""
"","image-keyboard-response","281","149698","0.0-281.0","3JWH6J9I9TZFJACSX135KLH72Q0NB0","A3KH1OG87C8DCM","3P7RGTLO6EZ76AO3386R8ZK9IWWKAW","","313","img/land6.png","75","313.5999999642372","2","1","1","2","0.8,0.2,0.2,0.2,0.8,0.2,0.2,0.2,0.8","0.2,0.8,0.2,0.2,0.2,0.8,0.8,0.2,0.2","3","",""
"","html-keyboard-response","282","149999","0.0-282.0","3JWH6J9I9TZFJACSX135KLH72Q0NB0","A3KH1OG87C8DCM","3P7RGTLO6EZ76AO3386R8ZK9IWWKAW","","null","<img src=""img/land6.png"" style=""width:200px; border:14px solid green;"">","null","","","","","","","","","",""
"","image-keyboard-response","283","150474","0.0-283.0","3JWH6J9I9TZFJACSX135KLH72Q0NB0","A3KH1OG87C8DCM","3P7RGTLO6EZ76AO3386R8ZK9IWWKAW","","473.7000000476837","img/land1.png","74","474.19999998807907","1","1","3","2","0.8,0.2,0.2,0.2,0.8,0.2,0.2,0.2,0.8","0.2,0.8,0.2,0.2,0.2,0.8,0.8,0.2,0.2","3","",""
"","html-keyboard-response","284","150781","0.0-284.0","3JWH6J9I9TZFJACSX135KLH72Q0NB0","A3KH1OG87C8DCM","3P7RGTLO6EZ76AO3386R8ZK9IWWKAW","","null","<img src=""img/land1.png"" style=""width:200px; border:14px solid green;"">","null","","","","","","","","","",""
"","image-keyboard-response","285","151145","0.0-285.0","3JWH6J9I9TZFJACSX135KLH72Q0NB0","A3KH1OG87C8DCM","3P7RGTLO6EZ76AO3386R8ZK9IWWKAW","","363.60000002384186","img/land6.png","75","364.19999998807907","2","1","1","2","0.8,0.2,0.2,0.2,0.8,0.2,0.2,0.2,0.8","0.2,0.8,0.2,0.2,0.2,0.8,0.8,0.2,0.2","3","",""
"","html-keyboard-response","286","151451","0.0-286.0","3JWH6J9I9TZFJACSX135KLH72Q0NB0","A3KH1OG87C8DCM","3P7RGTLO6EZ76AO3386R8ZK9IWWKAW","","null","<img src=""img/land6.png"" style=""width:200px; border:14px solid green;"">","null","","","","","","","","","",""
"","image-keyboard-response","287","151762","0.0-287.0","3JWH6J9I9TZFJACSX135KLH72Q0NB0","A3KH1OG87C8DCM","3P7RGTLO6EZ76AO3386R8ZK9IWWKAW","","309.4000000357628","img/land6.png","75","310.0999999642372","2","1","1","2","0.8,0.2,0.2,0.2,0.8,0.2,0.2,0.2,0.8","0.2,0.8,0.2,0.2,0.2,0.8,0.8,0.2,0.2","3","",""
"","html-keyboard-response","288","152064","0.0-288.0","3JWH6J9I9TZFJACSX135KLH72Q0NB0","A3KH1OG87C8DCM","3P7RGTLO6EZ76AO3386R8ZK9IWWKAW","","null","<img src=""img/land6.png"" style=""width:200px; border:14px solid green;"">","null","","","","","","","","","",""
"","image-keyboard-response","289","152538","0.0-289.0","3JWH6J9I9TZFJACSX135KLH72Q0NB0","A3KH1OG87C8DCM","3P7RGTLO6EZ76AO3386R8ZK9IWWKAW","","473","img/land1.png","75","473.60000002384186","2","0","3","2","0.8,0.2,0.2,0.2,0.8,0.2,0.2,0.2,0.8","0.2,0.8,0.2,0.2,0.2,0.8,0.8,0.2,0.2","3","",""
"","html-keyboard-response","290","152840","0.0-290.0","3JWH6J9I9TZFJACSX135KLH72Q0NB0","A3KH1OG87C8DCM","3P7RGTLO6EZ76AO3386R8ZK9IWWKAW","","null","<img src=""img/land1.png"" style=""width:200px;border:14px solid red;"">","null","","","","","","","","","",""
"","image-keyboard-response","291","153202","0.0-291.0","3JWH6J9I9TZFJACSX135KLH72Q0NB0","A3KH1OG87C8DCM","3P7RGTLO6EZ76AO3386R8ZK9IWWKAW","","361.2000000476837","img/land6.png","75","361.69999998807907","2","1","1","2","0.8,0.2,0.2,0.2,0.8,0.2,0.2,0.2,0.8","0.2,0.8,0.2,0.2,0.2,0.8,0.8,0.2,0.2","3","",""
"","html-keyboard-response","292","153504","0.0-292.0","3JWH6J9I9TZFJACSX135KLH72Q0NB0","A3KH1OG87C8DCM","3P7RGTLO6EZ76AO3386R8ZK9IWWKAW","","null","<img src=""img/land6.png"" style=""width:200px; border:14px solid green;"">","null","","","","","","","","","",""
"","image-keyboard-response","293","154130","0.0-293.0","3JWH6J9I9TZFJACSX135KLH72Q0NB0","A3KH1OG87C8DCM","3P7RGTLO6EZ76AO3386R8ZK9IWWKAW","","625.0999999642372","img/land2.png","75","625.5999999642372","2","0","2","2","0.8,0.2,0.2,0.2,0.8,0.2,0.2,0.2,0.8","0.2,0.8,0.2,0.2,0.2,0.8,0.8,0.2,0.2","3","",""
"","html-keyboard-response","294","154431","0.0-294.0","3JWH6J9I9TZFJACSX135KLH72Q0NB0","A3KH1OG87C8DCM","3P7RGTLO6EZ76AO3386R8ZK9IWWKAW","","null","<img src=""img/land2.png"" style=""width:200px;border:14px solid red;"">","null","","","","","","","","","",""
"","image-keyboard-response","295","154794","0.0-295.0","3JWH6J9I9TZFJACSX135KLH72Q0NB0","A3KH1OG87C8DCM","3P7RGTLO6EZ76AO3386R8ZK9IWWKAW","","361.5","img/land6.png","75","362","2","1","1","2","0.8,0.2,0.2,0.2,0.8,0.2,0.2,0.2,0.8","0.2,0.8,0.2,0.2,0.2,0.8,0.8,0.2,0.2","3","",""
"","html-keyboard-response","296","155096","0.0-296.0","3JWH6J9I9TZFJACSX135KLH72Q0NB0","A3KH1OG87C8DCM","3P7RGTLO6EZ76AO3386R8ZK9IWWKAW","","null","<img src=""img/land6.png"" style=""width:200px; border:14px solid green;"">","null","","","","","","","","","",""
"","image-keyboard-response","297","155490","0.0-297.0","3JWH6J9I9TZFJACSX135KLH72Q0NB0","A3KH1OG87C8DCM","3P7RGTLO6EZ76AO3386R8ZK9IWWKAW","","393.39999997615814","img/land6.png","75","393.89999997615814","2","1","1","2","0.8,0.2,0.2,0.2,0.8,0.2,0.2,0.2,0.8","0.2,0.8,0.2,0.2,0.2,0.8,0.8,0.2,0.2","3","",""
"","html-keyboard-response","298","155792","0.0-298.0","3JWH6J9I9TZFJACSX135KLH72Q0NB0","A3KH1OG87C8DCM","3P7RGTLO6EZ76AO3386R8ZK9IWWKAW","","null","<img src=""img/land6.png"" style=""width:200px; border:14px solid green;"">","null","","","","","","","","","",""
"","image-keyboard-response","299","156138","0.0-299.0","3JWH6J9I9TZFJACSX135KLH72Q0NB0","A3KH1OG87C8DCM","3P7RGTLO6EZ76AO3386R8ZK9IWWKAW","","345.30000001192093","img/land6.png","75","345.69999998807907","2","0","1","2","0.8,0.2,0.2,0.2,0.8,0.2,0.2,0.2,0.8","0.2,0.8,0.2,0.2,0.2,0.8,0.8,0.2,0.2","3","",""
"","html-keyboard-response","300","156439","0.0-300.0","3JWH6J9I9TZFJACSX135KLH72Q0NB0","A3KH1OG87C8DCM","3P7RGTLO6EZ76AO3386R8ZK9IWWKAW","","null","<img src=""img/land6.png"" style=""width:200px;border:14px solid red;"">","null","","","","","","","","","",""
"","image-keyboard-response","301","157114","0.0-301.0","3JWH6J9I9TZFJACSX135KLH72Q0NB0","A3KH1OG87C8DCM","3P7RGTLO6EZ76AO3386R8ZK9IWWKAW","","673.8000000119209","img/land6.png","75","674.4000000357628","2","1","1","2","0.8,0.2,0.2,0.2,0.8,0.2,0.2,0.2,0.8","0.2,0.8,0.2,0.2,0.2,0.8,0.8,0.2,0.2","3","",""
"","html-keyboard-response","302","157415","0.0-302.0","3JWH6J9I9TZFJACSX135KLH72Q0NB0","A3KH1OG87C8DCM","3P7RGTLO6EZ76AO3386R8ZK9IWWKAW","","null","<img src=""img/land6.png"" style=""width:200px; border:14px solid green;"">","null","","","","","","","","","",""
"","image-keyboard-response","303","157810","0.0-303.0","3JWH6J9I9TZFJACSX135KLH72Q0NB0","A3KH1OG87C8DCM","3P7RGTLO6EZ76AO3386R8ZK9IWWKAW","","393.5999999642372","img/land6.png","75","394","2","1","1","2","0.8,0.2,0.2,0.2,0.8,0.2,0.2,0.2,0.8","0.2,0.8,0.2,0.2,0.2,0.8,0.8,0.2,0.2","3","",""
"","html-keyboard-response","304","158112","0.0-304.0","3JWH6J9I9TZFJACSX135KLH72Q0NB0","A3KH1OG87C8DCM","3P7RGTLO6EZ76AO3386R8ZK9IWWKAW","","null","<img src=""img/land6.png"" style=""width:200px; border:14px solid green;"">","null","","","","","","","","","",""
"","image-keyboard-response","305","158642","0.0-305.0","3JWH6J9I9TZFJACSX135KLH72Q0NB0","A3KH1OG87C8DCM","3P7RGTLO6EZ76AO3386R8ZK9IWWKAW","","529.3000000119209","img/land1.png","74","529.8999999761581","1","1","3","2","0.8,0.2,0.2,0.2,0.8,0.2,0.2,0.2,0.8","0.2,0.8,0.2,0.2,0.2,0.8,0.8,0.2,0.2","3","",""
"","html-keyboard-response","306","158945","0.0-306.0","3JWH6J9I9TZFJACSX135KLH72Q0NB0","A3KH1OG87C8DCM","3P7RGTLO6EZ76AO3386R8ZK9IWWKAW","","null","<img src=""img/land1.png"" style=""width:200px; border:14px solid green;"">","null","","","","","","","","","",""
"","image-keyboard-response","307","159554","0.0-307.0","3JWH6J9I9TZFJACSX135KLH72Q0NB0","A3KH1OG87C8DCM","3P7RGTLO6EZ76AO3386R8ZK9IWWKAW","","607.6000000238419","img/land1.png","74","608","1","1","3","2","0.8,0.2,0.2,0.2,0.8,0.2,0.2,0.2,0.8","0.2,0.8,0.2,0.2,0.2,0.8,0.8,0.2,0.2","3","",""
"","html-keyboard-response","308","159865","0.0-308.0","3JWH6J9I9TZFJACSX135KLH72Q0NB0","A3KH1OG87C8DCM","3P7RGTLO6EZ76AO3386R8ZK9IWWKAW","","null","<img src=""img/land1.png"" style=""width:200px; border:14px solid green;"">","null","","","","","","","","","",""
"","image-keyboard-response","309","160306","0.0-309.0","3JWH6J9I9TZFJACSX135KLH72Q0NB0","A3KH1OG87C8DCM","3P7RGTLO6EZ76AO3386R8ZK9IWWKAW","","439.9000000357628","img/land2.png","75","440.5999999642372","2","0","2","2","0.8,0.2,0.2,0.2,0.8,0.2,0.2,0.2,0.8","0.2,0.8,0.2,0.2,0.2,0.8,0.8,0.2,0.2","3","",""
"","html-keyboard-response","310","160608","0.0-310.0","3JWH6J9I9TZFJACSX135KLH72Q0NB0","A3KH1OG87C8DCM","3P7RGTLO6EZ76AO3386R8ZK9IWWKAW","","null","<img src=""img/land2.png"" style=""width:200px;border:14px solid red;"">","null","","","","","","","","","",""
"","image-keyboard-response","311","161354","0.0-311.0","3JWH6J9I9TZFJACSX135KLH72Q0NB0","A3KH1OG87C8DCM","3P7RGTLO6EZ76AO3386R8ZK9IWWKAW","","745.0999999642372","img/land1.png","74","745.5999999642372","1","0","3","2","0.8,0.2,0.2,0.2,0.8,0.2,0.2,0.2,0.8","0.2,0.8,0.2,0.2,0.2,0.8,0.8,0.2,0.2","3","",""
"","html-keyboard-response","312","161655","0.0-312.0","3JWH6J9I9TZFJACSX135KLH72Q0NB0","A3KH1OG87C8DCM","3P7RGTLO6EZ76AO3386R8ZK9IWWKAW","","null","<img src=""img/land1.png"" style=""width:200px;border:14px solid red;"">","null","","","","","","","","","",""
"","image-keyboard-response","313","162186","0.0-313.0","3JWH6J9I9TZFJACSX135KLH72Q0NB0","A3KH1OG87C8DCM","3P7RGTLO6EZ76AO3386R8ZK9IWWKAW","","529.9000000357628","img/land6.png","75","530.3999999761581","2","1","1","2","0.8,0.2,0.2,0.2,0.8,0.2,0.2,0.2,0.8","0.2,0.8,0.2,0.2,0.2,0.8,0.8,0.2,0.2","3","",""
"","html-keyboard-response","314","162488","0.0-314.0","3JWH6J9I9TZFJACSX135KLH72Q0NB0","A3KH1OG87C8DCM","3P7RGTLO6EZ76AO3386R8ZK9IWWKAW","","null","<img src=""img/land6.png"" style=""width:200px; border:14px solid green;"">","null","","","","","","","","","",""
"","image-keyboard-response","315","163226","0.0-315.0","3JWH6J9I9TZFJACSX135KLH72Q0NB0","A3KH1OG87C8DCM","3P7RGTLO6EZ76AO3386R8ZK9IWWKAW","","737.1000000238419","img/land2.png","76","737.5","3","1","2","2","0.8,0.2,0.2,0.2,0.8,0.2,0.2,0.2,0.8","0.2,0.8,0.2,0.2,0.2,0.8,0.8,0.2,0.2","3","",""
"","html-keyboard-response","316","163527","0.0-316.0","3JWH6J9I9TZFJACSX135KLH72Q0NB0","A3KH1OG87C8DCM","3P7RGTLO6EZ76AO3386R8ZK9IWWKAW","","null","<img src=""img/land2.png"" style=""width:200px; border:14px solid green;"">","null","","","","","","","","","",""
"","image-keyboard-response","317","164018","0.0-317.0","3JWH6J9I9TZFJACSX135KLH72Q0NB0","A3KH1OG87C8DCM","3P7RGTLO6EZ76AO3386R8ZK9IWWKAW","","489.89999997615814","img/land1.png","75","490.5","2","0","3","2","0.8,0.2,0.2,0.2,0.8,0.2,0.2,0.2,0.8","0.2,0.8,0.2,0.2,0.2,0.8,0.8,0.2,0.2","3","",""
"","html-keyboard-response","318","164320","0.0-318.0","3JWH6J9I9TZFJACSX135KLH72Q0NB0","A3KH1OG87C8DCM","3P7RGTLO6EZ76AO3386R8ZK9IWWKAW","","null","<img src=""img/land1.png"" style=""width:200px;border:14px solid red;"">","null","","","","","","","","","",""
"","image-keyboard-response","319","164858","0.0-319.0","3JWH6J9I9TZFJACSX135KLH72Q0NB0","A3KH1OG87C8DCM","3P7RGTLO6EZ76AO3386R8ZK9IWWKAW","","537","img/land1.png","74","537.4000000357628","1","1","3","2","0.8,0.2,0.2,0.2,0.8,0.2,0.2,0.2,0.8","0.2,0.8,0.2,0.2,0.2,0.8,0.8,0.2,0.2","3","",""
"","html-keyboard-response","320","165160","0.0-320.0","3JWH6J9I9TZFJACSX135KLH72Q0NB0","A3KH1OG87C8DCM","3P7RGTLO6EZ76AO3386R8ZK9IWWKAW","","null","<img src=""img/land1.png"" style=""width:200px; border:14px solid green;"">","null","","","","","","","","","",""
"","image-keyboard-response","321","165706","0.0-321.0","3JWH6J9I9TZFJACSX135KLH72Q0NB0","A3KH1OG87C8DCM","3P7RGTLO6EZ76AO3386R8ZK9IWWKAW","","545.3000000119209","img/land6.png","75","545.8999999761581","2","1","1","2","0.8,0.2,0.2,0.2,0.8,0.2,0.2,0.2,0.8","0.2,0.8,0.2,0.2,0.2,0.8,0.8,0.2,0.2","3","",""
"","html-keyboard-response","322","166008","0.0-322.0","3JWH6J9I9TZFJACSX135KLH72Q0NB0","A3KH1OG87C8DCM","3P7RGTLO6EZ76AO3386R8ZK9IWWKAW","","null","<img src=""img/land6.png"" style=""width:200px; border:14px solid green;"">","null","","","","","","","","","",""
"","image-keyboard-response","323","166338","0.0-323.0","3JWH6J9I9TZFJACSX135KLH72Q0NB0","A3KH1OG87C8DCM","3P7RGTLO6EZ76AO3386R8ZK9IWWKAW","","329.39999997615814","img/land6.png","75","329.9000000357628","2","1","1","2","0.8,0.2,0.2,0.2,0.8,0.2,0.2,0.2,0.8","0.2,0.8,0.2,0.2,0.2,0.8,0.8,0.2,0.2","3","",""
"","html-keyboard-response","324","166640","0.0-324.0","3JWH6J9I9TZFJACSX135KLH72Q0NB0","A3KH1OG87C8DCM","3P7RGTLO6EZ76AO3386R8ZK9IWWKAW","","null","<img src=""img/land6.png"" style=""width:200px; border:14px solid green;"">","null","","","","","","","","","",""
"","image-keyboard-response","325","166954","0.0-325.0","3JWH6J9I9TZFJACSX135KLH72Q0NB0","A3KH1OG87C8DCM","3P7RGTLO6EZ76AO3386R8ZK9IWWKAW","","313.10000002384186","img/land6.png","75","313.60000002384186","2","1","1","2","0.8,0.2,0.2,0.2,0.8,0.2,0.2,0.2,0.8","0.2,0.8,0.2,0.2,0.2,0.8,0.8,0.2,0.2","3","",""
"","html-keyboard-response","326","167255","0.0-326.0","3JWH6J9I9TZFJACSX135KLH72Q0NB0","A3KH1OG87C8DCM","3P7RGTLO6EZ76AO3386R8ZK9IWWKAW","","null","<img src=""img/land6.png"" style=""width:200px; border:14px solid green;"">","null","","","","","","","","","",""
"","image-keyboard-response","327","167610","0.0-327.0","3JWH6J9I9TZFJACSX135KLH72Q0NB0","A3KH1OG87C8DCM","3P7RGTLO6EZ76AO3386R8ZK9IWWKAW","","353.89999997615814","img/land6.png","75","354.2999999523163","2","1","1","2","0.8,0.2,0.2,0.2,0.8,0.2,0.2,0.2,0.8","0.2,0.8,0.2,0.2,0.2,0.8,0.8,0.2,0.2","3","",""
"","html-keyboard-response","328","167911","0.0-328.0","3JWH6J9I9TZFJACSX135KLH72Q0NB0","A3KH1OG87C8DCM","3P7RGTLO6EZ76AO3386R8ZK9IWWKAW","","null","<img src=""img/land6.png"" style=""width:200px; border:14px solid green;"">","null","","","","","","","","","",""
"","image-keyboard-response","329","168250","0.0-329.0","3JWH6J9I9TZFJACSX135KLH72Q0NB0","A3KH1OG87C8DCM","3P7RGTLO6EZ76AO3386R8ZK9IWWKAW","","337.69999998807907","img/land6.png","75","338","2","1","1","2","0.8,0.2,0.2,0.2,0.8,0.2,0.2,0.2,0.8","0.2,0.8,0.2,0.2,0.2,0.8,0.8,0.2,0.2","3","",""
"","html-keyboard-response","330","168552","0.0-330.0","3JWH6J9I9TZFJACSX135KLH72Q0NB0","A3KH1OG87C8DCM","3P7RGTLO6EZ76AO3386R8ZK9IWWKAW","","null","<img src=""img/land6.png"" style=""width:200px; border:14px solid green;"">","null","","","","","","","","","",""
"","image-keyboard-response","331","168914","0.0-331.0","3JWH6J9I9TZFJACSX135KLH72Q0NB0","A3KH1OG87C8DCM","3P7RGTLO6EZ76AO3386R8ZK9IWWKAW","","361.2000000476837","img/land6.png","75","361.69999998807907","2","1","1","2","0.8,0.2,0.2,0.2,0.8,0.2,0.2,0.2,0.8","0.2,0.8,0.2,0.2,0.2,0.8,0.8,0.2,0.2","3","",""
"","html-keyboard-response","332","169216","0.0-332.0","3JWH6J9I9TZFJACSX135KLH72Q0NB0","A3KH1OG87C8DCM","3P7RGTLO6EZ76AO3386R8ZK9IWWKAW","","null","<img src=""img/land6.png"" style=""width:200px; border:14px solid green;"">","null","","","","","","","","","",""
"","image-keyboard-response","333","169562","0.0-333.0","3JWH6J9I9TZFJACSX135KLH72Q0NB0","A3KH1OG87C8DCM","3P7RGTLO6EZ76AO3386R8ZK9IWWKAW","","345","img/land6.png","75","345.5","2","1","1","2","0.8,0.2,0.2,0.2,0.8,0.2,0.2,0.2,0.8","0.2,0.8,0.2,0.2,0.2,0.8,0.8,0.2,0.2","3","",""
"","html-keyboard-response","334","169863","0.0-334.0","3JWH6J9I9TZFJACSX135KLH72Q0NB0","A3KH1OG87C8DCM","3P7RGTLO6EZ76AO3386R8ZK9IWWKAW","","null","<img src=""img/land6.png"" style=""width:200px; border:14px solid green;"">","null","","","","","","","","","",""
"","image-keyboard-response","335","170482","0.0-335.0","3JWH6J9I9TZFJACSX135KLH72Q0NB0","A3KH1OG87C8DCM","3P7RGTLO6EZ76AO3386R8ZK9IWWKAW","","617.8000000119209","img/land1.png","74","618.2999999523163","1","1","3","2","0.8,0.2,0.2,0.2,0.8,0.2,0.2,0.2,0.8","0.2,0.8,0.2,0.2,0.2,0.8,0.8,0.2,0.2","3","",""
"","html-keyboard-response","336","170784","0.0-336.0","3JWH6J9I9TZFJACSX135KLH72Q0NB0","A3KH1OG87C8DCM","3P7RGTLO6EZ76AO3386R8ZK9IWWKAW","","null","<img src=""img/land1.png"" style=""width:200px; border:14px solid green;"">","null","","","","","","","","","",""
"","image-keyboard-response","337","171242","0.0-337.0","3JWH6J9I9TZFJACSX135KLH72Q0NB0","A3KH1OG87C8DCM","3P7RGTLO6EZ76AO3386R8ZK9IWWKAW","","457.2000000476837","img/land6.png","75","457.80000001192093","2","1","1","2","0.8,0.2,0.2,0.2,0.8,0.2,0.2,0.2,0.8","0.2,0.8,0.2,0.2,0.2,0.8,0.8,0.2,0.2","3","",""
"","html-keyboard-response","338","171544","0.0-338.0","3JWH6J9I9TZFJACSX135KLH72Q0NB0","A3KH1OG87C8DCM","3P7RGTLO6EZ76AO3386R8ZK9IWWKAW","","null","<img src=""img/land6.png"" style=""width:200px; border:14px solid green;"">","null","","","","","","","","","",""
"","image-keyboard-response","339","171818","0.0-339.0","3JWH6J9I9TZFJACSX135KLH72Q0NB0","A3KH1OG87C8DCM","3P7RGTLO6EZ76AO3386R8ZK9IWWKAW","","273.39999997615814","img/land6.png","75","273.89999997615814","2","1","1","2","0.8,0.2,0.2,0.2,0.8,0.2,0.2,0.2,0.8","0.2,0.8,0.2,0.2,0.2,0.8,0.8,0.2,0.2","3","",""
"","html-keyboard-response","340","172119","0.0-340.0","3JWH6J9I9TZFJACSX135KLH72Q0NB0","A3KH1OG87C8DCM","3P7RGTLO6EZ76AO3386R8ZK9IWWKAW","","null","<img src=""img/land6.png"" style=""width:200px; border:14px solid green;"">","null","","","","","","","","","",""
"","image-keyboard-response","341","172682","0.0-341.0","3JWH6J9I9TZFJACSX135KLH72Q0NB0","A3KH1OG87C8DCM","3P7RGTLO6EZ76AO3386R8ZK9IWWKAW","","561.8999999761581","img/land2.png","76","562.2999999523163","3","1","2","2","0.8,0.2,0.2,0.2,0.8,0.2,0.2,0.2,0.8","0.2,0.8,0.2,0.2,0.2,0.8,0.8,0.2,0.2","3","",""
"","html-keyboard-response","342","172984","0.0-342.0","3JWH6J9I9TZFJACSX135KLH72Q0NB0","A3KH1OG87C8DCM","3P7RGTLO6EZ76AO3386R8ZK9IWWKAW","","null","<img src=""img/land2.png"" style=""width:200px; border:14px solid green;"">","null","","","","","","","","","",""
"","image-keyboard-response","343","173458","0.0-343.0","3JWH6J9I9TZFJACSX135KLH72Q0NB0","A3KH1OG87C8DCM","3P7RGTLO6EZ76AO3386R8ZK9IWWKAW","","473.10000002384186","img/land2.png","76","473.69999998807907","3","1","2","2","0.8,0.2,0.2,0.2,0.8,0.2,0.2,0.2,0.8","0.2,0.8,0.2,0.2,0.2,0.8,0.8,0.2,0.2","3","",""
"","html-keyboard-response","344","173760","0.0-344.0","3JWH6J9I9TZFJACSX135KLH72Q0NB0","A3KH1OG87C8DCM","3P7RGTLO6EZ76AO3386R8ZK9IWWKAW","","null","<img src=""img/land2.png"" style=""width:200px; border:14px solid green;"">","null","","","","","","","","","",""
"","image-keyboard-response","345","174122","0.0-345.0","3JWH6J9I9TZFJACSX135KLH72Q0NB0","A3KH1OG87C8DCM","3P7RGTLO6EZ76AO3386R8ZK9IWWKAW","","361.2000000476837","img/land2.png","76","361.60000002384186","3","1","2","2","0.8,0.2,0.2,0.2,0.8,0.2,0.2,0.2,0.8","0.2,0.8,0.2,0.2,0.2,0.8,0.8,0.2,0.2","3","",""
"","html-keyboard-response","346","174424","0.0-346.0","3JWH6J9I9TZFJACSX135KLH72Q0NB0","A3KH1OG87C8DCM","3P7RGTLO6EZ76AO3386R8ZK9IWWKAW","","null","<img src=""img/land2.png"" style=""width:200px; border:14px solid green;"">","null","","","","","","","","","",""
"","image-keyboard-response","347","174882","0.0-347.0","3JWH6J9I9TZFJACSX135KLH72Q0NB0","A3KH1OG87C8DCM","3P7RGTLO6EZ76AO3386R8ZK9IWWKAW","","456.9000000357628","img/land6.png","75","457.5","2","0","1","2","0.8,0.2,0.2,0.2,0.8,0.2,0.2,0.2,0.8","0.2,0.8,0.2,0.2,0.2,0.8,0.8,0.2,0.2","3","",""
"","html-keyboard-response","348","175184","0.0-348.0","3JWH6J9I9TZFJACSX135KLH72Q0NB0","A3KH1OG87C8DCM","3P7RGTLO6EZ76AO3386R8ZK9IWWKAW","","null","<img src=""img/land6.png"" style=""width:200px;border:14px solid red;"">","null","","","","","","","","","",""
"","image-keyboard-response","349","175794","0.0-349.0","3JWH6J9I9TZFJACSX135KLH72Q0NB0","A3KH1OG87C8DCM","3P7RGTLO6EZ76AO3386R8ZK9IWWKAW","","609","img/land2.png","76","609.6999999880791","3","1","2","2","0.8,0.2,0.2,0.2,0.8,0.2,0.2,0.2,0.8","0.2,0.8,0.2,0.2,0.2,0.8,0.8,0.2,0.2","3","",""
"","html-keyboard-response","350","176096","0.0-350.0","3JWH6J9I9TZFJACSX135KLH72Q0NB0","A3KH1OG87C8DCM","3P7RGTLO6EZ76AO3386R8ZK9IWWKAW","","null","<img src=""img/land2.png"" style=""width:200px; border:14px solid green;"">","null","","","","","","","","","",""
"","image-keyboard-response","351","176474","0.0-351.0","3JWH6J9I9TZFJACSX135KLH72Q0NB0","A3KH1OG87C8DCM","3P7RGTLO6EZ76AO3386R8ZK9IWWKAW","","377.4000000357628","img/land6.png","75","377.9000000357628","2","1","1","2","0.8,0.2,0.2,0.2,0.8,0.2,0.2,0.2,0.8","0.2,0.8,0.2,0.2,0.2,0.8,0.8,0.2,0.2","3","",""
"","html-keyboard-response","352","176776","0.0-352.0","3JWH6J9I9TZFJACSX135KLH72Q0NB0","A3KH1OG87C8DCM","3P7RGTLO6EZ76AO3386R8ZK9IWWKAW","","null","<img src=""img/land6.png"" style=""width:200px; border:14px solid green;"">","null","","","","","","","","","",""
"","image-keyboard-response","353","177130","0.0-353.0","3JWH6J9I9TZFJACSX135KLH72Q0NB0","A3KH1OG87C8DCM","3P7RGTLO6EZ76AO3386R8ZK9IWWKAW","","353.2000000476837","img/land1.png","76","353.69999998807907","3","0","3","2","0.8,0.2,0.2,0.2,0.8,0.2,0.2,0.2,0.8","0.2,0.8,0.2,0.2,0.2,0.8,0.8,0.2,0.2","3","",""
"","html-keyboard-response","354","177432","0.0-354.0","3JWH6J9I9TZFJACSX135KLH72Q0NB0","A3KH1OG87C8DCM","3P7RGTLO6EZ76AO3386R8ZK9IWWKAW","","null","<img src=""img/land1.png"" style=""width:200px;border:14px solid red;"">","null","","","","","","","","","",""
