"success","trial_type","trial_index","time_elapsed","internal_node_id","assignmentID","mturkID","hitID","view_history","rt","stimulus","key_press","reactionTime","a","r","warning","s","reward_cond","responses","question_order"
"true","fullscreen","0","2760","0.0-0.0","3ZSY5X72NYXKH2TTUDP8ZPMG7N4ROR","A3L0DCUXI7X3A9","3H6W48L9F4B5OEOMH57RM53Z4H1WP0","","","","","","","","","","","",""
"","instructions","1","21631","0.0-1.0","3ZSY5X72NYXKH2TTUDP8ZPMG7N4ROR","A3L0DCUXI7X3A9","3H6W48L9F4B5OEOMH57RM53Z4H1WP0","[{""page_index"":0,""viewing_time"":1922.2999999523163},{""page_index"":1,""viewing_time"":951.6000000238419},{""page_index"":2,""viewing_time"":1245.2000000476837},{""page_index"":3,""viewing_time"":579.0999999046326},{""page_index"":4,""viewing_time"":2416.9000000953674},{""page_index"":5,""viewing_time"":1348},{""page_index"":6,""viewing_time"":3399},{""page_index"":7,""viewing_time"":7006.099999904633}]","18868.799999952316","","","","","","","","","",""
"","image-keyboard-response","2","22640","0.0-2.0","3ZSY5X72NYXKH2TTUDP8ZPMG7N4ROR","A3L0DCUXI7X3A9","3H6W48L9F4B5OEOMH57RM53Z4H1WP0","","","img/land1.png","","1008.6000000238419","-1","0","true","3","1,0.5,0.5,0.5,1,0.5,0.5,0.5,1","",""
"","html-keyboard-response","3","22945","0.0-3.0","3ZSY5X72NYXKH2TTUDP8ZPMG7N4ROR","A3L0DCUXI7X3A9","3H6W48L9F4B5OEOMH57RM53Z4H1WP0","","null","<img src=""img/land1.png"" style=""width:200px;border:14px solid red;"">","null","","","","","","","",""
"","html-keyboard-response","4","29078","0.0-4.0-0.0","3ZSY5X72NYXKH2TTUDP8ZPMG7N4ROR","A3L0DCUXI7X3A9","3H6W48L9F4B5OEOMH57RM53Z4H1WP0","","","","","","","","","","","",""
"","image-keyboard-response","5","29642","0.0-5.0","3ZSY5X72NYXKH2TTUDP8ZPMG7N4ROR","A3L0DCUXI7X3A9","3H6W48L9F4B5OEOMH57RM53Z4H1WP0","","563.5","img/land5.png","74","563.8999999761581","1","1","false","1","1,0.5,0.5,0.5,1,0.5,0.5,0.5,1","",""
"","html-keyboard-response","6","29944","0.0-6.0","3ZSY5X72NYXKH2TTUDP8ZPMG7N4ROR","A3L0DCUXI7X3A9","3H6W48L9F4B5OEOMH57RM53Z4H1WP0","","null","<img src=""img/land5.png"" style=""width:200px; border:14px solid green;"">","null","","","","","","","",""
"","image-keyboard-response","7","30524","0.0-8.0","3ZSY5X72NYXKH2TTUDP8ZPMG7N4ROR","A3L0DCUXI7X3A9","3H6W48L9F4B5OEOMH57RM53Z4H1WP0","","578.4000000953674","img/land3.png","75","579.5","2","1","false","2","1,0.5,0.5,0.5,1,0.5,0.5,0.5,1","",""
"","html-keyboard-response","8","30827","0.0-9.0","3ZSY5X72NYXKH2TTUDP8ZPMG7N4ROR","A3L0DCUXI7X3A9","3H6W48L9F4B5OEOMH57RM53Z4H1WP0","","null","<img src=""img/land3.png"" style=""width:200px; border:14px solid green;"">","null","","","","","","","",""
"","image-keyboard-response","9","31419","0.0-11.0","3ZSY5X72NYXKH2TTUDP8ZPMG7N4ROR","A3L0DCUXI7X3A9","3H6W48L9F4B5OEOMH57RM53Z4H1WP0","","591.0999999046326","img/land5.png","74","592","1","1","false","1","1,0.5,0.5,0.5,1,0.5,0.5,0.5,1","",""
"","html-keyboard-response","10","31722","0.0-12.0","3ZSY5X72NYXKH2TTUDP8ZPMG7N4ROR","A3L0DCUXI7X3A9","3H6W48L9F4B5OEOMH57RM53Z4H1WP0","","null","<img src=""img/land5.png"" style=""width:200px; border:14px solid green;"">","null","","","","","","","",""
"","image-keyboard-response","11","32092","0.0-14.0","3ZSY5X72NYXKH2TTUDP8ZPMG7N4ROR","A3L0DCUXI7X3A9","3H6W48L9F4B5OEOMH57RM53Z4H1WP0","","367.7000000476837","img/land5.png","74","369","1","1","false","1","1,0.5,0.5,0.5,1,0.5,0.5,0.5,1","",""
"","html-keyboard-response","12","32395","0.0-15.0","3ZSY5X72NYXKH2TTUDP8ZPMG7N4ROR","A3L0DCUXI7X3A9","3H6W48L9F4B5OEOMH57RM53Z4H1WP0","","null","<img src=""img/land5.png"" style=""width:200px; border:14px solid green;"">","null","","","","","","","",""
"","image-keyboard-response","13","33035","0.0-17.0","3ZSY5X72NYXKH2TTUDP8ZPMG7N4ROR","A3L0DCUXI7X3A9","3H6W48L9F4B5OEOMH57RM53Z4H1WP0","","639","img/land1.png","76","639.7999999523163","3","1","false","3","1,0.5,0.5,0.5,1,0.5,0.5,0.5,1","",""
"","html-keyboard-response","14","33337","0.0-18.0","3ZSY5X72NYXKH2TTUDP8ZPMG7N4ROR","A3L0DCUXI7X3A9","3H6W48L9F4B5OEOMH57RM53Z4H1WP0","","null","<img src=""img/land1.png"" style=""width:200px; border:14px solid green;"">","null","","","","","","","",""
"","image-keyboard-response","15","33930","0.0-20.0","3ZSY5X72NYXKH2TTUDP8ZPMG7N4ROR","A3L0DCUXI7X3A9","3H6W48L9F4B5OEOMH57RM53Z4H1WP0","","591.7999999523163","img/land5.png","74","592.8000000715256","1","1","false","1","1,0.5,0.5,0.5,1,0.5,0.5,0.5,1","",""
"","html-keyboard-response","16","34232","0.0-21.0","3ZSY5X72NYXKH2TTUDP8ZPMG7N4ROR","A3L0DCUXI7X3A9","3H6W48L9F4B5OEOMH57RM53Z4H1WP0","","null","<img src=""img/land5.png"" style=""width:200px; border:14px solid green;"">","null","","","","","","","",""
"","image-keyboard-response","17","34636","0.0-23.0","3ZSY5X72NYXKH2TTUDP8ZPMG7N4ROR","A3L0DCUXI7X3A9","3H6W48L9F4B5OEOMH57RM53Z4H1WP0","","401.39999997615814","img/land3.png","75","402.89999997615814","2","1","false","2","1,0.5,0.5,0.5,1,0.5,0.5,0.5,1","",""
"","html-keyboard-response","18","34938","0.0-24.0","3ZSY5X72NYXKH2TTUDP8ZPMG7N4ROR","A3L0DCUXI7X3A9","3H6W48L9F4B5OEOMH57RM53Z4H1WP0","","null","<img src=""img/land3.png"" style=""width:200px; border:14px solid green;"">","null","","","","","","","",""
"","image-keyboard-response","19","35500","0.0-26.0","3ZSY5X72NYXKH2TTUDP8ZPMG7N4ROR","A3L0DCUXI7X3A9","3H6W48L9F4B5OEOMH57RM53Z4H1WP0","","560.5999999046326","img/land1.png","74","561.5","1","0","false","3","1,0.5,0.5,0.5,1,0.5,0.5,0.5,1","",""
"","html-keyboard-response","20","35803","0.0-27.0","3ZSY5X72NYXKH2TTUDP8ZPMG7N4ROR","A3L0DCUXI7X3A9","3H6W48L9F4B5OEOMH57RM53Z4H1WP0","","null","<img src=""img/land1.png"" style=""width:200px;border:14px solid red;"">","null","","","","","","","",""
"","image-keyboard-response","21","36362","0.0-29.0","3ZSY5X72NYXKH2TTUDP8ZPMG7N4ROR","A3L0DCUXI7X3A9","3H6W48L9F4B5OEOMH57RM53Z4H1WP0","","557.7999999523163","img/land1.png","75","558.8000000715256","2","1","false","3","1,0.5,0.5,0.5,1,0.5,0.5,0.5,1","",""
"","html-keyboard-response","22","36664","0.0-30.0","3ZSY5X72NYXKH2TTUDP8ZPMG7N4ROR","A3L0DCUXI7X3A9","3H6W48L9F4B5OEOMH57RM53Z4H1WP0","","null","<img src=""img/land1.png"" style=""width:200px; border:14px solid green;"">","null","","","","","","","",""
"","image-keyboard-response","23","37564","0.0-32.0","3ZSY5X72NYXKH2TTUDP8ZPMG7N4ROR","A3L0DCUXI7X3A9","3H6W48L9F4B5OEOMH57RM53Z4H1WP0","","897.3999999761581","img/land3.png","75","898.6999999284744","2","1","false","2","1,0.5,0.5,0.5,1,0.5,0.5,0.5,1","",""
"","html-keyboard-response","24","37866","0.0-33.0","3ZSY5X72NYXKH2TTUDP8ZPMG7N4ROR","A3L0DCUXI7X3A9","3H6W48L9F4B5OEOMH57RM53Z4H1WP0","","null","<img src=""img/land3.png"" style=""width:200px; border:14px solid green;"">","null","","","","","","","",""
"","image-keyboard-response","25","38604","0.0-35.0","3ZSY5X72NYXKH2TTUDP8ZPMG7N4ROR","A3L0DCUXI7X3A9","3H6W48L9F4B5OEOMH57RM53Z4H1WP0","","736","img/land1.png","74","737","1","1","false","3","1,0.5,0.5,0.5,1,0.5,0.5,0.5,1","",""
"","html-keyboard-response","26","38906","0.0-36.0","3ZSY5X72NYXKH2TTUDP8ZPMG7N4ROR","A3L0DCUXI7X3A9","3H6W48L9F4B5OEOMH57RM53Z4H1WP0","","null","<img src=""img/land1.png"" style=""width:200px; border:14px solid green;"">","null","","","","","","","",""
"","image-keyboard-response","27","39483","0.0-38.0","3ZSY5X72NYXKH2TTUDP8ZPMG7N4ROR","A3L0DCUXI7X3A9","3H6W48L9F4B5OEOMH57RM53Z4H1WP0","","576.5","img/land5.png","75","577.5","2","0","false","1","1,0.5,0.5,0.5,1,0.5,0.5,0.5,1","",""
"","html-keyboard-response","28","39785","0.0-39.0","3ZSY5X72NYXKH2TTUDP8ZPMG7N4ROR","A3L0DCUXI7X3A9","3H6W48L9F4B5OEOMH57RM53Z4H1WP0","","null","<img src=""img/land5.png"" style=""width:200px;border:14px solid red;"">","null","","","","","","","",""
"","image-keyboard-response","29","40381","0.0-41.0","3ZSY5X72NYXKH2TTUDP8ZPMG7N4ROR","A3L0DCUXI7X3A9","3H6W48L9F4B5OEOMH57RM53Z4H1WP0","","593.4000000953674","img/land5.png","74","594.8999999761581","1","1","false","1","1,0.5,0.5,0.5,1,0.5,0.5,0.5,1","",""
"","html-keyboard-response","30","40684","0.0-42.0","3ZSY5X72NYXKH2TTUDP8ZPMG7N4ROR","A3L0DCUXI7X3A9","3H6W48L9F4B5OEOMH57RM53Z4H1WP0","","null","<img src=""img/land5.png"" style=""width:200px; border:14px solid green;"">","null","","","","","","","",""
"","image-keyboard-response","31","41578","0.0-44.0","3ZSY5X72NYXKH2TTUDP8ZPMG7N4ROR","A3L0DCUXI7X3A9","3H6W48L9F4B5OEOMH57RM53Z4H1WP0","","892.5","img/land3.png","76","893.6000000238419","3","0","false","2","1,0.5,0.5,0.5,1,0.5,0.5,0.5,1","",""
"","html-keyboard-response","32","41880","0.0-45.0","3ZSY5X72NYXKH2TTUDP8ZPMG7N4ROR","A3L0DCUXI7X3A9","3H6W48L9F4B5OEOMH57RM53Z4H1WP0","","null","<img src=""img/land3.png"" style=""width:200px;border:14px solid red;"">","null","","","","","","","",""
"","image-keyboard-response","33","42883","0.0-47.0","3ZSY5X72NYXKH2TTUDP8ZPMG7N4ROR","A3L0DCUXI7X3A9","3H6W48L9F4B5OEOMH57RM53Z4H1WP0","","","img/land1.png","","1002","-1","0","true","3","1,0.5,0.5,0.5,1,0.5,0.5,0.5,1","",""
"","html-keyboard-response","34","43185","0.0-48.0","3ZSY5X72NYXKH2TTUDP8ZPMG7N4ROR","A3L0DCUXI7X3A9","3H6W48L9F4B5OEOMH57RM53Z4H1WP0","","null","<img src=""img/land1.png"" style=""width:200px;border:14px solid red;"">","null","","","","","","","",""
"","html-keyboard-response","35","50708","0.0-49.0-0.0","3ZSY5X72NYXKH2TTUDP8ZPMG7N4ROR","A3L0DCUXI7X3A9","3H6W48L9F4B5OEOMH57RM53Z4H1WP0","","","","","","","","","","","",""
"","image-keyboard-response","36","51468","0.0-50.0","3ZSY5X72NYXKH2TTUDP8ZPMG7N4ROR","A3L0DCUXI7X3A9","3H6W48L9F4B5OEOMH57RM53Z4H1WP0","","759","img/land3.png","75","759.7999999523163","2","1","false","2","1,0.5,0.5,0.5,1,0.5,0.5,0.5,1","",""
"","html-keyboard-response","37","51771","0.0-51.0","3ZSY5X72NYXKH2TTUDP8ZPMG7N4ROR","A3L0DCUXI7X3A9","3H6W48L9F4B5OEOMH57RM53Z4H1WP0","","null","<img src=""img/land3.png"" style=""width:200px; border:14px solid green;"">","null","","","","","","","",""
"","image-keyboard-response","38","52395","0.0-53.0","3ZSY5X72NYXKH2TTUDP8ZPMG7N4ROR","A3L0DCUXI7X3A9","3H6W48L9F4B5OEOMH57RM53Z4H1WP0","","622.1000000238419","img/land5.png","74","623.6000000238419","1","1","false","1","1,0.5,0.5,0.5,1,0.5,0.5,0.5,1","",""
"","html-keyboard-response","39","52698","0.0-54.0","3ZSY5X72NYXKH2TTUDP8ZPMG7N4ROR","A3L0DCUXI7X3A9","3H6W48L9F4B5OEOMH57RM53Z4H1WP0","","null","<img src=""img/land5.png"" style=""width:200px; border:14px solid green;"">","null","","","","","","","",""
"","image-keyboard-response","40","53035","0.0-56.0","3ZSY5X72NYXKH2TTUDP8ZPMG7N4ROR","A3L0DCUXI7X3A9","3H6W48L9F4B5OEOMH57RM53Z4H1WP0","","335.39999997615814","img/land5.png","74","336.7000000476837","1","1","false","1","1,0.5,0.5,0.5,1,0.5,0.5,0.5,1","",""
"","html-keyboard-response","41","53338","0.0-57.0","3ZSY5X72NYXKH2TTUDP8ZPMG7N4ROR","A3L0DCUXI7X3A9","3H6W48L9F4B5OEOMH57RM53Z4H1WP0","","null","<img src=""img/land5.png"" style=""width:200px; border:14px solid green;"">","null","","","","","","","",""
"","image-keyboard-response","42","53708","0.0-59.0","3ZSY5X72NYXKH2TTUDP8ZPMG7N4ROR","A3L0DCUXI7X3A9","3H6W48L9F4B5OEOMH57RM53Z4H1WP0","","367.60000002384186","img/land5.png","74","368.7999999523163","1","1","false","1","1,0.5,0.5,0.5,1,0.5,0.5,0.5,1","",""
"","html-keyboard-response","43","54011","0.0-60.0","3ZSY5X72NYXKH2TTUDP8ZPMG7N4ROR","A3L0DCUXI7X3A9","3H6W48L9F4B5OEOMH57RM53Z4H1WP0","","null","<img src=""img/land5.png"" style=""width:200px; border:14px solid green;"">","null","","","","","","","",""
"","image-keyboard-response","44","54715","0.0-62.0","3ZSY5X72NYXKH2TTUDP8ZPMG7N4ROR","A3L0DCUXI7X3A9","3H6W48L9F4B5OEOMH57RM53Z4H1WP0","","702.9000000953674","img/land3.png","75","703.9000000953674","2","1","false","2","1,0.5,0.5,0.5,1,0.5,0.5,0.5,1","",""
"","html-keyboard-response","45","55018","0.0-63.0","3ZSY5X72NYXKH2TTUDP8ZPMG7N4ROR","A3L0DCUXI7X3A9","3H6W48L9F4B5OEOMH57RM53Z4H1WP0","","null","<img src=""img/land3.png"" style=""width:200px; border:14px solid green;"">","null","","","","","","","",""
"","image-keyboard-response","46","55674","0.0-65.0","3ZSY5X72NYXKH2TTUDP8ZPMG7N4ROR","A3L0DCUXI7X3A9","3H6W48L9F4B5OEOMH57RM53Z4H1WP0","","654.1999999284744","img/land1.png","76","655.2000000476837","3","1","false","3","1,0.5,0.5,0.5,1,0.5,0.5,0.5,1","",""
"","html-keyboard-response","47","55976","0.0-66.0","3ZSY5X72NYXKH2TTUDP8ZPMG7N4ROR","A3L0DCUXI7X3A9","3H6W48L9F4B5OEOMH57RM53Z4H1WP0","","null","<img src=""img/land1.png"" style=""width:200px; border:14px solid green;"">","null","","","","","","","",""
"","image-keyboard-response","48","56700","0.0-68.0","3ZSY5X72NYXKH2TTUDP8ZPMG7N4ROR","A3L0DCUXI7X3A9","3H6W48L9F4B5OEOMH57RM53Z4H1WP0","","723.5","img/land3.png","75","724.2999999523163","2","1","false","2","1,0.5,0.5,0.5,1,0.5,0.5,0.5,1","",""
"","html-keyboard-response","49","57003","0.0-69.0","3ZSY5X72NYXKH2TTUDP8ZPMG7N4ROR","A3L0DCUXI7X3A9","3H6W48L9F4B5OEOMH57RM53Z4H1WP0","","null","<img src=""img/land3.png"" style=""width:200px; border:14px solid green;"">","null","","","","","","","",""
"","image-keyboard-response","50","57660","0.0-71.0","3ZSY5X72NYXKH2TTUDP8ZPMG7N4ROR","A3L0DCUXI7X3A9","3H6W48L9F4B5OEOMH57RM53Z4H1WP0","","655.7999999523163","img/land5.png","74","656.6000000238419","1","1","false","1","1,0.5,0.5,0.5,1,0.5,0.5,0.5,1","",""
"","html-keyboard-response","51","57971","0.0-72.0","3ZSY5X72NYXKH2TTUDP8ZPMG7N4ROR","A3L0DCUXI7X3A9","3H6W48L9F4B5OEOMH57RM53Z4H1WP0","","null","<img src=""img/land5.png"" style=""width:200px; border:14px solid green;"">","null","","","","","","","",""
"","image-keyboard-response","52","58684","0.0-74.0","3ZSY5X72NYXKH2TTUDP8ZPMG7N4ROR","A3L0DCUXI7X3A9","3H6W48L9F4B5OEOMH57RM53Z4H1WP0","","711.7000000476837","img/land1.png","76","712.5999999046326","3","1","false","3","1,0.5,0.5,0.5,1,0.5,0.5,0.5,1","",""
"","html-keyboard-response","53","58987","0.0-75.0","3ZSY5X72NYXKH2TTUDP8ZPMG7N4ROR","A3L0DCUXI7X3A9","3H6W48L9F4B5OEOMH57RM53Z4H1WP0","","null","<img src=""img/land1.png"" style=""width:200px; border:14px solid green;"">","null","","","","","","","",""
"","image-keyboard-response","54","59308","0.0-77.0","3ZSY5X72NYXKH2TTUDP8ZPMG7N4ROR","A3L0DCUXI7X3A9","3H6W48L9F4B5OEOMH57RM53Z4H1WP0","","320.5","img/land1.png","76","321.3000000715256","3","1","false","3","1,0.5,0.5,0.5,1,0.5,0.5,0.5,1","",""
"","html-keyboard-response","55","59610","0.0-78.0","3ZSY5X72NYXKH2TTUDP8ZPMG7N4ROR","A3L0DCUXI7X3A9","3H6W48L9F4B5OEOMH57RM53Z4H1WP0","","null","<img src=""img/land1.png"" style=""width:200px; border:14px solid green;"">","null","","","","","","","",""
"","image-keyboard-response","56","60380","0.0-80.0","3ZSY5X72NYXKH2TTUDP8ZPMG7N4ROR","A3L0DCUXI7X3A9","3H6W48L9F4B5OEOMH57RM53Z4H1WP0","","768.7999999523163","img/land5.png","75","769.6000000238419","2","1","false","1","1,0.5,0.5,0.5,1,0.5,0.5,0.5,1","",""
"","html-keyboard-response","57","60682","0.0-81.0","3ZSY5X72NYXKH2TTUDP8ZPMG7N4ROR","A3L0DCUXI7X3A9","3H6W48L9F4B5OEOMH57RM53Z4H1WP0","","null","<img src=""img/land5.png"" style=""width:200px; border:14px solid green;"">","null","","","","","","","",""
"","image-keyboard-response","58","61563","0.0-83.0","3ZSY5X72NYXKH2TTUDP8ZPMG7N4ROR","A3L0DCUXI7X3A9","3H6W48L9F4B5OEOMH57RM53Z4H1WP0","","879.3000000715256","img/land1.png","75","880.7000000476837","2","1","false","3","1,0.5,0.5,0.5,1,0.5,0.5,0.5,1","",""
"","html-keyboard-response","59","61865","0.0-84.0","3ZSY5X72NYXKH2TTUDP8ZPMG7N4ROR","A3L0DCUXI7X3A9","3H6W48L9F4B5OEOMH57RM53Z4H1WP0","","null","<img src=""img/land1.png"" style=""width:200px; border:14px solid green;"">","null","","","","","","","",""
"","image-keyboard-response","60","62300","0.0-86.0","3ZSY5X72NYXKH2TTUDP8ZPMG7N4ROR","A3L0DCUXI7X3A9","3H6W48L9F4B5OEOMH57RM53Z4H1WP0","","432.1999999284744","img/land1.png","75","433.5","2","1","false","3","1,0.5,0.5,0.5,1,0.5,0.5,0.5,1","",""
"","html-keyboard-response","61","62602","0.0-87.0","3ZSY5X72NYXKH2TTUDP8ZPMG7N4ROR","A3L0DCUXI7X3A9","3H6W48L9F4B5OEOMH57RM53Z4H1WP0","","null","<img src=""img/land1.png"" style=""width:200px; border:14px solid green;"">","null","","","","","","","",""
"","image-keyboard-response","62","63435","0.0-89.0","3ZSY5X72NYXKH2TTUDP8ZPMG7N4ROR","A3L0DCUXI7X3A9","3H6W48L9F4B5OEOMH57RM53Z4H1WP0","","832.4000000953674","img/land3.png","74","833.2999999523163","1","1","false","2","1,0.5,0.5,0.5,1,0.5,0.5,0.5,1","",""
"","html-keyboard-response","63","63740","0.0-90.0","3ZSY5X72NYXKH2TTUDP8ZPMG7N4ROR","A3L0DCUXI7X3A9","3H6W48L9F4B5OEOMH57RM53Z4H1WP0","","null","<img src=""img/land3.png"" style=""width:200px; border:14px solid green;"">","null","","","","","","","",""
"","image-keyboard-response","64","64556","0.0-92.0","3ZSY5X72NYXKH2TTUDP8ZPMG7N4ROR","A3L0DCUXI7X3A9","3H6W48L9F4B5OEOMH57RM53Z4H1WP0","","814.6000000238419","img/land5.png","74","816.1000000238419","1","1","false","1","1,0.5,0.5,0.5,1,0.5,0.5,0.5,1","",""
"","html-keyboard-response","65","64859","0.0-93.0","3ZSY5X72NYXKH2TTUDP8ZPMG7N4ROR","A3L0DCUXI7X3A9","3H6W48L9F4B5OEOMH57RM53Z4H1WP0","","null","<img src=""img/land5.png"" style=""width:200px; border:14px solid green;"">","null","","","","","","","",""
"","image-keyboard-response","66","65499","0.0-95.0","3ZSY5X72NYXKH2TTUDP8ZPMG7N4ROR","A3L0DCUXI7X3A9","3H6W48L9F4B5OEOMH57RM53Z4H1WP0","","638","img/land3.png","75","639.2999999523163","2","1","false","2","1,0.5,0.5,0.5,1,0.5,0.5,0.5,1","",""
"","html-keyboard-response","67","65802","0.0-96.0","3ZSY5X72NYXKH2TTUDP8ZPMG7N4ROR","A3L0DCUXI7X3A9","3H6W48L9F4B5OEOMH57RM53Z4H1WP0","","null","<img src=""img/land3.png"" style=""width:200px; border:14px solid green;"">","null","","","","","","","",""
"","image-keyboard-response","68","66122","0.0-98.0","3ZSY5X72NYXKH2TTUDP8ZPMG7N4ROR","A3L0DCUXI7X3A9","3H6W48L9F4B5OEOMH57RM53Z4H1WP0","","317.89999997615814","img/land3.png","75","319","2","1","false","2","1,0.5,0.5,0.5,1,0.5,0.5,0.5,1","",""
"","html-keyboard-response","69","66424","0.0-99.0","3ZSY5X72NYXKH2TTUDP8ZPMG7N4ROR","A3L0DCUXI7X3A9","3H6W48L9F4B5OEOMH57RM53Z4H1WP0","","null","<img src=""img/land3.png"" style=""width:200px; border:14px solid green;"">","null","","","","","","","",""
"","image-keyboard-response","70","67083","0.0-101.0","3ZSY5X72NYXKH2TTUDP8ZPMG7N4ROR","A3L0DCUXI7X3A9","3H6W48L9F4B5OEOMH57RM53Z4H1WP0","","658.1000000238419","img/land1.png","76","658.8999999761581","3","1","false","3","1,0.5,0.5,0.5,1,0.5,0.5,0.5,1","",""
"","html-keyboard-response","71","67385","0.0-102.0","3ZSY5X72NYXKH2TTUDP8ZPMG7N4ROR","A3L0DCUXI7X3A9","3H6W48L9F4B5OEOMH57RM53Z4H1WP0","","null","<img src=""img/land1.png"" style=""width:200px; border:14px solid green;"">","null","","","","","","","",""
"","image-keyboard-response","72","67979","0.0-104.0","3ZSY5X72NYXKH2TTUDP8ZPMG7N4ROR","A3L0DCUXI7X3A9","3H6W48L9F4B5OEOMH57RM53Z4H1WP0","","592.2000000476837","img/land5.png","74","593.6000000238419","1","1","false","1","1,0.5,0.5,0.5,1,0.5,0.5,0.5,1","",""
"","html-keyboard-response","73","68281","0.0-105.0","3ZSY5X72NYXKH2TTUDP8ZPMG7N4ROR","A3L0DCUXI7X3A9","3H6W48L9F4B5OEOMH57RM53Z4H1WP0","","null","<img src=""img/land5.png"" style=""width:200px; border:14px solid green;"">","null","","","","","","","",""
"","image-keyboard-response","74","68635","0.0-107.0","3ZSY5X72NYXKH2TTUDP8ZPMG7N4ROR","A3L0DCUXI7X3A9","3H6W48L9F4B5OEOMH57RM53Z4H1WP0","","351.7999999523163","img/land5.png","74","353.1999999284744","1","1","false","1","1,0.5,0.5,0.5,1,0.5,0.5,0.5,1","",""
"","html-keyboard-response","75","68937","0.0-108.0","3ZSY5X72NYXKH2TTUDP8ZPMG7N4ROR","A3L0DCUXI7X3A9","3H6W48L9F4B5OEOMH57RM53Z4H1WP0","","null","<img src=""img/land5.png"" style=""width:200px; border:14px solid green;"">","null","","","","","","","",""
"","image-keyboard-response","76","69499","0.0-110.0","3ZSY5X72NYXKH2TTUDP8ZPMG7N4ROR","A3L0DCUXI7X3A9","3H6W48L9F4B5OEOMH57RM53Z4H1WP0","","561.2000000476837","img/land1.png","76","562.1000000238419","3","1","false","3","1,0.5,0.5,0.5,1,0.5,0.5,0.5,1","",""
"","html-keyboard-response","77","69802","0.0-111.0","3ZSY5X72NYXKH2TTUDP8ZPMG7N4ROR","A3L0DCUXI7X3A9","3H6W48L9F4B5OEOMH57RM53Z4H1WP0","","null","<img src=""img/land1.png"" style=""width:200px; border:14px solid green;"">","null","","","","","","","",""
"","image-keyboard-response","78","70107","0.0-113.0","3ZSY5X72NYXKH2TTUDP8ZPMG7N4ROR","A3L0DCUXI7X3A9","3H6W48L9F4B5OEOMH57RM53Z4H1WP0","","302.7000000476837","img/land1.png","76","304","3","1","false","3","1,0.5,0.5,0.5,1,0.5,0.5,0.5,1","",""
"","html-keyboard-response","79","70409","0.0-114.0","3ZSY5X72NYXKH2TTUDP8ZPMG7N4ROR","A3L0DCUXI7X3A9","3H6W48L9F4B5OEOMH57RM53Z4H1WP0","","null","<img src=""img/land1.png"" style=""width:200px; border:14px solid green;"">","null","","","","","","","",""
"","image-keyboard-response","80","71339","0.0-116.0","3ZSY5X72NYXKH2TTUDP8ZPMG7N4ROR","A3L0DCUXI7X3A9","3H6W48L9F4B5OEOMH57RM53Z4H1WP0","","927.9000000953674","img/land3.png","75","929.2000000476837","2","1","false","2","1,0.5,0.5,0.5,1,0.5,0.5,0.5,1","",""
"","html-keyboard-response","81","71641","0.0-117.0","3ZSY5X72NYXKH2TTUDP8ZPMG7N4ROR","A3L0DCUXI7X3A9","3H6W48L9F4B5OEOMH57RM53Z4H1WP0","","null","<img src=""img/land3.png"" style=""width:200px; border:14px solid green;"">","null","","","","","","","",""
"","image-keyboard-response","82","71962","0.0-119.0","3ZSY5X72NYXKH2TTUDP8ZPMG7N4ROR","A3L0DCUXI7X3A9","3H6W48L9F4B5OEOMH57RM53Z4H1WP0","","319.1999999284744","img/land3.png","75","320.5","2","1","false","2","1,0.5,0.5,0.5,1,0.5,0.5,0.5,1","",""
"","html-keyboard-response","83","72265","0.0-120.0","3ZSY5X72NYXKH2TTUDP8ZPMG7N4ROR","A3L0DCUXI7X3A9","3H6W48L9F4B5OEOMH57RM53Z4H1WP0","","null","<img src=""img/land3.png"" style=""width:200px; border:14px solid green;"">","null","","","","","","","",""
"","image-keyboard-response","84","72586","0.0-122.0","3ZSY5X72NYXKH2TTUDP8ZPMG7N4ROR","A3L0DCUXI7X3A9","3H6W48L9F4B5OEOMH57RM53Z4H1WP0","","320.40000009536743","img/land3.png","75","320.89999997615814","2","1","false","2","1,0.5,0.5,0.5,1,0.5,0.5,0.5,1","",""
"","html-keyboard-response","85","72887","0.0-123.0","3ZSY5X72NYXKH2TTUDP8ZPMG7N4ROR","A3L0DCUXI7X3A9","3H6W48L9F4B5OEOMH57RM53Z4H1WP0","","null","<img src=""img/land3.png"" style=""width:200px; border:14px solid green;"">","null","","","","","","","",""
"","image-keyboard-response","86","73659","0.0-125.0","3ZSY5X72NYXKH2TTUDP8ZPMG7N4ROR","A3L0DCUXI7X3A9","3H6W48L9F4B5OEOMH57RM53Z4H1WP0","","771.2000000476837","img/land1.png","76","772.2999999523163","3","1","false","3","1,0.5,0.5,0.5,1,0.5,0.5,0.5,1","",""
"","html-keyboard-response","87","73962","0.0-126.0","3ZSY5X72NYXKH2TTUDP8ZPMG7N4ROR","A3L0DCUXI7X3A9","3H6W48L9F4B5OEOMH57RM53Z4H1WP0","","null","<img src=""img/land1.png"" style=""width:200px; border:14px solid green;"">","null","","","","","","","",""
"","image-keyboard-response","88","74282","0.0-128.0","3ZSY5X72NYXKH2TTUDP8ZPMG7N4ROR","A3L0DCUXI7X3A9","3H6W48L9F4B5OEOMH57RM53Z4H1WP0","","318","img/land1.png","76","319.10000002384186","3","1","false","3","1,0.5,0.5,0.5,1,0.5,0.5,0.5,1","",""
"","html-keyboard-response","89","74584","0.0-129.0","3ZSY5X72NYXKH2TTUDP8ZPMG7N4ROR","A3L0DCUXI7X3A9","3H6W48L9F4B5OEOMH57RM53Z4H1WP0","","null","<img src=""img/land1.png"" style=""width:200px; border:14px solid green;"">","null","","","","","","","",""
"","image-keyboard-response","90","74907","0.0-131.0","3ZSY5X72NYXKH2TTUDP8ZPMG7N4ROR","A3L0DCUXI7X3A9","3H6W48L9F4B5OEOMH57RM53Z4H1WP0","","321.3000000715256","img/land1.png","76","322.7000000476837","3","1","false","3","1,0.5,0.5,0.5,1,0.5,0.5,0.5,1","",""
"","html-keyboard-response","91","75209","0.0-132.0","3ZSY5X72NYXKH2TTUDP8ZPMG7N4ROR","A3L0DCUXI7X3A9","3H6W48L9F4B5OEOMH57RM53Z4H1WP0","","null","<img src=""img/land1.png"" style=""width:200px; border:14px solid green;"">","null","","","","","","","",""
"","image-keyboard-response","92","76027","0.0-134.0","3ZSY5X72NYXKH2TTUDP8ZPMG7N4ROR","A3L0DCUXI7X3A9","3H6W48L9F4B5OEOMH57RM53Z4H1WP0","","817","img/land5.png","74","817.8999999761581","1","1","false","1","1,0.5,0.5,0.5,1,0.5,0.5,0.5,1","",""
"","html-keyboard-response","93","76329","0.0-135.0","3ZSY5X72NYXKH2TTUDP8ZPMG7N4ROR","A3L0DCUXI7X3A9","3H6W48L9F4B5OEOMH57RM53Z4H1WP0","","null","<img src=""img/land5.png"" style=""width:200px; border:14px solid green;"">","null","","","","","","","",""
"","image-keyboard-response","94","76651","0.0-137.0","3ZSY5X72NYXKH2TTUDP8ZPMG7N4ROR","A3L0DCUXI7X3A9","3H6W48L9F4B5OEOMH57RM53Z4H1WP0","","321","img/land5.png","74","321.7999999523163","1","1","false","1","1,0.5,0.5,0.5,1,0.5,0.5,0.5,1","",""
"","html-keyboard-response","95","76955","0.0-138.0","3ZSY5X72NYXKH2TTUDP8ZPMG7N4ROR","A3L0DCUXI7X3A9","3H6W48L9F4B5OEOMH57RM53Z4H1WP0","","null","<img src=""img/land5.png"" style=""width:200px; border:14px solid green;"">","null","","","","","","","",""
"","image-keyboard-response","96","77723","0.0-140.0","3ZSY5X72NYXKH2TTUDP8ZPMG7N4ROR","A3L0DCUXI7X3A9","3H6W48L9F4B5OEOMH57RM53Z4H1WP0","","766.5","img/land1.png","76","767.7999999523163","3","1","false","3","1,0.5,0.5,0.5,1,0.5,0.5,0.5,1","",""
"","html-keyboard-response","97","78026","0.0-141.0","3ZSY5X72NYXKH2TTUDP8ZPMG7N4ROR","A3L0DCUXI7X3A9","3H6W48L9F4B5OEOMH57RM53Z4H1WP0","","null","<img src=""img/land1.png"" style=""width:200px; border:14px solid green;"">","null","","","","","","","",""
"","image-keyboard-response","98","78747","0.0-143.0","3ZSY5X72NYXKH2TTUDP8ZPMG7N4ROR","A3L0DCUXI7X3A9","3H6W48L9F4B5OEOMH57RM53Z4H1WP0","","718.8999999761581","img/land5.png","74","720.2000000476837","1","1","false","1","1,0.5,0.5,0.5,1,0.5,0.5,0.5,1","",""
"","html-keyboard-response","99","79049","0.0-144.0","3ZSY5X72NYXKH2TTUDP8ZPMG7N4ROR","A3L0DCUXI7X3A9","3H6W48L9F4B5OEOMH57RM53Z4H1WP0","","null","<img src=""img/land5.png"" style=""width:200px; border:14px solid green;"">","null","","","","","","","",""
"","image-keyboard-response","100","79675","0.0-146.0","3ZSY5X72NYXKH2TTUDP8ZPMG7N4ROR","A3L0DCUXI7X3A9","3H6W48L9F4B5OEOMH57RM53Z4H1WP0","","623.7000000476837","img/land3.png","75","624.8999999761581","2","1","false","2","1,0.5,0.5,0.5,1,0.5,0.5,0.5,1","",""
"","html-keyboard-response","101","79977","0.0-147.0","3ZSY5X72NYXKH2TTUDP8ZPMG7N4ROR","A3L0DCUXI7X3A9","3H6W48L9F4B5OEOMH57RM53Z4H1WP0","","null","<img src=""img/land3.png"" style=""width:200px; border:14px solid green;"">","null","","","","","","","",""
"","image-keyboard-response","102","80697","0.0-149.0","3ZSY5X72NYXKH2TTUDP8ZPMG7N4ROR","A3L0DCUXI7X3A9","3H6W48L9F4B5OEOMH57RM53Z4H1WP0","","718.3999999761581","img/land5.png","74","719.5","1","1","false","1","1,0.5,0.5,0.5,1,0.5,0.5,0.5,1","",""
"","html-keyboard-response","103","80999","0.0-150.0","3ZSY5X72NYXKH2TTUDP8ZPMG7N4ROR","A3L0DCUXI7X3A9","3H6W48L9F4B5OEOMH57RM53Z4H1WP0","","null","<img src=""img/land5.png"" style=""width:200px; border:14px solid green;"">","null","","","","","","","",""
"","image-keyboard-response","104","81723","0.0-152.0","3ZSY5X72NYXKH2TTUDP8ZPMG7N4ROR","A3L0DCUXI7X3A9","3H6W48L9F4B5OEOMH57RM53Z4H1WP0","","721.8999999761581","img/land1.png","76","723.5","3","1","false","3","1,0.5,0.5,0.5,1,0.5,0.5,0.5,1","",""
"","html-keyboard-response","105","82027","0.0-153.0","3ZSY5X72NYXKH2TTUDP8ZPMG7N4ROR","A3L0DCUXI7X3A9","3H6W48L9F4B5OEOMH57RM53Z4H1WP0","","null","<img src=""img/land1.png"" style=""width:200px; border:14px solid green;"">","null","","","","","","","",""
"","image-keyboard-response","106","82571","0.0-155.0","3ZSY5X72NYXKH2TTUDP8ZPMG7N4ROR","A3L0DCUXI7X3A9","3H6W48L9F4B5OEOMH57RM53Z4H1WP0","","542.1000000238419","img/land5.png","74","543.3999999761581","1","1","false","1","1,0.5,0.5,0.5,1,0.5,0.5,0.5,1","",""
"","html-keyboard-response","107","82874","0.0-156.0","3ZSY5X72NYXKH2TTUDP8ZPMG7N4ROR","A3L0DCUXI7X3A9","3H6W48L9F4B5OEOMH57RM53Z4H1WP0","","null","<img src=""img/land5.png"" style=""width:200px; border:14px solid green;"">","null","","","","","","","",""
"","image-keyboard-response","108","83371","0.0-158.0","3ZSY5X72NYXKH2TTUDP8ZPMG7N4ROR","A3L0DCUXI7X3A9","3H6W48L9F4B5OEOMH57RM53Z4H1WP0","","495.2000000476837","img/land1.png","76","496.5","3","1","false","3","1,0.5,0.5,0.5,1,0.5,0.5,0.5,1","",""
"","html-keyboard-response","109","83673","0.0-159.0","3ZSY5X72NYXKH2TTUDP8ZPMG7N4ROR","A3L0DCUXI7X3A9","3H6W48L9F4B5OEOMH57RM53Z4H1WP0","","null","<img src=""img/land1.png"" style=""width:200px; border:14px solid green;"">","null","","","","","","","",""
"","image-keyboard-response","110","84330","0.0-161.0","3ZSY5X72NYXKH2TTUDP8ZPMG7N4ROR","A3L0DCUXI7X3A9","3H6W48L9F4B5OEOMH57RM53Z4H1WP0","","655.7999999523163","img/land3.png","75","656.5999999046326","2","1","false","2","1,0.5,0.5,0.5,1,0.5,0.5,0.5,1","",""
"","html-keyboard-response","111","84632","0.0-162.0","3ZSY5X72NYXKH2TTUDP8ZPMG7N4ROR","A3L0DCUXI7X3A9","3H6W48L9F4B5OEOMH57RM53Z4H1WP0","","null","<img src=""img/land3.png"" style=""width:200px; border:14px solid green;"">","null","","","","","","","",""
"","image-keyboard-response","112","85163","0.0-164.0","3ZSY5X72NYXKH2TTUDP8ZPMG7N4ROR","A3L0DCUXI7X3A9","3H6W48L9F4B5OEOMH57RM53Z4H1WP0","","529.6000000238419","img/land1.png","74","530.7000000476837","1","0","false","3","1,0.5,0.5,0.5,1,0.5,0.5,0.5,1","",""
"","html-keyboard-response","113","85466","0.0-165.0","3ZSY5X72NYXKH2TTUDP8ZPMG7N4ROR","A3L0DCUXI7X3A9","3H6W48L9F4B5OEOMH57RM53Z4H1WP0","","null","<img src=""img/land1.png"" style=""width:200px;border:14px solid red;"">","null","","","","","","","",""
"","image-keyboard-response","114","86105","0.0-167.0","3ZSY5X72NYXKH2TTUDP8ZPMG7N4ROR","A3L0DCUXI7X3A9","3H6W48L9F4B5OEOMH57RM53Z4H1WP0","","637.3999999761581","img/land5.png","74","638.4000000953674","1","1","false","1","1,0.5,0.5,0.5,1,0.5,0.5,0.5,1","",""
"","html-keyboard-response","115","86407","0.0-168.0","3ZSY5X72NYXKH2TTUDP8ZPMG7N4ROR","A3L0DCUXI7X3A9","3H6W48L9F4B5OEOMH57RM53Z4H1WP0","","null","<img src=""img/land5.png"" style=""width:200px; border:14px solid green;"">","null","","","","","","","",""
"","image-keyboard-response","116","86955","0.0-170.0","3ZSY5X72NYXKH2TTUDP8ZPMG7N4ROR","A3L0DCUXI7X3A9","3H6W48L9F4B5OEOMH57RM53Z4H1WP0","","546.5999999046326","img/land1.png","76","547.8999999761581","3","1","false","3","1,0.5,0.5,0.5,1,0.5,0.5,0.5,1","",""
"","html-keyboard-response","117","87258","0.0-171.0","3ZSY5X72NYXKH2TTUDP8ZPMG7N4ROR","A3L0DCUXI7X3A9","3H6W48L9F4B5OEOMH57RM53Z4H1WP0","","null","<img src=""img/land1.png"" style=""width:200px; border:14px solid green;"">","null","","","","","","","",""
"","image-keyboard-response","118","87835","0.0-173.0","3ZSY5X72NYXKH2TTUDP8ZPMG7N4ROR","A3L0DCUXI7X3A9","3H6W48L9F4B5OEOMH57RM53Z4H1WP0","","574.5","img/land3.png","75","575.8999999761581","2","1","false","2","1,0.5,0.5,0.5,1,0.5,0.5,0.5,1","",""
"","html-keyboard-response","119","88137","0.0-174.0","3ZSY5X72NYXKH2TTUDP8ZPMG7N4ROR","A3L0DCUXI7X3A9","3H6W48L9F4B5OEOMH57RM53Z4H1WP0","","null","<img src=""img/land3.png"" style=""width:200px; border:14px solid green;"">","null","","","","","","","",""
"","image-keyboard-response","120","88812","0.0-176.0","3ZSY5X72NYXKH2TTUDP8ZPMG7N4ROR","A3L0DCUXI7X3A9","3H6W48L9F4B5OEOMH57RM53Z4H1WP0","","672.7999999523163","img/land1.png","76","674.2000000476837","3","1","false","3","1,0.5,0.5,0.5,1,0.5,0.5,0.5,1","",""
"","html-keyboard-response","121","89114","0.0-177.0","3ZSY5X72NYXKH2TTUDP8ZPMG7N4ROR","A3L0DCUXI7X3A9","3H6W48L9F4B5OEOMH57RM53Z4H1WP0","","null","<img src=""img/land1.png"" style=""width:200px; border:14px solid green;"">","null","","","","","","","",""
"","image-keyboard-response","122","89851","0.0-179.0","3ZSY5X72NYXKH2TTUDP8ZPMG7N4ROR","A3L0DCUXI7X3A9","3H6W48L9F4B5OEOMH57RM53Z4H1WP0","","735.8000000715256","img/land5.png","74","736.5","1","1","false","1","1,0.5,0.5,0.5,1,0.5,0.5,0.5,1","",""
"","html-keyboard-response","123","90154","0.0-180.0","3ZSY5X72NYXKH2TTUDP8ZPMG7N4ROR","A3L0DCUXI7X3A9","3H6W48L9F4B5OEOMH57RM53Z4H1WP0","","null","<img src=""img/land5.png"" style=""width:200px; border:14px solid green;"">","null","","","","","","","",""
"","image-keyboard-response","124","91115","0.0-182.0","3ZSY5X72NYXKH2TTUDP8ZPMG7N4ROR","A3L0DCUXI7X3A9","3H6W48L9F4B5OEOMH57RM53Z4H1WP0","","959.7000000476837","img/land3.png","75","961.2000000476837","2","1","false","2","1,0.5,0.5,0.5,1,0.5,0.5,0.5,1","",""
"","html-keyboard-response","125","91418","0.0-183.0","3ZSY5X72NYXKH2TTUDP8ZPMG7N4ROR","A3L0DCUXI7X3A9","3H6W48L9F4B5OEOMH57RM53Z4H1WP0","","null","<img src=""img/land3.png"" style=""width:200px; border:14px solid green;"">","null","","","","","","","",""
"","image-keyboard-response","126","92122","0.0-185.0","3ZSY5X72NYXKH2TTUDP8ZPMG7N4ROR","A3L0DCUXI7X3A9","3H6W48L9F4B5OEOMH57RM53Z4H1WP0","","700","img/land1.png","76","701","3","1","false","3","1,0.5,0.5,0.5,1,0.5,0.5,0.5,1","",""
"","html-keyboard-response","127","92423","0.0-186.0","3ZSY5X72NYXKH2TTUDP8ZPMG7N4ROR","A3L0DCUXI7X3A9","3H6W48L9F4B5OEOMH57RM53Z4H1WP0","","null","<img src=""img/land1.png"" style=""width:200px; border:14px solid green;"">","null","","","","","","","",""
"","image-keyboard-response","128","92777","0.0-188.0","3ZSY5X72NYXKH2TTUDP8ZPMG7N4ROR","A3L0DCUXI7X3A9","3H6W48L9F4B5OEOMH57RM53Z4H1WP0","","352.7000000476837","img/land1.png","76","353.7000000476837","3","1","false","3","1,0.5,0.5,0.5,1,0.5,0.5,0.5,1","",""
"","html-keyboard-response","129","93079","0.0-189.0","3ZSY5X72NYXKH2TTUDP8ZPMG7N4ROR","A3L0DCUXI7X3A9","3H6W48L9F4B5OEOMH57RM53Z4H1WP0","","null","<img src=""img/land1.png"" style=""width:200px; border:14px solid green;"">","null","","","","","","","",""
"","image-keyboard-response","130","93739","0.0-191.0","3ZSY5X72NYXKH2TTUDP8ZPMG7N4ROR","A3L0DCUXI7X3A9","3H6W48L9F4B5OEOMH57RM53Z4H1WP0","","658","img/land5.png","74","659.5","1","1","false","1","1,0.5,0.5,0.5,1,0.5,0.5,0.5,1","",""
"","html-keyboard-response","131","94042","0.0-192.0","3ZSY5X72NYXKH2TTUDP8ZPMG7N4ROR","A3L0DCUXI7X3A9","3H6W48L9F4B5OEOMH57RM53Z4H1WP0","","null","<img src=""img/land5.png"" style=""width:200px; border:14px solid green;"">","null","","","","","","","",""
"","image-keyboard-response","132","94443","0.0-194.0","3ZSY5X72NYXKH2TTUDP8ZPMG7N4ROR","A3L0DCUXI7X3A9","3H6W48L9F4B5OEOMH57RM53Z4H1WP0","","399.1999999284744","img/land5.png","74","400.5","1","1","false","1","1,0.5,0.5,0.5,1,0.5,0.5,0.5,1","",""
"","html-keyboard-response","133","94746","0.0-195.0","3ZSY5X72NYXKH2TTUDP8ZPMG7N4ROR","A3L0DCUXI7X3A9","3H6W48L9F4B5OEOMH57RM53Z4H1WP0","","null","<img src=""img/land5.png"" style=""width:200px; border:14px solid green;"">","null","","","","","","","",""
"","image-keyboard-response","134","95451","0.0-197.0","3ZSY5X72NYXKH2TTUDP8ZPMG7N4ROR","A3L0DCUXI7X3A9","3H6W48L9F4B5OEOMH57RM53Z4H1WP0","","703.1999999284744","img/land3.png","75","704.6999999284744","2","1","false","2","1,0.5,0.5,0.5,1,0.5,0.5,0.5,1","",""
"","html-keyboard-response","135","95753","0.0-198.0","3ZSY5X72NYXKH2TTUDP8ZPMG7N4ROR","A3L0DCUXI7X3A9","3H6W48L9F4B5OEOMH57RM53Z4H1WP0","","null","<img src=""img/land3.png"" style=""width:200px; border:14px solid green;"">","null","","","","","","","",""
"","image-keyboard-response","136","96426","0.0-200.0","3ZSY5X72NYXKH2TTUDP8ZPMG7N4ROR","A3L0DCUXI7X3A9","3H6W48L9F4B5OEOMH57RM53Z4H1WP0","","670.5","img/land1.png","76","671.5999999046326","3","1","false","3","1,0.5,0.5,0.5,1,0.5,0.5,0.5,1","",""
"","html-keyboard-response","137","96728","0.0-201.0","3ZSY5X72NYXKH2TTUDP8ZPMG7N4ROR","A3L0DCUXI7X3A9","3H6W48L9F4B5OEOMH57RM53Z4H1WP0","","null","<img src=""img/land1.png"" style=""width:200px; border:14px solid green;"">","null","","","","","","","",""
"","image-keyboard-response","138","97452","0.0-203.0","3ZSY5X72NYXKH2TTUDP8ZPMG7N4ROR","A3L0DCUXI7X3A9","3H6W48L9F4B5OEOMH57RM53Z4H1WP0","","721.8999999761581","img/land5.png","74","723.2999999523163","1","1","false","1","1,0.5,0.5,0.5,1,0.5,0.5,0.5,1","",""
"","html-keyboard-response","139","97754","0.0-204.0","3ZSY5X72NYXKH2TTUDP8ZPMG7N4ROR","A3L0DCUXI7X3A9","3H6W48L9F4B5OEOMH57RM53Z4H1WP0","","null","<img src=""img/land5.png"" style=""width:200px; border:14px solid green;"">","null","","","","","","","",""
"","image-keyboard-response","140","98315","0.0-206.0","3ZSY5X72NYXKH2TTUDP8ZPMG7N4ROR","A3L0DCUXI7X3A9","3H6W48L9F4B5OEOMH57RM53Z4H1WP0","","559.4000000953674","img/land3.png","75","560.6999999284744","2","1","false","2","1,0.5,0.5,0.5,1,0.5,0.5,0.5,1","",""
"","html-keyboard-response","141","98618","0.0-207.0","3ZSY5X72NYXKH2TTUDP8ZPMG7N4ROR","A3L0DCUXI7X3A9","3H6W48L9F4B5OEOMH57RM53Z4H1WP0","","null","<img src=""img/land3.png"" style=""width:200px; border:14px solid green;"">","null","","","","","","","",""
"","image-keyboard-response","142","99018","0.0-209.0","3ZSY5X72NYXKH2TTUDP8ZPMG7N4ROR","A3L0DCUXI7X3A9","3H6W48L9F4B5OEOMH57RM53Z4H1WP0","","399","img/land3.png","75","400.2000000476837","2","1","false","2","1,0.5,0.5,0.5,1,0.5,0.5,0.5,1","",""
"","html-keyboard-response","143","99321","0.0-210.0","3ZSY5X72NYXKH2TTUDP8ZPMG7N4ROR","A3L0DCUXI7X3A9","3H6W48L9F4B5OEOMH57RM53Z4H1WP0","","null","<img src=""img/land3.png"" style=""width:200px; border:14px solid green;"">","null","","","","","","","",""
"","image-keyboard-response","144","99691","0.0-212.0","3ZSY5X72NYXKH2TTUDP8ZPMG7N4ROR","A3L0DCUXI7X3A9","3H6W48L9F4B5OEOMH57RM53Z4H1WP0","","367.7999999523163","img/land3.png","75","369.2000000476837","2","1","false","2","1,0.5,0.5,0.5,1,0.5,0.5,0.5,1","",""
"","html-keyboard-response","145","99994","0.0-213.0","3ZSY5X72NYXKH2TTUDP8ZPMG7N4ROR","A3L0DCUXI7X3A9","3H6W48L9F4B5OEOMH57RM53Z4H1WP0","","null","<img src=""img/land3.png"" style=""width:200px; border:14px solid green;"">","null","","","","","","","",""
"","image-keyboard-response","146","100347","0.0-215.0","3ZSY5X72NYXKH2TTUDP8ZPMG7N4ROR","A3L0DCUXI7X3A9","3H6W48L9F4B5OEOMH57RM53Z4H1WP0","","351.7000000476837","img/land3.png","75","353","2","1","false","2","1,0.5,0.5,0.5,1,0.5,0.5,0.5,1","",""
"","html-keyboard-response","147","100650","0.0-216.0","3ZSY5X72NYXKH2TTUDP8ZPMG7N4ROR","A3L0DCUXI7X3A9","3H6W48L9F4B5OEOMH57RM53Z4H1WP0","","null","<img src=""img/land3.png"" style=""width:200px; border:14px solid green;"">","null","","","","","","","",""
"","image-keyboard-response","148","101035","0.0-218.0","3ZSY5X72NYXKH2TTUDP8ZPMG7N4ROR","A3L0DCUXI7X3A9","3H6W48L9F4B5OEOMH57RM53Z4H1WP0","","382.8000000715256","img/land3.png","75","384.2000000476837","2","1","false","2","1,0.5,0.5,0.5,1,0.5,0.5,0.5,1","",""
"","html-keyboard-response","149","101338","0.0-219.0","3ZSY5X72NYXKH2TTUDP8ZPMG7N4ROR","A3L0DCUXI7X3A9","3H6W48L9F4B5OEOMH57RM53Z4H1WP0","","null","<img src=""img/land3.png"" style=""width:200px; border:14px solid green;"">","null","","","","","","","",""
"","image-keyboard-response","150","101914","0.0-221.0","3ZSY5X72NYXKH2TTUDP8ZPMG7N4ROR","A3L0DCUXI7X3A9","3H6W48L9F4B5OEOMH57RM53Z4H1WP0","","574.2000000476837","img/land1.png","76","575.1999999284744","3","1","false","3","1,0.5,0.5,0.5,1,0.5,0.5,0.5,1","",""
"","html-keyboard-response","151","102216","0.0-222.0","3ZSY5X72NYXKH2TTUDP8ZPMG7N4ROR","A3L0DCUXI7X3A9","3H6W48L9F4B5OEOMH57RM53Z4H1WP0","","null","<img src=""img/land1.png"" style=""width:200px; border:14px solid green;"">","null","","","","","","","",""
"","image-keyboard-response","152","102715","0.0-224.0","3ZSY5X72NYXKH2TTUDP8ZPMG7N4ROR","A3L0DCUXI7X3A9","3H6W48L9F4B5OEOMH57RM53Z4H1WP0","","496.7999999523163","img/land3.png","75","498.2999999523163","2","1","false","2","1,0.5,0.5,0.5,1,0.5,0.5,0.5,1","",""
"","html-keyboard-response","153","103017","0.0-225.0","3ZSY5X72NYXKH2TTUDP8ZPMG7N4ROR","A3L0DCUXI7X3A9","3H6W48L9F4B5OEOMH57RM53Z4H1WP0","","null","<img src=""img/land3.png"" style=""width:200px; border:14px solid green;"">","null","","","","","","","",""
"","image-keyboard-response","154","103611","0.0-227.0","3ZSY5X72NYXKH2TTUDP8ZPMG7N4ROR","A3L0DCUXI7X3A9","3H6W48L9F4B5OEOMH57RM53Z4H1WP0","","593.5","img/land1.png","76","594.3999999761581","3","1","false","3","1,0.5,0.5,0.5,1,0.5,0.5,0.5,1","",""
"","html-keyboard-response","155","103914","0.0-228.0","3ZSY5X72NYXKH2TTUDP8ZPMG7N4ROR","A3L0DCUXI7X3A9","3H6W48L9F4B5OEOMH57RM53Z4H1WP0","","null","<img src=""img/land1.png"" style=""width:200px; border:14px solid green;"">","null","","","","","","","",""
"","image-keyboard-response","156","104347","0.0-230.0","3ZSY5X72NYXKH2TTUDP8ZPMG7N4ROR","A3L0DCUXI7X3A9","3H6W48L9F4B5OEOMH57RM53Z4H1WP0","","432.40000009536743","img/land3.png","75","433.2999999523163","2","1","false","2","1,0.5,0.5,0.5,1,0.5,0.5,0.5,1","",""
"","html-keyboard-response","157","104650","0.0-231.0","3ZSY5X72NYXKH2TTUDP8ZPMG7N4ROR","A3L0DCUXI7X3A9","3H6W48L9F4B5OEOMH57RM53Z4H1WP0","","null","<img src=""img/land3.png"" style=""width:200px; border:14px solid green;"">","null","","","","","","","",""
"","image-keyboard-response","158","105002","0.0-233.0","3ZSY5X72NYXKH2TTUDP8ZPMG7N4ROR","A3L0DCUXI7X3A9","3H6W48L9F4B5OEOMH57RM53Z4H1WP0","","350","img/land3.png","75","351","2","1","false","2","1,0.5,0.5,0.5,1,0.5,0.5,0.5,1","",""
"","html-keyboard-response","159","105303","0.0-234.0","3ZSY5X72NYXKH2TTUDP8ZPMG7N4ROR","A3L0DCUXI7X3A9","3H6W48L9F4B5OEOMH57RM53Z4H1WP0","","null","<img src=""img/land3.png"" style=""width:200px; border:14px solid green;"">","null","","","","","","","",""
"","image-keyboard-response","160","105995","0.0-236.0","3ZSY5X72NYXKH2TTUDP8ZPMG7N4ROR","A3L0DCUXI7X3A9","3H6W48L9F4B5OEOMH57RM53Z4H1WP0","","691.7000000476837","img/land5.png","74","692.6000000238419","1","1","false","1","1,0.5,0.5,0.5,1,0.5,0.5,0.5,1","",""
"","html-keyboard-response","161","106298","0.0-237.0","3ZSY5X72NYXKH2TTUDP8ZPMG7N4ROR","A3L0DCUXI7X3A9","3H6W48L9F4B5OEOMH57RM53Z4H1WP0","","null","<img src=""img/land5.png"" style=""width:200px; border:14px solid green;"">","null","","","","","","","",""
"","image-keyboard-response","162","106683","0.0-239.0","3ZSY5X72NYXKH2TTUDP8ZPMG7N4ROR","A3L0DCUXI7X3A9","3H6W48L9F4B5OEOMH57RM53Z4H1WP0","","383.2000000476837","img/land5.png","74","384.5","1","1","false","1","1,0.5,0.5,0.5,1,0.5,0.5,0.5,1","",""
"","html-keyboard-response","163","106986","0.0-240.0","3ZSY5X72NYXKH2TTUDP8ZPMG7N4ROR","A3L0DCUXI7X3A9","3H6W48L9F4B5OEOMH57RM53Z4H1WP0","","null","<img src=""img/land5.png"" style=""width:200px; border:14px solid green;"">","null","","","","","","","",""
"","image-keyboard-response","164","107724","0.0-242.0","3ZSY5X72NYXKH2TTUDP8ZPMG7N4ROR","A3L0DCUXI7X3A9","3H6W48L9F4B5OEOMH57RM53Z4H1WP0","","735.8000000715256","img/land1.png","76","737.1000000238419","3","1","false","3","1,0.5,0.5,0.5,1,0.5,0.5,0.5,1","",""
"","html-keyboard-response","165","108026","0.0-243.0","3ZSY5X72NYXKH2TTUDP8ZPMG7N4ROR","A3L0DCUXI7X3A9","3H6W48L9F4B5OEOMH57RM53Z4H1WP0","","null","<img src=""img/land1.png"" style=""width:200px; border:14px solid green;"">","null","","","","","","","",""
"","image-keyboard-response","166","108907","0.0-245.0","3ZSY5X72NYXKH2TTUDP8ZPMG7N4ROR","A3L0DCUXI7X3A9","3H6W48L9F4B5OEOMH57RM53Z4H1WP0","","878.8999999761581","img/land5.png","74","880.1999999284744","1","1","false","1","1,0.5,0.5,0.5,1,0.5,0.5,0.5,1","",""
"","html-keyboard-response","167","109211","0.0-246.0","3ZSY5X72NYXKH2TTUDP8ZPMG7N4ROR","A3L0DCUXI7X3A9","3H6W48L9F4B5OEOMH57RM53Z4H1WP0","","null","<img src=""img/land5.png"" style=""width:200px; border:14px solid green;"">","null","","","","","","","",""
"","image-keyboard-response","168","109595","0.0-248.0","3ZSY5X72NYXKH2TTUDP8ZPMG7N4ROR","A3L0DCUXI7X3A9","3H6W48L9F4B5OEOMH57RM53Z4H1WP0","","382.2000000476837","img/land5.png","74","383.39999997615814","1","1","false","1","1,0.5,0.5,0.5,1,0.5,0.5,0.5,1","",""
"","html-keyboard-response","169","109898","0.0-249.0","3ZSY5X72NYXKH2TTUDP8ZPMG7N4ROR","A3L0DCUXI7X3A9","3H6W48L9F4B5OEOMH57RM53Z4H1WP0","","null","<img src=""img/land5.png"" style=""width:200px; border:14px solid green;"">","null","","","","","","","",""
"","image-keyboard-response","170","110457","0.0-251.0","3ZSY5X72NYXKH2TTUDP8ZPMG7N4ROR","A3L0DCUXI7X3A9","3H6W48L9F4B5OEOMH57RM53Z4H1WP0","","558.1999999284744","img/land3.png","75","559.2000000476837","2","1","false","2","1,0.5,0.5,0.5,1,0.5,0.5,0.5,1","",""
"","html-keyboard-response","171","110759","0.0-252.0","3ZSY5X72NYXKH2TTUDP8ZPMG7N4ROR","A3L0DCUXI7X3A9","3H6W48L9F4B5OEOMH57RM53Z4H1WP0","","null","<img src=""img/land3.png"" style=""width:200px; border:14px solid green;"">","null","","","","","","","",""
"","image-keyboard-response","172","111466","0.0-254.0","3ZSY5X72NYXKH2TTUDP8ZPMG7N4ROR","A3L0DCUXI7X3A9","3H6W48L9F4B5OEOMH57RM53Z4H1WP0","","704.8000000715256","img/land1.png","76","705.8999999761581","3","1","false","3","1,0.5,0.5,0.5,1,0.5,0.5,0.5,1","",""
"","html-keyboard-response","173","111767","0.0-255.0","3ZSY5X72NYXKH2TTUDP8ZPMG7N4ROR","A3L0DCUXI7X3A9","3H6W48L9F4B5OEOMH57RM53Z4H1WP0","","null","<img src=""img/land1.png"" style=""width:200px; border:14px solid green;"">","null","","","","","","","",""
"","image-keyboard-response","174","112346","0.0-257.0","3ZSY5X72NYXKH2TTUDP8ZPMG7N4ROR","A3L0DCUXI7X3A9","3H6W48L9F4B5OEOMH57RM53Z4H1WP0","","577.1999999284744","img/land3.png","75","578.5","2","1","false","2","1,0.5,0.5,0.5,1,0.5,0.5,0.5,1","",""
"","html-keyboard-response","175","112649","0.0-258.0","3ZSY5X72NYXKH2TTUDP8ZPMG7N4ROR","A3L0DCUXI7X3A9","3H6W48L9F4B5OEOMH57RM53Z4H1WP0","","null","<img src=""img/land3.png"" style=""width:200px; border:14px solid green;"">","null","","","","","","","",""
"","image-keyboard-response","176","113036","0.0-260.0","3ZSY5X72NYXKH2TTUDP8ZPMG7N4ROR","A3L0DCUXI7X3A9","3H6W48L9F4B5OEOMH57RM53Z4H1WP0","","385.2999999523163","img/land3.png","75","386.6999999284744","2","1","false","2","1,0.5,0.5,0.5,1,0.5,0.5,0.5,1","",""
"","html-keyboard-response","177","113339","0.0-261.0","3ZSY5X72NYXKH2TTUDP8ZPMG7N4ROR","A3L0DCUXI7X3A9","3H6W48L9F4B5OEOMH57RM53Z4H1WP0","","null","<img src=""img/land3.png"" style=""width:200px; border:14px solid green;"">","null","","","","","","","",""
"","image-keyboard-response","178","114059","0.0-263.0","3ZSY5X72NYXKH2TTUDP8ZPMG7N4ROR","A3L0DCUXI7X3A9","3H6W48L9F4B5OEOMH57RM53Z4H1WP0","","718.3999999761581","img/land5.png","74","719.7000000476837","1","1","false","1","1,0.5,0.5,0.5,1,0.5,0.5,0.5,1","",""
"","html-keyboard-response","179","114362","0.0-264.0","3ZSY5X72NYXKH2TTUDP8ZPMG7N4ROR","A3L0DCUXI7X3A9","3H6W48L9F4B5OEOMH57RM53Z4H1WP0","","null","<img src=""img/land5.png"" style=""width:200px; border:14px solid green;"">","null","","","","","","","",""
"","image-keyboard-response","180","114715","0.0-266.0","3ZSY5X72NYXKH2TTUDP8ZPMG7N4ROR","A3L0DCUXI7X3A9","3H6W48L9F4B5OEOMH57RM53Z4H1WP0","","350.60000002384186","img/land5.png","74","351.90000009536743","1","1","false","1","1,0.5,0.5,0.5,1,0.5,0.5,0.5,1","",""
"","html-keyboard-response","181","115017","0.0-267.0","3ZSY5X72NYXKH2TTUDP8ZPMG7N4ROR","A3L0DCUXI7X3A9","3H6W48L9F4B5OEOMH57RM53Z4H1WP0","","null","<img src=""img/land5.png"" style=""width:200px; border:14px solid green;"">","null","","","","","","","",""
"","image-keyboard-response","182","115835","0.0-269.0","3ZSY5X72NYXKH2TTUDP8ZPMG7N4ROR","A3L0DCUXI7X3A9","3H6W48L9F4B5OEOMH57RM53Z4H1WP0","","815.2999999523163","img/land3.png","75","816.7000000476837","2","1","false","2","1,0.5,0.5,0.5,1,0.5,0.5,0.5,1","",""
"","html-keyboard-response","183","116137","0.0-270.0","3ZSY5X72NYXKH2TTUDP8ZPMG7N4ROR","A3L0DCUXI7X3A9","3H6W48L9F4B5OEOMH57RM53Z4H1WP0","","null","<img src=""img/land3.png"" style=""width:200px; border:14px solid green;"">","null","","","","","","","",""
"","html-keyboard-response","184","128404","0.0-272.0","3ZSY5X72NYXKH2TTUDP8ZPMG7N4ROR","A3L0DCUXI7X3A9","3H6W48L9F4B5OEOMH57RM53Z4H1WP0","","","","","","","","","","","",""
"","image-keyboard-response","185","129227","0.0-273.0","3ZSY5X72NYXKH2TTUDP8ZPMG7N4ROR","A3L0DCUXI7X3A9","3H6W48L9F4B5OEOMH57RM53Z4H1WP0","","822.7999999523163","img/land2.png","74","823.6999999284744","1","1","false","1","1,1,0,0,1,1,1,0,1","",""
"","html-keyboard-response","186","129531","0.0-274.0","3ZSY5X72NYXKH2TTUDP8ZPMG7N4ROR","A3L0DCUXI7X3A9","3H6W48L9F4B5OEOMH57RM53Z4H1WP0","","null","<img src=""img/land2.png"" style=""width:200px; border:14px solid green;"">","null","","","","","","","",""
"","image-keyboard-response","187","130155","0.0-276.0","3ZSY5X72NYXKH2TTUDP8ZPMG7N4ROR","A3L0DCUXI7X3A9","3H6W48L9F4B5OEOMH57RM53Z4H1WP0","","622.2999999523163","img/land4.png","75","623.7000000476837","2","0","false","3","1,1,0,0,1,1,1,0,1","",""
"","html-keyboard-response","188","130458","0.0-277.0","3ZSY5X72NYXKH2TTUDP8ZPMG7N4ROR","A3L0DCUXI7X3A9","3H6W48L9F4B5OEOMH57RM53Z4H1WP0","","null","<img src=""img/land4.png"" style=""width:200px;border:14px solid red;"">","null","","","","","","","",""
"","image-keyboard-response","189","131462","0.0-279.0","3ZSY5X72NYXKH2TTUDP8ZPMG7N4ROR","A3L0DCUXI7X3A9","3H6W48L9F4B5OEOMH57RM53Z4H1WP0","","","img/land6.png","","1002.7999999523163","-1","0","true","2","1,1,0,0,1,1,1,0,1","",""
"","html-keyboard-response","190","131763","0.0-280.0","3ZSY5X72NYXKH2TTUDP8ZPMG7N4ROR","A3L0DCUXI7X3A9","3H6W48L9F4B5OEOMH57RM53Z4H1WP0","","null","<img src=""img/land6.png"" style=""width:200px;border:14px solid red;"">","null","","","","","","","",""
"","html-keyboard-response","191","136443","0.0-281.0-0.0","3ZSY5X72NYXKH2TTUDP8ZPMG7N4ROR","A3L0DCUXI7X3A9","3H6W48L9F4B5OEOMH57RM53Z4H1WP0","","","","","","","","","","","",""
"","image-keyboard-response","192","137051","0.0-282.0","3ZSY5X72NYXKH2TTUDP8ZPMG7N4ROR","A3L0DCUXI7X3A9","3H6W48L9F4B5OEOMH57RM53Z4H1WP0","","607.7999999523163","img/land6.png","74","608.6999999284744","1","0","false","2","1,1,0,0,1,1,1,0,1","",""
"","html-keyboard-response","193","137355","0.0-283.0","3ZSY5X72NYXKH2TTUDP8ZPMG7N4ROR","A3L0DCUXI7X3A9","3H6W48L9F4B5OEOMH57RM53Z4H1WP0","","null","<img src=""img/land6.png"" style=""width:200px;border:14px solid red;"">","null","","","","","","","",""
"","image-keyboard-response","194","137900","0.0-285.0","3ZSY5X72NYXKH2TTUDP8ZPMG7N4ROR","A3L0DCUXI7X3A9","3H6W48L9F4B5OEOMH57RM53Z4H1WP0","","542.7999999523163","img/land4.png","75","544.2999999523163","2","0","false","3","1,1,0,0,1,1,1,0,1","",""
"","html-keyboard-response","195","138202","0.0-286.0","3ZSY5X72NYXKH2TTUDP8ZPMG7N4ROR","A3L0DCUXI7X3A9","3H6W48L9F4B5OEOMH57RM53Z4H1WP0","","null","<img src=""img/land4.png"" style=""width:200px;border:14px solid red;"">","null","","","","","","","",""
"","image-keyboard-response","196","138571","0.0-288.0","3ZSY5X72NYXKH2TTUDP8ZPMG7N4ROR","A3L0DCUXI7X3A9","3H6W48L9F4B5OEOMH57RM53Z4H1WP0","","368.1999999284744","img/land4.png","76","369","3","1","false","3","1,1,0,0,1,1,1,0,1","",""
"","html-keyboard-response","197","138874","0.0-289.0","3ZSY5X72NYXKH2TTUDP8ZPMG7N4ROR","A3L0DCUXI7X3A9","3H6W48L9F4B5OEOMH57RM53Z4H1WP0","","null","<img src=""img/land4.png"" style=""width:200px; border:14px solid green;"">","null","","","","","","","",""
"","image-keyboard-response","198","139211","0.0-291.0","3ZSY5X72NYXKH2TTUDP8ZPMG7N4ROR","A3L0DCUXI7X3A9","3H6W48L9F4B5OEOMH57RM53Z4H1WP0","","336.2000000476837","img/land4.png","76","337.2000000476837","3","1","false","3","1,1,0,0,1,1,1,0,1","",""
"","html-keyboard-response","199","139513","0.0-292.0","3ZSY5X72NYXKH2TTUDP8ZPMG7N4ROR","A3L0DCUXI7X3A9","3H6W48L9F4B5OEOMH57RM53Z4H1WP0","","null","<img src=""img/land4.png"" style=""width:200px; border:14px solid green;"">","null","","","","","","","",""
"","image-keyboard-response","200","140107","0.0-294.0","3ZSY5X72NYXKH2TTUDP8ZPMG7N4ROR","A3L0DCUXI7X3A9","3H6W48L9F4B5OEOMH57RM53Z4H1WP0","","592.0999999046326","img/land2.png","75","593.3999999761581","2","1","false","1","1,1,0,0,1,1,1,0,1","",""
"","html-keyboard-response","201","140409","0.0-295.0","3ZSY5X72NYXKH2TTUDP8ZPMG7N4ROR","A3L0DCUXI7X3A9","3H6W48L9F4B5OEOMH57RM53Z4H1WP0","","null","<img src=""img/land2.png"" style=""width:200px; border:14px solid green;"">","null","","","","","","","",""
"","image-keyboard-response","202","140699","0.0-297.0","3ZSY5X72NYXKH2TTUDP8ZPMG7N4ROR","A3L0DCUXI7X3A9","3H6W48L9F4B5OEOMH57RM53Z4H1WP0","","288.89999997615814","img/land2.png","75","289.60000002384186","2","1","false","1","1,1,0,0,1,1,1,0,1","",""
"","html-keyboard-response","203","141002","0.0-298.0","3ZSY5X72NYXKH2TTUDP8ZPMG7N4ROR","A3L0DCUXI7X3A9","3H6W48L9F4B5OEOMH57RM53Z4H1WP0","","null","<img src=""img/land2.png"" style=""width:200px; border:14px solid green;"">","null","","","","","","","",""
"","image-keyboard-response","204","141323","0.0-300.0","3ZSY5X72NYXKH2TTUDP8ZPMG7N4ROR","A3L0DCUXI7X3A9","3H6W48L9F4B5OEOMH57RM53Z4H1WP0","","319.2999999523163","img/land2.png","75","320.7999999523163","2","1","false","1","1,1,0,0,1,1,1,0,1","",""
"","html-keyboard-response","205","141626","0.0-301.0","3ZSY5X72NYXKH2TTUDP8ZPMG7N4ROR","A3L0DCUXI7X3A9","3H6W48L9F4B5OEOMH57RM53Z4H1WP0","","null","<img src=""img/land2.png"" style=""width:200px; border:14px solid green;"">","null","","","","","","","",""
"","image-keyboard-response","206","142156","0.0-303.0","3ZSY5X72NYXKH2TTUDP8ZPMG7N4ROR","A3L0DCUXI7X3A9","3H6W48L9F4B5OEOMH57RM53Z4H1WP0","","528.5","img/land4.png","74","529.5","1","1","false","3","1,1,0,0,1,1,1,0,1","",""
"","html-keyboard-response","207","142459","0.0-304.0","3ZSY5X72NYXKH2TTUDP8ZPMG7N4ROR","A3L0DCUXI7X3A9","3H6W48L9F4B5OEOMH57RM53Z4H1WP0","","null","<img src=""img/land4.png"" style=""width:200px; border:14px solid green;"">","null","","","","","","","",""
"","image-keyboard-response","208","142795","0.0-306.0","3ZSY5X72NYXKH2TTUDP8ZPMG7N4ROR","A3L0DCUXI7X3A9","3H6W48L9F4B5OEOMH57RM53Z4H1WP0","","333.90000009536743","img/land4.png","74","335.2000000476837","1","1","false","3","1,1,0,0,1,1,1,0,1","",""
"","html-keyboard-response","209","143097","0.0-307.0","3ZSY5X72NYXKH2TTUDP8ZPMG7N4ROR","A3L0DCUXI7X3A9","3H6W48L9F4B5OEOMH57RM53Z4H1WP0","","null","<img src=""img/land4.png"" style=""width:200px; border:14px solid green;"">","null","","","","","","","",""
"","image-keyboard-response","210","143418","0.0-309.0","3ZSY5X72NYXKH2TTUDP8ZPMG7N4ROR","A3L0DCUXI7X3A9","3H6W48L9F4B5OEOMH57RM53Z4H1WP0","","319","img/land4.png","74","320","1","1","false","3","1,1,0,0,1,1,1,0,1","",""
"","html-keyboard-response","211","143719","0.0-310.0","3ZSY5X72NYXKH2TTUDP8ZPMG7N4ROR","A3L0DCUXI7X3A9","3H6W48L9F4B5OEOMH57RM53Z4H1WP0","","null","<img src=""img/land4.png"" style=""width:200px; border:14px solid green;"">","null","","","","","","","",""
"","image-keyboard-response","212","144219","0.0-312.0","3ZSY5X72NYXKH2TTUDP8ZPMG7N4ROR","A3L0DCUXI7X3A9","3H6W48L9F4B5OEOMH57RM53Z4H1WP0","","498.60000002384186","img/land6.png","75","499.5","2","1","false","2","1,1,0,0,1,1,1,0,1","",""
"","html-keyboard-response","213","144521","0.0-313.0","3ZSY5X72NYXKH2TTUDP8ZPMG7N4ROR","A3L0DCUXI7X3A9","3H6W48L9F4B5OEOMH57RM53Z4H1WP0","","null","<img src=""img/land6.png"" style=""width:200px; border:14px solid green;"">","null","","","","","","","",""
"","image-keyboard-response","214","145339","0.0-315.0","3ZSY5X72NYXKH2TTUDP8ZPMG7N4ROR","A3L0DCUXI7X3A9","3H6W48L9F4B5OEOMH57RM53Z4H1WP0","","817.1000000238419","img/land2.png","76","817.7999999523163","3","0","false","1","1,1,0,0,1,1,1,0,1","",""
"","html-keyboard-response","215","145641","0.0-316.0","3ZSY5X72NYXKH2TTUDP8ZPMG7N4ROR","A3L0DCUXI7X3A9","3H6W48L9F4B5OEOMH57RM53Z4H1WP0","","null","<img src=""img/land2.png"" style=""width:200px;border:14px solid red;"">","null","","","","","","","",""
"","image-keyboard-response","216","145979","0.0-318.0","3ZSY5X72NYXKH2TTUDP8ZPMG7N4ROR","A3L0DCUXI7X3A9","3H6W48L9F4B5OEOMH57RM53Z4H1WP0","","336.89999997615814","img/land2.png","76","337.7999999523163","3","0","false","1","1,1,0,0,1,1,1,0,1","",""
"","html-keyboard-response","217","146281","0.0-319.0","3ZSY5X72NYXKH2TTUDP8ZPMG7N4ROR","A3L0DCUXI7X3A9","3H6W48L9F4B5OEOMH57RM53Z4H1WP0","","null","<img src=""img/land2.png"" style=""width:200px;border:14px solid red;"">","null","","","","","","","",""
"","image-keyboard-response","218","146491","0.0-321.0","3ZSY5X72NYXKH2TTUDP8ZPMG7N4ROR","A3L0DCUXI7X3A9","3H6W48L9F4B5OEOMH57RM53Z4H1WP0","","208.5","img/land6.png","75","209.79999995231628","2","1","false","2","1,1,0,0,1,1,1,0,1","",""
"","html-keyboard-response","219","146794","0.0-322.0","3ZSY5X72NYXKH2TTUDP8ZPMG7N4ROR","A3L0DCUXI7X3A9","3H6W48L9F4B5OEOMH57RM53Z4H1WP0","","null","<img src=""img/land6.png"" style=""width:200px; border:14px solid green;"">","null","","","","","","","",""
"","image-keyboard-response","220","147131","0.0-324.0","3ZSY5X72NYXKH2TTUDP8ZPMG7N4ROR","A3L0DCUXI7X3A9","3H6W48L9F4B5OEOMH57RM53Z4H1WP0","","335.2999999523163","img/land2.png","75","336.8000000715256","2","1","false","1","1,1,0,0,1,1,1,0,1","",""
"","html-keyboard-response","221","147434","0.0-325.0","3ZSY5X72NYXKH2TTUDP8ZPMG7N4ROR","A3L0DCUXI7X3A9","3H6W48L9F4B5OEOMH57RM53Z4H1WP0","","null","<img src=""img/land2.png"" style=""width:200px; border:14px solid green;"">","null","","","","","","","",""
"","image-keyboard-response","222","147964","0.0-327.0","3ZSY5X72NYXKH2TTUDP8ZPMG7N4ROR","A3L0DCUXI7X3A9","3H6W48L9F4B5OEOMH57RM53Z4H1WP0","","528.6000000238419","img/land4.png","75","529.8999999761581","2","0","false","3","1,1,0,0,1,1,1,0,1","",""
"","html-keyboard-response","223","148268","0.0-328.0","3ZSY5X72NYXKH2TTUDP8ZPMG7N4ROR","A3L0DCUXI7X3A9","3H6W48L9F4B5OEOMH57RM53Z4H1WP0","","null","<img src=""img/land4.png"" style=""width:200px;border:14px solid red;"">","null","","","","","","","",""
"","image-keyboard-response","224","148620","0.0-330.0","3ZSY5X72NYXKH2TTUDP8ZPMG7N4ROR","A3L0DCUXI7X3A9","3H6W48L9F4B5OEOMH57RM53Z4H1WP0","","350","img/land6.png","74","351.2000000476837","1","0","false","2","1,1,0,0,1,1,1,0,1","",""
"","html-keyboard-response","225","148922","0.0-331.0","3ZSY5X72NYXKH2TTUDP8ZPMG7N4ROR","A3L0DCUXI7X3A9","3H6W48L9F4B5OEOMH57RM53Z4H1WP0","","null","<img src=""img/land6.png"" style=""width:200px;border:14px solid red;"">","null","","","","","","","",""
"","image-keyboard-response","226","149387","0.0-333.0","3ZSY5X72NYXKH2TTUDP8ZPMG7N4ROR","A3L0DCUXI7X3A9","3H6W48L9F4B5OEOMH57RM53Z4H1WP0","","463.60000002384186","img/land4.png","75","464.60000002384186","2","0","false","3","1,1,0,0,1,1,1,0,1","",""
"","html-keyboard-response","227","149689","0.0-334.0","3ZSY5X72NYXKH2TTUDP8ZPMG7N4ROR","A3L0DCUXI7X3A9","3H6W48L9F4B5OEOMH57RM53Z4H1WP0","","null","<img src=""img/land4.png"" style=""width:200px;border:14px solid red;"">","null","","","","","","","",""
"","image-keyboard-response","228","150170","0.0-336.0","3ZSY5X72NYXKH2TTUDP8ZPMG7N4ROR","A3L0DCUXI7X3A9","3H6W48L9F4B5OEOMH57RM53Z4H1WP0","","479.39999997615814","img/land4.png","76","480","3","1","false","3","1,1,0,0,1,1,1,0,1","",""
"","html-keyboard-response","229","150472","0.0-337.0","3ZSY5X72NYXKH2TTUDP8ZPMG7N4ROR","A3L0DCUXI7X3A9","3H6W48L9F4B5OEOMH57RM53Z4H1WP0","","null","<img src=""img/land4.png"" style=""width:200px; border:14px solid green;"">","null","","","","","","","",""
"","image-keyboard-response","230","150779","0.0-339.0","3ZSY5X72NYXKH2TTUDP8ZPMG7N4ROR","A3L0DCUXI7X3A9","3H6W48L9F4B5OEOMH57RM53Z4H1WP0","","305.2999999523163","img/land4.png","76","306.60000002384186","3","1","false","3","1,1,0,0,1,1,1,0,1","",""
"","html-keyboard-response","231","151082","0.0-340.0","3ZSY5X72NYXKH2TTUDP8ZPMG7N4ROR","A3L0DCUXI7X3A9","3H6W48L9F4B5OEOMH57RM53Z4H1WP0","","null","<img src=""img/land4.png"" style=""width:200px; border:14px solid green;"">","null","","","","","","","",""
"","image-keyboard-response","232","151371","0.0-342.0","3ZSY5X72NYXKH2TTUDP8ZPMG7N4ROR","A3L0DCUXI7X3A9","3H6W48L9F4B5OEOMH57RM53Z4H1WP0","","288","img/land4.png","76","289.2999999523163","3","1","false","3","1,1,0,0,1,1,1,0,1","",""
"","html-keyboard-response","233","151674","0.0-343.0","3ZSY5X72NYXKH2TTUDP8ZPMG7N4ROR","A3L0DCUXI7X3A9","3H6W48L9F4B5OEOMH57RM53Z4H1WP0","","null","<img src=""img/land4.png"" style=""width:200px; border:14px solid green;"">","null","","","","","","","",""
"","image-keyboard-response","234","152330","0.0-345.0","3ZSY5X72NYXKH2TTUDP8ZPMG7N4ROR","A3L0DCUXI7X3A9","3H6W48L9F4B5OEOMH57RM53Z4H1WP0","","655.2999999523163","img/land2.png","75","655.8000000715256","2","1","false","1","1,1,0,0,1,1,1,0,1","",""
"","html-keyboard-response","235","152632","0.0-346.0","3ZSY5X72NYXKH2TTUDP8ZPMG7N4ROR","A3L0DCUXI7X3A9","3H6W48L9F4B5OEOMH57RM53Z4H1WP0","","null","<img src=""img/land2.png"" style=""width:200px; border:14px solid green;"">","null","","","","","","","",""
"","image-keyboard-response","236","152986","0.0-348.0","3ZSY5X72NYXKH2TTUDP8ZPMG7N4ROR","A3L0DCUXI7X3A9","3H6W48L9F4B5OEOMH57RM53Z4H1WP0","","352.1999999284744","img/land2.png","75","353.39999997615814","2","1","false","1","1,1,0,0,1,1,1,0,1","",""
"","html-keyboard-response","237","153288","0.0-349.0","3ZSY5X72NYXKH2TTUDP8ZPMG7N4ROR","A3L0DCUXI7X3A9","3H6W48L9F4B5OEOMH57RM53Z4H1WP0","","null","<img src=""img/land2.png"" style=""width:200px; border:14px solid green;"">","null","","","","","","","",""
"","image-keyboard-response","238","153676","0.0-351.0","3ZSY5X72NYXKH2TTUDP8ZPMG7N4ROR","A3L0DCUXI7X3A9","3H6W48L9F4B5OEOMH57RM53Z4H1WP0","","385.40000009536743","img/land2.png","75","386.89999997615814","2","1","false","1","1,1,0,0,1,1,1,0,1","",""
"","html-keyboard-response","239","153978","0.0-352.0","3ZSY5X72NYXKH2TTUDP8ZPMG7N4ROR","A3L0DCUXI7X3A9","3H6W48L9F4B5OEOMH57RM53Z4H1WP0","","null","<img src=""img/land2.png"" style=""width:200px; border:14px solid green;"">","null","","","","","","","",""
"","image-keyboard-response","240","154443","0.0-354.0","3ZSY5X72NYXKH2TTUDP8ZPMG7N4ROR","A3L0DCUXI7X3A9","3H6W48L9F4B5OEOMH57RM53Z4H1WP0","","463.1999999284744","img/land6.png","75","464.1999999284744","2","1","false","2","1,1,0,0,1,1,1,0,1","",""
"","html-keyboard-response","241","154746","0.0-355.0","3ZSY5X72NYXKH2TTUDP8ZPMG7N4ROR","A3L0DCUXI7X3A9","3H6W48L9F4B5OEOMH57RM53Z4H1WP0","","null","<img src=""img/land6.png"" style=""width:200px; border:14px solid green;"">","null","","","","","","","",""
"","image-keyboard-response","242","155419","0.0-357.0","3ZSY5X72NYXKH2TTUDP8ZPMG7N4ROR","A3L0DCUXI7X3A9","3H6W48L9F4B5OEOMH57RM53Z4H1WP0","","671.7000000476837","img/land4.png","76","672.6000000238419","3","1","false","3","1,1,0,0,1,1,1,0,1","",""
"","html-keyboard-response","243","155722","0.0-358.0","3ZSY5X72NYXKH2TTUDP8ZPMG7N4ROR","A3L0DCUXI7X3A9","3H6W48L9F4B5OEOMH57RM53Z4H1WP0","","null","<img src=""img/land4.png"" style=""width:200px; border:14px solid green;"">","null","","","","","","","",""
"","image-keyboard-response","244","156171","0.0-360.0","3ZSY5X72NYXKH2TTUDP8ZPMG7N4ROR","A3L0DCUXI7X3A9","3H6W48L9F4B5OEOMH57RM53Z4H1WP0","","447.8000000715256","img/land2.png","75","448.8000000715256","2","1","false","1","1,1,0,0,1,1,1,0,1","",""
"","html-keyboard-response","245","156474","0.0-361.0","3ZSY5X72NYXKH2TTUDP8ZPMG7N4ROR","A3L0DCUXI7X3A9","3H6W48L9F4B5OEOMH57RM53Z4H1WP0","","null","<img src=""img/land2.png"" style=""width:200px; border:14px solid green;"">","null","","","","","","","",""
"","image-keyboard-response","246","156875","0.0-363.0","3ZSY5X72NYXKH2TTUDP8ZPMG7N4ROR","A3L0DCUXI7X3A9","3H6W48L9F4B5OEOMH57RM53Z4H1WP0","","399.89999997615814","img/land6.png","75","401","2","1","false","2","1,1,0,0,1,1,1,0,1","",""
"","html-keyboard-response","247","157177","0.0-364.0","3ZSY5X72NYXKH2TTUDP8ZPMG7N4ROR","A3L0DCUXI7X3A9","3H6W48L9F4B5OEOMH57RM53Z4H1WP0","","null","<img src=""img/land6.png"" style=""width:200px; border:14px solid green;"">","null","","","","","","","",""
"","image-keyboard-response","248","157675","0.0-366.0","3ZSY5X72NYXKH2TTUDP8ZPMG7N4ROR","A3L0DCUXI7X3A9","3H6W48L9F4B5OEOMH57RM53Z4H1WP0","","495.90000009536743","img/land4.png","76","497.2000000476837","3","1","false","3","1,1,0,0,1,1,1,0,1","",""
"","html-keyboard-response","249","157977","0.0-367.0","3ZSY5X72NYXKH2TTUDP8ZPMG7N4ROR","A3L0DCUXI7X3A9","3H6W48L9F4B5OEOMH57RM53Z4H1WP0","","null","<img src=""img/land4.png"" style=""width:200px; border:14px solid green;"">","null","","","","","","","",""
"","image-keyboard-response","250","158283","0.0-369.0","3ZSY5X72NYXKH2TTUDP8ZPMG7N4ROR","A3L0DCUXI7X3A9","3H6W48L9F4B5OEOMH57RM53Z4H1WP0","","304.89999997615814","img/land2.png","75","306.09999990463257","2","1","false","1","1,1,0,0,1,1,1,0,1","",""
"","html-keyboard-response","251","158586","0.0-370.0","3ZSY5X72NYXKH2TTUDP8ZPMG7N4ROR","A3L0DCUXI7X3A9","3H6W48L9F4B5OEOMH57RM53Z4H1WP0","","null","<img src=""img/land2.png"" style=""width:200px; border:14px solid green;"">","null","","","","","","","",""
"","image-keyboard-response","252","159099","0.0-372.0","3ZSY5X72NYXKH2TTUDP8ZPMG7N4ROR","A3L0DCUXI7X3A9","3H6W48L9F4B5OEOMH57RM53Z4H1WP0","","511.2999999523163","img/land6.png","75","512.5","2","1","false","2","1,1,0,0,1,1,1,0,1","",""
"","html-keyboard-response","253","159403","0.0-373.0","3ZSY5X72NYXKH2TTUDP8ZPMG7N4ROR","A3L0DCUXI7X3A9","3H6W48L9F4B5OEOMH57RM53Z4H1WP0","","null","<img src=""img/land6.png"" style=""width:200px; border:14px solid green;"">","null","","","","","","","",""
"","image-keyboard-response","254","159754","0.0-375.0","3ZSY5X72NYXKH2TTUDP8ZPMG7N4ROR","A3L0DCUXI7X3A9","3H6W48L9F4B5OEOMH57RM53Z4H1WP0","","349.1999999284744","img/land6.png","75","350.2999999523163","2","1","false","2","1,1,0,0,1,1,1,0,1","",""
"","html-keyboard-response","255","160055","0.0-376.0","3ZSY5X72NYXKH2TTUDP8ZPMG7N4ROR","A3L0DCUXI7X3A9","3H6W48L9F4B5OEOMH57RM53Z4H1WP0","","null","<img src=""img/land6.png"" style=""width:200px; border:14px solid green;"">","null","","","","","","","",""
"","image-keyboard-response","256","160475","0.0-378.0","3ZSY5X72NYXKH2TTUDP8ZPMG7N4ROR","A3L0DCUXI7X3A9","3H6W48L9F4B5OEOMH57RM53Z4H1WP0","","418","img/land4.png","76","419.39999997615814","3","1","false","3","1,1,0,0,1,1,1,0,1","",""
"","html-keyboard-response","257","160778","0.0-379.0","3ZSY5X72NYXKH2TTUDP8ZPMG7N4ROR","A3L0DCUXI7X3A9","3H6W48L9F4B5OEOMH57RM53Z4H1WP0","","null","<img src=""img/land4.png"" style=""width:200px; border:14px solid green;"">","null","","","","","","","",""
"","image-keyboard-response","258","161178","0.0-381.0","3ZSY5X72NYXKH2TTUDP8ZPMG7N4ROR","A3L0DCUXI7X3A9","3H6W48L9F4B5OEOMH57RM53Z4H1WP0","","399.6999999284744","img/land4.png","76","400.39999997615814","3","1","false","3","1,1,0,0,1,1,1,0,1","",""
"","html-keyboard-response","259","161480","0.0-382.0","3ZSY5X72NYXKH2TTUDP8ZPMG7N4ROR","A3L0DCUXI7X3A9","3H6W48L9F4B5OEOMH57RM53Z4H1WP0","","null","<img src=""img/land4.png"" style=""width:200px; border:14px solid green;"">","null","","","","","","","",""
"","image-keyboard-response","260","161947","0.0-384.0","3ZSY5X72NYXKH2TTUDP8ZPMG7N4ROR","A3L0DCUXI7X3A9","3H6W48L9F4B5OEOMH57RM53Z4H1WP0","","464.60000002384186","img/land6.png","75","466","2","1","false","2","1,1,0,0,1,1,1,0,1","",""
"","html-keyboard-response","261","162250","0.0-385.0","3ZSY5X72NYXKH2TTUDP8ZPMG7N4ROR","A3L0DCUXI7X3A9","3H6W48L9F4B5OEOMH57RM53Z4H1WP0","","null","<img src=""img/land6.png"" style=""width:200px; border:14px solid green;"">","null","","","","","","","",""
"","image-keyboard-response","262","162778","0.0-387.0","3ZSY5X72NYXKH2TTUDP8ZPMG7N4ROR","A3L0DCUXI7X3A9","3H6W48L9F4B5OEOMH57RM53Z4H1WP0","","526.1000000238419","img/land4.png","76","527.2000000476837","3","1","false","3","1,1,0,0,1,1,1,0,1","",""
"","html-keyboard-response","263","163081","0.0-388.0","3ZSY5X72NYXKH2TTUDP8ZPMG7N4ROR","A3L0DCUXI7X3A9","3H6W48L9F4B5OEOMH57RM53Z4H1WP0","","null","<img src=""img/land4.png"" style=""width:200px; border:14px solid green;"">","null","","","","","","","",""
"","image-keyboard-response","264","163466","0.0-390.0","3ZSY5X72NYXKH2TTUDP8ZPMG7N4ROR","A3L0DCUXI7X3A9","3H6W48L9F4B5OEOMH57RM53Z4H1WP0","","384","img/land2.png","75","384.7999999523163","2","1","false","1","1,1,0,0,1,1,1,0,1","",""
"","html-keyboard-response","265","163767","0.0-391.0","3ZSY5X72NYXKH2TTUDP8ZPMG7N4ROR","A3L0DCUXI7X3A9","3H6W48L9F4B5OEOMH57RM53Z4H1WP0","","null","<img src=""img/land2.png"" style=""width:200px; border:14px solid green;"">","null","","","","","","","",""
"","image-keyboard-response","266","164203","0.0-393.0","3ZSY5X72NYXKH2TTUDP8ZPMG7N4ROR","A3L0DCUXI7X3A9","3H6W48L9F4B5OEOMH57RM53Z4H1WP0","","434.10000002384186","img/land6.png","75","435.5","2","1","false","2","1,1,0,0,1,1,1,0,1","",""
"","html-keyboard-response","267","164505","0.0-394.0","3ZSY5X72NYXKH2TTUDP8ZPMG7N4ROR","A3L0DCUXI7X3A9","3H6W48L9F4B5OEOMH57RM53Z4H1WP0","","null","<img src=""img/land6.png"" style=""width:200px; border:14px solid green;"">","null","","","","","","","",""
"","image-keyboard-response","268","164858","0.0-396.0","3ZSY5X72NYXKH2TTUDP8ZPMG7N4ROR","A3L0DCUXI7X3A9","3H6W48L9F4B5OEOMH57RM53Z4H1WP0","","352.39999997615814","img/land6.png","75","353.1999999284744","2","1","false","2","1,1,0,0,1,1,1,0,1","",""
"","html-keyboard-response","269","165160","0.0-397.0","3ZSY5X72NYXKH2TTUDP8ZPMG7N4ROR","A3L0DCUXI7X3A9","3H6W48L9F4B5OEOMH57RM53Z4H1WP0","","null","<img src=""img/land6.png"" style=""width:200px; border:14px solid green;"">","null","","","","","","","",""
"","image-keyboard-response","270","165546","0.0-399.0","3ZSY5X72NYXKH2TTUDP8ZPMG7N4ROR","A3L0DCUXI7X3A9","3H6W48L9F4B5OEOMH57RM53Z4H1WP0","","384.2000000476837","img/land6.png","75","385.5","2","1","false","2","1,1,0,0,1,1,1,0,1","",""
"","html-keyboard-response","271","165848","0.0-400.0","3ZSY5X72NYXKH2TTUDP8ZPMG7N4ROR","A3L0DCUXI7X3A9","3H6W48L9F4B5OEOMH57RM53Z4H1WP0","","null","<img src=""img/land6.png"" style=""width:200px; border:14px solid green;"">","null","","","","","","","",""
"","image-keyboard-response","272","166187","0.0-402.0","3ZSY5X72NYXKH2TTUDP8ZPMG7N4ROR","A3L0DCUXI7X3A9","3H6W48L9F4B5OEOMH57RM53Z4H1WP0","","337.6999999284744","img/land6.png","75","338.7000000476837","2","1","false","2","1,1,0,0,1,1,1,0,1","",""
"","html-keyboard-response","273","166489","0.0-403.0","3ZSY5X72NYXKH2TTUDP8ZPMG7N4ROR","A3L0DCUXI7X3A9","3H6W48L9F4B5OEOMH57RM53Z4H1WP0","","null","<img src=""img/land6.png"" style=""width:200px; border:14px solid green;"">","null","","","","","","","",""
"","image-keyboard-response","274","166858","0.0-405.0","3ZSY5X72NYXKH2TTUDP8ZPMG7N4ROR","A3L0DCUXI7X3A9","3H6W48L9F4B5OEOMH57RM53Z4H1WP0","","366.39999997615814","img/land6.png","75","367.60000002384186","2","1","false","2","1,1,0,0,1,1,1,0,1","",""
"","html-keyboard-response","275","167159","0.0-406.0","3ZSY5X72NYXKH2TTUDP8ZPMG7N4ROR","A3L0DCUXI7X3A9","3H6W48L9F4B5OEOMH57RM53Z4H1WP0","","null","<img src=""img/land6.png"" style=""width:200px; border:14px solid green;"">","null","","","","","","","",""
"","image-keyboard-response","276","167579","0.0-408.0","3ZSY5X72NYXKH2TTUDP8ZPMG7N4ROR","A3L0DCUXI7X3A9","3H6W48L9F4B5OEOMH57RM53Z4H1WP0","","417.90000009536743","img/land4.png","76","419.10000002384186","3","1","false","3","1,1,0,0,1,1,1,0,1","",""
"","html-keyboard-response","277","167882","0.0-409.0","3ZSY5X72NYXKH2TTUDP8ZPMG7N4ROR","A3L0DCUXI7X3A9","3H6W48L9F4B5OEOMH57RM53Z4H1WP0","","null","<img src=""img/land4.png"" style=""width:200px; border:14px solid green;"">","null","","","","","","","",""
"","image-keyboard-response","278","168251","0.0-411.0","3ZSY5X72NYXKH2TTUDP8ZPMG7N4ROR","A3L0DCUXI7X3A9","3H6W48L9F4B5OEOMH57RM53Z4H1WP0","","367.39999997615814","img/land4.png","76","368.5","3","1","false","3","1,1,0,0,1,1,1,0,1","",""
"","html-keyboard-response","279","168553","0.0-412.0","3ZSY5X72NYXKH2TTUDP8ZPMG7N4ROR","A3L0DCUXI7X3A9","3H6W48L9F4B5OEOMH57RM53Z4H1WP0","","null","<img src=""img/land4.png"" style=""width:200px; border:14px solid green;"">","null","","","","","","","",""
"","image-keyboard-response","280","168987","0.0-414.0","3ZSY5X72NYXKH2TTUDP8ZPMG7N4ROR","A3L0DCUXI7X3A9","3H6W48L9F4B5OEOMH57RM53Z4H1WP0","","432.6999999284744","img/land2.png","75","433.59999990463257","2","1","false","1","1,1,0,0,1,1,1,0,1","",""
"","html-keyboard-response","281","169301","0.0-415.0","3ZSY5X72NYXKH2TTUDP8ZPMG7N4ROR","A3L0DCUXI7X3A9","3H6W48L9F4B5OEOMH57RM53Z4H1WP0","","null","<img src=""img/land2.png"" style=""width:200px; border:14px solid green;"">","null","","","","","","","",""
"","image-keyboard-response","282","169645","0.0-417.0","3ZSY5X72NYXKH2TTUDP8ZPMG7N4ROR","A3L0DCUXI7X3A9","3H6W48L9F4B5OEOMH57RM53Z4H1WP0","","342.2999999523163","img/land2.png","75","343.7000000476837","2","1","false","1","1,1,0,0,1,1,1,0,1","",""
"","html-keyboard-response","283","169949","0.0-418.0","3ZSY5X72NYXKH2TTUDP8ZPMG7N4ROR","A3L0DCUXI7X3A9","3H6W48L9F4B5OEOMH57RM53Z4H1WP0","","null","<img src=""img/land2.png"" style=""width:200px; border:14px solid green;"">","null","","","","","","","",""
"","image-keyboard-response","284","170442","0.0-420.0","3ZSY5X72NYXKH2TTUDP8ZPMG7N4ROR","A3L0DCUXI7X3A9","3H6W48L9F4B5OEOMH57RM53Z4H1WP0","","491.10000002384186","img/land6.png","75","492.2999999523163","2","1","false","2","1,1,0,0,1,1,1,0,1","",""
"","html-keyboard-response","285","170744","0.0-421.0","3ZSY5X72NYXKH2TTUDP8ZPMG7N4ROR","A3L0DCUXI7X3A9","3H6W48L9F4B5OEOMH57RM53Z4H1WP0","","null","<img src=""img/land6.png"" style=""width:200px; border:14px solid green;"">","null","","","","","","","",""
"","image-keyboard-response","286","171195","0.0-423.0","3ZSY5X72NYXKH2TTUDP8ZPMG7N4ROR","A3L0DCUXI7X3A9","3H6W48L9F4B5OEOMH57RM53Z4H1WP0","","449.5","img/land4.png","76","450.8000000715256","3","1","false","3","1,1,0,0,1,1,1,0,1","",""
"","html-keyboard-response","287","171497","0.0-424.0","3ZSY5X72NYXKH2TTUDP8ZPMG7N4ROR","A3L0DCUXI7X3A9","3H6W48L9F4B5OEOMH57RM53Z4H1WP0","","null","<img src=""img/land4.png"" style=""width:200px; border:14px solid green;"">","null","","","","","","","",""
"","image-keyboard-response","288","171930","0.0-426.0","3ZSY5X72NYXKH2TTUDP8ZPMG7N4ROR","A3L0DCUXI7X3A9","3H6W48L9F4B5OEOMH57RM53Z4H1WP0","","431","img/land4.png","76","432.10000002384186","3","1","false","3","1,1,0,0,1,1,1,0,1","",""
"","html-keyboard-response","289","172232","0.0-427.0","3ZSY5X72NYXKH2TTUDP8ZPMG7N4ROR","A3L0DCUXI7X3A9","3H6W48L9F4B5OEOMH57RM53Z4H1WP0","","null","<img src=""img/land4.png"" style=""width:200px; border:14px solid green;"">","null","","","","","","","",""
"","image-keyboard-response","290","172618","0.0-429.0","3ZSY5X72NYXKH2TTUDP8ZPMG7N4ROR","A3L0DCUXI7X3A9","3H6W48L9F4B5OEOMH57RM53Z4H1WP0","","384","img/land6.png","75","384.90000009536743","2","1","false","2","1,1,0,0,1,1,1,0,1","",""
"","html-keyboard-response","291","172919","0.0-430.0","3ZSY5X72NYXKH2TTUDP8ZPMG7N4ROR","A3L0DCUXI7X3A9","3H6W48L9F4B5OEOMH57RM53Z4H1WP0","","null","<img src=""img/land6.png"" style=""width:200px; border:14px solid green;"">","null","","","","","","","",""
"","image-keyboard-response","292","173243","0.0-432.0","3ZSY5X72NYXKH2TTUDP8ZPMG7N4ROR","A3L0DCUXI7X3A9","3H6W48L9F4B5OEOMH57RM53Z4H1WP0","","321.7999999523163","img/land6.png","75","323.10000002384186","2","1","false","2","1,1,0,0,1,1,1,0,1","",""
"","html-keyboard-response","293","173546","0.0-433.0","3ZSY5X72NYXKH2TTUDP8ZPMG7N4ROR","A3L0DCUXI7X3A9","3H6W48L9F4B5OEOMH57RM53Z4H1WP0","","null","<img src=""img/land6.png"" style=""width:200px; border:14px solid green;"">","null","","","","","","","",""
"","image-keyboard-response","294","173980","0.0-435.0","3ZSY5X72NYXKH2TTUDP8ZPMG7N4ROR","A3L0DCUXI7X3A9","3H6W48L9F4B5OEOMH57RM53Z4H1WP0","","431.3000000715256","img/land4.png","76","432.60000002384186","3","1","false","3","1,1,0,0,1,1,1,0,1","",""
"","html-keyboard-response","295","174282","0.0-436.0","3ZSY5X72NYXKH2TTUDP8ZPMG7N4ROR","A3L0DCUXI7X3A9","3H6W48L9F4B5OEOMH57RM53Z4H1WP0","","null","<img src=""img/land4.png"" style=""width:200px; border:14px solid green;"">","null","","","","","","","",""
"","image-keyboard-response","296","174763","0.0-438.0","3ZSY5X72NYXKH2TTUDP8ZPMG7N4ROR","A3L0DCUXI7X3A9","3H6W48L9F4B5OEOMH57RM53Z4H1WP0","","479.2000000476837","img/land6.png","75","480.7000000476837","2","1","false","2","1,1,0,0,1,1,1,0,1","",""
"","html-keyboard-response","297","175066","0.0-439.0","3ZSY5X72NYXKH2TTUDP8ZPMG7N4ROR","A3L0DCUXI7X3A9","3H6W48L9F4B5OEOMH57RM53Z4H1WP0","","null","<img src=""img/land6.png"" style=""width:200px; border:14px solid green;"">","null","","","","","","","",""
"","image-keyboard-response","298","175483","0.0-441.0","3ZSY5X72NYXKH2TTUDP8ZPMG7N4ROR","A3L0DCUXI7X3A9","3H6W48L9F4B5OEOMH57RM53Z4H1WP0","","414.7000000476837","img/land2.png","75","416.09999990463257","2","1","false","1","1,1,0,0,1,1,1,0,1","",""
"","html-keyboard-response","299","175786","0.0-442.0","3ZSY5X72NYXKH2TTUDP8ZPMG7N4ROR","A3L0DCUXI7X3A9","3H6W48L9F4B5OEOMH57RM53Z4H1WP0","","null","<img src=""img/land2.png"" style=""width:200px; border:14px solid green;"">","null","","","","","","","",""
"","image-keyboard-response","300","176253","0.0-444.0","3ZSY5X72NYXKH2TTUDP8ZPMG7N4ROR","A3L0DCUXI7X3A9","3H6W48L9F4B5OEOMH57RM53Z4H1WP0","","465.7999999523163","img/land4.png","76","466.7000000476837","3","1","false","3","1,1,0,0,1,1,1,0,1","",""
"","html-keyboard-response","301","176555","0.0-445.0","3ZSY5X72NYXKH2TTUDP8ZPMG7N4ROR","A3L0DCUXI7X3A9","3H6W48L9F4B5OEOMH57RM53Z4H1WP0","","null","<img src=""img/land4.png"" style=""width:200px; border:14px solid green;"">","null","","","","","","","",""
"","image-keyboard-response","302","176939","0.0-447.0","3ZSY5X72NYXKH2TTUDP8ZPMG7N4ROR","A3L0DCUXI7X3A9","3H6W48L9F4B5OEOMH57RM53Z4H1WP0","","382.40000009536743","img/land2.png","75","383.7999999523163","2","1","false","1","1,1,0,0,1,1,1,0,1","",""
"","html-keyboard-response","303","177242","0.0-448.0","3ZSY5X72NYXKH2TTUDP8ZPMG7N4ROR","A3L0DCUXI7X3A9","3H6W48L9F4B5OEOMH57RM53Z4H1WP0","","null","<img src=""img/land2.png"" style=""width:200px; border:14px solid green;"">","null","","","","","","","",""
"","image-keyboard-response","304","177642","0.0-450.0","3ZSY5X72NYXKH2TTUDP8ZPMG7N4ROR","A3L0DCUXI7X3A9","3H6W48L9F4B5OEOMH57RM53Z4H1WP0","","397.89999997615814","img/land2.png","75","398.89999997615814","2","1","false","1","1,1,0,0,1,1,1,0,1","",""
"","html-keyboard-response","305","177943","0.0-451.0","3ZSY5X72NYXKH2TTUDP8ZPMG7N4ROR","A3L0DCUXI7X3A9","3H6W48L9F4B5OEOMH57RM53Z4H1WP0","","null","<img src=""img/land2.png"" style=""width:200px; border:14px solid green;"">","null","","","","","","","",""
"","image-keyboard-response","306","178363","0.0-453.0","3ZSY5X72NYXKH2TTUDP8ZPMG7N4ROR","A3L0DCUXI7X3A9","3H6W48L9F4B5OEOMH57RM53Z4H1WP0","","418.3000000715256","img/land2.png","75","419.6999999284744","2","1","false","1","1,1,0,0,1,1,1,0,1","",""
"","html-keyboard-response","307","178666","0.0-454.0","3ZSY5X72NYXKH2TTUDP8ZPMG7N4ROR","A3L0DCUXI7X3A9","3H6W48L9F4B5OEOMH57RM53Z4H1WP0","","null","<img src=""img/land2.png"" style=""width:200px; border:14px solid green;"">","null","","","","","","","",""
"","image-keyboard-response","308","179051","0.0-456.0","3ZSY5X72NYXKH2TTUDP8ZPMG7N4ROR","A3L0DCUXI7X3A9","3H6W48L9F4B5OEOMH57RM53Z4H1WP0","","383.8000000715256","img/land2.png","75","384.6999999284744","2","1","false","1","1,1,0,0,1,1,1,0,1","",""
"","html-keyboard-response","309","179364","0.0-457.0","3ZSY5X72NYXKH2TTUDP8ZPMG7N4ROR","A3L0DCUXI7X3A9","3H6W48L9F4B5OEOMH57RM53Z4H1WP0","","null","<img src=""img/land2.png"" style=""width:200px; border:14px solid green;"">","null","","","","","","","",""
"","image-keyboard-response","310","179804","0.0-459.0","3ZSY5X72NYXKH2TTUDP8ZPMG7N4ROR","A3L0DCUXI7X3A9","3H6W48L9F4B5OEOMH57RM53Z4H1WP0","","438.1999999284744","img/land4.png","76","439.5","3","1","false","3","1,1,0,0,1,1,1,0,1","",""
"","html-keyboard-response","311","180106","0.0-460.0","3ZSY5X72NYXKH2TTUDP8ZPMG7N4ROR","A3L0DCUXI7X3A9","3H6W48L9F4B5OEOMH57RM53Z4H1WP0","","null","<img src=""img/land4.png"" style=""width:200px; border:14px solid green;"">","null","","","","","","","",""
"","image-keyboard-response","312","180523","0.0-462.0","3ZSY5X72NYXKH2TTUDP8ZPMG7N4ROR","A3L0DCUXI7X3A9","3H6W48L9F4B5OEOMH57RM53Z4H1WP0","","414.60000002384186","img/land6.png","75","416.2000000476837","2","1","false","2","1,1,0,0,1,1,1,0,1","",""
"","html-keyboard-response","313","180826","0.0-463.0","3ZSY5X72NYXKH2TTUDP8ZPMG7N4ROR","A3L0DCUXI7X3A9","3H6W48L9F4B5OEOMH57RM53Z4H1WP0","","null","<img src=""img/land6.png"" style=""width:200px; border:14px solid green;"">","null","","","","","","","",""
"","image-keyboard-response","314","181226","0.0-465.0","3ZSY5X72NYXKH2TTUDP8ZPMG7N4ROR","A3L0DCUXI7X3A9","3H6W48L9F4B5OEOMH57RM53Z4H1WP0","","398.39999997615814","img/land6.png","75","399.3000000715256","2","1","false","2","1,1,0,0,1,1,1,0,1","",""
"","html-keyboard-response","315","181528","0.0-466.0","3ZSY5X72NYXKH2TTUDP8ZPMG7N4ROR","A3L0DCUXI7X3A9","3H6W48L9F4B5OEOMH57RM53Z4H1WP0","","null","<img src=""img/land6.png"" style=""width:200px; border:14px solid green;"">","null","","","","","","","",""
"","image-keyboard-response","316","181996","0.0-468.0","3ZSY5X72NYXKH2TTUDP8ZPMG7N4ROR","A3L0DCUXI7X3A9","3H6W48L9F4B5OEOMH57RM53Z4H1WP0","","466.39999997615814","img/land2.png","76","467.6999999284744","3","0","false","1","1,1,0,0,1,1,1,0,1","",""
"","html-keyboard-response","317","182299","0.0-469.0","3ZSY5X72NYXKH2TTUDP8ZPMG7N4ROR","A3L0DCUXI7X3A9","3H6W48L9F4B5OEOMH57RM53Z4H1WP0","","null","<img src=""img/land2.png"" style=""width:200px;border:14px solid red;"">","null","","","","","","","",""
"","image-keyboard-response","318","182763","0.0-471.0","3ZSY5X72NYXKH2TTUDP8ZPMG7N4ROR","A3L0DCUXI7X3A9","3H6W48L9F4B5OEOMH57RM53Z4H1WP0","","462.10000002384186","img/land4.png","75","463.89999997615814","2","0","false","3","1,1,0,0,1,1,1,0,1","",""
"","html-keyboard-response","319","183065","0.0-472.0","3ZSY5X72NYXKH2TTUDP8ZPMG7N4ROR","A3L0DCUXI7X3A9","3H6W48L9F4B5OEOMH57RM53Z4H1WP0","","null","<img src=""img/land4.png"" style=""width:200px;border:14px solid red;"">","null","","","","","","","",""
"","image-keyboard-response","320","183707","0.0-474.0","3ZSY5X72NYXKH2TTUDP8ZPMG7N4ROR","A3L0DCUXI7X3A9","3H6W48L9F4B5OEOMH57RM53Z4H1WP0","","639.7000000476837","img/land2.png","75","641.1000000238419","2","1","false","1","1,1,0,0,1,1,1,0,1","",""
"","html-keyboard-response","321","184011","0.0-475.0","3ZSY5X72NYXKH2TTUDP8ZPMG7N4ROR","A3L0DCUXI7X3A9","3H6W48L9F4B5OEOMH57RM53Z4H1WP0","","null","<img src=""img/land2.png"" style=""width:200px; border:14px solid green;"">","null","","","","","","","",""
"","image-keyboard-response","322","184413","0.0-477.0","3ZSY5X72NYXKH2TTUDP8ZPMG7N4ROR","A3L0DCUXI7X3A9","3H6W48L9F4B5OEOMH57RM53Z4H1WP0","","400.5","img/land2.png","75","402","2","1","false","1","1,1,0,0,1,1,1,0,1","",""
"","html-keyboard-response","323","184716","0.0-478.0","3ZSY5X72NYXKH2TTUDP8ZPMG7N4ROR","A3L0DCUXI7X3A9","3H6W48L9F4B5OEOMH57RM53Z4H1WP0","","null","<img src=""img/land2.png"" style=""width:200px; border:14px solid green;"">","null","","","","","","","",""
"","image-keyboard-response","324","185388","0.0-480.0","3ZSY5X72NYXKH2TTUDP8ZPMG7N4ROR","A3L0DCUXI7X3A9","3H6W48L9F4B5OEOMH57RM53Z4H1WP0","","670","img/land6.png","75","671.5999999046326","2","1","false","2","1,1,0,0,1,1,1,0,1","",""
"","html-keyboard-response","325","185690","0.0-481.0","3ZSY5X72NYXKH2TTUDP8ZPMG7N4ROR","A3L0DCUXI7X3A9","3H6W48L9F4B5OEOMH57RM53Z4H1WP0","","null","<img src=""img/land6.png"" style=""width:200px; border:14px solid green;"">","null","","","","","","","",""
"","image-keyboard-response","326","186090","0.0-483.0","3ZSY5X72NYXKH2TTUDP8ZPMG7N4ROR","A3L0DCUXI7X3A9","3H6W48L9F4B5OEOMH57RM53Z4H1WP0","","398.60000002384186","img/land6.png","75","399.89999997615814","2","1","false","2","1,1,0,0,1,1,1,0,1","",""
"","html-keyboard-response","327","186394","0.0-484.0","3ZSY5X72NYXKH2TTUDP8ZPMG7N4ROR","A3L0DCUXI7X3A9","3H6W48L9F4B5OEOMH57RM53Z4H1WP0","","null","<img src=""img/land6.png"" style=""width:200px; border:14px solid green;"">","null","","","","","","","",""
"","image-keyboard-response","328","187051","0.0-486.0","3ZSY5X72NYXKH2TTUDP8ZPMG7N4ROR","A3L0DCUXI7X3A9","3H6W48L9F4B5OEOMH57RM53Z4H1WP0","","655.3999999761581","img/land4.png","76","656.9000000953674","3","1","false","3","1,1,0,0,1,1,1,0,1","",""
"","html-keyboard-response","329","187353","0.0-487.0","3ZSY5X72NYXKH2TTUDP8ZPMG7N4ROR","A3L0DCUXI7X3A9","3H6W48L9F4B5OEOMH57RM53Z4H1WP0","","null","<img src=""img/land4.png"" style=""width:200px; border:14px solid green;"">","null","","","","","","","",""
"","image-keyboard-response","330","187739","0.0-489.0","3ZSY5X72NYXKH2TTUDP8ZPMG7N4ROR","A3L0DCUXI7X3A9","3H6W48L9F4B5OEOMH57RM53Z4H1WP0","","383.89999997615814","img/land2.png","75","385.2000000476837","2","1","false","1","1,1,0,0,1,1,1,0,1","",""
"","html-keyboard-response","331","188042","0.0-490.0","3ZSY5X72NYXKH2TTUDP8ZPMG7N4ROR","A3L0DCUXI7X3A9","3H6W48L9F4B5OEOMH57RM53Z4H1WP0","","null","<img src=""img/land2.png"" style=""width:200px; border:14px solid green;"">","null","","","","","","","",""
"","image-keyboard-response","332","188587","0.0-492.0","3ZSY5X72NYXKH2TTUDP8ZPMG7N4ROR","A3L0DCUXI7X3A9","3H6W48L9F4B5OEOMH57RM53Z4H1WP0","","543.5999999046326","img/land4.png","76","545","3","1","false","3","1,1,0,0,1,1,1,0,1","",""
"","html-keyboard-response","333","188890","0.0-493.0","3ZSY5X72NYXKH2TTUDP8ZPMG7N4ROR","A3L0DCUXI7X3A9","3H6W48L9F4B5OEOMH57RM53Z4H1WP0","","null","<img src=""img/land4.png"" style=""width:200px; border:14px solid green;"">","null","","","","","","","",""
"","image-keyboard-response","334","189259","0.0-495.0","3ZSY5X72NYXKH2TTUDP8ZPMG7N4ROR","A3L0DCUXI7X3A9","3H6W48L9F4B5OEOMH57RM53Z4H1WP0","","366.7999999523163","img/land2.png","75","368.3000000715256","2","1","false","1","1,1,0,0,1,1,1,0,1","",""
"","html-keyboard-response","335","189563","0.0-496.0","3ZSY5X72NYXKH2TTUDP8ZPMG7N4ROR","A3L0DCUXI7X3A9","3H6W48L9F4B5OEOMH57RM53Z4H1WP0","","null","<img src=""img/land2.png"" style=""width:200px; border:14px solid green;"">","null","","","","","","","",""
"","image-keyboard-response","336","189897","0.0-498.0","3ZSY5X72NYXKH2TTUDP8ZPMG7N4ROR","A3L0DCUXI7X3A9","3H6W48L9F4B5OEOMH57RM53Z4H1WP0","","332.90000009536743","img/land2.png","75","333.7999999523163","2","1","false","1","1,1,0,0,1,1,1,0,1","",""
"","html-keyboard-response","337","190199","0.0-499.0","3ZSY5X72NYXKH2TTUDP8ZPMG7N4ROR","A3L0DCUXI7X3A9","3H6W48L9F4B5OEOMH57RM53Z4H1WP0","","null","<img src=""img/land2.png"" style=""width:200px; border:14px solid green;"">","null","","","","","","","",""
"","image-keyboard-response","338","190747","0.0-501.0","3ZSY5X72NYXKH2TTUDP8ZPMG7N4ROR","A3L0DCUXI7X3A9","3H6W48L9F4B5OEOMH57RM53Z4H1WP0","","546.5","img/land6.png","75","547.7999999523163","2","1","false","2","1,1,0,0,1,1,1,0,1","",""
"","html-keyboard-response","339","191051","0.0-502.0","3ZSY5X72NYXKH2TTUDP8ZPMG7N4ROR","A3L0DCUXI7X3A9","3H6W48L9F4B5OEOMH57RM53Z4H1WP0","","null","<img src=""img/land6.png"" style=""width:200px; border:14px solid green;"">","null","","","","","","","",""
"","image-keyboard-response","340","191387","0.0-504.0","3ZSY5X72NYXKH2TTUDP8ZPMG7N4ROR","A3L0DCUXI7X3A9","3H6W48L9F4B5OEOMH57RM53Z4H1WP0","","334.5","img/land6.png","75","335.89999997615814","2","1","false","2","1,1,0,0,1,1,1,0,1","",""
"","html-keyboard-response","341","191690","0.0-505.0","3ZSY5X72NYXKH2TTUDP8ZPMG7N4ROR","A3L0DCUXI7X3A9","3H6W48L9F4B5OEOMH57RM53Z4H1WP0","","null","<img src=""img/land6.png"" style=""width:200px; border:14px solid green;"">","null","","","","","","","",""
"","image-keyboard-response","342","192074","0.0-507.0","3ZSY5X72NYXKH2TTUDP8ZPMG7N4ROR","A3L0DCUXI7X3A9","3H6W48L9F4B5OEOMH57RM53Z4H1WP0","","383.10000002384186","img/land6.png","75","383.7999999523163","2","1","false","2","1,1,0,0,1,1,1,0,1","",""
"","html-keyboard-response","343","192376","0.0-508.0","3ZSY5X72NYXKH2TTUDP8ZPMG7N4ROR","A3L0DCUXI7X3A9","3H6W48L9F4B5OEOMH57RM53Z4H1WP0","","null","<img src=""img/land6.png"" style=""width:200px; border:14px solid green;"">","null","","","","","","","",""
"","image-keyboard-response","344","193067","0.0-510.0","3ZSY5X72NYXKH2TTUDP8ZPMG7N4ROR","A3L0DCUXI7X3A9","3H6W48L9F4B5OEOMH57RM53Z4H1WP0","","688.7999999523163","img/land2.png","75","690","2","1","false","1","1,1,0,0,1,1,1,0,1","",""
"","html-keyboard-response","345","193369","0.0-511.0","3ZSY5X72NYXKH2TTUDP8ZPMG7N4ROR","A3L0DCUXI7X3A9","3H6W48L9F4B5OEOMH57RM53Z4H1WP0","","null","<img src=""img/land2.png"" style=""width:200px; border:14px solid green;"">","null","","","","","","","",""
"","image-keyboard-response","346","193835","0.0-513.0","3ZSY5X72NYXKH2TTUDP8ZPMG7N4ROR","A3L0DCUXI7X3A9","3H6W48L9F4B5OEOMH57RM53Z4H1WP0","","464.10000002384186","img/land6.png","75","465.2999999523163","2","1","false","2","1,1,0,0,1,1,1,0,1","",""
"","html-keyboard-response","347","194138","0.0-514.0","3ZSY5X72NYXKH2TTUDP8ZPMG7N4ROR","A3L0DCUXI7X3A9","3H6W48L9F4B5OEOMH57RM53Z4H1WP0","","null","<img src=""img/land6.png"" style=""width:200px; border:14px solid green;"">","null","","","","","","","",""
"","image-keyboard-response","348","194489","0.0-516.0","3ZSY5X72NYXKH2TTUDP8ZPMG7N4ROR","A3L0DCUXI7X3A9","3H6W48L9F4B5OEOMH57RM53Z4H1WP0","","349.2999999523163","img/land6.png","75","350.2999999523163","2","1","false","2","1,1,0,0,1,1,1,0,1","",""
"","html-keyboard-response","349","194791","0.0-517.0","3ZSY5X72NYXKH2TTUDP8ZPMG7N4ROR","A3L0DCUXI7X3A9","3H6W48L9F4B5OEOMH57RM53Z4H1WP0","","null","<img src=""img/land6.png"" style=""width:200px; border:14px solid green;"">","null","","","","","","","",""
"","image-keyboard-response","350","195323","0.0-519.0","3ZSY5X72NYXKH2TTUDP8ZPMG7N4ROR","A3L0DCUXI7X3A9","3H6W48L9F4B5OEOMH57RM53Z4H1WP0","","529.7000000476837","img/land4.png","76","531.1000000238419","3","1","false","3","1,1,0,0,1,1,1,0,1","",""
"","html-keyboard-response","351","195625","0.0-520.0","3ZSY5X72NYXKH2TTUDP8ZPMG7N4ROR","A3L0DCUXI7X3A9","3H6W48L9F4B5OEOMH57RM53Z4H1WP0","","null","<img src=""img/land4.png"" style=""width:200px; border:14px solid green;"">","null","","","","","","","",""
"","image-keyboard-response","352","196074","0.0-522.0","3ZSY5X72NYXKH2TTUDP8ZPMG7N4ROR","A3L0DCUXI7X3A9","3H6W48L9F4B5OEOMH57RM53Z4H1WP0","","447.39999997615814","img/land2.png","75","448.39999997615814","2","1","false","1","1,1,0,0,1,1,1,0,1","",""
"","html-keyboard-response","353","196375","0.0-523.0","3ZSY5X72NYXKH2TTUDP8ZPMG7N4ROR","A3L0DCUXI7X3A9","3H6W48L9F4B5OEOMH57RM53Z4H1WP0","","null","<img src=""img/land2.png"" style=""width:200px; border:14px solid green;"">","null","","","","","","","",""
"","image-keyboard-response","354","196732","0.0-525.0","3ZSY5X72NYXKH2TTUDP8ZPMG7N4ROR","A3L0DCUXI7X3A9","3H6W48L9F4B5OEOMH57RM53Z4H1WP0","","354.89999997615814","img/land2.png","75","356","2","1","false","1","1,1,0,0,1,1,1,0,1","",""
"","html-keyboard-response","355","197034","0.0-526.0","3ZSY5X72NYXKH2TTUDP8ZPMG7N4ROR","A3L0DCUXI7X3A9","3H6W48L9F4B5OEOMH57RM53Z4H1WP0","","null","<img src=""img/land2.png"" style=""width:200px; border:14px solid green;"">","null","","","","","","","",""
"","image-keyboard-response","356","197643","0.0-528.0","3ZSY5X72NYXKH2TTUDP8ZPMG7N4ROR","A3L0DCUXI7X3A9","3H6W48L9F4B5OEOMH57RM53Z4H1WP0","","606.6999999284744","img/land4.png","76","607.8999999761581","3","1","false","3","1,1,0,0,1,1,1,0,1","",""
"","html-keyboard-response","357","197946","0.0-529.0","3ZSY5X72NYXKH2TTUDP8ZPMG7N4ROR","A3L0DCUXI7X3A9","3H6W48L9F4B5OEOMH57RM53Z4H1WP0","","null","<img src=""img/land4.png"" style=""width:200px; border:14px solid green;"">","null","","","","","","","",""
"","image-keyboard-response","358","198378","0.0-531.0","3ZSY5X72NYXKH2TTUDP8ZPMG7N4ROR","A3L0DCUXI7X3A9","3H6W48L9F4B5OEOMH57RM53Z4H1WP0","","430.1999999284744","img/land6.png","75","431.39999997615814","2","1","false","2","1,1,0,0,1,1,1,0,1","",""
"","html-keyboard-response","359","198680","0.0-532.0","3ZSY5X72NYXKH2TTUDP8ZPMG7N4ROR","A3L0DCUXI7X3A9","3H6W48L9F4B5OEOMH57RM53Z4H1WP0","","null","<img src=""img/land6.png"" style=""width:200px; border:14px solid green;"">","null","","","","","","","",""
"","image-keyboard-response","360","199001","0.0-534.0","3ZSY5X72NYXKH2TTUDP8ZPMG7N4ROR","A3L0DCUXI7X3A9","3H6W48L9F4B5OEOMH57RM53Z4H1WP0","","319.1999999284744","img/land6.png","75","320.39999997615814","2","1","false","2","1,1,0,0,1,1,1,0,1","",""
"","html-keyboard-response","361","199304","0.0-535.0","3ZSY5X72NYXKH2TTUDP8ZPMG7N4ROR","A3L0DCUXI7X3A9","3H6W48L9F4B5OEOMH57RM53Z4H1WP0","","null","<img src=""img/land6.png"" style=""width:200px; border:14px solid green;"">","null","","","","","","","",""
"","image-keyboard-response","362","199883","0.0-537.0","3ZSY5X72NYXKH2TTUDP8ZPMG7N4ROR","A3L0DCUXI7X3A9","3H6W48L9F4B5OEOMH57RM53Z4H1WP0","","577.3000000715256","img/land4.png","76","578.7999999523163","3","1","false","3","1,1,0,0,1,1,1,0,1","",""
"","html-keyboard-response","363","200185","0.0-538.0","3ZSY5X72NYXKH2TTUDP8ZPMG7N4ROR","A3L0DCUXI7X3A9","3H6W48L9F4B5OEOMH57RM53Z4H1WP0","","null","<img src=""img/land4.png"" style=""width:200px; border:14px solid green;"">","null","","","","","","","",""
"","image-keyboard-response","364","200586","0.0-540.0","3ZSY5X72NYXKH2TTUDP8ZPMG7N4ROR","A3L0DCUXI7X3A9","3H6W48L9F4B5OEOMH57RM53Z4H1WP0","","400.3000000715256","img/land2.png","75","401","2","1","false","1","1,1,0,0,1,1,1,0,1","",""
"","html-keyboard-response","365","200889","0.0-541.0","3ZSY5X72NYXKH2TTUDP8ZPMG7N4ROR","A3L0DCUXI7X3A9","3H6W48L9F4B5OEOMH57RM53Z4H1WP0","","null","<img src=""img/land2.png"" style=""width:200px; border:14px solid green;"">","null","","","","","","","",""
"","instructions","366","204337","0.0-543.0","3ZSY5X72NYXKH2TTUDP8ZPMG7N4ROR","A3L0DCUXI7X3A9","3H6W48L9F4B5OEOMH57RM53Z4H1WP0","[{""page_index"":0,""viewing_time"":3447.8000000715256}]","3447.9000000953674","","","","","","","","","",""
"","survey-text","367","207843","0.0-544.0-0.0","3ZSY5X72NYXKH2TTUDP8ZPMG7N4ROR","A3L0DCUXI7X3A9","3H6W48L9F4B5OEOMH57RM53Z4H1WP0","","3503.9000000953674","","","","","","","","","{""Q0"":""45""}",""
"","survey-multi-choice","368","210839","0.0-544.0-1.0","3ZSY5X72NYXKH2TTUDP8ZPMG7N4ROR","A3L0DCUXI7X3A9","3H6W48L9F4B5OEOMH57RM53Z4H1WP0","","2995","","","","","","","","","{""gender"":""M""}","[0]"
"","survey-text","369","218040","0.0-545.0","3ZSY5X72NYXKH2TTUDP8ZPMG7N4ROR","A3L0DCUXI7X3A9","3H6W48L9F4B5OEOMH57RM53Z4H1WP0","","7198.899999976158","","","","","","","","","{""Q0"":""A3L0DCUXI7X3A9""}",""
