"success","trial_type","trial_index","time_elapsed","internal_node_id","assignmentID","mturkID","hitID","view_history","rt","stimulus","key_press","reactionTime","a","r","s","cond","reward_cond","reward_cond_actual","reward_matrix_idx","responses","question_order"
"true","fullscreen","0","8648","0.0-0.0","3JWH6J9I9TZFJACSX135KLH72JWNBI","A3L2VS3998R77L","3Z3R5YC0P3915KVY8X6BNRIWYOFFTN","","","","","","","","","","","","","",""
"","instructions","1","78408","0.0-1.0","3JWH6J9I9TZFJACSX135KLH72JWNBI","A3L2VS3998R77L","3Z3R5YC0P3915KVY8X6BNRIWYOFFTN","[{""page_index"":0,""viewing_time"":9848.299999952316},{""page_index"":1,""viewing_time"":10068.200000047684},{""page_index"":2,""viewing_time"":9492.299999952316},{""page_index"":3,""viewing_time"":8285},{""page_index"":4,""viewing_time"":8040},{""page_index"":5,""viewing_time"":18866.10000014305},{""page_index"":6,""viewing_time"":5158.200000047684}]","69758.60000014305","","","","","","","","","","","",""
"","image-keyboard-response","2","79287","0.0-2.0","3JWH6J9I9TZFJACSX135KLH72JWNBI","A3L2VS3998R77L","3Z3R5YC0P3915KVY8X6BNRIWYOFFTN","","878","img/land2.png","75","878.7999999523163","2","1","1","1","0.8,0.2,0.2,0.2,0.8,0.2,0.2,0.2,0.8","0.8,0.2,0.2,0.2,0.8,0.2,0.2,0.2,0.8","1","",""
"","html-keyboard-response","3","79589","0.0-3.0","3JWH6J9I9TZFJACSX135KLH72JWNBI","A3L2VS3998R77L","3Z3R5YC0P3915KVY8X6BNRIWYOFFTN","","null","<img src=""img/land2.png"" style=""width:200px; border:14px solid green;"">","null","","","","","","","","","",""
"","image-keyboard-response","4","80334","0.0-4.0","3JWH6J9I9TZFJACSX135KLH72JWNBI","A3L2VS3998R77L","3Z3R5YC0P3915KVY8X6BNRIWYOFFTN","","744.4000000953674","img/land2.png","75","744.7999999523163","2","0","1","1","0.8,0.2,0.2,0.2,0.8,0.2,0.2,0.2,0.8","0.8,0.2,0.2,0.2,0.8,0.2,0.2,0.2,0.8","1","",""
"","html-keyboard-response","5","80636","0.0-5.0","3JWH6J9I9TZFJACSX135KLH72JWNBI","A3L2VS3998R77L","3Z3R5YC0P3915KVY8X6BNRIWYOFFTN","","null","<img src=""img/land2.png"" style=""width:200px;border:14px solid red;"">","null","","","","","","","","","",""
"","image-keyboard-response","6","81365","0.0-6.0","3JWH6J9I9TZFJACSX135KLH72JWNBI","A3L2VS3998R77L","3Z3R5YC0P3915KVY8X6BNRIWYOFFTN","","728.9000000953674","img/land2.png","74","729.4000000953674","1","1","1","1","0.8,0.2,0.2,0.2,0.8,0.2,0.2,0.2,0.8","0.8,0.2,0.2,0.2,0.8,0.2,0.2,0.2,0.8","1","",""
"","html-keyboard-response","7","81667","0.0-7.0","3JWH6J9I9TZFJACSX135KLH72JWNBI","A3L2VS3998R77L","3Z3R5YC0P3915KVY8X6BNRIWYOFFTN","","null","<img src=""img/land2.png"" style=""width:200px; border:14px solid green;"">","null","","","","","","","","","",""
"","image-keyboard-response","8","82386","0.0-8.0","3JWH6J9I9TZFJACSX135KLH72JWNBI","A3L2VS3998R77L","3Z3R5YC0P3915KVY8X6BNRIWYOFFTN","","718","img/land2.png","74","718.5","1","1","1","1","0.8,0.2,0.2,0.2,0.8,0.2,0.2,0.2,0.8","0.8,0.2,0.2,0.2,0.8,0.2,0.2,0.2,0.8","1","",""
"","html-keyboard-response","9","82687","0.0-9.0","3JWH6J9I9TZFJACSX135KLH72JWNBI","A3L2VS3998R77L","3Z3R5YC0P3915KVY8X6BNRIWYOFFTN","","null","<img src=""img/land2.png"" style=""width:200px; border:14px solid green;"">","null","","","","","","","","","",""
"","image-keyboard-response","10","83596","0.0-10.0","3JWH6J9I9TZFJACSX135KLH72JWNBI","A3L2VS3998R77L","3Z3R5YC0P3915KVY8X6BNRIWYOFFTN","","907.5","img/land4.png","75","908.1000001430511","2","0","3","1","0.8,0.2,0.2,0.2,0.8,0.2,0.2,0.2,0.8","0.8,0.2,0.2,0.2,0.8,0.2,0.2,0.2,0.8","1","",""
"","html-keyboard-response","11","83897","0.0-11.0","3JWH6J9I9TZFJACSX135KLH72JWNBI","A3L2VS3998R77L","3Z3R5YC0P3915KVY8X6BNRIWYOFFTN","","null","<img src=""img/land4.png"" style=""width:200px;border:14px solid red;"">","null","","","","","","","","","",""
"","image-keyboard-response","12","84429","0.0-12.0","3JWH6J9I9TZFJACSX135KLH72JWNBI","A3L2VS3998R77L","3Z3R5YC0P3915KVY8X6BNRIWYOFFTN","","531.4000000953674","img/land4.png","76","531.9000000953674","3","1","3","1","0.8,0.2,0.2,0.2,0.8,0.2,0.2,0.2,0.8","0.8,0.2,0.2,0.2,0.8,0.2,0.2,0.2,0.8","1","",""
"","html-keyboard-response","13","84730","0.0-13.0","3JWH6J9I9TZFJACSX135KLH72JWNBI","A3L2VS3998R77L","3Z3R5YC0P3915KVY8X6BNRIWYOFFTN","","null","<img src=""img/land4.png"" style=""width:200px; border:14px solid green;"">","null","","","","","","","","","",""
"","image-keyboard-response","14","85591","0.0-14.0","3JWH6J9I9TZFJACSX135KLH72JWNBI","A3L2VS3998R77L","3Z3R5YC0P3915KVY8X6BNRIWYOFFTN","","860.5","img/land3.png","76","860.9000000953674","3","0","2","1","0.8,0.2,0.2,0.2,0.8,0.2,0.2,0.2,0.8","0.8,0.2,0.2,0.2,0.8,0.2,0.2,0.2,0.8","1","",""
"","html-keyboard-response","15","85893","0.0-15.0","3JWH6J9I9TZFJACSX135KLH72JWNBI","A3L2VS3998R77L","3Z3R5YC0P3915KVY8X6BNRIWYOFFTN","","null","<img src=""img/land3.png"" style=""width:200px;border:14px solid red;"">","null","","","","","","","","","",""
"","image-keyboard-response","16","86502","0.0-16.0","3JWH6J9I9TZFJACSX135KLH72JWNBI","A3L2VS3998R77L","3Z3R5YC0P3915KVY8X6BNRIWYOFFTN","","609","img/land2.png","75","609.6000001430511","2","0","1","1","0.8,0.2,0.2,0.2,0.8,0.2,0.2,0.2,0.8","0.8,0.2,0.2,0.2,0.8,0.2,0.2,0.2,0.8","1","",""
"","html-keyboard-response","17","86804","0.0-17.0","3JWH6J9I9TZFJACSX135KLH72JWNBI","A3L2VS3998R77L","3Z3R5YC0P3915KVY8X6BNRIWYOFFTN","","null","<img src=""img/land2.png"" style=""width:200px;border:14px solid red;"">","null","","","","","","","","","",""
"","image-keyboard-response","18","87369","0.0-18.0","3JWH6J9I9TZFJACSX135KLH72JWNBI","A3L2VS3998R77L","3Z3R5YC0P3915KVY8X6BNRIWYOFFTN","","564.8000001907349","img/land2.png","74","565.0999999046326","1","1","1","1","0.8,0.2,0.2,0.2,0.8,0.2,0.2,0.2,0.8","0.8,0.2,0.2,0.2,0.8,0.2,0.2,0.2,0.8","1","",""
"","html-keyboard-response","19","87670","0.0-19.0","3JWH6J9I9TZFJACSX135KLH72JWNBI","A3L2VS3998R77L","3Z3R5YC0P3915KVY8X6BNRIWYOFFTN","","null","<img src=""img/land2.png"" style=""width:200px; border:14px solid green;"">","null","","","","","","","","","",""
"","image-keyboard-response","20","88336","0.0-20.0","3JWH6J9I9TZFJACSX135KLH72JWNBI","A3L2VS3998R77L","3Z3R5YC0P3915KVY8X6BNRIWYOFFTN","","665.0999999046326","img/land2.png","76","665.5","3","0","1","1","0.8,0.2,0.2,0.2,0.8,0.2,0.2,0.2,0.8","0.8,0.2,0.2,0.2,0.8,0.2,0.2,0.2,0.8","1","",""
"","html-keyboard-response","21","88637","0.0-21.0","3JWH6J9I9TZFJACSX135KLH72JWNBI","A3L2VS3998R77L","3Z3R5YC0P3915KVY8X6BNRIWYOFFTN","","null","<img src=""img/land2.png"" style=""width:200px;border:14px solid red;"">","null","","","","","","","","","",""
"","image-keyboard-response","22","89174","0.0-22.0","3JWH6J9I9TZFJACSX135KLH72JWNBI","A3L2VS3998R77L","3Z3R5YC0P3915KVY8X6BNRIWYOFFTN","","536.7000000476837","img/land4.png","74","537.2000000476837","1","0","3","1","0.8,0.2,0.2,0.2,0.8,0.2,0.2,0.2,0.8","0.8,0.2,0.2,0.2,0.8,0.2,0.2,0.2,0.8","1","",""
"","html-keyboard-response","23","89475","0.0-23.0","3JWH6J9I9TZFJACSX135KLH72JWNBI","A3L2VS3998R77L","3Z3R5YC0P3915KVY8X6BNRIWYOFFTN","","null","<img src=""img/land4.png"" style=""width:200px;border:14px solid red;"">","null","","","","","","","","","",""
"","image-keyboard-response","24","90008","0.0-24.0","3JWH6J9I9TZFJACSX135KLH72JWNBI","A3L2VS3998R77L","3Z3R5YC0P3915KVY8X6BNRIWYOFFTN","","533.1000001430511","img/land3.png","75","533.5","2","1","2","1","0.8,0.2,0.2,0.2,0.8,0.2,0.2,0.2,0.8","0.8,0.2,0.2,0.2,0.8,0.2,0.2,0.2,0.8","1","",""
"","html-keyboard-response","25","90310","0.0-25.0","3JWH6J9I9TZFJACSX135KLH72JWNBI","A3L2VS3998R77L","3Z3R5YC0P3915KVY8X6BNRIWYOFFTN","","null","<img src=""img/land3.png"" style=""width:200px; border:14px solid green;"">","null","","","","","","","","","",""
"","image-keyboard-response","26","90769","0.0-26.0","3JWH6J9I9TZFJACSX135KLH72JWNBI","A3L2VS3998R77L","3Z3R5YC0P3915KVY8X6BNRIWYOFFTN","","458.39999985694885","img/land3.png","75","458.90000009536743","2","1","2","1","0.8,0.2,0.2,0.2,0.8,0.2,0.2,0.2,0.8","0.8,0.2,0.2,0.2,0.8,0.2,0.2,0.2,0.8","1","",""
"","html-keyboard-response","27","91070","0.0-27.0","3JWH6J9I9TZFJACSX135KLH72JWNBI","A3L2VS3998R77L","3Z3R5YC0P3915KVY8X6BNRIWYOFFTN","","null","<img src=""img/land3.png"" style=""width:200px; border:14px solid green;"">","null","","","","","","","","","",""
"","image-keyboard-response","28","92078","0.0-28.0","3JWH6J9I9TZFJACSX135KLH72JWNBI","A3L2VS3998R77L","3Z3R5YC0P3915KVY8X6BNRIWYOFFTN","","1007.8000001907349","img/land2.png","75","1008.2000000476837","2","0","1","1","0.8,0.2,0.2,0.2,0.8,0.2,0.2,0.2,0.8","0.8,0.2,0.2,0.2,0.8,0.2,0.2,0.2,0.8","1","",""
"","html-keyboard-response","29","92379","0.0-29.0","3JWH6J9I9TZFJACSX135KLH72JWNBI","A3L2VS3998R77L","3Z3R5YC0P3915KVY8X6BNRIWYOFFTN","","null","<img src=""img/land2.png"" style=""width:200px;border:14px solid red;"">","null","","","","","","","","","",""
"","image-keyboard-response","30","92784","0.0-30.0","3JWH6J9I9TZFJACSX135KLH72JWNBI","A3L2VS3998R77L","3Z3R5YC0P3915KVY8X6BNRIWYOFFTN","","404.89999985694885","img/land2.png","76","405.2999999523163","3","0","1","1","0.8,0.2,0.2,0.2,0.8,0.2,0.2,0.2,0.8","0.8,0.2,0.2,0.2,0.8,0.2,0.2,0.2,0.8","1","",""
"","html-keyboard-response","31","93085","0.0-31.0","3JWH6J9I9TZFJACSX135KLH72JWNBI","A3L2VS3998R77L","3Z3R5YC0P3915KVY8X6BNRIWYOFFTN","","null","<img src=""img/land2.png"" style=""width:200px;border:14px solid red;"">","null","","","","","","","","","",""
"","image-keyboard-response","32","93441","0.0-32.0","3JWH6J9I9TZFJACSX135KLH72JWNBI","A3L2VS3998R77L","3Z3R5YC0P3915KVY8X6BNRIWYOFFTN","","355.39999985694885","img/land4.png","74","356","1","0","3","1","0.8,0.2,0.2,0.2,0.8,0.2,0.2,0.2,0.8","0.8,0.2,0.2,0.2,0.8,0.2,0.2,0.2,0.8","1","",""
"","html-keyboard-response","33","93742","0.0-33.0","3JWH6J9I9TZFJACSX135KLH72JWNBI","A3L2VS3998R77L","3Z3R5YC0P3915KVY8X6BNRIWYOFFTN","","null","<img src=""img/land4.png"" style=""width:200px;border:14px solid red;"">","null","","","","","","","","","",""
"","image-keyboard-response","34","94421","0.0-34.0","3JWH6J9I9TZFJACSX135KLH72JWNBI","A3L2VS3998R77L","3Z3R5YC0P3915KVY8X6BNRIWYOFFTN","","678","img/land2.png","75","678.3999998569489","2","0","1","1","0.8,0.2,0.2,0.2,0.8,0.2,0.2,0.2,0.8","0.8,0.2,0.2,0.2,0.8,0.2,0.2,0.2,0.8","1","",""
"","html-keyboard-response","35","94722","0.0-35.0","3JWH6J9I9TZFJACSX135KLH72JWNBI","A3L2VS3998R77L","3Z3R5YC0P3915KVY8X6BNRIWYOFFTN","","null","<img src=""img/land2.png"" style=""width:200px;border:14px solid red;"">","null","","","","","","","","","",""
"","image-keyboard-response","36","95447","0.0-36.0","3JWH6J9I9TZFJACSX135KLH72JWNBI","A3L2VS3998R77L","3Z3R5YC0P3915KVY8X6BNRIWYOFFTN","","724.1000001430511","img/land4.png","76","724.5999999046326","3","0","3","1","0.8,0.2,0.2,0.2,0.8,0.2,0.2,0.2,0.8","0.8,0.2,0.2,0.2,0.8,0.2,0.2,0.2,0.8","1","",""
"","html-keyboard-response","37","95748","0.0-37.0","3JWH6J9I9TZFJACSX135KLH72JWNBI","A3L2VS3998R77L","3Z3R5YC0P3915KVY8X6BNRIWYOFFTN","","null","<img src=""img/land4.png"" style=""width:200px;border:14px solid red;"">","null","","","","","","","","","",""
"","image-keyboard-response","38","96390","0.0-38.0","3JWH6J9I9TZFJACSX135KLH72JWNBI","A3L2VS3998R77L","3Z3R5YC0P3915KVY8X6BNRIWYOFFTN","","641.2000000476837","img/land2.png","75","641.6000001430511","2","1","1","1","0.8,0.2,0.2,0.2,0.8,0.2,0.2,0.2,0.8","0.8,0.2,0.2,0.2,0.8,0.2,0.2,0.2,0.8","1","",""
"","html-keyboard-response","39","96691","0.0-39.0","3JWH6J9I9TZFJACSX135KLH72JWNBI","A3L2VS3998R77L","3Z3R5YC0P3915KVY8X6BNRIWYOFFTN","","null","<img src=""img/land2.png"" style=""width:200px; border:14px solid green;"">","null","","","","","","","","","",""
"","image-keyboard-response","40","97243","0.0-40.0","3JWH6J9I9TZFJACSX135KLH72JWNBI","A3L2VS3998R77L","3Z3R5YC0P3915KVY8X6BNRIWYOFFTN","","551.0999999046326","img/land4.png","74","551.5","1","0","3","1","0.8,0.2,0.2,0.2,0.8,0.2,0.2,0.2,0.8","0.8,0.2,0.2,0.2,0.8,0.2,0.2,0.2,0.8","1","",""
"","html-keyboard-response","41","97545","0.0-41.0","3JWH6J9I9TZFJACSX135KLH72JWNBI","A3L2VS3998R77L","3Z3R5YC0P3915KVY8X6BNRIWYOFFTN","","null","<img src=""img/land4.png"" style=""width:200px;border:14px solid red;"">","null","","","","","","","","","",""
"","image-keyboard-response","42","98100","0.0-42.0","3JWH6J9I9TZFJACSX135KLH72JWNBI","A3L2VS3998R77L","3Z3R5YC0P3915KVY8X6BNRIWYOFFTN","","554.3000001907349","img/land2.png","75","554.7999999523163","2","0","1","1","0.8,0.2,0.2,0.2,0.8,0.2,0.2,0.2,0.8","0.8,0.2,0.2,0.2,0.8,0.2,0.2,0.2,0.8","1","",""
"","html-keyboard-response","43","98401","0.0-43.0","3JWH6J9I9TZFJACSX135KLH72JWNBI","A3L2VS3998R77L","3Z3R5YC0P3915KVY8X6BNRIWYOFFTN","","null","<img src=""img/land2.png"" style=""width:200px;border:14px solid red;"">","null","","","","","","","","","",""
"","image-keyboard-response","44","98907","0.0-44.0","3JWH6J9I9TZFJACSX135KLH72JWNBI","A3L2VS3998R77L","3Z3R5YC0P3915KVY8X6BNRIWYOFFTN","","505.5","img/land4.png","75","505.89999985694885","2","0","3","1","0.8,0.2,0.2,0.2,0.8,0.2,0.2,0.2,0.8","0.8,0.2,0.2,0.2,0.8,0.2,0.2,0.2,0.8","1","",""
"","html-keyboard-response","45","99208","0.0-45.0","3JWH6J9I9TZFJACSX135KLH72JWNBI","A3L2VS3998R77L","3Z3R5YC0P3915KVY8X6BNRIWYOFFTN","","null","<img src=""img/land4.png"" style=""width:200px;border:14px solid red;"">","null","","","","","","","","","",""
"","image-keyboard-response","46","99704","0.0-46.0","3JWH6J9I9TZFJACSX135KLH72JWNBI","A3L2VS3998R77L","3Z3R5YC0P3915KVY8X6BNRIWYOFFTN","","495.40000009536743","img/land4.png","74","495.90000009536743","1","0","3","1","0.8,0.2,0.2,0.2,0.8,0.2,0.2,0.2,0.8","0.8,0.2,0.2,0.2,0.8,0.2,0.2,0.2,0.8","1","",""
"","html-keyboard-response","47","100006","0.0-47.0","3JWH6J9I9TZFJACSX135KLH72JWNBI","A3L2VS3998R77L","3Z3R5YC0P3915KVY8X6BNRIWYOFFTN","","null","<img src=""img/land4.png"" style=""width:200px;border:14px solid red;"">","null","","","","","","","","","",""
"","image-keyboard-response","48","100684","0.0-48.0","3JWH6J9I9TZFJACSX135KLH72JWNBI","A3L2VS3998R77L","3Z3R5YC0P3915KVY8X6BNRIWYOFFTN","","677.9000000953674","img/land3.png","76","678.5999999046326","3","0","2","1","0.8,0.2,0.2,0.2,0.8,0.2,0.2,0.2,0.8","0.8,0.2,0.2,0.2,0.8,0.2,0.2,0.2,0.8","1","",""
"","html-keyboard-response","49","100986","0.0-49.0","3JWH6J9I9TZFJACSX135KLH72JWNBI","A3L2VS3998R77L","3Z3R5YC0P3915KVY8X6BNRIWYOFFTN","","null","<img src=""img/land3.png"" style=""width:200px;border:14px solid red;"">","null","","","","","","","","","",""
"","image-keyboard-response","50","101505","0.0-50.0","3JWH6J9I9TZFJACSX135KLH72JWNBI","A3L2VS3998R77L","3Z3R5YC0P3915KVY8X6BNRIWYOFFTN","","518.2999999523163","img/land2.png","75","518.9000000953674","2","1","1","1","0.8,0.2,0.2,0.2,0.8,0.2,0.2,0.2,0.8","0.8,0.2,0.2,0.2,0.8,0.2,0.2,0.2,0.8","1","",""
"","html-keyboard-response","51","101806","0.0-51.0","3JWH6J9I9TZFJACSX135KLH72JWNBI","A3L2VS3998R77L","3Z3R5YC0P3915KVY8X6BNRIWYOFFTN","","null","<img src=""img/land2.png"" style=""width:200px; border:14px solid green;"">","null","","","","","","","","","",""
"","image-keyboard-response","52","102794","0.0-52.0","3JWH6J9I9TZFJACSX135KLH72JWNBI","A3L2VS3998R77L","3Z3R5YC0P3915KVY8X6BNRIWYOFFTN","","987.5","img/land4.png","74","988","1","1","3","1","0.8,0.2,0.2,0.2,0.8,0.2,0.2,0.2,0.8","0.8,0.2,0.2,0.2,0.8,0.2,0.2,0.2,0.8","1","",""
"","html-keyboard-response","53","103096","0.0-53.0","3JWH6J9I9TZFJACSX135KLH72JWNBI","A3L2VS3998R77L","3Z3R5YC0P3915KVY8X6BNRIWYOFFTN","","null","<img src=""img/land4.png"" style=""width:200px; border:14px solid green;"">","null","","","","","","","","","",""
"","image-keyboard-response","54","104143","0.0-54.0","3JWH6J9I9TZFJACSX135KLH72JWNBI","A3L2VS3998R77L","3Z3R5YC0P3915KVY8X6BNRIWYOFFTN","","1046.6000001430511","img/land3.png","76","1047.0999999046326","3","0","2","1","0.8,0.2,0.2,0.2,0.8,0.2,0.2,0.2,0.8","0.8,0.2,0.2,0.2,0.8,0.2,0.2,0.2,0.8","1","",""
"","html-keyboard-response","55","104444","0.0-55.0","3JWH6J9I9TZFJACSX135KLH72JWNBI","A3L2VS3998R77L","3Z3R5YC0P3915KVY8X6BNRIWYOFFTN","","null","<img src=""img/land3.png"" style=""width:200px;border:14px solid red;"">","null","","","","","","","","","",""
"","image-keyboard-response","56","105237","0.0-56.0","3JWH6J9I9TZFJACSX135KLH72JWNBI","A3L2VS3998R77L","3Z3R5YC0P3915KVY8X6BNRIWYOFFTN","","792.2999999523163","img/land4.png","75","792.7000000476837","2","0","3","1","0.8,0.2,0.2,0.2,0.8,0.2,0.2,0.2,0.8","0.8,0.2,0.2,0.2,0.8,0.2,0.2,0.2,0.8","1","",""
"","html-keyboard-response","57","105539","0.0-57.0","3JWH6J9I9TZFJACSX135KLH72JWNBI","A3L2VS3998R77L","3Z3R5YC0P3915KVY8X6BNRIWYOFFTN","","null","<img src=""img/land4.png"" style=""width:200px;border:14px solid red;"">","null","","","","","","","","","",""
"","image-keyboard-response","58","106080","0.0-58.0","3JWH6J9I9TZFJACSX135KLH72JWNBI","A3L2VS3998R77L","3Z3R5YC0P3915KVY8X6BNRIWYOFFTN","","540.7000000476837","img/land4.png","74","541.3999998569489","1","0","3","1","0.8,0.2,0.2,0.2,0.8,0.2,0.2,0.2,0.8","0.8,0.2,0.2,0.2,0.8,0.2,0.2,0.2,0.8","1","",""
"","html-keyboard-response","59","106382","0.0-59.0","3JWH6J9I9TZFJACSX135KLH72JWNBI","A3L2VS3998R77L","3Z3R5YC0P3915KVY8X6BNRIWYOFFTN","","null","<img src=""img/land4.png"" style=""width:200px;border:14px solid red;"">","null","","","","","","","","","",""
"","image-keyboard-response","60","106959","0.0-60.0","3JWH6J9I9TZFJACSX135KLH72JWNBI","A3L2VS3998R77L","3Z3R5YC0P3915KVY8X6BNRIWYOFFTN","","576.5999999046326","img/land2.png","74","577.0999999046326","1","1","1","1","0.8,0.2,0.2,0.2,0.8,0.2,0.2,0.2,0.8","0.8,0.2,0.2,0.2,0.8,0.2,0.2,0.2,0.8","1","",""
"","html-keyboard-response","61","107260","0.0-61.0","3JWH6J9I9TZFJACSX135KLH72JWNBI","A3L2VS3998R77L","3Z3R5YC0P3915KVY8X6BNRIWYOFFTN","","null","<img src=""img/land2.png"" style=""width:200px; border:14px solid green;"">","null","","","","","","","","","",""
"","image-keyboard-response","62","107994","0.0-62.0","3JWH6J9I9TZFJACSX135KLH72JWNBI","A3L2VS3998R77L","3Z3R5YC0P3915KVY8X6BNRIWYOFFTN","","733.5999999046326","img/land3.png","74","734","1","1","2","1","0.8,0.2,0.2,0.2,0.8,0.2,0.2,0.2,0.8","0.8,0.2,0.2,0.2,0.8,0.2,0.2,0.2,0.8","1","",""
"","html-keyboard-response","63","108295","0.0-63.0","3JWH6J9I9TZFJACSX135KLH72JWNBI","A3L2VS3998R77L","3Z3R5YC0P3915KVY8X6BNRIWYOFFTN","","null","<img src=""img/land3.png"" style=""width:200px; border:14px solid green;"">","null","","","","","","","","","",""
"","image-keyboard-response","64","108805","0.0-64.0","3JWH6J9I9TZFJACSX135KLH72JWNBI","A3L2VS3998R77L","3Z3R5YC0P3915KVY8X6BNRIWYOFFTN","","509.19999980926514","img/land3.png","74","509.7999999523163","1","0","2","1","0.8,0.2,0.2,0.2,0.8,0.2,0.2,0.2,0.8","0.8,0.2,0.2,0.2,0.8,0.2,0.2,0.2,0.8","1","",""
"","html-keyboard-response","65","109106","0.0-65.0","3JWH6J9I9TZFJACSX135KLH72JWNBI","A3L2VS3998R77L","3Z3R5YC0P3915KVY8X6BNRIWYOFFTN","","null","<img src=""img/land3.png"" style=""width:200px;border:14px solid red;"">","null","","","","","","","","","",""
"","image-keyboard-response","66","109844","0.0-66.0","3JWH6J9I9TZFJACSX135KLH72JWNBI","A3L2VS3998R77L","3Z3R5YC0P3915KVY8X6BNRIWYOFFTN","","737.7999999523163","img/land2.png","75","738.3000001907349","2","0","1","1","0.8,0.2,0.2,0.2,0.8,0.2,0.2,0.2,0.8","0.8,0.2,0.2,0.2,0.8,0.2,0.2,0.2,0.8","1","",""
"","html-keyboard-response","67","110145","0.0-67.0","3JWH6J9I9TZFJACSX135KLH72JWNBI","A3L2VS3998R77L","3Z3R5YC0P3915KVY8X6BNRIWYOFFTN","","null","<img src=""img/land2.png"" style=""width:200px;border:14px solid red;"">","null","","","","","","","","","",""
"","image-keyboard-response","68","110652","0.0-68.0","3JWH6J9I9TZFJACSX135KLH72JWNBI","A3L2VS3998R77L","3Z3R5YC0P3915KVY8X6BNRIWYOFFTN","","506","img/land3.png","75","506.5","2","1","2","1","0.8,0.2,0.2,0.2,0.8,0.2,0.2,0.2,0.8","0.8,0.2,0.2,0.2,0.8,0.2,0.2,0.2,0.8","1","",""
"","html-keyboard-response","69","110953","0.0-69.0","3JWH6J9I9TZFJACSX135KLH72JWNBI","A3L2VS3998R77L","3Z3R5YC0P3915KVY8X6BNRIWYOFFTN","","null","<img src=""img/land3.png"" style=""width:200px; border:14px solid green;"">","null","","","","","","","","","",""
"","image-keyboard-response","70","111494","0.0-70.0","3JWH6J9I9TZFJACSX135KLH72JWNBI","A3L2VS3998R77L","3Z3R5YC0P3915KVY8X6BNRIWYOFFTN","","540.6000001430511","img/land3.png","75","541.0999999046326","2","1","2","1","0.8,0.2,0.2,0.2,0.8,0.2,0.2,0.2,0.8","0.8,0.2,0.2,0.2,0.8,0.2,0.2,0.2,0.8","1","",""
"","html-keyboard-response","71","111795","0.0-71.0","3JWH6J9I9TZFJACSX135KLH72JWNBI","A3L2VS3998R77L","3Z3R5YC0P3915KVY8X6BNRIWYOFFTN","","null","<img src=""img/land3.png"" style=""width:200px; border:14px solid green;"">","null","","","","","","","","","",""
"","image-keyboard-response","72","112429","0.0-72.0","3JWH6J9I9TZFJACSX135KLH72JWNBI","A3L2VS3998R77L","3Z3R5YC0P3915KVY8X6BNRIWYOFFTN","","633.7999999523163","img/land2.png","75","634.1999998092651","2","1","1","1","0.8,0.2,0.2,0.2,0.8,0.2,0.2,0.2,0.8","0.8,0.2,0.2,0.2,0.8,0.2,0.2,0.2,0.8","1","",""
"","html-keyboard-response","73","112730","0.0-73.0","3JWH6J9I9TZFJACSX135KLH72JWNBI","A3L2VS3998R77L","3Z3R5YC0P3915KVY8X6BNRIWYOFFTN","","null","<img src=""img/land2.png"" style=""width:200px; border:14px solid green;"">","null","","","","","","","","","",""
"","image-keyboard-response","74","113367","0.0-74.0","3JWH6J9I9TZFJACSX135KLH72JWNBI","A3L2VS3998R77L","3Z3R5YC0P3915KVY8X6BNRIWYOFFTN","","636","img/land2.png","76","636.4000000953674","3","0","1","1","0.8,0.2,0.2,0.2,0.8,0.2,0.2,0.2,0.8","0.8,0.2,0.2,0.2,0.8,0.2,0.2,0.2,0.8","1","",""
"","html-keyboard-response","75","113668","0.0-75.0","3JWH6J9I9TZFJACSX135KLH72JWNBI","A3L2VS3998R77L","3Z3R5YC0P3915KVY8X6BNRIWYOFFTN","","null","<img src=""img/land2.png"" style=""width:200px;border:14px solid red;"">","null","","","","","","","","","",""
"","image-keyboard-response","76","114111","0.0-76.0","3JWH6J9I9TZFJACSX135KLH72JWNBI","A3L2VS3998R77L","3Z3R5YC0P3915KVY8X6BNRIWYOFFTN","","442.5","img/land3.png","75","442.89999985694885","2","1","2","1","0.8,0.2,0.2,0.2,0.8,0.2,0.2,0.2,0.8","0.8,0.2,0.2,0.2,0.8,0.2,0.2,0.2,0.8","1","",""
"","html-keyboard-response","77","114412","0.0-77.0","3JWH6J9I9TZFJACSX135KLH72JWNBI","A3L2VS3998R77L","3Z3R5YC0P3915KVY8X6BNRIWYOFFTN","","null","<img src=""img/land3.png"" style=""width:200px; border:14px solid green;"">","null","","","","","","","","","",""
"","image-keyboard-response","78","115214","0.0-78.0","3JWH6J9I9TZFJACSX135KLH72JWNBI","A3L2VS3998R77L","3Z3R5YC0P3915KVY8X6BNRIWYOFFTN","","801.9000000953674","img/land4.png","74","802.4000000953674","1","0","3","1","0.8,0.2,0.2,0.2,0.8,0.2,0.2,0.2,0.8","0.8,0.2,0.2,0.2,0.8,0.2,0.2,0.2,0.8","1","",""
"","html-keyboard-response","79","115516","0.0-79.0","3JWH6J9I9TZFJACSX135KLH72JWNBI","A3L2VS3998R77L","3Z3R5YC0P3915KVY8X6BNRIWYOFFTN","","null","<img src=""img/land4.png"" style=""width:200px;border:14px solid red;"">","null","","","","","","","","","",""
"","image-keyboard-response","80","115999","0.0-80.0","3JWH6J9I9TZFJACSX135KLH72JWNBI","A3L2VS3998R77L","3Z3R5YC0P3915KVY8X6BNRIWYOFFTN","","482","img/land3.png","76","482.5","3","1","2","1","0.8,0.2,0.2,0.2,0.8,0.2,0.2,0.2,0.8","0.8,0.2,0.2,0.2,0.8,0.2,0.2,0.2,0.8","1","",""
"","html-keyboard-response","81","116299","0.0-81.0","3JWH6J9I9TZFJACSX135KLH72JWNBI","A3L2VS3998R77L","3Z3R5YC0P3915KVY8X6BNRIWYOFFTN","","null","<img src=""img/land3.png"" style=""width:200px; border:14px solid green;"">","null","","","","","","","","","",""
"","image-keyboard-response","82","116823","0.0-82.0","3JWH6J9I9TZFJACSX135KLH72JWNBI","A3L2VS3998R77L","3Z3R5YC0P3915KVY8X6BNRIWYOFFTN","","523.2000000476837","img/land3.png","75","523.7000000476837","2","1","2","1","0.8,0.2,0.2,0.2,0.8,0.2,0.2,0.2,0.8","0.8,0.2,0.2,0.2,0.8,0.2,0.2,0.2,0.8","1","",""
"","html-keyboard-response","83","117134","0.0-83.0","3JWH6J9I9TZFJACSX135KLH72JWNBI","A3L2VS3998R77L","3Z3R5YC0P3915KVY8X6BNRIWYOFFTN","","null","<img src=""img/land3.png"" style=""width:200px; border:14px solid green;"">","null","","","","","","","","","",""
"","image-keyboard-response","84","117825","0.0-84.0","3JWH6J9I9TZFJACSX135KLH72JWNBI","A3L2VS3998R77L","3Z3R5YC0P3915KVY8X6BNRIWYOFFTN","","691","img/land2.png","74","691.6000001430511","1","0","1","1","0.8,0.2,0.2,0.2,0.8,0.2,0.2,0.2,0.8","0.8,0.2,0.2,0.2,0.8,0.2,0.2,0.2,0.8","1","",""
"","html-keyboard-response","85","118128","0.0-85.0","3JWH6J9I9TZFJACSX135KLH72JWNBI","A3L2VS3998R77L","3Z3R5YC0P3915KVY8X6BNRIWYOFFTN","","null","<img src=""img/land2.png"" style=""width:200px;border:14px solid red;"">","null","","","","","","","","","",""
"","image-keyboard-response","86","118669","0.0-86.0","3JWH6J9I9TZFJACSX135KLH72JWNBI","A3L2VS3998R77L","3Z3R5YC0P3915KVY8X6BNRIWYOFFTN","","540.3000001907349","img/land4.png","76","540.8999998569489","3","0","3","1","0.8,0.2,0.2,0.2,0.8,0.2,0.2,0.2,0.8","0.8,0.2,0.2,0.2,0.8,0.2,0.2,0.2,0.8","1","",""
"","html-keyboard-response","87","118970","0.0-87.0","3JWH6J9I9TZFJACSX135KLH72JWNBI","A3L2VS3998R77L","3Z3R5YC0P3915KVY8X6BNRIWYOFFTN","","null","<img src=""img/land4.png"" style=""width:200px;border:14px solid red;"">","null","","","","","","","","","",""
"","image-keyboard-response","88","119430","0.0-88.0","3JWH6J9I9TZFJACSX135KLH72JWNBI","A3L2VS3998R77L","3Z3R5YC0P3915KVY8X6BNRIWYOFFTN","","459.59999990463257","img/land3.png","75","460.2000000476837","2","1","2","1","0.8,0.2,0.2,0.2,0.8,0.2,0.2,0.2,0.8","0.8,0.2,0.2,0.2,0.8,0.2,0.2,0.2,0.8","1","",""
"","html-keyboard-response","89","119731","0.0-89.0","3JWH6J9I9TZFJACSX135KLH72JWNBI","A3L2VS3998R77L","3Z3R5YC0P3915KVY8X6BNRIWYOFFTN","","null","<img src=""img/land3.png"" style=""width:200px; border:14px solid green;"">","null","","","","","","","","","",""
"","image-keyboard-response","90","120223","0.0-90.0","3JWH6J9I9TZFJACSX135KLH72JWNBI","A3L2VS3998R77L","3Z3R5YC0P3915KVY8X6BNRIWYOFFTN","","491.7000000476837","img/land2.png","75","492.2000000476837","2","0","1","1","0.8,0.2,0.2,0.2,0.8,0.2,0.2,0.2,0.8","0.8,0.2,0.2,0.2,0.8,0.2,0.2,0.2,0.8","1","",""
"","html-keyboard-response","91","120525","0.0-91.0","3JWH6J9I9TZFJACSX135KLH72JWNBI","A3L2VS3998R77L","3Z3R5YC0P3915KVY8X6BNRIWYOFFTN","","null","<img src=""img/land2.png"" style=""width:200px;border:14px solid red;"">","null","","","","","","","","","",""
"","image-keyboard-response","92","120916","0.0-92.0","3JWH6J9I9TZFJACSX135KLH72JWNBI","A3L2VS3998R77L","3Z3R5YC0P3915KVY8X6BNRIWYOFFTN","","391.10000014305115","img/land3.png","74","391.59999990463257","1","0","2","1","0.8,0.2,0.2,0.2,0.8,0.2,0.2,0.2,0.8","0.8,0.2,0.2,0.2,0.8,0.2,0.2,0.2,0.8","1","",""
"","html-keyboard-response","93","121217","0.0-93.0","3JWH6J9I9TZFJACSX135KLH72JWNBI","A3L2VS3998R77L","3Z3R5YC0P3915KVY8X6BNRIWYOFFTN","","null","<img src=""img/land3.png"" style=""width:200px;border:14px solid red;"">","null","","","","","","","","","",""
"","image-keyboard-response","94","121664","0.0-94.0","3JWH6J9I9TZFJACSX135KLH72JWNBI","A3L2VS3998R77L","3Z3R5YC0P3915KVY8X6BNRIWYOFFTN","","446.89999985694885","img/land4.png","76","447.30000019073486","3","1","3","1","0.8,0.2,0.2,0.2,0.8,0.2,0.2,0.2,0.8","0.8,0.2,0.2,0.2,0.8,0.2,0.2,0.2,0.8","1","",""
"","html-keyboard-response","95","121966","0.0-95.0","3JWH6J9I9TZFJACSX135KLH72JWNBI","A3L2VS3998R77L","3Z3R5YC0P3915KVY8X6BNRIWYOFFTN","","null","<img src=""img/land4.png"" style=""width:200px; border:14px solid green;"">","null","","","","","","","","","",""
"","image-keyboard-response","96","122480","0.0-96.0","3JWH6J9I9TZFJACSX135KLH72JWNBI","A3L2VS3998R77L","3Z3R5YC0P3915KVY8X6BNRIWYOFFTN","","513.3000001907349","img/land4.png","75","513.7999999523163","2","0","3","1","0.8,0.2,0.2,0.2,0.8,0.2,0.2,0.2,0.8","0.8,0.2,0.2,0.2,0.8,0.2,0.2,0.2,0.8","1","",""
"","html-keyboard-response","97","122781","0.0-97.0","3JWH6J9I9TZFJACSX135KLH72JWNBI","A3L2VS3998R77L","3Z3R5YC0P3915KVY8X6BNRIWYOFFTN","","null","<img src=""img/land4.png"" style=""width:200px;border:14px solid red;"">","null","","","","","","","","","",""
"","image-keyboard-response","98","123259","0.0-98.0","3JWH6J9I9TZFJACSX135KLH72JWNBI","A3L2VS3998R77L","3Z3R5YC0P3915KVY8X6BNRIWYOFFTN","","477.2999999523163","img/land4.png","76","477.90000009536743","3","1","3","1","0.8,0.2,0.2,0.2,0.8,0.2,0.2,0.2,0.8","0.8,0.2,0.2,0.2,0.8,0.2,0.2,0.2,0.8","1","",""
"","html-keyboard-response","99","123560","0.0-99.0","3JWH6J9I9TZFJACSX135KLH72JWNBI","A3L2VS3998R77L","3Z3R5YC0P3915KVY8X6BNRIWYOFFTN","","null","<img src=""img/land4.png"" style=""width:200px; border:14px solid green;"">","null","","","","","","","","","",""
"","image-keyboard-response","100","124198","0.0-100.0","3JWH6J9I9TZFJACSX135KLH72JWNBI","A3L2VS3998R77L","3Z3R5YC0P3915KVY8X6BNRIWYOFFTN","","637.2999999523163","img/land4.png","75","637.9000000953674","2","0","3","1","0.8,0.2,0.2,0.2,0.8,0.2,0.2,0.2,0.8","0.8,0.2,0.2,0.2,0.8,0.2,0.2,0.2,0.8","1","",""
"","html-keyboard-response","101","124500","0.0-101.0","3JWH6J9I9TZFJACSX135KLH72JWNBI","A3L2VS3998R77L","3Z3R5YC0P3915KVY8X6BNRIWYOFFTN","","null","<img src=""img/land4.png"" style=""width:200px;border:14px solid red;"">","null","","","","","","","","","",""
"","image-keyboard-response","102","125037","0.0-102.0","3JWH6J9I9TZFJACSX135KLH72JWNBI","A3L2VS3998R77L","3Z3R5YC0P3915KVY8X6BNRIWYOFFTN","","536.2000000476837","img/land2.png","74","536.7000000476837","1","1","1","1","0.8,0.2,0.2,0.2,0.8,0.2,0.2,0.2,0.8","0.8,0.2,0.2,0.2,0.8,0.2,0.2,0.2,0.8","1","",""
"","html-keyboard-response","103","125338","0.0-103.0","3JWH6J9I9TZFJACSX135KLH72JWNBI","A3L2VS3998R77L","3Z3R5YC0P3915KVY8X6BNRIWYOFFTN","","null","<img src=""img/land2.png"" style=""width:200px; border:14px solid green;"">","null","","","","","","","","","",""
"","image-keyboard-response","104","125832","0.0-104.0","3JWH6J9I9TZFJACSX135KLH72JWNBI","A3L2VS3998R77L","3Z3R5YC0P3915KVY8X6BNRIWYOFFTN","","493.40000009536743","img/land2.png","74","493.89999985694885","1","1","1","1","0.8,0.2,0.2,0.2,0.8,0.2,0.2,0.2,0.8","0.8,0.2,0.2,0.2,0.8,0.2,0.2,0.2,0.8","1","",""
"","html-keyboard-response","105","126133","0.0-105.0","3JWH6J9I9TZFJACSX135KLH72JWNBI","A3L2VS3998R77L","3Z3R5YC0P3915KVY8X6BNRIWYOFFTN","","null","<img src=""img/land2.png"" style=""width:200px; border:14px solid green;"">","null","","","","","","","","","",""
"","image-keyboard-response","106","126743","0.0-106.0","3JWH6J9I9TZFJACSX135KLH72JWNBI","A3L2VS3998R77L","3Z3R5YC0P3915KVY8X6BNRIWYOFFTN","","609.2999999523163","img/land3.png","75","609.6999998092651","2","1","2","1","0.8,0.2,0.2,0.2,0.8,0.2,0.2,0.2,0.8","0.8,0.2,0.2,0.2,0.8,0.2,0.2,0.2,0.8","1","",""
"","html-keyboard-response","107","127044","0.0-107.0","3JWH6J9I9TZFJACSX135KLH72JWNBI","A3L2VS3998R77L","3Z3R5YC0P3915KVY8X6BNRIWYOFFTN","","null","<img src=""img/land3.png"" style=""width:200px; border:14px solid green;"">","null","","","","","","","","","",""
"","image-keyboard-response","108","127628","0.0-108.0","3JWH6J9I9TZFJACSX135KLH72JWNBI","A3L2VS3998R77L","3Z3R5YC0P3915KVY8X6BNRIWYOFFTN","","582.6999998092651","img/land3.png","76","583.2000000476837","3","0","2","1","0.8,0.2,0.2,0.2,0.8,0.2,0.2,0.2,0.8","0.8,0.2,0.2,0.2,0.8,0.2,0.2,0.2,0.8","1","",""
"","html-keyboard-response","109","127929","0.0-109.0","3JWH6J9I9TZFJACSX135KLH72JWNBI","A3L2VS3998R77L","3Z3R5YC0P3915KVY8X6BNRIWYOFFTN","","null","<img src=""img/land3.png"" style=""width:200px;border:14px solid red;"">","null","","","","","","","","","",""
"","image-keyboard-response","110","128348","0.0-110.0","3JWH6J9I9TZFJACSX135KLH72JWNBI","A3L2VS3998R77L","3Z3R5YC0P3915KVY8X6BNRIWYOFFTN","","418.40000009536743","img/land4.png","74","418.7999999523163","1","1","3","1","0.8,0.2,0.2,0.2,0.8,0.2,0.2,0.2,0.8","0.8,0.2,0.2,0.2,0.8,0.2,0.2,0.2,0.8","1","",""
"","html-keyboard-response","111","128650","0.0-111.0","3JWH6J9I9TZFJACSX135KLH72JWNBI","A3L2VS3998R77L","3Z3R5YC0P3915KVY8X6BNRIWYOFFTN","","null","<img src=""img/land4.png"" style=""width:200px; border:14px solid green;"">","null","","","","","","","","","",""
"","image-keyboard-response","112","129114","0.0-112.0","3JWH6J9I9TZFJACSX135KLH72JWNBI","A3L2VS3998R77L","3Z3R5YC0P3915KVY8X6BNRIWYOFFTN","","463.60000014305115","img/land4.png","74","464.19999980926514","1","1","3","1","0.8,0.2,0.2,0.2,0.8,0.2,0.2,0.2,0.8","0.8,0.2,0.2,0.2,0.8,0.2,0.2,0.2,0.8","1","",""
"","html-keyboard-response","113","129415","0.0-113.0","3JWH6J9I9TZFJACSX135KLH72JWNBI","A3L2VS3998R77L","3Z3R5YC0P3915KVY8X6BNRIWYOFFTN","","null","<img src=""img/land4.png"" style=""width:200px; border:14px solid green;"">","null","","","","","","","","","",""
"","image-keyboard-response","114","130027","0.0-114.0","3JWH6J9I9TZFJACSX135KLH72JWNBI","A3L2VS3998R77L","3Z3R5YC0P3915KVY8X6BNRIWYOFFTN","","610.8000001907349","img/land2.png","75","611.3999998569489","2","0","1","1","0.8,0.2,0.2,0.2,0.8,0.2,0.2,0.2,0.8","0.8,0.2,0.2,0.2,0.8,0.2,0.2,0.2,0.8","1","",""
"","html-keyboard-response","115","130328","0.0-115.0","3JWH6J9I9TZFJACSX135KLH72JWNBI","A3L2VS3998R77L","3Z3R5YC0P3915KVY8X6BNRIWYOFFTN","","null","<img src=""img/land2.png"" style=""width:200px;border:14px solid red;"">","null","","","","","","","","","",""
"","image-keyboard-response","116","130819","0.0-116.0","3JWH6J9I9TZFJACSX135KLH72JWNBI","A3L2VS3998R77L","3Z3R5YC0P3915KVY8X6BNRIWYOFFTN","","490.60000014305115","img/land3.png","76","491","3","1","2","1","0.8,0.2,0.2,0.2,0.8,0.2,0.2,0.2,0.8","0.8,0.2,0.2,0.2,0.8,0.2,0.2,0.2,0.8","1","",""
"","html-keyboard-response","117","131120","0.0-117.0","3JWH6J9I9TZFJACSX135KLH72JWNBI","A3L2VS3998R77L","3Z3R5YC0P3915KVY8X6BNRIWYOFFTN","","null","<img src=""img/land3.png"" style=""width:200px; border:14px solid green;"">","null","","","","","","","","","",""
"","image-keyboard-response","118","131740","0.0-118.0","3JWH6J9I9TZFJACSX135KLH72JWNBI","A3L2VS3998R77L","3Z3R5YC0P3915KVY8X6BNRIWYOFFTN","","619","img/land4.png","75","619.4000000953674","2","0","3","1","0.8,0.2,0.2,0.2,0.8,0.2,0.2,0.2,0.8","0.8,0.2,0.2,0.2,0.8,0.2,0.2,0.2,0.8","1","",""
"","html-keyboard-response","119","132041","0.0-119.0","3JWH6J9I9TZFJACSX135KLH72JWNBI","A3L2VS3998R77L","3Z3R5YC0P3915KVY8X6BNRIWYOFFTN","","null","<img src=""img/land4.png"" style=""width:200px;border:14px solid red;"">","null","","","","","","","","","",""
"","image-keyboard-response","120","132634","0.0-120.0","3JWH6J9I9TZFJACSX135KLH72JWNBI","A3L2VS3998R77L","3Z3R5YC0P3915KVY8X6BNRIWYOFFTN","","592.6999998092651","img/land2.png","74","593.1000001430511","1","1","1","1","0.8,0.2,0.2,0.2,0.8,0.2,0.2,0.2,0.8","0.8,0.2,0.2,0.2,0.8,0.2,0.2,0.2,0.8","1","",""
"","html-keyboard-response","121","132936","0.0-121.0","3JWH6J9I9TZFJACSX135KLH72JWNBI","A3L2VS3998R77L","3Z3R5YC0P3915KVY8X6BNRIWYOFFTN","","null","<img src=""img/land2.png"" style=""width:200px; border:14px solid green;"">","null","","","","","","","","","",""
"","image-keyboard-response","122","133674","0.0-122.0","3JWH6J9I9TZFJACSX135KLH72JWNBI","A3L2VS3998R77L","3Z3R5YC0P3915KVY8X6BNRIWYOFFTN","","737.4000000953674","img/land3.png","74","737.8999998569489","1","0","2","1","0.8,0.2,0.2,0.2,0.8,0.2,0.2,0.2,0.8","0.8,0.2,0.2,0.2,0.8,0.2,0.2,0.2,0.8","1","",""
"","html-keyboard-response","123","133975","0.0-123.0","3JWH6J9I9TZFJACSX135KLH72JWNBI","A3L2VS3998R77L","3Z3R5YC0P3915KVY8X6BNRIWYOFFTN","","null","<img src=""img/land3.png"" style=""width:200px;border:14px solid red;"">","null","","","","","","","","","",""
"","image-keyboard-response","124","134504","0.0-124.0","3JWH6J9I9TZFJACSX135KLH72JWNBI","A3L2VS3998R77L","3Z3R5YC0P3915KVY8X6BNRIWYOFFTN","","528","img/land3.png","76","528.5999999046326","3","0","2","1","0.8,0.2,0.2,0.2,0.8,0.2,0.2,0.2,0.8","0.8,0.2,0.2,0.2,0.8,0.2,0.2,0.2,0.8","1","",""
"","html-keyboard-response","125","134805","0.0-125.0","3JWH6J9I9TZFJACSX135KLH72JWNBI","A3L2VS3998R77L","3Z3R5YC0P3915KVY8X6BNRIWYOFFTN","","null","<img src=""img/land3.png"" style=""width:200px;border:14px solid red;"">","null","","","","","","","","","",""
"","image-keyboard-response","126","135311","0.0-126.0","3JWH6J9I9TZFJACSX135KLH72JWNBI","A3L2VS3998R77L","3Z3R5YC0P3915KVY8X6BNRIWYOFFTN","","506.2000000476837","img/land3.png","75","506.60000014305115","2","0","2","1","0.8,0.2,0.2,0.2,0.8,0.2,0.2,0.2,0.8","0.8,0.2,0.2,0.2,0.8,0.2,0.2,0.2,0.8","1","",""
"","html-keyboard-response","127","135612","0.0-127.0","3JWH6J9I9TZFJACSX135KLH72JWNBI","A3L2VS3998R77L","3Z3R5YC0P3915KVY8X6BNRIWYOFFTN","","null","<img src=""img/land3.png"" style=""width:200px;border:14px solid red;"">","null","","","","","","","","","",""
"","image-keyboard-response","128","136104","0.0-128.0","3JWH6J9I9TZFJACSX135KLH72JWNBI","A3L2VS3998R77L","3Z3R5YC0P3915KVY8X6BNRIWYOFFTN","","491.2000000476837","img/land3.png","76","491.69999980926514","3","1","2","1","0.8,0.2,0.2,0.2,0.8,0.2,0.2,0.2,0.8","0.8,0.2,0.2,0.2,0.8,0.2,0.2,0.2,0.8","1","",""
"","html-keyboard-response","129","136405","0.0-129.0","3JWH6J9I9TZFJACSX135KLH72JWNBI","A3L2VS3998R77L","3Z3R5YC0P3915KVY8X6BNRIWYOFFTN","","null","<img src=""img/land3.png"" style=""width:200px; border:14px solid green;"">","null","","","","","","","","","",""
"","image-keyboard-response","130","137171","0.0-130.0","3JWH6J9I9TZFJACSX135KLH72JWNBI","A3L2VS3998R77L","3Z3R5YC0P3915KVY8X6BNRIWYOFFTN","","765.2000000476837","img/land2.png","76","765.5999999046326","3","1","1","1","0.8,0.2,0.2,0.2,0.8,0.2,0.2,0.2,0.8","0.8,0.2,0.2,0.2,0.8,0.2,0.2,0.2,0.8","1","",""
"","html-keyboard-response","131","137472","0.0-131.0","3JWH6J9I9TZFJACSX135KLH72JWNBI","A3L2VS3998R77L","3Z3R5YC0P3915KVY8X6BNRIWYOFFTN","","null","<img src=""img/land2.png"" style=""width:200px; border:14px solid green;"">","null","","","","","","","","","",""
"","image-keyboard-response","132","138417","0.0-132.0","3JWH6J9I9TZFJACSX135KLH72JWNBI","A3L2VS3998R77L","3Z3R5YC0P3915KVY8X6BNRIWYOFFTN","","944","img/land4.png","74","944.5","1","1","3","1","0.8,0.2,0.2,0.2,0.8,0.2,0.2,0.2,0.8","0.8,0.2,0.2,0.2,0.8,0.2,0.2,0.2,0.8","1","",""
"","html-keyboard-response","133","138718","0.0-133.0","3JWH6J9I9TZFJACSX135KLH72JWNBI","A3L2VS3998R77L","3Z3R5YC0P3915KVY8X6BNRIWYOFFTN","","null","<img src=""img/land4.png"" style=""width:200px; border:14px solid green;"">","null","","","","","","","","","",""
"","image-keyboard-response","134","139219","0.0-134.0","3JWH6J9I9TZFJACSX135KLH72JWNBI","A3L2VS3998R77L","3Z3R5YC0P3915KVY8X6BNRIWYOFFTN","","500.2000000476837","img/land4.png","74","500.69999980926514","1","0","3","1","0.8,0.2,0.2,0.2,0.8,0.2,0.2,0.2,0.8","0.8,0.2,0.2,0.2,0.8,0.2,0.2,0.2,0.8","1","",""
"","html-keyboard-response","135","139521","0.0-135.0","3JWH6J9I9TZFJACSX135KLH72JWNBI","A3L2VS3998R77L","3Z3R5YC0P3915KVY8X6BNRIWYOFFTN","","null","<img src=""img/land4.png"" style=""width:200px;border:14px solid red;"">","null","","","","","","","","","",""
"","image-keyboard-response","136","140162","0.0-136.0","3JWH6J9I9TZFJACSX135KLH72JWNBI","A3L2VS3998R77L","3Z3R5YC0P3915KVY8X6BNRIWYOFFTN","","640.8999998569489","img/land3.png","75","641.4000000953674","2","1","2","1","0.8,0.2,0.2,0.2,0.8,0.2,0.2,0.2,0.8","0.8,0.2,0.2,0.2,0.8,0.2,0.2,0.2,0.8","1","",""
"","html-keyboard-response","137","140463","0.0-137.0","3JWH6J9I9TZFJACSX135KLH72JWNBI","A3L2VS3998R77L","3Z3R5YC0P3915KVY8X6BNRIWYOFFTN","","null","<img src=""img/land3.png"" style=""width:200px; border:14px solid green;"">","null","","","","","","","","","",""
"","image-keyboard-response","138","141020","0.0-138.0","3JWH6J9I9TZFJACSX135KLH72JWNBI","A3L2VS3998R77L","3Z3R5YC0P3915KVY8X6BNRIWYOFFTN","","555.7999999523163","img/land2.png","76","556.3000001907349","3","0","1","1","0.8,0.2,0.2,0.2,0.8,0.2,0.2,0.2,0.8","0.8,0.2,0.2,0.2,0.8,0.2,0.2,0.2,0.8","1","",""
"","html-keyboard-response","139","141321","0.0-139.0","3JWH6J9I9TZFJACSX135KLH72JWNBI","A3L2VS3998R77L","3Z3R5YC0P3915KVY8X6BNRIWYOFFTN","","null","<img src=""img/land2.png"" style=""width:200px;border:14px solid red;"">","null","","","","","","","","","",""
"","image-keyboard-response","140","141736","0.0-140.0","3JWH6J9I9TZFJACSX135KLH72JWNBI","A3L2VS3998R77L","3Z3R5YC0P3915KVY8X6BNRIWYOFFTN","","414.59999990463257","img/land2.png","74","415.09999990463257","1","1","1","1","0.8,0.2,0.2,0.2,0.8,0.2,0.2,0.2,0.8","0.8,0.2,0.2,0.2,0.8,0.2,0.2,0.2,0.8","1","",""
"","html-keyboard-response","141","142037","0.0-141.0","3JWH6J9I9TZFJACSX135KLH72JWNBI","A3L2VS3998R77L","3Z3R5YC0P3915KVY8X6BNRIWYOFFTN","","null","<img src=""img/land2.png"" style=""width:200px; border:14px solid green;"">","null","","","","","","","","","",""
"","image-keyboard-response","142","142634","0.0-142.0","3JWH6J9I9TZFJACSX135KLH72JWNBI","A3L2VS3998R77L","3Z3R5YC0P3915KVY8X6BNRIWYOFFTN","","596.4000000953674","img/land3.png","74","596.8999998569489","1","0","2","1","0.8,0.2,0.2,0.2,0.8,0.2,0.2,0.2,0.8","0.8,0.2,0.2,0.2,0.8,0.2,0.2,0.2,0.8","1","",""
"","html-keyboard-response","143","142935","0.0-143.0","3JWH6J9I9TZFJACSX135KLH72JWNBI","A3L2VS3998R77L","3Z3R5YC0P3915KVY8X6BNRIWYOFFTN","","null","<img src=""img/land3.png"" style=""width:200px;border:14px solid red;"">","null","","","","","","","","","",""
"","image-keyboard-response","144","143386","0.0-144.0","3JWH6J9I9TZFJACSX135KLH72JWNBI","A3L2VS3998R77L","3Z3R5YC0P3915KVY8X6BNRIWYOFFTN","","450.90000009536743","img/land3.png","75","451.30000019073486","2","1","2","1","0.8,0.2,0.2,0.2,0.8,0.2,0.2,0.2,0.8","0.8,0.2,0.2,0.2,0.8,0.2,0.2,0.2,0.8","1","",""
"","html-keyboard-response","145","143688","0.0-145.0","3JWH6J9I9TZFJACSX135KLH72JWNBI","A3L2VS3998R77L","3Z3R5YC0P3915KVY8X6BNRIWYOFFTN","","null","<img src=""img/land3.png"" style=""width:200px; border:14px solid green;"">","null","","","","","","","","","",""
"","image-keyboard-response","146","144289","0.0-146.0","3JWH6J9I9TZFJACSX135KLH72JWNBI","A3L2VS3998R77L","3Z3R5YC0P3915KVY8X6BNRIWYOFFTN","","600.5","img/land3.png","76","601","3","0","2","1","0.8,0.2,0.2,0.2,0.8,0.2,0.2,0.2,0.8","0.8,0.2,0.2,0.2,0.8,0.2,0.2,0.2,0.8","1","",""
"","html-keyboard-response","147","144590","0.0-147.0","3JWH6J9I9TZFJACSX135KLH72JWNBI","A3L2VS3998R77L","3Z3R5YC0P3915KVY8X6BNRIWYOFFTN","","null","<img src=""img/land3.png"" style=""width:200px;border:14px solid red;"">","null","","","","","","","","","",""
"","image-keyboard-response","148","145060","0.0-148.0","3JWH6J9I9TZFJACSX135KLH72JWNBI","A3L2VS3998R77L","3Z3R5YC0P3915KVY8X6BNRIWYOFFTN","","469.30000019073486","img/land3.png","75","469.7000000476837","2","1","2","1","0.8,0.2,0.2,0.2,0.8,0.2,0.2,0.2,0.8","0.8,0.2,0.2,0.2,0.8,0.2,0.2,0.2,0.8","1","",""
"","html-keyboard-response","149","145361","0.0-149.0","3JWH6J9I9TZFJACSX135KLH72JWNBI","A3L2VS3998R77L","3Z3R5YC0P3915KVY8X6BNRIWYOFFTN","","null","<img src=""img/land3.png"" style=""width:200px; border:14px solid green;"">","null","","","","","","","","","",""
"","image-keyboard-response","150","146388","0.0-150.0","3JWH6J9I9TZFJACSX135KLH72JWNBI","A3L2VS3998R77L","3Z3R5YC0P3915KVY8X6BNRIWYOFFTN","","1025.5999999046326","img/land2.png","76","1026","3","0","1","1","0.8,0.2,0.2,0.2,0.8,0.2,0.2,0.2,0.8","0.8,0.2,0.2,0.2,0.8,0.2,0.2,0.2,0.8","1","",""
"","html-keyboard-response","151","146689","0.0-151.0","3JWH6J9I9TZFJACSX135KLH72JWNBI","A3L2VS3998R77L","3Z3R5YC0P3915KVY8X6BNRIWYOFFTN","","null","<img src=""img/land2.png"" style=""width:200px;border:14px solid red;"">","null","","","","","","","","","",""
"","image-keyboard-response","152","147194","0.0-152.0","3JWH6J9I9TZFJACSX135KLH72JWNBI","A3L2VS3998R77L","3Z3R5YC0P3915KVY8X6BNRIWYOFFTN","","504.69999980926514","img/land4.png","74","505.10000014305115","1","0","3","1","0.8,0.2,0.2,0.2,0.8,0.2,0.2,0.2,0.8","0.8,0.2,0.2,0.2,0.8,0.2,0.2,0.2,0.8","1","",""
"","html-keyboard-response","153","147496","0.0-153.0","3JWH6J9I9TZFJACSX135KLH72JWNBI","A3L2VS3998R77L","3Z3R5YC0P3915KVY8X6BNRIWYOFFTN","","null","<img src=""img/land4.png"" style=""width:200px;border:14px solid red;"">","null","","","","","","","","","",""
"","image-keyboard-response","154","147973","0.0-154.0","3JWH6J9I9TZFJACSX135KLH72JWNBI","A3L2VS3998R77L","3Z3R5YC0P3915KVY8X6BNRIWYOFFTN","","476.7000000476837","img/land3.png","75","477.2999999523163","2","1","2","1","0.8,0.2,0.2,0.2,0.8,0.2,0.2,0.2,0.8","0.8,0.2,0.2,0.2,0.8,0.2,0.2,0.2,0.8","1","",""
"","html-keyboard-response","155","148274","0.0-155.0","3JWH6J9I9TZFJACSX135KLH72JWNBI","A3L2VS3998R77L","3Z3R5YC0P3915KVY8X6BNRIWYOFFTN","","null","<img src=""img/land3.png"" style=""width:200px; border:14px solid green;"">","null","","","","","","","","","",""
"","image-keyboard-response","156","149195","0.0-156.0","3JWH6J9I9TZFJACSX135KLH72JWNBI","A3L2VS3998R77L","3Z3R5YC0P3915KVY8X6BNRIWYOFFTN","","920.2999999523163","img/land4.png","75","920.8999998569489","2","0","3","1","0.8,0.2,0.2,0.2,0.8,0.2,0.2,0.2,0.8","0.8,0.2,0.2,0.2,0.8,0.2,0.2,0.2,0.8","1","",""
"","html-keyboard-response","157","149496","0.0-157.0","3JWH6J9I9TZFJACSX135KLH72JWNBI","A3L2VS3998R77L","3Z3R5YC0P3915KVY8X6BNRIWYOFFTN","","null","<img src=""img/land4.png"" style=""width:200px;border:14px solid red;"">","null","","","","","","","","","",""
"","image-keyboard-response","158","149993","0.0-158.0","3JWH6J9I9TZFJACSX135KLH72JWNBI","A3L2VS3998R77L","3Z3R5YC0P3915KVY8X6BNRIWYOFFTN","","497.30000019073486","img/land3.png","74","497.7999999523163","1","0","2","1","0.8,0.2,0.2,0.2,0.8,0.2,0.2,0.2,0.8","0.8,0.2,0.2,0.2,0.8,0.2,0.2,0.2,0.8","1","",""
"","html-keyboard-response","159","150295","0.0-159.0","3JWH6J9I9TZFJACSX135KLH72JWNBI","A3L2VS3998R77L","3Z3R5YC0P3915KVY8X6BNRIWYOFFTN","","null","<img src=""img/land3.png"" style=""width:200px;border:14px solid red;"">","null","","","","","","","","","",""
"","image-keyboard-response","160","150863","0.0-160.0","3JWH6J9I9TZFJACSX135KLH72JWNBI","A3L2VS3998R77L","3Z3R5YC0P3915KVY8X6BNRIWYOFFTN","","567.7000000476837","img/land3.png","75","568.0999999046326","2","1","2","1","0.8,0.2,0.2,0.2,0.8,0.2,0.2,0.2,0.8","0.8,0.2,0.2,0.2,0.8,0.2,0.2,0.2,0.8","1","",""
"","html-keyboard-response","161","151165","0.0-161.0","3JWH6J9I9TZFJACSX135KLH72JWNBI","A3L2VS3998R77L","3Z3R5YC0P3915KVY8X6BNRIWYOFFTN","","null","<img src=""img/land3.png"" style=""width:200px; border:14px solid green;"">","null","","","","","","","","","",""
"","image-keyboard-response","162","152103","0.0-162.0","3JWH6J9I9TZFJACSX135KLH72JWNBI","A3L2VS3998R77L","3Z3R5YC0P3915KVY8X6BNRIWYOFFTN","","937.5999999046326","img/land2.png","75","938.0999999046326","2","0","1","1","0.8,0.2,0.2,0.2,0.8,0.2,0.2,0.2,0.8","0.8,0.2,0.2,0.2,0.8,0.2,0.2,0.2,0.8","1","",""
"","html-keyboard-response","163","152404","0.0-163.0","3JWH6J9I9TZFJACSX135KLH72JWNBI","A3L2VS3998R77L","3Z3R5YC0P3915KVY8X6BNRIWYOFFTN","","null","<img src=""img/land2.png"" style=""width:200px;border:14px solid red;"">","null","","","","","","","","","",""
"","image-keyboard-response","164","152983","0.0-164.0","3JWH6J9I9TZFJACSX135KLH72JWNBI","A3L2VS3998R77L","3Z3R5YC0P3915KVY8X6BNRIWYOFFTN","","578.4000000953674","img/land4.png","76","578.7999999523163","3","1","3","1","0.8,0.2,0.2,0.2,0.8,0.2,0.2,0.2,0.8","0.8,0.2,0.2,0.2,0.8,0.2,0.2,0.2,0.8","1","",""
"","html-keyboard-response","165","153284","0.0-165.0","3JWH6J9I9TZFJACSX135KLH72JWNBI","A3L2VS3998R77L","3Z3R5YC0P3915KVY8X6BNRIWYOFFTN","","null","<img src=""img/land4.png"" style=""width:200px; border:14px solid green;"">","null","","","","","","","","","",""
"","image-keyboard-response","166","153927","0.0-166.0","3JWH6J9I9TZFJACSX135KLH72JWNBI","A3L2VS3998R77L","3Z3R5YC0P3915KVY8X6BNRIWYOFFTN","","642.4000000953674","img/land4.png","74","642.7999999523163","1","1","3","1","0.8,0.2,0.2,0.2,0.8,0.2,0.2,0.2,0.8","0.8,0.2,0.2,0.2,0.8,0.2,0.2,0.2,0.8","1","",""
"","html-keyboard-response","167","154228","0.0-167.0","3JWH6J9I9TZFJACSX135KLH72JWNBI","A3L2VS3998R77L","3Z3R5YC0P3915KVY8X6BNRIWYOFFTN","","null","<img src=""img/land4.png"" style=""width:200px; border:14px solid green;"">","null","","","","","","","","","",""
"","image-keyboard-response","168","154839","0.0-168.0","3JWH6J9I9TZFJACSX135KLH72JWNBI","A3L2VS3998R77L","3Z3R5YC0P3915KVY8X6BNRIWYOFFTN","","610.2000000476837","img/land4.png","76","610.6999998092651","3","1","3","1","0.8,0.2,0.2,0.2,0.8,0.2,0.2,0.2,0.8","0.8,0.2,0.2,0.2,0.8,0.2,0.2,0.2,0.8","1","",""
"","html-keyboard-response","169","155140","0.0-169.0","3JWH6J9I9TZFJACSX135KLH72JWNBI","A3L2VS3998R77L","3Z3R5YC0P3915KVY8X6BNRIWYOFFTN","","null","<img src=""img/land4.png"" style=""width:200px; border:14px solid green;"">","null","","","","","","","","","",""
"","image-keyboard-response","170","155951","0.0-170.0","3JWH6J9I9TZFJACSX135KLH72JWNBI","A3L2VS3998R77L","3Z3R5YC0P3915KVY8X6BNRIWYOFFTN","","810.5999999046326","img/land2.png","75","811","2","0","1","1","0.8,0.2,0.2,0.2,0.8,0.2,0.2,0.2,0.8","0.8,0.2,0.2,0.2,0.8,0.2,0.2,0.2,0.8","1","",""
"","html-keyboard-response","171","156253","0.0-171.0","3JWH6J9I9TZFJACSX135KLH72JWNBI","A3L2VS3998R77L","3Z3R5YC0P3915KVY8X6BNRIWYOFFTN","","null","<img src=""img/land2.png"" style=""width:200px;border:14px solid red;"">","null","","","","","","","","","",""
"","image-keyboard-response","172","156730","0.0-172.0","3JWH6J9I9TZFJACSX135KLH72JWNBI","A3L2VS3998R77L","3Z3R5YC0P3915KVY8X6BNRIWYOFFTN","","476.60000014305115","img/land4.png","74","477.09999990463257","1","0","3","1","0.8,0.2,0.2,0.2,0.8,0.2,0.2,0.2,0.8","0.8,0.2,0.2,0.2,0.8,0.2,0.2,0.2,0.8","1","",""
"","html-keyboard-response","173","157031","0.0-173.0","3JWH6J9I9TZFJACSX135KLH72JWNBI","A3L2VS3998R77L","3Z3R5YC0P3915KVY8X6BNRIWYOFFTN","","null","<img src=""img/land4.png"" style=""width:200px;border:14px solid red;"">","null","","","","","","","","","",""
"","image-keyboard-response","174","157505","0.0-174.0","3JWH6J9I9TZFJACSX135KLH72JWNBI","A3L2VS3998R77L","3Z3R5YC0P3915KVY8X6BNRIWYOFFTN","","473.7000000476837","img/land3.png","76","474.19999980926514","3","0","2","1","0.8,0.2,0.2,0.2,0.8,0.2,0.2,0.2,0.8","0.8,0.2,0.2,0.2,0.8,0.2,0.2,0.2,0.8","1","",""
"","html-keyboard-response","175","157807","0.0-175.0","3JWH6J9I9TZFJACSX135KLH72JWNBI","A3L2VS3998R77L","3Z3R5YC0P3915KVY8X6BNRIWYOFFTN","","null","<img src=""img/land3.png"" style=""width:200px;border:14px solid red;"">","null","","","","","","","","","",""
"","image-keyboard-response","176","158243","0.0-176.0","3JWH6J9I9TZFJACSX135KLH72JWNBI","A3L2VS3998R77L","3Z3R5YC0P3915KVY8X6BNRIWYOFFTN","","436.10000014305115","img/land2.png","75","436.39999985694885","2","0","1","1","0.8,0.2,0.2,0.2,0.8,0.2,0.2,0.2,0.8","0.8,0.2,0.2,0.2,0.8,0.2,0.2,0.2,0.8","1","",""
"","html-keyboard-response","177","158545","0.0-177.0","3JWH6J9I9TZFJACSX135KLH72JWNBI","A3L2VS3998R77L","3Z3R5YC0P3915KVY8X6BNRIWYOFFTN","","null","<img src=""img/land2.png"" style=""width:200px;border:14px solid red;"">","null","","","","","","","","","",""
"","image-keyboard-response","178","159256","0.0-178.0","3JWH6J9I9TZFJACSX135KLH72JWNBI","A3L2VS3998R77L","3Z3R5YC0P3915KVY8X6BNRIWYOFFTN","","710.6000001430511","img/land4.png","75","711.2000000476837","2","0","3","1","0.8,0.2,0.2,0.2,0.8,0.2,0.2,0.2,0.8","0.8,0.2,0.2,0.2,0.8,0.2,0.2,0.2,0.8","1","",""
"","html-keyboard-response","179","159558","0.0-179.0","3JWH6J9I9TZFJACSX135KLH72JWNBI","A3L2VS3998R77L","3Z3R5YC0P3915KVY8X6BNRIWYOFFTN","","null","<img src=""img/land4.png"" style=""width:200px;border:14px solid red;"">","null","","","","","","","","","",""
"","image-keyboard-response","180","160023","0.0-180.0","3JWH6J9I9TZFJACSX135KLH72JWNBI","A3L2VS3998R77L","3Z3R5YC0P3915KVY8X6BNRIWYOFFTN","","464.09999990463257","img/land4.png","74","464.5","1","0","3","1","0.8,0.2,0.2,0.2,0.8,0.2,0.2,0.2,0.8","0.8,0.2,0.2,0.2,0.8,0.2,0.2,0.2,0.8","1","",""
"","html-keyboard-response","181","160324","0.0-181.0","3JWH6J9I9TZFJACSX135KLH72JWNBI","A3L2VS3998R77L","3Z3R5YC0P3915KVY8X6BNRIWYOFFTN","","null","<img src=""img/land4.png"" style=""width:200px;border:14px solid red;"">","null","","","","","","","","","",""
"","html-keyboard-response","182","167624","0.0-182.0","3JWH6J9I9TZFJACSX135KLH72JWNBI","A3L2VS3998R77L","3Z3R5YC0P3915KVY8X6BNRIWYOFFTN","","","","","","","","","","","","","",""
"","image-keyboard-response","183","169627","0.0-183.0","3JWH6J9I9TZFJACSX135KLH72JWNBI","A3L2VS3998R77L","3Z3R5YC0P3915KVY8X6BNRIWYOFFTN","","","img/land5.png","","2002.1000001430511","-1","0","1","2","0.8,0.2,0.2,0.2,0.8,0.2,0.2,0.2,0.8","0.2,0.8,0.2,0.2,0.2,0.8,0.8,0.2,0.2","3","",""
"","html-keyboard-response","184","169929","0.0-184.0","3JWH6J9I9TZFJACSX135KLH72JWNBI","A3L2VS3998R77L","3Z3R5YC0P3915KVY8X6BNRIWYOFFTN","","null","<img src=""img/land5.png"" style=""width:200px;border:14px solid red;"">","null","","","","","","","","","",""
"","image-keyboard-response","185","170488","0.0-185.0","3JWH6J9I9TZFJACSX135KLH72JWNBI","A3L2VS3998R77L","3Z3R5YC0P3915KVY8X6BNRIWYOFFTN","","558.9000000953674","img/land5.png","75","559.4000000953674","2","1","1","2","0.8,0.2,0.2,0.2,0.8,0.2,0.2,0.2,0.8","0.2,0.8,0.2,0.2,0.2,0.8,0.8,0.2,0.2","3","",""
"","html-keyboard-response","186","170789","0.0-186.0","3JWH6J9I9TZFJACSX135KLH72JWNBI","A3L2VS3998R77L","3Z3R5YC0P3915KVY8X6BNRIWYOFFTN","","null","<img src=""img/land5.png"" style=""width:200px; border:14px solid green;"">","null","","","","","","","","","",""
"","image-keyboard-response","187","171391","0.0-187.0","3JWH6J9I9TZFJACSX135KLH72JWNBI","A3L2VS3998R77L","3Z3R5YC0P3915KVY8X6BNRIWYOFFTN","","601.7000000476837","img/land5.png","76","602.1000001430511","3","0","1","2","0.8,0.2,0.2,0.2,0.8,0.2,0.2,0.2,0.8","0.2,0.8,0.2,0.2,0.2,0.8,0.8,0.2,0.2","3","",""
"","html-keyboard-response","188","171693","0.0-188.0","3JWH6J9I9TZFJACSX135KLH72JWNBI","A3L2VS3998R77L","3Z3R5YC0P3915KVY8X6BNRIWYOFFTN","","null","<img src=""img/land5.png"" style=""width:200px;border:14px solid red;"">","null","","","","","","","","","",""
"","image-keyboard-response","189","172280","0.0-189.0","3JWH6J9I9TZFJACSX135KLH72JWNBI","A3L2VS3998R77L","3Z3R5YC0P3915KVY8X6BNRIWYOFFTN","","586.2999999523163","img/land6.png","74","586.9000000953674","1","0","2","2","0.8,0.2,0.2,0.2,0.8,0.2,0.2,0.2,0.8","0.2,0.8,0.2,0.2,0.2,0.8,0.8,0.2,0.2","3","",""
"","html-keyboard-response","190","172582","0.0-190.0","3JWH6J9I9TZFJACSX135KLH72JWNBI","A3L2VS3998R77L","3Z3R5YC0P3915KVY8X6BNRIWYOFFTN","","null","<img src=""img/land6.png"" style=""width:200px;border:14px solid red;"">","null","","","","","","","","","",""
"","image-keyboard-response","191","172986","0.0-191.0","3JWH6J9I9TZFJACSX135KLH72JWNBI","A3L2VS3998R77L","3Z3R5YC0P3915KVY8X6BNRIWYOFFTN","","403.59999990463257","img/land1.png","75","404.2000000476837","2","1","3","2","0.8,0.2,0.2,0.2,0.8,0.2,0.2,0.2,0.8","0.2,0.8,0.2,0.2,0.2,0.8,0.8,0.2,0.2","3","",""
"","html-keyboard-response","192","173287","0.0-192.0","3JWH6J9I9TZFJACSX135KLH72JWNBI","A3L2VS3998R77L","3Z3R5YC0P3915KVY8X6BNRIWYOFFTN","","null","<img src=""img/land1.png"" style=""width:200px; border:14px solid green;"">","null","","","","","","","","","",""
"","image-keyboard-response","193","173666","0.0-193.0","3JWH6J9I9TZFJACSX135KLH72JWNBI","A3L2VS3998R77L","3Z3R5YC0P3915KVY8X6BNRIWYOFFTN","","378.5","img/land6.png","76","379.09999990463257","3","1","2","2","0.8,0.2,0.2,0.2,0.8,0.2,0.2,0.2,0.8","0.2,0.8,0.2,0.2,0.2,0.8,0.8,0.2,0.2","3","",""
"","html-keyboard-response","194","173968","0.0-194.0","3JWH6J9I9TZFJACSX135KLH72JWNBI","A3L2VS3998R77L","3Z3R5YC0P3915KVY8X6BNRIWYOFFTN","","null","<img src=""img/land6.png"" style=""width:200px; border:14px solid green;"">","null","","","","","","","","","",""
"","image-keyboard-response","195","174796","0.0-195.0","3JWH6J9I9TZFJACSX135KLH72JWNBI","A3L2VS3998R77L","3Z3R5YC0P3915KVY8X6BNRIWYOFFTN","","827.7000000476837","img/land1.png","76","828.2999999523163","3","0","3","2","0.8,0.2,0.2,0.2,0.8,0.2,0.2,0.2,0.8","0.2,0.8,0.2,0.2,0.2,0.8,0.8,0.2,0.2","3","",""
"","html-keyboard-response","196","175098","0.0-196.0","3JWH6J9I9TZFJACSX135KLH72JWNBI","A3L2VS3998R77L","3Z3R5YC0P3915KVY8X6BNRIWYOFFTN","","null","<img src=""img/land1.png"" style=""width:200px;border:14px solid red;"">","null","","","","","","","","","",""
"","image-keyboard-response","197","175375","0.0-197.0","3JWH6J9I9TZFJACSX135KLH72JWNBI","A3L2VS3998R77L","3Z3R5YC0P3915KVY8X6BNRIWYOFFTN","","277","img/land5.png","75","277.5","2","1","1","2","0.8,0.2,0.2,0.2,0.8,0.2,0.2,0.2,0.8","0.2,0.8,0.2,0.2,0.2,0.8,0.8,0.2,0.2","3","",""
"","html-keyboard-response","198","175676","0.0-198.0","3JWH6J9I9TZFJACSX135KLH72JWNBI","A3L2VS3998R77L","3Z3R5YC0P3915KVY8X6BNRIWYOFFTN","","null","<img src=""img/land5.png"" style=""width:200px; border:14px solid green;"">","null","","","","","","","","","",""
"","image-keyboard-response","199","175964","0.0-199.0","3JWH6J9I9TZFJACSX135KLH72JWNBI","A3L2VS3998R77L","3Z3R5YC0P3915KVY8X6BNRIWYOFFTN","","286.59999990463257","img/land5.png","74","287.10000014305115","1","0","1","2","0.8,0.2,0.2,0.2,0.8,0.2,0.2,0.2,0.8","0.2,0.8,0.2,0.2,0.2,0.8,0.8,0.2,0.2","3","",""
"","html-keyboard-response","200","176265","0.0-200.0","3JWH6J9I9TZFJACSX135KLH72JWNBI","A3L2VS3998R77L","3Z3R5YC0P3915KVY8X6BNRIWYOFFTN","","null","<img src=""img/land5.png"" style=""width:200px;border:14px solid red;"">","null","","","","","","","","","",""
"","image-keyboard-response","201","176724","0.0-201.0","3JWH6J9I9TZFJACSX135KLH72JWNBI","A3L2VS3998R77L","3Z3R5YC0P3915KVY8X6BNRIWYOFFTN","","458.7999999523163","img/land5.png","76","459.39999985694885","3","1","1","2","0.8,0.2,0.2,0.2,0.8,0.2,0.2,0.2,0.8","0.2,0.8,0.2,0.2,0.2,0.8,0.8,0.2,0.2","3","",""
"","html-keyboard-response","202","177026","0.0-202.0","3JWH6J9I9TZFJACSX135KLH72JWNBI","A3L2VS3998R77L","3Z3R5YC0P3915KVY8X6BNRIWYOFFTN","","null","<img src=""img/land5.png"" style=""width:200px; border:14px solid green;"">","null","","","","","","","","","",""
"","image-keyboard-response","203","177382","0.0-203.0","3JWH6J9I9TZFJACSX135KLH72JWNBI","A3L2VS3998R77L","3Z3R5YC0P3915KVY8X6BNRIWYOFFTN","","355.40000009536743","img/land5.png","75","355.89999985694885","2","0","1","2","0.8,0.2,0.2,0.2,0.8,0.2,0.2,0.2,0.8","0.2,0.8,0.2,0.2,0.2,0.8,0.8,0.2,0.2","3","",""
"","html-keyboard-response","204","177683","0.0-204.0","3JWH6J9I9TZFJACSX135KLH72JWNBI","A3L2VS3998R77L","3Z3R5YC0P3915KVY8X6BNRIWYOFFTN","","null","<img src=""img/land5.png"" style=""width:200px;border:14px solid red;"">","null","","","","","","","","","",""
"","image-keyboard-response","205","178271","0.0-205.0","3JWH6J9I9TZFJACSX135KLH72JWNBI","A3L2VS3998R77L","3Z3R5YC0P3915KVY8X6BNRIWYOFFTN","","586.5999999046326","img/land1.png","74","587.0999999046326","1","0","3","2","0.8,0.2,0.2,0.2,0.8,0.2,0.2,0.2,0.8","0.2,0.8,0.2,0.2,0.2,0.8,0.8,0.2,0.2","3","",""
"","html-keyboard-response","206","178571","0.0-206.0","3JWH6J9I9TZFJACSX135KLH72JWNBI","A3L2VS3998R77L","3Z3R5YC0P3915KVY8X6BNRIWYOFFTN","","null","<img src=""img/land1.png"" style=""width:200px;border:14px solid red;"">","null","","","","","","","","","",""
"","image-keyboard-response","207","178936","0.0-207.0","3JWH6J9I9TZFJACSX135KLH72JWNBI","A3L2VS3998R77L","3Z3R5YC0P3915KVY8X6BNRIWYOFFTN","","363.89999985694885","img/land5.png","74","364.5","1","0","1","2","0.8,0.2,0.2,0.2,0.8,0.2,0.2,0.2,0.8","0.2,0.8,0.2,0.2,0.2,0.8,0.8,0.2,0.2","3","",""
"","html-keyboard-response","208","179237","0.0-208.0","3JWH6J9I9TZFJACSX135KLH72JWNBI","A3L2VS3998R77L","3Z3R5YC0P3915KVY8X6BNRIWYOFFTN","","null","<img src=""img/land5.png"" style=""width:200px;border:14px solid red;"">","null","","","","","","","","","",""
"","image-keyboard-response","209","179602","0.0-209.0","3JWH6J9I9TZFJACSX135KLH72JWNBI","A3L2VS3998R77L","3Z3R5YC0P3915KVY8X6BNRIWYOFFTN","","364.2999999523163","img/land1.png","75","364.89999985694885","2","0","3","2","0.8,0.2,0.2,0.2,0.8,0.2,0.2,0.2,0.8","0.2,0.8,0.2,0.2,0.2,0.8,0.8,0.2,0.2","3","",""
"","html-keyboard-response","210","179902","0.0-210.0","3JWH6J9I9TZFJACSX135KLH72JWNBI","A3L2VS3998R77L","3Z3R5YC0P3915KVY8X6BNRIWYOFFTN","","null","<img src=""img/land1.png"" style=""width:200px;border:14px solid red;"">","null","","","","","","","","","",""
"","image-keyboard-response","211","180272","0.0-211.0","3JWH6J9I9TZFJACSX135KLH72JWNBI","A3L2VS3998R77L","3Z3R5YC0P3915KVY8X6BNRIWYOFFTN","","369.40000009536743","img/land1.png","75","369.89999985694885","2","0","3","2","0.8,0.2,0.2,0.2,0.8,0.2,0.2,0.2,0.8","0.2,0.8,0.2,0.2,0.2,0.8,0.8,0.2,0.2","3","",""
"","html-keyboard-response","212","180574","0.0-212.0","3JWH6J9I9TZFJACSX135KLH72JWNBI","A3L2VS3998R77L","3Z3R5YC0P3915KVY8X6BNRIWYOFFTN","","null","<img src=""img/land1.png"" style=""width:200px;border:14px solid red;"">","null","","","","","","","","","",""
"","image-keyboard-response","213","180969","0.0-213.0","3JWH6J9I9TZFJACSX135KLH72JWNBI","A3L2VS3998R77L","3Z3R5YC0P3915KVY8X6BNRIWYOFFTN","","394.09999990463257","img/land5.png","76","394.7000000476837","3","0","1","2","0.8,0.2,0.2,0.2,0.8,0.2,0.2,0.2,0.8","0.2,0.8,0.2,0.2,0.2,0.8,0.8,0.2,0.2","3","",""
"","html-keyboard-response","214","181270","0.0-214.0","3JWH6J9I9TZFJACSX135KLH72JWNBI","A3L2VS3998R77L","3Z3R5YC0P3915KVY8X6BNRIWYOFFTN","","null","<img src=""img/land5.png"" style=""width:200px;border:14px solid red;"">","null","","","","","","","","","",""
"","image-keyboard-response","215","181780","0.0-215.0","3JWH6J9I9TZFJACSX135KLH72JWNBI","A3L2VS3998R77L","3Z3R5YC0P3915KVY8X6BNRIWYOFFTN","","509","img/land5.png","76","509.5","3","1","1","2","0.8,0.2,0.2,0.2,0.8,0.2,0.2,0.2,0.8","0.2,0.8,0.2,0.2,0.2,0.8,0.8,0.2,0.2","3","",""
"","html-keyboard-response","216","182081","0.0-216.0","3JWH6J9I9TZFJACSX135KLH72JWNBI","A3L2VS3998R77L","3Z3R5YC0P3915KVY8X6BNRIWYOFFTN","","null","<img src=""img/land5.png"" style=""width:200px; border:14px solid green;"">","null","","","","","","","","","",""
"","image-keyboard-response","217","182669","0.0-217.0","3JWH6J9I9TZFJACSX135KLH72JWNBI","A3L2VS3998R77L","3Z3R5YC0P3915KVY8X6BNRIWYOFFTN","","586.9000000953674","img/land5.png","75","587.4000000953674","2","1","1","2","0.8,0.2,0.2,0.2,0.8,0.2,0.2,0.2,0.8","0.2,0.8,0.2,0.2,0.2,0.8,0.8,0.2,0.2","3","",""
"","html-keyboard-response","218","182970","0.0-218.0","3JWH6J9I9TZFJACSX135KLH72JWNBI","A3L2VS3998R77L","3Z3R5YC0P3915KVY8X6BNRIWYOFFTN","","null","<img src=""img/land5.png"" style=""width:200px; border:14px solid green;"">","null","","","","","","","","","",""
"","image-keyboard-response","219","183545","0.0-219.0","3JWH6J9I9TZFJACSX135KLH72JWNBI","A3L2VS3998R77L","3Z3R5YC0P3915KVY8X6BNRIWYOFFTN","","574.2999999523163","img/land5.png","75","574.9000000953674","2","1","1","2","0.8,0.2,0.2,0.2,0.8,0.2,0.2,0.2,0.8","0.2,0.8,0.2,0.2,0.2,0.8,0.8,0.2,0.2","3","",""
"","html-keyboard-response","220","183847","0.0-220.0","3JWH6J9I9TZFJACSX135KLH72JWNBI","A3L2VS3998R77L","3Z3R5YC0P3915KVY8X6BNRIWYOFFTN","","null","<img src=""img/land5.png"" style=""width:200px; border:14px solid green;"">","null","","","","","","","","","",""
"","image-keyboard-response","221","184298","0.0-221.0","3JWH6J9I9TZFJACSX135KLH72JWNBI","A3L2VS3998R77L","3Z3R5YC0P3915KVY8X6BNRIWYOFFTN","","450.39999985694885","img/land5.png","75","450.90000009536743","2","0","1","2","0.8,0.2,0.2,0.2,0.8,0.2,0.2,0.2,0.8","0.2,0.8,0.2,0.2,0.2,0.8,0.8,0.2,0.2","3","",""
"","html-keyboard-response","222","184599","0.0-222.0","3JWH6J9I9TZFJACSX135KLH72JWNBI","A3L2VS3998R77L","3Z3R5YC0P3915KVY8X6BNRIWYOFFTN","","null","<img src=""img/land5.png"" style=""width:200px;border:14px solid red;"">","null","","","","","","","","","",""
"","image-keyboard-response","223","185017","0.0-223.0","3JWH6J9I9TZFJACSX135KLH72JWNBI","A3L2VS3998R77L","3Z3R5YC0P3915KVY8X6BNRIWYOFFTN","","417.09999990463257","img/land1.png","76","417.60000014305115","3","0","3","2","0.8,0.2,0.2,0.2,0.8,0.2,0.2,0.2,0.8","0.2,0.8,0.2,0.2,0.2,0.8,0.8,0.2,0.2","3","",""
"","html-keyboard-response","224","185318","0.0-224.0","3JWH6J9I9TZFJACSX135KLH72JWNBI","A3L2VS3998R77L","3Z3R5YC0P3915KVY8X6BNRIWYOFFTN","","null","<img src=""img/land1.png"" style=""width:200px;border:14px solid red;"">","null","","","","","","","","","",""
"","image-keyboard-response","225","185715","0.0-225.0","3JWH6J9I9TZFJACSX135KLH72JWNBI","A3L2VS3998R77L","3Z3R5YC0P3915KVY8X6BNRIWYOFFTN","","396.7999999523163","img/land6.png","74","397.40000009536743","1","0","2","2","0.8,0.2,0.2,0.2,0.8,0.2,0.2,0.2,0.8","0.2,0.8,0.2,0.2,0.2,0.8,0.8,0.2,0.2","3","",""
"","html-keyboard-response","226","186016","0.0-226.0","3JWH6J9I9TZFJACSX135KLH72JWNBI","A3L2VS3998R77L","3Z3R5YC0P3915KVY8X6BNRIWYOFFTN","","null","<img src=""img/land6.png"" style=""width:200px;border:14px solid red;"">","null","","","","","","","","","",""
"","image-keyboard-response","227","186426","0.0-227.0","3JWH6J9I9TZFJACSX135KLH72JWNBI","A3L2VS3998R77L","3Z3R5YC0P3915KVY8X6BNRIWYOFFTN","","409.2999999523163","img/land1.png","76","409.69999980926514","3","0","3","2","0.8,0.2,0.2,0.2,0.8,0.2,0.2,0.2,0.8","0.2,0.8,0.2,0.2,0.2,0.8,0.8,0.2,0.2","3","",""
"","html-keyboard-response","228","186739","0.0-228.0","3JWH6J9I9TZFJACSX135KLH72JWNBI","A3L2VS3998R77L","3Z3R5YC0P3915KVY8X6BNRIWYOFFTN","","null","<img src=""img/land1.png"" style=""width:200px;border:14px solid red;"">","null","","","","","","","","","",""
"","image-keyboard-response","229","187137","0.0-229.0","3JWH6J9I9TZFJACSX135KLH72JWNBI","A3L2VS3998R77L","3Z3R5YC0P3915KVY8X6BNRIWYOFFTN","","397.80000019073486","img/land6.png","75","398.2999999523163","2","0","2","2","0.8,0.2,0.2,0.2,0.8,0.2,0.2,0.2,0.8","0.2,0.8,0.2,0.2,0.2,0.8,0.8,0.2,0.2","3","",""
"","html-keyboard-response","230","187438","0.0-230.0","3JWH6J9I9TZFJACSX135KLH72JWNBI","A3L2VS3998R77L","3Z3R5YC0P3915KVY8X6BNRIWYOFFTN","","null","<img src=""img/land6.png"" style=""width:200px;border:14px solid red;"">","null","","","","","","","","","",""
"","image-keyboard-response","231","187899","0.0-231.0","3JWH6J9I9TZFJACSX135KLH72JWNBI","A3L2VS3998R77L","3Z3R5YC0P3915KVY8X6BNRIWYOFFTN","","460","img/land5.png","75","460.5","2","1","1","2","0.8,0.2,0.2,0.2,0.8,0.2,0.2,0.2,0.8","0.2,0.8,0.2,0.2,0.2,0.8,0.8,0.2,0.2","3","",""
"","html-keyboard-response","232","188200","0.0-232.0","3JWH6J9I9TZFJACSX135KLH72JWNBI","A3L2VS3998R77L","3Z3R5YC0P3915KVY8X6BNRIWYOFFTN","","null","<img src=""img/land5.png"" style=""width:200px; border:14px solid green;"">","null","","","","","","","","","",""
"","image-keyboard-response","233","188628","0.0-233.0","3JWH6J9I9TZFJACSX135KLH72JWNBI","A3L2VS3998R77L","3Z3R5YC0P3915KVY8X6BNRIWYOFFTN","","427.40000009536743","img/land5.png","76","428","3","0","1","2","0.8,0.2,0.2,0.2,0.8,0.2,0.2,0.2,0.8","0.2,0.8,0.2,0.2,0.2,0.8,0.8,0.2,0.2","3","",""
"","html-keyboard-response","234","188929","0.0-234.0","3JWH6J9I9TZFJACSX135KLH72JWNBI","A3L2VS3998R77L","3Z3R5YC0P3915KVY8X6BNRIWYOFFTN","","null","<img src=""img/land5.png"" style=""width:200px;border:14px solid red;"">","null","","","","","","","","","",""
"","image-keyboard-response","235","189298","0.0-235.0","3JWH6J9I9TZFJACSX135KLH72JWNBI","A3L2VS3998R77L","3Z3R5YC0P3915KVY8X6BNRIWYOFFTN","","368","img/land1.png","74","368.60000014305115","1","1","3","2","0.8,0.2,0.2,0.2,0.8,0.2,0.2,0.2,0.8","0.2,0.8,0.2,0.2,0.2,0.8,0.8,0.2,0.2","3","",""
"","html-keyboard-response","236","189599","0.0-236.0","3JWH6J9I9TZFJACSX135KLH72JWNBI","A3L2VS3998R77L","3Z3R5YC0P3915KVY8X6BNRIWYOFFTN","","null","<img src=""img/land1.png"" style=""width:200px; border:14px solid green;"">","null","","","","","","","","","",""
"","image-keyboard-response","237","190005","0.0-237.0","3JWH6J9I9TZFJACSX135KLH72JWNBI","A3L2VS3998R77L","3Z3R5YC0P3915KVY8X6BNRIWYOFFTN","","405.10000014305115","img/land6.png","76","405.59999990463257","3","1","2","2","0.8,0.2,0.2,0.2,0.8,0.2,0.2,0.2,0.8","0.2,0.8,0.2,0.2,0.2,0.8,0.8,0.2,0.2","3","",""
"","html-keyboard-response","238","190306","0.0-238.0","3JWH6J9I9TZFJACSX135KLH72JWNBI","A3L2VS3998R77L","3Z3R5YC0P3915KVY8X6BNRIWYOFFTN","","null","<img src=""img/land6.png"" style=""width:200px; border:14px solid green;"">","null","","","","","","","","","",""
"","image-keyboard-response","239","190657","0.0-239.0","3JWH6J9I9TZFJACSX135KLH72JWNBI","A3L2VS3998R77L","3Z3R5YC0P3915KVY8X6BNRIWYOFFTN","","350.30000019073486","img/land5.png","74","351","1","0","1","2","0.8,0.2,0.2,0.2,0.8,0.2,0.2,0.2,0.8","0.2,0.8,0.2,0.2,0.2,0.8,0.8,0.2,0.2","3","",""
"","html-keyboard-response","240","190959","0.0-240.0","3JWH6J9I9TZFJACSX135KLH72JWNBI","A3L2VS3998R77L","3Z3R5YC0P3915KVY8X6BNRIWYOFFTN","","null","<img src=""img/land5.png"" style=""width:200px;border:14px solid red;"">","null","","","","","","","","","",""
"","image-keyboard-response","241","191346","0.0-241.0","3JWH6J9I9TZFJACSX135KLH72JWNBI","A3L2VS3998R77L","3Z3R5YC0P3915KVY8X6BNRIWYOFFTN","","387.2999999523163","img/land5.png","76","387.7000000476837","3","0","1","2","0.8,0.2,0.2,0.2,0.8,0.2,0.2,0.2,0.8","0.2,0.8,0.2,0.2,0.2,0.8,0.8,0.2,0.2","3","",""
"","html-keyboard-response","242","191648","0.0-242.0","3JWH6J9I9TZFJACSX135KLH72JWNBI","A3L2VS3998R77L","3Z3R5YC0P3915KVY8X6BNRIWYOFFTN","","null","<img src=""img/land5.png"" style=""width:200px;border:14px solid red;"">","null","","","","","","","","","",""
"","image-keyboard-response","243","191993","0.0-243.0","3JWH6J9I9TZFJACSX135KLH72JWNBI","A3L2VS3998R77L","3Z3R5YC0P3915KVY8X6BNRIWYOFFTN","","344.7999999523163","img/land1.png","75","345.30000019073486","2","0","3","2","0.8,0.2,0.2,0.2,0.8,0.2,0.2,0.2,0.8","0.2,0.8,0.2,0.2,0.2,0.8,0.8,0.2,0.2","3","",""
"","html-keyboard-response","244","192294","0.0-244.0","3JWH6J9I9TZFJACSX135KLH72JWNBI","A3L2VS3998R77L","3Z3R5YC0P3915KVY8X6BNRIWYOFFTN","","null","<img src=""img/land1.png"" style=""width:200px;border:14px solid red;"">","null","","","","","","","","","",""
"","image-keyboard-response","245","192668","0.0-245.0","3JWH6J9I9TZFJACSX135KLH72JWNBI","A3L2VS3998R77L","3Z3R5YC0P3915KVY8X6BNRIWYOFFTN","","373.7999999523163","img/land6.png","76","374.2999999523163","3","0","2","2","0.8,0.2,0.2,0.2,0.8,0.2,0.2,0.2,0.8","0.2,0.8,0.2,0.2,0.2,0.8,0.8,0.2,0.2","3","",""
"","html-keyboard-response","246","192969","0.0-246.0","3JWH6J9I9TZFJACSX135KLH72JWNBI","A3L2VS3998R77L","3Z3R5YC0P3915KVY8X6BNRIWYOFFTN","","null","<img src=""img/land6.png"" style=""width:200px;border:14px solid red;"">","null","","","","","","","","","",""
"","image-keyboard-response","247","193306","0.0-247.0","3JWH6J9I9TZFJACSX135KLH72JWNBI","A3L2VS3998R77L","3Z3R5YC0P3915KVY8X6BNRIWYOFFTN","","336.2999999523163","img/land6.png","74","337.59999990463257","1","0","2","2","0.8,0.2,0.2,0.2,0.8,0.2,0.2,0.2,0.8","0.2,0.8,0.2,0.2,0.2,0.8,0.8,0.2,0.2","3","",""
"","html-keyboard-response","248","193608","0.0-248.0","3JWH6J9I9TZFJACSX135KLH72JWNBI","A3L2VS3998R77L","3Z3R5YC0P3915KVY8X6BNRIWYOFFTN","","null","<img src=""img/land6.png"" style=""width:200px;border:14px solid red;"">","null","","","","","","","","","",""
"","image-keyboard-response","249","193973","0.0-249.0","3JWH6J9I9TZFJACSX135KLH72JWNBI","A3L2VS3998R77L","3Z3R5YC0P3915KVY8X6BNRIWYOFFTN","","364.10000014305115","img/land5.png","74","364.7999999523163","1","0","1","2","0.8,0.2,0.2,0.2,0.8,0.2,0.2,0.2,0.8","0.2,0.8,0.2,0.2,0.2,0.8,0.8,0.2,0.2","3","",""
"","html-keyboard-response","250","194274","0.0-250.0","3JWH6J9I9TZFJACSX135KLH72JWNBI","A3L2VS3998R77L","3Z3R5YC0P3915KVY8X6BNRIWYOFFTN","","null","<img src=""img/land5.png"" style=""width:200px;border:14px solid red;"">","null","","","","","","","","","",""
"","image-keyboard-response","251","194669","0.0-251.0","3JWH6J9I9TZFJACSX135KLH72JWNBI","A3L2VS3998R77L","3Z3R5YC0P3915KVY8X6BNRIWYOFFTN","","394.2999999523163","img/land5.png","75","394.90000009536743","2","0","1","2","0.8,0.2,0.2,0.2,0.8,0.2,0.2,0.2,0.8","0.2,0.8,0.2,0.2,0.2,0.8,0.8,0.2,0.2","3","",""
"","html-keyboard-response","252","194970","0.0-252.0","3JWH6J9I9TZFJACSX135KLH72JWNBI","A3L2VS3998R77L","3Z3R5YC0P3915KVY8X6BNRIWYOFFTN","","null","<img src=""img/land5.png"" style=""width:200px;border:14px solid red;"">","null","","","","","","","","","",""
"","image-keyboard-response","253","195353","0.0-253.0","3JWH6J9I9TZFJACSX135KLH72JWNBI","A3L2VS3998R77L","3Z3R5YC0P3915KVY8X6BNRIWYOFFTN","","382.89999985694885","img/land5.png","76","383.2999999523163","3","0","1","2","0.8,0.2,0.2,0.2,0.8,0.2,0.2,0.2,0.8","0.2,0.8,0.2,0.2,0.2,0.8,0.8,0.2,0.2","3","",""
"","html-keyboard-response","254","195655","0.0-254.0","3JWH6J9I9TZFJACSX135KLH72JWNBI","A3L2VS3998R77L","3Z3R5YC0P3915KVY8X6BNRIWYOFFTN","","null","<img src=""img/land5.png"" style=""width:200px;border:14px solid red;"">","null","","","","","","","","","",""
"","image-keyboard-response","255","196009","0.0-255.0","3JWH6J9I9TZFJACSX135KLH72JWNBI","A3L2VS3998R77L","3Z3R5YC0P3915KVY8X6BNRIWYOFFTN","","353.7000000476837","img/land5.png","74","354.19999980926514","1","0","1","2","0.8,0.2,0.2,0.2,0.8,0.2,0.2,0.2,0.8","0.2,0.8,0.2,0.2,0.2,0.8,0.8,0.2,0.2","3","",""
"","html-keyboard-response","256","196311","0.0-256.0","3JWH6J9I9TZFJACSX135KLH72JWNBI","A3L2VS3998R77L","3Z3R5YC0P3915KVY8X6BNRIWYOFFTN","","null","<img src=""img/land5.png"" style=""width:200px;border:14px solid red;"">","null","","","","","","","","","",""
"","image-keyboard-response","257","196689","0.0-257.0","3JWH6J9I9TZFJACSX135KLH72JWNBI","A3L2VS3998R77L","3Z3R5YC0P3915KVY8X6BNRIWYOFFTN","","377.5","img/land6.png","75","378.10000014305115","2","0","2","2","0.8,0.2,0.2,0.2,0.8,0.2,0.2,0.2,0.8","0.2,0.8,0.2,0.2,0.2,0.8,0.8,0.2,0.2","3","",""
"","html-keyboard-response","258","196990","0.0-258.0","3JWH6J9I9TZFJACSX135KLH72JWNBI","A3L2VS3998R77L","3Z3R5YC0P3915KVY8X6BNRIWYOFFTN","","null","<img src=""img/land6.png"" style=""width:200px;border:14px solid red;"">","null","","","","","","","","","",""
"","image-keyboard-response","259","197413","0.0-259.0","3JWH6J9I9TZFJACSX135KLH72JWNBI","A3L2VS3998R77L","3Z3R5YC0P3915KVY8X6BNRIWYOFFTN","","423","img/land5.png","76","423.40000009536743","3","0","1","2","0.8,0.2,0.2,0.2,0.8,0.2,0.2,0.2,0.8","0.2,0.8,0.2,0.2,0.2,0.8,0.8,0.2,0.2","3","",""
"","html-keyboard-response","260","197714","0.0-260.0","3JWH6J9I9TZFJACSX135KLH72JWNBI","A3L2VS3998R77L","3Z3R5YC0P3915KVY8X6BNRIWYOFFTN","","null","<img src=""img/land5.png"" style=""width:200px;border:14px solid red;"">","null","","","","","","","","","",""
"","image-keyboard-response","261","198085","0.0-261.0","3JWH6J9I9TZFJACSX135KLH72JWNBI","A3L2VS3998R77L","3Z3R5YC0P3915KVY8X6BNRIWYOFFTN","","369.5","img/land5.png","76","370.09999990463257","3","0","1","2","0.8,0.2,0.2,0.2,0.8,0.2,0.2,0.2,0.8","0.2,0.8,0.2,0.2,0.2,0.8,0.8,0.2,0.2","3","",""
"","html-keyboard-response","262","198386","0.0-262.0","3JWH6J9I9TZFJACSX135KLH72JWNBI","A3L2VS3998R77L","3Z3R5YC0P3915KVY8X6BNRIWYOFFTN","","null","<img src=""img/land5.png"" style=""width:200px;border:14px solid red;"">","null","","","","","","","","","",""
"","image-keyboard-response","263","198714","0.0-263.0","3JWH6J9I9TZFJACSX135KLH72JWNBI","A3L2VS3998R77L","3Z3R5YC0P3915KVY8X6BNRIWYOFFTN","","326.90000009536743","img/land5.png","75","327.5","2","1","1","2","0.8,0.2,0.2,0.2,0.8,0.2,0.2,0.2,0.8","0.2,0.8,0.2,0.2,0.2,0.8,0.8,0.2,0.2","3","",""
"","html-keyboard-response","264","199029","0.0-264.0","3JWH6J9I9TZFJACSX135KLH72JWNBI","A3L2VS3998R77L","3Z3R5YC0P3915KVY8X6BNRIWYOFFTN","","null","<img src=""img/land5.png"" style=""width:200px; border:14px solid green;"">","null","","","","","","","","","",""
"","image-keyboard-response","265","199456","0.0-265.0","3JWH6J9I9TZFJACSX135KLH72JWNBI","A3L2VS3998R77L","3Z3R5YC0P3915KVY8X6BNRIWYOFFTN","","426.2999999523163","img/land6.png","74","426.89999985694885","1","0","2","2","0.8,0.2,0.2,0.2,0.8,0.2,0.2,0.2,0.8","0.2,0.8,0.2,0.2,0.2,0.8,0.8,0.2,0.2","3","",""
"","html-keyboard-response","266","199757","0.0-266.0","3JWH6J9I9TZFJACSX135KLH72JWNBI","A3L2VS3998R77L","3Z3R5YC0P3915KVY8X6BNRIWYOFFTN","","null","<img src=""img/land6.png"" style=""width:200px;border:14px solid red;"">","null","","","","","","","","","",""
"","image-keyboard-response","267","200062","0.0-267.0","3JWH6J9I9TZFJACSX135KLH72JWNBI","A3L2VS3998R77L","3Z3R5YC0P3915KVY8X6BNRIWYOFFTN","","304.80000019073486","img/land6.png","74","305.2999999523163","1","1","2","2","0.8,0.2,0.2,0.2,0.8,0.2,0.2,0.2,0.8","0.2,0.8,0.2,0.2,0.2,0.8,0.8,0.2,0.2","3","",""
"","html-keyboard-response","268","200363","0.0-268.0","3JWH6J9I9TZFJACSX135KLH72JWNBI","A3L2VS3998R77L","3Z3R5YC0P3915KVY8X6BNRIWYOFFTN","","null","<img src=""img/land6.png"" style=""width:200px; border:14px solid green;"">","null","","","","","","","","","",""
"","image-keyboard-response","269","200783","0.0-269.0","3JWH6J9I9TZFJACSX135KLH72JWNBI","A3L2VS3998R77L","3Z3R5YC0P3915KVY8X6BNRIWYOFFTN","","419.2999999523163","img/land5.png","76","420","3","0","1","2","0.8,0.2,0.2,0.2,0.8,0.2,0.2,0.2,0.8","0.2,0.8,0.2,0.2,0.2,0.8,0.8,0.2,0.2","3","",""
"","html-keyboard-response","270","201084","0.0-270.0","3JWH6J9I9TZFJACSX135KLH72JWNBI","A3L2VS3998R77L","3Z3R5YC0P3915KVY8X6BNRIWYOFFTN","","null","<img src=""img/land5.png"" style=""width:200px;border:14px solid red;"">","null","","","","","","","","","",""
"","image-keyboard-response","271","201599","0.0-271.0","3JWH6J9I9TZFJACSX135KLH72JWNBI","A3L2VS3998R77L","3Z3R5YC0P3915KVY8X6BNRIWYOFFTN","","514.2000000476837","img/land1.png","74","514.5999999046326","1","0","3","2","0.8,0.2,0.2,0.2,0.8,0.2,0.2,0.2,0.8","0.2,0.8,0.2,0.2,0.2,0.8,0.8,0.2,0.2","3","",""
"","html-keyboard-response","272","201900","0.0-272.0","3JWH6J9I9TZFJACSX135KLH72JWNBI","A3L2VS3998R77L","3Z3R5YC0P3915KVY8X6BNRIWYOFFTN","","null","<img src=""img/land1.png"" style=""width:200px;border:14px solid red;"">","null","","","","","","","","","",""
"","image-keyboard-response","273","202224","0.0-273.0","3JWH6J9I9TZFJACSX135KLH72JWNBI","A3L2VS3998R77L","3Z3R5YC0P3915KVY8X6BNRIWYOFFTN","","323.2000000476837","img/land5.png","76","323.7000000476837","3","0","1","2","0.8,0.2,0.2,0.2,0.8,0.2,0.2,0.2,0.8","0.2,0.8,0.2,0.2,0.2,0.8,0.8,0.2,0.2","3","",""
"","html-keyboard-response","274","202525","0.0-274.0","3JWH6J9I9TZFJACSX135KLH72JWNBI","A3L2VS3998R77L","3Z3R5YC0P3915KVY8X6BNRIWYOFFTN","","null","<img src=""img/land5.png"" style=""width:200px;border:14px solid red;"">","null","","","","","","","","","",""
"","image-keyboard-response","275","202875","0.0-275.0","3JWH6J9I9TZFJACSX135KLH72JWNBI","A3L2VS3998R77L","3Z3R5YC0P3915KVY8X6BNRIWYOFFTN","","349.7999999523163","img/land5.png","74","350.2999999523163","1","0","1","2","0.8,0.2,0.2,0.2,0.8,0.2,0.2,0.2,0.8","0.2,0.8,0.2,0.2,0.2,0.8,0.8,0.2,0.2","3","",""
"","html-keyboard-response","276","203180","0.0-276.0","3JWH6J9I9TZFJACSX135KLH72JWNBI","A3L2VS3998R77L","3Z3R5YC0P3915KVY8X6BNRIWYOFFTN","","null","<img src=""img/land5.png"" style=""width:200px;border:14px solid red;"">","null","","","","","","","","","",""
"","image-keyboard-response","277","203504","0.0-277.0","3JWH6J9I9TZFJACSX135KLH72JWNBI","A3L2VS3998R77L","3Z3R5YC0P3915KVY8X6BNRIWYOFFTN","","323.7999999523163","img/land5.png","76","324.2000000476837","3","1","1","2","0.8,0.2,0.2,0.2,0.8,0.2,0.2,0.2,0.8","0.2,0.8,0.2,0.2,0.2,0.8,0.8,0.2,0.2","3","",""
"","html-keyboard-response","278","203805","0.0-278.0","3JWH6J9I9TZFJACSX135KLH72JWNBI","A3L2VS3998R77L","3Z3R5YC0P3915KVY8X6BNRIWYOFFTN","","null","<img src=""img/land5.png"" style=""width:200px; border:14px solid green;"">","null","","","","","","","","","",""
"","image-keyboard-response","279","204265","0.0-279.0","3JWH6J9I9TZFJACSX135KLH72JWNBI","A3L2VS3998R77L","3Z3R5YC0P3915KVY8X6BNRIWYOFFTN","","459.60000014305115","img/land5.png","76","460.09999990463257","3","0","1","2","0.8,0.2,0.2,0.2,0.8,0.2,0.2,0.2,0.8","0.2,0.8,0.2,0.2,0.2,0.8,0.8,0.2,0.2","3","",""
"","html-keyboard-response","280","204566","0.0-280.0","3JWH6J9I9TZFJACSX135KLH72JWNBI","A3L2VS3998R77L","3Z3R5YC0P3915KVY8X6BNRIWYOFFTN","","null","<img src=""img/land5.png"" style=""width:200px;border:14px solid red;"">","null","","","","","","","","","",""
"","image-keyboard-response","281","205031","0.0-281.0","3JWH6J9I9TZFJACSX135KLH72JWNBI","A3L2VS3998R77L","3Z3R5YC0P3915KVY8X6BNRIWYOFFTN","","464.30000019073486","img/land6.png","74","464.89999985694885","1","1","2","2","0.8,0.2,0.2,0.2,0.8,0.2,0.2,0.2,0.8","0.2,0.8,0.2,0.2,0.2,0.8,0.8,0.2,0.2","3","",""
"","html-keyboard-response","282","205332","0.0-282.0","3JWH6J9I9TZFJACSX135KLH72JWNBI","A3L2VS3998R77L","3Z3R5YC0P3915KVY8X6BNRIWYOFFTN","","null","<img src=""img/land6.png"" style=""width:200px; border:14px solid green;"">","null","","","","","","","","","",""
"","image-keyboard-response","283","205957","0.0-283.0","3JWH6J9I9TZFJACSX135KLH72JWNBI","A3L2VS3998R77L","3Z3R5YC0P3915KVY8X6BNRIWYOFFTN","","624","img/land5.png","75","624.5999999046326","2","1","1","2","0.8,0.2,0.2,0.2,0.8,0.2,0.2,0.2,0.8","0.2,0.8,0.2,0.2,0.2,0.8,0.8,0.2,0.2","3","",""
"","html-keyboard-response","284","206258","0.0-284.0","3JWH6J9I9TZFJACSX135KLH72JWNBI","A3L2VS3998R77L","3Z3R5YC0P3915KVY8X6BNRIWYOFFTN","","null","<img src=""img/land5.png"" style=""width:200px; border:14px solid green;"">","null","","","","","","","","","",""
"","image-keyboard-response","285","206873","0.0-285.0","3JWH6J9I9TZFJACSX135KLH72JWNBI","A3L2VS3998R77L","3Z3R5YC0P3915KVY8X6BNRIWYOFFTN","","615","img/land1.png","76","615.3999998569489","3","0","3","2","0.8,0.2,0.2,0.2,0.8,0.2,0.2,0.2,0.8","0.2,0.8,0.2,0.2,0.2,0.8,0.8,0.2,0.2","3","",""
"","html-keyboard-response","286","207175","0.0-286.0","3JWH6J9I9TZFJACSX135KLH72JWNBI","A3L2VS3998R77L","3Z3R5YC0P3915KVY8X6BNRIWYOFFTN","","null","<img src=""img/land1.png"" style=""width:200px;border:14px solid red;"">","null","","","","","","","","","",""
"","image-keyboard-response","287","207616","0.0-287.0","3JWH6J9I9TZFJACSX135KLH72JWNBI","A3L2VS3998R77L","3Z3R5YC0P3915KVY8X6BNRIWYOFFTN","","441","img/land5.png","74","441.59999990463257","1","0","1","2","0.8,0.2,0.2,0.2,0.8,0.2,0.2,0.2,0.8","0.2,0.8,0.2,0.2,0.2,0.8,0.8,0.2,0.2","3","",""
"","html-keyboard-response","288","207918","0.0-288.0","3JWH6J9I9TZFJACSX135KLH72JWNBI","A3L2VS3998R77L","3Z3R5YC0P3915KVY8X6BNRIWYOFFTN","","null","<img src=""img/land5.png"" style=""width:200px;border:14px solid red;"">","null","","","","","","","","","",""
"","image-keyboard-response","289","208377","0.0-289.0","3JWH6J9I9TZFJACSX135KLH72JWNBI","A3L2VS3998R77L","3Z3R5YC0P3915KVY8X6BNRIWYOFFTN","","458.30000019073486","img/land5.png","75","458.89999985694885","2","1","1","2","0.8,0.2,0.2,0.2,0.8,0.2,0.2,0.2,0.8","0.2,0.8,0.2,0.2,0.2,0.8,0.8,0.2,0.2","3","",""
"","html-keyboard-response","290","208678","0.0-290.0","3JWH6J9I9TZFJACSX135KLH72JWNBI","A3L2VS3998R77L","3Z3R5YC0P3915KVY8X6BNRIWYOFFTN","","null","<img src=""img/land5.png"" style=""width:200px; border:14px solid green;"">","null","","","","","","","","","",""
"","image-keyboard-response","291","209143","0.0-291.0","3JWH6J9I9TZFJACSX135KLH72JWNBI","A3L2VS3998R77L","3Z3R5YC0P3915KVY8X6BNRIWYOFFTN","","463.89999985694885","img/land5.png","75","464.5","2","1","1","2","0.8,0.2,0.2,0.2,0.8,0.2,0.2,0.2,0.8","0.2,0.8,0.2,0.2,0.2,0.8,0.8,0.2,0.2","3","",""
"","html-keyboard-response","292","209445","0.0-292.0","3JWH6J9I9TZFJACSX135KLH72JWNBI","A3L2VS3998R77L","3Z3R5YC0P3915KVY8X6BNRIWYOFFTN","","null","<img src=""img/land5.png"" style=""width:200px; border:14px solid green;"">","null","","","","","","","","","",""
"","image-keyboard-response","293","210118","0.0-293.0","3JWH6J9I9TZFJACSX135KLH72JWNBI","A3L2VS3998R77L","3Z3R5YC0P3915KVY8X6BNRIWYOFFTN","","673.4000000953674","img/land1.png","75","674","2","0","3","2","0.8,0.2,0.2,0.2,0.8,0.2,0.2,0.2,0.8","0.2,0.8,0.2,0.2,0.2,0.8,0.8,0.2,0.2","3","",""
"","html-keyboard-response","294","210419","0.0-294.0","3JWH6J9I9TZFJACSX135KLH72JWNBI","A3L2VS3998R77L","3Z3R5YC0P3915KVY8X6BNRIWYOFFTN","","null","<img src=""img/land1.png"" style=""width:200px;border:14px solid red;"">","null","","","","","","","","","",""
"","image-keyboard-response","295","210825","0.0-295.0","3JWH6J9I9TZFJACSX135KLH72JWNBI","A3L2VS3998R77L","3Z3R5YC0P3915KVY8X6BNRIWYOFFTN","","404.59999990463257","img/land5.png","74","405","1","0","1","2","0.8,0.2,0.2,0.2,0.8,0.2,0.2,0.2,0.8","0.2,0.8,0.2,0.2,0.2,0.8,0.8,0.2,0.2","3","",""
"","html-keyboard-response","296","211125","0.0-296.0","3JWH6J9I9TZFJACSX135KLH72JWNBI","A3L2VS3998R77L","3Z3R5YC0P3915KVY8X6BNRIWYOFFTN","","null","<img src=""img/land5.png"" style=""width:200px;border:14px solid red;"">","null","","","","","","","","","",""
"","image-keyboard-response","297","211599","0.0-297.0","3JWH6J9I9TZFJACSX135KLH72JWNBI","A3L2VS3998R77L","3Z3R5YC0P3915KVY8X6BNRIWYOFFTN","","473.09999990463257","img/land5.png","76","473.59999990463257","3","0","1","2","0.8,0.2,0.2,0.2,0.8,0.2,0.2,0.2,0.8","0.2,0.8,0.2,0.2,0.2,0.8,0.8,0.2,0.2","3","",""
"","html-keyboard-response","298","211900","0.0-298.0","3JWH6J9I9TZFJACSX135KLH72JWNBI","A3L2VS3998R77L","3Z3R5YC0P3915KVY8X6BNRIWYOFFTN","","null","<img src=""img/land5.png"" style=""width:200px;border:14px solid red;"">","null","","","","","","","","","",""
"","image-keyboard-response","299","212360","0.0-299.0","3JWH6J9I9TZFJACSX135KLH72JWNBI","A3L2VS3998R77L","3Z3R5YC0P3915KVY8X6BNRIWYOFFTN","","459.60000014305115","img/land1.png","75","460.2999999523163","2","0","3","2","0.8,0.2,0.2,0.2,0.8,0.2,0.2,0.2,0.8","0.2,0.8,0.2,0.2,0.2,0.8,0.8,0.2,0.2","3","",""
"","html-keyboard-response","300","212661","0.0-300.0","3JWH6J9I9TZFJACSX135KLH72JWNBI","A3L2VS3998R77L","3Z3R5YC0P3915KVY8X6BNRIWYOFFTN","","null","<img src=""img/land1.png"" style=""width:200px;border:14px solid red;"">","null","","","","","","","","","",""
"","image-keyboard-response","301","213172","0.0-301.0","3JWH6J9I9TZFJACSX135KLH72JWNBI","A3L2VS3998R77L","3Z3R5YC0P3915KVY8X6BNRIWYOFFTN","","510.5","img/land6.png","76","511.09999990463257","3","1","2","2","0.8,0.2,0.2,0.2,0.8,0.2,0.2,0.2,0.8","0.2,0.8,0.2,0.2,0.2,0.8,0.8,0.2,0.2","3","",""
"","html-keyboard-response","302","213473","0.0-302.0","3JWH6J9I9TZFJACSX135KLH72JWNBI","A3L2VS3998R77L","3Z3R5YC0P3915KVY8X6BNRIWYOFFTN","","null","<img src=""img/land6.png"" style=""width:200px; border:14px solid green;"">","null","","","","","","","","","",""
"","image-keyboard-response","303","213965","0.0-303.0","3JWH6J9I9TZFJACSX135KLH72JWNBI","A3L2VS3998R77L","3Z3R5YC0P3915KVY8X6BNRIWYOFFTN","","491.2000000476837","img/land5.png","74","491.69999980926514","1","0","1","2","0.8,0.2,0.2,0.2,0.8,0.2,0.2,0.2,0.8","0.2,0.8,0.2,0.2,0.2,0.8,0.8,0.2,0.2","3","",""
"","html-keyboard-response","304","214266","0.0-304.0","3JWH6J9I9TZFJACSX135KLH72JWNBI","A3L2VS3998R77L","3Z3R5YC0P3915KVY8X6BNRIWYOFFTN","","null","<img src=""img/land5.png"" style=""width:200px;border:14px solid red;"">","null","","","","","","","","","",""
"","image-keyboard-response","305","214690","0.0-305.0","3JWH6J9I9TZFJACSX135KLH72JWNBI","A3L2VS3998R77L","3Z3R5YC0P3915KVY8X6BNRIWYOFFTN","","423.10000014305115","img/land5.png","75","423.69999980926514","2","0","1","2","0.8,0.2,0.2,0.2,0.8,0.2,0.2,0.2,0.8","0.2,0.8,0.2,0.2,0.2,0.8,0.8,0.2,0.2","3","",""
"","html-keyboard-response","306","214991","0.0-306.0","3JWH6J9I9TZFJACSX135KLH72JWNBI","A3L2VS3998R77L","3Z3R5YC0P3915KVY8X6BNRIWYOFFTN","","null","<img src=""img/land5.png"" style=""width:200px;border:14px solid red;"">","null","","","","","","","","","",""
"","image-keyboard-response","307","215875","0.0-307.0","3JWH6J9I9TZFJACSX135KLH72JWNBI","A3L2VS3998R77L","3Z3R5YC0P3915KVY8X6BNRIWYOFFTN","","883.0999999046326","img/land6.png","76","883.5","3","1","2","2","0.8,0.2,0.2,0.2,0.8,0.2,0.2,0.2,0.8","0.2,0.8,0.2,0.2,0.2,0.8,0.8,0.2,0.2","3","",""
"","html-keyboard-response","308","216177","0.0-308.0","3JWH6J9I9TZFJACSX135KLH72JWNBI","A3L2VS3998R77L","3Z3R5YC0P3915KVY8X6BNRIWYOFFTN","","null","<img src=""img/land6.png"" style=""width:200px; border:14px solid green;"">","null","","","","","","","","","",""
"","image-keyboard-response","309","216805","0.0-309.0","3JWH6J9I9TZFJACSX135KLH72JWNBI","A3L2VS3998R77L","3Z3R5YC0P3915KVY8X6BNRIWYOFFTN","","628","img/land5.png","75","628.5","2","1","1","2","0.8,0.2,0.2,0.2,0.8,0.2,0.2,0.2,0.8","0.2,0.8,0.2,0.2,0.2,0.8,0.8,0.2,0.2","3","",""
"","html-keyboard-response","310","217106","0.0-310.0","3JWH6J9I9TZFJACSX135KLH72JWNBI","A3L2VS3998R77L","3Z3R5YC0P3915KVY8X6BNRIWYOFFTN","","null","<img src=""img/land5.png"" style=""width:200px; border:14px solid green;"">","null","","","","","","","","","",""
"","image-keyboard-response","311","218086","0.0-311.0","3JWH6J9I9TZFJACSX135KLH72JWNBI","A3L2VS3998R77L","3Z3R5YC0P3915KVY8X6BNRIWYOFFTN","","978.9000000953674","img/land5.png","75","979.4000000953674","2","1","1","2","0.8,0.2,0.2,0.2,0.8,0.2,0.2,0.2,0.8","0.2,0.8,0.2,0.2,0.2,0.8,0.8,0.2,0.2","3","",""
"","html-keyboard-response","312","218388","0.0-312.0","3JWH6J9I9TZFJACSX135KLH72JWNBI","A3L2VS3998R77L","3Z3R5YC0P3915KVY8X6BNRIWYOFFTN","","null","<img src=""img/land5.png"" style=""width:200px; border:14px solid green;"">","null","","","","","","","","","",""
"","image-keyboard-response","313","218993","0.0-313.0","3JWH6J9I9TZFJACSX135KLH72JWNBI","A3L2VS3998R77L","3Z3R5YC0P3915KVY8X6BNRIWYOFFTN","","604.5","img/land5.png","75","604.7999999523163","2","0","1","2","0.8,0.2,0.2,0.2,0.8,0.2,0.2,0.2,0.8","0.2,0.8,0.2,0.2,0.2,0.8,0.8,0.2,0.2","3","",""
"","html-keyboard-response","314","219294","0.0-314.0","3JWH6J9I9TZFJACSX135KLH72JWNBI","A3L2VS3998R77L","3Z3R5YC0P3915KVY8X6BNRIWYOFFTN","","null","<img src=""img/land5.png"" style=""width:200px;border:14px solid red;"">","null","","","","","","","","","",""
"","image-keyboard-response","315","219900","0.0-315.0","3JWH6J9I9TZFJACSX135KLH72JWNBI","A3L2VS3998R77L","3Z3R5YC0P3915KVY8X6BNRIWYOFFTN","","605.7999999523163","img/land1.png","76","606.1999998092651","3","0","3","2","0.8,0.2,0.2,0.2,0.8,0.2,0.2,0.2,0.8","0.2,0.8,0.2,0.2,0.2,0.8,0.8,0.2,0.2","3","",""
"","html-keyboard-response","316","220201","0.0-316.0","3JWH6J9I9TZFJACSX135KLH72JWNBI","A3L2VS3998R77L","3Z3R5YC0P3915KVY8X6BNRIWYOFFTN","","null","<img src=""img/land1.png"" style=""width:200px;border:14px solid red;"">","null","","","","","","","","","",""
"","image-keyboard-response","317","220570","0.0-317.0","3JWH6J9I9TZFJACSX135KLH72JWNBI","A3L2VS3998R77L","3Z3R5YC0P3915KVY8X6BNRIWYOFFTN","","368.39999985694885","img/land5.png","74","368.90000009536743","1","0","1","2","0.8,0.2,0.2,0.2,0.8,0.2,0.2,0.2,0.8","0.2,0.8,0.2,0.2,0.2,0.8,0.8,0.2,0.2","3","",""
"","html-keyboard-response","318","220871","0.0-318.0","3JWH6J9I9TZFJACSX135KLH72JWNBI","A3L2VS3998R77L","3Z3R5YC0P3915KVY8X6BNRIWYOFFTN","","null","<img src=""img/land5.png"" style=""width:200px;border:14px solid red;"">","null","","","","","","","","","",""
"","image-keyboard-response","319","221405","0.0-319.0","3JWH6J9I9TZFJACSX135KLH72JWNBI","A3L2VS3998R77L","3Z3R5YC0P3915KVY8X6BNRIWYOFFTN","","532.5","img/land5.png","75","533.0999999046326","2","1","1","2","0.8,0.2,0.2,0.2,0.8,0.2,0.2,0.2,0.8","0.2,0.8,0.2,0.2,0.2,0.8,0.8,0.2,0.2","3","",""
"","html-keyboard-response","320","221706","0.0-320.0","3JWH6J9I9TZFJACSX135KLH72JWNBI","A3L2VS3998R77L","3Z3R5YC0P3915KVY8X6BNRIWYOFFTN","","null","<img src=""img/land5.png"" style=""width:200px; border:14px solid green;"">","null","","","","","","","","","",""
"","image-keyboard-response","321","222115","0.0-321.0","3JWH6J9I9TZFJACSX135KLH72JWNBI","A3L2VS3998R77L","3Z3R5YC0P3915KVY8X6BNRIWYOFFTN","","407.7999999523163","img/land5.png","75","408.5","2","1","1","2","0.8,0.2,0.2,0.2,0.8,0.2,0.2,0.2,0.8","0.2,0.8,0.2,0.2,0.2,0.8,0.8,0.2,0.2","3","",""
"","html-keyboard-response","322","222417","0.0-322.0","3JWH6J9I9TZFJACSX135KLH72JWNBI","A3L2VS3998R77L","3Z3R5YC0P3915KVY8X6BNRIWYOFFTN","","null","<img src=""img/land5.png"" style=""width:200px; border:14px solid green;"">","null","","","","","","","","","",""
"","image-keyboard-response","323","222890","0.0-323.0","3JWH6J9I9TZFJACSX135KLH72JWNBI","A3L2VS3998R77L","3Z3R5YC0P3915KVY8X6BNRIWYOFFTN","","472.7000000476837","img/land5.png","75","473.2999999523163","2","1","1","2","0.8,0.2,0.2,0.2,0.8,0.2,0.2,0.2,0.8","0.2,0.8,0.2,0.2,0.2,0.8,0.8,0.2,0.2","3","",""
"","html-keyboard-response","324","223199","0.0-324.0","3JWH6J9I9TZFJACSX135KLH72JWNBI","A3L2VS3998R77L","3Z3R5YC0P3915KVY8X6BNRIWYOFFTN","","null","<img src=""img/land5.png"" style=""width:200px; border:14px solid green;"">","null","","","","","","","","","",""
"","image-keyboard-response","325","223807","0.0-325.0","3JWH6J9I9TZFJACSX135KLH72JWNBI","A3L2VS3998R77L","3Z3R5YC0P3915KVY8X6BNRIWYOFFTN","","607.2999999523163","img/land1.png","76","607.6999998092651","3","0","3","2","0.8,0.2,0.2,0.2,0.8,0.2,0.2,0.2,0.8","0.2,0.8,0.2,0.2,0.2,0.8,0.8,0.2,0.2","3","",""
"","html-keyboard-response","326","224107","0.0-326.0","3JWH6J9I9TZFJACSX135KLH72JWNBI","A3L2VS3998R77L","3Z3R5YC0P3915KVY8X6BNRIWYOFFTN","","null","<img src=""img/land1.png"" style=""width:200px;border:14px solid red;"">","null","","","","","","","","","",""
"","image-keyboard-response","327","224508","0.0-327.0","3JWH6J9I9TZFJACSX135KLH72JWNBI","A3L2VS3998R77L","3Z3R5YC0P3915KVY8X6BNRIWYOFFTN","","400","img/land5.png","74","400.69999980926514","1","0","1","2","0.8,0.2,0.2,0.2,0.8,0.2,0.2,0.2,0.8","0.2,0.8,0.2,0.2,0.2,0.8,0.8,0.2,0.2","3","",""
"","html-keyboard-response","328","224810","0.0-328.0","3JWH6J9I9TZFJACSX135KLH72JWNBI","A3L2VS3998R77L","3Z3R5YC0P3915KVY8X6BNRIWYOFFTN","","null","<img src=""img/land5.png"" style=""width:200px;border:14px solid red;"">","null","","","","","","","","","",""
"","image-keyboard-response","329","225270","0.0-329.0","3JWH6J9I9TZFJACSX135KLH72JWNBI","A3L2VS3998R77L","3Z3R5YC0P3915KVY8X6BNRIWYOFFTN","","459.30000019073486","img/land1.png","74","459.7999999523163","1","0","3","2","0.8,0.2,0.2,0.2,0.8,0.2,0.2,0.2,0.8","0.2,0.8,0.2,0.2,0.2,0.8,0.8,0.2,0.2","3","",""
"","html-keyboard-response","330","225571","0.0-330.0","3JWH6J9I9TZFJACSX135KLH72JWNBI","A3L2VS3998R77L","3Z3R5YC0P3915KVY8X6BNRIWYOFFTN","","null","<img src=""img/land1.png"" style=""width:200px;border:14px solid red;"">","null","","","","","","","","","",""
"","image-keyboard-response","331","226031","0.0-331.0","3JWH6J9I9TZFJACSX135KLH72JWNBI","A3L2VS3998R77L","3Z3R5YC0P3915KVY8X6BNRIWYOFFTN","","459.7999999523163","img/land5.png","74","460.40000009536743","1","0","1","2","0.8,0.2,0.2,0.2,0.8,0.2,0.2,0.2,0.8","0.2,0.8,0.2,0.2,0.2,0.8,0.8,0.2,0.2","3","",""
"","html-keyboard-response","332","226332","0.0-332.0","3JWH6J9I9TZFJACSX135KLH72JWNBI","A3L2VS3998R77L","3Z3R5YC0P3915KVY8X6BNRIWYOFFTN","","null","<img src=""img/land5.png"" style=""width:200px;border:14px solid red;"">","null","","","","","","","","","",""
"","image-keyboard-response","333","226733","0.0-333.0","3JWH6J9I9TZFJACSX135KLH72JWNBI","A3L2VS3998R77L","3Z3R5YC0P3915KVY8X6BNRIWYOFFTN","","400.30000019073486","img/land5.png","74","400.89999985694885","1","1","1","2","0.8,0.2,0.2,0.2,0.8,0.2,0.2,0.2,0.8","0.2,0.8,0.2,0.2,0.2,0.8,0.8,0.2,0.2","3","",""
"","html-keyboard-response","334","227034","0.0-334.0","3JWH6J9I9TZFJACSX135KLH72JWNBI","A3L2VS3998R77L","3Z3R5YC0P3915KVY8X6BNRIWYOFFTN","","null","<img src=""img/land5.png"" style=""width:200px; border:14px solid green;"">","null","","","","","","","","","",""
"","image-keyboard-response","335","227722","0.0-335.0","3JWH6J9I9TZFJACSX135KLH72JWNBI","A3L2VS3998R77L","3Z3R5YC0P3915KVY8X6BNRIWYOFFTN","","687.1000001430511","img/land6.png","74","687.5","1","0","2","2","0.8,0.2,0.2,0.2,0.8,0.2,0.2,0.2,0.8","0.2,0.8,0.2,0.2,0.2,0.8,0.8,0.2,0.2","3","",""
"","html-keyboard-response","336","228031","0.0-336.0","3JWH6J9I9TZFJACSX135KLH72JWNBI","A3L2VS3998R77L","3Z3R5YC0P3915KVY8X6BNRIWYOFFTN","","null","<img src=""img/land6.png"" style=""width:200px;border:14px solid red;"">","null","","","","","","","","","",""
"","image-keyboard-response","337","228460","0.0-337.0","3JWH6J9I9TZFJACSX135KLH72JWNBI","A3L2VS3998R77L","3Z3R5YC0P3915KVY8X6BNRIWYOFFTN","","428.2000000476837","img/land5.png","75","428.59999990463257","2","0","1","2","0.8,0.2,0.2,0.2,0.8,0.2,0.2,0.2,0.8","0.2,0.8,0.2,0.2,0.2,0.8,0.8,0.2,0.2","3","",""
"","html-keyboard-response","338","228761","0.0-338.0","3JWH6J9I9TZFJACSX135KLH72JWNBI","A3L2VS3998R77L","3Z3R5YC0P3915KVY8X6BNRIWYOFFTN","","null","<img src=""img/land5.png"" style=""width:200px;border:14px solid red;"">","null","","","","","","","","","",""
"","image-keyboard-response","339","229299","0.0-339.0","3JWH6J9I9TZFJACSX135KLH72JWNBI","A3L2VS3998R77L","3Z3R5YC0P3915KVY8X6BNRIWYOFFTN","","537.3000001907349","img/land5.png","76","538","3","0","1","2","0.8,0.2,0.2,0.2,0.8,0.2,0.2,0.2,0.8","0.2,0.8,0.2,0.2,0.2,0.8,0.8,0.2,0.2","3","",""
"","html-keyboard-response","340","229600","0.0-340.0","3JWH6J9I9TZFJACSX135KLH72JWNBI","A3L2VS3998R77L","3Z3R5YC0P3915KVY8X6BNRIWYOFFTN","","null","<img src=""img/land5.png"" style=""width:200px;border:14px solid red;"">","null","","","","","","","","","",""
"","image-keyboard-response","341","230028","0.0-341.0","3JWH6J9I9TZFJACSX135KLH72JWNBI","A3L2VS3998R77L","3Z3R5YC0P3915KVY8X6BNRIWYOFFTN","","426.90000009536743","img/land6.png","75","427.39999985694885","2","1","2","2","0.8,0.2,0.2,0.2,0.8,0.2,0.2,0.2,0.8","0.2,0.8,0.2,0.2,0.2,0.8,0.8,0.2,0.2","3","",""
"","html-keyboard-response","342","230330","0.0-342.0","3JWH6J9I9TZFJACSX135KLH72JWNBI","A3L2VS3998R77L","3Z3R5YC0P3915KVY8X6BNRIWYOFFTN","","null","<img src=""img/land6.png"" style=""width:200px; border:14px solid green;"">","null","","","","","","","","","",""
"","image-keyboard-response","343","230803","0.0-343.0","3JWH6J9I9TZFJACSX135KLH72JWNBI","A3L2VS3998R77L","3Z3R5YC0P3915KVY8X6BNRIWYOFFTN","","472.60000014305115","img/land5.png","75","473.2000000476837","2","1","1","2","0.8,0.2,0.2,0.2,0.8,0.2,0.2,0.2,0.8","0.2,0.8,0.2,0.2,0.2,0.8,0.8,0.2,0.2","3","",""
"","html-keyboard-response","344","231104","0.0-344.0","3JWH6J9I9TZFJACSX135KLH72JWNBI","A3L2VS3998R77L","3Z3R5YC0P3915KVY8X6BNRIWYOFFTN","","null","<img src=""img/land5.png"" style=""width:200px; border:14px solid green;"">","null","","","","","","","","","",""
"","image-keyboard-response","345","231564","0.0-345.0","3JWH6J9I9TZFJACSX135KLH72JWNBI","A3L2VS3998R77L","3Z3R5YC0P3915KVY8X6BNRIWYOFFTN","","459.60000014305115","img/land5.png","74","460.09999990463257","1","1","1","2","0.8,0.2,0.2,0.2,0.8,0.2,0.2,0.2,0.8","0.2,0.8,0.2,0.2,0.2,0.8,0.8,0.2,0.2","3","",""
"","html-keyboard-response","346","231865","0.0-346.0","3JWH6J9I9TZFJACSX135KLH72JWNBI","A3L2VS3998R77L","3Z3R5YC0P3915KVY8X6BNRIWYOFFTN","","null","<img src=""img/land5.png"" style=""width:200px; border:14px solid green;"">","null","","","","","","","","","",""
"","image-keyboard-response","347","232480","0.0-347.0","3JWH6J9I9TZFJACSX135KLH72JWNBI","A3L2VS3998R77L","3Z3R5YC0P3915KVY8X6BNRIWYOFFTN","","614.5999999046326","img/land5.png","75","615.0999999046326","2","0","1","2","0.8,0.2,0.2,0.2,0.8,0.2,0.2,0.2,0.8","0.2,0.8,0.2,0.2,0.2,0.8,0.8,0.2,0.2","3","",""
"","html-keyboard-response","348","232782","0.0-348.0","3JWH6J9I9TZFJACSX135KLH72JWNBI","A3L2VS3998R77L","3Z3R5YC0P3915KVY8X6BNRIWYOFFTN","","null","<img src=""img/land5.png"" style=""width:200px;border:14px solid red;"">","null","","","","","","","","","",""
"","image-keyboard-response","349","233164","0.0-349.0","3JWH6J9I9TZFJACSX135KLH72JWNBI","A3L2VS3998R77L","3Z3R5YC0P3915KVY8X6BNRIWYOFFTN","","381","img/land5.png","74","381.40000009536743","1","0","1","2","0.8,0.2,0.2,0.2,0.8,0.2,0.2,0.2,0.8","0.2,0.8,0.2,0.2,0.2,0.8,0.8,0.2,0.2","3","",""
"","html-keyboard-response","350","233465","0.0-350.0","3JWH6J9I9TZFJACSX135KLH72JWNBI","A3L2VS3998R77L","3Z3R5YC0P3915KVY8X6BNRIWYOFFTN","","null","<img src=""img/land5.png"" style=""width:200px;border:14px solid red;"">","null","","","","","","","","","",""
"","image-keyboard-response","351","233940","0.0-351.0","3JWH6J9I9TZFJACSX135KLH72JWNBI","A3L2VS3998R77L","3Z3R5YC0P3915KVY8X6BNRIWYOFFTN","","474.39999985694885","img/land6.png","76","474.90000009536743","3","1","2","2","0.8,0.2,0.2,0.2,0.8,0.2,0.2,0.2,0.8","0.2,0.8,0.2,0.2,0.2,0.8,0.8,0.2,0.2","3","",""
"","html-keyboard-response","352","234241","0.0-352.0","3JWH6J9I9TZFJACSX135KLH72JWNBI","A3L2VS3998R77L","3Z3R5YC0P3915KVY8X6BNRIWYOFFTN","","null","<img src=""img/land6.png"" style=""width:200px; border:14px solid green;"">","null","","","","","","","","","",""
"","image-keyboard-response","353","234898","0.0-353.0","3JWH6J9I9TZFJACSX135KLH72JWNBI","A3L2VS3998R77L","3Z3R5YC0P3915KVY8X6BNRIWYOFFTN","","656.2000000476837","img/land5.png","76","656.7000000476837","3","0","1","2","0.8,0.2,0.2,0.2,0.8,0.2,0.2,0.2,0.8","0.2,0.8,0.2,0.2,0.2,0.8,0.8,0.2,0.2","3","",""
"","html-keyboard-response","354","235199","0.0-354.0","3JWH6J9I9TZFJACSX135KLH72JWNBI","A3L2VS3998R77L","3Z3R5YC0P3915KVY8X6BNRIWYOFFTN","","null","<img src=""img/land5.png"" style=""width:200px;border:14px solid red;"">","null","","","","","","","","","",""
