"success","trial_type","trial_index","time_elapsed","internal_node_id","assignmentID","mturkID","hitID","view_history","rt","stimulus","key_press","reactionTime","a","r","s","cond","reward_cond","reward_cond_actual","reward_matrix_idx","responses","question_order"
"true","fullscreen","0","2692","0.0-0.0","3RYC5T2D74F2225U9D2NOPR6KR9PRG","A3LIRS1WMRIP9P","36U4VBVNQOZD8NFWZXWF9CIHKRIURB","","","","","","","","","","","","","",""
"","instructions","1","12791","0.0-1.0","3RYC5T2D74F2225U9D2NOPR6KR9PRG","A3LIRS1WMRIP9P","36U4VBVNQOZD8NFWZXWF9CIHKRIURB","[{""page_index"":0,""viewing_time"":1516},{""page_index"":1,""viewing_time"":2590},{""page_index"":2,""viewing_time"":910},{""page_index"":3,""viewing_time"":1320},{""page_index"":4,""viewing_time"":1310},{""page_index"":5,""viewing_time"":1270},{""page_index"":6,""viewing_time"":1180}]","10096","","","","","","","","","","","",""
"","image-keyboard-response","2","14511","0.0-2.0","3RYC5T2D74F2225U9D2NOPR6KR9PRG","A3LIRS1WMRIP9P","36U4VBVNQOZD8NFWZXWF9CIHKRIURB","","1719","img/land4.png","74","1719","1","0","1","2","0.8,0.2,0.2,0.2,0.8,0.2,0.2,0.2,0.8","0.2,0.8,0.2,0.2,0.2,0.8,0.8,0.2,0.2","3","",""
"","html-keyboard-response","3","14813","0.0-3.0","3RYC5T2D74F2225U9D2NOPR6KR9PRG","A3LIRS1WMRIP9P","36U4VBVNQOZD8NFWZXWF9CIHKRIURB","","null","<img src=""img/land4.png"" style=""width:200px;border:14px solid red;"">","null","","","","","","","","","",""
"","image-keyboard-response","4","14836","0.0-4.0","3RYC5T2D74F2225U9D2NOPR6KR9PRG","A3LIRS1WMRIP9P","36U4VBVNQOZD8NFWZXWF9CIHKRIURB","","22","img/land2.png","74","22","1","1","3","2","0.8,0.2,0.2,0.2,0.8,0.2,0.2,0.2,0.8","0.2,0.8,0.2,0.2,0.2,0.8,0.8,0.2,0.2","3","",""
"","html-keyboard-response","5","15138","0.0-5.0","3RYC5T2D74F2225U9D2NOPR6KR9PRG","A3LIRS1WMRIP9P","36U4VBVNQOZD8NFWZXWF9CIHKRIURB","","null","<img src=""img/land2.png"" style=""width:200px; border:14px solid green;"">","null","","","","","","","","","",""
"","image-keyboard-response","6","15150","0.0-6.0","3RYC5T2D74F2225U9D2NOPR6KR9PRG","A3LIRS1WMRIP9P","36U4VBVNQOZD8NFWZXWF9CIHKRIURB","","11","img/land4.png","74","12","1","0","1","2","0.8,0.2,0.2,0.2,0.8,0.2,0.2,0.2,0.8","0.2,0.8,0.2,0.2,0.2,0.8,0.8,0.2,0.2","3","",""
"","html-keyboard-response","7","15451","0.0-7.0","3RYC5T2D74F2225U9D2NOPR6KR9PRG","A3LIRS1WMRIP9P","36U4VBVNQOZD8NFWZXWF9CIHKRIURB","","null","<img src=""img/land4.png"" style=""width:200px;border:14px solid red;"">","null","","","","","","","","","",""
"","image-keyboard-response","8","15460","0.0-8.0","3RYC5T2D74F2225U9D2NOPR6KR9PRG","A3LIRS1WMRIP9P","36U4VBVNQOZD8NFWZXWF9CIHKRIURB","","8","img/land4.png","76","9","3","0","1","2","0.8,0.2,0.2,0.2,0.8,0.2,0.2,0.2,0.8","0.2,0.8,0.2,0.2,0.2,0.8,0.8,0.2,0.2","3","",""
"","html-keyboard-response","9","15762","0.0-9.0","3RYC5T2D74F2225U9D2NOPR6KR9PRG","A3LIRS1WMRIP9P","36U4VBVNQOZD8NFWZXWF9CIHKRIURB","","null","<img src=""img/land4.png"" style=""width:200px;border:14px solid red;"">","null","","","","","","","","","",""
"","image-keyboard-response","10","15835","0.0-10.0","3RYC5T2D74F2225U9D2NOPR6KR9PRG","A3LIRS1WMRIP9P","36U4VBVNQOZD8NFWZXWF9CIHKRIURB","","72","img/land4.png","74","74","1","0","1","2","0.8,0.2,0.2,0.2,0.8,0.2,0.2,0.2,0.8","0.2,0.8,0.2,0.2,0.2,0.8,0.8,0.2,0.2","3","",""
"","html-keyboard-response","11","16137","0.0-11.0","3RYC5T2D74F2225U9D2NOPR6KR9PRG","A3LIRS1WMRIP9P","36U4VBVNQOZD8NFWZXWF9CIHKRIURB","","null","<img src=""img/land4.png"" style=""width:200px;border:14px solid red;"">","null","","","","","","","","","",""
"","image-keyboard-response","12","16250","0.0-12.0","3RYC5T2D74F2225U9D2NOPR6KR9PRG","A3LIRS1WMRIP9P","36U4VBVNQOZD8NFWZXWF9CIHKRIURB","","112","img/land4.png","74","113","1","1","1","2","0.8,0.2,0.2,0.2,0.8,0.2,0.2,0.2,0.8","0.2,0.8,0.2,0.2,0.2,0.8,0.8,0.2,0.2","3","",""
"","html-keyboard-response","13","16551","0.0-13.0","3RYC5T2D74F2225U9D2NOPR6KR9PRG","A3LIRS1WMRIP9P","36U4VBVNQOZD8NFWZXWF9CIHKRIURB","","null","<img src=""img/land4.png"" style=""width:200px; border:14px solid green;"">","null","","","","","","","","","",""
"","image-keyboard-response","14","16642","0.0-14.0","3RYC5T2D74F2225U9D2NOPR6KR9PRG","A3LIRS1WMRIP9P","36U4VBVNQOZD8NFWZXWF9CIHKRIURB","","90","img/land4.png","74","91","1","0","1","2","0.8,0.2,0.2,0.2,0.8,0.2,0.2,0.2,0.8","0.2,0.8,0.2,0.2,0.2,0.8,0.8,0.2,0.2","3","",""
"","html-keyboard-response","15","16943","0.0-15.0","3RYC5T2D74F2225U9D2NOPR6KR9PRG","A3LIRS1WMRIP9P","36U4VBVNQOZD8NFWZXWF9CIHKRIURB","","null","<img src=""img/land4.png"" style=""width:200px;border:14px solid red;"">","null","","","","","","","","","",""
"","image-keyboard-response","16","17010","0.0-16.0","3RYC5T2D74F2225U9D2NOPR6KR9PRG","A3LIRS1WMRIP9P","36U4VBVNQOZD8NFWZXWF9CIHKRIURB","","66","img/land6.png","74","67","1","0","2","2","0.8,0.2,0.2,0.2,0.8,0.2,0.2,0.2,0.8","0.2,0.8,0.2,0.2,0.2,0.8,0.8,0.2,0.2","3","",""
"","html-keyboard-response","17","17311","0.0-17.0","3RYC5T2D74F2225U9D2NOPR6KR9PRG","A3LIRS1WMRIP9P","36U4VBVNQOZD8NFWZXWF9CIHKRIURB","","null","<img src=""img/land6.png"" style=""width:200px;border:14px solid red;"">","null","","","","","","","","","",""
"","image-keyboard-response","18","17431","0.0-18.0","3RYC5T2D74F2225U9D2NOPR6KR9PRG","A3LIRS1WMRIP9P","36U4VBVNQOZD8NFWZXWF9CIHKRIURB","","118","img/land6.png","74","120","1","0","2","2","0.8,0.2,0.2,0.2,0.8,0.2,0.2,0.2,0.8","0.2,0.8,0.2,0.2,0.2,0.8,0.8,0.2,0.2","3","",""
"","html-keyboard-response","19","17731","0.0-19.0","3RYC5T2D74F2225U9D2NOPR6KR9PRG","A3LIRS1WMRIP9P","36U4VBVNQOZD8NFWZXWF9CIHKRIURB","","null","<img src=""img/land6.png"" style=""width:200px;border:14px solid red;"">","null","","","","","","","","","",""
"","image-keyboard-response","20","17750","0.0-20.0","3RYC5T2D74F2225U9D2NOPR6KR9PRG","A3LIRS1WMRIP9P","36U4VBVNQOZD8NFWZXWF9CIHKRIURB","","18","img/land2.png","74","20","1","0","3","2","0.8,0.2,0.2,0.2,0.8,0.2,0.2,0.2,0.8","0.2,0.8,0.2,0.2,0.2,0.8,0.8,0.2,0.2","3","",""
"","html-keyboard-response","21","18051","0.0-21.0","3RYC5T2D74F2225U9D2NOPR6KR9PRG","A3LIRS1WMRIP9P","36U4VBVNQOZD8NFWZXWF9CIHKRIURB","","null","<img src=""img/land2.png"" style=""width:200px;border:14px solid red;"">","null","","","","","","","","","",""
"","image-keyboard-response","22","18151","0.0-22.0","3RYC5T2D74F2225U9D2NOPR6KR9PRG","A3LIRS1WMRIP9P","36U4VBVNQOZD8NFWZXWF9CIHKRIURB","","99","img/land4.png","74","100","1","1","1","2","0.8,0.2,0.2,0.2,0.8,0.2,0.2,0.2,0.8","0.2,0.8,0.2,0.2,0.2,0.8,0.8,0.2,0.2","3","",""
"","html-keyboard-response","23","18452","0.0-23.0","3RYC5T2D74F2225U9D2NOPR6KR9PRG","A3LIRS1WMRIP9P","36U4VBVNQOZD8NFWZXWF9CIHKRIURB","","null","<img src=""img/land4.png"" style=""width:200px; border:14px solid green;"">","null","","","","","","","","","",""
"","image-keyboard-response","24","18550","0.0-24.0","3RYC5T2D74F2225U9D2NOPR6KR9PRG","A3LIRS1WMRIP9P","36U4VBVNQOZD8NFWZXWF9CIHKRIURB","","97","img/land2.png","74","98","1","1","3","2","0.8,0.2,0.2,0.2,0.8,0.2,0.2,0.2,0.8","0.2,0.8,0.2,0.2,0.2,0.8,0.8,0.2,0.2","3","",""
"","html-keyboard-response","25","18851","0.0-25.0","3RYC5T2D74F2225U9D2NOPR6KR9PRG","A3LIRS1WMRIP9P","36U4VBVNQOZD8NFWZXWF9CIHKRIURB","","null","<img src=""img/land2.png"" style=""width:200px; border:14px solid green;"">","null","","","","","","","","","",""
"","image-keyboard-response","26","18920","0.0-26.0","3RYC5T2D74F2225U9D2NOPR6KR9PRG","A3LIRS1WMRIP9P","36U4VBVNQOZD8NFWZXWF9CIHKRIURB","","69","img/land6.png","74","69","1","0","2","2","0.8,0.2,0.2,0.2,0.8,0.2,0.2,0.2,0.8","0.2,0.8,0.2,0.2,0.2,0.8,0.8,0.2,0.2","3","",""
"","html-keyboard-response","27","19303","0.0-27.0","3RYC5T2D74F2225U9D2NOPR6KR9PRG","A3LIRS1WMRIP9P","36U4VBVNQOZD8NFWZXWF9CIHKRIURB","","null","<img src=""img/land6.png"" style=""width:200px;border:14px solid red;"">","null","","","","","","","","","",""
"","image-keyboard-response","28","19331","0.0-28.0","3RYC5T2D74F2225U9D2NOPR6KR9PRG","A3LIRS1WMRIP9P","36U4VBVNQOZD8NFWZXWF9CIHKRIURB","","24","img/land2.png","76","28","3","0","3","2","0.8,0.2,0.2,0.2,0.8,0.2,0.2,0.2,0.8","0.2,0.8,0.2,0.2,0.2,0.8,0.8,0.2,0.2","3","",""
"","html-keyboard-response","29","19632","0.0-29.0","3RYC5T2D74F2225U9D2NOPR6KR9PRG","A3LIRS1WMRIP9P","36U4VBVNQOZD8NFWZXWF9CIHKRIURB","","null","<img src=""img/land2.png"" style=""width:200px;border:14px solid red;"">","null","","","","","","","","","",""
"","image-keyboard-response","30","19640","0.0-30.0","3RYC5T2D74F2225U9D2NOPR6KR9PRG","A3LIRS1WMRIP9P","36U4VBVNQOZD8NFWZXWF9CIHKRIURB","","8","img/land6.png","76","8","3","0","2","2","0.8,0.2,0.2,0.2,0.8,0.2,0.2,0.2,0.8","0.2,0.8,0.2,0.2,0.2,0.8,0.8,0.2,0.2","3","",""
"","html-keyboard-response","31","19942","0.0-31.0","3RYC5T2D74F2225U9D2NOPR6KR9PRG","A3LIRS1WMRIP9P","36U4VBVNQOZD8NFWZXWF9CIHKRIURB","","null","<img src=""img/land6.png"" style=""width:200px;border:14px solid red;"">","null","","","","","","","","","",""
"","image-keyboard-response","32","20010","0.0-32.0","3RYC5T2D74F2225U9D2NOPR6KR9PRG","A3LIRS1WMRIP9P","36U4VBVNQOZD8NFWZXWF9CIHKRIURB","","68","img/land4.png","74","68","1","0","1","2","0.8,0.2,0.2,0.2,0.8,0.2,0.2,0.2,0.8","0.2,0.8,0.2,0.2,0.2,0.8,0.8,0.2,0.2","3","",""
"","html-keyboard-response","33","20311","0.0-33.0","3RYC5T2D74F2225U9D2NOPR6KR9PRG","A3LIRS1WMRIP9P","36U4VBVNQOZD8NFWZXWF9CIHKRIURB","","null","<img src=""img/land4.png"" style=""width:200px;border:14px solid red;"">","null","","","","","","","","","",""
"","image-keyboard-response","34","20446","0.0-34.0","3RYC5T2D74F2225U9D2NOPR6KR9PRG","A3LIRS1WMRIP9P","36U4VBVNQOZD8NFWZXWF9CIHKRIURB","","135","img/land6.png","74","135","1","0","2","2","0.8,0.2,0.2,0.2,0.8,0.2,0.2,0.2,0.8","0.2,0.8,0.2,0.2,0.2,0.8,0.8,0.2,0.2","3","",""
"","html-keyboard-response","35","20747","0.0-35.0","3RYC5T2D74F2225U9D2NOPR6KR9PRG","A3LIRS1WMRIP9P","36U4VBVNQOZD8NFWZXWF9CIHKRIURB","","null","<img src=""img/land6.png"" style=""width:200px;border:14px solid red;"">","null","","","","","","","","","",""
"","image-keyboard-response","36","20861","0.0-36.0","3RYC5T2D74F2225U9D2NOPR6KR9PRG","A3LIRS1WMRIP9P","36U4VBVNQOZD8NFWZXWF9CIHKRIURB","","114","img/land4.png","74","114","1","0","1","2","0.8,0.2,0.2,0.2,0.8,0.2,0.2,0.2,0.8","0.2,0.8,0.2,0.2,0.2,0.8,0.8,0.2,0.2","3","",""
"","html-keyboard-response","37","21162","0.0-37.0","3RYC5T2D74F2225U9D2NOPR6KR9PRG","A3LIRS1WMRIP9P","36U4VBVNQOZD8NFWZXWF9CIHKRIURB","","null","<img src=""img/land4.png"" style=""width:200px;border:14px solid red;"">","null","","","","","","","","","",""
"","image-keyboard-response","38","21170","0.0-38.0","3RYC5T2D74F2225U9D2NOPR6KR9PRG","A3LIRS1WMRIP9P","36U4VBVNQOZD8NFWZXWF9CIHKRIURB","","8","img/land2.png","76","8","3","0","3","2","0.8,0.2,0.2,0.2,0.8,0.2,0.2,0.2,0.8","0.2,0.8,0.2,0.2,0.2,0.8,0.8,0.2,0.2","3","",""
"","html-keyboard-response","39","21471","0.0-39.0","3RYC5T2D74F2225U9D2NOPR6KR9PRG","A3LIRS1WMRIP9P","36U4VBVNQOZD8NFWZXWF9CIHKRIURB","","null","<img src=""img/land2.png"" style=""width:200px;border:14px solid red;"">","null","","","","","","","","","",""
"","image-keyboard-response","40","21596","0.0-40.0","3RYC5T2D74F2225U9D2NOPR6KR9PRG","A3LIRS1WMRIP9P","36U4VBVNQOZD8NFWZXWF9CIHKRIURB","","123","img/land2.png","74","125","1","0","3","2","0.8,0.2,0.2,0.2,0.8,0.2,0.2,0.2,0.8","0.2,0.8,0.2,0.2,0.2,0.8,0.8,0.2,0.2","3","",""
"","html-keyboard-response","41","21897","0.0-41.0","3RYC5T2D74F2225U9D2NOPR6KR9PRG","A3LIRS1WMRIP9P","36U4VBVNQOZD8NFWZXWF9CIHKRIURB","","null","<img src=""img/land2.png"" style=""width:200px;border:14px solid red;"">","null","","","","","","","","","",""
"","image-keyboard-response","42","21910","0.0-42.0","3RYC5T2D74F2225U9D2NOPR6KR9PRG","A3LIRS1WMRIP9P","36U4VBVNQOZD8NFWZXWF9CIHKRIURB","","13","img/land4.png","75","13","2","1","1","2","0.8,0.2,0.2,0.2,0.8,0.2,0.2,0.2,0.8","0.2,0.8,0.2,0.2,0.2,0.8,0.8,0.2,0.2","3","",""
"","html-keyboard-response","43","22212","0.0-43.0","3RYC5T2D74F2225U9D2NOPR6KR9PRG","A3LIRS1WMRIP9P","36U4VBVNQOZD8NFWZXWF9CIHKRIURB","","null","<img src=""img/land4.png"" style=""width:200px; border:14px solid green;"">","null","","","","","","","","","",""
"","image-keyboard-response","44","22371","0.0-44.0","3RYC5T2D74F2225U9D2NOPR6KR9PRG","A3LIRS1WMRIP9P","36U4VBVNQOZD8NFWZXWF9CIHKRIURB","","159","img/land4.png","74","159","1","0","1","2","0.8,0.2,0.2,0.2,0.8,0.2,0.2,0.2,0.8","0.2,0.8,0.2,0.2,0.2,0.8,0.8,0.2,0.2","3","",""
"","html-keyboard-response","45","22672","0.0-45.0","3RYC5T2D74F2225U9D2NOPR6KR9PRG","A3LIRS1WMRIP9P","36U4VBVNQOZD8NFWZXWF9CIHKRIURB","","null","<img src=""img/land4.png"" style=""width:200px;border:14px solid red;"">","null","","","","","","","","","",""
"","image-keyboard-response","46","22831","0.0-46.0","3RYC5T2D74F2225U9D2NOPR6KR9PRG","A3LIRS1WMRIP9P","36U4VBVNQOZD8NFWZXWF9CIHKRIURB","","158","img/land4.png","74","159","1","1","1","2","0.8,0.2,0.2,0.2,0.8,0.2,0.2,0.2,0.8","0.2,0.8,0.2,0.2,0.2,0.8,0.8,0.2,0.2","3","",""
"","html-keyboard-response","47","23132","0.0-47.0","3RYC5T2D74F2225U9D2NOPR6KR9PRG","A3LIRS1WMRIP9P","36U4VBVNQOZD8NFWZXWF9CIHKRIURB","","null","<img src=""img/land4.png"" style=""width:200px; border:14px solid green;"">","null","","","","","","","","","",""
"","image-keyboard-response","48","23270","0.0-48.0","3RYC5T2D74F2225U9D2NOPR6KR9PRG","A3LIRS1WMRIP9P","36U4VBVNQOZD8NFWZXWF9CIHKRIURB","","138","img/land4.png","74","138","1","1","1","2","0.8,0.2,0.2,0.2,0.8,0.2,0.2,0.2,0.8","0.2,0.8,0.2,0.2,0.2,0.8,0.8,0.2,0.2","3","",""
"","html-keyboard-response","49","23572","0.0-49.0","3RYC5T2D74F2225U9D2NOPR6KR9PRG","A3LIRS1WMRIP9P","36U4VBVNQOZD8NFWZXWF9CIHKRIURB","","null","<img src=""img/land4.png"" style=""width:200px; border:14px solid green;"">","null","","","","","","","","","",""
"","image-keyboard-response","50","23695","0.0-50.0","3RYC5T2D74F2225U9D2NOPR6KR9PRG","A3LIRS1WMRIP9P","36U4VBVNQOZD8NFWZXWF9CIHKRIURB","","123","img/land4.png","74","124","1","0","1","2","0.8,0.2,0.2,0.2,0.8,0.2,0.2,0.2,0.8","0.2,0.8,0.2,0.2,0.2,0.8,0.8,0.2,0.2","3","",""
"","html-keyboard-response","51","23997","0.0-51.0","3RYC5T2D74F2225U9D2NOPR6KR9PRG","A3LIRS1WMRIP9P","36U4VBVNQOZD8NFWZXWF9CIHKRIURB","","null","<img src=""img/land4.png"" style=""width:200px;border:14px solid red;"">","null","","","","","","","","","",""
"","image-keyboard-response","52","24101","0.0-52.0","3RYC5T2D74F2225U9D2NOPR6KR9PRG","A3LIRS1WMRIP9P","36U4VBVNQOZD8NFWZXWF9CIHKRIURB","","104","img/land4.png","74","104","1","1","1","2","0.8,0.2,0.2,0.2,0.8,0.2,0.2,0.2,0.8","0.2,0.8,0.2,0.2,0.2,0.8,0.8,0.2,0.2","3","",""
"","html-keyboard-response","53","24402","0.0-53.0","3RYC5T2D74F2225U9D2NOPR6KR9PRG","A3LIRS1WMRIP9P","36U4VBVNQOZD8NFWZXWF9CIHKRIURB","","null","<img src=""img/land4.png"" style=""width:200px; border:14px solid green;"">","null","","","","","","","","","",""
"","image-keyboard-response","54","24411","0.0-54.0","3RYC5T2D74F2225U9D2NOPR6KR9PRG","A3LIRS1WMRIP9P","36U4VBVNQOZD8NFWZXWF9CIHKRIURB","","9","img/land2.png","76","9","3","0","3","2","0.8,0.2,0.2,0.2,0.8,0.2,0.2,0.2,0.8","0.2,0.8,0.2,0.2,0.2,0.8,0.8,0.2,0.2","3","",""
"","html-keyboard-response","55","24712","0.0-55.0","3RYC5T2D74F2225U9D2NOPR6KR9PRG","A3LIRS1WMRIP9P","36U4VBVNQOZD8NFWZXWF9CIHKRIURB","","null","<img src=""img/land2.png"" style=""width:200px;border:14px solid red;"">","null","","","","","","","","","",""
"","image-keyboard-response","56","24751","0.0-56.0","3RYC5T2D74F2225U9D2NOPR6KR9PRG","A3LIRS1WMRIP9P","36U4VBVNQOZD8NFWZXWF9CIHKRIURB","","38","img/land4.png","74","39","1","0","1","2","0.8,0.2,0.2,0.2,0.8,0.2,0.2,0.2,0.8","0.2,0.8,0.2,0.2,0.2,0.8,0.8,0.2,0.2","3","",""
"","html-keyboard-response","57","25051","0.0-57.0","3RYC5T2D74F2225U9D2NOPR6KR9PRG","A3LIRS1WMRIP9P","36U4VBVNQOZD8NFWZXWF9CIHKRIURB","","null","<img src=""img/land4.png"" style=""width:200px;border:14px solid red;"">","null","","","","","","","","","",""
"","image-keyboard-response","58","25060","0.0-58.0","3RYC5T2D74F2225U9D2NOPR6KR9PRG","A3LIRS1WMRIP9P","36U4VBVNQOZD8NFWZXWF9CIHKRIURB","","9","img/land6.png","76","9","3","1","2","2","0.8,0.2,0.2,0.2,0.8,0.2,0.2,0.2,0.8","0.2,0.8,0.2,0.2,0.2,0.8,0.8,0.2,0.2","3","",""
"","html-keyboard-response","59","25361","0.0-59.0","3RYC5T2D74F2225U9D2NOPR6KR9PRG","A3LIRS1WMRIP9P","36U4VBVNQOZD8NFWZXWF9CIHKRIURB","","null","<img src=""img/land6.png"" style=""width:200px; border:14px solid green;"">","null","","","","","","","","","",""
"","image-keyboard-response","60","25451","0.0-60.0","3RYC5T2D74F2225U9D2NOPR6KR9PRG","A3LIRS1WMRIP9P","36U4VBVNQOZD8NFWZXWF9CIHKRIURB","","89","img/land2.png","74","90","1","1","3","2","0.8,0.2,0.2,0.2,0.8,0.2,0.2,0.2,0.8","0.2,0.8,0.2,0.2,0.2,0.8,0.8,0.2,0.2","3","",""
"","html-keyboard-response","61","25753","0.0-61.0","3RYC5T2D74F2225U9D2NOPR6KR9PRG","A3LIRS1WMRIP9P","36U4VBVNQOZD8NFWZXWF9CIHKRIURB","","null","<img src=""img/land2.png"" style=""width:200px; border:14px solid green;"">","null","","","","","","","","","",""
"","image-keyboard-response","62","25861","0.0-62.0","3RYC5T2D74F2225U9D2NOPR6KR9PRG","A3LIRS1WMRIP9P","36U4VBVNQOZD8NFWZXWF9CIHKRIURB","","108","img/land4.png","74","109","1","0","1","2","0.8,0.2,0.2,0.2,0.8,0.2,0.2,0.2,0.8","0.2,0.8,0.2,0.2,0.2,0.8,0.8,0.2,0.2","3","",""
"","html-keyboard-response","63","26163","0.0-63.0","3RYC5T2D74F2225U9D2NOPR6KR9PRG","A3LIRS1WMRIP9P","36U4VBVNQOZD8NFWZXWF9CIHKRIURB","","null","<img src=""img/land4.png"" style=""width:200px;border:14px solid red;"">","null","","","","","","","","","",""
"","image-keyboard-response","64","26351","0.0-64.0","3RYC5T2D74F2225U9D2NOPR6KR9PRG","A3LIRS1WMRIP9P","36U4VBVNQOZD8NFWZXWF9CIHKRIURB","","188","img/land4.png","74","188","1","1","1","2","0.8,0.2,0.2,0.2,0.8,0.2,0.2,0.2,0.8","0.2,0.8,0.2,0.2,0.2,0.8,0.8,0.2,0.2","3","",""
"","html-keyboard-response","65","26653","0.0-65.0","3RYC5T2D74F2225U9D2NOPR6KR9PRG","A3LIRS1WMRIP9P","36U4VBVNQOZD8NFWZXWF9CIHKRIURB","","null","<img src=""img/land4.png"" style=""width:200px; border:14px solid green;"">","null","","","","","","","","","",""
"","image-keyboard-response","66","26811","0.0-66.0","3RYC5T2D74F2225U9D2NOPR6KR9PRG","A3LIRS1WMRIP9P","36U4VBVNQOZD8NFWZXWF9CIHKRIURB","","158","img/land6.png","74","158","1","0","2","2","0.8,0.2,0.2,0.2,0.8,0.2,0.2,0.2,0.8","0.2,0.8,0.2,0.2,0.2,0.8,0.8,0.2,0.2","3","",""
"","html-keyboard-response","67","27113","0.0-67.0","3RYC5T2D74F2225U9D2NOPR6KR9PRG","A3LIRS1WMRIP9P","36U4VBVNQOZD8NFWZXWF9CIHKRIURB","","null","<img src=""img/land6.png"" style=""width:200px;border:14px solid red;"">","null","","","","","","","","","",""
"","image-keyboard-response","68","27151","0.0-68.0","3RYC5T2D74F2225U9D2NOPR6KR9PRG","A3LIRS1WMRIP9P","36U4VBVNQOZD8NFWZXWF9CIHKRIURB","","37","img/land6.png","75","38","2","1","2","2","0.8,0.2,0.2,0.2,0.8,0.2,0.2,0.2,0.8","0.2,0.8,0.2,0.2,0.2,0.8,0.8,0.2,0.2","3","",""
"","html-keyboard-response","69","27453","0.0-69.0","3RYC5T2D74F2225U9D2NOPR6KR9PRG","A3LIRS1WMRIP9P","36U4VBVNQOZD8NFWZXWF9CIHKRIURB","","null","<img src=""img/land6.png"" style=""width:200px; border:14px solid green;"">","null","","","","","","","","","",""
"","image-keyboard-response","70","27572","0.0-70.0","3RYC5T2D74F2225U9D2NOPR6KR9PRG","A3LIRS1WMRIP9P","36U4VBVNQOZD8NFWZXWF9CIHKRIURB","","117","img/land2.png","74","119","1","1","3","2","0.8,0.2,0.2,0.2,0.8,0.2,0.2,0.2,0.8","0.2,0.8,0.2,0.2,0.2,0.8,0.8,0.2,0.2","3","",""
"","html-keyboard-response","71","27874","0.0-71.0","3RYC5T2D74F2225U9D2NOPR6KR9PRG","A3LIRS1WMRIP9P","36U4VBVNQOZD8NFWZXWF9CIHKRIURB","","null","<img src=""img/land2.png"" style=""width:200px; border:14px solid green;"">","null","","","","","","","","","",""
"","image-keyboard-response","72","28031","0.0-72.0","3RYC5T2D74F2225U9D2NOPR6KR9PRG","A3LIRS1WMRIP9P","36U4VBVNQOZD8NFWZXWF9CIHKRIURB","","157","img/land4.png","74","157","1","0","1","2","0.8,0.2,0.2,0.2,0.8,0.2,0.2,0.2,0.8","0.2,0.8,0.2,0.2,0.2,0.8,0.8,0.2,0.2","3","",""
"","html-keyboard-response","73","28333","0.0-73.0","3RYC5T2D74F2225U9D2NOPR6KR9PRG","A3LIRS1WMRIP9P","36U4VBVNQOZD8NFWZXWF9CIHKRIURB","","null","<img src=""img/land4.png"" style=""width:200px;border:14px solid red;"">","null","","","","","","","","","",""
"","image-keyboard-response","74","28471","0.0-74.0","3RYC5T2D74F2225U9D2NOPR6KR9PRG","A3LIRS1WMRIP9P","36U4VBVNQOZD8NFWZXWF9CIHKRIURB","","138","img/land4.png","74","138","1","1","1","2","0.8,0.2,0.2,0.2,0.8,0.2,0.2,0.2,0.8","0.2,0.8,0.2,0.2,0.2,0.8,0.8,0.2,0.2","3","",""
"","html-keyboard-response","75","28773","0.0-75.0","3RYC5T2D74F2225U9D2NOPR6KR9PRG","A3LIRS1WMRIP9P","36U4VBVNQOZD8NFWZXWF9CIHKRIURB","","null","<img src=""img/land4.png"" style=""width:200px; border:14px solid green;"">","null","","","","","","","","","",""
"","image-keyboard-response","76","28951","0.0-76.0","3RYC5T2D74F2225U9D2NOPR6KR9PRG","A3LIRS1WMRIP9P","36U4VBVNQOZD8NFWZXWF9CIHKRIURB","","177","img/land4.png","76","178","3","0","1","2","0.8,0.2,0.2,0.2,0.8,0.2,0.2,0.2,0.8","0.2,0.8,0.2,0.2,0.2,0.8,0.8,0.2,0.2","3","",""
"","html-keyboard-response","77","29253","0.0-77.0","3RYC5T2D74F2225U9D2NOPR6KR9PRG","A3LIRS1WMRIP9P","36U4VBVNQOZD8NFWZXWF9CIHKRIURB","","null","<img src=""img/land4.png"" style=""width:200px;border:14px solid red;"">","null","","","","","","","","","",""
"","image-keyboard-response","78","29361","0.0-78.0","3RYC5T2D74F2225U9D2NOPR6KR9PRG","A3LIRS1WMRIP9P","36U4VBVNQOZD8NFWZXWF9CIHKRIURB","","107","img/land6.png","74","108","1","1","2","2","0.8,0.2,0.2,0.2,0.8,0.2,0.2,0.2,0.8","0.2,0.8,0.2,0.2,0.2,0.8,0.8,0.2,0.2","3","",""
"","html-keyboard-response","79","29662","0.0-79.0","3RYC5T2D74F2225U9D2NOPR6KR9PRG","A3LIRS1WMRIP9P","36U4VBVNQOZD8NFWZXWF9CIHKRIURB","","null","<img src=""img/land6.png"" style=""width:200px; border:14px solid green;"">","null","","","","","","","","","",""
"","image-keyboard-response","80","29813","0.0-80.0","3RYC5T2D74F2225U9D2NOPR6KR9PRG","A3LIRS1WMRIP9P","36U4VBVNQOZD8NFWZXWF9CIHKRIURB","","151","img/land6.png","74","151","1","1","2","2","0.8,0.2,0.2,0.2,0.8,0.2,0.2,0.2,0.8","0.2,0.8,0.2,0.2,0.2,0.8,0.8,0.2,0.2","3","",""
"","html-keyboard-response","81","30113","0.0-81.0","3RYC5T2D74F2225U9D2NOPR6KR9PRG","A3LIRS1WMRIP9P","36U4VBVNQOZD8NFWZXWF9CIHKRIURB","","null","<img src=""img/land6.png"" style=""width:200px; border:14px solid green;"">","null","","","","","","","","","",""
"","image-keyboard-response","82","30122","0.0-82.0","3RYC5T2D74F2225U9D2NOPR6KR9PRG","A3LIRS1WMRIP9P","36U4VBVNQOZD8NFWZXWF9CIHKRIURB","","8","img/land4.png","75","9","2","1","1","2","0.8,0.2,0.2,0.2,0.8,0.2,0.2,0.2,0.8","0.2,0.8,0.2,0.2,0.2,0.8,0.8,0.2,0.2","3","",""
"","html-keyboard-response","83","30425","0.0-83.0","3RYC5T2D74F2225U9D2NOPR6KR9PRG","A3LIRS1WMRIP9P","36U4VBVNQOZD8NFWZXWF9CIHKRIURB","","null","<img src=""img/land4.png"" style=""width:200px; border:14px solid green;"">","null","","","","","","","","","",""
"","image-keyboard-response","84","30448","0.0-84.0","3RYC5T2D74F2225U9D2NOPR6KR9PRG","A3LIRS1WMRIP9P","36U4VBVNQOZD8NFWZXWF9CIHKRIURB","","21","img/land6.png","76","23","3","1","2","2","0.8,0.2,0.2,0.2,0.8,0.2,0.2,0.2,0.8","0.2,0.8,0.2,0.2,0.2,0.8,0.8,0.2,0.2","3","",""
"","html-keyboard-response","85","30749","0.0-85.0","3RYC5T2D74F2225U9D2NOPR6KR9PRG","A3LIRS1WMRIP9P","36U4VBVNQOZD8NFWZXWF9CIHKRIURB","","null","<img src=""img/land6.png"" style=""width:200px; border:14px solid green;"">","null","","","","","","","","","",""
"","image-keyboard-response","86","30831","0.0-86.0","3RYC5T2D74F2225U9D2NOPR6KR9PRG","A3LIRS1WMRIP9P","36U4VBVNQOZD8NFWZXWF9CIHKRIURB","","82","img/land4.png","74","82","1","0","1","2","0.8,0.2,0.2,0.2,0.8,0.2,0.2,0.2,0.8","0.2,0.8,0.2,0.2,0.2,0.8,0.8,0.2,0.2","3","",""
"","html-keyboard-response","87","31132","0.0-87.0","3RYC5T2D74F2225U9D2NOPR6KR9PRG","A3LIRS1WMRIP9P","36U4VBVNQOZD8NFWZXWF9CIHKRIURB","","null","<img src=""img/land4.png"" style=""width:200px;border:14px solid red;"">","null","","","","","","","","","",""
"","image-keyboard-response","88","31164","0.0-88.0","3RYC5T2D74F2225U9D2NOPR6KR9PRG","A3LIRS1WMRIP9P","36U4VBVNQOZD8NFWZXWF9CIHKRIURB","","31","img/land6.png","75","32","2","1","2","2","0.8,0.2,0.2,0.2,0.8,0.2,0.2,0.2,0.8","0.2,0.8,0.2,0.2,0.2,0.8,0.8,0.2,0.2","3","",""
"","html-keyboard-response","89","31465","0.0-89.0","3RYC5T2D74F2225U9D2NOPR6KR9PRG","A3LIRS1WMRIP9P","36U4VBVNQOZD8NFWZXWF9CIHKRIURB","","null","<img src=""img/land6.png"" style=""width:200px; border:14px solid green;"">","null","","","","","","","","","",""
"","image-keyboard-response","90","31612","0.0-90.0","3RYC5T2D74F2225U9D2NOPR6KR9PRG","A3LIRS1WMRIP9P","36U4VBVNQOZD8NFWZXWF9CIHKRIURB","","146","img/land4.png","74","147","1","0","1","2","0.8,0.2,0.2,0.2,0.8,0.2,0.2,0.2,0.8","0.2,0.8,0.2,0.2,0.2,0.8,0.8,0.2,0.2","3","",""
"","html-keyboard-response","91","31914","0.0-91.0","3RYC5T2D74F2225U9D2NOPR6KR9PRG","A3LIRS1WMRIP9P","36U4VBVNQOZD8NFWZXWF9CIHKRIURB","","null","<img src=""img/land4.png"" style=""width:200px;border:14px solid red;"">","null","","","","","","","","","",""
"","image-keyboard-response","92","31971","0.0-92.0","3RYC5T2D74F2225U9D2NOPR6KR9PRG","A3LIRS1WMRIP9P","36U4VBVNQOZD8NFWZXWF9CIHKRIURB","","57","img/land2.png","76","57","3","0","3","2","0.8,0.2,0.2,0.2,0.8,0.2,0.2,0.2,0.8","0.2,0.8,0.2,0.2,0.2,0.8,0.8,0.2,0.2","3","",""
"","html-keyboard-response","93","32272","0.0-93.0","3RYC5T2D74F2225U9D2NOPR6KR9PRG","A3LIRS1WMRIP9P","36U4VBVNQOZD8NFWZXWF9CIHKRIURB","","null","<img src=""img/land2.png"" style=""width:200px;border:14px solid red;"">","null","","","","","","","","","",""
"","image-keyboard-response","94","32421","0.0-94.0","3RYC5T2D74F2225U9D2NOPR6KR9PRG","A3LIRS1WMRIP9P","36U4VBVNQOZD8NFWZXWF9CIHKRIURB","","148","img/land2.png","74","149","1","1","3","2","0.8,0.2,0.2,0.2,0.8,0.2,0.2,0.2,0.8","0.2,0.8,0.2,0.2,0.2,0.8,0.8,0.2,0.2","3","",""
"","html-keyboard-response","95","32722","0.0-95.0","3RYC5T2D74F2225U9D2NOPR6KR9PRG","A3LIRS1WMRIP9P","36U4VBVNQOZD8NFWZXWF9CIHKRIURB","","null","<img src=""img/land2.png"" style=""width:200px; border:14px solid green;"">","null","","","","","","","","","",""
"","image-keyboard-response","96","32738","0.0-96.0","3RYC5T2D74F2225U9D2NOPR6KR9PRG","A3LIRS1WMRIP9P","36U4VBVNQOZD8NFWZXWF9CIHKRIURB","","16","img/land4.png","76","16","3","1","1","2","0.8,0.2,0.2,0.2,0.8,0.2,0.2,0.2,0.8","0.2,0.8,0.2,0.2,0.2,0.8,0.8,0.2,0.2","3","",""
"","html-keyboard-response","97","33040","0.0-97.0","3RYC5T2D74F2225U9D2NOPR6KR9PRG","A3LIRS1WMRIP9P","36U4VBVNQOZD8NFWZXWF9CIHKRIURB","","null","<img src=""img/land4.png"" style=""width:200px; border:14px solid green;"">","null","","","","","","","","","",""
"","image-keyboard-response","98","33171","0.0-98.0","3RYC5T2D74F2225U9D2NOPR6KR9PRG","A3LIRS1WMRIP9P","36U4VBVNQOZD8NFWZXWF9CIHKRIURB","","131","img/land6.png","74","131","1","0","2","2","0.8,0.2,0.2,0.2,0.8,0.2,0.2,0.2,0.8","0.2,0.8,0.2,0.2,0.2,0.8,0.8,0.2,0.2","3","",""
"","html-keyboard-response","99","33472","0.0-99.0","3RYC5T2D74F2225U9D2NOPR6KR9PRG","A3LIRS1WMRIP9P","36U4VBVNQOZD8NFWZXWF9CIHKRIURB","","null","<img src=""img/land6.png"" style=""width:200px;border:14px solid red;"">","null","","","","","","","","","",""
"","image-keyboard-response","100","33482","0.0-100.0","3RYC5T2D74F2225U9D2NOPR6KR9PRG","A3LIRS1WMRIP9P","36U4VBVNQOZD8NFWZXWF9CIHKRIURB","","10","img/land4.png","75","10","2","0","1","2","0.8,0.2,0.2,0.2,0.8,0.2,0.2,0.2,0.8","0.2,0.8,0.2,0.2,0.2,0.8,0.8,0.2,0.2","3","",""
"","html-keyboard-response","101","33783","0.0-101.0","3RYC5T2D74F2225U9D2NOPR6KR9PRG","A3LIRS1WMRIP9P","36U4VBVNQOZD8NFWZXWF9CIHKRIURB","","null","<img src=""img/land4.png"" style=""width:200px;border:14px solid red;"">","null","","","","","","","","","",""
"","image-keyboard-response","102","33951","0.0-102.0","3RYC5T2D74F2225U9D2NOPR6KR9PRG","A3LIRS1WMRIP9P","36U4VBVNQOZD8NFWZXWF9CIHKRIURB","","167","img/land4.png","74","168","1","0","1","2","0.8,0.2,0.2,0.2,0.8,0.2,0.2,0.2,0.8","0.2,0.8,0.2,0.2,0.2,0.8,0.8,0.2,0.2","3","",""
"","html-keyboard-response","103","34252","0.0-103.0","3RYC5T2D74F2225U9D2NOPR6KR9PRG","A3LIRS1WMRIP9P","36U4VBVNQOZD8NFWZXWF9CIHKRIURB","","null","<img src=""img/land4.png"" style=""width:200px;border:14px solid red;"">","null","","","","","","","","","",""
"","image-keyboard-response","104","34272","0.0-104.0","3RYC5T2D74F2225U9D2NOPR6KR9PRG","A3LIRS1WMRIP9P","36U4VBVNQOZD8NFWZXWF9CIHKRIURB","","20","img/land4.png","76","20","3","1","1","2","0.8,0.2,0.2,0.2,0.8,0.2,0.2,0.2,0.8","0.2,0.8,0.2,0.2,0.2,0.8,0.8,0.2,0.2","3","",""
"","html-keyboard-response","105","34573","0.0-105.0","3RYC5T2D74F2225U9D2NOPR6KR9PRG","A3LIRS1WMRIP9P","36U4VBVNQOZD8NFWZXWF9CIHKRIURB","","null","<img src=""img/land4.png"" style=""width:200px; border:14px solid green;"">","null","","","","","","","","","",""
"","image-keyboard-response","106","34751","0.0-106.0","3RYC5T2D74F2225U9D2NOPR6KR9PRG","A3LIRS1WMRIP9P","36U4VBVNQOZD8NFWZXWF9CIHKRIURB","","178","img/land4.png","74","178","1","1","1","2","0.8,0.2,0.2,0.2,0.8,0.2,0.2,0.2,0.8","0.2,0.8,0.2,0.2,0.2,0.8,0.8,0.2,0.2","3","",""
"","html-keyboard-response","107","35053","0.0-107.0","3RYC5T2D74F2225U9D2NOPR6KR9PRG","A3LIRS1WMRIP9P","36U4VBVNQOZD8NFWZXWF9CIHKRIURB","","null","<img src=""img/land4.png"" style=""width:200px; border:14px solid green;"">","null","","","","","","","","","",""
"","image-keyboard-response","108","35071","0.0-108.0","3RYC5T2D74F2225U9D2NOPR6KR9PRG","A3LIRS1WMRIP9P","36U4VBVNQOZD8NFWZXWF9CIHKRIURB","","18","img/land4.png","74","18","1","0","1","2","0.8,0.2,0.2,0.2,0.8,0.2,0.2,0.2,0.8","0.2,0.8,0.2,0.2,0.2,0.8,0.8,0.2,0.2","3","",""
"","html-keyboard-response","109","35373","0.0-109.0","3RYC5T2D74F2225U9D2NOPR6KR9PRG","A3LIRS1WMRIP9P","36U4VBVNQOZD8NFWZXWF9CIHKRIURB","","null","<img src=""img/land4.png"" style=""width:200px;border:14px solid red;"">","null","","","","","","","","","",""
"","image-keyboard-response","110","35391","0.0-110.0","3RYC5T2D74F2225U9D2NOPR6KR9PRG","A3LIRS1WMRIP9P","36U4VBVNQOZD8NFWZXWF9CIHKRIURB","","17","img/land4.png","76","18","3","0","1","2","0.8,0.2,0.2,0.2,0.8,0.2,0.2,0.2,0.8","0.2,0.8,0.2,0.2,0.2,0.8,0.8,0.2,0.2","3","",""
"","html-keyboard-response","111","35692","0.0-111.0","3RYC5T2D74F2225U9D2NOPR6KR9PRG","A3LIRS1WMRIP9P","36U4VBVNQOZD8NFWZXWF9CIHKRIURB","","null","<img src=""img/land4.png"" style=""width:200px;border:14px solid red;"">","null","","","","","","","","","",""
"","image-keyboard-response","112","35831","0.0-112.0","3RYC5T2D74F2225U9D2NOPR6KR9PRG","A3LIRS1WMRIP9P","36U4VBVNQOZD8NFWZXWF9CIHKRIURB","","137","img/land4.png","74","138","1","0","1","2","0.8,0.2,0.2,0.2,0.8,0.2,0.2,0.2,0.8","0.2,0.8,0.2,0.2,0.2,0.8,0.8,0.2,0.2","3","",""
"","html-keyboard-response","113","36131","0.0-113.0","3RYC5T2D74F2225U9D2NOPR6KR9PRG","A3LIRS1WMRIP9P","36U4VBVNQOZD8NFWZXWF9CIHKRIURB","","null","<img src=""img/land4.png"" style=""width:200px;border:14px solid red;"">","null","","","","","","","","","",""
"","image-keyboard-response","114","36152","0.0-114.0","3RYC5T2D74F2225U9D2NOPR6KR9PRG","A3LIRS1WMRIP9P","36U4VBVNQOZD8NFWZXWF9CIHKRIURB","","20","img/land2.png","76","21","3","0","3","2","0.8,0.2,0.2,0.2,0.8,0.2,0.2,0.2,0.8","0.2,0.8,0.2,0.2,0.2,0.8,0.8,0.2,0.2","3","",""
"","html-keyboard-response","115","36453","0.0-115.0","3RYC5T2D74F2225U9D2NOPR6KR9PRG","A3LIRS1WMRIP9P","36U4VBVNQOZD8NFWZXWF9CIHKRIURB","","null","<img src=""img/land2.png"" style=""width:200px;border:14px solid red;"">","null","","","","","","","","","",""
"","image-keyboard-response","116","36667","0.0-116.0","3RYC5T2D74F2225U9D2NOPR6KR9PRG","A3LIRS1WMRIP9P","36U4VBVNQOZD8NFWZXWF9CIHKRIURB","","213","img/land2.png","74","214","1","1","3","2","0.8,0.2,0.2,0.2,0.8,0.2,0.2,0.2,0.8","0.2,0.8,0.2,0.2,0.2,0.8,0.8,0.2,0.2","3","",""
"","html-keyboard-response","117","36968","0.0-117.0","3RYC5T2D74F2225U9D2NOPR6KR9PRG","A3LIRS1WMRIP9P","36U4VBVNQOZD8NFWZXWF9CIHKRIURB","","null","<img src=""img/land2.png"" style=""width:200px; border:14px solid green;"">","null","","","","","","","","","",""
"","image-keyboard-response","118","36976","0.0-118.0","3RYC5T2D74F2225U9D2NOPR6KR9PRG","A3LIRS1WMRIP9P","36U4VBVNQOZD8NFWZXWF9CIHKRIURB","","7","img/land2.png","75","8","2","0","3","2","0.8,0.2,0.2,0.2,0.8,0.2,0.2,0.2,0.8","0.2,0.8,0.2,0.2,0.2,0.8,0.8,0.2,0.2","3","",""
"","html-keyboard-response","119","37277","0.0-119.0","3RYC5T2D74F2225U9D2NOPR6KR9PRG","A3LIRS1WMRIP9P","36U4VBVNQOZD8NFWZXWF9CIHKRIURB","","null","<img src=""img/land2.png"" style=""width:200px;border:14px solid red;"">","null","","","","","","","","","",""
"","image-keyboard-response","120","37441","0.0-120.0","3RYC5T2D74F2225U9D2NOPR6KR9PRG","A3LIRS1WMRIP9P","36U4VBVNQOZD8NFWZXWF9CIHKRIURB","","164","img/land6.png","74","164","1","0","2","2","0.8,0.2,0.2,0.2,0.8,0.2,0.2,0.2,0.8","0.2,0.8,0.2,0.2,0.2,0.8,0.8,0.2,0.2","3","",""
"","html-keyboard-response","121","37743","0.0-121.0","3RYC5T2D74F2225U9D2NOPR6KR9PRG","A3LIRS1WMRIP9P","36U4VBVNQOZD8NFWZXWF9CIHKRIURB","","null","<img src=""img/land6.png"" style=""width:200px;border:14px solid red;"">","null","","","","","","","","","",""
"","image-keyboard-response","122","37771","0.0-122.0","3RYC5T2D74F2225U9D2NOPR6KR9PRG","A3LIRS1WMRIP9P","36U4VBVNQOZD8NFWZXWF9CIHKRIURB","","28","img/land4.png","76","28","3","1","1","2","0.8,0.2,0.2,0.2,0.8,0.2,0.2,0.2,0.8","0.2,0.8,0.2,0.2,0.2,0.8,0.8,0.2,0.2","3","",""
"","html-keyboard-response","123","38073","0.0-123.0","3RYC5T2D74F2225U9D2NOPR6KR9PRG","A3LIRS1WMRIP9P","36U4VBVNQOZD8NFWZXWF9CIHKRIURB","","null","<img src=""img/land4.png"" style=""width:200px; border:14px solid green;"">","null","","","","","","","","","",""
"","image-keyboard-response","124","38221","0.0-124.0","3RYC5T2D74F2225U9D2NOPR6KR9PRG","A3LIRS1WMRIP9P","36U4VBVNQOZD8NFWZXWF9CIHKRIURB","","147","img/land6.png","74","148","1","0","2","2","0.8,0.2,0.2,0.2,0.8,0.2,0.2,0.2,0.8","0.2,0.8,0.2,0.2,0.2,0.8,0.8,0.2,0.2","3","",""
"","html-keyboard-response","125","38521","0.0-125.0","3RYC5T2D74F2225U9D2NOPR6KR9PRG","A3LIRS1WMRIP9P","36U4VBVNQOZD8NFWZXWF9CIHKRIURB","","null","<img src=""img/land6.png"" style=""width:200px;border:14px solid red;"">","null","","","","","","","","","",""
"","image-keyboard-response","126","38531","0.0-126.0","3RYC5T2D74F2225U9D2NOPR6KR9PRG","A3LIRS1WMRIP9P","36U4VBVNQOZD8NFWZXWF9CIHKRIURB","","9","img/land4.png","75","10","2","1","1","2","0.8,0.2,0.2,0.2,0.8,0.2,0.2,0.2,0.8","0.2,0.8,0.2,0.2,0.2,0.8,0.8,0.2,0.2","3","",""
"","html-keyboard-response","127","38831","0.0-127.0","3RYC5T2D74F2225U9D2NOPR6KR9PRG","A3LIRS1WMRIP9P","36U4VBVNQOZD8NFWZXWF9CIHKRIURB","","null","<img src=""img/land4.png"" style=""width:200px; border:14px solid green;"">","null","","","","","","","","","",""
"","image-keyboard-response","128","39011","0.0-128.0","3RYC5T2D74F2225U9D2NOPR6KR9PRG","A3LIRS1WMRIP9P","36U4VBVNQOZD8NFWZXWF9CIHKRIURB","","179","img/land2.png","74","180","1","1","3","2","0.8,0.2,0.2,0.2,0.8,0.2,0.2,0.2,0.8","0.2,0.8,0.2,0.2,0.2,0.8,0.8,0.2,0.2","3","",""
"","html-keyboard-response","129","39312","0.0-129.0","3RYC5T2D74F2225U9D2NOPR6KR9PRG","A3LIRS1WMRIP9P","36U4VBVNQOZD8NFWZXWF9CIHKRIURB","","null","<img src=""img/land2.png"" style=""width:200px; border:14px solid green;"">","null","","","","","","","","","",""
"","image-keyboard-response","130","39351","0.0-130.0","3RYC5T2D74F2225U9D2NOPR6KR9PRG","A3LIRS1WMRIP9P","36U4VBVNQOZD8NFWZXWF9CIHKRIURB","","38","img/land4.png","76","39","3","0","1","2","0.8,0.2,0.2,0.2,0.8,0.2,0.2,0.2,0.8","0.2,0.8,0.2,0.2,0.2,0.8,0.8,0.2,0.2","3","",""
"","html-keyboard-response","131","39652","0.0-131.0","3RYC5T2D74F2225U9D2NOPR6KR9PRG","A3LIRS1WMRIP9P","36U4VBVNQOZD8NFWZXWF9CIHKRIURB","","null","<img src=""img/land4.png"" style=""width:200px;border:14px solid red;"">","null","","","","","","","","","",""
"","image-keyboard-response","132","39796","0.0-132.0","3RYC5T2D74F2225U9D2NOPR6KR9PRG","A3LIRS1WMRIP9P","36U4VBVNQOZD8NFWZXWF9CIHKRIURB","","144","img/land2.png","74","144","1","1","3","2","0.8,0.2,0.2,0.2,0.8,0.2,0.2,0.2,0.8","0.2,0.8,0.2,0.2,0.2,0.8,0.8,0.2,0.2","3","",""
"","html-keyboard-response","133","40097","0.0-133.0","3RYC5T2D74F2225U9D2NOPR6KR9PRG","A3LIRS1WMRIP9P","36U4VBVNQOZD8NFWZXWF9CIHKRIURB","","null","<img src=""img/land2.png"" style=""width:200px; border:14px solid green;"">","null","","","","","","","","","",""
"","image-keyboard-response","134","40150","0.0-134.0","3RYC5T2D74F2225U9D2NOPR6KR9PRG","A3LIRS1WMRIP9P","36U4VBVNQOZD8NFWZXWF9CIHKRIURB","","52","img/land4.png","75","53","2","1","1","2","0.8,0.2,0.2,0.2,0.8,0.2,0.2,0.2,0.8","0.2,0.8,0.2,0.2,0.2,0.8,0.8,0.2,0.2","3","",""
"","html-keyboard-response","135","40452","0.0-135.0","3RYC5T2D74F2225U9D2NOPR6KR9PRG","A3LIRS1WMRIP9P","36U4VBVNQOZD8NFWZXWF9CIHKRIURB","","null","<img src=""img/land4.png"" style=""width:200px; border:14px solid green;"">","null","","","","","","","","","",""
"","image-keyboard-response","136","40470","0.0-136.0","3RYC5T2D74F2225U9D2NOPR6KR9PRG","A3LIRS1WMRIP9P","36U4VBVNQOZD8NFWZXWF9CIHKRIURB","","18","img/land4.png","76","19","3","0","1","2","0.8,0.2,0.2,0.2,0.8,0.2,0.2,0.2,0.8","0.2,0.8,0.2,0.2,0.2,0.8,0.8,0.2,0.2","3","",""
"","html-keyboard-response","137","40772","0.0-137.0","3RYC5T2D74F2225U9D2NOPR6KR9PRG","A3LIRS1WMRIP9P","36U4VBVNQOZD8NFWZXWF9CIHKRIURB","","null","<img src=""img/land4.png"" style=""width:200px;border:14px solid red;"">","null","","","","","","","","","",""
"","image-keyboard-response","138","40960","0.0-138.0","3RYC5T2D74F2225U9D2NOPR6KR9PRG","A3LIRS1WMRIP9P","36U4VBVNQOZD8NFWZXWF9CIHKRIURB","","188","img/land4.png","74","188","1","0","1","2","0.8,0.2,0.2,0.2,0.8,0.2,0.2,0.2,0.8","0.2,0.8,0.2,0.2,0.2,0.8,0.8,0.2,0.2","3","",""
"","html-keyboard-response","139","41262","0.0-139.0","3RYC5T2D74F2225U9D2NOPR6KR9PRG","A3LIRS1WMRIP9P","36U4VBVNQOZD8NFWZXWF9CIHKRIURB","","null","<img src=""img/land4.png"" style=""width:200px;border:14px solid red;"">","null","","","","","","","","","",""
"","image-keyboard-response","140","41270","0.0-140.0","3RYC5T2D74F2225U9D2NOPR6KR9PRG","A3LIRS1WMRIP9P","36U4VBVNQOZD8NFWZXWF9CIHKRIURB","","8","img/land6.png","75","8","2","1","2","2","0.8,0.2,0.2,0.2,0.8,0.2,0.2,0.2,0.8","0.2,0.8,0.2,0.2,0.2,0.8,0.8,0.2,0.2","3","",""
"","html-keyboard-response","141","41571","0.0-141.0","3RYC5T2D74F2225U9D2NOPR6KR9PRG","A3LIRS1WMRIP9P","36U4VBVNQOZD8NFWZXWF9CIHKRIURB","","null","<img src=""img/land6.png"" style=""width:200px; border:14px solid green;"">","null","","","","","","","","","",""
"","image-keyboard-response","142","41751","0.0-142.0","3RYC5T2D74F2225U9D2NOPR6KR9PRG","A3LIRS1WMRIP9P","36U4VBVNQOZD8NFWZXWF9CIHKRIURB","","179","img/land4.png","74","180","1","1","1","2","0.8,0.2,0.2,0.2,0.8,0.2,0.2,0.2,0.8","0.2,0.8,0.2,0.2,0.2,0.8,0.8,0.2,0.2","3","",""
"","html-keyboard-response","143","42052","0.0-143.0","3RYC5T2D74F2225U9D2NOPR6KR9PRG","A3LIRS1WMRIP9P","36U4VBVNQOZD8NFWZXWF9CIHKRIURB","","null","<img src=""img/land4.png"" style=""width:200px; border:14px solid green;"">","null","","","","","","","","","",""
"","image-keyboard-response","144","42063","0.0-144.0","3RYC5T2D74F2225U9D2NOPR6KR9PRG","A3LIRS1WMRIP9P","36U4VBVNQOZD8NFWZXWF9CIHKRIURB","","11","img/land6.png","74","11","1","0","2","2","0.8,0.2,0.2,0.2,0.8,0.2,0.2,0.2,0.8","0.2,0.8,0.2,0.2,0.2,0.8,0.8,0.2,0.2","3","",""
"","html-keyboard-response","145","42364","0.0-145.0","3RYC5T2D74F2225U9D2NOPR6KR9PRG","A3LIRS1WMRIP9P","36U4VBVNQOZD8NFWZXWF9CIHKRIURB","","null","<img src=""img/land6.png"" style=""width:200px;border:14px solid red;"">","null","","","","","","","","","",""
"","image-keyboard-response","146","42411","0.0-146.0","3RYC5T2D74F2225U9D2NOPR6KR9PRG","A3LIRS1WMRIP9P","36U4VBVNQOZD8NFWZXWF9CIHKRIURB","","47","img/land2.png","76","47","3","0","3","2","0.8,0.2,0.2,0.2,0.8,0.2,0.2,0.2,0.8","0.2,0.8,0.2,0.2,0.2,0.8,0.8,0.2,0.2","3","",""
"","html-keyboard-response","147","42712","0.0-147.0","3RYC5T2D74F2225U9D2NOPR6KR9PRG","A3LIRS1WMRIP9P","36U4VBVNQOZD8NFWZXWF9CIHKRIURB","","null","<img src=""img/land2.png"" style=""width:200px;border:14px solid red;"">","null","","","","","","","","","",""
"","image-keyboard-response","148","42750","0.0-148.0","3RYC5T2D74F2225U9D2NOPR6KR9PRG","A3LIRS1WMRIP9P","36U4VBVNQOZD8NFWZXWF9CIHKRIURB","","38","img/land4.png","76","39","3","0","1","2","0.8,0.2,0.2,0.2,0.8,0.2,0.2,0.2,0.8","0.2,0.8,0.2,0.2,0.2,0.8,0.8,0.2,0.2","3","",""
"","html-keyboard-response","149","43051","0.0-149.0","3RYC5T2D74F2225U9D2NOPR6KR9PRG","A3LIRS1WMRIP9P","36U4VBVNQOZD8NFWZXWF9CIHKRIURB","","null","<img src=""img/land4.png"" style=""width:200px;border:14px solid red;"">","null","","","","","","","","","",""
"","image-keyboard-response","150","43070","0.0-150.0","3RYC5T2D74F2225U9D2NOPR6KR9PRG","A3LIRS1WMRIP9P","36U4VBVNQOZD8NFWZXWF9CIHKRIURB","","19","img/land4.png","76","19","3","0","1","2","0.8,0.2,0.2,0.2,0.8,0.2,0.2,0.2,0.8","0.2,0.8,0.2,0.2,0.2,0.8,0.8,0.2,0.2","3","",""
"","html-keyboard-response","151","43372","0.0-151.0","3RYC5T2D74F2225U9D2NOPR6KR9PRG","A3LIRS1WMRIP9P","36U4VBVNQOZD8NFWZXWF9CIHKRIURB","","null","<img src=""img/land4.png"" style=""width:200px;border:14px solid red;"">","null","","","","","","","","","",""
"","image-keyboard-response","152","43531","0.0-152.0","3RYC5T2D74F2225U9D2NOPR6KR9PRG","A3LIRS1WMRIP9P","36U4VBVNQOZD8NFWZXWF9CIHKRIURB","","158","img/land4.png","74","159","1","0","1","2","0.8,0.2,0.2,0.2,0.8,0.2,0.2,0.2,0.8","0.2,0.8,0.2,0.2,0.2,0.8,0.8,0.2,0.2","3","",""
"","html-keyboard-response","153","43832","0.0-153.0","3RYC5T2D74F2225U9D2NOPR6KR9PRG","A3LIRS1WMRIP9P","36U4VBVNQOZD8NFWZXWF9CIHKRIURB","","null","<img src=""img/land4.png"" style=""width:200px;border:14px solid red;"">","null","","","","","","","","","",""
"","image-keyboard-response","154","43870","0.0-154.0","3RYC5T2D74F2225U9D2NOPR6KR9PRG","A3LIRS1WMRIP9P","36U4VBVNQOZD8NFWZXWF9CIHKRIURB","","37","img/land4.png","75","38","2","1","1","2","0.8,0.2,0.2,0.2,0.8,0.2,0.2,0.2,0.8","0.2,0.8,0.2,0.2,0.2,0.8,0.8,0.2,0.2","3","",""
"","html-keyboard-response","155","44172","0.0-155.0","3RYC5T2D74F2225U9D2NOPR6KR9PRG","A3LIRS1WMRIP9P","36U4VBVNQOZD8NFWZXWF9CIHKRIURB","","null","<img src=""img/land4.png"" style=""width:200px; border:14px solid green;"">","null","","","","","","","","","",""
"","image-keyboard-response","156","44210","0.0-156.0","3RYC5T2D74F2225U9D2NOPR6KR9PRG","A3LIRS1WMRIP9P","36U4VBVNQOZD8NFWZXWF9CIHKRIURB","","37","img/land4.png","76","38","3","1","1","2","0.8,0.2,0.2,0.2,0.8,0.2,0.2,0.2,0.8","0.2,0.8,0.2,0.2,0.2,0.8,0.8,0.2,0.2","3","",""
"","html-keyboard-response","157","44511","0.0-157.0","3RYC5T2D74F2225U9D2NOPR6KR9PRG","A3LIRS1WMRIP9P","36U4VBVNQOZD8NFWZXWF9CIHKRIURB","","null","<img src=""img/land4.png"" style=""width:200px; border:14px solid green;"">","null","","","","","","","","","",""
"","image-keyboard-response","158","44691","0.0-158.0","3RYC5T2D74F2225U9D2NOPR6KR9PRG","A3LIRS1WMRIP9P","36U4VBVNQOZD8NFWZXWF9CIHKRIURB","","179","img/land4.png","74","180","1","0","1","2","0.8,0.2,0.2,0.2,0.8,0.2,0.2,0.2,0.8","0.2,0.8,0.2,0.2,0.2,0.8,0.8,0.2,0.2","3","",""
"","html-keyboard-response","159","44992","0.0-159.0","3RYC5T2D74F2225U9D2NOPR6KR9PRG","A3LIRS1WMRIP9P","36U4VBVNQOZD8NFWZXWF9CIHKRIURB","","null","<img src=""img/land4.png"" style=""width:200px;border:14px solid red;"">","null","","","","","","","","","",""
"","image-keyboard-response","160","45030","0.0-160.0","3RYC5T2D74F2225U9D2NOPR6KR9PRG","A3LIRS1WMRIP9P","36U4VBVNQOZD8NFWZXWF9CIHKRIURB","","38","img/land4.png","76","38","3","1","1","2","0.8,0.2,0.2,0.2,0.8,0.2,0.2,0.2,0.8","0.2,0.8,0.2,0.2,0.2,0.8,0.8,0.2,0.2","3","",""
"","html-keyboard-response","161","45331","0.0-161.0","3RYC5T2D74F2225U9D2NOPR6KR9PRG","A3LIRS1WMRIP9P","36U4VBVNQOZD8NFWZXWF9CIHKRIURB","","null","<img src=""img/land4.png"" style=""width:200px; border:14px solid green;"">","null","","","","","","","","","",""
"","image-keyboard-response","162","45550","0.0-162.0","3RYC5T2D74F2225U9D2NOPR6KR9PRG","A3LIRS1WMRIP9P","36U4VBVNQOZD8NFWZXWF9CIHKRIURB","","218","img/land6.png","74","219","1","0","2","2","0.8,0.2,0.2,0.2,0.8,0.2,0.2,0.2,0.8","0.2,0.8,0.2,0.2,0.2,0.8,0.8,0.2,0.2","3","",""
"","html-keyboard-response","163","45851","0.0-163.0","3RYC5T2D74F2225U9D2NOPR6KR9PRG","A3LIRS1WMRIP9P","36U4VBVNQOZD8NFWZXWF9CIHKRIURB","","null","<img src=""img/land6.png"" style=""width:200px;border:14px solid red;"">","null","","","","","","","","","",""
"","image-keyboard-response","164","45871","0.0-164.0","3RYC5T2D74F2225U9D2NOPR6KR9PRG","A3LIRS1WMRIP9P","36U4VBVNQOZD8NFWZXWF9CIHKRIURB","","19","img/land6.png","74","20","1","0","2","2","0.8,0.2,0.2,0.2,0.8,0.2,0.2,0.2,0.8","0.2,0.8,0.2,0.2,0.2,0.8,0.8,0.2,0.2","3","",""
"","html-keyboard-response","165","46173","0.0-165.0","3RYC5T2D74F2225U9D2NOPR6KR9PRG","A3LIRS1WMRIP9P","36U4VBVNQOZD8NFWZXWF9CIHKRIURB","","null","<img src=""img/land6.png"" style=""width:200px;border:14px solid red;"">","null","","","","","","","","","",""
"","image-keyboard-response","166","46180","0.0-166.0","3RYC5T2D74F2225U9D2NOPR6KR9PRG","A3LIRS1WMRIP9P","36U4VBVNQOZD8NFWZXWF9CIHKRIURB","","7","img/land4.png","75","8","2","1","1","2","0.8,0.2,0.2,0.2,0.8,0.2,0.2,0.2,0.8","0.2,0.8,0.2,0.2,0.2,0.8,0.8,0.2,0.2","3","",""
"","html-keyboard-response","167","46481","0.0-167.0","3RYC5T2D74F2225U9D2NOPR6KR9PRG","A3LIRS1WMRIP9P","36U4VBVNQOZD8NFWZXWF9CIHKRIURB","","null","<img src=""img/land4.png"" style=""width:200px; border:14px solid green;"">","null","","","","","","","","","",""
"","image-keyboard-response","168","46491","0.0-168.0","3RYC5T2D74F2225U9D2NOPR6KR9PRG","A3LIRS1WMRIP9P","36U4VBVNQOZD8NFWZXWF9CIHKRIURB","","10","img/land6.png","74","10","1","0","2","2","0.8,0.2,0.2,0.2,0.8,0.2,0.2,0.2,0.8","0.2,0.8,0.2,0.2,0.2,0.8,0.8,0.2,0.2","3","",""
"","html-keyboard-response","169","46792","0.0-169.0","3RYC5T2D74F2225U9D2NOPR6KR9PRG","A3LIRS1WMRIP9P","36U4VBVNQOZD8NFWZXWF9CIHKRIURB","","null","<img src=""img/land6.png"" style=""width:200px;border:14px solid red;"">","null","","","","","","","","","",""
"","image-keyboard-response","170","46830","0.0-170.0","3RYC5T2D74F2225U9D2NOPR6KR9PRG","A3LIRS1WMRIP9P","36U4VBVNQOZD8NFWZXWF9CIHKRIURB","","38","img/land4.png","75","39","2","1","1","2","0.8,0.2,0.2,0.2,0.8,0.2,0.2,0.2,0.8","0.2,0.8,0.2,0.2,0.2,0.8,0.8,0.2,0.2","3","",""
"","html-keyboard-response","171","47136","0.0-171.0","3RYC5T2D74F2225U9D2NOPR6KR9PRG","A3LIRS1WMRIP9P","36U4VBVNQOZD8NFWZXWF9CIHKRIURB","","null","<img src=""img/land4.png"" style=""width:200px; border:14px solid green;"">","null","","","","","","","","","",""
"","image-keyboard-response","172","47146","0.0-172.0","3RYC5T2D74F2225U9D2NOPR6KR9PRG","A3LIRS1WMRIP9P","36U4VBVNQOZD8NFWZXWF9CIHKRIURB","","8","img/land4.png","75","10","2","1","1","2","0.8,0.2,0.2,0.2,0.8,0.2,0.2,0.2,0.8","0.2,0.8,0.2,0.2,0.2,0.8,0.8,0.2,0.2","3","",""
"","html-keyboard-response","173","47447","0.0-173.0","3RYC5T2D74F2225U9D2NOPR6KR9PRG","A3LIRS1WMRIP9P","36U4VBVNQOZD8NFWZXWF9CIHKRIURB","","null","<img src=""img/land4.png"" style=""width:200px; border:14px solid green;"">","null","","","","","","","","","",""
"","image-keyboard-response","174","47490","0.0-174.0","3RYC5T2D74F2225U9D2NOPR6KR9PRG","A3LIRS1WMRIP9P","36U4VBVNQOZD8NFWZXWF9CIHKRIURB","","43","img/land2.png","76","44","3","1","3","2","0.8,0.2,0.2,0.2,0.8,0.2,0.2,0.2,0.8","0.2,0.8,0.2,0.2,0.2,0.8,0.8,0.2,0.2","3","",""
"","html-keyboard-response","175","47792","0.0-175.0","3RYC5T2D74F2225U9D2NOPR6KR9PRG","A3LIRS1WMRIP9P","36U4VBVNQOZD8NFWZXWF9CIHKRIURB","","null","<img src=""img/land2.png"" style=""width:200px; border:14px solid green;"">","null","","","","","","","","","",""
"","image-keyboard-response","176","47816","0.0-176.0","3RYC5T2D74F2225U9D2NOPR6KR9PRG","A3LIRS1WMRIP9P","36U4VBVNQOZD8NFWZXWF9CIHKRIURB","","22","img/land4.png","75","24","2","1","1","2","0.8,0.2,0.2,0.2,0.8,0.2,0.2,0.2,0.8","0.2,0.8,0.2,0.2,0.2,0.8,0.8,0.2,0.2","3","",""
"","html-keyboard-response","177","48116","0.0-177.0","3RYC5T2D74F2225U9D2NOPR6KR9PRG","A3LIRS1WMRIP9P","36U4VBVNQOZD8NFWZXWF9CIHKRIURB","","null","<img src=""img/land4.png"" style=""width:200px; border:14px solid green;"">","null","","","","","","","","","",""
"","image-keyboard-response","178","48130","0.0-178.0","3RYC5T2D74F2225U9D2NOPR6KR9PRG","A3LIRS1WMRIP9P","36U4VBVNQOZD8NFWZXWF9CIHKRIURB","","13","img/land4.png","76","15","3","0","1","2","0.8,0.2,0.2,0.2,0.8,0.2,0.2,0.2,0.8","0.2,0.8,0.2,0.2,0.2,0.8,0.8,0.2,0.2","3","",""
"","html-keyboard-response","179","48432","0.0-179.0","3RYC5T2D74F2225U9D2NOPR6KR9PRG","A3LIRS1WMRIP9P","36U4VBVNQOZD8NFWZXWF9CIHKRIURB","","null","<img src=""img/land4.png"" style=""width:200px;border:14px solid red;"">","null","","","","","","","","","",""
"","image-keyboard-response","180","48440","0.0-180.0","3RYC5T2D74F2225U9D2NOPR6KR9PRG","A3LIRS1WMRIP9P","36U4VBVNQOZD8NFWZXWF9CIHKRIURB","","8","img/land4.png","75","8","2","1","1","2","0.8,0.2,0.2,0.2,0.8,0.2,0.2,0.2,0.8","0.2,0.8,0.2,0.2,0.2,0.8,0.8,0.2,0.2","3","",""
"","html-keyboard-response","181","48768","0.0-181.0","3RYC5T2D74F2225U9D2NOPR6KR9PRG","A3LIRS1WMRIP9P","36U4VBVNQOZD8NFWZXWF9CIHKRIURB","","null","<img src=""img/land4.png"" style=""width:200px; border:14px solid green;"">","null","","","","","","","","","",""
"","image-keyboard-response","182","48785","0.0-182.0","3RYC5T2D74F2225U9D2NOPR6KR9PRG","A3LIRS1WMRIP9P","36U4VBVNQOZD8NFWZXWF9CIHKRIURB","","16","img/land4.png","74","17","1","0","1","2","0.8,0.2,0.2,0.2,0.8,0.2,0.2,0.2,0.8","0.2,0.8,0.2,0.2,0.2,0.8,0.8,0.2,0.2","3","",""
"","html-keyboard-response","183","49087","0.0-183.0","3RYC5T2D74F2225U9D2NOPR6KR9PRG","A3LIRS1WMRIP9P","36U4VBVNQOZD8NFWZXWF9CIHKRIURB","","null","<img src=""img/land4.png"" style=""width:200px;border:14px solid red;"">","null","","","","","","","","","",""
"","image-keyboard-response","184","49094","0.0-184.0","3RYC5T2D74F2225U9D2NOPR6KR9PRG","A3LIRS1WMRIP9P","36U4VBVNQOZD8NFWZXWF9CIHKRIURB","","7","img/land4.png","75","7","2","1","1","2","0.8,0.2,0.2,0.2,0.8,0.2,0.2,0.2,0.8","0.2,0.8,0.2,0.2,0.2,0.8,0.8,0.2,0.2","3","",""
"","html-keyboard-response","185","49396","0.0-185.0","3RYC5T2D74F2225U9D2NOPR6KR9PRG","A3LIRS1WMRIP9P","36U4VBVNQOZD8NFWZXWF9CIHKRIURB","","null","<img src=""img/land4.png"" style=""width:200px; border:14px solid green;"">","null","","","","","","","","","",""
"","image-keyboard-response","186","49430","0.0-186.0","3RYC5T2D74F2225U9D2NOPR6KR9PRG","A3LIRS1WMRIP9P","36U4VBVNQOZD8NFWZXWF9CIHKRIURB","","34","img/land2.png","75","34","2","1","3","2","0.8,0.2,0.2,0.2,0.8,0.2,0.2,0.2,0.8","0.2,0.8,0.2,0.2,0.2,0.8,0.8,0.2,0.2","3","",""
"","html-keyboard-response","187","49732","0.0-187.0","3RYC5T2D74F2225U9D2NOPR6KR9PRG","A3LIRS1WMRIP9P","36U4VBVNQOZD8NFWZXWF9CIHKRIURB","","null","<img src=""img/land2.png"" style=""width:200px; border:14px solid green;"">","null","","","","","","","","","",""
"","image-keyboard-response","188","49750","0.0-188.0","3RYC5T2D74F2225U9D2NOPR6KR9PRG","A3LIRS1WMRIP9P","36U4VBVNQOZD8NFWZXWF9CIHKRIURB","","18","img/land2.png","74","18","1","1","3","2","0.8,0.2,0.2,0.2,0.8,0.2,0.2,0.2,0.8","0.2,0.8,0.2,0.2,0.2,0.8,0.8,0.2,0.2","3","",""
"","html-keyboard-response","189","50051","0.0-189.0","3RYC5T2D74F2225U9D2NOPR6KR9PRG","A3LIRS1WMRIP9P","36U4VBVNQOZD8NFWZXWF9CIHKRIURB","","null","<img src=""img/land2.png"" style=""width:200px; border:14px solid green;"">","null","","","","","","","","","",""
"","image-keyboard-response","190","50150","0.0-190.0","3RYC5T2D74F2225U9D2NOPR6KR9PRG","A3LIRS1WMRIP9P","36U4VBVNQOZD8NFWZXWF9CIHKRIURB","","99","img/land2.png","75","99","2","0","3","2","0.8,0.2,0.2,0.2,0.8,0.2,0.2,0.2,0.8","0.2,0.8,0.2,0.2,0.2,0.8,0.8,0.2,0.2","3","",""
"","html-keyboard-response","191","50452","0.0-191.0","3RYC5T2D74F2225U9D2NOPR6KR9PRG","A3LIRS1WMRIP9P","36U4VBVNQOZD8NFWZXWF9CIHKRIURB","","null","<img src=""img/land2.png"" style=""width:200px;border:14px solid red;"">","null","","","","","","","","","",""
"","image-keyboard-response","192","50730","0.0-192.0","3RYC5T2D74F2225U9D2NOPR6KR9PRG","A3LIRS1WMRIP9P","36U4VBVNQOZD8NFWZXWF9CIHKRIURB","","278","img/land2.png","74","278","1","1","3","2","0.8,0.2,0.2,0.2,0.8,0.2,0.2,0.2,0.8","0.2,0.8,0.2,0.2,0.2,0.8,0.8,0.2,0.2","3","",""
"","html-keyboard-response","193","51031","0.0-193.0","3RYC5T2D74F2225U9D2NOPR6KR9PRG","A3LIRS1WMRIP9P","36U4VBVNQOZD8NFWZXWF9CIHKRIURB","","null","<img src=""img/land2.png"" style=""width:200px; border:14px solid green;"">","null","","","","","","","","","",""
"","image-keyboard-response","194","51050","0.0-194.0","3RYC5T2D74F2225U9D2NOPR6KR9PRG","A3LIRS1WMRIP9P","36U4VBVNQOZD8NFWZXWF9CIHKRIURB","","19","img/land2.png","74","20","1","1","3","2","0.8,0.2,0.2,0.2,0.8,0.2,0.2,0.2,0.8","0.2,0.8,0.2,0.2,0.2,0.8,0.8,0.2,0.2","3","",""
"","html-keyboard-response","195","51351","0.0-195.0","3RYC5T2D74F2225U9D2NOPR6KR9PRG","A3LIRS1WMRIP9P","36U4VBVNQOZD8NFWZXWF9CIHKRIURB","","null","<img src=""img/land2.png"" style=""width:200px; border:14px solid green;"">","null","","","","","","","","","",""
"","image-keyboard-response","196","51371","0.0-196.0","3RYC5T2D74F2225U9D2NOPR6KR9PRG","A3LIRS1WMRIP9P","36U4VBVNQOZD8NFWZXWF9CIHKRIURB","","19","img/land6.png","74","20","1","0","2","2","0.8,0.2,0.2,0.2,0.8,0.2,0.2,0.2,0.8","0.2,0.8,0.2,0.2,0.2,0.8,0.8,0.2,0.2","3","",""
"","html-keyboard-response","197","51672","0.0-197.0","3RYC5T2D74F2225U9D2NOPR6KR9PRG","A3LIRS1WMRIP9P","36U4VBVNQOZD8NFWZXWF9CIHKRIURB","","null","<img src=""img/land6.png"" style=""width:200px;border:14px solid red;"">","null","","","","","","","","","",""
"","image-keyboard-response","198","51730","0.0-198.0","3RYC5T2D74F2225U9D2NOPR6KR9PRG","A3LIRS1WMRIP9P","36U4VBVNQOZD8NFWZXWF9CIHKRIURB","","57","img/land4.png","75","58","2","1","1","2","0.8,0.2,0.2,0.2,0.8,0.2,0.2,0.2,0.8","0.2,0.8,0.2,0.2,0.2,0.8,0.8,0.2,0.2","3","",""
"","html-keyboard-response","199","52031","0.0-199.0","3RYC5T2D74F2225U9D2NOPR6KR9PRG","A3LIRS1WMRIP9P","36U4VBVNQOZD8NFWZXWF9CIHKRIURB","","null","<img src=""img/land4.png"" style=""width:200px; border:14px solid green;"">","null","","","","","","","","","",""
"","image-keyboard-response","200","52351","0.0-200.0","3RYC5T2D74F2225U9D2NOPR6KR9PRG","A3LIRS1WMRIP9P","36U4VBVNQOZD8NFWZXWF9CIHKRIURB","","320","img/land4.png","76","320","3","0","1","2","0.8,0.2,0.2,0.2,0.8,0.2,0.2,0.2,0.8","0.2,0.8,0.2,0.2,0.2,0.8,0.8,0.2,0.2","3","",""
"","html-keyboard-response","201","52653","0.0-201.0","3RYC5T2D74F2225U9D2NOPR6KR9PRG","A3LIRS1WMRIP9P","36U4VBVNQOZD8NFWZXWF9CIHKRIURB","","null","<img src=""img/land4.png"" style=""width:200px;border:14px solid red;"">","null","","","","","","","","","",""
"","image-keyboard-response","202","52710","0.0-202.0","3RYC5T2D74F2225U9D2NOPR6KR9PRG","A3LIRS1WMRIP9P","36U4VBVNQOZD8NFWZXWF9CIHKRIURB","","56","img/land4.png","74","57","1","0","1","2","0.8,0.2,0.2,0.2,0.8,0.2,0.2,0.2,0.8","0.2,0.8,0.2,0.2,0.2,0.8,0.8,0.2,0.2","3","",""
"","html-keyboard-response","203","53011","0.0-203.0","3RYC5T2D74F2225U9D2NOPR6KR9PRG","A3LIRS1WMRIP9P","36U4VBVNQOZD8NFWZXWF9CIHKRIURB","","null","<img src=""img/land4.png"" style=""width:200px;border:14px solid red;"">","null","","","","","","","","","",""
"","image-keyboard-response","204","53030","0.0-204.0","3RYC5T2D74F2225U9D2NOPR6KR9PRG","A3LIRS1WMRIP9P","36U4VBVNQOZD8NFWZXWF9CIHKRIURB","","19","img/land4.png","76","19","3","0","1","2","0.8,0.2,0.2,0.2,0.8,0.2,0.2,0.2,0.8","0.2,0.8,0.2,0.2,0.2,0.8,0.8,0.2,0.2","3","",""
"","html-keyboard-response","205","53331","0.0-205.0","3RYC5T2D74F2225U9D2NOPR6KR9PRG","A3LIRS1WMRIP9P","36U4VBVNQOZD8NFWZXWF9CIHKRIURB","","null","<img src=""img/land4.png"" style=""width:200px;border:14px solid red;"">","null","","","","","","","","","",""
"","image-keyboard-response","206","53511","0.0-206.0","3RYC5T2D74F2225U9D2NOPR6KR9PRG","A3LIRS1WMRIP9P","36U4VBVNQOZD8NFWZXWF9CIHKRIURB","","178","img/land4.png","74","180","1","0","1","2","0.8,0.2,0.2,0.2,0.8,0.2,0.2,0.2,0.8","0.2,0.8,0.2,0.2,0.2,0.8,0.8,0.2,0.2","3","",""
"","html-keyboard-response","207","53812","0.0-207.0","3RYC5T2D74F2225U9D2NOPR6KR9PRG","A3LIRS1WMRIP9P","36U4VBVNQOZD8NFWZXWF9CIHKRIURB","","null","<img src=""img/land4.png"" style=""width:200px;border:14px solid red;"">","null","","","","","","","","","",""
"","image-keyboard-response","208","53961","0.0-208.0","3RYC5T2D74F2225U9D2NOPR6KR9PRG","A3LIRS1WMRIP9P","36U4VBVNQOZD8NFWZXWF9CIHKRIURB","","149","img/land4.png","75","149","2","0","1","2","0.8,0.2,0.2,0.2,0.8,0.2,0.2,0.2,0.8","0.2,0.8,0.2,0.2,0.2,0.8,0.8,0.2,0.2","3","",""
"","html-keyboard-response","209","54262","0.0-209.0","3RYC5T2D74F2225U9D2NOPR6KR9PRG","A3LIRS1WMRIP9P","36U4VBVNQOZD8NFWZXWF9CIHKRIURB","","null","<img src=""img/land4.png"" style=""width:200px;border:14px solid red;"">","null","","","","","","","","","",""
"","image-keyboard-response","210","54371","0.0-210.0","3RYC5T2D74F2225U9D2NOPR6KR9PRG","A3LIRS1WMRIP9P","36U4VBVNQOZD8NFWZXWF9CIHKRIURB","","109","img/land4.png","74","109","1","0","1","2","0.8,0.2,0.2,0.2,0.8,0.2,0.2,0.2,0.8","0.2,0.8,0.2,0.2,0.2,0.8,0.8,0.2,0.2","3","",""
"","html-keyboard-response","211","54671","0.0-211.0","3RYC5T2D74F2225U9D2NOPR6KR9PRG","A3LIRS1WMRIP9P","36U4VBVNQOZD8NFWZXWF9CIHKRIURB","","null","<img src=""img/land4.png"" style=""width:200px;border:14px solid red;"">","null","","","","","","","","","",""
"","image-keyboard-response","212","54756","0.0-212.0","3RYC5T2D74F2225U9D2NOPR6KR9PRG","A3LIRS1WMRIP9P","36U4VBVNQOZD8NFWZXWF9CIHKRIURB","","84","img/land4.png","76","85","3","1","1","2","0.8,0.2,0.2,0.2,0.8,0.2,0.2,0.2,0.8","0.2,0.8,0.2,0.2,0.2,0.8,0.8,0.2,0.2","3","",""
"","html-keyboard-response","213","55057","0.0-213.0","3RYC5T2D74F2225U9D2NOPR6KR9PRG","A3LIRS1WMRIP9P","36U4VBVNQOZD8NFWZXWF9CIHKRIURB","","null","<img src=""img/land4.png"" style=""width:200px; border:14px solid green;"">","null","","","","","","","","","",""
"","image-keyboard-response","214","55251","0.0-214.0","3RYC5T2D74F2225U9D2NOPR6KR9PRG","A3LIRS1WMRIP9P","36U4VBVNQOZD8NFWZXWF9CIHKRIURB","","194","img/land2.png","74","194","1","0","3","2","0.8,0.2,0.2,0.2,0.8,0.2,0.2,0.2,0.8","0.2,0.8,0.2,0.2,0.2,0.8,0.8,0.2,0.2","3","",""
"","html-keyboard-response","215","55553","0.0-215.0","3RYC5T2D74F2225U9D2NOPR6KR9PRG","A3LIRS1WMRIP9P","36U4VBVNQOZD8NFWZXWF9CIHKRIURB","","null","<img src=""img/land2.png"" style=""width:200px;border:14px solid red;"">","null","","","","","","","","","",""
"","image-keyboard-response","216","55572","0.0-216.0","3RYC5T2D74F2225U9D2NOPR6KR9PRG","A3LIRS1WMRIP9P","36U4VBVNQOZD8NFWZXWF9CIHKRIURB","","18","img/land6.png","76","19","3","1","2","2","0.8,0.2,0.2,0.2,0.8,0.2,0.2,0.2,0.8","0.2,0.8,0.2,0.2,0.2,0.8,0.8,0.2,0.2","3","",""
"","html-keyboard-response","217","55873","0.0-217.0","3RYC5T2D74F2225U9D2NOPR6KR9PRG","A3LIRS1WMRIP9P","36U4VBVNQOZD8NFWZXWF9CIHKRIURB","","null","<img src=""img/land6.png"" style=""width:200px; border:14px solid green;"">","null","","","","","","","","","",""
"","image-keyboard-response","218","56051","0.0-218.0","3RYC5T2D74F2225U9D2NOPR6KR9PRG","A3LIRS1WMRIP9P","36U4VBVNQOZD8NFWZXWF9CIHKRIURB","","178","img/land4.png","74","178","1","0","1","2","0.8,0.2,0.2,0.2,0.8,0.2,0.2,0.2,0.8","0.2,0.8,0.2,0.2,0.2,0.8,0.8,0.2,0.2","3","",""
"","html-keyboard-response","219","56352","0.0-219.0","3RYC5T2D74F2225U9D2NOPR6KR9PRG","A3LIRS1WMRIP9P","36U4VBVNQOZD8NFWZXWF9CIHKRIURB","","null","<img src=""img/land4.png"" style=""width:200px;border:14px solid red;"">","null","","","","","","","","","",""
"","image-keyboard-response","220","56430","0.0-220.0","3RYC5T2D74F2225U9D2NOPR6KR9PRG","A3LIRS1WMRIP9P","36U4VBVNQOZD8NFWZXWF9CIHKRIURB","","77","img/land2.png","75","79","2","0","3","2","0.8,0.2,0.2,0.2,0.8,0.2,0.2,0.2,0.8","0.2,0.8,0.2,0.2,0.2,0.8,0.8,0.2,0.2","3","",""
"","html-keyboard-response","221","56731","0.0-221.0","3RYC5T2D74F2225U9D2NOPR6KR9PRG","A3LIRS1WMRIP9P","36U4VBVNQOZD8NFWZXWF9CIHKRIURB","","null","<img src=""img/land2.png"" style=""width:200px;border:14px solid red;"">","null","","","","","","","","","",""
"","image-keyboard-response","222","56761","0.0-222.0","3RYC5T2D74F2225U9D2NOPR6KR9PRG","A3LIRS1WMRIP9P","36U4VBVNQOZD8NFWZXWF9CIHKRIURB","","29","img/land4.png","76","30","3","0","1","2","0.8,0.2,0.2,0.2,0.8,0.2,0.2,0.2,0.8","0.2,0.8,0.2,0.2,0.2,0.8,0.8,0.2,0.2","3","",""
"","html-keyboard-response","223","57061","0.0-223.0","3RYC5T2D74F2225U9D2NOPR6KR9PRG","A3LIRS1WMRIP9P","36U4VBVNQOZD8NFWZXWF9CIHKRIURB","","null","<img src=""img/land4.png"" style=""width:200px;border:14px solid red;"">","null","","","","","","","","","",""
"","image-keyboard-response","224","57071","0.0-224.0","3RYC5T2D74F2225U9D2NOPR6KR9PRG","A3LIRS1WMRIP9P","36U4VBVNQOZD8NFWZXWF9CIHKRIURB","","9","img/land2.png","76","10","3","0","3","2","0.8,0.2,0.2,0.2,0.8,0.2,0.2,0.2,0.8","0.2,0.8,0.2,0.2,0.2,0.8,0.8,0.2,0.2","3","",""
"","html-keyboard-response","225","57372","0.0-225.0","3RYC5T2D74F2225U9D2NOPR6KR9PRG","A3LIRS1WMRIP9P","36U4VBVNQOZD8NFWZXWF9CIHKRIURB","","null","<img src=""img/land2.png"" style=""width:200px;border:14px solid red;"">","null","","","","","","","","","",""
"","image-keyboard-response","226","57591","0.0-226.0","3RYC5T2D74F2225U9D2NOPR6KR9PRG","A3LIRS1WMRIP9P","36U4VBVNQOZD8NFWZXWF9CIHKRIURB","","218","img/land4.png","76","219","3","0","1","2","0.8,0.2,0.2,0.2,0.8,0.2,0.2,0.2,0.8","0.2,0.8,0.2,0.2,0.2,0.8,0.8,0.2,0.2","3","",""
"","html-keyboard-response","227","57892","0.0-227.0","3RYC5T2D74F2225U9D2NOPR6KR9PRG","A3LIRS1WMRIP9P","36U4VBVNQOZD8NFWZXWF9CIHKRIURB","","null","<img src=""img/land4.png"" style=""width:200px;border:14px solid red;"">","null","","","","","","","","","",""
"","image-keyboard-response","228","58031","0.0-228.0","3RYC5T2D74F2225U9D2NOPR6KR9PRG","A3LIRS1WMRIP9P","36U4VBVNQOZD8NFWZXWF9CIHKRIURB","","139","img/land6.png","75","139","2","0","2","2","0.8,0.2,0.2,0.2,0.8,0.2,0.2,0.2,0.8","0.2,0.8,0.2,0.2,0.2,0.8,0.8,0.2,0.2","3","",""
"","html-keyboard-response","229","58331","0.0-229.0","3RYC5T2D74F2225U9D2NOPR6KR9PRG","A3LIRS1WMRIP9P","36U4VBVNQOZD8NFWZXWF9CIHKRIURB","","null","<img src=""img/land6.png"" style=""width:200px;border:14px solid red;"">","null","","","","","","","","","",""
"","image-keyboard-response","230","58390","0.0-230.0","3RYC5T2D74F2225U9D2NOPR6KR9PRG","A3LIRS1WMRIP9P","36U4VBVNQOZD8NFWZXWF9CIHKRIURB","","59","img/land4.png","74","60","1","0","1","2","0.8,0.2,0.2,0.2,0.8,0.2,0.2,0.2,0.8","0.2,0.8,0.2,0.2,0.2,0.8,0.8,0.2,0.2","3","",""
"","html-keyboard-response","231","58693","0.0-231.0","3RYC5T2D74F2225U9D2NOPR6KR9PRG","A3LIRS1WMRIP9P","36U4VBVNQOZD8NFWZXWF9CIHKRIURB","","null","<img src=""img/land4.png"" style=""width:200px;border:14px solid red;"">","null","","","","","","","","","",""
"","image-keyboard-response","232","58770","0.0-232.0","3RYC5T2D74F2225U9D2NOPR6KR9PRG","A3LIRS1WMRIP9P","36U4VBVNQOZD8NFWZXWF9CIHKRIURB","","77","img/land4.png","74","77","1","0","1","2","0.8,0.2,0.2,0.2,0.8,0.2,0.2,0.2,0.8","0.2,0.8,0.2,0.2,0.2,0.8,0.8,0.2,0.2","3","",""
"","html-keyboard-response","233","59071","0.0-233.0","3RYC5T2D74F2225U9D2NOPR6KR9PRG","A3LIRS1WMRIP9P","36U4VBVNQOZD8NFWZXWF9CIHKRIURB","","null","<img src=""img/land4.png"" style=""width:200px;border:14px solid red;"">","null","","","","","","","","","",""
"","image-keyboard-response","234","59150","0.0-234.0","3RYC5T2D74F2225U9D2NOPR6KR9PRG","A3LIRS1WMRIP9P","36U4VBVNQOZD8NFWZXWF9CIHKRIURB","","78","img/land4.png","74","79","1","1","1","2","0.8,0.2,0.2,0.2,0.8,0.2,0.2,0.2,0.8","0.2,0.8,0.2,0.2,0.2,0.8,0.8,0.2,0.2","3","",""
"","html-keyboard-response","235","59451","0.0-235.0","3RYC5T2D74F2225U9D2NOPR6KR9PRG","A3LIRS1WMRIP9P","36U4VBVNQOZD8NFWZXWF9CIHKRIURB","","null","<img src=""img/land4.png"" style=""width:200px; border:14px solid green;"">","null","","","","","","","","","",""
"","image-keyboard-response","236","59471","0.0-236.0","3RYC5T2D74F2225U9D2NOPR6KR9PRG","A3LIRS1WMRIP9P","36U4VBVNQOZD8NFWZXWF9CIHKRIURB","","19","img/land2.png","74","20","1","1","3","2","0.8,0.2,0.2,0.2,0.8,0.2,0.2,0.2,0.8","0.2,0.8,0.2,0.2,0.2,0.8,0.8,0.2,0.2","3","",""
"","html-keyboard-response","237","59772","0.0-237.0","3RYC5T2D74F2225U9D2NOPR6KR9PRG","A3LIRS1WMRIP9P","36U4VBVNQOZD8NFWZXWF9CIHKRIURB","","null","<img src=""img/land2.png"" style=""width:200px; border:14px solid green;"">","null","","","","","","","","","",""
"","image-keyboard-response","238","59781","0.0-238.0","3RYC5T2D74F2225U9D2NOPR6KR9PRG","A3LIRS1WMRIP9P","36U4VBVNQOZD8NFWZXWF9CIHKRIURB","","8","img/land4.png","74","9","1","0","1","2","0.8,0.2,0.2,0.2,0.8,0.2,0.2,0.2,0.8","0.2,0.8,0.2,0.2,0.2,0.8,0.8,0.2,0.2","3","",""
"","html-keyboard-response","239","60083","0.0-239.0","3RYC5T2D74F2225U9D2NOPR6KR9PRG","A3LIRS1WMRIP9P","36U4VBVNQOZD8NFWZXWF9CIHKRIURB","","null","<img src=""img/land4.png"" style=""width:200px;border:14px solid red;"">","null","","","","","","","","","",""
"","image-keyboard-response","240","60171","0.0-240.0","3RYC5T2D74F2225U9D2NOPR6KR9PRG","A3LIRS1WMRIP9P","36U4VBVNQOZD8NFWZXWF9CIHKRIURB","","87","img/land4.png","75","88","2","0","1","2","0.8,0.2,0.2,0.2,0.8,0.2,0.2,0.2,0.8","0.2,0.8,0.2,0.2,0.2,0.8,0.8,0.2,0.2","3","",""
"","html-keyboard-response","241","60472","0.0-241.0","3RYC5T2D74F2225U9D2NOPR6KR9PRG","A3LIRS1WMRIP9P","36U4VBVNQOZD8NFWZXWF9CIHKRIURB","","null","<img src=""img/land4.png"" style=""width:200px;border:14px solid red;"">","null","","","","","","","","","",""
"","image-keyboard-response","242","60491","0.0-242.0","3RYC5T2D74F2225U9D2NOPR6KR9PRG","A3LIRS1WMRIP9P","36U4VBVNQOZD8NFWZXWF9CIHKRIURB","","17","img/land4.png","75","19","2","1","1","2","0.8,0.2,0.2,0.2,0.8,0.2,0.2,0.2,0.8","0.2,0.8,0.2,0.2,0.2,0.8,0.8,0.2,0.2","3","",""
"","html-keyboard-response","243","60791","0.0-243.0","3RYC5T2D74F2225U9D2NOPR6KR9PRG","A3LIRS1WMRIP9P","36U4VBVNQOZD8NFWZXWF9CIHKRIURB","","null","<img src=""img/land4.png"" style=""width:200px; border:14px solid green;"">","null","","","","","","","","","",""
"","image-keyboard-response","244","61051","0.0-244.0","3RYC5T2D74F2225U9D2NOPR6KR9PRG","A3LIRS1WMRIP9P","36U4VBVNQOZD8NFWZXWF9CIHKRIURB","","259","img/land6.png","74","260","1","0","2","2","0.8,0.2,0.2,0.2,0.8,0.2,0.2,0.2,0.8","0.2,0.8,0.2,0.2,0.2,0.8,0.8,0.2,0.2","3","",""
"","html-keyboard-response","245","61352","0.0-245.0","3RYC5T2D74F2225U9D2NOPR6KR9PRG","A3LIRS1WMRIP9P","36U4VBVNQOZD8NFWZXWF9CIHKRIURB","","null","<img src=""img/land6.png"" style=""width:200px;border:14px solid red;"">","null","","","","","","","","","",""
"","image-keyboard-response","246","61371","0.0-246.0","3RYC5T2D74F2225U9D2NOPR6KR9PRG","A3LIRS1WMRIP9P","36U4VBVNQOZD8NFWZXWF9CIHKRIURB","","17","img/land4.png","74","19","1","0","1","2","0.8,0.2,0.2,0.2,0.8,0.2,0.2,0.2,0.8","0.2,0.8,0.2,0.2,0.2,0.8,0.8,0.2,0.2","3","",""
"","html-keyboard-response","247","61672","0.0-247.0","3RYC5T2D74F2225U9D2NOPR6KR9PRG","A3LIRS1WMRIP9P","36U4VBVNQOZD8NFWZXWF9CIHKRIURB","","null","<img src=""img/land4.png"" style=""width:200px;border:14px solid red;"">","null","","","","","","","","","",""
"","image-keyboard-response","248","61691","0.0-248.0","3RYC5T2D74F2225U9D2NOPR6KR9PRG","A3LIRS1WMRIP9P","36U4VBVNQOZD8NFWZXWF9CIHKRIURB","","18","img/land4.png","75","19","2","1","1","2","0.8,0.2,0.2,0.2,0.8,0.2,0.2,0.2,0.8","0.2,0.8,0.2,0.2,0.2,0.8,0.8,0.2,0.2","3","",""
"","html-keyboard-response","249","61992","0.0-249.0","3RYC5T2D74F2225U9D2NOPR6KR9PRG","A3LIRS1WMRIP9P","36U4VBVNQOZD8NFWZXWF9CIHKRIURB","","null","<img src=""img/land4.png"" style=""width:200px; border:14px solid green;"">","null","","","","","","","","","",""
"","image-keyboard-response","250","62011","0.0-250.0","3RYC5T2D74F2225U9D2NOPR6KR9PRG","A3LIRS1WMRIP9P","36U4VBVNQOZD8NFWZXWF9CIHKRIURB","","19","img/land4.png","75","19","2","1","1","2","0.8,0.2,0.2,0.2,0.8,0.2,0.2,0.2,0.8","0.2,0.8,0.2,0.2,0.2,0.8,0.8,0.2,0.2","3","",""
"","html-keyboard-response","251","62311","0.0-251.0","3RYC5T2D74F2225U9D2NOPR6KR9PRG","A3LIRS1WMRIP9P","36U4VBVNQOZD8NFWZXWF9CIHKRIURB","","null","<img src=""img/land4.png"" style=""width:200px; border:14px solid green;"">","null","","","","","","","","","",""
"","image-keyboard-response","252","62331","0.0-252.0","3RYC5T2D74F2225U9D2NOPR6KR9PRG","A3LIRS1WMRIP9P","36U4VBVNQOZD8NFWZXWF9CIHKRIURB","","19","img/land6.png","75","20","2","0","2","2","0.8,0.2,0.2,0.2,0.8,0.2,0.2,0.2,0.8","0.2,0.8,0.2,0.2,0.2,0.8,0.8,0.2,0.2","3","",""
"","html-keyboard-response","253","62656","0.0-253.0","3RYC5T2D74F2225U9D2NOPR6KR9PRG","A3LIRS1WMRIP9P","36U4VBVNQOZD8NFWZXWF9CIHKRIURB","","null","<img src=""img/land6.png"" style=""width:200px;border:14px solid red;"">","null","","","","","","","","","",""
"","image-keyboard-response","254","62683","0.0-254.0","3RYC5T2D74F2225U9D2NOPR6KR9PRG","A3LIRS1WMRIP9P","36U4VBVNQOZD8NFWZXWF9CIHKRIURB","","22","img/land4.png","76","25","3","1","1","2","0.8,0.2,0.2,0.2,0.8,0.2,0.2,0.2,0.8","0.2,0.8,0.2,0.2,0.2,0.8,0.8,0.2,0.2","3","",""
"","html-keyboard-response","255","62985","0.0-255.0","3RYC5T2D74F2225U9D2NOPR6KR9PRG","A3LIRS1WMRIP9P","36U4VBVNQOZD8NFWZXWF9CIHKRIURB","","null","<img src=""img/land4.png"" style=""width:200px; border:14px solid green;"">","null","","","","","","","","","",""
"","image-keyboard-response","256","63151","0.0-256.0","3RYC5T2D74F2225U9D2NOPR6KR9PRG","A3LIRS1WMRIP9P","36U4VBVNQOZD8NFWZXWF9CIHKRIURB","","165","img/land4.png","74","166","1","0","1","2","0.8,0.2,0.2,0.2,0.8,0.2,0.2,0.2,0.8","0.2,0.8,0.2,0.2,0.2,0.8,0.8,0.2,0.2","3","",""
"","html-keyboard-response","257","63459","0.0-257.0","3RYC5T2D74F2225U9D2NOPR6KR9PRG","A3LIRS1WMRIP9P","36U4VBVNQOZD8NFWZXWF9CIHKRIURB","","null","<img src=""img/land4.png"" style=""width:200px;border:14px solid red;"">","null","","","","","","","","","",""
"","image-keyboard-response","258","63478","0.0-258.0","3RYC5T2D74F2225U9D2NOPR6KR9PRG","A3LIRS1WMRIP9P","36U4VBVNQOZD8NFWZXWF9CIHKRIURB","","17","img/land4.png","74","19","1","0","1","2","0.8,0.2,0.2,0.2,0.8,0.2,0.2,0.2,0.8","0.2,0.8,0.2,0.2,0.2,0.8,0.8,0.2,0.2","3","",""
"","html-keyboard-response","259","63780","0.0-259.0","3RYC5T2D74F2225U9D2NOPR6KR9PRG","A3LIRS1WMRIP9P","36U4VBVNQOZD8NFWZXWF9CIHKRIURB","","null","<img src=""img/land4.png"" style=""width:200px;border:14px solid red;"">","null","","","","","","","","","",""
"","image-keyboard-response","260","63991","0.0-260.0","3RYC5T2D74F2225U9D2NOPR6KR9PRG","A3LIRS1WMRIP9P","36U4VBVNQOZD8NFWZXWF9CIHKRIURB","","210","img/land4.png","74","211","1","0","1","2","0.8,0.2,0.2,0.2,0.8,0.2,0.2,0.2,0.8","0.2,0.8,0.2,0.2,0.2,0.8,0.8,0.2,0.2","3","",""
"","html-keyboard-response","261","64292","0.0-261.0","3RYC5T2D74F2225U9D2NOPR6KR9PRG","A3LIRS1WMRIP9P","36U4VBVNQOZD8NFWZXWF9CIHKRIURB","","null","<img src=""img/land4.png"" style=""width:200px;border:14px solid red;"">","null","","","","","","","","","",""
"","image-keyboard-response","262","64310","0.0-262.0","3RYC5T2D74F2225U9D2NOPR6KR9PRG","A3LIRS1WMRIP9P","36U4VBVNQOZD8NFWZXWF9CIHKRIURB","","18","img/land4.png","76","18","3","0","1","2","0.8,0.2,0.2,0.2,0.8,0.2,0.2,0.2,0.8","0.2,0.8,0.2,0.2,0.2,0.8,0.8,0.2,0.2","3","",""
"","html-keyboard-response","263","64611","0.0-263.0","3RYC5T2D74F2225U9D2NOPR6KR9PRG","A3LIRS1WMRIP9P","36U4VBVNQOZD8NFWZXWF9CIHKRIURB","","null","<img src=""img/land4.png"" style=""width:200px;border:14px solid red;"">","null","","","","","","","","","",""
"","image-keyboard-response","264","64626","0.0-264.0","3RYC5T2D74F2225U9D2NOPR6KR9PRG","A3LIRS1WMRIP9P","36U4VBVNQOZD8NFWZXWF9CIHKRIURB","","13","img/land4.png","74","14","1","1","1","2","0.8,0.2,0.2,0.2,0.8,0.2,0.2,0.2,0.8","0.2,0.8,0.2,0.2,0.2,0.8,0.8,0.2,0.2","3","",""
"","html-keyboard-response","265","64929","0.0-265.0","3RYC5T2D74F2225U9D2NOPR6KR9PRG","A3LIRS1WMRIP9P","36U4VBVNQOZD8NFWZXWF9CIHKRIURB","","null","<img src=""img/land4.png"" style=""width:200px; border:14px solid green;"">","null","","","","","","","","","",""
"","image-keyboard-response","266","64937","0.0-266.0","3RYC5T2D74F2225U9D2NOPR6KR9PRG","A3LIRS1WMRIP9P","36U4VBVNQOZD8NFWZXWF9CIHKRIURB","","7","img/land4.png","76","8","3","0","1","2","0.8,0.2,0.2,0.2,0.8,0.2,0.2,0.2,0.8","0.2,0.8,0.2,0.2,0.2,0.8,0.8,0.2,0.2","3","",""
"","html-keyboard-response","267","65239","0.0-267.0","3RYC5T2D74F2225U9D2NOPR6KR9PRG","A3LIRS1WMRIP9P","36U4VBVNQOZD8NFWZXWF9CIHKRIURB","","null","<img src=""img/land4.png"" style=""width:200px;border:14px solid red;"">","null","","","","","","","","","",""
"","image-keyboard-response","268","65377","0.0-268.0","3RYC5T2D74F2225U9D2NOPR6KR9PRG","A3LIRS1WMRIP9P","36U4VBVNQOZD8NFWZXWF9CIHKRIURB","","138","img/land4.png","74","139","1","0","1","2","0.8,0.2,0.2,0.2,0.8,0.2,0.2,0.2,0.8","0.2,0.8,0.2,0.2,0.2,0.8,0.8,0.2,0.2","3","",""
"","html-keyboard-response","269","65678","0.0-269.0","3RYC5T2D74F2225U9D2NOPR6KR9PRG","A3LIRS1WMRIP9P","36U4VBVNQOZD8NFWZXWF9CIHKRIURB","","null","<img src=""img/land4.png"" style=""width:200px;border:14px solid red;"">","null","","","","","","","","","",""
"","image-keyboard-response","270","65740","0.0-270.0","3RYC5T2D74F2225U9D2NOPR6KR9PRG","A3LIRS1WMRIP9P","36U4VBVNQOZD8NFWZXWF9CIHKRIURB","","61","img/land4.png","74","62","1","0","1","2","0.8,0.2,0.2,0.2,0.8,0.2,0.2,0.2,0.8","0.2,0.8,0.2,0.2,0.2,0.8,0.8,0.2,0.2","3","",""
"","html-keyboard-response","271","66041","0.0-271.0","3RYC5T2D74F2225U9D2NOPR6KR9PRG","A3LIRS1WMRIP9P","36U4VBVNQOZD8NFWZXWF9CIHKRIURB","","null","<img src=""img/land4.png"" style=""width:200px;border:14px solid red;"">","null","","","","","","","","","",""
"","image-keyboard-response","272","66131","0.0-272.0","3RYC5T2D74F2225U9D2NOPR6KR9PRG","A3LIRS1WMRIP9P","36U4VBVNQOZD8NFWZXWF9CIHKRIURB","","89","img/land4.png","74","90","1","0","1","2","0.8,0.2,0.2,0.2,0.8,0.2,0.2,0.2,0.8","0.2,0.8,0.2,0.2,0.2,0.8,0.8,0.2,0.2","3","",""
"","html-keyboard-response","273","66432","0.0-273.0","3RYC5T2D74F2225U9D2NOPR6KR9PRG","A3LIRS1WMRIP9P","36U4VBVNQOZD8NFWZXWF9CIHKRIURB","","null","<img src=""img/land4.png"" style=""width:200px;border:14px solid red;"">","null","","","","","","","","","",""
"","image-keyboard-response","274","66512","0.0-274.0","3RYC5T2D74F2225U9D2NOPR6KR9PRG","A3LIRS1WMRIP9P","36U4VBVNQOZD8NFWZXWF9CIHKRIURB","","80","img/land6.png","74","80","1","0","2","2","0.8,0.2,0.2,0.2,0.8,0.2,0.2,0.2,0.8","0.2,0.8,0.2,0.2,0.2,0.8,0.8,0.2,0.2","3","",""
"","html-keyboard-response","275","66814","0.0-275.0","3RYC5T2D74F2225U9D2NOPR6KR9PRG","A3LIRS1WMRIP9P","36U4VBVNQOZD8NFWZXWF9CIHKRIURB","","null","<img src=""img/land6.png"" style=""width:200px;border:14px solid red;"">","null","","","","","","","","","",""
"","image-keyboard-response","276","66911","0.0-276.0","3RYC5T2D74F2225U9D2NOPR6KR9PRG","A3LIRS1WMRIP9P","36U4VBVNQOZD8NFWZXWF9CIHKRIURB","","95","img/land4.png","74","97","1","0","1","2","0.8,0.2,0.2,0.2,0.8,0.2,0.2,0.2,0.8","0.2,0.8,0.2,0.2,0.2,0.8,0.8,0.2,0.2","3","",""
"","html-keyboard-response","277","67212","0.0-277.0","3RYC5T2D74F2225U9D2NOPR6KR9PRG","A3LIRS1WMRIP9P","36U4VBVNQOZD8NFWZXWF9CIHKRIURB","","null","<img src=""img/land4.png"" style=""width:200px;border:14px solid red;"">","null","","","","","","","","","",""
"","image-keyboard-response","278","67331","0.0-278.0","3RYC5T2D74F2225U9D2NOPR6KR9PRG","A3LIRS1WMRIP9P","36U4VBVNQOZD8NFWZXWF9CIHKRIURB","","118","img/land4.png","74","119","1","1","1","2","0.8,0.2,0.2,0.2,0.8,0.2,0.2,0.2,0.8","0.2,0.8,0.2,0.2,0.2,0.8,0.8,0.2,0.2","3","",""
"","html-keyboard-response","279","67633","0.0-279.0","3RYC5T2D74F2225U9D2NOPR6KR9PRG","A3LIRS1WMRIP9P","36U4VBVNQOZD8NFWZXWF9CIHKRIURB","","null","<img src=""img/land4.png"" style=""width:200px; border:14px solid green;"">","null","","","","","","","","","",""
"","image-keyboard-response","280","67720","0.0-280.0","3RYC5T2D74F2225U9D2NOPR6KR9PRG","A3LIRS1WMRIP9P","36U4VBVNQOZD8NFWZXWF9CIHKRIURB","","86","img/land2.png","74","87","1","1","3","2","0.8,0.2,0.2,0.2,0.8,0.2,0.2,0.2,0.8","0.2,0.8,0.2,0.2,0.2,0.8,0.8,0.2,0.2","3","",""
"","html-keyboard-response","281","68022","0.0-281.0","3RYC5T2D74F2225U9D2NOPR6KR9PRG","A3LIRS1WMRIP9P","36U4VBVNQOZD8NFWZXWF9CIHKRIURB","","null","<img src=""img/land2.png"" style=""width:200px; border:14px solid green;"">","null","","","","","","","","","",""
"","image-keyboard-response","282","68150","0.0-282.0","3RYC5T2D74F2225U9D2NOPR6KR9PRG","A3LIRS1WMRIP9P","36U4VBVNQOZD8NFWZXWF9CIHKRIURB","","127","img/land6.png","74","128","1","0","2","2","0.8,0.2,0.2,0.2,0.8,0.2,0.2,0.2,0.8","0.2,0.8,0.2,0.2,0.2,0.8,0.8,0.2,0.2","3","",""
"","html-keyboard-response","283","68452","0.0-283.0","3RYC5T2D74F2225U9D2NOPR6KR9PRG","A3LIRS1WMRIP9P","36U4VBVNQOZD8NFWZXWF9CIHKRIURB","","null","<img src=""img/land6.png"" style=""width:200px;border:14px solid red;"">","null","","","","","","","","","",""
"","image-keyboard-response","284","68591","0.0-284.0","3RYC5T2D74F2225U9D2NOPR6KR9PRG","A3LIRS1WMRIP9P","36U4VBVNQOZD8NFWZXWF9CIHKRIURB","","139","img/land4.png","74","139","1","1","1","2","0.8,0.2,0.2,0.2,0.8,0.2,0.2,0.2,0.8","0.2,0.8,0.2,0.2,0.2,0.8,0.8,0.2,0.2","3","",""
"","html-keyboard-response","285","68893","0.0-285.0","3RYC5T2D74F2225U9D2NOPR6KR9PRG","A3LIRS1WMRIP9P","36U4VBVNQOZD8NFWZXWF9CIHKRIURB","","null","<img src=""img/land4.png"" style=""width:200px; border:14px solid green;"">","null","","","","","","","","","",""
"","image-keyboard-response","286","68971","0.0-286.0","3RYC5T2D74F2225U9D2NOPR6KR9PRG","A3LIRS1WMRIP9P","36U4VBVNQOZD8NFWZXWF9CIHKRIURB","","77","img/land6.png","74","77","1","0","2","2","0.8,0.2,0.2,0.2,0.8,0.2,0.2,0.2,0.8","0.2,0.8,0.2,0.2,0.2,0.8,0.8,0.2,0.2","3","",""
"","html-keyboard-response","287","69273","0.0-287.0","3RYC5T2D74F2225U9D2NOPR6KR9PRG","A3LIRS1WMRIP9P","36U4VBVNQOZD8NFWZXWF9CIHKRIURB","","null","<img src=""img/land6.png"" style=""width:200px;border:14px solid red;"">","null","","","","","","","","","",""
"","image-keyboard-response","288","69322","0.0-288.0","3RYC5T2D74F2225U9D2NOPR6KR9PRG","A3LIRS1WMRIP9P","36U4VBVNQOZD8NFWZXWF9CIHKRIURB","","49","img/land4.png","74","49","1","0","1","2","0.8,0.2,0.2,0.2,0.8,0.2,0.2,0.2,0.8","0.2,0.8,0.2,0.2,0.2,0.8,0.8,0.2,0.2","3","",""
"","html-keyboard-response","289","69623","0.0-289.0","3RYC5T2D74F2225U9D2NOPR6KR9PRG","A3LIRS1WMRIP9P","36U4VBVNQOZD8NFWZXWF9CIHKRIURB","","null","<img src=""img/land4.png"" style=""width:200px;border:14px solid red;"">","null","","","","","","","","","",""
"","image-keyboard-response","290","69665","0.0-290.0","3RYC5T2D74F2225U9D2NOPR6KR9PRG","A3LIRS1WMRIP9P","36U4VBVNQOZD8NFWZXWF9CIHKRIURB","","36","img/land4.png","74","42","1","0","1","2","0.8,0.2,0.2,0.2,0.8,0.2,0.2,0.2,0.8","0.2,0.8,0.2,0.2,0.2,0.8,0.8,0.2,0.2","3","",""
"","html-keyboard-response","291","69965","0.0-291.0","3RYC5T2D74F2225U9D2NOPR6KR9PRG","A3LIRS1WMRIP9P","36U4VBVNQOZD8NFWZXWF9CIHKRIURB","","null","<img src=""img/land4.png"" style=""width:200px;border:14px solid red;"">","null","","","","","","","","","",""
"","image-keyboard-response","292","70011","0.0-292.0","3RYC5T2D74F2225U9D2NOPR6KR9PRG","A3LIRS1WMRIP9P","36U4VBVNQOZD8NFWZXWF9CIHKRIURB","","44","img/land6.png","74","46","1","0","2","2","0.8,0.2,0.2,0.2,0.8,0.2,0.2,0.2,0.8","0.2,0.8,0.2,0.2,0.2,0.8,0.8,0.2,0.2","3","",""
"","html-keyboard-response","293","70312","0.0-293.0","3RYC5T2D74F2225U9D2NOPR6KR9PRG","A3LIRS1WMRIP9P","36U4VBVNQOZD8NFWZXWF9CIHKRIURB","","null","<img src=""img/land6.png"" style=""width:200px;border:14px solid red;"">","null","","","","","","","","","",""
"","image-keyboard-response","294","70431","0.0-294.0","3RYC5T2D74F2225U9D2NOPR6KR9PRG","A3LIRS1WMRIP9P","36U4VBVNQOZD8NFWZXWF9CIHKRIURB","","117","img/land4.png","74","119","1","0","1","2","0.8,0.2,0.2,0.2,0.8,0.2,0.2,0.2,0.8","0.2,0.8,0.2,0.2,0.2,0.8,0.8,0.2,0.2","3","",""
"","html-keyboard-response","295","70732","0.0-295.0","3RYC5T2D74F2225U9D2NOPR6KR9PRG","A3LIRS1WMRIP9P","36U4VBVNQOZD8NFWZXWF9CIHKRIURB","","null","<img src=""img/land4.png"" style=""width:200px;border:14px solid red;"">","null","","","","","","","","","",""
"","image-keyboard-response","296","70805","0.0-296.0","3RYC5T2D74F2225U9D2NOPR6KR9PRG","A3LIRS1WMRIP9P","36U4VBVNQOZD8NFWZXWF9CIHKRIURB","","72","img/land2.png","74","73","1","1","3","2","0.8,0.2,0.2,0.2,0.8,0.2,0.2,0.2,0.8","0.2,0.8,0.2,0.2,0.2,0.8,0.8,0.2,0.2","3","",""
"","html-keyboard-response","297","71107","0.0-297.0","3RYC5T2D74F2225U9D2NOPR6KR9PRG","A3LIRS1WMRIP9P","36U4VBVNQOZD8NFWZXWF9CIHKRIURB","","null","<img src=""img/land2.png"" style=""width:200px; border:14px solid green;"">","null","","","","","","","","","",""
"","image-keyboard-response","298","71150","0.0-298.0","3RYC5T2D74F2225U9D2NOPR6KR9PRG","A3LIRS1WMRIP9P","36U4VBVNQOZD8NFWZXWF9CIHKRIURB","","43","img/land6.png","74","44","1","0","2","2","0.8,0.2,0.2,0.2,0.8,0.2,0.2,0.2,0.8","0.2,0.8,0.2,0.2,0.2,0.8,0.8,0.2,0.2","3","",""
"","html-keyboard-response","299","71452","0.0-299.0","3RYC5T2D74F2225U9D2NOPR6KR9PRG","A3LIRS1WMRIP9P","36U4VBVNQOZD8NFWZXWF9CIHKRIURB","","null","<img src=""img/land6.png"" style=""width:200px;border:14px solid red;"">","null","","","","","","","","","",""
"","image-keyboard-response","300","71490","0.0-300.0","3RYC5T2D74F2225U9D2NOPR6KR9PRG","A3LIRS1WMRIP9P","36U4VBVNQOZD8NFWZXWF9CIHKRIURB","","37","img/land2.png","74","38","1","0","3","2","0.8,0.2,0.2,0.2,0.8,0.2,0.2,0.2,0.8","0.2,0.8,0.2,0.2,0.2,0.8,0.8,0.2,0.2","3","",""
"","html-keyboard-response","301","71791","0.0-301.0","3RYC5T2D74F2225U9D2NOPR6KR9PRG","A3LIRS1WMRIP9P","36U4VBVNQOZD8NFWZXWF9CIHKRIURB","","null","<img src=""img/land2.png"" style=""width:200px;border:14px solid red;"">","null","","","","","","","","","",""
"","image-keyboard-response","302","71811","0.0-302.0","3RYC5T2D74F2225U9D2NOPR6KR9PRG","A3LIRS1WMRIP9P","36U4VBVNQOZD8NFWZXWF9CIHKRIURB","","18","img/land1.png","74","20","1","0","2","1","0.8,0.2,0.2,0.2,0.8,0.2,0.2,0.2,0.8","0.8,0.2,0.2,0.2,0.8,0.2,0.2,0.2,0.8","1","",""
"","html-keyboard-response","303","72111","0.0-303.0","3RYC5T2D74F2225U9D2NOPR6KR9PRG","A3LIRS1WMRIP9P","36U4VBVNQOZD8NFWZXWF9CIHKRIURB","","null","<img src=""img/land1.png"" style=""width:200px;border:14px solid red;"">","null","","","","","","","","","",""
"","image-keyboard-response","304","72170","0.0-304.0","3RYC5T2D74F2225U9D2NOPR6KR9PRG","A3LIRS1WMRIP9P","36U4VBVNQOZD8NFWZXWF9CIHKRIURB","","59","img/land5.png","75","59","2","0","3","1","0.8,0.2,0.2,0.2,0.8,0.2,0.2,0.2,0.8","0.8,0.2,0.2,0.2,0.8,0.2,0.2,0.2,0.8","1","",""
"","html-keyboard-response","305","72472","0.0-305.0","3RYC5T2D74F2225U9D2NOPR6KR9PRG","A3LIRS1WMRIP9P","36U4VBVNQOZD8NFWZXWF9CIHKRIURB","","null","<img src=""img/land5.png"" style=""width:200px;border:14px solid red;"">","null","","","","","","","","","",""
"","image-keyboard-response","306","72671","0.0-306.0","3RYC5T2D74F2225U9D2NOPR6KR9PRG","A3LIRS1WMRIP9P","36U4VBVNQOZD8NFWZXWF9CIHKRIURB","","199","img/land3.png","74","199","1","0","1","1","0.8,0.2,0.2,0.2,0.8,0.2,0.2,0.2,0.8","0.8,0.2,0.2,0.2,0.8,0.2,0.2,0.2,0.8","1","",""
"","html-keyboard-response","307","72973","0.0-307.0","3RYC5T2D74F2225U9D2NOPR6KR9PRG","A3LIRS1WMRIP9P","36U4VBVNQOZD8NFWZXWF9CIHKRIURB","","null","<img src=""img/land3.png"" style=""width:200px;border:14px solid red;"">","null","","","","","","","","","",""
"","image-keyboard-response","308","73010","0.0-308.0","3RYC5T2D74F2225U9D2NOPR6KR9PRG","A3LIRS1WMRIP9P","36U4VBVNQOZD8NFWZXWF9CIHKRIURB","","36","img/land1.png","75","37","2","1","2","1","0.8,0.2,0.2,0.2,0.8,0.2,0.2,0.2,0.8","0.8,0.2,0.2,0.2,0.8,0.2,0.2,0.2,0.8","1","",""
"","html-keyboard-response","309","73312","0.0-309.0","3RYC5T2D74F2225U9D2NOPR6KR9PRG","A3LIRS1WMRIP9P","36U4VBVNQOZD8NFWZXWF9CIHKRIURB","","null","<img src=""img/land1.png"" style=""width:200px; border:14px solid green;"">","null","","","","","","","","","",""
"","image-keyboard-response","310","73490","0.0-310.0","3RYC5T2D74F2225U9D2NOPR6KR9PRG","A3LIRS1WMRIP9P","36U4VBVNQOZD8NFWZXWF9CIHKRIURB","","178","img/land5.png","74","178","1","0","3","1","0.8,0.2,0.2,0.2,0.8,0.2,0.2,0.2,0.8","0.8,0.2,0.2,0.2,0.8,0.2,0.2,0.2,0.8","1","",""
"","html-keyboard-response","311","73792","0.0-311.0","3RYC5T2D74F2225U9D2NOPR6KR9PRG","A3LIRS1WMRIP9P","36U4VBVNQOZD8NFWZXWF9CIHKRIURB","","null","<img src=""img/land5.png"" style=""width:200px;border:14px solid red;"">","null","","","","","","","","","",""
"","image-keyboard-response","312","73831","0.0-312.0","3RYC5T2D74F2225U9D2NOPR6KR9PRG","A3LIRS1WMRIP9P","36U4VBVNQOZD8NFWZXWF9CIHKRIURB","","36","img/land1.png","76","38","3","0","2","1","0.8,0.2,0.2,0.2,0.8,0.2,0.2,0.2,0.8","0.8,0.2,0.2,0.2,0.8,0.2,0.2,0.2,0.8","1","",""
"","html-keyboard-response","313","74132","0.0-313.0","3RYC5T2D74F2225U9D2NOPR6KR9PRG","A3LIRS1WMRIP9P","36U4VBVNQOZD8NFWZXWF9CIHKRIURB","","null","<img src=""img/land1.png"" style=""width:200px;border:14px solid red;"">","null","","","","","","","","","",""
"","image-keyboard-response","314","74291","0.0-314.0","3RYC5T2D74F2225U9D2NOPR6KR9PRG","A3LIRS1WMRIP9P","36U4VBVNQOZD8NFWZXWF9CIHKRIURB","","158","img/land1.png","76","159","3","0","2","1","0.8,0.2,0.2,0.2,0.8,0.2,0.2,0.2,0.8","0.8,0.2,0.2,0.2,0.8,0.2,0.2,0.2,0.8","1","",""
"","html-keyboard-response","315","74591","0.0-315.0","3RYC5T2D74F2225U9D2NOPR6KR9PRG","A3LIRS1WMRIP9P","36U4VBVNQOZD8NFWZXWF9CIHKRIURB","","null","<img src=""img/land1.png"" style=""width:200px;border:14px solid red;"">","null","","","","","","","","","",""
"","image-keyboard-response","316","74761","0.0-316.0","3RYC5T2D74F2225U9D2NOPR6KR9PRG","A3LIRS1WMRIP9P","36U4VBVNQOZD8NFWZXWF9CIHKRIURB","","170","img/land3.png","74","170","1","1","1","1","0.8,0.2,0.2,0.2,0.8,0.2,0.2,0.2,0.8","0.8,0.2,0.2,0.2,0.8,0.2,0.2,0.2,0.8","1","",""
"","html-keyboard-response","317","75063","0.0-317.0","3RYC5T2D74F2225U9D2NOPR6KR9PRG","A3LIRS1WMRIP9P","36U4VBVNQOZD8NFWZXWF9CIHKRIURB","","null","<img src=""img/land3.png"" style=""width:200px; border:14px solid green;"">","null","","","","","","","","","",""
"","image-keyboard-response","318","75232","0.0-318.0","3RYC5T2D74F2225U9D2NOPR6KR9PRG","A3LIRS1WMRIP9P","36U4VBVNQOZD8NFWZXWF9CIHKRIURB","","169","img/land3.png","74","169","1","1","1","1","0.8,0.2,0.2,0.2,0.8,0.2,0.2,0.2,0.8","0.8,0.2,0.2,0.2,0.8,0.2,0.2,0.2,0.8","1","",""
"","html-keyboard-response","319","75533","0.0-319.0","3RYC5T2D74F2225U9D2NOPR6KR9PRG","A3LIRS1WMRIP9P","36U4VBVNQOZD8NFWZXWF9CIHKRIURB","","null","<img src=""img/land3.png"" style=""width:200px; border:14px solid green;"">","null","","","","","","","","","",""
"","image-keyboard-response","320","75553","0.0-320.0","3RYC5T2D74F2225U9D2NOPR6KR9PRG","A3LIRS1WMRIP9P","36U4VBVNQOZD8NFWZXWF9CIHKRIURB","","19","img/land1.png","76","20","3","0","2","1","0.8,0.2,0.2,0.2,0.8,0.2,0.2,0.2,0.8","0.8,0.2,0.2,0.2,0.8,0.2,0.2,0.2,0.8","1","",""
"","html-keyboard-response","321","75854","0.0-321.0","3RYC5T2D74F2225U9D2NOPR6KR9PRG","A3LIRS1WMRIP9P","36U4VBVNQOZD8NFWZXWF9CIHKRIURB","","null","<img src=""img/land1.png"" style=""width:200px;border:14px solid red;"">","null","","","","","","","","","",""
"","image-keyboard-response","322","75991","0.0-322.0","3RYC5T2D74F2225U9D2NOPR6KR9PRG","A3LIRS1WMRIP9P","36U4VBVNQOZD8NFWZXWF9CIHKRIURB","","136","img/land5.png","74","137","1","0","3","1","0.8,0.2,0.2,0.2,0.8,0.2,0.2,0.2,0.8","0.8,0.2,0.2,0.2,0.8,0.2,0.2,0.2,0.8","1","",""
"","html-keyboard-response","323","76291","0.0-323.0","3RYC5T2D74F2225U9D2NOPR6KR9PRG","A3LIRS1WMRIP9P","36U4VBVNQOZD8NFWZXWF9CIHKRIURB","","null","<img src=""img/land5.png"" style=""width:200px;border:14px solid red;"">","null","","","","","","","","","",""
"","image-keyboard-response","324","76491","0.0-324.0","3RYC5T2D74F2225U9D2NOPR6KR9PRG","A3LIRS1WMRIP9P","36U4VBVNQOZD8NFWZXWF9CIHKRIURB","","198","img/land5.png","74","200","1","0","3","1","0.8,0.2,0.2,0.2,0.8,0.2,0.2,0.2,0.8","0.8,0.2,0.2,0.2,0.8,0.2,0.2,0.2,0.8","1","",""
"","html-keyboard-response","325","76791","0.0-325.0","3RYC5T2D74F2225U9D2NOPR6KR9PRG","A3LIRS1WMRIP9P","36U4VBVNQOZD8NFWZXWF9CIHKRIURB","","null","<img src=""img/land5.png"" style=""width:200px;border:14px solid red;"">","null","","","","","","","","","",""
"","image-keyboard-response","326","77311","0.0-326.0","3RYC5T2D74F2225U9D2NOPR6KR9PRG","A3LIRS1WMRIP9P","36U4VBVNQOZD8NFWZXWF9CIHKRIURB","","519","img/land1.png","74","520","1","0","2","1","0.8,0.2,0.2,0.2,0.8,0.2,0.2,0.2,0.8","0.8,0.2,0.2,0.2,0.8,0.2,0.2,0.2,0.8","1","",""
"","html-keyboard-response","327","77611","0.0-327.0","3RYC5T2D74F2225U9D2NOPR6KR9PRG","A3LIRS1WMRIP9P","36U4VBVNQOZD8NFWZXWF9CIHKRIURB","","null","<img src=""img/land1.png"" style=""width:200px;border:14px solid red;"">","null","","","","","","","","","",""
"","image-keyboard-response","328","77631","0.0-328.0","3RYC5T2D74F2225U9D2NOPR6KR9PRG","A3LIRS1WMRIP9P","36U4VBVNQOZD8NFWZXWF9CIHKRIURB","","19","img/land1.png","75","20","2","1","2","1","0.8,0.2,0.2,0.2,0.8,0.2,0.2,0.2,0.8","0.8,0.2,0.2,0.2,0.8,0.2,0.2,0.2,0.8","1","",""
"","html-keyboard-response","329","77932","0.0-329.0","3RYC5T2D74F2225U9D2NOPR6KR9PRG","A3LIRS1WMRIP9P","36U4VBVNQOZD8NFWZXWF9CIHKRIURB","","null","<img src=""img/land1.png"" style=""width:200px; border:14px solid green;"">","null","","","","","","","","","",""
"","image-keyboard-response","330","78051","0.0-330.0","3RYC5T2D74F2225U9D2NOPR6KR9PRG","A3LIRS1WMRIP9P","36U4VBVNQOZD8NFWZXWF9CIHKRIURB","","119","img/land5.png","74","119","1","0","3","1","0.8,0.2,0.2,0.2,0.8,0.2,0.2,0.2,0.8","0.8,0.2,0.2,0.2,0.8,0.2,0.2,0.2,0.8","1","",""
"","html-keyboard-response","331","78352","0.0-331.0","3RYC5T2D74F2225U9D2NOPR6KR9PRG","A3LIRS1WMRIP9P","36U4VBVNQOZD8NFWZXWF9CIHKRIURB","","null","<img src=""img/land5.png"" style=""width:200px;border:14px solid red;"">","null","","","","","","","","","",""
"","image-keyboard-response","332","78491","0.0-332.0","3RYC5T2D74F2225U9D2NOPR6KR9PRG","A3LIRS1WMRIP9P","36U4VBVNQOZD8NFWZXWF9CIHKRIURB","","139","img/land3.png","74","139","1","1","1","1","0.8,0.2,0.2,0.2,0.8,0.2,0.2,0.2,0.8","0.8,0.2,0.2,0.2,0.8,0.2,0.2,0.2,0.8","1","",""
"","html-keyboard-response","333","78791","0.0-333.0","3RYC5T2D74F2225U9D2NOPR6KR9PRG","A3LIRS1WMRIP9P","36U4VBVNQOZD8NFWZXWF9CIHKRIURB","","null","<img src=""img/land3.png"" style=""width:200px; border:14px solid green;"">","null","","","","","","","","","",""
"","image-keyboard-response","334","78992","0.0-334.0","3RYC5T2D74F2225U9D2NOPR6KR9PRG","A3LIRS1WMRIP9P","36U4VBVNQOZD8NFWZXWF9CIHKRIURB","","201","img/land3.png","74","201","1","1","1","1","0.8,0.2,0.2,0.2,0.8,0.2,0.2,0.2,0.8","0.8,0.2,0.2,0.2,0.8,0.2,0.2,0.2,0.8","1","",""
"","html-keyboard-response","335","79294","0.0-335.0","3RYC5T2D74F2225U9D2NOPR6KR9PRG","A3LIRS1WMRIP9P","36U4VBVNQOZD8NFWZXWF9CIHKRIURB","","null","<img src=""img/land3.png"" style=""width:200px; border:14px solid green;"">","null","","","","","","","","","",""
"","image-keyboard-response","336","79370","0.0-336.0","3RYC5T2D74F2225U9D2NOPR6KR9PRG","A3LIRS1WMRIP9P","36U4VBVNQOZD8NFWZXWF9CIHKRIURB","","76","img/land1.png","75","77","2","1","2","1","0.8,0.2,0.2,0.2,0.8,0.2,0.2,0.2,0.8","0.8,0.2,0.2,0.2,0.8,0.2,0.2,0.2,0.8","1","",""
"","html-keyboard-response","337","79672","0.0-337.0","3RYC5T2D74F2225U9D2NOPR6KR9PRG","A3LIRS1WMRIP9P","36U4VBVNQOZD8NFWZXWF9CIHKRIURB","","null","<img src=""img/land1.png"" style=""width:200px; border:14px solid green;"">","null","","","","","","","","","",""
"","image-keyboard-response","338","79691","0.0-338.0","3RYC5T2D74F2225U9D2NOPR6KR9PRG","A3LIRS1WMRIP9P","36U4VBVNQOZD8NFWZXWF9CIHKRIURB","","18","img/land3.png","76","19","3","0","1","1","0.8,0.2,0.2,0.2,0.8,0.2,0.2,0.2,0.8","0.8,0.2,0.2,0.2,0.8,0.2,0.2,0.2,0.8","1","",""
"","html-keyboard-response","339","79993","0.0-339.0","3RYC5T2D74F2225U9D2NOPR6KR9PRG","A3LIRS1WMRIP9P","36U4VBVNQOZD8NFWZXWF9CIHKRIURB","","null","<img src=""img/land3.png"" style=""width:200px;border:14px solid red;"">","null","","","","","","","","","",""
"","image-keyboard-response","340","80081","0.0-340.0","3RYC5T2D74F2225U9D2NOPR6KR9PRG","A3LIRS1WMRIP9P","36U4VBVNQOZD8NFWZXWF9CIHKRIURB","","87","img/land3.png","74","88","1","1","1","1","0.8,0.2,0.2,0.2,0.8,0.2,0.2,0.2,0.8","0.8,0.2,0.2,0.2,0.8,0.2,0.2,0.2,0.8","1","",""
"","html-keyboard-response","341","80382","0.0-341.0","3RYC5T2D74F2225U9D2NOPR6KR9PRG","A3LIRS1WMRIP9P","36U4VBVNQOZD8NFWZXWF9CIHKRIURB","","null","<img src=""img/land3.png"" style=""width:200px; border:14px solid green;"">","null","","","","","","","","","",""
"","image-keyboard-response","342","80392","0.0-342.0","3RYC5T2D74F2225U9D2NOPR6KR9PRG","A3LIRS1WMRIP9P","36U4VBVNQOZD8NFWZXWF9CIHKRIURB","","9","img/land5.png","74","10","1","1","3","1","0.8,0.2,0.2,0.2,0.8,0.2,0.2,0.2,0.8","0.8,0.2,0.2,0.2,0.8,0.2,0.2,0.2,0.8","1","",""
"","html-keyboard-response","343","80693","0.0-343.0","3RYC5T2D74F2225U9D2NOPR6KR9PRG","A3LIRS1WMRIP9P","36U4VBVNQOZD8NFWZXWF9CIHKRIURB","","null","<img src=""img/land5.png"" style=""width:200px; border:14px solid green;"">","null","","","","","","","","","",""
"","image-keyboard-response","344","80790","0.0-344.0","3RYC5T2D74F2225U9D2NOPR6KR9PRG","A3LIRS1WMRIP9P","36U4VBVNQOZD8NFWZXWF9CIHKRIURB","","96","img/land5.png","76","98","3","1","3","1","0.8,0.2,0.2,0.2,0.8,0.2,0.2,0.2,0.8","0.8,0.2,0.2,0.2,0.8,0.2,0.2,0.2,0.8","1","",""
"","html-keyboard-response","345","81092","0.0-345.0","3RYC5T2D74F2225U9D2NOPR6KR9PRG","A3LIRS1WMRIP9P","36U4VBVNQOZD8NFWZXWF9CIHKRIURB","","null","<img src=""img/land5.png"" style=""width:200px; border:14px solid green;"">","null","","","","","","","","","",""
"","image-keyboard-response","346","81220","0.0-346.0","3RYC5T2D74F2225U9D2NOPR6KR9PRG","A3LIRS1WMRIP9P","36U4VBVNQOZD8NFWZXWF9CIHKRIURB","","128","img/land1.png","74","128","1","0","2","1","0.8,0.2,0.2,0.2,0.8,0.2,0.2,0.2,0.8","0.8,0.2,0.2,0.2,0.8,0.2,0.2,0.2,0.8","1","",""
"","html-keyboard-response","347","81522","0.0-347.0","3RYC5T2D74F2225U9D2NOPR6KR9PRG","A3LIRS1WMRIP9P","36U4VBVNQOZD8NFWZXWF9CIHKRIURB","","null","<img src=""img/land1.png"" style=""width:200px;border:14px solid red;"">","null","","","","","","","","","",""
"","image-keyboard-response","348","81621","0.0-348.0","3RYC5T2D74F2225U9D2NOPR6KR9PRG","A3LIRS1WMRIP9P","36U4VBVNQOZD8NFWZXWF9CIHKRIURB","","99","img/land3.png","76","99","3","1","1","1","0.8,0.2,0.2,0.2,0.8,0.2,0.2,0.2,0.8","0.8,0.2,0.2,0.2,0.8,0.2,0.2,0.2,0.8","1","",""
"","html-keyboard-response","349","81921","0.0-349.0","3RYC5T2D74F2225U9D2NOPR6KR9PRG","A3LIRS1WMRIP9P","36U4VBVNQOZD8NFWZXWF9CIHKRIURB","","null","<img src=""img/land3.png"" style=""width:200px; border:14px solid green;"">","null","","","","","","","","","",""
"","image-keyboard-response","350","82060","0.0-350.0","3RYC5T2D74F2225U9D2NOPR6KR9PRG","A3LIRS1WMRIP9P","36U4VBVNQOZD8NFWZXWF9CIHKRIURB","","139","img/land3.png","74","139","1","0","1","1","0.8,0.2,0.2,0.2,0.8,0.2,0.2,0.2,0.8","0.8,0.2,0.2,0.2,0.8,0.2,0.2,0.2,0.8","1","",""
"","html-keyboard-response","351","82362","0.0-351.0","3RYC5T2D74F2225U9D2NOPR6KR9PRG","A3LIRS1WMRIP9P","36U4VBVNQOZD8NFWZXWF9CIHKRIURB","","null","<img src=""img/land3.png"" style=""width:200px;border:14px solid red;"">","null","","","","","","","","","",""
"","image-keyboard-response","352","82370","0.0-352.0","3RYC5T2D74F2225U9D2NOPR6KR9PRG","A3LIRS1WMRIP9P","36U4VBVNQOZD8NFWZXWF9CIHKRIURB","","8","img/land5.png","74","8","1","0","3","1","0.8,0.2,0.2,0.2,0.8,0.2,0.2,0.2,0.8","0.8,0.2,0.2,0.2,0.8,0.2,0.2,0.2,0.8","1","",""
"","html-keyboard-response","353","82672","0.0-353.0","3RYC5T2D74F2225U9D2NOPR6KR9PRG","A3LIRS1WMRIP9P","36U4VBVNQOZD8NFWZXWF9CIHKRIURB","","null","<img src=""img/land5.png"" style=""width:200px;border:14px solid red;"">","null","","","","","","","","","",""
"","image-keyboard-response","354","82741","0.0-354.0","3RYC5T2D74F2225U9D2NOPR6KR9PRG","A3LIRS1WMRIP9P","36U4VBVNQOZD8NFWZXWF9CIHKRIURB","","68","img/land3.png","75","69","2","0","1","1","0.8,0.2,0.2,0.2,0.8,0.2,0.2,0.2,0.8","0.8,0.2,0.2,0.2,0.8,0.2,0.2,0.2,0.8","1","",""
"","html-keyboard-response","355","83043","0.0-355.0","3RYC5T2D74F2225U9D2NOPR6KR9PRG","A3LIRS1WMRIP9P","36U4VBVNQOZD8NFWZXWF9CIHKRIURB","","null","<img src=""img/land3.png"" style=""width:200px;border:14px solid red;"">","null","","","","","","","","","",""
"","image-keyboard-response","356","83190","0.0-356.0","3RYC5T2D74F2225U9D2NOPR6KR9PRG","A3LIRS1WMRIP9P","36U4VBVNQOZD8NFWZXWF9CIHKRIURB","","147","img/land1.png","74","148","1","0","2","1","0.8,0.2,0.2,0.2,0.8,0.2,0.2,0.2,0.8","0.8,0.2,0.2,0.2,0.8,0.2,0.2,0.2,0.8","1","",""
"","html-keyboard-response","357","83492","0.0-357.0","3RYC5T2D74F2225U9D2NOPR6KR9PRG","A3LIRS1WMRIP9P","36U4VBVNQOZD8NFWZXWF9CIHKRIURB","","null","<img src=""img/land1.png"" style=""width:200px;border:14px solid red;"">","null","","","","","","","","","",""
"","image-keyboard-response","358","83533","0.0-358.0","3RYC5T2D74F2225U9D2NOPR6KR9PRG","A3LIRS1WMRIP9P","36U4VBVNQOZD8NFWZXWF9CIHKRIURB","","41","img/land1.png","76","42","3","0","2","1","0.8,0.2,0.2,0.2,0.8,0.2,0.2,0.2,0.8","0.8,0.2,0.2,0.2,0.8,0.2,0.2,0.2,0.8","1","",""
"","html-keyboard-response","359","83834","0.0-359.0","3RYC5T2D74F2225U9D2NOPR6KR9PRG","A3LIRS1WMRIP9P","36U4VBVNQOZD8NFWZXWF9CIHKRIURB","","null","<img src=""img/land1.png"" style=""width:200px;border:14px solid red;"">","null","","","","","","","","","",""
"","image-keyboard-response","360","83837","0.0-360.0","3RYC5T2D74F2225U9D2NOPR6KR9PRG","A3LIRS1WMRIP9P","36U4VBVNQOZD8NFWZXWF9CIHKRIURB","","2","img/land3.png","75","3","2","0","1","1","0.8,0.2,0.2,0.2,0.8,0.2,0.2,0.2,0.8","0.8,0.2,0.2,0.2,0.8,0.2,0.2,0.2,0.8","1","",""
"","html-keyboard-response","361","84138","0.0-361.0","3RYC5T2D74F2225U9D2NOPR6KR9PRG","A3LIRS1WMRIP9P","36U4VBVNQOZD8NFWZXWF9CIHKRIURB","","null","<img src=""img/land3.png"" style=""width:200px;border:14px solid red;"">","null","","","","","","","","","",""
"","image-keyboard-response","362","84270","0.0-362.0","3RYC5T2D74F2225U9D2NOPR6KR9PRG","A3LIRS1WMRIP9P","36U4VBVNQOZD8NFWZXWF9CIHKRIURB","","132","img/land3.png","74","133","1","1","1","1","0.8,0.2,0.2,0.2,0.8,0.2,0.2,0.2,0.8","0.8,0.2,0.2,0.2,0.8,0.2,0.2,0.2,0.8","1","",""
"","html-keyboard-response","363","84573","0.0-363.0","3RYC5T2D74F2225U9D2NOPR6KR9PRG","A3LIRS1WMRIP9P","36U4VBVNQOZD8NFWZXWF9CIHKRIURB","","null","<img src=""img/land3.png"" style=""width:200px; border:14px solid green;"">","null","","","","","","","","","",""
"","image-keyboard-response","364","84591","0.0-364.0","3RYC5T2D74F2225U9D2NOPR6KR9PRG","A3LIRS1WMRIP9P","36U4VBVNQOZD8NFWZXWF9CIHKRIURB","","17","img/land3.png","75","18","2","0","1","1","0.8,0.2,0.2,0.2,0.8,0.2,0.2,0.2,0.8","0.8,0.2,0.2,0.2,0.8,0.2,0.2,0.2,0.8","1","",""
"","html-keyboard-response","365","84895","0.0-365.0","3RYC5T2D74F2225U9D2NOPR6KR9PRG","A3LIRS1WMRIP9P","36U4VBVNQOZD8NFWZXWF9CIHKRIURB","","null","<img src=""img/land3.png"" style=""width:200px;border:14px solid red;"">","null","","","","","","","","","",""
"","image-keyboard-response","366","85070","0.0-366.0","3RYC5T2D74F2225U9D2NOPR6KR9PRG","A3LIRS1WMRIP9P","36U4VBVNQOZD8NFWZXWF9CIHKRIURB","","174","img/land1.png","74","175","1","0","2","1","0.8,0.2,0.2,0.2,0.8,0.2,0.2,0.2,0.8","0.8,0.2,0.2,0.2,0.8,0.2,0.2,0.2,0.8","1","",""
"","html-keyboard-response","367","85372","0.0-367.0","3RYC5T2D74F2225U9D2NOPR6KR9PRG","A3LIRS1WMRIP9P","36U4VBVNQOZD8NFWZXWF9CIHKRIURB","","null","<img src=""img/land1.png"" style=""width:200px;border:14px solid red;"">","null","","","","","","","","","",""
"","image-keyboard-response","368","85391","0.0-368.0","3RYC5T2D74F2225U9D2NOPR6KR9PRG","A3LIRS1WMRIP9P","36U4VBVNQOZD8NFWZXWF9CIHKRIURB","","18","img/land3.png","74","19","1","1","1","1","0.8,0.2,0.2,0.2,0.8,0.2,0.2,0.2,0.8","0.8,0.2,0.2,0.2,0.8,0.2,0.2,0.2,0.8","1","",""
"","html-keyboard-response","369","85711","0.0-369.0","3RYC5T2D74F2225U9D2NOPR6KR9PRG","A3LIRS1WMRIP9P","36U4VBVNQOZD8NFWZXWF9CIHKRIURB","","null","<img src=""img/land3.png"" style=""width:200px; border:14px solid green;"">","null","","","","","","","","","",""
"","image-keyboard-response","370","85724","0.0-370.0","3RYC5T2D74F2225U9D2NOPR6KR9PRG","A3LIRS1WMRIP9P","36U4VBVNQOZD8NFWZXWF9CIHKRIURB","","12","img/land5.png","74","13","1","0","3","1","0.8,0.2,0.2,0.2,0.8,0.2,0.2,0.2,0.8","0.8,0.2,0.2,0.2,0.8,0.2,0.2,0.2,0.8","1","",""
"","html-keyboard-response","371","86026","0.0-371.0","3RYC5T2D74F2225U9D2NOPR6KR9PRG","A3LIRS1WMRIP9P","36U4VBVNQOZD8NFWZXWF9CIHKRIURB","","null","<img src=""img/land5.png"" style=""width:200px;border:14px solid red;"">","null","","","","","","","","","",""
"","image-keyboard-response","372","86151","0.0-372.0","3RYC5T2D74F2225U9D2NOPR6KR9PRG","A3LIRS1WMRIP9P","36U4VBVNQOZD8NFWZXWF9CIHKRIURB","","124","img/land3.png","74","125","1","1","1","1","0.8,0.2,0.2,0.2,0.8,0.2,0.2,0.2,0.8","0.8,0.2,0.2,0.2,0.8,0.2,0.2,0.2,0.8","1","",""
