"success","trial_type","trial_index","time_elapsed","internal_node_id","assignmentID","mturkID","hitID","view_history","rt","stimulus","key_press","reactionTime","a","r","s","cond","reward_cond","reward_cond_actual","reward_matrix_idx","responses","question_order"
"true","fullscreen","0","2522","0.0-0.0","37W3JXSD67U1JCEHZU8COFSZFE2WY0","A3LVLZS8S41ZD7","3THR0FZ95PF7SK0MYRNAOUHTWA4OLV","","","","","","","","","","","","","",""
"","instructions","1","62315","0.0-1.0","37W3JXSD67U1JCEHZU8COFSZFE2WY0","A3LVLZS8S41ZD7","3THR0FZ95PF7SK0MYRNAOUHTWA4OLV","[{""page_index"":0,""viewing_time"":8574.800000011921},{""page_index"":1,""viewing_time"":6088.099999964237},{""page_index"":2,""viewing_time"":6607.900000035763},{""page_index"":3,""viewing_time"":9679.799999952316},{""page_index"":4,""viewing_time"":14047.900000035763},{""page_index"":5,""viewing_time"":9576.099999964237},{""page_index"":6,""viewing_time"":5215.700000047684}]","59790.89999997616","","","","","","","","","","","",""
"","image-keyboard-response","2","64251","0.0-2.0","37W3JXSD67U1JCEHZU8COFSZFE2WY0","A3LVLZS8S41ZD7","3THR0FZ95PF7SK0MYRNAOUHTWA4OLV","","1934.7999999523163","img/land1.png","74","1935.800000011921","1","1","1","2","1,0.7,0.7,0.7,1,0.7,0.7,0.7,1","1,0.7,0.7,0.7,1,0.7,0.7,0.7,1","","",""
"","html-keyboard-response","3","64552","0.0-3.0","37W3JXSD67U1JCEHZU8COFSZFE2WY0","A3LVLZS8S41ZD7","3THR0FZ95PF7SK0MYRNAOUHTWA4OLV","","null","<img src=""img/land1.png"" style=""width:200px; border:14px solid green;"">","null","","","","","","","","","",""
"","image-keyboard-response","4","65274","0.0-4.0","37W3JXSD67U1JCEHZU8COFSZFE2WY0","A3LVLZS8S41ZD7","3THR0FZ95PF7SK0MYRNAOUHTWA4OLV","","720.8000000119209","img/land3.png","75","721.5999999642372","2","1","3","2","1,0.7,0.7,0.7,1,0.7,0.7,0.7,1","1,0.7,0.7,0.7,1,0.7,0.7,0.7,1","","",""
"","html-keyboard-response","5","65577","0.0-5.0","37W3JXSD67U1JCEHZU8COFSZFE2WY0","A3LVLZS8S41ZD7","3THR0FZ95PF7SK0MYRNAOUHTWA4OLV","","null","<img src=""img/land3.png"" style=""width:200px; border:14px solid green;"">","null","","","","","","","","","",""
"","image-keyboard-response","6","66290","0.0-6.0","37W3JXSD67U1JCEHZU8COFSZFE2WY0","A3LVLZS8S41ZD7","3THR0FZ95PF7SK0MYRNAOUHTWA4OLV","","712.2000000476837","img/land1.png","74","712.9000000357628","1","1","1","2","1,0.7,0.7,0.7,1,0.7,0.7,0.7,1","1,0.7,0.7,0.7,1,0.7,0.7,0.7,1","","",""
"","html-keyboard-response","7","66593","0.0-7.0","37W3JXSD67U1JCEHZU8COFSZFE2WY0","A3LVLZS8S41ZD7","3THR0FZ95PF7SK0MYRNAOUHTWA4OLV","","null","<img src=""img/land1.png"" style=""width:200px; border:14px solid green;"">","null","","","","","","","","","",""
"","image-keyboard-response","8","67362","0.0-8.0","37W3JXSD67U1JCEHZU8COFSZFE2WY0","A3LVLZS8S41ZD7","3THR0FZ95PF7SK0MYRNAOUHTWA4OLV","","767.8999999761581","img/land2.png","74","768.6999999880791","1","1","2","2","1,0.7,0.7,0.7,1,0.7,0.7,0.7,1","1,0.7,0.7,0.7,1,0.7,0.7,0.7,1","","",""
"","html-keyboard-response","9","67664","0.0-9.0","37W3JXSD67U1JCEHZU8COFSZFE2WY0","A3LVLZS8S41ZD7","3THR0FZ95PF7SK0MYRNAOUHTWA4OLV","","null","<img src=""img/land2.png"" style=""width:200px; border:14px solid green;"">","null","","","","","","","","","",""
"","image-keyboard-response","10","68354","0.0-10.0","37W3JXSD67U1JCEHZU8COFSZFE2WY0","A3LVLZS8S41ZD7","3THR0FZ95PF7SK0MYRNAOUHTWA4OLV","","689.5","img/land1.png","74","690.2999999523163","1","1","1","2","1,0.7,0.7,0.7,1,0.7,0.7,0.7,1","1,0.7,0.7,0.7,1,0.7,0.7,0.7,1","","",""
"","html-keyboard-response","11","68656","0.0-11.0","37W3JXSD67U1JCEHZU8COFSZFE2WY0","A3LVLZS8S41ZD7","3THR0FZ95PF7SK0MYRNAOUHTWA4OLV","","null","<img src=""img/land1.png"" style=""width:200px; border:14px solid green;"">","null","","","","","","","","","",""
"","image-keyboard-response","12","69178","0.0-12.0","37W3JXSD67U1JCEHZU8COFSZFE2WY0","A3LVLZS8S41ZD7","3THR0FZ95PF7SK0MYRNAOUHTWA4OLV","","521","img/land1.png","75","521.6000000238419","2","1","1","2","1,0.7,0.7,0.7,1,0.7,0.7,0.7,1","1,0.7,0.7,0.7,1,0.7,0.7,0.7,1","","",""
"","html-keyboard-response","13","69481","0.0-13.0","37W3JXSD67U1JCEHZU8COFSZFE2WY0","A3LVLZS8S41ZD7","3THR0FZ95PF7SK0MYRNAOUHTWA4OLV","","null","<img src=""img/land1.png"" style=""width:200px; border:14px solid green;"">","null","","","","","","","","","",""
"","image-keyboard-response","14","70210","0.0-14.0","37W3JXSD67U1JCEHZU8COFSZFE2WY0","A3LVLZS8S41ZD7","3THR0FZ95PF7SK0MYRNAOUHTWA4OLV","","728.6999999880791","img/land3.png","76","729.5","3","1","3","2","1,0.7,0.7,0.7,1,0.7,0.7,0.7,1","1,0.7,0.7,0.7,1,0.7,0.7,0.7,1","","",""
"","html-keyboard-response","15","70514","0.0-15.0","37W3JXSD67U1JCEHZU8COFSZFE2WY0","A3LVLZS8S41ZD7","3THR0FZ95PF7SK0MYRNAOUHTWA4OLV","","null","<img src=""img/land3.png"" style=""width:200px; border:14px solid green;"">","null","","","","","","","","","",""
"","image-keyboard-response","16","70954","0.0-16.0","37W3JXSD67U1JCEHZU8COFSZFE2WY0","A3LVLZS8S41ZD7","3THR0FZ95PF7SK0MYRNAOUHTWA4OLV","","439.69999998807907","img/land3.png","76","440.5","3","1","3","2","1,0.7,0.7,0.7,1,0.7,0.7,0.7,1","1,0.7,0.7,0.7,1,0.7,0.7,0.7,1","","",""
"","html-keyboard-response","17","71256","0.0-17.0","37W3JXSD67U1JCEHZU8COFSZFE2WY0","A3LVLZS8S41ZD7","3THR0FZ95PF7SK0MYRNAOUHTWA4OLV","","null","<img src=""img/land3.png"" style=""width:200px; border:14px solid green;"">","null","","","","","","","","","",""
"","image-keyboard-response","18","72274","0.0-18.0","37W3JXSD67U1JCEHZU8COFSZFE2WY0","A3LVLZS8S41ZD7","3THR0FZ95PF7SK0MYRNAOUHTWA4OLV","","1017.3000000119209","img/land2.png","76","1018.1000000238419","3","1","2","2","1,0.7,0.7,0.7,1,0.7,0.7,0.7,1","1,0.7,0.7,0.7,1,0.7,0.7,0.7,1","","",""
"","html-keyboard-response","19","72576","0.0-19.0","37W3JXSD67U1JCEHZU8COFSZFE2WY0","A3LVLZS8S41ZD7","3THR0FZ95PF7SK0MYRNAOUHTWA4OLV","","null","<img src=""img/land2.png"" style=""width:200px; border:14px solid green;"">","null","","","","","","","","","",""
"","image-keyboard-response","20","73162","0.0-20.0","37W3JXSD67U1JCEHZU8COFSZFE2WY0","A3LVLZS8S41ZD7","3THR0FZ95PF7SK0MYRNAOUHTWA4OLV","","584.5","img/land3.png","75","586.1999999880791","2","0","3","2","1,0.7,0.7,0.7,1,0.7,0.7,0.7,1","1,0.7,0.7,0.7,1,0.7,0.7,0.7,1","","",""
"","html-keyboard-response","21","73464","0.0-21.0","37W3JXSD67U1JCEHZU8COFSZFE2WY0","A3LVLZS8S41ZD7","3THR0FZ95PF7SK0MYRNAOUHTWA4OLV","","null","<img src=""img/land3.png"" style=""width:200px;border:14px solid red;"">","null","","","","","","","","","",""
"","image-keyboard-response","22","74074","0.0-22.0","37W3JXSD67U1JCEHZU8COFSZFE2WY0","A3LVLZS8S41ZD7","3THR0FZ95PF7SK0MYRNAOUHTWA4OLV","","609.1999999880791","img/land2.png","76","609.9000000357628","3","1","2","2","1,0.7,0.7,0.7,1,0.7,0.7,0.7,1","1,0.7,0.7,0.7,1,0.7,0.7,0.7,1","","",""
"","html-keyboard-response","23","74377","0.0-23.0","37W3JXSD67U1JCEHZU8COFSZFE2WY0","A3LVLZS8S41ZD7","3THR0FZ95PF7SK0MYRNAOUHTWA4OLV","","null","<img src=""img/land2.png"" style=""width:200px; border:14px solid green;"">","null","","","","","","","","","",""
"","image-keyboard-response","24","75114","0.0-24.0","37W3JXSD67U1JCEHZU8COFSZFE2WY0","A3LVLZS8S41ZD7","3THR0FZ95PF7SK0MYRNAOUHTWA4OLV","","736.5999999642372","img/land3.png","76","737.2000000476837","3","1","3","2","1,0.7,0.7,0.7,1,0.7,0.7,0.7,1","1,0.7,0.7,0.7,1,0.7,0.7,0.7,1","","",""
"","html-keyboard-response","25","75415","0.0-25.0","37W3JXSD67U1JCEHZU8COFSZFE2WY0","A3LVLZS8S41ZD7","3THR0FZ95PF7SK0MYRNAOUHTWA4OLV","","null","<img src=""img/land3.png"" style=""width:200px; border:14px solid green;"">","null","","","","","","","","","",""
"","image-keyboard-response","26","76098","0.0-26.0","37W3JXSD67U1JCEHZU8COFSZFE2WY0","A3LVLZS8S41ZD7","3THR0FZ95PF7SK0MYRNAOUHTWA4OLV","","682.5","img/land1.png","74","683","1","1","1","2","1,0.7,0.7,0.7,1,0.7,0.7,0.7,1","1,0.7,0.7,0.7,1,0.7,0.7,0.7,1","","",""
"","html-keyboard-response","27","76401","0.0-27.0","37W3JXSD67U1JCEHZU8COFSZFE2WY0","A3LVLZS8S41ZD7","3THR0FZ95PF7SK0MYRNAOUHTWA4OLV","","null","<img src=""img/land1.png"" style=""width:200px; border:14px solid green;"">","null","","","","","","","","","",""
"","image-keyboard-response","28","76786","0.0-28.0","37W3JXSD67U1JCEHZU8COFSZFE2WY0","A3LVLZS8S41ZD7","3THR0FZ95PF7SK0MYRNAOUHTWA4OLV","","384.5","img/land1.png","74","385.2000000476837","1","1","1","2","1,0.7,0.7,0.7,1,0.7,0.7,0.7,1","1,0.7,0.7,0.7,1,0.7,0.7,0.7,1","","",""
"","html-keyboard-response","29","77093","0.0-29.0","37W3JXSD67U1JCEHZU8COFSZFE2WY0","A3LVLZS8S41ZD7","3THR0FZ95PF7SK0MYRNAOUHTWA4OLV","","null","<img src=""img/land1.png"" style=""width:200px; border:14px solid green;"">","null","","","","","","","","","",""
"","image-keyboard-response","30","77516","0.0-30.0","37W3JXSD67U1JCEHZU8COFSZFE2WY0","A3LVLZS8S41ZD7","3THR0FZ95PF7SK0MYRNAOUHTWA4OLV","","421.60000002384186","img/land1.png","74","422.60000002384186","1","1","1","2","1,0.7,0.7,0.7,1,0.7,0.7,0.7,1","1,0.7,0.7,0.7,1,0.7,0.7,0.7,1","","",""
"","html-keyboard-response","31","77818","0.0-31.0","37W3JXSD67U1JCEHZU8COFSZFE2WY0","A3LVLZS8S41ZD7","3THR0FZ95PF7SK0MYRNAOUHTWA4OLV","","null","<img src=""img/land1.png"" style=""width:200px; border:14px solid green;"">","null","","","","","","","","","",""
"","image-keyboard-response","32","78531","0.0-32.0","37W3JXSD67U1JCEHZU8COFSZFE2WY0","A3LVLZS8S41ZD7","3THR0FZ95PF7SK0MYRNAOUHTWA4OLV","","710.9000000357628","img/land3.png","76","712.5","3","1","3","2","1,0.7,0.7,0.7,1,0.7,0.7,0.7,1","1,0.7,0.7,0.7,1,0.7,0.7,0.7,1","","",""
"","html-keyboard-response","33","78833","0.0-33.0","37W3JXSD67U1JCEHZU8COFSZFE2WY0","A3LVLZS8S41ZD7","3THR0FZ95PF7SK0MYRNAOUHTWA4OLV","","null","<img src=""img/land3.png"" style=""width:200px; border:14px solid green;"">","null","","","","","","","","","",""
"","image-keyboard-response","34","79476","0.0-34.0","37W3JXSD67U1JCEHZU8COFSZFE2WY0","A3LVLZS8S41ZD7","3THR0FZ95PF7SK0MYRNAOUHTWA4OLV","","641.6999999880791","img/land1.png","74","642.8000000119209","1","1","1","2","1,0.7,0.7,0.7,1,0.7,0.7,0.7,1","1,0.7,0.7,0.7,1,0.7,0.7,0.7,1","","",""
"","html-keyboard-response","35","79778","0.0-35.0","37W3JXSD67U1JCEHZU8COFSZFE2WY0","A3LVLZS8S41ZD7","3THR0FZ95PF7SK0MYRNAOUHTWA4OLV","","null","<img src=""img/land1.png"" style=""width:200px; border:14px solid green;"">","null","","","","","","","","","",""
"","image-keyboard-response","36","80139","0.0-36.0","37W3JXSD67U1JCEHZU8COFSZFE2WY0","A3LVLZS8S41ZD7","3THR0FZ95PF7SK0MYRNAOUHTWA4OLV","","359","img/land1.png","74","360.80000001192093","1","1","1","2","1,0.7,0.7,0.7,1,0.7,0.7,0.7,1","1,0.7,0.7,0.7,1,0.7,0.7,0.7,1","","",""
"","html-keyboard-response","37","80443","0.0-37.0","37W3JXSD67U1JCEHZU8COFSZFE2WY0","A3LVLZS8S41ZD7","3THR0FZ95PF7SK0MYRNAOUHTWA4OLV","","null","<img src=""img/land1.png"" style=""width:200px; border:14px solid green;"">","null","","","","","","","","","",""
"","image-keyboard-response","38","80826","0.0-38.0","37W3JXSD67U1JCEHZU8COFSZFE2WY0","A3LVLZS8S41ZD7","3THR0FZ95PF7SK0MYRNAOUHTWA4OLV","","381.7999999523163","img/land1.png","74","382.60000002384186","1","1","1","2","1,0.7,0.7,0.7,1,0.7,0.7,0.7,1","1,0.7,0.7,0.7,1,0.7,0.7,0.7,1","","",""
"","html-keyboard-response","39","81127","0.0-39.0","37W3JXSD67U1JCEHZU8COFSZFE2WY0","A3LVLZS8S41ZD7","3THR0FZ95PF7SK0MYRNAOUHTWA4OLV","","null","<img src=""img/land1.png"" style=""width:200px; border:14px solid green;"">","null","","","","","","","","","",""
"","image-keyboard-response","40","81547","0.0-40.0","37W3JXSD67U1JCEHZU8COFSZFE2WY0","A3LVLZS8S41ZD7","3THR0FZ95PF7SK0MYRNAOUHTWA4OLV","","419.39999997615814","img/land3.png","76","420.4000000357628","3","1","3","2","1,0.7,0.7,0.7,1,0.7,0.7,0.7,1","1,0.7,0.7,0.7,1,0.7,0.7,0.7,1","","",""
"","html-keyboard-response","41","81850","0.0-41.0","37W3JXSD67U1JCEHZU8COFSZFE2WY0","A3LVLZS8S41ZD7","3THR0FZ95PF7SK0MYRNAOUHTWA4OLV","","null","<img src=""img/land3.png"" style=""width:200px; border:14px solid green;"">","null","","","","","","","","","",""
"","image-keyboard-response","42","82211","0.0-42.0","37W3JXSD67U1JCEHZU8COFSZFE2WY0","A3LVLZS8S41ZD7","3THR0FZ95PF7SK0MYRNAOUHTWA4OLV","","359.39999997615814","img/land3.png","76","360.69999998807907","3","1","3","2","1,0.7,0.7,0.7,1,0.7,0.7,0.7,1","1,0.7,0.7,0.7,1,0.7,0.7,0.7,1","","",""
"","html-keyboard-response","43","82514","0.0-43.0","37W3JXSD67U1JCEHZU8COFSZFE2WY0","A3LVLZS8S41ZD7","3THR0FZ95PF7SK0MYRNAOUHTWA4OLV","","null","<img src=""img/land3.png"" style=""width:200px; border:14px solid green;"">","null","","","","","","","","","",""
"","image-keyboard-response","44","82851","0.0-44.0","37W3JXSD67U1JCEHZU8COFSZFE2WY0","A3LVLZS8S41ZD7","3THR0FZ95PF7SK0MYRNAOUHTWA4OLV","","336.5","img/land3.png","76","337.7000000476837","3","1","3","2","1,0.7,0.7,0.7,1,0.7,0.7,0.7,1","1,0.7,0.7,0.7,1,0.7,0.7,0.7,1","","",""
"","html-keyboard-response","45","83154","0.0-45.0","37W3JXSD67U1JCEHZU8COFSZFE2WY0","A3LVLZS8S41ZD7","3THR0FZ95PF7SK0MYRNAOUHTWA4OLV","","null","<img src=""img/land3.png"" style=""width:200px; border:14px solid green;"">","null","","","","","","","","","",""
"","image-keyboard-response","46","84019","0.0-46.0","37W3JXSD67U1JCEHZU8COFSZFE2WY0","A3LVLZS8S41ZD7","3THR0FZ95PF7SK0MYRNAOUHTWA4OLV","","864.2999999523163","img/land2.png","75","865.1999999880791","2","1","2","2","1,0.7,0.7,0.7,1,0.7,0.7,0.7,1","1,0.7,0.7,0.7,1,0.7,0.7,0.7,1","","",""
"","html-keyboard-response","47","84321","0.0-47.0","37W3JXSD67U1JCEHZU8COFSZFE2WY0","A3LVLZS8S41ZD7","3THR0FZ95PF7SK0MYRNAOUHTWA4OLV","","null","<img src=""img/land2.png"" style=""width:200px; border:14px solid green;"">","null","","","","","","","","","",""
"","image-keyboard-response","48","84675","0.0-48.0","37W3JXSD67U1JCEHZU8COFSZFE2WY0","A3LVLZS8S41ZD7","3THR0FZ95PF7SK0MYRNAOUHTWA4OLV","","352.69999998807907","img/land2.png","75","353.5","2","1","2","2","1,0.7,0.7,0.7,1,0.7,0.7,0.7,1","1,0.7,0.7,0.7,1,0.7,0.7,0.7,1","","",""
"","html-keyboard-response","49","84977","0.0-49.0","37W3JXSD67U1JCEHZU8COFSZFE2WY0","A3LVLZS8S41ZD7","3THR0FZ95PF7SK0MYRNAOUHTWA4OLV","","null","<img src=""img/land2.png"" style=""width:200px; border:14px solid green;"">","null","","","","","","","","","",""
"","image-keyboard-response","50","85323","0.0-50.0","37W3JXSD67U1JCEHZU8COFSZFE2WY0","A3LVLZS8S41ZD7","3THR0FZ95PF7SK0MYRNAOUHTWA4OLV","","344.7999999523163","img/land2.png","75","345.69999998807907","2","1","2","2","1,0.7,0.7,0.7,1,0.7,0.7,0.7,1","1,0.7,0.7,0.7,1,0.7,0.7,0.7,1","","",""
"","html-keyboard-response","51","85625","0.0-51.0","37W3JXSD67U1JCEHZU8COFSZFE2WY0","A3LVLZS8S41ZD7","3THR0FZ95PF7SK0MYRNAOUHTWA4OLV","","null","<img src=""img/land2.png"" style=""width:200px; border:14px solid green;"">","null","","","","","","","","","",""
"","image-keyboard-response","52","86124","0.0-52.0","37W3JXSD67U1JCEHZU8COFSZFE2WY0","A3LVLZS8S41ZD7","3THR0FZ95PF7SK0MYRNAOUHTWA4OLV","","496.60000002384186","img/land3.png","76","498.69999998807907","3","1","3","2","1,0.7,0.7,0.7,1,0.7,0.7,0.7,1","1,0.7,0.7,0.7,1,0.7,0.7,0.7,1","","",""
"","html-keyboard-response","53","86426","0.0-53.0","37W3JXSD67U1JCEHZU8COFSZFE2WY0","A3LVLZS8S41ZD7","3THR0FZ95PF7SK0MYRNAOUHTWA4OLV","","null","<img src=""img/land3.png"" style=""width:200px; border:14px solid green;"">","null","","","","","","","","","",""
"","image-keyboard-response","54","86747","0.0-54.0","37W3JXSD67U1JCEHZU8COFSZFE2WY0","A3LVLZS8S41ZD7","3THR0FZ95PF7SK0MYRNAOUHTWA4OLV","","319.19999998807907","img/land2.png","76","320.4000000357628","3","0","2","2","1,0.7,0.7,0.7,1,0.7,0.7,0.7,1","1,0.7,0.7,0.7,1,0.7,0.7,0.7,1","","",""
"","html-keyboard-response","55","87049","0.0-55.0","37W3JXSD67U1JCEHZU8COFSZFE2WY0","A3LVLZS8S41ZD7","3THR0FZ95PF7SK0MYRNAOUHTWA4OLV","","null","<img src=""img/land2.png"" style=""width:200px;border:14px solid red;"">","null","","","","","","","","","",""
"","image-keyboard-response","56","87747","0.0-56.0","37W3JXSD67U1JCEHZU8COFSZFE2WY0","A3LVLZS8S41ZD7","3THR0FZ95PF7SK0MYRNAOUHTWA4OLV","","696.4000000357628","img/land1.png","74","697.1999999880791","1","1","1","2","1,0.7,0.7,0.7,1,0.7,0.7,0.7,1","1,0.7,0.7,0.7,1,0.7,0.7,0.7,1","","",""
"","html-keyboard-response","57","88048","0.0-57.0","37W3JXSD67U1JCEHZU8COFSZFE2WY0","A3LVLZS8S41ZD7","3THR0FZ95PF7SK0MYRNAOUHTWA4OLV","","null","<img src=""img/land1.png"" style=""width:200px; border:14px solid green;"">","null","","","","","","","","","",""
"","image-keyboard-response","58","88754","0.0-58.0","37W3JXSD67U1JCEHZU8COFSZFE2WY0","A3LVLZS8S41ZD7","3THR0FZ95PF7SK0MYRNAOUHTWA4OLV","","704.1999999880791","img/land3.png","76","705.5","3","1","3","2","1,0.7,0.7,0.7,1,0.7,0.7,0.7,1","1,0.7,0.7,0.7,1,0.7,0.7,0.7,1","","",""
"","html-keyboard-response","59","89056","0.0-59.0","37W3JXSD67U1JCEHZU8COFSZFE2WY0","A3LVLZS8S41ZD7","3THR0FZ95PF7SK0MYRNAOUHTWA4OLV","","null","<img src=""img/land3.png"" style=""width:200px; border:14px solid green;"">","null","","","","","","","","","",""
"","image-keyboard-response","60","89659","0.0-60.0","37W3JXSD67U1JCEHZU8COFSZFE2WY0","A3LVLZS8S41ZD7","3THR0FZ95PF7SK0MYRNAOUHTWA4OLV","","601.1999999880791","img/land1.png","74","602.8999999761581","1","1","1","2","1,0.7,0.7,0.7,1,0.7,0.7,0.7,1","1,0.7,0.7,0.7,1,0.7,0.7,0.7,1","","",""
"","html-keyboard-response","61","89963","0.0-61.0","37W3JXSD67U1JCEHZU8COFSZFE2WY0","A3LVLZS8S41ZD7","3THR0FZ95PF7SK0MYRNAOUHTWA4OLV","","null","<img src=""img/land1.png"" style=""width:200px; border:14px solid green;"">","null","","","","","","","","","",""
"","image-keyboard-response","62","90610","0.0-62.0","37W3JXSD67U1JCEHZU8COFSZFE2WY0","A3LVLZS8S41ZD7","3THR0FZ95PF7SK0MYRNAOUHTWA4OLV","","645.9000000357628","img/land2.png","75","646.8000000119209","2","1","2","2","1,0.7,0.7,0.7,1,0.7,0.7,0.7,1","1,0.7,0.7,0.7,1,0.7,0.7,0.7,1","","",""
"","html-keyboard-response","63","90913","0.0-63.0","37W3JXSD67U1JCEHZU8COFSZFE2WY0","A3LVLZS8S41ZD7","3THR0FZ95PF7SK0MYRNAOUHTWA4OLV","","null","<img src=""img/land2.png"" style=""width:200px; border:14px solid green;"">","null","","","","","","","","","",""
"","image-keyboard-response","64","91402","0.0-64.0","37W3JXSD67U1JCEHZU8COFSZFE2WY0","A3LVLZS8S41ZD7","3THR0FZ95PF7SK0MYRNAOUHTWA4OLV","","488.60000002384186","img/land3.png","76","489.30000001192093","3","1","3","2","1,0.7,0.7,0.7,1,0.7,0.7,0.7,1","1,0.7,0.7,0.7,1,0.7,0.7,0.7,1","","",""
"","html-keyboard-response","65","91704","0.0-65.0","37W3JXSD67U1JCEHZU8COFSZFE2WY0","A3LVLZS8S41ZD7","3THR0FZ95PF7SK0MYRNAOUHTWA4OLV","","null","<img src=""img/land3.png"" style=""width:200px; border:14px solid green;"">","null","","","","","","","","","",""
"","image-keyboard-response","66","92370","0.0-66.0","37W3JXSD67U1JCEHZU8COFSZFE2WY0","A3LVLZS8S41ZD7","3THR0FZ95PF7SK0MYRNAOUHTWA4OLV","","665.3000000119209","img/land1.png","74","666.1999999880791","1","1","1","2","1,0.7,0.7,0.7,1,0.7,0.7,0.7,1","1,0.7,0.7,0.7,1,0.7,0.7,0.7,1","","",""
"","html-keyboard-response","67","92672","0.0-67.0","37W3JXSD67U1JCEHZU8COFSZFE2WY0","A3LVLZS8S41ZD7","3THR0FZ95PF7SK0MYRNAOUHTWA4OLV","","null","<img src=""img/land1.png"" style=""width:200px; border:14px solid green;"">","null","","","","","","","","","",""
"","image-keyboard-response","68","93396","0.0-68.0","37W3JXSD67U1JCEHZU8COFSZFE2WY0","A3LVLZS8S41ZD7","3THR0FZ95PF7SK0MYRNAOUHTWA4OLV","","722.2999999523163","img/land2.png","75","724","2","1","2","2","1,0.7,0.7,0.7,1,0.7,0.7,0.7,1","1,0.7,0.7,0.7,1,0.7,0.7,0.7,1","","",""
"","html-keyboard-response","69","93698","0.0-69.0","37W3JXSD67U1JCEHZU8COFSZFE2WY0","A3LVLZS8S41ZD7","3THR0FZ95PF7SK0MYRNAOUHTWA4OLV","","null","<img src=""img/land2.png"" style=""width:200px; border:14px solid green;"">","null","","","","","","","","","",""
"","image-keyboard-response","70","94323","0.0-70.0","37W3JXSD67U1JCEHZU8COFSZFE2WY0","A3LVLZS8S41ZD7","3THR0FZ95PF7SK0MYRNAOUHTWA4OLV","","623.1999999880791","img/land1.png","74","625","1","1","1","2","1,0.7,0.7,0.7,1,0.7,0.7,0.7,1","1,0.7,0.7,0.7,1,0.7,0.7,0.7,1","","",""
"","html-keyboard-response","71","94627","0.0-71.0","37W3JXSD67U1JCEHZU8COFSZFE2WY0","A3LVLZS8S41ZD7","3THR0FZ95PF7SK0MYRNAOUHTWA4OLV","","null","<img src=""img/land1.png"" style=""width:200px; border:14px solid green;"">","null","","","","","","","","","",""
"","image-keyboard-response","72","95082","0.0-72.0","37W3JXSD67U1JCEHZU8COFSZFE2WY0","A3LVLZS8S41ZD7","3THR0FZ95PF7SK0MYRNAOUHTWA4OLV","","454.19999998807907","img/land1.png","74","455","1","1","1","2","1,0.7,0.7,0.7,1,0.7,0.7,0.7,1","1,0.7,0.7,0.7,1,0.7,0.7,0.7,1","","",""
"","html-keyboard-response","73","95383","0.0-73.0","37W3JXSD67U1JCEHZU8COFSZFE2WY0","A3LVLZS8S41ZD7","3THR0FZ95PF7SK0MYRNAOUHTWA4OLV","","null","<img src=""img/land1.png"" style=""width:200px; border:14px solid green;"">","null","","","","","","","","","",""
"","image-keyboard-response","74","95787","0.0-74.0","37W3JXSD67U1JCEHZU8COFSZFE2WY0","A3LVLZS8S41ZD7","3THR0FZ95PF7SK0MYRNAOUHTWA4OLV","","402.2999999523163","img/land1.png","74","403.5999999642372","1","1","1","2","1,0.7,0.7,0.7,1,0.7,0.7,0.7,1","1,0.7,0.7,0.7,1,0.7,0.7,0.7,1","","",""
"","html-keyboard-response","75","96090","0.0-75.0","37W3JXSD67U1JCEHZU8COFSZFE2WY0","A3LVLZS8S41ZD7","3THR0FZ95PF7SK0MYRNAOUHTWA4OLV","","null","<img src=""img/land1.png"" style=""width:200px; border:14px solid green;"">","null","","","","","","","","","",""
"","image-keyboard-response","76","96619","0.0-76.0","37W3JXSD67U1JCEHZU8COFSZFE2WY0","A3LVLZS8S41ZD7","3THR0FZ95PF7SK0MYRNAOUHTWA4OLV","","527.0999999642372","img/land3.png","76","528.8000000119209","3","1","3","2","1,0.7,0.7,0.7,1,0.7,0.7,0.7,1","1,0.7,0.7,0.7,1,0.7,0.7,0.7,1","","",""
"","html-keyboard-response","77","96922","0.0-77.0","37W3JXSD67U1JCEHZU8COFSZFE2WY0","A3LVLZS8S41ZD7","3THR0FZ95PF7SK0MYRNAOUHTWA4OLV","","null","<img src=""img/land3.png"" style=""width:200px; border:14px solid green;"">","null","","","","","","","","","",""
"","image-keyboard-response","78","97483","0.0-78.0","37W3JXSD67U1JCEHZU8COFSZFE2WY0","A3LVLZS8S41ZD7","3THR0FZ95PF7SK0MYRNAOUHTWA4OLV","","560.1000000238419","img/land2.png","75","561.1999999880791","2","1","2","2","1,0.7,0.7,0.7,1,0.7,0.7,0.7,1","1,0.7,0.7,0.7,1,0.7,0.7,0.7,1","","",""
"","html-keyboard-response","79","97786","0.0-79.0","37W3JXSD67U1JCEHZU8COFSZFE2WY0","A3LVLZS8S41ZD7","3THR0FZ95PF7SK0MYRNAOUHTWA4OLV","","null","<img src=""img/land2.png"" style=""width:200px; border:14px solid green;"">","null","","","","","","","","","",""
"","image-keyboard-response","80","98307","0.0-80.0","37W3JXSD67U1JCEHZU8COFSZFE2WY0","A3LVLZS8S41ZD7","3THR0FZ95PF7SK0MYRNAOUHTWA4OLV","","519.1999999880791","img/land1.png","74","520.8999999761581","1","1","1","2","1,0.7,0.7,0.7,1,0.7,0.7,0.7,1","1,0.7,0.7,0.7,1,0.7,0.7,0.7,1","","",""
"","html-keyboard-response","81","98610","0.0-81.0","37W3JXSD67U1JCEHZU8COFSZFE2WY0","A3LVLZS8S41ZD7","3THR0FZ95PF7SK0MYRNAOUHTWA4OLV","","null","<img src=""img/land1.png"" style=""width:200px; border:14px solid green;"">","null","","","","","","","","","",""
"","image-keyboard-response","82","99267","0.0-82.0","37W3JXSD67U1JCEHZU8COFSZFE2WY0","A3LVLZS8S41ZD7","3THR0FZ95PF7SK0MYRNAOUHTWA4OLV","","654.7999999523163","img/land2.png","75","656.6000000238419","2","1","2","2","1,0.7,0.7,0.7,1,0.7,0.7,0.7,1","1,0.7,0.7,0.7,1,0.7,0.7,0.7,1","","",""
"","html-keyboard-response","83","99571","0.0-83.0","37W3JXSD67U1JCEHZU8COFSZFE2WY0","A3LVLZS8S41ZD7","3THR0FZ95PF7SK0MYRNAOUHTWA4OLV","","null","<img src=""img/land2.png"" style=""width:200px; border:14px solid green;"">","null","","","","","","","","","",""
"","image-keyboard-response","84","100227","0.0-84.0","37W3JXSD67U1JCEHZU8COFSZFE2WY0","A3LVLZS8S41ZD7","3THR0FZ95PF7SK0MYRNAOUHTWA4OLV","","654.6000000238419","img/land1.png","74","655.5","1","1","1","2","1,0.7,0.7,0.7,1,0.7,0.7,0.7,1","1,0.7,0.7,0.7,1,0.7,0.7,0.7,1","","",""
"","html-keyboard-response","85","100529","0.0-85.0","37W3JXSD67U1JCEHZU8COFSZFE2WY0","A3LVLZS8S41ZD7","3THR0FZ95PF7SK0MYRNAOUHTWA4OLV","","null","<img src=""img/land1.png"" style=""width:200px; border:14px solid green;"">","null","","","","","","","","","",""
"","image-keyboard-response","86","100995","0.0-86.0","37W3JXSD67U1JCEHZU8COFSZFE2WY0","A3LVLZS8S41ZD7","3THR0FZ95PF7SK0MYRNAOUHTWA4OLV","","463.19999998807907","img/land1.png","74","464.89999997615814","1","1","1","2","1,0.7,0.7,0.7,1,0.7,0.7,0.7,1","1,0.7,0.7,0.7,1,0.7,0.7,0.7,1","","",""
"","html-keyboard-response","87","101297","0.0-87.0","37W3JXSD67U1JCEHZU8COFSZFE2WY0","A3LVLZS8S41ZD7","3THR0FZ95PF7SK0MYRNAOUHTWA4OLV","","null","<img src=""img/land1.png"" style=""width:200px; border:14px solid green;"">","null","","","","","","","","","",""
"","image-keyboard-response","88","101835","0.0-88.0","37W3JXSD67U1JCEHZU8COFSZFE2WY0","A3LVLZS8S41ZD7","3THR0FZ95PF7SK0MYRNAOUHTWA4OLV","","536.1999999880791","img/land3.png","76","537.8000000119209","3","1","3","2","1,0.7,0.7,0.7,1,0.7,0.7,0.7,1","1,0.7,0.7,0.7,1,0.7,0.7,0.7,1","","",""
"","html-keyboard-response","89","102138","0.0-89.0","37W3JXSD67U1JCEHZU8COFSZFE2WY0","A3LVLZS8S41ZD7","3THR0FZ95PF7SK0MYRNAOUHTWA4OLV","","null","<img src=""img/land3.png"" style=""width:200px; border:14px solid green;"">","null","","","","","","","","","",""
"","image-keyboard-response","90","102652","0.0-90.0","37W3JXSD67U1JCEHZU8COFSZFE2WY0","A3LVLZS8S41ZD7","3THR0FZ95PF7SK0MYRNAOUHTWA4OLV","","511.5","img/land2.png","75","513.3000000119209","2","1","2","2","1,0.7,0.7,0.7,1,0.7,0.7,0.7,1","1,0.7,0.7,0.7,1,0.7,0.7,0.7,1","","",""
"","html-keyboard-response","91","102958","0.0-91.0","37W3JXSD67U1JCEHZU8COFSZFE2WY0","A3LVLZS8S41ZD7","3THR0FZ95PF7SK0MYRNAOUHTWA4OLV","","null","<img src=""img/land2.png"" style=""width:200px; border:14px solid green;"">","null","","","","","","","","","",""
"","image-keyboard-response","92","103331","0.0-92.0","37W3JXSD67U1JCEHZU8COFSZFE2WY0","A3LVLZS8S41ZD7","3THR0FZ95PF7SK0MYRNAOUHTWA4OLV","","371.69999998807907","img/land2.png","75","372.69999998807907","2","1","2","2","1,0.7,0.7,0.7,1,0.7,0.7,0.7,1","1,0.7,0.7,0.7,1,0.7,0.7,0.7,1","","",""
"","html-keyboard-response","93","103633","0.0-93.0","37W3JXSD67U1JCEHZU8COFSZFE2WY0","A3LVLZS8S41ZD7","3THR0FZ95PF7SK0MYRNAOUHTWA4OLV","","null","<img src=""img/land2.png"" style=""width:200px; border:14px solid green;"">","null","","","","","","","","","",""
"","image-keyboard-response","94","104195","0.0-94.0","37W3JXSD67U1JCEHZU8COFSZFE2WY0","A3LVLZS8S41ZD7","3THR0FZ95PF7SK0MYRNAOUHTWA4OLV","","560.1999999880791","img/land3.png","76","561.5","3","1","3","2","1,0.7,0.7,0.7,1,0.7,0.7,0.7,1","1,0.7,0.7,0.7,1,0.7,0.7,0.7,1","","",""
"","html-keyboard-response","95","104497","0.0-95.0","37W3JXSD67U1JCEHZU8COFSZFE2WY0","A3LVLZS8S41ZD7","3THR0FZ95PF7SK0MYRNAOUHTWA4OLV","","null","<img src=""img/land3.png"" style=""width:200px; border:14px solid green;"">","null","","","","","","","","","",""
"","image-keyboard-response","96","104995","0.0-96.0","37W3JXSD67U1JCEHZU8COFSZFE2WY0","A3LVLZS8S41ZD7","3THR0FZ95PF7SK0MYRNAOUHTWA4OLV","","495.80000001192093","img/land2.png","75","497.30000001192093","2","1","2","2","1,0.7,0.7,0.7,1,0.7,0.7,0.7,1","1,0.7,0.7,0.7,1,0.7,0.7,0.7,1","","",""
"","html-keyboard-response","97","105297","0.0-97.0","37W3JXSD67U1JCEHZU8COFSZFE2WY0","A3LVLZS8S41ZD7","3THR0FZ95PF7SK0MYRNAOUHTWA4OLV","","null","<img src=""img/land2.png"" style=""width:200px; border:14px solid green;"">","null","","","","","","","","","",""
"","image-keyboard-response","98","105804","0.0-98.0","37W3JXSD67U1JCEHZU8COFSZFE2WY0","A3LVLZS8S41ZD7","3THR0FZ95PF7SK0MYRNAOUHTWA4OLV","","505.10000002384186","img/land1.png","74","506.19999998807907","1","1","1","2","1,0.7,0.7,0.7,1,0.7,0.7,0.7,1","1,0.7,0.7,0.7,1,0.7,0.7,0.7,1","","",""
"","html-keyboard-response","99","106106","0.0-99.0","37W3JXSD67U1JCEHZU8COFSZFE2WY0","A3LVLZS8S41ZD7","3THR0FZ95PF7SK0MYRNAOUHTWA4OLV","","null","<img src=""img/land1.png"" style=""width:200px; border:14px solid green;"">","null","","","","","","","","","",""
"","image-keyboard-response","100","106540","0.0-100.0","37W3JXSD67U1JCEHZU8COFSZFE2WY0","A3LVLZS8S41ZD7","3THR0FZ95PF7SK0MYRNAOUHTWA4OLV","","432.39999997615814","img/land1.png","74","433.5","1","1","1","2","1,0.7,0.7,0.7,1,0.7,0.7,0.7,1","1,0.7,0.7,0.7,1,0.7,0.7,0.7,1","","",""
"","html-keyboard-response","101","106843","0.0-101.0","37W3JXSD67U1JCEHZU8COFSZFE2WY0","A3LVLZS8S41ZD7","3THR0FZ95PF7SK0MYRNAOUHTWA4OLV","","null","<img src=""img/land1.png"" style=""width:200px; border:14px solid green;"">","null","","","","","","","","","",""
"","image-keyboard-response","102","107275","0.0-102.0","37W3JXSD67U1JCEHZU8COFSZFE2WY0","A3LVLZS8S41ZD7","3THR0FZ95PF7SK0MYRNAOUHTWA4OLV","","431.5","img/land1.png","74","432.30000001192093","1","1","1","2","1,0.7,0.7,0.7,1,0.7,0.7,0.7,1","1,0.7,0.7,0.7,1,0.7,0.7,0.7,1","","",""
"","html-keyboard-response","103","107577","0.0-103.0","37W3JXSD67U1JCEHZU8COFSZFE2WY0","A3LVLZS8S41ZD7","3THR0FZ95PF7SK0MYRNAOUHTWA4OLV","","null","<img src=""img/land1.png"" style=""width:200px; border:14px solid green;"">","null","","","","","","","","","",""
"","image-keyboard-response","104","107964","0.0-104.0","37W3JXSD67U1JCEHZU8COFSZFE2WY0","A3LVLZS8S41ZD7","3THR0FZ95PF7SK0MYRNAOUHTWA4OLV","","384.2999999523163","img/land1.png","74","386","1","1","1","2","1,0.7,0.7,0.7,1,0.7,0.7,0.7,1","1,0.7,0.7,0.7,1,0.7,0.7,0.7,1","","",""
"","html-keyboard-response","105","108280","0.0-105.0","37W3JXSD67U1JCEHZU8COFSZFE2WY0","A3LVLZS8S41ZD7","3THR0FZ95PF7SK0MYRNAOUHTWA4OLV","","null","<img src=""img/land1.png"" style=""width:200px; border:14px solid green;"">","null","","","","","","","","","",""
"","image-keyboard-response","106","108722","0.0-106.0","37W3JXSD67U1JCEHZU8COFSZFE2WY0","A3LVLZS8S41ZD7","3THR0FZ95PF7SK0MYRNAOUHTWA4OLV","","440.60000002384186","img/land1.png","74","441.9000000357628","1","1","1","2","1,0.7,0.7,0.7,1,0.7,0.7,0.7,1","1,0.7,0.7,0.7,1,0.7,0.7,0.7,1","","",""
"","html-keyboard-response","107","109025","0.0-107.0","37W3JXSD67U1JCEHZU8COFSZFE2WY0","A3LVLZS8S41ZD7","3THR0FZ95PF7SK0MYRNAOUHTWA4OLV","","null","<img src=""img/land1.png"" style=""width:200px; border:14px solid green;"">","null","","","","","","","","","",""
"","image-keyboard-response","108","109362","0.0-108.0","37W3JXSD67U1JCEHZU8COFSZFE2WY0","A3LVLZS8S41ZD7","3THR0FZ95PF7SK0MYRNAOUHTWA4OLV","","335","img/land1.png","74","336.39999997615814","1","1","1","2","1,0.7,0.7,0.7,1,0.7,0.7,0.7,1","1,0.7,0.7,0.7,1,0.7,0.7,0.7,1","","",""
"","html-keyboard-response","109","109664","0.0-109.0","37W3JXSD67U1JCEHZU8COFSZFE2WY0","A3LVLZS8S41ZD7","3THR0FZ95PF7SK0MYRNAOUHTWA4OLV","","null","<img src=""img/land1.png"" style=""width:200px; border:14px solid green;"">","null","","","","","","","","","",""
"","image-keyboard-response","110","110027","0.0-110.0","37W3JXSD67U1JCEHZU8COFSZFE2WY0","A3LVLZS8S41ZD7","3THR0FZ95PF7SK0MYRNAOUHTWA4OLV","","361","img/land1.png","74","362.5999999642372","1","1","1","2","1,0.7,0.7,0.7,1,0.7,0.7,0.7,1","1,0.7,0.7,0.7,1,0.7,0.7,0.7,1","","",""
"","html-keyboard-response","111","110330","0.0-111.0","37W3JXSD67U1JCEHZU8COFSZFE2WY0","A3LVLZS8S41ZD7","3THR0FZ95PF7SK0MYRNAOUHTWA4OLV","","null","<img src=""img/land1.png"" style=""width:200px; border:14px solid green;"">","null","","","","","","","","","",""
"","image-keyboard-response","112","110690","0.0-112.0","37W3JXSD67U1JCEHZU8COFSZFE2WY0","A3LVLZS8S41ZD7","3THR0FZ95PF7SK0MYRNAOUHTWA4OLV","","359.30000001192093","img/land1.png","74","360","1","1","1","2","1,0.7,0.7,0.7,1,0.7,0.7,0.7,1","1,0.7,0.7,0.7,1,0.7,0.7,0.7,1","","",""
"","html-keyboard-response","113","110992","0.0-113.0","37W3JXSD67U1JCEHZU8COFSZFE2WY0","A3LVLZS8S41ZD7","3THR0FZ95PF7SK0MYRNAOUHTWA4OLV","","null","<img src=""img/land1.png"" style=""width:200px; border:14px solid green;"">","null","","","","","","","","","",""
"","image-keyboard-response","114","111371","0.0-114.0","37W3JXSD67U1JCEHZU8COFSZFE2WY0","A3LVLZS8S41ZD7","3THR0FZ95PF7SK0MYRNAOUHTWA4OLV","","378.30000001192093","img/land1.png","74","378.9000000357628","1","1","1","2","1,0.7,0.7,0.7,1,0.7,0.7,0.7,1","1,0.7,0.7,0.7,1,0.7,0.7,0.7,1","","",""
"","html-keyboard-response","115","111674","0.0-115.0","37W3JXSD67U1JCEHZU8COFSZFE2WY0","A3LVLZS8S41ZD7","3THR0FZ95PF7SK0MYRNAOUHTWA4OLV","","null","<img src=""img/land1.png"" style=""width:200px; border:14px solid green;"">","null","","","","","","","","","",""
"","image-keyboard-response","116","112164","0.0-116.0","37W3JXSD67U1JCEHZU8COFSZFE2WY0","A3LVLZS8S41ZD7","3THR0FZ95PF7SK0MYRNAOUHTWA4OLV","","488.60000002384186","img/land2.png","75","489.69999998807907","2","1","2","2","1,0.7,0.7,0.7,1,0.7,0.7,0.7,1","1,0.7,0.7,0.7,1,0.7,0.7,0.7,1","","",""
"","html-keyboard-response","117","112466","0.0-117.0","37W3JXSD67U1JCEHZU8COFSZFE2WY0","A3LVLZS8S41ZD7","3THR0FZ95PF7SK0MYRNAOUHTWA4OLV","","null","<img src=""img/land2.png"" style=""width:200px; border:14px solid green;"">","null","","","","","","","","","",""
"","image-keyboard-response","118","112970","0.0-118.0","37W3JXSD67U1JCEHZU8COFSZFE2WY0","A3LVLZS8S41ZD7","3THR0FZ95PF7SK0MYRNAOUHTWA4OLV","","502.10000002384186","img/land1.png","74","503.5","1","1","1","2","1,0.7,0.7,0.7,1,0.7,0.7,0.7,1","1,0.7,0.7,0.7,1,0.7,0.7,0.7,1","","",""
"","html-keyboard-response","119","113272","0.0-119.0","37W3JXSD67U1JCEHZU8COFSZFE2WY0","A3LVLZS8S41ZD7","3THR0FZ95PF7SK0MYRNAOUHTWA4OLV","","null","<img src=""img/land1.png"" style=""width:200px; border:14px solid green;"">","null","","","","","","","","","",""
"","image-keyboard-response","120","113730","0.0-120.0","37W3JXSD67U1JCEHZU8COFSZFE2WY0","A3LVLZS8S41ZD7","3THR0FZ95PF7SK0MYRNAOUHTWA4OLV","","457.7999999523163","img/land3.png","75","458.5","2","1","3","2","1,0.7,0.7,0.7,1,0.7,0.7,0.7,1","1,0.7,0.7,0.7,1,0.7,0.7,0.7,1","","",""
"","html-keyboard-response","121","114031","0.0-121.0","37W3JXSD67U1JCEHZU8COFSZFE2WY0","A3LVLZS8S41ZD7","3THR0FZ95PF7SK0MYRNAOUHTWA4OLV","","null","<img src=""img/land3.png"" style=""width:200px; border:14px solid green;"">","null","","","","","","","","","",""
"","image-keyboard-response","122","114402","0.0-122.0","37W3JXSD67U1JCEHZU8COFSZFE2WY0","A3LVLZS8S41ZD7","3THR0FZ95PF7SK0MYRNAOUHTWA4OLV","","369.4000000357628","img/land3.png","76","370.5","3","1","3","2","1,0.7,0.7,0.7,1,0.7,0.7,0.7,1","1,0.7,0.7,0.7,1,0.7,0.7,0.7,1","","",""
"","html-keyboard-response","123","114705","0.0-123.0","37W3JXSD67U1JCEHZU8COFSZFE2WY0","A3LVLZS8S41ZD7","3THR0FZ95PF7SK0MYRNAOUHTWA4OLV","","null","<img src=""img/land3.png"" style=""width:200px; border:14px solid green;"">","null","","","","","","","","","",""
"","image-keyboard-response","124","115242","0.0-124.0","37W3JXSD67U1JCEHZU8COFSZFE2WY0","A3LVLZS8S41ZD7","3THR0FZ95PF7SK0MYRNAOUHTWA4OLV","","535.6999999880791","img/land1.png","75","537","2","0","1","2","1,0.7,0.7,0.7,1,0.7,0.7,0.7,1","1,0.7,0.7,0.7,1,0.7,0.7,0.7,1","","",""
"","html-keyboard-response","125","115543","0.0-125.0","37W3JXSD67U1JCEHZU8COFSZFE2WY0","A3LVLZS8S41ZD7","3THR0FZ95PF7SK0MYRNAOUHTWA4OLV","","null","<img src=""img/land1.png"" style=""width:200px;border:14px solid red;"">","null","","","","","","","","","",""
"","image-keyboard-response","126","115834","0.0-126.0","37W3JXSD67U1JCEHZU8COFSZFE2WY0","A3LVLZS8S41ZD7","3THR0FZ95PF7SK0MYRNAOUHTWA4OLV","","289.0999999642372","img/land1.png","74","290","1","1","1","2","1,0.7,0.7,0.7,1,0.7,0.7,0.7,1","1,0.7,0.7,0.7,1,0.7,0.7,0.7,1","","",""
"","html-keyboard-response","127","116135","0.0-127.0","37W3JXSD67U1JCEHZU8COFSZFE2WY0","A3LVLZS8S41ZD7","3THR0FZ95PF7SK0MYRNAOUHTWA4OLV","","null","<img src=""img/land1.png"" style=""width:200px; border:14px solid green;"">","null","","","","","","","","","",""
"","image-keyboard-response","128","116722","0.0-128.0","37W3JXSD67U1JCEHZU8COFSZFE2WY0","A3LVLZS8S41ZD7","3THR0FZ95PF7SK0MYRNAOUHTWA4OLV","","585.8999999761581","img/land2.png","75","586.6000000238419","2","1","2","2","1,0.7,0.7,0.7,1,0.7,0.7,0.7,1","1,0.7,0.7,0.7,1,0.7,0.7,0.7,1","","",""
"","html-keyboard-response","129","117025","0.0-129.0","37W3JXSD67U1JCEHZU8COFSZFE2WY0","A3LVLZS8S41ZD7","3THR0FZ95PF7SK0MYRNAOUHTWA4OLV","","null","<img src=""img/land2.png"" style=""width:200px; border:14px solid green;"">","null","","","","","","","","","",""
"","image-keyboard-response","130","117363","0.0-130.0","37W3JXSD67U1JCEHZU8COFSZFE2WY0","A3LVLZS8S41ZD7","3THR0FZ95PF7SK0MYRNAOUHTWA4OLV","","336.39999997615814","img/land2.png","75","338.30000001192093","2","1","2","2","1,0.7,0.7,0.7,1,0.7,0.7,0.7,1","1,0.7,0.7,0.7,1,0.7,0.7,0.7,1","","",""
"","html-keyboard-response","131","117666","0.0-131.0","37W3JXSD67U1JCEHZU8COFSZFE2WY0","A3LVLZS8S41ZD7","3THR0FZ95PF7SK0MYRNAOUHTWA4OLV","","null","<img src=""img/land2.png"" style=""width:200px; border:14px solid green;"">","null","","","","","","","","","",""
"","image-keyboard-response","132","118106","0.0-132.0","37W3JXSD67U1JCEHZU8COFSZFE2WY0","A3LVLZS8S41ZD7","3THR0FZ95PF7SK0MYRNAOUHTWA4OLV","","437.7999999523163","img/land1.png","76","439.30000001192093","3","1","1","2","1,0.7,0.7,0.7,1,0.7,0.7,0.7,1","1,0.7,0.7,0.7,1,0.7,0.7,0.7,1","","",""
"","html-keyboard-response","133","118407","0.0-133.0","37W3JXSD67U1JCEHZU8COFSZFE2WY0","A3LVLZS8S41ZD7","3THR0FZ95PF7SK0MYRNAOUHTWA4OLV","","null","<img src=""img/land1.png"" style=""width:200px; border:14px solid green;"">","null","","","","","","","","","",""
"","image-keyboard-response","134","119346","0.0-134.0","37W3JXSD67U1JCEHZU8COFSZFE2WY0","A3LVLZS8S41ZD7","3THR0FZ95PF7SK0MYRNAOUHTWA4OLV","","936.6999999880791","img/land3.png","76","938","3","1","3","2","1,0.7,0.7,0.7,1,0.7,0.7,0.7,1","1,0.7,0.7,0.7,1,0.7,0.7,0.7,1","","",""
"","html-keyboard-response","135","119648","0.0-135.0","37W3JXSD67U1JCEHZU8COFSZFE2WY0","A3LVLZS8S41ZD7","3THR0FZ95PF7SK0MYRNAOUHTWA4OLV","","null","<img src=""img/land3.png"" style=""width:200px; border:14px solid green;"">","null","","","","","","","","","",""
"","image-keyboard-response","136","120171","0.0-136.0","37W3JXSD67U1JCEHZU8COFSZFE2WY0","A3LVLZS8S41ZD7","3THR0FZ95PF7SK0MYRNAOUHTWA4OLV","","521.8000000119209","img/land1.png","74","523.1000000238419","1","1","1","2","1,0.7,0.7,0.7,1,0.7,0.7,0.7,1","1,0.7,0.7,0.7,1,0.7,0.7,0.7,1","","",""
"","html-keyboard-response","137","120473","0.0-137.0","37W3JXSD67U1JCEHZU8COFSZFE2WY0","A3LVLZS8S41ZD7","3THR0FZ95PF7SK0MYRNAOUHTWA4OLV","","null","<img src=""img/land1.png"" style=""width:200px; border:14px solid green;"">","null","","","","","","","","","",""
"","image-keyboard-response","138","121019","0.0-138.0","37W3JXSD67U1JCEHZU8COFSZFE2WY0","A3LVLZS8S41ZD7","3THR0FZ95PF7SK0MYRNAOUHTWA4OLV","","543.6999999880791","img/land3.png","76","545.2999999523163","3","1","3","2","1,0.7,0.7,0.7,1,0.7,0.7,0.7,1","1,0.7,0.7,0.7,1,0.7,0.7,0.7,1","","",""
"","html-keyboard-response","139","121321","0.0-139.0","37W3JXSD67U1JCEHZU8COFSZFE2WY0","A3LVLZS8S41ZD7","3THR0FZ95PF7SK0MYRNAOUHTWA4OLV","","null","<img src=""img/land3.png"" style=""width:200px; border:14px solid green;"">","null","","","","","","","","","",""
"","image-keyboard-response","140","121811","0.0-140.0","37W3JXSD67U1JCEHZU8COFSZFE2WY0","A3LVLZS8S41ZD7","3THR0FZ95PF7SK0MYRNAOUHTWA4OLV","","487.5999999642372","img/land1.png","74","489.19999998807907","1","1","1","2","1,0.7,0.7,0.7,1,0.7,0.7,0.7,1","1,0.7,0.7,0.7,1,0.7,0.7,0.7,1","","",""
"","html-keyboard-response","141","122113","0.0-141.0","37W3JXSD67U1JCEHZU8COFSZFE2WY0","A3LVLZS8S41ZD7","3THR0FZ95PF7SK0MYRNAOUHTWA4OLV","","null","<img src=""img/land1.png"" style=""width:200px; border:14px solid green;"">","null","","","","","","","","","",""
"","image-keyboard-response","142","122714","0.0-142.0","37W3JXSD67U1JCEHZU8COFSZFE2WY0","A3LVLZS8S41ZD7","3THR0FZ95PF7SK0MYRNAOUHTWA4OLV","","599.6999999880791","img/land2.png","75","600.4000000357628","2","1","2","2","1,0.7,0.7,0.7,1,0.7,0.7,0.7,1","1,0.7,0.7,0.7,1,0.7,0.7,0.7,1","","",""
"","html-keyboard-response","143","123016","0.0-143.0","37W3JXSD67U1JCEHZU8COFSZFE2WY0","A3LVLZS8S41ZD7","3THR0FZ95PF7SK0MYRNAOUHTWA4OLV","","null","<img src=""img/land2.png"" style=""width:200px; border:14px solid green;"">","null","","","","","","","","","",""
"","image-keyboard-response","144","123530","0.0-144.0","37W3JXSD67U1JCEHZU8COFSZFE2WY0","A3LVLZS8S41ZD7","3THR0FZ95PF7SK0MYRNAOUHTWA4OLV","","512.6000000238419","img/land1.png","74","513.3000000119209","1","1","1","2","1,0.7,0.7,0.7,1,0.7,0.7,0.7,1","1,0.7,0.7,0.7,1,0.7,0.7,0.7,1","","",""
"","html-keyboard-response","145","123831","0.0-145.0","37W3JXSD67U1JCEHZU8COFSZFE2WY0","A3LVLZS8S41ZD7","3THR0FZ95PF7SK0MYRNAOUHTWA4OLV","","null","<img src=""img/land1.png"" style=""width:200px; border:14px solid green;"">","null","","","","","","","","","",""
"","image-keyboard-response","146","124282","0.0-146.0","37W3JXSD67U1JCEHZU8COFSZFE2WY0","A3LVLZS8S41ZD7","3THR0FZ95PF7SK0MYRNAOUHTWA4OLV","","449.5999999642372","img/land2.png","75","450.30000001192093","2","1","2","2","1,0.7,0.7,0.7,1,0.7,0.7,0.7,1","1,0.7,0.7,0.7,1,0.7,0.7,0.7,1","","",""
"","html-keyboard-response","147","124583","0.0-147.0","37W3JXSD67U1JCEHZU8COFSZFE2WY0","A3LVLZS8S41ZD7","3THR0FZ95PF7SK0MYRNAOUHTWA4OLV","","null","<img src=""img/land2.png"" style=""width:200px; border:14px solid green;"">","null","","","","","","","","","",""
"","image-keyboard-response","148","125090","0.0-148.0","37W3JXSD67U1JCEHZU8COFSZFE2WY0","A3LVLZS8S41ZD7","3THR0FZ95PF7SK0MYRNAOUHTWA4OLV","","505.80000001192093","img/land3.png","76","506.30000001192093","3","1","3","2","1,0.7,0.7,0.7,1,0.7,0.7,0.7,1","1,0.7,0.7,0.7,1,0.7,0.7,0.7,1","","",""
"","html-keyboard-response","149","125400","0.0-149.0","37W3JXSD67U1JCEHZU8COFSZFE2WY0","A3LVLZS8S41ZD7","3THR0FZ95PF7SK0MYRNAOUHTWA4OLV","","null","<img src=""img/land3.png"" style=""width:200px; border:14px solid green;"">","null","","","","","","","","","",""
"","image-keyboard-response","150","125954","0.0-150.0","37W3JXSD67U1JCEHZU8COFSZFE2WY0","A3LVLZS8S41ZD7","3THR0FZ95PF7SK0MYRNAOUHTWA4OLV","","553.5","img/land1.png","75","554.2000000476837","2","1","1","2","1,0.7,0.7,0.7,1,0.7,0.7,0.7,1","1,0.7,0.7,0.7,1,0.7,0.7,0.7,1","","",""
"","html-keyboard-response","151","126256","0.0-151.0","37W3JXSD67U1JCEHZU8COFSZFE2WY0","A3LVLZS8S41ZD7","3THR0FZ95PF7SK0MYRNAOUHTWA4OLV","","null","<img src=""img/land1.png"" style=""width:200px; border:14px solid green;"">","null","","","","","","","","","",""
"","image-keyboard-response","152","126594","0.0-152.0","37W3JXSD67U1JCEHZU8COFSZFE2WY0","A3LVLZS8S41ZD7","3THR0FZ95PF7SK0MYRNAOUHTWA4OLV","","336.69999998807907","img/land1.png","74","337.2000000476837","1","1","1","2","1,0.7,0.7,0.7,1,0.7,0.7,0.7,1","1,0.7,0.7,0.7,1,0.7,0.7,0.7,1","","",""
"","html-keyboard-response","153","126895","0.0-153.0","37W3JXSD67U1JCEHZU8COFSZFE2WY0","A3LVLZS8S41ZD7","3THR0FZ95PF7SK0MYRNAOUHTWA4OLV","","null","<img src=""img/land1.png"" style=""width:200px; border:14px solid green;"">","null","","","","","","","","","",""
"","image-keyboard-response","154","127466","0.0-154.0","37W3JXSD67U1JCEHZU8COFSZFE2WY0","A3LVLZS8S41ZD7","3THR0FZ95PF7SK0MYRNAOUHTWA4OLV","","569.8000000119209","img/land2.png","75","570.5","2","1","2","2","1,0.7,0.7,0.7,1,0.7,0.7,0.7,1","1,0.7,0.7,0.7,1,0.7,0.7,0.7,1","","",""
"","html-keyboard-response","155","127768","0.0-155.0","37W3JXSD67U1JCEHZU8COFSZFE2WY0","A3LVLZS8S41ZD7","3THR0FZ95PF7SK0MYRNAOUHTWA4OLV","","null","<img src=""img/land2.png"" style=""width:200px; border:14px solid green;"">","null","","","","","","","","","",""
"","image-keyboard-response","156","128242","0.0-156.0","37W3JXSD67U1JCEHZU8COFSZFE2WY0","A3LVLZS8S41ZD7","3THR0FZ95PF7SK0MYRNAOUHTWA4OLV","","473.0999999642372","img/land1.png","74","473.7000000476837","1","1","1","2","1,0.7,0.7,0.7,1,0.7,0.7,0.7,1","1,0.7,0.7,0.7,1,0.7,0.7,0.7,1","","",""
"","html-keyboard-response","157","128543","0.0-157.0","37W3JXSD67U1JCEHZU8COFSZFE2WY0","A3LVLZS8S41ZD7","3THR0FZ95PF7SK0MYRNAOUHTWA4OLV","","null","<img src=""img/land1.png"" style=""width:200px; border:14px solid green;"">","null","","","","","","","","","",""
"","image-keyboard-response","158","128978","0.0-158.0","37W3JXSD67U1JCEHZU8COFSZFE2WY0","A3LVLZS8S41ZD7","3THR0FZ95PF7SK0MYRNAOUHTWA4OLV","","433.5999999642372","img/land1.png","74","434.39999997615814","1","1","1","2","1,0.7,0.7,0.7,1,0.7,0.7,0.7,1","1,0.7,0.7,0.7,1,0.7,0.7,0.7,1","","",""
"","html-keyboard-response","159","129285","0.0-159.0","37W3JXSD67U1JCEHZU8COFSZFE2WY0","A3LVLZS8S41ZD7","3THR0FZ95PF7SK0MYRNAOUHTWA4OLV","","null","<img src=""img/land1.png"" style=""width:200px; border:14px solid green;"">","null","","","","","","","","","",""
"","image-keyboard-response","160","129658","0.0-160.0","37W3JXSD67U1JCEHZU8COFSZFE2WY0","A3LVLZS8S41ZD7","3THR0FZ95PF7SK0MYRNAOUHTWA4OLV","","372.4000000357628","img/land1.png","74","373","1","1","1","2","1,0.7,0.7,0.7,1,0.7,0.7,0.7,1","1,0.7,0.7,0.7,1,0.7,0.7,0.7,1","","",""
"","html-keyboard-response","161","129961","0.0-161.0","37W3JXSD67U1JCEHZU8COFSZFE2WY0","A3LVLZS8S41ZD7","3THR0FZ95PF7SK0MYRNAOUHTWA4OLV","","null","<img src=""img/land1.png"" style=""width:200px; border:14px solid green;"">","null","","","","","","","","","",""
"","image-keyboard-response","162","130354","0.0-162.0","37W3JXSD67U1JCEHZU8COFSZFE2WY0","A3LVLZS8S41ZD7","3THR0FZ95PF7SK0MYRNAOUHTWA4OLV","","392.19999998807907","img/land1.png","74","393","1","1","1","2","1,0.7,0.7,0.7,1,0.7,0.7,0.7,1","1,0.7,0.7,0.7,1,0.7,0.7,0.7,1","","",""
"","html-keyboard-response","163","130655","0.0-163.0","37W3JXSD67U1JCEHZU8COFSZFE2WY0","A3LVLZS8S41ZD7","3THR0FZ95PF7SK0MYRNAOUHTWA4OLV","","null","<img src=""img/land1.png"" style=""width:200px; border:14px solid green;"">","null","","","","","","","","","",""
"","image-keyboard-response","164","131226","0.0-164.0","37W3JXSD67U1JCEHZU8COFSZFE2WY0","A3LVLZS8S41ZD7","3THR0FZ95PF7SK0MYRNAOUHTWA4OLV","","569.6999999880791","img/land2.png","75","570.5","2","1","2","2","1,0.7,0.7,0.7,1,0.7,0.7,0.7,1","1,0.7,0.7,0.7,1,0.7,0.7,0.7,1","","",""
"","html-keyboard-response","165","131528","0.0-165.0","37W3JXSD67U1JCEHZU8COFSZFE2WY0","A3LVLZS8S41ZD7","3THR0FZ95PF7SK0MYRNAOUHTWA4OLV","","null","<img src=""img/land2.png"" style=""width:200px; border:14px solid green;"">","null","","","","","","","","","",""
"","image-keyboard-response","166","132002","0.0-166.0","37W3JXSD67U1JCEHZU8COFSZFE2WY0","A3LVLZS8S41ZD7","3THR0FZ95PF7SK0MYRNAOUHTWA4OLV","","472.69999998807907","img/land3.png","76","473.30000001192093","3","1","3","2","1,0.7,0.7,0.7,1,0.7,0.7,0.7,1","1,0.7,0.7,0.7,1,0.7,0.7,0.7,1","","",""
"","html-keyboard-response","167","132303","0.0-167.0","37W3JXSD67U1JCEHZU8COFSZFE2WY0","A3LVLZS8S41ZD7","3THR0FZ95PF7SK0MYRNAOUHTWA4OLV","","null","<img src=""img/land3.png"" style=""width:200px; border:14px solid green;"">","null","","","","","","","","","",""
"","image-keyboard-response","168","132794","0.0-168.0","37W3JXSD67U1JCEHZU8COFSZFE2WY0","A3LVLZS8S41ZD7","3THR0FZ95PF7SK0MYRNAOUHTWA4OLV","","489.69999998807907","img/land1.png","75","490.30000001192093","2","1","1","2","1,0.7,0.7,0.7,1,0.7,0.7,0.7,1","1,0.7,0.7,0.7,1,0.7,0.7,0.7,1","","",""
"","html-keyboard-response","169","133096","0.0-169.0","37W3JXSD67U1JCEHZU8COFSZFE2WY0","A3LVLZS8S41ZD7","3THR0FZ95PF7SK0MYRNAOUHTWA4OLV","","null","<img src=""img/land1.png"" style=""width:200px; border:14px solid green;"">","null","","","","","","","","","",""
"","html-keyboard-response","170","144162","0.0-170.0","37W3JXSD67U1JCEHZU8COFSZFE2WY0","A3LVLZS8S41ZD7","3THR0FZ95PF7SK0MYRNAOUHTWA4OLV","","","","","","","","","","","","","",""
"","image-keyboard-response","171","145730","0.0-171.0","37W3JXSD67U1JCEHZU8COFSZFE2WY0","A3LVLZS8S41ZD7","3THR0FZ95PF7SK0MYRNAOUHTWA4OLV","","1567.1000000238419","img/land6.png","74","1567.8999999761581","1","1","3","2","1,0.7,0.7,0.7,1,0.7,0.7,0.7,1","1,0.7,0.7,0.7,1,0.7,0.7,0.7,1","","",""
"","html-keyboard-response","172","146031","0.0-172.0","37W3JXSD67U1JCEHZU8COFSZFE2WY0","A3LVLZS8S41ZD7","3THR0FZ95PF7SK0MYRNAOUHTWA4OLV","","null","<img src=""img/land6.png"" style=""width:200px; border:14px solid green;"">","null","","","","","","","","","",""
"","image-keyboard-response","173","147083","0.0-173.0","37W3JXSD67U1JCEHZU8COFSZFE2WY0","A3LVLZS8S41ZD7","3THR0FZ95PF7SK0MYRNAOUHTWA4OLV","","1051.199999988079","img/land5.png","75","1052.300000011921","2","1","2","2","1,0.7,0.7,0.7,1,0.7,0.7,0.7,1","1,0.7,0.7,0.7,1,0.7,0.7,0.7,1","","",""
"","html-keyboard-response","174","147390","0.0-174.0","37W3JXSD67U1JCEHZU8COFSZFE2WY0","A3LVLZS8S41ZD7","3THR0FZ95PF7SK0MYRNAOUHTWA4OLV","","null","<img src=""img/land5.png"" style=""width:200px; border:14px solid green;"">","null","","","","","","","","","",""
"","image-keyboard-response","175","148186","0.0-175.0","37W3JXSD67U1JCEHZU8COFSZFE2WY0","A3LVLZS8S41ZD7","3THR0FZ95PF7SK0MYRNAOUHTWA4OLV","","793.9000000357628","img/land4.png","76","795.1999999880791","3","1","1","2","1,0.7,0.7,0.7,1,0.7,0.7,0.7,1","1,0.7,0.7,0.7,1,0.7,0.7,0.7,1","","",""
"","html-keyboard-response","176","148487","0.0-176.0","37W3JXSD67U1JCEHZU8COFSZFE2WY0","A3LVLZS8S41ZD7","3THR0FZ95PF7SK0MYRNAOUHTWA4OLV","","null","<img src=""img/land4.png"" style=""width:200px; border:14px solid green;"">","null","","","","","","","","","",""
"","image-keyboard-response","177","149475","0.0-177.0","37W3JXSD67U1JCEHZU8COFSZFE2WY0","A3LVLZS8S41ZD7","3THR0FZ95PF7SK0MYRNAOUHTWA4OLV","","985.4000000357628","img/land5.png","75","987","2","1","2","2","1,0.7,0.7,0.7,1,0.7,0.7,0.7,1","1,0.7,0.7,0.7,1,0.7,0.7,0.7,1","","",""
"","html-keyboard-response","178","149777","0.0-178.0","37W3JXSD67U1JCEHZU8COFSZFE2WY0","A3LVLZS8S41ZD7","3THR0FZ95PF7SK0MYRNAOUHTWA4OLV","","null","<img src=""img/land5.png"" style=""width:200px; border:14px solid green;"">","null","","","","","","","","","",""
"","image-keyboard-response","179","150875","0.0-179.0","37W3JXSD67U1JCEHZU8COFSZFE2WY0","A3LVLZS8S41ZD7","3THR0FZ95PF7SK0MYRNAOUHTWA4OLV","","1095.3999999761581","img/land4.png","76","1097.2000000476837","3","0","1","2","1,0.7,0.7,0.7,1,0.7,0.7,0.7,1","1,0.7,0.7,0.7,1,0.7,0.7,0.7,1","","",""
"","html-keyboard-response","180","151178","0.0-180.0","37W3JXSD67U1JCEHZU8COFSZFE2WY0","A3LVLZS8S41ZD7","3THR0FZ95PF7SK0MYRNAOUHTWA4OLV","","null","<img src=""img/land4.png"" style=""width:200px;border:14px solid red;"">","null","","","","","","","","","",""
"","image-keyboard-response","181","151995","0.0-181.0","37W3JXSD67U1JCEHZU8COFSZFE2WY0","A3LVLZS8S41ZD7","3THR0FZ95PF7SK0MYRNAOUHTWA4OLV","","814.7999999523163","img/land5.png","75","816.6999999880791","2","1","2","2","1,0.7,0.7,0.7,1,0.7,0.7,0.7,1","1,0.7,0.7,0.7,1,0.7,0.7,0.7,1","","",""
"","html-keyboard-response","182","152298","0.0-182.0","37W3JXSD67U1JCEHZU8COFSZFE2WY0","A3LVLZS8S41ZD7","3THR0FZ95PF7SK0MYRNAOUHTWA4OLV","","null","<img src=""img/land5.png"" style=""width:200px; border:14px solid green;"">","null","","","","","","","","","",""
"","image-keyboard-response","183","153003","0.0-183.0","37W3JXSD67U1JCEHZU8COFSZFE2WY0","A3LVLZS8S41ZD7","3THR0FZ95PF7SK0MYRNAOUHTWA4OLV","","702.5999999642372","img/land4.png","76","704.5","3","1","1","2","1,0.7,0.7,0.7,1,0.7,0.7,0.7,1","1,0.7,0.7,0.7,1,0.7,0.7,0.7,1","","",""
"","html-keyboard-response","184","153306","0.0-184.0","37W3JXSD67U1JCEHZU8COFSZFE2WY0","A3LVLZS8S41ZD7","3THR0FZ95PF7SK0MYRNAOUHTWA4OLV","","null","<img src=""img/land4.png"" style=""width:200px; border:14px solid green;"">","null","","","","","","","","","",""
"","image-keyboard-response","185","153972","0.0-185.0","37W3JXSD67U1JCEHZU8COFSZFE2WY0","A3LVLZS8S41ZD7","3THR0FZ95PF7SK0MYRNAOUHTWA4OLV","","664.7999999523163","img/land5.png","75","665.8999999761581","2","1","2","2","1,0.7,0.7,0.7,1,0.7,0.7,0.7,1","1,0.7,0.7,0.7,1,0.7,0.7,0.7,1","","",""
"","html-keyboard-response","186","154274","0.0-186.0","37W3JXSD67U1JCEHZU8COFSZFE2WY0","A3LVLZS8S41ZD7","3THR0FZ95PF7SK0MYRNAOUHTWA4OLV","","null","<img src=""img/land5.png"" style=""width:200px; border:14px solid green;"">","null","","","","","","","","","",""
"","image-keyboard-response","187","155011","0.0-187.0","37W3JXSD67U1JCEHZU8COFSZFE2WY0","A3LVLZS8S41ZD7","3THR0FZ95PF7SK0MYRNAOUHTWA4OLV","","735.5","img/land6.png","74","736.6999999880791","1","1","3","2","1,0.7,0.7,0.7,1,0.7,0.7,0.7,1","1,0.7,0.7,0.7,1,0.7,0.7,0.7,1","","",""
"","html-keyboard-response","188","155314","0.0-188.0","37W3JXSD67U1JCEHZU8COFSZFE2WY0","A3LVLZS8S41ZD7","3THR0FZ95PF7SK0MYRNAOUHTWA4OLV","","null","<img src=""img/land6.png"" style=""width:200px; border:14px solid green;"">","null","","","","","","","","","",""
"","image-keyboard-response","189","155795","0.0-189.0","37W3JXSD67U1JCEHZU8COFSZFE2WY0","A3LVLZS8S41ZD7","3THR0FZ95PF7SK0MYRNAOUHTWA4OLV","","479.19999998807907","img/land6.png","74","480.89999997615814","1","0","3","2","1,0.7,0.7,0.7,1,0.7,0.7,0.7,1","1,0.7,0.7,0.7,1,0.7,0.7,0.7,1","","",""
"","html-keyboard-response","190","156097","0.0-190.0","37W3JXSD67U1JCEHZU8COFSZFE2WY0","A3LVLZS8S41ZD7","3THR0FZ95PF7SK0MYRNAOUHTWA4OLV","","null","<img src=""img/land6.png"" style=""width:200px;border:14px solid red;"">","null","","","","","","","","","",""
"","image-keyboard-response","191","156939","0.0-191.0","37W3JXSD67U1JCEHZU8COFSZFE2WY0","A3LVLZS8S41ZD7","3THR0FZ95PF7SK0MYRNAOUHTWA4OLV","","840.5999999642372","img/land4.png","76","841.9000000357628","3","1","1","2","1,0.7,0.7,0.7,1,0.7,0.7,0.7,1","1,0.7,0.7,0.7,1,0.7,0.7,0.7,1","","",""
"","html-keyboard-response","192","157241","0.0-192.0","37W3JXSD67U1JCEHZU8COFSZFE2WY0","A3LVLZS8S41ZD7","3THR0FZ95PF7SK0MYRNAOUHTWA4OLV","","null","<img src=""img/land4.png"" style=""width:200px; border:14px solid green;"">","null","","","","","","","","","",""
"","image-keyboard-response","193","157651","0.0-193.0","37W3JXSD67U1JCEHZU8COFSZFE2WY0","A3LVLZS8S41ZD7","3THR0FZ95PF7SK0MYRNAOUHTWA4OLV","","407.39999997615814","img/land4.png","76","409.10000002384186","3","1","1","2","1,0.7,0.7,0.7,1,0.7,0.7,0.7,1","1,0.7,0.7,0.7,1,0.7,0.7,0.7,1","","",""
"","html-keyboard-response","194","157954","0.0-194.0","37W3JXSD67U1JCEHZU8COFSZFE2WY0","A3LVLZS8S41ZD7","3THR0FZ95PF7SK0MYRNAOUHTWA4OLV","","null","<img src=""img/land4.png"" style=""width:200px; border:14px solid green;"">","null","","","","","","","","","",""
"","image-keyboard-response","195","158674","0.0-195.0","37W3JXSD67U1JCEHZU8COFSZFE2WY0","A3LVLZS8S41ZD7","3THR0FZ95PF7SK0MYRNAOUHTWA4OLV","","718.0999999642372","img/land6.png","74","719.5","1","1","3","2","1,0.7,0.7,0.7,1,0.7,0.7,0.7,1","1,0.7,0.7,0.7,1,0.7,0.7,0.7,1","","",""
"","html-keyboard-response","196","158976","0.0-196.0","37W3JXSD67U1JCEHZU8COFSZFE2WY0","A3LVLZS8S41ZD7","3THR0FZ95PF7SK0MYRNAOUHTWA4OLV","","null","<img src=""img/land6.png"" style=""width:200px; border:14px solid green;"">","null","","","","","","","","","",""
"","image-keyboard-response","197","159409","0.0-197.0","37W3JXSD67U1JCEHZU8COFSZFE2WY0","A3LVLZS8S41ZD7","3THR0FZ95PF7SK0MYRNAOUHTWA4OLV","","431.69999998807907","img/land6.png","74","433.19999998807907","1","1","3","2","1,0.7,0.7,0.7,1,0.7,0.7,0.7,1","1,0.7,0.7,0.7,1,0.7,0.7,0.7,1","","",""
"","html-keyboard-response","198","159711","0.0-198.0","37W3JXSD67U1JCEHZU8COFSZFE2WY0","A3LVLZS8S41ZD7","3THR0FZ95PF7SK0MYRNAOUHTWA4OLV","","null","<img src=""img/land6.png"" style=""width:200px; border:14px solid green;"">","null","","","","","","","","","",""
"","image-keyboard-response","199","160307","0.0-199.0","37W3JXSD67U1JCEHZU8COFSZFE2WY0","A3LVLZS8S41ZD7","3THR0FZ95PF7SK0MYRNAOUHTWA4OLV","","594.8999999761581","img/land5.png","75","595.9000000357628","2","1","2","2","1,0.7,0.7,0.7,1,0.7,0.7,0.7,1","1,0.7,0.7,0.7,1,0.7,0.7,0.7,1","","",""
"","html-keyboard-response","200","160611","0.0-200.0","37W3JXSD67U1JCEHZU8COFSZFE2WY0","A3LVLZS8S41ZD7","3THR0FZ95PF7SK0MYRNAOUHTWA4OLV","","null","<img src=""img/land5.png"" style=""width:200px; border:14px solid green;"">","null","","","","","","","","","",""
"","image-keyboard-response","201","161027","0.0-201.0","37W3JXSD67U1JCEHZU8COFSZFE2WY0","A3LVLZS8S41ZD7","3THR0FZ95PF7SK0MYRNAOUHTWA4OLV","","413.39999997615814","img/land5.png","75","415.5","2","1","2","2","1,0.7,0.7,0.7,1,0.7,0.7,0.7,1","1,0.7,0.7,0.7,1,0.7,0.7,0.7,1","","",""
"","html-keyboard-response","202","161329","0.0-202.0","37W3JXSD67U1JCEHZU8COFSZFE2WY0","A3LVLZS8S41ZD7","3THR0FZ95PF7SK0MYRNAOUHTWA4OLV","","null","<img src=""img/land5.png"" style=""width:200px; border:14px solid green;"">","null","","","","","","","","","",""
"","image-keyboard-response","203","161979","0.0-203.0","37W3JXSD67U1JCEHZU8COFSZFE2WY0","A3LVLZS8S41ZD7","3THR0FZ95PF7SK0MYRNAOUHTWA4OLV","","648.3999999761581","img/land4.png","76","649.5","3","0","1","2","1,0.7,0.7,0.7,1,0.7,0.7,0.7,1","1,0.7,0.7,0.7,1,0.7,0.7,0.7,1","","",""
"","html-keyboard-response","204","162282","0.0-204.0","37W3JXSD67U1JCEHZU8COFSZFE2WY0","A3LVLZS8S41ZD7","3THR0FZ95PF7SK0MYRNAOUHTWA4OLV","","null","<img src=""img/land4.png"" style=""width:200px;border:14px solid red;"">","null","","","","","","","","","",""
"","image-keyboard-response","205","163017","0.0-205.0","37W3JXSD67U1JCEHZU8COFSZFE2WY0","A3LVLZS8S41ZD7","3THR0FZ95PF7SK0MYRNAOUHTWA4OLV","","734","img/land6.png","74","735.1999999880791","1","1","3","2","1,0.7,0.7,0.7,1,0.7,0.7,0.7,1","1,0.7,0.7,0.7,1,0.7,0.7,0.7,1","","",""
"","html-keyboard-response","206","163319","0.0-206.0","37W3JXSD67U1JCEHZU8COFSZFE2WY0","A3LVLZS8S41ZD7","3THR0FZ95PF7SK0MYRNAOUHTWA4OLV","","null","<img src=""img/land6.png"" style=""width:200px; border:14px solid green;"">","null","","","","","","","","","",""
"","image-keyboard-response","207","163915","0.0-207.0","37W3JXSD67U1JCEHZU8COFSZFE2WY0","A3LVLZS8S41ZD7","3THR0FZ95PF7SK0MYRNAOUHTWA4OLV","","594.0999999642372","img/land5.png","75","595.6999999880791","2","1","2","2","1,0.7,0.7,0.7,1,0.7,0.7,0.7,1","1,0.7,0.7,0.7,1,0.7,0.7,0.7,1","","",""
"","html-keyboard-response","208","164218","0.0-208.0","37W3JXSD67U1JCEHZU8COFSZFE2WY0","A3LVLZS8S41ZD7","3THR0FZ95PF7SK0MYRNAOUHTWA4OLV","","null","<img src=""img/land5.png"" style=""width:200px; border:14px solid green;"">","null","","","","","","","","","",""
"","image-keyboard-response","209","164906","0.0-209.0","37W3JXSD67U1JCEHZU8COFSZFE2WY0","A3LVLZS8S41ZD7","3THR0FZ95PF7SK0MYRNAOUHTWA4OLV","","686.3000000119209","img/land6.png","74","687.6000000238419","1","0","3","2","1,0.7,0.7,0.7,1,0.7,0.7,0.7,1","1,0.7,0.7,0.7,1,0.7,0.7,0.7,1","","",""
"","html-keyboard-response","210","165208","0.0-210.0","37W3JXSD67U1JCEHZU8COFSZFE2WY0","A3LVLZS8S41ZD7","3THR0FZ95PF7SK0MYRNAOUHTWA4OLV","","null","<img src=""img/land6.png"" style=""width:200px;border:14px solid red;"">","null","","","","","","","","","",""
"","image-keyboard-response","211","165747","0.0-211.0","37W3JXSD67U1JCEHZU8COFSZFE2WY0","A3LVLZS8S41ZD7","3THR0FZ95PF7SK0MYRNAOUHTWA4OLV","","536.3999999761581","img/land6.png","74","537.8999999761581","1","1","3","2","1,0.7,0.7,0.7,1,0.7,0.7,0.7,1","1,0.7,0.7,0.7,1,0.7,0.7,0.7,1","","",""
"","html-keyboard-response","212","166050","0.0-212.0","37W3JXSD67U1JCEHZU8COFSZFE2WY0","A3LVLZS8S41ZD7","3THR0FZ95PF7SK0MYRNAOUHTWA4OLV","","null","<img src=""img/land6.png"" style=""width:200px; border:14px solid green;"">","null","","","","","","","","","",""
"","image-keyboard-response","213","166683","0.0-213.0","37W3JXSD67U1JCEHZU8COFSZFE2WY0","A3LVLZS8S41ZD7","3THR0FZ95PF7SK0MYRNAOUHTWA4OLV","","631.2000000476837","img/land4.png","76","632.6999999880791","3","1","1","2","1,0.7,0.7,0.7,1,0.7,0.7,0.7,1","1,0.7,0.7,0.7,1,0.7,0.7,0.7,1","","",""
"","html-keyboard-response","214","166986","0.0-214.0","37W3JXSD67U1JCEHZU8COFSZFE2WY0","A3LVLZS8S41ZD7","3THR0FZ95PF7SK0MYRNAOUHTWA4OLV","","null","<img src=""img/land4.png"" style=""width:200px; border:14px solid green;"">","null","","","","","","","","","",""
"","image-keyboard-response","215","167411","0.0-215.0","37W3JXSD67U1JCEHZU8COFSZFE2WY0","A3LVLZS8S41ZD7","3THR0FZ95PF7SK0MYRNAOUHTWA4OLV","","424.30000001192093","img/land4.png","76","425.30000001192093","3","0","1","2","1,0.7,0.7,0.7,1,0.7,0.7,0.7,1","1,0.7,0.7,0.7,1,0.7,0.7,0.7,1","","",""
"","html-keyboard-response","216","167714","0.0-216.0","37W3JXSD67U1JCEHZU8COFSZFE2WY0","A3LVLZS8S41ZD7","3THR0FZ95PF7SK0MYRNAOUHTWA4OLV","","null","<img src=""img/land4.png"" style=""width:200px;border:14px solid red;"">","null","","","","","","","","","",""
"","image-keyboard-response","217","168291","0.0-217.0","37W3JXSD67U1JCEHZU8COFSZFE2WY0","A3LVLZS8S41ZD7","3THR0FZ95PF7SK0MYRNAOUHTWA4OLV","","575.0999999642372","img/land4.png","76","576.5","3","1","1","2","1,0.7,0.7,0.7,1,0.7,0.7,0.7,1","1,0.7,0.7,0.7,1,0.7,0.7,0.7,1","","",""
"","html-keyboard-response","218","168594","0.0-218.0","37W3JXSD67U1JCEHZU8COFSZFE2WY0","A3LVLZS8S41ZD7","3THR0FZ95PF7SK0MYRNAOUHTWA4OLV","","null","<img src=""img/land4.png"" style=""width:200px; border:14px solid green;"">","null","","","","","","","","","",""
"","image-keyboard-response","219","169139","0.0-219.0","37W3JXSD67U1JCEHZU8COFSZFE2WY0","A3LVLZS8S41ZD7","3THR0FZ95PF7SK0MYRNAOUHTWA4OLV","","543.9000000357628","img/land5.png","75","545.0999999642372","2","1","2","2","1,0.7,0.7,0.7,1,0.7,0.7,0.7,1","1,0.7,0.7,0.7,1,0.7,0.7,0.7,1","","",""
"","html-keyboard-response","220","169442","0.0-220.0","37W3JXSD67U1JCEHZU8COFSZFE2WY0","A3LVLZS8S41ZD7","3THR0FZ95PF7SK0MYRNAOUHTWA4OLV","","null","<img src=""img/land5.png"" style=""width:200px; border:14px solid green;"">","null","","","","","","","","","",""
"","image-keyboard-response","221","170123","0.0-221.0","37W3JXSD67U1JCEHZU8COFSZFE2WY0","A3LVLZS8S41ZD7","3THR0FZ95PF7SK0MYRNAOUHTWA4OLV","","679.1000000238419","img/land4.png","76","680.6999999880791","3","1","1","2","1,0.7,0.7,0.7,1,0.7,0.7,0.7,1","1,0.7,0.7,0.7,1,0.7,0.7,0.7,1","","",""
"","html-keyboard-response","222","170426","0.0-222.0","37W3JXSD67U1JCEHZU8COFSZFE2WY0","A3LVLZS8S41ZD7","3THR0FZ95PF7SK0MYRNAOUHTWA4OLV","","null","<img src=""img/land4.png"" style=""width:200px; border:14px solid green;"">","null","","","","","","","","","",""
"","image-keyboard-response","223","170826","0.0-223.0","37W3JXSD67U1JCEHZU8COFSZFE2WY0","A3LVLZS8S41ZD7","3THR0FZ95PF7SK0MYRNAOUHTWA4OLV","","398.89999997615814","img/land4.png","76","399.80000001192093","3","1","1","2","1,0.7,0.7,0.7,1,0.7,0.7,0.7,1","1,0.7,0.7,0.7,1,0.7,0.7,0.7,1","","",""
"","html-keyboard-response","224","171127","0.0-224.0","37W3JXSD67U1JCEHZU8COFSZFE2WY0","A3LVLZS8S41ZD7","3THR0FZ95PF7SK0MYRNAOUHTWA4OLV","","null","<img src=""img/land4.png"" style=""width:200px; border:14px solid green;"">","null","","","","","","","","","",""
"","image-keyboard-response","225","171659","0.0-225.0","37W3JXSD67U1JCEHZU8COFSZFE2WY0","A3LVLZS8S41ZD7","3THR0FZ95PF7SK0MYRNAOUHTWA4OLV","","530.1999999880791","img/land5.png","75","531.6999999880791","2","1","2","2","1,0.7,0.7,0.7,1,0.7,0.7,0.7,1","1,0.7,0.7,0.7,1,0.7,0.7,0.7,1","","",""
"","html-keyboard-response","226","171961","0.0-226.0","37W3JXSD67U1JCEHZU8COFSZFE2WY0","A3LVLZS8S41ZD7","3THR0FZ95PF7SK0MYRNAOUHTWA4OLV","","null","<img src=""img/land5.png"" style=""width:200px; border:14px solid green;"">","null","","","","","","","","","",""
"","image-keyboard-response","227","172443","0.0-227.0","37W3JXSD67U1JCEHZU8COFSZFE2WY0","A3LVLZS8S41ZD7","3THR0FZ95PF7SK0MYRNAOUHTWA4OLV","","479.30000001192093","img/land4.png","76","481","3","1","1","2","1,0.7,0.7,0.7,1,0.7,0.7,0.7,1","1,0.7,0.7,0.7,1,0.7,0.7,0.7,1","","",""
"","html-keyboard-response","228","172745","0.0-228.0","37W3JXSD67U1JCEHZU8COFSZFE2WY0","A3LVLZS8S41ZD7","3THR0FZ95PF7SK0MYRNAOUHTWA4OLV","","null","<img src=""img/land4.png"" style=""width:200px; border:14px solid green;"">","null","","","","","","","","","",""
"","image-keyboard-response","229","173266","0.0-229.0","37W3JXSD67U1JCEHZU8COFSZFE2WY0","A3LVLZS8S41ZD7","3THR0FZ95PF7SK0MYRNAOUHTWA4OLV","","519.3000000119209","img/land6.png","75","520.6000000238419","2","1","3","2","1,0.7,0.7,0.7,1,0.7,0.7,0.7,1","1,0.7,0.7,0.7,1,0.7,0.7,0.7,1","","",""
"","html-keyboard-response","230","173567","0.0-230.0","37W3JXSD67U1JCEHZU8COFSZFE2WY0","A3LVLZS8S41ZD7","3THR0FZ95PF7SK0MYRNAOUHTWA4OLV","","null","<img src=""img/land6.png"" style=""width:200px; border:14px solid green;"">","null","","","","","","","","","",""
"","image-keyboard-response","231","173939","0.0-231.0","37W3JXSD67U1JCEHZU8COFSZFE2WY0","A3LVLZS8S41ZD7","3THR0FZ95PF7SK0MYRNAOUHTWA4OLV","","369.2000000476837","img/land5.png","74","371","1","1","2","2","1,0.7,0.7,0.7,1,0.7,0.7,0.7,1","1,0.7,0.7,0.7,1,0.7,0.7,0.7,1","","",""
"","html-keyboard-response","232","174241","0.0-232.0","37W3JXSD67U1JCEHZU8COFSZFE2WY0","A3LVLZS8S41ZD7","3THR0FZ95PF7SK0MYRNAOUHTWA4OLV","","null","<img src=""img/land5.png"" style=""width:200px; border:14px solid green;"">","null","","","","","","","","","",""
"","image-keyboard-response","233","174946","0.0-233.0","37W3JXSD67U1JCEHZU8COFSZFE2WY0","A3LVLZS8S41ZD7","3THR0FZ95PF7SK0MYRNAOUHTWA4OLV","","702.6999999880791","img/land6.png","74","704","1","0","3","2","1,0.7,0.7,0.7,1,0.7,0.7,0.7,1","1,0.7,0.7,0.7,1,0.7,0.7,0.7,1","","",""
"","html-keyboard-response","234","175247","0.0-234.0","37W3JXSD67U1JCEHZU8COFSZFE2WY0","A3LVLZS8S41ZD7","3THR0FZ95PF7SK0MYRNAOUHTWA4OLV","","null","<img src=""img/land6.png"" style=""width:200px;border:14px solid red;"">","null","","","","","","","","","",""
"","image-keyboard-response","235","175859","0.0-235.0","37W3JXSD67U1JCEHZU8COFSZFE2WY0","A3LVLZS8S41ZD7","3THR0FZ95PF7SK0MYRNAOUHTWA4OLV","","610.0999999642372","img/land4.png","75","611.8999999761581","2","1","1","2","1,0.7,0.7,0.7,1,0.7,0.7,0.7,1","1,0.7,0.7,0.7,1,0.7,0.7,0.7,1","","",""
"","html-keyboard-response","236","176162","0.0-236.0","37W3JXSD67U1JCEHZU8COFSZFE2WY0","A3LVLZS8S41ZD7","3THR0FZ95PF7SK0MYRNAOUHTWA4OLV","","null","<img src=""img/land4.png"" style=""width:200px; border:14px solid green;"">","null","","","","","","","","","",""
"","image-keyboard-response","237","177179","0.0-237.0","37W3JXSD67U1JCEHZU8COFSZFE2WY0","A3LVLZS8S41ZD7","3THR0FZ95PF7SK0MYRNAOUHTWA4OLV","","1015.1000000238419","img/land6.png","74","1016.9000000357628","1","1","3","2","1,0.7,0.7,0.7,1,0.7,0.7,0.7,1","1,0.7,0.7,0.7,1,0.7,0.7,0.7,1","","",""
"","html-keyboard-response","238","177482","0.0-238.0","37W3JXSD67U1JCEHZU8COFSZFE2WY0","A3LVLZS8S41ZD7","3THR0FZ95PF7SK0MYRNAOUHTWA4OLV","","null","<img src=""img/land6.png"" style=""width:200px; border:14px solid green;"">","null","","","","","","","","","",""
"","image-keyboard-response","239","177915","0.0-239.0","37W3JXSD67U1JCEHZU8COFSZFE2WY0","A3LVLZS8S41ZD7","3THR0FZ95PF7SK0MYRNAOUHTWA4OLV","","430.69999998807907","img/land6.png","74","432.30000001192093","1","1","3","2","1,0.7,0.7,0.7,1,0.7,0.7,0.7,1","1,0.7,0.7,0.7,1,0.7,0.7,0.7,1","","",""
"","html-keyboard-response","240","178217","0.0-240.0","37W3JXSD67U1JCEHZU8COFSZFE2WY0","A3LVLZS8S41ZD7","3THR0FZ95PF7SK0MYRNAOUHTWA4OLV","","null","<img src=""img/land6.png"" style=""width:200px; border:14px solid green;"">","null","","","","","","","","","",""
"","image-keyboard-response","241","178914","0.0-241.0","37W3JXSD67U1JCEHZU8COFSZFE2WY0","A3LVLZS8S41ZD7","3THR0FZ95PF7SK0MYRNAOUHTWA4OLV","","694.5999999642372","img/land5.png","75","696","2","1","2","2","1,0.7,0.7,0.7,1,0.7,0.7,0.7,1","1,0.7,0.7,0.7,1,0.7,0.7,0.7,1","","",""
"","html-keyboard-response","242","179216","0.0-242.0","37W3JXSD67U1JCEHZU8COFSZFE2WY0","A3LVLZS8S41ZD7","3THR0FZ95PF7SK0MYRNAOUHTWA4OLV","","null","<img src=""img/land5.png"" style=""width:200px; border:14px solid green;"">","null","","","","","","","","","",""
"","image-keyboard-response","243","179755","0.0-243.0","37W3JXSD67U1JCEHZU8COFSZFE2WY0","A3LVLZS8S41ZD7","3THR0FZ95PF7SK0MYRNAOUHTWA4OLV","","537.1000000238419","img/land4.png","76","538.7999999523163","3","1","1","2","1,0.7,0.7,0.7,1,0.7,0.7,0.7,1","1,0.7,0.7,0.7,1,0.7,0.7,0.7,1","","",""
"","html-keyboard-response","244","180058","0.0-244.0","37W3JXSD67U1JCEHZU8COFSZFE2WY0","A3LVLZS8S41ZD7","3THR0FZ95PF7SK0MYRNAOUHTWA4OLV","","null","<img src=""img/land4.png"" style=""width:200px; border:14px solid green;"">","null","","","","","","","","","",""
"","image-keyboard-response","245","180771","0.0-245.0","37W3JXSD67U1JCEHZU8COFSZFE2WY0","A3LVLZS8S41ZD7","3THR0FZ95PF7SK0MYRNAOUHTWA4OLV","","711.0999999642372","img/land6.png","74","712.8000000119209","1","1","3","2","1,0.7,0.7,0.7,1,0.7,0.7,0.7,1","1,0.7,0.7,0.7,1,0.7,0.7,0.7,1","","",""
"","html-keyboard-response","246","181074","0.0-246.0","37W3JXSD67U1JCEHZU8COFSZFE2WY0","A3LVLZS8S41ZD7","3THR0FZ95PF7SK0MYRNAOUHTWA4OLV","","null","<img src=""img/land6.png"" style=""width:200px; border:14px solid green;"">","null","","","","","","","","","",""
"","image-keyboard-response","247","181643","0.0-247.0","37W3JXSD67U1JCEHZU8COFSZFE2WY0","A3LVLZS8S41ZD7","3THR0FZ95PF7SK0MYRNAOUHTWA4OLV","","567.3000000119209","img/land4.png","75","568.5","2","1","1","2","1,0.7,0.7,0.7,1,0.7,0.7,0.7,1","1,0.7,0.7,0.7,1,0.7,0.7,0.7,1","","",""
"","html-keyboard-response","248","181946","0.0-248.0","37W3JXSD67U1JCEHZU8COFSZFE2WY0","A3LVLZS8S41ZD7","3THR0FZ95PF7SK0MYRNAOUHTWA4OLV","","null","<img src=""img/land4.png"" style=""width:200px; border:14px solid green;"">","null","","","","","","","","","",""
"","image-keyboard-response","249","182666","0.0-249.0","37W3JXSD67U1JCEHZU8COFSZFE2WY0","A3LVLZS8S41ZD7","3THR0FZ95PF7SK0MYRNAOUHTWA4OLV","","717.8999999761581","img/land6.png","74","719.3000000119209","1","1","3","2","1,0.7,0.7,0.7,1,0.7,0.7,0.7,1","1,0.7,0.7,0.7,1,0.7,0.7,0.7,1","","",""
"","html-keyboard-response","250","182967","0.0-250.0","37W3JXSD67U1JCEHZU8COFSZFE2WY0","A3LVLZS8S41ZD7","3THR0FZ95PF7SK0MYRNAOUHTWA4OLV","","null","<img src=""img/land6.png"" style=""width:200px; border:14px solid green;"">","null","","","","","","","","","",""
"","image-keyboard-response","251","183594","0.0-251.0","37W3JXSD67U1JCEHZU8COFSZFE2WY0","A3LVLZS8S41ZD7","3THR0FZ95PF7SK0MYRNAOUHTWA4OLV","","625.7000000476837","img/land4.png","76","626.6000000238419","3","0","1","2","1,0.7,0.7,0.7,1,0.7,0.7,0.7,1","1,0.7,0.7,0.7,1,0.7,0.7,0.7,1","","",""
"","html-keyboard-response","252","183896","0.0-252.0","37W3JXSD67U1JCEHZU8COFSZFE2WY0","A3LVLZS8S41ZD7","3THR0FZ95PF7SK0MYRNAOUHTWA4OLV","","null","<img src=""img/land4.png"" style=""width:200px;border:14px solid red;"">","null","","","","","","","","","",""
"","image-keyboard-response","253","184634","0.0-253.0","37W3JXSD67U1JCEHZU8COFSZFE2WY0","A3LVLZS8S41ZD7","3THR0FZ95PF7SK0MYRNAOUHTWA4OLV","","736.9000000357628","img/land6.png","74","737.5","1","1","3","2","1,0.7,0.7,0.7,1,0.7,0.7,0.7,1","1,0.7,0.7,0.7,1,0.7,0.7,0.7,1","","",""
"","html-keyboard-response","254","184938","0.0-254.0","37W3JXSD67U1JCEHZU8COFSZFE2WY0","A3LVLZS8S41ZD7","3THR0FZ95PF7SK0MYRNAOUHTWA4OLV","","null","<img src=""img/land6.png"" style=""width:200px; border:14px solid green;"">","null","","","","","","","","","",""
"","image-keyboard-response","255","185506","0.0-255.0","37W3JXSD67U1JCEHZU8COFSZFE2WY0","A3LVLZS8S41ZD7","3THR0FZ95PF7SK0MYRNAOUHTWA4OLV","","567.4000000357628","img/land6.png","74","568.1999999880791","1","1","3","2","1,0.7,0.7,0.7,1,0.7,0.7,0.7,1","1,0.7,0.7,0.7,1,0.7,0.7,0.7,1","","",""
"","html-keyboard-response","256","185807","0.0-256.0","37W3JXSD67U1JCEHZU8COFSZFE2WY0","A3LVLZS8S41ZD7","3THR0FZ95PF7SK0MYRNAOUHTWA4OLV","","null","<img src=""img/land6.png"" style=""width:200px; border:14px solid green;"">","null","","","","","","","","","",""
"","image-keyboard-response","257","186442","0.0-257.0","37W3JXSD67U1JCEHZU8COFSZFE2WY0","A3LVLZS8S41ZD7","3THR0FZ95PF7SK0MYRNAOUHTWA4OLV","","633.7000000476837","img/land4.png","76","634.3999999761581","3","1","1","2","1,0.7,0.7,0.7,1,0.7,0.7,0.7,1","1,0.7,0.7,0.7,1,0.7,0.7,0.7,1","","",""
"","html-keyboard-response","258","186744","0.0-258.0","37W3JXSD67U1JCEHZU8COFSZFE2WY0","A3LVLZS8S41ZD7","3THR0FZ95PF7SK0MYRNAOUHTWA4OLV","","null","<img src=""img/land4.png"" style=""width:200px; border:14px solid green;"">","null","","","","","","","","","",""
"","image-keyboard-response","259","187314","0.0-259.0","37W3JXSD67U1JCEHZU8COFSZFE2WY0","A3LVLZS8S41ZD7","3THR0FZ95PF7SK0MYRNAOUHTWA4OLV","","569.2000000476837","img/land6.png","74","570","1","0","3","2","1,0.7,0.7,0.7,1,0.7,0.7,0.7,1","1,0.7,0.7,0.7,1,0.7,0.7,0.7,1","","",""
"","html-keyboard-response","260","187615","0.0-260.0","37W3JXSD67U1JCEHZU8COFSZFE2WY0","A3LVLZS8S41ZD7","3THR0FZ95PF7SK0MYRNAOUHTWA4OLV","","null","<img src=""img/land6.png"" style=""width:200px;border:14px solid red;"">","null","","","","","","","","","",""
"","image-keyboard-response","261","188082","0.0-261.0","37W3JXSD67U1JCEHZU8COFSZFE2WY0","A3LVLZS8S41ZD7","3THR0FZ95PF7SK0MYRNAOUHTWA4OLV","","465.5","img/land6.png","74","466.19999998807907","1","0","3","2","1,0.7,0.7,0.7,1,0.7,0.7,0.7,1","1,0.7,0.7,0.7,1,0.7,0.7,0.7,1","","",""
"","html-keyboard-response","262","188383","0.0-262.0","37W3JXSD67U1JCEHZU8COFSZFE2WY0","A3LVLZS8S41ZD7","3THR0FZ95PF7SK0MYRNAOUHTWA4OLV","","null","<img src=""img/land6.png"" style=""width:200px;border:14px solid red;"">","null","","","","","","","","","",""
"","image-keyboard-response","263","189066","0.0-263.0","37W3JXSD67U1JCEHZU8COFSZFE2WY0","A3LVLZS8S41ZD7","3THR0FZ95PF7SK0MYRNAOUHTWA4OLV","","682.1999999880791","img/land5.png","75","682.8000000119209","2","1","2","2","1,0.7,0.7,0.7,1,0.7,0.7,0.7,1","1,0.7,0.7,0.7,1,0.7,0.7,0.7,1","","",""
"","html-keyboard-response","264","189368","0.0-264.0","37W3JXSD67U1JCEHZU8COFSZFE2WY0","A3LVLZS8S41ZD7","3THR0FZ95PF7SK0MYRNAOUHTWA4OLV","","null","<img src=""img/land5.png"" style=""width:200px; border:14px solid green;"">","null","","","","","","","","","",""
"","image-keyboard-response","265","189778","0.0-265.0","37W3JXSD67U1JCEHZU8COFSZFE2WY0","A3LVLZS8S41ZD7","3THR0FZ95PF7SK0MYRNAOUHTWA4OLV","","409.10000002384186","img/land5.png","75","409.7000000476837","2","1","2","2","1,0.7,0.7,0.7,1,0.7,0.7,0.7,1","1,0.7,0.7,0.7,1,0.7,0.7,0.7,1","","",""
"","html-keyboard-response","266","190079","0.0-266.0","37W3JXSD67U1JCEHZU8COFSZFE2WY0","A3LVLZS8S41ZD7","3THR0FZ95PF7SK0MYRNAOUHTWA4OLV","","null","<img src=""img/land5.png"" style=""width:200px; border:14px solid green;"">","null","","","","","","","","","",""
"","image-keyboard-response","267","190642","0.0-267.0","37W3JXSD67U1JCEHZU8COFSZFE2WY0","A3LVLZS8S41ZD7","3THR0FZ95PF7SK0MYRNAOUHTWA4OLV","","561.4000000357628","img/land4.png","76","562.0999999642372","3","0","1","2","1,0.7,0.7,0.7,1,0.7,0.7,0.7,1","1,0.7,0.7,0.7,1,0.7,0.7,0.7,1","","",""
"","html-keyboard-response","268","190943","0.0-268.0","37W3JXSD67U1JCEHZU8COFSZFE2WY0","A3LVLZS8S41ZD7","3THR0FZ95PF7SK0MYRNAOUHTWA4OLV","","null","<img src=""img/land4.png"" style=""width:200px;border:14px solid red;"">","null","","","","","","","","","",""
"","image-keyboard-response","269","191610","0.0-269.0","37W3JXSD67U1JCEHZU8COFSZFE2WY0","A3LVLZS8S41ZD7","3THR0FZ95PF7SK0MYRNAOUHTWA4OLV","","666","img/land5.png","75","666.8000000119209","2","1","2","2","1,0.7,0.7,0.7,1,0.7,0.7,0.7,1","1,0.7,0.7,0.7,1,0.7,0.7,0.7,1","","",""
"","html-keyboard-response","270","191911","0.0-270.0","37W3JXSD67U1JCEHZU8COFSZFE2WY0","A3LVLZS8S41ZD7","3THR0FZ95PF7SK0MYRNAOUHTWA4OLV","","null","<img src=""img/land5.png"" style=""width:200px; border:14px solid green;"">","null","","","","","","","","","",""
"","image-keyboard-response","271","192546","0.0-271.0","37W3JXSD67U1JCEHZU8COFSZFE2WY0","A3LVLZS8S41ZD7","3THR0FZ95PF7SK0MYRNAOUHTWA4OLV","","633.5","img/land6.png","74","634.3000000119209","1","1","3","2","1,0.7,0.7,0.7,1,0.7,0.7,0.7,1","1,0.7,0.7,0.7,1,0.7,0.7,0.7,1","","",""
"","html-keyboard-response","272","192848","0.0-272.0","37W3JXSD67U1JCEHZU8COFSZFE2WY0","A3LVLZS8S41ZD7","3THR0FZ95PF7SK0MYRNAOUHTWA4OLV","","null","<img src=""img/land6.png"" style=""width:200px; border:14px solid green;"">","null","","","","","","","","","",""
"","image-keyboard-response","273","193490","0.0-273.0","37W3JXSD67U1JCEHZU8COFSZFE2WY0","A3LVLZS8S41ZD7","3THR0FZ95PF7SK0MYRNAOUHTWA4OLV","","641.0999999642372","img/land5.png","75","641.8000000119209","2","1","2","2","1,0.7,0.7,0.7,1,0.7,0.7,0.7,1","1,0.7,0.7,0.7,1,0.7,0.7,0.7,1","","",""
"","html-keyboard-response","274","193791","0.0-274.0","37W3JXSD67U1JCEHZU8COFSZFE2WY0","A3LVLZS8S41ZD7","3THR0FZ95PF7SK0MYRNAOUHTWA4OLV","","null","<img src=""img/land5.png"" style=""width:200px; border:14px solid green;"">","null","","","","","","","","","",""
"","image-keyboard-response","275","194474","0.0-275.0","37W3JXSD67U1JCEHZU8COFSZFE2WY0","A3LVLZS8S41ZD7","3THR0FZ95PF7SK0MYRNAOUHTWA4OLV","","682.0999999642372","img/land4.png","76","682.8000000119209","3","1","1","2","1,0.7,0.7,0.7,1,0.7,0.7,0.7,1","1,0.7,0.7,0.7,1,0.7,0.7,0.7,1","","",""
"","html-keyboard-response","276","194777","0.0-276.0","37W3JXSD67U1JCEHZU8COFSZFE2WY0","A3LVLZS8S41ZD7","3THR0FZ95PF7SK0MYRNAOUHTWA4OLV","","null","<img src=""img/land4.png"" style=""width:200px; border:14px solid green;"">","null","","","","","","","","","",""
"","image-keyboard-response","277","195242","0.0-277.0","37W3JXSD67U1JCEHZU8COFSZFE2WY0","A3LVLZS8S41ZD7","3THR0FZ95PF7SK0MYRNAOUHTWA4OLV","","464.10000002384186","img/land4.png","76","464.7999999523163","3","0","1","2","1,0.7,0.7,0.7,1,0.7,0.7,0.7,1","1,0.7,0.7,0.7,1,0.7,0.7,0.7,1","","",""
"","html-keyboard-response","278","195544","0.0-278.0","37W3JXSD67U1JCEHZU8COFSZFE2WY0","A3LVLZS8S41ZD7","3THR0FZ95PF7SK0MYRNAOUHTWA4OLV","","null","<img src=""img/land4.png"" style=""width:200px;border:14px solid red;"">","null","","","","","","","","","",""
"","image-keyboard-response","279","196234","0.0-279.0","37W3JXSD67U1JCEHZU8COFSZFE2WY0","A3LVLZS8S41ZD7","3THR0FZ95PF7SK0MYRNAOUHTWA4OLV","","689.3999999761581","img/land6.png","74","690","1","1","3","2","1,0.7,0.7,0.7,1,0.7,0.7,0.7,1","1,0.7,0.7,0.7,1,0.7,0.7,0.7,1","","",""
"","html-keyboard-response","280","196537","0.0-280.0","37W3JXSD67U1JCEHZU8COFSZFE2WY0","A3LVLZS8S41ZD7","3THR0FZ95PF7SK0MYRNAOUHTWA4OLV","","null","<img src=""img/land6.png"" style=""width:200px; border:14px solid green;"">","null","","","","","","","","","",""
"","image-keyboard-response","281","197171","0.0-281.0","37W3JXSD67U1JCEHZU8COFSZFE2WY0","A3LVLZS8S41ZD7","3THR0FZ95PF7SK0MYRNAOUHTWA4OLV","","633","img/land4.png","75","634.1000000238419","2","1","1","2","1,0.7,0.7,0.7,1,0.7,0.7,0.7,1","1,0.7,0.7,0.7,1,0.7,0.7,0.7,1","","",""
"","html-keyboard-response","282","197473","0.0-282.0","37W3JXSD67U1JCEHZU8COFSZFE2WY0","A3LVLZS8S41ZD7","3THR0FZ95PF7SK0MYRNAOUHTWA4OLV","","null","<img src=""img/land4.png"" style=""width:200px; border:14px solid green;"">","null","","","","","","","","","",""
"","image-keyboard-response","283","198251","0.0-283.0","37W3JXSD67U1JCEHZU8COFSZFE2WY0","A3LVLZS8S41ZD7","3THR0FZ95PF7SK0MYRNAOUHTWA4OLV","","775.5","img/land6.png","74","777.3000000119209","1","1","3","2","1,0.7,0.7,0.7,1,0.7,0.7,0.7,1","1,0.7,0.7,0.7,1,0.7,0.7,0.7,1","","",""
"","html-keyboard-response","284","198554","0.0-284.0","37W3JXSD67U1JCEHZU8COFSZFE2WY0","A3LVLZS8S41ZD7","3THR0FZ95PF7SK0MYRNAOUHTWA4OLV","","null","<img src=""img/land6.png"" style=""width:200px; border:14px solid green;"">","null","","","","","","","","","",""
"","image-keyboard-response","285","199179","0.0-285.0","37W3JXSD67U1JCEHZU8COFSZFE2WY0","A3LVLZS8S41ZD7","3THR0FZ95PF7SK0MYRNAOUHTWA4OLV","","623.0999999642372","img/land5.png","75","624.8999999761581","2","1","2","2","1,0.7,0.7,0.7,1,0.7,0.7,0.7,1","1,0.7,0.7,0.7,1,0.7,0.7,0.7,1","","",""
"","html-keyboard-response","286","199482","0.0-286.0","37W3JXSD67U1JCEHZU8COFSZFE2WY0","A3LVLZS8S41ZD7","3THR0FZ95PF7SK0MYRNAOUHTWA4OLV","","null","<img src=""img/land5.png"" style=""width:200px; border:14px solid green;"">","null","","","","","","","","","",""
"","image-keyboard-response","287","200130","0.0-287.0","37W3JXSD67U1JCEHZU8COFSZFE2WY0","A3LVLZS8S41ZD7","3THR0FZ95PF7SK0MYRNAOUHTWA4OLV","","646.3999999761581","img/land6.png","74","647.3999999761581","1","1","3","2","1,0.7,0.7,0.7,1,0.7,0.7,0.7,1","1,0.7,0.7,0.7,1,0.7,0.7,0.7,1","","",""
"","html-keyboard-response","288","200431","0.0-288.0","37W3JXSD67U1JCEHZU8COFSZFE2WY0","A3LVLZS8S41ZD7","3THR0FZ95PF7SK0MYRNAOUHTWA4OLV","","null","<img src=""img/land6.png"" style=""width:200px; border:14px solid green;"">","null","","","","","","","","","",""
"","image-keyboard-response","289","201162","0.0-289.0","37W3JXSD67U1JCEHZU8COFSZFE2WY0","A3LVLZS8S41ZD7","3THR0FZ95PF7SK0MYRNAOUHTWA4OLV","","729.7000000476837","img/land4.png","76","730.3999999761581","3","0","1","2","1,0.7,0.7,0.7,1,0.7,0.7,0.7,1","1,0.7,0.7,0.7,1,0.7,0.7,0.7,1","","",""
"","html-keyboard-response","290","201463","0.0-290.0","37W3JXSD67U1JCEHZU8COFSZFE2WY0","A3LVLZS8S41ZD7","3THR0FZ95PF7SK0MYRNAOUHTWA4OLV","","null","<img src=""img/land4.png"" style=""width:200px;border:14px solid red;"">","null","","","","","","","","","",""
"","image-keyboard-response","291","202451","0.0-291.0","37W3JXSD67U1JCEHZU8COFSZFE2WY0","A3LVLZS8S41ZD7","3THR0FZ95PF7SK0MYRNAOUHTWA4OLV","","983.6000000238419","img/land6.png","74","986.8000000119209","1","0","3","2","1,0.7,0.7,0.7,1,0.7,0.7,0.7,1","1,0.7,0.7,0.7,1,0.7,0.7,0.7,1","","",""
"","html-keyboard-response","292","202754","0.0-292.0","37W3JXSD67U1JCEHZU8COFSZFE2WY0","A3LVLZS8S41ZD7","3THR0FZ95PF7SK0MYRNAOUHTWA4OLV","","null","<img src=""img/land6.png"" style=""width:200px;border:14px solid red;"">","null","","","","","","","","","",""
"","image-keyboard-response","293","203387","0.0-293.0","37W3JXSD67U1JCEHZU8COFSZFE2WY0","A3LVLZS8S41ZD7","3THR0FZ95PF7SK0MYRNAOUHTWA4OLV","","631.3999999761581","img/land4.png","75","633.0999999642372","2","1","1","2","1,0.7,0.7,0.7,1,0.7,0.7,0.7,1","1,0.7,0.7,0.7,1,0.7,0.7,0.7,1","","",""
"","html-keyboard-response","294","203690","0.0-294.0","37W3JXSD67U1JCEHZU8COFSZFE2WY0","A3LVLZS8S41ZD7","3THR0FZ95PF7SK0MYRNAOUHTWA4OLV","","null","<img src=""img/land4.png"" style=""width:200px; border:14px solid green;"">","null","","","","","","","","","",""
"","image-keyboard-response","295","204339","0.0-295.0","37W3JXSD67U1JCEHZU8COFSZFE2WY0","A3LVLZS8S41ZD7","3THR0FZ95PF7SK0MYRNAOUHTWA4OLV","","648","img/land4.png","76","649","3","1","1","2","1,0.7,0.7,0.7,1,0.7,0.7,0.7,1","1,0.7,0.7,0.7,1,0.7,0.7,0.7,1","","",""
"","html-keyboard-response","296","204641","0.0-296.0","37W3JXSD67U1JCEHZU8COFSZFE2WY0","A3LVLZS8S41ZD7","3THR0FZ95PF7SK0MYRNAOUHTWA4OLV","","null","<img src=""img/land4.png"" style=""width:200px; border:14px solid green;"">","null","","","","","","","","","",""
"","image-keyboard-response","297","205203","0.0-297.0","37W3JXSD67U1JCEHZU8COFSZFE2WY0","A3LVLZS8S41ZD7","3THR0FZ95PF7SK0MYRNAOUHTWA4OLV","","560","img/land5.png","75","561.6000000238419","2","1","2","2","1,0.7,0.7,0.7,1,0.7,0.7,0.7,1","1,0.7,0.7,0.7,1,0.7,0.7,0.7,1","","",""
"","html-keyboard-response","298","205505","0.0-298.0","37W3JXSD67U1JCEHZU8COFSZFE2WY0","A3LVLZS8S41ZD7","3THR0FZ95PF7SK0MYRNAOUHTWA4OLV","","null","<img src=""img/land5.png"" style=""width:200px; border:14px solid green;"">","null","","","","","","","","","",""
"","image-keyboard-response","299","206147","0.0-299.0","37W3JXSD67U1JCEHZU8COFSZFE2WY0","A3LVLZS8S41ZD7","3THR0FZ95PF7SK0MYRNAOUHTWA4OLV","","640.6000000238419","img/land6.png","74","641.8000000119209","1","0","3","2","1,0.7,0.7,0.7,1,0.7,0.7,0.7,1","1,0.7,0.7,0.7,1,0.7,0.7,0.7,1","","",""
"","html-keyboard-response","300","206450","0.0-300.0","37W3JXSD67U1JCEHZU8COFSZFE2WY0","A3LVLZS8S41ZD7","3THR0FZ95PF7SK0MYRNAOUHTWA4OLV","","null","<img src=""img/land6.png"" style=""width:200px;border:14px solid red;"">","null","","","","","","","","","",""
"","image-keyboard-response","301","207283","0.0-301.0","37W3JXSD67U1JCEHZU8COFSZFE2WY0","A3LVLZS8S41ZD7","3THR0FZ95PF7SK0MYRNAOUHTWA4OLV","","831","img/land4.png","76","832.6999999880791","3","1","1","2","1,0.7,0.7,0.7,1,0.7,0.7,0.7,1","1,0.7,0.7,0.7,1,0.7,0.7,0.7,1","","",""
"","html-keyboard-response","302","207587","0.0-302.0","37W3JXSD67U1JCEHZU8COFSZFE2WY0","A3LVLZS8S41ZD7","3THR0FZ95PF7SK0MYRNAOUHTWA4OLV","","null","<img src=""img/land4.png"" style=""width:200px; border:14px solid green;"">","null","","","","","","","","","",""
"","image-keyboard-response","303","208242","0.0-303.0","37W3JXSD67U1JCEHZU8COFSZFE2WY0","A3LVLZS8S41ZD7","3THR0FZ95PF7SK0MYRNAOUHTWA4OLV","","653.1000000238419","img/land5.png","75","654.5","2","1","2","2","1,0.7,0.7,0.7,1,0.7,0.7,0.7,1","1,0.7,0.7,0.7,1,0.7,0.7,0.7,1","","",""
"","html-keyboard-response","304","208544","0.0-304.0","37W3JXSD67U1JCEHZU8COFSZFE2WY0","A3LVLZS8S41ZD7","3THR0FZ95PF7SK0MYRNAOUHTWA4OLV","","null","<img src=""img/land5.png"" style=""width:200px; border:14px solid green;"">","null","","","","","","","","","",""
"","image-keyboard-response","305","208987","0.0-305.0","37W3JXSD67U1JCEHZU8COFSZFE2WY0","A3LVLZS8S41ZD7","3THR0FZ95PF7SK0MYRNAOUHTWA4OLV","","440.89999997615814","img/land5.png","75","442.69999998807907","2","1","2","2","1,0.7,0.7,0.7,1,0.7,0.7,0.7,1","1,0.7,0.7,0.7,1,0.7,0.7,0.7,1","","",""
"","html-keyboard-response","306","209290","0.0-306.0","37W3JXSD67U1JCEHZU8COFSZFE2WY0","A3LVLZS8S41ZD7","3THR0FZ95PF7SK0MYRNAOUHTWA4OLV","","null","<img src=""img/land5.png"" style=""width:200px; border:14px solid green;"">","null","","","","","","","","","",""
"","image-keyboard-response","307","209746","0.0-307.0","37W3JXSD67U1JCEHZU8COFSZFE2WY0","A3LVLZS8S41ZD7","3THR0FZ95PF7SK0MYRNAOUHTWA4OLV","","454.89999997615814","img/land5.png","75","455.5999999642372","2","1","2","2","1,0.7,0.7,0.7,1,0.7,0.7,0.7,1","1,0.7,0.7,0.7,1,0.7,0.7,0.7,1","","",""
"","html-keyboard-response","308","210047","0.0-308.0","37W3JXSD67U1JCEHZU8COFSZFE2WY0","A3LVLZS8S41ZD7","3THR0FZ95PF7SK0MYRNAOUHTWA4OLV","","null","<img src=""img/land5.png"" style=""width:200px; border:14px solid green;"">","null","","","","","","","","","",""
"","image-keyboard-response","309","210699","0.0-309.0","37W3JXSD67U1JCEHZU8COFSZFE2WY0","A3LVLZS8S41ZD7","3THR0FZ95PF7SK0MYRNAOUHTWA4OLV","","649.3000000119209","img/land5.png","75","651.1000000238419","2","1","2","2","1,0.7,0.7,0.7,1,0.7,0.7,0.7,1","1,0.7,0.7,0.7,1,0.7,0.7,0.7,1","","",""
"","html-keyboard-response","310","211001","0.0-310.0","37W3JXSD67U1JCEHZU8COFSZFE2WY0","A3LVLZS8S41ZD7","3THR0FZ95PF7SK0MYRNAOUHTWA4OLV","","null","<img src=""img/land5.png"" style=""width:200px; border:14px solid green;"">","null","","","","","","","","","",""
"","image-keyboard-response","311","211603","0.0-311.0","37W3JXSD67U1JCEHZU8COFSZFE2WY0","A3LVLZS8S41ZD7","3THR0FZ95PF7SK0MYRNAOUHTWA4OLV","","600.3999999761581","img/land6.png","75","601.5","2","1","3","2","1,0.7,0.7,0.7,1,0.7,0.7,0.7,1","1,0.7,0.7,0.7,1,0.7,0.7,0.7,1","","",""
"","html-keyboard-response","312","211906","0.0-312.0","37W3JXSD67U1JCEHZU8COFSZFE2WY0","A3LVLZS8S41ZD7","3THR0FZ95PF7SK0MYRNAOUHTWA4OLV","","null","<img src=""img/land6.png"" style=""width:200px; border:14px solid green;"">","null","","","","","","","","","",""
"","image-keyboard-response","313","212290","0.0-313.0","37W3JXSD67U1JCEHZU8COFSZFE2WY0","A3LVLZS8S41ZD7","3THR0FZ95PF7SK0MYRNAOUHTWA4OLV","","382.2999999523163","img/land6.png","75","384","2","1","3","2","1,0.7,0.7,0.7,1,0.7,0.7,0.7,1","1,0.7,0.7,0.7,1,0.7,0.7,0.7,1","","",""
"","html-keyboard-response","314","212593","0.0-314.0","37W3JXSD67U1JCEHZU8COFSZFE2WY0","A3LVLZS8S41ZD7","3THR0FZ95PF7SK0MYRNAOUHTWA4OLV","","null","<img src=""img/land6.png"" style=""width:200px; border:14px solid green;"">","null","","","","","","","","","",""
"","image-keyboard-response","315","213275","0.0-315.0","37W3JXSD67U1JCEHZU8COFSZFE2WY0","A3LVLZS8S41ZD7","3THR0FZ95PF7SK0MYRNAOUHTWA4OLV","","680.5","img/land5.png","76","681.8999999761581","3","1","2","2","1,0.7,0.7,0.7,1,0.7,0.7,0.7,1","1,0.7,0.7,0.7,1,0.7,0.7,0.7,1","","",""
"","html-keyboard-response","316","213577","0.0-316.0","37W3JXSD67U1JCEHZU8COFSZFE2WY0","A3LVLZS8S41ZD7","3THR0FZ95PF7SK0MYRNAOUHTWA4OLV","","null","<img src=""img/land5.png"" style=""width:200px; border:14px solid green;"">","null","","","","","","","","","",""
"","image-keyboard-response","317","214299","0.0-317.0","37W3JXSD67U1JCEHZU8COFSZFE2WY0","A3LVLZS8S41ZD7","3THR0FZ95PF7SK0MYRNAOUHTWA4OLV","","720.5","img/land4.png","75","721.5","2","1","1","2","1,0.7,0.7,0.7,1,0.7,0.7,0.7,1","1,0.7,0.7,0.7,1,0.7,0.7,0.7,1","","",""
"","html-keyboard-response","318","214602","0.0-318.0","37W3JXSD67U1JCEHZU8COFSZFE2WY0","A3LVLZS8S41ZD7","3THR0FZ95PF7SK0MYRNAOUHTWA4OLV","","null","<img src=""img/land4.png"" style=""width:200px; border:14px solid green;"">","null","","","","","","","","","",""
"","image-keyboard-response","319","215235","0.0-319.0","37W3JXSD67U1JCEHZU8COFSZFE2WY0","A3LVLZS8S41ZD7","3THR0FZ95PF7SK0MYRNAOUHTWA4OLV","","631.1000000238419","img/land6.png","76","632.8000000119209","3","1","3","2","1,0.7,0.7,0.7,1,0.7,0.7,0.7,1","1,0.7,0.7,0.7,1,0.7,0.7,0.7,1","","",""
"","html-keyboard-response","320","215538","0.0-320.0","37W3JXSD67U1JCEHZU8COFSZFE2WY0","A3LVLZS8S41ZD7","3THR0FZ95PF7SK0MYRNAOUHTWA4OLV","","null","<img src=""img/land6.png"" style=""width:200px; border:14px solid green;"">","null","","","","","","","","","",""
"","image-keyboard-response","321","216202","0.0-321.0","37W3JXSD67U1JCEHZU8COFSZFE2WY0","A3LVLZS8S41ZD7","3THR0FZ95PF7SK0MYRNAOUHTWA4OLV","","661.8000000119209","img/land5.png","75","663.1999999880791","2","1","2","2","1,0.7,0.7,0.7,1,0.7,0.7,0.7,1","1,0.7,0.7,0.7,1,0.7,0.7,0.7,1","","",""
"","html-keyboard-response","322","216503","0.0-322.0","37W3JXSD67U1JCEHZU8COFSZFE2WY0","A3LVLZS8S41ZD7","3THR0FZ95PF7SK0MYRNAOUHTWA4OLV","","null","<img src=""img/land5.png"" style=""width:200px; border:14px solid green;"">","null","","","","","","","","","",""
"","image-keyboard-response","323","217203","0.0-323.0","37W3JXSD67U1JCEHZU8COFSZFE2WY0","A3LVLZS8S41ZD7","3THR0FZ95PF7SK0MYRNAOUHTWA4OLV","","697.3000000119209","img/land4.png","76","699","3","1","1","2","1,0.7,0.7,0.7,1,0.7,0.7,0.7,1","1,0.7,0.7,0.7,1,0.7,0.7,0.7,1","","",""
"","html-keyboard-response","324","217506","0.0-324.0","37W3JXSD67U1JCEHZU8COFSZFE2WY0","A3LVLZS8S41ZD7","3THR0FZ95PF7SK0MYRNAOUHTWA4OLV","","null","<img src=""img/land4.png"" style=""width:200px; border:14px solid green;"">","null","","","","","","","","","",""
"","image-keyboard-response","325","218100","0.0-325.0","37W3JXSD67U1JCEHZU8COFSZFE2WY0","A3LVLZS8S41ZD7","3THR0FZ95PF7SK0MYRNAOUHTWA4OLV","","591.6000000238419","img/land5.png","75","593.5","2","1","2","2","1,0.7,0.7,0.7,1,0.7,0.7,0.7,1","1,0.7,0.7,0.7,1,0.7,0.7,0.7,1","","",""
"","html-keyboard-response","326","218402","0.0-326.0","37W3JXSD67U1JCEHZU8COFSZFE2WY0","A3LVLZS8S41ZD7","3THR0FZ95PF7SK0MYRNAOUHTWA4OLV","","null","<img src=""img/land5.png"" style=""width:200px; border:14px solid green;"">","null","","","","","","","","","",""
"","image-keyboard-response","327","218827","0.0-327.0","37W3JXSD67U1JCEHZU8COFSZFE2WY0","A3LVLZS8S41ZD7","3THR0FZ95PF7SK0MYRNAOUHTWA4OLV","","423.10000002384186","img/land5.png","75","424.69999998807907","2","1","2","2","1,0.7,0.7,0.7,1,0.7,0.7,0.7,1","1,0.7,0.7,0.7,1,0.7,0.7,0.7,1","","",""
"","html-keyboard-response","328","219130","0.0-328.0","37W3JXSD67U1JCEHZU8COFSZFE2WY0","A3LVLZS8S41ZD7","3THR0FZ95PF7SK0MYRNAOUHTWA4OLV","","null","<img src=""img/land5.png"" style=""width:200px; border:14px solid green;"">","null","","","","","","","","","",""
"","image-keyboard-response","329","219522","0.0-329.0","37W3JXSD67U1JCEHZU8COFSZFE2WY0","A3LVLZS8S41ZD7","3THR0FZ95PF7SK0MYRNAOUHTWA4OLV","","390.69999998807907","img/land5.png","75","391.80000001192093","2","1","2","2","1,0.7,0.7,0.7,1,0.7,0.7,0.7,1","1,0.7,0.7,0.7,1,0.7,0.7,0.7,1","","",""
"","html-keyboard-response","330","219823","0.0-330.0","37W3JXSD67U1JCEHZU8COFSZFE2WY0","A3LVLZS8S41ZD7","3THR0FZ95PF7SK0MYRNAOUHTWA4OLV","","null","<img src=""img/land5.png"" style=""width:200px; border:14px solid green;"">","null","","","","","","","","","",""
"","image-keyboard-response","331","220403","0.0-331.0","37W3JXSD67U1JCEHZU8COFSZFE2WY0","A3LVLZS8S41ZD7","3THR0FZ95PF7SK0MYRNAOUHTWA4OLV","","579","img/land4.png","76","579.8999999761581","3","1","1","2","1,0.7,0.7,0.7,1,0.7,0.7,0.7,1","1,0.7,0.7,0.7,1,0.7,0.7,0.7,1","","",""
"","html-keyboard-response","332","220705","0.0-332.0","37W3JXSD67U1JCEHZU8COFSZFE2WY0","A3LVLZS8S41ZD7","3THR0FZ95PF7SK0MYRNAOUHTWA4OLV","","null","<img src=""img/land4.png"" style=""width:200px; border:14px solid green;"">","null","","","","","","","","","",""
"","image-keyboard-response","333","221243","0.0-333.0","37W3JXSD67U1JCEHZU8COFSZFE2WY0","A3LVLZS8S41ZD7","3THR0FZ95PF7SK0MYRNAOUHTWA4OLV","","536.5","img/land6.png","75","537.6000000238419","2","1","3","2","1,0.7,0.7,0.7,1,0.7,0.7,0.7,1","1,0.7,0.7,0.7,1,0.7,0.7,0.7,1","","",""
"","html-keyboard-response","334","221545","0.0-334.0","37W3JXSD67U1JCEHZU8COFSZFE2WY0","A3LVLZS8S41ZD7","3THR0FZ95PF7SK0MYRNAOUHTWA4OLV","","null","<img src=""img/land6.png"" style=""width:200px; border:14px solid green;"">","null","","","","","","","","","",""
"","image-keyboard-response","335","222299","0.0-335.0","37W3JXSD67U1JCEHZU8COFSZFE2WY0","A3LVLZS8S41ZD7","3THR0FZ95PF7SK0MYRNAOUHTWA4OLV","","751.0999999642372","img/land5.png","75","753","2","1","2","2","1,0.7,0.7,0.7,1,0.7,0.7,0.7,1","1,0.7,0.7,0.7,1,0.7,0.7,0.7,1","","",""
"","html-keyboard-response","336","222601","0.0-336.0","37W3JXSD67U1JCEHZU8COFSZFE2WY0","A3LVLZS8S41ZD7","3THR0FZ95PF7SK0MYRNAOUHTWA4OLV","","null","<img src=""img/land5.png"" style=""width:200px; border:14px solid green;"">","null","","","","","","","","","",""
"","image-keyboard-response","337","223075","0.0-337.0","37W3JXSD67U1JCEHZU8COFSZFE2WY0","A3LVLZS8S41ZD7","3THR0FZ95PF7SK0MYRNAOUHTWA4OLV","","471.5","img/land5.png","75","473.30000001192093","2","1","2","2","1,0.7,0.7,0.7,1,0.7,0.7,0.7,1","1,0.7,0.7,0.7,1,0.7,0.7,0.7,1","","",""
"","html-keyboard-response","338","223377","0.0-338.0","37W3JXSD67U1JCEHZU8COFSZFE2WY0","A3LVLZS8S41ZD7","3THR0FZ95PF7SK0MYRNAOUHTWA4OLV","","null","<img src=""img/land5.png"" style=""width:200px; border:14px solid green;"">","null","","","","","","","","","",""
"","instructions","339","226906","0.0-339.0","37W3JXSD67U1JCEHZU8COFSZFE2WY0","A3LVLZS8S41ZD7","3THR0FZ95PF7SK0MYRNAOUHTWA4OLV","[{""page_index"":0,""viewing_time"":3526.599999964237}]","3526.7999999523163","","","","","","","","","","","",""
"","survey-text","340","229035","0.0-340.0-0.0","37W3JXSD67U1JCEHZU8COFSZFE2WY0","A3LVLZS8S41ZD7","3THR0FZ95PF7SK0MYRNAOUHTWA4OLV","","2126.100000023842","","","","","","","","","","","{""Q0"":""51""}",""
"","survey-multi-choice","341","231890","0.0-340.0-1.0","37W3JXSD67U1JCEHZU8COFSZFE2WY0","A3LVLZS8S41ZD7","3THR0FZ95PF7SK0MYRNAOUHTWA4OLV","","2854.300000011921","","","","","","","","","","","{""gender"":""F""}","[0]"
"","survey-text","342","259682","0.0-341.0","37W3JXSD67U1JCEHZU8COFSZFE2WY0","A3LVLZS8S41ZD7","3THR0FZ95PF7SK0MYRNAOUHTWA4OLV","","27790.30000001192","","","","","","","","","","","{""Q0"":""A3LVLZS8S41ZD7""}",""
