"success","trial_type","trial_index","time_elapsed","internal_node_id","assignmentID","mturkID","hitID","view_history","rt","stimulus","key_press","reactionTime","a","r","s","cond","reward_cond","reward_cond_actual","reward_matrix_idx","responses","question_order"
"true","fullscreen","0","208308","0.0-0.0","3NOKK93PR2U9W7BZET2CV6TJQA4EEN","A3MYPYBVHX7FQ2","3IH9TRB0FBLK6RLF7MSMKICTMWW1I5","","","","","","","","","","","","","",""
"","instructions","1","293417","0.0-1.0","3NOKK93PR2U9W7BZET2CV6TJQA4EEN","A3MYPYBVHX7FQ2","3IH9TRB0FBLK6RLF7MSMKICTMWW1I5","[{""page_index"":0,""viewing_time"":5441.800000011921},{""page_index"":1,""viewing_time"":44335.59999999404},{""page_index"":2,""viewing_time"":10544.09999999404},{""page_index"":3,""viewing_time"":7815.9000000059605},{""page_index"":4,""viewing_time"":7375.699999988079},{""page_index"":5,""viewing_time"":3904.5},{""page_index"":6,""viewing_time"":5687.9000000059605}]","85106.09999999404","","","","","","","","","","","",""
"","image-keyboard-response","2","294606","0.0-2.0","3NOKK93PR2U9W7BZET2CV6TJQA4EEN","A3MYPYBVHX7FQ2","3IH9TRB0FBLK6RLF7MSMKICTMWW1I5","","1188","img/land3.png","75","1189.300000011921","2","0","3","2","1,0.5,0.5,0.5,1,0.5,0.5,0.5,1","1,0.5,0.5,0.5,1,0.5,0.5,0.5,1","","",""
"","html-keyboard-response","3","294909","0.0-3.0","3NOKK93PR2U9W7BZET2CV6TJQA4EEN","A3MYPYBVHX7FQ2","3IH9TRB0FBLK6RLF7MSMKICTMWW1I5","","null","<img src=""img/land3.png"" style=""width:200px;border:14px solid red;"">","null","","","","","","","","","",""
"","image-keyboard-response","4","295710","0.0-4.0","3NOKK93PR2U9W7BZET2CV6TJQA4EEN","A3MYPYBVHX7FQ2","3IH9TRB0FBLK6RLF7MSMKICTMWW1I5","","799.5999999940395","img/land3.png","74","800.6000000238419","1","0","3","2","1,0.5,0.5,0.5,1,0.5,0.5,0.5,1","1,0.5,0.5,0.5,1,0.5,0.5,0.5,1","","",""
"","html-keyboard-response","5","296012","0.0-5.0","3NOKK93PR2U9W7BZET2CV6TJQA4EEN","A3MYPYBVHX7FQ2","3IH9TRB0FBLK6RLF7MSMKICTMWW1I5","","null","<img src=""img/land3.png"" style=""width:200px;border:14px solid red;"">","null","","","","","","","","","",""
"","image-keyboard-response","6","296333","0.0-6.0","3NOKK93PR2U9W7BZET2CV6TJQA4EEN","A3MYPYBVHX7FQ2","3IH9TRB0FBLK6RLF7MSMKICTMWW1I5","","320","img/land3.png","76","320.7999999821186","3","1","3","2","1,0.5,0.5,0.5,1,0.5,0.5,0.5,1","1,0.5,0.5,0.5,1,0.5,0.5,0.5,1","","",""
"","html-keyboard-response","7","296635","0.0-7.0","3NOKK93PR2U9W7BZET2CV6TJQA4EEN","A3MYPYBVHX7FQ2","3IH9TRB0FBLK6RLF7MSMKICTMWW1I5","","null","<img src=""img/land3.png"" style=""width:200px; border:14px solid green;"">","null","","","","","","","","","",""
"","image-keyboard-response","8","297357","0.0-8.0","3NOKK93PR2U9W7BZET2CV6TJQA4EEN","A3MYPYBVHX7FQ2","3IH9TRB0FBLK6RLF7MSMKICTMWW1I5","","721","img/land3.png","76","722.0999999940395","3","1","3","2","1,0.5,0.5,0.5,1,0.5,0.5,0.5,1","1,0.5,0.5,0.5,1,0.5,0.5,0.5,1","","",""
"","html-keyboard-response","9","297659","0.0-9.0","3NOKK93PR2U9W7BZET2CV6TJQA4EEN","A3MYPYBVHX7FQ2","3IH9TRB0FBLK6RLF7MSMKICTMWW1I5","","null","<img src=""img/land3.png"" style=""width:200px; border:14px solid green;"">","null","","","","","","","","","",""
"","image-keyboard-response","10","298102","0.0-10.0","3NOKK93PR2U9W7BZET2CV6TJQA4EEN","A3MYPYBVHX7FQ2","3IH9TRB0FBLK6RLF7MSMKICTMWW1I5","","441.09999999403954","img/land3.png","76","442.2000000178814","3","1","3","2","1,0.5,0.5,0.5,1,0.5,0.5,0.5,1","1,0.5,0.5,0.5,1,0.5,0.5,0.5,1","","",""
"","html-keyboard-response","11","298403","0.0-11.0","3NOKK93PR2U9W7BZET2CV6TJQA4EEN","A3MYPYBVHX7FQ2","3IH9TRB0FBLK6RLF7MSMKICTMWW1I5","","null","<img src=""img/land3.png"" style=""width:200px; border:14px solid green;"">","null","","","","","","","","","",""
"","image-keyboard-response","12","299261","0.0-12.0","3NOKK93PR2U9W7BZET2CV6TJQA4EEN","A3MYPYBVHX7FQ2","3IH9TRB0FBLK6RLF7MSMKICTMWW1I5","","856.8000000119209","img/land1.png","75","857.5","2","0","1","2","1,0.5,0.5,0.5,1,0.5,0.5,0.5,1","1,0.5,0.5,0.5,1,0.5,0.5,0.5,1","","",""
"","html-keyboard-response","13","299569","0.0-13.0","3NOKK93PR2U9W7BZET2CV6TJQA4EEN","A3MYPYBVHX7FQ2","3IH9TRB0FBLK6RLF7MSMKICTMWW1I5","","null","<img src=""img/land1.png"" style=""width:200px;border:14px solid red;"">","null","","","","","","","","","",""
"","image-keyboard-response","14","299877","0.0-14.0","3NOKK93PR2U9W7BZET2CV6TJQA4EEN","A3MYPYBVHX7FQ2","3IH9TRB0FBLK6RLF7MSMKICTMWW1I5","","306.90000000596046","img/land3.png","74","307.59999999403954","1","0","3","2","1,0.5,0.5,0.5,1,0.5,0.5,0.5,1","1,0.5,0.5,0.5,1,0.5,0.5,0.5,1","","",""
"","html-keyboard-response","15","300179","0.0-15.0","3NOKK93PR2U9W7BZET2CV6TJQA4EEN","A3MYPYBVHX7FQ2","3IH9TRB0FBLK6RLF7MSMKICTMWW1I5","","null","<img src=""img/land3.png"" style=""width:200px;border:14px solid red;"">","null","","","","","","","","","",""
"","image-keyboard-response","16","300637","0.0-16.0","3NOKK93PR2U9W7BZET2CV6TJQA4EEN","A3MYPYBVHX7FQ2","3IH9TRB0FBLK6RLF7MSMKICTMWW1I5","","456.59999999403954","img/land3.png","76","457.59999999403954","3","1","3","2","1,0.5,0.5,0.5,1,0.5,0.5,0.5,1","1,0.5,0.5,0.5,1,0.5,0.5,0.5,1","","",""
"","html-keyboard-response","17","300939","0.0-17.0","3NOKK93PR2U9W7BZET2CV6TJQA4EEN","A3MYPYBVHX7FQ2","3IH9TRB0FBLK6RLF7MSMKICTMWW1I5","","null","<img src=""img/land3.png"" style=""width:200px; border:14px solid green;"">","null","","","","","","","","","",""
"","image-keyboard-response","18","301661","0.0-18.0","3NOKK93PR2U9W7BZET2CV6TJQA4EEN","A3MYPYBVHX7FQ2","3IH9TRB0FBLK6RLF7MSMKICTMWW1I5","","720.8000000119209","img/land3.png","76","721.6999999880791","3","1","3","2","1,0.5,0.5,0.5,1,0.5,0.5,0.5,1","1,0.5,0.5,0.5,1,0.5,0.5,0.5,1","","",""
"","html-keyboard-response","19","301964","0.0-19.0","3NOKK93PR2U9W7BZET2CV6TJQA4EEN","A3MYPYBVHX7FQ2","3IH9TRB0FBLK6RLF7MSMKICTMWW1I5","","null","<img src=""img/land3.png"" style=""width:200px; border:14px solid green;"">","null","","","","","","","","","",""
"","image-keyboard-response","20","302910","0.0-20.0","3NOKK93PR2U9W7BZET2CV6TJQA4EEN","A3MYPYBVHX7FQ2","3IH9TRB0FBLK6RLF7MSMKICTMWW1I5","","944.2000000178814","img/land2.png","75","945.5999999940395","2","1","2","2","1,0.5,0.5,0.5,1,0.5,0.5,0.5,1","1,0.5,0.5,0.5,1,0.5,0.5,0.5,1","","",""
"","html-keyboard-response","21","303212","0.0-21.0","3NOKK93PR2U9W7BZET2CV6TJQA4EEN","A3MYPYBVHX7FQ2","3IH9TRB0FBLK6RLF7MSMKICTMWW1I5","","null","<img src=""img/land2.png"" style=""width:200px; border:14px solid green;"">","null","","","","","","","","","",""
"","image-keyboard-response","22","303742","0.0-22.0","3NOKK93PR2U9W7BZET2CV6TJQA4EEN","A3MYPYBVHX7FQ2","3IH9TRB0FBLK6RLF7MSMKICTMWW1I5","","528.0999999940395","img/land2.png","75","529.1000000238419","2","1","2","2","1,0.5,0.5,0.5,1,0.5,0.5,0.5,1","1,0.5,0.5,0.5,1,0.5,0.5,0.5,1","","",""
"","html-keyboard-response","23","304044","0.0-23.0","3NOKK93PR2U9W7BZET2CV6TJQA4EEN","A3MYPYBVHX7FQ2","3IH9TRB0FBLK6RLF7MSMKICTMWW1I5","","null","<img src=""img/land2.png"" style=""width:200px; border:14px solid green;"">","null","","","","","","","","","",""
"","image-keyboard-response","24","305277","0.0-24.0","3NOKK93PR2U9W7BZET2CV6TJQA4EEN","A3MYPYBVHX7FQ2","3IH9TRB0FBLK6RLF7MSMKICTMWW1I5","","1231.7000000178814","img/land3.png","74","1232.800000011921","1","0","3","2","1,0.5,0.5,0.5,1,0.5,0.5,0.5,1","1,0.5,0.5,0.5,1,0.5,0.5,0.5,1","","",""
"","html-keyboard-response","25","305580","0.0-25.0","3NOKK93PR2U9W7BZET2CV6TJQA4EEN","A3MYPYBVHX7FQ2","3IH9TRB0FBLK6RLF7MSMKICTMWW1I5","","null","<img src=""img/land3.png"" style=""width:200px;border:14px solid red;"">","null","","","","","","","","","",""
"","image-keyboard-response","26","306061","0.0-26.0","3NOKK93PR2U9W7BZET2CV6TJQA4EEN","A3MYPYBVHX7FQ2","3IH9TRB0FBLK6RLF7MSMKICTMWW1I5","","480.30000001192093","img/land1.png","74","481.30000001192093","1","1","1","2","1,0.5,0.5,0.5,1,0.5,0.5,0.5,1","1,0.5,0.5,0.5,1,0.5,0.5,0.5,1","","",""
"","html-keyboard-response","27","306363","0.0-27.0","3NOKK93PR2U9W7BZET2CV6TJQA4EEN","A3MYPYBVHX7FQ2","3IH9TRB0FBLK6RLF7MSMKICTMWW1I5","","null","<img src=""img/land1.png"" style=""width:200px; border:14px solid green;"">","null","","","","","","","","","",""
"","image-keyboard-response","28","306853","0.0-28.0","3NOKK93PR2U9W7BZET2CV6TJQA4EEN","A3MYPYBVHX7FQ2","3IH9TRB0FBLK6RLF7MSMKICTMWW1I5","","489.59999999403954","img/land2.png","74","490.19999998807907","1","0","2","2","1,0.5,0.5,0.5,1,0.5,0.5,0.5,1","1,0.5,0.5,0.5,1,0.5,0.5,0.5,1","","",""
"","html-keyboard-response","29","307155","0.0-29.0","3NOKK93PR2U9W7BZET2CV6TJQA4EEN","A3MYPYBVHX7FQ2","3IH9TRB0FBLK6RLF7MSMKICTMWW1I5","","null","<img src=""img/land2.png"" style=""width:200px;border:14px solid red;"">","null","","","","","","","","","",""
"","image-keyboard-response","30","307517","0.0-30.0","3NOKK93PR2U9W7BZET2CV6TJQA4EEN","A3MYPYBVHX7FQ2","3IH9TRB0FBLK6RLF7MSMKICTMWW1I5","","361.80000001192093","img/land2.png","75","362.69999998807907","2","1","2","2","1,0.5,0.5,0.5,1,0.5,0.5,0.5,1","1,0.5,0.5,0.5,1,0.5,0.5,0.5,1","","",""
"","html-keyboard-response","31","307820","0.0-31.0","3NOKK93PR2U9W7BZET2CV6TJQA4EEN","A3MYPYBVHX7FQ2","3IH9TRB0FBLK6RLF7MSMKICTMWW1I5","","null","<img src=""img/land2.png"" style=""width:200px; border:14px solid green;"">","null","","","","","","","","","",""
"","image-keyboard-response","32","308647","0.0-32.0","3NOKK93PR2U9W7BZET2CV6TJQA4EEN","A3MYPYBVHX7FQ2","3IH9TRB0FBLK6RLF7MSMKICTMWW1I5","","825.7000000178814","img/land3.png","74","826.5999999940395","1","0","3","2","1,0.5,0.5,0.5,1,0.5,0.5,0.5,1","1,0.5,0.5,0.5,1,0.5,0.5,0.5,1","","",""
"","html-keyboard-response","33","308949","0.0-33.0","3NOKK93PR2U9W7BZET2CV6TJQA4EEN","A3MYPYBVHX7FQ2","3IH9TRB0FBLK6RLF7MSMKICTMWW1I5","","null","<img src=""img/land3.png"" style=""width:200px;border:14px solid red;"">","null","","","","","","","","","",""
"","image-keyboard-response","34","309517","0.0-34.0","3NOKK93PR2U9W7BZET2CV6TJQA4EEN","A3MYPYBVHX7FQ2","3IH9TRB0FBLK6RLF7MSMKICTMWW1I5","","567.2999999821186","img/land3.png","75","568.0999999940395","2","0","3","2","1,0.5,0.5,0.5,1,0.5,0.5,0.5,1","1,0.5,0.5,0.5,1,0.5,0.5,0.5,1","","",""
"","html-keyboard-response","35","309820","0.0-35.0","3NOKK93PR2U9W7BZET2CV6TJQA4EEN","A3MYPYBVHX7FQ2","3IH9TRB0FBLK6RLF7MSMKICTMWW1I5","","null","<img src=""img/land3.png"" style=""width:200px;border:14px solid red;"">","null","","","","","","","","","",""
"","image-keyboard-response","36","310053","0.0-36.0","3NOKK93PR2U9W7BZET2CV6TJQA4EEN","A3MYPYBVHX7FQ2","3IH9TRB0FBLK6RLF7MSMKICTMWW1I5","","232.5","img/land3.png","76","233.2999999821186","3","1","3","2","1,0.5,0.5,0.5,1,0.5,0.5,0.5,1","1,0.5,0.5,0.5,1,0.5,0.5,0.5,1","","",""
"","html-keyboard-response","37","310355","0.0-37.0","3NOKK93PR2U9W7BZET2CV6TJQA4EEN","A3MYPYBVHX7FQ2","3IH9TRB0FBLK6RLF7MSMKICTMWW1I5","","null","<img src=""img/land3.png"" style=""width:200px; border:14px solid green;"">","null","","","","","","","","","",""
"","image-keyboard-response","38","310965","0.0-38.0","3NOKK93PR2U9W7BZET2CV6TJQA4EEN","A3MYPYBVHX7FQ2","3IH9TRB0FBLK6RLF7MSMKICTMWW1I5","","608.8999999761581","img/land3.png","76","610","3","1","3","2","1,0.5,0.5,0.5,1,0.5,0.5,0.5,1","1,0.5,0.5,0.5,1,0.5,0.5,0.5,1","","",""
"","html-keyboard-response","39","311267","0.0-39.0","3NOKK93PR2U9W7BZET2CV6TJQA4EEN","A3MYPYBVHX7FQ2","3IH9TRB0FBLK6RLF7MSMKICTMWW1I5","","null","<img src=""img/land3.png"" style=""width:200px; border:14px solid green;"">","null","","","","","","","","","",""
"","image-keyboard-response","40","312245","0.0-40.0","3NOKK93PR2U9W7BZET2CV6TJQA4EEN","A3MYPYBVHX7FQ2","3IH9TRB0FBLK6RLF7MSMKICTMWW1I5","","977.1999999880791","img/land2.png","75","978.0999999940395","2","1","2","2","1,0.5,0.5,0.5,1,0.5,0.5,0.5,1","1,0.5,0.5,0.5,1,0.5,0.5,0.5,1","","",""
"","html-keyboard-response","41","312548","0.0-41.0","3NOKK93PR2U9W7BZET2CV6TJQA4EEN","A3MYPYBVHX7FQ2","3IH9TRB0FBLK6RLF7MSMKICTMWW1I5","","null","<img src=""img/land2.png"" style=""width:200px; border:14px solid green;"">","null","","","","","","","","","",""
"","image-keyboard-response","42","313365","0.0-42.0","3NOKK93PR2U9W7BZET2CV6TJQA4EEN","A3MYPYBVHX7FQ2","3IH9TRB0FBLK6RLF7MSMKICTMWW1I5","","816.5","img/land3.png","76","817.5","3","1","3","2","1,0.5,0.5,0.5,1,0.5,0.5,0.5,1","1,0.5,0.5,0.5,1,0.5,0.5,0.5,1","","",""
"","html-keyboard-response","43","313668","0.0-43.0","3NOKK93PR2U9W7BZET2CV6TJQA4EEN","A3MYPYBVHX7FQ2","3IH9TRB0FBLK6RLF7MSMKICTMWW1I5","","null","<img src=""img/land3.png"" style=""width:200px; border:14px solid green;"">","null","","","","","","","","","",""
"","image-keyboard-response","44","314437","0.0-44.0","3NOKK93PR2U9W7BZET2CV6TJQA4EEN","A3MYPYBVHX7FQ2","3IH9TRB0FBLK6RLF7MSMKICTMWW1I5","","768.2000000178814","img/land3.png","76","769.1999999880791","3","1","3","2","1,0.5,0.5,0.5,1,0.5,0.5,0.5,1","1,0.5,0.5,0.5,1,0.5,0.5,0.5,1","","",""
"","html-keyboard-response","45","314739","0.0-45.0","3NOKK93PR2U9W7BZET2CV6TJQA4EEN","A3MYPYBVHX7FQ2","3IH9TRB0FBLK6RLF7MSMKICTMWW1I5","","null","<img src=""img/land3.png"" style=""width:200px; border:14px solid green;"">","null","","","","","","","","","",""
"","image-keyboard-response","46","315518","0.0-46.0","3NOKK93PR2U9W7BZET2CV6TJQA4EEN","A3MYPYBVHX7FQ2","3IH9TRB0FBLK6RLF7MSMKICTMWW1I5","","777.5999999940395","img/land1.png","74","778.7000000178814","1","1","1","2","1,0.5,0.5,0.5,1,0.5,0.5,0.5,1","1,0.5,0.5,0.5,1,0.5,0.5,0.5,1","","",""
"","html-keyboard-response","47","315821","0.0-47.0","3NOKK93PR2U9W7BZET2CV6TJQA4EEN","A3MYPYBVHX7FQ2","3IH9TRB0FBLK6RLF7MSMKICTMWW1I5","","null","<img src=""img/land1.png"" style=""width:200px; border:14px solid green;"">","null","","","","","","","","","",""
"","image-keyboard-response","48","316253","0.0-48.0","3NOKK93PR2U9W7BZET2CV6TJQA4EEN","A3MYPYBVHX7FQ2","3IH9TRB0FBLK6RLF7MSMKICTMWW1I5","","430.90000000596046","img/land1.png","74","431.69999998807907","1","1","1","2","1,0.5,0.5,0.5,1,0.5,0.5,0.5,1","1,0.5,0.5,0.5,1,0.5,0.5,0.5,1","","",""
"","html-keyboard-response","49","316555","0.0-49.0","3NOKK93PR2U9W7BZET2CV6TJQA4EEN","A3MYPYBVHX7FQ2","3IH9TRB0FBLK6RLF7MSMKICTMWW1I5","","null","<img src=""img/land1.png"" style=""width:200px; border:14px solid green;"">","null","","","","","","","","","",""
"","image-keyboard-response","50","317134","0.0-50.0","3NOKK93PR2U9W7BZET2CV6TJQA4EEN","A3MYPYBVHX7FQ2","3IH9TRB0FBLK6RLF7MSMKICTMWW1I5","","578.0999999940395","img/land3.png","75","579.3000000119209","2","0","3","2","1,0.5,0.5,0.5,1,0.5,0.5,0.5,1","1,0.5,0.5,0.5,1,0.5,0.5,0.5,1","","",""
"","html-keyboard-response","51","317436","0.0-51.0","3NOKK93PR2U9W7BZET2CV6TJQA4EEN","A3MYPYBVHX7FQ2","3IH9TRB0FBLK6RLF7MSMKICTMWW1I5","","null","<img src=""img/land3.png"" style=""width:200px;border:14px solid red;"">","null","","","","","","","","","",""
"","image-keyboard-response","52","318165","0.0-52.0","3NOKK93PR2U9W7BZET2CV6TJQA4EEN","A3MYPYBVHX7FQ2","3IH9TRB0FBLK6RLF7MSMKICTMWW1I5","","728","img/land2.png","76","729","3","1","2","2","1,0.5,0.5,0.5,1,0.5,0.5,0.5,1","1,0.5,0.5,0.5,1,0.5,0.5,0.5,1","","",""
"","html-keyboard-response","53","318467","0.0-53.0","3NOKK93PR2U9W7BZET2CV6TJQA4EEN","A3MYPYBVHX7FQ2","3IH9TRB0FBLK6RLF7MSMKICTMWW1I5","","null","<img src=""img/land2.png"" style=""width:200px; border:14px solid green;"">","null","","","","","","","","","",""
"","image-keyboard-response","54","319221","0.0-54.0","3NOKK93PR2U9W7BZET2CV6TJQA4EEN","A3MYPYBVHX7FQ2","3IH9TRB0FBLK6RLF7MSMKICTMWW1I5","","753.5","img/land3.png","75","754.4000000059605","2","1","3","2","1,0.5,0.5,0.5,1,0.5,0.5,0.5,1","1,0.5,0.5,0.5,1,0.5,0.5,0.5,1","","",""
"","html-keyboard-response","55","319523","0.0-55.0","3NOKK93PR2U9W7BZET2CV6TJQA4EEN","A3MYPYBVHX7FQ2","3IH9TRB0FBLK6RLF7MSMKICTMWW1I5","","null","<img src=""img/land3.png"" style=""width:200px; border:14px solid green;"">","null","","","","","","","","","",""
"","image-keyboard-response","56","320389","0.0-56.0","3NOKK93PR2U9W7BZET2CV6TJQA4EEN","A3MYPYBVHX7FQ2","3IH9TRB0FBLK6RLF7MSMKICTMWW1I5","","865.0999999940395","img/land2.png","75","865.8999999761581","2","1","2","2","1,0.5,0.5,0.5,1,0.5,0.5,0.5,1","1,0.5,0.5,0.5,1,0.5,0.5,0.5,1","","",""
"","html-keyboard-response","57","320692","0.0-57.0","3NOKK93PR2U9W7BZET2CV6TJQA4EEN","A3MYPYBVHX7FQ2","3IH9TRB0FBLK6RLF7MSMKICTMWW1I5","","null","<img src=""img/land2.png"" style=""width:200px; border:14px solid green;"">","null","","","","","","","","","",""
"","image-keyboard-response","58","321317","0.0-58.0","3NOKK93PR2U9W7BZET2CV6TJQA4EEN","A3MYPYBVHX7FQ2","3IH9TRB0FBLK6RLF7MSMKICTMWW1I5","","624.0999999940395","img/land2.png","75","625.2000000178814","2","1","2","2","1,0.5,0.5,0.5,1,0.5,0.5,0.5,1","1,0.5,0.5,0.5,1,0.5,0.5,0.5,1","","",""
"","html-keyboard-response","59","321618","0.0-59.0","3NOKK93PR2U9W7BZET2CV6TJQA4EEN","A3MYPYBVHX7FQ2","3IH9TRB0FBLK6RLF7MSMKICTMWW1I5","","null","<img src=""img/land2.png"" style=""width:200px; border:14px solid green;"">","null","","","","","","","","","",""
"","image-keyboard-response","60","322213","0.0-60.0","3NOKK93PR2U9W7BZET2CV6TJQA4EEN","A3MYPYBVHX7FQ2","3IH9TRB0FBLK6RLF7MSMKICTMWW1I5","","593.7999999821186","img/land3.png","76","594.7000000178814","3","1","3","2","1,0.5,0.5,0.5,1,0.5,0.5,0.5,1","1,0.5,0.5,0.5,1,0.5,0.5,0.5,1","","",""
"","html-keyboard-response","61","322516","0.0-61.0","3NOKK93PR2U9W7BZET2CV6TJQA4EEN","A3MYPYBVHX7FQ2","3IH9TRB0FBLK6RLF7MSMKICTMWW1I5","","null","<img src=""img/land3.png"" style=""width:200px; border:14px solid green;"">","null","","","","","","","","","",""
"","image-keyboard-response","62","323381","0.0-62.0","3NOKK93PR2U9W7BZET2CV6TJQA4EEN","A3MYPYBVHX7FQ2","3IH9TRB0FBLK6RLF7MSMKICTMWW1I5","","863.4000000059605","img/land1.png","74","864.5999999940395","1","1","1","2","1,0.5,0.5,0.5,1,0.5,0.5,0.5,1","1,0.5,0.5,0.5,1,0.5,0.5,0.5,1","","",""
"","html-keyboard-response","63","323683","0.0-63.0","3NOKK93PR2U9W7BZET2CV6TJQA4EEN","A3MYPYBVHX7FQ2","3IH9TRB0FBLK6RLF7MSMKICTMWW1I5","","null","<img src=""img/land1.png"" style=""width:200px; border:14px solid green;"">","null","","","","","","","","","",""
"","image-keyboard-response","64","324437","0.0-64.0","3NOKK93PR2U9W7BZET2CV6TJQA4EEN","A3MYPYBVHX7FQ2","3IH9TRB0FBLK6RLF7MSMKICTMWW1I5","","752.5999999940395","img/land3.png","76","753.5","3","1","3","2","1,0.5,0.5,0.5,1,0.5,0.5,0.5,1","1,0.5,0.5,0.5,1,0.5,0.5,0.5,1","","",""
"","html-keyboard-response","65","324740","0.0-65.0","3NOKK93PR2U9W7BZET2CV6TJQA4EEN","A3MYPYBVHX7FQ2","3IH9TRB0FBLK6RLF7MSMKICTMWW1I5","","null","<img src=""img/land3.png"" style=""width:200px; border:14px solid green;"">","null","","","","","","","","","",""
"","image-keyboard-response","66","325317","0.0-66.0","3NOKK93PR2U9W7BZET2CV6TJQA4EEN","A3MYPYBVHX7FQ2","3IH9TRB0FBLK6RLF7MSMKICTMWW1I5","","576.5","img/land3.png","76","577.1000000238419","3","1","3","2","1,0.5,0.5,0.5,1,0.5,0.5,0.5,1","1,0.5,0.5,0.5,1,0.5,0.5,0.5,1","","",""
"","html-keyboard-response","67","325618","0.0-67.0","3NOKK93PR2U9W7BZET2CV6TJQA4EEN","A3MYPYBVHX7FQ2","3IH9TRB0FBLK6RLF7MSMKICTMWW1I5","","null","<img src=""img/land3.png"" style=""width:200px; border:14px solid green;"">","null","","","","","","","","","",""
"","image-keyboard-response","68","326109","0.0-68.0","3NOKK93PR2U9W7BZET2CV6TJQA4EEN","A3MYPYBVHX7FQ2","3IH9TRB0FBLK6RLF7MSMKICTMWW1I5","","490.10000002384186","img/land3.png","76","491","3","1","3","2","1,0.5,0.5,0.5,1,0.5,0.5,0.5,1","1,0.5,0.5,0.5,1,0.5,0.5,0.5,1","","",""
"","html-keyboard-response","69","326413","0.0-69.0","3NOKK93PR2U9W7BZET2CV6TJQA4EEN","A3MYPYBVHX7FQ2","3IH9TRB0FBLK6RLF7MSMKICTMWW1I5","","null","<img src=""img/land3.png"" style=""width:200px; border:14px solid green;"">","null","","","","","","","","","",""
"","image-keyboard-response","70","326926","0.0-70.0","3NOKK93PR2U9W7BZET2CV6TJQA4EEN","A3MYPYBVHX7FQ2","3IH9TRB0FBLK6RLF7MSMKICTMWW1I5","","511.60000002384186","img/land3.png","76","512.6999999880791","3","1","3","2","1,0.5,0.5,0.5,1,0.5,0.5,0.5,1","1,0.5,0.5,0.5,1,0.5,0.5,0.5,1","","",""
"","html-keyboard-response","71","327229","0.0-71.0","3NOKK93PR2U9W7BZET2CV6TJQA4EEN","A3MYPYBVHX7FQ2","3IH9TRB0FBLK6RLF7MSMKICTMWW1I5","","null","<img src=""img/land3.png"" style=""width:200px; border:14px solid green;"">","null","","","","","","","","","",""
"","image-keyboard-response","72","327709","0.0-72.0","3NOKK93PR2U9W7BZET2CV6TJQA4EEN","A3MYPYBVHX7FQ2","3IH9TRB0FBLK6RLF7MSMKICTMWW1I5","","478.80000001192093","img/land3.png","76","479.89999997615814","3","1","3","2","1,0.5,0.5,0.5,1,0.5,0.5,0.5,1","1,0.5,0.5,0.5,1,0.5,0.5,0.5,1","","",""
"","html-keyboard-response","73","328012","0.0-73.0","3NOKK93PR2U9W7BZET2CV6TJQA4EEN","A3MYPYBVHX7FQ2","3IH9TRB0FBLK6RLF7MSMKICTMWW1I5","","null","<img src=""img/land3.png"" style=""width:200px; border:14px solid green;"">","null","","","","","","","","","",""
"","image-keyboard-response","74","328733","0.0-74.0","3NOKK93PR2U9W7BZET2CV6TJQA4EEN","A3MYPYBVHX7FQ2","3IH9TRB0FBLK6RLF7MSMKICTMWW1I5","","719.9000000059605","img/land2.png","75","720.8999999761581","2","1","2","2","1,0.5,0.5,0.5,1,0.5,0.5,0.5,1","1,0.5,0.5,0.5,1,0.5,0.5,0.5,1","","",""
"","html-keyboard-response","75","329034","0.0-75.0","3NOKK93PR2U9W7BZET2CV6TJQA4EEN","A3MYPYBVHX7FQ2","3IH9TRB0FBLK6RLF7MSMKICTMWW1I5","","null","<img src=""img/land2.png"" style=""width:200px; border:14px solid green;"">","null","","","","","","","","","",""
"","image-keyboard-response","76","329430","0.0-76.0","3NOKK93PR2U9W7BZET2CV6TJQA4EEN","A3MYPYBVHX7FQ2","3IH9TRB0FBLK6RLF7MSMKICTMWW1I5","","394.30000001192093","img/land2.png","75","395.40000000596046","2","1","2","2","1,0.5,0.5,0.5,1,0.5,0.5,0.5,1","1,0.5,0.5,0.5,1,0.5,0.5,0.5,1","","",""
"","html-keyboard-response","77","329732","0.0-77.0","3NOKK93PR2U9W7BZET2CV6TJQA4EEN","A3MYPYBVHX7FQ2","3IH9TRB0FBLK6RLF7MSMKICTMWW1I5","","null","<img src=""img/land2.png"" style=""width:200px; border:14px solid green;"">","null","","","","","","","","","",""
"","image-keyboard-response","78","330621","0.0-78.0","3NOKK93PR2U9W7BZET2CV6TJQA4EEN","A3MYPYBVHX7FQ2","3IH9TRB0FBLK6RLF7MSMKICTMWW1I5","","888","img/land3.png","76","889","3","1","3","2","1,0.5,0.5,0.5,1,0.5,0.5,0.5,1","1,0.5,0.5,0.5,1,0.5,0.5,0.5,1","","",""
"","html-keyboard-response","79","330923","0.0-79.0","3NOKK93PR2U9W7BZET2CV6TJQA4EEN","A3MYPYBVHX7FQ2","3IH9TRB0FBLK6RLF7MSMKICTMWW1I5","","null","<img src=""img/land3.png"" style=""width:200px; border:14px solid green;"">","null","","","","","","","","","",""
"","image-keyboard-response","80","331398","0.0-80.0","3NOKK93PR2U9W7BZET2CV6TJQA4EEN","A3MYPYBVHX7FQ2","3IH9TRB0FBLK6RLF7MSMKICTMWW1I5","","473","img/land3.png","76","474.40000000596046","3","1","3","2","1,0.5,0.5,0.5,1,0.5,0.5,0.5,1","1,0.5,0.5,0.5,1,0.5,0.5,0.5,1","","",""
"","html-keyboard-response","81","331702","0.0-81.0","3NOKK93PR2U9W7BZET2CV6TJQA4EEN","A3MYPYBVHX7FQ2","3IH9TRB0FBLK6RLF7MSMKICTMWW1I5","","null","<img src=""img/land3.png"" style=""width:200px; border:14px solid green;"">","null","","","","","","","","","",""
"","image-keyboard-response","82","332101","0.0-82.0","3NOKK93PR2U9W7BZET2CV6TJQA4EEN","A3MYPYBVHX7FQ2","3IH9TRB0FBLK6RLF7MSMKICTMWW1I5","","398.5","img/land3.png","76","399.59999999403954","3","1","3","2","1,0.5,0.5,0.5,1,0.5,0.5,0.5,1","1,0.5,0.5,0.5,1,0.5,0.5,0.5,1","","",""
"","html-keyboard-response","83","332405","0.0-83.0","3NOKK93PR2U9W7BZET2CV6TJQA4EEN","A3MYPYBVHX7FQ2","3IH9TRB0FBLK6RLF7MSMKICTMWW1I5","","null","<img src=""img/land3.png"" style=""width:200px; border:14px solid green;"">","null","","","","","","","","","",""
"","image-keyboard-response","84","332829","0.0-84.0","3NOKK93PR2U9W7BZET2CV6TJQA4EEN","A3MYPYBVHX7FQ2","3IH9TRB0FBLK6RLF7MSMKICTMWW1I5","","423.69999998807907","img/land3.png","76","424.40000000596046","3","1","3","2","1,0.5,0.5,0.5,1,0.5,0.5,0.5,1","1,0.5,0.5,0.5,1,0.5,0.5,0.5,1","","",""
"","html-keyboard-response","85","333131","0.0-85.0","3NOKK93PR2U9W7BZET2CV6TJQA4EEN","A3MYPYBVHX7FQ2","3IH9TRB0FBLK6RLF7MSMKICTMWW1I5","","null","<img src=""img/land3.png"" style=""width:200px; border:14px solid green;"">","null","","","","","","","","","",""
"","image-keyboard-response","86","333541","0.0-86.0","3NOKK93PR2U9W7BZET2CV6TJQA4EEN","A3MYPYBVHX7FQ2","3IH9TRB0FBLK6RLF7MSMKICTMWW1I5","","409.2000000178814","img/land3.png","76","409.7999999821186","3","1","3","2","1,0.5,0.5,0.5,1,0.5,0.5,0.5,1","1,0.5,0.5,0.5,1,0.5,0.5,0.5,1","","",""
"","html-keyboard-response","87","333844","0.0-87.0","3NOKK93PR2U9W7BZET2CV6TJQA4EEN","A3MYPYBVHX7FQ2","3IH9TRB0FBLK6RLF7MSMKICTMWW1I5","","null","<img src=""img/land3.png"" style=""width:200px; border:14px solid green;"">","null","","","","","","","","","",""
"","image-keyboard-response","88","334247","0.0-88.0","3NOKK93PR2U9W7BZET2CV6TJQA4EEN","A3MYPYBVHX7FQ2","3IH9TRB0FBLK6RLF7MSMKICTMWW1I5","","402.09999999403954","img/land3.png","76","402.90000000596046","3","1","3","2","1,0.5,0.5,0.5,1,0.5,0.5,0.5,1","1,0.5,0.5,0.5,1,0.5,0.5,0.5,1","","",""
"","html-keyboard-response","89","334551","0.0-89.0","3NOKK93PR2U9W7BZET2CV6TJQA4EEN","A3MYPYBVHX7FQ2","3IH9TRB0FBLK6RLF7MSMKICTMWW1I5","","null","<img src=""img/land3.png"" style=""width:200px; border:14px solid green;"">","null","","","","","","","","","",""
"","image-keyboard-response","90","334934","0.0-90.0","3NOKK93PR2U9W7BZET2CV6TJQA4EEN","A3MYPYBVHX7FQ2","3IH9TRB0FBLK6RLF7MSMKICTMWW1I5","","381.80000001192093","img/land3.png","76","382.90000000596046","3","1","3","2","1,0.5,0.5,0.5,1,0.5,0.5,0.5,1","1,0.5,0.5,0.5,1,0.5,0.5,0.5,1","","",""
"","html-keyboard-response","91","335236","0.0-91.0","3NOKK93PR2U9W7BZET2CV6TJQA4EEN","A3MYPYBVHX7FQ2","3IH9TRB0FBLK6RLF7MSMKICTMWW1I5","","null","<img src=""img/land3.png"" style=""width:200px; border:14px solid green;"">","null","","","","","","","","","",""
"","image-keyboard-response","92","335621","0.0-92.0","3NOKK93PR2U9W7BZET2CV6TJQA4EEN","A3MYPYBVHX7FQ2","3IH9TRB0FBLK6RLF7MSMKICTMWW1I5","","384","img/land3.png","76","384.59999999403954","3","1","3","2","1,0.5,0.5,0.5,1,0.5,0.5,0.5,1","1,0.5,0.5,0.5,1,0.5,0.5,0.5,1","","",""
"","html-keyboard-response","93","335923","0.0-93.0","3NOKK93PR2U9W7BZET2CV6TJQA4EEN","A3MYPYBVHX7FQ2","3IH9TRB0FBLK6RLF7MSMKICTMWW1I5","","null","<img src=""img/land3.png"" style=""width:200px; border:14px solid green;"">","null","","","","","","","","","",""
"","image-keyboard-response","94","336277","0.0-94.0","3NOKK93PR2U9W7BZET2CV6TJQA4EEN","A3MYPYBVHX7FQ2","3IH9TRB0FBLK6RLF7MSMKICTMWW1I5","","353.19999998807907","img/land3.png","76","354.2000000178814","3","1","3","2","1,0.5,0.5,0.5,1,0.5,0.5,0.5,1","1,0.5,0.5,0.5,1,0.5,0.5,0.5,1","","",""
"","html-keyboard-response","95","336580","0.0-95.0","3NOKK93PR2U9W7BZET2CV6TJQA4EEN","A3MYPYBVHX7FQ2","3IH9TRB0FBLK6RLF7MSMKICTMWW1I5","","null","<img src=""img/land3.png"" style=""width:200px; border:14px solid green;"">","null","","","","","","","","","",""
"","image-keyboard-response","96","337477","0.0-96.0","3NOKK93PR2U9W7BZET2CV6TJQA4EEN","A3MYPYBVHX7FQ2","3IH9TRB0FBLK6RLF7MSMKICTMWW1I5","","896.2999999821186","img/land1.png","74","897.4000000059605","1","1","1","2","1,0.5,0.5,0.5,1,0.5,0.5,0.5,1","1,0.5,0.5,0.5,1,0.5,0.5,0.5,1","","",""
"","html-keyboard-response","97","337780","0.0-97.0","3NOKK93PR2U9W7BZET2CV6TJQA4EEN","A3MYPYBVHX7FQ2","3IH9TRB0FBLK6RLF7MSMKICTMWW1I5","","null","<img src=""img/land1.png"" style=""width:200px; border:14px solid green;"">","null","","","","","","","","","",""
"","image-keyboard-response","98","338526","0.0-98.0","3NOKK93PR2U9W7BZET2CV6TJQA4EEN","A3MYPYBVHX7FQ2","3IH9TRB0FBLK6RLF7MSMKICTMWW1I5","","745","img/land2.png","74","746","1","0","2","2","1,0.5,0.5,0.5,1,0.5,0.5,0.5,1","1,0.5,0.5,0.5,1,0.5,0.5,0.5,1","","",""
"","html-keyboard-response","99","338828","0.0-99.0","3NOKK93PR2U9W7BZET2CV6TJQA4EEN","A3MYPYBVHX7FQ2","3IH9TRB0FBLK6RLF7MSMKICTMWW1I5","","null","<img src=""img/land2.png"" style=""width:200px;border:14px solid red;"">","null","","","","","","","","","",""
"","image-keyboard-response","100","339662","0.0-100.0","3NOKK93PR2U9W7BZET2CV6TJQA4EEN","A3MYPYBVHX7FQ2","3IH9TRB0FBLK6RLF7MSMKICTMWW1I5","","832","img/land3.png","76","833.4000000059605","3","1","3","2","1,0.5,0.5,0.5,1,0.5,0.5,0.5,1","1,0.5,0.5,0.5,1,0.5,0.5,0.5,1","","",""
"","html-keyboard-response","101","339965","0.0-101.0","3NOKK93PR2U9W7BZET2CV6TJQA4EEN","A3MYPYBVHX7FQ2","3IH9TRB0FBLK6RLF7MSMKICTMWW1I5","","null","<img src=""img/land3.png"" style=""width:200px; border:14px solid green;"">","null","","","","","","","","","",""
"","image-keyboard-response","102","340589","0.0-102.0","3NOKK93PR2U9W7BZET2CV6TJQA4EEN","A3MYPYBVHX7FQ2","3IH9TRB0FBLK6RLF7MSMKICTMWW1I5","","623.5","img/land3.png","76","624.3000000119209","3","1","3","2","1,0.5,0.5,0.5,1,0.5,0.5,0.5,1","1,0.5,0.5,0.5,1,0.5,0.5,0.5,1","","",""
"","html-keyboard-response","103","340890","0.0-103.0","3NOKK93PR2U9W7BZET2CV6TJQA4EEN","A3MYPYBVHX7FQ2","3IH9TRB0FBLK6RLF7MSMKICTMWW1I5","","null","<img src=""img/land3.png"" style=""width:200px; border:14px solid green;"">","null","","","","","","","","","",""
"","image-keyboard-response","104","341725","0.0-104.0","3NOKK93PR2U9W7BZET2CV6TJQA4EEN","A3MYPYBVHX7FQ2","3IH9TRB0FBLK6RLF7MSMKICTMWW1I5","","833.8000000119209","img/land2.png","74","835.0999999940395","1","1","2","2","1,0.5,0.5,0.5,1,0.5,0.5,0.5,1","1,0.5,0.5,0.5,1,0.5,0.5,0.5,1","","",""
"","html-keyboard-response","105","342028","0.0-105.0","3NOKK93PR2U9W7BZET2CV6TJQA4EEN","A3MYPYBVHX7FQ2","3IH9TRB0FBLK6RLF7MSMKICTMWW1I5","","null","<img src=""img/land2.png"" style=""width:200px; border:14px solid green;"">","null","","","","","","","","","",""
"","image-keyboard-response","106","342645","0.0-106.0","3NOKK93PR2U9W7BZET2CV6TJQA4EEN","A3MYPYBVHX7FQ2","3IH9TRB0FBLK6RLF7MSMKICTMWW1I5","","616.0999999940395","img/land2.png","74","617.3000000119209","1","1","2","2","1,0.5,0.5,0.5,1,0.5,0.5,0.5,1","1,0.5,0.5,0.5,1,0.5,0.5,0.5,1","","",""
"","html-keyboard-response","107","342947","0.0-107.0","3NOKK93PR2U9W7BZET2CV6TJQA4EEN","A3MYPYBVHX7FQ2","3IH9TRB0FBLK6RLF7MSMKICTMWW1I5","","null","<img src=""img/land2.png"" style=""width:200px; border:14px solid green;"">","null","","","","","","","","","",""
"","image-keyboard-response","108","343821","0.0-108.0","3NOKK93PR2U9W7BZET2CV6TJQA4EEN","A3MYPYBVHX7FQ2","3IH9TRB0FBLK6RLF7MSMKICTMWW1I5","","872.5999999940395","img/land3.png","76","873.6999999880791","3","1","3","2","1,0.5,0.5,0.5,1,0.5,0.5,0.5,1","1,0.5,0.5,0.5,1,0.5,0.5,0.5,1","","",""
"","html-keyboard-response","109","344123","0.0-109.0","3NOKK93PR2U9W7BZET2CV6TJQA4EEN","A3MYPYBVHX7FQ2","3IH9TRB0FBLK6RLF7MSMKICTMWW1I5","","null","<img src=""img/land3.png"" style=""width:200px; border:14px solid green;"">","null","","","","","","","","","",""
"","image-keyboard-response","110","345238","0.0-110.0","3NOKK93PR2U9W7BZET2CV6TJQA4EEN","A3MYPYBVHX7FQ2","3IH9TRB0FBLK6RLF7MSMKICTMWW1I5","","1113.4000000059605","img/land2.png","74","1114.0999999940395","1","1","2","2","1,0.5,0.5,0.5,1,0.5,0.5,0.5,1","1,0.5,0.5,0.5,1,0.5,0.5,0.5,1","","",""
"","html-keyboard-response","111","345540","0.0-111.0","3NOKK93PR2U9W7BZET2CV6TJQA4EEN","A3MYPYBVHX7FQ2","3IH9TRB0FBLK6RLF7MSMKICTMWW1I5","","null","<img src=""img/land2.png"" style=""width:200px; border:14px solid green;"">","null","","","","","","","","","",""
"","image-keyboard-response","112","346117","0.0-112.0","3NOKK93PR2U9W7BZET2CV6TJQA4EEN","A3MYPYBVHX7FQ2","3IH9TRB0FBLK6RLF7MSMKICTMWW1I5","","575.5999999940395","img/land2.png","74","576.5999999940395","1","0","2","2","1,0.5,0.5,0.5,1,0.5,0.5,0.5,1","1,0.5,0.5,0.5,1,0.5,0.5,0.5,1","","",""
"","html-keyboard-response","113","346420","0.0-113.0","3NOKK93PR2U9W7BZET2CV6TJQA4EEN","A3MYPYBVHX7FQ2","3IH9TRB0FBLK6RLF7MSMKICTMWW1I5","","null","<img src=""img/land2.png"" style=""width:200px;border:14px solid red;"">","null","","","","","","","","","",""
"","image-keyboard-response","114","347574","0.0-114.0","3NOKK93PR2U9W7BZET2CV6TJQA4EEN","A3MYPYBVHX7FQ2","3IH9TRB0FBLK6RLF7MSMKICTMWW1I5","","1152.300000011921","img/land1.png","75","1153.5","2","1","1","2","1,0.5,0.5,0.5,1,0.5,0.5,0.5,1","1,0.5,0.5,0.5,1,0.5,0.5,0.5,1","","",""
"","html-keyboard-response","115","347876","0.0-115.0","3NOKK93PR2U9W7BZET2CV6TJQA4EEN","A3MYPYBVHX7FQ2","3IH9TRB0FBLK6RLF7MSMKICTMWW1I5","","null","<img src=""img/land1.png"" style=""width:200px; border:14px solid green;"">","null","","","","","","","","","",""
"","image-keyboard-response","116","348701","0.0-116.0","3NOKK93PR2U9W7BZET2CV6TJQA4EEN","A3MYPYBVHX7FQ2","3IH9TRB0FBLK6RLF7MSMKICTMWW1I5","","823.3999999761581","img/land2.png","75","824.4000000059605","2","1","2","2","1,0.5,0.5,0.5,1,0.5,0.5,0.5,1","1,0.5,0.5,0.5,1,0.5,0.5,0.5,1","","",""
"","html-keyboard-response","117","349003","0.0-117.0","3NOKK93PR2U9W7BZET2CV6TJQA4EEN","A3MYPYBVHX7FQ2","3IH9TRB0FBLK6RLF7MSMKICTMWW1I5","","null","<img src=""img/land2.png"" style=""width:200px; border:14px solid green;"">","null","","","","","","","","","",""
"","image-keyboard-response","118","350349","0.0-118.0","3NOKK93PR2U9W7BZET2CV6TJQA4EEN","A3MYPYBVHX7FQ2","3IH9TRB0FBLK6RLF7MSMKICTMWW1I5","","1344.9000000059605","img/land3.png","76","1345.5999999940395","3","1","3","2","1,0.5,0.5,0.5,1,0.5,0.5,0.5,1","1,0.5,0.5,0.5,1,0.5,0.5,0.5,1","","",""
"","html-keyboard-response","119","350652","0.0-119.0","3NOKK93PR2U9W7BZET2CV6TJQA4EEN","A3MYPYBVHX7FQ2","3IH9TRB0FBLK6RLF7MSMKICTMWW1I5","","null","<img src=""img/land3.png"" style=""width:200px; border:14px solid green;"">","null","","","","","","","","","",""
"","image-keyboard-response","120","351149","0.0-120.0","3NOKK93PR2U9W7BZET2CV6TJQA4EEN","A3MYPYBVHX7FQ2","3IH9TRB0FBLK6RLF7MSMKICTMWW1I5","","496.59999999403954","img/land3.png","76","497.59999999403954","3","1","3","2","1,0.5,0.5,0.5,1,0.5,0.5,0.5,1","1,0.5,0.5,0.5,1,0.5,0.5,0.5,1","","",""
"","html-keyboard-response","121","351451","0.0-121.0","3NOKK93PR2U9W7BZET2CV6TJQA4EEN","A3MYPYBVHX7FQ2","3IH9TRB0FBLK6RLF7MSMKICTMWW1I5","","null","<img src=""img/land3.png"" style=""width:200px; border:14px solid green;"">","null","","","","","","","","","",""
"","image-keyboard-response","122","352621","0.0-122.0","3NOKK93PR2U9W7BZET2CV6TJQA4EEN","A3MYPYBVHX7FQ2","3IH9TRB0FBLK6RLF7MSMKICTMWW1I5","","1169.199999988079","img/land1.png","74","1170.0999999940395","1","1","1","2","1,0.5,0.5,0.5,1,0.5,0.5,0.5,1","1,0.5,0.5,0.5,1,0.5,0.5,0.5,1","","",""
"","html-keyboard-response","123","352923","0.0-123.0","3NOKK93PR2U9W7BZET2CV6TJQA4EEN","A3MYPYBVHX7FQ2","3IH9TRB0FBLK6RLF7MSMKICTMWW1I5","","null","<img src=""img/land1.png"" style=""width:200px; border:14px solid green;"">","null","","","","","","","","","",""
"","image-keyboard-response","124","353693","0.0-124.0","3NOKK93PR2U9W7BZET2CV6TJQA4EEN","A3MYPYBVHX7FQ2","3IH9TRB0FBLK6RLF7MSMKICTMWW1I5","","768.7000000178814","img/land3.png","76","769.6999999880791","3","1","3","2","1,0.5,0.5,0.5,1,0.5,0.5,0.5,1","1,0.5,0.5,0.5,1,0.5,0.5,0.5,1","","",""
"","html-keyboard-response","125","353995","0.0-125.0","3NOKK93PR2U9W7BZET2CV6TJQA4EEN","A3MYPYBVHX7FQ2","3IH9TRB0FBLK6RLF7MSMKICTMWW1I5","","null","<img src=""img/land3.png"" style=""width:200px; border:14px solid green;"">","null","","","","","","","","","",""
"","image-keyboard-response","126","354534","0.0-126.0","3NOKK93PR2U9W7BZET2CV6TJQA4EEN","A3MYPYBVHX7FQ2","3IH9TRB0FBLK6RLF7MSMKICTMWW1I5","","537.3000000119209","img/land3.png","76","538.4000000059605","3","1","3","2","1,0.5,0.5,0.5,1,0.5,0.5,0.5,1","1,0.5,0.5,0.5,1,0.5,0.5,0.5,1","","",""
"","html-keyboard-response","127","354837","0.0-127.0","3NOKK93PR2U9W7BZET2CV6TJQA4EEN","A3MYPYBVHX7FQ2","3IH9TRB0FBLK6RLF7MSMKICTMWW1I5","","null","<img src=""img/land3.png"" style=""width:200px; border:14px solid green;"">","null","","","","","","","","","",""
"","image-keyboard-response","128","356174","0.0-128.0","3NOKK93PR2U9W7BZET2CV6TJQA4EEN","A3MYPYBVHX7FQ2","3IH9TRB0FBLK6RLF7MSMKICTMWW1I5","","1335.8999999761581","img/land3.png","74","1336.9000000059605","1","1","3","2","1,0.5,0.5,0.5,1,0.5,0.5,0.5,1","1,0.5,0.5,0.5,1,0.5,0.5,0.5,1","","",""
"","html-keyboard-response","129","356475","0.0-129.0","3NOKK93PR2U9W7BZET2CV6TJQA4EEN","A3MYPYBVHX7FQ2","3IH9TRB0FBLK6RLF7MSMKICTMWW1I5","","null","<img src=""img/land3.png"" style=""width:200px; border:14px solid green;"">","null","","","","","","","","","",""
"","image-keyboard-response","130","356997","0.0-130.0","3NOKK93PR2U9W7BZET2CV6TJQA4EEN","A3MYPYBVHX7FQ2","3IH9TRB0FBLK6RLF7MSMKICTMWW1I5","","521.1999999880791","img/land3.png","74","522.2999999821186","1","1","3","2","1,0.5,0.5,0.5,1,0.5,0.5,0.5,1","1,0.5,0.5,0.5,1,0.5,0.5,0.5,1","","",""
"","html-keyboard-response","131","357300","0.0-131.0","3NOKK93PR2U9W7BZET2CV6TJQA4EEN","A3MYPYBVHX7FQ2","3IH9TRB0FBLK6RLF7MSMKICTMWW1I5","","null","<img src=""img/land3.png"" style=""width:200px; border:14px solid green;"">","null","","","","","","","","","",""
"","image-keyboard-response","132","357733","0.0-132.0","3NOKK93PR2U9W7BZET2CV6TJQA4EEN","A3MYPYBVHX7FQ2","3IH9TRB0FBLK6RLF7MSMKICTMWW1I5","","430","img/land3.png","74","431.39999997615814","1","0","3","2","1,0.5,0.5,0.5,1,0.5,0.5,0.5,1","1,0.5,0.5,0.5,1,0.5,0.5,0.5,1","","",""
"","html-keyboard-response","133","358036","0.0-133.0","3NOKK93PR2U9W7BZET2CV6TJQA4EEN","A3MYPYBVHX7FQ2","3IH9TRB0FBLK6RLF7MSMKICTMWW1I5","","null","<img src=""img/land3.png"" style=""width:200px;border:14px solid red;"">","null","","","","","","","","","",""
"","image-keyboard-response","134","358741","0.0-134.0","3NOKK93PR2U9W7BZET2CV6TJQA4EEN","A3MYPYBVHX7FQ2","3IH9TRB0FBLK6RLF7MSMKICTMWW1I5","","704.3999999761581","img/land3.png","74","705.5","1","0","3","2","1,0.5,0.5,0.5,1,0.5,0.5,0.5,1","1,0.5,0.5,0.5,1,0.5,0.5,0.5,1","","",""
"","html-keyboard-response","135","359044","0.0-135.0","3NOKK93PR2U9W7BZET2CV6TJQA4EEN","A3MYPYBVHX7FQ2","3IH9TRB0FBLK6RLF7MSMKICTMWW1I5","","null","<img src=""img/land3.png"" style=""width:200px;border:14px solid red;"">","null","","","","","","","","","",""
"","image-keyboard-response","136","359701","0.0-136.0","3NOKK93PR2U9W7BZET2CV6TJQA4EEN","A3MYPYBVHX7FQ2","3IH9TRB0FBLK6RLF7MSMKICTMWW1I5","","655.7000000178814","img/land3.png","74","656.8999999761581","1","0","3","2","1,0.5,0.5,0.5,1,0.5,0.5,0.5,1","1,0.5,0.5,0.5,1,0.5,0.5,0.5,1","","",""
"","html-keyboard-response","137","360003","0.0-137.0","3NOKK93PR2U9W7BZET2CV6TJQA4EEN","A3MYPYBVHX7FQ2","3IH9TRB0FBLK6RLF7MSMKICTMWW1I5","","null","<img src=""img/land3.png"" style=""width:200px;border:14px solid red;"">","null","","","","","","","","","",""
"","image-keyboard-response","138","360510","0.0-138.0","3NOKK93PR2U9W7BZET2CV6TJQA4EEN","A3MYPYBVHX7FQ2","3IH9TRB0FBLK6RLF7MSMKICTMWW1I5","","505.59999999403954","img/land3.png","74","506.5","1","0","3","2","1,0.5,0.5,0.5,1,0.5,0.5,0.5,1","1,0.5,0.5,0.5,1,0.5,0.5,0.5,1","","",""
"","html-keyboard-response","139","360812","0.0-139.0","3NOKK93PR2U9W7BZET2CV6TJQA4EEN","A3MYPYBVHX7FQ2","3IH9TRB0FBLK6RLF7MSMKICTMWW1I5","","null","<img src=""img/land3.png"" style=""width:200px;border:14px solid red;"">","null","","","","","","","","","",""
"","image-keyboard-response","140","362315","0.0-140.0","3NOKK93PR2U9W7BZET2CV6TJQA4EEN","A3MYPYBVHX7FQ2","3IH9TRB0FBLK6RLF7MSMKICTMWW1I5","","","img/land1.png","","1502.699999988079","-1","0","1","2","1,0.5,0.5,0.5,1,0.5,0.5,0.5,1","1,0.5,0.5,0.5,1,0.5,0.5,0.5,1","","",""
"","html-keyboard-response","141","362617","0.0-141.0","3NOKK93PR2U9W7BZET2CV6TJQA4EEN","A3MYPYBVHX7FQ2","3IH9TRB0FBLK6RLF7MSMKICTMWW1I5","","null","<img src=""img/land1.png"" style=""width:200px;border:14px solid red;"">","null","","","","","","","","","",""
"","image-keyboard-response","142","363005","0.0-142.0","3NOKK93PR2U9W7BZET2CV6TJQA4EEN","A3MYPYBVHX7FQ2","3IH9TRB0FBLK6RLF7MSMKICTMWW1I5","","387.60000002384186","img/land1.png","74","388.19999998807907","1","1","1","2","1,0.5,0.5,0.5,1,0.5,0.5,0.5,1","1,0.5,0.5,0.5,1,0.5,0.5,0.5,1","","",""
"","html-keyboard-response","143","363306","0.0-143.0","3NOKK93PR2U9W7BZET2CV6TJQA4EEN","A3MYPYBVHX7FQ2","3IH9TRB0FBLK6RLF7MSMKICTMWW1I5","","null","<img src=""img/land1.png"" style=""width:200px; border:14px solid green;"">","null","","","","","","","","","",""
"","image-keyboard-response","144","363877","0.0-144.0","3NOKK93PR2U9W7BZET2CV6TJQA4EEN","A3MYPYBVHX7FQ2","3IH9TRB0FBLK6RLF7MSMKICTMWW1I5","","569.4000000059605","img/land1.png","74","570.3999999761581","1","1","1","2","1,0.5,0.5,0.5,1,0.5,0.5,0.5,1","1,0.5,0.5,0.5,1,0.5,0.5,0.5,1","","",""
"","html-keyboard-response","145","364187","0.0-145.0","3NOKK93PR2U9W7BZET2CV6TJQA4EEN","A3MYPYBVHX7FQ2","3IH9TRB0FBLK6RLF7MSMKICTMWW1I5","","null","<img src=""img/land1.png"" style=""width:200px; border:14px solid green;"">","null","","","","","","","","","",""
"","image-keyboard-response","146","364646","0.0-146.0","3NOKK93PR2U9W7BZET2CV6TJQA4EEN","A3MYPYBVHX7FQ2","3IH9TRB0FBLK6RLF7MSMKICTMWW1I5","","458","img/land1.png","74","458.89999997615814","1","1","1","2","1,0.5,0.5,0.5,1,0.5,0.5,0.5,1","1,0.5,0.5,0.5,1,0.5,0.5,0.5,1","","",""
"","html-keyboard-response","147","364949","0.0-147.0","3NOKK93PR2U9W7BZET2CV6TJQA4EEN","A3MYPYBVHX7FQ2","3IH9TRB0FBLK6RLF7MSMKICTMWW1I5","","null","<img src=""img/land1.png"" style=""width:200px; border:14px solid green;"">","null","","","","","","","","","",""
"","image-keyboard-response","148","365717","0.0-148.0","3NOKK93PR2U9W7BZET2CV6TJQA4EEN","A3MYPYBVHX7FQ2","3IH9TRB0FBLK6RLF7MSMKICTMWW1I5","","767.7000000178814","img/land3.png","76","768.5","3","1","3","2","1,0.5,0.5,0.5,1,0.5,0.5,0.5,1","1,0.5,0.5,0.5,1,0.5,0.5,0.5,1","","",""
"","html-keyboard-response","149","366020","0.0-149.0","3NOKK93PR2U9W7BZET2CV6TJQA4EEN","A3MYPYBVHX7FQ2","3IH9TRB0FBLK6RLF7MSMKICTMWW1I5","","null","<img src=""img/land3.png"" style=""width:200px; border:14px solid green;"">","null","","","","","","","","","",""
"","image-keyboard-response","150","366894","0.0-150.0","3NOKK93PR2U9W7BZET2CV6TJQA4EEN","A3MYPYBVHX7FQ2","3IH9TRB0FBLK6RLF7MSMKICTMWW1I5","","872.6999999880791","img/land1.png","74","873.7000000178814","1","1","1","2","1,0.5,0.5,0.5,1,0.5,0.5,0.5,1","1,0.5,0.5,0.5,1,0.5,0.5,0.5,1","","",""
"","html-keyboard-response","151","367197","0.0-151.0","3NOKK93PR2U9W7BZET2CV6TJQA4EEN","A3MYPYBVHX7FQ2","3IH9TRB0FBLK6RLF7MSMKICTMWW1I5","","null","<img src=""img/land1.png"" style=""width:200px; border:14px solid green;"">","null","","","","","","","","","",""
"","image-keyboard-response","152","367885","0.0-152.0","3NOKK93PR2U9W7BZET2CV6TJQA4EEN","A3MYPYBVHX7FQ2","3IH9TRB0FBLK6RLF7MSMKICTMWW1I5","","687.2999999821186","img/land3.png","76","688.2000000178814","3","1","3","2","1,0.5,0.5,0.5,1,0.5,0.5,0.5,1","1,0.5,0.5,0.5,1,0.5,0.5,0.5,1","","",""
"","html-keyboard-response","153","368186","0.0-153.0","3NOKK93PR2U9W7BZET2CV6TJQA4EEN","A3MYPYBVHX7FQ2","3IH9TRB0FBLK6RLF7MSMKICTMWW1I5","","null","<img src=""img/land3.png"" style=""width:200px; border:14px solid green;"">","null","","","","","","","","","",""
"","image-keyboard-response","154","368701","0.0-154.0","3NOKK93PR2U9W7BZET2CV6TJQA4EEN","A3MYPYBVHX7FQ2","3IH9TRB0FBLK6RLF7MSMKICTMWW1I5","","513.7999999821186","img/land3.png","76","514.5","3","1","3","2","1,0.5,0.5,0.5,1,0.5,0.5,0.5,1","1,0.5,0.5,0.5,1,0.5,0.5,0.5,1","","",""
"","html-keyboard-response","155","369003","0.0-155.0","3NOKK93PR2U9W7BZET2CV6TJQA4EEN","A3MYPYBVHX7FQ2","3IH9TRB0FBLK6RLF7MSMKICTMWW1I5","","null","<img src=""img/land3.png"" style=""width:200px; border:14px solid green;"">","null","","","","","","","","","",""
"","image-keyboard-response","156","369469","0.0-156.0","3NOKK93PR2U9W7BZET2CV6TJQA4EEN","A3MYPYBVHX7FQ2","3IH9TRB0FBLK6RLF7MSMKICTMWW1I5","","465","img/land3.png","76","466.09999999403954","3","1","3","2","1,0.5,0.5,0.5,1,0.5,0.5,0.5,1","1,0.5,0.5,0.5,1,0.5,0.5,0.5,1","","",""
"","html-keyboard-response","157","369771","0.0-157.0","3NOKK93PR2U9W7BZET2CV6TJQA4EEN","A3MYPYBVHX7FQ2","3IH9TRB0FBLK6RLF7MSMKICTMWW1I5","","null","<img src=""img/land3.png"" style=""width:200px; border:14px solid green;"">","null","","","","","","","","","",""
"","image-keyboard-response","158","370230","0.0-158.0","3NOKK93PR2U9W7BZET2CV6TJQA4EEN","A3MYPYBVHX7FQ2","3IH9TRB0FBLK6RLF7MSMKICTMWW1I5","","458.19999998807907","img/land3.png","76","458.90000000596046","3","1","3","2","1,0.5,0.5,0.5,1,0.5,0.5,0.5,1","1,0.5,0.5,0.5,1,0.5,0.5,0.5,1","","",""
"","html-keyboard-response","159","370538","0.0-159.0","3NOKK93PR2U9W7BZET2CV6TJQA4EEN","A3MYPYBVHX7FQ2","3IH9TRB0FBLK6RLF7MSMKICTMWW1I5","","null","<img src=""img/land3.png"" style=""width:200px; border:14px solid green;"">","null","","","","","","","","","",""
"","image-keyboard-response","160","370950","0.0-160.0","3NOKK93PR2U9W7BZET2CV6TJQA4EEN","A3MYPYBVHX7FQ2","3IH9TRB0FBLK6RLF7MSMKICTMWW1I5","","411.19999998807907","img/land3.png","76","412.19999998807907","3","1","3","2","1,0.5,0.5,0.5,1,0.5,0.5,0.5,1","1,0.5,0.5,0.5,1,0.5,0.5,0.5,1","","",""
"","html-keyboard-response","161","371253","0.0-161.0","3NOKK93PR2U9W7BZET2CV6TJQA4EEN","A3MYPYBVHX7FQ2","3IH9TRB0FBLK6RLF7MSMKICTMWW1I5","","null","<img src=""img/land3.png"" style=""width:200px; border:14px solid green;"">","null","","","","","","","","","",""
"","image-keyboard-response","162","371669","0.0-162.0","3NOKK93PR2U9W7BZET2CV6TJQA4EEN","A3MYPYBVHX7FQ2","3IH9TRB0FBLK6RLF7MSMKICTMWW1I5","","415.40000000596046","img/land3.png","76","416.09999999403954","3","1","3","2","1,0.5,0.5,0.5,1,0.5,0.5,0.5,1","1,0.5,0.5,0.5,1,0.5,0.5,0.5,1","","",""
"","html-keyboard-response","163","371971","0.0-163.0","3NOKK93PR2U9W7BZET2CV6TJQA4EEN","A3MYPYBVHX7FQ2","3IH9TRB0FBLK6RLF7MSMKICTMWW1I5","","null","<img src=""img/land3.png"" style=""width:200px; border:14px solid green;"">","null","","","","","","","","","",""
"","image-keyboard-response","164","372373","0.0-164.0","3NOKK93PR2U9W7BZET2CV6TJQA4EEN","A3MYPYBVHX7FQ2","3IH9TRB0FBLK6RLF7MSMKICTMWW1I5","","401.69999998807907","img/land1.png","76","402.30000001192093","3","1","1","2","1,0.5,0.5,0.5,1,0.5,0.5,0.5,1","1,0.5,0.5,0.5,1,0.5,0.5,0.5,1","","",""
"","html-keyboard-response","165","372676","0.0-165.0","3NOKK93PR2U9W7BZET2CV6TJQA4EEN","A3MYPYBVHX7FQ2","3IH9TRB0FBLK6RLF7MSMKICTMWW1I5","","null","<img src=""img/land1.png"" style=""width:200px; border:14px solid green;"">","null","","","","","","","","","",""
"","image-keyboard-response","166","373973","0.0-166.0","3NOKK93PR2U9W7BZET2CV6TJQA4EEN","A3MYPYBVHX7FQ2","3IH9TRB0FBLK6RLF7MSMKICTMWW1I5","","1295.7999999821186","img/land3.png","74","1297.300000011921","1","1","3","2","1,0.5,0.5,0.5,1,0.5,0.5,0.5,1","1,0.5,0.5,0.5,1,0.5,0.5,0.5,1","","",""
"","html-keyboard-response","167","374275","0.0-167.0","3NOKK93PR2U9W7BZET2CV6TJQA4EEN","A3MYPYBVHX7FQ2","3IH9TRB0FBLK6RLF7MSMKICTMWW1I5","","null","<img src=""img/land3.png"" style=""width:200px; border:14px solid green;"">","null","","","","","","","","","",""
"","image-keyboard-response","168","375166","0.0-168.0","3NOKK93PR2U9W7BZET2CV6TJQA4EEN","A3MYPYBVHX7FQ2","3IH9TRB0FBLK6RLF7MSMKICTMWW1I5","","888.6999999880791","img/land2.png","75","889.7000000178814","2","1","2","2","1,0.5,0.5,0.5,1,0.5,0.5,0.5,1","1,0.5,0.5,0.5,1,0.5,0.5,0.5,1","","",""
"","html-keyboard-response","169","375469","0.0-169.0","3NOKK93PR2U9W7BZET2CV6TJQA4EEN","A3MYPYBVHX7FQ2","3IH9TRB0FBLK6RLF7MSMKICTMWW1I5","","null","<img src=""img/land2.png"" style=""width:200px; border:14px solid green;"">","null","","","","","","","","","",""
"","image-keyboard-response","170","376197","0.0-170.0","3NOKK93PR2U9W7BZET2CV6TJQA4EEN","A3MYPYBVHX7FQ2","3IH9TRB0FBLK6RLF7MSMKICTMWW1I5","","727.2999999821186","img/land3.png","76","728.1000000238419","3","1","3","2","1,0.5,0.5,0.5,1,0.5,0.5,0.5,1","1,0.5,0.5,0.5,1,0.5,0.5,0.5,1","","",""
"","html-keyboard-response","171","376499","0.0-171.0","3NOKK93PR2U9W7BZET2CV6TJQA4EEN","A3MYPYBVHX7FQ2","3IH9TRB0FBLK6RLF7MSMKICTMWW1I5","","null","<img src=""img/land3.png"" style=""width:200px; border:14px solid green;"">","null","","","","","","","","","",""
"","image-keyboard-response","172","377150","0.0-172.0","3NOKK93PR2U9W7BZET2CV6TJQA4EEN","A3MYPYBVHX7FQ2","3IH9TRB0FBLK6RLF7MSMKICTMWW1I5","","650.5","img/land3.png","76","651.3000000119209","3","1","3","2","1,0.5,0.5,0.5,1,0.5,0.5,0.5,1","1,0.5,0.5,0.5,1,0.5,0.5,0.5,1","","",""
"","html-keyboard-response","173","377452","0.0-173.0","3NOKK93PR2U9W7BZET2CV6TJQA4EEN","A3MYPYBVHX7FQ2","3IH9TRB0FBLK6RLF7MSMKICTMWW1I5","","null","<img src=""img/land3.png"" style=""width:200px; border:14px solid green;"">","null","","","","","","","","","",""
"","image-keyboard-response","174","378317","0.0-174.0","3NOKK93PR2U9W7BZET2CV6TJQA4EEN","A3MYPYBVHX7FQ2","3IH9TRB0FBLK6RLF7MSMKICTMWW1I5","","864.6000000238419","img/land2.png","75","865.4000000059605","2","1","2","2","1,0.5,0.5,0.5,1,0.5,0.5,0.5,1","1,0.5,0.5,0.5,1,0.5,0.5,0.5,1","","",""
"","html-keyboard-response","175","378619","0.0-175.0","3NOKK93PR2U9W7BZET2CV6TJQA4EEN","A3MYPYBVHX7FQ2","3IH9TRB0FBLK6RLF7MSMKICTMWW1I5","","null","<img src=""img/land2.png"" style=""width:200px; border:14px solid green;"">","null","","","","","","","","","",""
"","image-keyboard-response","176","379142","0.0-176.0","3NOKK93PR2U9W7BZET2CV6TJQA4EEN","A3MYPYBVHX7FQ2","3IH9TRB0FBLK6RLF7MSMKICTMWW1I5","","521.4000000059605","img/land2.png","75","522.4000000059605","2","1","2","2","1,0.5,0.5,0.5,1,0.5,0.5,0.5,1","1,0.5,0.5,0.5,1,0.5,0.5,0.5,1","","",""
"","html-keyboard-response","177","379444","0.0-177.0","3NOKK93PR2U9W7BZET2CV6TJQA4EEN","A3MYPYBVHX7FQ2","3IH9TRB0FBLK6RLF7MSMKICTMWW1I5","","null","<img src=""img/land2.png"" style=""width:200px; border:14px solid green;"">","null","","","","","","","","","",""
"","image-keyboard-response","178","380309","0.0-178.0","3NOKK93PR2U9W7BZET2CV6TJQA4EEN","A3MYPYBVHX7FQ2","3IH9TRB0FBLK6RLF7MSMKICTMWW1I5","","863.5","img/land3.png","76","864.5999999940395","3","1","3","2","1,0.5,0.5,0.5,1,0.5,0.5,0.5,1","1,0.5,0.5,0.5,1,0.5,0.5,0.5,1","","",""
"","html-keyboard-response","179","380612","0.0-179.0","3NOKK93PR2U9W7BZET2CV6TJQA4EEN","A3MYPYBVHX7FQ2","3IH9TRB0FBLK6RLF7MSMKICTMWW1I5","","null","<img src=""img/land3.png"" style=""width:200px; border:14px solid green;"">","null","","","","","","","","","",""
"","image-keyboard-response","180","381117","0.0-180.0","3NOKK93PR2U9W7BZET2CV6TJQA4EEN","A3MYPYBVHX7FQ2","3IH9TRB0FBLK6RLF7MSMKICTMWW1I5","","503.7999999821186","img/land3.png","76","505.09999999403954","3","1","3","2","1,0.5,0.5,0.5,1,0.5,0.5,0.5,1","1,0.5,0.5,0.5,1,0.5,0.5,0.5,1","","",""
"","html-keyboard-response","181","381419","0.0-181.0","3NOKK93PR2U9W7BZET2CV6TJQA4EEN","A3MYPYBVHX7FQ2","3IH9TRB0FBLK6RLF7MSMKICTMWW1I5","","null","<img src=""img/land3.png"" style=""width:200px; border:14px solid green;"">","null","","","","","","","","","",""
"","image-keyboard-response","182","381926","0.0-182.0","3NOKK93PR2U9W7BZET2CV6TJQA4EEN","A3MYPYBVHX7FQ2","3IH9TRB0FBLK6RLF7MSMKICTMWW1I5","","505.90000000596046","img/land3.png","76","506.80000001192093","3","1","3","2","1,0.5,0.5,0.5,1,0.5,0.5,0.5,1","1,0.5,0.5,0.5,1,0.5,0.5,0.5,1","","",""
"","html-keyboard-response","183","382227","0.0-183.0","3NOKK93PR2U9W7BZET2CV6TJQA4EEN","A3MYPYBVHX7FQ2","3IH9TRB0FBLK6RLF7MSMKICTMWW1I5","","null","<img src=""img/land3.png"" style=""width:200px; border:14px solid green;"">","null","","","","","","","","","",""
"","image-keyboard-response","184","382645","0.0-184.0","3NOKK93PR2U9W7BZET2CV6TJQA4EEN","A3MYPYBVHX7FQ2","3IH9TRB0FBLK6RLF7MSMKICTMWW1I5","","416.90000000596046","img/land3.png","76","417.90000000596046","3","1","3","2","1,0.5,0.5,0.5,1,0.5,0.5,0.5,1","1,0.5,0.5,0.5,1,0.5,0.5,0.5,1","","",""
"","html-keyboard-response","185","382949","0.0-185.0","3NOKK93PR2U9W7BZET2CV6TJQA4EEN","A3MYPYBVHX7FQ2","3IH9TRB0FBLK6RLF7MSMKICTMWW1I5","","null","<img src=""img/land3.png"" style=""width:200px; border:14px solid green;"">","null","","","","","","","","","",""
"","image-keyboard-response","186","383717","0.0-186.0","3NOKK93PR2U9W7BZET2CV6TJQA4EEN","A3MYPYBVHX7FQ2","3IH9TRB0FBLK6RLF7MSMKICTMWW1I5","","766.7999999821186","img/land2.png","75","768.1999999880791","2","1","2","2","1,0.5,0.5,0.5,1,0.5,0.5,0.5,1","1,0.5,0.5,0.5,1,0.5,0.5,0.5,1","","",""
"","html-keyboard-response","187","384019","0.0-187.0","3NOKK93PR2U9W7BZET2CV6TJQA4EEN","A3MYPYBVHX7FQ2","3IH9TRB0FBLK6RLF7MSMKICTMWW1I5","","null","<img src=""img/land2.png"" style=""width:200px; border:14px solid green;"">","null","","","","","","","","","",""
"","image-keyboard-response","188","384477","0.0-188.0","3NOKK93PR2U9W7BZET2CV6TJQA4EEN","A3MYPYBVHX7FQ2","3IH9TRB0FBLK6RLF7MSMKICTMWW1I5","","456.80000001192093","img/land2.png","75","457.89999997615814","2","1","2","2","1,0.5,0.5,0.5,1,0.5,0.5,0.5,1","1,0.5,0.5,0.5,1,0.5,0.5,0.5,1","","",""
"","html-keyboard-response","189","384779","0.0-189.0","3NOKK93PR2U9W7BZET2CV6TJQA4EEN","A3MYPYBVHX7FQ2","3IH9TRB0FBLK6RLF7MSMKICTMWW1I5","","null","<img src=""img/land2.png"" style=""width:200px; border:14px solid green;"">","null","","","","","","","","","",""
"","image-keyboard-response","190","385493","0.0-190.0","3NOKK93PR2U9W7BZET2CV6TJQA4EEN","A3MYPYBVHX7FQ2","3IH9TRB0FBLK6RLF7MSMKICTMWW1I5","","712.7000000178814","img/land3.png","76","713.6999999880791","3","1","3","2","1,0.5,0.5,0.5,1,0.5,0.5,0.5,1","1,0.5,0.5,0.5,1,0.5,0.5,0.5,1","","",""
"","html-keyboard-response","191","385795","0.0-191.0","3NOKK93PR2U9W7BZET2CV6TJQA4EEN","A3MYPYBVHX7FQ2","3IH9TRB0FBLK6RLF7MSMKICTMWW1I5","","null","<img src=""img/land3.png"" style=""width:200px; border:14px solid green;"">","null","","","","","","","","","",""
"","image-keyboard-response","192","386317","0.0-192.0","3NOKK93PR2U9W7BZET2CV6TJQA4EEN","A3MYPYBVHX7FQ2","3IH9TRB0FBLK6RLF7MSMKICTMWW1I5","","521.0999999940395","img/land3.png","76","521.7000000178814","3","1","3","2","1,0.5,0.5,0.5,1,0.5,0.5,0.5,1","1,0.5,0.5,0.5,1,0.5,0.5,0.5,1","","",""
"","html-keyboard-response","193","386620","0.0-193.0","3NOKK93PR2U9W7BZET2CV6TJQA4EEN","A3MYPYBVHX7FQ2","3IH9TRB0FBLK6RLF7MSMKICTMWW1I5","","null","<img src=""img/land3.png"" style=""width:200px; border:14px solid green;"">","null","","","","","","","","","",""
"","image-keyboard-response","194","387021","0.0-194.0","3NOKK93PR2U9W7BZET2CV6TJQA4EEN","A3MYPYBVHX7FQ2","3IH9TRB0FBLK6RLF7MSMKICTMWW1I5","","399.7999999821186","img/land3.png","76","400.59999999403954","3","1","3","2","1,0.5,0.5,0.5,1,0.5,0.5,0.5,1","1,0.5,0.5,0.5,1,0.5,0.5,0.5,1","","",""
"","html-keyboard-response","195","387322","0.0-195.0","3NOKK93PR2U9W7BZET2CV6TJQA4EEN","A3MYPYBVHX7FQ2","3IH9TRB0FBLK6RLF7MSMKICTMWW1I5","","null","<img src=""img/land3.png"" style=""width:200px; border:14px solid green;"">","null","","","","","","","","","",""
"","image-keyboard-response","196","387726","0.0-196.0","3NOKK93PR2U9W7BZET2CV6TJQA4EEN","A3MYPYBVHX7FQ2","3IH9TRB0FBLK6RLF7MSMKICTMWW1I5","","401.7999999821186","img/land3.png","76","402.80000001192093","3","1","3","2","1,0.5,0.5,0.5,1,0.5,0.5,0.5,1","1,0.5,0.5,0.5,1,0.5,0.5,0.5,1","","",""
"","html-keyboard-response","197","388028","0.0-197.0","3NOKK93PR2U9W7BZET2CV6TJQA4EEN","A3MYPYBVHX7FQ2","3IH9TRB0FBLK6RLF7MSMKICTMWW1I5","","null","<img src=""img/land3.png"" style=""width:200px; border:14px solid green;"">","null","","","","","","","","","",""
"","image-keyboard-response","198","388774","0.0-198.0","3NOKK93PR2U9W7BZET2CV6TJQA4EEN","A3MYPYBVHX7FQ2","3IH9TRB0FBLK6RLF7MSMKICTMWW1I5","","744.9000000059605","img/land1.png","74","745.9000000059605","1","1","1","2","1,0.5,0.5,0.5,1,0.5,0.5,0.5,1","1,0.5,0.5,0.5,1,0.5,0.5,0.5,1","","",""
"","html-keyboard-response","199","389078","0.0-199.0","3NOKK93PR2U9W7BZET2CV6TJQA4EEN","A3MYPYBVHX7FQ2","3IH9TRB0FBLK6RLF7MSMKICTMWW1I5","","null","<img src=""img/land1.png"" style=""width:200px; border:14px solid green;"">","null","","","","","","","","","",""
"","image-keyboard-response","200","389438","0.0-200.0","3NOKK93PR2U9W7BZET2CV6TJQA4EEN","A3MYPYBVHX7FQ2","3IH9TRB0FBLK6RLF7MSMKICTMWW1I5","","359.59999999403954","img/land1.png","74","360.30000001192093","1","1","1","2","1,0.5,0.5,0.5,1,0.5,0.5,0.5,1","1,0.5,0.5,0.5,1,0.5,0.5,0.5,1","","",""
"","html-keyboard-response","201","389739","0.0-201.0","3NOKK93PR2U9W7BZET2CV6TJQA4EEN","A3MYPYBVHX7FQ2","3IH9TRB0FBLK6RLF7MSMKICTMWW1I5","","null","<img src=""img/land1.png"" style=""width:200px; border:14px solid green;"">","null","","","","","","","","","",""
"","image-keyboard-response","202","390438","0.0-202.0","3NOKK93PR2U9W7BZET2CV6TJQA4EEN","A3MYPYBVHX7FQ2","3IH9TRB0FBLK6RLF7MSMKICTMWW1I5","","697.9000000059605","img/land3.png","76","698.8000000119209","3","1","3","2","1,0.5,0.5,0.5,1,0.5,0.5,0.5,1","1,0.5,0.5,0.5,1,0.5,0.5,0.5,1","","",""
"","html-keyboard-response","203","390741","0.0-203.0","3NOKK93PR2U9W7BZET2CV6TJQA4EEN","A3MYPYBVHX7FQ2","3IH9TRB0FBLK6RLF7MSMKICTMWW1I5","","null","<img src=""img/land3.png"" style=""width:200px; border:14px solid green;"">","null","","","","","","","","","",""
"","image-keyboard-response","204","391534","0.0-204.0","3NOKK93PR2U9W7BZET2CV6TJQA4EEN","A3MYPYBVHX7FQ2","3IH9TRB0FBLK6RLF7MSMKICTMWW1I5","","792.7000000178814","img/land2.png","75","793.5","2","1","2","2","1,0.5,0.5,0.5,1,0.5,0.5,0.5,1","1,0.5,0.5,0.5,1,0.5,0.5,0.5,1","","",""
"","html-keyboard-response","205","391837","0.0-205.0","3NOKK93PR2U9W7BZET2CV6TJQA4EEN","A3MYPYBVHX7FQ2","3IH9TRB0FBLK6RLF7MSMKICTMWW1I5","","null","<img src=""img/land2.png"" style=""width:200px; border:14px solid green;"">","null","","","","","","","","","",""
"","image-keyboard-response","206","392422","0.0-206.0","3NOKK93PR2U9W7BZET2CV6TJQA4EEN","A3MYPYBVHX7FQ2","3IH9TRB0FBLK6RLF7MSMKICTMWW1I5","","583.6999999880791","img/land2.png","75","584.5","2","1","2","2","1,0.5,0.5,0.5,1,0.5,0.5,0.5,1","1,0.5,0.5,0.5,1,0.5,0.5,0.5,1","","",""
"","html-keyboard-response","207","392725","0.0-207.0","3NOKK93PR2U9W7BZET2CV6TJQA4EEN","A3MYPYBVHX7FQ2","3IH9TRB0FBLK6RLF7MSMKICTMWW1I5","","null","<img src=""img/land2.png"" style=""width:200px; border:14px solid green;"">","null","","","","","","","","","",""
"","image-keyboard-response","208","393390","0.0-208.0","3NOKK93PR2U9W7BZET2CV6TJQA4EEN","A3MYPYBVHX7FQ2","3IH9TRB0FBLK6RLF7MSMKICTMWW1I5","","664.0999999940395","img/land3.png","76","665","3","1","3","2","1,0.5,0.5,0.5,1,0.5,0.5,0.5,1","1,0.5,0.5,0.5,1,0.5,0.5,0.5,1","","",""
"","html-keyboard-response","209","393691","0.0-209.0","3NOKK93PR2U9W7BZET2CV6TJQA4EEN","A3MYPYBVHX7FQ2","3IH9TRB0FBLK6RLF7MSMKICTMWW1I5","","null","<img src=""img/land3.png"" style=""width:200px; border:14px solid green;"">","null","","","","","","","","","",""
"","image-keyboard-response","210","394254","0.0-210.0","3NOKK93PR2U9W7BZET2CV6TJQA4EEN","A3MYPYBVHX7FQ2","3IH9TRB0FBLK6RLF7MSMKICTMWW1I5","","561.8999999761581","img/land3.png","76","562.5999999940395","3","1","3","2","1,0.5,0.5,0.5,1,0.5,0.5,0.5,1","1,0.5,0.5,0.5,1,0.5,0.5,0.5,1","","",""
"","html-keyboard-response","211","394556","0.0-211.0","3NOKK93PR2U9W7BZET2CV6TJQA4EEN","A3MYPYBVHX7FQ2","3IH9TRB0FBLK6RLF7MSMKICTMWW1I5","","null","<img src=""img/land3.png"" style=""width:200px; border:14px solid green;"">","null","","","","","","","","","",""
"","image-keyboard-response","212","395135","0.0-212.0","3NOKK93PR2U9W7BZET2CV6TJQA4EEN","A3MYPYBVHX7FQ2","3IH9TRB0FBLK6RLF7MSMKICTMWW1I5","","577.9000000059605","img/land3.png","76","579.0999999940395","3","1","3","2","1,0.5,0.5,0.5,1,0.5,0.5,0.5,1","1,0.5,0.5,0.5,1,0.5,0.5,0.5,1","","",""
"","html-keyboard-response","213","395437","0.0-213.0","3NOKK93PR2U9W7BZET2CV6TJQA4EEN","A3MYPYBVHX7FQ2","3IH9TRB0FBLK6RLF7MSMKICTMWW1I5","","null","<img src=""img/land3.png"" style=""width:200px; border:14px solid green;"">","null","","","","","","","","","",""
"","image-keyboard-response","214","395982","0.0-214.0","3NOKK93PR2U9W7BZET2CV6TJQA4EEN","A3MYPYBVHX7FQ2","3IH9TRB0FBLK6RLF7MSMKICTMWW1I5","","544","img/land3.png","76","544.9000000059605","3","1","3","2","1,0.5,0.5,0.5,1,0.5,0.5,0.5,1","1,0.5,0.5,0.5,1,0.5,0.5,0.5,1","","",""
"","html-keyboard-response","215","396284","0.0-215.0","3NOKK93PR2U9W7BZET2CV6TJQA4EEN","A3MYPYBVHX7FQ2","3IH9TRB0FBLK6RLF7MSMKICTMWW1I5","","null","<img src=""img/land3.png"" style=""width:200px; border:14px solid green;"">","null","","","","","","","","","",""
"","image-keyboard-response","216","396799","0.0-216.0","3NOKK93PR2U9W7BZET2CV6TJQA4EEN","A3MYPYBVHX7FQ2","3IH9TRB0FBLK6RLF7MSMKICTMWW1I5","","513.4000000059605","img/land3.png","76","514.5","3","1","3","2","1,0.5,0.5,0.5,1,0.5,0.5,0.5,1","1,0.5,0.5,0.5,1,0.5,0.5,0.5,1","","",""
"","html-keyboard-response","217","397102","0.0-217.0","3NOKK93PR2U9W7BZET2CV6TJQA4EEN","A3MYPYBVHX7FQ2","3IH9TRB0FBLK6RLF7MSMKICTMWW1I5","","null","<img src=""img/land3.png"" style=""width:200px; border:14px solid green;"">","null","","","","","","","","","",""
"","image-keyboard-response","218","397590","0.0-218.0","3NOKK93PR2U9W7BZET2CV6TJQA4EEN","A3MYPYBVHX7FQ2","3IH9TRB0FBLK6RLF7MSMKICTMWW1I5","","487.40000000596046","img/land3.png","76","488.2000000178814","3","1","3","2","1,0.5,0.5,0.5,1,0.5,0.5,0.5,1","1,0.5,0.5,0.5,1,0.5,0.5,0.5,1","","",""
"","html-keyboard-response","219","397892","0.0-219.0","3NOKK93PR2U9W7BZET2CV6TJQA4EEN","A3MYPYBVHX7FQ2","3IH9TRB0FBLK6RLF7MSMKICTMWW1I5","","null","<img src=""img/land3.png"" style=""width:200px; border:14px solid green;"">","null","","","","","","","","","",""
"","image-keyboard-response","220","398358","0.0-220.0","3NOKK93PR2U9W7BZET2CV6TJQA4EEN","A3MYPYBVHX7FQ2","3IH9TRB0FBLK6RLF7MSMKICTMWW1I5","","464.90000000596046","img/land3.png","76","465.90000000596046","3","1","3","2","1,0.5,0.5,0.5,1,0.5,0.5,0.5,1","1,0.5,0.5,0.5,1,0.5,0.5,0.5,1","","",""
"","html-keyboard-response","221","398660","0.0-221.0","3NOKK93PR2U9W7BZET2CV6TJQA4EEN","A3MYPYBVHX7FQ2","3IH9TRB0FBLK6RLF7MSMKICTMWW1I5","","null","<img src=""img/land3.png"" style=""width:200px; border:14px solid green;"">","null","","","","","","","","","",""
"","image-keyboard-response","222","399111","0.0-222.0","3NOKK93PR2U9W7BZET2CV6TJQA4EEN","A3MYPYBVHX7FQ2","3IH9TRB0FBLK6RLF7MSMKICTMWW1I5","","449.10000002384186","img/land3.png","76","450.10000002384186","3","1","3","2","1,0.5,0.5,0.5,1,0.5,0.5,0.5,1","1,0.5,0.5,0.5,1,0.5,0.5,0.5,1","","",""
"","html-keyboard-response","223","399413","0.0-223.0","3NOKK93PR2U9W7BZET2CV6TJQA4EEN","A3MYPYBVHX7FQ2","3IH9TRB0FBLK6RLF7MSMKICTMWW1I5","","null","<img src=""img/land3.png"" style=""width:200px; border:14px solid green;"">","null","","","","","","","","","",""
"","image-keyboard-response","224","400095","0.0-224.0","3NOKK93PR2U9W7BZET2CV6TJQA4EEN","A3MYPYBVHX7FQ2","3IH9TRB0FBLK6RLF7MSMKICTMWW1I5","","680.9000000059605","img/land1.png","74","681.9000000059605","1","1","1","2","1,0.5,0.5,0.5,1,0.5,0.5,0.5,1","1,0.5,0.5,0.5,1,0.5,0.5,0.5,1","","",""
"","html-keyboard-response","225","400398","0.0-225.0","3NOKK93PR2U9W7BZET2CV6TJQA4EEN","A3MYPYBVHX7FQ2","3IH9TRB0FBLK6RLF7MSMKICTMWW1I5","","null","<img src=""img/land1.png"" style=""width:200px; border:14px solid green;"">","null","","","","","","","","","",""
"","image-keyboard-response","226","401223","0.0-226.0","3NOKK93PR2U9W7BZET2CV6TJQA4EEN","A3MYPYBVHX7FQ2","3IH9TRB0FBLK6RLF7MSMKICTMWW1I5","","823.7000000178814","img/land2.png","75","824.6000000238419","2","1","2","2","1,0.5,0.5,0.5,1,0.5,0.5,0.5,1","1,0.5,0.5,0.5,1,0.5,0.5,0.5,1","","",""
"","html-keyboard-response","227","401526","0.0-227.0","3NOKK93PR2U9W7BZET2CV6TJQA4EEN","A3MYPYBVHX7FQ2","3IH9TRB0FBLK6RLF7MSMKICTMWW1I5","","null","<img src=""img/land2.png"" style=""width:200px; border:14px solid green;"">","null","","","","","","","","","",""
"","image-keyboard-response","228","402254","0.0-228.0","3NOKK93PR2U9W7BZET2CV6TJQA4EEN","A3MYPYBVHX7FQ2","3IH9TRB0FBLK6RLF7MSMKICTMWW1I5","","727.3000000119209","img/land3.png","76","728.4000000059605","3","1","3","2","1,0.5,0.5,0.5,1,0.5,0.5,0.5,1","1,0.5,0.5,0.5,1,0.5,0.5,0.5,1","","",""
"","html-keyboard-response","229","402557","0.0-229.0","3NOKK93PR2U9W7BZET2CV6TJQA4EEN","A3MYPYBVHX7FQ2","3IH9TRB0FBLK6RLF7MSMKICTMWW1I5","","null","<img src=""img/land3.png"" style=""width:200px; border:14px solid green;"">","null","","","","","","","","","",""
"","image-keyboard-response","230","403487","0.0-230.0","3NOKK93PR2U9W7BZET2CV6TJQA4EEN","A3MYPYBVHX7FQ2","3IH9TRB0FBLK6RLF7MSMKICTMWW1I5","","927.4000000059605","img/land3.png","76","928.7000000178814","3","1","3","2","1,0.5,0.5,0.5,1,0.5,0.5,0.5,1","1,0.5,0.5,0.5,1,0.5,0.5,0.5,1","","",""
"","html-keyboard-response","231","403789","0.0-231.0","3NOKK93PR2U9W7BZET2CV6TJQA4EEN","A3MYPYBVHX7FQ2","3IH9TRB0FBLK6RLF7MSMKICTMWW1I5","","null","<img src=""img/land3.png"" style=""width:200px; border:14px solid green;"">","null","","","","","","","","","",""
"","image-keyboard-response","232","404935","0.0-232.0","3NOKK93PR2U9W7BZET2CV6TJQA4EEN","A3MYPYBVHX7FQ2","3IH9TRB0FBLK6RLF7MSMKICTMWW1I5","","1144.800000011921","img/land1.png","74","1145.800000011921","1","1","1","2","1,0.5,0.5,0.5,1,0.5,0.5,0.5,1","1,0.5,0.5,0.5,1,0.5,0.5,0.5,1","","",""
"","html-keyboard-response","233","405238","0.0-233.0","3NOKK93PR2U9W7BZET2CV6TJQA4EEN","A3MYPYBVHX7FQ2","3IH9TRB0FBLK6RLF7MSMKICTMWW1I5","","null","<img src=""img/land1.png"" style=""width:200px; border:14px solid green;"">","null","","","","","","","","","",""
"","image-keyboard-response","234","405974","0.0-234.0","3NOKK93PR2U9W7BZET2CV6TJQA4EEN","A3MYPYBVHX7FQ2","3IH9TRB0FBLK6RLF7MSMKICTMWW1I5","","735.4000000059605","img/land3.png","76","736.8000000119209","3","1","3","2","1,0.5,0.5,0.5,1,0.5,0.5,0.5,1","1,0.5,0.5,0.5,1,0.5,0.5,0.5,1","","",""
"","html-keyboard-response","235","406277","0.0-235.0","3NOKK93PR2U9W7BZET2CV6TJQA4EEN","A3MYPYBVHX7FQ2","3IH9TRB0FBLK6RLF7MSMKICTMWW1I5","","null","<img src=""img/land3.png"" style=""width:200px; border:14px solid green;"">","null","","","","","","","","","",""
"","image-keyboard-response","236","406854","0.0-236.0","3NOKK93PR2U9W7BZET2CV6TJQA4EEN","A3MYPYBVHX7FQ2","3IH9TRB0FBLK6RLF7MSMKICTMWW1I5","","575.6999999880791","img/land3.png","76","576.8000000119209","3","1","3","2","1,0.5,0.5,0.5,1,0.5,0.5,0.5,1","1,0.5,0.5,0.5,1,0.5,0.5,0.5,1","","",""
"","html-keyboard-response","237","407156","0.0-237.0","3NOKK93PR2U9W7BZET2CV6TJQA4EEN","A3MYPYBVHX7FQ2","3IH9TRB0FBLK6RLF7MSMKICTMWW1I5","","null","<img src=""img/land3.png"" style=""width:200px; border:14px solid green;"">","null","","","","","","","","","",""
"","image-keyboard-response","238","407727","0.0-238.0","3NOKK93PR2U9W7BZET2CV6TJQA4EEN","A3MYPYBVHX7FQ2","3IH9TRB0FBLK6RLF7MSMKICTMWW1I5","","569.5","img/land1.png","74","570.4000000059605","1","1","1","2","1,0.5,0.5,0.5,1,0.5,0.5,0.5,1","1,0.5,0.5,0.5,1,0.5,0.5,0.5,1","","",""
"","html-keyboard-response","239","408030","0.0-239.0","3NOKK93PR2U9W7BZET2CV6TJQA4EEN","A3MYPYBVHX7FQ2","3IH9TRB0FBLK6RLF7MSMKICTMWW1I5","","null","<img src=""img/land1.png"" style=""width:200px; border:14px solid green;"">","null","","","","","","","","","",""
"","image-keyboard-response","240","408870","0.0-240.0","3NOKK93PR2U9W7BZET2CV6TJQA4EEN","A3MYPYBVHX7FQ2","3IH9TRB0FBLK6RLF7MSMKICTMWW1I5","","838.5","img/land2.png","75","839.5999999940395","2","1","2","2","1,0.5,0.5,0.5,1,0.5,0.5,0.5,1","1,0.5,0.5,0.5,1,0.5,0.5,0.5,1","","",""
"","html-keyboard-response","241","409171","0.0-241.0","3NOKK93PR2U9W7BZET2CV6TJQA4EEN","A3MYPYBVHX7FQ2","3IH9TRB0FBLK6RLF7MSMKICTMWW1I5","","null","<img src=""img/land2.png"" style=""width:200px; border:14px solid green;"">","null","","","","","","","","","",""
"","image-keyboard-response","242","409790","0.0-242.0","3NOKK93PR2U9W7BZET2CV6TJQA4EEN","A3MYPYBVHX7FQ2","3IH9TRB0FBLK6RLF7MSMKICTMWW1I5","","617.5999999940395","img/land3.png","76","618.4000000059605","3","1","3","2","1,0.5,0.5,0.5,1,0.5,0.5,0.5,1","1,0.5,0.5,0.5,1,0.5,0.5,0.5,1","","",""
"","html-keyboard-response","243","410092","0.0-243.0","3NOKK93PR2U9W7BZET2CV6TJQA4EEN","A3MYPYBVHX7FQ2","3IH9TRB0FBLK6RLF7MSMKICTMWW1I5","","null","<img src=""img/land3.png"" style=""width:200px; border:14px solid green;"">","null","","","","","","","","","",""
"","image-keyboard-response","244","410606","0.0-244.0","3NOKK93PR2U9W7BZET2CV6TJQA4EEN","A3MYPYBVHX7FQ2","3IH9TRB0FBLK6RLF7MSMKICTMWW1I5","","513.0999999940395","img/land3.png","76","514.0999999940395","3","1","3","2","1,0.5,0.5,0.5,1,0.5,0.5,0.5,1","1,0.5,0.5,0.5,1,0.5,0.5,0.5,1","","",""
"","html-keyboard-response","245","410909","0.0-245.0","3NOKK93PR2U9W7BZET2CV6TJQA4EEN","A3MYPYBVHX7FQ2","3IH9TRB0FBLK6RLF7MSMKICTMWW1I5","","null","<img src=""img/land3.png"" style=""width:200px; border:14px solid green;"">","null","","","","","","","","","",""
"","image-keyboard-response","246","411750","0.0-246.0","3NOKK93PR2U9W7BZET2CV6TJQA4EEN","A3MYPYBVHX7FQ2","3IH9TRB0FBLK6RLF7MSMKICTMWW1I5","","839.5","img/land1.png","74","840.9000000059605","1","1","1","2","1,0.5,0.5,0.5,1,0.5,0.5,0.5,1","1,0.5,0.5,0.5,1,0.5,0.5,0.5,1","","",""
"","html-keyboard-response","247","412059","0.0-247.0","3NOKK93PR2U9W7BZET2CV6TJQA4EEN","A3MYPYBVHX7FQ2","3IH9TRB0FBLK6RLF7MSMKICTMWW1I5","","null","<img src=""img/land1.png"" style=""width:200px; border:14px solid green;"">","null","","","","","","","","","",""
"","image-keyboard-response","248","412647","0.0-248.0","3NOKK93PR2U9W7BZET2CV6TJQA4EEN","A3MYPYBVHX7FQ2","3IH9TRB0FBLK6RLF7MSMKICTMWW1I5","","586.8000000119209","img/land1.png","74","588","1","1","1","2","1,0.5,0.5,0.5,1,0.5,0.5,0.5,1","1,0.5,0.5,0.5,1,0.5,0.5,0.5,1","","",""
"","html-keyboard-response","249","412949","0.0-249.0","3NOKK93PR2U9W7BZET2CV6TJQA4EEN","A3MYPYBVHX7FQ2","3IH9TRB0FBLK6RLF7MSMKICTMWW1I5","","null","<img src=""img/land1.png"" style=""width:200px; border:14px solid green;"">","null","","","","","","","","","",""
"","image-keyboard-response","250","413631","0.0-250.0","3NOKK93PR2U9W7BZET2CV6TJQA4EEN","A3MYPYBVHX7FQ2","3IH9TRB0FBLK6RLF7MSMKICTMWW1I5","","680.4000000059605","img/land3.png","76","681.5","3","1","3","2","1,0.5,0.5,0.5,1,0.5,0.5,0.5,1","1,0.5,0.5,0.5,1,0.5,0.5,0.5,1","","",""
"","html-keyboard-response","251","413932","0.0-251.0","3NOKK93PR2U9W7BZET2CV6TJQA4EEN","A3MYPYBVHX7FQ2","3IH9TRB0FBLK6RLF7MSMKICTMWW1I5","","null","<img src=""img/land3.png"" style=""width:200px; border:14px solid green;"">","null","","","","","","","","","",""
"","image-keyboard-response","252","414695","0.0-252.0","3NOKK93PR2U9W7BZET2CV6TJQA4EEN","A3MYPYBVHX7FQ2","3IH9TRB0FBLK6RLF7MSMKICTMWW1I5","","761.4000000059605","img/land1.png","74","762.4000000059605","1","1","1","2","1,0.5,0.5,0.5,1,0.5,0.5,0.5,1","1,0.5,0.5,0.5,1,0.5,0.5,0.5,1","","",""
"","html-keyboard-response","253","414997","0.0-253.0","3NOKK93PR2U9W7BZET2CV6TJQA4EEN","A3MYPYBVHX7FQ2","3IH9TRB0FBLK6RLF7MSMKICTMWW1I5","","null","<img src=""img/land1.png"" style=""width:200px; border:14px solid green;"">","null","","","","","","","","","",""
"","image-keyboard-response","254","415695","0.0-254.0","3NOKK93PR2U9W7BZET2CV6TJQA4EEN","A3MYPYBVHX7FQ2","3IH9TRB0FBLK6RLF7MSMKICTMWW1I5","","697","img/land2.png","75","698.2000000178814","2","1","2","2","1,0.5,0.5,0.5,1,0.5,0.5,0.5,1","1,0.5,0.5,0.5,1,0.5,0.5,0.5,1","","",""
"","html-keyboard-response","255","415998","0.0-255.0","3NOKK93PR2U9W7BZET2CV6TJQA4EEN","A3MYPYBVHX7FQ2","3IH9TRB0FBLK6RLF7MSMKICTMWW1I5","","null","<img src=""img/land2.png"" style=""width:200px; border:14px solid green;"">","null","","","","","","","","","",""
"","image-keyboard-response","256","416718","0.0-256.0","3NOKK93PR2U9W7BZET2CV6TJQA4EEN","A3MYPYBVHX7FQ2","3IH9TRB0FBLK6RLF7MSMKICTMWW1I5","","719.0999999940395","img/land3.png","76","720.0999999940395","3","1","3","2","1,0.5,0.5,0.5,1,0.5,0.5,0.5,1","1,0.5,0.5,0.5,1,0.5,0.5,0.5,1","","",""
"","html-keyboard-response","257","417020","0.0-257.0","3NOKK93PR2U9W7BZET2CV6TJQA4EEN","A3MYPYBVHX7FQ2","3IH9TRB0FBLK6RLF7MSMKICTMWW1I5","","null","<img src=""img/land3.png"" style=""width:200px; border:14px solid green;"">","null","","","","","","","","","",""
"","image-keyboard-response","258","417615","0.0-258.0","3NOKK93PR2U9W7BZET2CV6TJQA4EEN","A3MYPYBVHX7FQ2","3IH9TRB0FBLK6RLF7MSMKICTMWW1I5","","593.5","img/land2.png","75","594.5","2","1","2","2","1,0.5,0.5,0.5,1,0.5,0.5,0.5,1","1,0.5,0.5,0.5,1,0.5,0.5,0.5,1","","",""
"","html-keyboard-response","259","417918","0.0-259.0","3NOKK93PR2U9W7BZET2CV6TJQA4EEN","A3MYPYBVHX7FQ2","3IH9TRB0FBLK6RLF7MSMKICTMWW1I5","","null","<img src=""img/land2.png"" style=""width:200px; border:14px solid green;"">","null","","","","","","","","","",""
"","image-keyboard-response","260","418463","0.0-260.0","3NOKK93PR2U9W7BZET2CV6TJQA4EEN","A3MYPYBVHX7FQ2","3IH9TRB0FBLK6RLF7MSMKICTMWW1I5","","543.4000000059605","img/land1.png","74","544.7000000178814","1","1","1","2","1,0.5,0.5,0.5,1,0.5,0.5,0.5,1","1,0.5,0.5,0.5,1,0.5,0.5,0.5,1","","",""
"","html-keyboard-response","261","418765","0.0-261.0","3NOKK93PR2U9W7BZET2CV6TJQA4EEN","A3MYPYBVHX7FQ2","3IH9TRB0FBLK6RLF7MSMKICTMWW1I5","","null","<img src=""img/land1.png"" style=""width:200px; border:14px solid green;"">","null","","","","","","","","","",""
"","image-keyboard-response","262","419286","0.0-262.0","3NOKK93PR2U9W7BZET2CV6TJQA4EEN","A3MYPYBVHX7FQ2","3IH9TRB0FBLK6RLF7MSMKICTMWW1I5","","520.8999999761581","img/land1.png","74","521.5","1","1","1","2","1,0.5,0.5,0.5,1,0.5,0.5,0.5,1","1,0.5,0.5,0.5,1,0.5,0.5,0.5,1","","",""
"","html-keyboard-response","263","419587","0.0-263.0","3NOKK93PR2U9W7BZET2CV6TJQA4EEN","A3MYPYBVHX7FQ2","3IH9TRB0FBLK6RLF7MSMKICTMWW1I5","","null","<img src=""img/land1.png"" style=""width:200px; border:14px solid green;"">","null","","","","","","","","","",""
"","image-keyboard-response","264","420070","0.0-264.0","3NOKK93PR2U9W7BZET2CV6TJQA4EEN","A3MYPYBVHX7FQ2","3IH9TRB0FBLK6RLF7MSMKICTMWW1I5","","481.80000001192093","img/land1.png","74","483","1","1","1","2","1,0.5,0.5,0.5,1,0.5,0.5,0.5,1","1,0.5,0.5,0.5,1,0.5,0.5,0.5,1","","",""
"","html-keyboard-response","265","420373","0.0-265.0","3NOKK93PR2U9W7BZET2CV6TJQA4EEN","A3MYPYBVHX7FQ2","3IH9TRB0FBLK6RLF7MSMKICTMWW1I5","","null","<img src=""img/land1.png"" style=""width:200px; border:14px solid green;"">","null","","","","","","","","","",""
"","image-keyboard-response","266","420807","0.0-266.0","3NOKK93PR2U9W7BZET2CV6TJQA4EEN","A3MYPYBVHX7FQ2","3IH9TRB0FBLK6RLF7MSMKICTMWW1I5","","433.09999999403954","img/land1.png","74","434.2000000178814","1","1","1","2","1,0.5,0.5,0.5,1,0.5,0.5,0.5,1","1,0.5,0.5,0.5,1,0.5,0.5,0.5,1","","",""
"","html-keyboard-response","267","421109","0.0-267.0","3NOKK93PR2U9W7BZET2CV6TJQA4EEN","A3MYPYBVHX7FQ2","3IH9TRB0FBLK6RLF7MSMKICTMWW1I5","","null","<img src=""img/land1.png"" style=""width:200px; border:14px solid green;"">","null","","","","","","","","","",""
"","image-keyboard-response","268","421510","0.0-268.0","3NOKK93PR2U9W7BZET2CV6TJQA4EEN","A3MYPYBVHX7FQ2","3IH9TRB0FBLK6RLF7MSMKICTMWW1I5","","400.2000000178814","img/land1.png","74","401.19999998807907","1","1","1","2","1,0.5,0.5,0.5,1,0.5,0.5,0.5,1","1,0.5,0.5,0.5,1,0.5,0.5,0.5,1","","",""
"","html-keyboard-response","269","421813","0.0-269.0","3NOKK93PR2U9W7BZET2CV6TJQA4EEN","A3MYPYBVHX7FQ2","3IH9TRB0FBLK6RLF7MSMKICTMWW1I5","","null","<img src=""img/land1.png"" style=""width:200px; border:14px solid green;"">","null","","","","","","","","","",""
"","image-keyboard-response","270","422695","0.0-270.0","3NOKK93PR2U9W7BZET2CV6TJQA4EEN","A3MYPYBVHX7FQ2","3IH9TRB0FBLK6RLF7MSMKICTMWW1I5","","880.7999999821186","img/land2.png","75","881.5999999940395","2","1","2","2","1,0.5,0.5,0.5,1,0.5,0.5,0.5,1","1,0.5,0.5,0.5,1,0.5,0.5,0.5,1","","",""
"","html-keyboard-response","271","422998","0.0-271.0","3NOKK93PR2U9W7BZET2CV6TJQA4EEN","A3MYPYBVHX7FQ2","3IH9TRB0FBLK6RLF7MSMKICTMWW1I5","","null","<img src=""img/land2.png"" style=""width:200px; border:14px solid green;"">","null","","","","","","","","","",""
"","image-keyboard-response","272","423438","0.0-272.0","3NOKK93PR2U9W7BZET2CV6TJQA4EEN","A3MYPYBVHX7FQ2","3IH9TRB0FBLK6RLF7MSMKICTMWW1I5","","439.19999998807907","img/land2.png","75","440.2000000178814","2","1","2","2","1,0.5,0.5,0.5,1,0.5,0.5,0.5,1","1,0.5,0.5,0.5,1,0.5,0.5,0.5,1","","",""
"","html-keyboard-response","273","423741","0.0-273.0","3NOKK93PR2U9W7BZET2CV6TJQA4EEN","A3MYPYBVHX7FQ2","3IH9TRB0FBLK6RLF7MSMKICTMWW1I5","","null","<img src=""img/land2.png"" style=""width:200px; border:14px solid green;"">","null","","","","","","","","","",""
"","image-keyboard-response","274","425014","0.0-274.0","3NOKK93PR2U9W7BZET2CV6TJQA4EEN","A3MYPYBVHX7FQ2","3IH9TRB0FBLK6RLF7MSMKICTMWW1I5","","1272","img/land3.png","76","1273","3","1","3","2","1,0.5,0.5,0.5,1,0.5,0.5,0.5,1","1,0.5,0.5,0.5,1,0.5,0.5,0.5,1","","",""
"","html-keyboard-response","275","425316","0.0-275.0","3NOKK93PR2U9W7BZET2CV6TJQA4EEN","A3MYPYBVHX7FQ2","3IH9TRB0FBLK6RLF7MSMKICTMWW1I5","","null","<img src=""img/land3.png"" style=""width:200px; border:14px solid green;"">","null","","","","","","","","","",""
"","image-keyboard-response","276","425758","0.0-276.0","3NOKK93PR2U9W7BZET2CV6TJQA4EEN","A3MYPYBVHX7FQ2","3IH9TRB0FBLK6RLF7MSMKICTMWW1I5","","441.59999999403954","img/land3.png","76","442.2999999821186","3","1","3","2","1,0.5,0.5,0.5,1,0.5,0.5,0.5,1","1,0.5,0.5,0.5,1,0.5,0.5,0.5,1","","",""
"","html-keyboard-response","277","426061","0.0-277.0","3NOKK93PR2U9W7BZET2CV6TJQA4EEN","A3MYPYBVHX7FQ2","3IH9TRB0FBLK6RLF7MSMKICTMWW1I5","","null","<img src=""img/land3.png"" style=""width:200px; border:14px solid green;"">","null","","","","","","","","","",""
"","image-keyboard-response","278","426790","0.0-278.0","3NOKK93PR2U9W7BZET2CV6TJQA4EEN","A3MYPYBVHX7FQ2","3IH9TRB0FBLK6RLF7MSMKICTMWW1I5","","728.0999999940395","img/land1.png","74","728.9000000059605","1","1","1","2","1,0.5,0.5,0.5,1,0.5,0.5,0.5,1","1,0.5,0.5,0.5,1,0.5,0.5,0.5,1","","",""
"","html-keyboard-response","279","427093","0.0-279.0","3NOKK93PR2U9W7BZET2CV6TJQA4EEN","A3MYPYBVHX7FQ2","3IH9TRB0FBLK6RLF7MSMKICTMWW1I5","","null","<img src=""img/land1.png"" style=""width:200px; border:14px solid green;"">","null","","","","","","","","","",""
"","image-keyboard-response","280","427830","0.0-280.0","3NOKK93PR2U9W7BZET2CV6TJQA4EEN","A3MYPYBVHX7FQ2","3IH9TRB0FBLK6RLF7MSMKICTMWW1I5","","735.9000000059605","img/land3.png","76","736.7999999821186","3","1","3","2","1,0.5,0.5,0.5,1,0.5,0.5,0.5,1","1,0.5,0.5,0.5,1,0.5,0.5,0.5,1","","",""
"","html-keyboard-response","281","428134","0.0-281.0","3NOKK93PR2U9W7BZET2CV6TJQA4EEN","A3MYPYBVHX7FQ2","3IH9TRB0FBLK6RLF7MSMKICTMWW1I5","","null","<img src=""img/land3.png"" style=""width:200px; border:14px solid green;"">","null","","","","","","","","","",""
"","image-keyboard-response","282","428679","0.0-282.0","3NOKK93PR2U9W7BZET2CV6TJQA4EEN","A3MYPYBVHX7FQ2","3IH9TRB0FBLK6RLF7MSMKICTMWW1I5","","544.1999999880791","img/land3.png","76","544.9000000059605","3","1","3","2","1,0.5,0.5,0.5,1,0.5,0.5,0.5,1","1,0.5,0.5,0.5,1,0.5,0.5,0.5,1","","",""
"","html-keyboard-response","283","428982","0.0-283.0","3NOKK93PR2U9W7BZET2CV6TJQA4EEN","A3MYPYBVHX7FQ2","3IH9TRB0FBLK6RLF7MSMKICTMWW1I5","","null","<img src=""img/land3.png"" style=""width:200px; border:14px solid green;"">","null","","","","","","","","","",""
"","image-keyboard-response","284","429582","0.0-284.0","3NOKK93PR2U9W7BZET2CV6TJQA4EEN","A3MYPYBVHX7FQ2","3IH9TRB0FBLK6RLF7MSMKICTMWW1I5","","599.5","img/land1.png","74","600.5","1","1","1","2","1,0.5,0.5,0.5,1,0.5,0.5,0.5,1","1,0.5,0.5,0.5,1,0.5,0.5,0.5,1","","",""
"","html-keyboard-response","285","429884","0.0-285.0","3NOKK93PR2U9W7BZET2CV6TJQA4EEN","A3MYPYBVHX7FQ2","3IH9TRB0FBLK6RLF7MSMKICTMWW1I5","","null","<img src=""img/land1.png"" style=""width:200px; border:14px solid green;"">","null","","","","","","","","","",""
"","image-keyboard-response","286","430454","0.0-286.0","3NOKK93PR2U9W7BZET2CV6TJQA4EEN","A3MYPYBVHX7FQ2","3IH9TRB0FBLK6RLF7MSMKICTMWW1I5","","569.3000000119209","img/land3.png","76","570.2999999821186","3","1","3","2","1,0.5,0.5,0.5,1,0.5,0.5,0.5,1","1,0.5,0.5,0.5,1,0.5,0.5,0.5,1","","",""
"","html-keyboard-response","287","430756","0.0-287.0","3NOKK93PR2U9W7BZET2CV6TJQA4EEN","A3MYPYBVHX7FQ2","3IH9TRB0FBLK6RLF7MSMKICTMWW1I5","","null","<img src=""img/land3.png"" style=""width:200px; border:14px solid green;"">","null","","","","","","","","","",""
"","image-keyboard-response","288","431486","0.0-288.0","3NOKK93PR2U9W7BZET2CV6TJQA4EEN","A3MYPYBVHX7FQ2","3IH9TRB0FBLK6RLF7MSMKICTMWW1I5","","728.8000000119209","img/land1.png","74","729.7999999821186","1","1","1","2","1,0.5,0.5,0.5,1,0.5,0.5,0.5,1","1,0.5,0.5,0.5,1,0.5,0.5,0.5,1","","",""
"","html-keyboard-response","289","431788","0.0-289.0","3NOKK93PR2U9W7BZET2CV6TJQA4EEN","A3MYPYBVHX7FQ2","3IH9TRB0FBLK6RLF7MSMKICTMWW1I5","","null","<img src=""img/land1.png"" style=""width:200px; border:14px solid green;"">","null","","","","","","","","","",""
"","image-keyboard-response","290","432358","0.0-290.0","3NOKK93PR2U9W7BZET2CV6TJQA4EEN","A3MYPYBVHX7FQ2","3IH9TRB0FBLK6RLF7MSMKICTMWW1I5","","568.6999999880791","img/land3.png","76","569.7999999821186","3","1","3","2","1,0.5,0.5,0.5,1,0.5,0.5,0.5,1","1,0.5,0.5,0.5,1,0.5,0.5,0.5,1","","",""
"","html-keyboard-response","291","432661","0.0-291.0","3NOKK93PR2U9W7BZET2CV6TJQA4EEN","A3MYPYBVHX7FQ2","3IH9TRB0FBLK6RLF7MSMKICTMWW1I5","","null","<img src=""img/land3.png"" style=""width:200px; border:14px solid green;"">","null","","","","","","","","","",""
"","image-keyboard-response","292","433158","0.0-292.0","3NOKK93PR2U9W7BZET2CV6TJQA4EEN","A3MYPYBVHX7FQ2","3IH9TRB0FBLK6RLF7MSMKICTMWW1I5","","496.30000001192093","img/land3.png","76","497.80000001192093","3","1","3","2","1,0.5,0.5,0.5,1,0.5,0.5,0.5,1","1,0.5,0.5,0.5,1,0.5,0.5,0.5,1","","",""
"","html-keyboard-response","293","433461","0.0-293.0","3NOKK93PR2U9W7BZET2CV6TJQA4EEN","A3MYPYBVHX7FQ2","3IH9TRB0FBLK6RLF7MSMKICTMWW1I5","","null","<img src=""img/land3.png"" style=""width:200px; border:14px solid green;"">","null","","","","","","","","","",""
"","image-keyboard-response","294","433887","0.0-294.0","3NOKK93PR2U9W7BZET2CV6TJQA4EEN","A3MYPYBVHX7FQ2","3IH9TRB0FBLK6RLF7MSMKICTMWW1I5","","423.69999998807907","img/land3.png","76","425","3","1","3","2","1,0.5,0.5,0.5,1,0.5,0.5,0.5,1","1,0.5,0.5,0.5,1,0.5,0.5,0.5,1","","",""
"","html-keyboard-response","295","434189","0.0-295.0","3NOKK93PR2U9W7BZET2CV6TJQA4EEN","A3MYPYBVHX7FQ2","3IH9TRB0FBLK6RLF7MSMKICTMWW1I5","","null","<img src=""img/land3.png"" style=""width:200px; border:14px solid green;"">","null","","","","","","","","","",""
"","image-keyboard-response","296","434574","0.0-296.0","3NOKK93PR2U9W7BZET2CV6TJQA4EEN","A3MYPYBVHX7FQ2","3IH9TRB0FBLK6RLF7MSMKICTMWW1I5","","384.7000000178814","img/land3.png","76","385.69999998807907","3","1","3","2","1,0.5,0.5,0.5,1,0.5,0.5,0.5,1","1,0.5,0.5,0.5,1,0.5,0.5,0.5,1","","",""
"","html-keyboard-response","297","434877","0.0-297.0","3NOKK93PR2U9W7BZET2CV6TJQA4EEN","A3MYPYBVHX7FQ2","3IH9TRB0FBLK6RLF7MSMKICTMWW1I5","","null","<img src=""img/land3.png"" style=""width:200px; border:14px solid green;"">","null","","","","","","","","","",""
"","image-keyboard-response","298","435791","0.0-298.0","3NOKK93PR2U9W7BZET2CV6TJQA4EEN","A3MYPYBVHX7FQ2","3IH9TRB0FBLK6RLF7MSMKICTMWW1I5","","912.1999999880791","img/land2.png","75","913.0999999940395","2","1","2","2","1,0.5,0.5,0.5,1,0.5,0.5,0.5,1","1,0.5,0.5,0.5,1,0.5,0.5,0.5,1","","",""
"","html-keyboard-response","299","436094","0.0-299.0","3NOKK93PR2U9W7BZET2CV6TJQA4EEN","A3MYPYBVHX7FQ2","3IH9TRB0FBLK6RLF7MSMKICTMWW1I5","","null","<img src=""img/land2.png"" style=""width:200px; border:14px solid green;"">","null","","","","","","","","","",""
"","image-keyboard-response","300","436470","0.0-300.0","3NOKK93PR2U9W7BZET2CV6TJQA4EEN","A3MYPYBVHX7FQ2","3IH9TRB0FBLK6RLF7MSMKICTMWW1I5","","375","img/land3.png","75","376.09999999403954","2","0","3","2","1,0.5,0.5,0.5,1,0.5,0.5,0.5,1","1,0.5,0.5,0.5,1,0.5,0.5,0.5,1","","",""
"","html-keyboard-response","301","436772","0.0-301.0","3NOKK93PR2U9W7BZET2CV6TJQA4EEN","A3MYPYBVHX7FQ2","3IH9TRB0FBLK6RLF7MSMKICTMWW1I5","","null","<img src=""img/land3.png"" style=""width:200px;border:14px solid red;"">","null","","","","","","","","","",""
"","html-keyboard-response","302","439337","0.0-302.0","3NOKK93PR2U9W7BZET2CV6TJQA4EEN","A3MYPYBVHX7FQ2","3IH9TRB0FBLK6RLF7MSMKICTMWW1I5","","","","","","","","","","","","","",""
"","image-keyboard-response","303","440852","0.0-303.0","3NOKK93PR2U9W7BZET2CV6TJQA4EEN","A3MYPYBVHX7FQ2","3IH9TRB0FBLK6RLF7MSMKICTMWW1I5","","","img/land5.png","","1514.699999988079","-1","0","2","2","1,0.5,0.5,0.5,1,0.5,0.5,0.5,1","1,0.5,0.5,0.5,1,0.5,0.5,0.5,1","","",""
"","html-keyboard-response","304","441155","0.0-304.0","3NOKK93PR2U9W7BZET2CV6TJQA4EEN","A3MYPYBVHX7FQ2","3IH9TRB0FBLK6RLF7MSMKICTMWW1I5","","null","<img src=""img/land5.png"" style=""width:200px;border:14px solid red;"">","null","","","","","","","","","",""
"","image-keyboard-response","305","442111","0.0-305.0","3NOKK93PR2U9W7BZET2CV6TJQA4EEN","A3MYPYBVHX7FQ2","3IH9TRB0FBLK6RLF7MSMKICTMWW1I5","","955","img/land5.png","75","956.1999999880791","2","1","2","2","1,0.5,0.5,0.5,1,0.5,0.5,0.5,1","1,0.5,0.5,0.5,1,0.5,0.5,0.5,1","","",""
"","html-keyboard-response","306","442414","0.0-306.0","3NOKK93PR2U9W7BZET2CV6TJQA4EEN","A3MYPYBVHX7FQ2","3IH9TRB0FBLK6RLF7MSMKICTMWW1I5","","null","<img src=""img/land5.png"" style=""width:200px; border:14px solid green;"">","null","","","","","","","","","",""
"","image-keyboard-response","307","443022","0.0-307.0","3NOKK93PR2U9W7BZET2CV6TJQA4EEN","A3MYPYBVHX7FQ2","3IH9TRB0FBLK6RLF7MSMKICTMWW1I5","","607.5","img/land5.png","75","608.4000000059605","2","1","2","2","1,0.5,0.5,0.5,1,0.5,0.5,0.5,1","1,0.5,0.5,0.5,1,0.5,0.5,0.5,1","","",""
"","html-keyboard-response","308","443325","0.0-308.0","3NOKK93PR2U9W7BZET2CV6TJQA4EEN","A3MYPYBVHX7FQ2","3IH9TRB0FBLK6RLF7MSMKICTMWW1I5","","null","<img src=""img/land5.png"" style=""width:200px; border:14px solid green;"">","null","","","","","","","","","",""
"","image-keyboard-response","309","444166","0.0-309.0","3NOKK93PR2U9W7BZET2CV6TJQA4EEN","A3MYPYBVHX7FQ2","3IH9TRB0FBLK6RLF7MSMKICTMWW1I5","","839.9000000059605","img/land6.png","76","840.7000000178814","3","1","3","2","1,0.5,0.5,0.5,1,0.5,0.5,0.5,1","1,0.5,0.5,0.5,1,0.5,0.5,0.5,1","","",""
"","html-keyboard-response","310","444468","0.0-310.0","3NOKK93PR2U9W7BZET2CV6TJQA4EEN","A3MYPYBVHX7FQ2","3IH9TRB0FBLK6RLF7MSMKICTMWW1I5","","null","<img src=""img/land6.png"" style=""width:200px; border:14px solid green;"">","null","","","","","","","","","",""
"","image-keyboard-response","311","445279","0.0-311.0","3NOKK93PR2U9W7BZET2CV6TJQA4EEN","A3MYPYBVHX7FQ2","3IH9TRB0FBLK6RLF7MSMKICTMWW1I5","","809.3999999761581","img/land5.png","75","810.2999999821186","2","1","2","2","1,0.5,0.5,0.5,1,0.5,0.5,0.5,1","1,0.5,0.5,0.5,1,0.5,0.5,0.5,1","","",""
"","html-keyboard-response","312","445581","0.0-312.0","3NOKK93PR2U9W7BZET2CV6TJQA4EEN","A3MYPYBVHX7FQ2","3IH9TRB0FBLK6RLF7MSMKICTMWW1I5","","null","<img src=""img/land5.png"" style=""width:200px; border:14px solid green;"">","null","","","","","","","","","",""
"","image-keyboard-response","313","446111","0.0-313.0","3NOKK93PR2U9W7BZET2CV6TJQA4EEN","A3MYPYBVHX7FQ2","3IH9TRB0FBLK6RLF7MSMKICTMWW1I5","","528.9000000059605","img/land6.png","76","530.1000000238419","3","1","3","2","1,0.5,0.5,0.5,1,0.5,0.5,0.5,1","1,0.5,0.5,0.5,1,0.5,0.5,0.5,1","","",""
"","html-keyboard-response","314","446416","0.0-314.0","3NOKK93PR2U9W7BZET2CV6TJQA4EEN","A3MYPYBVHX7FQ2","3IH9TRB0FBLK6RLF7MSMKICTMWW1I5","","null","<img src=""img/land6.png"" style=""width:200px; border:14px solid green;"">","null","","","","","","","","","",""
"","image-keyboard-response","315","447272","0.0-315.0","3NOKK93PR2U9W7BZET2CV6TJQA4EEN","A3MYPYBVHX7FQ2","3IH9TRB0FBLK6RLF7MSMKICTMWW1I5","","854.0999999940395","img/land4.png","74","855.6999999880791","1","1","1","2","1,0.5,0.5,0.5,1,0.5,0.5,0.5,1","1,0.5,0.5,0.5,1,0.5,0.5,0.5,1","","",""
"","html-keyboard-response","316","447575","0.0-316.0","3NOKK93PR2U9W7BZET2CV6TJQA4EEN","A3MYPYBVHX7FQ2","3IH9TRB0FBLK6RLF7MSMKICTMWW1I5","","null","<img src=""img/land4.png"" style=""width:200px; border:14px solid green;"">","null","","","","","","","","","",""
"","image-keyboard-response","317","448222","0.0-317.0","3NOKK93PR2U9W7BZET2CV6TJQA4EEN","A3MYPYBVHX7FQ2","3IH9TRB0FBLK6RLF7MSMKICTMWW1I5","","646.0999999940395","img/land4.png","74","647.1999999880791","1","1","1","2","1,0.5,0.5,0.5,1,0.5,0.5,0.5,1","1,0.5,0.5,0.5,1,0.5,0.5,0.5,1","","",""
"","html-keyboard-response","318","448525","0.0-318.0","3NOKK93PR2U9W7BZET2CV6TJQA4EEN","A3MYPYBVHX7FQ2","3IH9TRB0FBLK6RLF7MSMKICTMWW1I5","","null","<img src=""img/land4.png"" style=""width:200px; border:14px solid green;"">","null","","","","","","","","","",""
"","image-keyboard-response","319","449182","0.0-319.0","3NOKK93PR2U9W7BZET2CV6TJQA4EEN","A3MYPYBVHX7FQ2","3IH9TRB0FBLK6RLF7MSMKICTMWW1I5","","655.5999999940395","img/land6.png","75","656.8000000119209","2","1","3","2","1,0.5,0.5,0.5,1,0.5,0.5,0.5,1","1,0.5,0.5,0.5,1,0.5,0.5,0.5,1","","",""
"","html-keyboard-response","320","449485","0.0-320.0","3NOKK93PR2U9W7BZET2CV6TJQA4EEN","A3MYPYBVHX7FQ2","3IH9TRB0FBLK6RLF7MSMKICTMWW1I5","","null","<img src=""img/land6.png"" style=""width:200px; border:14px solid green;"">","null","","","","","","","","","",""
"","image-keyboard-response","321","450246","0.0-321.0","3NOKK93PR2U9W7BZET2CV6TJQA4EEN","A3MYPYBVHX7FQ2","3IH9TRB0FBLK6RLF7MSMKICTMWW1I5","","760.1999999880791","img/land5.png","76","760.9000000059605","3","0","2","2","1,0.5,0.5,0.5,1,0.5,0.5,0.5,1","1,0.5,0.5,0.5,1,0.5,0.5,0.5,1","","",""
"","html-keyboard-response","322","450549","0.0-322.0","3NOKK93PR2U9W7BZET2CV6TJQA4EEN","A3MYPYBVHX7FQ2","3IH9TRB0FBLK6RLF7MSMKICTMWW1I5","","null","<img src=""img/land5.png"" style=""width:200px;border:14px solid red;"">","null","","","","","","","","","",""
"","image-keyboard-response","323","451774","0.0-323.0","3NOKK93PR2U9W7BZET2CV6TJQA4EEN","A3MYPYBVHX7FQ2","3IH9TRB0FBLK6RLF7MSMKICTMWW1I5","","1224","img/land4.png","76","1224.800000011921","3","1","1","2","1,0.5,0.5,0.5,1,0.5,0.5,0.5,1","1,0.5,0.5,0.5,1,0.5,0.5,0.5,1","","",""
"","html-keyboard-response","324","452076","0.0-324.0","3NOKK93PR2U9W7BZET2CV6TJQA4EEN","A3MYPYBVHX7FQ2","3IH9TRB0FBLK6RLF7MSMKICTMWW1I5","","null","<img src=""img/land4.png"" style=""width:200px; border:14px solid green;"">","null","","","","","","","","","",""
"","image-keyboard-response","325","452911","0.0-325.0","3NOKK93PR2U9W7BZET2CV6TJQA4EEN","A3MYPYBVHX7FQ2","3IH9TRB0FBLK6RLF7MSMKICTMWW1I5","","833.5","img/land6.png","75","834.7000000178814","2","0","3","2","1,0.5,0.5,0.5,1,0.5,0.5,0.5,1","1,0.5,0.5,0.5,1,0.5,0.5,0.5,1","","",""
"","html-keyboard-response","326","453213","0.0-326.0","3NOKK93PR2U9W7BZET2CV6TJQA4EEN","A3MYPYBVHX7FQ2","3IH9TRB0FBLK6RLF7MSMKICTMWW1I5","","null","<img src=""img/land6.png"" style=""width:200px;border:14px solid red;"">","null","","","","","","","","","",""
"","image-keyboard-response","327","453647","0.0-327.0","3NOKK93PR2U9W7BZET2CV6TJQA4EEN","A3MYPYBVHX7FQ2","3IH9TRB0FBLK6RLF7MSMKICTMWW1I5","","432.30000001192093","img/land6.png","75","433.30000001192093","2","0","3","2","1,0.5,0.5,0.5,1,0.5,0.5,0.5,1","1,0.5,0.5,0.5,1,0.5,0.5,0.5,1","","",""
"","html-keyboard-response","328","453959","0.0-328.0","3NOKK93PR2U9W7BZET2CV6TJQA4EEN","A3MYPYBVHX7FQ2","3IH9TRB0FBLK6RLF7MSMKICTMWW1I5","","null","<img src=""img/land6.png"" style=""width:200px;border:14px solid red;"">","null","","","","","","","","","",""
"","image-keyboard-response","329","454454","0.0-329.0","3NOKK93PR2U9W7BZET2CV6TJQA4EEN","A3MYPYBVHX7FQ2","3IH9TRB0FBLK6RLF7MSMKICTMWW1I5","","494.5","img/land6.png","76","495.5","3","1","3","2","1,0.5,0.5,0.5,1,0.5,0.5,0.5,1","1,0.5,0.5,0.5,1,0.5,0.5,0.5,1","","",""
"","html-keyboard-response","330","454756","0.0-330.0","3NOKK93PR2U9W7BZET2CV6TJQA4EEN","A3MYPYBVHX7FQ2","3IH9TRB0FBLK6RLF7MSMKICTMWW1I5","","null","<img src=""img/land6.png"" style=""width:200px; border:14px solid green;"">","null","","","","","","","","","",""
"","image-keyboard-response","331","455646","0.0-331.0","3NOKK93PR2U9W7BZET2CV6TJQA4EEN","A3MYPYBVHX7FQ2","3IH9TRB0FBLK6RLF7MSMKICTMWW1I5","","889.5","img/land5.png","75","890.0999999940395","2","1","2","2","1,0.5,0.5,0.5,1,0.5,0.5,0.5,1","1,0.5,0.5,0.5,1,0.5,0.5,0.5,1","","",""
"","html-keyboard-response","332","455949","0.0-332.0","3NOKK93PR2U9W7BZET2CV6TJQA4EEN","A3MYPYBVHX7FQ2","3IH9TRB0FBLK6RLF7MSMKICTMWW1I5","","null","<img src=""img/land5.png"" style=""width:200px; border:14px solid green;"">","null","","","","","","","","","",""
"","image-keyboard-response","333","456831","0.0-333.0","3NOKK93PR2U9W7BZET2CV6TJQA4EEN","A3MYPYBVHX7FQ2","3IH9TRB0FBLK6RLF7MSMKICTMWW1I5","","880.7999999821186","img/land4.png","74","881.8000000119209","1","1","1","2","1,0.5,0.5,0.5,1,0.5,0.5,0.5,1","1,0.5,0.5,0.5,1,0.5,0.5,0.5,1","","",""
"","html-keyboard-response","334","457133","0.0-334.0","3NOKK93PR2U9W7BZET2CV6TJQA4EEN","A3MYPYBVHX7FQ2","3IH9TRB0FBLK6RLF7MSMKICTMWW1I5","","null","<img src=""img/land4.png"" style=""width:200px; border:14px solid green;"">","null","","","","","","","","","",""
"","image-keyboard-response","335","457719","0.0-335.0","3NOKK93PR2U9W7BZET2CV6TJQA4EEN","A3MYPYBVHX7FQ2","3IH9TRB0FBLK6RLF7MSMKICTMWW1I5","","582.7999999821186","img/land4.png","74","583.9000000059605","1","1","1","2","1,0.5,0.5,0.5,1,0.5,0.5,0.5,1","1,0.5,0.5,0.5,1,0.5,0.5,0.5,1","","",""
"","html-keyboard-response","336","458020","0.0-336.0","3NOKK93PR2U9W7BZET2CV6TJQA4EEN","A3MYPYBVHX7FQ2","3IH9TRB0FBLK6RLF7MSMKICTMWW1I5","","null","<img src=""img/land4.png"" style=""width:200px; border:14px solid green;"">","null","","","","","","","","","",""
"","image-keyboard-response","337","458767","0.0-337.0","3NOKK93PR2U9W7BZET2CV6TJQA4EEN","A3MYPYBVHX7FQ2","3IH9TRB0FBLK6RLF7MSMKICTMWW1I5","","745.9000000059605","img/land5.png","75","747","2","1","2","2","1,0.5,0.5,0.5,1,0.5,0.5,0.5,1","1,0.5,0.5,0.5,1,0.5,0.5,0.5,1","","",""
"","html-keyboard-response","338","459070","0.0-338.0","3NOKK93PR2U9W7BZET2CV6TJQA4EEN","A3MYPYBVHX7FQ2","3IH9TRB0FBLK6RLF7MSMKICTMWW1I5","","null","<img src=""img/land5.png"" style=""width:200px; border:14px solid green;"">","null","","","","","","","","","",""
"","image-keyboard-response","339","459831","0.0-339.0","3NOKK93PR2U9W7BZET2CV6TJQA4EEN","A3MYPYBVHX7FQ2","3IH9TRB0FBLK6RLF7MSMKICTMWW1I5","","760.5","img/land4.png","74","761.1999999880791","1","1","1","2","1,0.5,0.5,0.5,1,0.5,0.5,0.5,1","1,0.5,0.5,0.5,1,0.5,0.5,0.5,1","","",""
"","html-keyboard-response","340","460134","0.0-340.0","3NOKK93PR2U9W7BZET2CV6TJQA4EEN","A3MYPYBVHX7FQ2","3IH9TRB0FBLK6RLF7MSMKICTMWW1I5","","null","<img src=""img/land4.png"" style=""width:200px; border:14px solid green;"">","null","","","","","","","","","",""
"","image-keyboard-response","341","460894","0.0-341.0","3NOKK93PR2U9W7BZET2CV6TJQA4EEN","A3MYPYBVHX7FQ2","3IH9TRB0FBLK6RLF7MSMKICTMWW1I5","","759","img/land6.png","76","759.9000000059605","3","1","3","2","1,0.5,0.5,0.5,1,0.5,0.5,0.5,1","1,0.5,0.5,0.5,1,0.5,0.5,0.5,1","","",""
"","html-keyboard-response","342","461197","0.0-342.0","3NOKK93PR2U9W7BZET2CV6TJQA4EEN","A3MYPYBVHX7FQ2","3IH9TRB0FBLK6RLF7MSMKICTMWW1I5","","null","<img src=""img/land6.png"" style=""width:200px; border:14px solid green;"">","null","","","","","","","","","",""
"","image-keyboard-response","343","461855","0.0-343.0","3NOKK93PR2U9W7BZET2CV6TJQA4EEN","A3MYPYBVHX7FQ2","3IH9TRB0FBLK6RLF7MSMKICTMWW1I5","","656.3000000119209","img/land6.png","76","657.5","3","1","3","2","1,0.5,0.5,0.5,1,0.5,0.5,0.5,1","1,0.5,0.5,0.5,1,0.5,0.5,0.5,1","","",""
"","html-keyboard-response","344","462157","0.0-344.0","3NOKK93PR2U9W7BZET2CV6TJQA4EEN","A3MYPYBVHX7FQ2","3IH9TRB0FBLK6RLF7MSMKICTMWW1I5","","null","<img src=""img/land6.png"" style=""width:200px; border:14px solid green;"">","null","","","","","","","","","",""
"","image-keyboard-response","345","463119","0.0-345.0","3NOKK93PR2U9W7BZET2CV6TJQA4EEN","A3MYPYBVHX7FQ2","3IH9TRB0FBLK6RLF7MSMKICTMWW1I5","","960.5999999940395","img/land4.png","74","961.5999999940395","1","1","1","2","1,0.5,0.5,0.5,1,0.5,0.5,0.5,1","1,0.5,0.5,0.5,1,0.5,0.5,0.5,1","","",""
"","html-keyboard-response","346","463421","0.0-346.0","3NOKK93PR2U9W7BZET2CV6TJQA4EEN","A3MYPYBVHX7FQ2","3IH9TRB0FBLK6RLF7MSMKICTMWW1I5","","null","<img src=""img/land4.png"" style=""width:200px; border:14px solid green;"">","null","","","","","","","","","",""
"","image-keyboard-response","347","464111","0.0-347.0","3NOKK93PR2U9W7BZET2CV6TJQA4EEN","A3MYPYBVHX7FQ2","3IH9TRB0FBLK6RLF7MSMKICTMWW1I5","","688.1999999880791","img/land6.png","75","689.3999999761581","2","1","3","2","1,0.5,0.5,0.5,1,0.5,0.5,0.5,1","1,0.5,0.5,0.5,1,0.5,0.5,0.5,1","","",""
"","html-keyboard-response","348","464414","0.0-348.0","3NOKK93PR2U9W7BZET2CV6TJQA4EEN","A3MYPYBVHX7FQ2","3IH9TRB0FBLK6RLF7MSMKICTMWW1I5","","null","<img src=""img/land6.png"" style=""width:200px; border:14px solid green;"">","null","","","","","","","","","",""
"","image-keyboard-response","349","465406","0.0-349.0","3NOKK93PR2U9W7BZET2CV6TJQA4EEN","A3MYPYBVHX7FQ2","3IH9TRB0FBLK6RLF7MSMKICTMWW1I5","","991","img/land4.png","74","992.4000000059605","1","1","1","2","1,0.5,0.5,0.5,1,0.5,0.5,0.5,1","1,0.5,0.5,0.5,1,0.5,0.5,0.5,1","","",""
"","html-keyboard-response","350","465708","0.0-350.0","3NOKK93PR2U9W7BZET2CV6TJQA4EEN","A3MYPYBVHX7FQ2","3IH9TRB0FBLK6RLF7MSMKICTMWW1I5","","null","<img src=""img/land4.png"" style=""width:200px; border:14px solid green;"">","null","","","","","","","","","",""
"","image-keyboard-response","351","466230","0.0-351.0","3NOKK93PR2U9W7BZET2CV6TJQA4EEN","A3MYPYBVHX7FQ2","3IH9TRB0FBLK6RLF7MSMKICTMWW1I5","","520.5","img/land4.png","74","521.8000000119209","1","1","1","2","1,0.5,0.5,0.5,1,0.5,0.5,0.5,1","1,0.5,0.5,0.5,1,0.5,0.5,0.5,1","","",""
"","html-keyboard-response","352","466532","0.0-352.0","3NOKK93PR2U9W7BZET2CV6TJQA4EEN","A3MYPYBVHX7FQ2","3IH9TRB0FBLK6RLF7MSMKICTMWW1I5","","null","<img src=""img/land4.png"" style=""width:200px; border:14px solid green;"">","null","","","","","","","","","",""
"","image-keyboard-response","353","467142","0.0-353.0","3NOKK93PR2U9W7BZET2CV6TJQA4EEN","A3MYPYBVHX7FQ2","3IH9TRB0FBLK6RLF7MSMKICTMWW1I5","","609.5","img/land6.png","75","610.3000000119209","2","1","3","2","1,0.5,0.5,0.5,1,0.5,0.5,0.5,1","1,0.5,0.5,0.5,1,0.5,0.5,0.5,1","","",""
"","html-keyboard-response","354","467445","0.0-354.0","3NOKK93PR2U9W7BZET2CV6TJQA4EEN","A3MYPYBVHX7FQ2","3IH9TRB0FBLK6RLF7MSMKICTMWW1I5","","null","<img src=""img/land6.png"" style=""width:200px; border:14px solid green;"">","null","","","","","","","","","",""
"","image-keyboard-response","355","467974","0.0-355.0","3NOKK93PR2U9W7BZET2CV6TJQA4EEN","A3MYPYBVHX7FQ2","3IH9TRB0FBLK6RLF7MSMKICTMWW1I5","","528","img/land6.png","75","528.9000000059605","2","1","3","2","1,0.5,0.5,0.5,1,0.5,0.5,0.5,1","1,0.5,0.5,0.5,1,0.5,0.5,0.5,1","","",""
"","html-keyboard-response","356","468276","0.0-356.0","3NOKK93PR2U9W7BZET2CV6TJQA4EEN","A3MYPYBVHX7FQ2","3IH9TRB0FBLK6RLF7MSMKICTMWW1I5","","null","<img src=""img/land6.png"" style=""width:200px; border:14px solid green;"">","null","","","","","","","","","",""
"","image-keyboard-response","357","469167","0.0-357.0","3NOKK93PR2U9W7BZET2CV6TJQA4EEN","A3MYPYBVHX7FQ2","3IH9TRB0FBLK6RLF7MSMKICTMWW1I5","","889.6999999880791","img/land5.png","76","891","3","0","2","2","1,0.5,0.5,0.5,1,0.5,0.5,0.5,1","1,0.5,0.5,0.5,1,0.5,0.5,0.5,1","","",""
"","html-keyboard-response","358","469469","0.0-358.0","3NOKK93PR2U9W7BZET2CV6TJQA4EEN","A3MYPYBVHX7FQ2","3IH9TRB0FBLK6RLF7MSMKICTMWW1I5","","null","<img src=""img/land5.png"" style=""width:200px;border:14px solid red;"">","null","","","","","","","","","",""
"","image-keyboard-response","359","469919","0.0-359.0","3NOKK93PR2U9W7BZET2CV6TJQA4EEN","A3MYPYBVHX7FQ2","3IH9TRB0FBLK6RLF7MSMKICTMWW1I5","","448.2999999821186","img/land5.png","76","449.2000000178814","3","0","2","2","1,0.5,0.5,0.5,1,0.5,0.5,0.5,1","1,0.5,0.5,0.5,1,0.5,0.5,0.5,1","","",""
"","html-keyboard-response","360","470221","0.0-360.0","3NOKK93PR2U9W7BZET2CV6TJQA4EEN","A3MYPYBVHX7FQ2","3IH9TRB0FBLK6RLF7MSMKICTMWW1I5","","null","<img src=""img/land5.png"" style=""width:200px;border:14px solid red;"">","null","","","","","","","","","",""
"","image-keyboard-response","361","471722","0.0-361.0","3NOKK93PR2U9W7BZET2CV6TJQA4EEN","A3MYPYBVHX7FQ2","3IH9TRB0FBLK6RLF7MSMKICTMWW1I5","","","img/land4.png","","1501.4000000059605","-1","0","1","2","1,0.5,0.5,0.5,1,0.5,0.5,0.5,1","1,0.5,0.5,0.5,1,0.5,0.5,0.5,1","","",""
"","html-keyboard-response","362","472025","0.0-362.0","3NOKK93PR2U9W7BZET2CV6TJQA4EEN","A3MYPYBVHX7FQ2","3IH9TRB0FBLK6RLF7MSMKICTMWW1I5","","null","<img src=""img/land4.png"" style=""width:200px;border:14px solid red;"">","null","","","","","","","","","",""
