"success","trial_type","trial_index","time_elapsed","internal_node_id","assignmentID","mturkID","hitID","view_history","rt","stimulus","key_press","reactionTime","a","r","s","cond","reward_cond","reward_cond_actual","reward_matrix_idx","responses","question_order"
"true","fullscreen","0","5868","0.0-0.0","3A4NIXBJ77LLE1D4CDDZL9OC9USLM9","A3N0QZ9ZKUCTCQ","3566S7OX5D5NH74JOVOPTTMK8IR17K","","","","","","","","","","","","","",""
"","instructions","1","19035","0.0-1.0","3A4NIXBJ77LLE1D4CDDZL9OC9USLM9","A3N0QZ9ZKUCTCQ","3566S7OX5D5NH74JOVOPTTMK8IR17K","[{""page_index"":0,""viewing_time"":2005.1000000014901},{""page_index"":1,""viewing_time"":1615.8000000044703},{""page_index"":2,""viewing_time"":896.0999999940395},{""page_index"":3,""viewing_time"":2087.9000000059605},{""page_index"":4,""viewing_time"":1608.1999999955297},{""page_index"":5,""viewing_time"":2560},{""page_index"":6,""viewing_time"":2392}]","13165.40000000596","","","","","","","","","","","",""
"","image-keyboard-response","2","19802","0.0-2.0","3A4NIXBJ77LLE1D4CDDZL9OC9USLM9","A3N0QZ9ZKUCTCQ","3566S7OX5D5NH74JOVOPTTMK8IR17K","","766.1000000014901","img/land1.png","75","767.6000000014901","2","0","1","2","0.8,0.2,0.2,0.2,0.8,0.2,0.2,0.2,0.8","0.8,0.2,0.2,0.2,0.8,0.2,0.2,0.2,0.8","1","",""
"","html-keyboard-response","3","20111","0.0-3.0","3A4NIXBJ77LLE1D4CDDZL9OC9USLM9","A3N0QZ9ZKUCTCQ","3566S7OX5D5NH74JOVOPTTMK8IR17K","","null","<img src=""img/land1.png"" style=""width:200px;border:14px solid red;"">","null","","","","","","","","","",""
"","image-keyboard-response","4","20616","0.0-4.0","3A4NIXBJ77LLE1D4CDDZL9OC9USLM9","A3N0QZ9ZKUCTCQ","3566S7OX5D5NH74JOVOPTTMK8IR17K","","504.6000000014901","img/land3.png","74","505.40000000596046","1","0","2","2","0.8,0.2,0.2,0.2,0.8,0.2,0.2,0.2,0.8","0.8,0.2,0.2,0.2,0.8,0.2,0.2,0.2,0.8","1","",""
"","html-keyboard-response","5","20917","0.0-5.0","3A4NIXBJ77LLE1D4CDDZL9OC9USLM9","A3N0QZ9ZKUCTCQ","3566S7OX5D5NH74JOVOPTTMK8IR17K","","null","<img src=""img/land3.png"" style=""width:200px;border:14px solid red;"">","null","","","","","","","","","",""
"","image-keyboard-response","6","21539","0.0-6.0","3A4NIXBJ77LLE1D4CDDZL9OC9USLM9","A3N0QZ9ZKUCTCQ","3566S7OX5D5NH74JOVOPTTMK8IR17K","","620.3999999985099","img/land1.png","76","621.6999999955297","3","0","1","2","0.8,0.2,0.2,0.2,0.8,0.2,0.2,0.2,0.8","0.8,0.2,0.2,0.2,0.8,0.2,0.2,0.2,0.8","1","",""
"","html-keyboard-response","7","21855","0.0-7.0","3A4NIXBJ77LLE1D4CDDZL9OC9USLM9","A3N0QZ9ZKUCTCQ","3566S7OX5D5NH74JOVOPTTMK8IR17K","","null","<img src=""img/land1.png"" style=""width:200px;border:14px solid red;"">","null","","","","","","","","","",""
"","image-keyboard-response","8","22338","0.0-8.0","3A4NIXBJ77LLE1D4CDDZL9OC9USLM9","A3N0QZ9ZKUCTCQ","3566S7OX5D5NH74JOVOPTTMK8IR17K","","481.3999999985099","img/land1.png","74","482.70000000298023","1","1","1","2","0.8,0.2,0.2,0.2,0.8,0.2,0.2,0.2,0.8","0.8,0.2,0.2,0.2,0.8,0.2,0.2,0.2,0.8","1","",""
"","html-keyboard-response","9","22646","0.0-9.0","3A4NIXBJ77LLE1D4CDDZL9OC9USLM9","A3N0QZ9ZKUCTCQ","3566S7OX5D5NH74JOVOPTTMK8IR17K","","null","<img src=""img/land1.png"" style=""width:200px; border:14px solid green;"">","null","","","","","","","","","",""
"","image-keyboard-response","10","23134","0.0-10.0","3A4NIXBJ77LLE1D4CDDZL9OC9USLM9","A3N0QZ9ZKUCTCQ","3566S7OX5D5NH74JOVOPTTMK8IR17K","","486.5","img/land1.png","74","487.5","1","1","1","2","0.8,0.2,0.2,0.2,0.8,0.2,0.2,0.2,0.8","0.8,0.2,0.2,0.2,0.8,0.2,0.2,0.2,0.8","1","",""
"","html-keyboard-response","11","23440","0.0-11.0","3A4NIXBJ77LLE1D4CDDZL9OC9USLM9","A3N0QZ9ZKUCTCQ","3566S7OX5D5NH74JOVOPTTMK8IR17K","","null","<img src=""img/land1.png"" style=""width:200px; border:14px solid green;"">","null","","","","","","","","","",""
"","image-keyboard-response","12","23786","0.0-12.0","3A4NIXBJ77LLE1D4CDDZL9OC9USLM9","A3N0QZ9ZKUCTCQ","3566S7OX5D5NH74JOVOPTTMK8IR17K","","345.69999999552965","img/land1.png","74","346.3999999985099","1","1","1","2","0.8,0.2,0.2,0.2,0.8,0.2,0.2,0.2,0.8","0.8,0.2,0.2,0.2,0.8,0.2,0.2,0.2,0.8","1","",""
"","html-keyboard-response","13","24094","0.0-13.0","3A4NIXBJ77LLE1D4CDDZL9OC9USLM9","A3N0QZ9ZKUCTCQ","3566S7OX5D5NH74JOVOPTTMK8IR17K","","null","<img src=""img/land1.png"" style=""width:200px; border:14px solid green;"">","null","","","","","","","","","",""
"","image-keyboard-response","14","24456","0.0-14.0","3A4NIXBJ77LLE1D4CDDZL9OC9USLM9","A3N0QZ9ZKUCTCQ","3566S7OX5D5NH74JOVOPTTMK8IR17K","","361.5","img/land1.png","74","362.1000000014901","1","1","1","2","0.8,0.2,0.2,0.2,0.8,0.2,0.2,0.2,0.8","0.8,0.2,0.2,0.2,0.8,0.2,0.2,0.2,0.8","1","",""
"","html-keyboard-response","15","24763","0.0-15.0","3A4NIXBJ77LLE1D4CDDZL9OC9USLM9","A3N0QZ9ZKUCTCQ","3566S7OX5D5NH74JOVOPTTMK8IR17K","","null","<img src=""img/land1.png"" style=""width:200px; border:14px solid green;"">","null","","","","","","","","","",""
"","image-keyboard-response","16","25515","0.0-16.0","3A4NIXBJ77LLE1D4CDDZL9OC9USLM9","A3N0QZ9ZKUCTCQ","3566S7OX5D5NH74JOVOPTTMK8IR17K","","750.8000000044703","img/land5.png","76","751.7000000029802","3","1","3","2","0.8,0.2,0.2,0.2,0.8,0.2,0.2,0.2,0.8","0.8,0.2,0.2,0.2,0.8,0.2,0.2,0.2,0.8","1","",""
"","html-keyboard-response","17","25826","0.0-17.0","3A4NIXBJ77LLE1D4CDDZL9OC9USLM9","A3N0QZ9ZKUCTCQ","3566S7OX5D5NH74JOVOPTTMK8IR17K","","null","<img src=""img/land5.png"" style=""width:200px; border:14px solid green;"">","null","","","","","","","","","",""
"","image-keyboard-response","18","26293","0.0-18.0","3A4NIXBJ77LLE1D4CDDZL9OC9USLM9","A3N0QZ9ZKUCTCQ","3566S7OX5D5NH74JOVOPTTMK8IR17K","","466","img/land1.png","74","466.79999999701977","1","1","1","2","0.8,0.2,0.2,0.2,0.8,0.2,0.2,0.2,0.8","0.8,0.2,0.2,0.2,0.8,0.2,0.2,0.2,0.8","1","",""
"","html-keyboard-response","19","26606","0.0-19.0","3A4NIXBJ77LLE1D4CDDZL9OC9USLM9","A3N0QZ9ZKUCTCQ","3566S7OX5D5NH74JOVOPTTMK8IR17K","","null","<img src=""img/land1.png"" style=""width:200px; border:14px solid green;"">","null","","","","","","","","","",""
"","image-keyboard-response","20","26957","0.0-20.0","3A4NIXBJ77LLE1D4CDDZL9OC9USLM9","A3N0QZ9ZKUCTCQ","3566S7OX5D5NH74JOVOPTTMK8IR17K","","350.3999999985099","img/land1.png","74","351.20000000298023","1","1","1","2","0.8,0.2,0.2,0.2,0.8,0.2,0.2,0.2,0.8","0.8,0.2,0.2,0.2,0.8,0.2,0.2,0.2,0.8","1","",""
"","html-keyboard-response","21","27260","0.0-21.0","3A4NIXBJ77LLE1D4CDDZL9OC9USLM9","A3N0QZ9ZKUCTCQ","3566S7OX5D5NH74JOVOPTTMK8IR17K","","null","<img src=""img/land1.png"" style=""width:200px; border:14px solid green;"">","null","","","","","","","","","",""
"","image-keyboard-response","22","27601","0.0-22.0","3A4NIXBJ77LLE1D4CDDZL9OC9USLM9","A3N0QZ9ZKUCTCQ","3566S7OX5D5NH74JOVOPTTMK8IR17K","","339.59999999403954","img/land1.png","74","340.20000000298023","1","1","1","2","0.8,0.2,0.2,0.2,0.8,0.2,0.2,0.2,0.8","0.8,0.2,0.2,0.2,0.8,0.2,0.2,0.2,0.8","1","",""
"","html-keyboard-response","23","27916","0.0-23.0","3A4NIXBJ77LLE1D4CDDZL9OC9USLM9","A3N0QZ9ZKUCTCQ","3566S7OX5D5NH74JOVOPTTMK8IR17K","","null","<img src=""img/land1.png"" style=""width:200px; border:14px solid green;"">","null","","","","","","","","","",""
"","image-keyboard-response","24","28246","0.0-24.0","3A4NIXBJ77LLE1D4CDDZL9OC9USLM9","A3N0QZ9ZKUCTCQ","3566S7OX5D5NH74JOVOPTTMK8IR17K","","329","img/land1.png","74","330","1","1","1","2","0.8,0.2,0.2,0.2,0.8,0.2,0.2,0.2,0.8","0.8,0.2,0.2,0.2,0.8,0.2,0.2,0.2,0.8","1","",""
"","html-keyboard-response","25","28551","0.0-25.0","3A4NIXBJ77LLE1D4CDDZL9OC9USLM9","A3N0QZ9ZKUCTCQ","3566S7OX5D5NH74JOVOPTTMK8IR17K","","null","<img src=""img/land1.png"" style=""width:200px; border:14px solid green;"">","null","","","","","","","","","",""
"","image-keyboard-response","26","28864","0.0-26.0","3A4NIXBJ77LLE1D4CDDZL9OC9USLM9","A3N0QZ9ZKUCTCQ","3566S7OX5D5NH74JOVOPTTMK8IR17K","","311.3999999985099","img/land1.png","74","312.20000000298023","1","0","1","2","0.8,0.2,0.2,0.2,0.8,0.2,0.2,0.2,0.8","0.8,0.2,0.2,0.2,0.8,0.2,0.2,0.2,0.8","1","",""
"","html-keyboard-response","27","29176","0.0-27.0","3A4NIXBJ77LLE1D4CDDZL9OC9USLM9","A3N0QZ9ZKUCTCQ","3566S7OX5D5NH74JOVOPTTMK8IR17K","","null","<img src=""img/land1.png"" style=""width:200px;border:14px solid red;"">","null","","","","","","","","","",""
"","image-keyboard-response","28","29578","0.0-28.0","3A4NIXBJ77LLE1D4CDDZL9OC9USLM9","A3N0QZ9ZKUCTCQ","3566S7OX5D5NH74JOVOPTTMK8IR17K","","401.29999999701977","img/land1.png","74","402.09999999403954","1","1","1","2","0.8,0.2,0.2,0.2,0.8,0.2,0.2,0.2,0.8","0.8,0.2,0.2,0.2,0.8,0.2,0.2,0.2,0.8","1","",""
"","html-keyboard-response","29","29888","0.0-29.0","3A4NIXBJ77LLE1D4CDDZL9OC9USLM9","A3N0QZ9ZKUCTCQ","3566S7OX5D5NH74JOVOPTTMK8IR17K","","null","<img src=""img/land1.png"" style=""width:200px; border:14px solid green;"">","null","","","","","","","","","",""
"","image-keyboard-response","30","30706","0.0-30.0","3A4NIXBJ77LLE1D4CDDZL9OC9USLM9","A3N0QZ9ZKUCTCQ","3566S7OX5D5NH74JOVOPTTMK8IR17K","","817.5","img/land3.png","75","818.3000000044703","2","1","2","2","0.8,0.2,0.2,0.2,0.8,0.2,0.2,0.2,0.8","0.8,0.2,0.2,0.2,0.8,0.2,0.2,0.2,0.8","1","",""
"","html-keyboard-response","31","31008","0.0-31.0","3A4NIXBJ77LLE1D4CDDZL9OC9USLM9","A3N0QZ9ZKUCTCQ","3566S7OX5D5NH74JOVOPTTMK8IR17K","","null","<img src=""img/land3.png"" style=""width:200px; border:14px solid green;"">","null","","","","","","","","","",""
"","image-keyboard-response","32","31591","0.0-32.0","3A4NIXBJ77LLE1D4CDDZL9OC9USLM9","A3N0QZ9ZKUCTCQ","3566S7OX5D5NH74JOVOPTTMK8IR17K","","581.2000000029802","img/land1.png","74","582.3999999985099","1","1","1","2","0.8,0.2,0.2,0.2,0.8,0.2,0.2,0.2,0.8","0.8,0.2,0.2,0.2,0.8,0.2,0.2,0.2,0.8","1","",""
"","html-keyboard-response","33","31893","0.0-33.0","3A4NIXBJ77LLE1D4CDDZL9OC9USLM9","A3N0QZ9ZKUCTCQ","3566S7OX5D5NH74JOVOPTTMK8IR17K","","null","<img src=""img/land1.png"" style=""width:200px; border:14px solid green;"">","null","","","","","","","","","",""
"","image-keyboard-response","34","32329","0.0-34.0","3A4NIXBJ77LLE1D4CDDZL9OC9USLM9","A3N0QZ9ZKUCTCQ","3566S7OX5D5NH74JOVOPTTMK8IR17K","","434.5","img/land3.png","75","435.90000000596046","2","1","2","2","0.8,0.2,0.2,0.2,0.8,0.2,0.2,0.2,0.8","0.8,0.2,0.2,0.2,0.8,0.2,0.2,0.2,0.8","1","",""
"","html-keyboard-response","35","32631","0.0-35.0","3A4NIXBJ77LLE1D4CDDZL9OC9USLM9","A3N0QZ9ZKUCTCQ","3566S7OX5D5NH74JOVOPTTMK8IR17K","","null","<img src=""img/land3.png"" style=""width:200px; border:14px solid green;"">","null","","","","","","","","","",""
"","image-keyboard-response","36","33013","0.0-36.0","3A4NIXBJ77LLE1D4CDDZL9OC9USLM9","A3N0QZ9ZKUCTCQ","3566S7OX5D5NH74JOVOPTTMK8IR17K","","380.5","img/land3.png","75","381.8999999985099","2","1","2","2","0.8,0.2,0.2,0.2,0.8,0.2,0.2,0.2,0.8","0.8,0.2,0.2,0.2,0.8,0.2,0.2,0.2,0.8","1","",""
"","html-keyboard-response","37","33326","0.0-37.0","3A4NIXBJ77LLE1D4CDDZL9OC9USLM9","A3N0QZ9ZKUCTCQ","3566S7OX5D5NH74JOVOPTTMK8IR17K","","null","<img src=""img/land3.png"" style=""width:200px; border:14px solid green;"">","null","","","","","","","","","",""
"","image-keyboard-response","38","33942","0.0-38.0","3A4NIXBJ77LLE1D4CDDZL9OC9USLM9","A3N0QZ9ZKUCTCQ","3566S7OX5D5NH74JOVOPTTMK8IR17K","","614.5999999940395","img/land1.png","74","616","1","1","1","2","0.8,0.2,0.2,0.2,0.8,0.2,0.2,0.2,0.8","0.8,0.2,0.2,0.2,0.8,0.2,0.2,0.2,0.8","1","",""
"","html-keyboard-response","39","34245","0.0-39.0","3A4NIXBJ77LLE1D4CDDZL9OC9USLM9","A3N0QZ9ZKUCTCQ","3566S7OX5D5NH74JOVOPTTMK8IR17K","","null","<img src=""img/land1.png"" style=""width:200px; border:14px solid green;"">","null","","","","","","","","","",""
"","image-keyboard-response","40","35180","0.0-40.0","3A4NIXBJ77LLE1D4CDDZL9OC9USLM9","A3N0QZ9ZKUCTCQ","3566S7OX5D5NH74JOVOPTTMK8IR17K","","933.5","img/land5.png","76","934.7000000029802","3","0","3","2","0.8,0.2,0.2,0.2,0.8,0.2,0.2,0.2,0.8","0.8,0.2,0.2,0.2,0.8,0.2,0.2,0.2,0.8","1","",""
"","html-keyboard-response","41","35481","0.0-41.0","3A4NIXBJ77LLE1D4CDDZL9OC9USLM9","A3N0QZ9ZKUCTCQ","3566S7OX5D5NH74JOVOPTTMK8IR17K","","null","<img src=""img/land5.png"" style=""width:200px;border:14px solid red;"">","null","","","","","","","","","",""
"","image-keyboard-response","42","36378","0.0-42.0","3A4NIXBJ77LLE1D4CDDZL9OC9USLM9","A3N0QZ9ZKUCTCQ","3566S7OX5D5NH74JOVOPTTMK8IR17K","","895.5","img/land3.png","75","896.7999999970198","2","0","2","2","0.8,0.2,0.2,0.2,0.8,0.2,0.2,0.2,0.8","0.8,0.2,0.2,0.2,0.8,0.2,0.2,0.2,0.8","1","",""
"","html-keyboard-response","43","36680","0.0-43.0","3A4NIXBJ77LLE1D4CDDZL9OC9USLM9","A3N0QZ9ZKUCTCQ","3566S7OX5D5NH74JOVOPTTMK8IR17K","","null","<img src=""img/land3.png"" style=""width:200px;border:14px solid red;"">","null","","","","","","","","","",""
"","image-keyboard-response","44","37288","0.0-44.0","3A4NIXBJ77LLE1D4CDDZL9OC9USLM9","A3N0QZ9ZKUCTCQ","3566S7OX5D5NH74JOVOPTTMK8IR17K","","605.6000000014901","img/land1.png","74","607.1000000014901","1","1","1","2","0.8,0.2,0.2,0.2,0.8,0.2,0.2,0.2,0.8","0.8,0.2,0.2,0.2,0.8,0.2,0.2,0.2,0.8","1","",""
"","html-keyboard-response","45","37590","0.0-45.0","3A4NIXBJ77LLE1D4CDDZL9OC9USLM9","A3N0QZ9ZKUCTCQ","3566S7OX5D5NH74JOVOPTTMK8IR17K","","null","<img src=""img/land1.png"" style=""width:200px; border:14px solid green;"">","null","","","","","","","","","",""
"","image-keyboard-response","46","37966","0.0-46.0","3A4NIXBJ77LLE1D4CDDZL9OC9USLM9","A3N0QZ9ZKUCTCQ","3566S7OX5D5NH74JOVOPTTMK8IR17K","","374.70000000298023","img/land1.png","74","376.1000000014901","1","1","1","2","0.8,0.2,0.2,0.2,0.8,0.2,0.2,0.2,0.8","0.8,0.2,0.2,0.2,0.8,0.2,0.2,0.2,0.8","1","",""
"","html-keyboard-response","47","38269","0.0-47.0","3A4NIXBJ77LLE1D4CDDZL9OC9USLM9","A3N0QZ9ZKUCTCQ","3566S7OX5D5NH74JOVOPTTMK8IR17K","","null","<img src=""img/land1.png"" style=""width:200px; border:14px solid green;"">","null","","","","","","","","","",""
"","image-keyboard-response","48","38630","0.0-48.0","3A4NIXBJ77LLE1D4CDDZL9OC9USLM9","A3N0QZ9ZKUCTCQ","3566S7OX5D5NH74JOVOPTTMK8IR17K","","359.30000000447035","img/land1.png","74","360.70000000298023","1","1","1","2","0.8,0.2,0.2,0.2,0.8,0.2,0.2,0.2,0.8","0.8,0.2,0.2,0.2,0.8,0.2,0.2,0.2,0.8","1","",""
"","html-keyboard-response","49","38933","0.0-49.0","3A4NIXBJ77LLE1D4CDDZL9OC9USLM9","A3N0QZ9ZKUCTCQ","3566S7OX5D5NH74JOVOPTTMK8IR17K","","null","<img src=""img/land1.png"" style=""width:200px; border:14px solid green;"">","null","","","","","","","","","",""
"","image-keyboard-response","50","39269","0.0-50.0","3A4NIXBJ77LLE1D4CDDZL9OC9USLM9","A3N0QZ9ZKUCTCQ","3566S7OX5D5NH74JOVOPTTMK8IR17K","","334.8999999985099","img/land1.png","74","336.3999999985099","1","1","1","2","0.8,0.2,0.2,0.2,0.8,0.2,0.2,0.2,0.8","0.8,0.2,0.2,0.2,0.8,0.2,0.2,0.2,0.8","1","",""
"","html-keyboard-response","51","39571","0.0-51.0","3A4NIXBJ77LLE1D4CDDZL9OC9USLM9","A3N0QZ9ZKUCTCQ","3566S7OX5D5NH74JOVOPTTMK8IR17K","","null","<img src=""img/land1.png"" style=""width:200px; border:14px solid green;"">","null","","","","","","","","","",""
"","image-keyboard-response","52","39923","0.0-52.0","3A4NIXBJ77LLE1D4CDDZL9OC9USLM9","A3N0QZ9ZKUCTCQ","3566S7OX5D5NH74JOVOPTTMK8IR17K","","350.79999999701977","img/land1.png","74","351.70000000298023","1","1","1","2","0.8,0.2,0.2,0.2,0.8,0.2,0.2,0.2,0.8","0.8,0.2,0.2,0.2,0.8,0.2,0.2,0.2,0.8","1","",""
"","html-keyboard-response","53","40226","0.0-53.0","3A4NIXBJ77LLE1D4CDDZL9OC9USLM9","A3N0QZ9ZKUCTCQ","3566S7OX5D5NH74JOVOPTTMK8IR17K","","null","<img src=""img/land1.png"" style=""width:200px; border:14px solid green;"">","null","","","","","","","","","",""
"","image-keyboard-response","54","40588","0.0-54.0","3A4NIXBJ77LLE1D4CDDZL9OC9USLM9","A3N0QZ9ZKUCTCQ","3566S7OX5D5NH74JOVOPTTMK8IR17K","","360.20000000298023","img/land1.png","74","361.69999999552965","1","1","1","2","0.8,0.2,0.2,0.2,0.8,0.2,0.2,0.2,0.8","0.8,0.2,0.2,0.2,0.8,0.2,0.2,0.2,0.8","1","",""
"","html-keyboard-response","55","40890","0.0-55.0","3A4NIXBJ77LLE1D4CDDZL9OC9USLM9","A3N0QZ9ZKUCTCQ","3566S7OX5D5NH74JOVOPTTMK8IR17K","","null","<img src=""img/land1.png"" style=""width:200px; border:14px solid green;"">","null","","","","","","","","","",""
"","image-keyboard-response","56","41427","0.0-56.0","3A4NIXBJ77LLE1D4CDDZL9OC9USLM9","A3N0QZ9ZKUCTCQ","3566S7OX5D5NH74JOVOPTTMK8IR17K","","534.7000000029802","img/land3.png","75","536.1000000014901","2","1","2","2","0.8,0.2,0.2,0.2,0.8,0.2,0.2,0.2,0.8","0.8,0.2,0.2,0.2,0.8,0.2,0.2,0.2,0.8","1","",""
"","html-keyboard-response","57","41728","0.0-57.0","3A4NIXBJ77LLE1D4CDDZL9OC9USLM9","A3N0QZ9ZKUCTCQ","3566S7OX5D5NH74JOVOPTTMK8IR17K","","null","<img src=""img/land3.png"" style=""width:200px; border:14px solid green;"">","null","","","","","","","","","",""
"","image-keyboard-response","58","42360","0.0-58.0","3A4NIXBJ77LLE1D4CDDZL9OC9USLM9","A3N0QZ9ZKUCTCQ","3566S7OX5D5NH74JOVOPTTMK8IR17K","","629.6000000014901","img/land1.png","74","631","1","1","1","2","0.8,0.2,0.2,0.2,0.8,0.2,0.2,0.2,0.8","0.8,0.2,0.2,0.2,0.8,0.2,0.2,0.2,0.8","1","",""
"","html-keyboard-response","59","42662","0.0-59.0","3A4NIXBJ77LLE1D4CDDZL9OC9USLM9","A3N0QZ9ZKUCTCQ","3566S7OX5D5NH74JOVOPTTMK8IR17K","","null","<img src=""img/land1.png"" style=""width:200px; border:14px solid green;"">","null","","","","","","","","","",""
"","image-keyboard-response","60","43024","0.0-60.0","3A4NIXBJ77LLE1D4CDDZL9OC9USLM9","A3N0QZ9ZKUCTCQ","3566S7OX5D5NH74JOVOPTTMK8IR17K","","360.20000000298023","img/land1.png","74","361.70000000298023","1","1","1","2","0.8,0.2,0.2,0.2,0.8,0.2,0.2,0.2,0.8","0.8,0.2,0.2,0.2,0.8,0.2,0.2,0.2,0.8","1","",""
"","html-keyboard-response","61","43326","0.0-61.0","3A4NIXBJ77LLE1D4CDDZL9OC9USLM9","A3N0QZ9ZKUCTCQ","3566S7OX5D5NH74JOVOPTTMK8IR17K","","null","<img src=""img/land1.png"" style=""width:200px; border:14px solid green;"">","null","","","","","","","","","",""
"","image-keyboard-response","62","43698","0.0-62.0","3A4NIXBJ77LLE1D4CDDZL9OC9USLM9","A3N0QZ9ZKUCTCQ","3566S7OX5D5NH74JOVOPTTMK8IR17K","","370.5","img/land1.png","74","371.80000000447035","1","1","1","2","0.8,0.2,0.2,0.2,0.8,0.2,0.2,0.2,0.8","0.8,0.2,0.2,0.2,0.8,0.2,0.2,0.2,0.8","1","",""
"","html-keyboard-response","63","44000","0.0-63.0","3A4NIXBJ77LLE1D4CDDZL9OC9USLM9","A3N0QZ9ZKUCTCQ","3566S7OX5D5NH74JOVOPTTMK8IR17K","","null","<img src=""img/land1.png"" style=""width:200px; border:14px solid green;"">","null","","","","","","","","","",""
"","image-keyboard-response","64","44337","0.0-64.0","3A4NIXBJ77LLE1D4CDDZL9OC9USLM9","A3N0QZ9ZKUCTCQ","3566S7OX5D5NH74JOVOPTTMK8IR17K","","334.8999999985099","img/land1.png","74","336.19999999552965","1","1","1","2","0.8,0.2,0.2,0.2,0.8,0.2,0.2,0.2,0.8","0.8,0.2,0.2,0.2,0.8,0.2,0.2,0.2,0.8","1","",""
"","html-keyboard-response","65","44640","0.0-65.0","3A4NIXBJ77LLE1D4CDDZL9OC9USLM9","A3N0QZ9ZKUCTCQ","3566S7OX5D5NH74JOVOPTTMK8IR17K","","null","<img src=""img/land1.png"" style=""width:200px; border:14px solid green;"">","null","","","","","","","","","",""
"","image-keyboard-response","66","44979","0.0-66.0","3A4NIXBJ77LLE1D4CDDZL9OC9USLM9","A3N0QZ9ZKUCTCQ","3566S7OX5D5NH74JOVOPTTMK8IR17K","","337.3999999985099","img/land1.png","74","338.6000000014901","1","1","1","2","0.8,0.2,0.2,0.2,0.8,0.2,0.2,0.2,0.8","0.8,0.2,0.2,0.2,0.8,0.2,0.2,0.2,0.8","1","",""
"","html-keyboard-response","67","45281","0.0-67.0","3A4NIXBJ77LLE1D4CDDZL9OC9USLM9","A3N0QZ9ZKUCTCQ","3566S7OX5D5NH74JOVOPTTMK8IR17K","","null","<img src=""img/land1.png"" style=""width:200px; border:14px solid green;"">","null","","","","","","","","","",""
"","image-keyboard-response","68","45645","0.0-68.0","3A4NIXBJ77LLE1D4CDDZL9OC9USLM9","A3N0QZ9ZKUCTCQ","3566S7OX5D5NH74JOVOPTTMK8IR17K","","361.70000000298023","img/land1.png","74","363.1000000014901","1","1","1","2","0.8,0.2,0.2,0.2,0.8,0.2,0.2,0.2,0.8","0.8,0.2,0.2,0.2,0.8,0.2,0.2,0.2,0.8","1","",""
"","html-keyboard-response","69","45958","0.0-69.0","3A4NIXBJ77LLE1D4CDDZL9OC9USLM9","A3N0QZ9ZKUCTCQ","3566S7OX5D5NH74JOVOPTTMK8IR17K","","null","<img src=""img/land1.png"" style=""width:200px; border:14px solid green;"">","null","","","","","","","","","",""
"","image-keyboard-response","70","46339","0.0-70.0","3A4NIXBJ77LLE1D4CDDZL9OC9USLM9","A3N0QZ9ZKUCTCQ","3566S7OX5D5NH74JOVOPTTMK8IR17K","","379.5","img/land1.png","74","380.80000000447035","1","1","1","2","0.8,0.2,0.2,0.2,0.8,0.2,0.2,0.2,0.8","0.8,0.2,0.2,0.2,0.8,0.2,0.2,0.2,0.8","1","",""
"","html-keyboard-response","71","46642","0.0-71.0","3A4NIXBJ77LLE1D4CDDZL9OC9USLM9","A3N0QZ9ZKUCTCQ","3566S7OX5D5NH74JOVOPTTMK8IR17K","","null","<img src=""img/land1.png"" style=""width:200px; border:14px solid green;"">","null","","","","","","","","","",""
"","image-keyboard-response","72","47058","0.0-72.0","3A4NIXBJ77LLE1D4CDDZL9OC9USLM9","A3N0QZ9ZKUCTCQ","3566S7OX5D5NH74JOVOPTTMK8IR17K","","414.5","img/land1.png","74","415.69999999552965","1","1","1","2","0.8,0.2,0.2,0.2,0.8,0.2,0.2,0.2,0.8","0.8,0.2,0.2,0.2,0.8,0.2,0.2,0.2,0.8","1","",""
"","html-keyboard-response","73","47360","0.0-73.0","3A4NIXBJ77LLE1D4CDDZL9OC9USLM9","A3N0QZ9ZKUCTCQ","3566S7OX5D5NH74JOVOPTTMK8IR17K","","null","<img src=""img/land1.png"" style=""width:200px; border:14px solid green;"">","null","","","","","","","","","",""
"","image-keyboard-response","74","47741","0.0-74.0","3A4NIXBJ77LLE1D4CDDZL9OC9USLM9","A3N0QZ9ZKUCTCQ","3566S7OX5D5NH74JOVOPTTMK8IR17K","","379.6000000014901","img/land1.png","74","380.70000000298023","1","1","1","2","0.8,0.2,0.2,0.2,0.8,0.2,0.2,0.2,0.8","0.8,0.2,0.2,0.2,0.8,0.2,0.2,0.2,0.8","1","",""
"","html-keyboard-response","75","48044","0.0-75.0","3A4NIXBJ77LLE1D4CDDZL9OC9USLM9","A3N0QZ9ZKUCTCQ","3566S7OX5D5NH74JOVOPTTMK8IR17K","","null","<img src=""img/land1.png"" style=""width:200px; border:14px solid green;"">","null","","","","","","","","","",""
"","image-keyboard-response","76","48515","0.0-76.0","3A4NIXBJ77LLE1D4CDDZL9OC9USLM9","A3N0QZ9ZKUCTCQ","3566S7OX5D5NH74JOVOPTTMK8IR17K","","469.19999999552965","img/land3.png","75","470.6000000014901","2","1","2","2","0.8,0.2,0.2,0.2,0.8,0.2,0.2,0.2,0.8","0.8,0.2,0.2,0.2,0.8,0.2,0.2,0.2,0.8","1","",""
"","html-keyboard-response","77","48817","0.0-77.0","3A4NIXBJ77LLE1D4CDDZL9OC9USLM9","A3N0QZ9ZKUCTCQ","3566S7OX5D5NH74JOVOPTTMK8IR17K","","null","<img src=""img/land3.png"" style=""width:200px; border:14px solid green;"">","null","","","","","","","","","",""
"","image-keyboard-response","78","49455","0.0-78.0","3A4NIXBJ77LLE1D4CDDZL9OC9USLM9","A3N0QZ9ZKUCTCQ","3566S7OX5D5NH74JOVOPTTMK8IR17K","","635.8999999985099","img/land1.png","74","637.1999999955297","1","0","1","2","0.8,0.2,0.2,0.2,0.8,0.2,0.2,0.2,0.8","0.8,0.2,0.2,0.2,0.8,0.2,0.2,0.2,0.8","1","",""
"","html-keyboard-response","79","49757","0.0-79.0","3A4NIXBJ77LLE1D4CDDZL9OC9USLM9","A3N0QZ9ZKUCTCQ","3566S7OX5D5NH74JOVOPTTMK8IR17K","","null","<img src=""img/land1.png"" style=""width:200px;border:14px solid red;"">","null","","","","","","","","","",""
"","image-keyboard-response","80","49973","0.0-80.0","3A4NIXBJ77LLE1D4CDDZL9OC9USLM9","A3N0QZ9ZKUCTCQ","3566S7OX5D5NH74JOVOPTTMK8IR17K","","214.19999999552965","img/land3.png","74","215.69999999552965","1","1","2","2","0.8,0.2,0.2,0.2,0.8,0.2,0.2,0.2,0.8","0.8,0.2,0.2,0.2,0.8,0.2,0.2,0.2,0.8","1","",""
"","html-keyboard-response","81","50275","0.0-81.0","3A4NIXBJ77LLE1D4CDDZL9OC9USLM9","A3N0QZ9ZKUCTCQ","3566S7OX5D5NH74JOVOPTTMK8IR17K","","null","<img src=""img/land3.png"" style=""width:200px; border:14px solid green;"">","null","","","","","","","","","",""
"","image-keyboard-response","82","50996","0.0-82.0","3A4NIXBJ77LLE1D4CDDZL9OC9USLM9","A3N0QZ9ZKUCTCQ","3566S7OX5D5NH74JOVOPTTMK8IR17K","","719","img/land1.png","74","720.5","1","1","1","2","0.8,0.2,0.2,0.2,0.8,0.2,0.2,0.2,0.8","0.8,0.2,0.2,0.2,0.8,0.2,0.2,0.2,0.8","1","",""
"","html-keyboard-response","83","51298","0.0-83.0","3A4NIXBJ77LLE1D4CDDZL9OC9USLM9","A3N0QZ9ZKUCTCQ","3566S7OX5D5NH74JOVOPTTMK8IR17K","","null","<img src=""img/land1.png"" style=""width:200px; border:14px solid green;"">","null","","","","","","","","","",""
"","image-keyboard-response","84","51656","0.0-84.0","3A4NIXBJ77LLE1D4CDDZL9OC9USLM9","A3N0QZ9ZKUCTCQ","3566S7OX5D5NH74JOVOPTTMK8IR17K","","356.70000000298023","img/land1.png","74","358.1000000014901","1","0","1","2","0.8,0.2,0.2,0.2,0.8,0.2,0.2,0.2,0.8","0.8,0.2,0.2,0.2,0.8,0.2,0.2,0.2,0.8","1","",""
"","html-keyboard-response","85","51958","0.0-85.0","3A4NIXBJ77LLE1D4CDDZL9OC9USLM9","A3N0QZ9ZKUCTCQ","3566S7OX5D5NH74JOVOPTTMK8IR17K","","null","<img src=""img/land1.png"" style=""width:200px;border:14px solid red;"">","null","","","","","","","","","",""
"","image-keyboard-response","86","52549","0.0-86.0","3A4NIXBJ77LLE1D4CDDZL9OC9USLM9","A3N0QZ9ZKUCTCQ","3566S7OX5D5NH74JOVOPTTMK8IR17K","","589.8999999985099","img/land1.png","74","591.1999999955297","1","0","1","2","0.8,0.2,0.2,0.2,0.8,0.2,0.2,0.2,0.8","0.8,0.2,0.2,0.2,0.8,0.2,0.2,0.2,0.8","1","",""
"","html-keyboard-response","87","52851","0.0-87.0","3A4NIXBJ77LLE1D4CDDZL9OC9USLM9","A3N0QZ9ZKUCTCQ","3566S7OX5D5NH74JOVOPTTMK8IR17K","","null","<img src=""img/land1.png"" style=""width:200px;border:14px solid red;"">","null","","","","","","","","","",""
"","image-keyboard-response","88","53566","0.0-88.0","3A4NIXBJ77LLE1D4CDDZL9OC9USLM9","A3N0QZ9ZKUCTCQ","3566S7OX5D5NH74JOVOPTTMK8IR17K","","713.2000000029802","img/land5.png","76","714.7999999970198","3","0","3","2","0.8,0.2,0.2,0.2,0.8,0.2,0.2,0.2,0.8","0.8,0.2,0.2,0.2,0.8,0.2,0.2,0.2,0.8","1","",""
"","html-keyboard-response","89","53869","0.0-89.0","3A4NIXBJ77LLE1D4CDDZL9OC9USLM9","A3N0QZ9ZKUCTCQ","3566S7OX5D5NH74JOVOPTTMK8IR17K","","null","<img src=""img/land5.png"" style=""width:200px;border:14px solid red;"">","null","","","","","","","","","",""
"","image-keyboard-response","90","54691","0.0-90.0","3A4NIXBJ77LLE1D4CDDZL9OC9USLM9","A3N0QZ9ZKUCTCQ","3566S7OX5D5NH74JOVOPTTMK8IR17K","","820.6999999955297","img/land3.png","74","821.9000000059605","1","0","2","2","0.8,0.2,0.2,0.2,0.8,0.2,0.2,0.2,0.8","0.8,0.2,0.2,0.2,0.8,0.2,0.2,0.2,0.8","1","",""
"","html-keyboard-response","91","54993","0.0-91.0","3A4NIXBJ77LLE1D4CDDZL9OC9USLM9","A3N0QZ9ZKUCTCQ","3566S7OX5D5NH74JOVOPTTMK8IR17K","","null","<img src=""img/land3.png"" style=""width:200px;border:14px solid red;"">","null","","","","","","","","","",""
"","image-keyboard-response","92","55773","0.0-92.0","3A4NIXBJ77LLE1D4CDDZL9OC9USLM9","A3N0QZ9ZKUCTCQ","3566S7OX5D5NH74JOVOPTTMK8IR17K","","778.8999999985099","img/land5.png","76","780.1000000014901","3","0","3","2","0.8,0.2,0.2,0.2,0.8,0.2,0.2,0.2,0.8","0.8,0.2,0.2,0.2,0.8,0.2,0.2,0.2,0.8","1","",""
"","html-keyboard-response","93","56075","0.0-93.0","3A4NIXBJ77LLE1D4CDDZL9OC9USLM9","A3N0QZ9ZKUCTCQ","3566S7OX5D5NH74JOVOPTTMK8IR17K","","null","<img src=""img/land5.png"" style=""width:200px;border:14px solid red;"">","null","","","","","","","","","",""
"","image-keyboard-response","94","56818","0.0-94.0","3A4NIXBJ77LLE1D4CDDZL9OC9USLM9","A3N0QZ9ZKUCTCQ","3566S7OX5D5NH74JOVOPTTMK8IR17K","","741.6000000014901","img/land1.png","74","742.7000000029802","1","0","1","2","0.8,0.2,0.2,0.2,0.8,0.2,0.2,0.2,0.8","0.8,0.2,0.2,0.2,0.8,0.2,0.2,0.2,0.8","1","",""
"","html-keyboard-response","95","57120","0.0-95.0","3A4NIXBJ77LLE1D4CDDZL9OC9USLM9","A3N0QZ9ZKUCTCQ","3566S7OX5D5NH74JOVOPTTMK8IR17K","","null","<img src=""img/land1.png"" style=""width:200px;border:14px solid red;"">","null","","","","","","","","","",""
"","image-keyboard-response","96","57472","0.0-96.0","3A4NIXBJ77LLE1D4CDDZL9OC9USLM9","A3N0QZ9ZKUCTCQ","3566S7OX5D5NH74JOVOPTTMK8IR17K","","350.19999999552965","img/land1.png","74","351.5","1","1","1","2","0.8,0.2,0.2,0.2,0.8,0.2,0.2,0.2,0.8","0.8,0.2,0.2,0.2,0.8,0.2,0.2,0.2,0.8","1","",""
"","html-keyboard-response","97","57773","0.0-97.0","3A4NIXBJ77LLE1D4CDDZL9OC9USLM9","A3N0QZ9ZKUCTCQ","3566S7OX5D5NH74JOVOPTTMK8IR17K","","null","<img src=""img/land1.png"" style=""width:200px; border:14px solid green;"">","null","","","","","","","","","",""
"","image-keyboard-response","98","58160","0.0-98.0","3A4NIXBJ77LLE1D4CDDZL9OC9USLM9","A3N0QZ9ZKUCTCQ","3566S7OX5D5NH74JOVOPTTMK8IR17K","","385.6000000014901","img/land1.png","74","386.80000000447035","1","1","1","2","0.8,0.2,0.2,0.2,0.8,0.2,0.2,0.2,0.8","0.8,0.2,0.2,0.2,0.8,0.2,0.2,0.2,0.8","1","",""
"","html-keyboard-response","99","58462","0.0-99.0","3A4NIXBJ77LLE1D4CDDZL9OC9USLM9","A3N0QZ9ZKUCTCQ","3566S7OX5D5NH74JOVOPTTMK8IR17K","","null","<img src=""img/land1.png"" style=""width:200px; border:14px solid green;"">","null","","","","","","","","","",""
"","image-keyboard-response","100","58845","0.0-100.0","3A4NIXBJ77LLE1D4CDDZL9OC9USLM9","A3N0QZ9ZKUCTCQ","3566S7OX5D5NH74JOVOPTTMK8IR17K","","380.80000000447035","img/land1.png","74","382.1000000014901","1","1","1","2","0.8,0.2,0.2,0.2,0.8,0.2,0.2,0.2,0.8","0.8,0.2,0.2,0.2,0.8,0.2,0.2,0.2,0.8","1","",""
"","html-keyboard-response","101","59148","0.0-101.0","3A4NIXBJ77LLE1D4CDDZL9OC9USLM9","A3N0QZ9ZKUCTCQ","3566S7OX5D5NH74JOVOPTTMK8IR17K","","null","<img src=""img/land1.png"" style=""width:200px; border:14px solid green;"">","null","","","","","","","","","",""
"","image-keyboard-response","102","59474","0.0-102.0","3A4NIXBJ77LLE1D4CDDZL9OC9USLM9","A3N0QZ9ZKUCTCQ","3566S7OX5D5NH74JOVOPTTMK8IR17K","","324.5","img/land1.png","74","325.8999999985099","1","1","1","2","0.8,0.2,0.2,0.2,0.8,0.2,0.2,0.2,0.8","0.8,0.2,0.2,0.2,0.8,0.2,0.2,0.2,0.8","1","",""
"","html-keyboard-response","103","59777","0.0-103.0","3A4NIXBJ77LLE1D4CDDZL9OC9USLM9","A3N0QZ9ZKUCTCQ","3566S7OX5D5NH74JOVOPTTMK8IR17K","","null","<img src=""img/land1.png"" style=""width:200px; border:14px solid green;"">","null","","","","","","","","","",""
"","image-keyboard-response","104","60103","0.0-104.0","3A4NIXBJ77LLE1D4CDDZL9OC9USLM9","A3N0QZ9ZKUCTCQ","3566S7OX5D5NH74JOVOPTTMK8IR17K","","324.30000000447035","img/land1.png","74","325.70000000298023","1","1","1","2","0.8,0.2,0.2,0.2,0.8,0.2,0.2,0.2,0.8","0.8,0.2,0.2,0.2,0.8,0.2,0.2,0.2,0.8","1","",""
"","html-keyboard-response","105","60405","0.0-105.0","3A4NIXBJ77LLE1D4CDDZL9OC9USLM9","A3N0QZ9ZKUCTCQ","3566S7OX5D5NH74JOVOPTTMK8IR17K","","null","<img src=""img/land1.png"" style=""width:200px; border:14px solid green;"">","null","","","","","","","","","",""
"","image-keyboard-response","106","60757","0.0-106.0","3A4NIXBJ77LLE1D4CDDZL9OC9USLM9","A3N0QZ9ZKUCTCQ","3566S7OX5D5NH74JOVOPTTMK8IR17K","","351.1000000014901","img/land1.png","74","352.29999999701977","1","1","1","2","0.8,0.2,0.2,0.2,0.8,0.2,0.2,0.2,0.8","0.8,0.2,0.2,0.2,0.8,0.2,0.2,0.2,0.8","1","",""
"","html-keyboard-response","107","61060","0.0-107.0","3A4NIXBJ77LLE1D4CDDZL9OC9USLM9","A3N0QZ9ZKUCTCQ","3566S7OX5D5NH74JOVOPTTMK8IR17K","","null","<img src=""img/land1.png"" style=""width:200px; border:14px solid green;"">","null","","","","","","","","","",""
"","image-keyboard-response","108","61535","0.0-108.0","3A4NIXBJ77LLE1D4CDDZL9OC9USLM9","A3N0QZ9ZKUCTCQ","3566S7OX5D5NH74JOVOPTTMK8IR17K","","473.8999999985099","img/land5.png","75","475","2","0","3","2","0.8,0.2,0.2,0.2,0.8,0.2,0.2,0.2,0.8","0.8,0.2,0.2,0.2,0.8,0.2,0.2,0.2,0.8","1","",""
"","html-keyboard-response","109","61849","0.0-109.0","3A4NIXBJ77LLE1D4CDDZL9OC9USLM9","A3N0QZ9ZKUCTCQ","3566S7OX5D5NH74JOVOPTTMK8IR17K","","null","<img src=""img/land5.png"" style=""width:200px;border:14px solid red;"">","null","","","","","","","","","",""
"","image-keyboard-response","110","62379","0.0-110.0","3A4NIXBJ77LLE1D4CDDZL9OC9USLM9","A3N0QZ9ZKUCTCQ","3566S7OX5D5NH74JOVOPTTMK8IR17K","","528.3999999985099","img/land5.png","76","529.8000000044703","3","0","3","2","0.8,0.2,0.2,0.2,0.8,0.2,0.2,0.2,0.8","0.8,0.2,0.2,0.2,0.8,0.2,0.2,0.2,0.8","1","",""
"","html-keyboard-response","111","62682","0.0-111.0","3A4NIXBJ77LLE1D4CDDZL9OC9USLM9","A3N0QZ9ZKUCTCQ","3566S7OX5D5NH74JOVOPTTMK8IR17K","","null","<img src=""img/land5.png"" style=""width:200px;border:14px solid red;"">","null","","","","","","","","","",""
"","image-keyboard-response","112","63378","0.0-112.0","3A4NIXBJ77LLE1D4CDDZL9OC9USLM9","A3N0QZ9ZKUCTCQ","3566S7OX5D5NH74JOVOPTTMK8IR17K","","694.2000000029802","img/land1.png","74","695.5","1","0","1","2","0.8,0.2,0.2,0.2,0.8,0.2,0.2,0.2,0.8","0.8,0.2,0.2,0.2,0.8,0.2,0.2,0.2,0.8","1","",""
"","html-keyboard-response","113","63685","0.0-113.0","3A4NIXBJ77LLE1D4CDDZL9OC9USLM9","A3N0QZ9ZKUCTCQ","3566S7OX5D5NH74JOVOPTTMK8IR17K","","null","<img src=""img/land1.png"" style=""width:200px;border:14px solid red;"">","null","","","","","","","","","",""
"","image-keyboard-response","114","64007","0.0-114.0","3A4NIXBJ77LLE1D4CDDZL9OC9USLM9","A3N0QZ9ZKUCTCQ","3566S7OX5D5NH74JOVOPTTMK8IR17K","","320.1000000014901","img/land1.png","74","321.6000000014901","1","1","1","2","0.8,0.2,0.2,0.2,0.8,0.2,0.2,0.2,0.8","0.8,0.2,0.2,0.2,0.8,0.2,0.2,0.2,0.8","1","",""
"","html-keyboard-response","115","64310","0.0-115.0","3A4NIXBJ77LLE1D4CDDZL9OC9USLM9","A3N0QZ9ZKUCTCQ","3566S7OX5D5NH74JOVOPTTMK8IR17K","","null","<img src=""img/land1.png"" style=""width:200px; border:14px solid green;"">","null","","","","","","","","","",""
"","image-keyboard-response","116","64661","0.0-116.0","3A4NIXBJ77LLE1D4CDDZL9OC9USLM9","A3N0QZ9ZKUCTCQ","3566S7OX5D5NH74JOVOPTTMK8IR17K","","349.3999999985099","img/land1.png","74","350.70000000298023","1","1","1","2","0.8,0.2,0.2,0.2,0.8,0.2,0.2,0.2,0.8","0.8,0.2,0.2,0.2,0.8,0.2,0.2,0.2,0.8","1","",""
"","html-keyboard-response","117","64963","0.0-117.0","3A4NIXBJ77LLE1D4CDDZL9OC9USLM9","A3N0QZ9ZKUCTCQ","3566S7OX5D5NH74JOVOPTTMK8IR17K","","null","<img src=""img/land1.png"" style=""width:200px; border:14px solid green;"">","null","","","","","","","","","",""
"","image-keyboard-response","118","65544","0.0-118.0","3A4NIXBJ77LLE1D4CDDZL9OC9USLM9","A3N0QZ9ZKUCTCQ","3566S7OX5D5NH74JOVOPTTMK8IR17K","","579.7000000029802","img/land5.png","74","581","1","0","3","2","0.8,0.2,0.2,0.2,0.8,0.2,0.2,0.2,0.8","0.8,0.2,0.2,0.2,0.8,0.2,0.2,0.2,0.8","1","",""
"","html-keyboard-response","119","65847","0.0-119.0","3A4NIXBJ77LLE1D4CDDZL9OC9USLM9","A3N0QZ9ZKUCTCQ","3566S7OX5D5NH74JOVOPTTMK8IR17K","","null","<img src=""img/land5.png"" style=""width:200px;border:14px solid red;"">","null","","","","","","","","","",""
"","image-keyboard-response","120","66493","0.0-120.0","3A4NIXBJ77LLE1D4CDDZL9OC9USLM9","A3N0QZ9ZKUCTCQ","3566S7OX5D5NH74JOVOPTTMK8IR17K","","645.1000000014901","img/land3.png","74","646.5","1","0","2","2","0.8,0.2,0.2,0.2,0.8,0.2,0.2,0.2,0.8","0.8,0.2,0.2,0.2,0.8,0.2,0.2,0.2,0.8","1","",""
"","html-keyboard-response","121","66796","0.0-121.0","3A4NIXBJ77LLE1D4CDDZL9OC9USLM9","A3N0QZ9ZKUCTCQ","3566S7OX5D5NH74JOVOPTTMK8IR17K","","null","<img src=""img/land3.png"" style=""width:200px;border:14px solid red;"">","null","","","","","","","","","",""
"","image-keyboard-response","122","67671","0.0-122.0","3A4NIXBJ77LLE1D4CDDZL9OC9USLM9","A3N0QZ9ZKUCTCQ","3566S7OX5D5NH74JOVOPTTMK8IR17K","","873.1999999955297","img/land3.png","75","874.5999999940395","2","0","2","2","0.8,0.2,0.2,0.2,0.8,0.2,0.2,0.2,0.8","0.8,0.2,0.2,0.2,0.8,0.2,0.2,0.2,0.8","1","",""
"","html-keyboard-response","123","67973","0.0-123.0","3A4NIXBJ77LLE1D4CDDZL9OC9USLM9","A3N0QZ9ZKUCTCQ","3566S7OX5D5NH74JOVOPTTMK8IR17K","","null","<img src=""img/land3.png"" style=""width:200px;border:14px solid red;"">","null","","","","","","","","","",""
"","image-keyboard-response","124","68240","0.0-124.0","3A4NIXBJ77LLE1D4CDDZL9OC9USLM9","A3N0QZ9ZKUCTCQ","3566S7OX5D5NH74JOVOPTTMK8IR17K","","265","img/land1.png","76","266.29999999701977","3","1","1","2","0.8,0.2,0.2,0.2,0.8,0.2,0.2,0.2,0.8","0.8,0.2,0.2,0.2,0.8,0.2,0.2,0.2,0.8","1","",""
"","html-keyboard-response","125","68542","0.0-125.0","3A4NIXBJ77LLE1D4CDDZL9OC9USLM9","A3N0QZ9ZKUCTCQ","3566S7OX5D5NH74JOVOPTTMK8IR17K","","null","<img src=""img/land1.png"" style=""width:200px; border:14px solid green;"">","null","","","","","","","","","",""
"","image-keyboard-response","126","69228","0.0-126.0","3A4NIXBJ77LLE1D4CDDZL9OC9USLM9","A3N0QZ9ZKUCTCQ","3566S7OX5D5NH74JOVOPTTMK8IR17K","","684.3999999985099","img/land5.png","76","685.7999999970198","3","0","3","2","0.8,0.2,0.2,0.2,0.8,0.2,0.2,0.2,0.8","0.8,0.2,0.2,0.2,0.8,0.2,0.2,0.2,0.8","1","",""
"","html-keyboard-response","127","69530","0.0-127.0","3A4NIXBJ77LLE1D4CDDZL9OC9USLM9","A3N0QZ9ZKUCTCQ","3566S7OX5D5NH74JOVOPTTMK8IR17K","","null","<img src=""img/land5.png"" style=""width:200px;border:14px solid red;"">","null","","","","","","","","","",""
"","image-keyboard-response","128","70202","0.0-128.0","3A4NIXBJ77LLE1D4CDDZL9OC9USLM9","A3N0QZ9ZKUCTCQ","3566S7OX5D5NH74JOVOPTTMK8IR17K","","670.7999999970198","img/land5.png","74","672","1","0","3","2","0.8,0.2,0.2,0.2,0.8,0.2,0.2,0.2,0.8","0.8,0.2,0.2,0.2,0.8,0.2,0.2,0.2,0.8","1","",""
"","html-keyboard-response","129","70515","0.0-129.0","3A4NIXBJ77LLE1D4CDDZL9OC9USLM9","A3N0QZ9ZKUCTCQ","3566S7OX5D5NH74JOVOPTTMK8IR17K","","null","<img src=""img/land5.png"" style=""width:200px;border:14px solid red;"">","null","","","","","","","","","",""
"","image-keyboard-response","130","71075","0.0-130.0","3A4NIXBJ77LLE1D4CDDZL9OC9USLM9","A3N0QZ9ZKUCTCQ","3566S7OX5D5NH74JOVOPTTMK8IR17K","","558.6999999955297","img/land1.png","75","560","2","0","1","2","0.8,0.2,0.2,0.2,0.8,0.2,0.2,0.2,0.8","0.8,0.2,0.2,0.2,0.8,0.2,0.2,0.2,0.8","1","",""
"","html-keyboard-response","131","71378","0.0-131.0","3A4NIXBJ77LLE1D4CDDZL9OC9USLM9","A3N0QZ9ZKUCTCQ","3566S7OX5D5NH74JOVOPTTMK8IR17K","","null","<img src=""img/land1.png"" style=""width:200px;border:14px solid red;"">","null","","","","","","","","","",""
"","image-keyboard-response","132","72548","0.0-132.0","3A4NIXBJ77LLE1D4CDDZL9OC9USLM9","A3N0QZ9ZKUCTCQ","3566S7OX5D5NH74JOVOPTTMK8IR17K","","1168.7999999970198","img/land5.png","76","1170.1999999955297","3","1","3","2","0.8,0.2,0.2,0.2,0.8,0.2,0.2,0.2,0.8","0.8,0.2,0.2,0.2,0.8,0.2,0.2,0.2,0.8","1","",""
"","html-keyboard-response","133","72851","0.0-133.0","3A4NIXBJ77LLE1D4CDDZL9OC9USLM9","A3N0QZ9ZKUCTCQ","3566S7OX5D5NH74JOVOPTTMK8IR17K","","null","<img src=""img/land5.png"" style=""width:200px; border:14px solid green;"">","null","","","","","","","","","",""
"","image-keyboard-response","134","73686","0.0-134.0","3A4NIXBJ77LLE1D4CDDZL9OC9USLM9","A3N0QZ9ZKUCTCQ","3566S7OX5D5NH74JOVOPTTMK8IR17K","","834.2000000029802","img/land3.png","75","835.2999999970198","2","1","2","2","0.8,0.2,0.2,0.2,0.8,0.2,0.2,0.2,0.8","0.8,0.2,0.2,0.2,0.8,0.2,0.2,0.2,0.8","1","",""
"","html-keyboard-response","135","73988","0.0-135.0","3A4NIXBJ77LLE1D4CDDZL9OC9USLM9","A3N0QZ9ZKUCTCQ","3566S7OX5D5NH74JOVOPTTMK8IR17K","","null","<img src=""img/land3.png"" style=""width:200px; border:14px solid green;"">","null","","","","","","","","","",""
"","image-keyboard-response","136","74651","0.0-136.0","3A4NIXBJ77LLE1D4CDDZL9OC9USLM9","A3N0QZ9ZKUCTCQ","3566S7OX5D5NH74JOVOPTTMK8IR17K","","661.1000000014901","img/land1.png","74","662.5","1","1","1","2","0.8,0.2,0.2,0.2,0.8,0.2,0.2,0.2,0.8","0.8,0.2,0.2,0.2,0.8,0.2,0.2,0.2,0.8","1","",""
"","html-keyboard-response","137","74953","0.0-137.0","3A4NIXBJ77LLE1D4CDDZL9OC9USLM9","A3N0QZ9ZKUCTCQ","3566S7OX5D5NH74JOVOPTTMK8IR17K","","null","<img src=""img/land1.png"" style=""width:200px; border:14px solid green;"">","null","","","","","","","","","",""
"","image-keyboard-response","138","75434","0.0-138.0","3A4NIXBJ77LLE1D4CDDZL9OC9USLM9","A3N0QZ9ZKUCTCQ","3566S7OX5D5NH74JOVOPTTMK8IR17K","","479.69999999552965","img/land3.png","75","481","2","0","2","2","0.8,0.2,0.2,0.2,0.8,0.2,0.2,0.2,0.8","0.8,0.2,0.2,0.2,0.8,0.2,0.2,0.2,0.8","1","",""
"","html-keyboard-response","139","75744","0.0-139.0","3A4NIXBJ77LLE1D4CDDZL9OC9USLM9","A3N0QZ9ZKUCTCQ","3566S7OX5D5NH74JOVOPTTMK8IR17K","","null","<img src=""img/land3.png"" style=""width:200px;border:14px solid red;"">","null","","","","","","","","","",""
"","image-keyboard-response","140","76408","0.0-140.0","3A4NIXBJ77LLE1D4CDDZL9OC9USLM9","A3N0QZ9ZKUCTCQ","3566S7OX5D5NH74JOVOPTTMK8IR17K","","662.3000000044703","img/land1.png","74","663.6000000014901","1","1","1","2","0.8,0.2,0.2,0.2,0.8,0.2,0.2,0.2,0.8","0.8,0.2,0.2,0.2,0.8,0.2,0.2,0.2,0.8","1","",""
"","html-keyboard-response","141","76710","0.0-141.0","3A4NIXBJ77LLE1D4CDDZL9OC9USLM9","A3N0QZ9ZKUCTCQ","3566S7OX5D5NH74JOVOPTTMK8IR17K","","null","<img src=""img/land1.png"" style=""width:200px; border:14px solid green;"">","null","","","","","","","","","",""
"","image-keyboard-response","142","77111","0.0-142.0","3A4NIXBJ77LLE1D4CDDZL9OC9USLM9","A3N0QZ9ZKUCTCQ","3566S7OX5D5NH74JOVOPTTMK8IR17K","","399.69999999552965","img/land1.png","74","400.80000000447035","1","0","1","2","0.8,0.2,0.2,0.2,0.8,0.2,0.2,0.2,0.8","0.8,0.2,0.2,0.2,0.8,0.2,0.2,0.2,0.8","1","",""
"","html-keyboard-response","143","77413","0.0-143.0","3A4NIXBJ77LLE1D4CDDZL9OC9USLM9","A3N0QZ9ZKUCTCQ","3566S7OX5D5NH74JOVOPTTMK8IR17K","","null","<img src=""img/land1.png"" style=""width:200px;border:14px solid red;"">","null","","","","","","","","","",""
"","image-keyboard-response","144","77915","0.0-144.0","3A4NIXBJ77LLE1D4CDDZL9OC9USLM9","A3N0QZ9ZKUCTCQ","3566S7OX5D5NH74JOVOPTTMK8IR17K","","500.20000000298023","img/land3.png","75","501.5","2","1","2","2","0.8,0.2,0.2,0.2,0.8,0.2,0.2,0.2,0.8","0.8,0.2,0.2,0.2,0.8,0.2,0.2,0.2,0.8","1","",""
"","html-keyboard-response","145","78218","0.0-145.0","3A4NIXBJ77LLE1D4CDDZL9OC9USLM9","A3N0QZ9ZKUCTCQ","3566S7OX5D5NH74JOVOPTTMK8IR17K","","null","<img src=""img/land3.png"" style=""width:200px; border:14px solid green;"">","null","","","","","","","","","",""
"","image-keyboard-response","146","78804","0.0-146.0","3A4NIXBJ77LLE1D4CDDZL9OC9USLM9","A3N0QZ9ZKUCTCQ","3566S7OX5D5NH74JOVOPTTMK8IR17K","","584.6999999955297","img/land5.png","76","585.9000000059605","3","1","3","2","0.8,0.2,0.2,0.2,0.8,0.2,0.2,0.2,0.8","0.8,0.2,0.2,0.2,0.8,0.2,0.2,0.2,0.8","1","",""
"","html-keyboard-response","147","79106","0.0-147.0","3A4NIXBJ77LLE1D4CDDZL9OC9USLM9","A3N0QZ9ZKUCTCQ","3566S7OX5D5NH74JOVOPTTMK8IR17K","","null","<img src=""img/land5.png"" style=""width:200px; border:14px solid green;"">","null","","","","","","","","","",""
"","image-keyboard-response","148","79502","0.0-148.0","3A4NIXBJ77LLE1D4CDDZL9OC9USLM9","A3N0QZ9ZKUCTCQ","3566S7OX5D5NH74JOVOPTTMK8IR17K","","394.20000000298023","img/land5.png","76","395.5","3","1","3","2","0.8,0.2,0.2,0.2,0.8,0.2,0.2,0.2,0.8","0.8,0.2,0.2,0.2,0.8,0.2,0.2,0.2,0.8","1","",""
"","html-keyboard-response","149","79805","0.0-149.0","3A4NIXBJ77LLE1D4CDDZL9OC9USLM9","A3N0QZ9ZKUCTCQ","3566S7OX5D5NH74JOVOPTTMK8IR17K","","null","<img src=""img/land5.png"" style=""width:200px; border:14px solid green;"">","null","","","","","","","","","",""
"","image-keyboard-response","150","80361","0.0-150.0","3A4NIXBJ77LLE1D4CDDZL9OC9USLM9","A3N0QZ9ZKUCTCQ","3566S7OX5D5NH74JOVOPTTMK8IR17K","","555.2000000029802","img/land1.png","75","556.5","2","0","1","2","0.8,0.2,0.2,0.2,0.8,0.2,0.2,0.2,0.8","0.8,0.2,0.2,0.2,0.8,0.2,0.2,0.2,0.8","1","",""
"","html-keyboard-response","151","80664","0.0-151.0","3A4NIXBJ77LLE1D4CDDZL9OC9USLM9","A3N0QZ9ZKUCTCQ","3566S7OX5D5NH74JOVOPTTMK8IR17K","","null","<img src=""img/land1.png"" style=""width:200px;border:14px solid red;"">","null","","","","","","","","","",""
"","image-keyboard-response","152","80961","0.0-152.0","3A4NIXBJ77LLE1D4CDDZL9OC9USLM9","A3N0QZ9ZKUCTCQ","3566S7OX5D5NH74JOVOPTTMK8IR17K","","293.6000000014901","img/land1.png","74","296.29999999701977","1","1","1","2","0.8,0.2,0.2,0.2,0.8,0.2,0.2,0.2,0.8","0.8,0.2,0.2,0.2,0.8,0.2,0.2,0.2,0.8","1","",""
"","html-keyboard-response","153","81262","0.0-153.0","3A4NIXBJ77LLE1D4CDDZL9OC9USLM9","A3N0QZ9ZKUCTCQ","3566S7OX5D5NH74JOVOPTTMK8IR17K","","null","<img src=""img/land1.png"" style=""width:200px; border:14px solid green;"">","null","","","","","","","","","",""
"","image-keyboard-response","154","81949","0.0-154.0","3A4NIXBJ77LLE1D4CDDZL9OC9USLM9","A3N0QZ9ZKUCTCQ","3566S7OX5D5NH74JOVOPTTMK8IR17K","","685.2000000029802","img/land5.png","76","686.6000000014901","3","1","3","2","0.8,0.2,0.2,0.2,0.8,0.2,0.2,0.2,0.8","0.8,0.2,0.2,0.2,0.8,0.2,0.2,0.2,0.8","1","",""
"","html-keyboard-response","155","82251","0.0-155.0","3A4NIXBJ77LLE1D4CDDZL9OC9USLM9","A3N0QZ9ZKUCTCQ","3566S7OX5D5NH74JOVOPTTMK8IR17K","","null","<img src=""img/land5.png"" style=""width:200px; border:14px solid green;"">","null","","","","","","","","","",""
"","image-keyboard-response","156","82899","0.0-156.0","3A4NIXBJ77LLE1D4CDDZL9OC9USLM9","A3N0QZ9ZKUCTCQ","3566S7OX5D5NH74JOVOPTTMK8IR17K","","646.2000000029802","img/land1.png","76","647.6000000014901","3","0","1","2","0.8,0.2,0.2,0.2,0.8,0.2,0.2,0.2,0.8","0.8,0.2,0.2,0.2,0.8,0.2,0.2,0.2,0.8","1","",""
"","html-keyboard-response","157","83201","0.0-157.0","3A4NIXBJ77LLE1D4CDDZL9OC9USLM9","A3N0QZ9ZKUCTCQ","3566S7OX5D5NH74JOVOPTTMK8IR17K","","null","<img src=""img/land1.png"" style=""width:200px;border:14px solid red;"">","null","","","","","","","","","",""
"","image-keyboard-response","158","83981","0.0-158.0","3A4NIXBJ77LLE1D4CDDZL9OC9USLM9","A3N0QZ9ZKUCTCQ","3566S7OX5D5NH74JOVOPTTMK8IR17K","","778.5","img/land5.png","76","779.8999999985099","3","1","3","2","0.8,0.2,0.2,0.2,0.8,0.2,0.2,0.2,0.8","0.8,0.2,0.2,0.2,0.8,0.2,0.2,0.2,0.8","1","",""
"","html-keyboard-response","159","84283","0.0-159.0","3A4NIXBJ77LLE1D4CDDZL9OC9USLM9","A3N0QZ9ZKUCTCQ","3566S7OX5D5NH74JOVOPTTMK8IR17K","","null","<img src=""img/land5.png"" style=""width:200px; border:14px solid green;"">","null","","","","","","","","","",""
"","image-keyboard-response","160","84893","0.0-160.0","3A4NIXBJ77LLE1D4CDDZL9OC9USLM9","A3N0QZ9ZKUCTCQ","3566S7OX5D5NH74JOVOPTTMK8IR17K","","608.7999999970198","img/land1.png","74","609.8999999985099","1","1","1","2","0.8,0.2,0.2,0.2,0.8,0.2,0.2,0.2,0.8","0.8,0.2,0.2,0.2,0.8,0.2,0.2,0.2,0.8","1","",""
"","html-keyboard-response","161","85195","0.0-161.0","3A4NIXBJ77LLE1D4CDDZL9OC9USLM9","A3N0QZ9ZKUCTCQ","3566S7OX5D5NH74JOVOPTTMK8IR17K","","null","<img src=""img/land1.png"" style=""width:200px; border:14px solid green;"">","null","","","","","","","","","",""
"","image-keyboard-response","162","85563","0.0-162.0","3A4NIXBJ77LLE1D4CDDZL9OC9USLM9","A3N0QZ9ZKUCTCQ","3566S7OX5D5NH74JOVOPTTMK8IR17K","","367.70000000298023","img/land1.png","74","368.29999999701977","1","1","1","2","0.8,0.2,0.2,0.2,0.8,0.2,0.2,0.2,0.8","0.8,0.2,0.2,0.2,0.8,0.2,0.2,0.2,0.8","1","",""
"","html-keyboard-response","163","85864","0.0-163.0","3A4NIXBJ77LLE1D4CDDZL9OC9USLM9","A3N0QZ9ZKUCTCQ","3566S7OX5D5NH74JOVOPTTMK8IR17K","","null","<img src=""img/land1.png"" style=""width:200px; border:14px solid green;"">","null","","","","","","","","","",""
"","image-keyboard-response","164","86592","0.0-164.0","3A4NIXBJ77LLE1D4CDDZL9OC9USLM9","A3N0QZ9ZKUCTCQ","3566S7OX5D5NH74JOVOPTTMK8IR17K","","725.5","img/land5.png","76","727.0999999940395","3","1","3","2","0.8,0.2,0.2,0.2,0.8,0.2,0.2,0.2,0.8","0.8,0.2,0.2,0.2,0.8,0.2,0.2,0.2,0.8","1","",""
"","html-keyboard-response","165","86894","0.0-165.0","3A4NIXBJ77LLE1D4CDDZL9OC9USLM9","A3N0QZ9ZKUCTCQ","3566S7OX5D5NH74JOVOPTTMK8IR17K","","null","<img src=""img/land5.png"" style=""width:200px; border:14px solid green;"">","null","","","","","","","","","",""
"","image-keyboard-response","166","87446","0.0-166.0","3A4NIXBJ77LLE1D4CDDZL9OC9USLM9","A3N0QZ9ZKUCTCQ","3566S7OX5D5NH74JOVOPTTMK8IR17K","","550.5","img/land1.png","74","551.7000000029802","1","1","1","2","0.8,0.2,0.2,0.2,0.8,0.2,0.2,0.2,0.8","0.8,0.2,0.2,0.2,0.8,0.2,0.2,0.2,0.8","1","",""
"","html-keyboard-response","167","87763","0.0-167.0","3A4NIXBJ77LLE1D4CDDZL9OC9USLM9","A3N0QZ9ZKUCTCQ","3566S7OX5D5NH74JOVOPTTMK8IR17K","","null","<img src=""img/land1.png"" style=""width:200px; border:14px solid green;"">","null","","","","","","","","","",""
"","image-keyboard-response","168","88114","0.0-168.0","3A4NIXBJ77LLE1D4CDDZL9OC9USLM9","A3N0QZ9ZKUCTCQ","3566S7OX5D5NH74JOVOPTTMK8IR17K","","349.70000000298023","img/land1.png","74","350.70000000298023","1","0","1","2","0.8,0.2,0.2,0.2,0.8,0.2,0.2,0.2,0.8","0.8,0.2,0.2,0.2,0.8,0.2,0.2,0.2,0.8","1","",""
"","html-keyboard-response","169","88416","0.0-169.0","3A4NIXBJ77LLE1D4CDDZL9OC9USLM9","A3N0QZ9ZKUCTCQ","3566S7OX5D5NH74JOVOPTTMK8IR17K","","null","<img src=""img/land1.png"" style=""width:200px;border:14px solid red;"">","null","","","","","","","","","",""
"","image-keyboard-response","170","88799","0.0-170.0","3A4NIXBJ77LLE1D4CDDZL9OC9USLM9","A3N0QZ9ZKUCTCQ","3566S7OX5D5NH74JOVOPTTMK8IR17K","","381.6000000014901","img/land1.png","74","383.09999999403954","1","1","1","2","0.8,0.2,0.2,0.2,0.8,0.2,0.2,0.2,0.8","0.8,0.2,0.2,0.2,0.8,0.2,0.2,0.2,0.8","1","",""
"","html-keyboard-response","171","89101","0.0-171.0","3A4NIXBJ77LLE1D4CDDZL9OC9USLM9","A3N0QZ9ZKUCTCQ","3566S7OX5D5NH74JOVOPTTMK8IR17K","","null","<img src=""img/land1.png"" style=""width:200px; border:14px solid green;"">","null","","","","","","","","","",""
"","image-keyboard-response","172","89864","0.0-172.0","3A4NIXBJ77LLE1D4CDDZL9OC9USLM9","A3N0QZ9ZKUCTCQ","3566S7OX5D5NH74JOVOPTTMK8IR17K","","761.1000000014901","img/land5.png","76","762.6000000014901","3","1","3","2","0.8,0.2,0.2,0.2,0.8,0.2,0.2,0.2,0.8","0.8,0.2,0.2,0.2,0.8,0.2,0.2,0.2,0.8","1","",""
"","html-keyboard-response","173","90166","0.0-173.0","3A4NIXBJ77LLE1D4CDDZL9OC9USLM9","A3N0QZ9ZKUCTCQ","3566S7OX5D5NH74JOVOPTTMK8IR17K","","null","<img src=""img/land5.png"" style=""width:200px; border:14px solid green;"">","null","","","","","","","","","",""
"","image-keyboard-response","174","90530","0.0-174.0","3A4NIXBJ77LLE1D4CDDZL9OC9USLM9","A3N0QZ9ZKUCTCQ","3566S7OX5D5NH74JOVOPTTMK8IR17K","","362.20000000298023","img/land5.png","76","363.3999999985099","3","1","3","2","0.8,0.2,0.2,0.2,0.8,0.2,0.2,0.2,0.8","0.8,0.2,0.2,0.2,0.8,0.2,0.2,0.2,0.8","1","",""
"","html-keyboard-response","175","90832","0.0-175.0","3A4NIXBJ77LLE1D4CDDZL9OC9USLM9","A3N0QZ9ZKUCTCQ","3566S7OX5D5NH74JOVOPTTMK8IR17K","","null","<img src=""img/land5.png"" style=""width:200px; border:14px solid green;"">","null","","","","","","","","","",""
"","image-keyboard-response","176","91504","0.0-176.0","3A4NIXBJ77LLE1D4CDDZL9OC9USLM9","A3N0QZ9ZKUCTCQ","3566S7OX5D5NH74JOVOPTTMK8IR17K","","670.2000000029802","img/land1.png","74","671.7000000029802","1","1","1","2","0.8,0.2,0.2,0.2,0.8,0.2,0.2,0.2,0.8","0.8,0.2,0.2,0.2,0.8,0.2,0.2,0.2,0.8","1","",""
"","html-keyboard-response","177","91806","0.0-177.0","3A4NIXBJ77LLE1D4CDDZL9OC9USLM9","A3N0QZ9ZKUCTCQ","3566S7OX5D5NH74JOVOPTTMK8IR17K","","null","<img src=""img/land1.png"" style=""width:200px; border:14px solid green;"">","null","","","","","","","","","",""
"","image-keyboard-response","178","92184","0.0-178.0","3A4NIXBJ77LLE1D4CDDZL9OC9USLM9","A3N0QZ9ZKUCTCQ","3566S7OX5D5NH74JOVOPTTMK8IR17K","","376.20000000298023","img/land1.png","74","377.30000000447035","1","0","1","2","0.8,0.2,0.2,0.2,0.8,0.2,0.2,0.2,0.8","0.8,0.2,0.2,0.2,0.8,0.2,0.2,0.2,0.8","1","",""
"","html-keyboard-response","179","92486","0.0-179.0","3A4NIXBJ77LLE1D4CDDZL9OC9USLM9","A3N0QZ9ZKUCTCQ","3566S7OX5D5NH74JOVOPTTMK8IR17K","","null","<img src=""img/land1.png"" style=""width:200px;border:14px solid red;"">","null","","","","","","","","","",""
"","image-keyboard-response","180","93212","0.0-180.0","3A4NIXBJ77LLE1D4CDDZL9OC9USLM9","A3N0QZ9ZKUCTCQ","3566S7OX5D5NH74JOVOPTTMK8IR17K","","723.7999999970198","img/land3.png","75","725.2999999970198","2","0","2","2","0.8,0.2,0.2,0.2,0.8,0.2,0.2,0.2,0.8","0.8,0.2,0.2,0.2,0.8,0.2,0.2,0.2,0.8","1","",""
"","html-keyboard-response","181","93514","0.0-181.0","3A4NIXBJ77LLE1D4CDDZL9OC9USLM9","A3N0QZ9ZKUCTCQ","3566S7OX5D5NH74JOVOPTTMK8IR17K","","null","<img src=""img/land3.png"" style=""width:200px;border:14px solid red;"">","null","","","","","","","","","",""
"","image-keyboard-response","182","93847","0.0-182.0","3A4NIXBJ77LLE1D4CDDZL9OC9USLM9","A3N0QZ9ZKUCTCQ","3566S7OX5D5NH74JOVOPTTMK8IR17K","","331.79999999701977","img/land3.png","75","332.69999999552965","2","1","2","2","0.8,0.2,0.2,0.2,0.8,0.2,0.2,0.2,0.8","0.8,0.2,0.2,0.2,0.8,0.2,0.2,0.2,0.8","1","",""
"","html-keyboard-response","183","94148","0.0-183.0","3A4NIXBJ77LLE1D4CDDZL9OC9USLM9","A3N0QZ9ZKUCTCQ","3566S7OX5D5NH74JOVOPTTMK8IR17K","","null","<img src=""img/land3.png"" style=""width:200px; border:14px solid green;"">","null","","","","","","","","","",""
"","image-keyboard-response","184","94524","0.0-184.0","3A4NIXBJ77LLE1D4CDDZL9OC9USLM9","A3N0QZ9ZKUCTCQ","3566S7OX5D5NH74JOVOPTTMK8IR17K","","373.79999999701977","img/land3.png","75","374.8999999985099","2","1","2","2","0.8,0.2,0.2,0.2,0.8,0.2,0.2,0.2,0.8","0.8,0.2,0.2,0.2,0.8,0.2,0.2,0.2,0.8","1","",""
"","html-keyboard-response","185","94838","0.0-185.0","3A4NIXBJ77LLE1D4CDDZL9OC9USLM9","A3N0QZ9ZKUCTCQ","3566S7OX5D5NH74JOVOPTTMK8IR17K","","null","<img src=""img/land3.png"" style=""width:200px; border:14px solid green;"">","null","","","","","","","","","",""
"","image-keyboard-response","186","95239","0.0-186.0","3A4NIXBJ77LLE1D4CDDZL9OC9USLM9","A3N0QZ9ZKUCTCQ","3566S7OX5D5NH74JOVOPTTMK8IR17K","","398.80000000447035","img/land3.png","75","400.1000000014901","2","1","2","2","0.8,0.2,0.2,0.2,0.8,0.2,0.2,0.2,0.8","0.8,0.2,0.2,0.2,0.8,0.2,0.2,0.2,0.8","1","",""
"","html-keyboard-response","187","95541","0.0-187.0","3A4NIXBJ77LLE1D4CDDZL9OC9USLM9","A3N0QZ9ZKUCTCQ","3566S7OX5D5NH74JOVOPTTMK8IR17K","","null","<img src=""img/land3.png"" style=""width:200px; border:14px solid green;"">","null","","","","","","","","","",""
"","image-keyboard-response","188","96368","0.0-188.0","3A4NIXBJ77LLE1D4CDDZL9OC9USLM9","A3N0QZ9ZKUCTCQ","3566S7OX5D5NH74JOVOPTTMK8IR17K","","824.1000000014901","img/land1.png","74","825.8999999985099","1","1","1","2","0.8,0.2,0.2,0.2,0.8,0.2,0.2,0.2,0.8","0.8,0.2,0.2,0.2,0.8,0.2,0.2,0.2,0.8","1","",""
"","html-keyboard-response","189","96670","0.0-189.0","3A4NIXBJ77LLE1D4CDDZL9OC9USLM9","A3N0QZ9ZKUCTCQ","3566S7OX5D5NH74JOVOPTTMK8IR17K","","null","<img src=""img/land1.png"" style=""width:200px; border:14px solid green;"">","null","","","","","","","","","",""
"","image-keyboard-response","190","97614","0.0-190.0","3A4NIXBJ77LLE1D4CDDZL9OC9USLM9","A3N0QZ9ZKUCTCQ","3566S7OX5D5NH74JOVOPTTMK8IR17K","","942.5","img/land3.png","75","943.3999999985099","2","0","2","2","0.8,0.2,0.2,0.2,0.8,0.2,0.2,0.2,0.8","0.8,0.2,0.2,0.2,0.8,0.2,0.2,0.2,0.8","1","",""
"","html-keyboard-response","191","97916","0.0-191.0","3A4NIXBJ77LLE1D4CDDZL9OC9USLM9","A3N0QZ9ZKUCTCQ","3566S7OX5D5NH74JOVOPTTMK8IR17K","","null","<img src=""img/land3.png"" style=""width:200px;border:14px solid red;"">","null","","","","","","","","","",""
"","image-keyboard-response","192","98553","0.0-192.0","3A4NIXBJ77LLE1D4CDDZL9OC9USLM9","A3N0QZ9ZKUCTCQ","3566S7OX5D5NH74JOVOPTTMK8IR17K","","636.1000000014901","img/land1.png","74","637.1999999955297","1","1","1","2","0.8,0.2,0.2,0.2,0.8,0.2,0.2,0.2,0.8","0.8,0.2,0.2,0.2,0.8,0.2,0.2,0.2,0.8","1","",""
"","html-keyboard-response","193","98855","0.0-193.0","3A4NIXBJ77LLE1D4CDDZL9OC9USLM9","A3N0QZ9ZKUCTCQ","3566S7OX5D5NH74JOVOPTTMK8IR17K","","null","<img src=""img/land1.png"" style=""width:200px; border:14px solid green;"">","null","","","","","","","","","",""
"","image-keyboard-response","194","99243","0.0-194.0","3A4NIXBJ77LLE1D4CDDZL9OC9USLM9","A3N0QZ9ZKUCTCQ","3566S7OX5D5NH74JOVOPTTMK8IR17K","","386.20000000298023","img/land1.png","74","387.70000000298023","1","1","1","2","0.8,0.2,0.2,0.2,0.8,0.2,0.2,0.2,0.8","0.8,0.2,0.2,0.2,0.8,0.2,0.2,0.2,0.8","1","",""
"","html-keyboard-response","195","99552","0.0-195.0","3A4NIXBJ77LLE1D4CDDZL9OC9USLM9","A3N0QZ9ZKUCTCQ","3566S7OX5D5NH74JOVOPTTMK8IR17K","","null","<img src=""img/land1.png"" style=""width:200px; border:14px solid green;"">","null","","","","","","","","","",""
"","image-keyboard-response","196","100140","0.0-196.0","3A4NIXBJ77LLE1D4CDDZL9OC9USLM9","A3N0QZ9ZKUCTCQ","3566S7OX5D5NH74JOVOPTTMK8IR17K","","586.6000000014901","img/land5.png","76","588","3","1","3","2","0.8,0.2,0.2,0.2,0.8,0.2,0.2,0.2,0.8","0.8,0.2,0.2,0.2,0.8,0.2,0.2,0.2,0.8","1","",""
"","html-keyboard-response","197","100442","0.0-197.0","3A4NIXBJ77LLE1D4CDDZL9OC9USLM9","A3N0QZ9ZKUCTCQ","3566S7OX5D5NH74JOVOPTTMK8IR17K","","null","<img src=""img/land5.png"" style=""width:200px; border:14px solid green;"">","null","","","","","","","","","",""
"","image-keyboard-response","198","100773","0.0-198.0","3A4NIXBJ77LLE1D4CDDZL9OC9USLM9","A3N0QZ9ZKUCTCQ","3566S7OX5D5NH74JOVOPTTMK8IR17K","","329.79999999701977","img/land5.png","76","331","3","1","3","2","0.8,0.2,0.2,0.2,0.8,0.2,0.2,0.2,0.8","0.8,0.2,0.2,0.2,0.8,0.2,0.2,0.2,0.8","1","",""
"","html-keyboard-response","199","101075","0.0-199.0","3A4NIXBJ77LLE1D4CDDZL9OC9USLM9","A3N0QZ9ZKUCTCQ","3566S7OX5D5NH74JOVOPTTMK8IR17K","","null","<img src=""img/land5.png"" style=""width:200px; border:14px solid green;"">","null","","","","","","","","","",""
"","image-keyboard-response","200","101849","0.0-200.0","3A4NIXBJ77LLE1D4CDDZL9OC9USLM9","A3N0QZ9ZKUCTCQ","3566S7OX5D5NH74JOVOPTTMK8IR17K","","772.3000000044703","img/land1.png","74","773.7999999970198","1","0","1","2","0.8,0.2,0.2,0.2,0.8,0.2,0.2,0.2,0.8","0.8,0.2,0.2,0.2,0.8,0.2,0.2,0.2,0.8","1","",""
"","html-keyboard-response","201","102152","0.0-201.0","3A4NIXBJ77LLE1D4CDDZL9OC9USLM9","A3N0QZ9ZKUCTCQ","3566S7OX5D5NH74JOVOPTTMK8IR17K","","null","<img src=""img/land1.png"" style=""width:200px;border:14px solid red;"">","null","","","","","","","","","",""
"","image-keyboard-response","202","102557","0.0-202.0","3A4NIXBJ77LLE1D4CDDZL9OC9USLM9","A3N0QZ9ZKUCTCQ","3566S7OX5D5NH74JOVOPTTMK8IR17K","","403.40000000596046","img/land1.png","74","404.70000000298023","1","1","1","2","0.8,0.2,0.2,0.2,0.8,0.2,0.2,0.2,0.8","0.8,0.2,0.2,0.2,0.8,0.2,0.2,0.2,0.8","1","",""
"","html-keyboard-response","203","102860","0.0-203.0","3A4NIXBJ77LLE1D4CDDZL9OC9USLM9","A3N0QZ9ZKUCTCQ","3566S7OX5D5NH74JOVOPTTMK8IR17K","","null","<img src=""img/land1.png"" style=""width:200px; border:14px solid green;"">","null","","","","","","","","","",""
"","image-keyboard-response","204","103537","0.0-204.0","3A4NIXBJ77LLE1D4CDDZL9OC9USLM9","A3N0QZ9ZKUCTCQ","3566S7OX5D5NH74JOVOPTTMK8IR17K","","675.2999999970198","img/land5.png","76","676.7999999970198","3","0","3","2","0.8,0.2,0.2,0.2,0.8,0.2,0.2,0.2,0.8","0.8,0.2,0.2,0.2,0.8,0.2,0.2,0.2,0.8","1","",""
"","html-keyboard-response","205","103839","0.0-205.0","3A4NIXBJ77LLE1D4CDDZL9OC9USLM9","A3N0QZ9ZKUCTCQ","3566S7OX5D5NH74JOVOPTTMK8IR17K","","null","<img src=""img/land5.png"" style=""width:200px;border:14px solid red;"">","null","","","","","","","","","",""
"","image-keyboard-response","206","104500","0.0-206.0","3A4NIXBJ77LLE1D4CDDZL9OC9USLM9","A3N0QZ9ZKUCTCQ","3566S7OX5D5NH74JOVOPTTMK8IR17K","","658.3999999985099","img/land1.png","74","660.2999999970198","1","1","1","2","0.8,0.2,0.2,0.2,0.8,0.2,0.2,0.2,0.8","0.8,0.2,0.2,0.2,0.8,0.2,0.2,0.2,0.8","1","",""
"","html-keyboard-response","207","104803","0.0-207.0","3A4NIXBJ77LLE1D4CDDZL9OC9USLM9","A3N0QZ9ZKUCTCQ","3566S7OX5D5NH74JOVOPTTMK8IR17K","","null","<img src=""img/land1.png"" style=""width:200px; border:14px solid green;"">","null","","","","","","","","","",""
"","image-keyboard-response","208","105398","0.0-208.0","3A4NIXBJ77LLE1D4CDDZL9OC9USLM9","A3N0QZ9ZKUCTCQ","3566S7OX5D5NH74JOVOPTTMK8IR17K","","593.1000000014901","img/land3.png","75","594.7000000029802","2","1","2","2","0.8,0.2,0.2,0.2,0.8,0.2,0.2,0.2,0.8","0.8,0.2,0.2,0.2,0.8,0.2,0.2,0.2,0.8","1","",""
"","html-keyboard-response","209","105700","0.0-209.0","3A4NIXBJ77LLE1D4CDDZL9OC9USLM9","A3N0QZ9ZKUCTCQ","3566S7OX5D5NH74JOVOPTTMK8IR17K","","null","<img src=""img/land3.png"" style=""width:200px; border:14px solid green;"">","null","","","","","","","","","",""
"","image-keyboard-response","210","106321","0.0-210.0","3A4NIXBJ77LLE1D4CDDZL9OC9USLM9","A3N0QZ9ZKUCTCQ","3566S7OX5D5NH74JOVOPTTMK8IR17K","","618.6000000014901","img/land1.png","74","620","1","0","1","2","0.8,0.2,0.2,0.2,0.8,0.2,0.2,0.2,0.8","0.8,0.2,0.2,0.2,0.8,0.2,0.2,0.2,0.8","1","",""
"","html-keyboard-response","211","106623","0.0-211.0","3A4NIXBJ77LLE1D4CDDZL9OC9USLM9","A3N0QZ9ZKUCTCQ","3566S7OX5D5NH74JOVOPTTMK8IR17K","","null","<img src=""img/land1.png"" style=""width:200px;border:14px solid red;"">","null","","","","","","","","","",""
"","image-keyboard-response","212","107330","0.0-212.0","3A4NIXBJ77LLE1D4CDDZL9OC9USLM9","A3N0QZ9ZKUCTCQ","3566S7OX5D5NH74JOVOPTTMK8IR17K","","705.8999999985099","img/land5.png","76","707.5","3","1","3","2","0.8,0.2,0.2,0.2,0.8,0.2,0.2,0.2,0.8","0.8,0.2,0.2,0.2,0.8,0.2,0.2,0.2,0.8","1","",""
"","html-keyboard-response","213","107633","0.0-213.0","3A4NIXBJ77LLE1D4CDDZL9OC9USLM9","A3N0QZ9ZKUCTCQ","3566S7OX5D5NH74JOVOPTTMK8IR17K","","null","<img src=""img/land5.png"" style=""width:200px; border:14px solid green;"">","null","","","","","","","","","",""
"","image-keyboard-response","214","108204","0.0-214.0","3A4NIXBJ77LLE1D4CDDZL9OC9USLM9","A3N0QZ9ZKUCTCQ","3566S7OX5D5NH74JOVOPTTMK8IR17K","","569","img/land1.png","74","570.6999999955297","1","1","1","2","0.8,0.2,0.2,0.2,0.8,0.2,0.2,0.2,0.8","0.8,0.2,0.2,0.2,0.8,0.2,0.2,0.2,0.8","1","",""
"","html-keyboard-response","215","108506","0.0-215.0","3A4NIXBJ77LLE1D4CDDZL9OC9USLM9","A3N0QZ9ZKUCTCQ","3566S7OX5D5NH74JOVOPTTMK8IR17K","","null","<img src=""img/land1.png"" style=""width:200px; border:14px solid green;"">","null","","","","","","","","","",""
"","image-keyboard-response","216","109258","0.0-216.0","3A4NIXBJ77LLE1D4CDDZL9OC9USLM9","A3N0QZ9ZKUCTCQ","3566S7OX5D5NH74JOVOPTTMK8IR17K","","750.7999999970198","img/land5.png","76","751.7999999970198","3","1","3","2","0.8,0.2,0.2,0.2,0.8,0.2,0.2,0.2,0.8","0.8,0.2,0.2,0.2,0.8,0.2,0.2,0.2,0.8","1","",""
"","html-keyboard-response","217","109560","0.0-217.0","3A4NIXBJ77LLE1D4CDDZL9OC9USLM9","A3N0QZ9ZKUCTCQ","3566S7OX5D5NH74JOVOPTTMK8IR17K","","null","<img src=""img/land5.png"" style=""width:200px; border:14px solid green;"">","null","","","","","","","","","",""
"","image-keyboard-response","218","110315","0.0-218.0","3A4NIXBJ77LLE1D4CDDZL9OC9USLM9","A3N0QZ9ZKUCTCQ","3566S7OX5D5NH74JOVOPTTMK8IR17K","","753.5","img/land1.png","74","754.5999999940395","1","1","1","2","0.8,0.2,0.2,0.2,0.8,0.2,0.2,0.2,0.8","0.8,0.2,0.2,0.2,0.8,0.2,0.2,0.2,0.8","1","",""
"","html-keyboard-response","219","110616","0.0-219.0","3A4NIXBJ77LLE1D4CDDZL9OC9USLM9","A3N0QZ9ZKUCTCQ","3566S7OX5D5NH74JOVOPTTMK8IR17K","","null","<img src=""img/land1.png"" style=""width:200px; border:14px solid green;"">","null","","","","","","","","","",""
"","image-keyboard-response","220","111095","0.0-220.0","3A4NIXBJ77LLE1D4CDDZL9OC9USLM9","A3N0QZ9ZKUCTCQ","3566S7OX5D5NH74JOVOPTTMK8IR17K","","477.69999999552965","img/land1.png","74","478.79999999701977","1","1","1","2","0.8,0.2,0.2,0.2,0.8,0.2,0.2,0.2,0.8","0.8,0.2,0.2,0.2,0.8,0.2,0.2,0.2,0.8","1","",""
"","html-keyboard-response","221","111398","0.0-221.0","3A4NIXBJ77LLE1D4CDDZL9OC9USLM9","A3N0QZ9ZKUCTCQ","3566S7OX5D5NH74JOVOPTTMK8IR17K","","null","<img src=""img/land1.png"" style=""width:200px; border:14px solid green;"">","null","","","","","","","","","",""
"","image-keyboard-response","222","112083","0.0-222.0","3A4NIXBJ77LLE1D4CDDZL9OC9USLM9","A3N0QZ9ZKUCTCQ","3566S7OX5D5NH74JOVOPTTMK8IR17K","","684.3999999985099","img/land3.png","75","685.3999999985099","2","0","2","2","0.8,0.2,0.2,0.2,0.8,0.2,0.2,0.2,0.8","0.8,0.2,0.2,0.2,0.8,0.2,0.2,0.2,0.8","1","",""
"","html-keyboard-response","223","112394","0.0-223.0","3A4NIXBJ77LLE1D4CDDZL9OC9USLM9","A3N0QZ9ZKUCTCQ","3566S7OX5D5NH74JOVOPTTMK8IR17K","","null","<img src=""img/land3.png"" style=""width:200px;border:14px solid red;"">","null","","","","","","","","","",""
"","image-keyboard-response","224","113112","0.0-224.0","3A4NIXBJ77LLE1D4CDDZL9OC9USLM9","A3N0QZ9ZKUCTCQ","3566S7OX5D5NH74JOVOPTTMK8IR17K","","715.6999999955297","img/land1.png","74","717.1000000014901","1","0","1","2","0.8,0.2,0.2,0.2,0.8,0.2,0.2,0.2,0.8","0.8,0.2,0.2,0.2,0.8,0.2,0.2,0.2,0.8","1","",""
"","html-keyboard-response","225","113415","0.0-225.0","3A4NIXBJ77LLE1D4CDDZL9OC9USLM9","A3N0QZ9ZKUCTCQ","3566S7OX5D5NH74JOVOPTTMK8IR17K","","null","<img src=""img/land1.png"" style=""width:200px;border:14px solid red;"">","null","","","","","","","","","",""
"","image-keyboard-response","226","114071","0.0-226.0","3A4NIXBJ77LLE1D4CDDZL9OC9USLM9","A3N0QZ9ZKUCTCQ","3566S7OX5D5NH74JOVOPTTMK8IR17K","","654.7999999970198","img/land5.png","76","655.7999999970198","3","1","3","2","0.8,0.2,0.2,0.2,0.8,0.2,0.2,0.2,0.8","0.8,0.2,0.2,0.2,0.8,0.2,0.2,0.2,0.8","1","",""
"","html-keyboard-response","227","114373","0.0-227.0","3A4NIXBJ77LLE1D4CDDZL9OC9USLM9","A3N0QZ9ZKUCTCQ","3566S7OX5D5NH74JOVOPTTMK8IR17K","","null","<img src=""img/land5.png"" style=""width:200px; border:14px solid green;"">","null","","","","","","","","","",""
"","image-keyboard-response","228","115728","0.0-228.0","3A4NIXBJ77LLE1D4CDDZL9OC9USLM9","A3N0QZ9ZKUCTCQ","3566S7OX5D5NH74JOVOPTTMK8IR17K","","1353.2999999970198","img/land3.png","76","1354.6999999955297","3","0","2","2","0.8,0.2,0.2,0.2,0.8,0.2,0.2,0.2,0.8","0.8,0.2,0.2,0.2,0.8,0.2,0.2,0.2,0.8","1","",""
"","html-keyboard-response","229","116031","0.0-229.0","3A4NIXBJ77LLE1D4CDDZL9OC9USLM9","A3N0QZ9ZKUCTCQ","3566S7OX5D5NH74JOVOPTTMK8IR17K","","null","<img src=""img/land3.png"" style=""width:200px;border:14px solid red;"">","null","","","","","","","","","",""
"","image-keyboard-response","230","116716","0.0-230.0","3A4NIXBJ77LLE1D4CDDZL9OC9USLM9","A3N0QZ9ZKUCTCQ","3566S7OX5D5NH74JOVOPTTMK8IR17K","","683.5999999940395","img/land3.png","75","685.5","2","0","2","2","0.8,0.2,0.2,0.2,0.8,0.2,0.2,0.2,0.8","0.8,0.2,0.2,0.2,0.8,0.2,0.2,0.2,0.8","1","",""
"","html-keyboard-response","231","117018","0.0-231.0","3A4NIXBJ77LLE1D4CDDZL9OC9USLM9","A3N0QZ9ZKUCTCQ","3566S7OX5D5NH74JOVOPTTMK8IR17K","","null","<img src=""img/land3.png"" style=""width:200px;border:14px solid red;"">","null","","","","","","","","","",""
"","image-keyboard-response","232","117555","0.0-232.0","3A4NIXBJ77LLE1D4CDDZL9OC9USLM9","A3N0QZ9ZKUCTCQ","3566S7OX5D5NH74JOVOPTTMK8IR17K","","534.7000000029802","img/land1.png","74","536.2000000029802","1","1","1","2","0.8,0.2,0.2,0.2,0.8,0.2,0.2,0.2,0.8","0.8,0.2,0.2,0.2,0.8,0.2,0.2,0.2,0.8","1","",""
"","html-keyboard-response","233","117858","0.0-233.0","3A4NIXBJ77LLE1D4CDDZL9OC9USLM9","A3N0QZ9ZKUCTCQ","3566S7OX5D5NH74JOVOPTTMK8IR17K","","null","<img src=""img/land1.png"" style=""width:200px; border:14px solid green;"">","null","","","","","","","","","",""
"","image-keyboard-response","234","118458","0.0-234.0","3A4NIXBJ77LLE1D4CDDZL9OC9USLM9","A3N0QZ9ZKUCTCQ","3566S7OX5D5NH74JOVOPTTMK8IR17K","","598.5","img/land3.png","75","600","2","1","2","2","0.8,0.2,0.2,0.2,0.8,0.2,0.2,0.2,0.8","0.8,0.2,0.2,0.2,0.8,0.2,0.2,0.2,0.8","1","",""
"","html-keyboard-response","235","118760","0.0-235.0","3A4NIXBJ77LLE1D4CDDZL9OC9USLM9","A3N0QZ9ZKUCTCQ","3566S7OX5D5NH74JOVOPTTMK8IR17K","","null","<img src=""img/land3.png"" style=""width:200px; border:14px solid green;"">","null","","","","","","","","","",""
"","image-keyboard-response","236","119506","0.0-236.0","3A4NIXBJ77LLE1D4CDDZL9OC9USLM9","A3N0QZ9ZKUCTCQ","3566S7OX5D5NH74JOVOPTTMK8IR17K","","744.7999999970198","img/land1.png","74","745.8999999985099","1","1","1","2","0.8,0.2,0.2,0.2,0.8,0.2,0.2,0.2,0.8","0.8,0.2,0.2,0.2,0.8,0.2,0.2,0.2,0.8","1","",""
"","html-keyboard-response","237","119809","0.0-237.0","3A4NIXBJ77LLE1D4CDDZL9OC9USLM9","A3N0QZ9ZKUCTCQ","3566S7OX5D5NH74JOVOPTTMK8IR17K","","null","<img src=""img/land1.png"" style=""width:200px; border:14px solid green;"">","null","","","","","","","","","",""
"","image-keyboard-response","238","120250","0.0-238.0","3A4NIXBJ77LLE1D4CDDZL9OC9USLM9","A3N0QZ9ZKUCTCQ","3566S7OX5D5NH74JOVOPTTMK8IR17K","","438.79999999701977","img/land1.png","74","440","1","1","1","2","0.8,0.2,0.2,0.2,0.8,0.2,0.2,0.2,0.8","0.8,0.2,0.2,0.2,0.8,0.2,0.2,0.2,0.8","1","",""
"","html-keyboard-response","239","120552","0.0-239.0","3A4NIXBJ77LLE1D4CDDZL9OC9USLM9","A3N0QZ9ZKUCTCQ","3566S7OX5D5NH74JOVOPTTMK8IR17K","","null","<img src=""img/land1.png"" style=""width:200px; border:14px solid green;"">","null","","","","","","","","","",""
"","image-keyboard-response","240","121065","0.0-240.0","3A4NIXBJ77LLE1D4CDDZL9OC9USLM9","A3N0QZ9ZKUCTCQ","3566S7OX5D5NH74JOVOPTTMK8IR17K","","511.70000000298023","img/land1.png","74","512.8000000044703","1","1","1","2","0.8,0.2,0.2,0.2,0.8,0.2,0.2,0.2,0.8","0.8,0.2,0.2,0.2,0.8,0.2,0.2,0.2,0.8","1","",""
"","html-keyboard-response","241","121368","0.0-241.0","3A4NIXBJ77LLE1D4CDDZL9OC9USLM9","A3N0QZ9ZKUCTCQ","3566S7OX5D5NH74JOVOPTTMK8IR17K","","null","<img src=""img/land1.png"" style=""width:200px; border:14px solid green;"">","null","","","","","","","","","",""
"","image-keyboard-response","242","121918","0.0-242.0","3A4NIXBJ77LLE1D4CDDZL9OC9USLM9","A3N0QZ9ZKUCTCQ","3566S7OX5D5NH74JOVOPTTMK8IR17K","","548.1999999955297","img/land3.png","75","549.7999999970198","2","1","2","2","0.8,0.2,0.2,0.2,0.8,0.2,0.2,0.2,0.8","0.8,0.2,0.2,0.2,0.8,0.2,0.2,0.2,0.8","1","",""
"","html-keyboard-response","243","122222","0.0-243.0","3A4NIXBJ77LLE1D4CDDZL9OC9USLM9","A3N0QZ9ZKUCTCQ","3566S7OX5D5NH74JOVOPTTMK8IR17K","","null","<img src=""img/land3.png"" style=""width:200px; border:14px solid green;"">","null","","","","","","","","","",""
"","image-keyboard-response","244","122865","0.0-244.0","3A4NIXBJ77LLE1D4CDDZL9OC9USLM9","A3N0QZ9ZKUCTCQ","3566S7OX5D5NH74JOVOPTTMK8IR17K","","642.3999999985099","img/land5.png","76","643.5","3","1","3","2","0.8,0.2,0.2,0.2,0.8,0.2,0.2,0.2,0.8","0.8,0.2,0.2,0.2,0.8,0.2,0.2,0.2,0.8","1","",""
"","html-keyboard-response","245","123167","0.0-245.0","3A4NIXBJ77LLE1D4CDDZL9OC9USLM9","A3N0QZ9ZKUCTCQ","3566S7OX5D5NH74JOVOPTTMK8IR17K","","null","<img src=""img/land5.png"" style=""width:200px; border:14px solid green;"">","null","","","","","","","","","",""
"","image-keyboard-response","246","123811","0.0-246.0","3A4NIXBJ77LLE1D4CDDZL9OC9USLM9","A3N0QZ9ZKUCTCQ","3566S7OX5D5NH74JOVOPTTMK8IR17K","","642.1000000014901","img/land3.png","75","643.5","2","1","2","2","0.8,0.2,0.2,0.2,0.8,0.2,0.2,0.2,0.8","0.8,0.2,0.2,0.2,0.8,0.2,0.2,0.2,0.8","1","",""
"","html-keyboard-response","247","124113","0.0-247.0","3A4NIXBJ77LLE1D4CDDZL9OC9USLM9","A3N0QZ9ZKUCTCQ","3566S7OX5D5NH74JOVOPTTMK8IR17K","","null","<img src=""img/land3.png"" style=""width:200px; border:14px solid green;"">","null","","","","","","","","","",""
"","image-keyboard-response","248","124509","0.0-248.0","3A4NIXBJ77LLE1D4CDDZL9OC9USLM9","A3N0QZ9ZKUCTCQ","3566S7OX5D5NH74JOVOPTTMK8IR17K","","394.29999999701977","img/land3.png","75","395.8999999985099","2","1","2","2","0.8,0.2,0.2,0.2,0.8,0.2,0.2,0.2,0.8","0.8,0.2,0.2,0.2,0.8,0.2,0.2,0.2,0.8","1","",""
"","html-keyboard-response","249","124812","0.0-249.0","3A4NIXBJ77LLE1D4CDDZL9OC9USLM9","A3N0QZ9ZKUCTCQ","3566S7OX5D5NH74JOVOPTTMK8IR17K","","null","<img src=""img/land3.png"" style=""width:200px; border:14px solid green;"">","null","","","","","","","","","",""
"","image-keyboard-response","250","125388","0.0-250.0","3A4NIXBJ77LLE1D4CDDZL9OC9USLM9","A3N0QZ9ZKUCTCQ","3566S7OX5D5NH74JOVOPTTMK8IR17K","","574.5","img/land1.png","74","576.3000000044703","1","1","1","2","0.8,0.2,0.2,0.2,0.8,0.2,0.2,0.2,0.8","0.8,0.2,0.2,0.2,0.8,0.2,0.2,0.2,0.8","1","",""
"","html-keyboard-response","251","125691","0.0-251.0","3A4NIXBJ77LLE1D4CDDZL9OC9USLM9","A3N0QZ9ZKUCTCQ","3566S7OX5D5NH74JOVOPTTMK8IR17K","","null","<img src=""img/land1.png"" style=""width:200px; border:14px solid green;"">","null","","","","","","","","","",""
"","image-keyboard-response","252","126366","0.0-252.0","3A4NIXBJ77LLE1D4CDDZL9OC9USLM9","A3N0QZ9ZKUCTCQ","3566S7OX5D5NH74JOVOPTTMK8IR17K","","673.5","img/land5.png","76","674.8999999985099","3","1","3","2","0.8,0.2,0.2,0.2,0.8,0.2,0.2,0.2,0.8","0.8,0.2,0.2,0.2,0.8,0.2,0.2,0.2,0.8","1","",""
"","html-keyboard-response","253","126668","0.0-253.0","3A4NIXBJ77LLE1D4CDDZL9OC9USLM9","A3N0QZ9ZKUCTCQ","3566S7OX5D5NH74JOVOPTTMK8IR17K","","null","<img src=""img/land5.png"" style=""width:200px; border:14px solid green;"">","null","","","","","","","","","",""
"","image-keyboard-response","254","127330","0.0-254.0","3A4NIXBJ77LLE1D4CDDZL9OC9USLM9","A3N0QZ9ZKUCTCQ","3566S7OX5D5NH74JOVOPTTMK8IR17K","","659.1999999955297","img/land1.png","74","661.2999999970198","1","1","1","2","0.8,0.2,0.2,0.2,0.8,0.2,0.2,0.2,0.8","0.8,0.2,0.2,0.2,0.8,0.2,0.2,0.2,0.8","1","",""
"","html-keyboard-response","255","127634","0.0-255.0","3A4NIXBJ77LLE1D4CDDZL9OC9USLM9","A3N0QZ9ZKUCTCQ","3566S7OX5D5NH74JOVOPTTMK8IR17K","","null","<img src=""img/land1.png"" style=""width:200px; border:14px solid green;"">","null","","","","","","","","","",""
"","image-keyboard-response","256","128074","0.0-256.0","3A4NIXBJ77LLE1D4CDDZL9OC9USLM9","A3N0QZ9ZKUCTCQ","3566S7OX5D5NH74JOVOPTTMK8IR17K","","438.29999999701977","img/land1.png","74","440.1000000014901","1","1","1","2","0.8,0.2,0.2,0.2,0.8,0.2,0.2,0.2,0.8","0.8,0.2,0.2,0.2,0.8,0.2,0.2,0.2,0.8","1","",""
"","html-keyboard-response","257","128377","0.0-257.0","3A4NIXBJ77LLE1D4CDDZL9OC9USLM9","A3N0QZ9ZKUCTCQ","3566S7OX5D5NH74JOVOPTTMK8IR17K","","null","<img src=""img/land1.png"" style=""width:200px; border:14px solid green;"">","null","","","","","","","","","",""
"","image-keyboard-response","258","128802","0.0-258.0","3A4NIXBJ77LLE1D4CDDZL9OC9USLM9","A3N0QZ9ZKUCTCQ","3566S7OX5D5NH74JOVOPTTMK8IR17K","","423.59999999403954","img/land1.png","74","424.80000000447035","1","1","1","2","0.8,0.2,0.2,0.2,0.8,0.2,0.2,0.2,0.8","0.8,0.2,0.2,0.2,0.8,0.2,0.2,0.2,0.8","1","",""
"","html-keyboard-response","259","129104","0.0-259.0","3A4NIXBJ77LLE1D4CDDZL9OC9USLM9","A3N0QZ9ZKUCTCQ","3566S7OX5D5NH74JOVOPTTMK8IR17K","","null","<img src=""img/land1.png"" style=""width:200px; border:14px solid green;"">","null","","","","","","","","","",""
"","image-keyboard-response","260","129466","0.0-260.0","3A4NIXBJ77LLE1D4CDDZL9OC9USLM9","A3N0QZ9ZKUCTCQ","3566S7OX5D5NH74JOVOPTTMK8IR17K","","360.5","img/land1.png","74","361.8999999985099","1","1","1","2","0.8,0.2,0.2,0.2,0.8,0.2,0.2,0.2,0.8","0.8,0.2,0.2,0.2,0.8,0.2,0.2,0.2,0.8","1","",""
"","html-keyboard-response","261","129769","0.0-261.0","3A4NIXBJ77LLE1D4CDDZL9OC9USLM9","A3N0QZ9ZKUCTCQ","3566S7OX5D5NH74JOVOPTTMK8IR17K","","null","<img src=""img/land1.png"" style=""width:200px; border:14px solid green;"">","null","","","","","","","","","",""
"","image-keyboard-response","262","130120","0.0-262.0","3A4NIXBJ77LLE1D4CDDZL9OC9USLM9","A3N0QZ9ZKUCTCQ","3566S7OX5D5NH74JOVOPTTMK8IR17K","","350.19999999552965","img/land1.png","74","351.5","1","1","1","2","0.8,0.2,0.2,0.2,0.8,0.2,0.2,0.2,0.8","0.8,0.2,0.2,0.2,0.8,0.2,0.2,0.2,0.8","1","",""
"","html-keyboard-response","263","130423","0.0-263.0","3A4NIXBJ77LLE1D4CDDZL9OC9USLM9","A3N0QZ9ZKUCTCQ","3566S7OX5D5NH74JOVOPTTMK8IR17K","","null","<img src=""img/land1.png"" style=""width:200px; border:14px solid green;"">","null","","","","","","","","","",""
"","image-keyboard-response","264","130755","0.0-264.0","3A4NIXBJ77LLE1D4CDDZL9OC9USLM9","A3N0QZ9ZKUCTCQ","3566S7OX5D5NH74JOVOPTTMK8IR17K","","329.69999999552965","img/land1.png","74","331.20000000298023","1","1","1","2","0.8,0.2,0.2,0.2,0.8,0.2,0.2,0.2,0.8","0.8,0.2,0.2,0.2,0.8,0.2,0.2,0.2,0.8","1","",""
"","html-keyboard-response","265","131057","0.0-265.0","3A4NIXBJ77LLE1D4CDDZL9OC9USLM9","A3N0QZ9ZKUCTCQ","3566S7OX5D5NH74JOVOPTTMK8IR17K","","null","<img src=""img/land1.png"" style=""width:200px; border:14px solid green;"">","null","","","","","","","","","",""
"","image-keyboard-response","266","131420","0.0-266.0","3A4NIXBJ77LLE1D4CDDZL9OC9USLM9","A3N0QZ9ZKUCTCQ","3566S7OX5D5NH74JOVOPTTMK8IR17K","","361.09999999403954","img/land1.png","74","362.59999999403954","1","1","1","2","0.8,0.2,0.2,0.2,0.8,0.2,0.2,0.2,0.8","0.8,0.2,0.2,0.2,0.8,0.2,0.2,0.2,0.8","1","",""
"","html-keyboard-response","267","131722","0.0-267.0","3A4NIXBJ77LLE1D4CDDZL9OC9USLM9","A3N0QZ9ZKUCTCQ","3566S7OX5D5NH74JOVOPTTMK8IR17K","","null","<img src=""img/land1.png"" style=""width:200px; border:14px solid green;"">","null","","","","","","","","","",""
"","image-keyboard-response","268","132401","0.0-268.0","3A4NIXBJ77LLE1D4CDDZL9OC9USLM9","A3N0QZ9ZKUCTCQ","3566S7OX5D5NH74JOVOPTTMK8IR17K","","676.8999999985099","img/land5.png","76","678.2999999970198","3","1","3","2","0.8,0.2,0.2,0.2,0.8,0.2,0.2,0.2,0.8","0.8,0.2,0.2,0.2,0.8,0.2,0.2,0.2,0.8","1","",""
"","html-keyboard-response","269","132703","0.0-269.0","3A4NIXBJ77LLE1D4CDDZL9OC9USLM9","A3N0QZ9ZKUCTCQ","3566S7OX5D5NH74JOVOPTTMK8IR17K","","null","<img src=""img/land5.png"" style=""width:200px; border:14px solid green;"">","null","","","","","","","","","",""
"","image-keyboard-response","270","133299","0.0-270.0","3A4NIXBJ77LLE1D4CDDZL9OC9USLM9","A3N0QZ9ZKUCTCQ","3566S7OX5D5NH74JOVOPTTMK8IR17K","","595.8999999985099","img/land3.png","75","596.7000000029802","2","1","2","2","0.8,0.2,0.2,0.2,0.8,0.2,0.2,0.2,0.8","0.8,0.2,0.2,0.2,0.8,0.2,0.2,0.2,0.8","1","",""
"","html-keyboard-response","271","133601","0.0-271.0","3A4NIXBJ77LLE1D4CDDZL9OC9USLM9","A3N0QZ9ZKUCTCQ","3566S7OX5D5NH74JOVOPTTMK8IR17K","","null","<img src=""img/land3.png"" style=""width:200px; border:14px solid green;"">","null","","","","","","","","","",""
"","image-keyboard-response","272","134274","0.0-272.0","3A4NIXBJ77LLE1D4CDDZL9OC9USLM9","A3N0QZ9ZKUCTCQ","3566S7OX5D5NH74JOVOPTTMK8IR17K","","671.9000000059605","img/land5.png","76","673.1000000014901","3","1","3","2","0.8,0.2,0.2,0.2,0.8,0.2,0.2,0.2,0.8","0.8,0.2,0.2,0.2,0.8,0.2,0.2,0.2,0.8","1","",""
"","html-keyboard-response","273","134576","0.0-273.0","3A4NIXBJ77LLE1D4CDDZL9OC9USLM9","A3N0QZ9ZKUCTCQ","3566S7OX5D5NH74JOVOPTTMK8IR17K","","null","<img src=""img/land5.png"" style=""width:200px; border:14px solid green;"">","null","","","","","","","","","",""
"","image-keyboard-response","274","135408","0.0-274.0","3A4NIXBJ77LLE1D4CDDZL9OC9USLM9","A3N0QZ9ZKUCTCQ","3566S7OX5D5NH74JOVOPTTMK8IR17K","","831.1999999955297","img/land1.png","74","832","1","1","1","2","0.8,0.2,0.2,0.2,0.8,0.2,0.2,0.2,0.8","0.8,0.2,0.2,0.2,0.8,0.2,0.2,0.2,0.8","1","",""
"","html-keyboard-response","275","135711","0.0-275.0","3A4NIXBJ77LLE1D4CDDZL9OC9USLM9","A3N0QZ9ZKUCTCQ","3566S7OX5D5NH74JOVOPTTMK8IR17K","","null","<img src=""img/land1.png"" style=""width:200px; border:14px solid green;"">","null","","","","","","","","","",""
"","image-keyboard-response","276","136415","0.0-276.0","3A4NIXBJ77LLE1D4CDDZL9OC9USLM9","A3N0QZ9ZKUCTCQ","3566S7OX5D5NH74JOVOPTTMK8IR17K","","703.5","img/land5.png","76","704.5","3","0","3","2","0.8,0.2,0.2,0.2,0.8,0.2,0.2,0.2,0.8","0.8,0.2,0.2,0.2,0.8,0.2,0.2,0.2,0.8","1","",""
"","html-keyboard-response","277","136718","0.0-277.0","3A4NIXBJ77LLE1D4CDDZL9OC9USLM9","A3N0QZ9ZKUCTCQ","3566S7OX5D5NH74JOVOPTTMK8IR17K","","null","<img src=""img/land5.png"" style=""width:200px;border:14px solid red;"">","null","","","","","","","","","",""
"","image-keyboard-response","278","137364","0.0-278.0","3A4NIXBJ77LLE1D4CDDZL9OC9USLM9","A3N0QZ9ZKUCTCQ","3566S7OX5D5NH74JOVOPTTMK8IR17K","","644.7000000029802","img/land1.png","74","646.1000000014901","1","1","1","2","0.8,0.2,0.2,0.2,0.8,0.2,0.2,0.2,0.8","0.8,0.2,0.2,0.2,0.8,0.2,0.2,0.2,0.8","1","",""
"","html-keyboard-response","279","137667","0.0-279.0","3A4NIXBJ77LLE1D4CDDZL9OC9USLM9","A3N0QZ9ZKUCTCQ","3566S7OX5D5NH74JOVOPTTMK8IR17K","","null","<img src=""img/land1.png"" style=""width:200px; border:14px solid green;"">","null","","","","","","","","","",""
"","image-keyboard-response","280","138268","0.0-280.0","3A4NIXBJ77LLE1D4CDDZL9OC9USLM9","A3N0QZ9ZKUCTCQ","3566S7OX5D5NH74JOVOPTTMK8IR17K","","599.7000000029802","img/land1.png","74","601.5","1","1","1","2","0.8,0.2,0.2,0.2,0.8,0.2,0.2,0.2,0.8","0.8,0.2,0.2,0.2,0.8,0.2,0.2,0.2,0.8","1","",""
"","html-keyboard-response","281","138571","0.0-281.0","3A4NIXBJ77LLE1D4CDDZL9OC9USLM9","A3N0QZ9ZKUCTCQ","3566S7OX5D5NH74JOVOPTTMK8IR17K","","null","<img src=""img/land1.png"" style=""width:200px; border:14px solid green;"">","null","","","","","","","","","",""
"","image-keyboard-response","282","139301","0.0-282.0","3A4NIXBJ77LLE1D4CDDZL9OC9USLM9","A3N0QZ9ZKUCTCQ","3566S7OX5D5NH74JOVOPTTMK8IR17K","","729","img/land3.png","75","730.1999999955297","2","1","2","2","0.8,0.2,0.2,0.2,0.8,0.2,0.2,0.2,0.8","0.8,0.2,0.2,0.2,0.8,0.2,0.2,0.2,0.8","1","",""
"","html-keyboard-response","283","139606","0.0-283.0","3A4NIXBJ77LLE1D4CDDZL9OC9USLM9","A3N0QZ9ZKUCTCQ","3566S7OX5D5NH74JOVOPTTMK8IR17K","","null","<img src=""img/land3.png"" style=""width:200px; border:14px solid green;"">","null","","","","","","","","","",""
"","image-keyboard-response","284","140260","0.0-284.0","3A4NIXBJ77LLE1D4CDDZL9OC9USLM9","A3N0QZ9ZKUCTCQ","3566S7OX5D5NH74JOVOPTTMK8IR17K","","652.3999999985099","img/land5.png","76","653.6000000014901","3","0","3","2","0.8,0.2,0.2,0.2,0.8,0.2,0.2,0.2,0.8","0.8,0.2,0.2,0.2,0.8,0.2,0.2,0.2,0.8","1","",""
"","html-keyboard-response","285","140563","0.0-285.0","3A4NIXBJ77LLE1D4CDDZL9OC9USLM9","A3N0QZ9ZKUCTCQ","3566S7OX5D5NH74JOVOPTTMK8IR17K","","null","<img src=""img/land5.png"" style=""width:200px;border:14px solid red;"">","null","","","","","","","","","",""
"","image-keyboard-response","286","141038","0.0-286.0","3A4NIXBJ77LLE1D4CDDZL9OC9USLM9","A3N0QZ9ZKUCTCQ","3566S7OX5D5NH74JOVOPTTMK8IR17K","","474.29999999701977","img/land1.png","76","475.30000000447035","3","1","1","2","0.8,0.2,0.2,0.2,0.8,0.2,0.2,0.2,0.8","0.8,0.2,0.2,0.2,0.8,0.2,0.2,0.2,0.8","1","",""
"","html-keyboard-response","287","141340","0.0-287.0","3A4NIXBJ77LLE1D4CDDZL9OC9USLM9","A3N0QZ9ZKUCTCQ","3566S7OX5D5NH74JOVOPTTMK8IR17K","","null","<img src=""img/land1.png"" style=""width:200px; border:14px solid green;"">","null","","","","","","","","","",""
"","image-keyboard-response","288","142416","0.0-288.0","3A4NIXBJ77LLE1D4CDDZL9OC9USLM9","A3N0QZ9ZKUCTCQ","3566S7OX5D5NH74JOVOPTTMK8IR17K","","1074","img/land5.png","76","1075.6000000014901","3","0","3","2","0.8,0.2,0.2,0.2,0.8,0.2,0.2,0.2,0.8","0.8,0.2,0.2,0.2,0.8,0.2,0.2,0.2,0.8","1","",""
"","html-keyboard-response","289","142719","0.0-289.0","3A4NIXBJ77LLE1D4CDDZL9OC9USLM9","A3N0QZ9ZKUCTCQ","3566S7OX5D5NH74JOVOPTTMK8IR17K","","null","<img src=""img/land5.png"" style=""width:200px;border:14px solid red;"">","null","","","","","","","","","",""
"","image-keyboard-response","290","143250","0.0-290.0","3A4NIXBJ77LLE1D4CDDZL9OC9USLM9","A3N0QZ9ZKUCTCQ","3566S7OX5D5NH74JOVOPTTMK8IR17K","","529","img/land1.png","74","530.5","1","1","1","2","0.8,0.2,0.2,0.2,0.8,0.2,0.2,0.2,0.8","0.8,0.2,0.2,0.2,0.8,0.2,0.2,0.2,0.8","1","",""
"","html-keyboard-response","291","143552","0.0-291.0","3A4NIXBJ77LLE1D4CDDZL9OC9USLM9","A3N0QZ9ZKUCTCQ","3566S7OX5D5NH74JOVOPTTMK8IR17K","","null","<img src=""img/land1.png"" style=""width:200px; border:14px solid green;"">","null","","","","","","","","","",""
"","image-keyboard-response","292","144234","0.0-292.0","3A4NIXBJ77LLE1D4CDDZL9OC9USLM9","A3N0QZ9ZKUCTCQ","3566S7OX5D5NH74JOVOPTTMK8IR17K","","679.7999999970198","img/land3.png","75","681.4000000059605","2","1","2","2","0.8,0.2,0.2,0.2,0.8,0.2,0.2,0.2,0.8","0.8,0.2,0.2,0.2,0.8,0.2,0.2,0.2,0.8","1","",""
"","html-keyboard-response","293","144535","0.0-293.0","3A4NIXBJ77LLE1D4CDDZL9OC9USLM9","A3N0QZ9ZKUCTCQ","3566S7OX5D5NH74JOVOPTTMK8IR17K","","null","<img src=""img/land3.png"" style=""width:200px; border:14px solid green;"">","null","","","","","","","","","",""
"","image-keyboard-response","294","145212","0.0-294.0","3A4NIXBJ77LLE1D4CDDZL9OC9USLM9","A3N0QZ9ZKUCTCQ","3566S7OX5D5NH74JOVOPTTMK8IR17K","","675.5","img/land1.png","74","676.6000000014901","1","1","1","2","0.8,0.2,0.2,0.2,0.8,0.2,0.2,0.2,0.8","0.8,0.2,0.2,0.2,0.8,0.2,0.2,0.2,0.8","1","",""
"","html-keyboard-response","295","145515","0.0-295.0","3A4NIXBJ77LLE1D4CDDZL9OC9USLM9","A3N0QZ9ZKUCTCQ","3566S7OX5D5NH74JOVOPTTMK8IR17K","","null","<img src=""img/land1.png"" style=""width:200px; border:14px solid green;"">","null","","","","","","","","","",""
"","image-keyboard-response","296","145882","0.0-296.0","3A4NIXBJ77LLE1D4CDDZL9OC9USLM9","A3N0QZ9ZKUCTCQ","3566S7OX5D5NH74JOVOPTTMK8IR17K","","363.69999999552965","img/land1.png","74","366.5","1","1","1","2","0.8,0.2,0.2,0.2,0.8,0.2,0.2,0.2,0.8","0.8,0.2,0.2,0.2,0.8,0.2,0.2,0.2,0.8","1","",""
"","html-keyboard-response","297","146184","0.0-297.0","3A4NIXBJ77LLE1D4CDDZL9OC9USLM9","A3N0QZ9ZKUCTCQ","3566S7OX5D5NH74JOVOPTTMK8IR17K","","null","<img src=""img/land1.png"" style=""width:200px; border:14px solid green;"">","null","","","","","","","","","",""
"","image-keyboard-response","298","146615","0.0-298.0","3A4NIXBJ77LLE1D4CDDZL9OC9USLM9","A3N0QZ9ZKUCTCQ","3566S7OX5D5NH74JOVOPTTMK8IR17K","","429.09999999403954","img/land1.png","74","430.09999999403954","1","1","1","2","0.8,0.2,0.2,0.2,0.8,0.2,0.2,0.2,0.8","0.8,0.2,0.2,0.2,0.8,0.2,0.2,0.2,0.8","1","",""
"","html-keyboard-response","299","146917","0.0-299.0","3A4NIXBJ77LLE1D4CDDZL9OC9USLM9","A3N0QZ9ZKUCTCQ","3566S7OX5D5NH74JOVOPTTMK8IR17K","","null","<img src=""img/land1.png"" style=""width:200px; border:14px solid green;"">","null","","","","","","","","","",""
"","image-keyboard-response","300","147410","0.0-300.0","3A4NIXBJ77LLE1D4CDDZL9OC9USLM9","A3N0QZ9ZKUCTCQ","3566S7OX5D5NH74JOVOPTTMK8IR17K","","491.19999999552965","img/land1.png","74","492.69999999552965","1","1","1","2","0.8,0.2,0.2,0.2,0.8,0.2,0.2,0.2,0.8","0.8,0.2,0.2,0.2,0.8,0.2,0.2,0.2,0.8","1","",""
"","html-keyboard-response","301","147712","0.0-301.0","3A4NIXBJ77LLE1D4CDDZL9OC9USLM9","A3N0QZ9ZKUCTCQ","3566S7OX5D5NH74JOVOPTTMK8IR17K","","null","<img src=""img/land1.png"" style=""width:200px; border:14px solid green;"">","null","","","","","","","","","",""
"","image-keyboard-response","302","148981","0.0-302.0","3A4NIXBJ77LLE1D4CDDZL9OC9USLM9","A3N0QZ9ZKUCTCQ","3566S7OX5D5NH74JOVOPTTMK8IR17K","","1267","img/land4.png","75","1268.7999999970198","2","1","1","1","0.8,0.2,0.2,0.2,0.8,0.2,0.2,0.2,0.8","0.8,0.2,0.2,0.2,0.8,0.2,0.2,0.2,0.8","1","",""
"","html-keyboard-response","303","149284","0.0-303.0","3A4NIXBJ77LLE1D4CDDZL9OC9USLM9","A3N0QZ9ZKUCTCQ","3566S7OX5D5NH74JOVOPTTMK8IR17K","","null","<img src=""img/land4.png"" style=""width:200px; border:14px solid green;"">","null","","","","","","","","","",""
"","image-keyboard-response","304","149685","0.0-304.0","3A4NIXBJ77LLE1D4CDDZL9OC9USLM9","A3N0QZ9ZKUCTCQ","3566S7OX5D5NH74JOVOPTTMK8IR17K","","400.19999999552965","img/land4.png","75","401.69999999552965","2","0","1","1","0.8,0.2,0.2,0.2,0.8,0.2,0.2,0.2,0.8","0.8,0.2,0.2,0.2,0.8,0.2,0.2,0.2,0.8","1","",""
"","html-keyboard-response","305","149988","0.0-305.0","3A4NIXBJ77LLE1D4CDDZL9OC9USLM9","A3N0QZ9ZKUCTCQ","3566S7OX5D5NH74JOVOPTTMK8IR17K","","null","<img src=""img/land4.png"" style=""width:200px;border:14px solid red;"">","null","","","","","","","","","",""
"","image-keyboard-response","306","150789","0.0-306.0","3A4NIXBJ77LLE1D4CDDZL9OC9USLM9","A3N0QZ9ZKUCTCQ","3566S7OX5D5NH74JOVOPTTMK8IR17K","","799.6000000014901","img/land2.png","76","801.1000000014901","3","0","2","1","0.8,0.2,0.2,0.2,0.8,0.2,0.2,0.2,0.8","0.8,0.2,0.2,0.2,0.8,0.2,0.2,0.2,0.8","1","",""
"","html-keyboard-response","307","151091","0.0-307.0","3A4NIXBJ77LLE1D4CDDZL9OC9USLM9","A3N0QZ9ZKUCTCQ","3566S7OX5D5NH74JOVOPTTMK8IR17K","","null","<img src=""img/land2.png"" style=""width:200px;border:14px solid red;"">","null","","","","","","","","","",""
"","image-keyboard-response","308","151968","0.0-308.0","3A4NIXBJ77LLE1D4CDDZL9OC9USLM9","A3N0QZ9ZKUCTCQ","3566S7OX5D5NH74JOVOPTTMK8IR17K","","874.8000000044703","img/land6.png","74","876.4000000059605","1","0","3","1","0.8,0.2,0.2,0.2,0.8,0.2,0.2,0.2,0.8","0.8,0.2,0.2,0.2,0.8,0.2,0.2,0.2,0.8","1","",""
"","html-keyboard-response","309","152271","0.0-309.0","3A4NIXBJ77LLE1D4CDDZL9OC9USLM9","A3N0QZ9ZKUCTCQ","3566S7OX5D5NH74JOVOPTTMK8IR17K","","null","<img src=""img/land6.png"" style=""width:200px;border:14px solid red;"">","null","","","","","","","","","",""
"","image-keyboard-response","310","152965","0.0-310.0","3A4NIXBJ77LLE1D4CDDZL9OC9USLM9","A3N0QZ9ZKUCTCQ","3566S7OX5D5NH74JOVOPTTMK8IR17K","","693","img/land2.png","76","694.5999999940395","3","0","2","1","0.8,0.2,0.2,0.2,0.8,0.2,0.2,0.2,0.8","0.8,0.2,0.2,0.2,0.8,0.2,0.2,0.2,0.8","1","",""
"","html-keyboard-response","311","153267","0.0-311.0","3A4NIXBJ77LLE1D4CDDZL9OC9USLM9","A3N0QZ9ZKUCTCQ","3566S7OX5D5NH74JOVOPTTMK8IR17K","","null","<img src=""img/land2.png"" style=""width:200px;border:14px solid red;"">","null","","","","","","","","","",""
"","image-keyboard-response","312","153809","0.0-312.0","3A4NIXBJ77LLE1D4CDDZL9OC9USLM9","A3N0QZ9ZKUCTCQ","3566S7OX5D5NH74JOVOPTTMK8IR17K","","540","img/land4.png","75","541.6000000014901","2","0","1","1","0.8,0.2,0.2,0.2,0.8,0.2,0.2,0.2,0.8","0.8,0.2,0.2,0.2,0.8,0.2,0.2,0.2,0.8","1","",""
"","html-keyboard-response","313","154111","0.0-313.0","3A4NIXBJ77LLE1D4CDDZL9OC9USLM9","A3N0QZ9ZKUCTCQ","3566S7OX5D5NH74JOVOPTTMK8IR17K","","null","<img src=""img/land4.png"" style=""width:200px;border:14px solid red;"">","null","","","","","","","","","",""
"","image-keyboard-response","314","154523","0.0-314.0","3A4NIXBJ77LLE1D4CDDZL9OC9USLM9","A3N0QZ9ZKUCTCQ","3566S7OX5D5NH74JOVOPTTMK8IR17K","","409.70000000298023","img/land2.png","74","411","1","0","2","1","0.8,0.2,0.2,0.2,0.8,0.2,0.2,0.2,0.8","0.8,0.2,0.2,0.2,0.8,0.2,0.2,0.2,0.8","1","",""
"","html-keyboard-response","315","154825","0.0-315.0","3A4NIXBJ77LLE1D4CDDZL9OC9USLM9","A3N0QZ9ZKUCTCQ","3566S7OX5D5NH74JOVOPTTMK8IR17K","","null","<img src=""img/land2.png"" style=""width:200px;border:14px solid red;"">","null","","","","","","","","","",""
"","image-keyboard-response","316","155297","0.0-316.0","3A4NIXBJ77LLE1D4CDDZL9OC9USLM9","A3N0QZ9ZKUCTCQ","3566S7OX5D5NH74JOVOPTTMK8IR17K","","470.30000000447035","img/land6.png","76","472.19999999552965","3","1","3","1","0.8,0.2,0.2,0.2,0.8,0.2,0.2,0.2,0.8","0.8,0.2,0.2,0.2,0.8,0.2,0.2,0.2,0.8","1","",""
"","html-keyboard-response","317","155599","0.0-317.0","3A4NIXBJ77LLE1D4CDDZL9OC9USLM9","A3N0QZ9ZKUCTCQ","3566S7OX5D5NH74JOVOPTTMK8IR17K","","null","<img src=""img/land6.png"" style=""width:200px; border:14px solid green;"">","null","","","","","","","","","",""
"","image-keyboard-response","318","156057","0.0-318.0","3A4NIXBJ77LLE1D4CDDZL9OC9USLM9","A3N0QZ9ZKUCTCQ","3566S7OX5D5NH74JOVOPTTMK8IR17K","","455.3999999985099","img/land6.png","76","456.8999999985099","3","1","3","1","0.8,0.2,0.2,0.2,0.8,0.2,0.2,0.2,0.8","0.8,0.2,0.2,0.2,0.8,0.2,0.2,0.2,0.8","1","",""
"","html-keyboard-response","319","156360","0.0-319.0","3A4NIXBJ77LLE1D4CDDZL9OC9USLM9","A3N0QZ9ZKUCTCQ","3566S7OX5D5NH74JOVOPTTMK8IR17K","","null","<img src=""img/land6.png"" style=""width:200px; border:14px solid green;"">","null","","","","","","","","","",""
"","image-keyboard-response","320","156730","0.0-320.0","3A4NIXBJ77LLE1D4CDDZL9OC9USLM9","A3N0QZ9ZKUCTCQ","3566S7OX5D5NH74JOVOPTTMK8IR17K","","368.3999999985099","img/land6.png","76","370","3","0","3","1","0.8,0.2,0.2,0.2,0.8,0.2,0.2,0.2,0.8","0.8,0.2,0.2,0.2,0.8,0.2,0.2,0.2,0.8","1","",""
"","html-keyboard-response","321","157033","0.0-321.0","3A4NIXBJ77LLE1D4CDDZL9OC9USLM9","A3N0QZ9ZKUCTCQ","3566S7OX5D5NH74JOVOPTTMK8IR17K","","null","<img src=""img/land6.png"" style=""width:200px;border:14px solid red;"">","null","","","","","","","","","",""
"","image-keyboard-response","322","157842","0.0-322.0","3A4NIXBJ77LLE1D4CDDZL9OC9USLM9","A3N0QZ9ZKUCTCQ","3566S7OX5D5NH74JOVOPTTMK8IR17K","","807.6000000014901","img/land4.png","75","809","2","0","1","1","0.8,0.2,0.2,0.2,0.8,0.2,0.2,0.2,0.8","0.8,0.2,0.2,0.2,0.8,0.2,0.2,0.2,0.8","1","",""
"","html-keyboard-response","323","158145","0.0-323.0","3A4NIXBJ77LLE1D4CDDZL9OC9USLM9","A3N0QZ9ZKUCTCQ","3566S7OX5D5NH74JOVOPTTMK8IR17K","","null","<img src=""img/land4.png"" style=""width:200px;border:14px solid red;"">","null","","","","","","","","","",""
"","image-keyboard-response","324","159052","0.0-324.0","3A4NIXBJ77LLE1D4CDDZL9OC9USLM9","A3N0QZ9ZKUCTCQ","3566S7OX5D5NH74JOVOPTTMK8IR17K","","905.2999999970198","img/land6.png","76","906.7000000029802","3","1","3","1","0.8,0.2,0.2,0.2,0.8,0.2,0.2,0.2,0.8","0.8,0.2,0.2,0.2,0.8,0.2,0.2,0.2,0.8","1","",""
"","html-keyboard-response","325","159354","0.0-325.0","3A4NIXBJ77LLE1D4CDDZL9OC9USLM9","A3N0QZ9ZKUCTCQ","3566S7OX5D5NH74JOVOPTTMK8IR17K","","null","<img src=""img/land6.png"" style=""width:200px; border:14px solid green;"">","null","","","","","","","","","",""
"","image-keyboard-response","326","160220","0.0-326.0","3A4NIXBJ77LLE1D4CDDZL9OC9USLM9","A3N0QZ9ZKUCTCQ","3566S7OX5D5NH74JOVOPTTMK8IR17K","","864.7999999970198","img/land4.png","74","866.3999999985099","1","1","1","1","0.8,0.2,0.2,0.2,0.8,0.2,0.2,0.2,0.8","0.8,0.2,0.2,0.2,0.8,0.2,0.2,0.2,0.8","1","",""
"","html-keyboard-response","327","160522","0.0-327.0","3A4NIXBJ77LLE1D4CDDZL9OC9USLM9","A3N0QZ9ZKUCTCQ","3566S7OX5D5NH74JOVOPTTMK8IR17K","","null","<img src=""img/land4.png"" style=""width:200px; border:14px solid green;"">","null","","","","","","","","","",""
"","image-keyboard-response","328","161369","0.0-328.0","3A4NIXBJ77LLE1D4CDDZL9OC9USLM9","A3N0QZ9ZKUCTCQ","3566S7OX5D5NH74JOVOPTTMK8IR17K","","846.1000000014901","img/land2.png","74","847.3000000044703","1","0","2","1","0.8,0.2,0.2,0.2,0.8,0.2,0.2,0.2,0.8","0.8,0.2,0.2,0.2,0.8,0.2,0.2,0.2,0.8","1","",""
"","html-keyboard-response","329","161672","0.0-329.0","3A4NIXBJ77LLE1D4CDDZL9OC9USLM9","A3N0QZ9ZKUCTCQ","3566S7OX5D5NH74JOVOPTTMK8IR17K","","null","<img src=""img/land2.png"" style=""width:200px;border:14px solid red;"">","null","","","","","","","","","",""
"","image-keyboard-response","330","162886","0.0-330.0","3A4NIXBJ77LLE1D4CDDZL9OC9USLM9","A3N0QZ9ZKUCTCQ","3566S7OX5D5NH74JOVOPTTMK8IR17K","","1212.6000000014901","img/land6.png","74","1214.1000000014901","1","0","3","1","0.8,0.2,0.2,0.2,0.8,0.2,0.2,0.2,0.8","0.8,0.2,0.2,0.2,0.8,0.2,0.2,0.2,0.8","1","",""
"","html-keyboard-response","331","163189","0.0-331.0","3A4NIXBJ77LLE1D4CDDZL9OC9USLM9","A3N0QZ9ZKUCTCQ","3566S7OX5D5NH74JOVOPTTMK8IR17K","","null","<img src=""img/land6.png"" style=""width:200px;border:14px solid red;"">","null","","","","","","","","","",""
"","image-keyboard-response","332","164009","0.0-332.0","3A4NIXBJ77LLE1D4CDDZL9OC9USLM9","A3N0QZ9ZKUCTCQ","3566S7OX5D5NH74JOVOPTTMK8IR17K","","818.6999999955297","img/land2.png","75","820.3000000044703","2","1","2","1","0.8,0.2,0.2,0.2,0.8,0.2,0.2,0.2,0.8","0.8,0.2,0.2,0.2,0.8,0.2,0.2,0.2,0.8","1","",""
"","html-keyboard-response","333","164312","0.0-333.0","3A4NIXBJ77LLE1D4CDDZL9OC9USLM9","A3N0QZ9ZKUCTCQ","3566S7OX5D5NH74JOVOPTTMK8IR17K","","null","<img src=""img/land2.png"" style=""width:200px; border:14px solid green;"">","null","","","","","","","","","",""
"","image-keyboard-response","334","164948","0.0-334.0","3A4NIXBJ77LLE1D4CDDZL9OC9USLM9","A3N0QZ9ZKUCTCQ","3566S7OX5D5NH74JOVOPTTMK8IR17K","","633.8999999985099","img/land4.png","76","635.2999999970198","3","0","1","1","0.8,0.2,0.2,0.2,0.8,0.2,0.2,0.2,0.8","0.8,0.2,0.2,0.2,0.8,0.2,0.2,0.2,0.8","1","",""
"","html-keyboard-response","335","165250","0.0-335.0","3A4NIXBJ77LLE1D4CDDZL9OC9USLM9","A3N0QZ9ZKUCTCQ","3566S7OX5D5NH74JOVOPTTMK8IR17K","","null","<img src=""img/land4.png"" style=""width:200px;border:14px solid red;"">","null","","","","","","","","","",""
"","image-keyboard-response","336","166310","0.0-336.0","3A4NIXBJ77LLE1D4CDDZL9OC9USLM9","A3N0QZ9ZKUCTCQ","3566S7OX5D5NH74JOVOPTTMK8IR17K","","1058.3000000044703","img/land6.png","75","1059.5","2","0","3","1","0.8,0.2,0.2,0.2,0.8,0.2,0.2,0.2,0.8","0.8,0.2,0.2,0.2,0.8,0.2,0.2,0.2,0.8","1","",""
"","html-keyboard-response","337","166612","0.0-337.0","3A4NIXBJ77LLE1D4CDDZL9OC9USLM9","A3N0QZ9ZKUCTCQ","3566S7OX5D5NH74JOVOPTTMK8IR17K","","null","<img src=""img/land6.png"" style=""width:200px;border:14px solid red;"">","null","","","","","","","","","",""
"","image-keyboard-response","338","167044","0.0-338.0","3A4NIXBJ77LLE1D4CDDZL9OC9USLM9","A3N0QZ9ZKUCTCQ","3566S7OX5D5NH74JOVOPTTMK8IR17K","","431.40000000596046","img/land6.png","76","432.30000000447035","3","1","3","1","0.8,0.2,0.2,0.2,0.8,0.2,0.2,0.2,0.8","0.8,0.2,0.2,0.2,0.8,0.2,0.2,0.2,0.8","1","",""
"","html-keyboard-response","339","167347","0.0-339.0","3A4NIXBJ77LLE1D4CDDZL9OC9USLM9","A3N0QZ9ZKUCTCQ","3566S7OX5D5NH74JOVOPTTMK8IR17K","","null","<img src=""img/land6.png"" style=""width:200px; border:14px solid green;"">","null","","","","","","","","","",""
"","image-keyboard-response","340","167933","0.0-340.0","3A4NIXBJ77LLE1D4CDDZL9OC9USLM9","A3N0QZ9ZKUCTCQ","3566S7OX5D5NH74JOVOPTTMK8IR17K","","585.5","img/land6.png","76","586.5","3","0","3","1","0.8,0.2,0.2,0.2,0.8,0.2,0.2,0.2,0.8","0.8,0.2,0.2,0.2,0.8,0.2,0.2,0.2,0.8","1","",""
"","html-keyboard-response","341","168235","0.0-341.0","3A4NIXBJ77LLE1D4CDDZL9OC9USLM9","A3N0QZ9ZKUCTCQ","3566S7OX5D5NH74JOVOPTTMK8IR17K","","null","<img src=""img/land6.png"" style=""width:200px;border:14px solid red;"">","null","","","","","","","","","",""
"","image-keyboard-response","342","169161","0.0-342.0","3A4NIXBJ77LLE1D4CDDZL9OC9USLM9","A3N0QZ9ZKUCTCQ","3566S7OX5D5NH74JOVOPTTMK8IR17K","","924.2000000029802","img/land2.png","75","925.7000000029802","2","0","2","1","0.8,0.2,0.2,0.2,0.8,0.2,0.2,0.2,0.8","0.8,0.2,0.2,0.2,0.8,0.2,0.2,0.2,0.8","1","",""
"","html-keyboard-response","343","169464","0.0-343.0","3A4NIXBJ77LLE1D4CDDZL9OC9USLM9","A3N0QZ9ZKUCTCQ","3566S7OX5D5NH74JOVOPTTMK8IR17K","","null","<img src=""img/land2.png"" style=""width:200px;border:14px solid red;"">","null","","","","","","","","","",""
"","image-keyboard-response","344","170399","0.0-344.0","3A4NIXBJ77LLE1D4CDDZL9OC9USLM9","A3N0QZ9ZKUCTCQ","3566S7OX5D5NH74JOVOPTTMK8IR17K","","933.3999999985099","img/land4.png","74","934.6000000014901","1","1","1","1","0.8,0.2,0.2,0.2,0.8,0.2,0.2,0.2,0.8","0.8,0.2,0.2,0.2,0.8,0.2,0.2,0.2,0.8","1","",""
"","html-keyboard-response","345","170700","0.0-345.0","3A4NIXBJ77LLE1D4CDDZL9OC9USLM9","A3N0QZ9ZKUCTCQ","3566S7OX5D5NH74JOVOPTTMK8IR17K","","null","<img src=""img/land4.png"" style=""width:200px; border:14px solid green;"">","null","","","","","","","","","",""
"","image-keyboard-response","346","171344","0.0-346.0","3A4NIXBJ77LLE1D4CDDZL9OC9USLM9","A3N0QZ9ZKUCTCQ","3566S7OX5D5NH74JOVOPTTMK8IR17K","","641.3999999985099","img/land2.png","75","642.8999999985099","2","1","2","1","0.8,0.2,0.2,0.2,0.8,0.2,0.2,0.2,0.8","0.8,0.2,0.2,0.2,0.8,0.2,0.2,0.2,0.8","1","",""
"","html-keyboard-response","347","171646","0.0-347.0","3A4NIXBJ77LLE1D4CDDZL9OC9USLM9","A3N0QZ9ZKUCTCQ","3566S7OX5D5NH74JOVOPTTMK8IR17K","","null","<img src=""img/land2.png"" style=""width:200px; border:14px solid green;"">","null","","","","","","","","","",""
"","image-keyboard-response","348","172807","0.0-348.0","3A4NIXBJ77LLE1D4CDDZL9OC9USLM9","A3N0QZ9ZKUCTCQ","3566S7OX5D5NH74JOVOPTTMK8IR17K","","1159.3999999985099","img/land4.png","74","1161","1","1","1","1","0.8,0.2,0.2,0.2,0.8,0.2,0.2,0.2,0.8","0.8,0.2,0.2,0.2,0.8,0.2,0.2,0.2,0.8","1","",""
"","html-keyboard-response","349","173111","0.0-349.0","3A4NIXBJ77LLE1D4CDDZL9OC9USLM9","A3N0QZ9ZKUCTCQ","3566S7OX5D5NH74JOVOPTTMK8IR17K","","null","<img src=""img/land4.png"" style=""width:200px; border:14px solid green;"">","null","","","","","","","","","",""
"","image-keyboard-response","350","173855","0.0-350.0","3A4NIXBJ77LLE1D4CDDZL9OC9USLM9","A3N0QZ9ZKUCTCQ","3566S7OX5D5NH74JOVOPTTMK8IR17K","","742.7999999970198","img/land2.png","74","744.5","1","1","2","1","0.8,0.2,0.2,0.2,0.8,0.2,0.2,0.2,0.8","0.8,0.2,0.2,0.2,0.8,0.2,0.2,0.2,0.8","1","",""
"","html-keyboard-response","351","174158","0.0-351.0","3A4NIXBJ77LLE1D4CDDZL9OC9USLM9","A3N0QZ9ZKUCTCQ","3566S7OX5D5NH74JOVOPTTMK8IR17K","","null","<img src=""img/land2.png"" style=""width:200px; border:14px solid green;"">","null","","","","","","","","","",""
"","image-keyboard-response","352","174195","0.0-352.0","3A4NIXBJ77LLE1D4CDDZL9OC9USLM9","A3N0QZ9ZKUCTCQ","3566S7OX5D5NH74JOVOPTTMK8IR17K","","35","img/land6.png","75","36.5","2","0","3","1","0.8,0.2,0.2,0.2,0.8,0.2,0.2,0.2,0.8","0.8,0.2,0.2,0.2,0.8,0.2,0.2,0.2,0.8","1","",""
"","html-keyboard-response","353","174498","0.0-353.0","3A4NIXBJ77LLE1D4CDDZL9OC9USLM9","A3N0QZ9ZKUCTCQ","3566S7OX5D5NH74JOVOPTTMK8IR17K","","null","<img src=""img/land6.png"" style=""width:200px;border:14px solid red;"">","null","","","","","","","","","",""
"","image-keyboard-response","354","175367","0.0-354.0","3A4NIXBJ77LLE1D4CDDZL9OC9USLM9","A3N0QZ9ZKUCTCQ","3566S7OX5D5NH74JOVOPTTMK8IR17K","","867.8999999985099","img/land4.png","75","869.1000000014901","2","1","1","1","0.8,0.2,0.2,0.2,0.8,0.2,0.2,0.2,0.8","0.8,0.2,0.2,0.2,0.8,0.2,0.2,0.2,0.8","1","",""
