"success","trial_type","trial_index","time_elapsed","internal_node_id","assignmentID","mturkID","hitID","view_history","rt","stimulus","key_press","reactionTime","a","r","s","cond","reward_cond","reward_cond_actual","reward_matrix_idx","responses","question_order"
"true","fullscreen","0","3830","0.0-0.0","3AMYWKA6YC8RVJV92PMAOUVKE1M6O9","A3NMU6AVMQ0QDB","30UZJB2POHY4464FN6NBJ2NLFWF354","","","","","","","","","","","","","",""
"","instructions","1","26271","0.0-1.0","3AMYWKA6YC8RVJV92PMAOUVKE1M6O9","A3NMU6AVMQ0QDB","30UZJB2POHY4464FN6NBJ2NLFWF354","[{""page_index"":0,""viewing_time"":1747.4000000953674},{""page_index"":1,""viewing_time"":1994.3999999761581},{""page_index"":2,""viewing_time"":1274.2999999523163},{""page_index"":3,""viewing_time"":4276.5},{""page_index"":4,""viewing_time"":2814.100000023842},{""page_index"":5,""viewing_time"":8667.299999952316},{""page_index"":6,""viewing_time"":1665.1000000238419}]","22439.400000095367","","","","","","","","","","","",""
"","image-keyboard-response","2","26762","0.0-2.0","3AMYWKA6YC8RVJV92PMAOUVKE1M6O9","A3NMU6AVMQ0QDB","30UZJB2POHY4464FN6NBJ2NLFWF354","","490.39999997615814","img/land6.png","76","491.60000002384186","3","1","3","2","0.8,0.2,0.2,0.2,0.8,0.2,0.2,0.2,0.8","0.8,0.2,0.2,0.2,0.8,0.2,0.2,0.2,0.8","1","",""
"","html-keyboard-response","3","27065","0.0-3.0","3AMYWKA6YC8RVJV92PMAOUVKE1M6O9","A3NMU6AVMQ0QDB","30UZJB2POHY4464FN6NBJ2NLFWF354","","null","<img src=""img/land6.png"" style=""width:200px; border:14px solid green;"">","null","","","","","","","","","",""
"","image-keyboard-response","4","27490","0.0-4.0","3AMYWKA6YC8RVJV92PMAOUVKE1M6O9","A3NMU6AVMQ0QDB","30UZJB2POHY4464FN6NBJ2NLFWF354","","423.60000002384186","img/land1.png","76","424.2000000476837","3","0","1","2","0.8,0.2,0.2,0.2,0.8,0.2,0.2,0.2,0.8","0.8,0.2,0.2,0.2,0.8,0.2,0.2,0.2,0.8","1","",""
"","html-keyboard-response","5","27794","0.0-5.0","3AMYWKA6YC8RVJV92PMAOUVKE1M6O9","A3NMU6AVMQ0QDB","30UZJB2POHY4464FN6NBJ2NLFWF354","","null","<img src=""img/land1.png"" style=""width:200px;border:14px solid red;"">","null","","","","","","","","","",""
"","image-keyboard-response","6","28059","0.0-6.0","3AMYWKA6YC8RVJV92PMAOUVKE1M6O9","A3NMU6AVMQ0QDB","30UZJB2POHY4464FN6NBJ2NLFWF354","","263.6999999284744","img/land5.png","75","264.59999990463257","2","1","2","2","0.8,0.2,0.2,0.2,0.8,0.2,0.2,0.2,0.8","0.8,0.2,0.2,0.2,0.8,0.2,0.2,0.2,0.8","1","",""
"","html-keyboard-response","7","28365","0.0-7.0","3AMYWKA6YC8RVJV92PMAOUVKE1M6O9","A3NMU6AVMQ0QDB","30UZJB2POHY4464FN6NBJ2NLFWF354","","null","<img src=""img/land5.png"" style=""width:200px; border:14px solid green;"">","null","","","","","","","","","",""
"","image-keyboard-response","8","28717","0.0-8.0","3AMYWKA6YC8RVJV92PMAOUVKE1M6O9","A3NMU6AVMQ0QDB","30UZJB2POHY4464FN6NBJ2NLFWF354","","351.60000002384186","img/land1.png","75","352.2999999523163","2","0","1","2","0.8,0.2,0.2,0.2,0.8,0.2,0.2,0.2,0.8","0.8,0.2,0.2,0.2,0.8,0.2,0.2,0.2,0.8","1","",""
"","html-keyboard-response","9","29024","0.0-9.0","3AMYWKA6YC8RVJV92PMAOUVKE1M6O9","A3NMU6AVMQ0QDB","30UZJB2POHY4464FN6NBJ2NLFWF354","","null","<img src=""img/land1.png"" style=""width:200px;border:14px solid red;"">","null","","","","","","","","","",""
"","image-keyboard-response","10","29236","0.0-10.0","3AMYWKA6YC8RVJV92PMAOUVKE1M6O9","A3NMU6AVMQ0QDB","30UZJB2POHY4464FN6NBJ2NLFWF354","","211","img/land1.png","74","211.79999995231628","1","1","1","2","0.8,0.2,0.2,0.2,0.8,0.2,0.2,0.2,0.8","0.8,0.2,0.2,0.2,0.8,0.2,0.2,0.2,0.8","1","",""
"","html-keyboard-response","11","29543","0.0-11.0","3AMYWKA6YC8RVJV92PMAOUVKE1M6O9","A3NMU6AVMQ0QDB","30UZJB2POHY4464FN6NBJ2NLFWF354","","null","<img src=""img/land1.png"" style=""width:200px; border:14px solid green;"">","null","","","","","","","","","",""
"","image-keyboard-response","12","29832","0.0-12.0","3AMYWKA6YC8RVJV92PMAOUVKE1M6O9","A3NMU6AVMQ0QDB","30UZJB2POHY4464FN6NBJ2NLFWF354","","288.5","img/land1.png","74","289.2999999523163","1","0","1","2","0.8,0.2,0.2,0.2,0.8,0.2,0.2,0.2,0.8","0.8,0.2,0.2,0.2,0.8,0.2,0.2,0.2,0.8","1","",""
"","html-keyboard-response","13","30138","0.0-13.0","3AMYWKA6YC8RVJV92PMAOUVKE1M6O9","A3NMU6AVMQ0QDB","30UZJB2POHY4464FN6NBJ2NLFWF354","","null","<img src=""img/land1.png"" style=""width:200px;border:14px solid red;"">","null","","","","","","","","","",""
"","image-keyboard-response","14","30718","0.0-14.0","3AMYWKA6YC8RVJV92PMAOUVKE1M6O9","A3NMU6AVMQ0QDB","30UZJB2POHY4464FN6NBJ2NLFWF354","","578.7999999523163","img/land1.png","75","579.5","2","0","1","2","0.8,0.2,0.2,0.2,0.8,0.2,0.2,0.2,0.8","0.8,0.2,0.2,0.2,0.8,0.2,0.2,0.2,0.8","1","",""
"","html-keyboard-response","15","31024","0.0-15.0","3AMYWKA6YC8RVJV92PMAOUVKE1M6O9","A3NMU6AVMQ0QDB","30UZJB2POHY4464FN6NBJ2NLFWF354","","null","<img src=""img/land1.png"" style=""width:200px;border:14px solid red;"">","null","","","","","","","","","",""
"","image-keyboard-response","16","31515","0.0-16.0","3AMYWKA6YC8RVJV92PMAOUVKE1M6O9","A3NMU6AVMQ0QDB","30UZJB2POHY4464FN6NBJ2NLFWF354","","490.60000002384186","img/land1.png","76","491.40000009536743","3","0","1","2","0.8,0.2,0.2,0.2,0.8,0.2,0.2,0.2,0.8","0.8,0.2,0.2,0.2,0.8,0.2,0.2,0.2,0.8","1","",""
"","html-keyboard-response","17","31818","0.0-17.0","3AMYWKA6YC8RVJV92PMAOUVKE1M6O9","A3NMU6AVMQ0QDB","30UZJB2POHY4464FN6NBJ2NLFWF354","","null","<img src=""img/land1.png"" style=""width:200px;border:14px solid red;"">","null","","","","","","","","","",""
"","image-keyboard-response","18","32292","0.0-18.0","3AMYWKA6YC8RVJV92PMAOUVKE1M6O9","A3NMU6AVMQ0QDB","30UZJB2POHY4464FN6NBJ2NLFWF354","","472.6999999284744","img/land1.png","75","473.39999997615814","2","0","1","2","0.8,0.2,0.2,0.2,0.8,0.2,0.2,0.2,0.8","0.8,0.2,0.2,0.2,0.8,0.2,0.2,0.2,0.8","1","",""
"","html-keyboard-response","19","32597","0.0-19.0","3AMYWKA6YC8RVJV92PMAOUVKE1M6O9","A3NMU6AVMQ0QDB","30UZJB2POHY4464FN6NBJ2NLFWF354","","null","<img src=""img/land1.png"" style=""width:200px;border:14px solid red;"">","null","","","","","","","","","",""
"","image-keyboard-response","20","33105","0.0-20.0","3AMYWKA6YC8RVJV92PMAOUVKE1M6O9","A3NMU6AVMQ0QDB","30UZJB2POHY4464FN6NBJ2NLFWF354","","506.60000002384186","img/land1.png","74","507.5","1","1","1","2","0.8,0.2,0.2,0.2,0.8,0.2,0.2,0.2,0.8","0.8,0.2,0.2,0.2,0.8,0.2,0.2,0.2,0.8","1","",""
"","html-keyboard-response","21","33408","0.0-21.0","3AMYWKA6YC8RVJV92PMAOUVKE1M6O9","A3NMU6AVMQ0QDB","30UZJB2POHY4464FN6NBJ2NLFWF354","","null","<img src=""img/land1.png"" style=""width:200px; border:14px solid green;"">","null","","","","","","","","","",""
"","image-keyboard-response","22","33641","0.0-22.0","3AMYWKA6YC8RVJV92PMAOUVKE1M6O9","A3NMU6AVMQ0QDB","30UZJB2POHY4464FN6NBJ2NLFWF354","","232.5","img/land5.png","76","233.30000007152557","3","0","2","2","0.8,0.2,0.2,0.2,0.8,0.2,0.2,0.2,0.8","0.8,0.2,0.2,0.2,0.8,0.2,0.2,0.2,0.8","1","",""
"","html-keyboard-response","23","33946","0.0-23.0","3AMYWKA6YC8RVJV92PMAOUVKE1M6O9","A3NMU6AVMQ0QDB","30UZJB2POHY4464FN6NBJ2NLFWF354","","null","<img src=""img/land5.png"" style=""width:200px;border:14px solid red;"">","null","","","","","","","","","",""
"","image-keyboard-response","24","34207","0.0-24.0","3AMYWKA6YC8RVJV92PMAOUVKE1M6O9","A3NMU6AVMQ0QDB","30UZJB2POHY4464FN6NBJ2NLFWF354","","259.7999999523163","img/land6.png","75","260.5","2","1","3","2","0.8,0.2,0.2,0.2,0.8,0.2,0.2,0.2,0.8","0.8,0.2,0.2,0.2,0.8,0.2,0.2,0.2,0.8","1","",""
"","html-keyboard-response","25","34509","0.0-25.0","3AMYWKA6YC8RVJV92PMAOUVKE1M6O9","A3NMU6AVMQ0QDB","30UZJB2POHY4464FN6NBJ2NLFWF354","","null","<img src=""img/land6.png"" style=""width:200px; border:14px solid green;"">","null","","","","","","","","","",""
"","image-keyboard-response","26","34771","0.0-26.0","3AMYWKA6YC8RVJV92PMAOUVKE1M6O9","A3NMU6AVMQ0QDB","30UZJB2POHY4464FN6NBJ2NLFWF354","","261.3000000715256","img/land5.png","75","262","2","0","2","2","0.8,0.2,0.2,0.2,0.8,0.2,0.2,0.2,0.8","0.8,0.2,0.2,0.2,0.8,0.2,0.2,0.2,0.8","1","",""
"","html-keyboard-response","27","35077","0.0-27.0","3AMYWKA6YC8RVJV92PMAOUVKE1M6O9","A3NMU6AVMQ0QDB","30UZJB2POHY4464FN6NBJ2NLFWF354","","null","<img src=""img/land5.png"" style=""width:200px;border:14px solid red;"">","null","","","","","","","","","",""
"","image-keyboard-response","28","35385","0.0-28.0","3AMYWKA6YC8RVJV92PMAOUVKE1M6O9","A3NMU6AVMQ0QDB","30UZJB2POHY4464FN6NBJ2NLFWF354","","307.2000000476837","img/land6.png","74","308","1","0","3","2","0.8,0.2,0.2,0.2,0.8,0.2,0.2,0.2,0.8","0.8,0.2,0.2,0.2,0.8,0.2,0.2,0.2,0.8","1","",""
"","html-keyboard-response","29","35692","0.0-29.0","3AMYWKA6YC8RVJV92PMAOUVKE1M6O9","A3NMU6AVMQ0QDB","30UZJB2POHY4464FN6NBJ2NLFWF354","","null","<img src=""img/land6.png"" style=""width:200px;border:14px solid red;"">","null","","","","","","","","","",""
"","image-keyboard-response","30","35994","0.0-30.0","3AMYWKA6YC8RVJV92PMAOUVKE1M6O9","A3NMU6AVMQ0QDB","30UZJB2POHY4464FN6NBJ2NLFWF354","","301.2000000476837","img/land6.png","76","301.89999997615814","3","1","3","2","0.8,0.2,0.2,0.2,0.8,0.2,0.2,0.2,0.8","0.8,0.2,0.2,0.2,0.8,0.2,0.2,0.2,0.8","1","",""
"","html-keyboard-response","31","36299","0.0-31.0","3AMYWKA6YC8RVJV92PMAOUVKE1M6O9","A3NMU6AVMQ0QDB","30UZJB2POHY4464FN6NBJ2NLFWF354","","null","<img src=""img/land6.png"" style=""width:200px; border:14px solid green;"">","null","","","","","","","","","",""
"","image-keyboard-response","32","36572","0.0-32.0","3AMYWKA6YC8RVJV92PMAOUVKE1M6O9","A3NMU6AVMQ0QDB","30UZJB2POHY4464FN6NBJ2NLFWF354","","272.10000002384186","img/land1.png","76","273","3","0","1","2","0.8,0.2,0.2,0.2,0.8,0.2,0.2,0.2,0.8","0.8,0.2,0.2,0.2,0.8,0.2,0.2,0.2,0.8","1","",""
"","html-keyboard-response","33","36877","0.0-33.0","3AMYWKA6YC8RVJV92PMAOUVKE1M6O9","A3NMU6AVMQ0QDB","30UZJB2POHY4464FN6NBJ2NLFWF354","","null","<img src=""img/land1.png"" style=""width:200px;border:14px solid red;"">","null","","","","","","","","","",""
"","image-keyboard-response","34","37102","0.0-34.0","3AMYWKA6YC8RVJV92PMAOUVKE1M6O9","A3NMU6AVMQ0QDB","30UZJB2POHY4464FN6NBJ2NLFWF354","","223.5","img/land1.png","75","224.19999992847443","2","1","1","2","0.8,0.2,0.2,0.2,0.8,0.2,0.2,0.2,0.8","0.8,0.2,0.2,0.2,0.8,0.2,0.2,0.2,0.8","1","",""
"","html-keyboard-response","35","37408","0.0-35.0","3AMYWKA6YC8RVJV92PMAOUVKE1M6O9","A3NMU6AVMQ0QDB","30UZJB2POHY4464FN6NBJ2NLFWF354","","null","<img src=""img/land1.png"" style=""width:200px; border:14px solid green;"">","null","","","","","","","","","",""
"","image-keyboard-response","36","37635","0.0-36.0","3AMYWKA6YC8RVJV92PMAOUVKE1M6O9","A3NMU6AVMQ0QDB","30UZJB2POHY4464FN6NBJ2NLFWF354","","226.60000002384186","img/land6.png","75","227.40000009536743","2","0","3","2","0.8,0.2,0.2,0.2,0.8,0.2,0.2,0.2,0.8","0.8,0.2,0.2,0.2,0.8,0.2,0.2,0.2,0.8","1","",""
"","html-keyboard-response","37","37941","0.0-37.0","3AMYWKA6YC8RVJV92PMAOUVKE1M6O9","A3NMU6AVMQ0QDB","30UZJB2POHY4464FN6NBJ2NLFWF354","","null","<img src=""img/land6.png"" style=""width:200px;border:14px solid red;"">","null","","","","","","","","","",""
"","image-keyboard-response","38","38171","0.0-38.0","3AMYWKA6YC8RVJV92PMAOUVKE1M6O9","A3NMU6AVMQ0QDB","30UZJB2POHY4464FN6NBJ2NLFWF354","","229","img/land5.png","76","229.89999997615814","3","0","2","2","0.8,0.2,0.2,0.2,0.8,0.2,0.2,0.2,0.8","0.8,0.2,0.2,0.2,0.8,0.2,0.2,0.2,0.8","1","",""
"","html-keyboard-response","39","38474","0.0-39.0","3AMYWKA6YC8RVJV92PMAOUVKE1M6O9","A3NMU6AVMQ0QDB","30UZJB2POHY4464FN6NBJ2NLFWF354","","null","<img src=""img/land5.png"" style=""width:200px;border:14px solid red;"">","null","","","","","","","","","",""
"","image-keyboard-response","40","38652","0.0-40.0","3AMYWKA6YC8RVJV92PMAOUVKE1M6O9","A3NMU6AVMQ0QDB","30UZJB2POHY4464FN6NBJ2NLFWF354","","176.09999990463257","img/land1.png","75","176.89999997615814","2","0","1","2","0.8,0.2,0.2,0.2,0.8,0.2,0.2,0.2,0.8","0.8,0.2,0.2,0.2,0.8,0.2,0.2,0.2,0.8","1","",""
"","html-keyboard-response","41","38954","0.0-41.0","3AMYWKA6YC8RVJV92PMAOUVKE1M6O9","A3NMU6AVMQ0QDB","30UZJB2POHY4464FN6NBJ2NLFWF354","","null","<img src=""img/land1.png"" style=""width:200px;border:14px solid red;"">","null","","","","","","","","","",""
"","image-keyboard-response","42","39054","0.0-42.0","3AMYWKA6YC8RVJV92PMAOUVKE1M6O9","A3NMU6AVMQ0QDB","30UZJB2POHY4464FN6NBJ2NLFWF354","","98.89999997615814","img/land5.png","74","99.60000002384186","1","0","2","2","0.8,0.2,0.2,0.2,0.8,0.2,0.2,0.2,0.8","0.8,0.2,0.2,0.2,0.8,0.2,0.2,0.2,0.8","1","",""
"","html-keyboard-response","43","39359","0.0-43.0","3AMYWKA6YC8RVJV92PMAOUVKE1M6O9","A3NMU6AVMQ0QDB","30UZJB2POHY4464FN6NBJ2NLFWF354","","null","<img src=""img/land5.png"" style=""width:200px;border:14px solid red;"">","null","","","","","","","","","",""
"","image-keyboard-response","44","39650","0.0-44.0","3AMYWKA6YC8RVJV92PMAOUVKE1M6O9","A3NMU6AVMQ0QDB","30UZJB2POHY4464FN6NBJ2NLFWF354","","289.39999997615814","img/land6.png","75","290.2000000476837","2","0","3","2","0.8,0.2,0.2,0.2,0.8,0.2,0.2,0.2,0.8","0.8,0.2,0.2,0.2,0.8,0.2,0.2,0.2,0.8","1","",""
"","html-keyboard-response","45","39952","0.0-45.0","3AMYWKA6YC8RVJV92PMAOUVKE1M6O9","A3NMU6AVMQ0QDB","30UZJB2POHY4464FN6NBJ2NLFWF354","","null","<img src=""img/land6.png"" style=""width:200px;border:14px solid red;"">","null","","","","","","","","","",""
"","image-keyboard-response","46","40113","0.0-46.0","3AMYWKA6YC8RVJV92PMAOUVKE1M6O9","A3NMU6AVMQ0QDB","30UZJB2POHY4464FN6NBJ2NLFWF354","","160.10000002384186","img/land1.png","76","160.80000007152557","3","0","1","2","0.8,0.2,0.2,0.2,0.8,0.2,0.2,0.2,0.8","0.8,0.2,0.2,0.2,0.8,0.2,0.2,0.2,0.8","1","",""
"","html-keyboard-response","47","40415","0.0-47.0","3AMYWKA6YC8RVJV92PMAOUVKE1M6O9","A3NMU6AVMQ0QDB","30UZJB2POHY4464FN6NBJ2NLFWF354","","null","<img src=""img/land1.png"" style=""width:200px;border:14px solid red;"">","null","","","","","","","","","",""
"","image-keyboard-response","48","40658","0.0-48.0","3AMYWKA6YC8RVJV92PMAOUVKE1M6O9","A3NMU6AVMQ0QDB","30UZJB2POHY4464FN6NBJ2NLFWF354","","242.5","img/land1.png","75","243.10000002384186","2","0","1","2","0.8,0.2,0.2,0.2,0.8,0.2,0.2,0.2,0.8","0.8,0.2,0.2,0.2,0.8,0.2,0.2,0.2,0.8","1","",""
"","html-keyboard-response","49","40965","0.0-49.0","3AMYWKA6YC8RVJV92PMAOUVKE1M6O9","A3NMU6AVMQ0QDB","30UZJB2POHY4464FN6NBJ2NLFWF354","","null","<img src=""img/land1.png"" style=""width:200px;border:14px solid red;"">","null","","","","","","","","","",""
"","image-keyboard-response","50","41137","0.0-50.0","3AMYWKA6YC8RVJV92PMAOUVKE1M6O9","A3NMU6AVMQ0QDB","30UZJB2POHY4464FN6NBJ2NLFWF354","","170.89999997615814","img/land1.png","74","171.79999995231628","1","1","1","2","0.8,0.2,0.2,0.2,0.8,0.2,0.2,0.2,0.8","0.8,0.2,0.2,0.2,0.8,0.2,0.2,0.2,0.8","1","",""
"","html-keyboard-response","51","41440","0.0-51.0","3AMYWKA6YC8RVJV92PMAOUVKE1M6O9","A3NMU6AVMQ0QDB","30UZJB2POHY4464FN6NBJ2NLFWF354","","null","<img src=""img/land1.png"" style=""width:200px; border:14px solid green;"">","null","","","","","","","","","",""
"","image-keyboard-response","52","41894","0.0-52.0","3AMYWKA6YC8RVJV92PMAOUVKE1M6O9","A3NMU6AVMQ0QDB","30UZJB2POHY4464FN6NBJ2NLFWF354","","452.7999999523163","img/land5.png","74","453.8000000715256","1","0","2","2","0.8,0.2,0.2,0.2,0.8,0.2,0.2,0.2,0.8","0.8,0.2,0.2,0.2,0.8,0.2,0.2,0.2,0.8","1","",""
"","html-keyboard-response","53","42197","0.0-53.0","3AMYWKA6YC8RVJV92PMAOUVKE1M6O9","A3NMU6AVMQ0QDB","30UZJB2POHY4464FN6NBJ2NLFWF354","","null","<img src=""img/land5.png"" style=""width:200px;border:14px solid red;"">","null","","","","","","","","","",""
"","image-keyboard-response","54","42428","0.0-54.0","3AMYWKA6YC8RVJV92PMAOUVKE1M6O9","A3NMU6AVMQ0QDB","30UZJB2POHY4464FN6NBJ2NLFWF354","","230.29999995231628","img/land1.png","75","231.19999992847443","2","0","1","2","0.8,0.2,0.2,0.2,0.8,0.2,0.2,0.2,0.8","0.8,0.2,0.2,0.2,0.8,0.2,0.2,0.2,0.8","1","",""
"","html-keyboard-response","55","42730","0.0-55.0","3AMYWKA6YC8RVJV92PMAOUVKE1M6O9","A3NMU6AVMQ0QDB","30UZJB2POHY4464FN6NBJ2NLFWF354","","null","<img src=""img/land1.png"" style=""width:200px;border:14px solid red;"">","null","","","","","","","","","",""
"","image-keyboard-response","56","43027","0.0-56.0","3AMYWKA6YC8RVJV92PMAOUVKE1M6O9","A3NMU6AVMQ0QDB","30UZJB2POHY4464FN6NBJ2NLFWF354","","295.59999990463257","img/land1.png","76","296.39999997615814","3","0","1","2","0.8,0.2,0.2,0.2,0.8,0.2,0.2,0.2,0.8","0.8,0.2,0.2,0.2,0.8,0.2,0.2,0.2,0.8","1","",""
"","html-keyboard-response","57","43333","0.0-57.0","3AMYWKA6YC8RVJV92PMAOUVKE1M6O9","A3NMU6AVMQ0QDB","30UZJB2POHY4464FN6NBJ2NLFWF354","","null","<img src=""img/land1.png"" style=""width:200px;border:14px solid red;"">","null","","","","","","","","","",""
"","image-keyboard-response","58","43543","0.0-58.0","3AMYWKA6YC8RVJV92PMAOUVKE1M6O9","A3NMU6AVMQ0QDB","30UZJB2POHY4464FN6NBJ2NLFWF354","","208.80000007152557","img/land5.png","75","209.60000002384186","2","1","2","2","0.8,0.2,0.2,0.2,0.8,0.2,0.2,0.2,0.8","0.8,0.2,0.2,0.2,0.8,0.2,0.2,0.2,0.8","1","",""
"","html-keyboard-response","59","43845","0.0-59.0","3AMYWKA6YC8RVJV92PMAOUVKE1M6O9","A3NMU6AVMQ0QDB","30UZJB2POHY4464FN6NBJ2NLFWF354","","null","<img src=""img/land5.png"" style=""width:200px; border:14px solid green;"">","null","","","","","","","","","",""
"","image-keyboard-response","60","44156","0.0-60.0","3AMYWKA6YC8RVJV92PMAOUVKE1M6O9","A3NMU6AVMQ0QDB","30UZJB2POHY4464FN6NBJ2NLFWF354","","309.59999990463257","img/land5.png","75","310.2999999523163","2","0","2","2","0.8,0.2,0.2,0.2,0.8,0.2,0.2,0.2,0.8","0.8,0.2,0.2,0.2,0.8,0.2,0.2,0.2,0.8","1","",""
"","html-keyboard-response","61","44459","0.0-61.0","3AMYWKA6YC8RVJV92PMAOUVKE1M6O9","A3NMU6AVMQ0QDB","30UZJB2POHY4464FN6NBJ2NLFWF354","","null","<img src=""img/land5.png"" style=""width:200px;border:14px solid red;"">","null","","","","","","","","","",""
"","image-keyboard-response","62","44832","0.0-62.0","3AMYWKA6YC8RVJV92PMAOUVKE1M6O9","A3NMU6AVMQ0QDB","30UZJB2POHY4464FN6NBJ2NLFWF354","","371.60000002384186","img/land6.png","76","372.39999997615814","3","1","3","2","0.8,0.2,0.2,0.2,0.8,0.2,0.2,0.2,0.8","0.8,0.2,0.2,0.2,0.8,0.2,0.2,0.2,0.8","1","",""
"","html-keyboard-response","63","45136","0.0-63.0","3AMYWKA6YC8RVJV92PMAOUVKE1M6O9","A3NMU6AVMQ0QDB","30UZJB2POHY4464FN6NBJ2NLFWF354","","null","<img src=""img/land6.png"" style=""width:200px; border:14px solid green;"">","null","","","","","","","","","",""
"","image-keyboard-response","64","45462","0.0-64.0","3AMYWKA6YC8RVJV92PMAOUVKE1M6O9","A3NMU6AVMQ0QDB","30UZJB2POHY4464FN6NBJ2NLFWF354","","325","img/land6.png","76","325.8000000715256","3","1","3","2","0.8,0.2,0.2,0.2,0.8,0.2,0.2,0.2,0.8","0.8,0.2,0.2,0.2,0.8,0.2,0.2,0.2,0.8","1","",""
"","html-keyboard-response","65","45765","0.0-65.0","3AMYWKA6YC8RVJV92PMAOUVKE1M6O9","A3NMU6AVMQ0QDB","30UZJB2POHY4464FN6NBJ2NLFWF354","","null","<img src=""img/land6.png"" style=""width:200px; border:14px solid green;"">","null","","","","","","","","","",""
"","image-keyboard-response","66","46110","0.0-66.0","3AMYWKA6YC8RVJV92PMAOUVKE1M6O9","A3NMU6AVMQ0QDB","30UZJB2POHY4464FN6NBJ2NLFWF354","","344.5","img/land5.png","76","345.1999999284744","3","0","2","2","0.8,0.2,0.2,0.2,0.8,0.2,0.2,0.2,0.8","0.8,0.2,0.2,0.2,0.8,0.2,0.2,0.2,0.8","1","",""
"","html-keyboard-response","67","46416","0.0-67.0","3AMYWKA6YC8RVJV92PMAOUVKE1M6O9","A3NMU6AVMQ0QDB","30UZJB2POHY4464FN6NBJ2NLFWF354","","null","<img src=""img/land5.png"" style=""width:200px;border:14px solid red;"">","null","","","","","","","","","",""
"","image-keyboard-response","68","46970","0.0-68.0","3AMYWKA6YC8RVJV92PMAOUVKE1M6O9","A3NMU6AVMQ0QDB","30UZJB2POHY4464FN6NBJ2NLFWF354","","553.6000000238419","img/land1.png","74","554.5","1","1","1","2","0.8,0.2,0.2,0.2,0.8,0.2,0.2,0.2,0.8","0.8,0.2,0.2,0.2,0.8,0.2,0.2,0.2,0.8","1","",""
"","html-keyboard-response","69","47274","0.0-69.0","3AMYWKA6YC8RVJV92PMAOUVKE1M6O9","A3NMU6AVMQ0QDB","30UZJB2POHY4464FN6NBJ2NLFWF354","","null","<img src=""img/land1.png"" style=""width:200px; border:14px solid green;"">","null","","","","","","","","","",""
"","image-keyboard-response","70","47535","0.0-70.0","3AMYWKA6YC8RVJV92PMAOUVKE1M6O9","A3NMU6AVMQ0QDB","30UZJB2POHY4464FN6NBJ2NLFWF354","","259.5","img/land5.png","75","260.2999999523163","2","1","2","2","0.8,0.2,0.2,0.2,0.8,0.2,0.2,0.2,0.8","0.8,0.2,0.2,0.2,0.8,0.2,0.2,0.2,0.8","1","",""
"","html-keyboard-response","71","47839","0.0-71.0","3AMYWKA6YC8RVJV92PMAOUVKE1M6O9","A3NMU6AVMQ0QDB","30UZJB2POHY4464FN6NBJ2NLFWF354","","null","<img src=""img/land5.png"" style=""width:200px; border:14px solid green;"">","null","","","","","","","","","",""
"","image-keyboard-response","72","48095","0.0-72.0","3AMYWKA6YC8RVJV92PMAOUVKE1M6O9","A3NMU6AVMQ0QDB","30UZJB2POHY4464FN6NBJ2NLFWF354","","256.10000002384186","img/land1.png","76","256.60000002384186","3","0","1","2","0.8,0.2,0.2,0.2,0.8,0.2,0.2,0.2,0.8","0.8,0.2,0.2,0.2,0.8,0.2,0.2,0.2,0.8","1","",""
"","html-keyboard-response","73","48400","0.0-73.0","3AMYWKA6YC8RVJV92PMAOUVKE1M6O9","A3NMU6AVMQ0QDB","30UZJB2POHY4464FN6NBJ2NLFWF354","","null","<img src=""img/land1.png"" style=""width:200px;border:14px solid red;"">","null","","","","","","","","","",""
"","image-keyboard-response","74","48683","0.0-74.0","3AMYWKA6YC8RVJV92PMAOUVKE1M6O9","A3NMU6AVMQ0QDB","30UZJB2POHY4464FN6NBJ2NLFWF354","","282.10000002384186","img/land1.png","74","282.7999999523163","1","0","1","2","0.8,0.2,0.2,0.2,0.8,0.2,0.2,0.2,0.8","0.8,0.2,0.2,0.2,0.8,0.2,0.2,0.2,0.8","1","",""
"","html-keyboard-response","75","48985","0.0-75.0","3AMYWKA6YC8RVJV92PMAOUVKE1M6O9","A3NMU6AVMQ0QDB","30UZJB2POHY4464FN6NBJ2NLFWF354","","null","<img src=""img/land1.png"" style=""width:200px;border:14px solid red;"">","null","","","","","","","","","",""
"","image-keyboard-response","76","49145","0.0-76.0","3AMYWKA6YC8RVJV92PMAOUVKE1M6O9","A3NMU6AVMQ0QDB","30UZJB2POHY4464FN6NBJ2NLFWF354","","158.69999992847443","img/land6.png","75","159.39999997615814","2","0","3","2","0.8,0.2,0.2,0.2,0.8,0.2,0.2,0.2,0.8","0.8,0.2,0.2,0.2,0.8,0.2,0.2,0.2,0.8","1","",""
"","html-keyboard-response","77","49451","0.0-77.0","3AMYWKA6YC8RVJV92PMAOUVKE1M6O9","A3NMU6AVMQ0QDB","30UZJB2POHY4464FN6NBJ2NLFWF354","","null","<img src=""img/land6.png"" style=""width:200px;border:14px solid red;"">","null","","","","","","","","","",""
"","image-keyboard-response","78","49620","0.0-78.0","3AMYWKA6YC8RVJV92PMAOUVKE1M6O9","A3NMU6AVMQ0QDB","30UZJB2POHY4464FN6NBJ2NLFWF354","","168.80000007152557","img/land1.png","74","169.59999990463257","1","1","1","2","0.8,0.2,0.2,0.2,0.8,0.2,0.2,0.2,0.8","0.8,0.2,0.2,0.2,0.8,0.2,0.2,0.2,0.8","1","",""
"","html-keyboard-response","79","49925","0.0-79.0","3AMYWKA6YC8RVJV92PMAOUVKE1M6O9","A3NMU6AVMQ0QDB","30UZJB2POHY4464FN6NBJ2NLFWF354","","null","<img src=""img/land1.png"" style=""width:200px; border:14px solid green;"">","null","","","","","","","","","",""
"","image-keyboard-response","80","50220","0.0-80.0","3AMYWKA6YC8RVJV92PMAOUVKE1M6O9","A3NMU6AVMQ0QDB","30UZJB2POHY4464FN6NBJ2NLFWF354","","294.8000000715256","img/land6.png","74","295.39999997615814","1","0","3","2","0.8,0.2,0.2,0.2,0.8,0.2,0.2,0.2,0.8","0.8,0.2,0.2,0.2,0.8,0.2,0.2,0.2,0.8","1","",""
"","html-keyboard-response","81","50522","0.0-81.0","3AMYWKA6YC8RVJV92PMAOUVKE1M6O9","A3NMU6AVMQ0QDB","30UZJB2POHY4464FN6NBJ2NLFWF354","","null","<img src=""img/land6.png"" style=""width:200px;border:14px solid red;"">","null","","","","","","","","","",""
"","image-keyboard-response","82","50806","0.0-82.0","3AMYWKA6YC8RVJV92PMAOUVKE1M6O9","A3NMU6AVMQ0QDB","30UZJB2POHY4464FN6NBJ2NLFWF354","","282.5","img/land6.png","76","283.2999999523163","3","1","3","2","0.8,0.2,0.2,0.2,0.8,0.2,0.2,0.2,0.8","0.8,0.2,0.2,0.2,0.8,0.2,0.2,0.2,0.8","1","",""
"","html-keyboard-response","83","51109","0.0-83.0","3AMYWKA6YC8RVJV92PMAOUVKE1M6O9","A3NMU6AVMQ0QDB","30UZJB2POHY4464FN6NBJ2NLFWF354","","null","<img src=""img/land6.png"" style=""width:200px; border:14px solid green;"">","null","","","","","","","","","",""
"","image-keyboard-response","84","51276","0.0-84.0","3AMYWKA6YC8RVJV92PMAOUVKE1M6O9","A3NMU6AVMQ0QDB","30UZJB2POHY4464FN6NBJ2NLFWF354","","165.79999995231628","img/land1.png","74","166.5","1","1","1","2","0.8,0.2,0.2,0.2,0.8,0.2,0.2,0.2,0.8","0.8,0.2,0.2,0.2,0.8,0.2,0.2,0.2,0.8","1","",""
"","html-keyboard-response","85","51579","0.0-85.0","3AMYWKA6YC8RVJV92PMAOUVKE1M6O9","A3NMU6AVMQ0QDB","30UZJB2POHY4464FN6NBJ2NLFWF354","","null","<img src=""img/land1.png"" style=""width:200px; border:14px solid green;"">","null","","","","","","","","","",""
"","image-keyboard-response","86","51796","0.0-86.0","3AMYWKA6YC8RVJV92PMAOUVKE1M6O9","A3NMU6AVMQ0QDB","30UZJB2POHY4464FN6NBJ2NLFWF354","","216.20000004768372","img/land1.png","76","217","3","0","1","2","0.8,0.2,0.2,0.2,0.8,0.2,0.2,0.2,0.8","0.8,0.2,0.2,0.2,0.8,0.2,0.2,0.2,0.8","1","",""
"","html-keyboard-response","87","52101","0.0-87.0","3AMYWKA6YC8RVJV92PMAOUVKE1M6O9","A3NMU6AVMQ0QDB","30UZJB2POHY4464FN6NBJ2NLFWF354","","null","<img src=""img/land1.png"" style=""width:200px;border:14px solid red;"">","null","","","","","","","","","",""
"","image-keyboard-response","88","52276","0.0-88.0","3AMYWKA6YC8RVJV92PMAOUVKE1M6O9","A3NMU6AVMQ0QDB","30UZJB2POHY4464FN6NBJ2NLFWF354","","174.39999997615814","img/land1.png","74","175.19999992847443","1","1","1","2","0.8,0.2,0.2,0.2,0.8,0.2,0.2,0.2,0.8","0.8,0.2,0.2,0.2,0.8,0.2,0.2,0.2,0.8","1","",""
"","html-keyboard-response","89","52581","0.0-89.0","3AMYWKA6YC8RVJV92PMAOUVKE1M6O9","A3NMU6AVMQ0QDB","30UZJB2POHY4464FN6NBJ2NLFWF354","","null","<img src=""img/land1.png"" style=""width:200px; border:14px solid green;"">","null","","","","","","","","","",""
"","image-keyboard-response","90","52780","0.0-90.0","3AMYWKA6YC8RVJV92PMAOUVKE1M6O9","A3NMU6AVMQ0QDB","30UZJB2POHY4464FN6NBJ2NLFWF354","","198.39999997615814","img/land5.png","75","199.29999995231628","2","1","2","2","0.8,0.2,0.2,0.2,0.8,0.2,0.2,0.2,0.8","0.8,0.2,0.2,0.2,0.8,0.2,0.2,0.2,0.8","1","",""
"","html-keyboard-response","91","53082","0.0-91.0","3AMYWKA6YC8RVJV92PMAOUVKE1M6O9","A3NMU6AVMQ0QDB","30UZJB2POHY4464FN6NBJ2NLFWF354","","null","<img src=""img/land5.png"" style=""width:200px; border:14px solid green;"">","null","","","","","","","","","",""
"","image-keyboard-response","92","53433","0.0-92.0","3AMYWKA6YC8RVJV92PMAOUVKE1M6O9","A3NMU6AVMQ0QDB","30UZJB2POHY4464FN6NBJ2NLFWF354","","349.1999999284744","img/land1.png","74","350","1","1","1","2","0.8,0.2,0.2,0.2,0.8,0.2,0.2,0.2,0.8","0.8,0.2,0.2,0.2,0.8,0.2,0.2,0.2,0.8","1","",""
"","html-keyboard-response","93","53739","0.0-93.0","3AMYWKA6YC8RVJV92PMAOUVKE1M6O9","A3NMU6AVMQ0QDB","30UZJB2POHY4464FN6NBJ2NLFWF354","","null","<img src=""img/land1.png"" style=""width:200px; border:14px solid green;"">","null","","","","","","","","","",""
"","image-keyboard-response","94","53880","0.0-94.0","3AMYWKA6YC8RVJV92PMAOUVKE1M6O9","A3NMU6AVMQ0QDB","30UZJB2POHY4464FN6NBJ2NLFWF354","","140.70000004768372","img/land1.png","75","141.40000009536743","2","0","1","2","0.8,0.2,0.2,0.2,0.8,0.2,0.2,0.2,0.8","0.8,0.2,0.2,0.2,0.8,0.2,0.2,0.2,0.8","1","",""
"","html-keyboard-response","95","54183","0.0-95.0","3AMYWKA6YC8RVJV92PMAOUVKE1M6O9","A3NMU6AVMQ0QDB","30UZJB2POHY4464FN6NBJ2NLFWF354","","null","<img src=""img/land1.png"" style=""width:200px;border:14px solid red;"">","null","","","","","","","","","",""
"","image-keyboard-response","96","54473","0.0-96.0","3AMYWKA6YC8RVJV92PMAOUVKE1M6O9","A3NMU6AVMQ0QDB","30UZJB2POHY4464FN6NBJ2NLFWF354","","288.39999997615814","img/land6.png","76","289.09999990463257","3","0","3","2","0.8,0.2,0.2,0.2,0.8,0.2,0.2,0.2,0.8","0.8,0.2,0.2,0.2,0.8,0.2,0.2,0.2,0.8","1","",""
"","html-keyboard-response","97","54777","0.0-97.0","3AMYWKA6YC8RVJV92PMAOUVKE1M6O9","A3NMU6AVMQ0QDB","30UZJB2POHY4464FN6NBJ2NLFWF354","","null","<img src=""img/land6.png"" style=""width:200px;border:14px solid red;"">","null","","","","","","","","","",""
"","image-keyboard-response","98","54956","0.0-98.0","3AMYWKA6YC8RVJV92PMAOUVKE1M6O9","A3NMU6AVMQ0QDB","30UZJB2POHY4464FN6NBJ2NLFWF354","","177.5","img/land6.png","75","178.29999995231628","2","0","3","2","0.8,0.2,0.2,0.2,0.8,0.2,0.2,0.2,0.8","0.8,0.2,0.2,0.2,0.8,0.2,0.2,0.2,0.8","1","",""
"","html-keyboard-response","99","55259","0.0-99.0","3AMYWKA6YC8RVJV92PMAOUVKE1M6O9","A3NMU6AVMQ0QDB","30UZJB2POHY4464FN6NBJ2NLFWF354","","null","<img src=""img/land6.png"" style=""width:200px;border:14px solid red;"">","null","","","","","","","","","",""
"","image-keyboard-response","100","55405","0.0-100.0","3AMYWKA6YC8RVJV92PMAOUVKE1M6O9","A3NMU6AVMQ0QDB","30UZJB2POHY4464FN6NBJ2NLFWF354","","144.80000007152557","img/land1.png","74","145.5","1","1","1","2","0.8,0.2,0.2,0.2,0.8,0.2,0.2,0.2,0.8","0.8,0.2,0.2,0.2,0.8,0.2,0.2,0.2,0.8","1","",""
"","html-keyboard-response","101","55706","0.0-101.0","3AMYWKA6YC8RVJV92PMAOUVKE1M6O9","A3NMU6AVMQ0QDB","30UZJB2POHY4464FN6NBJ2NLFWF354","","null","<img src=""img/land1.png"" style=""width:200px; border:14px solid green;"">","null","","","","","","","","","",""
"","image-keyboard-response","102","55780","0.0-102.0","3AMYWKA6YC8RVJV92PMAOUVKE1M6O9","A3NMU6AVMQ0QDB","30UZJB2POHY4464FN6NBJ2NLFWF354","","72.79999995231628","img/land5.png","75","73.60000002384186","2","1","2","2","0.8,0.2,0.2,0.2,0.8,0.2,0.2,0.2,0.8","0.8,0.2,0.2,0.2,0.8,0.2,0.2,0.2,0.8","1","",""
"","html-keyboard-response","103","56085","0.0-103.0","3AMYWKA6YC8RVJV92PMAOUVKE1M6O9","A3NMU6AVMQ0QDB","30UZJB2POHY4464FN6NBJ2NLFWF354","","null","<img src=""img/land5.png"" style=""width:200px; border:14px solid green;"">","null","","","","","","","","","",""
"","image-keyboard-response","104","56137","0.0-104.0","3AMYWKA6YC8RVJV92PMAOUVKE1M6O9","A3NMU6AVMQ0QDB","30UZJB2POHY4464FN6NBJ2NLFWF354","","50.700000047683716","img/land6.png","76","51.5","3","1","3","2","0.8,0.2,0.2,0.2,0.8,0.2,0.2,0.2,0.8","0.8,0.2,0.2,0.2,0.8,0.2,0.2,0.2,0.8","1","",""
"","html-keyboard-response","105","56442","0.0-105.0","3AMYWKA6YC8RVJV92PMAOUVKE1M6O9","A3NMU6AVMQ0QDB","30UZJB2POHY4464FN6NBJ2NLFWF354","","null","<img src=""img/land6.png"" style=""width:200px; border:14px solid green;"">","null","","","","","","","","","",""
"","image-keyboard-response","106","56726","0.0-106.0","3AMYWKA6YC8RVJV92PMAOUVKE1M6O9","A3NMU6AVMQ0QDB","30UZJB2POHY4464FN6NBJ2NLFWF354","","283.10000002384186","img/land1.png","74","283.7999999523163","1","0","1","2","0.8,0.2,0.2,0.2,0.8,0.2,0.2,0.2,0.8","0.8,0.2,0.2,0.2,0.8,0.2,0.2,0.2,0.8","1","",""
"","html-keyboard-response","107","57028","0.0-107.0","3AMYWKA6YC8RVJV92PMAOUVKE1M6O9","A3NMU6AVMQ0QDB","30UZJB2POHY4464FN6NBJ2NLFWF354","","null","<img src=""img/land1.png"" style=""width:200px;border:14px solid red;"">","null","","","","","","","","","",""
"","image-keyboard-response","108","57427","0.0-108.0","3AMYWKA6YC8RVJV92PMAOUVKE1M6O9","A3NMU6AVMQ0QDB","30UZJB2POHY4464FN6NBJ2NLFWF354","","398.5","img/land1.png","76","399.10000002384186","3","0","1","2","0.8,0.2,0.2,0.2,0.8,0.2,0.2,0.2,0.8","0.8,0.2,0.2,0.2,0.8,0.2,0.2,0.2,0.8","1","",""
"","html-keyboard-response","109","57733","0.0-109.0","3AMYWKA6YC8RVJV92PMAOUVKE1M6O9","A3NMU6AVMQ0QDB","30UZJB2POHY4464FN6NBJ2NLFWF354","","null","<img src=""img/land1.png"" style=""width:200px;border:14px solid red;"">","null","","","","","","","","","",""
"","image-keyboard-response","110","58151","0.0-110.0","3AMYWKA6YC8RVJV92PMAOUVKE1M6O9","A3NMU6AVMQ0QDB","30UZJB2POHY4464FN6NBJ2NLFWF354","","417.3000000715256","img/land1.png","74","418.09999990463257","1","1","1","2","0.8,0.2,0.2,0.2,0.8,0.2,0.2,0.2,0.8","0.8,0.2,0.2,0.2,0.8,0.2,0.2,0.2,0.8","1","",""
"","html-keyboard-response","111","58453","0.0-111.0","3AMYWKA6YC8RVJV92PMAOUVKE1M6O9","A3NMU6AVMQ0QDB","30UZJB2POHY4464FN6NBJ2NLFWF354","","null","<img src=""img/land1.png"" style=""width:200px; border:14px solid green;"">","null","","","","","","","","","",""
"","image-keyboard-response","112","58776","0.0-112.0","3AMYWKA6YC8RVJV92PMAOUVKE1M6O9","A3NMU6AVMQ0QDB","30UZJB2POHY4464FN6NBJ2NLFWF354","","321.8000000715256","img/land6.png","76","322.5","3","0","3","2","0.8,0.2,0.2,0.2,0.8,0.2,0.2,0.2,0.8","0.8,0.2,0.2,0.2,0.8,0.2,0.2,0.2,0.8","1","",""
"","html-keyboard-response","113","59079","0.0-113.0","3AMYWKA6YC8RVJV92PMAOUVKE1M6O9","A3NMU6AVMQ0QDB","30UZJB2POHY4464FN6NBJ2NLFWF354","","null","<img src=""img/land6.png"" style=""width:200px;border:14px solid red;"">","null","","","","","","","","","",""
"","image-keyboard-response","114","59433","0.0-114.0","3AMYWKA6YC8RVJV92PMAOUVKE1M6O9","A3NMU6AVMQ0QDB","30UZJB2POHY4464FN6NBJ2NLFWF354","","353.10000002384186","img/land1.png","74","353.89999997615814","1","0","1","2","0.8,0.2,0.2,0.2,0.8,0.2,0.2,0.2,0.8","0.8,0.2,0.2,0.2,0.8,0.2,0.2,0.2,0.8","1","",""
"","html-keyboard-response","115","59738","0.0-115.0","3AMYWKA6YC8RVJV92PMAOUVKE1M6O9","A3NMU6AVMQ0QDB","30UZJB2POHY4464FN6NBJ2NLFWF354","","null","<img src=""img/land1.png"" style=""width:200px;border:14px solid red;"">","null","","","","","","","","","",""
"","image-keyboard-response","116","59910","0.0-116.0","3AMYWKA6YC8RVJV92PMAOUVKE1M6O9","A3NMU6AVMQ0QDB","30UZJB2POHY4464FN6NBJ2NLFWF354","","171","img/land1.png","75","171.70000004768372","2","0","1","2","0.8,0.2,0.2,0.2,0.8,0.2,0.2,0.2,0.8","0.8,0.2,0.2,0.2,0.8,0.2,0.2,0.2,0.8","1","",""
"","html-keyboard-response","117","60215","0.0-117.0","3AMYWKA6YC8RVJV92PMAOUVKE1M6O9","A3NMU6AVMQ0QDB","30UZJB2POHY4464FN6NBJ2NLFWF354","","null","<img src=""img/land1.png"" style=""width:200px;border:14px solid red;"">","null","","","","","","","","","",""
"","image-keyboard-response","118","60260","0.0-118.0","3AMYWKA6YC8RVJV92PMAOUVKE1M6O9","A3NMU6AVMQ0QDB","30UZJB2POHY4464FN6NBJ2NLFWF354","","44.299999952316284","img/land6.png","74","45.10000002384186","1","0","3","2","0.8,0.2,0.2,0.2,0.8,0.2,0.2,0.2,0.8","0.8,0.2,0.2,0.2,0.8,0.2,0.2,0.2,0.8","1","",""
"","html-keyboard-response","119","60565","0.0-119.0","3AMYWKA6YC8RVJV92PMAOUVKE1M6O9","A3NMU6AVMQ0QDB","30UZJB2POHY4464FN6NBJ2NLFWF354","","null","<img src=""img/land6.png"" style=""width:200px;border:14px solid red;"">","null","","","","","","","","","",""
"","image-keyboard-response","120","60693","0.0-120.0","3AMYWKA6YC8RVJV92PMAOUVKE1M6O9","A3NMU6AVMQ0QDB","30UZJB2POHY4464FN6NBJ2NLFWF354","","126.89999997615814","img/land5.png","76","127.60000002384186","3","1","2","2","0.8,0.2,0.2,0.2,0.8,0.2,0.2,0.2,0.8","0.8,0.2,0.2,0.2,0.8,0.2,0.2,0.2,0.8","1","",""
"","html-keyboard-response","121","60997","0.0-121.0","3AMYWKA6YC8RVJV92PMAOUVKE1M6O9","A3NMU6AVMQ0QDB","30UZJB2POHY4464FN6NBJ2NLFWF354","","null","<img src=""img/land5.png"" style=""width:200px; border:14px solid green;"">","null","","","","","","","","","",""
"","image-keyboard-response","122","61080","0.0-122.0","3AMYWKA6YC8RVJV92PMAOUVKE1M6O9","A3NMU6AVMQ0QDB","30UZJB2POHY4464FN6NBJ2NLFWF354","","81.60000002384186","img/land1.png","75","82.39999997615814","2","1","1","2","0.8,0.2,0.2,0.2,0.8,0.2,0.2,0.2,0.8","0.8,0.2,0.2,0.2,0.8,0.2,0.2,0.2,0.8","1","",""
"","html-keyboard-response","123","61381","0.0-123.0","3AMYWKA6YC8RVJV92PMAOUVKE1M6O9","A3NMU6AVMQ0QDB","30UZJB2POHY4464FN6NBJ2NLFWF354","","null","<img src=""img/land1.png"" style=""width:200px; border:14px solid green;"">","null","","","","","","","","","",""
"","image-keyboard-response","124","61490","0.0-124.0","3AMYWKA6YC8RVJV92PMAOUVKE1M6O9","A3NMU6AVMQ0QDB","30UZJB2POHY4464FN6NBJ2NLFWF354","","107.70000004768372","img/land1.png","74","108.60000002384186","1","1","1","2","0.8,0.2,0.2,0.2,0.8,0.2,0.2,0.2,0.8","0.8,0.2,0.2,0.2,0.8,0.2,0.2,0.2,0.8","1","",""
"","html-keyboard-response","125","61792","0.0-125.0","3AMYWKA6YC8RVJV92PMAOUVKE1M6O9","A3NMU6AVMQ0QDB","30UZJB2POHY4464FN6NBJ2NLFWF354","","null","<img src=""img/land1.png"" style=""width:200px; border:14px solid green;"">","null","","","","","","","","","",""
"","image-keyboard-response","126","62086","0.0-126.0","3AMYWKA6YC8RVJV92PMAOUVKE1M6O9","A3NMU6AVMQ0QDB","30UZJB2POHY4464FN6NBJ2NLFWF354","","293","img/land1.png","76","293.8000000715256","3","0","1","2","0.8,0.2,0.2,0.2,0.8,0.2,0.2,0.2,0.8","0.8,0.2,0.2,0.2,0.8,0.2,0.2,0.2,0.8","1","",""
"","html-keyboard-response","127","62389","0.0-127.0","3AMYWKA6YC8RVJV92PMAOUVKE1M6O9","A3NMU6AVMQ0QDB","30UZJB2POHY4464FN6NBJ2NLFWF354","","null","<img src=""img/land1.png"" style=""width:200px;border:14px solid red;"">","null","","","","","","","","","",""
"","image-keyboard-response","128","62607","0.0-128.0","3AMYWKA6YC8RVJV92PMAOUVKE1M6O9","A3NMU6AVMQ0QDB","30UZJB2POHY4464FN6NBJ2NLFWF354","","217","img/land6.png","74","217.89999997615814","1","1","3","2","0.8,0.2,0.2,0.2,0.8,0.2,0.2,0.2,0.8","0.8,0.2,0.2,0.2,0.8,0.2,0.2,0.2,0.8","1","",""
"","html-keyboard-response","129","62912","0.0-129.0","3AMYWKA6YC8RVJV92PMAOUVKE1M6O9","A3NMU6AVMQ0QDB","30UZJB2POHY4464FN6NBJ2NLFWF354","","null","<img src=""img/land6.png"" style=""width:200px; border:14px solid green;"">","null","","","","","","","","","",""
"","image-keyboard-response","130","62916","0.0-130.0","3AMYWKA6YC8RVJV92PMAOUVKE1M6O9","A3NMU6AVMQ0QDB","30UZJB2POHY4464FN6NBJ2NLFWF354","","3.5","img/land1.png","75","4.400000095367432","2","0","1","2","0.8,0.2,0.2,0.2,0.8,0.2,0.2,0.2,0.8","0.8,0.2,0.2,0.2,0.8,0.2,0.2,0.2,0.8","1","",""
"","html-keyboard-response","131","63220","0.0-131.0","3AMYWKA6YC8RVJV92PMAOUVKE1M6O9","A3NMU6AVMQ0QDB","30UZJB2POHY4464FN6NBJ2NLFWF354","","null","<img src=""img/land1.png"" style=""width:200px;border:14px solid red;"">","null","","","","","","","","","",""
"","image-keyboard-response","132","63234","0.0-132.0","3AMYWKA6YC8RVJV92PMAOUVKE1M6O9","A3NMU6AVMQ0QDB","30UZJB2POHY4464FN6NBJ2NLFWF354","","12.800000071525574","img/land1.png","76","13.5","3","0","1","2","0.8,0.2,0.2,0.2,0.8,0.2,0.2,0.2,0.8","0.8,0.2,0.2,0.2,0.8,0.2,0.2,0.2,0.8","1","",""
"","html-keyboard-response","133","63536","0.0-133.0","3AMYWKA6YC8RVJV92PMAOUVKE1M6O9","A3NMU6AVMQ0QDB","30UZJB2POHY4464FN6NBJ2NLFWF354","","null","<img src=""img/land1.png"" style=""width:200px;border:14px solid red;"">","null","","","","","","","","","",""
"","image-keyboard-response","134","63589","0.0-134.0","3AMYWKA6YC8RVJV92PMAOUVKE1M6O9","A3NMU6AVMQ0QDB","30UZJB2POHY4464FN6NBJ2NLFWF354","","52","img/land5.png","74","52.90000009536743","1","0","2","2","0.8,0.2,0.2,0.2,0.8,0.2,0.2,0.2,0.8","0.8,0.2,0.2,0.2,0.8,0.2,0.2,0.2,0.8","1","",""
"","html-keyboard-response","135","63894","0.0-135.0","3AMYWKA6YC8RVJV92PMAOUVKE1M6O9","A3NMU6AVMQ0QDB","30UZJB2POHY4464FN6NBJ2NLFWF354","","null","<img src=""img/land5.png"" style=""width:200px;border:14px solid red;"">","null","","","","","","","","","",""
"","image-keyboard-response","136","63909","0.0-136.0","3AMYWKA6YC8RVJV92PMAOUVKE1M6O9","A3NMU6AVMQ0QDB","30UZJB2POHY4464FN6NBJ2NLFWF354","","14.5","img/land5.png","74","15.299999952316284","1","0","2","2","0.8,0.2,0.2,0.2,0.8,0.2,0.2,0.2,0.8","0.8,0.2,0.2,0.2,0.8,0.2,0.2,0.2,0.8","1","",""
"","html-keyboard-response","137","64215","0.0-137.0","3AMYWKA6YC8RVJV92PMAOUVKE1M6O9","A3NMU6AVMQ0QDB","30UZJB2POHY4464FN6NBJ2NLFWF354","","null","<img src=""img/land5.png"" style=""width:200px;border:14px solid red;"">","null","","","","","","","","","",""
"","image-keyboard-response","138","64402","0.0-138.0","3AMYWKA6YC8RVJV92PMAOUVKE1M6O9","A3NMU6AVMQ0QDB","30UZJB2POHY4464FN6NBJ2NLFWF354","","186.19999992847443","img/land1.png","76","186.89999997615814","3","0","1","2","0.8,0.2,0.2,0.2,0.8,0.2,0.2,0.2,0.8","0.8,0.2,0.2,0.2,0.8,0.2,0.2,0.2,0.8","1","",""
"","html-keyboard-response","139","64707","0.0-139.0","3AMYWKA6YC8RVJV92PMAOUVKE1M6O9","A3NMU6AVMQ0QDB","30UZJB2POHY4464FN6NBJ2NLFWF354","","null","<img src=""img/land1.png"" style=""width:200px;border:14px solid red;"">","null","","","","","","","","","",""
"","image-keyboard-response","140","64869","0.0-140.0","3AMYWKA6YC8RVJV92PMAOUVKE1M6O9","A3NMU6AVMQ0QDB","30UZJB2POHY4464FN6NBJ2NLFWF354","","160.60000002384186","img/land1.png","75","161.19999992847443","2","0","1","2","0.8,0.2,0.2,0.2,0.8,0.2,0.2,0.2,0.8","0.8,0.2,0.2,0.2,0.8,0.2,0.2,0.2,0.8","1","",""
"","html-keyboard-response","141","65173","0.0-141.0","3AMYWKA6YC8RVJV92PMAOUVKE1M6O9","A3NMU6AVMQ0QDB","30UZJB2POHY4464FN6NBJ2NLFWF354","","null","<img src=""img/land1.png"" style=""width:200px;border:14px solid red;"">","null","","","","","","","","","",""
"","image-keyboard-response","142","65199","0.0-142.0","3AMYWKA6YC8RVJV92PMAOUVKE1M6O9","A3NMU6AVMQ0QDB","30UZJB2POHY4464FN6NBJ2NLFWF354","","24.700000047683716","img/land5.png","74","25.5","1","0","2","2","0.8,0.2,0.2,0.2,0.8,0.2,0.2,0.2,0.8","0.8,0.2,0.2,0.2,0.8,0.2,0.2,0.2,0.8","1","",""
"","html-keyboard-response","143","65504","0.0-143.0","3AMYWKA6YC8RVJV92PMAOUVKE1M6O9","A3NMU6AVMQ0QDB","30UZJB2POHY4464FN6NBJ2NLFWF354","","null","<img src=""img/land5.png"" style=""width:200px;border:14px solid red;"">","null","","","","","","","","","",""
"","image-keyboard-response","144","65739","0.0-144.0","3AMYWKA6YC8RVJV92PMAOUVKE1M6O9","A3NMU6AVMQ0QDB","30UZJB2POHY4464FN6NBJ2NLFWF354","","234.20000004768372","img/land1.png","75","235","2","1","1","2","0.8,0.2,0.2,0.2,0.8,0.2,0.2,0.2,0.8","0.8,0.2,0.2,0.2,0.8,0.2,0.2,0.2,0.8","1","",""
"","html-keyboard-response","145","66044","0.0-145.0","3AMYWKA6YC8RVJV92PMAOUVKE1M6O9","A3NMU6AVMQ0QDB","30UZJB2POHY4464FN6NBJ2NLFWF354","","null","<img src=""img/land1.png"" style=""width:200px; border:14px solid green;"">","null","","","","","","","","","",""
"","image-keyboard-response","146","66185","0.0-146.0","3AMYWKA6YC8RVJV92PMAOUVKE1M6O9","A3NMU6AVMQ0QDB","30UZJB2POHY4464FN6NBJ2NLFWF354","","140.5","img/land1.png","75","141.10000002384186","2","0","1","2","0.8,0.2,0.2,0.2,0.8,0.2,0.2,0.2,0.8","0.8,0.2,0.2,0.2,0.8,0.2,0.2,0.2,0.8","1","",""
"","html-keyboard-response","147","66490","0.0-147.0","3AMYWKA6YC8RVJV92PMAOUVKE1M6O9","A3NMU6AVMQ0QDB","30UZJB2POHY4464FN6NBJ2NLFWF354","","null","<img src=""img/land1.png"" style=""width:200px;border:14px solid red;"">","null","","","","","","","","","",""
"","image-keyboard-response","148","66990","0.0-148.0","3AMYWKA6YC8RVJV92PMAOUVKE1M6O9","A3NMU6AVMQ0QDB","30UZJB2POHY4464FN6NBJ2NLFWF354","","498.2999999523163","img/land1.png","76","499","3","0","1","2","0.8,0.2,0.2,0.2,0.8,0.2,0.2,0.2,0.8","0.8,0.2,0.2,0.2,0.8,0.2,0.2,0.2,0.8","1","",""
"","html-keyboard-response","149","67292","0.0-149.0","3AMYWKA6YC8RVJV92PMAOUVKE1M6O9","A3NMU6AVMQ0QDB","30UZJB2POHY4464FN6NBJ2NLFWF354","","null","<img src=""img/land1.png"" style=""width:200px;border:14px solid red;"">","null","","","","","","","","","",""
"","image-keyboard-response","150","67390","0.0-150.0","3AMYWKA6YC8RVJV92PMAOUVKE1M6O9","A3NMU6AVMQ0QDB","30UZJB2POHY4464FN6NBJ2NLFWF354","","97","img/land6.png","75","97.70000004768372","2","0","3","2","0.8,0.2,0.2,0.2,0.8,0.2,0.2,0.2,0.8","0.8,0.2,0.2,0.2,0.8,0.2,0.2,0.2,0.8","1","",""
"","html-keyboard-response","151","67696","0.0-151.0","3AMYWKA6YC8RVJV92PMAOUVKE1M6O9","A3NMU6AVMQ0QDB","30UZJB2POHY4464FN6NBJ2NLFWF354","","null","<img src=""img/land6.png"" style=""width:200px;border:14px solid red;"">","null","","","","","","","","","",""
"","image-keyboard-response","152","67996","0.0-152.0","3AMYWKA6YC8RVJV92PMAOUVKE1M6O9","A3NMU6AVMQ0QDB","30UZJB2POHY4464FN6NBJ2NLFWF354","","299.60000002384186","img/land1.png","74","300.60000002384186","1","1","1","2","0.8,0.2,0.2,0.2,0.8,0.2,0.2,0.2,0.8","0.8,0.2,0.2,0.2,0.8,0.2,0.2,0.2,0.8","1","",""
"","html-keyboard-response","153","68298","0.0-153.0","3AMYWKA6YC8RVJV92PMAOUVKE1M6O9","A3NMU6AVMQ0QDB","30UZJB2POHY4464FN6NBJ2NLFWF354","","null","<img src=""img/land1.png"" style=""width:200px; border:14px solid green;"">","null","","","","","","","","","",""
"","image-keyboard-response","154","68633","0.0-154.0","3AMYWKA6YC8RVJV92PMAOUVKE1M6O9","A3NMU6AVMQ0QDB","30UZJB2POHY4464FN6NBJ2NLFWF354","","333.2999999523163","img/land1.png","76","334.10000002384186","3","0","1","2","0.8,0.2,0.2,0.2,0.8,0.2,0.2,0.2,0.8","0.8,0.2,0.2,0.2,0.8,0.2,0.2,0.2,0.8","1","",""
"","html-keyboard-response","155","68938","0.0-155.0","3AMYWKA6YC8RVJV92PMAOUVKE1M6O9","A3NMU6AVMQ0QDB","30UZJB2POHY4464FN6NBJ2NLFWF354","","null","<img src=""img/land1.png"" style=""width:200px;border:14px solid red;"">","null","","","","","","","","","",""
"","image-keyboard-response","156","69405","0.0-156.0","3AMYWKA6YC8RVJV92PMAOUVKE1M6O9","A3NMU6AVMQ0QDB","30UZJB2POHY4464FN6NBJ2NLFWF354","","465.60000002384186","img/land1.png","76","466.39999997615814","3","0","1","2","0.8,0.2,0.2,0.2,0.8,0.2,0.2,0.2,0.8","0.8,0.2,0.2,0.2,0.8,0.2,0.2,0.2,0.8","1","",""
"","html-keyboard-response","157","69706","0.0-157.0","3AMYWKA6YC8RVJV92PMAOUVKE1M6O9","A3NMU6AVMQ0QDB","30UZJB2POHY4464FN6NBJ2NLFWF354","","null","<img src=""img/land1.png"" style=""width:200px;border:14px solid red;"">","null","","","","","","","","","",""
"","image-keyboard-response","158","69911","0.0-158.0","3AMYWKA6YC8RVJV92PMAOUVKE1M6O9","A3NMU6AVMQ0QDB","30UZJB2POHY4464FN6NBJ2NLFWF354","","203.5","img/land5.png","74","204.29999995231628","1","0","2","2","0.8,0.2,0.2,0.2,0.8,0.2,0.2,0.2,0.8","0.8,0.2,0.2,0.2,0.8,0.2,0.2,0.2,0.8","1","",""
"","html-keyboard-response","159","70215","0.0-159.0","3AMYWKA6YC8RVJV92PMAOUVKE1M6O9","A3NMU6AVMQ0QDB","30UZJB2POHY4464FN6NBJ2NLFWF354","","null","<img src=""img/land5.png"" style=""width:200px;border:14px solid red;"">","null","","","","","","","","","",""
"","image-keyboard-response","160","70231","0.0-160.0","3AMYWKA6YC8RVJV92PMAOUVKE1M6O9","A3NMU6AVMQ0QDB","30UZJB2POHY4464FN6NBJ2NLFWF354","","15.600000023841858","img/land1.png","75","16.5","2","0","1","2","0.8,0.2,0.2,0.2,0.8,0.2,0.2,0.2,0.8","0.8,0.2,0.2,0.2,0.8,0.2,0.2,0.2,0.8","1","",""
"","html-keyboard-response","161","70538","0.0-161.0","3AMYWKA6YC8RVJV92PMAOUVKE1M6O9","A3NMU6AVMQ0QDB","30UZJB2POHY4464FN6NBJ2NLFWF354","","null","<img src=""img/land1.png"" style=""width:200px;border:14px solid red;"">","null","","","","","","","","","",""
"","image-keyboard-response","162","70586","0.0-162.0","3AMYWKA6YC8RVJV92PMAOUVKE1M6O9","A3NMU6AVMQ0QDB","30UZJB2POHY4464FN6NBJ2NLFWF354","","47","img/land5.png","76","48","3","0","2","2","0.8,0.2,0.2,0.2,0.8,0.2,0.2,0.2,0.8","0.8,0.2,0.2,0.2,0.8,0.2,0.2,0.2,0.8","1","",""
"","html-keyboard-response","163","70890","0.0-163.0","3AMYWKA6YC8RVJV92PMAOUVKE1M6O9","A3NMU6AVMQ0QDB","30UZJB2POHY4464FN6NBJ2NLFWF354","","null","<img src=""img/land5.png"" style=""width:200px;border:14px solid red;"">","null","","","","","","","","","",""
"","image-keyboard-response","164","71188","0.0-164.0","3AMYWKA6YC8RVJV92PMAOUVKE1M6O9","A3NMU6AVMQ0QDB","30UZJB2POHY4464FN6NBJ2NLFWF354","","296.59999990463257","img/land1.png","74","297.39999997615814","1","1","1","2","0.8,0.2,0.2,0.2,0.8,0.2,0.2,0.2,0.8","0.8,0.2,0.2,0.2,0.8,0.2,0.2,0.2,0.8","1","",""
"","html-keyboard-response","165","71492","0.0-165.0","3AMYWKA6YC8RVJV92PMAOUVKE1M6O9","A3NMU6AVMQ0QDB","30UZJB2POHY4464FN6NBJ2NLFWF354","","null","<img src=""img/land1.png"" style=""width:200px; border:14px solid green;"">","null","","","","","","","","","",""
"","image-keyboard-response","166","71683","0.0-166.0","3AMYWKA6YC8RVJV92PMAOUVKE1M6O9","A3NMU6AVMQ0QDB","30UZJB2POHY4464FN6NBJ2NLFWF354","","189.89999997615814","img/land1.png","76","190.59999990463257","3","0","1","2","0.8,0.2,0.2,0.2,0.8,0.2,0.2,0.2,0.8","0.8,0.2,0.2,0.2,0.8,0.2,0.2,0.2,0.8","1","",""
"","html-keyboard-response","167","71989","0.0-167.0","3AMYWKA6YC8RVJV92PMAOUVKE1M6O9","A3NMU6AVMQ0QDB","30UZJB2POHY4464FN6NBJ2NLFWF354","","null","<img src=""img/land1.png"" style=""width:200px;border:14px solid red;"">","null","","","","","","","","","",""
"","image-keyboard-response","168","72184","0.0-168.0","3AMYWKA6YC8RVJV92PMAOUVKE1M6O9","A3NMU6AVMQ0QDB","30UZJB2POHY4464FN6NBJ2NLFWF354","","193.89999997615814","img/land1.png","75","194.60000002384186","2","0","1","2","0.8,0.2,0.2,0.2,0.8,0.2,0.2,0.2,0.8","0.8,0.2,0.2,0.2,0.8,0.2,0.2,0.2,0.8","1","",""
"","html-keyboard-response","169","72488","0.0-169.0","3AMYWKA6YC8RVJV92PMAOUVKE1M6O9","A3NMU6AVMQ0QDB","30UZJB2POHY4464FN6NBJ2NLFWF354","","null","<img src=""img/land1.png"" style=""width:200px;border:14px solid red;"">","null","","","","","","","","","",""
"","image-keyboard-response","170","72761","0.0-170.0","3AMYWKA6YC8RVJV92PMAOUVKE1M6O9","A3NMU6AVMQ0QDB","30UZJB2POHY4464FN6NBJ2NLFWF354","","272.10000002384186","img/land6.png","74","273","1","0","3","2","0.8,0.2,0.2,0.2,0.8,0.2,0.2,0.2,0.8","0.8,0.2,0.2,0.2,0.8,0.2,0.2,0.2,0.8","1","",""
"","html-keyboard-response","171","73066","0.0-171.0","3AMYWKA6YC8RVJV92PMAOUVKE1M6O9","A3NMU6AVMQ0QDB","30UZJB2POHY4464FN6NBJ2NLFWF354","","null","<img src=""img/land6.png"" style=""width:200px;border:14px solid red;"">","null","","","","","","","","","",""
"","image-keyboard-response","172","73149","0.0-172.0","3AMYWKA6YC8RVJV92PMAOUVKE1M6O9","A3NMU6AVMQ0QDB","30UZJB2POHY4464FN6NBJ2NLFWF354","","82.09999990463257","img/land1.png","75","83","2","0","1","2","0.8,0.2,0.2,0.2,0.8,0.2,0.2,0.2,0.8","0.8,0.2,0.2,0.2,0.8,0.2,0.2,0.2,0.8","1","",""
"","html-keyboard-response","173","73450","0.0-173.0","3AMYWKA6YC8RVJV92PMAOUVKE1M6O9","A3NMU6AVMQ0QDB","30UZJB2POHY4464FN6NBJ2NLFWF354","","null","<img src=""img/land1.png"" style=""width:200px;border:14px solid red;"">","null","","","","","","","","","",""
"","image-keyboard-response","174","73902","0.0-174.0","3AMYWKA6YC8RVJV92PMAOUVKE1M6O9","A3NMU6AVMQ0QDB","30UZJB2POHY4464FN6NBJ2NLFWF354","","451.39999997615814","img/land1.png","75","452.10000002384186","2","0","1","2","0.8,0.2,0.2,0.2,0.8,0.2,0.2,0.2,0.8","0.8,0.2,0.2,0.2,0.8,0.2,0.2,0.2,0.8","1","",""
"","html-keyboard-response","175","74208","0.0-175.0","3AMYWKA6YC8RVJV92PMAOUVKE1M6O9","A3NMU6AVMQ0QDB","30UZJB2POHY4464FN6NBJ2NLFWF354","","null","<img src=""img/land1.png"" style=""width:200px;border:14px solid red;"">","null","","","","","","","","","",""
"","image-keyboard-response","176","74326","0.0-176.0","3AMYWKA6YC8RVJV92PMAOUVKE1M6O9","A3NMU6AVMQ0QDB","30UZJB2POHY4464FN6NBJ2NLFWF354","","117","img/land1.png","74","117.80000007152557","1","1","1","2","0.8,0.2,0.2,0.2,0.8,0.2,0.2,0.2,0.8","0.8,0.2,0.2,0.2,0.8,0.2,0.2,0.2,0.8","1","",""
"","html-keyboard-response","177","74629","0.0-177.0","3AMYWKA6YC8RVJV92PMAOUVKE1M6O9","A3NMU6AVMQ0QDB","30UZJB2POHY4464FN6NBJ2NLFWF354","","null","<img src=""img/land1.png"" style=""width:200px; border:14px solid green;"">","null","","","","","","","","","",""
"","image-keyboard-response","178","74710","0.0-178.0","3AMYWKA6YC8RVJV92PMAOUVKE1M6O9","A3NMU6AVMQ0QDB","30UZJB2POHY4464FN6NBJ2NLFWF354","","80.10000002384186","img/land1.png","75","81","2","0","1","2","0.8,0.2,0.2,0.2,0.8,0.2,0.2,0.2,0.8","0.8,0.2,0.2,0.2,0.8,0.2,0.2,0.2,0.8","1","",""
"","html-keyboard-response","179","75015","0.0-179.0","3AMYWKA6YC8RVJV92PMAOUVKE1M6O9","A3NMU6AVMQ0QDB","30UZJB2POHY4464FN6NBJ2NLFWF354","","null","<img src=""img/land1.png"" style=""width:200px;border:14px solid red;"">","null","","","","","","","","","",""
"","image-keyboard-response","180","75115","0.0-180.0","3AMYWKA6YC8RVJV92PMAOUVKE1M6O9","A3NMU6AVMQ0QDB","30UZJB2POHY4464FN6NBJ2NLFWF354","","99.5","img/land6.png","75","100.20000004768372","2","1","3","2","0.8,0.2,0.2,0.2,0.8,0.2,0.2,0.2,0.8","0.8,0.2,0.2,0.2,0.8,0.2,0.2,0.2,0.8","1","",""
"","html-keyboard-response","181","75418","0.0-181.0","3AMYWKA6YC8RVJV92PMAOUVKE1M6O9","A3NMU6AVMQ0QDB","30UZJB2POHY4464FN6NBJ2NLFWF354","","null","<img src=""img/land6.png"" style=""width:200px; border:14px solid green;"">","null","","","","","","","","","",""
"","image-keyboard-response","182","75543","0.0-182.0","3AMYWKA6YC8RVJV92PMAOUVKE1M6O9","A3NMU6AVMQ0QDB","30UZJB2POHY4464FN6NBJ2NLFWF354","","123.5","img/land1.png","75","124.29999995231628","2","0","1","2","0.8,0.2,0.2,0.2,0.8,0.2,0.2,0.2,0.8","0.8,0.2,0.2,0.2,0.8,0.2,0.2,0.2,0.8","1","",""
"","html-keyboard-response","183","75845","0.0-183.0","3AMYWKA6YC8RVJV92PMAOUVKE1M6O9","A3NMU6AVMQ0QDB","30UZJB2POHY4464FN6NBJ2NLFWF354","","null","<img src=""img/land1.png"" style=""width:200px;border:14px solid red;"">","null","","","","","","","","","",""
"","image-keyboard-response","184","75874","0.0-184.0","3AMYWKA6YC8RVJV92PMAOUVKE1M6O9","A3NMU6AVMQ0QDB","30UZJB2POHY4464FN6NBJ2NLFWF354","","28.300000071525574","img/land1.png","75","29.09999990463257","2","0","1","2","0.8,0.2,0.2,0.2,0.8,0.2,0.2,0.2,0.8","0.8,0.2,0.2,0.2,0.8,0.2,0.2,0.2,0.8","1","",""
"","html-keyboard-response","185","76177","0.0-185.0","3AMYWKA6YC8RVJV92PMAOUVKE1M6O9","A3NMU6AVMQ0QDB","30UZJB2POHY4464FN6NBJ2NLFWF354","","null","<img src=""img/land1.png"" style=""width:200px;border:14px solid red;"">","null","","","","","","","","","",""
"","image-keyboard-response","186","76532","0.0-186.0","3AMYWKA6YC8RVJV92PMAOUVKE1M6O9","A3NMU6AVMQ0QDB","30UZJB2POHY4464FN6NBJ2NLFWF354","","354.2999999523163","img/land1.png","75","355","2","0","1","2","0.8,0.2,0.2,0.2,0.8,0.2,0.2,0.2,0.8","0.8,0.2,0.2,0.2,0.8,0.2,0.2,0.2,0.8","1","",""
"","html-keyboard-response","187","76837","0.0-187.0","3AMYWKA6YC8RVJV92PMAOUVKE1M6O9","A3NMU6AVMQ0QDB","30UZJB2POHY4464FN6NBJ2NLFWF354","","null","<img src=""img/land1.png"" style=""width:200px;border:14px solid red;"">","null","","","","","","","","","",""
"","image-keyboard-response","188","76897","0.0-188.0","3AMYWKA6YC8RVJV92PMAOUVKE1M6O9","A3NMU6AVMQ0QDB","30UZJB2POHY4464FN6NBJ2NLFWF354","","59.59999990463257","img/land1.png","74","60.299999952316284","1","0","1","2","0.8,0.2,0.2,0.2,0.8,0.2,0.2,0.2,0.8","0.8,0.2,0.2,0.2,0.8,0.2,0.2,0.2,0.8","1","",""
"","html-keyboard-response","189","77202","0.0-189.0","3AMYWKA6YC8RVJV92PMAOUVKE1M6O9","A3NMU6AVMQ0QDB","30UZJB2POHY4464FN6NBJ2NLFWF354","","null","<img src=""img/land1.png"" style=""width:200px;border:14px solid red;"">","null","","","","","","","","","",""
"","image-keyboard-response","190","77285","0.0-190.0","3AMYWKA6YC8RVJV92PMAOUVKE1M6O9","A3NMU6AVMQ0QDB","30UZJB2POHY4464FN6NBJ2NLFWF354","","82","img/land5.png","74","82.79999995231628","1","0","2","2","0.8,0.2,0.2,0.2,0.8,0.2,0.2,0.2,0.8","0.8,0.2,0.2,0.2,0.8,0.2,0.2,0.2,0.8","1","",""
"","html-keyboard-response","191","77589","0.0-191.0","3AMYWKA6YC8RVJV92PMAOUVKE1M6O9","A3NMU6AVMQ0QDB","30UZJB2POHY4464FN6NBJ2NLFWF354","","null","<img src=""img/land5.png"" style=""width:200px;border:14px solid red;"">","null","","","","","","","","","",""
"","image-keyboard-response","192","77646","0.0-192.0","3AMYWKA6YC8RVJV92PMAOUVKE1M6O9","A3NMU6AVMQ0QDB","30UZJB2POHY4464FN6NBJ2NLFWF354","","56.5","img/land1.png","74","57.39999997615814","1","1","1","2","0.8,0.2,0.2,0.2,0.8,0.2,0.2,0.2,0.8","0.8,0.2,0.2,0.2,0.8,0.2,0.2,0.2,0.8","1","",""
"","html-keyboard-response","193","77951","0.0-193.0","3AMYWKA6YC8RVJV92PMAOUVKE1M6O9","A3NMU6AVMQ0QDB","30UZJB2POHY4464FN6NBJ2NLFWF354","","null","<img src=""img/land1.png"" style=""width:200px; border:14px solid green;"">","null","","","","","","","","","",""
"","image-keyboard-response","194","77982","0.0-194.0","3AMYWKA6YC8RVJV92PMAOUVKE1M6O9","A3NMU6AVMQ0QDB","30UZJB2POHY4464FN6NBJ2NLFWF354","","29.600000023841858","img/land1.png","74","30.5","1","1","1","2","0.8,0.2,0.2,0.2,0.8,0.2,0.2,0.2,0.8","0.8,0.2,0.2,0.2,0.8,0.2,0.2,0.2,0.8","1","",""
"","html-keyboard-response","195","78287","0.0-195.0","3AMYWKA6YC8RVJV92PMAOUVKE1M6O9","A3NMU6AVMQ0QDB","30UZJB2POHY4464FN6NBJ2NLFWF354","","null","<img src=""img/land1.png"" style=""width:200px; border:14px solid green;"">","null","","","","","","","","","",""
"","image-keyboard-response","196","78586","0.0-196.0","3AMYWKA6YC8RVJV92PMAOUVKE1M6O9","A3NMU6AVMQ0QDB","30UZJB2POHY4464FN6NBJ2NLFWF354","","297.10000002384186","img/land6.png","74","297.90000009536743","1","0","3","2","0.8,0.2,0.2,0.2,0.8,0.2,0.2,0.2,0.8","0.8,0.2,0.2,0.2,0.8,0.2,0.2,0.2,0.8","1","",""
"","html-keyboard-response","197","78890","0.0-197.0","3AMYWKA6YC8RVJV92PMAOUVKE1M6O9","A3NMU6AVMQ0QDB","30UZJB2POHY4464FN6NBJ2NLFWF354","","null","<img src=""img/land6.png"" style=""width:200px;border:14px solid red;"">","null","","","","","","","","","",""
"","image-keyboard-response","198","79068","0.0-198.0","3AMYWKA6YC8RVJV92PMAOUVKE1M6O9","A3NMU6AVMQ0QDB","30UZJB2POHY4464FN6NBJ2NLFWF354","","177","img/land5.png","75","177.70000004768372","2","1","2","2","0.8,0.2,0.2,0.2,0.8,0.2,0.2,0.2,0.8","0.8,0.2,0.2,0.2,0.8,0.2,0.2,0.2,0.8","1","",""
"","html-keyboard-response","199","79370","0.0-199.0","3AMYWKA6YC8RVJV92PMAOUVKE1M6O9","A3NMU6AVMQ0QDB","30UZJB2POHY4464FN6NBJ2NLFWF354","","null","<img src=""img/land5.png"" style=""width:200px; border:14px solid green;"">","null","","","","","","","","","",""
"","image-keyboard-response","200","79381","0.0-200.0","3AMYWKA6YC8RVJV92PMAOUVKE1M6O9","A3NMU6AVMQ0QDB","30UZJB2POHY4464FN6NBJ2NLFWF354","","9.799999952316284","img/land1.png","75","10.600000023841858","2","0","1","2","0.8,0.2,0.2,0.2,0.8,0.2,0.2,0.2,0.8","0.8,0.2,0.2,0.2,0.8,0.2,0.2,0.2,0.8","1","",""
"","html-keyboard-response","201","79685","0.0-201.0","3AMYWKA6YC8RVJV92PMAOUVKE1M6O9","A3NMU6AVMQ0QDB","30UZJB2POHY4464FN6NBJ2NLFWF354","","null","<img src=""img/land1.png"" style=""width:200px;border:14px solid red;"">","null","","","","","","","","","",""
"","image-keyboard-response","202","79794","0.0-202.0","3AMYWKA6YC8RVJV92PMAOUVKE1M6O9","A3NMU6AVMQ0QDB","30UZJB2POHY4464FN6NBJ2NLFWF354","","107.90000009536743","img/land5.png","75","108.59999990463257","2","1","2","2","0.8,0.2,0.2,0.2,0.8,0.2,0.2,0.2,0.8","0.8,0.2,0.2,0.2,0.8,0.2,0.2,0.2,0.8","1","",""
"","html-keyboard-response","203","80096","0.0-203.0","3AMYWKA6YC8RVJV92PMAOUVKE1M6O9","A3NMU6AVMQ0QDB","30UZJB2POHY4464FN6NBJ2NLFWF354","","null","<img src=""img/land5.png"" style=""width:200px; border:14px solid green;"">","null","","","","","","","","","",""
"","image-keyboard-response","204","80503","0.0-204.0","3AMYWKA6YC8RVJV92PMAOUVKE1M6O9","A3NMU6AVMQ0QDB","30UZJB2POHY4464FN6NBJ2NLFWF354","","406","img/land1.png","74","406.8000000715256","1","1","1","2","0.8,0.2,0.2,0.2,0.8,0.2,0.2,0.2,0.8","0.8,0.2,0.2,0.2,0.8,0.2,0.2,0.2,0.8","1","",""
"","html-keyboard-response","205","80804","0.0-205.0","3AMYWKA6YC8RVJV92PMAOUVKE1M6O9","A3NMU6AVMQ0QDB","30UZJB2POHY4464FN6NBJ2NLFWF354","","null","<img src=""img/land1.png"" style=""width:200px; border:14px solid green;"">","null","","","","","","","","","",""
"","image-keyboard-response","206","80925","0.0-206.0","3AMYWKA6YC8RVJV92PMAOUVKE1M6O9","A3NMU6AVMQ0QDB","30UZJB2POHY4464FN6NBJ2NLFWF354","","119.80000007152557","img/land1.png","74","120.59999990463257","1","1","1","2","0.8,0.2,0.2,0.2,0.8,0.2,0.2,0.2,0.8","0.8,0.2,0.2,0.2,0.8,0.2,0.2,0.2,0.8","1","",""
"","html-keyboard-response","207","81227","0.0-207.0","3AMYWKA6YC8RVJV92PMAOUVKE1M6O9","A3NMU6AVMQ0QDB","30UZJB2POHY4464FN6NBJ2NLFWF354","","null","<img src=""img/land1.png"" style=""width:200px; border:14px solid green;"">","null","","","","","","","","","",""
"","image-keyboard-response","208","81365","0.0-208.0","3AMYWKA6YC8RVJV92PMAOUVKE1M6O9","A3NMU6AVMQ0QDB","30UZJB2POHY4464FN6NBJ2NLFWF354","","136.79999995231628","img/land1.png","75","137.40000009536743","2","0","1","2","0.8,0.2,0.2,0.2,0.8,0.2,0.2,0.2,0.8","0.8,0.2,0.2,0.2,0.8,0.2,0.2,0.2,0.8","1","",""
"","html-keyboard-response","209","81669","0.0-209.0","3AMYWKA6YC8RVJV92PMAOUVKE1M6O9","A3NMU6AVMQ0QDB","30UZJB2POHY4464FN6NBJ2NLFWF354","","null","<img src=""img/land1.png"" style=""width:200px;border:14px solid red;"">","null","","","","","","","","","",""
"","image-keyboard-response","210","81708","0.0-210.0","3AMYWKA6YC8RVJV92PMAOUVKE1M6O9","A3NMU6AVMQ0QDB","30UZJB2POHY4464FN6NBJ2NLFWF354","","38.300000071525574","img/land1.png","75","39","2","0","1","2","0.8,0.2,0.2,0.2,0.8,0.2,0.2,0.2,0.8","0.8,0.2,0.2,0.2,0.8,0.2,0.2,0.2,0.8","1","",""
"","html-keyboard-response","211","82010","0.0-211.0","3AMYWKA6YC8RVJV92PMAOUVKE1M6O9","A3NMU6AVMQ0QDB","30UZJB2POHY4464FN6NBJ2NLFWF354","","null","<img src=""img/land1.png"" style=""width:200px;border:14px solid red;"">","null","","","","","","","","","",""
"","image-keyboard-response","212","82092","0.0-212.0","3AMYWKA6YC8RVJV92PMAOUVKE1M6O9","A3NMU6AVMQ0QDB","30UZJB2POHY4464FN6NBJ2NLFWF354","","80.89999997615814","img/land1.png","76","81.60000002384186","3","0","1","2","0.8,0.2,0.2,0.2,0.8,0.2,0.2,0.2,0.8","0.8,0.2,0.2,0.2,0.8,0.2,0.2,0.2,0.8","1","",""
"","html-keyboard-response","213","82394","0.0-213.0","3AMYWKA6YC8RVJV92PMAOUVKE1M6O9","A3NMU6AVMQ0QDB","30UZJB2POHY4464FN6NBJ2NLFWF354","","null","<img src=""img/land1.png"" style=""width:200px;border:14px solid red;"">","null","","","","","","","","","",""
"","image-keyboard-response","214","82811","0.0-214.0","3AMYWKA6YC8RVJV92PMAOUVKE1M6O9","A3NMU6AVMQ0QDB","30UZJB2POHY4464FN6NBJ2NLFWF354","","415.7999999523163","img/land1.png","76","416.5","3","0","1","2","0.8,0.2,0.2,0.2,0.8,0.2,0.2,0.2,0.8","0.8,0.2,0.2,0.2,0.8,0.2,0.2,0.2,0.8","1","",""
"","html-keyboard-response","215","83115","0.0-215.0","3AMYWKA6YC8RVJV92PMAOUVKE1M6O9","A3NMU6AVMQ0QDB","30UZJB2POHY4464FN6NBJ2NLFWF354","","null","<img src=""img/land1.png"" style=""width:200px;border:14px solid red;"">","null","","","","","","","","","",""
"","image-keyboard-response","216","83388","0.0-216.0","3AMYWKA6YC8RVJV92PMAOUVKE1M6O9","A3NMU6AVMQ0QDB","30UZJB2POHY4464FN6NBJ2NLFWF354","","272.39999997615814","img/land6.png","75","273.09999990463257","2","1","3","2","0.8,0.2,0.2,0.2,0.8,0.2,0.2,0.2,0.8","0.8,0.2,0.2,0.2,0.8,0.2,0.2,0.2,0.8","1","",""
"","html-keyboard-response","217","83694","0.0-217.0","3AMYWKA6YC8RVJV92PMAOUVKE1M6O9","A3NMU6AVMQ0QDB","30UZJB2POHY4464FN6NBJ2NLFWF354","","null","<img src=""img/land6.png"" style=""width:200px; border:14px solid green;"">","null","","","","","","","","","",""
"","image-keyboard-response","218","83876","0.0-218.0","3AMYWKA6YC8RVJV92PMAOUVKE1M6O9","A3NMU6AVMQ0QDB","30UZJB2POHY4464FN6NBJ2NLFWF354","","180.80000007152557","img/land6.png","75","181.69999992847443","2","0","3","2","0.8,0.2,0.2,0.2,0.8,0.2,0.2,0.2,0.8","0.8,0.2,0.2,0.2,0.8,0.2,0.2,0.2,0.8","1","",""
"","html-keyboard-response","219","84177","0.0-219.0","3AMYWKA6YC8RVJV92PMAOUVKE1M6O9","A3NMU6AVMQ0QDB","30UZJB2POHY4464FN6NBJ2NLFWF354","","null","<img src=""img/land6.png"" style=""width:200px;border:14px solid red;"">","null","","","","","","","","","",""
"","image-keyboard-response","220","84386","0.0-220.0","3AMYWKA6YC8RVJV92PMAOUVKE1M6O9","A3NMU6AVMQ0QDB","30UZJB2POHY4464FN6NBJ2NLFWF354","","208.10000002384186","img/land5.png","75","208.89999997615814","2","1","2","2","0.8,0.2,0.2,0.2,0.8,0.2,0.2,0.2,0.8","0.8,0.2,0.2,0.2,0.8,0.2,0.2,0.2,0.8","1","",""
"","html-keyboard-response","221","84688","0.0-221.0","3AMYWKA6YC8RVJV92PMAOUVKE1M6O9","A3NMU6AVMQ0QDB","30UZJB2POHY4464FN6NBJ2NLFWF354","","null","<img src=""img/land5.png"" style=""width:200px; border:14px solid green;"">","null","","","","","","","","","",""
"","image-keyboard-response","222","84752","0.0-222.0","3AMYWKA6YC8RVJV92PMAOUVKE1M6O9","A3NMU6AVMQ0QDB","30UZJB2POHY4464FN6NBJ2NLFWF354","","63.5","img/land1.png","76","64.30000007152557","3","0","1","2","0.8,0.2,0.2,0.2,0.8,0.2,0.2,0.2,0.8","0.8,0.2,0.2,0.2,0.8,0.2,0.2,0.2,0.8","1","",""
"","html-keyboard-response","223","85055","0.0-223.0","3AMYWKA6YC8RVJV92PMAOUVKE1M6O9","A3NMU6AVMQ0QDB","30UZJB2POHY4464FN6NBJ2NLFWF354","","null","<img src=""img/land1.png"" style=""width:200px;border:14px solid red;"">","null","","","","","","","","","",""
"","image-keyboard-response","224","85198","0.0-224.0","3AMYWKA6YC8RVJV92PMAOUVKE1M6O9","A3NMU6AVMQ0QDB","30UZJB2POHY4464FN6NBJ2NLFWF354","","141","img/land6.png","74","141.89999997615814","1","0","3","2","0.8,0.2,0.2,0.2,0.8,0.2,0.2,0.2,0.8","0.8,0.2,0.2,0.2,0.8,0.2,0.2,0.2,0.8","1","",""
"","html-keyboard-response","225","85500","0.0-225.0","3AMYWKA6YC8RVJV92PMAOUVKE1M6O9","A3NMU6AVMQ0QDB","30UZJB2POHY4464FN6NBJ2NLFWF354","","null","<img src=""img/land6.png"" style=""width:200px;border:14px solid red;"">","null","","","","","","","","","",""
"","image-keyboard-response","226","85674","0.0-226.0","3AMYWKA6YC8RVJV92PMAOUVKE1M6O9","A3NMU6AVMQ0QDB","30UZJB2POHY4464FN6NBJ2NLFWF354","","173.5","img/land1.png","76","174.29999995231628","3","0","1","2","0.8,0.2,0.2,0.2,0.8,0.2,0.2,0.2,0.8","0.8,0.2,0.2,0.2,0.8,0.2,0.2,0.2,0.8","1","",""
"","html-keyboard-response","227","85978","0.0-227.0","3AMYWKA6YC8RVJV92PMAOUVKE1M6O9","A3NMU6AVMQ0QDB","30UZJB2POHY4464FN6NBJ2NLFWF354","","null","<img src=""img/land1.png"" style=""width:200px;border:14px solid red;"">","null","","","","","","","","","",""
"","image-keyboard-response","228","86159","0.0-228.0","3AMYWKA6YC8RVJV92PMAOUVKE1M6O9","A3NMU6AVMQ0QDB","30UZJB2POHY4464FN6NBJ2NLFWF354","","179.30000007152557","img/land5.png","74","179.89999997615814","1","0","2","2","0.8,0.2,0.2,0.2,0.8,0.2,0.2,0.2,0.8","0.8,0.2,0.2,0.2,0.8,0.2,0.2,0.2,0.8","1","",""
"","html-keyboard-response","229","86462","0.0-229.0","3AMYWKA6YC8RVJV92PMAOUVKE1M6O9","A3NMU6AVMQ0QDB","30UZJB2POHY4464FN6NBJ2NLFWF354","","null","<img src=""img/land5.png"" style=""width:200px;border:14px solid red;"">","null","","","","","","","","","",""
"","image-keyboard-response","230","86670","0.0-230.0","3AMYWKA6YC8RVJV92PMAOUVKE1M6O9","A3NMU6AVMQ0QDB","30UZJB2POHY4464FN6NBJ2NLFWF354","","207","img/land1.png","76","207.70000004768372","3","0","1","2","0.8,0.2,0.2,0.2,0.8,0.2,0.2,0.2,0.8","0.8,0.2,0.2,0.2,0.8,0.2,0.2,0.2,0.8","1","",""
"","html-keyboard-response","231","86977","0.0-231.0","3AMYWKA6YC8RVJV92PMAOUVKE1M6O9","A3NMU6AVMQ0QDB","30UZJB2POHY4464FN6NBJ2NLFWF354","","null","<img src=""img/land1.png"" style=""width:200px;border:14px solid red;"">","null","","","","","","","","","",""
"","image-keyboard-response","232","87090","0.0-232.0","3AMYWKA6YC8RVJV92PMAOUVKE1M6O9","A3NMU6AVMQ0QDB","30UZJB2POHY4464FN6NBJ2NLFWF354","","112.19999992847443","img/land1.png","74","112.89999997615814","1","1","1","2","0.8,0.2,0.2,0.2,0.8,0.2,0.2,0.2,0.8","0.8,0.2,0.2,0.2,0.8,0.2,0.2,0.2,0.8","1","",""
"","html-keyboard-response","233","87394","0.0-233.0","3AMYWKA6YC8RVJV92PMAOUVKE1M6O9","A3NMU6AVMQ0QDB","30UZJB2POHY4464FN6NBJ2NLFWF354","","null","<img src=""img/land1.png"" style=""width:200px; border:14px solid green;"">","null","","","","","","","","","",""
"","image-keyboard-response","234","87610","0.0-234.0","3AMYWKA6YC8RVJV92PMAOUVKE1M6O9","A3NMU6AVMQ0QDB","30UZJB2POHY4464FN6NBJ2NLFWF354","","215.79999995231628","img/land5.png","76","216.60000002384186","3","0","2","2","0.8,0.2,0.2,0.2,0.8,0.2,0.2,0.2,0.8","0.8,0.2,0.2,0.2,0.8,0.2,0.2,0.2,0.8","1","",""
"","html-keyboard-response","235","87915","0.0-235.0","3AMYWKA6YC8RVJV92PMAOUVKE1M6O9","A3NMU6AVMQ0QDB","30UZJB2POHY4464FN6NBJ2NLFWF354","","null","<img src=""img/land5.png"" style=""width:200px;border:14px solid red;"">","null","","","","","","","","","",""
"","image-keyboard-response","236","88205","0.0-236.0","3AMYWKA6YC8RVJV92PMAOUVKE1M6O9","A3NMU6AVMQ0QDB","30UZJB2POHY4464FN6NBJ2NLFWF354","","289","img/land1.png","74","289.89999997615814","1","1","1","2","0.8,0.2,0.2,0.2,0.8,0.2,0.2,0.2,0.8","0.8,0.2,0.2,0.2,0.8,0.2,0.2,0.2,0.8","1","",""
"","html-keyboard-response","237","88510","0.0-237.0","3AMYWKA6YC8RVJV92PMAOUVKE1M6O9","A3NMU6AVMQ0QDB","30UZJB2POHY4464FN6NBJ2NLFWF354","","null","<img src=""img/land1.png"" style=""width:200px; border:14px solid green;"">","null","","","","","","","","","",""
"","image-keyboard-response","238","88556","0.0-238.0","3AMYWKA6YC8RVJV92PMAOUVKE1M6O9","A3NMU6AVMQ0QDB","30UZJB2POHY4464FN6NBJ2NLFWF354","","45.89999997615814","img/land1.png","74","46.60000002384186","1","1","1","2","0.8,0.2,0.2,0.2,0.8,0.2,0.2,0.2,0.8","0.8,0.2,0.2,0.2,0.8,0.2,0.2,0.2,0.8","1","",""
"","html-keyboard-response","239","88859","0.0-239.0","3AMYWKA6YC8RVJV92PMAOUVKE1M6O9","A3NMU6AVMQ0QDB","30UZJB2POHY4464FN6NBJ2NLFWF354","","null","<img src=""img/land1.png"" style=""width:200px; border:14px solid green;"">","null","","","","","","","","","",""
"","image-keyboard-response","240","89059","0.0-240.0","3AMYWKA6YC8RVJV92PMAOUVKE1M6O9","A3NMU6AVMQ0QDB","30UZJB2POHY4464FN6NBJ2NLFWF354","","199.30000007152557","img/land5.png","75","200.19999992847443","2","1","2","2","0.8,0.2,0.2,0.2,0.8,0.2,0.2,0.2,0.8","0.8,0.2,0.2,0.2,0.8,0.2,0.2,0.2,0.8","1","",""
"","html-keyboard-response","241","89365","0.0-241.0","3AMYWKA6YC8RVJV92PMAOUVKE1M6O9","A3NMU6AVMQ0QDB","30UZJB2POHY4464FN6NBJ2NLFWF354","","null","<img src=""img/land5.png"" style=""width:200px; border:14px solid green;"">","null","","","","","","","","","",""
"","image-keyboard-response","242","89553","0.0-242.0","3AMYWKA6YC8RVJV92PMAOUVKE1M6O9","A3NMU6AVMQ0QDB","30UZJB2POHY4464FN6NBJ2NLFWF354","","187.39999997615814","img/land1.png","76","188.29999995231628","3","0","1","2","0.8,0.2,0.2,0.2,0.8,0.2,0.2,0.2,0.8","0.8,0.2,0.2,0.2,0.8,0.2,0.2,0.2,0.8","1","",""
"","html-keyboard-response","243","89855","0.0-243.0","3AMYWKA6YC8RVJV92PMAOUVKE1M6O9","A3NMU6AVMQ0QDB","30UZJB2POHY4464FN6NBJ2NLFWF354","","null","<img src=""img/land1.png"" style=""width:200px;border:14px solid red;"">","null","","","","","","","","","",""
"","image-keyboard-response","244","90139","0.0-244.0","3AMYWKA6YC8RVJV92PMAOUVKE1M6O9","A3NMU6AVMQ0QDB","30UZJB2POHY4464FN6NBJ2NLFWF354","","282.60000002384186","img/land1.png","75","283.3000000715256","2","0","1","2","0.8,0.2,0.2,0.2,0.8,0.2,0.2,0.2,0.8","0.8,0.2,0.2,0.2,0.8,0.2,0.2,0.2,0.8","1","",""
"","html-keyboard-response","245","90444","0.0-245.0","3AMYWKA6YC8RVJV92PMAOUVKE1M6O9","A3NMU6AVMQ0QDB","30UZJB2POHY4464FN6NBJ2NLFWF354","","null","<img src=""img/land1.png"" style=""width:200px;border:14px solid red;"">","null","","","","","","","","","",""
"","image-keyboard-response","246","90684","0.0-246.0","3AMYWKA6YC8RVJV92PMAOUVKE1M6O9","A3NMU6AVMQ0QDB","30UZJB2POHY4464FN6NBJ2NLFWF354","","239","img/land6.png","74","239.70000004768372","1","1","3","2","0.8,0.2,0.2,0.2,0.8,0.2,0.2,0.2,0.8","0.8,0.2,0.2,0.2,0.8,0.2,0.2,0.2,0.8","1","",""
"","html-keyboard-response","247","90986","0.0-247.0","3AMYWKA6YC8RVJV92PMAOUVKE1M6O9","A3NMU6AVMQ0QDB","30UZJB2POHY4464FN6NBJ2NLFWF354","","null","<img src=""img/land6.png"" style=""width:200px; border:14px solid green;"">","null","","","","","","","","","",""
"","image-keyboard-response","248","91241","0.0-248.0","3AMYWKA6YC8RVJV92PMAOUVKE1M6O9","A3NMU6AVMQ0QDB","30UZJB2POHY4464FN6NBJ2NLFWF354","","254","img/land6.png","76","254.69999992847443","3","1","3","2","0.8,0.2,0.2,0.2,0.8,0.2,0.2,0.2,0.8","0.8,0.2,0.2,0.2,0.8,0.2,0.2,0.2,0.8","1","",""
"","html-keyboard-response","249","91548","0.0-249.0","3AMYWKA6YC8RVJV92PMAOUVKE1M6O9","A3NMU6AVMQ0QDB","30UZJB2POHY4464FN6NBJ2NLFWF354","","null","<img src=""img/land6.png"" style=""width:200px; border:14px solid green;"">","null","","","","","","","","","",""
"","image-keyboard-response","250","91692","0.0-250.0","3AMYWKA6YC8RVJV92PMAOUVKE1M6O9","A3NMU6AVMQ0QDB","30UZJB2POHY4464FN6NBJ2NLFWF354","","143.29999995231628","img/land1.png","74","144.20000004768372","1","1","1","2","0.8,0.2,0.2,0.2,0.8,0.2,0.2,0.2,0.8","0.8,0.2,0.2,0.2,0.8,0.2,0.2,0.2,0.8","1","",""
"","html-keyboard-response","251","91994","0.0-251.0","3AMYWKA6YC8RVJV92PMAOUVKE1M6O9","A3NMU6AVMQ0QDB","30UZJB2POHY4464FN6NBJ2NLFWF354","","null","<img src=""img/land1.png"" style=""width:200px; border:14px solid green;"">","null","","","","","","","","","",""
"","image-keyboard-response","252","92131","0.0-252.0","3AMYWKA6YC8RVJV92PMAOUVKE1M6O9","A3NMU6AVMQ0QDB","30UZJB2POHY4464FN6NBJ2NLFWF354","","136","img/land5.png","75","136.79999995231628","2","1","2","2","0.8,0.2,0.2,0.2,0.8,0.2,0.2,0.2,0.8","0.8,0.2,0.2,0.2,0.8,0.2,0.2,0.2,0.8","1","",""
"","html-keyboard-response","253","92437","0.0-253.0","3AMYWKA6YC8RVJV92PMAOUVKE1M6O9","A3NMU6AVMQ0QDB","30UZJB2POHY4464FN6NBJ2NLFWF354","","null","<img src=""img/land5.png"" style=""width:200px; border:14px solid green;"">","null","","","","","","","","","",""
"","image-keyboard-response","254","92534","0.0-254.0","3AMYWKA6YC8RVJV92PMAOUVKE1M6O9","A3NMU6AVMQ0QDB","30UZJB2POHY4464FN6NBJ2NLFWF354","","96.70000004768372","img/land1.png","75","97.5","2","0","1","2","0.8,0.2,0.2,0.2,0.8,0.2,0.2,0.2,0.8","0.8,0.2,0.2,0.2,0.8,0.2,0.2,0.2,0.8","1","",""
"","html-keyboard-response","255","92837","0.0-255.0","3AMYWKA6YC8RVJV92PMAOUVKE1M6O9","A3NMU6AVMQ0QDB","30UZJB2POHY4464FN6NBJ2NLFWF354","","null","<img src=""img/land1.png"" style=""width:200px;border:14px solid red;"">","null","","","","","","","","","",""
"","image-keyboard-response","256","92888","0.0-256.0","3AMYWKA6YC8RVJV92PMAOUVKE1M6O9","A3NMU6AVMQ0QDB","30UZJB2POHY4464FN6NBJ2NLFWF354","","49.90000009536743","img/land1.png","75","50.799999952316284","2","0","1","2","0.8,0.2,0.2,0.2,0.8,0.2,0.2,0.2,0.8","0.8,0.2,0.2,0.2,0.8,0.2,0.2,0.2,0.8","1","",""
"","html-keyboard-response","257","93194","0.0-257.0","3AMYWKA6YC8RVJV92PMAOUVKE1M6O9","A3NMU6AVMQ0QDB","30UZJB2POHY4464FN6NBJ2NLFWF354","","null","<img src=""img/land1.png"" style=""width:200px;border:14px solid red;"">","null","","","","","","","","","",""
"","image-keyboard-response","258","93310","0.0-258.0","3AMYWKA6YC8RVJV92PMAOUVKE1M6O9","A3NMU6AVMQ0QDB","30UZJB2POHY4464FN6NBJ2NLFWF354","","115.19999992847443","img/land1.png","75","116","2","1","1","2","0.8,0.2,0.2,0.2,0.8,0.2,0.2,0.2,0.8","0.8,0.2,0.2,0.2,0.8,0.2,0.2,0.2,0.8","1","",""
"","html-keyboard-response","259","93616","0.0-259.0","3AMYWKA6YC8RVJV92PMAOUVKE1M6O9","A3NMU6AVMQ0QDB","30UZJB2POHY4464FN6NBJ2NLFWF354","","null","<img src=""img/land1.png"" style=""width:200px; border:14px solid green;"">","null","","","","","","","","","",""
"","image-keyboard-response","260","93736","0.0-260.0","3AMYWKA6YC8RVJV92PMAOUVKE1M6O9","A3NMU6AVMQ0QDB","30UZJB2POHY4464FN6NBJ2NLFWF354","","119.29999995231628","img/land5.png","75","120.10000002384186","2","0","2","2","0.8,0.2,0.2,0.2,0.8,0.2,0.2,0.2,0.8","0.8,0.2,0.2,0.2,0.8,0.2,0.2,0.2,0.8","1","",""
"","html-keyboard-response","261","94039","0.0-261.0","3AMYWKA6YC8RVJV92PMAOUVKE1M6O9","A3NMU6AVMQ0QDB","30UZJB2POHY4464FN6NBJ2NLFWF354","","null","<img src=""img/land5.png"" style=""width:200px;border:14px solid red;"">","null","","","","","","","","","",""
"","image-keyboard-response","262","94218","0.0-262.0","3AMYWKA6YC8RVJV92PMAOUVKE1M6O9","A3NMU6AVMQ0QDB","30UZJB2POHY4464FN6NBJ2NLFWF354","","177.30000007152557","img/land1.png","75","178.09999990463257","2","0","1","2","0.8,0.2,0.2,0.2,0.8,0.2,0.2,0.2,0.8","0.8,0.2,0.2,0.2,0.8,0.2,0.2,0.2,0.8","1","",""
"","html-keyboard-response","263","94520","0.0-263.0","3AMYWKA6YC8RVJV92PMAOUVKE1M6O9","A3NMU6AVMQ0QDB","30UZJB2POHY4464FN6NBJ2NLFWF354","","null","<img src=""img/land1.png"" style=""width:200px;border:14px solid red;"">","null","","","","","","","","","",""
"","image-keyboard-response","264","94524","0.0-264.0","3AMYWKA6YC8RVJV92PMAOUVKE1M6O9","A3NMU6AVMQ0QDB","30UZJB2POHY4464FN6NBJ2NLFWF354","","2.399999976158142","img/land1.png","74","3.1999999284744263","1","0","1","2","0.8,0.2,0.2,0.2,0.8,0.2,0.2,0.2,0.8","0.8,0.2,0.2,0.2,0.8,0.2,0.2,0.2,0.8","1","",""
"","html-keyboard-response","265","94830","0.0-265.0","3AMYWKA6YC8RVJV92PMAOUVKE1M6O9","A3NMU6AVMQ0QDB","30UZJB2POHY4464FN6NBJ2NLFWF354","","null","<img src=""img/land1.png"" style=""width:200px;border:14px solid red;"">","null","","","","","","","","","",""
"","image-keyboard-response","266","94991","0.0-266.0","3AMYWKA6YC8RVJV92PMAOUVKE1M6O9","A3NMU6AVMQ0QDB","30UZJB2POHY4464FN6NBJ2NLFWF354","","160.29999995231628","img/land5.png","76","161","3","1","2","2","0.8,0.2,0.2,0.2,0.8,0.2,0.2,0.2,0.8","0.8,0.2,0.2,0.2,0.8,0.2,0.2,0.2,0.8","1","",""
"","html-keyboard-response","267","95295","0.0-267.0","3AMYWKA6YC8RVJV92PMAOUVKE1M6O9","A3NMU6AVMQ0QDB","30UZJB2POHY4464FN6NBJ2NLFWF354","","null","<img src=""img/land5.png"" style=""width:200px; border:14px solid green;"">","null","","","","","","","","","",""
"","image-keyboard-response","268","95479","0.0-268.0","3AMYWKA6YC8RVJV92PMAOUVKE1M6O9","A3NMU6AVMQ0QDB","30UZJB2POHY4464FN6NBJ2NLFWF354","","182.89999997615814","img/land1.png","74","183.60000002384186","1","1","1","2","0.8,0.2,0.2,0.2,0.8,0.2,0.2,0.2,0.8","0.8,0.2,0.2,0.2,0.8,0.2,0.2,0.2,0.8","1","",""
"","html-keyboard-response","269","95781","0.0-269.0","3AMYWKA6YC8RVJV92PMAOUVKE1M6O9","A3NMU6AVMQ0QDB","30UZJB2POHY4464FN6NBJ2NLFWF354","","null","<img src=""img/land1.png"" style=""width:200px; border:14px solid green;"">","null","","","","","","","","","",""
"","image-keyboard-response","270","95881","0.0-270.0","3AMYWKA6YC8RVJV92PMAOUVKE1M6O9","A3NMU6AVMQ0QDB","30UZJB2POHY4464FN6NBJ2NLFWF354","","99.20000004768372","img/land6.png","76","100","3","1","3","2","0.8,0.2,0.2,0.2,0.8,0.2,0.2,0.2,0.8","0.8,0.2,0.2,0.2,0.8,0.2,0.2,0.2,0.8","1","",""
"","html-keyboard-response","271","96187","0.0-271.0","3AMYWKA6YC8RVJV92PMAOUVKE1M6O9","A3NMU6AVMQ0QDB","30UZJB2POHY4464FN6NBJ2NLFWF354","","null","<img src=""img/land6.png"" style=""width:200px; border:14px solid green;"">","null","","","","","","","","","",""
"","image-keyboard-response","272","96332","0.0-272.0","3AMYWKA6YC8RVJV92PMAOUVKE1M6O9","A3NMU6AVMQ0QDB","30UZJB2POHY4464FN6NBJ2NLFWF354","","143.5","img/land6.png","74","144.40000009536743","1","0","3","2","0.8,0.2,0.2,0.2,0.8,0.2,0.2,0.2,0.8","0.8,0.2,0.2,0.2,0.8,0.2,0.2,0.2,0.8","1","",""
"","html-keyboard-response","273","96639","0.0-273.0","3AMYWKA6YC8RVJV92PMAOUVKE1M6O9","A3NMU6AVMQ0QDB","30UZJB2POHY4464FN6NBJ2NLFWF354","","null","<img src=""img/land6.png"" style=""width:200px;border:14px solid red;"">","null","","","","","","","","","",""
"","image-keyboard-response","274","96977","0.0-274.0","3AMYWKA6YC8RVJV92PMAOUVKE1M6O9","A3NMU6AVMQ0QDB","30UZJB2POHY4464FN6NBJ2NLFWF354","","336.89999997615814","img/land1.png","75","337.6999999284744","2","0","1","2","0.8,0.2,0.2,0.2,0.8,0.2,0.2,0.2,0.8","0.8,0.2,0.2,0.2,0.8,0.2,0.2,0.2,0.8","1","",""
"","html-keyboard-response","275","97282","0.0-275.0","3AMYWKA6YC8RVJV92PMAOUVKE1M6O9","A3NMU6AVMQ0QDB","30UZJB2POHY4464FN6NBJ2NLFWF354","","null","<img src=""img/land1.png"" style=""width:200px;border:14px solid red;"">","null","","","","","","","","","",""
"","image-keyboard-response","276","97557","0.0-276.0","3AMYWKA6YC8RVJV92PMAOUVKE1M6O9","A3NMU6AVMQ0QDB","30UZJB2POHY4464FN6NBJ2NLFWF354","","274.40000009536743","img/land1.png","75","275.1999999284744","2","0","1","2","0.8,0.2,0.2,0.2,0.8,0.2,0.2,0.2,0.8","0.8,0.2,0.2,0.2,0.8,0.2,0.2,0.2,0.8","1","",""
"","html-keyboard-response","277","97861","0.0-277.0","3AMYWKA6YC8RVJV92PMAOUVKE1M6O9","A3NMU6AVMQ0QDB","30UZJB2POHY4464FN6NBJ2NLFWF354","","null","<img src=""img/land1.png"" style=""width:200px;border:14px solid red;"">","null","","","","","","","","","",""
"","image-keyboard-response","278","98027","0.0-278.0","3AMYWKA6YC8RVJV92PMAOUVKE1M6O9","A3NMU6AVMQ0QDB","30UZJB2POHY4464FN6NBJ2NLFWF354","","164.60000002384186","img/land6.png","75","165","2","0","3","2","0.8,0.2,0.2,0.2,0.8,0.2,0.2,0.2,0.8","0.8,0.2,0.2,0.2,0.8,0.2,0.2,0.2,0.8","1","",""
"","html-keyboard-response","279","98330","0.0-279.0","3AMYWKA6YC8RVJV92PMAOUVKE1M6O9","A3NMU6AVMQ0QDB","30UZJB2POHY4464FN6NBJ2NLFWF354","","null","<img src=""img/land6.png"" style=""width:200px;border:14px solid red;"">","null","","","","","","","","","",""
"","image-keyboard-response","280","98467","0.0-280.0","3AMYWKA6YC8RVJV92PMAOUVKE1M6O9","A3NMU6AVMQ0QDB","30UZJB2POHY4464FN6NBJ2NLFWF354","","135.89999997615814","img/land1.png","76","136.60000002384186","3","1","1","2","0.8,0.2,0.2,0.2,0.8,0.2,0.2,0.2,0.8","0.8,0.2,0.2,0.2,0.8,0.2,0.2,0.2,0.8","1","",""
"","html-keyboard-response","281","98773","0.0-281.0","3AMYWKA6YC8RVJV92PMAOUVKE1M6O9","A3NMU6AVMQ0QDB","30UZJB2POHY4464FN6NBJ2NLFWF354","","null","<img src=""img/land1.png"" style=""width:200px; border:14px solid green;"">","null","","","","","","","","","",""
"","image-keyboard-response","282","98841","0.0-282.0","3AMYWKA6YC8RVJV92PMAOUVKE1M6O9","A3NMU6AVMQ0QDB","30UZJB2POHY4464FN6NBJ2NLFWF354","","67.5","img/land1.png","76","68.19999992847443","3","0","1","2","0.8,0.2,0.2,0.2,0.8,0.2,0.2,0.2,0.8","0.8,0.2,0.2,0.2,0.8,0.2,0.2,0.2,0.8","1","",""
"","html-keyboard-response","283","99146","0.0-283.0","3AMYWKA6YC8RVJV92PMAOUVKE1M6O9","A3NMU6AVMQ0QDB","30UZJB2POHY4464FN6NBJ2NLFWF354","","null","<img src=""img/land1.png"" style=""width:200px;border:14px solid red;"">","null","","","","","","","","","",""
"","image-keyboard-response","284","99259","0.0-284.0","3AMYWKA6YC8RVJV92PMAOUVKE1M6O9","A3NMU6AVMQ0QDB","30UZJB2POHY4464FN6NBJ2NLFWF354","","111.5","img/land5.png","76","112.39999997615814","3","0","2","2","0.8,0.2,0.2,0.2,0.8,0.2,0.2,0.2,0.8","0.8,0.2,0.2,0.2,0.8,0.2,0.2,0.2,0.8","1","",""
"","html-keyboard-response","285","99565","0.0-285.0","3AMYWKA6YC8RVJV92PMAOUVKE1M6O9","A3NMU6AVMQ0QDB","30UZJB2POHY4464FN6NBJ2NLFWF354","","null","<img src=""img/land5.png"" style=""width:200px;border:14px solid red;"">","null","","","","","","","","","",""
"","image-keyboard-response","286","99716","0.0-286.0","3AMYWKA6YC8RVJV92PMAOUVKE1M6O9","A3NMU6AVMQ0QDB","30UZJB2POHY4464FN6NBJ2NLFWF354","","150.69999992847443","img/land1.png","76","151.39999997615814","3","1","1","2","0.8,0.2,0.2,0.2,0.8,0.2,0.2,0.2,0.8","0.8,0.2,0.2,0.2,0.8,0.2,0.2,0.2,0.8","1","",""
"","html-keyboard-response","287","100021","0.0-287.0","3AMYWKA6YC8RVJV92PMAOUVKE1M6O9","A3NMU6AVMQ0QDB","30UZJB2POHY4464FN6NBJ2NLFWF354","","null","<img src=""img/land1.png"" style=""width:200px; border:14px solid green;"">","null","","","","","","","","","",""
"","image-keyboard-response","288","100090","0.0-288.0","3AMYWKA6YC8RVJV92PMAOUVKE1M6O9","A3NMU6AVMQ0QDB","30UZJB2POHY4464FN6NBJ2NLFWF354","","68.5","img/land1.png","74","69.30000007152557","1","0","1","2","0.8,0.2,0.2,0.2,0.8,0.2,0.2,0.2,0.8","0.8,0.2,0.2,0.2,0.8,0.2,0.2,0.2,0.8","1","",""
"","html-keyboard-response","289","100394","0.0-289.0","3AMYWKA6YC8RVJV92PMAOUVKE1M6O9","A3NMU6AVMQ0QDB","30UZJB2POHY4464FN6NBJ2NLFWF354","","null","<img src=""img/land1.png"" style=""width:200px;border:14px solid red;"">","null","","","","","","","","","",""
"","image-keyboard-response","290","100556","0.0-290.0","3AMYWKA6YC8RVJV92PMAOUVKE1M6O9","A3NMU6AVMQ0QDB","30UZJB2POHY4464FN6NBJ2NLFWF354","","161.39999997615814","img/land1.png","74","162.19999992847443","1","1","1","2","0.8,0.2,0.2,0.2,0.8,0.2,0.2,0.2,0.8","0.8,0.2,0.2,0.2,0.8,0.2,0.2,0.2,0.8","1","",""
"","html-keyboard-response","291","100858","0.0-291.0","3AMYWKA6YC8RVJV92PMAOUVKE1M6O9","A3NMU6AVMQ0QDB","30UZJB2POHY4464FN6NBJ2NLFWF354","","null","<img src=""img/land1.png"" style=""width:200px; border:14px solid green;"">","null","","","","","","","","","",""
"","image-keyboard-response","292","100928","0.0-292.0","3AMYWKA6YC8RVJV92PMAOUVKE1M6O9","A3NMU6AVMQ0QDB","30UZJB2POHY4464FN6NBJ2NLFWF354","","69.29999995231628","img/land1.png","74","70.10000002384186","1","1","1","2","0.8,0.2,0.2,0.2,0.8,0.2,0.2,0.2,0.8","0.8,0.2,0.2,0.2,0.8,0.2,0.2,0.2,0.8","1","",""
"","html-keyboard-response","293","101231","0.0-293.0","3AMYWKA6YC8RVJV92PMAOUVKE1M6O9","A3NMU6AVMQ0QDB","30UZJB2POHY4464FN6NBJ2NLFWF354","","null","<img src=""img/land1.png"" style=""width:200px; border:14px solid green;"">","null","","","","","","","","","",""
"","image-keyboard-response","294","101287","0.0-294.0","3AMYWKA6YC8RVJV92PMAOUVKE1M6O9","A3NMU6AVMQ0QDB","30UZJB2POHY4464FN6NBJ2NLFWF354","","54.60000002384186","img/land1.png","75","55.5","2","1","1","2","0.8,0.2,0.2,0.2,0.8,0.2,0.2,0.2,0.8","0.8,0.2,0.2,0.2,0.8,0.2,0.2,0.2,0.8","1","",""
"","html-keyboard-response","295","101594","0.0-295.0","3AMYWKA6YC8RVJV92PMAOUVKE1M6O9","A3NMU6AVMQ0QDB","30UZJB2POHY4464FN6NBJ2NLFWF354","","null","<img src=""img/land1.png"" style=""width:200px; border:14px solid green;"">","null","","","","","","","","","",""
"","image-keyboard-response","296","101637","0.0-296.0","3AMYWKA6YC8RVJV92PMAOUVKE1M6O9","A3NMU6AVMQ0QDB","30UZJB2POHY4464FN6NBJ2NLFWF354","","42.60000002384186","img/land5.png","75","43.39999997615814","2","1","2","2","0.8,0.2,0.2,0.2,0.8,0.2,0.2,0.2,0.8","0.8,0.2,0.2,0.2,0.8,0.2,0.2,0.2,0.8","1","",""
"","html-keyboard-response","297","101940","0.0-297.0","3AMYWKA6YC8RVJV92PMAOUVKE1M6O9","A3NMU6AVMQ0QDB","30UZJB2POHY4464FN6NBJ2NLFWF354","","null","<img src=""img/land5.png"" style=""width:200px; border:14px solid green;"">","null","","","","","","","","","",""
"","image-keyboard-response","298","102209","0.0-298.0","3AMYWKA6YC8RVJV92PMAOUVKE1M6O9","A3NMU6AVMQ0QDB","30UZJB2POHY4464FN6NBJ2NLFWF354","","267.8000000715256","img/land6.png","75","268.60000002384186","2","0","3","2","0.8,0.2,0.2,0.2,0.8,0.2,0.2,0.2,0.8","0.8,0.2,0.2,0.2,0.8,0.2,0.2,0.2,0.8","1","",""
"","html-keyboard-response","299","102511","0.0-299.0","3AMYWKA6YC8RVJV92PMAOUVKE1M6O9","A3NMU6AVMQ0QDB","30UZJB2POHY4464FN6NBJ2NLFWF354","","null","<img src=""img/land6.png"" style=""width:200px;border:14px solid red;"">","null","","","","","","","","","",""
"","image-keyboard-response","300","102703","0.0-300.0","3AMYWKA6YC8RVJV92PMAOUVKE1M6O9","A3NMU6AVMQ0QDB","30UZJB2POHY4464FN6NBJ2NLFWF354","","191.19999992847443","img/land1.png","74","191.79999995231628","1","1","1","2","0.8,0.2,0.2,0.2,0.8,0.2,0.2,0.2,0.8","0.8,0.2,0.2,0.2,0.8,0.2,0.2,0.2,0.8","1","",""
"","html-keyboard-response","301","103007","0.0-301.0","3AMYWKA6YC8RVJV92PMAOUVKE1M6O9","A3NMU6AVMQ0QDB","30UZJB2POHY4464FN6NBJ2NLFWF354","","null","<img src=""img/land1.png"" style=""width:200px; border:14px solid green;"">","null","","","","","","","","","",""
"","image-keyboard-response","302","103034","0.0-302.0","3AMYWKA6YC8RVJV92PMAOUVKE1M6O9","A3NMU6AVMQ0QDB","30UZJB2POHY4464FN6NBJ2NLFWF354","","25.899999976158142","img/land2.png","75","26.800000071525574","2","1","2","1","0.8,0.2,0.2,0.2,0.8,0.2,0.2,0.2,0.8","0.8,0.2,0.2,0.2,0.8,0.2,0.2,0.2,0.8","1","",""
"","html-keyboard-response","303","103338","0.0-303.0","3AMYWKA6YC8RVJV92PMAOUVKE1M6O9","A3NMU6AVMQ0QDB","30UZJB2POHY4464FN6NBJ2NLFWF354","","null","<img src=""img/land2.png"" style=""width:200px; border:14px solid green;"">","null","","","","","","","","","",""
"","image-keyboard-response","304","103457","0.0-304.0","3AMYWKA6YC8RVJV92PMAOUVKE1M6O9","A3NMU6AVMQ0QDB","30UZJB2POHY4464FN6NBJ2NLFWF354","","118.60000002384186","img/land2.png","75","119.39999997615814","2","0","2","1","0.8,0.2,0.2,0.2,0.8,0.2,0.2,0.2,0.8","0.8,0.2,0.2,0.2,0.8,0.2,0.2,0.2,0.8","1","",""
"","html-keyboard-response","305","103759","0.0-305.0","3AMYWKA6YC8RVJV92PMAOUVKE1M6O9","A3NMU6AVMQ0QDB","30UZJB2POHY4464FN6NBJ2NLFWF354","","null","<img src=""img/land2.png"" style=""width:200px;border:14px solid red;"">","null","","","","","","","","","",""
"","image-keyboard-response","306","103792","0.0-306.0","3AMYWKA6YC8RVJV92PMAOUVKE1M6O9","A3NMU6AVMQ0QDB","30UZJB2POHY4464FN6NBJ2NLFWF354","","31.799999952316284","img/land2.png","75","32.700000047683716","2","1","2","1","0.8,0.2,0.2,0.2,0.8,0.2,0.2,0.2,0.8","0.8,0.2,0.2,0.2,0.8,0.2,0.2,0.2,0.8","1","",""
"","html-keyboard-response","307","104095","0.0-307.0","3AMYWKA6YC8RVJV92PMAOUVKE1M6O9","A3NMU6AVMQ0QDB","30UZJB2POHY4464FN6NBJ2NLFWF354","","null","<img src=""img/land2.png"" style=""width:200px; border:14px solid green;"">","null","","","","","","","","","",""
"","image-keyboard-response","308","104114","0.0-308.0","3AMYWKA6YC8RVJV92PMAOUVKE1M6O9","A3NMU6AVMQ0QDB","30UZJB2POHY4464FN6NBJ2NLFWF354","","18","img/land4.png","76","18.700000047683716","3","0","1","1","0.8,0.2,0.2,0.2,0.8,0.2,0.2,0.2,0.8","0.8,0.2,0.2,0.2,0.8,0.2,0.2,0.2,0.8","1","",""
"","html-keyboard-response","309","104420","0.0-309.0","3AMYWKA6YC8RVJV92PMAOUVKE1M6O9","A3NMU6AVMQ0QDB","30UZJB2POHY4464FN6NBJ2NLFWF354","","null","<img src=""img/land4.png"" style=""width:200px;border:14px solid red;"">","null","","","","","","","","","",""
"","image-keyboard-response","310","104554","0.0-310.0","3AMYWKA6YC8RVJV92PMAOUVKE1M6O9","A3NMU6AVMQ0QDB","30UZJB2POHY4464FN6NBJ2NLFWF354","","133.5","img/land3.png","74","134.39999997615814","1","1","3","1","0.8,0.2,0.2,0.2,0.8,0.2,0.2,0.2,0.8","0.8,0.2,0.2,0.2,0.8,0.2,0.2,0.2,0.8","1","",""
"","html-keyboard-response","311","104858","0.0-311.0","3AMYWKA6YC8RVJV92PMAOUVKE1M6O9","A3NMU6AVMQ0QDB","30UZJB2POHY4464FN6NBJ2NLFWF354","","null","<img src=""img/land3.png"" style=""width:200px; border:14px solid green;"">","null","","","","","","","","","",""
"","image-keyboard-response","312","105156","0.0-312.0","3AMYWKA6YC8RVJV92PMAOUVKE1M6O9","A3NMU6AVMQ0QDB","30UZJB2POHY4464FN6NBJ2NLFWF354","","296.39999997615814","img/land3.png","76","297.10000002384186","3","0","3","1","0.8,0.2,0.2,0.2,0.8,0.2,0.2,0.2,0.8","0.8,0.2,0.2,0.2,0.8,0.2,0.2,0.2,0.8","1","",""
"","html-keyboard-response","313","105459","0.0-313.0","3AMYWKA6YC8RVJV92PMAOUVKE1M6O9","A3NMU6AVMQ0QDB","30UZJB2POHY4464FN6NBJ2NLFWF354","","null","<img src=""img/land3.png"" style=""width:200px;border:14px solid red;"">","null","","","","","","","","","",""
"","image-keyboard-response","314","105547","0.0-314.0","3AMYWKA6YC8RVJV92PMAOUVKE1M6O9","A3NMU6AVMQ0QDB","30UZJB2POHY4464FN6NBJ2NLFWF354","","86.80000007152557","img/land3.png","74","87.5","1","0","3","1","0.8,0.2,0.2,0.2,0.8,0.2,0.2,0.2,0.8","0.8,0.2,0.2,0.2,0.8,0.2,0.2,0.2,0.8","1","",""
"","html-keyboard-response","315","105853","0.0-315.0","3AMYWKA6YC8RVJV92PMAOUVKE1M6O9","A3NMU6AVMQ0QDB","30UZJB2POHY4464FN6NBJ2NLFWF354","","null","<img src=""img/land3.png"" style=""width:200px;border:14px solid red;"">","null","","","","","","","","","",""
"","image-keyboard-response","316","106012","0.0-316.0","3AMYWKA6YC8RVJV92PMAOUVKE1M6O9","A3NMU6AVMQ0QDB","30UZJB2POHY4464FN6NBJ2NLFWF354","","157.89999997615814","img/land3.png","75","158.69999992847443","2","1","3","1","0.8,0.2,0.2,0.2,0.8,0.2,0.2,0.2,0.8","0.8,0.2,0.2,0.2,0.8,0.2,0.2,0.2,0.8","1","",""
"","html-keyboard-response","317","106318","0.0-317.0","3AMYWKA6YC8RVJV92PMAOUVKE1M6O9","A3NMU6AVMQ0QDB","30UZJB2POHY4464FN6NBJ2NLFWF354","","null","<img src=""img/land3.png"" style=""width:200px; border:14px solid green;"">","null","","","","","","","","","",""
"","image-keyboard-response","318","106467","0.0-318.0","3AMYWKA6YC8RVJV92PMAOUVKE1M6O9","A3NMU6AVMQ0QDB","30UZJB2POHY4464FN6NBJ2NLFWF354","","148.20000004768372","img/land3.png","75","149.10000002384186","2","0","3","1","0.8,0.2,0.2,0.2,0.8,0.2,0.2,0.2,0.8","0.8,0.2,0.2,0.2,0.8,0.2,0.2,0.2,0.8","1","",""
"","html-keyboard-response","319","106773","0.0-319.0","3AMYWKA6YC8RVJV92PMAOUVKE1M6O9","A3NMU6AVMQ0QDB","30UZJB2POHY4464FN6NBJ2NLFWF354","","null","<img src=""img/land3.png"" style=""width:200px;border:14px solid red;"">","null","","","","","","","","","",""
"","image-keyboard-response","320","106789","0.0-320.0","3AMYWKA6YC8RVJV92PMAOUVKE1M6O9","A3NMU6AVMQ0QDB","30UZJB2POHY4464FN6NBJ2NLFWF354","","14.600000023841858","img/land4.png","74","15.5","1","0","1","1","0.8,0.2,0.2,0.2,0.8,0.2,0.2,0.2,0.8","0.8,0.2,0.2,0.2,0.8,0.2,0.2,0.2,0.8","1","",""
"","html-keyboard-response","321","107093","0.0-321.0","3AMYWKA6YC8RVJV92PMAOUVKE1M6O9","A3NMU6AVMQ0QDB","30UZJB2POHY4464FN6NBJ2NLFWF354","","null","<img src=""img/land4.png"" style=""width:200px;border:14px solid red;"">","null","","","","","","","","","",""
"","image-keyboard-response","322","107336","0.0-322.0","3AMYWKA6YC8RVJV92PMAOUVKE1M6O9","A3NMU6AVMQ0QDB","30UZJB2POHY4464FN6NBJ2NLFWF354","","241.69999992847443","img/land3.png","74","242.60000002384186","1","0","3","1","0.8,0.2,0.2,0.2,0.8,0.2,0.2,0.2,0.8","0.8,0.2,0.2,0.2,0.8,0.2,0.2,0.2,0.8","1","",""
"","html-keyboard-response","323","107642","0.0-323.0","3AMYWKA6YC8RVJV92PMAOUVKE1M6O9","A3NMU6AVMQ0QDB","30UZJB2POHY4464FN6NBJ2NLFWF354","","null","<img src=""img/land3.png"" style=""width:200px;border:14px solid red;"">","null","","","","","","","","","",""
"","image-keyboard-response","324","107718","0.0-324.0","3AMYWKA6YC8RVJV92PMAOUVKE1M6O9","A3NMU6AVMQ0QDB","30UZJB2POHY4464FN6NBJ2NLFWF354","","74.60000002384186","img/land4.png","75","75.5","2","0","1","1","0.8,0.2,0.2,0.2,0.8,0.2,0.2,0.2,0.8","0.8,0.2,0.2,0.2,0.8,0.2,0.2,0.2,0.8","1","",""
"","html-keyboard-response","325","108021","0.0-325.0","3AMYWKA6YC8RVJV92PMAOUVKE1M6O9","A3NMU6AVMQ0QDB","30UZJB2POHY4464FN6NBJ2NLFWF354","","null","<img src=""img/land4.png"" style=""width:200px;border:14px solid red;"">","null","","","","","","","","","",""
"","image-keyboard-response","326","108090","0.0-326.0","3AMYWKA6YC8RVJV92PMAOUVKE1M6O9","A3NMU6AVMQ0QDB","30UZJB2POHY4464FN6NBJ2NLFWF354","","68.29999995231628","img/land3.png","75","69","2","0","3","1","0.8,0.2,0.2,0.2,0.8,0.2,0.2,0.2,0.8","0.8,0.2,0.2,0.2,0.8,0.2,0.2,0.2,0.8","1","",""
"","html-keyboard-response","327","108393","0.0-327.0","3AMYWKA6YC8RVJV92PMAOUVKE1M6O9","A3NMU6AVMQ0QDB","30UZJB2POHY4464FN6NBJ2NLFWF354","","null","<img src=""img/land3.png"" style=""width:200px;border:14px solid red;"">","null","","","","","","","","","",""
"","image-keyboard-response","328","108418","0.0-328.0","3AMYWKA6YC8RVJV92PMAOUVKE1M6O9","A3NMU6AVMQ0QDB","30UZJB2POHY4464FN6NBJ2NLFWF354","","23.700000047683716","img/land3.png","75","24.40000009536743","2","0","3","1","0.8,0.2,0.2,0.2,0.8,0.2,0.2,0.2,0.8","0.8,0.2,0.2,0.2,0.8,0.2,0.2,0.2,0.8","1","",""
"","html-keyboard-response","329","108720","0.0-329.0","3AMYWKA6YC8RVJV92PMAOUVKE1M6O9","A3NMU6AVMQ0QDB","30UZJB2POHY4464FN6NBJ2NLFWF354","","null","<img src=""img/land3.png"" style=""width:200px;border:14px solid red;"">","null","","","","","","","","","",""
"","image-keyboard-response","330","108724","0.0-330.0","3AMYWKA6YC8RVJV92PMAOUVKE1M6O9","A3NMU6AVMQ0QDB","30UZJB2POHY4464FN6NBJ2NLFWF354","","3.899999976158142","img/land2.png","75","4.5","2","1","2","1","0.8,0.2,0.2,0.2,0.8,0.2,0.2,0.2,0.8","0.8,0.2,0.2,0.2,0.8,0.2,0.2,0.2,0.8","1","",""
"","html-keyboard-response","331","109028","0.0-331.0","3AMYWKA6YC8RVJV92PMAOUVKE1M6O9","A3NMU6AVMQ0QDB","30UZJB2POHY4464FN6NBJ2NLFWF354","","null","<img src=""img/land2.png"" style=""width:200px; border:14px solid green;"">","null","","","","","","","","","",""
"","image-keyboard-response","332","109079","0.0-332.0","3AMYWKA6YC8RVJV92PMAOUVKE1M6O9","A3NMU6AVMQ0QDB","30UZJB2POHY4464FN6NBJ2NLFWF354","","50.09999990463257","img/land2.png","76","50.89999997615814","3","0","2","1","0.8,0.2,0.2,0.2,0.8,0.2,0.2,0.2,0.8","0.8,0.2,0.2,0.2,0.8,0.2,0.2,0.2,0.8","1","",""
"","html-keyboard-response","333","109381","0.0-333.0","3AMYWKA6YC8RVJV92PMAOUVKE1M6O9","A3NMU6AVMQ0QDB","30UZJB2POHY4464FN6NBJ2NLFWF354","","null","<img src=""img/land2.png"" style=""width:200px;border:14px solid red;"">","null","","","","","","","","","",""
"","image-keyboard-response","334","109611","0.0-334.0","3AMYWKA6YC8RVJV92PMAOUVKE1M6O9","A3NMU6AVMQ0QDB","30UZJB2POHY4464FN6NBJ2NLFWF354","","229.40000009536743","img/land2.png","75","230.19999992847443","2","1","2","1","0.8,0.2,0.2,0.2,0.8,0.2,0.2,0.2,0.8","0.8,0.2,0.2,0.2,0.8,0.2,0.2,0.2,0.8","1","",""
"","html-keyboard-response","335","109914","0.0-335.0","3AMYWKA6YC8RVJV92PMAOUVKE1M6O9","A3NMU6AVMQ0QDB","30UZJB2POHY4464FN6NBJ2NLFWF354","","null","<img src=""img/land2.png"" style=""width:200px; border:14px solid green;"">","null","","","","","","","","","",""
"","image-keyboard-response","336","110099","0.0-336.0","3AMYWKA6YC8RVJV92PMAOUVKE1M6O9","A3NMU6AVMQ0QDB","30UZJB2POHY4464FN6NBJ2NLFWF354","","183.5","img/land2.png","75","184.19999992847443","2","1","2","1","0.8,0.2,0.2,0.2,0.8,0.2,0.2,0.2,0.8","0.8,0.2,0.2,0.2,0.8,0.2,0.2,0.2,0.8","1","",""
"","html-keyboard-response","337","110404","0.0-337.0","3AMYWKA6YC8RVJV92PMAOUVKE1M6O9","A3NMU6AVMQ0QDB","30UZJB2POHY4464FN6NBJ2NLFWF354","","null","<img src=""img/land2.png"" style=""width:200px; border:14px solid green;"">","null","","","","","","","","","",""
"","image-keyboard-response","338","110522","0.0-338.0","3AMYWKA6YC8RVJV92PMAOUVKE1M6O9","A3NMU6AVMQ0QDB","30UZJB2POHY4464FN6NBJ2NLFWF354","","117.10000002384186","img/land4.png","74","117.89999997615814","1","1","1","1","0.8,0.2,0.2,0.2,0.8,0.2,0.2,0.2,0.8","0.8,0.2,0.2,0.2,0.8,0.2,0.2,0.2,0.8","1","",""
"","html-keyboard-response","339","110827","0.0-339.0","3AMYWKA6YC8RVJV92PMAOUVKE1M6O9","A3NMU6AVMQ0QDB","30UZJB2POHY4464FN6NBJ2NLFWF354","","null","<img src=""img/land4.png"" style=""width:200px; border:14px solid green;"">","null","","","","","","","","","",""
"","image-keyboard-response","340","111123","0.0-340.0","3AMYWKA6YC8RVJV92PMAOUVKE1M6O9","A3NMU6AVMQ0QDB","30UZJB2POHY4464FN6NBJ2NLFWF354","","294.7999999523163","img/land2.png","75","295.5","2","0","2","1","0.8,0.2,0.2,0.2,0.8,0.2,0.2,0.2,0.8","0.8,0.2,0.2,0.2,0.8,0.2,0.2,0.2,0.8","1","",""
"","html-keyboard-response","341","111424","0.0-341.0","3AMYWKA6YC8RVJV92PMAOUVKE1M6O9","A3NMU6AVMQ0QDB","30UZJB2POHY4464FN6NBJ2NLFWF354","","null","<img src=""img/land2.png"" style=""width:200px;border:14px solid red;"">","null","","","","","","","","","",""
"","image-keyboard-response","342","111731","0.0-342.0","3AMYWKA6YC8RVJV92PMAOUVKE1M6O9","A3NMU6AVMQ0QDB","30UZJB2POHY4464FN6NBJ2NLFWF354","","306","img/land3.png","75","306.7000000476837","2","0","3","1","0.8,0.2,0.2,0.2,0.8,0.2,0.2,0.2,0.8","0.8,0.2,0.2,0.2,0.8,0.2,0.2,0.2,0.8","1","",""
"","html-keyboard-response","343","112037","0.0-343.0","3AMYWKA6YC8RVJV92PMAOUVKE1M6O9","A3NMU6AVMQ0QDB","30UZJB2POHY4464FN6NBJ2NLFWF354","","null","<img src=""img/land3.png"" style=""width:200px;border:14px solid red;"">","null","","","","","","","","","",""
"","image-keyboard-response","344","112116","0.0-344.0","3AMYWKA6YC8RVJV92PMAOUVKE1M6O9","A3NMU6AVMQ0QDB","30UZJB2POHY4464FN6NBJ2NLFWF354","","78.5","img/land3.png","75","79.09999990463257","2","0","3","1","0.8,0.2,0.2,0.2,0.8,0.2,0.2,0.2,0.8","0.8,0.2,0.2,0.2,0.8,0.2,0.2,0.2,0.8","1","",""
"","html-keyboard-response","345","112421","0.0-345.0","3AMYWKA6YC8RVJV92PMAOUVKE1M6O9","A3NMU6AVMQ0QDB","30UZJB2POHY4464FN6NBJ2NLFWF354","","null","<img src=""img/land3.png"" style=""width:200px;border:14px solid red;"">","null","","","","","","","","","",""
"","image-keyboard-response","346","112435","0.0-346.0","3AMYWKA6YC8RVJV92PMAOUVKE1M6O9","A3NMU6AVMQ0QDB","30UZJB2POHY4464FN6NBJ2NLFWF354","","12.799999952316284","img/land2.png","76","13.399999976158142","3","0","2","1","0.8,0.2,0.2,0.2,0.8,0.2,0.2,0.2,0.8","0.8,0.2,0.2,0.2,0.8,0.2,0.2,0.2,0.8","1","",""
"","html-keyboard-response","347","112741","0.0-347.0","3AMYWKA6YC8RVJV92PMAOUVKE1M6O9","A3NMU6AVMQ0QDB","30UZJB2POHY4464FN6NBJ2NLFWF354","","null","<img src=""img/land2.png"" style=""width:200px;border:14px solid red;"">","null","","","","","","","","","",""
"","image-keyboard-response","348","112786","0.0-348.0","3AMYWKA6YC8RVJV92PMAOUVKE1M6O9","A3NMU6AVMQ0QDB","30UZJB2POHY4464FN6NBJ2NLFWF354","","44.09999990463257","img/land2.png","74","44.699999928474426","1","0","2","1","0.8,0.2,0.2,0.2,0.8,0.2,0.2,0.2,0.8","0.8,0.2,0.2,0.2,0.8,0.2,0.2,0.2,0.8","1","",""
"","html-keyboard-response","349","113092","0.0-349.0","3AMYWKA6YC8RVJV92PMAOUVKE1M6O9","A3NMU6AVMQ0QDB","30UZJB2POHY4464FN6NBJ2NLFWF354","","null","<img src=""img/land2.png"" style=""width:200px;border:14px solid red;"">","null","","","","","","","","","",""
"","image-keyboard-response","350","113197","0.0-350.0","3AMYWKA6YC8RVJV92PMAOUVKE1M6O9","A3NMU6AVMQ0QDB","30UZJB2POHY4464FN6NBJ2NLFWF354","","103.69999992847443","img/land3.png","74","104.39999997615814","1","0","3","1","0.8,0.2,0.2,0.2,0.8,0.2,0.2,0.2,0.8","0.8,0.2,0.2,0.2,0.8,0.2,0.2,0.2,0.8","1","",""
"","html-keyboard-response","351","113498","0.0-351.0","3AMYWKA6YC8RVJV92PMAOUVKE1M6O9","A3NMU6AVMQ0QDB","30UZJB2POHY4464FN6NBJ2NLFWF354","","null","<img src=""img/land3.png"" style=""width:200px;border:14px solid red;"">","null","","","","","","","","","",""
"","image-keyboard-response","352","113635","0.0-352.0","3AMYWKA6YC8RVJV92PMAOUVKE1M6O9","A3NMU6AVMQ0QDB","30UZJB2POHY4464FN6NBJ2NLFWF354","","136.09999990463257","img/land4.png","75","136.79999995231628","2","0","1","1","0.8,0.2,0.2,0.2,0.8,0.2,0.2,0.2,0.8","0.8,0.2,0.2,0.2,0.8,0.2,0.2,0.2,0.8","1","",""
"","html-keyboard-response","353","113937","0.0-353.0","3AMYWKA6YC8RVJV92PMAOUVKE1M6O9","A3NMU6AVMQ0QDB","30UZJB2POHY4464FN6NBJ2NLFWF354","","null","<img src=""img/land4.png"" style=""width:200px;border:14px solid red;"">","null","","","","","","","","","",""
"","image-keyboard-response","354","113940","0.0-354.0","3AMYWKA6YC8RVJV92PMAOUVKE1M6O9","A3NMU6AVMQ0QDB","30UZJB2POHY4464FN6NBJ2NLFWF354","","1.7000000476837158","img/land3.png","76","2.5","3","1","3","1","0.8,0.2,0.2,0.2,0.8,0.2,0.2,0.2,0.8","0.8,0.2,0.2,0.2,0.8,0.2,0.2,0.2,0.8","1","",""
"","html-keyboard-response","355","114245","0.0-355.0","3AMYWKA6YC8RVJV92PMAOUVKE1M6O9","A3NMU6AVMQ0QDB","30UZJB2POHY4464FN6NBJ2NLFWF354","","null","<img src=""img/land3.png"" style=""width:200px; border:14px solid green;"">","null","","","","","","","","","",""
