"success","trial_type","trial_index","time_elapsed","internal_node_id","assignmentID","mturkID","hitID","view_history","rt","stimulus","key_press","reactionTime","a","r","s","cond","reward_cond","reward_cond_actual","reward_matrix_idx","responses","question_order"
"true","fullscreen","0","5130","0.0-0.0","336YQZE83W07CCAJKQXS4KSFN9T5MG","A3NOYN845TEJIH","3THR0FZ95PF7SK0MYRNAOUHTWDJOLG","","","","","","","","","","","","","",""
"","instructions","1","19160","0.0-1.0","336YQZE83W07CCAJKQXS4KSFN9T5MG","A3NOYN845TEJIH","3THR0FZ95PF7SK0MYRNAOUHTWDJOLG","[{""page_index"":0,""viewing_time"":1849.300000011921},{""page_index"":1,""viewing_time"":2428.4000000059605},{""page_index"":2,""viewing_time"":2150.0999999940395},{""page_index"":3,""viewing_time"":2019},{""page_index"":4,""viewing_time"":1801.4000000059605},{""page_index"":5,""viewing_time"":2134.699999988079},{""page_index"":6,""viewing_time"":1644}]","14027.300000011921","","","","","","","","","","","",""
"","image-keyboard-response","2","20633","0.0-2.0","336YQZE83W07CCAJKQXS4KSFN9T5MG","A3NOYN845TEJIH","3THR0FZ95PF7SK0MYRNAOUHTWDJOLG","","1471.0999999940395","img/land4.png","76","1472.0999999940395","3","0","3","1","0.8,0.2,0.2,0.2,0.8,0.2,0.2,0.2,0.8","0.8,0.2,0.2,0.2,0.8,0.2,0.2,0.2,0.8","1","",""
"","html-keyboard-response","3","20947","0.0-3.0","336YQZE83W07CCAJKQXS4KSFN9T5MG","A3NOYN845TEJIH","3THR0FZ95PF7SK0MYRNAOUHTWDJOLG","","null","<img src=""img/land4.png"" style=""width:200px;border:14px solid red;"">","null","","","","","","","","","",""
"","image-keyboard-response","4","21221","0.0-4.0","336YQZE83W07CCAJKQXS4KSFN9T5MG","A3NOYN845TEJIH","3THR0FZ95PF7SK0MYRNAOUHTWDJOLG","","272.5","img/land4.png","76","273.7000000178814","3","1","3","1","0.8,0.2,0.2,0.2,0.8,0.2,0.2,0.2,0.8","0.8,0.2,0.2,0.2,0.8,0.2,0.2,0.2,0.8","1","",""
"","html-keyboard-response","5","21535","0.0-5.0","336YQZE83W07CCAJKQXS4KSFN9T5MG","A3NOYN845TEJIH","3THR0FZ95PF7SK0MYRNAOUHTWDJOLG","","null","<img src=""img/land4.png"" style=""width:200px; border:14px solid green;"">","null","","","","","","","","","",""
"","image-keyboard-response","6","22155","0.0-6.0","336YQZE83W07CCAJKQXS4KSFN9T5MG","A3NOYN845TEJIH","3THR0FZ95PF7SK0MYRNAOUHTWDJOLG","","618.7999999821186","img/land4.png","76","620","3","1","3","1","0.8,0.2,0.2,0.2,0.8,0.2,0.2,0.2,0.8","0.8,0.2,0.2,0.2,0.8,0.2,0.2,0.2,0.8","1","",""
"","html-keyboard-response","7","22471","0.0-7.0","336YQZE83W07CCAJKQXS4KSFN9T5MG","A3NOYN845TEJIH","3THR0FZ95PF7SK0MYRNAOUHTWDJOLG","","null","<img src=""img/land4.png"" style=""width:200px; border:14px solid green;"">","null","","","","","","","","","",""
"","image-keyboard-response","8","22730","0.0-8.0","336YQZE83W07CCAJKQXS4KSFN9T5MG","A3NOYN845TEJIH","3THR0FZ95PF7SK0MYRNAOUHTWDJOLG","","258.69999998807907","img/land4.png","76","259.5","3","1","3","1","0.8,0.2,0.2,0.2,0.8,0.2,0.2,0.2,0.8","0.8,0.2,0.2,0.2,0.8,0.2,0.2,0.2,0.8","1","",""
"","html-keyboard-response","9","23045","0.0-9.0","336YQZE83W07CCAJKQXS4KSFN9T5MG","A3NOYN845TEJIH","3THR0FZ95PF7SK0MYRNAOUHTWDJOLG","","null","<img src=""img/land4.png"" style=""width:200px; border:14px solid green;"">","null","","","","","","","","","",""
"","image-keyboard-response","10","23795","0.0-10.0","336YQZE83W07CCAJKQXS4KSFN9T5MG","A3NOYN845TEJIH","3THR0FZ95PF7SK0MYRNAOUHTWDJOLG","","748.8000000119209","img/land1.png","75","750.1000000238419","2","0","1","1","0.8,0.2,0.2,0.2,0.8,0.2,0.2,0.2,0.8","0.8,0.2,0.2,0.2,0.8,0.2,0.2,0.2,0.8","1","",""
"","html-keyboard-response","11","24109","0.0-11.0","336YQZE83W07CCAJKQXS4KSFN9T5MG","A3NOYN845TEJIH","3THR0FZ95PF7SK0MYRNAOUHTWDJOLG","","null","<img src=""img/land1.png"" style=""width:200px;border:14px solid red;"">","null","","","","","","","","","",""
"","image-keyboard-response","12","24297","0.0-12.0","336YQZE83W07CCAJKQXS4KSFN9T5MG","A3NOYN845TEJIH","3THR0FZ95PF7SK0MYRNAOUHTWDJOLG","","185.80000001192093","img/land5.png","75","187.2000000178814","2","1","2","1","0.8,0.2,0.2,0.2,0.8,0.2,0.2,0.2,0.8","0.8,0.2,0.2,0.2,0.8,0.2,0.2,0.2,0.8","1","",""
"","html-keyboard-response","13","24598","0.0-13.0","336YQZE83W07CCAJKQXS4KSFN9T5MG","A3NOYN845TEJIH","3THR0FZ95PF7SK0MYRNAOUHTWDJOLG","","null","<img src=""img/land5.png"" style=""width:200px; border:14px solid green;"">","null","","","","","","","","","",""
"","image-keyboard-response","14","24923","0.0-14.0","336YQZE83W07CCAJKQXS4KSFN9T5MG","A3NOYN845TEJIH","3THR0FZ95PF7SK0MYRNAOUHTWDJOLG","","323.40000000596046","img/land5.png","75","324.40000000596046","2","1","2","1","0.8,0.2,0.2,0.2,0.8,0.2,0.2,0.2,0.8","0.8,0.2,0.2,0.2,0.8,0.2,0.2,0.2,0.8","1","",""
"","html-keyboard-response","15","25237","0.0-15.0","336YQZE83W07CCAJKQXS4KSFN9T5MG","A3NOYN845TEJIH","3THR0FZ95PF7SK0MYRNAOUHTWDJOLG","","null","<img src=""img/land5.png"" style=""width:200px; border:14px solid green;"">","null","","","","","","","","","",""
"","image-keyboard-response","16","25603","0.0-16.0","336YQZE83W07CCAJKQXS4KSFN9T5MG","A3NOYN845TEJIH","3THR0FZ95PF7SK0MYRNAOUHTWDJOLG","","364.5","img/land1.png","75","365.30000001192093","2","0","1","1","0.8,0.2,0.2,0.2,0.8,0.2,0.2,0.2,0.8","0.8,0.2,0.2,0.2,0.8,0.2,0.2,0.2,0.8","1","",""
"","html-keyboard-response","17","25920","0.0-17.0","336YQZE83W07CCAJKQXS4KSFN9T5MG","A3NOYN845TEJIH","3THR0FZ95PF7SK0MYRNAOUHTWDJOLG","","null","<img src=""img/land1.png"" style=""width:200px;border:14px solid red;"">","null","","","","","","","","","",""
"","image-keyboard-response","18","26267","0.0-18.0","336YQZE83W07CCAJKQXS4KSFN9T5MG","A3NOYN845TEJIH","3THR0FZ95PF7SK0MYRNAOUHTWDJOLG","","345.2000000178814","img/land1.png","74","346.2999999821186","1","0","1","1","0.8,0.2,0.2,0.2,0.8,0.2,0.2,0.2,0.8","0.8,0.2,0.2,0.2,0.8,0.2,0.2,0.2,0.8","1","",""
"","html-keyboard-response","19","26581","0.0-19.0","336YQZE83W07CCAJKQXS4KSFN9T5MG","A3NOYN845TEJIH","3THR0FZ95PF7SK0MYRNAOUHTWDJOLG","","null","<img src=""img/land1.png"" style=""width:200px;border:14px solid red;"">","null","","","","","","","","","",""
"","image-keyboard-response","20","26874","0.0-20.0","336YQZE83W07CCAJKQXS4KSFN9T5MG","A3NOYN845TEJIH","3THR0FZ95PF7SK0MYRNAOUHTWDJOLG","","291.59999999403954","img/land5.png","76","292.59999999403954","3","0","2","1","0.8,0.2,0.2,0.2,0.8,0.2,0.2,0.2,0.8","0.8,0.2,0.2,0.2,0.8,0.2,0.2,0.2,0.8","1","",""
"","html-keyboard-response","21","27187","0.0-21.0","336YQZE83W07CCAJKQXS4KSFN9T5MG","A3NOYN845TEJIH","3THR0FZ95PF7SK0MYRNAOUHTWDJOLG","","null","<img src=""img/land5.png"" style=""width:200px;border:14px solid red;"">","null","","","","","","","","","",""
"","image-keyboard-response","22","27437","0.0-22.0","336YQZE83W07CCAJKQXS4KSFN9T5MG","A3NOYN845TEJIH","3THR0FZ95PF7SK0MYRNAOUHTWDJOLG","","248.10000002384186","img/land4.png","76","249.39999997615814","3","1","3","1","0.8,0.2,0.2,0.2,0.8,0.2,0.2,0.2,0.8","0.8,0.2,0.2,0.2,0.8,0.2,0.2,0.2,0.8","1","",""
"","html-keyboard-response","23","27750","0.0-23.0","336YQZE83W07CCAJKQXS4KSFN9T5MG","A3NOYN845TEJIH","3THR0FZ95PF7SK0MYRNAOUHTWDJOLG","","null","<img src=""img/land4.png"" style=""width:200px; border:14px solid green;"">","null","","","","","","","","","",""
"","image-keyboard-response","24","28079","0.0-24.0","336YQZE83W07CCAJKQXS4KSFN9T5MG","A3NOYN845TEJIH","3THR0FZ95PF7SK0MYRNAOUHTWDJOLG","","328.5","img/land4.png","76","329.09999999403954","3","1","3","1","0.8,0.2,0.2,0.2,0.8,0.2,0.2,0.2,0.8","0.8,0.2,0.2,0.2,0.8,0.2,0.2,0.2,0.8","1","",""
"","html-keyboard-response","25","28392","0.0-25.0","336YQZE83W07CCAJKQXS4KSFN9T5MG","A3NOYN845TEJIH","3THR0FZ95PF7SK0MYRNAOUHTWDJOLG","","null","<img src=""img/land4.png"" style=""width:200px; border:14px solid green;"">","null","","","","","","","","","",""
"","image-keyboard-response","26","28925","0.0-26.0","336YQZE83W07CCAJKQXS4KSFN9T5MG","A3NOYN845TEJIH","3THR0FZ95PF7SK0MYRNAOUHTWDJOLG","","531.1999999880791","img/land5.png","76","532.5","3","0","2","1","0.8,0.2,0.2,0.2,0.8,0.2,0.2,0.2,0.8","0.8,0.2,0.2,0.2,0.8,0.2,0.2,0.2,0.8","1","",""
"","html-keyboard-response","27","29241","0.0-27.0","336YQZE83W07CCAJKQXS4KSFN9T5MG","A3NOYN845TEJIH","3THR0FZ95PF7SK0MYRNAOUHTWDJOLG","","null","<img src=""img/land5.png"" style=""width:200px;border:14px solid red;"">","null","","","","","","","","","",""
"","image-keyboard-response","28","29473","0.0-28.0","336YQZE83W07CCAJKQXS4KSFN9T5MG","A3NOYN845TEJIH","3THR0FZ95PF7SK0MYRNAOUHTWDJOLG","","231.19999998807907","img/land1.png","75","232.59999999403954","2","0","1","1","0.8,0.2,0.2,0.2,0.8,0.2,0.2,0.2,0.8","0.8,0.2,0.2,0.2,0.8,0.2,0.2,0.2,0.8","1","",""
"","html-keyboard-response","29","29787","0.0-29.0","336YQZE83W07CCAJKQXS4KSFN9T5MG","A3NOYN845TEJIH","3THR0FZ95PF7SK0MYRNAOUHTWDJOLG","","null","<img src=""img/land1.png"" style=""width:200px;border:14px solid red;"">","null","","","","","","","","","",""
"","image-keyboard-response","30","30218","0.0-30.0","336YQZE83W07CCAJKQXS4KSFN9T5MG","A3NOYN845TEJIH","3THR0FZ95PF7SK0MYRNAOUHTWDJOLG","","430.2999999821186","img/land5.png","75","431.2999999821186","2","1","2","1","0.8,0.2,0.2,0.2,0.8,0.2,0.2,0.2,0.8","0.8,0.2,0.2,0.2,0.8,0.2,0.2,0.2,0.8","1","",""
"","html-keyboard-response","31","30520","0.0-31.0","336YQZE83W07CCAJKQXS4KSFN9T5MG","A3NOYN845TEJIH","3THR0FZ95PF7SK0MYRNAOUHTWDJOLG","","null","<img src=""img/land5.png"" style=""width:200px; border:14px solid green;"">","null","","","","","","","","","",""
"","image-keyboard-response","32","30940","0.0-32.0","336YQZE83W07CCAJKQXS4KSFN9T5MG","A3NOYN845TEJIH","3THR0FZ95PF7SK0MYRNAOUHTWDJOLG","","418.30000001192093","img/land1.png","74","419.59999999403954","1","0","1","1","0.8,0.2,0.2,0.2,0.8,0.2,0.2,0.2,0.8","0.8,0.2,0.2,0.2,0.8,0.2,0.2,0.2,0.8","1","",""
"","html-keyboard-response","33","31257","0.0-33.0","336YQZE83W07CCAJKQXS4KSFN9T5MG","A3NOYN845TEJIH","3THR0FZ95PF7SK0MYRNAOUHTWDJOLG","","null","<img src=""img/land1.png"" style=""width:200px;border:14px solid red;"">","null","","","","","","","","","",""
"","image-keyboard-response","34","31738","0.0-34.0","336YQZE83W07CCAJKQXS4KSFN9T5MG","A3NOYN845TEJIH","3THR0FZ95PF7SK0MYRNAOUHTWDJOLG","","480.09999999403954","img/land1.png","74","481.09999999403954","1","1","1","1","0.8,0.2,0.2,0.2,0.8,0.2,0.2,0.2,0.8","0.8,0.2,0.2,0.2,0.8,0.2,0.2,0.2,0.8","1","",""
"","html-keyboard-response","35","32040","0.0-35.0","336YQZE83W07CCAJKQXS4KSFN9T5MG","A3NOYN845TEJIH","3THR0FZ95PF7SK0MYRNAOUHTWDJOLG","","null","<img src=""img/land1.png"" style=""width:200px; border:14px solid green;"">","null","","","","","","","","","",""
"","image-keyboard-response","36","32536","0.0-36.0","336YQZE83W07CCAJKQXS4KSFN9T5MG","A3NOYN845TEJIH","3THR0FZ95PF7SK0MYRNAOUHTWDJOLG","","494.59999999403954","img/land5.png","75","495.59999999403954","2","1","2","1","0.8,0.2,0.2,0.2,0.8,0.2,0.2,0.2,0.8","0.8,0.2,0.2,0.2,0.8,0.2,0.2,0.2,0.8","1","",""
"","html-keyboard-response","37","32837","0.0-37.0","336YQZE83W07CCAJKQXS4KSFN9T5MG","A3NOYN845TEJIH","3THR0FZ95PF7SK0MYRNAOUHTWDJOLG","","null","<img src=""img/land5.png"" style=""width:200px; border:14px solid green;"">","null","","","","","","","","","",""
"","image-keyboard-response","38","33230","0.0-38.0","336YQZE83W07CCAJKQXS4KSFN9T5MG","A3NOYN845TEJIH","3THR0FZ95PF7SK0MYRNAOUHTWDJOLG","","391.59999999403954","img/land1.png","75","392.30000001192093","2","0","1","1","0.8,0.2,0.2,0.2,0.8,0.2,0.2,0.2,0.8","0.8,0.2,0.2,0.2,0.8,0.2,0.2,0.2,0.8","1","",""
"","html-keyboard-response","39","33531","0.0-39.0","336YQZE83W07CCAJKQXS4KSFN9T5MG","A3NOYN845TEJIH","3THR0FZ95PF7SK0MYRNAOUHTWDJOLG","","null","<img src=""img/land1.png"" style=""width:200px;border:14px solid red;"">","null","","","","","","","","","",""
"","image-keyboard-response","40","33898","0.0-40.0","336YQZE83W07CCAJKQXS4KSFN9T5MG","A3NOYN845TEJIH","3THR0FZ95PF7SK0MYRNAOUHTWDJOLG","","365.69999998807907","img/land1.png","75","366.7999999821186","2","0","1","1","0.8,0.2,0.2,0.2,0.8,0.2,0.2,0.2,0.8","0.8,0.2,0.2,0.2,0.8,0.2,0.2,0.2,0.8","1","",""
"","html-keyboard-response","41","34200","0.0-41.0","336YQZE83W07CCAJKQXS4KSFN9T5MG","A3NOYN845TEJIH","3THR0FZ95PF7SK0MYRNAOUHTWDJOLG","","null","<img src=""img/land1.png"" style=""width:200px;border:14px solid red;"">","null","","","","","","","","","",""
"","image-keyboard-response","42","34852","0.0-42.0","336YQZE83W07CCAJKQXS4KSFN9T5MG","A3NOYN845TEJIH","3THR0FZ95PF7SK0MYRNAOUHTWDJOLG","","651","img/land5.png","75","652.0999999940395","2","1","2","1","0.8,0.2,0.2,0.2,0.8,0.2,0.2,0.2,0.8","0.8,0.2,0.2,0.2,0.8,0.2,0.2,0.2,0.8","1","",""
"","html-keyboard-response","43","35154","0.0-43.0","336YQZE83W07CCAJKQXS4KSFN9T5MG","A3NOYN845TEJIH","3THR0FZ95PF7SK0MYRNAOUHTWDJOLG","","null","<img src=""img/land5.png"" style=""width:200px; border:14px solid green;"">","null","","","","","","","","","",""
"","image-keyboard-response","44","35656","0.0-44.0","336YQZE83W07CCAJKQXS4KSFN9T5MG","A3NOYN845TEJIH","3THR0FZ95PF7SK0MYRNAOUHTWDJOLG","","500.30000001192093","img/land1.png","76","501.39999997615814","3","0","1","1","0.8,0.2,0.2,0.2,0.8,0.2,0.2,0.2,0.8","0.8,0.2,0.2,0.2,0.8,0.2,0.2,0.2,0.8","1","",""
"","html-keyboard-response","45","35958","0.0-45.0","336YQZE83W07CCAJKQXS4KSFN9T5MG","A3NOYN845TEJIH","3THR0FZ95PF7SK0MYRNAOUHTWDJOLG","","null","<img src=""img/land1.png"" style=""width:200px;border:14px solid red;"">","null","","","","","","","","","",""
"","image-keyboard-response","46","36632","0.0-46.0","336YQZE83W07CCAJKQXS4KSFN9T5MG","A3NOYN845TEJIH","3THR0FZ95PF7SK0MYRNAOUHTWDJOLG","","672.0999999940395","img/land4.png","76","673.0999999940395","3","1","3","1","0.8,0.2,0.2,0.2,0.8,0.2,0.2,0.2,0.8","0.8,0.2,0.2,0.2,0.8,0.2,0.2,0.2,0.8","1","",""
"","html-keyboard-response","47","36934","0.0-47.0","336YQZE83W07CCAJKQXS4KSFN9T5MG","A3NOYN845TEJIH","3THR0FZ95PF7SK0MYRNAOUHTWDJOLG","","null","<img src=""img/land4.png"" style=""width:200px; border:14px solid green;"">","null","","","","","","","","","",""
"","image-keyboard-response","48","37252","0.0-48.0","336YQZE83W07CCAJKQXS4KSFN9T5MG","A3NOYN845TEJIH","3THR0FZ95PF7SK0MYRNAOUHTWDJOLG","","316.19999998807907","img/land4.png","76","317.2000000178814","3","1","3","1","0.8,0.2,0.2,0.2,0.8,0.2,0.2,0.2,0.8","0.8,0.2,0.2,0.2,0.8,0.2,0.2,0.2,0.8","1","",""
"","html-keyboard-response","49","37554","0.0-49.0","336YQZE83W07CCAJKQXS4KSFN9T5MG","A3NOYN845TEJIH","3THR0FZ95PF7SK0MYRNAOUHTWDJOLG","","null","<img src=""img/land4.png"" style=""width:200px; border:14px solid green;"">","null","","","","","","","","","",""
"","image-keyboard-response","50","37814","0.0-50.0","336YQZE83W07CCAJKQXS4KSFN9T5MG","A3NOYN845TEJIH","3THR0FZ95PF7SK0MYRNAOUHTWDJOLG","","258.7999999821186","img/land4.png","76","259.80000001192093","3","1","3","1","0.8,0.2,0.2,0.2,0.8,0.2,0.2,0.2,0.8","0.8,0.2,0.2,0.2,0.8,0.2,0.2,0.2,0.8","1","",""
"","html-keyboard-response","51","38115","0.0-51.0","336YQZE83W07CCAJKQXS4KSFN9T5MG","A3NOYN845TEJIH","3THR0FZ95PF7SK0MYRNAOUHTWDJOLG","","null","<img src=""img/land4.png"" style=""width:200px; border:14px solid green;"">","null","","","","","","","","","",""
"","image-keyboard-response","52","38509","0.0-52.0","336YQZE83W07CCAJKQXS4KSFN9T5MG","A3NOYN845TEJIH","3THR0FZ95PF7SK0MYRNAOUHTWDJOLG","","392.30000001192093","img/land5.png","76","393.5","3","0","2","1","0.8,0.2,0.2,0.2,0.8,0.2,0.2,0.2,0.8","0.8,0.2,0.2,0.2,0.8,0.2,0.2,0.2,0.8","1","",""
"","html-keyboard-response","53","38812","0.0-53.0","336YQZE83W07CCAJKQXS4KSFN9T5MG","A3NOYN845TEJIH","3THR0FZ95PF7SK0MYRNAOUHTWDJOLG","","null","<img src=""img/land5.png"" style=""width:200px;border:14px solid red;"">","null","","","","","","","","","",""
"","image-keyboard-response","54","39088","0.0-54.0","336YQZE83W07CCAJKQXS4KSFN9T5MG","A3NOYN845TEJIH","3THR0FZ95PF7SK0MYRNAOUHTWDJOLG","","275","img/land4.png","76","275.80000001192093","3","1","3","1","0.8,0.2,0.2,0.2,0.8,0.2,0.2,0.2,0.8","0.8,0.2,0.2,0.2,0.8,0.2,0.2,0.2,0.8","1","",""
"","html-keyboard-response","55","39391","0.0-55.0","336YQZE83W07CCAJKQXS4KSFN9T5MG","A3NOYN845TEJIH","3THR0FZ95PF7SK0MYRNAOUHTWDJOLG","","null","<img src=""img/land4.png"" style=""width:200px; border:14px solid green;"">","null","","","","","","","","","",""
"","image-keyboard-response","56","39700","0.0-56.0","336YQZE83W07CCAJKQXS4KSFN9T5MG","A3NOYN845TEJIH","3THR0FZ95PF7SK0MYRNAOUHTWDJOLG","","309","img/land1.png","76","309.59999999403954","3","0","1","1","0.8,0.2,0.2,0.2,0.8,0.2,0.2,0.2,0.8","0.8,0.2,0.2,0.2,0.8,0.2,0.2,0.2,0.8","1","",""
"","html-keyboard-response","57","40003","0.0-57.0","336YQZE83W07CCAJKQXS4KSFN9T5MG","A3NOYN845TEJIH","3THR0FZ95PF7SK0MYRNAOUHTWDJOLG","","null","<img src=""img/land1.png"" style=""width:200px;border:14px solid red;"">","null","","","","","","","","","",""
"","image-keyboard-response","58","40236","0.0-58.0","336YQZE83W07CCAJKQXS4KSFN9T5MG","A3NOYN845TEJIH","3THR0FZ95PF7SK0MYRNAOUHTWDJOLG","","231.5","img/land5.png","76","232.69999998807907","3","0","2","1","0.8,0.2,0.2,0.2,0.8,0.2,0.2,0.2,0.8","0.8,0.2,0.2,0.2,0.8,0.2,0.2,0.2,0.8","1","",""
"","html-keyboard-response","59","40538","0.0-59.0","336YQZE83W07CCAJKQXS4KSFN9T5MG","A3NOYN845TEJIH","3THR0FZ95PF7SK0MYRNAOUHTWDJOLG","","null","<img src=""img/land5.png"" style=""width:200px;border:14px solid red;"">","null","","","","","","","","","",""
"","image-keyboard-response","60","40839","0.0-60.0","336YQZE83W07CCAJKQXS4KSFN9T5MG","A3NOYN845TEJIH","3THR0FZ95PF7SK0MYRNAOUHTWDJOLG","","300.59999999403954","img/land4.png","76","301.2000000178814","3","1","3","1","0.8,0.2,0.2,0.2,0.8,0.2,0.2,0.2,0.8","0.8,0.2,0.2,0.2,0.8,0.2,0.2,0.2,0.8","1","",""
"","html-keyboard-response","61","41141","0.0-61.0","336YQZE83W07CCAJKQXS4KSFN9T5MG","A3NOYN845TEJIH","3THR0FZ95PF7SK0MYRNAOUHTWDJOLG","","null","<img src=""img/land4.png"" style=""width:200px; border:14px solid green;"">","null","","","","","","","","","",""
"","image-keyboard-response","62","41422","0.0-62.0","336YQZE83W07CCAJKQXS4KSFN9T5MG","A3NOYN845TEJIH","3THR0FZ95PF7SK0MYRNAOUHTWDJOLG","","279.5","img/land4.png","76","280.59999999403954","3","1","3","1","0.8,0.2,0.2,0.2,0.8,0.2,0.2,0.2,0.8","0.8,0.2,0.2,0.2,0.8,0.2,0.2,0.2,0.8","1","",""
"","html-keyboard-response","63","41724","0.0-63.0","336YQZE83W07CCAJKQXS4KSFN9T5MG","A3NOYN845TEJIH","3THR0FZ95PF7SK0MYRNAOUHTWDJOLG","","null","<img src=""img/land4.png"" style=""width:200px; border:14px solid green;"">","null","","","","","","","","","",""
"","image-keyboard-response","64","42108","0.0-64.0","336YQZE83W07CCAJKQXS4KSFN9T5MG","A3NOYN845TEJIH","3THR0FZ95PF7SK0MYRNAOUHTWDJOLG","","382.89999997615814","img/land5.png","76","383.90000000596046","3","0","2","1","0.8,0.2,0.2,0.2,0.8,0.2,0.2,0.2,0.8","0.8,0.2,0.2,0.2,0.8,0.2,0.2,0.2,0.8","1","",""
"","html-keyboard-response","65","42410","0.0-65.0","336YQZE83W07CCAJKQXS4KSFN9T5MG","A3NOYN845TEJIH","3THR0FZ95PF7SK0MYRNAOUHTWDJOLG","","null","<img src=""img/land5.png"" style=""width:200px;border:14px solid red;"">","null","","","","","","","","","",""
"","image-keyboard-response","66","42760","0.0-66.0","336YQZE83W07CCAJKQXS4KSFN9T5MG","A3NOYN845TEJIH","3THR0FZ95PF7SK0MYRNAOUHTWDJOLG","","348.69999998807907","img/land5.png","75","349.40000000596046","2","1","2","1","0.8,0.2,0.2,0.2,0.8,0.2,0.2,0.2,0.8","0.8,0.2,0.2,0.2,0.8,0.2,0.2,0.2,0.8","1","",""
"","html-keyboard-response","67","43062","0.0-67.0","336YQZE83W07CCAJKQXS4KSFN9T5MG","A3NOYN845TEJIH","3THR0FZ95PF7SK0MYRNAOUHTWDJOLG","","null","<img src=""img/land5.png"" style=""width:200px; border:14px solid green;"">","null","","","","","","","","","",""
"","image-keyboard-response","68","43418","0.0-68.0","336YQZE83W07CCAJKQXS4KSFN9T5MG","A3NOYN845TEJIH","3THR0FZ95PF7SK0MYRNAOUHTWDJOLG","","353.90000000596046","img/land5.png","75","354.89999997615814","2","1","2","1","0.8,0.2,0.2,0.2,0.8,0.2,0.2,0.2,0.8","0.8,0.2,0.2,0.2,0.8,0.2,0.2,0.2,0.8","1","",""
"","html-keyboard-response","69","43720","0.0-69.0","336YQZE83W07CCAJKQXS4KSFN9T5MG","A3NOYN845TEJIH","3THR0FZ95PF7SK0MYRNAOUHTWDJOLG","","null","<img src=""img/land5.png"" style=""width:200px; border:14px solid green;"">","null","","","","","","","","","",""
"","image-keyboard-response","70","44054","0.0-70.0","336YQZE83W07CCAJKQXS4KSFN9T5MG","A3NOYN845TEJIH","3THR0FZ95PF7SK0MYRNAOUHTWDJOLG","","332.5","img/land5.png","75","333.59999999403954","2","0","2","1","0.8,0.2,0.2,0.2,0.8,0.2,0.2,0.2,0.8","0.8,0.2,0.2,0.2,0.8,0.2,0.2,0.2,0.8","1","",""
"","html-keyboard-response","71","44357","0.0-71.0","336YQZE83W07CCAJKQXS4KSFN9T5MG","A3NOYN845TEJIH","3THR0FZ95PF7SK0MYRNAOUHTWDJOLG","","null","<img src=""img/land5.png"" style=""width:200px;border:14px solid red;"">","null","","","","","","","","","",""
"","image-keyboard-response","72","44728","0.0-72.0","336YQZE83W07CCAJKQXS4KSFN9T5MG","A3NOYN845TEJIH","3THR0FZ95PF7SK0MYRNAOUHTWDJOLG","","370.40000000596046","img/land5.png","75","371.09999999403954","2","1","2","1","0.8,0.2,0.2,0.2,0.8,0.2,0.2,0.2,0.8","0.8,0.2,0.2,0.2,0.8,0.2,0.2,0.2,0.8","1","",""
"","html-keyboard-response","73","45032","0.0-73.0","336YQZE83W07CCAJKQXS4KSFN9T5MG","A3NOYN845TEJIH","3THR0FZ95PF7SK0MYRNAOUHTWDJOLG","","null","<img src=""img/land5.png"" style=""width:200px; border:14px solid green;"">","null","","","","","","","","","",""
"","image-keyboard-response","74","45327","0.0-74.0","336YQZE83W07CCAJKQXS4KSFN9T5MG","A3NOYN845TEJIH","3THR0FZ95PF7SK0MYRNAOUHTWDJOLG","","294.2000000178814","img/land5.png","75","294.69999998807907","2","1","2","1","0.8,0.2,0.2,0.2,0.8,0.2,0.2,0.2,0.8","0.8,0.2,0.2,0.2,0.8,0.2,0.2,0.2,0.8","1","",""
"","html-keyboard-response","75","45628","0.0-75.0","336YQZE83W07CCAJKQXS4KSFN9T5MG","A3NOYN845TEJIH","3THR0FZ95PF7SK0MYRNAOUHTWDJOLG","","null","<img src=""img/land5.png"" style=""width:200px; border:14px solid green;"">","null","","","","","","","","","",""
"","image-keyboard-response","76","45945","0.0-76.0","336YQZE83W07CCAJKQXS4KSFN9T5MG","A3NOYN845TEJIH","3THR0FZ95PF7SK0MYRNAOUHTWDJOLG","","315.2000000178814","img/land5.png","75","316.39999997615814","2","1","2","1","0.8,0.2,0.2,0.2,0.8,0.2,0.2,0.2,0.8","0.8,0.2,0.2,0.2,0.8,0.2,0.2,0.2,0.8","1","",""
"","html-keyboard-response","77","46248","0.0-77.0","336YQZE83W07CCAJKQXS4KSFN9T5MG","A3NOYN845TEJIH","3THR0FZ95PF7SK0MYRNAOUHTWDJOLG","","null","<img src=""img/land5.png"" style=""width:200px; border:14px solid green;"">","null","","","","","","","","","",""
"","image-keyboard-response","78","46873","0.0-78.0","336YQZE83W07CCAJKQXS4KSFN9T5MG","A3NOYN845TEJIH","3THR0FZ95PF7SK0MYRNAOUHTWDJOLG","","623","img/land1.png","76","624.1999999880791","3","0","1","1","0.8,0.2,0.2,0.2,0.8,0.2,0.2,0.2,0.8","0.8,0.2,0.2,0.2,0.8,0.2,0.2,0.2,0.8","1","",""
"","html-keyboard-response","79","47175","0.0-79.0","336YQZE83W07CCAJKQXS4KSFN9T5MG","A3NOYN845TEJIH","3THR0FZ95PF7SK0MYRNAOUHTWDJOLG","","null","<img src=""img/land1.png"" style=""width:200px;border:14px solid red;"">","null","","","","","","","","","",""
"","image-keyboard-response","80","47624","0.0-80.0","336YQZE83W07CCAJKQXS4KSFN9T5MG","A3NOYN845TEJIH","3THR0FZ95PF7SK0MYRNAOUHTWDJOLG","","447.80000001192093","img/land1.png","76","448.69999998807907","3","0","1","1","0.8,0.2,0.2,0.2,0.8,0.2,0.2,0.2,0.8","0.8,0.2,0.2,0.2,0.8,0.2,0.2,0.2,0.8","1","",""
"","html-keyboard-response","81","47926","0.0-81.0","336YQZE83W07CCAJKQXS4KSFN9T5MG","A3NOYN845TEJIH","3THR0FZ95PF7SK0MYRNAOUHTWDJOLG","","null","<img src=""img/land1.png"" style=""width:200px;border:14px solid red;"">","null","","","","","","","","","",""
"","image-keyboard-response","82","48619","0.0-82.0","336YQZE83W07CCAJKQXS4KSFN9T5MG","A3NOYN845TEJIH","3THR0FZ95PF7SK0MYRNAOUHTWDJOLG","","692.4000000059605","img/land4.png","76","693.1999999880791","3","1","3","1","0.8,0.2,0.2,0.2,0.8,0.2,0.2,0.2,0.8","0.8,0.2,0.2,0.2,0.8,0.2,0.2,0.2,0.8","1","",""
"","html-keyboard-response","83","48922","0.0-83.0","336YQZE83W07CCAJKQXS4KSFN9T5MG","A3NOYN845TEJIH","3THR0FZ95PF7SK0MYRNAOUHTWDJOLG","","null","<img src=""img/land4.png"" style=""width:200px; border:14px solid green;"">","null","","","","","","","","","",""
"","image-keyboard-response","84","49313","0.0-84.0","336YQZE83W07CCAJKQXS4KSFN9T5MG","A3NOYN845TEJIH","3THR0FZ95PF7SK0MYRNAOUHTWDJOLG","","389.30000001192093","img/land1.png","75","390.5","2","0","1","1","0.8,0.2,0.2,0.2,0.8,0.2,0.2,0.2,0.8","0.8,0.2,0.2,0.2,0.8,0.2,0.2,0.2,0.8","1","",""
"","html-keyboard-response","85","49615","0.0-85.0","336YQZE83W07CCAJKQXS4KSFN9T5MG","A3NOYN845TEJIH","3THR0FZ95PF7SK0MYRNAOUHTWDJOLG","","null","<img src=""img/land1.png"" style=""width:200px;border:14px solid red;"">","null","","","","","","","","","",""
"","image-keyboard-response","86","49879","0.0-86.0","336YQZE83W07CCAJKQXS4KSFN9T5MG","A3NOYN845TEJIH","3THR0FZ95PF7SK0MYRNAOUHTWDJOLG","","262.09999999403954","img/land4.png","74","263.5","1","0","3","1","0.8,0.2,0.2,0.2,0.8,0.2,0.2,0.2,0.8","0.8,0.2,0.2,0.2,0.8,0.2,0.2,0.2,0.8","1","",""
"","html-keyboard-response","87","50188","0.0-87.0","336YQZE83W07CCAJKQXS4KSFN9T5MG","A3NOYN845TEJIH","3THR0FZ95PF7SK0MYRNAOUHTWDJOLG","","null","<img src=""img/land4.png"" style=""width:200px;border:14px solid red;"">","null","","","","","","","","","",""
"","image-keyboard-response","88","50636","0.0-88.0","336YQZE83W07CCAJKQXS4KSFN9T5MG","A3NOYN845TEJIH","3THR0FZ95PF7SK0MYRNAOUHTWDJOLG","","447.30000001192093","img/land4.png","76","448.30000001192093","3","1","3","1","0.8,0.2,0.2,0.2,0.8,0.2,0.2,0.2,0.8","0.8,0.2,0.2,0.2,0.8,0.2,0.2,0.2,0.8","1","",""
"","html-keyboard-response","89","50941","0.0-89.0","336YQZE83W07CCAJKQXS4KSFN9T5MG","A3NOYN845TEJIH","3THR0FZ95PF7SK0MYRNAOUHTWDJOLG","","null","<img src=""img/land4.png"" style=""width:200px; border:14px solid green;"">","null","","","","","","","","","",""
"","image-keyboard-response","90","51060","0.0-90.0","336YQZE83W07CCAJKQXS4KSFN9T5MG","A3NOYN845TEJIH","3THR0FZ95PF7SK0MYRNAOUHTWDJOLG","","117.7999999821186","img/land1.png","76","119","3","0","1","1","0.8,0.2,0.2,0.2,0.8,0.2,0.2,0.2,0.8","0.8,0.2,0.2,0.2,0.8,0.2,0.2,0.2,0.8","1","",""
"","html-keyboard-response","91","51371","0.0-91.0","336YQZE83W07CCAJKQXS4KSFN9T5MG","A3NOYN845TEJIH","3THR0FZ95PF7SK0MYRNAOUHTWDJOLG","","null","<img src=""img/land1.png"" style=""width:200px;border:14px solid red;"">","null","","","","","","","","","",""
"","image-keyboard-response","92","51776","0.0-92.0","336YQZE83W07CCAJKQXS4KSFN9T5MG","A3NOYN845TEJIH","3THR0FZ95PF7SK0MYRNAOUHTWDJOLG","","403.40000000596046","img/land1.png","74","404.40000000596046","1","1","1","1","0.8,0.2,0.2,0.2,0.8,0.2,0.2,0.2,0.8","0.8,0.2,0.2,0.2,0.8,0.2,0.2,0.2,0.8","1","",""
"","html-keyboard-response","93","52080","0.0-93.0","336YQZE83W07CCAJKQXS4KSFN9T5MG","A3NOYN845TEJIH","3THR0FZ95PF7SK0MYRNAOUHTWDJOLG","","null","<img src=""img/land1.png"" style=""width:200px; border:14px solid green;"">","null","","","","","","","","","",""
"","image-keyboard-response","94","52799","0.0-94.0","336YQZE83W07CCAJKQXS4KSFN9T5MG","A3NOYN845TEJIH","3THR0FZ95PF7SK0MYRNAOUHTWDJOLG","","716.7999999821186","img/land4.png","74","717.9000000059605","1","0","3","1","0.8,0.2,0.2,0.2,0.8,0.2,0.2,0.2,0.8","0.8,0.2,0.2,0.2,0.8,0.2,0.2,0.2,0.8","1","",""
"","html-keyboard-response","95","53107","0.0-95.0","336YQZE83W07CCAJKQXS4KSFN9T5MG","A3NOYN845TEJIH","3THR0FZ95PF7SK0MYRNAOUHTWDJOLG","","null","<img src=""img/land4.png"" style=""width:200px;border:14px solid red;"">","null","","","","","","","","","",""
"","image-keyboard-response","96","53536","0.0-96.0","336YQZE83W07CCAJKQXS4KSFN9T5MG","A3NOYN845TEJIH","3THR0FZ95PF7SK0MYRNAOUHTWDJOLG","","427.39999997615814","img/land5.png","76","428.69999998807907","3","0","2","1","0.8,0.2,0.2,0.2,0.8,0.2,0.2,0.2,0.8","0.8,0.2,0.2,0.2,0.8,0.2,0.2,0.2,0.8","1","",""
"","html-keyboard-response","97","53839","0.0-97.0","336YQZE83W07CCAJKQXS4KSFN9T5MG","A3NOYN845TEJIH","3THR0FZ95PF7SK0MYRNAOUHTWDJOLG","","null","<img src=""img/land5.png"" style=""width:200px;border:14px solid red;"">","null","","","","","","","","","",""
"","image-keyboard-response","98","55670","0.0-98.0","336YQZE83W07CCAJKQXS4KSFN9T5MG","A3NOYN845TEJIH","3THR0FZ95PF7SK0MYRNAOUHTWDJOLG","","1830.2000000178814","img/land1.png","74","1831.0999999940395","1","0","1","1","0.8,0.2,0.2,0.2,0.8,0.2,0.2,0.2,0.8","0.8,0.2,0.2,0.2,0.8,0.2,0.2,0.2,0.8","1","",""
"","html-keyboard-response","99","55972","0.0-99.0","336YQZE83W07CCAJKQXS4KSFN9T5MG","A3NOYN845TEJIH","3THR0FZ95PF7SK0MYRNAOUHTWDJOLG","","null","<img src=""img/land1.png"" style=""width:200px;border:14px solid red;"">","null","","","","","","","","","",""
"","image-keyboard-response","100","57668","0.0-100.0","336YQZE83W07CCAJKQXS4KSFN9T5MG","A3NOYN845TEJIH","3THR0FZ95PF7SK0MYRNAOUHTWDJOLG","","1693.8999999761581","img/land4.png","74","1695.199999988079","1","0","3","1","0.8,0.2,0.2,0.2,0.8,0.2,0.2,0.2,0.8","0.8,0.2,0.2,0.2,0.8,0.2,0.2,0.2,0.8","1","",""
"","html-keyboard-response","101","57971","0.0-101.0","336YQZE83W07CCAJKQXS4KSFN9T5MG","A3NOYN845TEJIH","3THR0FZ95PF7SK0MYRNAOUHTWDJOLG","","null","<img src=""img/land4.png"" style=""width:200px;border:14px solid red;"">","null","","","","","","","","","",""
"","image-keyboard-response","102","58124","0.0-102.0","336YQZE83W07CCAJKQXS4KSFN9T5MG","A3NOYN845TEJIH","3THR0FZ95PF7SK0MYRNAOUHTWDJOLG","","151.90000000596046","img/land4.png","76","153.09999999403954","3","1","3","1","0.8,0.2,0.2,0.2,0.8,0.2,0.2,0.2,0.8","0.8,0.2,0.2,0.2,0.8,0.2,0.2,0.2,0.8","1","",""
"","html-keyboard-response","103","58427","0.0-103.0","336YQZE83W07CCAJKQXS4KSFN9T5MG","A3NOYN845TEJIH","3THR0FZ95PF7SK0MYRNAOUHTWDJOLG","","null","<img src=""img/land4.png"" style=""width:200px; border:14px solid green;"">","null","","","","","","","","","",""
"","image-keyboard-response","104","58620","0.0-104.0","336YQZE83W07CCAJKQXS4KSFN9T5MG","A3NOYN845TEJIH","3THR0FZ95PF7SK0MYRNAOUHTWDJOLG","","192","img/land4.png","76","192.59999999403954","3","1","3","1","0.8,0.2,0.2,0.2,0.8,0.2,0.2,0.2,0.8","0.8,0.2,0.2,0.2,0.8,0.2,0.2,0.2,0.8","1","",""
"","html-keyboard-response","105","58923","0.0-105.0","336YQZE83W07CCAJKQXS4KSFN9T5MG","A3NOYN845TEJIH","3THR0FZ95PF7SK0MYRNAOUHTWDJOLG","","null","<img src=""img/land4.png"" style=""width:200px; border:14px solid green;"">","null","","","","","","","","","",""
"","image-keyboard-response","106","59157","0.0-106.0","336YQZE83W07CCAJKQXS4KSFN9T5MG","A3NOYN845TEJIH","3THR0FZ95PF7SK0MYRNAOUHTWDJOLG","","233.40000000596046","img/land1.png","76","234.30000001192093","3","0","1","1","0.8,0.2,0.2,0.2,0.8,0.2,0.2,0.2,0.8","0.8,0.2,0.2,0.2,0.8,0.2,0.2,0.2,0.8","1","",""
"","html-keyboard-response","107","59460","0.0-107.0","336YQZE83W07CCAJKQXS4KSFN9T5MG","A3NOYN845TEJIH","3THR0FZ95PF7SK0MYRNAOUHTWDJOLG","","null","<img src=""img/land1.png"" style=""width:200px;border:14px solid red;"">","null","","","","","","","","","",""
"","image-keyboard-response","108","60016","0.0-108.0","336YQZE83W07CCAJKQXS4KSFN9T5MG","A3NOYN845TEJIH","3THR0FZ95PF7SK0MYRNAOUHTWDJOLG","","554.8999999761581","img/land5.png","76","555.5999999940395","3","0","2","1","0.8,0.2,0.2,0.2,0.8,0.2,0.2,0.2,0.8","0.8,0.2,0.2,0.2,0.8,0.2,0.2,0.2,0.8","1","",""
"","html-keyboard-response","109","60321","0.0-109.0","336YQZE83W07CCAJKQXS4KSFN9T5MG","A3NOYN845TEJIH","3THR0FZ95PF7SK0MYRNAOUHTWDJOLG","","null","<img src=""img/land5.png"" style=""width:200px;border:14px solid red;"">","null","","","","","","","","","",""
"","image-keyboard-response","110","60390","0.0-110.0","336YQZE83W07CCAJKQXS4KSFN9T5MG","A3NOYN845TEJIH","3THR0FZ95PF7SK0MYRNAOUHTWDJOLG","","68.09999999403954","img/land1.png","75","68.80000001192093","2","0","1","1","0.8,0.2,0.2,0.2,0.8,0.2,0.2,0.2,0.8","0.8,0.2,0.2,0.2,0.8,0.2,0.2,0.2,0.8","1","",""
"","html-keyboard-response","111","60693","0.0-111.0","336YQZE83W07CCAJKQXS4KSFN9T5MG","A3NOYN845TEJIH","3THR0FZ95PF7SK0MYRNAOUHTWDJOLG","","null","<img src=""img/land1.png"" style=""width:200px;border:14px solid red;"">","null","","","","","","","","","",""
"","image-keyboard-response","112","61178","0.0-112.0","336YQZE83W07CCAJKQXS4KSFN9T5MG","A3NOYN845TEJIH","3THR0FZ95PF7SK0MYRNAOUHTWDJOLG","","483.69999998807907","img/land5.png","75","484.7999999821186","2","1","2","1","0.8,0.2,0.2,0.2,0.8,0.2,0.2,0.2,0.8","0.8,0.2,0.2,0.2,0.8,0.2,0.2,0.2,0.8","1","",""
"","html-keyboard-response","113","61481","0.0-113.0","336YQZE83W07CCAJKQXS4KSFN9T5MG","A3NOYN845TEJIH","3THR0FZ95PF7SK0MYRNAOUHTWDJOLG","","null","<img src=""img/land5.png"" style=""width:200px; border:14px solid green;"">","null","","","","","","","","","",""
"","image-keyboard-response","114","61758","0.0-114.0","336YQZE83W07CCAJKQXS4KSFN9T5MG","A3NOYN845TEJIH","3THR0FZ95PF7SK0MYRNAOUHTWDJOLG","","276.19999998807907","img/land4.png","75","276.90000000596046","2","0","3","1","0.8,0.2,0.2,0.2,0.8,0.2,0.2,0.2,0.8","0.8,0.2,0.2,0.2,0.8,0.2,0.2,0.2,0.8","1","",""
"","html-keyboard-response","115","62060","0.0-115.0","336YQZE83W07CCAJKQXS4KSFN9T5MG","A3NOYN845TEJIH","3THR0FZ95PF7SK0MYRNAOUHTWDJOLG","","null","<img src=""img/land4.png"" style=""width:200px;border:14px solid red;"">","null","","","","","","","","","",""
"","image-keyboard-response","116","62387","0.0-116.0","336YQZE83W07CCAJKQXS4KSFN9T5MG","A3NOYN845TEJIH","3THR0FZ95PF7SK0MYRNAOUHTWDJOLG","","326.7000000178814","img/land4.png","76","327.60000002384186","3","1","3","1","0.8,0.2,0.2,0.2,0.8,0.2,0.2,0.2,0.8","0.8,0.2,0.2,0.2,0.8,0.2,0.2,0.2,0.8","1","",""
"","html-keyboard-response","117","62696","0.0-117.0","336YQZE83W07CCAJKQXS4KSFN9T5MG","A3NOYN845TEJIH","3THR0FZ95PF7SK0MYRNAOUHTWDJOLG","","null","<img src=""img/land4.png"" style=""width:200px; border:14px solid green;"">","null","","","","","","","","","",""
"","image-keyboard-response","118","63059","0.0-118.0","336YQZE83W07CCAJKQXS4KSFN9T5MG","A3NOYN845TEJIH","3THR0FZ95PF7SK0MYRNAOUHTWDJOLG","","361.90000000596046","img/land1.png","76","362.39999997615814","3","0","1","1","0.8,0.2,0.2,0.2,0.8,0.2,0.2,0.2,0.8","0.8,0.2,0.2,0.2,0.8,0.2,0.2,0.2,0.8","1","",""
"","html-keyboard-response","119","63361","0.0-119.0","336YQZE83W07CCAJKQXS4KSFN9T5MG","A3NOYN845TEJIH","3THR0FZ95PF7SK0MYRNAOUHTWDJOLG","","null","<img src=""img/land1.png"" style=""width:200px;border:14px solid red;"">","null","","","","","","","","","",""
"","image-keyboard-response","120","64194","0.0-120.0","336YQZE83W07CCAJKQXS4KSFN9T5MG","A3NOYN845TEJIH","3THR0FZ95PF7SK0MYRNAOUHTWDJOLG","","830.7999999821186","img/land4.png","74","832","1","0","3","1","0.8,0.2,0.2,0.2,0.8,0.2,0.2,0.2,0.8","0.8,0.2,0.2,0.2,0.8,0.2,0.2,0.2,0.8","1","",""
"","html-keyboard-response","121","64496","0.0-121.0","336YQZE83W07CCAJKQXS4KSFN9T5MG","A3NOYN845TEJIH","3THR0FZ95PF7SK0MYRNAOUHTWDJOLG","","null","<img src=""img/land4.png"" style=""width:200px;border:14px solid red;"">","null","","","","","","","","","",""
"","image-keyboard-response","122","64679","0.0-122.0","336YQZE83W07CCAJKQXS4KSFN9T5MG","A3NOYN845TEJIH","3THR0FZ95PF7SK0MYRNAOUHTWDJOLG","","181.59999999403954","img/land5.png","74","182.80000001192093","1","0","2","1","0.8,0.2,0.2,0.2,0.8,0.2,0.2,0.2,0.8","0.8,0.2,0.2,0.2,0.8,0.2,0.2,0.2,0.8","1","",""
"","html-keyboard-response","123","64982","0.0-123.0","336YQZE83W07CCAJKQXS4KSFN9T5MG","A3NOYN845TEJIH","3THR0FZ95PF7SK0MYRNAOUHTWDJOLG","","null","<img src=""img/land5.png"" style=""width:200px;border:14px solid red;"">","null","","","","","","","","","",""
"","image-keyboard-response","124","65288","0.0-124.0","336YQZE83W07CCAJKQXS4KSFN9T5MG","A3NOYN845TEJIH","3THR0FZ95PF7SK0MYRNAOUHTWDJOLG","","305.30000001192093","img/land4.png","74","306","1","0","3","1","0.8,0.2,0.2,0.2,0.8,0.2,0.2,0.2,0.8","0.8,0.2,0.2,0.2,0.8,0.2,0.2,0.2,0.8","1","",""
"","html-keyboard-response","125","65591","0.0-125.0","336YQZE83W07CCAJKQXS4KSFN9T5MG","A3NOYN845TEJIH","3THR0FZ95PF7SK0MYRNAOUHTWDJOLG","","null","<img src=""img/land4.png"" style=""width:200px;border:14px solid red;"">","null","","","","","","","","","",""
"","image-keyboard-response","126","66073","0.0-126.0","336YQZE83W07CCAJKQXS4KSFN9T5MG","A3NOYN845TEJIH","3THR0FZ95PF7SK0MYRNAOUHTWDJOLG","","480.40000000596046","img/land4.png","74","481.5","1","0","3","1","0.8,0.2,0.2,0.2,0.8,0.2,0.2,0.2,0.8","0.8,0.2,0.2,0.2,0.8,0.2,0.2,0.2,0.8","1","",""
"","html-keyboard-response","127","66376","0.0-127.0","336YQZE83W07CCAJKQXS4KSFN9T5MG","A3NOYN845TEJIH","3THR0FZ95PF7SK0MYRNAOUHTWDJOLG","","null","<img src=""img/land4.png"" style=""width:200px;border:14px solid red;"">","null","","","","","","","","","",""
"","image-keyboard-response","128","66640","0.0-128.0","336YQZE83W07CCAJKQXS4KSFN9T5MG","A3NOYN845TEJIH","3THR0FZ95PF7SK0MYRNAOUHTWDJOLG","","263.09999999403954","img/land1.png","75","264.19999998807907","2","0","1","1","0.8,0.2,0.2,0.2,0.8,0.2,0.2,0.2,0.8","0.8,0.2,0.2,0.2,0.8,0.2,0.2,0.2,0.8","1","",""
"","html-keyboard-response","129","66942","0.0-129.0","336YQZE83W07CCAJKQXS4KSFN9T5MG","A3NOYN845TEJIH","3THR0FZ95PF7SK0MYRNAOUHTWDJOLG","","null","<img src=""img/land1.png"" style=""width:200px;border:14px solid red;"">","null","","","","","","","","","",""
"","image-keyboard-response","130","67226","0.0-130.0","336YQZE83W07CCAJKQXS4KSFN9T5MG","A3NOYN845TEJIH","3THR0FZ95PF7SK0MYRNAOUHTWDJOLG","","282.60000002384186","img/land4.png","75","283.59999999403954","2","0","3","1","0.8,0.2,0.2,0.2,0.8,0.2,0.2,0.2,0.8","0.8,0.2,0.2,0.2,0.8,0.2,0.2,0.2,0.8","1","",""
"","html-keyboard-response","131","67541","0.0-131.0","336YQZE83W07CCAJKQXS4KSFN9T5MG","A3NOYN845TEJIH","3THR0FZ95PF7SK0MYRNAOUHTWDJOLG","","null","<img src=""img/land4.png"" style=""width:200px;border:14px solid red;"">","null","","","","","","","","","",""
"","image-keyboard-response","132","67780","0.0-132.0","336YQZE83W07CCAJKQXS4KSFN9T5MG","A3NOYN845TEJIH","3THR0FZ95PF7SK0MYRNAOUHTWDJOLG","","237","img/land5.png","76","238.19999998807907","3","0","2","1","0.8,0.2,0.2,0.2,0.8,0.2,0.2,0.2,0.8","0.8,0.2,0.2,0.2,0.8,0.2,0.2,0.2,0.8","1","",""
"","html-keyboard-response","133","68083","0.0-133.0","336YQZE83W07CCAJKQXS4KSFN9T5MG","A3NOYN845TEJIH","3THR0FZ95PF7SK0MYRNAOUHTWDJOLG","","null","<img src=""img/land5.png"" style=""width:200px;border:14px solid red;"">","null","","","","","","","","","",""
"","image-keyboard-response","134","68372","0.0-134.0","336YQZE83W07CCAJKQXS4KSFN9T5MG","A3NOYN845TEJIH","3THR0FZ95PF7SK0MYRNAOUHTWDJOLG","","287.7000000178814","img/land5.png","76","288.90000000596046","3","0","2","1","0.8,0.2,0.2,0.2,0.8,0.2,0.2,0.2,0.8","0.8,0.2,0.2,0.2,0.8,0.2,0.2,0.2,0.8","1","",""
"","html-keyboard-response","135","68674","0.0-135.0","336YQZE83W07CCAJKQXS4KSFN9T5MG","A3NOYN845TEJIH","3THR0FZ95PF7SK0MYRNAOUHTWDJOLG","","null","<img src=""img/land5.png"" style=""width:200px;border:14px solid red;"">","null","","","","","","","","","",""
"","image-keyboard-response","136","68741","0.0-136.0","336YQZE83W07CCAJKQXS4KSFN9T5MG","A3NOYN845TEJIH","3THR0FZ95PF7SK0MYRNAOUHTWDJOLG","","65.5","img/land4.png","75","66.40000000596046","2","0","3","1","0.8,0.2,0.2,0.2,0.8,0.2,0.2,0.2,0.8","0.8,0.2,0.2,0.2,0.8,0.2,0.2,0.2,0.8","1","",""
"","html-keyboard-response","137","69043","0.0-137.0","336YQZE83W07CCAJKQXS4KSFN9T5MG","A3NOYN845TEJIH","3THR0FZ95PF7SK0MYRNAOUHTWDJOLG","","null","<img src=""img/land4.png"" style=""width:200px;border:14px solid red;"">","null","","","","","","","","","",""
"","image-keyboard-response","138","69471","0.0-138.0","336YQZE83W07CCAJKQXS4KSFN9T5MG","A3NOYN845TEJIH","3THR0FZ95PF7SK0MYRNAOUHTWDJOLG","","426.30000001192093","img/land5.png","75","427.5","2","1","2","1","0.8,0.2,0.2,0.2,0.8,0.2,0.2,0.2,0.8","0.8,0.2,0.2,0.2,0.8,0.2,0.2,0.2,0.8","1","",""
"","html-keyboard-response","139","69773","0.0-139.0","336YQZE83W07CCAJKQXS4KSFN9T5MG","A3NOYN845TEJIH","3THR0FZ95PF7SK0MYRNAOUHTWDJOLG","","null","<img src=""img/land5.png"" style=""width:200px; border:14px solid green;"">","null","","","","","","","","","",""
"","image-keyboard-response","140","69961","0.0-140.0","336YQZE83W07CCAJKQXS4KSFN9T5MG","A3NOYN845TEJIH","3THR0FZ95PF7SK0MYRNAOUHTWDJOLG","","187.39999997615814","img/land5.png","75","187.90000000596046","2","1","2","1","0.8,0.2,0.2,0.2,0.8,0.2,0.2,0.2,0.8","0.8,0.2,0.2,0.2,0.8,0.2,0.2,0.2,0.8","1","",""
"","html-keyboard-response","141","70263","0.0-141.0","336YQZE83W07CCAJKQXS4KSFN9T5MG","A3NOYN845TEJIH","3THR0FZ95PF7SK0MYRNAOUHTWDJOLG","","null","<img src=""img/land5.png"" style=""width:200px; border:14px solid green;"">","null","","","","","","","","","",""
"","image-keyboard-response","142","70372","0.0-142.0","336YQZE83W07CCAJKQXS4KSFN9T5MG","A3NOYN845TEJIH","3THR0FZ95PF7SK0MYRNAOUHTWDJOLG","","108.30000001192093","img/land1.png","75","108.89999997615814","2","1","1","1","0.8,0.2,0.2,0.2,0.8,0.2,0.2,0.2,0.8","0.8,0.2,0.2,0.2,0.8,0.2,0.2,0.2,0.8","1","",""
"","html-keyboard-response","143","70674","0.0-143.0","336YQZE83W07CCAJKQXS4KSFN9T5MG","A3NOYN845TEJIH","3THR0FZ95PF7SK0MYRNAOUHTWDJOLG","","null","<img src=""img/land1.png"" style=""width:200px; border:14px solid green;"">","null","","","","","","","","","",""
"","image-keyboard-response","144","70876","0.0-144.0","336YQZE83W07CCAJKQXS4KSFN9T5MG","A3NOYN845TEJIH","3THR0FZ95PF7SK0MYRNAOUHTWDJOLG","","200.5","img/land5.png","75","201.7000000178814","2","0","2","1","0.8,0.2,0.2,0.2,0.8,0.2,0.2,0.2,0.8","0.8,0.2,0.2,0.2,0.8,0.2,0.2,0.2,0.8","1","",""
"","html-keyboard-response","145","71179","0.0-145.0","336YQZE83W07CCAJKQXS4KSFN9T5MG","A3NOYN845TEJIH","3THR0FZ95PF7SK0MYRNAOUHTWDJOLG","","null","<img src=""img/land5.png"" style=""width:200px;border:14px solid red;"">","null","","","","","","","","","",""
"","image-keyboard-response","146","71829","0.0-146.0","336YQZE83W07CCAJKQXS4KSFN9T5MG","A3NOYN845TEJIH","3THR0FZ95PF7SK0MYRNAOUHTWDJOLG","","649.5","img/land1.png","76","650.4000000059605","3","0","1","1","0.8,0.2,0.2,0.2,0.8,0.2,0.2,0.2,0.8","0.8,0.2,0.2,0.2,0.8,0.2,0.2,0.2,0.8","1","",""
"","html-keyboard-response","147","72131","0.0-147.0","336YQZE83W07CCAJKQXS4KSFN9T5MG","A3NOYN845TEJIH","3THR0FZ95PF7SK0MYRNAOUHTWDJOLG","","null","<img src=""img/land1.png"" style=""width:200px;border:14px solid red;"">","null","","","","","","","","","",""
"","image-keyboard-response","148","72578","0.0-148.0","336YQZE83W07CCAJKQXS4KSFN9T5MG","A3NOYN845TEJIH","3THR0FZ95PF7SK0MYRNAOUHTWDJOLG","","445","img/land1.png","76","446.30000001192093","3","0","1","1","0.8,0.2,0.2,0.2,0.8,0.2,0.2,0.2,0.8","0.8,0.2,0.2,0.2,0.8,0.2,0.2,0.2,0.8","1","",""
"","html-keyboard-response","149","72880","0.0-149.0","336YQZE83W07CCAJKQXS4KSFN9T5MG","A3NOYN845TEJIH","3THR0FZ95PF7SK0MYRNAOUHTWDJOLG","","null","<img src=""img/land1.png"" style=""width:200px;border:14px solid red;"">","null","","","","","","","","","",""
"","image-keyboard-response","150","73214","0.0-150.0","336YQZE83W07CCAJKQXS4KSFN9T5MG","A3NOYN845TEJIH","3THR0FZ95PF7SK0MYRNAOUHTWDJOLG","","333.69999998807907","img/land4.png","76","334.5","3","1","3","1","0.8,0.2,0.2,0.2,0.8,0.2,0.2,0.2,0.8","0.8,0.2,0.2,0.2,0.8,0.2,0.2,0.2,0.8","1","",""
"","html-keyboard-response","151","73517","0.0-151.0","336YQZE83W07CCAJKQXS4KSFN9T5MG","A3NOYN845TEJIH","3THR0FZ95PF7SK0MYRNAOUHTWDJOLG","","null","<img src=""img/land4.png"" style=""width:200px; border:14px solid green;"">","null","","","","","","","","","",""
"","image-keyboard-response","152","73666","0.0-152.0","336YQZE83W07CCAJKQXS4KSFN9T5MG","A3NOYN845TEJIH","3THR0FZ95PF7SK0MYRNAOUHTWDJOLG","","147.40000000596046","img/land1.png","76","148.59999999403954","3","1","1","1","0.8,0.2,0.2,0.2,0.8,0.2,0.2,0.2,0.8","0.8,0.2,0.2,0.2,0.8,0.2,0.2,0.2,0.8","1","",""
"","html-keyboard-response","153","73969","0.0-153.0","336YQZE83W07CCAJKQXS4KSFN9T5MG","A3NOYN845TEJIH","3THR0FZ95PF7SK0MYRNAOUHTWDJOLG","","null","<img src=""img/land1.png"" style=""width:200px; border:14px solid green;"">","null","","","","","","","","","",""
"","image-keyboard-response","154","74135","0.0-154.0","336YQZE83W07CCAJKQXS4KSFN9T5MG","A3NOYN845TEJIH","3THR0FZ95PF7SK0MYRNAOUHTWDJOLG","","164.19999998807907","img/land5.png","76","165.30000001192093","3","0","2","1","0.8,0.2,0.2,0.2,0.8,0.2,0.2,0.2,0.8","0.8,0.2,0.2,0.2,0.8,0.2,0.2,0.2,0.8","1","",""
"","html-keyboard-response","155","74443","0.0-155.0","336YQZE83W07CCAJKQXS4KSFN9T5MG","A3NOYN845TEJIH","3THR0FZ95PF7SK0MYRNAOUHTWDJOLG","","null","<img src=""img/land5.png"" style=""width:200px;border:14px solid red;"">","null","","","","","","","","","",""
"","image-keyboard-response","156","74728","0.0-156.0","336YQZE83W07CCAJKQXS4KSFN9T5MG","A3NOYN845TEJIH","3THR0FZ95PF7SK0MYRNAOUHTWDJOLG","","284.09999999403954","img/land1.png","75","284.80000001192093","2","0","1","1","0.8,0.2,0.2,0.2,0.8,0.2,0.2,0.2,0.8","0.8,0.2,0.2,0.2,0.8,0.2,0.2,0.2,0.8","1","",""
"","html-keyboard-response","157","75031","0.0-157.0","336YQZE83W07CCAJKQXS4KSFN9T5MG","A3NOYN845TEJIH","3THR0FZ95PF7SK0MYRNAOUHTWDJOLG","","null","<img src=""img/land1.png"" style=""width:200px;border:14px solid red;"">","null","","","","","","","","","",""
"","image-keyboard-response","158","75377","0.0-158.0","336YQZE83W07CCAJKQXS4KSFN9T5MG","A3NOYN845TEJIH","3THR0FZ95PF7SK0MYRNAOUHTWDJOLG","","344.5","img/land4.png","74","345.60000002384186","1","0","3","1","0.8,0.2,0.2,0.2,0.8,0.2,0.2,0.2,0.8","0.8,0.2,0.2,0.2,0.8,0.2,0.2,0.2,0.8","1","",""
"","html-keyboard-response","159","75679","0.0-159.0","336YQZE83W07CCAJKQXS4KSFN9T5MG","A3NOYN845TEJIH","3THR0FZ95PF7SK0MYRNAOUHTWDJOLG","","null","<img src=""img/land4.png"" style=""width:200px;border:14px solid red;"">","null","","","","","","","","","",""
"","image-keyboard-response","160","75929","0.0-160.0","336YQZE83W07CCAJKQXS4KSFN9T5MG","A3NOYN845TEJIH","3THR0FZ95PF7SK0MYRNAOUHTWDJOLG","","248.80000001192093","img/land1.png","74","250","1","1","1","1","0.8,0.2,0.2,0.2,0.8,0.2,0.2,0.2,0.8","0.8,0.2,0.2,0.2,0.8,0.2,0.2,0.2,0.8","1","",""
"","html-keyboard-response","161","76233","0.0-161.0","336YQZE83W07CCAJKQXS4KSFN9T5MG","A3NOYN845TEJIH","3THR0FZ95PF7SK0MYRNAOUHTWDJOLG","","null","<img src=""img/land1.png"" style=""width:200px; border:14px solid green;"">","null","","","","","","","","","",""
"","image-keyboard-response","162","76644","0.0-162.0","336YQZE83W07CCAJKQXS4KSFN9T5MG","A3NOYN845TEJIH","3THR0FZ95PF7SK0MYRNAOUHTWDJOLG","","410.19999998807907","img/land1.png","74","411.40000000596046","1","0","1","1","0.8,0.2,0.2,0.2,0.8,0.2,0.2,0.2,0.8","0.8,0.2,0.2,0.2,0.8,0.2,0.2,0.2,0.8","1","",""
"","html-keyboard-response","163","76946","0.0-163.0","336YQZE83W07CCAJKQXS4KSFN9T5MG","A3NOYN845TEJIH","3THR0FZ95PF7SK0MYRNAOUHTWDJOLG","","null","<img src=""img/land1.png"" style=""width:200px;border:14px solid red;"">","null","","","","","","","","","",""
"","image-keyboard-response","164","77833","0.0-164.0","336YQZE83W07CCAJKQXS4KSFN9T5MG","A3NOYN845TEJIH","3THR0FZ95PF7SK0MYRNAOUHTWDJOLG","","885.5","img/land5.png","74","886.6999999880791","1","0","2","1","0.8,0.2,0.2,0.2,0.8,0.2,0.2,0.2,0.8","0.8,0.2,0.2,0.2,0.8,0.2,0.2,0.2,0.8","1","",""
"","html-keyboard-response","165","78137","0.0-165.0","336YQZE83W07CCAJKQXS4KSFN9T5MG","A3NOYN845TEJIH","3THR0FZ95PF7SK0MYRNAOUHTWDJOLG","","null","<img src=""img/land5.png"" style=""width:200px;border:14px solid red;"">","null","","","","","","","","","",""
"","image-keyboard-response","166","78562","0.0-166.0","336YQZE83W07CCAJKQXS4KSFN9T5MG","A3NOYN845TEJIH","3THR0FZ95PF7SK0MYRNAOUHTWDJOLG","","423.90000000596046","img/land4.png","74","425","1","1","3","1","0.8,0.2,0.2,0.2,0.8,0.2,0.2,0.2,0.8","0.8,0.2,0.2,0.2,0.8,0.2,0.2,0.2,0.8","1","",""
"","html-keyboard-response","167","78864","0.0-167.0","336YQZE83W07CCAJKQXS4KSFN9T5MG","A3NOYN845TEJIH","3THR0FZ95PF7SK0MYRNAOUHTWDJOLG","","null","<img src=""img/land4.png"" style=""width:200px; border:14px solid green;"">","null","","","","","","","","","",""
"","image-keyboard-response","168","79268","0.0-168.0","336YQZE83W07CCAJKQXS4KSFN9T5MG","A3NOYN845TEJIH","3THR0FZ95PF7SK0MYRNAOUHTWDJOLG","","403","img/land5.png","74","404.19999998807907","1","0","2","1","0.8,0.2,0.2,0.2,0.8,0.2,0.2,0.2,0.8","0.8,0.2,0.2,0.2,0.8,0.2,0.2,0.2,0.8","1","",""
"","html-keyboard-response","169","79570","0.0-169.0","336YQZE83W07CCAJKQXS4KSFN9T5MG","A3NOYN845TEJIH","3THR0FZ95PF7SK0MYRNAOUHTWDJOLG","","null","<img src=""img/land5.png"" style=""width:200px;border:14px solid red;"">","null","","","","","","","","","",""
"","image-keyboard-response","170","79986","0.0-170.0","336YQZE83W07CCAJKQXS4KSFN9T5MG","A3NOYN845TEJIH","3THR0FZ95PF7SK0MYRNAOUHTWDJOLG","","414.2000000178814","img/land5.png","76","415.19999998807907","3","0","2","1","0.8,0.2,0.2,0.2,0.8,0.2,0.2,0.2,0.8","0.8,0.2,0.2,0.2,0.8,0.2,0.2,0.2,0.8","1","",""
"","html-keyboard-response","171","80290","0.0-171.0","336YQZE83W07CCAJKQXS4KSFN9T5MG","A3NOYN845TEJIH","3THR0FZ95PF7SK0MYRNAOUHTWDJOLG","","null","<img src=""img/land5.png"" style=""width:200px;border:14px solid red;"">","null","","","","","","","","","",""
"","image-keyboard-response","172","80325","0.0-172.0","336YQZE83W07CCAJKQXS4KSFN9T5MG","A3NOYN845TEJIH","3THR0FZ95PF7SK0MYRNAOUHTWDJOLG","","33.20000001788139","img/land1.png","75","34.5","2","0","1","1","0.8,0.2,0.2,0.2,0.8,0.2,0.2,0.2,0.8","0.8,0.2,0.2,0.2,0.8,0.2,0.2,0.2,0.8","1","",""
"","html-keyboard-response","173","80627","0.0-173.0","336YQZE83W07CCAJKQXS4KSFN9T5MG","A3NOYN845TEJIH","3THR0FZ95PF7SK0MYRNAOUHTWDJOLG","","null","<img src=""img/land1.png"" style=""width:200px;border:14px solid red;"">","null","","","","","","","","","",""
"","image-keyboard-response","174","80991","0.0-174.0","336YQZE83W07CCAJKQXS4KSFN9T5MG","A3NOYN845TEJIH","3THR0FZ95PF7SK0MYRNAOUHTWDJOLG","","364.09999999403954","img/land1.png","75","364.90000000596046","2","0","1","1","0.8,0.2,0.2,0.2,0.8,0.2,0.2,0.2,0.8","0.8,0.2,0.2,0.2,0.8,0.2,0.2,0.2,0.8","1","",""
"","html-keyboard-response","175","81294","0.0-175.0","336YQZE83W07CCAJKQXS4KSFN9T5MG","A3NOYN845TEJIH","3THR0FZ95PF7SK0MYRNAOUHTWDJOLG","","null","<img src=""img/land1.png"" style=""width:200px;border:14px solid red;"">","null","","","","","","","","","",""
"","image-keyboard-response","176","81768","0.0-176.0","336YQZE83W07CCAJKQXS4KSFN9T5MG","A3NOYN845TEJIH","3THR0FZ95PF7SK0MYRNAOUHTWDJOLG","","473.2000000178814","img/land1.png","76","474.39999997615814","3","0","1","1","0.8,0.2,0.2,0.2,0.8,0.2,0.2,0.2,0.8","0.8,0.2,0.2,0.2,0.8,0.2,0.2,0.2,0.8","1","",""
"","html-keyboard-response","177","82070","0.0-177.0","336YQZE83W07CCAJKQXS4KSFN9T5MG","A3NOYN845TEJIH","3THR0FZ95PF7SK0MYRNAOUHTWDJOLG","","null","<img src=""img/land1.png"" style=""width:200px;border:14px solid red;"">","null","","","","","","","","","",""
"","image-keyboard-response","178","82802","0.0-178.0","336YQZE83W07CCAJKQXS4KSFN9T5MG","A3NOYN845TEJIH","3THR0FZ95PF7SK0MYRNAOUHTWDJOLG","","729.9000000059605","img/land4.png","75","731","2","0","3","1","0.8,0.2,0.2,0.2,0.8,0.2,0.2,0.2,0.8","0.8,0.2,0.2,0.2,0.8,0.2,0.2,0.2,0.8","1","",""
"","html-keyboard-response","179","83103","0.0-179.0","336YQZE83W07CCAJKQXS4KSFN9T5MG","A3NOYN845TEJIH","3THR0FZ95PF7SK0MYRNAOUHTWDJOLG","","null","<img src=""img/land4.png"" style=""width:200px;border:14px solid red;"">","null","","","","","","","","","",""
"","image-keyboard-response","180","83511","0.0-180.0","336YQZE83W07CCAJKQXS4KSFN9T5MG","A3NOYN845TEJIH","3THR0FZ95PF7SK0MYRNAOUHTWDJOLG","","406","img/land5.png","75","407.19999998807907","2","1","2","1","0.8,0.2,0.2,0.2,0.8,0.2,0.2,0.2,0.8","0.8,0.2,0.2,0.2,0.8,0.2,0.2,0.2,0.8","1","",""
"","html-keyboard-response","181","83813","0.0-181.0","336YQZE83W07CCAJKQXS4KSFN9T5MG","A3NOYN845TEJIH","3THR0FZ95PF7SK0MYRNAOUHTWDJOLG","","null","<img src=""img/land5.png"" style=""width:200px; border:14px solid green;"">","null","","","","","","","","","",""
"","html-keyboard-response","182","87641","0.0-182.0","336YQZE83W07CCAJKQXS4KSFN9T5MG","A3NOYN845TEJIH","3THR0FZ95PF7SK0MYRNAOUHTWDJOLG","","","","","","","","","","","","","",""
"","image-keyboard-response","183","89064","0.0-183.0","336YQZE83W07CCAJKQXS4KSFN9T5MG","A3NOYN845TEJIH","3THR0FZ95PF7SK0MYRNAOUHTWDJOLG","","1422.1000000238419","img/land2.png","76","1423.300000011921","3","1","1","2","0.8,0.2,0.2,0.2,0.8,0.2,0.2,0.2,0.8","0.2,0.2,0.8,0.8,0.2,0.2,0.2,0.8,0.2","2","",""
"","html-keyboard-response","184","89366","0.0-184.0","336YQZE83W07CCAJKQXS4KSFN9T5MG","A3NOYN845TEJIH","3THR0FZ95PF7SK0MYRNAOUHTWDJOLG","","null","<img src=""img/land2.png"" style=""width:200px; border:14px solid green;"">","null","","","","","","","","","",""
"","image-keyboard-response","185","89572","0.0-185.0","336YQZE83W07CCAJKQXS4KSFN9T5MG","A3NOYN845TEJIH","3THR0FZ95PF7SK0MYRNAOUHTWDJOLG","","205","img/land2.png","75","205.7999999821186","2","1","1","2","0.8,0.2,0.2,0.2,0.8,0.2,0.2,0.2,0.8","0.2,0.2,0.8,0.8,0.2,0.2,0.2,0.8,0.2","2","",""
"","html-keyboard-response","186","89873","0.0-186.0","336YQZE83W07CCAJKQXS4KSFN9T5MG","A3NOYN845TEJIH","3THR0FZ95PF7SK0MYRNAOUHTWDJOLG","","null","<img src=""img/land2.png"" style=""width:200px; border:14px solid green;"">","null","","","","","","","","","",""
"","image-keyboard-response","187","90138","0.0-187.0","336YQZE83W07CCAJKQXS4KSFN9T5MG","A3NOYN845TEJIH","3THR0FZ95PF7SK0MYRNAOUHTWDJOLG","","263.40000000596046","img/land6.png","75","264","2","0","3","2","0.8,0.2,0.2,0.2,0.8,0.2,0.2,0.2,0.8","0.2,0.2,0.8,0.8,0.2,0.2,0.2,0.8,0.2","2","",""
"","html-keyboard-response","188","90440","0.0-188.0","336YQZE83W07CCAJKQXS4KSFN9T5MG","A3NOYN845TEJIH","3THR0FZ95PF7SK0MYRNAOUHTWDJOLG","","null","<img src=""img/land6.png"" style=""width:200px;border:14px solid red;"">","null","","","","","","","","","",""
"","image-keyboard-response","189","90497","0.0-189.0","336YQZE83W07CCAJKQXS4KSFN9T5MG","A3NOYN845TEJIH","3THR0FZ95PF7SK0MYRNAOUHTWDJOLG","","55.599999994039536","img/land6.png","74","55.89999997615814","1","0","3","2","0.8,0.2,0.2,0.2,0.8,0.2,0.2,0.2,0.8","0.2,0.2,0.8,0.8,0.2,0.2,0.2,0.8,0.2","2","",""
"","html-keyboard-response","190","90798","0.0-190.0","336YQZE83W07CCAJKQXS4KSFN9T5MG","A3NOYN845TEJIH","3THR0FZ95PF7SK0MYRNAOUHTWDJOLG","","null","<img src=""img/land6.png"" style=""width:200px;border:14px solid red;"">","null","","","","","","","","","",""
"","image-keyboard-response","191","92503","0.0-191.0","336YQZE83W07CCAJKQXS4KSFN9T5MG","A3NOYN845TEJIH","3THR0FZ95PF7SK0MYRNAOUHTWDJOLG","","1703.5999999940395","img/land6.png","74","1704.5","1","0","3","2","0.8,0.2,0.2,0.2,0.8,0.2,0.2,0.2,0.8","0.2,0.2,0.8,0.8,0.2,0.2,0.2,0.8,0.2","2","",""
"","html-keyboard-response","192","92806","0.0-192.0","336YQZE83W07CCAJKQXS4KSFN9T5MG","A3NOYN845TEJIH","3THR0FZ95PF7SK0MYRNAOUHTWDJOLG","","null","<img src=""img/land6.png"" style=""width:200px;border:14px solid red;"">","null","","","","","","","","","",""
"","image-keyboard-response","193","93109","0.0-193.0","336YQZE83W07CCAJKQXS4KSFN9T5MG","A3NOYN845TEJIH","3THR0FZ95PF7SK0MYRNAOUHTWDJOLG","","302.89999997615814","img/land6.png","74","303.59999999403954","1","0","3","2","0.8,0.2,0.2,0.2,0.8,0.2,0.2,0.2,0.8","0.2,0.2,0.8,0.8,0.2,0.2,0.2,0.8,0.2","2","",""
"","html-keyboard-response","194","93411","0.0-194.0","336YQZE83W07CCAJKQXS4KSFN9T5MG","A3NOYN845TEJIH","3THR0FZ95PF7SK0MYRNAOUHTWDJOLG","","null","<img src=""img/land6.png"" style=""width:200px;border:14px solid red;"">","null","","","","","","","","","",""
"","image-keyboard-response","195","93978","0.0-195.0","336YQZE83W07CCAJKQXS4KSFN9T5MG","A3NOYN845TEJIH","3THR0FZ95PF7SK0MYRNAOUHTWDJOLG","","566","img/land6.png","75","567","2","1","3","2","0.8,0.2,0.2,0.2,0.8,0.2,0.2,0.2,0.8","0.2,0.2,0.8,0.8,0.2,0.2,0.2,0.8,0.2","2","",""
"","html-keyboard-response","196","94280","0.0-196.0","336YQZE83W07CCAJKQXS4KSFN9T5MG","A3NOYN845TEJIH","3THR0FZ95PF7SK0MYRNAOUHTWDJOLG","","null","<img src=""img/land6.png"" style=""width:200px; border:14px solid green;"">","null","","","","","","","","","",""
"","image-keyboard-response","197","94474","0.0-197.0","336YQZE83W07CCAJKQXS4KSFN9T5MG","A3NOYN845TEJIH","3THR0FZ95PF7SK0MYRNAOUHTWDJOLG","","192.90000000596046","img/land2.png","75","194.09999999403954","2","0","1","2","0.8,0.2,0.2,0.2,0.8,0.2,0.2,0.2,0.8","0.2,0.2,0.8,0.8,0.2,0.2,0.2,0.8,0.2","2","",""
"","html-keyboard-response","198","94778","0.0-198.0","336YQZE83W07CCAJKQXS4KSFN9T5MG","A3NOYN845TEJIH","3THR0FZ95PF7SK0MYRNAOUHTWDJOLG","","null","<img src=""img/land2.png"" style=""width:200px;border:14px solid red;"">","null","","","","","","","","","",""
"","image-keyboard-response","199","95076","0.0-199.0","336YQZE83W07CCAJKQXS4KSFN9T5MG","A3NOYN845TEJIH","3THR0FZ95PF7SK0MYRNAOUHTWDJOLG","","296.69999998807907","img/land6.png","76","297.90000000596046","3","0","3","2","0.8,0.2,0.2,0.2,0.8,0.2,0.2,0.2,0.8","0.2,0.2,0.8,0.8,0.2,0.2,0.2,0.8,0.2","2","",""
"","html-keyboard-response","200","95379","0.0-200.0","336YQZE83W07CCAJKQXS4KSFN9T5MG","A3NOYN845TEJIH","3THR0FZ95PF7SK0MYRNAOUHTWDJOLG","","null","<img src=""img/land6.png"" style=""width:200px;border:14px solid red;"">","null","","","","","","","","","",""
"","image-keyboard-response","201","95516","0.0-201.0","336YQZE83W07CCAJKQXS4KSFN9T5MG","A3NOYN845TEJIH","3THR0FZ95PF7SK0MYRNAOUHTWDJOLG","","135.2000000178814","img/land2.png","74","136.39999997615814","1","0","1","2","0.8,0.2,0.2,0.2,0.8,0.2,0.2,0.2,0.8","0.2,0.2,0.8,0.8,0.2,0.2,0.2,0.8,0.2","2","",""
"","html-keyboard-response","202","95818","0.0-202.0","336YQZE83W07CCAJKQXS4KSFN9T5MG","A3NOYN845TEJIH","3THR0FZ95PF7SK0MYRNAOUHTWDJOLG","","null","<img src=""img/land2.png"" style=""width:200px;border:14px solid red;"">","null","","","","","","","","","",""
"","image-keyboard-response","203","96050","0.0-203.0","336YQZE83W07CCAJKQXS4KSFN9T5MG","A3NOYN845TEJIH","3THR0FZ95PF7SK0MYRNAOUHTWDJOLG","","230.09999999403954","img/land6.png","75","231.40000000596046","2","1","3","2","0.8,0.2,0.2,0.2,0.8,0.2,0.2,0.2,0.8","0.2,0.2,0.8,0.8,0.2,0.2,0.2,0.8,0.2","2","",""
"","html-keyboard-response","204","96353","0.0-204.0","336YQZE83W07CCAJKQXS4KSFN9T5MG","A3NOYN845TEJIH","3THR0FZ95PF7SK0MYRNAOUHTWDJOLG","","null","<img src=""img/land6.png"" style=""width:200px; border:14px solid green;"">","null","","","","","","","","","",""
"","image-keyboard-response","205","96566","0.0-205.0","336YQZE83W07CCAJKQXS4KSFN9T5MG","A3NOYN845TEJIH","3THR0FZ95PF7SK0MYRNAOUHTWDJOLG","","210.90000000596046","img/land2.png","75","212.40000000596046","2","0","1","2","0.8,0.2,0.2,0.2,0.8,0.2,0.2,0.2,0.8","0.2,0.2,0.8,0.8,0.2,0.2,0.2,0.8,0.2","2","",""
"","html-keyboard-response","206","96868","0.0-206.0","336YQZE83W07CCAJKQXS4KSFN9T5MG","A3NOYN845TEJIH","3THR0FZ95PF7SK0MYRNAOUHTWDJOLG","","null","<img src=""img/land2.png"" style=""width:200px;border:14px solid red;"">","null","","","","","","","","","",""
"","image-keyboard-response","207","97194","0.0-207.0","336YQZE83W07CCAJKQXS4KSFN9T5MG","A3NOYN845TEJIH","3THR0FZ95PF7SK0MYRNAOUHTWDJOLG","","324.2999999821186","img/land6.png","76","325.5","3","0","3","2","0.8,0.2,0.2,0.2,0.8,0.2,0.2,0.2,0.8","0.2,0.2,0.8,0.8,0.2,0.2,0.2,0.8,0.2","2","",""
"","html-keyboard-response","208","97495","0.0-208.0","336YQZE83W07CCAJKQXS4KSFN9T5MG","A3NOYN845TEJIH","3THR0FZ95PF7SK0MYRNAOUHTWDJOLG","","null","<img src=""img/land6.png"" style=""width:200px;border:14px solid red;"">","null","","","","","","","","","",""
"","image-keyboard-response","209","97762","0.0-209.0","336YQZE83W07CCAJKQXS4KSFN9T5MG","A3NOYN845TEJIH","3THR0FZ95PF7SK0MYRNAOUHTWDJOLG","","265.5","img/land3.png","76","266.80000001192093","3","0","2","2","0.8,0.2,0.2,0.2,0.8,0.2,0.2,0.2,0.8","0.2,0.2,0.8,0.8,0.2,0.2,0.2,0.8,0.2","2","",""
"","html-keyboard-response","210","98065","0.0-210.0","336YQZE83W07CCAJKQXS4KSFN9T5MG","A3NOYN845TEJIH","3THR0FZ95PF7SK0MYRNAOUHTWDJOLG","","null","<img src=""img/land3.png"" style=""width:200px;border:14px solid red;"">","null","","","","","","","","","",""
"","image-keyboard-response","211","98279","0.0-211.0","336YQZE83W07CCAJKQXS4KSFN9T5MG","A3NOYN845TEJIH","3THR0FZ95PF7SK0MYRNAOUHTWDJOLG","","212.19999998807907","img/land3.png","74","213.40000000596046","1","1","2","2","0.8,0.2,0.2,0.2,0.8,0.2,0.2,0.2,0.8","0.2,0.2,0.8,0.8,0.2,0.2,0.2,0.8,0.2","2","",""
"","html-keyboard-response","212","98581","0.0-212.0","336YQZE83W07CCAJKQXS4KSFN9T5MG","A3NOYN845TEJIH","3THR0FZ95PF7SK0MYRNAOUHTWDJOLG","","null","<img src=""img/land3.png"" style=""width:200px; border:14px solid green;"">","null","","","","","","","","","",""
"","image-keyboard-response","213","98807","0.0-213.0","336YQZE83W07CCAJKQXS4KSFN9T5MG","A3NOYN845TEJIH","3THR0FZ95PF7SK0MYRNAOUHTWDJOLG","","225.2999999821186","img/land6.png","74","226.5","1","1","3","2","0.8,0.2,0.2,0.2,0.8,0.2,0.2,0.2,0.8","0.2,0.2,0.8,0.8,0.2,0.2,0.2,0.8,0.2","2","",""
"","html-keyboard-response","214","99110","0.0-214.0","336YQZE83W07CCAJKQXS4KSFN9T5MG","A3NOYN845TEJIH","3THR0FZ95PF7SK0MYRNAOUHTWDJOLG","","null","<img src=""img/land6.png"" style=""width:200px; border:14px solid green;"">","null","","","","","","","","","",""
"","image-keyboard-response","215","99295","0.0-215.0","336YQZE83W07CCAJKQXS4KSFN9T5MG","A3NOYN845TEJIH","3THR0FZ95PF7SK0MYRNAOUHTWDJOLG","","183.80000001192093","img/land6.png","74","184.80000001192093","1","0","3","2","0.8,0.2,0.2,0.2,0.8,0.2,0.2,0.2,0.8","0.2,0.2,0.8,0.8,0.2,0.2,0.2,0.8,0.2","2","",""
"","html-keyboard-response","216","99598","0.0-216.0","336YQZE83W07CCAJKQXS4KSFN9T5MG","A3NOYN845TEJIH","3THR0FZ95PF7SK0MYRNAOUHTWDJOLG","","null","<img src=""img/land6.png"" style=""width:200px;border:14px solid red;"">","null","","","","","","","","","",""
"","image-keyboard-response","217","99891","0.0-217.0","336YQZE83W07CCAJKQXS4KSFN9T5MG","A3NOYN845TEJIH","3THR0FZ95PF7SK0MYRNAOUHTWDJOLG","","292.19999998807907","img/land2.png","75","293.5","2","0","1","2","0.8,0.2,0.2,0.2,0.8,0.2,0.2,0.2,0.8","0.2,0.2,0.8,0.8,0.2,0.2,0.2,0.8,0.2","2","",""
"","html-keyboard-response","218","100193","0.0-218.0","336YQZE83W07CCAJKQXS4KSFN9T5MG","A3NOYN845TEJIH","3THR0FZ95PF7SK0MYRNAOUHTWDJOLG","","null","<img src=""img/land2.png"" style=""width:200px;border:14px solid red;"">","null","","","","","","","","","",""
"","image-keyboard-response","219","100441","0.0-219.0","336YQZE83W07CCAJKQXS4KSFN9T5MG","A3NOYN845TEJIH","3THR0FZ95PF7SK0MYRNAOUHTWDJOLG","","245.80000001192093","img/land2.png","75","247","2","0","1","2","0.8,0.2,0.2,0.2,0.8,0.2,0.2,0.2,0.8","0.2,0.2,0.8,0.8,0.2,0.2,0.2,0.8,0.2","2","",""
"","html-keyboard-response","220","100743","0.0-220.0","336YQZE83W07CCAJKQXS4KSFN9T5MG","A3NOYN845TEJIH","3THR0FZ95PF7SK0MYRNAOUHTWDJOLG","","null","<img src=""img/land2.png"" style=""width:200px;border:14px solid red;"">","null","","","","","","","","","",""
"","image-keyboard-response","221","101076","0.0-221.0","336YQZE83W07CCAJKQXS4KSFN9T5MG","A3NOYN845TEJIH","3THR0FZ95PF7SK0MYRNAOUHTWDJOLG","","331.2999999821186","img/land2.png","76","332","3","1","1","2","0.8,0.2,0.2,0.2,0.8,0.2,0.2,0.2,0.8","0.2,0.2,0.8,0.8,0.2,0.2,0.2,0.8,0.2","2","",""
"","html-keyboard-response","222","101379","0.0-222.0","336YQZE83W07CCAJKQXS4KSFN9T5MG","A3NOYN845TEJIH","3THR0FZ95PF7SK0MYRNAOUHTWDJOLG","","null","<img src=""img/land2.png"" style=""width:200px; border:14px solid green;"">","null","","","","","","","","","",""
"","image-keyboard-response","223","101658","0.0-223.0","336YQZE83W07CCAJKQXS4KSFN9T5MG","A3NOYN845TEJIH","3THR0FZ95PF7SK0MYRNAOUHTWDJOLG","","277.90000000596046","img/land2.png","76","278.80000001192093","3","1","1","2","0.8,0.2,0.2,0.2,0.8,0.2,0.2,0.2,0.8","0.2,0.2,0.8,0.8,0.2,0.2,0.2,0.8,0.2","2","",""
"","html-keyboard-response","224","101961","0.0-224.0","336YQZE83W07CCAJKQXS4KSFN9T5MG","A3NOYN845TEJIH","3THR0FZ95PF7SK0MYRNAOUHTWDJOLG","","null","<img src=""img/land2.png"" style=""width:200px; border:14px solid green;"">","null","","","","","","","","","",""
"","image-keyboard-response","225","102500","0.0-225.0","336YQZE83W07CCAJKQXS4KSFN9T5MG","A3NOYN845TEJIH","3THR0FZ95PF7SK0MYRNAOUHTWDJOLG","","537.6000000238419","img/land2.png","76","538.8999999761581","3","1","1","2","0.8,0.2,0.2,0.2,0.8,0.2,0.2,0.2,0.8","0.2,0.2,0.8,0.8,0.2,0.2,0.2,0.8,0.2","2","",""
"","html-keyboard-response","226","102802","0.0-226.0","336YQZE83W07CCAJKQXS4KSFN9T5MG","A3NOYN845TEJIH","3THR0FZ95PF7SK0MYRNAOUHTWDJOLG","","null","<img src=""img/land2.png"" style=""width:200px; border:14px solid green;"">","null","","","","","","","","","",""
"","image-keyboard-response","227","103138","0.0-227.0","336YQZE83W07CCAJKQXS4KSFN9T5MG","A3NOYN845TEJIH","3THR0FZ95PF7SK0MYRNAOUHTWDJOLG","","335.30000001192093","img/land2.png","76","335.89999997615814","3","0","1","2","0.8,0.2,0.2,0.2,0.8,0.2,0.2,0.2,0.8","0.2,0.2,0.8,0.8,0.2,0.2,0.2,0.8,0.2","2","",""
"","html-keyboard-response","228","103440","0.0-228.0","336YQZE83W07CCAJKQXS4KSFN9T5MG","A3NOYN845TEJIH","3THR0FZ95PF7SK0MYRNAOUHTWDJOLG","","null","<img src=""img/land2.png"" style=""width:200px;border:14px solid red;"">","null","","","","","","","","","",""
"","image-keyboard-response","229","103601","0.0-229.0","336YQZE83W07CCAJKQXS4KSFN9T5MG","A3NOYN845TEJIH","3THR0FZ95PF7SK0MYRNAOUHTWDJOLG","","159.80000001192093","img/land6.png","74","160.59999999403954","1","0","3","2","0.8,0.2,0.2,0.2,0.8,0.2,0.2,0.2,0.8","0.2,0.2,0.8,0.8,0.2,0.2,0.2,0.8,0.2","2","",""
"","html-keyboard-response","230","103903","0.0-230.0","336YQZE83W07CCAJKQXS4KSFN9T5MG","A3NOYN845TEJIH","3THR0FZ95PF7SK0MYRNAOUHTWDJOLG","","null","<img src=""img/land6.png"" style=""width:200px;border:14px solid red;"">","null","","","","","","","","","",""
"","image-keyboard-response","231","104215","0.0-231.0","336YQZE83W07CCAJKQXS4KSFN9T5MG","A3NOYN845TEJIH","3THR0FZ95PF7SK0MYRNAOUHTWDJOLG","","311","img/land2.png","74","311.7000000178814","1","0","1","2","0.8,0.2,0.2,0.2,0.8,0.2,0.2,0.2,0.8","0.2,0.2,0.8,0.8,0.2,0.2,0.2,0.8,0.2","2","",""
"","html-keyboard-response","232","104526","0.0-232.0","336YQZE83W07CCAJKQXS4KSFN9T5MG","A3NOYN845TEJIH","3THR0FZ95PF7SK0MYRNAOUHTWDJOLG","","null","<img src=""img/land2.png"" style=""width:200px;border:14px solid red;"">","null","","","","","","","","","",""
"","image-keyboard-response","233","104652","0.0-233.0","336YQZE83W07CCAJKQXS4KSFN9T5MG","A3NOYN845TEJIH","3THR0FZ95PF7SK0MYRNAOUHTWDJOLG","","123.80000001192093","img/land2.png","75","126.39999997615814","2","0","1","2","0.8,0.2,0.2,0.2,0.8,0.2,0.2,0.2,0.8","0.2,0.2,0.8,0.8,0.2,0.2,0.2,0.8,0.2","2","",""
"","html-keyboard-response","234","104967","0.0-234.0","336YQZE83W07CCAJKQXS4KSFN9T5MG","A3NOYN845TEJIH","3THR0FZ95PF7SK0MYRNAOUHTWDJOLG","","null","<img src=""img/land2.png"" style=""width:200px;border:14px solid red;"">","null","","","","","","","","","",""
"","image-keyboard-response","235","105208","0.0-235.0","336YQZE83W07CCAJKQXS4KSFN9T5MG","A3NOYN845TEJIH","3THR0FZ95PF7SK0MYRNAOUHTWDJOLG","","240.5","img/land2.png","76","241.2999999821186","3","0","1","2","0.8,0.2,0.2,0.2,0.8,0.2,0.2,0.2,0.8","0.2,0.2,0.8,0.8,0.2,0.2,0.2,0.8,0.2","2","",""
"","html-keyboard-response","236","105510","0.0-236.0","336YQZE83W07CCAJKQXS4KSFN9T5MG","A3NOYN845TEJIH","3THR0FZ95PF7SK0MYRNAOUHTWDJOLG","","null","<img src=""img/land2.png"" style=""width:200px;border:14px solid red;"">","null","","","","","","","","","",""
"","image-keyboard-response","237","106055","0.0-237.0","336YQZE83W07CCAJKQXS4KSFN9T5MG","A3NOYN845TEJIH","3THR0FZ95PF7SK0MYRNAOUHTWDJOLG","","544","img/land6.png","75","544.9000000059605","2","0","3","2","0.8,0.2,0.2,0.2,0.8,0.2,0.2,0.2,0.8","0.2,0.2,0.8,0.8,0.2,0.2,0.2,0.8,0.2","2","",""
"","html-keyboard-response","238","106364","0.0-238.0","336YQZE83W07CCAJKQXS4KSFN9T5MG","A3NOYN845TEJIH","3THR0FZ95PF7SK0MYRNAOUHTWDJOLG","","null","<img src=""img/land6.png"" style=""width:200px;border:14px solid red;"">","null","","","","","","","","","",""
"","image-keyboard-response","239","106533","0.0-239.0","336YQZE83W07CCAJKQXS4KSFN9T5MG","A3NOYN845TEJIH","3THR0FZ95PF7SK0MYRNAOUHTWDJOLG","","166.90000000596046","img/land2.png","76","168.2000000178814","3","1","1","2","0.8,0.2,0.2,0.2,0.8,0.2,0.2,0.2,0.8","0.2,0.2,0.8,0.8,0.2,0.2,0.2,0.8,0.2","2","",""
"","html-keyboard-response","240","106835","0.0-240.0","336YQZE83W07CCAJKQXS4KSFN9T5MG","A3NOYN845TEJIH","3THR0FZ95PF7SK0MYRNAOUHTWDJOLG","","null","<img src=""img/land2.png"" style=""width:200px; border:14px solid green;"">","null","","","","","","","","","",""
"","image-keyboard-response","241","107185","0.0-241.0","336YQZE83W07CCAJKQXS4KSFN9T5MG","A3NOYN845TEJIH","3THR0FZ95PF7SK0MYRNAOUHTWDJOLG","","348.90000000596046","img/land6.png","76","349.69999998807907","3","0","3","2","0.8,0.2,0.2,0.2,0.8,0.2,0.2,0.2,0.8","0.2,0.2,0.8,0.8,0.2,0.2,0.2,0.8,0.2","2","",""
"","html-keyboard-response","242","107490","0.0-242.0","336YQZE83W07CCAJKQXS4KSFN9T5MG","A3NOYN845TEJIH","3THR0FZ95PF7SK0MYRNAOUHTWDJOLG","","null","<img src=""img/land6.png"" style=""width:200px;border:14px solid red;"">","null","","","","","","","","","",""
"","image-keyboard-response","243","107702","0.0-243.0","336YQZE83W07CCAJKQXS4KSFN9T5MG","A3NOYN845TEJIH","3THR0FZ95PF7SK0MYRNAOUHTWDJOLG","","209.89999997615814","img/land2.png","74","211","1","0","1","2","0.8,0.2,0.2,0.2,0.8,0.2,0.2,0.2,0.8","0.2,0.2,0.8,0.8,0.2,0.2,0.2,0.8,0.2","2","",""
"","html-keyboard-response","244","108003","0.0-244.0","336YQZE83W07CCAJKQXS4KSFN9T5MG","A3NOYN845TEJIH","3THR0FZ95PF7SK0MYRNAOUHTWDJOLG","","null","<img src=""img/land2.png"" style=""width:200px;border:14px solid red;"">","null","","","","","","","","","",""
"","image-keyboard-response","245","108208","0.0-245.0","336YQZE83W07CCAJKQXS4KSFN9T5MG","A3NOYN845TEJIH","3THR0FZ95PF7SK0MYRNAOUHTWDJOLG","","203.69999998807907","img/land6.png","74","204.2000000178814","1","0","3","2","0.8,0.2,0.2,0.2,0.8,0.2,0.2,0.2,0.8","0.2,0.2,0.8,0.8,0.2,0.2,0.2,0.8,0.2","2","",""
"","html-keyboard-response","246","108511","0.0-246.0","336YQZE83W07CCAJKQXS4KSFN9T5MG","A3NOYN845TEJIH","3THR0FZ95PF7SK0MYRNAOUHTWDJOLG","","null","<img src=""img/land6.png"" style=""width:200px;border:14px solid red;"">","null","","","","","","","","","",""
"","image-keyboard-response","247","108743","0.0-247.0","336YQZE83W07CCAJKQXS4KSFN9T5MG","A3NOYN845TEJIH","3THR0FZ95PF7SK0MYRNAOUHTWDJOLG","","230.2000000178814","img/land2.png","75","231.2999999821186","2","0","1","2","0.8,0.2,0.2,0.2,0.8,0.2,0.2,0.2,0.8","0.2,0.2,0.8,0.8,0.2,0.2,0.2,0.8,0.2","2","",""
"","html-keyboard-response","248","109045","0.0-248.0","336YQZE83W07CCAJKQXS4KSFN9T5MG","A3NOYN845TEJIH","3THR0FZ95PF7SK0MYRNAOUHTWDJOLG","","null","<img src=""img/land2.png"" style=""width:200px;border:14px solid red;"">","null","","","","","","","","","",""
"","image-keyboard-response","249","109299","0.0-249.0","336YQZE83W07CCAJKQXS4KSFN9T5MG","A3NOYN845TEJIH","3THR0FZ95PF7SK0MYRNAOUHTWDJOLG","","252.19999998807907","img/land2.png","75","253.40000000596046","2","1","1","2","0.8,0.2,0.2,0.2,0.8,0.2,0.2,0.2,0.8","0.2,0.2,0.8,0.8,0.2,0.2,0.2,0.8,0.2","2","",""
"","html-keyboard-response","250","109602","0.0-250.0","336YQZE83W07CCAJKQXS4KSFN9T5MG","A3NOYN845TEJIH","3THR0FZ95PF7SK0MYRNAOUHTWDJOLG","","null","<img src=""img/land2.png"" style=""width:200px; border:14px solid green;"">","null","","","","","","","","","",""
"","image-keyboard-response","251","109818","0.0-251.0","336YQZE83W07CCAJKQXS4KSFN9T5MG","A3NOYN845TEJIH","3THR0FZ95PF7SK0MYRNAOUHTWDJOLG","","214.69999998807907","img/land3.png","75","215.59999999403954","2","0","2","2","0.8,0.2,0.2,0.2,0.8,0.2,0.2,0.2,0.8","0.2,0.2,0.8,0.8,0.2,0.2,0.2,0.8,0.2","2","",""
"","html-keyboard-response","252","110120","0.0-252.0","336YQZE83W07CCAJKQXS4KSFN9T5MG","A3NOYN845TEJIH","3THR0FZ95PF7SK0MYRNAOUHTWDJOLG","","null","<img src=""img/land3.png"" style=""width:200px;border:14px solid red;"">","null","","","","","","","","","",""
"","image-keyboard-response","253","110409","0.0-253.0","336YQZE83W07CCAJKQXS4KSFN9T5MG","A3NOYN845TEJIH","3THR0FZ95PF7SK0MYRNAOUHTWDJOLG","","287.59999999403954","img/land3.png","76","288.5","3","0","2","2","0.8,0.2,0.2,0.2,0.8,0.2,0.2,0.2,0.8","0.2,0.2,0.8,0.8,0.2,0.2,0.2,0.8,0.2","2","",""
"","html-keyboard-response","254","110712","0.0-254.0","336YQZE83W07CCAJKQXS4KSFN9T5MG","A3NOYN845TEJIH","3THR0FZ95PF7SK0MYRNAOUHTWDJOLG","","null","<img src=""img/land3.png"" style=""width:200px;border:14px solid red;"">","null","","","","","","","","","",""
"","image-keyboard-response","255","111029","0.0-255.0","336YQZE83W07CCAJKQXS4KSFN9T5MG","A3NOYN845TEJIH","3THR0FZ95PF7SK0MYRNAOUHTWDJOLG","","315.30000001192093","img/land2.png","74","316.5","1","0","1","2","0.8,0.2,0.2,0.2,0.8,0.2,0.2,0.2,0.8","0.2,0.2,0.8,0.8,0.2,0.2,0.2,0.8,0.2","2","",""
"","html-keyboard-response","256","111331","0.0-256.0","336YQZE83W07CCAJKQXS4KSFN9T5MG","A3NOYN845TEJIH","3THR0FZ95PF7SK0MYRNAOUHTWDJOLG","","null","<img src=""img/land2.png"" style=""width:200px;border:14px solid red;"">","null","","","","","","","","","",""
"","image-keyboard-response","257","111682","0.0-257.0","336YQZE83W07CCAJKQXS4KSFN9T5MG","A3NOYN845TEJIH","3THR0FZ95PF7SK0MYRNAOUHTWDJOLG","","349.40000000596046","img/land2.png","75","350.40000000596046","2","1","1","2","0.8,0.2,0.2,0.2,0.8,0.2,0.2,0.2,0.8","0.2,0.2,0.8,0.8,0.2,0.2,0.2,0.8,0.2","2","",""
"","html-keyboard-response","258","111983","0.0-258.0","336YQZE83W07CCAJKQXS4KSFN9T5MG","A3NOYN845TEJIH","3THR0FZ95PF7SK0MYRNAOUHTWDJOLG","","null","<img src=""img/land2.png"" style=""width:200px; border:14px solid green;"">","null","","","","","","","","","",""
"","image-keyboard-response","259","112149","0.0-259.0","336YQZE83W07CCAJKQXS4KSFN9T5MG","A3NOYN845TEJIH","3THR0FZ95PF7SK0MYRNAOUHTWDJOLG","","164.2999999821186","img/land2.png","75","165.5","2","1","1","2","0.8,0.2,0.2,0.2,0.8,0.2,0.2,0.2,0.8","0.2,0.2,0.8,0.8,0.2,0.2,0.2,0.8,0.2","2","",""
"","html-keyboard-response","260","112453","0.0-260.0","336YQZE83W07CCAJKQXS4KSFN9T5MG","A3NOYN845TEJIH","3THR0FZ95PF7SK0MYRNAOUHTWDJOLG","","null","<img src=""img/land2.png"" style=""width:200px; border:14px solid green;"">","null","","","","","","","","","",""
"","image-keyboard-response","261","112698","0.0-261.0","336YQZE83W07CCAJKQXS4KSFN9T5MG","A3NOYN845TEJIH","3THR0FZ95PF7SK0MYRNAOUHTWDJOLG","","244.30000001192093","img/land2.png","75","245.40000000596046","2","0","1","2","0.8,0.2,0.2,0.2,0.8,0.2,0.2,0.2,0.8","0.2,0.2,0.8,0.8,0.2,0.2,0.2,0.8,0.2","2","",""
"","html-keyboard-response","262","113000","0.0-262.0","336YQZE83W07CCAJKQXS4KSFN9T5MG","A3NOYN845TEJIH","3THR0FZ95PF7SK0MYRNAOUHTWDJOLG","","null","<img src=""img/land2.png"" style=""width:200px;border:14px solid red;"">","null","","","","","","","","","",""
"","image-keyboard-response","263","113270","0.0-263.0","336YQZE83W07CCAJKQXS4KSFN9T5MG","A3NOYN845TEJIH","3THR0FZ95PF7SK0MYRNAOUHTWDJOLG","","269.5","img/land3.png","75","270.5","2","0","2","2","0.8,0.2,0.2,0.2,0.8,0.2,0.2,0.2,0.8","0.2,0.2,0.8,0.8,0.2,0.2,0.2,0.8,0.2","2","",""
"","html-keyboard-response","264","113573","0.0-264.0","336YQZE83W07CCAJKQXS4KSFN9T5MG","A3NOYN845TEJIH","3THR0FZ95PF7SK0MYRNAOUHTWDJOLG","","null","<img src=""img/land3.png"" style=""width:200px;border:14px solid red;"">","null","","","","","","","","","",""
"","image-keyboard-response","265","114012","0.0-265.0","336YQZE83W07CCAJKQXS4KSFN9T5MG","A3NOYN845TEJIH","3THR0FZ95PF7SK0MYRNAOUHTWDJOLG","","437.90000000596046","img/land3.png","75","439.19999998807907","2","0","2","2","0.8,0.2,0.2,0.2,0.8,0.2,0.2,0.2,0.8","0.2,0.2,0.8,0.8,0.2,0.2,0.2,0.8,0.2","2","",""
"","html-keyboard-response","266","114315","0.0-266.0","336YQZE83W07CCAJKQXS4KSFN9T5MG","A3NOYN845TEJIH","3THR0FZ95PF7SK0MYRNAOUHTWDJOLG","","null","<img src=""img/land3.png"" style=""width:200px;border:14px solid red;"">","null","","","","","","","","","",""
"","image-keyboard-response","267","114622","0.0-267.0","336YQZE83W07CCAJKQXS4KSFN9T5MG","A3NOYN845TEJIH","3THR0FZ95PF7SK0MYRNAOUHTWDJOLG","","306.30000001192093","img/land6.png","75","307.5","2","1","3","2","0.8,0.2,0.2,0.2,0.8,0.2,0.2,0.2,0.8","0.2,0.2,0.8,0.8,0.2,0.2,0.2,0.8,0.2","2","",""
"","html-keyboard-response","268","114925","0.0-268.0","336YQZE83W07CCAJKQXS4KSFN9T5MG","A3NOYN845TEJIH","3THR0FZ95PF7SK0MYRNAOUHTWDJOLG","","null","<img src=""img/land6.png"" style=""width:200px; border:14px solid green;"">","null","","","","","","","","","",""
"","image-keyboard-response","269","115157","0.0-269.0","336YQZE83W07CCAJKQXS4KSFN9T5MG","A3NOYN845TEJIH","3THR0FZ95PF7SK0MYRNAOUHTWDJOLG","","231.5","img/land6.png","75","232.30000001192093","2","1","3","2","0.8,0.2,0.2,0.2,0.8,0.2,0.2,0.2,0.8","0.2,0.2,0.8,0.8,0.2,0.2,0.2,0.8,0.2","2","",""
"","html-keyboard-response","270","115474","0.0-270.0","336YQZE83W07CCAJKQXS4KSFN9T5MG","A3NOYN845TEJIH","3THR0FZ95PF7SK0MYRNAOUHTWDJOLG","","null","<img src=""img/land6.png"" style=""width:200px; border:14px solid green;"">","null","","","","","","","","","",""
"","image-keyboard-response","271","115712","0.0-271.0","336YQZE83W07CCAJKQXS4KSFN9T5MG","A3NOYN845TEJIH","3THR0FZ95PF7SK0MYRNAOUHTWDJOLG","","236.40000000596046","img/land2.png","75","237.60000002384186","2","0","1","2","0.8,0.2,0.2,0.2,0.8,0.2,0.2,0.2,0.8","0.2,0.2,0.8,0.8,0.2,0.2,0.2,0.8,0.2","2","",""
"","html-keyboard-response","272","116015","0.0-272.0","336YQZE83W07CCAJKQXS4KSFN9T5MG","A3NOYN845TEJIH","3THR0FZ95PF7SK0MYRNAOUHTWDJOLG","","null","<img src=""img/land2.png"" style=""width:200px;border:14px solid red;"">","null","","","","","","","","","",""
"","image-keyboard-response","273","116321","0.0-273.0","336YQZE83W07CCAJKQXS4KSFN9T5MG","A3NOYN845TEJIH","3THR0FZ95PF7SK0MYRNAOUHTWDJOLG","","305.40000000596046","img/land6.png","75","306.2999999821186","2","0","3","2","0.8,0.2,0.2,0.2,0.8,0.2,0.2,0.2,0.8","0.2,0.2,0.8,0.8,0.2,0.2,0.2,0.8,0.2","2","",""
"","html-keyboard-response","274","116623","0.0-274.0","336YQZE83W07CCAJKQXS4KSFN9T5MG","A3NOYN845TEJIH","3THR0FZ95PF7SK0MYRNAOUHTWDJOLG","","null","<img src=""img/land6.png"" style=""width:200px;border:14px solid red;"">","null","","","","","","","","","",""
"","image-keyboard-response","275","116949","0.0-275.0","336YQZE83W07CCAJKQXS4KSFN9T5MG","A3NOYN845TEJIH","3THR0FZ95PF7SK0MYRNAOUHTWDJOLG","","324.59999999403954","img/land2.png","76","325.90000000596046","3","1","1","2","0.8,0.2,0.2,0.2,0.8,0.2,0.2,0.2,0.8","0.2,0.2,0.8,0.8,0.2,0.2,0.2,0.8,0.2","2","",""
"","html-keyboard-response","276","117253","0.0-276.0","336YQZE83W07CCAJKQXS4KSFN9T5MG","A3NOYN845TEJIH","3THR0FZ95PF7SK0MYRNAOUHTWDJOLG","","null","<img src=""img/land2.png"" style=""width:200px; border:14px solid green;"">","null","","","","","","","","","",""
"","image-keyboard-response","277","117561","0.0-277.0","336YQZE83W07CCAJKQXS4KSFN9T5MG","A3NOYN845TEJIH","3THR0FZ95PF7SK0MYRNAOUHTWDJOLG","","306.19999998807907","img/land2.png","76","307.40000000596046","3","1","1","2","0.8,0.2,0.2,0.2,0.8,0.2,0.2,0.2,0.8","0.2,0.2,0.8,0.8,0.2,0.2,0.2,0.8,0.2","2","",""
"","html-keyboard-response","278","117863","0.0-278.0","336YQZE83W07CCAJKQXS4KSFN9T5MG","A3NOYN845TEJIH","3THR0FZ95PF7SK0MYRNAOUHTWDJOLG","","null","<img src=""img/land2.png"" style=""width:200px; border:14px solid green;"">","null","","","","","","","","","",""
"","image-keyboard-response","279","118208","0.0-279.0","336YQZE83W07CCAJKQXS4KSFN9T5MG","A3NOYN845TEJIH","3THR0FZ95PF7SK0MYRNAOUHTWDJOLG","","343.19999998807907","img/land2.png","76","344.30000001192093","3","1","1","2","0.8,0.2,0.2,0.2,0.8,0.2,0.2,0.2,0.8","0.2,0.2,0.8,0.8,0.2,0.2,0.2,0.8,0.2","2","",""
"","html-keyboard-response","280","118510","0.0-280.0","336YQZE83W07CCAJKQXS4KSFN9T5MG","A3NOYN845TEJIH","3THR0FZ95PF7SK0MYRNAOUHTWDJOLG","","null","<img src=""img/land2.png"" style=""width:200px; border:14px solid green;"">","null","","","","","","","","","",""
"","image-keyboard-response","281","118816","0.0-281.0","336YQZE83W07CCAJKQXS4KSFN9T5MG","A3NOYN845TEJIH","3THR0FZ95PF7SK0MYRNAOUHTWDJOLG","","304.60000002384186","img/land3.png","76","305.69999998807907","3","0","2","2","0.8,0.2,0.2,0.2,0.8,0.2,0.2,0.2,0.8","0.2,0.2,0.8,0.8,0.2,0.2,0.2,0.8,0.2","2","",""
"","html-keyboard-response","282","119119","0.0-282.0","336YQZE83W07CCAJKQXS4KSFN9T5MG","A3NOYN845TEJIH","3THR0FZ95PF7SK0MYRNAOUHTWDJOLG","","null","<img src=""img/land3.png"" style=""width:200px;border:14px solid red;"">","null","","","","","","","","","",""
"","image-keyboard-response","283","119281","0.0-283.0","336YQZE83W07CCAJKQXS4KSFN9T5MG","A3NOYN845TEJIH","3THR0FZ95PF7SK0MYRNAOUHTWDJOLG","","160.19999998807907","img/land3.png","75","161.40000000596046","2","0","2","2","0.8,0.2,0.2,0.2,0.8,0.2,0.2,0.2,0.8","0.2,0.2,0.8,0.8,0.2,0.2,0.2,0.8,0.2","2","",""
"","html-keyboard-response","284","119584","0.0-284.0","336YQZE83W07CCAJKQXS4KSFN9T5MG","A3NOYN845TEJIH","3THR0FZ95PF7SK0MYRNAOUHTWDJOLG","","null","<img src=""img/land3.png"" style=""width:200px;border:14px solid red;"">","null","","","","","","","","","",""
"","image-keyboard-response","285","119860","0.0-285.0","336YQZE83W07CCAJKQXS4KSFN9T5MG","A3NOYN845TEJIH","3THR0FZ95PF7SK0MYRNAOUHTWDJOLG","","275.09999999403954","img/land2.png","74","276.2999999821186","1","0","1","2","0.8,0.2,0.2,0.2,0.8,0.2,0.2,0.2,0.8","0.2,0.2,0.8,0.8,0.2,0.2,0.2,0.8,0.2","2","",""
"","html-keyboard-response","286","120163","0.0-286.0","336YQZE83W07CCAJKQXS4KSFN9T5MG","A3NOYN845TEJIH","3THR0FZ95PF7SK0MYRNAOUHTWDJOLG","","null","<img src=""img/land2.png"" style=""width:200px;border:14px solid red;"">","null","","","","","","","","","",""
"","image-keyboard-response","287","120422","0.0-287.0","336YQZE83W07CCAJKQXS4KSFN9T5MG","A3NOYN845TEJIH","3THR0FZ95PF7SK0MYRNAOUHTWDJOLG","","257.69999998807907","img/land2.png","74","258.7000000178814","1","0","1","2","0.8,0.2,0.2,0.2,0.8,0.2,0.2,0.2,0.8","0.2,0.2,0.8,0.8,0.2,0.2,0.2,0.8,0.2","2","",""
"","html-keyboard-response","288","120723","0.0-288.0","336YQZE83W07CCAJKQXS4KSFN9T5MG","A3NOYN845TEJIH","3THR0FZ95PF7SK0MYRNAOUHTWDJOLG","","null","<img src=""img/land2.png"" style=""width:200px;border:14px solid red;"">","null","","","","","","","","","",""
"","image-keyboard-response","289","120945","0.0-289.0","336YQZE83W07CCAJKQXS4KSFN9T5MG","A3NOYN845TEJIH","3THR0FZ95PF7SK0MYRNAOUHTWDJOLG","","220.39999997615814","img/land2.png","76","221.5","3","0","1","2","0.8,0.2,0.2,0.2,0.8,0.2,0.2,0.2,0.8","0.2,0.2,0.8,0.8,0.2,0.2,0.2,0.8,0.2","2","",""
"","html-keyboard-response","290","121248","0.0-290.0","336YQZE83W07CCAJKQXS4KSFN9T5MG","A3NOYN845TEJIH","3THR0FZ95PF7SK0MYRNAOUHTWDJOLG","","null","<img src=""img/land2.png"" style=""width:200px;border:14px solid red;"">","null","","","","","","","","","",""
"","image-keyboard-response","291","121269","0.0-291.0","336YQZE83W07CCAJKQXS4KSFN9T5MG","A3NOYN845TEJIH","3THR0FZ95PF7SK0MYRNAOUHTWDJOLG","","19.5","img/land2.png","75","20.700000017881393","2","0","1","2","0.8,0.2,0.2,0.2,0.8,0.2,0.2,0.2,0.8","0.2,0.2,0.8,0.8,0.2,0.2,0.2,0.8,0.2","2","",""
"","html-keyboard-response","292","121571","0.0-292.0","336YQZE83W07CCAJKQXS4KSFN9T5MG","A3NOYN845TEJIH","3THR0FZ95PF7SK0MYRNAOUHTWDJOLG","","null","<img src=""img/land2.png"" style=""width:200px;border:14px solid red;"">","null","","","","","","","","","",""
"","image-keyboard-response","293","121857","0.0-293.0","336YQZE83W07CCAJKQXS4KSFN9T5MG","A3NOYN845TEJIH","3THR0FZ95PF7SK0MYRNAOUHTWDJOLG","","285.5","img/land2.png","75","286.30000001192093","2","0","1","2","0.8,0.2,0.2,0.2,0.8,0.2,0.2,0.2,0.8","0.2,0.2,0.8,0.8,0.2,0.2,0.2,0.8,0.2","2","",""
"","html-keyboard-response","294","122160","0.0-294.0","336YQZE83W07CCAJKQXS4KSFN9T5MG","A3NOYN845TEJIH","3THR0FZ95PF7SK0MYRNAOUHTWDJOLG","","null","<img src=""img/land2.png"" style=""width:200px;border:14px solid red;"">","null","","","","","","","","","",""
"","image-keyboard-response","295","122385","0.0-295.0","336YQZE83W07CCAJKQXS4KSFN9T5MG","A3NOYN845TEJIH","3THR0FZ95PF7SK0MYRNAOUHTWDJOLG","","223.39999997615814","img/land2.png","76","224.40000000596046","3","1","1","2","0.8,0.2,0.2,0.2,0.8,0.2,0.2,0.2,0.8","0.2,0.2,0.8,0.8,0.2,0.2,0.2,0.8,0.2","2","",""
"","html-keyboard-response","296","122686","0.0-296.0","336YQZE83W07CCAJKQXS4KSFN9T5MG","A3NOYN845TEJIH","3THR0FZ95PF7SK0MYRNAOUHTWDJOLG","","null","<img src=""img/land2.png"" style=""width:200px; border:14px solid green;"">","null","","","","","","","","","",""
"","image-keyboard-response","297","123034","0.0-297.0","336YQZE83W07CCAJKQXS4KSFN9T5MG","A3NOYN845TEJIH","3THR0FZ95PF7SK0MYRNAOUHTWDJOLG","","346","img/land2.png","76","346.90000000596046","3","1","1","2","0.8,0.2,0.2,0.2,0.8,0.2,0.2,0.2,0.8","0.2,0.2,0.8,0.8,0.2,0.2,0.2,0.8,0.2","2","",""
"","html-keyboard-response","298","123336","0.0-298.0","336YQZE83W07CCAJKQXS4KSFN9T5MG","A3NOYN845TEJIH","3THR0FZ95PF7SK0MYRNAOUHTWDJOLG","","null","<img src=""img/land2.png"" style=""width:200px; border:14px solid green;"">","null","","","","","","","","","",""
"","image-keyboard-response","299","123719","0.0-299.0","336YQZE83W07CCAJKQXS4KSFN9T5MG","A3NOYN845TEJIH","3THR0FZ95PF7SK0MYRNAOUHTWDJOLG","","381.2999999821186","img/land2.png","76","382.59999999403954","3","1","1","2","0.8,0.2,0.2,0.2,0.8,0.2,0.2,0.2,0.8","0.2,0.2,0.8,0.8,0.2,0.2,0.2,0.8,0.2","2","",""
"","html-keyboard-response","300","124023","0.0-300.0","336YQZE83W07CCAJKQXS4KSFN9T5MG","A3NOYN845TEJIH","3THR0FZ95PF7SK0MYRNAOUHTWDJOLG","","null","<img src=""img/land2.png"" style=""width:200px; border:14px solid green;"">","null","","","","","","","","","",""
"","image-keyboard-response","301","124370","0.0-301.0","336YQZE83W07CCAJKQXS4KSFN9T5MG","A3NOYN845TEJIH","3THR0FZ95PF7SK0MYRNAOUHTWDJOLG","","345.90000000596046","img/land2.png","76","348.2999999821186","3","1","1","2","0.8,0.2,0.2,0.2,0.8,0.2,0.2,0.2,0.8","0.2,0.2,0.8,0.8,0.2,0.2,0.2,0.8,0.2","2","",""
"","html-keyboard-response","302","124674","0.0-302.0","336YQZE83W07CCAJKQXS4KSFN9T5MG","A3NOYN845TEJIH","3THR0FZ95PF7SK0MYRNAOUHTWDJOLG","","null","<img src=""img/land2.png"" style=""width:200px; border:14px solid green;"">","null","","","","","","","","","",""
"","image-keyboard-response","303","124881","0.0-303.0","336YQZE83W07CCAJKQXS4KSFN9T5MG","A3NOYN845TEJIH","3THR0FZ95PF7SK0MYRNAOUHTWDJOLG","","206.2999999821186","img/land2.png","76","206.89999997615814","3","1","1","2","0.8,0.2,0.2,0.2,0.8,0.2,0.2,0.2,0.8","0.2,0.2,0.8,0.8,0.2,0.2,0.2,0.8,0.2","2","",""
"","html-keyboard-response","304","125183","0.0-304.0","336YQZE83W07CCAJKQXS4KSFN9T5MG","A3NOYN845TEJIH","3THR0FZ95PF7SK0MYRNAOUHTWDJOLG","","null","<img src=""img/land2.png"" style=""width:200px; border:14px solid green;"">","null","","","","","","","","","",""
"","image-keyboard-response","305","125418","0.0-305.0","336YQZE83W07CCAJKQXS4KSFN9T5MG","A3NOYN845TEJIH","3THR0FZ95PF7SK0MYRNAOUHTWDJOLG","","234.59999999403954","img/land2.png","76","235.59999999403954","3","1","1","2","0.8,0.2,0.2,0.2,0.8,0.2,0.2,0.2,0.8","0.2,0.2,0.8,0.8,0.2,0.2,0.2,0.8,0.2","2","",""
"","html-keyboard-response","306","125721","0.0-306.0","336YQZE83W07CCAJKQXS4KSFN9T5MG","A3NOYN845TEJIH","3THR0FZ95PF7SK0MYRNAOUHTWDJOLG","","null","<img src=""img/land2.png"" style=""width:200px; border:14px solid green;"">","null","","","","","","","","","",""
"","image-keyboard-response","307","125871","0.0-307.0","336YQZE83W07CCAJKQXS4KSFN9T5MG","A3NOYN845TEJIH","3THR0FZ95PF7SK0MYRNAOUHTWDJOLG","","149.19999998807907","img/land2.png","76","150.09999999403954","3","0","1","2","0.8,0.2,0.2,0.2,0.8,0.2,0.2,0.2,0.8","0.2,0.2,0.8,0.8,0.2,0.2,0.2,0.8,0.2","2","",""
"","html-keyboard-response","308","126173","0.0-308.0","336YQZE83W07CCAJKQXS4KSFN9T5MG","A3NOYN845TEJIH","3THR0FZ95PF7SK0MYRNAOUHTWDJOLG","","null","<img src=""img/land2.png"" style=""width:200px;border:14px solid red;"">","null","","","","","","","","","",""
"","image-keyboard-response","309","126482","0.0-309.0","336YQZE83W07CCAJKQXS4KSFN9T5MG","A3NOYN845TEJIH","3THR0FZ95PF7SK0MYRNAOUHTWDJOLG","","308.19999998807907","img/land2.png","76","309","3","1","1","2","0.8,0.2,0.2,0.2,0.8,0.2,0.2,0.2,0.8","0.2,0.2,0.8,0.8,0.2,0.2,0.2,0.8,0.2","2","",""
"","html-keyboard-response","310","126784","0.0-310.0","336YQZE83W07CCAJKQXS4KSFN9T5MG","A3NOYN845TEJIH","3THR0FZ95PF7SK0MYRNAOUHTWDJOLG","","null","<img src=""img/land2.png"" style=""width:200px; border:14px solid green;"">","null","","","","","","","","","",""
"","image-keyboard-response","311","127037","0.0-311.0","336YQZE83W07CCAJKQXS4KSFN9T5MG","A3NOYN845TEJIH","3THR0FZ95PF7SK0MYRNAOUHTWDJOLG","","252.40000000596046","img/land3.png","76","253.5","3","0","2","2","0.8,0.2,0.2,0.2,0.8,0.2,0.2,0.2,0.8","0.2,0.2,0.8,0.8,0.2,0.2,0.2,0.8,0.2","2","",""
"","html-keyboard-response","312","127341","0.0-312.0","336YQZE83W07CCAJKQXS4KSFN9T5MG","A3NOYN845TEJIH","3THR0FZ95PF7SK0MYRNAOUHTWDJOLG","","null","<img src=""img/land3.png"" style=""width:200px;border:14px solid red;"">","null","","","","","","","","","",""
"","image-keyboard-response","313","127437","0.0-313.0","336YQZE83W07CCAJKQXS4KSFN9T5MG","A3NOYN845TEJIH","3THR0FZ95PF7SK0MYRNAOUHTWDJOLG","","93.80000001192093","img/land3.png","75","95.19999998807907","2","0","2","2","0.8,0.2,0.2,0.2,0.8,0.2,0.2,0.2,0.8","0.2,0.2,0.8,0.8,0.2,0.2,0.2,0.8,0.2","2","",""
"","html-keyboard-response","314","127739","0.0-314.0","336YQZE83W07CCAJKQXS4KSFN9T5MG","A3NOYN845TEJIH","3THR0FZ95PF7SK0MYRNAOUHTWDJOLG","","null","<img src=""img/land3.png"" style=""width:200px;border:14px solid red;"">","null","","","","","","","","","",""
"","image-keyboard-response","315","128093","0.0-315.0","336YQZE83W07CCAJKQXS4KSFN9T5MG","A3NOYN845TEJIH","3THR0FZ95PF7SK0MYRNAOUHTWDJOLG","","353.2999999821186","img/land2.png","74","354.09999999403954","1","0","1","2","0.8,0.2,0.2,0.2,0.8,0.2,0.2,0.2,0.8","0.2,0.2,0.8,0.8,0.2,0.2,0.2,0.8,0.2","2","",""
"","html-keyboard-response","316","128408","0.0-316.0","336YQZE83W07CCAJKQXS4KSFN9T5MG","A3NOYN845TEJIH","3THR0FZ95PF7SK0MYRNAOUHTWDJOLG","","null","<img src=""img/land2.png"" style=""width:200px;border:14px solid red;"">","null","","","","","","","","","",""
"","image-keyboard-response","317","128674","0.0-317.0","336YQZE83W07CCAJKQXS4KSFN9T5MG","A3NOYN845TEJIH","3THR0FZ95PF7SK0MYRNAOUHTWDJOLG","","264.40000000596046","img/land6.png","76","265.7999999821186","3","0","3","2","0.8,0.2,0.2,0.2,0.8,0.2,0.2,0.2,0.8","0.2,0.2,0.8,0.8,0.2,0.2,0.2,0.8,0.2","2","",""
"","html-keyboard-response","318","128976","0.0-318.0","336YQZE83W07CCAJKQXS4KSFN9T5MG","A3NOYN845TEJIH","3THR0FZ95PF7SK0MYRNAOUHTWDJOLG","","null","<img src=""img/land6.png"" style=""width:200px;border:14px solid red;"">","null","","","","","","","","","",""
"","image-keyboard-response","319","129460","0.0-319.0","336YQZE83W07CCAJKQXS4KSFN9T5MG","A3NOYN845TEJIH","3THR0FZ95PF7SK0MYRNAOUHTWDJOLG","","482","img/land2.png","75","483.30000001192093","2","0","1","2","0.8,0.2,0.2,0.2,0.8,0.2,0.2,0.2,0.8","0.2,0.2,0.8,0.8,0.2,0.2,0.2,0.8,0.2","2","",""
"","html-keyboard-response","320","129762","0.0-320.0","336YQZE83W07CCAJKQXS4KSFN9T5MG","A3NOYN845TEJIH","3THR0FZ95PF7SK0MYRNAOUHTWDJOLG","","null","<img src=""img/land2.png"" style=""width:200px;border:14px solid red;"">","null","","","","","","","","","",""
"","image-keyboard-response","321","130322","0.0-321.0","336YQZE83W07CCAJKQXS4KSFN9T5MG","A3NOYN845TEJIH","3THR0FZ95PF7SK0MYRNAOUHTWDJOLG","","558.1000000238419","img/land3.png","76","559","3","0","2","2","0.8,0.2,0.2,0.2,0.8,0.2,0.2,0.2,0.8","0.2,0.2,0.8,0.8,0.2,0.2,0.2,0.8,0.2","2","",""
"","html-keyboard-response","322","130633","0.0-322.0","336YQZE83W07CCAJKQXS4KSFN9T5MG","A3NOYN845TEJIH","3THR0FZ95PF7SK0MYRNAOUHTWDJOLG","","null","<img src=""img/land3.png"" style=""width:200px;border:14px solid red;"">","null","","","","","","","","","",""
"","image-keyboard-response","323","130809","0.0-323.0","336YQZE83W07CCAJKQXS4KSFN9T5MG","A3NOYN845TEJIH","3THR0FZ95PF7SK0MYRNAOUHTWDJOLG","","174.69999998807907","img/land3.png","76","176.09999999403954","3","0","2","2","0.8,0.2,0.2,0.2,0.8,0.2,0.2,0.2,0.8","0.2,0.2,0.8,0.8,0.2,0.2,0.2,0.8,0.2","2","",""
"","html-keyboard-response","324","131119","0.0-324.0","336YQZE83W07CCAJKQXS4KSFN9T5MG","A3NOYN845TEJIH","3THR0FZ95PF7SK0MYRNAOUHTWDJOLG","","null","<img src=""img/land3.png"" style=""width:200px;border:14px solid red;"">","null","","","","","","","","","",""
"","image-keyboard-response","325","131339","0.0-325.0","336YQZE83W07CCAJKQXS4KSFN9T5MG","A3NOYN845TEJIH","3THR0FZ95PF7SK0MYRNAOUHTWDJOLG","","219.59999999403954","img/land3.png","76","220.59999999403954","3","0","2","2","0.8,0.2,0.2,0.2,0.8,0.2,0.2,0.2,0.8","0.2,0.2,0.8,0.8,0.2,0.2,0.2,0.8,0.2","2","",""
"","html-keyboard-response","326","131642","0.0-326.0","336YQZE83W07CCAJKQXS4KSFN9T5MG","A3NOYN845TEJIH","3THR0FZ95PF7SK0MYRNAOUHTWDJOLG","","null","<img src=""img/land3.png"" style=""width:200px;border:14px solid red;"">","null","","","","","","","","","",""
"","image-keyboard-response","327","131723","0.0-327.0","336YQZE83W07CCAJKQXS4KSFN9T5MG","A3NOYN845TEJIH","3THR0FZ95PF7SK0MYRNAOUHTWDJOLG","","79.5","img/land6.png","75","80.80000001192093","2","1","3","2","0.8,0.2,0.2,0.2,0.8,0.2,0.2,0.2,0.8","0.2,0.2,0.8,0.8,0.2,0.2,0.2,0.8,0.2","2","",""
"","html-keyboard-response","328","132025","0.0-328.0","336YQZE83W07CCAJKQXS4KSFN9T5MG","A3NOYN845TEJIH","3THR0FZ95PF7SK0MYRNAOUHTWDJOLG","","null","<img src=""img/land6.png"" style=""width:200px; border:14px solid green;"">","null","","","","","","","","","",""
"","image-keyboard-response","329","132669","0.0-329.0","336YQZE83W07CCAJKQXS4KSFN9T5MG","A3NOYN845TEJIH","3THR0FZ95PF7SK0MYRNAOUHTWDJOLG","","642.2999999821186","img/land2.png","75","643.4000000059605","2","0","1","2","0.8,0.2,0.2,0.2,0.8,0.2,0.2,0.2,0.8","0.2,0.2,0.8,0.8,0.2,0.2,0.2,0.8,0.2","2","",""
"","html-keyboard-response","330","132971","0.0-330.0","336YQZE83W07CCAJKQXS4KSFN9T5MG","A3NOYN845TEJIH","3THR0FZ95PF7SK0MYRNAOUHTWDJOLG","","null","<img src=""img/land2.png"" style=""width:200px;border:14px solid red;"">","null","","","","","","","","","",""
"","image-keyboard-response","331","133352","0.0-331.0","336YQZE83W07CCAJKQXS4KSFN9T5MG","A3NOYN845TEJIH","3THR0FZ95PF7SK0MYRNAOUHTWDJOLG","","379.30000001192093","img/land2.png","75","380.7000000178814","2","0","1","2","0.8,0.2,0.2,0.2,0.8,0.2,0.2,0.2,0.8","0.2,0.2,0.8,0.8,0.2,0.2,0.2,0.8,0.2","2","",""
"","html-keyboard-response","332","133654","0.0-332.0","336YQZE83W07CCAJKQXS4KSFN9T5MG","A3NOYN845TEJIH","3THR0FZ95PF7SK0MYRNAOUHTWDJOLG","","null","<img src=""img/land2.png"" style=""width:200px;border:14px solid red;"">","null","","","","","","","","","",""
"","image-keyboard-response","333","133902","0.0-333.0","336YQZE83W07CCAJKQXS4KSFN9T5MG","A3NOYN845TEJIH","3THR0FZ95PF7SK0MYRNAOUHTWDJOLG","","246.5","img/land2.png","76","247.5","3","1","1","2","0.8,0.2,0.2,0.2,0.8,0.2,0.2,0.2,0.8","0.2,0.2,0.8,0.8,0.2,0.2,0.2,0.8,0.2","2","",""
"","html-keyboard-response","334","134204","0.0-334.0","336YQZE83W07CCAJKQXS4KSFN9T5MG","A3NOYN845TEJIH","3THR0FZ95PF7SK0MYRNAOUHTWDJOLG","","null","<img src=""img/land2.png"" style=""width:200px; border:14px solid green;"">","null","","","","","","","","","",""
"","image-keyboard-response","335","134552","0.0-335.0","336YQZE83W07CCAJKQXS4KSFN9T5MG","A3NOYN845TEJIH","3THR0FZ95PF7SK0MYRNAOUHTWDJOLG","","345.90000000596046","img/land2.png","76","347.09999999403954","3","1","1","2","0.8,0.2,0.2,0.2,0.8,0.2,0.2,0.2,0.8","0.2,0.2,0.8,0.8,0.2,0.2,0.2,0.8,0.2","2","",""
"","html-keyboard-response","336","134854","0.0-336.0","336YQZE83W07CCAJKQXS4KSFN9T5MG","A3NOYN845TEJIH","3THR0FZ95PF7SK0MYRNAOUHTWDJOLG","","null","<img src=""img/land2.png"" style=""width:200px; border:14px solid green;"">","null","","","","","","","","","",""
"","image-keyboard-response","337","134978","0.0-337.0","336YQZE83W07CCAJKQXS4KSFN9T5MG","A3NOYN845TEJIH","3THR0FZ95PF7SK0MYRNAOUHTWDJOLG","","123.09999999403954","img/land3.png","76","124.19999998807907","3","0","2","2","0.8,0.2,0.2,0.2,0.8,0.2,0.2,0.2,0.8","0.2,0.2,0.8,0.8,0.2,0.2,0.2,0.8,0.2","2","",""
"","html-keyboard-response","338","135281","0.0-338.0","336YQZE83W07CCAJKQXS4KSFN9T5MG","A3NOYN845TEJIH","3THR0FZ95PF7SK0MYRNAOUHTWDJOLG","","null","<img src=""img/land3.png"" style=""width:200px;border:14px solid red;"">","null","","","","","","","","","",""
"","image-keyboard-response","339","135702","0.0-339.0","336YQZE83W07CCAJKQXS4KSFN9T5MG","A3NOYN845TEJIH","3THR0FZ95PF7SK0MYRNAOUHTWDJOLG","","420.2999999821186","img/land2.png","76","421.5","3","1","1","2","0.8,0.2,0.2,0.2,0.8,0.2,0.2,0.2,0.8","0.2,0.2,0.8,0.8,0.2,0.2,0.2,0.8,0.2","2","",""
"","html-keyboard-response","340","136005","0.0-340.0","336YQZE83W07CCAJKQXS4KSFN9T5MG","A3NOYN845TEJIH","3THR0FZ95PF7SK0MYRNAOUHTWDJOLG","","null","<img src=""img/land2.png"" style=""width:200px; border:14px solid green;"">","null","","","","","","","","","",""
"","image-keyboard-response","341","136337","0.0-341.0","336YQZE83W07CCAJKQXS4KSFN9T5MG","A3NOYN845TEJIH","3THR0FZ95PF7SK0MYRNAOUHTWDJOLG","","331.69999998807907","img/land2.png","76","332.5","3","1","1","2","0.8,0.2,0.2,0.2,0.8,0.2,0.2,0.2,0.8","0.2,0.2,0.8,0.8,0.2,0.2,0.2,0.8,0.2","2","",""
"","html-keyboard-response","342","136640","0.0-342.0","336YQZE83W07CCAJKQXS4KSFN9T5MG","A3NOYN845TEJIH","3THR0FZ95PF7SK0MYRNAOUHTWDJOLG","","null","<img src=""img/land2.png"" style=""width:200px; border:14px solid green;"">","null","","","","","","","","","",""
"","image-keyboard-response","343","136903","0.0-343.0","336YQZE83W07CCAJKQXS4KSFN9T5MG","A3NOYN845TEJIH","3THR0FZ95PF7SK0MYRNAOUHTWDJOLG","","262.40000000596046","img/land3.png","76","263.5","3","0","2","2","0.8,0.2,0.2,0.2,0.8,0.2,0.2,0.2,0.8","0.2,0.2,0.8,0.8,0.2,0.2,0.2,0.8,0.2","2","",""
"","html-keyboard-response","344","137206","0.0-344.0","336YQZE83W07CCAJKQXS4KSFN9T5MG","A3NOYN845TEJIH","3THR0FZ95PF7SK0MYRNAOUHTWDJOLG","","null","<img src=""img/land3.png"" style=""width:200px;border:14px solid red;"">","null","","","","","","","","","",""
"","image-keyboard-response","345","138073","0.0-345.0","336YQZE83W07CCAJKQXS4KSFN9T5MG","A3NOYN845TEJIH","3THR0FZ95PF7SK0MYRNAOUHTWDJOLG","","866.4000000059605","img/land2.png","76","867.3000000119209","3","1","1","2","0.8,0.2,0.2,0.2,0.8,0.2,0.2,0.2,0.8","0.2,0.2,0.8,0.8,0.2,0.2,0.2,0.8,0.2","2","",""
"","html-keyboard-response","346","138379","0.0-346.0","336YQZE83W07CCAJKQXS4KSFN9T5MG","A3NOYN845TEJIH","3THR0FZ95PF7SK0MYRNAOUHTWDJOLG","","null","<img src=""img/land2.png"" style=""width:200px; border:14px solid green;"">","null","","","","","","","","","",""
"","image-keyboard-response","347","138643","0.0-347.0","336YQZE83W07CCAJKQXS4KSFN9T5MG","A3NOYN845TEJIH","3THR0FZ95PF7SK0MYRNAOUHTWDJOLG","","261.80000001192093","img/land2.png","76","262.69999998807907","3","1","1","2","0.8,0.2,0.2,0.2,0.8,0.2,0.2,0.2,0.8","0.2,0.2,0.8,0.8,0.2,0.2,0.2,0.8,0.2","2","",""
"","html-keyboard-response","348","138945","0.0-348.0","336YQZE83W07CCAJKQXS4KSFN9T5MG","A3NOYN845TEJIH","3THR0FZ95PF7SK0MYRNAOUHTWDJOLG","","null","<img src=""img/land2.png"" style=""width:200px; border:14px solid green;"">","null","","","","","","","","","",""
"","image-keyboard-response","349","139249","0.0-349.0","336YQZE83W07CCAJKQXS4KSFN9T5MG","A3NOYN845TEJIH","3THR0FZ95PF7SK0MYRNAOUHTWDJOLG","","303","img/land3.png","76","304.2000000178814","3","0","2","2","0.8,0.2,0.2,0.2,0.8,0.2,0.2,0.2,0.8","0.2,0.2,0.8,0.8,0.2,0.2,0.2,0.8,0.2","2","",""
"","html-keyboard-response","350","139552","0.0-350.0","336YQZE83W07CCAJKQXS4KSFN9T5MG","A3NOYN845TEJIH","3THR0FZ95PF7SK0MYRNAOUHTWDJOLG","","null","<img src=""img/land3.png"" style=""width:200px;border:14px solid red;"">","null","","","","","","","","","",""
"","image-keyboard-response","351","140180","0.0-351.0","336YQZE83W07CCAJKQXS4KSFN9T5MG","A3NOYN845TEJIH","3THR0FZ95PF7SK0MYRNAOUHTWDJOLG","","626.1999999880791","img/land2.png","76","627.1000000238419","3","0","1","2","0.8,0.2,0.2,0.2,0.8,0.2,0.2,0.2,0.8","0.2,0.2,0.8,0.8,0.2,0.2,0.2,0.8,0.2","2","",""
"","html-keyboard-response","352","140483","0.0-352.0","336YQZE83W07CCAJKQXS4KSFN9T5MG","A3NOYN845TEJIH","3THR0FZ95PF7SK0MYRNAOUHTWDJOLG","","null","<img src=""img/land2.png"" style=""width:200px;border:14px solid red;"">","null","","","","","","","","","",""
"","image-keyboard-response","353","140723","0.0-353.0","336YQZE83W07CCAJKQXS4KSFN9T5MG","A3NOYN845TEJIH","3THR0FZ95PF7SK0MYRNAOUHTWDJOLG","","238.59999999403954","img/land6.png","76","239.7000000178814","3","0","3","2","0.8,0.2,0.2,0.2,0.8,0.2,0.2,0.2,0.8","0.2,0.2,0.8,0.8,0.2,0.2,0.2,0.8,0.2","2","",""
"","html-keyboard-response","354","141026","0.0-354.0","336YQZE83W07CCAJKQXS4KSFN9T5MG","A3NOYN845TEJIH","3THR0FZ95PF7SK0MYRNAOUHTWDJOLG","","null","<img src=""img/land6.png"" style=""width:200px;border:14px solid red;"">","null","","","","","","","","","",""
"","image-keyboard-response","355","141134","0.0-355.0","336YQZE83W07CCAJKQXS4KSFN9T5MG","A3NOYN845TEJIH","3THR0FZ95PF7SK0MYRNAOUHTWDJOLG","","106.69999998807907","img/land2.png","74","107.90000000596046","1","0","1","2","0.8,0.2,0.2,0.2,0.8,0.2,0.2,0.2,0.8","0.2,0.2,0.8,0.8,0.2,0.2,0.2,0.8,0.2","2","",""
