"success","trial_type","trial_index","time_elapsed","internal_node_id","assignmentID","mturkID","hitID","view_history","rt","stimulus","key_press","reactionTime","a","r","s","cond","reward_cond","reward_cond_actual","reward_matrix_idx","responses","question_order"
"true","fullscreen","0","2898","0.0-0.0","38F5OAUN5OY072NRHMWCAZYFXTV7HU","A3O2D2BUS92BCA","3XT3KXP24ZKFDDMCDS43FE3AU9W6IW","","","","","","","","","","","","","",""
"","instructions","1","19826","0.0-1.0","38F5OAUN5OY072NRHMWCAZYFXTV7HU","A3O2D2BUS92BCA","3XT3KXP24ZKFDDMCDS43FE3AU9W6IW","[{""page_index"":0,""viewing_time"":2008},{""page_index"":1,""viewing_time"":2182},{""page_index"":2,""viewing_time"":4056},{""page_index"":3,""viewing_time"":2320},{""page_index"":4,""viewing_time"":3647},{""page_index"":5,""viewing_time"":1457},{""page_index"":6,""viewing_time"":1256}]","16926","","","","","","","","","","","",""
"","image-keyboard-response","2","21318","0.0-2.0","38F5OAUN5OY072NRHMWCAZYFXTV7HU","A3O2D2BUS92BCA","3XT3KXP24ZKFDDMCDS43FE3AU9W6IW","","1489","img/land6.png","74","1491","1","1","2","1","0.8,0.2,0.2,0.2,0.8,0.2,0.2,0.2,0.8","0.8,0.2,0.2,0.2,0.8,0.2,0.2,0.2,0.8","1","",""
"","html-keyboard-response","3","21620","0.0-3.0","38F5OAUN5OY072NRHMWCAZYFXTV7HU","A3O2D2BUS92BCA","3XT3KXP24ZKFDDMCDS43FE3AU9W6IW","","null","<img src=""img/land6.png"" style=""width:200px; border:14px solid green;"">","null","","","","","","","","","",""
"","image-keyboard-response","4","21642","0.0-4.0","38F5OAUN5OY072NRHMWCAZYFXTV7HU","A3O2D2BUS92BCA","3XT3KXP24ZKFDDMCDS43FE3AU9W6IW","","20","img/land1.png","74","22","1","0","3","1","0.8,0.2,0.2,0.2,0.8,0.2,0.2,0.2,0.8","0.8,0.2,0.2,0.2,0.8,0.2,0.2,0.2,0.8","1","",""
"","html-keyboard-response","5","21943","0.0-5.0","38F5OAUN5OY072NRHMWCAZYFXTV7HU","A3O2D2BUS92BCA","3XT3KXP24ZKFDDMCDS43FE3AU9W6IW","","null","<img src=""img/land1.png"" style=""width:200px;border:14px solid red;"">","null","","","","","","","","","",""
"","image-keyboard-response","6","22130","0.0-6.0","38F5OAUN5OY072NRHMWCAZYFXTV7HU","A3O2D2BUS92BCA","3XT3KXP24ZKFDDMCDS43FE3AU9W6IW","","186","img/land6.png","75","187","2","1","2","1","0.8,0.2,0.2,0.2,0.8,0.2,0.2,0.2,0.8","0.8,0.2,0.2,0.2,0.8,0.2,0.2,0.2,0.8","1","",""
"","html-keyboard-response","7","22432","0.0-7.0","38F5OAUN5OY072NRHMWCAZYFXTV7HU","A3O2D2BUS92BCA","3XT3KXP24ZKFDDMCDS43FE3AU9W6IW","","null","<img src=""img/land6.png"" style=""width:200px; border:14px solid green;"">","null","","","","","","","","","",""
"","image-keyboard-response","8","22678","0.0-8.0","38F5OAUN5OY072NRHMWCAZYFXTV7HU","A3O2D2BUS92BCA","3XT3KXP24ZKFDDMCDS43FE3AU9W6IW","","245","img/land3.png","74","246","1","0","1","1","0.8,0.2,0.2,0.2,0.8,0.2,0.2,0.2,0.8","0.8,0.2,0.2,0.2,0.8,0.2,0.2,0.2,0.8","1","",""
"","html-keyboard-response","9","22980","0.0-9.0","38F5OAUN5OY072NRHMWCAZYFXTV7HU","A3O2D2BUS92BCA","3XT3KXP24ZKFDDMCDS43FE3AU9W6IW","","null","<img src=""img/land3.png"" style=""width:200px;border:14px solid red;"">","null","","","","","","","","","",""
"","image-keyboard-response","10","23064","0.0-10.0","38F5OAUN5OY072NRHMWCAZYFXTV7HU","A3O2D2BUS92BCA","3XT3KXP24ZKFDDMCDS43FE3AU9W6IW","","83","img/land1.png","74","84","1","0","3","1","0.8,0.2,0.2,0.2,0.8,0.2,0.2,0.2,0.8","0.8,0.2,0.2,0.2,0.8,0.2,0.2,0.2,0.8","1","",""
"","html-keyboard-response","11","23364","0.0-11.0","38F5OAUN5OY072NRHMWCAZYFXTV7HU","A3O2D2BUS92BCA","3XT3KXP24ZKFDDMCDS43FE3AU9W6IW","","null","<img src=""img/land1.png"" style=""width:200px;border:14px solid red;"">","null","","","","","","","","","",""
"","image-keyboard-response","12","23400","0.0-12.0","38F5OAUN5OY072NRHMWCAZYFXTV7HU","A3O2D2BUS92BCA","3XT3KXP24ZKFDDMCDS43FE3AU9W6IW","","35","img/land6.png","74","36","1","1","2","1","0.8,0.2,0.2,0.2,0.8,0.2,0.2,0.2,0.8","0.8,0.2,0.2,0.2,0.8,0.2,0.2,0.2,0.8","1","",""
"","html-keyboard-response","13","23701","0.0-13.0","38F5OAUN5OY072NRHMWCAZYFXTV7HU","A3O2D2BUS92BCA","3XT3KXP24ZKFDDMCDS43FE3AU9W6IW","","null","<img src=""img/land6.png"" style=""width:200px; border:14px solid green;"">","null","","","","","","","","","",""
"","image-keyboard-response","14","23817","0.0-14.0","38F5OAUN5OY072NRHMWCAZYFXTV7HU","A3O2D2BUS92BCA","3XT3KXP24ZKFDDMCDS43FE3AU9W6IW","","115","img/land3.png","76","116","3","0","1","1","0.8,0.2,0.2,0.2,0.8,0.2,0.2,0.2,0.8","0.8,0.2,0.2,0.2,0.8,0.2,0.2,0.2,0.8","1","",""
"","html-keyboard-response","15","24119","0.0-15.0","38F5OAUN5OY072NRHMWCAZYFXTV7HU","A3O2D2BUS92BCA","3XT3KXP24ZKFDDMCDS43FE3AU9W6IW","","null","<img src=""img/land3.png"" style=""width:200px;border:14px solid red;"">","null","","","","","","","","","",""
"","image-keyboard-response","16","24155","0.0-16.0","38F5OAUN5OY072NRHMWCAZYFXTV7HU","A3O2D2BUS92BCA","3XT3KXP24ZKFDDMCDS43FE3AU9W6IW","","36","img/land1.png","75","36","2","0","3","1","0.8,0.2,0.2,0.2,0.8,0.2,0.2,0.2,0.8","0.8,0.2,0.2,0.2,0.8,0.2,0.2,0.2,0.8","1","",""
"","html-keyboard-response","17","24456","0.0-17.0","38F5OAUN5OY072NRHMWCAZYFXTV7HU","A3O2D2BUS92BCA","3XT3KXP24ZKFDDMCDS43FE3AU9W6IW","","null","<img src=""img/land1.png"" style=""width:200px;border:14px solid red;"">","null","","","","","","","","","",""
"","image-keyboard-response","18","24481","0.0-18.0","38F5OAUN5OY072NRHMWCAZYFXTV7HU","A3O2D2BUS92BCA","3XT3KXP24ZKFDDMCDS43FE3AU9W6IW","","25","img/land1.png","75","25","2","0","3","1","0.8,0.2,0.2,0.2,0.8,0.2,0.2,0.2,0.8","0.8,0.2,0.2,0.2,0.8,0.2,0.2,0.2,0.8","1","",""
"","html-keyboard-response","19","24782","0.0-19.0","38F5OAUN5OY072NRHMWCAZYFXTV7HU","A3O2D2BUS92BCA","3XT3KXP24ZKFDDMCDS43FE3AU9W6IW","","null","<img src=""img/land1.png"" style=""width:200px;border:14px solid red;"">","null","","","","","","","","","",""
"","image-keyboard-response","20","24831","0.0-20.0","38F5OAUN5OY072NRHMWCAZYFXTV7HU","A3O2D2BUS92BCA","3XT3KXP24ZKFDDMCDS43FE3AU9W6IW","","48","img/land3.png","74","50","1","1","1","1","0.8,0.2,0.2,0.2,0.8,0.2,0.2,0.2,0.8","0.8,0.2,0.2,0.2,0.8,0.2,0.2,0.2,0.8","1","",""
"","html-keyboard-response","21","25133","0.0-21.0","38F5OAUN5OY072NRHMWCAZYFXTV7HU","A3O2D2BUS92BCA","3XT3KXP24ZKFDDMCDS43FE3AU9W6IW","","null","<img src=""img/land3.png"" style=""width:200px; border:14px solid green;"">","null","","","","","","","","","",""
"","image-keyboard-response","22","25286","0.0-22.0","38F5OAUN5OY072NRHMWCAZYFXTV7HU","A3O2D2BUS92BCA","3XT3KXP24ZKFDDMCDS43FE3AU9W6IW","","153","img/land1.png","75","153","2","0","3","1","0.8,0.2,0.2,0.2,0.8,0.2,0.2,0.2,0.8","0.8,0.2,0.2,0.2,0.8,0.2,0.2,0.2,0.8","1","",""
"","html-keyboard-response","23","25588","0.0-23.0","38F5OAUN5OY072NRHMWCAZYFXTV7HU","A3O2D2BUS92BCA","3XT3KXP24ZKFDDMCDS43FE3AU9W6IW","","null","<img src=""img/land1.png"" style=""width:200px;border:14px solid red;"">","null","","","","","","","","","",""
"","image-keyboard-response","24","25594","0.0-24.0","38F5OAUN5OY072NRHMWCAZYFXTV7HU","A3O2D2BUS92BCA","3XT3KXP24ZKFDDMCDS43FE3AU9W6IW","","5","img/land6.png","76","6","3","0","2","1","0.8,0.2,0.2,0.2,0.8,0.2,0.2,0.2,0.8","0.8,0.2,0.2,0.2,0.8,0.2,0.2,0.2,0.8","1","",""
"","html-keyboard-response","25","25896","0.0-25.0","38F5OAUN5OY072NRHMWCAZYFXTV7HU","A3O2D2BUS92BCA","3XT3KXP24ZKFDDMCDS43FE3AU9W6IW","","null","<img src=""img/land6.png"" style=""width:200px;border:14px solid red;"">","null","","","","","","","","","",""
"","image-keyboard-response","26","26003","0.0-26.0","38F5OAUN5OY072NRHMWCAZYFXTV7HU","A3O2D2BUS92BCA","3XT3KXP24ZKFDDMCDS43FE3AU9W6IW","","107","img/land6.png","74","107","1","1","2","1","0.8,0.2,0.2,0.2,0.8,0.2,0.2,0.2,0.8","0.8,0.2,0.2,0.2,0.8,0.2,0.2,0.2,0.8","1","",""
"","html-keyboard-response","27","26305","0.0-27.0","38F5OAUN5OY072NRHMWCAZYFXTV7HU","A3O2D2BUS92BCA","3XT3KXP24ZKFDDMCDS43FE3AU9W6IW","","null","<img src=""img/land6.png"" style=""width:200px; border:14px solid green;"">","null","","","","","","","","","",""
"","image-keyboard-response","28","26446","0.0-28.0","38F5OAUN5OY072NRHMWCAZYFXTV7HU","A3O2D2BUS92BCA","3XT3KXP24ZKFDDMCDS43FE3AU9W6IW","","140","img/land3.png","75","141","2","1","1","1","0.8,0.2,0.2,0.2,0.8,0.2,0.2,0.2,0.8","0.8,0.2,0.2,0.2,0.8,0.2,0.2,0.2,0.8","1","",""
"","html-keyboard-response","29","26749","0.0-29.0","38F5OAUN5OY072NRHMWCAZYFXTV7HU","A3O2D2BUS92BCA","3XT3KXP24ZKFDDMCDS43FE3AU9W6IW","","null","<img src=""img/land3.png"" style=""width:200px; border:14px solid green;"">","null","","","","","","","","","",""
"","image-keyboard-response","30","26754","0.0-30.0","38F5OAUN5OY072NRHMWCAZYFXTV7HU","A3O2D2BUS92BCA","3XT3KXP24ZKFDDMCDS43FE3AU9W6IW","","4","img/land1.png","75","5","2","0","3","1","0.8,0.2,0.2,0.2,0.8,0.2,0.2,0.2,0.8","0.8,0.2,0.2,0.2,0.8,0.2,0.2,0.2,0.8","1","",""
"","html-keyboard-response","31","27054","0.0-31.0","38F5OAUN5OY072NRHMWCAZYFXTV7HU","A3O2D2BUS92BCA","3XT3KXP24ZKFDDMCDS43FE3AU9W6IW","","null","<img src=""img/land1.png"" style=""width:200px;border:14px solid red;"">","null","","","","","","","","","",""
"","image-keyboard-response","32","27072","0.0-32.0","38F5OAUN5OY072NRHMWCAZYFXTV7HU","A3O2D2BUS92BCA","3XT3KXP24ZKFDDMCDS43FE3AU9W6IW","","18","img/land3.png","76","18","3","0","1","1","0.8,0.2,0.2,0.2,0.8,0.2,0.2,0.2,0.8","0.8,0.2,0.2,0.2,0.8,0.2,0.2,0.2,0.8","1","",""
"","html-keyboard-response","33","27443","0.0-33.0","38F5OAUN5OY072NRHMWCAZYFXTV7HU","A3O2D2BUS92BCA","3XT3KXP24ZKFDDMCDS43FE3AU9W6IW","","null","<img src=""img/land3.png"" style=""width:200px;border:14px solid red;"">","null","","","","","","","","","",""
"","image-keyboard-response","34","27499","0.0-34.0","38F5OAUN5OY072NRHMWCAZYFXTV7HU","A3O2D2BUS92BCA","3XT3KXP24ZKFDDMCDS43FE3AU9W6IW","","55","img/land1.png","74","56","1","1","3","1","0.8,0.2,0.2,0.2,0.8,0.2,0.2,0.2,0.8","0.8,0.2,0.2,0.2,0.8,0.2,0.2,0.2,0.8","1","",""
"","html-keyboard-response","35","27800","0.0-35.0","38F5OAUN5OY072NRHMWCAZYFXTV7HU","A3O2D2BUS92BCA","3XT3KXP24ZKFDDMCDS43FE3AU9W6IW","","null","<img src=""img/land1.png"" style=""width:200px; border:14px solid green;"">","null","","","","","","","","","",""
"","image-keyboard-response","36","27957","0.0-36.0","38F5OAUN5OY072NRHMWCAZYFXTV7HU","A3O2D2BUS92BCA","3XT3KXP24ZKFDDMCDS43FE3AU9W6IW","","156","img/land3.png","75","157","2","0","1","1","0.8,0.2,0.2,0.2,0.8,0.2,0.2,0.2,0.8","0.8,0.2,0.2,0.2,0.8,0.2,0.2,0.2,0.8","1","",""
"","html-keyboard-response","37","28257","0.0-37.0","38F5OAUN5OY072NRHMWCAZYFXTV7HU","A3O2D2BUS92BCA","3XT3KXP24ZKFDDMCDS43FE3AU9W6IW","","null","<img src=""img/land3.png"" style=""width:200px;border:14px solid red;"">","null","","","","","","","","","",""
"","image-keyboard-response","38","28381","0.0-38.0","38F5OAUN5OY072NRHMWCAZYFXTV7HU","A3O2D2BUS92BCA","3XT3KXP24ZKFDDMCDS43FE3AU9W6IW","","124","img/land3.png","74","124","1","1","1","1","0.8,0.2,0.2,0.2,0.8,0.2,0.2,0.2,0.8","0.8,0.2,0.2,0.2,0.8,0.2,0.2,0.2,0.8","1","",""
"","html-keyboard-response","39","28682","0.0-39.0","38F5OAUN5OY072NRHMWCAZYFXTV7HU","A3O2D2BUS92BCA","3XT3KXP24ZKFDDMCDS43FE3AU9W6IW","","null","<img src=""img/land3.png"" style=""width:200px; border:14px solid green;"">","null","","","","","","","","","",""
"","image-keyboard-response","40","28861","0.0-40.0","38F5OAUN5OY072NRHMWCAZYFXTV7HU","A3O2D2BUS92BCA","3XT3KXP24ZKFDDMCDS43FE3AU9W6IW","","178","img/land6.png","75","179","2","1","2","1","0.8,0.2,0.2,0.2,0.8,0.2,0.2,0.2,0.8","0.8,0.2,0.2,0.2,0.8,0.2,0.2,0.2,0.8","1","",""
"","html-keyboard-response","41","29161","0.0-41.0","38F5OAUN5OY072NRHMWCAZYFXTV7HU","A3O2D2BUS92BCA","3XT3KXP24ZKFDDMCDS43FE3AU9W6IW","","null","<img src=""img/land6.png"" style=""width:200px; border:14px solid green;"">","null","","","","","","","","","",""
"","image-keyboard-response","42","29205","0.0-42.0","38F5OAUN5OY072NRHMWCAZYFXTV7HU","A3O2D2BUS92BCA","3XT3KXP24ZKFDDMCDS43FE3AU9W6IW","","42","img/land1.png","75","44","2","0","3","1","0.8,0.2,0.2,0.2,0.8,0.2,0.2,0.2,0.8","0.8,0.2,0.2,0.2,0.8,0.2,0.2,0.2,0.8","1","",""
"","html-keyboard-response","43","29507","0.0-43.0","38F5OAUN5OY072NRHMWCAZYFXTV7HU","A3O2D2BUS92BCA","3XT3KXP24ZKFDDMCDS43FE3AU9W6IW","","null","<img src=""img/land1.png"" style=""width:200px;border:14px solid red;"">","null","","","","","","","","","",""
"","image-keyboard-response","44","29591","0.0-44.0","38F5OAUN5OY072NRHMWCAZYFXTV7HU","A3O2D2BUS92BCA","3XT3KXP24ZKFDDMCDS43FE3AU9W6IW","","84","img/land1.png","76","84","3","1","3","1","0.8,0.2,0.2,0.2,0.8,0.2,0.2,0.2,0.8","0.8,0.2,0.2,0.2,0.8,0.2,0.2,0.2,0.8","1","",""
"","html-keyboard-response","45","29922","0.0-45.0","38F5OAUN5OY072NRHMWCAZYFXTV7HU","A3O2D2BUS92BCA","3XT3KXP24ZKFDDMCDS43FE3AU9W6IW","","null","<img src=""img/land1.png"" style=""width:200px; border:14px solid green;"">","null","","","","","","","","","",""
"","image-keyboard-response","46","29941","0.0-46.0","38F5OAUN5OY072NRHMWCAZYFXTV7HU","A3O2D2BUS92BCA","3XT3KXP24ZKFDDMCDS43FE3AU9W6IW","","15","img/land3.png","76","18","3","0","1","1","0.8,0.2,0.2,0.2,0.8,0.2,0.2,0.2,0.8","0.8,0.2,0.2,0.2,0.8,0.2,0.2,0.2,0.8","1","",""
"","html-keyboard-response","47","30243","0.0-47.0","38F5OAUN5OY072NRHMWCAZYFXTV7HU","A3O2D2BUS92BCA","3XT3KXP24ZKFDDMCDS43FE3AU9W6IW","","null","<img src=""img/land3.png"" style=""width:200px;border:14px solid red;"">","null","","","","","","","","","",""
"","image-keyboard-response","48","30251","0.0-48.0","38F5OAUN5OY072NRHMWCAZYFXTV7HU","A3O2D2BUS92BCA","3XT3KXP24ZKFDDMCDS43FE3AU9W6IW","","6","img/land3.png","75","8","2","0","1","1","0.8,0.2,0.2,0.2,0.8,0.2,0.2,0.2,0.8","0.8,0.2,0.2,0.2,0.8,0.2,0.2,0.2,0.8","1","",""
"","html-keyboard-response","49","30560","0.0-49.0","38F5OAUN5OY072NRHMWCAZYFXTV7HU","A3O2D2BUS92BCA","3XT3KXP24ZKFDDMCDS43FE3AU9W6IW","","null","<img src=""img/land3.png"" style=""width:200px;border:14px solid red;"">","null","","","","","","","","","",""
"","image-keyboard-response","50","30610","0.0-50.0","38F5OAUN5OY072NRHMWCAZYFXTV7HU","A3O2D2BUS92BCA","3XT3KXP24ZKFDDMCDS43FE3AU9W6IW","","49","img/land1.png","75","49","2","0","3","1","0.8,0.2,0.2,0.2,0.8,0.2,0.2,0.2,0.8","0.8,0.2,0.2,0.2,0.8,0.2,0.2,0.2,0.8","1","",""
"","html-keyboard-response","51","30911","0.0-51.0","38F5OAUN5OY072NRHMWCAZYFXTV7HU","A3O2D2BUS92BCA","3XT3KXP24ZKFDDMCDS43FE3AU9W6IW","","null","<img src=""img/land1.png"" style=""width:200px;border:14px solid red;"">","null","","","","","","","","","",""
"","image-keyboard-response","52","31053","0.0-52.0","38F5OAUN5OY072NRHMWCAZYFXTV7HU","A3O2D2BUS92BCA","3XT3KXP24ZKFDDMCDS43FE3AU9W6IW","","140","img/land1.png","74","142","1","0","3","1","0.8,0.2,0.2,0.2,0.8,0.2,0.2,0.2,0.8","0.8,0.2,0.2,0.2,0.8,0.2,0.2,0.2,0.8","1","",""
"","html-keyboard-response","53","31378","0.0-53.0","38F5OAUN5OY072NRHMWCAZYFXTV7HU","A3O2D2BUS92BCA","3XT3KXP24ZKFDDMCDS43FE3AU9W6IW","","null","<img src=""img/land1.png"" style=""width:200px;border:14px solid red;"">","null","","","","","","","","","",""
"","image-keyboard-response","54","31387","0.0-54.0","38F5OAUN5OY072NRHMWCAZYFXTV7HU","A3O2D2BUS92BCA","3XT3KXP24ZKFDDMCDS43FE3AU9W6IW","","8","img/land6.png","74","8","1","0","2","1","0.8,0.2,0.2,0.2,0.8,0.2,0.2,0.2,0.8","0.8,0.2,0.2,0.2,0.8,0.2,0.2,0.2,0.8","1","",""
"","html-keyboard-response","55","31688","0.0-55.0","38F5OAUN5OY072NRHMWCAZYFXTV7HU","A3O2D2BUS92BCA","3XT3KXP24ZKFDDMCDS43FE3AU9W6IW","","null","<img src=""img/land6.png"" style=""width:200px;border:14px solid red;"">","null","","","","","","","","","",""
"","image-keyboard-response","56","31726","0.0-56.0","38F5OAUN5OY072NRHMWCAZYFXTV7HU","A3O2D2BUS92BCA","3XT3KXP24ZKFDDMCDS43FE3AU9W6IW","","37","img/land3.png","74","38","1","0","1","1","0.8,0.2,0.2,0.2,0.8,0.2,0.2,0.2,0.8","0.8,0.2,0.2,0.2,0.8,0.2,0.2,0.2,0.8","1","",""
"","html-keyboard-response","57","32026","0.0-57.0","38F5OAUN5OY072NRHMWCAZYFXTV7HU","A3O2D2BUS92BCA","3XT3KXP24ZKFDDMCDS43FE3AU9W6IW","","null","<img src=""img/land3.png"" style=""width:200px;border:14px solid red;"">","null","","","","","","","","","",""
"","image-keyboard-response","58","32032","0.0-58.0","38F5OAUN5OY072NRHMWCAZYFXTV7HU","A3O2D2BUS92BCA","3XT3KXP24ZKFDDMCDS43FE3AU9W6IW","","5","img/land6.png","74","6","1","0","2","1","0.8,0.2,0.2,0.2,0.8,0.2,0.2,0.2,0.8","0.8,0.2,0.2,0.2,0.8,0.2,0.2,0.2,0.8","1","",""
"","html-keyboard-response","59","32332","0.0-59.0","38F5OAUN5OY072NRHMWCAZYFXTV7HU","A3O2D2BUS92BCA","3XT3KXP24ZKFDDMCDS43FE3AU9W6IW","","null","<img src=""img/land6.png"" style=""width:200px;border:14px solid red;"">","null","","","","","","","","","",""
"","image-keyboard-response","60","32488","0.0-60.0","38F5OAUN5OY072NRHMWCAZYFXTV7HU","A3O2D2BUS92BCA","3XT3KXP24ZKFDDMCDS43FE3AU9W6IW","","156","img/land3.png","76","156","3","0","1","1","0.8,0.2,0.2,0.2,0.8,0.2,0.2,0.2,0.8","0.8,0.2,0.2,0.2,0.8,0.2,0.2,0.2,0.8","1","",""
"","html-keyboard-response","61","32790","0.0-61.0","38F5OAUN5OY072NRHMWCAZYFXTV7HU","A3O2D2BUS92BCA","3XT3KXP24ZKFDDMCDS43FE3AU9W6IW","","null","<img src=""img/land3.png"" style=""width:200px;border:14px solid red;"">","null","","","","","","","","","",""
"","image-keyboard-response","62","32815","0.0-62.0","38F5OAUN5OY072NRHMWCAZYFXTV7HU","A3O2D2BUS92BCA","3XT3KXP24ZKFDDMCDS43FE3AU9W6IW","","25","img/land3.png","75","25","2","0","1","1","0.8,0.2,0.2,0.2,0.8,0.2,0.2,0.2,0.8","0.8,0.2,0.2,0.2,0.8,0.2,0.2,0.2,0.8","1","",""
"","html-keyboard-response","63","33117","0.0-63.0","38F5OAUN5OY072NRHMWCAZYFXTV7HU","A3O2D2BUS92BCA","3XT3KXP24ZKFDDMCDS43FE3AU9W6IW","","null","<img src=""img/land3.png"" style=""width:200px;border:14px solid red;"">","null","","","","","","","","","",""
"","image-keyboard-response","64","33145","0.0-64.0","38F5OAUN5OY072NRHMWCAZYFXTV7HU","A3O2D2BUS92BCA","3XT3KXP24ZKFDDMCDS43FE3AU9W6IW","","26","img/land6.png","75","28","2","1","2","1","0.8,0.2,0.2,0.2,0.8,0.2,0.2,0.2,0.8","0.8,0.2,0.2,0.2,0.8,0.2,0.2,0.2,0.8","1","",""
"","html-keyboard-response","65","33495","0.0-65.0","38F5OAUN5OY072NRHMWCAZYFXTV7HU","A3O2D2BUS92BCA","3XT3KXP24ZKFDDMCDS43FE3AU9W6IW","","null","<img src=""img/land6.png"" style=""width:200px; border:14px solid green;"">","null","","","","","","","","","",""
"","image-keyboard-response","66","33504","0.0-66.0","38F5OAUN5OY072NRHMWCAZYFXTV7HU","A3O2D2BUS92BCA","3XT3KXP24ZKFDDMCDS43FE3AU9W6IW","","2","img/land1.png","75","8","2","0","3","1","0.8,0.2,0.2,0.2,0.8,0.2,0.2,0.2,0.8","0.8,0.2,0.2,0.2,0.8,0.2,0.2,0.2,0.8","1","",""
"","html-keyboard-response","67","33807","0.0-67.0","38F5OAUN5OY072NRHMWCAZYFXTV7HU","A3O2D2BUS92BCA","3XT3KXP24ZKFDDMCDS43FE3AU9W6IW","","null","<img src=""img/land1.png"" style=""width:200px;border:14px solid red;"">","null","","","","","","","","","",""
"","image-keyboard-response","68","33919","0.0-68.0","38F5OAUN5OY072NRHMWCAZYFXTV7HU","A3O2D2BUS92BCA","3XT3KXP24ZKFDDMCDS43FE3AU9W6IW","","111","img/land6.png","74","112","1","1","2","1","0.8,0.2,0.2,0.2,0.8,0.2,0.2,0.2,0.8","0.8,0.2,0.2,0.2,0.8,0.2,0.2,0.2,0.8","1","",""
"","html-keyboard-response","69","34221","0.0-69.0","38F5OAUN5OY072NRHMWCAZYFXTV7HU","A3O2D2BUS92BCA","3XT3KXP24ZKFDDMCDS43FE3AU9W6IW","","null","<img src=""img/land6.png"" style=""width:200px; border:14px solid green;"">","null","","","","","","","","","",""
"","image-keyboard-response","70","34366","0.0-70.0","38F5OAUN5OY072NRHMWCAZYFXTV7HU","A3O2D2BUS92BCA","3XT3KXP24ZKFDDMCDS43FE3AU9W6IW","","144","img/land6.png","76","145","3","0","2","1","0.8,0.2,0.2,0.2,0.8,0.2,0.2,0.2,0.8","0.8,0.2,0.2,0.2,0.8,0.2,0.2,0.2,0.8","1","",""
"","html-keyboard-response","71","34668","0.0-71.0","38F5OAUN5OY072NRHMWCAZYFXTV7HU","A3O2D2BUS92BCA","3XT3KXP24ZKFDDMCDS43FE3AU9W6IW","","null","<img src=""img/land6.png"" style=""width:200px;border:14px solid red;"">","null","","","","","","","","","",""
"","image-keyboard-response","72","34800","0.0-72.0","38F5OAUN5OY072NRHMWCAZYFXTV7HU","A3O2D2BUS92BCA","3XT3KXP24ZKFDDMCDS43FE3AU9W6IW","","131","img/land3.png","74","132","1","1","1","1","0.8,0.2,0.2,0.2,0.8,0.2,0.2,0.2,0.8","0.8,0.2,0.2,0.2,0.8,0.2,0.2,0.2,0.8","1","",""
"","html-keyboard-response","73","35102","0.0-73.0","38F5OAUN5OY072NRHMWCAZYFXTV7HU","A3O2D2BUS92BCA","3XT3KXP24ZKFDDMCDS43FE3AU9W6IW","","null","<img src=""img/land3.png"" style=""width:200px; border:14px solid green;"">","null","","","","","","","","","",""
"","image-keyboard-response","74","35112","0.0-74.0","38F5OAUN5OY072NRHMWCAZYFXTV7HU","A3O2D2BUS92BCA","3XT3KXP24ZKFDDMCDS43FE3AU9W6IW","","8","img/land6.png","74","10","1","1","2","1","0.8,0.2,0.2,0.2,0.8,0.2,0.2,0.2,0.8","0.8,0.2,0.2,0.2,0.8,0.2,0.2,0.2,0.8","1","",""
"","html-keyboard-response","75","35470","0.0-75.0","38F5OAUN5OY072NRHMWCAZYFXTV7HU","A3O2D2BUS92BCA","3XT3KXP24ZKFDDMCDS43FE3AU9W6IW","","null","<img src=""img/land6.png"" style=""width:200px; border:14px solid green;"">","null","","","","","","","","","",""
"","image-keyboard-response","76","35492","0.0-76.0","38F5OAUN5OY072NRHMWCAZYFXTV7HU","A3O2D2BUS92BCA","3XT3KXP24ZKFDDMCDS43FE3AU9W6IW","","20","img/land6.png","74","21","1","0","2","1","0.8,0.2,0.2,0.2,0.8,0.2,0.2,0.2,0.8","0.8,0.2,0.2,0.2,0.8,0.2,0.2,0.2,0.8","1","",""
"","html-keyboard-response","77","35793","0.0-77.0","38F5OAUN5OY072NRHMWCAZYFXTV7HU","A3O2D2BUS92BCA","3XT3KXP24ZKFDDMCDS43FE3AU9W6IW","","null","<img src=""img/land6.png"" style=""width:200px;border:14px solid red;"">","null","","","","","","","","","",""
"","image-keyboard-response","78","35931","0.0-78.0","38F5OAUN5OY072NRHMWCAZYFXTV7HU","A3O2D2BUS92BCA","3XT3KXP24ZKFDDMCDS43FE3AU9W6IW","","137","img/land3.png","75","139","2","1","1","1","0.8,0.2,0.2,0.2,0.8,0.2,0.2,0.2,0.8","0.8,0.2,0.2,0.2,0.8,0.2,0.2,0.2,0.8","1","",""
"","html-keyboard-response","79","36292","0.0-79.0","38F5OAUN5OY072NRHMWCAZYFXTV7HU","A3O2D2BUS92BCA","3XT3KXP24ZKFDDMCDS43FE3AU9W6IW","","null","<img src=""img/land3.png"" style=""width:200px; border:14px solid green;"">","null","","","","","","","","","",""
"","image-keyboard-response","80","36330","0.0-80.0","38F5OAUN5OY072NRHMWCAZYFXTV7HU","A3O2D2BUS92BCA","3XT3KXP24ZKFDDMCDS43FE3AU9W6IW","","33","img/land6.png","75","38","2","1","2","1","0.8,0.2,0.2,0.2,0.8,0.2,0.2,0.2,0.8","0.8,0.2,0.2,0.2,0.8,0.2,0.2,0.2,0.8","1","",""
"","html-keyboard-response","81","36630","0.0-81.0","38F5OAUN5OY072NRHMWCAZYFXTV7HU","A3O2D2BUS92BCA","3XT3KXP24ZKFDDMCDS43FE3AU9W6IW","","null","<img src=""img/land6.png"" style=""width:200px; border:14px solid green;"">","null","","","","","","","","","",""
"","image-keyboard-response","82","36767","0.0-82.0","38F5OAUN5OY072NRHMWCAZYFXTV7HU","A3O2D2BUS92BCA","3XT3KXP24ZKFDDMCDS43FE3AU9W6IW","","134","img/land1.png","74","137","1","0","3","1","0.8,0.2,0.2,0.2,0.8,0.2,0.2,0.2,0.8","0.8,0.2,0.2,0.2,0.8,0.2,0.2,0.2,0.8","1","",""
"","html-keyboard-response","83","37068","0.0-83.0","38F5OAUN5OY072NRHMWCAZYFXTV7HU","A3O2D2BUS92BCA","3XT3KXP24ZKFDDMCDS43FE3AU9W6IW","","null","<img src=""img/land1.png"" style=""width:200px;border:14px solid red;"">","null","","","","","","","","","",""
"","image-keyboard-response","84","37085","0.0-84.0","38F5OAUN5OY072NRHMWCAZYFXTV7HU","A3O2D2BUS92BCA","3XT3KXP24ZKFDDMCDS43FE3AU9W6IW","","16","img/land6.png","74","16","1","0","2","1","0.8,0.2,0.2,0.2,0.8,0.2,0.2,0.2,0.8","0.8,0.2,0.2,0.2,0.8,0.2,0.2,0.2,0.8","1","",""
"","html-keyboard-response","85","37386","0.0-85.0","38F5OAUN5OY072NRHMWCAZYFXTV7HU","A3O2D2BUS92BCA","3XT3KXP24ZKFDDMCDS43FE3AU9W6IW","","null","<img src=""img/land6.png"" style=""width:200px;border:14px solid red;"">","null","","","","","","","","","",""
"","image-keyboard-response","86","37472","0.0-86.0","38F5OAUN5OY072NRHMWCAZYFXTV7HU","A3O2D2BUS92BCA","3XT3KXP24ZKFDDMCDS43FE3AU9W6IW","","85","img/land3.png","74","86","1","1","1","1","0.8,0.2,0.2,0.2,0.8,0.2,0.2,0.2,0.8","0.8,0.2,0.2,0.2,0.8,0.2,0.2,0.2,0.8","1","",""
"","html-keyboard-response","87","37773","0.0-87.0","38F5OAUN5OY072NRHMWCAZYFXTV7HU","A3O2D2BUS92BCA","3XT3KXP24ZKFDDMCDS43FE3AU9W6IW","","null","<img src=""img/land3.png"" style=""width:200px; border:14px solid green;"">","null","","","","","","","","","",""
"","image-keyboard-response","88","37786","0.0-88.0","38F5OAUN5OY072NRHMWCAZYFXTV7HU","A3O2D2BUS92BCA","3XT3KXP24ZKFDDMCDS43FE3AU9W6IW","","13","img/land1.png","74","13","1","1","3","1","0.8,0.2,0.2,0.2,0.8,0.2,0.2,0.2,0.8","0.8,0.2,0.2,0.2,0.8,0.2,0.2,0.2,0.8","1","",""
"","html-keyboard-response","89","38088","0.0-89.0","38F5OAUN5OY072NRHMWCAZYFXTV7HU","A3O2D2BUS92BCA","3XT3KXP24ZKFDDMCDS43FE3AU9W6IW","","null","<img src=""img/land1.png"" style=""width:200px; border:14px solid green;"">","null","","","","","","","","","",""
"","image-keyboard-response","90","38125","0.0-90.0","38F5OAUN5OY072NRHMWCAZYFXTV7HU","A3O2D2BUS92BCA","3XT3KXP24ZKFDDMCDS43FE3AU9W6IW","","36","img/land6.png","74","37","1","1","2","1","0.8,0.2,0.2,0.2,0.8,0.2,0.2,0.2,0.8","0.8,0.2,0.2,0.2,0.8,0.2,0.2,0.2,0.8","1","",""
"","html-keyboard-response","91","38427","0.0-91.0","38F5OAUN5OY072NRHMWCAZYFXTV7HU","A3O2D2BUS92BCA","3XT3KXP24ZKFDDMCDS43FE3AU9W6IW","","null","<img src=""img/land6.png"" style=""width:200px; border:14px solid green;"">","null","","","","","","","","","",""
"","image-keyboard-response","92","38451","0.0-92.0","38F5OAUN5OY072NRHMWCAZYFXTV7HU","A3O2D2BUS92BCA","3XT3KXP24ZKFDDMCDS43FE3AU9W6IW","","24","img/land1.png","74","24","1","0","3","1","0.8,0.2,0.2,0.2,0.8,0.2,0.2,0.2,0.8","0.8,0.2,0.2,0.2,0.8,0.2,0.2,0.2,0.8","1","",""
"","html-keyboard-response","93","38752","0.0-93.0","38F5OAUN5OY072NRHMWCAZYFXTV7HU","A3O2D2BUS92BCA","3XT3KXP24ZKFDDMCDS43FE3AU9W6IW","","null","<img src=""img/land1.png"" style=""width:200px;border:14px solid red;"">","null","","","","","","","","","",""
"","image-keyboard-response","94","38919","0.0-94.0","38F5OAUN5OY072NRHMWCAZYFXTV7HU","A3O2D2BUS92BCA","3XT3KXP24ZKFDDMCDS43FE3AU9W6IW","","166","img/land6.png","76","167","3","1","2","1","0.8,0.2,0.2,0.2,0.8,0.2,0.2,0.2,0.8","0.8,0.2,0.2,0.2,0.8,0.2,0.2,0.2,0.8","1","",""
"","html-keyboard-response","95","39221","0.0-95.0","38F5OAUN5OY072NRHMWCAZYFXTV7HU","A3O2D2BUS92BCA","3XT3KXP24ZKFDDMCDS43FE3AU9W6IW","","null","<img src=""img/land6.png"" style=""width:200px; border:14px solid green;"">","null","","","","","","","","","",""
"","image-keyboard-response","96","39276","0.0-96.0","38F5OAUN5OY072NRHMWCAZYFXTV7HU","A3O2D2BUS92BCA","3XT3KXP24ZKFDDMCDS43FE3AU9W6IW","","54","img/land1.png","75","55","2","1","3","1","0.8,0.2,0.2,0.2,0.8,0.2,0.2,0.2,0.8","0.8,0.2,0.2,0.2,0.8,0.2,0.2,0.2,0.8","1","",""
"","html-keyboard-response","97","39577","0.0-97.0","38F5OAUN5OY072NRHMWCAZYFXTV7HU","A3O2D2BUS92BCA","3XT3KXP24ZKFDDMCDS43FE3AU9W6IW","","null","<img src=""img/land1.png"" style=""width:200px; border:14px solid green;"">","null","","","","","","","","","",""
"","image-keyboard-response","98","39622","0.0-98.0","38F5OAUN5OY072NRHMWCAZYFXTV7HU","A3O2D2BUS92BCA","3XT3KXP24ZKFDDMCDS43FE3AU9W6IW","","44","img/land1.png","75","44","2","0","3","1","0.8,0.2,0.2,0.2,0.8,0.2,0.2,0.2,0.8","0.8,0.2,0.2,0.2,0.8,0.2,0.2,0.2,0.8","1","",""
"","html-keyboard-response","99","39924","0.0-99.0","38F5OAUN5OY072NRHMWCAZYFXTV7HU","A3O2D2BUS92BCA","3XT3KXP24ZKFDDMCDS43FE3AU9W6IW","","null","<img src=""img/land1.png"" style=""width:200px;border:14px solid red;"">","null","","","","","","","","","",""
"","image-keyboard-response","100","39930","0.0-100.0","38F5OAUN5OY072NRHMWCAZYFXTV7HU","A3O2D2BUS92BCA","3XT3KXP24ZKFDDMCDS43FE3AU9W6IW","","6","img/land3.png","75","6","2","0","1","1","0.8,0.2,0.2,0.2,0.8,0.2,0.2,0.2,0.8","0.8,0.2,0.2,0.2,0.8,0.2,0.2,0.2,0.8","1","",""
"","html-keyboard-response","101","40231","0.0-101.0","38F5OAUN5OY072NRHMWCAZYFXTV7HU","A3O2D2BUS92BCA","3XT3KXP24ZKFDDMCDS43FE3AU9W6IW","","null","<img src=""img/land3.png"" style=""width:200px;border:14px solid red;"">","null","","","","","","","","","",""
"","image-keyboard-response","102","40243","0.0-102.0","38F5OAUN5OY072NRHMWCAZYFXTV7HU","A3O2D2BUS92BCA","3XT3KXP24ZKFDDMCDS43FE3AU9W6IW","","12","img/land6.png","75","12","2","1","2","1","0.8,0.2,0.2,0.2,0.8,0.2,0.2,0.2,0.8","0.8,0.2,0.2,0.2,0.8,0.2,0.2,0.2,0.8","1","",""
"","html-keyboard-response","103","40576","0.0-103.0","38F5OAUN5OY072NRHMWCAZYFXTV7HU","A3O2D2BUS92BCA","3XT3KXP24ZKFDDMCDS43FE3AU9W6IW","","null","<img src=""img/land6.png"" style=""width:200px; border:14px solid green;"">","null","","","","","","","","","",""
"","image-keyboard-response","104","40581","0.0-104.0","38F5OAUN5OY072NRHMWCAZYFXTV7HU","A3O2D2BUS92BCA","3XT3KXP24ZKFDDMCDS43FE3AU9W6IW","","5","img/land1.png","75","5","2","0","3","1","0.8,0.2,0.2,0.2,0.8,0.2,0.2,0.2,0.8","0.8,0.2,0.2,0.2,0.8,0.2,0.2,0.2,0.8","1","",""
"","html-keyboard-response","105","40882","0.0-105.0","38F5OAUN5OY072NRHMWCAZYFXTV7HU","A3O2D2BUS92BCA","3XT3KXP24ZKFDDMCDS43FE3AU9W6IW","","null","<img src=""img/land1.png"" style=""width:200px;border:14px solid red;"">","null","","","","","","","","","",""
"","image-keyboard-response","106","40893","0.0-106.0","38F5OAUN5OY072NRHMWCAZYFXTV7HU","A3O2D2BUS92BCA","3XT3KXP24ZKFDDMCDS43FE3AU9W6IW","","9","img/land6.png","76","11","3","0","2","1","0.8,0.2,0.2,0.2,0.8,0.2,0.2,0.2,0.8","0.8,0.2,0.2,0.2,0.8,0.2,0.2,0.2,0.8","1","",""
"","html-keyboard-response","107","41194","0.0-107.0","38F5OAUN5OY072NRHMWCAZYFXTV7HU","A3O2D2BUS92BCA","3XT3KXP24ZKFDDMCDS43FE3AU9W6IW","","null","<img src=""img/land6.png"" style=""width:200px;border:14px solid red;"">","null","","","","","","","","","",""
"","image-keyboard-response","108","41211","0.0-108.0","38F5OAUN5OY072NRHMWCAZYFXTV7HU","A3O2D2BUS92BCA","3XT3KXP24ZKFDDMCDS43FE3AU9W6IW","","17","img/land6.png","75","17","2","1","2","1","0.8,0.2,0.2,0.2,0.8,0.2,0.2,0.2,0.8","0.8,0.2,0.2,0.2,0.8,0.2,0.2,0.2,0.8","1","",""
"","html-keyboard-response","109","41514","0.0-109.0","38F5OAUN5OY072NRHMWCAZYFXTV7HU","A3O2D2BUS92BCA","3XT3KXP24ZKFDDMCDS43FE3AU9W6IW","","null","<img src=""img/land6.png"" style=""width:200px; border:14px solid green;"">","null","","","","","","","","","",""
"","image-keyboard-response","110","41548","0.0-110.0","38F5OAUN5OY072NRHMWCAZYFXTV7HU","A3O2D2BUS92BCA","3XT3KXP24ZKFDDMCDS43FE3AU9W6IW","","33","img/land6.png","75","33","2","1","2","1","0.8,0.2,0.2,0.2,0.8,0.2,0.2,0.2,0.8","0.8,0.2,0.2,0.2,0.8,0.2,0.2,0.2,0.8","1","",""
"","html-keyboard-response","111","41848","0.0-111.0","38F5OAUN5OY072NRHMWCAZYFXTV7HU","A3O2D2BUS92BCA","3XT3KXP24ZKFDDMCDS43FE3AU9W6IW","","null","<img src=""img/land6.png"" style=""width:200px; border:14px solid green;"">","null","","","","","","","","","",""
"","image-keyboard-response","112","41864","0.0-112.0","38F5OAUN5OY072NRHMWCAZYFXTV7HU","A3O2D2BUS92BCA","3XT3KXP24ZKFDDMCDS43FE3AU9W6IW","","16","img/land1.png","76","16","3","1","3","1","0.8,0.2,0.2,0.2,0.8,0.2,0.2,0.2,0.8","0.8,0.2,0.2,0.2,0.8,0.2,0.2,0.2,0.8","1","",""
"","html-keyboard-response","113","42166","0.0-113.0","38F5OAUN5OY072NRHMWCAZYFXTV7HU","A3O2D2BUS92BCA","3XT3KXP24ZKFDDMCDS43FE3AU9W6IW","","null","<img src=""img/land1.png"" style=""width:200px; border:14px solid green;"">","null","","","","","","","","","",""
"","image-keyboard-response","114","42183","0.0-114.0","38F5OAUN5OY072NRHMWCAZYFXTV7HU","A3O2D2BUS92BCA","3XT3KXP24ZKFDDMCDS43FE3AU9W6IW","","17","img/land3.png","76","17","3","0","1","1","0.8,0.2,0.2,0.2,0.8,0.2,0.2,0.2,0.8","0.8,0.2,0.2,0.2,0.8,0.2,0.2,0.2,0.8","1","",""
"","html-keyboard-response","115","42485","0.0-115.0","38F5OAUN5OY072NRHMWCAZYFXTV7HU","A3O2D2BUS92BCA","3XT3KXP24ZKFDDMCDS43FE3AU9W6IW","","null","<img src=""img/land3.png"" style=""width:200px;border:14px solid red;"">","null","","","","","","","","","",""
"","image-keyboard-response","116","42490","0.0-116.0","38F5OAUN5OY072NRHMWCAZYFXTV7HU","A3O2D2BUS92BCA","3XT3KXP24ZKFDDMCDS43FE3AU9W6IW","","5","img/land3.png","76","5","3","1","1","1","0.8,0.2,0.2,0.2,0.8,0.2,0.2,0.2,0.8","0.8,0.2,0.2,0.2,0.8,0.2,0.2,0.2,0.8","1","",""
"","html-keyboard-response","117","42792","0.0-117.0","38F5OAUN5OY072NRHMWCAZYFXTV7HU","A3O2D2BUS92BCA","3XT3KXP24ZKFDDMCDS43FE3AU9W6IW","","null","<img src=""img/land3.png"" style=""width:200px; border:14px solid green;"">","null","","","","","","","","","",""
"","image-keyboard-response","118","42907","0.0-118.0","38F5OAUN5OY072NRHMWCAZYFXTV7HU","A3O2D2BUS92BCA","3XT3KXP24ZKFDDMCDS43FE3AU9W6IW","","113","img/land1.png","74","115","1","0","3","1","0.8,0.2,0.2,0.2,0.8,0.2,0.2,0.2,0.8","0.8,0.2,0.2,0.2,0.8,0.2,0.2,0.2,0.8","1","",""
"","html-keyboard-response","119","43298","0.0-119.0","38F5OAUN5OY072NRHMWCAZYFXTV7HU","A3O2D2BUS92BCA","3XT3KXP24ZKFDDMCDS43FE3AU9W6IW","","null","<img src=""img/land1.png"" style=""width:200px;border:14px solid red;"">","null","","","","","","","","","",""
"","image-keyboard-response","120","43385","0.0-120.0","38F5OAUN5OY072NRHMWCAZYFXTV7HU","A3O2D2BUS92BCA","3XT3KXP24ZKFDDMCDS43FE3AU9W6IW","","85","img/land3.png","75","87","2","0","1","1","0.8,0.2,0.2,0.2,0.8,0.2,0.2,0.2,0.8","0.8,0.2,0.2,0.2,0.8,0.2,0.2,0.2,0.8","1","",""
"","html-keyboard-response","121","43686","0.0-121.0","38F5OAUN5OY072NRHMWCAZYFXTV7HU","A3O2D2BUS92BCA","3XT3KXP24ZKFDDMCDS43FE3AU9W6IW","","null","<img src=""img/land3.png"" style=""width:200px;border:14px solid red;"">","null","","","","","","","","","",""
"","image-keyboard-response","122","43725","0.0-122.0","38F5OAUN5OY072NRHMWCAZYFXTV7HU","A3O2D2BUS92BCA","3XT3KXP24ZKFDDMCDS43FE3AU9W6IW","","37","img/land6.png","75","39","2","1","2","1","0.8,0.2,0.2,0.2,0.8,0.2,0.2,0.2,0.8","0.8,0.2,0.2,0.2,0.8,0.2,0.2,0.2,0.8","1","",""
"","html-keyboard-response","123","44027","0.0-123.0","38F5OAUN5OY072NRHMWCAZYFXTV7HU","A3O2D2BUS92BCA","3XT3KXP24ZKFDDMCDS43FE3AU9W6IW","","null","<img src=""img/land6.png"" style=""width:200px; border:14px solid green;"">","null","","","","","","","","","",""
"","image-keyboard-response","124","44080","0.0-124.0","38F5OAUN5OY072NRHMWCAZYFXTV7HU","A3O2D2BUS92BCA","3XT3KXP24ZKFDDMCDS43FE3AU9W6IW","","53","img/land1.png","75","53","2","0","3","1","0.8,0.2,0.2,0.2,0.8,0.2,0.2,0.2,0.8","0.8,0.2,0.2,0.2,0.8,0.2,0.2,0.2,0.8","1","",""
"","html-keyboard-response","125","44382","0.0-125.0","38F5OAUN5OY072NRHMWCAZYFXTV7HU","A3O2D2BUS92BCA","3XT3KXP24ZKFDDMCDS43FE3AU9W6IW","","null","<img src=""img/land1.png"" style=""width:200px;border:14px solid red;"">","null","","","","","","","","","",""
"","image-keyboard-response","126","44448","0.0-126.0","38F5OAUN5OY072NRHMWCAZYFXTV7HU","A3O2D2BUS92BCA","3XT3KXP24ZKFDDMCDS43FE3AU9W6IW","","66","img/land1.png","75","66","2","0","3","1","0.8,0.2,0.2,0.2,0.8,0.2,0.2,0.2,0.8","0.8,0.2,0.2,0.2,0.8,0.2,0.2,0.2,0.8","1","",""
"","html-keyboard-response","127","44753","0.0-127.0","38F5OAUN5OY072NRHMWCAZYFXTV7HU","A3O2D2BUS92BCA","3XT3KXP24ZKFDDMCDS43FE3AU9W6IW","","null","<img src=""img/land1.png"" style=""width:200px;border:14px solid red;"">","null","","","","","","","","","",""
"","image-keyboard-response","128","44791","0.0-128.0","38F5OAUN5OY072NRHMWCAZYFXTV7HU","A3O2D2BUS92BCA","3XT3KXP24ZKFDDMCDS43FE3AU9W6IW","","36","img/land6.png","75","37","2","1","2","1","0.8,0.2,0.2,0.2,0.8,0.2,0.2,0.2,0.8","0.8,0.2,0.2,0.2,0.8,0.2,0.2,0.2,0.8","1","",""
"","html-keyboard-response","129","45092","0.0-129.0","38F5OAUN5OY072NRHMWCAZYFXTV7HU","A3O2D2BUS92BCA","3XT3KXP24ZKFDDMCDS43FE3AU9W6IW","","null","<img src=""img/land6.png"" style=""width:200px; border:14px solid green;"">","null","","","","","","","","","",""
"","image-keyboard-response","130","45239","0.0-130.0","38F5OAUN5OY072NRHMWCAZYFXTV7HU","A3O2D2BUS92BCA","3XT3KXP24ZKFDDMCDS43FE3AU9W6IW","","147","img/land3.png","74","147","1","1","1","1","0.8,0.2,0.2,0.2,0.8,0.2,0.2,0.2,0.8","0.8,0.2,0.2,0.2,0.8,0.2,0.2,0.2,0.8","1","",""
"","html-keyboard-response","131","45541","0.0-131.0","38F5OAUN5OY072NRHMWCAZYFXTV7HU","A3O2D2BUS92BCA","3XT3KXP24ZKFDDMCDS43FE3AU9W6IW","","null","<img src=""img/land3.png"" style=""width:200px; border:14px solid green;"">","null","","","","","","","","","",""
"","image-keyboard-response","132","45557","0.0-132.0","38F5OAUN5OY072NRHMWCAZYFXTV7HU","A3O2D2BUS92BCA","3XT3KXP24ZKFDDMCDS43FE3AU9W6IW","","15","img/land1.png","74","17","1","0","3","1","0.8,0.2,0.2,0.2,0.8,0.2,0.2,0.2,0.8","0.8,0.2,0.2,0.2,0.8,0.2,0.2,0.2,0.8","1","",""
"","html-keyboard-response","133","45867","0.0-133.0","38F5OAUN5OY072NRHMWCAZYFXTV7HU","A3O2D2BUS92BCA","3XT3KXP24ZKFDDMCDS43FE3AU9W6IW","","null","<img src=""img/land1.png"" style=""width:200px;border:14px solid red;"">","null","","","","","","","","","",""
"","image-keyboard-response","134","45871","0.0-134.0","38F5OAUN5OY072NRHMWCAZYFXTV7HU","A3O2D2BUS92BCA","3XT3KXP24ZKFDDMCDS43FE3AU9W6IW","","3","img/land1.png","74","4","1","0","3","1","0.8,0.2,0.2,0.2,0.8,0.2,0.2,0.2,0.8","0.8,0.2,0.2,0.2,0.8,0.2,0.2,0.2,0.8","1","",""
"","html-keyboard-response","135","46172","0.0-135.0","38F5OAUN5OY072NRHMWCAZYFXTV7HU","A3O2D2BUS92BCA","3XT3KXP24ZKFDDMCDS43FE3AU9W6IW","","null","<img src=""img/land1.png"" style=""width:200px;border:14px solid red;"">","null","","","","","","","","","",""
"","image-keyboard-response","136","46240","0.0-136.0","38F5OAUN5OY072NRHMWCAZYFXTV7HU","A3O2D2BUS92BCA","3XT3KXP24ZKFDDMCDS43FE3AU9W6IW","","68","img/land6.png","74","68","1","0","2","1","0.8,0.2,0.2,0.2,0.8,0.2,0.2,0.2,0.8","0.8,0.2,0.2,0.2,0.8,0.2,0.2,0.2,0.8","1","",""
"","html-keyboard-response","137","46542","0.0-137.0","38F5OAUN5OY072NRHMWCAZYFXTV7HU","A3O2D2BUS92BCA","3XT3KXP24ZKFDDMCDS43FE3AU9W6IW","","null","<img src=""img/land6.png"" style=""width:200px;border:14px solid red;"">","null","","","","","","","","","",""
"","image-keyboard-response","138","46560","0.0-138.0","38F5OAUN5OY072NRHMWCAZYFXTV7HU","A3O2D2BUS92BCA","3XT3KXP24ZKFDDMCDS43FE3AU9W6IW","","17","img/land1.png","74","18","1","0","3","1","0.8,0.2,0.2,0.2,0.8,0.2,0.2,0.2,0.8","0.8,0.2,0.2,0.2,0.8,0.2,0.2,0.2,0.8","1","",""
"","html-keyboard-response","139","46861","0.0-139.0","38F5OAUN5OY072NRHMWCAZYFXTV7HU","A3O2D2BUS92BCA","3XT3KXP24ZKFDDMCDS43FE3AU9W6IW","","null","<img src=""img/land1.png"" style=""width:200px;border:14px solid red;"">","null","","","","","","","","","",""
"","image-keyboard-response","140","46869","0.0-140.0","38F5OAUN5OY072NRHMWCAZYFXTV7HU","A3O2D2BUS92BCA","3XT3KXP24ZKFDDMCDS43FE3AU9W6IW","","7","img/land1.png","74","9","1","0","3","1","0.8,0.2,0.2,0.2,0.8,0.2,0.2,0.2,0.8","0.8,0.2,0.2,0.2,0.8,0.2,0.2,0.2,0.8","1","",""
"","html-keyboard-response","141","47171","0.0-141.0","38F5OAUN5OY072NRHMWCAZYFXTV7HU","A3O2D2BUS92BCA","3XT3KXP24ZKFDDMCDS43FE3AU9W6IW","","null","<img src=""img/land1.png"" style=""width:200px;border:14px solid red;"">","null","","","","","","","","","",""
"","image-keyboard-response","142","47205","0.0-142.0","38F5OAUN5OY072NRHMWCAZYFXTV7HU","A3O2D2BUS92BCA","3XT3KXP24ZKFDDMCDS43FE3AU9W6IW","","33","img/land3.png","74","34","1","1","1","1","0.8,0.2,0.2,0.2,0.8,0.2,0.2,0.2,0.8","0.8,0.2,0.2,0.2,0.8,0.2,0.2,0.2,0.8","1","",""
"","html-keyboard-response","143","47507","0.0-143.0","38F5OAUN5OY072NRHMWCAZYFXTV7HU","A3O2D2BUS92BCA","3XT3KXP24ZKFDDMCDS43FE3AU9W6IW","","null","<img src=""img/land3.png"" style=""width:200px; border:14px solid green;"">","null","","","","","","","","","",""
"","image-keyboard-response","144","47670","0.0-144.0","38F5OAUN5OY072NRHMWCAZYFXTV7HU","A3O2D2BUS92BCA","3XT3KXP24ZKFDDMCDS43FE3AU9W6IW","","162","img/land3.png","75","163","2","0","1","1","0.8,0.2,0.2,0.2,0.8,0.2,0.2,0.2,0.8","0.8,0.2,0.2,0.2,0.8,0.2,0.2,0.2,0.8","1","",""
"","html-keyboard-response","145","47971","0.0-145.0","38F5OAUN5OY072NRHMWCAZYFXTV7HU","A3O2D2BUS92BCA","3XT3KXP24ZKFDDMCDS43FE3AU9W6IW","","null","<img src=""img/land3.png"" style=""width:200px;border:14px solid red;"">","null","","","","","","","","","",""
"","image-keyboard-response","146","47982","0.0-146.0","38F5OAUN5OY072NRHMWCAZYFXTV7HU","A3O2D2BUS92BCA","3XT3KXP24ZKFDDMCDS43FE3AU9W6IW","","10","img/land6.png","76","11","3","0","2","1","0.8,0.2,0.2,0.2,0.8,0.2,0.2,0.2,0.8","0.8,0.2,0.2,0.2,0.8,0.2,0.2,0.2,0.8","1","",""
"","html-keyboard-response","147","48282","0.0-147.0","38F5OAUN5OY072NRHMWCAZYFXTV7HU","A3O2D2BUS92BCA","3XT3KXP24ZKFDDMCDS43FE3AU9W6IW","","null","<img src=""img/land6.png"" style=""width:200px;border:14px solid red;"">","null","","","","","","","","","",""
"","image-keyboard-response","148","48323","0.0-148.0","38F5OAUN5OY072NRHMWCAZYFXTV7HU","A3O2D2BUS92BCA","3XT3KXP24ZKFDDMCDS43FE3AU9W6IW","","39","img/land6.png","75","41","2","1","2","1","0.8,0.2,0.2,0.2,0.8,0.2,0.2,0.2,0.8","0.8,0.2,0.2,0.2,0.8,0.2,0.2,0.2,0.8","1","",""
"","html-keyboard-response","149","48624","0.0-149.0","38F5OAUN5OY072NRHMWCAZYFXTV7HU","A3O2D2BUS92BCA","3XT3KXP24ZKFDDMCDS43FE3AU9W6IW","","null","<img src=""img/land6.png"" style=""width:200px; border:14px solid green;"">","null","","","","","","","","","",""
"","image-keyboard-response","150","48632","0.0-150.0","38F5OAUN5OY072NRHMWCAZYFXTV7HU","A3O2D2BUS92BCA","3XT3KXP24ZKFDDMCDS43FE3AU9W6IW","","8","img/land3.png","75","8","2","0","1","1","0.8,0.2,0.2,0.2,0.8,0.2,0.2,0.2,0.8","0.8,0.2,0.2,0.2,0.8,0.2,0.2,0.2,0.8","1","",""
"","html-keyboard-response","151","48932","0.0-151.0","38F5OAUN5OY072NRHMWCAZYFXTV7HU","A3O2D2BUS92BCA","3XT3KXP24ZKFDDMCDS43FE3AU9W6IW","","null","<img src=""img/land3.png"" style=""width:200px;border:14px solid red;"">","null","","","","","","","","","",""
"","image-keyboard-response","152","48960","0.0-152.0","38F5OAUN5OY072NRHMWCAZYFXTV7HU","A3O2D2BUS92BCA","3XT3KXP24ZKFDDMCDS43FE3AU9W6IW","","28","img/land3.png","75","28","2","0","1","1","0.8,0.2,0.2,0.2,0.8,0.2,0.2,0.2,0.8","0.8,0.2,0.2,0.2,0.8,0.2,0.2,0.2,0.8","1","",""
"","html-keyboard-response","153","49260","0.0-153.0","38F5OAUN5OY072NRHMWCAZYFXTV7HU","A3O2D2BUS92BCA","3XT3KXP24ZKFDDMCDS43FE3AU9W6IW","","null","<img src=""img/land3.png"" style=""width:200px;border:14px solid red;"">","null","","","","","","","","","",""
"","image-keyboard-response","154","49287","0.0-154.0","38F5OAUN5OY072NRHMWCAZYFXTV7HU","A3O2D2BUS92BCA","3XT3KXP24ZKFDDMCDS43FE3AU9W6IW","","27","img/land1.png","76","28","3","1","3","1","0.8,0.2,0.2,0.2,0.8,0.2,0.2,0.2,0.8","0.8,0.2,0.2,0.2,0.8,0.2,0.2,0.2,0.8","1","",""
"","html-keyboard-response","155","49588","0.0-155.0","38F5OAUN5OY072NRHMWCAZYFXTV7HU","A3O2D2BUS92BCA","3XT3KXP24ZKFDDMCDS43FE3AU9W6IW","","null","<img src=""img/land1.png"" style=""width:200px; border:14px solid green;"">","null","","","","","","","","","",""
"","image-keyboard-response","156","49763","0.0-156.0","38F5OAUN5OY072NRHMWCAZYFXTV7HU","A3O2D2BUS92BCA","3XT3KXP24ZKFDDMCDS43FE3AU9W6IW","","175","img/land3.png","75","176","2","0","1","1","0.8,0.2,0.2,0.2,0.8,0.2,0.2,0.2,0.8","0.8,0.2,0.2,0.2,0.8,0.2,0.2,0.2,0.8","1","",""
"","html-keyboard-response","157","50064","0.0-157.0","38F5OAUN5OY072NRHMWCAZYFXTV7HU","A3O2D2BUS92BCA","3XT3KXP24ZKFDDMCDS43FE3AU9W6IW","","null","<img src=""img/land3.png"" style=""width:200px;border:14px solid red;"">","null","","","","","","","","","",""
"","image-keyboard-response","158","50081","0.0-158.0","38F5OAUN5OY072NRHMWCAZYFXTV7HU","A3O2D2BUS92BCA","3XT3KXP24ZKFDDMCDS43FE3AU9W6IW","","16","img/land3.png","75","17","2","0","1","1","0.8,0.2,0.2,0.2,0.8,0.2,0.2,0.2,0.8","0.8,0.2,0.2,0.2,0.8,0.2,0.2,0.2,0.8","1","",""
"","html-keyboard-response","159","50381","0.0-159.0","38F5OAUN5OY072NRHMWCAZYFXTV7HU","A3O2D2BUS92BCA","3XT3KXP24ZKFDDMCDS43FE3AU9W6IW","","null","<img src=""img/land3.png"" style=""width:200px;border:14px solid red;"">","null","","","","","","","","","",""
"","image-keyboard-response","160","50430","0.0-160.0","38F5OAUN5OY072NRHMWCAZYFXTV7HU","A3O2D2BUS92BCA","3XT3KXP24ZKFDDMCDS43FE3AU9W6IW","","47","img/land6.png","75","49","2","1","2","1","0.8,0.2,0.2,0.2,0.8,0.2,0.2,0.2,0.8","0.8,0.2,0.2,0.2,0.8,0.2,0.2,0.2,0.8","1","",""
"","html-keyboard-response","161","50730","0.0-161.0","38F5OAUN5OY072NRHMWCAZYFXTV7HU","A3O2D2BUS92BCA","3XT3KXP24ZKFDDMCDS43FE3AU9W6IW","","null","<img src=""img/land6.png"" style=""width:200px; border:14px solid green;"">","null","","","","","","","","","",""
"","image-keyboard-response","162","50837","0.0-162.0","38F5OAUN5OY072NRHMWCAZYFXTV7HU","A3O2D2BUS92BCA","3XT3KXP24ZKFDDMCDS43FE3AU9W6IW","","106","img/land6.png","74","107","1","1","2","1","0.8,0.2,0.2,0.2,0.8,0.2,0.2,0.2,0.8","0.8,0.2,0.2,0.2,0.8,0.2,0.2,0.2,0.8","1","",""
"","html-keyboard-response","163","51139","0.0-163.0","38F5OAUN5OY072NRHMWCAZYFXTV7HU","A3O2D2BUS92BCA","3XT3KXP24ZKFDDMCDS43FE3AU9W6IW","","null","<img src=""img/land6.png"" style=""width:200px; border:14px solid green;"">","null","","","","","","","","","",""
"","image-keyboard-response","164","51293","0.0-164.0","38F5OAUN5OY072NRHMWCAZYFXTV7HU","A3O2D2BUS92BCA","3XT3KXP24ZKFDDMCDS43FE3AU9W6IW","","153","img/land3.png","75","154","2","0","1","1","0.8,0.2,0.2,0.2,0.8,0.2,0.2,0.2,0.8","0.8,0.2,0.2,0.2,0.8,0.2,0.2,0.2,0.8","1","",""
"","html-keyboard-response","165","51595","0.0-165.0","38F5OAUN5OY072NRHMWCAZYFXTV7HU","A3O2D2BUS92BCA","3XT3KXP24ZKFDDMCDS43FE3AU9W6IW","","null","<img src=""img/land3.png"" style=""width:200px;border:14px solid red;"">","null","","","","","","","","","",""
"","image-keyboard-response","166","51601","0.0-166.0","38F5OAUN5OY072NRHMWCAZYFXTV7HU","A3O2D2BUS92BCA","3XT3KXP24ZKFDDMCDS43FE3AU9W6IW","","5","img/land6.png","75","6","2","0","2","1","0.8,0.2,0.2,0.2,0.8,0.2,0.2,0.2,0.8","0.8,0.2,0.2,0.2,0.8,0.2,0.2,0.2,0.8","1","",""
"","html-keyboard-response","167","51902","0.0-167.0","38F5OAUN5OY072NRHMWCAZYFXTV7HU","A3O2D2BUS92BCA","3XT3KXP24ZKFDDMCDS43FE3AU9W6IW","","null","<img src=""img/land6.png"" style=""width:200px;border:14px solid red;"">","null","","","","","","","","","",""
"","image-keyboard-response","168","51918","0.0-168.0","38F5OAUN5OY072NRHMWCAZYFXTV7HU","A3O2D2BUS92BCA","3XT3KXP24ZKFDDMCDS43FE3AU9W6IW","","15","img/land6.png","75","16","2","1","2","1","0.8,0.2,0.2,0.2,0.8,0.2,0.2,0.2,0.8","0.8,0.2,0.2,0.2,0.8,0.2,0.2,0.2,0.8","1","",""
"","html-keyboard-response","169","52220","0.0-169.0","38F5OAUN5OY072NRHMWCAZYFXTV7HU","A3O2D2BUS92BCA","3XT3KXP24ZKFDDMCDS43FE3AU9W6IW","","null","<img src=""img/land6.png"" style=""width:200px; border:14px solid green;"">","null","","","","","","","","","",""
"","image-keyboard-response","170","52308","0.0-170.0","38F5OAUN5OY072NRHMWCAZYFXTV7HU","A3O2D2BUS92BCA","3XT3KXP24ZKFDDMCDS43FE3AU9W6IW","","86","img/land3.png","76","88","3","1","1","1","0.8,0.2,0.2,0.2,0.8,0.2,0.2,0.2,0.8","0.8,0.2,0.2,0.2,0.8,0.2,0.2,0.2,0.8","1","",""
"","html-keyboard-response","171","52609","0.0-171.0","38F5OAUN5OY072NRHMWCAZYFXTV7HU","A3O2D2BUS92BCA","3XT3KXP24ZKFDDMCDS43FE3AU9W6IW","","null","<img src=""img/land3.png"" style=""width:200px; border:14px solid green;"">","null","","","","","","","","","",""
"","image-keyboard-response","172","52623","0.0-172.0","38F5OAUN5OY072NRHMWCAZYFXTV7HU","A3O2D2BUS92BCA","3XT3KXP24ZKFDDMCDS43FE3AU9W6IW","","14","img/land3.png","76","14","3","1","1","1","0.8,0.2,0.2,0.2,0.8,0.2,0.2,0.2,0.8","0.8,0.2,0.2,0.2,0.8,0.2,0.2,0.2,0.8","1","",""
"","html-keyboard-response","173","52924","0.0-173.0","38F5OAUN5OY072NRHMWCAZYFXTV7HU","A3O2D2BUS92BCA","3XT3KXP24ZKFDDMCDS43FE3AU9W6IW","","null","<img src=""img/land3.png"" style=""width:200px; border:14px solid green;"">","null","","","","","","","","","",""
"","image-keyboard-response","174","52963","0.0-174.0","38F5OAUN5OY072NRHMWCAZYFXTV7HU","A3O2D2BUS92BCA","3XT3KXP24ZKFDDMCDS43FE3AU9W6IW","","38","img/land1.png","76","39","3","1","3","1","0.8,0.2,0.2,0.2,0.8,0.2,0.2,0.2,0.8","0.8,0.2,0.2,0.2,0.8,0.2,0.2,0.2,0.8","1","",""
"","html-keyboard-response","175","53264","0.0-175.0","38F5OAUN5OY072NRHMWCAZYFXTV7HU","A3O2D2BUS92BCA","3XT3KXP24ZKFDDMCDS43FE3AU9W6IW","","null","<img src=""img/land1.png"" style=""width:200px; border:14px solid green;"">","null","","","","","","","","","",""
"","image-keyboard-response","176","53416","0.0-176.0","38F5OAUN5OY072NRHMWCAZYFXTV7HU","A3O2D2BUS92BCA","3XT3KXP24ZKFDDMCDS43FE3AU9W6IW","","150","img/land1.png","74","152","1","0","3","1","0.8,0.2,0.2,0.2,0.8,0.2,0.2,0.2,0.8","0.8,0.2,0.2,0.2,0.8,0.2,0.2,0.2,0.8","1","",""
"","html-keyboard-response","177","53718","0.0-177.0","38F5OAUN5OY072NRHMWCAZYFXTV7HU","A3O2D2BUS92BCA","3XT3KXP24ZKFDDMCDS43FE3AU9W6IW","","null","<img src=""img/land1.png"" style=""width:200px;border:14px solid red;"">","null","","","","","","","","","",""
"","image-keyboard-response","178","53754","0.0-178.0","38F5OAUN5OY072NRHMWCAZYFXTV7HU","A3O2D2BUS92BCA","3XT3KXP24ZKFDDMCDS43FE3AU9W6IW","","34","img/land1.png","74","36","1","0","3","1","0.8,0.2,0.2,0.2,0.8,0.2,0.2,0.2,0.8","0.8,0.2,0.2,0.2,0.8,0.2,0.2,0.2,0.8","1","",""
"","html-keyboard-response","179","54054","0.0-179.0","38F5OAUN5OY072NRHMWCAZYFXTV7HU","A3O2D2BUS92BCA","3XT3KXP24ZKFDDMCDS43FE3AU9W6IW","","null","<img src=""img/land1.png"" style=""width:200px;border:14px solid red;"">","null","","","","","","","","","",""
"","image-keyboard-response","180","54171","0.0-180.0","38F5OAUN5OY072NRHMWCAZYFXTV7HU","A3O2D2BUS92BCA","3XT3KXP24ZKFDDMCDS43FE3AU9W6IW","","115","img/land3.png","74","117","1","1","1","1","0.8,0.2,0.2,0.2,0.8,0.2,0.2,0.2,0.8","0.8,0.2,0.2,0.2,0.8,0.2,0.2,0.2,0.8","1","",""
"","html-keyboard-response","181","54471","0.0-181.0","38F5OAUN5OY072NRHMWCAZYFXTV7HU","A3O2D2BUS92BCA","3XT3KXP24ZKFDDMCDS43FE3AU9W6IW","","null","<img src=""img/land3.png"" style=""width:200px; border:14px solid green;"">","null","","","","","","","","","",""
"","html-keyboard-response","182","57139","0.0-182.0","38F5OAUN5OY072NRHMWCAZYFXTV7HU","A3O2D2BUS92BCA","3XT3KXP24ZKFDDMCDS43FE3AU9W6IW","","","","","","","","","","","","","",""
"","image-keyboard-response","183","58675","0.0-183.0","38F5OAUN5OY072NRHMWCAZYFXTV7HU","A3O2D2BUS92BCA","3XT3KXP24ZKFDDMCDS43FE3AU9W6IW","","1534","img/land2.png","75","1536","2","0","3","2","0.8,0.2,0.2,0.2,0.8,0.2,0.2,0.2,0.8","0.8,0.2,0.2,0.2,0.8,0.2,0.2,0.2,0.8","1","",""
"","html-keyboard-response","184","58975","0.0-184.0","38F5OAUN5OY072NRHMWCAZYFXTV7HU","A3O2D2BUS92BCA","3XT3KXP24ZKFDDMCDS43FE3AU9W6IW","","null","<img src=""img/land2.png"" style=""width:200px;border:14px solid red;"">","null","","","","","","","","","",""
"","image-keyboard-response","185","58992","0.0-185.0","38F5OAUN5OY072NRHMWCAZYFXTV7HU","A3O2D2BUS92BCA","3XT3KXP24ZKFDDMCDS43FE3AU9W6IW","","16","img/land2.png","74","17","1","1","3","2","0.8,0.2,0.2,0.2,0.8,0.2,0.2,0.2,0.8","0.8,0.2,0.2,0.2,0.8,0.2,0.2,0.2,0.8","1","",""
"","html-keyboard-response","186","59293","0.0-186.0","38F5OAUN5OY072NRHMWCAZYFXTV7HU","A3O2D2BUS92BCA","3XT3KXP24ZKFDDMCDS43FE3AU9W6IW","","null","<img src=""img/land2.png"" style=""width:200px; border:14px solid green;"">","null","","","","","","","","","",""
"","image-keyboard-response","187","59466","0.0-187.0","38F5OAUN5OY072NRHMWCAZYFXTV7HU","A3O2D2BUS92BCA","3XT3KXP24ZKFDDMCDS43FE3AU9W6IW","","172","img/land4.png","76","173","3","0","2","2","0.8,0.2,0.2,0.2,0.8,0.2,0.2,0.2,0.8","0.8,0.2,0.2,0.2,0.8,0.2,0.2,0.2,0.8","1","",""
"","html-keyboard-response","188","59767","0.0-188.0","38F5OAUN5OY072NRHMWCAZYFXTV7HU","A3O2D2BUS92BCA","3XT3KXP24ZKFDDMCDS43FE3AU9W6IW","","null","<img src=""img/land4.png"" style=""width:200px;border:14px solid red;"">","null","","","","","","","","","",""
"","image-keyboard-response","189","59916","0.0-189.0","38F5OAUN5OY072NRHMWCAZYFXTV7HU","A3O2D2BUS92BCA","3XT3KXP24ZKFDDMCDS43FE3AU9W6IW","","148","img/land5.png","76","149","3","1","1","2","0.8,0.2,0.2,0.2,0.8,0.2,0.2,0.2,0.8","0.8,0.2,0.2,0.2,0.8,0.2,0.2,0.2,0.8","1","",""
"","html-keyboard-response","190","60218","0.0-190.0","38F5OAUN5OY072NRHMWCAZYFXTV7HU","A3O2D2BUS92BCA","3XT3KXP24ZKFDDMCDS43FE3AU9W6IW","","null","<img src=""img/land5.png"" style=""width:200px; border:14px solid green;"">","null","","","","","","","","","",""
"","image-keyboard-response","191","60311","0.0-191.0","38F5OAUN5OY072NRHMWCAZYFXTV7HU","A3O2D2BUS92BCA","3XT3KXP24ZKFDDMCDS43FE3AU9W6IW","","93","img/land5.png","74","93","1","1","1","2","0.8,0.2,0.2,0.2,0.8,0.2,0.2,0.2,0.8","0.8,0.2,0.2,0.2,0.8,0.2,0.2,0.2,0.8","1","",""
"","html-keyboard-response","192","60612","0.0-192.0","38F5OAUN5OY072NRHMWCAZYFXTV7HU","A3O2D2BUS92BCA","3XT3KXP24ZKFDDMCDS43FE3AU9W6IW","","null","<img src=""img/land5.png"" style=""width:200px; border:14px solid green;"">","null","","","","","","","","","",""
"","image-keyboard-response","193","60619","0.0-193.0","38F5OAUN5OY072NRHMWCAZYFXTV7HU","A3O2D2BUS92BCA","3XT3KXP24ZKFDDMCDS43FE3AU9W6IW","","6","img/land4.png","74","8","1","0","2","2","0.8,0.2,0.2,0.2,0.8,0.2,0.2,0.2,0.8","0.8,0.2,0.2,0.2,0.8,0.2,0.2,0.2,0.8","1","",""
"","html-keyboard-response","194","60929","0.0-194.0","38F5OAUN5OY072NRHMWCAZYFXTV7HU","A3O2D2BUS92BCA","3XT3KXP24ZKFDDMCDS43FE3AU9W6IW","","null","<img src=""img/land4.png"" style=""width:200px;border:14px solid red;"">","null","","","","","","","","","",""
"","image-keyboard-response","195","61048","0.0-195.0","38F5OAUN5OY072NRHMWCAZYFXTV7HU","A3O2D2BUS92BCA","3XT3KXP24ZKFDDMCDS43FE3AU9W6IW","","103","img/land5.png","75","107","2","0","1","2","0.8,0.2,0.2,0.2,0.8,0.2,0.2,0.2,0.8","0.8,0.2,0.2,0.2,0.8,0.2,0.2,0.2,0.8","1","",""
"","html-keyboard-response","196","61348","0.0-196.0","38F5OAUN5OY072NRHMWCAZYFXTV7HU","A3O2D2BUS92BCA","3XT3KXP24ZKFDDMCDS43FE3AU9W6IW","","null","<img src=""img/land5.png"" style=""width:200px;border:14px solid red;"">","null","","","","","","","","","",""
"","image-keyboard-response","197","61359","0.0-197.0","38F5OAUN5OY072NRHMWCAZYFXTV7HU","A3O2D2BUS92BCA","3XT3KXP24ZKFDDMCDS43FE3AU9W6IW","","11","img/land5.png","75","11","2","0","1","2","0.8,0.2,0.2,0.2,0.8,0.2,0.2,0.2,0.8","0.8,0.2,0.2,0.2,0.8,0.2,0.2,0.2,0.8","1","",""
"","html-keyboard-response","198","61662","0.0-198.0","38F5OAUN5OY072NRHMWCAZYFXTV7HU","A3O2D2BUS92BCA","3XT3KXP24ZKFDDMCDS43FE3AU9W6IW","","null","<img src=""img/land5.png"" style=""width:200px;border:14px solid red;"">","null","","","","","","","","","",""
"","image-keyboard-response","199","61742","0.0-199.0","38F5OAUN5OY072NRHMWCAZYFXTV7HU","A3O2D2BUS92BCA","3XT3KXP24ZKFDDMCDS43FE3AU9W6IW","","80","img/land5.png","74","80","1","1","1","2","0.8,0.2,0.2,0.2,0.8,0.2,0.2,0.2,0.8","0.8,0.2,0.2,0.2,0.8,0.2,0.2,0.2,0.8","1","",""
"","html-keyboard-response","200","62042","0.0-200.0","38F5OAUN5OY072NRHMWCAZYFXTV7HU","A3O2D2BUS92BCA","3XT3KXP24ZKFDDMCDS43FE3AU9W6IW","","null","<img src=""img/land5.png"" style=""width:200px; border:14px solid green;"">","null","","","","","","","","","",""
"","image-keyboard-response","201","62180","0.0-201.0","38F5OAUN5OY072NRHMWCAZYFXTV7HU","A3O2D2BUS92BCA","3XT3KXP24ZKFDDMCDS43FE3AU9W6IW","","138","img/land4.png","75","139","2","1","2","2","0.8,0.2,0.2,0.2,0.8,0.2,0.2,0.2,0.8","0.8,0.2,0.2,0.2,0.8,0.2,0.2,0.2,0.8","1","",""
"","html-keyboard-response","202","62482","0.0-202.0","38F5OAUN5OY072NRHMWCAZYFXTV7HU","A3O2D2BUS92BCA","3XT3KXP24ZKFDDMCDS43FE3AU9W6IW","","null","<img src=""img/land4.png"" style=""width:200px; border:14px solid green;"">","null","","","","","","","","","",""
"","image-keyboard-response","203","62485","0.0-203.0","38F5OAUN5OY072NRHMWCAZYFXTV7HU","A3O2D2BUS92BCA","3XT3KXP24ZKFDDMCDS43FE3AU9W6IW","","1","img/land5.png","75","3","2","0","1","2","0.8,0.2,0.2,0.2,0.8,0.2,0.2,0.2,0.8","0.8,0.2,0.2,0.2,0.8,0.2,0.2,0.2,0.8","1","",""
"","html-keyboard-response","204","62785","0.0-204.0","38F5OAUN5OY072NRHMWCAZYFXTV7HU","A3O2D2BUS92BCA","3XT3KXP24ZKFDDMCDS43FE3AU9W6IW","","null","<img src=""img/land5.png"" style=""width:200px;border:14px solid red;"">","null","","","","","","","","","",""
"","image-keyboard-response","205","62795","0.0-205.0","38F5OAUN5OY072NRHMWCAZYFXTV7HU","A3O2D2BUS92BCA","3XT3KXP24ZKFDDMCDS43FE3AU9W6IW","","8","img/land5.png","75","9","2","0","1","2","0.8,0.2,0.2,0.2,0.8,0.2,0.2,0.2,0.8","0.8,0.2,0.2,0.2,0.8,0.2,0.2,0.2,0.8","1","",""
"","html-keyboard-response","206","63097","0.0-206.0","38F5OAUN5OY072NRHMWCAZYFXTV7HU","A3O2D2BUS92BCA","3XT3KXP24ZKFDDMCDS43FE3AU9W6IW","","null","<img src=""img/land5.png"" style=""width:200px;border:14px solid red;"">","null","","","","","","","","","",""
"","image-keyboard-response","207","63191","0.0-207.0","38F5OAUN5OY072NRHMWCAZYFXTV7HU","A3O2D2BUS92BCA","3XT3KXP24ZKFDDMCDS43FE3AU9W6IW","","93","img/land4.png","74","94","1","0","2","2","0.8,0.2,0.2,0.2,0.8,0.2,0.2,0.2,0.8","0.8,0.2,0.2,0.2,0.8,0.2,0.2,0.2,0.8","1","",""
"","html-keyboard-response","208","63492","0.0-208.0","38F5OAUN5OY072NRHMWCAZYFXTV7HU","A3O2D2BUS92BCA","3XT3KXP24ZKFDDMCDS43FE3AU9W6IW","","null","<img src=""img/land4.png"" style=""width:200px;border:14px solid red;"">","null","","","","","","","","","",""
"","image-keyboard-response","209","63617","0.0-209.0","38F5OAUN5OY072NRHMWCAZYFXTV7HU","A3O2D2BUS92BCA","3XT3KXP24ZKFDDMCDS43FE3AU9W6IW","","123","img/land2.png","76","125","3","1","3","2","0.8,0.2,0.2,0.2,0.8,0.2,0.2,0.2,0.8","0.8,0.2,0.2,0.2,0.8,0.2,0.2,0.2,0.8","1","",""
"","html-keyboard-response","210","63917","0.0-210.0","38F5OAUN5OY072NRHMWCAZYFXTV7HU","A3O2D2BUS92BCA","3XT3KXP24ZKFDDMCDS43FE3AU9W6IW","","null","<img src=""img/land2.png"" style=""width:200px; border:14px solid green;"">","null","","","","","","","","","",""
"","image-keyboard-response","211","63928","0.0-211.0","38F5OAUN5OY072NRHMWCAZYFXTV7HU","A3O2D2BUS92BCA","3XT3KXP24ZKFDDMCDS43FE3AU9W6IW","","10","img/land2.png","75","11","2","0","3","2","0.8,0.2,0.2,0.2,0.8,0.2,0.2,0.2,0.8","0.8,0.2,0.2,0.2,0.8,0.2,0.2,0.2,0.8","1","",""
"","html-keyboard-response","212","64229","0.0-212.0","38F5OAUN5OY072NRHMWCAZYFXTV7HU","A3O2D2BUS92BCA","3XT3KXP24ZKFDDMCDS43FE3AU9W6IW","","null","<img src=""img/land2.png"" style=""width:200px;border:14px solid red;"">","null","","","","","","","","","",""
"","image-keyboard-response","213","64352","0.0-213.0","38F5OAUN5OY072NRHMWCAZYFXTV7HU","A3O2D2BUS92BCA","3XT3KXP24ZKFDDMCDS43FE3AU9W6IW","","122","img/land5.png","74","123","1","1","1","2","0.8,0.2,0.2,0.2,0.8,0.2,0.2,0.2,0.8","0.8,0.2,0.2,0.2,0.8,0.2,0.2,0.2,0.8","1","",""
"","html-keyboard-response","214","64654","0.0-214.0","38F5OAUN5OY072NRHMWCAZYFXTV7HU","A3O2D2BUS92BCA","3XT3KXP24ZKFDDMCDS43FE3AU9W6IW","","null","<img src=""img/land5.png"" style=""width:200px; border:14px solid green;"">","null","","","","","","","","","",""
"","image-keyboard-response","215","64801","0.0-215.0","38F5OAUN5OY072NRHMWCAZYFXTV7HU","A3O2D2BUS92BCA","3XT3KXP24ZKFDDMCDS43FE3AU9W6IW","","147","img/land2.png","75","147","2","0","3","2","0.8,0.2,0.2,0.2,0.8,0.2,0.2,0.2,0.8","0.8,0.2,0.2,0.2,0.8,0.2,0.2,0.2,0.8","1","",""
"","html-keyboard-response","216","65103","0.0-216.0","38F5OAUN5OY072NRHMWCAZYFXTV7HU","A3O2D2BUS92BCA","3XT3KXP24ZKFDDMCDS43FE3AU9W6IW","","null","<img src=""img/land2.png"" style=""width:200px;border:14px solid red;"">","null","","","","","","","","","",""
"","image-keyboard-response","217","65106","0.0-217.0","38F5OAUN5OY072NRHMWCAZYFXTV7HU","A3O2D2BUS92BCA","3XT3KXP24ZKFDDMCDS43FE3AU9W6IW","","2","img/land5.png","75","3","2","0","1","2","0.8,0.2,0.2,0.2,0.8,0.2,0.2,0.2,0.8","0.8,0.2,0.2,0.2,0.8,0.2,0.2,0.2,0.8","1","",""
"","html-keyboard-response","218","65406","0.0-218.0","38F5OAUN5OY072NRHMWCAZYFXTV7HU","A3O2D2BUS92BCA","3XT3KXP24ZKFDDMCDS43FE3AU9W6IW","","null","<img src=""img/land5.png"" style=""width:200px;border:14px solid red;"">","null","","","","","","","","","",""
"","image-keyboard-response","219","65423","0.0-219.0","38F5OAUN5OY072NRHMWCAZYFXTV7HU","A3O2D2BUS92BCA","3XT3KXP24ZKFDDMCDS43FE3AU9W6IW","","17","img/land2.png","76","17","3","1","3","2","0.8,0.2,0.2,0.2,0.8,0.2,0.2,0.2,0.8","0.8,0.2,0.2,0.2,0.8,0.2,0.2,0.2,0.8","1","",""
"","html-keyboard-response","220","65724","0.0-220.0","38F5OAUN5OY072NRHMWCAZYFXTV7HU","A3O2D2BUS92BCA","3XT3KXP24ZKFDDMCDS43FE3AU9W6IW","","null","<img src=""img/land2.png"" style=""width:200px; border:14px solid green;"">","null","","","","","","","","","",""
"","image-keyboard-response","221","65740","0.0-221.0","38F5OAUN5OY072NRHMWCAZYFXTV7HU","A3O2D2BUS92BCA","3XT3KXP24ZKFDDMCDS43FE3AU9W6IW","","16","img/land5.png","75","16","2","0","1","2","0.8,0.2,0.2,0.2,0.8,0.2,0.2,0.2,0.8","0.8,0.2,0.2,0.2,0.8,0.2,0.2,0.2,0.8","1","",""
"","html-keyboard-response","222","66042","0.0-222.0","38F5OAUN5OY072NRHMWCAZYFXTV7HU","A3O2D2BUS92BCA","3XT3KXP24ZKFDDMCDS43FE3AU9W6IW","","null","<img src=""img/land5.png"" style=""width:200px;border:14px solid red;"">","null","","","","","","","","","",""
"","image-keyboard-response","223","66068","0.0-223.0","38F5OAUN5OY072NRHMWCAZYFXTV7HU","A3O2D2BUS92BCA","3XT3KXP24ZKFDDMCDS43FE3AU9W6IW","","26","img/land5.png","75","26","2","0","1","2","0.8,0.2,0.2,0.2,0.8,0.2,0.2,0.2,0.8","0.8,0.2,0.2,0.2,0.8,0.2,0.2,0.2,0.8","1","",""
"","html-keyboard-response","224","66368","0.0-224.0","38F5OAUN5OY072NRHMWCAZYFXTV7HU","A3O2D2BUS92BCA","3XT3KXP24ZKFDDMCDS43FE3AU9W6IW","","null","<img src=""img/land5.png"" style=""width:200px;border:14px solid red;"">","null","","","","","","","","","",""
"","image-keyboard-response","225","66434","0.0-225.0","38F5OAUN5OY072NRHMWCAZYFXTV7HU","A3O2D2BUS92BCA","3XT3KXP24ZKFDDMCDS43FE3AU9W6IW","","66","img/land4.png","75","66","2","1","2","2","0.8,0.2,0.2,0.2,0.8,0.2,0.2,0.2,0.8","0.8,0.2,0.2,0.2,0.8,0.2,0.2,0.2,0.8","1","",""
"","html-keyboard-response","226","66736","0.0-226.0","38F5OAUN5OY072NRHMWCAZYFXTV7HU","A3O2D2BUS92BCA","3XT3KXP24ZKFDDMCDS43FE3AU9W6IW","","null","<img src=""img/land4.png"" style=""width:200px; border:14px solid green;"">","null","","","","","","","","","",""
"","image-keyboard-response","227","66831","0.0-227.0","38F5OAUN5OY072NRHMWCAZYFXTV7HU","A3O2D2BUS92BCA","3XT3KXP24ZKFDDMCDS43FE3AU9W6IW","","95","img/land5.png","74","96","1","0","1","2","0.8,0.2,0.2,0.2,0.8,0.2,0.2,0.2,0.8","0.8,0.2,0.2,0.2,0.8,0.2,0.2,0.2,0.8","1","",""
"","html-keyboard-response","228","67132","0.0-228.0","38F5OAUN5OY072NRHMWCAZYFXTV7HU","A3O2D2BUS92BCA","3XT3KXP24ZKFDDMCDS43FE3AU9W6IW","","null","<img src=""img/land5.png"" style=""width:200px;border:14px solid red;"">","null","","","","","","","","","",""
"","image-keyboard-response","229","67156","0.0-229.0","38F5OAUN5OY072NRHMWCAZYFXTV7HU","A3O2D2BUS92BCA","3XT3KXP24ZKFDDMCDS43FE3AU9W6IW","","24","img/land5.png","74","24","1","0","1","2","0.8,0.2,0.2,0.2,0.8,0.2,0.2,0.2,0.8","0.8,0.2,0.2,0.2,0.8,0.2,0.2,0.2,0.8","1","",""
"","html-keyboard-response","230","67458","0.0-230.0","38F5OAUN5OY072NRHMWCAZYFXTV7HU","A3O2D2BUS92BCA","3XT3KXP24ZKFDDMCDS43FE3AU9W6IW","","null","<img src=""img/land5.png"" style=""width:200px;border:14px solid red;"">","null","","","","","","","","","",""
"","image-keyboard-response","231","67477","0.0-231.0","38F5OAUN5OY072NRHMWCAZYFXTV7HU","A3O2D2BUS92BCA","3XT3KXP24ZKFDDMCDS43FE3AU9W6IW","","18","img/land2.png","74","18","1","0","3","2","0.8,0.2,0.2,0.2,0.8,0.2,0.2,0.2,0.8","0.8,0.2,0.2,0.2,0.8,0.2,0.2,0.2,0.8","1","",""
"","html-keyboard-response","232","67778","0.0-232.0","38F5OAUN5OY072NRHMWCAZYFXTV7HU","A3O2D2BUS92BCA","3XT3KXP24ZKFDDMCDS43FE3AU9W6IW","","null","<img src=""img/land2.png"" style=""width:200px;border:14px solid red;"">","null","","","","","","","","","",""
"","image-keyboard-response","233","67781","0.0-233.0","38F5OAUN5OY072NRHMWCAZYFXTV7HU","A3O2D2BUS92BCA","3XT3KXP24ZKFDDMCDS43FE3AU9W6IW","","3","img/land5.png","74","3","1","0","1","2","0.8,0.2,0.2,0.2,0.8,0.2,0.2,0.2,0.8","0.8,0.2,0.2,0.2,0.8,0.2,0.2,0.2,0.8","1","",""
"","html-keyboard-response","234","68081","0.0-234.0","38F5OAUN5OY072NRHMWCAZYFXTV7HU","A3O2D2BUS92BCA","3XT3KXP24ZKFDDMCDS43FE3AU9W6IW","","null","<img src=""img/land5.png"" style=""width:200px;border:14px solid red;"">","null","","","","","","","","","",""
"","image-keyboard-response","235","68297","0.0-235.0","38F5OAUN5OY072NRHMWCAZYFXTV7HU","A3O2D2BUS92BCA","3XT3KXP24ZKFDDMCDS43FE3AU9W6IW","","216","img/land5.png","76","216","3","0","1","2","0.8,0.2,0.2,0.2,0.8,0.2,0.2,0.2,0.8","0.8,0.2,0.2,0.2,0.8,0.2,0.2,0.2,0.8","1","",""
"","html-keyboard-response","236","68599","0.0-236.0","38F5OAUN5OY072NRHMWCAZYFXTV7HU","A3O2D2BUS92BCA","3XT3KXP24ZKFDDMCDS43FE3AU9W6IW","","null","<img src=""img/land5.png"" style=""width:200px;border:14px solid red;"">","null","","","","","","","","","",""
"","image-keyboard-response","237","68771","0.0-237.0","38F5OAUN5OY072NRHMWCAZYFXTV7HU","A3O2D2BUS92BCA","3XT3KXP24ZKFDDMCDS43FE3AU9W6IW","","171","img/land4.png","74","172","1","0","2","2","0.8,0.2,0.2,0.2,0.8,0.2,0.2,0.2,0.8","0.8,0.2,0.2,0.2,0.8,0.2,0.2,0.2,0.8","1","",""
"","html-keyboard-response","238","69072","0.0-238.0","38F5OAUN5OY072NRHMWCAZYFXTV7HU","A3O2D2BUS92BCA","3XT3KXP24ZKFDDMCDS43FE3AU9W6IW","","null","<img src=""img/land4.png"" style=""width:200px;border:14px solid red;"">","null","","","","","","","","","",""
"","image-keyboard-response","239","69114","0.0-239.0","38F5OAUN5OY072NRHMWCAZYFXTV7HU","A3O2D2BUS92BCA","3XT3KXP24ZKFDDMCDS43FE3AU9W6IW","","42","img/land5.png","74","42","1","1","1","2","0.8,0.2,0.2,0.2,0.8,0.2,0.2,0.2,0.8","0.8,0.2,0.2,0.2,0.8,0.2,0.2,0.2,0.8","1","",""
"","html-keyboard-response","240","69415","0.0-240.0","38F5OAUN5OY072NRHMWCAZYFXTV7HU","A3O2D2BUS92BCA","3XT3KXP24ZKFDDMCDS43FE3AU9W6IW","","null","<img src=""img/land5.png"" style=""width:200px; border:14px solid green;"">","null","","","","","","","","","",""
"","image-keyboard-response","241","69452","0.0-241.0","38F5OAUN5OY072NRHMWCAZYFXTV7HU","A3O2D2BUS92BCA","3XT3KXP24ZKFDDMCDS43FE3AU9W6IW","","36","img/land2.png","74","36","1","0","3","2","0.8,0.2,0.2,0.2,0.8,0.2,0.2,0.2,0.8","0.8,0.2,0.2,0.2,0.8,0.2,0.2,0.2,0.8","1","",""
"","html-keyboard-response","242","69753","0.0-242.0","38F5OAUN5OY072NRHMWCAZYFXTV7HU","A3O2D2BUS92BCA","3XT3KXP24ZKFDDMCDS43FE3AU9W6IW","","null","<img src=""img/land2.png"" style=""width:200px;border:14px solid red;"">","null","","","","","","","","","",""
"","image-keyboard-response","243","69810","0.0-243.0","38F5OAUN5OY072NRHMWCAZYFXTV7HU","A3O2D2BUS92BCA","3XT3KXP24ZKFDDMCDS43FE3AU9W6IW","","57","img/land4.png","74","57","1","1","2","2","0.8,0.2,0.2,0.2,0.8,0.2,0.2,0.2,0.8","0.8,0.2,0.2,0.2,0.8,0.2,0.2,0.2,0.8","1","",""
"","html-keyboard-response","244","70181","0.0-244.0","38F5OAUN5OY072NRHMWCAZYFXTV7HU","A3O2D2BUS92BCA","3XT3KXP24ZKFDDMCDS43FE3AU9W6IW","","null","<img src=""img/land4.png"" style=""width:200px; border:14px solid green;"">","null","","","","","","","","","",""
"","image-keyboard-response","245","70196","0.0-245.0","38F5OAUN5OY072NRHMWCAZYFXTV7HU","A3O2D2BUS92BCA","3XT3KXP24ZKFDDMCDS43FE3AU9W6IW","","11","img/land4.png","74","15","1","0","2","2","0.8,0.2,0.2,0.2,0.8,0.2,0.2,0.2,0.8","0.8,0.2,0.2,0.2,0.8,0.2,0.2,0.2,0.8","1","",""
"","html-keyboard-response","246","70498","0.0-246.0","38F5OAUN5OY072NRHMWCAZYFXTV7HU","A3O2D2BUS92BCA","3XT3KXP24ZKFDDMCDS43FE3AU9W6IW","","null","<img src=""img/land4.png"" style=""width:200px;border:14px solid red;"">","null","","","","","","","","","",""
"","image-keyboard-response","247","70604","0.0-247.0","38F5OAUN5OY072NRHMWCAZYFXTV7HU","A3O2D2BUS92BCA","3XT3KXP24ZKFDDMCDS43FE3AU9W6IW","","104","img/land2.png","75","106","2","0","3","2","0.8,0.2,0.2,0.2,0.8,0.2,0.2,0.2,0.8","0.8,0.2,0.2,0.2,0.8,0.2,0.2,0.2,0.8","1","",""
"","html-keyboard-response","248","70904","0.0-248.0","38F5OAUN5OY072NRHMWCAZYFXTV7HU","A3O2D2BUS92BCA","3XT3KXP24ZKFDDMCDS43FE3AU9W6IW","","null","<img src=""img/land2.png"" style=""width:200px;border:14px solid red;"">","null","","","","","","","","","",""
"","image-keyboard-response","249","70911","0.0-249.0","38F5OAUN5OY072NRHMWCAZYFXTV7HU","A3O2D2BUS92BCA","3XT3KXP24ZKFDDMCDS43FE3AU9W6IW","","6","img/land5.png","75","7","2","1","1","2","0.8,0.2,0.2,0.2,0.8,0.2,0.2,0.2,0.8","0.8,0.2,0.2,0.2,0.8,0.2,0.2,0.2,0.8","1","",""
"","html-keyboard-response","250","71212","0.0-250.0","38F5OAUN5OY072NRHMWCAZYFXTV7HU","A3O2D2BUS92BCA","3XT3KXP24ZKFDDMCDS43FE3AU9W6IW","","null","<img src=""img/land5.png"" style=""width:200px; border:14px solid green;"">","null","","","","","","","","","",""
"","image-keyboard-response","251","71251","0.0-251.0","38F5OAUN5OY072NRHMWCAZYFXTV7HU","A3O2D2BUS92BCA","3XT3KXP24ZKFDDMCDS43FE3AU9W6IW","","38","img/land2.png","75","39","2","0","3","2","0.8,0.2,0.2,0.2,0.8,0.2,0.2,0.2,0.8","0.8,0.2,0.2,0.2,0.8,0.2,0.2,0.2,0.8","1","",""
"","html-keyboard-response","252","71551","0.0-252.0","38F5OAUN5OY072NRHMWCAZYFXTV7HU","A3O2D2BUS92BCA","3XT3KXP24ZKFDDMCDS43FE3AU9W6IW","","null","<img src=""img/land2.png"" style=""width:200px;border:14px solid red;"">","null","","","","","","","","","",""
"","image-keyboard-response","253","71565","0.0-253.0","38F5OAUN5OY072NRHMWCAZYFXTV7HU","A3O2D2BUS92BCA","3XT3KXP24ZKFDDMCDS43FE3AU9W6IW","","13","img/land5.png","75","14","2","0","1","2","0.8,0.2,0.2,0.2,0.8,0.2,0.2,0.2,0.8","0.8,0.2,0.2,0.2,0.8,0.2,0.2,0.2,0.8","1","",""
"","html-keyboard-response","254","71866","0.0-254.0","38F5OAUN5OY072NRHMWCAZYFXTV7HU","A3O2D2BUS92BCA","3XT3KXP24ZKFDDMCDS43FE3AU9W6IW","","null","<img src=""img/land5.png"" style=""width:200px;border:14px solid red;"">","null","","","","","","","","","",""
"","image-keyboard-response","255","71874","0.0-255.0","38F5OAUN5OY072NRHMWCAZYFXTV7HU","A3O2D2BUS92BCA","3XT3KXP24ZKFDDMCDS43FE3AU9W6IW","","7","img/land5.png","75","8","2","1","1","2","0.8,0.2,0.2,0.2,0.8,0.2,0.2,0.2,0.8","0.8,0.2,0.2,0.2,0.8,0.2,0.2,0.2,0.8","1","",""
"","html-keyboard-response","256","72176","0.0-256.0","38F5OAUN5OY072NRHMWCAZYFXTV7HU","A3O2D2BUS92BCA","3XT3KXP24ZKFDDMCDS43FE3AU9W6IW","","null","<img src=""img/land5.png"" style=""width:200px; border:14px solid green;"">","null","","","","","","","","","",""
"","image-keyboard-response","257","72183","0.0-257.0","38F5OAUN5OY072NRHMWCAZYFXTV7HU","A3O2D2BUS92BCA","3XT3KXP24ZKFDDMCDS43FE3AU9W6IW","","6","img/land5.png","75","7","2","1","1","2","0.8,0.2,0.2,0.2,0.8,0.2,0.2,0.2,0.8","0.8,0.2,0.2,0.2,0.8,0.2,0.2,0.2,0.8","1","",""
"","html-keyboard-response","258","72485","0.0-258.0","38F5OAUN5OY072NRHMWCAZYFXTV7HU","A3O2D2BUS92BCA","3XT3KXP24ZKFDDMCDS43FE3AU9W6IW","","null","<img src=""img/land5.png"" style=""width:200px; border:14px solid green;"">","null","","","","","","","","","",""
"","image-keyboard-response","259","72597","0.0-259.0","38F5OAUN5OY072NRHMWCAZYFXTV7HU","A3O2D2BUS92BCA","3XT3KXP24ZKFDDMCDS43FE3AU9W6IW","","111","img/land5.png","74","112","1","1","1","2","0.8,0.2,0.2,0.2,0.8,0.2,0.2,0.2,0.8","0.8,0.2,0.2,0.2,0.8,0.2,0.2,0.2,0.8","1","",""
"","html-keyboard-response","260","72899","0.0-260.0","38F5OAUN5OY072NRHMWCAZYFXTV7HU","A3O2D2BUS92BCA","3XT3KXP24ZKFDDMCDS43FE3AU9W6IW","","null","<img src=""img/land5.png"" style=""width:200px; border:14px solid green;"">","null","","","","","","","","","",""
"","image-keyboard-response","261","73065","0.0-261.0","38F5OAUN5OY072NRHMWCAZYFXTV7HU","A3O2D2BUS92BCA","3XT3KXP24ZKFDDMCDS43FE3AU9W6IW","","165","img/land5.png","75","166","2","1","1","2","0.8,0.2,0.2,0.2,0.8,0.2,0.2,0.2,0.8","0.8,0.2,0.2,0.2,0.8,0.2,0.2,0.2,0.8","1","",""
"","html-keyboard-response","262","73367","0.0-262.0","38F5OAUN5OY072NRHMWCAZYFXTV7HU","A3O2D2BUS92BCA","3XT3KXP24ZKFDDMCDS43FE3AU9W6IW","","null","<img src=""img/land5.png"" style=""width:200px; border:14px solid green;"">","null","","","","","","","","","",""
"","image-keyboard-response","263","73402","0.0-263.0","38F5OAUN5OY072NRHMWCAZYFXTV7HU","A3O2D2BUS92BCA","3XT3KXP24ZKFDDMCDS43FE3AU9W6IW","","34","img/land5.png","75","35","2","0","1","2","0.8,0.2,0.2,0.2,0.8,0.2,0.2,0.2,0.8","0.8,0.2,0.2,0.2,0.8,0.2,0.2,0.2,0.8","1","",""
"","html-keyboard-response","264","73703","0.0-264.0","38F5OAUN5OY072NRHMWCAZYFXTV7HU","A3O2D2BUS92BCA","3XT3KXP24ZKFDDMCDS43FE3AU9W6IW","","null","<img src=""img/land5.png"" style=""width:200px;border:14px solid red;"">","null","","","","","","","","","",""
"","image-keyboard-response","265","73719","0.0-265.0","38F5OAUN5OY072NRHMWCAZYFXTV7HU","A3O2D2BUS92BCA","3XT3KXP24ZKFDDMCDS43FE3AU9W6IW","","16","img/land5.png","75","17","2","0","1","2","0.8,0.2,0.2,0.2,0.8,0.2,0.2,0.2,0.8","0.8,0.2,0.2,0.2,0.8,0.2,0.2,0.2,0.8","1","",""
"","html-keyboard-response","266","74021","0.0-266.0","38F5OAUN5OY072NRHMWCAZYFXTV7HU","A3O2D2BUS92BCA","3XT3KXP24ZKFDDMCDS43FE3AU9W6IW","","null","<img src=""img/land5.png"" style=""width:200px;border:14px solid red;"">","null","","","","","","","","","",""
"","image-keyboard-response","267","74068","0.0-267.0","38F5OAUN5OY072NRHMWCAZYFXTV7HU","A3O2D2BUS92BCA","3XT3KXP24ZKFDDMCDS43FE3AU9W6IW","","47","img/land5.png","76","47","3","0","1","2","0.8,0.2,0.2,0.2,0.8,0.2,0.2,0.2,0.8","0.8,0.2,0.2,0.2,0.8,0.2,0.2,0.2,0.8","1","",""
"","html-keyboard-response","268","74370","0.0-268.0","38F5OAUN5OY072NRHMWCAZYFXTV7HU","A3O2D2BUS92BCA","3XT3KXP24ZKFDDMCDS43FE3AU9W6IW","","null","<img src=""img/land5.png"" style=""width:200px;border:14px solid red;"">","null","","","","","","","","","",""
"","image-keyboard-response","269","74494","0.0-269.0","38F5OAUN5OY072NRHMWCAZYFXTV7HU","A3O2D2BUS92BCA","3XT3KXP24ZKFDDMCDS43FE3AU9W6IW","","123","img/land4.png","74","124","1","0","2","2","0.8,0.2,0.2,0.2,0.8,0.2,0.2,0.2,0.8","0.8,0.2,0.2,0.2,0.8,0.2,0.2,0.2,0.8","1","",""
"","html-keyboard-response","270","74796","0.0-270.0","38F5OAUN5OY072NRHMWCAZYFXTV7HU","A3O2D2BUS92BCA","3XT3KXP24ZKFDDMCDS43FE3AU9W6IW","","null","<img src=""img/land4.png"" style=""width:200px;border:14px solid red;"">","null","","","","","","","","","",""
"","image-keyboard-response","271","74982","0.0-271.0","38F5OAUN5OY072NRHMWCAZYFXTV7HU","A3O2D2BUS92BCA","3XT3KXP24ZKFDDMCDS43FE3AU9W6IW","","184","img/land5.png","76","186","3","0","1","2","0.8,0.2,0.2,0.2,0.8,0.2,0.2,0.2,0.8","0.8,0.2,0.2,0.2,0.8,0.2,0.2,0.2,0.8","1","",""
"","html-keyboard-response","272","75284","0.0-272.0","38F5OAUN5OY072NRHMWCAZYFXTV7HU","A3O2D2BUS92BCA","3XT3KXP24ZKFDDMCDS43FE3AU9W6IW","","null","<img src=""img/land5.png"" style=""width:200px;border:14px solid red;"">","null","","","","","","","","","",""
"","image-keyboard-response","273","75308","0.0-273.0","38F5OAUN5OY072NRHMWCAZYFXTV7HU","A3O2D2BUS92BCA","3XT3KXP24ZKFDDMCDS43FE3AU9W6IW","","24","img/land5.png","75","24","2","0","1","2","0.8,0.2,0.2,0.2,0.8,0.2,0.2,0.2,0.8","0.8,0.2,0.2,0.2,0.8,0.2,0.2,0.2,0.8","1","",""
"","html-keyboard-response","274","75610","0.0-274.0","38F5OAUN5OY072NRHMWCAZYFXTV7HU","A3O2D2BUS92BCA","3XT3KXP24ZKFDDMCDS43FE3AU9W6IW","","null","<img src=""img/land5.png"" style=""width:200px;border:14px solid red;"">","null","","","","","","","","","",""
"","image-keyboard-response","275","75636","0.0-275.0","38F5OAUN5OY072NRHMWCAZYFXTV7HU","A3O2D2BUS92BCA","3XT3KXP24ZKFDDMCDS43FE3AU9W6IW","","25","img/land5.png","76","26","3","1","1","2","0.8,0.2,0.2,0.2,0.8,0.2,0.2,0.2,0.8","0.8,0.2,0.2,0.2,0.8,0.2,0.2,0.2,0.8","1","",""
"","html-keyboard-response","276","75938","0.0-276.0","38F5OAUN5OY072NRHMWCAZYFXTV7HU","A3O2D2BUS92BCA","3XT3KXP24ZKFDDMCDS43FE3AU9W6IW","","null","<img src=""img/land5.png"" style=""width:200px; border:14px solid green;"">","null","","","","","","","","","",""
"","image-keyboard-response","277","75955","0.0-277.0","38F5OAUN5OY072NRHMWCAZYFXTV7HU","A3O2D2BUS92BCA","3XT3KXP24ZKFDDMCDS43FE3AU9W6IW","","17","img/land5.png","75","17","2","0","1","2","0.8,0.2,0.2,0.2,0.8,0.2,0.2,0.2,0.8","0.8,0.2,0.2,0.2,0.8,0.2,0.2,0.2,0.8","1","",""
"","html-keyboard-response","278","76256","0.0-278.0","38F5OAUN5OY072NRHMWCAZYFXTV7HU","A3O2D2BUS92BCA","3XT3KXP24ZKFDDMCDS43FE3AU9W6IW","","null","<img src=""img/land5.png"" style=""width:200px;border:14px solid red;"">","null","","","","","","","","","",""
"","image-keyboard-response","279","76280","0.0-279.0","38F5OAUN5OY072NRHMWCAZYFXTV7HU","A3O2D2BUS92BCA","3XT3KXP24ZKFDDMCDS43FE3AU9W6IW","","23","img/land5.png","75","24","2","0","1","2","0.8,0.2,0.2,0.2,0.8,0.2,0.2,0.2,0.8","0.8,0.2,0.2,0.2,0.8,0.2,0.2,0.2,0.8","1","",""
"","html-keyboard-response","280","76583","0.0-280.0","38F5OAUN5OY072NRHMWCAZYFXTV7HU","A3O2D2BUS92BCA","3XT3KXP24ZKFDDMCDS43FE3AU9W6IW","","null","<img src=""img/land5.png"" style=""width:200px;border:14px solid red;"">","null","","","","","","","","","",""
"","image-keyboard-response","281","76598","0.0-281.0","38F5OAUN5OY072NRHMWCAZYFXTV7HU","A3O2D2BUS92BCA","3XT3KXP24ZKFDDMCDS43FE3AU9W6IW","","15","img/land4.png","75","15","2","1","2","2","0.8,0.2,0.2,0.2,0.8,0.2,0.2,0.2,0.8","0.8,0.2,0.2,0.2,0.8,0.2,0.2,0.2,0.8","1","",""
"","html-keyboard-response","282","76900","0.0-282.0","38F5OAUN5OY072NRHMWCAZYFXTV7HU","A3O2D2BUS92BCA","3XT3KXP24ZKFDDMCDS43FE3AU9W6IW","","null","<img src=""img/land4.png"" style=""width:200px; border:14px solid green;"">","null","","","","","","","","","",""
"","image-keyboard-response","283","76966","0.0-283.0","38F5OAUN5OY072NRHMWCAZYFXTV7HU","A3O2D2BUS92BCA","3XT3KXP24ZKFDDMCDS43FE3AU9W6IW","","66","img/land5.png","75","66","2","0","1","2","0.8,0.2,0.2,0.2,0.8,0.2,0.2,0.2,0.8","0.8,0.2,0.2,0.2,0.8,0.2,0.2,0.2,0.8","1","",""
"","html-keyboard-response","284","77267","0.0-284.0","38F5OAUN5OY072NRHMWCAZYFXTV7HU","A3O2D2BUS92BCA","3XT3KXP24ZKFDDMCDS43FE3AU9W6IW","","null","<img src=""img/land5.png"" style=""width:200px;border:14px solid red;"">","null","","","","","","","","","",""
"","image-keyboard-response","285","77352","0.0-285.0","38F5OAUN5OY072NRHMWCAZYFXTV7HU","A3O2D2BUS92BCA","3XT3KXP24ZKFDDMCDS43FE3AU9W6IW","","84","img/land5.png","75","86","2","0","1","2","0.8,0.2,0.2,0.2,0.8,0.2,0.2,0.2,0.8","0.8,0.2,0.2,0.2,0.8,0.2,0.2,0.2,0.8","1","",""
"","html-keyboard-response","286","77654","0.0-286.0","38F5OAUN5OY072NRHMWCAZYFXTV7HU","A3O2D2BUS92BCA","3XT3KXP24ZKFDDMCDS43FE3AU9W6IW","","null","<img src=""img/land5.png"" style=""width:200px;border:14px solid red;"">","null","","","","","","","","","",""
"","image-keyboard-response","287","77703","0.0-287.0","38F5OAUN5OY072NRHMWCAZYFXTV7HU","A3O2D2BUS92BCA","3XT3KXP24ZKFDDMCDS43FE3AU9W6IW","","49","img/land4.png","75","50","2","1","2","2","0.8,0.2,0.2,0.2,0.8,0.2,0.2,0.2,0.8","0.8,0.2,0.2,0.2,0.8,0.2,0.2,0.2,0.8","1","",""
"","html-keyboard-response","288","78004","0.0-288.0","38F5OAUN5OY072NRHMWCAZYFXTV7HU","A3O2D2BUS92BCA","3XT3KXP24ZKFDDMCDS43FE3AU9W6IW","","null","<img src=""img/land4.png"" style=""width:200px; border:14px solid green;"">","null","","","","","","","","","",""
"","image-keyboard-response","289","78048","0.0-289.0","38F5OAUN5OY072NRHMWCAZYFXTV7HU","A3O2D2BUS92BCA","3XT3KXP24ZKFDDMCDS43FE3AU9W6IW","","42","img/land5.png","75","44","2","1","1","2","0.8,0.2,0.2,0.2,0.8,0.2,0.2,0.2,0.8","0.8,0.2,0.2,0.2,0.8,0.2,0.2,0.2,0.8","1","",""
"","html-keyboard-response","290","78351","0.0-290.0","38F5OAUN5OY072NRHMWCAZYFXTV7HU","A3O2D2BUS92BCA","3XT3KXP24ZKFDDMCDS43FE3AU9W6IW","","null","<img src=""img/land5.png"" style=""width:200px; border:14px solid green;"">","null","","","","","","","","","",""
"","image-keyboard-response","291","78373","0.0-291.0","38F5OAUN5OY072NRHMWCAZYFXTV7HU","A3O2D2BUS92BCA","3XT3KXP24ZKFDDMCDS43FE3AU9W6IW","","22","img/land2.png","76","22","3","1","3","2","0.8,0.2,0.2,0.2,0.8,0.2,0.2,0.2,0.8","0.8,0.2,0.2,0.2,0.8,0.2,0.2,0.2,0.8","1","",""
"","html-keyboard-response","292","78675","0.0-292.0","38F5OAUN5OY072NRHMWCAZYFXTV7HU","A3O2D2BUS92BCA","3XT3KXP24ZKFDDMCDS43FE3AU9W6IW","","null","<img src=""img/land2.png"" style=""width:200px; border:14px solid green;"">","null","","","","","","","","","",""
"","image-keyboard-response","293","78681","0.0-293.0","38F5OAUN5OY072NRHMWCAZYFXTV7HU","A3O2D2BUS92BCA","3XT3KXP24ZKFDDMCDS43FE3AU9W6IW","","6","img/land5.png","75","6","2","0","1","2","0.8,0.2,0.2,0.2,0.8,0.2,0.2,0.2,0.8","0.8,0.2,0.2,0.2,0.8,0.2,0.2,0.2,0.8","1","",""
"","html-keyboard-response","294","78982","0.0-294.0","38F5OAUN5OY072NRHMWCAZYFXTV7HU","A3O2D2BUS92BCA","3XT3KXP24ZKFDDMCDS43FE3AU9W6IW","","null","<img src=""img/land5.png"" style=""width:200px;border:14px solid red;"">","null","","","","","","","","","",""
"","image-keyboard-response","295","79040","0.0-295.0","38F5OAUN5OY072NRHMWCAZYFXTV7HU","A3O2D2BUS92BCA","3XT3KXP24ZKFDDMCDS43FE3AU9W6IW","","57","img/land4.png","75","58","2","1","2","2","0.8,0.2,0.2,0.2,0.8,0.2,0.2,0.2,0.8","0.8,0.2,0.2,0.2,0.8,0.2,0.2,0.2,0.8","1","",""
"","html-keyboard-response","296","79346","0.0-296.0","38F5OAUN5OY072NRHMWCAZYFXTV7HU","A3O2D2BUS92BCA","3XT3KXP24ZKFDDMCDS43FE3AU9W6IW","","null","<img src=""img/land4.png"" style=""width:200px; border:14px solid green;"">","null","","","","","","","","","",""
"","image-keyboard-response","297","79360","0.0-297.0","38F5OAUN5OY072NRHMWCAZYFXTV7HU","A3O2D2BUS92BCA","3XT3KXP24ZKFDDMCDS43FE3AU9W6IW","","11","img/land2.png","75","13","2","1","3","2","0.8,0.2,0.2,0.2,0.8,0.2,0.2,0.2,0.8","0.8,0.2,0.2,0.2,0.8,0.2,0.2,0.2,0.8","1","",""
"","html-keyboard-response","298","79661","0.0-298.0","38F5OAUN5OY072NRHMWCAZYFXTV7HU","A3O2D2BUS92BCA","3XT3KXP24ZKFDDMCDS43FE3AU9W6IW","","null","<img src=""img/land2.png"" style=""width:200px; border:14px solid green;"">","null","","","","","","","","","",""
"","image-keyboard-response","299","79692","0.0-299.0","38F5OAUN5OY072NRHMWCAZYFXTV7HU","A3O2D2BUS92BCA","3XT3KXP24ZKFDDMCDS43FE3AU9W6IW","","30","img/land5.png","75","30","2","0","1","2","0.8,0.2,0.2,0.2,0.8,0.2,0.2,0.2,0.8","0.8,0.2,0.2,0.2,0.8,0.2,0.2,0.2,0.8","1","",""
"","html-keyboard-response","300","80001","0.0-300.0","38F5OAUN5OY072NRHMWCAZYFXTV7HU","A3O2D2BUS92BCA","3XT3KXP24ZKFDDMCDS43FE3AU9W6IW","","null","<img src=""img/land5.png"" style=""width:200px;border:14px solid red;"">","null","","","","","","","","","",""
"","image-keyboard-response","301","80023","0.0-301.0","38F5OAUN5OY072NRHMWCAZYFXTV7HU","A3O2D2BUS92BCA","3XT3KXP24ZKFDDMCDS43FE3AU9W6IW","","21","img/land2.png","75","22","2","0","3","2","0.8,0.2,0.2,0.2,0.8,0.2,0.2,0.2,0.8","0.8,0.2,0.2,0.2,0.8,0.2,0.2,0.2,0.8","1","",""
"","html-keyboard-response","302","80324","0.0-302.0","38F5OAUN5OY072NRHMWCAZYFXTV7HU","A3O2D2BUS92BCA","3XT3KXP24ZKFDDMCDS43FE3AU9W6IW","","null","<img src=""img/land2.png"" style=""width:200px;border:14px solid red;"">","null","","","","","","","","","",""
"","image-keyboard-response","303","80335","0.0-303.0","38F5OAUN5OY072NRHMWCAZYFXTV7HU","A3O2D2BUS92BCA","3XT3KXP24ZKFDDMCDS43FE3AU9W6IW","","10","img/land5.png","76","11","3","0","1","2","0.8,0.2,0.2,0.2,0.8,0.2,0.2,0.2,0.8","0.8,0.2,0.2,0.2,0.8,0.2,0.2,0.2,0.8","1","",""
"","html-keyboard-response","304","80640","0.0-304.0","38F5OAUN5OY072NRHMWCAZYFXTV7HU","A3O2D2BUS92BCA","3XT3KXP24ZKFDDMCDS43FE3AU9W6IW","","null","<img src=""img/land5.png"" style=""width:200px;border:14px solid red;"">","null","","","","","","","","","",""
"","image-keyboard-response","305","80767","0.0-305.0","38F5OAUN5OY072NRHMWCAZYFXTV7HU","A3O2D2BUS92BCA","3XT3KXP24ZKFDDMCDS43FE3AU9W6IW","","125","img/land2.png","74","127","1","0","3","2","0.8,0.2,0.2,0.2,0.8,0.2,0.2,0.2,0.8","0.8,0.2,0.2,0.2,0.8,0.2,0.2,0.2,0.8","1","",""
"","html-keyboard-response","306","81068","0.0-306.0","38F5OAUN5OY072NRHMWCAZYFXTV7HU","A3O2D2BUS92BCA","3XT3KXP24ZKFDDMCDS43FE3AU9W6IW","","null","<img src=""img/land2.png"" style=""width:200px;border:14px solid red;"">","null","","","","","","","","","",""
"","image-keyboard-response","307","81223","0.0-307.0","38F5OAUN5OY072NRHMWCAZYFXTV7HU","A3O2D2BUS92BCA","3XT3KXP24ZKFDDMCDS43FE3AU9W6IW","","152","img/land4.png","74","153","1","0","2","2","0.8,0.2,0.2,0.2,0.8,0.2,0.2,0.2,0.8","0.8,0.2,0.2,0.2,0.8,0.2,0.2,0.2,0.8","1","",""
"","html-keyboard-response","308","81527","0.0-308.0","38F5OAUN5OY072NRHMWCAZYFXTV7HU","A3O2D2BUS92BCA","3XT3KXP24ZKFDDMCDS43FE3AU9W6IW","","null","<img src=""img/land4.png"" style=""width:200px;border:14px solid red;"">","null","","","","","","","","","",""
"","image-keyboard-response","309","81718","0.0-309.0","38F5OAUN5OY072NRHMWCAZYFXTV7HU","A3O2D2BUS92BCA","3XT3KXP24ZKFDDMCDS43FE3AU9W6IW","","191","img/land5.png","76","191","3","0","1","2","0.8,0.2,0.2,0.2,0.8,0.2,0.2,0.2,0.8","0.8,0.2,0.2,0.2,0.8,0.2,0.2,0.2,0.8","1","",""
"","html-keyboard-response","310","82020","0.0-310.0","38F5OAUN5OY072NRHMWCAZYFXTV7HU","A3O2D2BUS92BCA","3XT3KXP24ZKFDDMCDS43FE3AU9W6IW","","null","<img src=""img/land5.png"" style=""width:200px;border:14px solid red;"">","null","","","","","","","","","",""
"","image-keyboard-response","311","82048","0.0-311.0","38F5OAUN5OY072NRHMWCAZYFXTV7HU","A3O2D2BUS92BCA","3XT3KXP24ZKFDDMCDS43FE3AU9W6IW","","27","img/land2.png","75","29","2","0","3","2","0.8,0.2,0.2,0.2,0.8,0.2,0.2,0.2,0.8","0.8,0.2,0.2,0.2,0.8,0.2,0.2,0.2,0.8","1","",""
"","html-keyboard-response","312","82349","0.0-312.0","38F5OAUN5OY072NRHMWCAZYFXTV7HU","A3O2D2BUS92BCA","3XT3KXP24ZKFDDMCDS43FE3AU9W6IW","","null","<img src=""img/land2.png"" style=""width:200px;border:14px solid red;"">","null","","","","","","","","","",""
"","image-keyboard-response","313","82354","0.0-313.0","38F5OAUN5OY072NRHMWCAZYFXTV7HU","A3O2D2BUS92BCA","3XT3KXP24ZKFDDMCDS43FE3AU9W6IW","","3","img/land5.png","76","5","3","0","1","2","0.8,0.2,0.2,0.2,0.8,0.2,0.2,0.2,0.8","0.8,0.2,0.2,0.2,0.8,0.2,0.2,0.2,0.8","1","",""
"","html-keyboard-response","314","82658","0.0-314.0","38F5OAUN5OY072NRHMWCAZYFXTV7HU","A3O2D2BUS92BCA","3XT3KXP24ZKFDDMCDS43FE3AU9W6IW","","null","<img src=""img/land5.png"" style=""width:200px;border:14px solid red;"">","null","","","","","","","","","",""
"","image-keyboard-response","315","82881","0.0-315.0","38F5OAUN5OY072NRHMWCAZYFXTV7HU","A3O2D2BUS92BCA","3XT3KXP24ZKFDDMCDS43FE3AU9W6IW","","221","img/land5.png","74","222","1","1","1","2","0.8,0.2,0.2,0.2,0.8,0.2,0.2,0.2,0.8","0.8,0.2,0.2,0.2,0.8,0.2,0.2,0.2,0.8","1","",""
"","html-keyboard-response","316","83182","0.0-316.0","38F5OAUN5OY072NRHMWCAZYFXTV7HU","A3O2D2BUS92BCA","3XT3KXP24ZKFDDMCDS43FE3AU9W6IW","","null","<img src=""img/land5.png"" style=""width:200px; border:14px solid green;"">","null","","","","","","","","","",""
"","image-keyboard-response","317","83229","0.0-317.0","38F5OAUN5OY072NRHMWCAZYFXTV7HU","A3O2D2BUS92BCA","3XT3KXP24ZKFDDMCDS43FE3AU9W6IW","","45","img/land2.png","74","47","1","1","3","2","0.8,0.2,0.2,0.2,0.8,0.2,0.2,0.2,0.8","0.8,0.2,0.2,0.2,0.8,0.2,0.2,0.2,0.8","1","",""
"","html-keyboard-response","318","83530","0.0-318.0","38F5OAUN5OY072NRHMWCAZYFXTV7HU","A3O2D2BUS92BCA","3XT3KXP24ZKFDDMCDS43FE3AU9W6IW","","null","<img src=""img/land2.png"" style=""width:200px; border:14px solid green;"">","null","","","","","","","","","",""
"","image-keyboard-response","319","83538","0.0-319.0","38F5OAUN5OY072NRHMWCAZYFXTV7HU","A3O2D2BUS92BCA","3XT3KXP24ZKFDDMCDS43FE3AU9W6IW","","7","img/land5.png","75","8","2","0","1","2","0.8,0.2,0.2,0.2,0.8,0.2,0.2,0.2,0.8","0.8,0.2,0.2,0.2,0.8,0.2,0.2,0.2,0.8","1","",""
"","html-keyboard-response","320","83839","0.0-320.0","38F5OAUN5OY072NRHMWCAZYFXTV7HU","A3O2D2BUS92BCA","3XT3KXP24ZKFDDMCDS43FE3AU9W6IW","","null","<img src=""img/land5.png"" style=""width:200px;border:14px solid red;"">","null","","","","","","","","","",""
"","image-keyboard-response","321","83864","0.0-321.0","38F5OAUN5OY072NRHMWCAZYFXTV7HU","A3O2D2BUS92BCA","3XT3KXP24ZKFDDMCDS43FE3AU9W6IW","","24","img/land4.png","74","25","1","1","2","2","0.8,0.2,0.2,0.2,0.8,0.2,0.2,0.2,0.8","0.8,0.2,0.2,0.2,0.8,0.2,0.2,0.2,0.8","1","",""
"","html-keyboard-response","322","84165","0.0-322.0","38F5OAUN5OY072NRHMWCAZYFXTV7HU","A3O2D2BUS92BCA","3XT3KXP24ZKFDDMCDS43FE3AU9W6IW","","null","<img src=""img/land4.png"" style=""width:200px; border:14px solid green;"">","null","","","","","","","","","",""
"","image-keyboard-response","323","84354","0.0-323.0","38F5OAUN5OY072NRHMWCAZYFXTV7HU","A3O2D2BUS92BCA","3XT3KXP24ZKFDDMCDS43FE3AU9W6IW","","188","img/land5.png","75","189","2","0","1","2","0.8,0.2,0.2,0.2,0.8,0.2,0.2,0.2,0.8","0.8,0.2,0.2,0.2,0.8,0.2,0.2,0.2,0.8","1","",""
"","html-keyboard-response","324","84656","0.0-324.0","38F5OAUN5OY072NRHMWCAZYFXTV7HU","A3O2D2BUS92BCA","3XT3KXP24ZKFDDMCDS43FE3AU9W6IW","","null","<img src=""img/land5.png"" style=""width:200px;border:14px solid red;"">","null","","","","","","","","","",""
"","image-keyboard-response","325","84662","0.0-325.0","38F5OAUN5OY072NRHMWCAZYFXTV7HU","A3O2D2BUS92BCA","3XT3KXP24ZKFDDMCDS43FE3AU9W6IW","","6","img/land5.png","76","6","3","0","1","2","0.8,0.2,0.2,0.2,0.8,0.2,0.2,0.2,0.8","0.8,0.2,0.2,0.2,0.8,0.2,0.2,0.2,0.8","1","",""
"","html-keyboard-response","326","84963","0.0-326.0","38F5OAUN5OY072NRHMWCAZYFXTV7HU","A3O2D2BUS92BCA","3XT3KXP24ZKFDDMCDS43FE3AU9W6IW","","null","<img src=""img/land5.png"" style=""width:200px;border:14px solid red;"">","null","","","","","","","","","",""
"","image-keyboard-response","327","85065","0.0-327.0","38F5OAUN5OY072NRHMWCAZYFXTV7HU","A3O2D2BUS92BCA","3XT3KXP24ZKFDDMCDS43FE3AU9W6IW","","101","img/land2.png","74","102","1","0","3","2","0.8,0.2,0.2,0.2,0.8,0.2,0.2,0.2,0.8","0.8,0.2,0.2,0.2,0.8,0.2,0.2,0.2,0.8","1","",""
"","html-keyboard-response","328","85366","0.0-328.0","38F5OAUN5OY072NRHMWCAZYFXTV7HU","A3O2D2BUS92BCA","3XT3KXP24ZKFDDMCDS43FE3AU9W6IW","","null","<img src=""img/land2.png"" style=""width:200px;border:14px solid red;"">","null","","","","","","","","","",""
"","image-keyboard-response","329","85376","0.0-329.0","38F5OAUN5OY072NRHMWCAZYFXTV7HU","A3O2D2BUS92BCA","3XT3KXP24ZKFDDMCDS43FE3AU9W6IW","","9","img/land2.png","74","10","1","0","3","2","0.8,0.2,0.2,0.2,0.8,0.2,0.2,0.2,0.8","0.8,0.2,0.2,0.2,0.8,0.2,0.2,0.2,0.8","1","",""
"","html-keyboard-response","330","85678","0.0-330.0","38F5OAUN5OY072NRHMWCAZYFXTV7HU","A3O2D2BUS92BCA","3XT3KXP24ZKFDDMCDS43FE3AU9W6IW","","null","<img src=""img/land2.png"" style=""width:200px;border:14px solid red;"">","null","","","","","","","","","",""
"","image-keyboard-response","331","85749","0.0-331.0","38F5OAUN5OY072NRHMWCAZYFXTV7HU","A3O2D2BUS92BCA","3XT3KXP24ZKFDDMCDS43FE3AU9W6IW","","70","img/land5.png","74","71","1","1","1","2","0.8,0.2,0.2,0.2,0.8,0.2,0.2,0.2,0.8","0.8,0.2,0.2,0.2,0.8,0.2,0.2,0.2,0.8","1","",""
"","html-keyboard-response","332","86050","0.0-332.0","38F5OAUN5OY072NRHMWCAZYFXTV7HU","A3O2D2BUS92BCA","3XT3KXP24ZKFDDMCDS43FE3AU9W6IW","","null","<img src=""img/land5.png"" style=""width:200px; border:14px solid green;"">","null","","","","","","","","","",""
"","image-keyboard-response","333","86358","0.0-333.0","38F5OAUN5OY072NRHMWCAZYFXTV7HU","A3O2D2BUS92BCA","3XT3KXP24ZKFDDMCDS43FE3AU9W6IW","","306","img/land5.png","75","308","2","0","1","2","0.8,0.2,0.2,0.2,0.8,0.2,0.2,0.2,0.8","0.8,0.2,0.2,0.2,0.8,0.2,0.2,0.2,0.8","1","",""
"","html-keyboard-response","334","86659","0.0-334.0","38F5OAUN5OY072NRHMWCAZYFXTV7HU","A3O2D2BUS92BCA","3XT3KXP24ZKFDDMCDS43FE3AU9W6IW","","null","<img src=""img/land5.png"" style=""width:200px;border:14px solid red;"">","null","","","","","","","","","",""
"","image-keyboard-response","335","86704","0.0-335.0","38F5OAUN5OY072NRHMWCAZYFXTV7HU","A3O2D2BUS92BCA","3XT3KXP24ZKFDDMCDS43FE3AU9W6IW","","45","img/land2.png","75","46","2","0","3","2","0.8,0.2,0.2,0.2,0.8,0.2,0.2,0.2,0.8","0.8,0.2,0.2,0.2,0.8,0.2,0.2,0.2,0.8","1","",""
"","html-keyboard-response","336","87006","0.0-336.0","38F5OAUN5OY072NRHMWCAZYFXTV7HU","A3O2D2BUS92BCA","3XT3KXP24ZKFDDMCDS43FE3AU9W6IW","","null","<img src=""img/land2.png"" style=""width:200px;border:14px solid red;"">","null","","","","","","","","","",""
"","image-keyboard-response","337","87013","0.0-337.0","38F5OAUN5OY072NRHMWCAZYFXTV7HU","A3O2D2BUS92BCA","3XT3KXP24ZKFDDMCDS43FE3AU9W6IW","","6","img/land5.png","76","7","3","0","1","2","0.8,0.2,0.2,0.2,0.8,0.2,0.2,0.2,0.8","0.8,0.2,0.2,0.2,0.8,0.2,0.2,0.2,0.8","1","",""
"","html-keyboard-response","338","87315","0.0-338.0","38F5OAUN5OY072NRHMWCAZYFXTV7HU","A3O2D2BUS92BCA","3XT3KXP24ZKFDDMCDS43FE3AU9W6IW","","null","<img src=""img/land5.png"" style=""width:200px;border:14px solid red;"">","null","","","","","","","","","",""
"","image-keyboard-response","339","87337","0.0-339.0","38F5OAUN5OY072NRHMWCAZYFXTV7HU","A3O2D2BUS92BCA","3XT3KXP24ZKFDDMCDS43FE3AU9W6IW","","21","img/land5.png","75","22","2","0","1","2","0.8,0.2,0.2,0.2,0.8,0.2,0.2,0.2,0.8","0.8,0.2,0.2,0.2,0.8,0.2,0.2,0.2,0.8","1","",""
"","html-keyboard-response","340","87639","0.0-340.0","38F5OAUN5OY072NRHMWCAZYFXTV7HU","A3O2D2BUS92BCA","3XT3KXP24ZKFDDMCDS43FE3AU9W6IW","","null","<img src=""img/land5.png"" style=""width:200px;border:14px solid red;"">","null","","","","","","","","","",""
"","image-keyboard-response","341","87751","0.0-341.0","38F5OAUN5OY072NRHMWCAZYFXTV7HU","A3O2D2BUS92BCA","3XT3KXP24ZKFDDMCDS43FE3AU9W6IW","","112","img/land5.png","75","112","2","0","1","2","0.8,0.2,0.2,0.2,0.8,0.2,0.2,0.2,0.8","0.8,0.2,0.2,0.2,0.8,0.2,0.2,0.2,0.8","1","",""
"","html-keyboard-response","342","88053","0.0-342.0","38F5OAUN5OY072NRHMWCAZYFXTV7HU","A3O2D2BUS92BCA","3XT3KXP24ZKFDDMCDS43FE3AU9W6IW","","null","<img src=""img/land5.png"" style=""width:200px;border:14px solid red;"">","null","","","","","","","","","",""
"","image-keyboard-response","343","88170","0.0-343.0","38F5OAUN5OY072NRHMWCAZYFXTV7HU","A3O2D2BUS92BCA","3XT3KXP24ZKFDDMCDS43FE3AU9W6IW","","117","img/land5.png","74","118","1","1","1","2","0.8,0.2,0.2,0.2,0.8,0.2,0.2,0.2,0.8","0.8,0.2,0.2,0.2,0.8,0.2,0.2,0.2,0.8","1","",""
"","html-keyboard-response","344","88471","0.0-344.0","38F5OAUN5OY072NRHMWCAZYFXTV7HU","A3O2D2BUS92BCA","3XT3KXP24ZKFDDMCDS43FE3AU9W6IW","","null","<img src=""img/land5.png"" style=""width:200px; border:14px solid green;"">","null","","","","","","","","","",""
"","image-keyboard-response","345","88501","0.0-345.0","38F5OAUN5OY072NRHMWCAZYFXTV7HU","A3O2D2BUS92BCA","3XT3KXP24ZKFDDMCDS43FE3AU9W6IW","","30","img/land4.png","74","30","1","0","2","2","0.8,0.2,0.2,0.2,0.8,0.2,0.2,0.2,0.8","0.8,0.2,0.2,0.2,0.8,0.2,0.2,0.2,0.8","1","",""
"","html-keyboard-response","346","88802","0.0-346.0","38F5OAUN5OY072NRHMWCAZYFXTV7HU","A3O2D2BUS92BCA","3XT3KXP24ZKFDDMCDS43FE3AU9W6IW","","null","<img src=""img/land4.png"" style=""width:200px;border:14px solid red;"">","null","","","","","","","","","",""
"","image-keyboard-response","347","88824","0.0-347.0","38F5OAUN5OY072NRHMWCAZYFXTV7HU","A3O2D2BUS92BCA","3XT3KXP24ZKFDDMCDS43FE3AU9W6IW","","21","img/land5.png","74","23","1","1","1","2","0.8,0.2,0.2,0.2,0.8,0.2,0.2,0.2,0.8","0.8,0.2,0.2,0.2,0.8,0.2,0.2,0.2,0.8","1","",""
"","html-keyboard-response","348","89126","0.0-348.0","38F5OAUN5OY072NRHMWCAZYFXTV7HU","A3O2D2BUS92BCA","3XT3KXP24ZKFDDMCDS43FE3AU9W6IW","","null","<img src=""img/land5.png"" style=""width:200px; border:14px solid green;"">","null","","","","","","","","","",""
"","image-keyboard-response","349","89302","0.0-349.0","38F5OAUN5OY072NRHMWCAZYFXTV7HU","A3O2D2BUS92BCA","3XT3KXP24ZKFDDMCDS43FE3AU9W6IW","","174","img/land5.png","75","175","2","0","1","2","0.8,0.2,0.2,0.2,0.8,0.2,0.2,0.2,0.8","0.8,0.2,0.2,0.2,0.8,0.2,0.2,0.2,0.8","1","",""
"","html-keyboard-response","350","89603","0.0-350.0","38F5OAUN5OY072NRHMWCAZYFXTV7HU","A3O2D2BUS92BCA","3XT3KXP24ZKFDDMCDS43FE3AU9W6IW","","null","<img src=""img/land5.png"" style=""width:200px;border:14px solid red;"">","null","","","","","","","","","",""
"","image-keyboard-response","351","89650","0.0-351.0","38F5OAUN5OY072NRHMWCAZYFXTV7HU","A3O2D2BUS92BCA","3XT3KXP24ZKFDDMCDS43FE3AU9W6IW","","47","img/land2.png","75","47","2","1","3","2","0.8,0.2,0.2,0.2,0.8,0.2,0.2,0.2,0.8","0.8,0.2,0.2,0.2,0.8,0.2,0.2,0.2,0.8","1","",""
"","html-keyboard-response","352","89952","0.0-352.0","38F5OAUN5OY072NRHMWCAZYFXTV7HU","A3O2D2BUS92BCA","3XT3KXP24ZKFDDMCDS43FE3AU9W6IW","","null","<img src=""img/land2.png"" style=""width:200px; border:14px solid green;"">","null","","","","","","","","","",""
"","image-keyboard-response","353","89968","0.0-353.0","38F5OAUN5OY072NRHMWCAZYFXTV7HU","A3O2D2BUS92BCA","3XT3KXP24ZKFDDMCDS43FE3AU9W6IW","","15","img/land4.png","75","16","2","1","2","2","0.8,0.2,0.2,0.2,0.8,0.2,0.2,0.2,0.8","0.8,0.2,0.2,0.2,0.8,0.2,0.2,0.2,0.8","1","",""
"","html-keyboard-response","354","90268","0.0-354.0","38F5OAUN5OY072NRHMWCAZYFXTV7HU","A3O2D2BUS92BCA","3XT3KXP24ZKFDDMCDS43FE3AU9W6IW","","null","<img src=""img/land4.png"" style=""width:200px; border:14px solid green;"">","null","","","","","","","","","",""
"","image-keyboard-response","355","90316","0.0-355.0","38F5OAUN5OY072NRHMWCAZYFXTV7HU","A3O2D2BUS92BCA","3XT3KXP24ZKFDDMCDS43FE3AU9W6IW","","48","img/land4.png","76","48","3","1","2","2","0.8,0.2,0.2,0.2,0.8,0.2,0.2,0.2,0.8","0.8,0.2,0.2,0.2,0.8,0.2,0.2,0.2,0.8","1","",""
"","html-keyboard-response","356","90617","0.0-356.0","38F5OAUN5OY072NRHMWCAZYFXTV7HU","A3O2D2BUS92BCA","3XT3KXP24ZKFDDMCDS43FE3AU9W6IW","","null","<img src=""img/land4.png"" style=""width:200px; border:14px solid green;"">","null","","","","","","","","","",""
"","image-keyboard-response","357","90643","0.0-357.0","38F5OAUN5OY072NRHMWCAZYFXTV7HU","A3O2D2BUS92BCA","3XT3KXP24ZKFDDMCDS43FE3AU9W6IW","","25","img/land2.png","75","26","2","0","3","2","0.8,0.2,0.2,0.2,0.8,0.2,0.2,0.2,0.8","0.8,0.2,0.2,0.2,0.8,0.2,0.2,0.2,0.8","1","",""
"","html-keyboard-response","358","90944","0.0-358.0","38F5OAUN5OY072NRHMWCAZYFXTV7HU","A3O2D2BUS92BCA","3XT3KXP24ZKFDDMCDS43FE3AU9W6IW","","null","<img src=""img/land2.png"" style=""width:200px;border:14px solid red;"">","null","","","","","","","","","",""
"","image-keyboard-response","359","90980","0.0-359.0","38F5OAUN5OY072NRHMWCAZYFXTV7HU","A3O2D2BUS92BCA","3XT3KXP24ZKFDDMCDS43FE3AU9W6IW","","35","img/land2.png","75","36","2","0","3","2","0.8,0.2,0.2,0.2,0.8,0.2,0.2,0.2,0.8","0.8,0.2,0.2,0.2,0.8,0.2,0.2,0.2,0.8","1","",""
"","html-keyboard-response","360","91281","0.0-360.0","38F5OAUN5OY072NRHMWCAZYFXTV7HU","A3O2D2BUS92BCA","3XT3KXP24ZKFDDMCDS43FE3AU9W6IW","","null","<img src=""img/land2.png"" style=""width:200px;border:14px solid red;"">","null","","","","","","","","","",""
"","image-keyboard-response","361","91288","0.0-361.0","38F5OAUN5OY072NRHMWCAZYFXTV7HU","A3O2D2BUS92BCA","3XT3KXP24ZKFDDMCDS43FE3AU9W6IW","","6","img/land5.png","75","7","2","0","1","2","0.8,0.2,0.2,0.2,0.8,0.2,0.2,0.2,0.8","0.8,0.2,0.2,0.2,0.8,0.2,0.2,0.2,0.8","1","",""
"","html-keyboard-response","362","91590","0.0-362.0","38F5OAUN5OY072NRHMWCAZYFXTV7HU","A3O2D2BUS92BCA","3XT3KXP24ZKFDDMCDS43FE3AU9W6IW","","null","<img src=""img/land5.png"" style=""width:200px;border:14px solid red;"">","null","","","","","","","","","",""
"","image-keyboard-response","363","91648","0.0-363.0","38F5OAUN5OY072NRHMWCAZYFXTV7HU","A3O2D2BUS92BCA","3XT3KXP24ZKFDDMCDS43FE3AU9W6IW","","57","img/land5.png","75","58","2","0","1","2","0.8,0.2,0.2,0.2,0.8,0.2,0.2,0.2,0.8","0.8,0.2,0.2,0.2,0.8,0.2,0.2,0.2,0.8","1","",""
"","html-keyboard-response","364","91949","0.0-364.0","38F5OAUN5OY072NRHMWCAZYFXTV7HU","A3O2D2BUS92BCA","3XT3KXP24ZKFDDMCDS43FE3AU9W6IW","","null","<img src=""img/land5.png"" style=""width:200px;border:14px solid red;"">","null","","","","","","","","","",""
"","image-keyboard-response","365","91972","0.0-365.0","38F5OAUN5OY072NRHMWCAZYFXTV7HU","A3O2D2BUS92BCA","3XT3KXP24ZKFDDMCDS43FE3AU9W6IW","","21","img/land5.png","76","23","3","0","1","2","0.8,0.2,0.2,0.2,0.8,0.2,0.2,0.2,0.8","0.8,0.2,0.2,0.2,0.8,0.2,0.2,0.2,0.8","1","",""
"","html-keyboard-response","366","92273","0.0-366.0","38F5OAUN5OY072NRHMWCAZYFXTV7HU","A3O2D2BUS92BCA","3XT3KXP24ZKFDDMCDS43FE3AU9W6IW","","null","<img src=""img/land5.png"" style=""width:200px;border:14px solid red;"">","null","","","","","","","","","",""
"","image-keyboard-response","367","92402","0.0-367.0","38F5OAUN5OY072NRHMWCAZYFXTV7HU","A3O2D2BUS92BCA","3XT3KXP24ZKFDDMCDS43FE3AU9W6IW","","126","img/land5.png","74","129","1","0","1","2","0.8,0.2,0.2,0.2,0.8,0.2,0.2,0.2,0.8","0.8,0.2,0.2,0.2,0.8,0.2,0.2,0.2,0.8","1","",""
"","html-keyboard-response","368","92703","0.0-368.0","38F5OAUN5OY072NRHMWCAZYFXTV7HU","A3O2D2BUS92BCA","3XT3KXP24ZKFDDMCDS43FE3AU9W6IW","","null","<img src=""img/land5.png"" style=""width:200px;border:14px solid red;"">","null","","","","","","","","","",""
"","image-keyboard-response","369","92895","0.0-369.0","38F5OAUN5OY072NRHMWCAZYFXTV7HU","A3O2D2BUS92BCA","3XT3KXP24ZKFDDMCDS43FE3AU9W6IW","","191","img/land5.png","76","192","3","0","1","2","0.8,0.2,0.2,0.2,0.8,0.2,0.2,0.2,0.8","0.8,0.2,0.2,0.2,0.8,0.2,0.2,0.2,0.8","1","",""
"","html-keyboard-response","370","93196","0.0-370.0","38F5OAUN5OY072NRHMWCAZYFXTV7HU","A3O2D2BUS92BCA","3XT3KXP24ZKFDDMCDS43FE3AU9W6IW","","null","<img src=""img/land5.png"" style=""width:200px;border:14px solid red;"">","null","","","","","","","","","",""
"","image-keyboard-response","371","93224","0.0-371.0","38F5OAUN5OY072NRHMWCAZYFXTV7HU","A3O2D2BUS92BCA","3XT3KXP24ZKFDDMCDS43FE3AU9W6IW","","25","img/land5.png","75","26","2","0","1","2","0.8,0.2,0.2,0.2,0.8,0.2,0.2,0.2,0.8","0.8,0.2,0.2,0.2,0.8,0.2,0.2,0.2,0.8","1","",""
"","html-keyboard-response","372","93524","0.0-372.0","38F5OAUN5OY072NRHMWCAZYFXTV7HU","A3O2D2BUS92BCA","3XT3KXP24ZKFDDMCDS43FE3AU9W6IW","","null","<img src=""img/land5.png"" style=""width:200px;border:14px solid red;"">","null","","","","","","","","","",""
