"success","trial_type","trial_index","time_elapsed","internal_node_id","assignmentID","mturkID","hitID","view_history","rt","stimulus","key_press","reactionTime","a","r","s","cond","reward_cond","reward_cond_actual","reward_matrix_idx","responses","question_order"
"true","fullscreen","0","2812","0.0-0.0","39GAF6DQWSMREH39XVW7OQYB2FP1VM","A3OV174HQJIJK8","3HUR21WDDUBEMSLDIXZW1FAIHW8YX3","","","","","","","","","","","","","",""
"","instructions","1","22299","0.0-1.0","39GAF6DQWSMREH39XVW7OQYB2FP1VM","A3OV174HQJIJK8","3HUR21WDDUBEMSLDIXZW1FAIHW8YX3","[{""page_index"":0,""viewing_time"":1509.7000000029802},{""page_index"":1,""viewing_time"":1087.9000000059605},{""page_index"":2,""viewing_time"":1064.199999988079},{""page_index"":3,""viewing_time"":1431.7000000029802},{""page_index"":4,""viewing_time"":2928.1000000089407},{""page_index"":5,""viewing_time"":8295.89999999106},{""page_index"":6,""viewing_time"":3167.9000000059605}]","19485.79999999702","","","","","","","","","","","",""
"","image-keyboard-response","2","23766","0.0-2.0","39GAF6DQWSMREH39XVW7OQYB2FP1VM","A3OV174HQJIJK8","3HUR21WDDUBEMSLDIXZW1FAIHW8YX3","","1464.8999999910593","img/land2.png","74","1466.2000000029802","1","1","1","1","0.8,0.2,0.2,0.2,0.8,0.2,0.2,0.2,0.8","0.8,0.2,0.2,0.2,0.8,0.2,0.2,0.2,0.8","1","",""
"","html-keyboard-response","3","24082","0.0-3.0","39GAF6DQWSMREH39XVW7OQYB2FP1VM","A3OV174HQJIJK8","3HUR21WDDUBEMSLDIXZW1FAIHW8YX3","","null","<img src=""img/land2.png"" style=""width:200px; border:14px solid green;"">","null","","","","","","","","","",""
"","image-keyboard-response","4","24851","0.0-4.0","39GAF6DQWSMREH39XVW7OQYB2FP1VM","A3OV174HQJIJK8","3HUR21WDDUBEMSLDIXZW1FAIHW8YX3","","767.7000000029802","img/land2.png","74","768.5999999940395","1","1","1","1","0.8,0.2,0.2,0.2,0.8,0.2,0.2,0.2,0.8","0.8,0.2,0.2,0.2,0.8,0.2,0.2,0.2,0.8","1","",""
"","html-keyboard-response","5","25154","0.0-5.0","39GAF6DQWSMREH39XVW7OQYB2FP1VM","A3OV174HQJIJK8","3HUR21WDDUBEMSLDIXZW1FAIHW8YX3","","null","<img src=""img/land2.png"" style=""width:200px; border:14px solid green;"">","null","","","","","","","","","",""
"","image-keyboard-response","6","25477","0.0-6.0","39GAF6DQWSMREH39XVW7OQYB2FP1VM","A3OV174HQJIJK8","3HUR21WDDUBEMSLDIXZW1FAIHW8YX3","","321.90000000596046","img/land2.png","74","322.70000000298023","1","1","1","1","0.8,0.2,0.2,0.2,0.8,0.2,0.2,0.2,0.8","0.8,0.2,0.2,0.2,0.8,0.2,0.2,0.2,0.8","1","",""
"","html-keyboard-response","7","25793","0.0-7.0","39GAF6DQWSMREH39XVW7OQYB2FP1VM","A3OV174HQJIJK8","3HUR21WDDUBEMSLDIXZW1FAIHW8YX3","","null","<img src=""img/land2.png"" style=""width:200px; border:14px solid green;"">","null","","","","","","","","","",""
"","image-keyboard-response","8","26397","0.0-8.0","39GAF6DQWSMREH39XVW7OQYB2FP1VM","A3OV174HQJIJK8","3HUR21WDDUBEMSLDIXZW1FAIHW8YX3","","603.7000000029802","img/land4.png","75","604.5","2","1","3","1","0.8,0.2,0.2,0.2,0.8,0.2,0.2,0.2,0.8","0.8,0.2,0.2,0.2,0.8,0.2,0.2,0.2,0.8","1","",""
"","html-keyboard-response","9","26712","0.0-9.0","39GAF6DQWSMREH39XVW7OQYB2FP1VM","A3OV174HQJIJK8","3HUR21WDDUBEMSLDIXZW1FAIHW8YX3","","null","<img src=""img/land4.png"" style=""width:200px; border:14px solid green;"">","null","","","","","","","","","",""
"","image-keyboard-response","10","27358","0.0-10.0","39GAF6DQWSMREH39XVW7OQYB2FP1VM","A3OV174HQJIJK8","3HUR21WDDUBEMSLDIXZW1FAIHW8YX3","","645.3999999910593","img/land2.png","74","646.2999999970198","1","1","1","1","0.8,0.2,0.2,0.2,0.8,0.2,0.2,0.2,0.8","0.8,0.2,0.2,0.2,0.8,0.2,0.2,0.2,0.8","1","",""
"","html-keyboard-response","11","27674","0.0-11.0","39GAF6DQWSMREH39XVW7OQYB2FP1VM","A3OV174HQJIJK8","3HUR21WDDUBEMSLDIXZW1FAIHW8YX3","","null","<img src=""img/land2.png"" style=""width:200px; border:14px solid green;"">","null","","","","","","","","","",""
"","image-keyboard-response","12","28041","0.0-12.0","39GAF6DQWSMREH39XVW7OQYB2FP1VM","A3OV174HQJIJK8","3HUR21WDDUBEMSLDIXZW1FAIHW8YX3","","366.1000000089407","img/land2.png","74","367","1","0","1","1","0.8,0.2,0.2,0.2,0.8,0.2,0.2,0.2,0.8","0.8,0.2,0.2,0.2,0.8,0.2,0.2,0.2,0.8","1","",""
"","html-keyboard-response","13","28343","0.0-13.0","39GAF6DQWSMREH39XVW7OQYB2FP1VM","A3OV174HQJIJK8","3HUR21WDDUBEMSLDIXZW1FAIHW8YX3","","null","<img src=""img/land2.png"" style=""width:200px;border:14px solid red;"">","null","","","","","","","","","",""
"","image-keyboard-response","14","29166","0.0-14.0","39GAF6DQWSMREH39XVW7OQYB2FP1VM","A3OV174HQJIJK8","3HUR21WDDUBEMSLDIXZW1FAIHW8YX3","","822.2999999970198","img/land4.png","75","823.2000000029802","2","0","3","1","0.8,0.2,0.2,0.2,0.8,0.2,0.2,0.2,0.8","0.8,0.2,0.2,0.2,0.8,0.2,0.2,0.2,0.8","1","",""
"","html-keyboard-response","15","29467","0.0-15.0","39GAF6DQWSMREH39XVW7OQYB2FP1VM","A3OV174HQJIJK8","3HUR21WDDUBEMSLDIXZW1FAIHW8YX3","","null","<img src=""img/land4.png"" style=""width:200px;border:14px solid red;"">","null","","","","","","","","","",""
"","image-keyboard-response","16","30115","0.0-16.0","39GAF6DQWSMREH39XVW7OQYB2FP1VM","A3OV174HQJIJK8","3HUR21WDDUBEMSLDIXZW1FAIHW8YX3","","646.5","img/land1.png","75","647.4000000059605","2","1","2","1","0.8,0.2,0.2,0.2,0.8,0.2,0.2,0.2,0.8","0.8,0.2,0.2,0.2,0.8,0.2,0.2,0.2,0.8","1","",""
"","html-keyboard-response","17","30416","0.0-17.0","39GAF6DQWSMREH39XVW7OQYB2FP1VM","A3OV174HQJIJK8","3HUR21WDDUBEMSLDIXZW1FAIHW8YX3","","null","<img src=""img/land1.png"" style=""width:200px; border:14px solid green;"">","null","","","","","","","","","",""
"","image-keyboard-response","18","31655","0.0-18.0","39GAF6DQWSMREH39XVW7OQYB2FP1VM","A3OV174HQJIJK8","3HUR21WDDUBEMSLDIXZW1FAIHW8YX3","","1237.8999999910593","img/land4.png","74","1238.7000000029802","1","0","3","1","0.8,0.2,0.2,0.2,0.8,0.2,0.2,0.2,0.8","0.8,0.2,0.2,0.2,0.8,0.2,0.2,0.2,0.8","1","",""
"","html-keyboard-response","19","31957","0.0-19.0","39GAF6DQWSMREH39XVW7OQYB2FP1VM","A3OV174HQJIJK8","3HUR21WDDUBEMSLDIXZW1FAIHW8YX3","","null","<img src=""img/land4.png"" style=""width:200px;border:14px solid red;"">","null","","","","","","","","","",""
"","image-keyboard-response","20","32393","0.0-20.0","39GAF6DQWSMREH39XVW7OQYB2FP1VM","A3OV174HQJIJK8","3HUR21WDDUBEMSLDIXZW1FAIHW8YX3","","434.70000000298023","img/land4.png","75","435.70000000298023","2","0","3","1","0.8,0.2,0.2,0.2,0.8,0.2,0.2,0.2,0.8","0.8,0.2,0.2,0.2,0.8,0.2,0.2,0.2,0.8","1","",""
"","html-keyboard-response","21","32694","0.0-21.0","39GAF6DQWSMREH39XVW7OQYB2FP1VM","A3OV174HQJIJK8","3HUR21WDDUBEMSLDIXZW1FAIHW8YX3","","null","<img src=""img/land4.png"" style=""width:200px;border:14px solid red;"">","null","","","","","","","","","",""
"","image-keyboard-response","22","34027","0.0-22.0","39GAF6DQWSMREH39XVW7OQYB2FP1VM","A3OV174HQJIJK8","3HUR21WDDUBEMSLDIXZW1FAIHW8YX3","","1332.2000000029802","img/land4.png","76","1333","3","0","3","1","0.8,0.2,0.2,0.2,0.8,0.2,0.2,0.2,0.8","0.8,0.2,0.2,0.2,0.8,0.2,0.2,0.2,0.8","1","",""
"","html-keyboard-response","23","34329","0.0-23.0","39GAF6DQWSMREH39XVW7OQYB2FP1VM","A3OV174HQJIJK8","3HUR21WDDUBEMSLDIXZW1FAIHW8YX3","","null","<img src=""img/land4.png"" style=""width:200px;border:14px solid red;"">","null","","","","","","","","","",""
"","image-keyboard-response","24","35227","0.0-24.0","39GAF6DQWSMREH39XVW7OQYB2FP1VM","A3OV174HQJIJK8","3HUR21WDDUBEMSLDIXZW1FAIHW8YX3","","896.9000000059605","img/land2.png","75","897.7000000029802","2","0","1","1","0.8,0.2,0.2,0.2,0.8,0.2,0.2,0.2,0.8","0.8,0.2,0.2,0.2,0.8,0.2,0.2,0.2,0.8","1","",""
"","html-keyboard-response","25","35529","0.0-25.0","39GAF6DQWSMREH39XVW7OQYB2FP1VM","A3OV174HQJIJK8","3HUR21WDDUBEMSLDIXZW1FAIHW8YX3","","null","<img src=""img/land2.png"" style=""width:200px;border:14px solid red;"">","null","","","","","","","","","",""
"","image-keyboard-response","26","36134","0.0-26.0","39GAF6DQWSMREH39XVW7OQYB2FP1VM","A3OV174HQJIJK8","3HUR21WDDUBEMSLDIXZW1FAIHW8YX3","","604.0999999940395","img/land1.png","75","605","2","1","2","1","0.8,0.2,0.2,0.2,0.8,0.2,0.2,0.2,0.8","0.8,0.2,0.2,0.2,0.8,0.2,0.2,0.2,0.8","1","",""
"","html-keyboard-response","27","36436","0.0-27.0","39GAF6DQWSMREH39XVW7OQYB2FP1VM","A3OV174HQJIJK8","3HUR21WDDUBEMSLDIXZW1FAIHW8YX3","","null","<img src=""img/land1.png"" style=""width:200px; border:14px solid green;"">","null","","","","","","","","","",""
"","image-keyboard-response","28","36960","0.0-28.0","39GAF6DQWSMREH39XVW7OQYB2FP1VM","A3OV174HQJIJK8","3HUR21WDDUBEMSLDIXZW1FAIHW8YX3","","522.9000000059605","img/land2.png","74","523.7999999970198","1","1","1","1","0.8,0.2,0.2,0.2,0.8,0.2,0.2,0.2,0.8","0.8,0.2,0.2,0.2,0.8,0.2,0.2,0.2,0.8","1","",""
"","html-keyboard-response","29","37261","0.0-29.0","39GAF6DQWSMREH39XVW7OQYB2FP1VM","A3OV174HQJIJK8","3HUR21WDDUBEMSLDIXZW1FAIHW8YX3","","null","<img src=""img/land2.png"" style=""width:200px; border:14px solid green;"">","null","","","","","","","","","",""
"","image-keyboard-response","30","37778","0.0-30.0","39GAF6DQWSMREH39XVW7OQYB2FP1VM","A3OV174HQJIJK8","3HUR21WDDUBEMSLDIXZW1FAIHW8YX3","","515.5","img/land2.png","74","516.4000000059605","1","1","1","1","0.8,0.2,0.2,0.2,0.8,0.2,0.2,0.2,0.8","0.8,0.2,0.2,0.2,0.8,0.2,0.2,0.2,0.8","1","",""
"","html-keyboard-response","31","38079","0.0-31.0","39GAF6DQWSMREH39XVW7OQYB2FP1VM","A3OV174HQJIJK8","3HUR21WDDUBEMSLDIXZW1FAIHW8YX3","","null","<img src=""img/land2.png"" style=""width:200px; border:14px solid green;"">","null","","","","","","","","","",""
"","image-keyboard-response","32","38778","0.0-32.0","39GAF6DQWSMREH39XVW7OQYB2FP1VM","A3OV174HQJIJK8","3HUR21WDDUBEMSLDIXZW1FAIHW8YX3","","697.6999999880791","img/land1.png","75","698.3999999910593","2","1","2","1","0.8,0.2,0.2,0.2,0.8,0.2,0.2,0.2,0.8","0.8,0.2,0.2,0.2,0.8,0.2,0.2,0.2,0.8","1","",""
"","html-keyboard-response","33","39080","0.0-33.0","39GAF6DQWSMREH39XVW7OQYB2FP1VM","A3OV174HQJIJK8","3HUR21WDDUBEMSLDIXZW1FAIHW8YX3","","null","<img src=""img/land1.png"" style=""width:200px; border:14px solid green;"">","null","","","","","","","","","",""
"","image-keyboard-response","34","39460","0.0-34.0","39GAF6DQWSMREH39XVW7OQYB2FP1VM","A3OV174HQJIJK8","3HUR21WDDUBEMSLDIXZW1FAIHW8YX3","","378.40000000596046","img/land1.png","75","379.29999999701977","2","0","2","1","0.8,0.2,0.2,0.2,0.8,0.2,0.2,0.2,0.8","0.8,0.2,0.2,0.2,0.8,0.2,0.2,0.2,0.8","1","",""
"","html-keyboard-response","35","39761","0.0-35.0","39GAF6DQWSMREH39XVW7OQYB2FP1VM","A3OV174HQJIJK8","3HUR21WDDUBEMSLDIXZW1FAIHW8YX3","","null","<img src=""img/land1.png"" style=""width:200px;border:14px solid red;"">","null","","","","","","","","","",""
"","image-keyboard-response","36","40808","0.0-36.0","39GAF6DQWSMREH39XVW7OQYB2FP1VM","A3OV174HQJIJK8","3HUR21WDDUBEMSLDIXZW1FAIHW8YX3","","1045.5","img/land4.png","76","1046.3999999910593","3","0","3","1","0.8,0.2,0.2,0.2,0.8,0.2,0.2,0.2,0.8","0.8,0.2,0.2,0.2,0.8,0.2,0.2,0.2,0.8","1","",""
"","html-keyboard-response","37","41110","0.0-37.0","39GAF6DQWSMREH39XVW7OQYB2FP1VM","A3OV174HQJIJK8","3HUR21WDDUBEMSLDIXZW1FAIHW8YX3","","null","<img src=""img/land4.png"" style=""width:200px;border:14px solid red;"">","null","","","","","","","","","",""
"","image-keyboard-response","38","41609","0.0-38.0","39GAF6DQWSMREH39XVW7OQYB2FP1VM","A3OV174HQJIJK8","3HUR21WDDUBEMSLDIXZW1FAIHW8YX3","","498.20000000298023","img/land1.png","74","499.09999999403954","1","0","2","1","0.8,0.2,0.2,0.2,0.8,0.2,0.2,0.2,0.8","0.8,0.2,0.2,0.2,0.8,0.2,0.2,0.2,0.8","1","",""
"","html-keyboard-response","39","41910","0.0-39.0","39GAF6DQWSMREH39XVW7OQYB2FP1VM","A3OV174HQJIJK8","3HUR21WDDUBEMSLDIXZW1FAIHW8YX3","","null","<img src=""img/land1.png"" style=""width:200px;border:14px solid red;"">","null","","","","","","","","","",""
"","image-keyboard-response","40","42925","0.0-40.0","39GAF6DQWSMREH39XVW7OQYB2FP1VM","A3OV174HQJIJK8","3HUR21WDDUBEMSLDIXZW1FAIHW8YX3","","1013.5999999940395","img/land4.png","76","1014.2999999970198","3","1","3","1","0.8,0.2,0.2,0.2,0.8,0.2,0.2,0.2,0.8","0.8,0.2,0.2,0.2,0.8,0.2,0.2,0.2,0.8","1","",""
"","html-keyboard-response","41","43227","0.0-41.0","39GAF6DQWSMREH39XVW7OQYB2FP1VM","A3OV174HQJIJK8","3HUR21WDDUBEMSLDIXZW1FAIHW8YX3","","null","<img src=""img/land4.png"" style=""width:200px; border:14px solid green;"">","null","","","","","","","","","",""
"","image-keyboard-response","42","43618","0.0-42.0","39GAF6DQWSMREH39XVW7OQYB2FP1VM","A3OV174HQJIJK8","3HUR21WDDUBEMSLDIXZW1FAIHW8YX3","","389.90000000596046","img/land4.png","76","390.70000000298023","3","1","3","1","0.8,0.2,0.2,0.2,0.8,0.2,0.2,0.2,0.8","0.8,0.2,0.2,0.2,0.8,0.2,0.2,0.2,0.8","1","",""
"","html-keyboard-response","43","43919","0.0-43.0","39GAF6DQWSMREH39XVW7OQYB2FP1VM","A3OV174HQJIJK8","3HUR21WDDUBEMSLDIXZW1FAIHW8YX3","","null","<img src=""img/land4.png"" style=""width:200px; border:14px solid green;"">","null","","","","","","","","","",""
"","image-keyboard-response","44","44210","0.0-44.0","39GAF6DQWSMREH39XVW7OQYB2FP1VM","A3OV174HQJIJK8","3HUR21WDDUBEMSLDIXZW1FAIHW8YX3","","290.20000000298023","img/land4.png","76","291","3","1","3","1","0.8,0.2,0.2,0.2,0.8,0.2,0.2,0.2,0.8","0.8,0.2,0.2,0.2,0.8,0.2,0.2,0.2,0.8","1","",""
"","html-keyboard-response","45","44511","0.0-45.0","39GAF6DQWSMREH39XVW7OQYB2FP1VM","A3OV174HQJIJK8","3HUR21WDDUBEMSLDIXZW1FAIHW8YX3","","null","<img src=""img/land4.png"" style=""width:200px; border:14px solid green;"">","null","","","","","","","","","",""
"","image-keyboard-response","46","45266","0.0-46.0","39GAF6DQWSMREH39XVW7OQYB2FP1VM","A3OV174HQJIJK8","3HUR21WDDUBEMSLDIXZW1FAIHW8YX3","","754","img/land2.png","74","754.7999999970198","1","1","1","1","0.8,0.2,0.2,0.2,0.8,0.2,0.2,0.2,0.8","0.8,0.2,0.2,0.2,0.8,0.2,0.2,0.2,0.8","1","",""
"","html-keyboard-response","47","45568","0.0-47.0","39GAF6DQWSMREH39XVW7OQYB2FP1VM","A3OV174HQJIJK8","3HUR21WDDUBEMSLDIXZW1FAIHW8YX3","","null","<img src=""img/land2.png"" style=""width:200px; border:14px solid green;"">","null","","","","","","","","","",""
"","image-keyboard-response","48","46294","0.0-48.0","39GAF6DQWSMREH39XVW7OQYB2FP1VM","A3OV174HQJIJK8","3HUR21WDDUBEMSLDIXZW1FAIHW8YX3","","725","img/land1.png","75","725.7999999970198","2","1","2","1","0.8,0.2,0.2,0.2,0.8,0.2,0.2,0.2,0.8","0.8,0.2,0.2,0.2,0.8,0.2,0.2,0.2,0.8","1","",""
"","html-keyboard-response","49","46595","0.0-49.0","39GAF6DQWSMREH39XVW7OQYB2FP1VM","A3OV174HQJIJK8","3HUR21WDDUBEMSLDIXZW1FAIHW8YX3","","null","<img src=""img/land1.png"" style=""width:200px; border:14px solid green;"">","null","","","","","","","","","",""
"","image-keyboard-response","50","47020","0.0-50.0","39GAF6DQWSMREH39XVW7OQYB2FP1VM","A3OV174HQJIJK8","3HUR21WDDUBEMSLDIXZW1FAIHW8YX3","","423.80000001192093","img/land1.png","75","424.5","2","1","2","1","0.8,0.2,0.2,0.2,0.8,0.2,0.2,0.2,0.8","0.8,0.2,0.2,0.2,0.8,0.2,0.2,0.2,0.8","1","",""
"","html-keyboard-response","51","47321","0.0-51.0","39GAF6DQWSMREH39XVW7OQYB2FP1VM","A3OV174HQJIJK8","3HUR21WDDUBEMSLDIXZW1FAIHW8YX3","","null","<img src=""img/land1.png"" style=""width:200px; border:14px solid green;"">","null","","","","","","","","","",""
"","image-keyboard-response","52","48496","0.0-52.0","39GAF6DQWSMREH39XVW7OQYB2FP1VM","A3OV174HQJIJK8","3HUR21WDDUBEMSLDIXZW1FAIHW8YX3","","1173.2999999970198","img/land2.png","74","1174","1","1","1","1","0.8,0.2,0.2,0.2,0.8,0.2,0.2,0.2,0.8","0.8,0.2,0.2,0.2,0.8,0.2,0.2,0.2,0.8","1","",""
"","html-keyboard-response","53","48797","0.0-53.0","39GAF6DQWSMREH39XVW7OQYB2FP1VM","A3OV174HQJIJK8","3HUR21WDDUBEMSLDIXZW1FAIHW8YX3","","null","<img src=""img/land2.png"" style=""width:200px; border:14px solid green;"">","null","","","","","","","","","",""
"","image-keyboard-response","54","49152","0.0-54.0","39GAF6DQWSMREH39XVW7OQYB2FP1VM","A3OV174HQJIJK8","3HUR21WDDUBEMSLDIXZW1FAIHW8YX3","","354.29999999701977","img/land2.png","74","355.1000000089407","1","1","1","1","0.8,0.2,0.2,0.2,0.8,0.2,0.2,0.2,0.8","0.8,0.2,0.2,0.2,0.8,0.2,0.2,0.2,0.8","1","",""
"","html-keyboard-response","55","49454","0.0-55.0","39GAF6DQWSMREH39XVW7OQYB2FP1VM","A3OV174HQJIJK8","3HUR21WDDUBEMSLDIXZW1FAIHW8YX3","","null","<img src=""img/land2.png"" style=""width:200px; border:14px solid green;"">","null","","","","","","","","","",""
"","image-keyboard-response","56","49877","0.0-56.0","39GAF6DQWSMREH39XVW7OQYB2FP1VM","A3OV174HQJIJK8","3HUR21WDDUBEMSLDIXZW1FAIHW8YX3","","422.1000000089407","img/land2.png","74","423","1","1","1","1","0.8,0.2,0.2,0.2,0.8,0.2,0.2,0.2,0.8","0.8,0.2,0.2,0.2,0.8,0.2,0.2,0.2,0.8","1","",""
"","html-keyboard-response","57","50178","0.0-57.0","39GAF6DQWSMREH39XVW7OQYB2FP1VM","A3OV174HQJIJK8","3HUR21WDDUBEMSLDIXZW1FAIHW8YX3","","null","<img src=""img/land2.png"" style=""width:200px; border:14px solid green;"">","null","","","","","","","","","",""
"","image-keyboard-response","58","50932","0.0-58.0","39GAF6DQWSMREH39XVW7OQYB2FP1VM","A3OV174HQJIJK8","3HUR21WDDUBEMSLDIXZW1FAIHW8YX3","","753.2000000029802","img/land1.png","75","753.8999999910593","2","1","2","1","0.8,0.2,0.2,0.2,0.8,0.2,0.2,0.2,0.8","0.8,0.2,0.2,0.2,0.8,0.2,0.2,0.2,0.8","1","",""
"","html-keyboard-response","59","51234","0.0-59.0","39GAF6DQWSMREH39XVW7OQYB2FP1VM","A3OV174HQJIJK8","3HUR21WDDUBEMSLDIXZW1FAIHW8YX3","","null","<img src=""img/land1.png"" style=""width:200px; border:14px solid green;"">","null","","","","","","","","","",""
"","image-keyboard-response","60","51717","0.0-60.0","39GAF6DQWSMREH39XVW7OQYB2FP1VM","A3OV174HQJIJK8","3HUR21WDDUBEMSLDIXZW1FAIHW8YX3","","481.70000000298023","img/land1.png","75","482.40000000596046","2","1","2","1","0.8,0.2,0.2,0.2,0.8,0.2,0.2,0.2,0.8","0.8,0.2,0.2,0.2,0.8,0.2,0.2,0.2,0.8","1","",""
"","html-keyboard-response","61","52018","0.0-61.0","39GAF6DQWSMREH39XVW7OQYB2FP1VM","A3OV174HQJIJK8","3HUR21WDDUBEMSLDIXZW1FAIHW8YX3","","null","<img src=""img/land1.png"" style=""width:200px; border:14px solid green;"">","null","","","","","","","","","",""
"","image-keyboard-response","62","52370","0.0-62.0","39GAF6DQWSMREH39XVW7OQYB2FP1VM","A3OV174HQJIJK8","3HUR21WDDUBEMSLDIXZW1FAIHW8YX3","","351.29999999701977","img/land1.png","75","352.1000000089407","2","1","2","1","0.8,0.2,0.2,0.2,0.8,0.2,0.2,0.2,0.8","0.8,0.2,0.2,0.2,0.8,0.2,0.2,0.2,0.8","1","",""
"","html-keyboard-response","63","52672","0.0-63.0","39GAF6DQWSMREH39XVW7OQYB2FP1VM","A3OV174HQJIJK8","3HUR21WDDUBEMSLDIXZW1FAIHW8YX3","","null","<img src=""img/land1.png"" style=""width:200px; border:14px solid green;"">","null","","","","","","","","","",""
"","image-keyboard-response","64","53369","0.0-64.0","39GAF6DQWSMREH39XVW7OQYB2FP1VM","A3OV174HQJIJK8","3HUR21WDDUBEMSLDIXZW1FAIHW8YX3","","696","img/land2.png","74","696.7000000029802","1","1","1","1","0.8,0.2,0.2,0.2,0.8,0.2,0.2,0.2,0.8","0.8,0.2,0.2,0.2,0.8,0.2,0.2,0.2,0.8","1","",""
"","html-keyboard-response","65","53670","0.0-65.0","39GAF6DQWSMREH39XVW7OQYB2FP1VM","A3OV174HQJIJK8","3HUR21WDDUBEMSLDIXZW1FAIHW8YX3","","null","<img src=""img/land2.png"" style=""width:200px; border:14px solid green;"">","null","","","","","","","","","",""
"","image-keyboard-response","66","54977","0.0-66.0","39GAF6DQWSMREH39XVW7OQYB2FP1VM","A3OV174HQJIJK8","3HUR21WDDUBEMSLDIXZW1FAIHW8YX3","","1306.0999999940395","img/land4.png","76","1306.7000000029802","3","0","3","1","0.8,0.2,0.2,0.2,0.8,0.2,0.2,0.2,0.8","0.8,0.2,0.2,0.2,0.8,0.2,0.2,0.2,0.8","1","",""
"","html-keyboard-response","67","55279","0.0-67.0","39GAF6DQWSMREH39XVW7OQYB2FP1VM","A3OV174HQJIJK8","3HUR21WDDUBEMSLDIXZW1FAIHW8YX3","","null","<img src=""img/land4.png"" style=""width:200px;border:14px solid red;"">","null","","","","","","","","","",""
"","image-keyboard-response","68","56052","0.0-68.0","39GAF6DQWSMREH39XVW7OQYB2FP1VM","A3OV174HQJIJK8","3HUR21WDDUBEMSLDIXZW1FAIHW8YX3","","772.0999999940395","img/land1.png","75","773","2","1","2","1","0.8,0.2,0.2,0.2,0.8,0.2,0.2,0.2,0.8","0.8,0.2,0.2,0.2,0.8,0.2,0.2,0.2,0.8","1","",""
"","html-keyboard-response","69","56354","0.0-69.0","39GAF6DQWSMREH39XVW7OQYB2FP1VM","A3OV174HQJIJK8","3HUR21WDDUBEMSLDIXZW1FAIHW8YX3","","null","<img src=""img/land1.png"" style=""width:200px; border:14px solid green;"">","null","","","","","","","","","",""
"","image-keyboard-response","70","56965","0.0-70.0","39GAF6DQWSMREH39XVW7OQYB2FP1VM","A3OV174HQJIJK8","3HUR21WDDUBEMSLDIXZW1FAIHW8YX3","","610","img/land2.png","76","610.8999999910593","3","0","1","1","0.8,0.2,0.2,0.2,0.8,0.2,0.2,0.2,0.8","0.8,0.2,0.2,0.2,0.8,0.2,0.2,0.2,0.8","1","",""
"","html-keyboard-response","71","57266","0.0-71.0","39GAF6DQWSMREH39XVW7OQYB2FP1VM","A3OV174HQJIJK8","3HUR21WDDUBEMSLDIXZW1FAIHW8YX3","","null","<img src=""img/land2.png"" style=""width:200px;border:14px solid red;"">","null","","","","","","","","","",""
"","image-keyboard-response","72","58581","0.0-72.0","39GAF6DQWSMREH39XVW7OQYB2FP1VM","A3OV174HQJIJK8","3HUR21WDDUBEMSLDIXZW1FAIHW8YX3","","1313.5","img/land4.png","76","1314.2999999970198","3","1","3","1","0.8,0.2,0.2,0.2,0.8,0.2,0.2,0.2,0.8","0.8,0.2,0.2,0.2,0.8,0.2,0.2,0.2,0.8","1","",""
"","html-keyboard-response","73","58882","0.0-73.0","39GAF6DQWSMREH39XVW7OQYB2FP1VM","A3OV174HQJIJK8","3HUR21WDDUBEMSLDIXZW1FAIHW8YX3","","null","<img src=""img/land4.png"" style=""width:200px; border:14px solid green;"">","null","","","","","","","","","",""
"","image-keyboard-response","74","59591","0.0-74.0","39GAF6DQWSMREH39XVW7OQYB2FP1VM","A3OV174HQJIJK8","3HUR21WDDUBEMSLDIXZW1FAIHW8YX3","","707.5","img/land1.png","75","708.3999999910593","2","0","2","1","0.8,0.2,0.2,0.2,0.8,0.2,0.2,0.2,0.8","0.8,0.2,0.2,0.2,0.8,0.2,0.2,0.2,0.8","1","",""
"","html-keyboard-response","75","59892","0.0-75.0","39GAF6DQWSMREH39XVW7OQYB2FP1VM","A3OV174HQJIJK8","3HUR21WDDUBEMSLDIXZW1FAIHW8YX3","","null","<img src=""img/land1.png"" style=""width:200px;border:14px solid red;"">","null","","","","","","","","","",""
"","image-keyboard-response","76","60501","0.0-76.0","39GAF6DQWSMREH39XVW7OQYB2FP1VM","A3OV174HQJIJK8","3HUR21WDDUBEMSLDIXZW1FAIHW8YX3","","607.5999999940395","img/land1.png","75","608.3999999910593","2","1","2","1","0.8,0.2,0.2,0.2,0.8,0.2,0.2,0.2,0.8","0.8,0.2,0.2,0.2,0.8,0.2,0.2,0.2,0.8","1","",""
"","html-keyboard-response","77","60803","0.0-77.0","39GAF6DQWSMREH39XVW7OQYB2FP1VM","A3OV174HQJIJK8","3HUR21WDDUBEMSLDIXZW1FAIHW8YX3","","null","<img src=""img/land1.png"" style=""width:200px; border:14px solid green;"">","null","","","","","","","","","",""
"","image-keyboard-response","78","61141","0.0-78.0","39GAF6DQWSMREH39XVW7OQYB2FP1VM","A3OV174HQJIJK8","3HUR21WDDUBEMSLDIXZW1FAIHW8YX3","","337.20000000298023","img/land1.png","75","337.79999999701977","2","1","2","1","0.8,0.2,0.2,0.2,0.8,0.2,0.2,0.2,0.8","0.8,0.2,0.2,0.2,0.8,0.2,0.2,0.2,0.8","1","",""
"","html-keyboard-response","79","61442","0.0-79.0","39GAF6DQWSMREH39XVW7OQYB2FP1VM","A3OV174HQJIJK8","3HUR21WDDUBEMSLDIXZW1FAIHW8YX3","","null","<img src=""img/land1.png"" style=""width:200px; border:14px solid green;"">","null","","","","","","","","","",""
"","image-keyboard-response","80","62143","0.0-80.0","39GAF6DQWSMREH39XVW7OQYB2FP1VM","A3OV174HQJIJK8","3HUR21WDDUBEMSLDIXZW1FAIHW8YX3","","700.0999999940395","img/land2.png","74","700.9000000059605","1","1","1","1","0.8,0.2,0.2,0.2,0.8,0.2,0.2,0.2,0.8","0.8,0.2,0.2,0.2,0.8,0.2,0.2,0.2,0.8","1","",""
"","html-keyboard-response","81","62444","0.0-81.0","39GAF6DQWSMREH39XVW7OQYB2FP1VM","A3OV174HQJIJK8","3HUR21WDDUBEMSLDIXZW1FAIHW8YX3","","null","<img src=""img/land2.png"" style=""width:200px; border:14px solid green;"">","null","","","","","","","","","",""
"","image-keyboard-response","82","63381","0.0-82.0","39GAF6DQWSMREH39XVW7OQYB2FP1VM","A3OV174HQJIJK8","3HUR21WDDUBEMSLDIXZW1FAIHW8YX3","","935.9000000059605","img/land4.png","75","936.5999999940395","2","0","3","1","0.8,0.2,0.2,0.2,0.8,0.2,0.2,0.2,0.8","0.8,0.2,0.2,0.2,0.8,0.2,0.2,0.2,0.8","1","",""
"","html-keyboard-response","83","63682","0.0-83.0","39GAF6DQWSMREH39XVW7OQYB2FP1VM","A3OV174HQJIJK8","3HUR21WDDUBEMSLDIXZW1FAIHW8YX3","","null","<img src=""img/land4.png"" style=""width:200px;border:14px solid red;"">","null","","","","","","","","","",""
"","image-keyboard-response","84","64552","0.0-84.0","39GAF6DQWSMREH39XVW7OQYB2FP1VM","A3OV174HQJIJK8","3HUR21WDDUBEMSLDIXZW1FAIHW8YX3","","868.5","img/land2.png","75","869.3000000119209","2","1","1","1","0.8,0.2,0.2,0.2,0.8,0.2,0.2,0.2,0.8","0.8,0.2,0.2,0.2,0.8,0.2,0.2,0.2,0.8","1","",""
"","html-keyboard-response","85","64853","0.0-85.0","39GAF6DQWSMREH39XVW7OQYB2FP1VM","A3OV174HQJIJK8","3HUR21WDDUBEMSLDIXZW1FAIHW8YX3","","null","<img src=""img/land2.png"" style=""width:200px; border:14px solid green;"">","null","","","","","","","","","",""
"","image-keyboard-response","86","64857","0.0-86.0","39GAF6DQWSMREH39XVW7OQYB2FP1VM","A3OV174HQJIJK8","3HUR21WDDUBEMSLDIXZW1FAIHW8YX3","","2.5999999940395355","img/land1.png","74","3.7000000029802322","1","0","2","1","0.8,0.2,0.2,0.2,0.8,0.2,0.2,0.2,0.8","0.8,0.2,0.2,0.2,0.8,0.2,0.2,0.2,0.8","1","",""
"","html-keyboard-response","87","65160","0.0-87.0","39GAF6DQWSMREH39XVW7OQYB2FP1VM","A3OV174HQJIJK8","3HUR21WDDUBEMSLDIXZW1FAIHW8YX3","","null","<img src=""img/land1.png"" style=""width:200px;border:14px solid red;"">","null","","","","","","","","","",""
"","image-keyboard-response","88","66205","0.0-88.0","39GAF6DQWSMREH39XVW7OQYB2FP1VM","A3OV174HQJIJK8","3HUR21WDDUBEMSLDIXZW1FAIHW8YX3","","1044.4000000059605","img/land4.png","75","1045.2000000029802","2","0","3","1","0.8,0.2,0.2,0.2,0.8,0.2,0.2,0.2,0.8","0.8,0.2,0.2,0.2,0.8,0.2,0.2,0.2,0.8","1","",""
"","html-keyboard-response","89","66507","0.0-89.0","39GAF6DQWSMREH39XVW7OQYB2FP1VM","A3OV174HQJIJK8","3HUR21WDDUBEMSLDIXZW1FAIHW8YX3","","null","<img src=""img/land4.png"" style=""width:200px;border:14px solid red;"">","null","","","","","","","","","",""
"","image-keyboard-response","90","66997","0.0-90.0","39GAF6DQWSMREH39XVW7OQYB2FP1VM","A3OV174HQJIJK8","3HUR21WDDUBEMSLDIXZW1FAIHW8YX3","","489.09999999403954","img/land2.png","76","490","3","0","1","1","0.8,0.2,0.2,0.2,0.8,0.2,0.2,0.2,0.8","0.8,0.2,0.2,0.2,0.8,0.2,0.2,0.2,0.8","1","",""
"","html-keyboard-response","91","67299","0.0-91.0","39GAF6DQWSMREH39XVW7OQYB2FP1VM","A3OV174HQJIJK8","3HUR21WDDUBEMSLDIXZW1FAIHW8YX3","","null","<img src=""img/land2.png"" style=""width:200px;border:14px solid red;"">","null","","","","","","","","","",""
"","image-keyboard-response","92","68578","0.0-92.0","39GAF6DQWSMREH39XVW7OQYB2FP1VM","A3OV174HQJIJK8","3HUR21WDDUBEMSLDIXZW1FAIHW8YX3","","1278","img/land1.png","75","1278.9000000059605","2","0","2","1","0.8,0.2,0.2,0.2,0.8,0.2,0.2,0.2,0.8","0.8,0.2,0.2,0.2,0.8,0.2,0.2,0.2,0.8","1","",""
"","html-keyboard-response","93","68879","0.0-93.0","39GAF6DQWSMREH39XVW7OQYB2FP1VM","A3OV174HQJIJK8","3HUR21WDDUBEMSLDIXZW1FAIHW8YX3","","null","<img src=""img/land1.png"" style=""width:200px;border:14px solid red;"">","null","","","","","","","","","",""
"","image-keyboard-response","94","69278","0.0-94.0","39GAF6DQWSMREH39XVW7OQYB2FP1VM","A3OV174HQJIJK8","3HUR21WDDUBEMSLDIXZW1FAIHW8YX3","","397.79999999701977","img/land1.png","75","398.59999999403954","2","1","2","1","0.8,0.2,0.2,0.2,0.8,0.2,0.2,0.2,0.8","0.8,0.2,0.2,0.2,0.8,0.2,0.2,0.2,0.8","1","",""
"","html-keyboard-response","95","69579","0.0-95.0","39GAF6DQWSMREH39XVW7OQYB2FP1VM","A3OV174HQJIJK8","3HUR21WDDUBEMSLDIXZW1FAIHW8YX3","","null","<img src=""img/land1.png"" style=""width:200px; border:14px solid green;"">","null","","","","","","","","","",""
"","image-keyboard-response","96","70869","0.0-96.0","39GAF6DQWSMREH39XVW7OQYB2FP1VM","A3OV174HQJIJK8","3HUR21WDDUBEMSLDIXZW1FAIHW8YX3","","1289.2000000029802","img/land4.png","75","1289.9000000059605","2","0","3","1","0.8,0.2,0.2,0.2,0.8,0.2,0.2,0.2,0.8","0.8,0.2,0.2,0.2,0.8,0.2,0.2,0.2,0.8","1","",""
"","html-keyboard-response","97","71171","0.0-97.0","39GAF6DQWSMREH39XVW7OQYB2FP1VM","A3OV174HQJIJK8","3HUR21WDDUBEMSLDIXZW1FAIHW8YX3","","null","<img src=""img/land4.png"" style=""width:200px;border:14px solid red;"">","null","","","","","","","","","",""
"","image-keyboard-response","98","71930","0.0-98.0","39GAF6DQWSMREH39XVW7OQYB2FP1VM","A3OV174HQJIJK8","3HUR21WDDUBEMSLDIXZW1FAIHW8YX3","","757.0999999940395","img/land1.png","75","758","2","1","2","1","0.8,0.2,0.2,0.2,0.8,0.2,0.2,0.2,0.8","0.8,0.2,0.2,0.2,0.8,0.2,0.2,0.2,0.8","1","",""
"","html-keyboard-response","99","72232","0.0-99.0","39GAF6DQWSMREH39XVW7OQYB2FP1VM","A3OV174HQJIJK8","3HUR21WDDUBEMSLDIXZW1FAIHW8YX3","","null","<img src=""img/land1.png"" style=""width:200px; border:14px solid green;"">","null","","","","","","","","","",""
"","image-keyboard-response","100","72541","0.0-100.0","39GAF6DQWSMREH39XVW7OQYB2FP1VM","A3OV174HQJIJK8","3HUR21WDDUBEMSLDIXZW1FAIHW8YX3","","308.1000000089407","img/land1.png","75","308.90000000596046","2","1","2","1","0.8,0.2,0.2,0.2,0.8,0.2,0.2,0.2,0.8","0.8,0.2,0.2,0.2,0.8,0.2,0.2,0.2,0.8","1","",""
"","html-keyboard-response","101","72842","0.0-101.0","39GAF6DQWSMREH39XVW7OQYB2FP1VM","A3OV174HQJIJK8","3HUR21WDDUBEMSLDIXZW1FAIHW8YX3","","null","<img src=""img/land1.png"" style=""width:200px; border:14px solid green;"">","null","","","","","","","","","",""
"","image-keyboard-response","102","73519","0.0-102.0","39GAF6DQWSMREH39XVW7OQYB2FP1VM","A3OV174HQJIJK8","3HUR21WDDUBEMSLDIXZW1FAIHW8YX3","","676","img/land2.png","74","676.9000000059605","1","1","1","1","0.8,0.2,0.2,0.2,0.8,0.2,0.2,0.2,0.8","0.8,0.2,0.2,0.2,0.8,0.2,0.2,0.2,0.8","1","",""
"","html-keyboard-response","103","73820","0.0-103.0","39GAF6DQWSMREH39XVW7OQYB2FP1VM","A3OV174HQJIJK8","3HUR21WDDUBEMSLDIXZW1FAIHW8YX3","","null","<img src=""img/land2.png"" style=""width:200px; border:14px solid green;"">","null","","","","","","","","","",""
"","image-keyboard-response","104","74654","0.0-104.0","39GAF6DQWSMREH39XVW7OQYB2FP1VM","A3OV174HQJIJK8","3HUR21WDDUBEMSLDIXZW1FAIHW8YX3","","832.9000000059605","img/land4.png","74","833.7000000029802","1","1","3","1","0.8,0.2,0.2,0.2,0.8,0.2,0.2,0.2,0.8","0.8,0.2,0.2,0.2,0.8,0.2,0.2,0.2,0.8","1","",""
"","html-keyboard-response","105","74955","0.0-105.0","39GAF6DQWSMREH39XVW7OQYB2FP1VM","A3OV174HQJIJK8","3HUR21WDDUBEMSLDIXZW1FAIHW8YX3","","null","<img src=""img/land4.png"" style=""width:200px; border:14px solid green;"">","null","","","","","","","","","",""
"","image-keyboard-response","106","76002","0.0-106.0","39GAF6DQWSMREH39XVW7OQYB2FP1VM","A3OV174HQJIJK8","3HUR21WDDUBEMSLDIXZW1FAIHW8YX3","","1045.2999999970198","img/land2.png","74","1046.2000000029802","1","1","1","1","0.8,0.2,0.2,0.2,0.8,0.2,0.2,0.2,0.8","0.8,0.2,0.2,0.2,0.8,0.2,0.2,0.2,0.8","1","",""
"","html-keyboard-response","107","76303","0.0-107.0","39GAF6DQWSMREH39XVW7OQYB2FP1VM","A3OV174HQJIJK8","3HUR21WDDUBEMSLDIXZW1FAIHW8YX3","","null","<img src=""img/land2.png"" style=""width:200px; border:14px solid green;"">","null","","","","","","","","","",""
"","image-keyboard-response","108","77009","0.0-108.0","39GAF6DQWSMREH39XVW7OQYB2FP1VM","A3OV174HQJIJK8","3HUR21WDDUBEMSLDIXZW1FAIHW8YX3","","704.7000000029802","img/land1.png","75","705.5","2","1","2","1","0.8,0.2,0.2,0.2,0.8,0.2,0.2,0.2,0.8","0.8,0.2,0.2,0.2,0.8,0.2,0.2,0.2,0.8","1","",""
"","html-keyboard-response","109","77311","0.0-109.0","39GAF6DQWSMREH39XVW7OQYB2FP1VM","A3OV174HQJIJK8","3HUR21WDDUBEMSLDIXZW1FAIHW8YX3","","null","<img src=""img/land1.png"" style=""width:200px; border:14px solid green;"">","null","","","","","","","","","",""
"","image-keyboard-response","110","77809","0.0-110.0","39GAF6DQWSMREH39XVW7OQYB2FP1VM","A3OV174HQJIJK8","3HUR21WDDUBEMSLDIXZW1FAIHW8YX3","","496.8999999910593","img/land1.png","75","497.70000000298023","2","1","2","1","0.8,0.2,0.2,0.2,0.8,0.2,0.2,0.2,0.8","0.8,0.2,0.2,0.2,0.8,0.2,0.2,0.2,0.8","1","",""
"","html-keyboard-response","111","78110","0.0-111.0","39GAF6DQWSMREH39XVW7OQYB2FP1VM","A3OV174HQJIJK8","3HUR21WDDUBEMSLDIXZW1FAIHW8YX3","","null","<img src=""img/land1.png"" style=""width:200px; border:14px solid green;"">","null","","","","","","","","","",""
"","image-keyboard-response","112","79232","0.0-112.0","39GAF6DQWSMREH39XVW7OQYB2FP1VM","A3OV174HQJIJK8","3HUR21WDDUBEMSLDIXZW1FAIHW8YX3","","1121","img/land4.png","74","1121.9000000059605","1","0","3","1","0.8,0.2,0.2,0.2,0.8,0.2,0.2,0.2,0.8","0.8,0.2,0.2,0.2,0.8,0.2,0.2,0.2,0.8","1","",""
"","html-keyboard-response","113","79533","0.0-113.0","39GAF6DQWSMREH39XVW7OQYB2FP1VM","A3OV174HQJIJK8","3HUR21WDDUBEMSLDIXZW1FAIHW8YX3","","null","<img src=""img/land4.png"" style=""width:200px;border:14px solid red;"">","null","","","","","","","","","",""
"","image-keyboard-response","114","79948","0.0-114.0","39GAF6DQWSMREH39XVW7OQYB2FP1VM","A3OV174HQJIJK8","3HUR21WDDUBEMSLDIXZW1FAIHW8YX3","","413.59999999403954","img/land4.png","74","414.3999999910593","1","0","3","1","0.8,0.2,0.2,0.2,0.8,0.2,0.2,0.2,0.8","0.8,0.2,0.2,0.2,0.8,0.2,0.2,0.2,0.8","1","",""
"","html-keyboard-response","115","80249","0.0-115.0","39GAF6DQWSMREH39XVW7OQYB2FP1VM","A3OV174HQJIJK8","3HUR21WDDUBEMSLDIXZW1FAIHW8YX3","","null","<img src=""img/land4.png"" style=""width:200px;border:14px solid red;"">","null","","","","","","","","","",""
"","image-keyboard-response","116","80871","0.0-116.0","39GAF6DQWSMREH39XVW7OQYB2FP1VM","A3OV174HQJIJK8","3HUR21WDDUBEMSLDIXZW1FAIHW8YX3","","620.7999999970198","img/land4.png","75","621.7000000029802","2","1","3","1","0.8,0.2,0.2,0.2,0.8,0.2,0.2,0.2,0.8","0.8,0.2,0.2,0.2,0.8,0.2,0.2,0.2,0.8","1","",""
"","html-keyboard-response","117","81172","0.0-117.0","39GAF6DQWSMREH39XVW7OQYB2FP1VM","A3OV174HQJIJK8","3HUR21WDDUBEMSLDIXZW1FAIHW8YX3","","null","<img src=""img/land4.png"" style=""width:200px; border:14px solid green;"">","null","","","","","","","","","",""
"","image-keyboard-response","118","81689","0.0-118.0","39GAF6DQWSMREH39XVW7OQYB2FP1VM","A3OV174HQJIJK8","3HUR21WDDUBEMSLDIXZW1FAIHW8YX3","","516.9000000059605","img/land4.png","75","517.7999999970198","2","0","3","1","0.8,0.2,0.2,0.2,0.8,0.2,0.2,0.2,0.8","0.8,0.2,0.2,0.2,0.8,0.2,0.2,0.2,0.8","1","",""
"","html-keyboard-response","119","81991","0.0-119.0","39GAF6DQWSMREH39XVW7OQYB2FP1VM","A3OV174HQJIJK8","3HUR21WDDUBEMSLDIXZW1FAIHW8YX3","","null","<img src=""img/land4.png"" style=""width:200px;border:14px solid red;"">","null","","","","","","","","","",""
"","image-keyboard-response","120","82753","0.0-120.0","39GAF6DQWSMREH39XVW7OQYB2FP1VM","A3OV174HQJIJK8","3HUR21WDDUBEMSLDIXZW1FAIHW8YX3","","761","img/land1.png","75","761.8000000119209","2","1","2","1","0.8,0.2,0.2,0.2,0.8,0.2,0.2,0.2,0.8","0.8,0.2,0.2,0.2,0.8,0.2,0.2,0.2,0.8","1","",""
"","html-keyboard-response","121","83054","0.0-121.0","39GAF6DQWSMREH39XVW7OQYB2FP1VM","A3OV174HQJIJK8","3HUR21WDDUBEMSLDIXZW1FAIHW8YX3","","null","<img src=""img/land1.png"" style=""width:200px; border:14px solid green;"">","null","","","","","","","","","",""
"","image-keyboard-response","122","83717","0.0-122.0","39GAF6DQWSMREH39XVW7OQYB2FP1VM","A3OV174HQJIJK8","3HUR21WDDUBEMSLDIXZW1FAIHW8YX3","","661.4000000059605","img/land2.png","74","662.2000000029802","1","1","1","1","0.8,0.2,0.2,0.2,0.8,0.2,0.2,0.2,0.8","0.8,0.2,0.2,0.2,0.8,0.2,0.2,0.2,0.8","1","",""
"","html-keyboard-response","123","84019","0.0-123.0","39GAF6DQWSMREH39XVW7OQYB2FP1VM","A3OV174HQJIJK8","3HUR21WDDUBEMSLDIXZW1FAIHW8YX3","","null","<img src=""img/land2.png"" style=""width:200px; border:14px solid green;"">","null","","","","","","","","","",""
"","image-keyboard-response","124","84398","0.0-124.0","39GAF6DQWSMREH39XVW7OQYB2FP1VM","A3OV174HQJIJK8","3HUR21WDDUBEMSLDIXZW1FAIHW8YX3","","377.29999999701977","img/land2.png","74","378","1","1","1","1","0.8,0.2,0.2,0.2,0.8,0.2,0.2,0.2,0.8","0.8,0.2,0.2,0.2,0.8,0.2,0.2,0.2,0.8","1","",""
"","html-keyboard-response","125","84699","0.0-125.0","39GAF6DQWSMREH39XVW7OQYB2FP1VM","A3OV174HQJIJK8","3HUR21WDDUBEMSLDIXZW1FAIHW8YX3","","null","<img src=""img/land2.png"" style=""width:200px; border:14px solid green;"">","null","","","","","","","","","",""
"","image-keyboard-response","126","85405","0.0-126.0","39GAF6DQWSMREH39XVW7OQYB2FP1VM","A3OV174HQJIJK8","3HUR21WDDUBEMSLDIXZW1FAIHW8YX3","","705.5999999940395","img/land4.png","74","706.3999999910593","1","0","3","1","0.8,0.2,0.2,0.2,0.8,0.2,0.2,0.2,0.8","0.8,0.2,0.2,0.2,0.8,0.2,0.2,0.2,0.8","1","",""
"","html-keyboard-response","127","85707","0.0-127.0","39GAF6DQWSMREH39XVW7OQYB2FP1VM","A3OV174HQJIJK8","3HUR21WDDUBEMSLDIXZW1FAIHW8YX3","","null","<img src=""img/land4.png"" style=""width:200px;border:14px solid red;"">","null","","","","","","","","","",""
"","image-keyboard-response","128","85803","0.0-128.0","39GAF6DQWSMREH39XVW7OQYB2FP1VM","A3OV174HQJIJK8","3HUR21WDDUBEMSLDIXZW1FAIHW8YX3","","94.20000000298023","img/land1.png","75","95","2","1","2","1","0.8,0.2,0.2,0.2,0.8,0.2,0.2,0.2,0.8","0.8,0.2,0.2,0.2,0.8,0.2,0.2,0.2,0.8","1","",""
"","html-keyboard-response","129","86104","0.0-129.0","39GAF6DQWSMREH39XVW7OQYB2FP1VM","A3OV174HQJIJK8","3HUR21WDDUBEMSLDIXZW1FAIHW8YX3","","null","<img src=""img/land1.png"" style=""width:200px; border:14px solid green;"">","null","","","","","","","","","",""
"","image-keyboard-response","130","87081","0.0-130.0","39GAF6DQWSMREH39XVW7OQYB2FP1VM","A3OV174HQJIJK8","3HUR21WDDUBEMSLDIXZW1FAIHW8YX3","","976.2000000029802","img/land2.png","74","976.9000000059605","1","1","1","1","0.8,0.2,0.2,0.2,0.8,0.2,0.2,0.2,0.8","0.8,0.2,0.2,0.2,0.8,0.2,0.2,0.2,0.8","1","",""
"","html-keyboard-response","131","87382","0.0-131.0","39GAF6DQWSMREH39XVW7OQYB2FP1VM","A3OV174HQJIJK8","3HUR21WDDUBEMSLDIXZW1FAIHW8YX3","","null","<img src=""img/land2.png"" style=""width:200px; border:14px solid green;"">","null","","","","","","","","","",""
"","image-keyboard-response","132","88216","0.0-132.0","39GAF6DQWSMREH39XVW7OQYB2FP1VM","A3OV174HQJIJK8","3HUR21WDDUBEMSLDIXZW1FAIHW8YX3","","833.2000000029802","img/land4.png","75","833.9000000059605","2","0","3","1","0.8,0.2,0.2,0.2,0.8,0.2,0.2,0.2,0.8","0.8,0.2,0.2,0.2,0.8,0.2,0.2,0.2,0.8","1","",""
"","html-keyboard-response","133","88518","0.0-133.0","39GAF6DQWSMREH39XVW7OQYB2FP1VM","A3OV174HQJIJK8","3HUR21WDDUBEMSLDIXZW1FAIHW8YX3","","null","<img src=""img/land4.png"" style=""width:200px;border:14px solid red;"">","null","","","","","","","","","",""
"","image-keyboard-response","134","89332","0.0-134.0","39GAF6DQWSMREH39XVW7OQYB2FP1VM","A3OV174HQJIJK8","3HUR21WDDUBEMSLDIXZW1FAIHW8YX3","","812.5999999940395","img/land2.png","74","813.3999999910593","1","1","1","1","0.8,0.2,0.2,0.2,0.8,0.2,0.2,0.2,0.8","0.8,0.2,0.2,0.2,0.8,0.2,0.2,0.2,0.8","1","",""
"","html-keyboard-response","135","89634","0.0-135.0","39GAF6DQWSMREH39XVW7OQYB2FP1VM","A3OV174HQJIJK8","3HUR21WDDUBEMSLDIXZW1FAIHW8YX3","","null","<img src=""img/land2.png"" style=""width:200px; border:14px solid green;"">","null","","","","","","","","","",""
"","image-keyboard-response","136","90455","0.0-136.0","39GAF6DQWSMREH39XVW7OQYB2FP1VM","A3OV174HQJIJK8","3HUR21WDDUBEMSLDIXZW1FAIHW8YX3","","821.0999999940395","img/land4.png","74","821.7000000029802","1","0","3","1","0.8,0.2,0.2,0.2,0.8,0.2,0.2,0.2,0.8","0.8,0.2,0.2,0.2,0.8,0.2,0.2,0.2,0.8","1","",""
"","html-keyboard-response","137","90757","0.0-137.0","39GAF6DQWSMREH39XVW7OQYB2FP1VM","A3OV174HQJIJK8","3HUR21WDDUBEMSLDIXZW1FAIHW8YX3","","null","<img src=""img/land4.png"" style=""width:200px;border:14px solid red;"">","null","","","","","","","","","",""
"","image-keyboard-response","138","91573","0.0-138.0","39GAF6DQWSMREH39XVW7OQYB2FP1VM","A3OV174HQJIJK8","3HUR21WDDUBEMSLDIXZW1FAIHW8YX3","","815.2000000029802","img/land2.png","74","816","1","1","1","1","0.8,0.2,0.2,0.2,0.8,0.2,0.2,0.2,0.8","0.8,0.2,0.2,0.2,0.8,0.2,0.2,0.2,0.8","1","",""
"","html-keyboard-response","139","91874","0.0-139.0","39GAF6DQWSMREH39XVW7OQYB2FP1VM","A3OV174HQJIJK8","3HUR21WDDUBEMSLDIXZW1FAIHW8YX3","","null","<img src=""img/land2.png"" style=""width:200px; border:14px solid green;"">","null","","","","","","","","","",""
"","image-keyboard-response","140","92587","0.0-140.0","39GAF6DQWSMREH39XVW7OQYB2FP1VM","A3OV174HQJIJK8","3HUR21WDDUBEMSLDIXZW1FAIHW8YX3","","711.8999999910593","img/land1.png","75","712.6999999880791","2","1","2","1","0.8,0.2,0.2,0.2,0.8,0.2,0.2,0.2,0.8","0.8,0.2,0.2,0.2,0.8,0.2,0.2,0.2,0.8","1","",""
"","html-keyboard-response","141","92888","0.0-141.0","39GAF6DQWSMREH39XVW7OQYB2FP1VM","A3OV174HQJIJK8","3HUR21WDDUBEMSLDIXZW1FAIHW8YX3","","null","<img src=""img/land1.png"" style=""width:200px; border:14px solid green;"">","null","","","","","","","","","",""
"","image-keyboard-response","142","93665","0.0-142.0","39GAF6DQWSMREH39XVW7OQYB2FP1VM","A3OV174HQJIJK8","3HUR21WDDUBEMSLDIXZW1FAIHW8YX3","","776","img/land2.png","74","776.7999999970198","1","0","1","1","0.8,0.2,0.2,0.2,0.8,0.2,0.2,0.2,0.8","0.8,0.2,0.2,0.2,0.8,0.2,0.2,0.2,0.8","1","",""
"","html-keyboard-response","143","93967","0.0-143.0","39GAF6DQWSMREH39XVW7OQYB2FP1VM","A3OV174HQJIJK8","3HUR21WDDUBEMSLDIXZW1FAIHW8YX3","","null","<img src=""img/land2.png"" style=""width:200px;border:14px solid red;"">","null","","","","","","","","","",""
"","image-keyboard-response","144","94956","0.0-144.0","39GAF6DQWSMREH39XVW7OQYB2FP1VM","A3OV174HQJIJK8","3HUR21WDDUBEMSLDIXZW1FAIHW8YX3","","988.7000000029802","img/land4.png","75","989.4000000059605","2","0","3","1","0.8,0.2,0.2,0.2,0.8,0.2,0.2,0.2,0.8","0.8,0.2,0.2,0.2,0.8,0.2,0.2,0.2,0.8","1","",""
"","html-keyboard-response","145","95259","0.0-145.0","39GAF6DQWSMREH39XVW7OQYB2FP1VM","A3OV174HQJIJK8","3HUR21WDDUBEMSLDIXZW1FAIHW8YX3","","null","<img src=""img/land4.png"" style=""width:200px;border:14px solid red;"">","null","","","","","","","","","",""
"","image-keyboard-response","146","97260","0.0-146.0","39GAF6DQWSMREH39XVW7OQYB2FP1VM","A3OV174HQJIJK8","3HUR21WDDUBEMSLDIXZW1FAIHW8YX3","","","img/land1.png","","2000.8999999910593","-1","0","2","1","0.8,0.2,0.2,0.2,0.8,0.2,0.2,0.2,0.8","0.8,0.2,0.2,0.2,0.8,0.2,0.2,0.2,0.8","1","",""
"","html-keyboard-response","147","97561","0.0-147.0","39GAF6DQWSMREH39XVW7OQYB2FP1VM","A3OV174HQJIJK8","3HUR21WDDUBEMSLDIXZW1FAIHW8YX3","","null","<img src=""img/land1.png"" style=""width:200px;border:14px solid red;"">","null","","","","","","","","","",""
"","image-keyboard-response","148","98550","0.0-148.0","39GAF6DQWSMREH39XVW7OQYB2FP1VM","A3OV174HQJIJK8","3HUR21WDDUBEMSLDIXZW1FAIHW8YX3","","988","img/land2.png","74","988.7999999970198","1","1","1","1","0.8,0.2,0.2,0.2,0.8,0.2,0.2,0.2,0.8","0.8,0.2,0.2,0.2,0.8,0.2,0.2,0.2,0.8","1","",""
"","html-keyboard-response","149","98852","0.0-149.0","39GAF6DQWSMREH39XVW7OQYB2FP1VM","A3OV174HQJIJK8","3HUR21WDDUBEMSLDIXZW1FAIHW8YX3","","null","<img src=""img/land2.png"" style=""width:200px; border:14px solid green;"">","null","","","","","","","","","",""
"","image-keyboard-response","150","99691","0.0-150.0","39GAF6DQWSMREH39XVW7OQYB2FP1VM","A3OV174HQJIJK8","3HUR21WDDUBEMSLDIXZW1FAIHW8YX3","","838.4000000059605","img/land2.png","74","839.2000000029802","1","1","1","1","0.8,0.2,0.2,0.2,0.8,0.2,0.2,0.2,0.8","0.8,0.2,0.2,0.2,0.8,0.2,0.2,0.2,0.8","1","",""
"","html-keyboard-response","151","99993","0.0-151.0","39GAF6DQWSMREH39XVW7OQYB2FP1VM","A3OV174HQJIJK8","3HUR21WDDUBEMSLDIXZW1FAIHW8YX3","","null","<img src=""img/land2.png"" style=""width:200px; border:14px solid green;"">","null","","","","","","","","","",""
"","image-keyboard-response","152","100844","0.0-152.0","39GAF6DQWSMREH39XVW7OQYB2FP1VM","A3OV174HQJIJK8","3HUR21WDDUBEMSLDIXZW1FAIHW8YX3","","850.3999999910593","img/land1.png","75","851.0999999940395","2","1","2","1","0.8,0.2,0.2,0.2,0.8,0.2,0.2,0.2,0.8","0.8,0.2,0.2,0.2,0.8,0.2,0.2,0.2,0.8","1","",""
"","html-keyboard-response","153","101145","0.0-153.0","39GAF6DQWSMREH39XVW7OQYB2FP1VM","A3OV174HQJIJK8","3HUR21WDDUBEMSLDIXZW1FAIHW8YX3","","null","<img src=""img/land1.png"" style=""width:200px; border:14px solid green;"">","null","","","","","","","","","",""
"","image-keyboard-response","154","101801","0.0-154.0","39GAF6DQWSMREH39XVW7OQYB2FP1VM","A3OV174HQJIJK8","3HUR21WDDUBEMSLDIXZW1FAIHW8YX3","","655.2999999970198","img/land1.png","75","656","2","1","2","1","0.8,0.2,0.2,0.2,0.8,0.2,0.2,0.2,0.8","0.8,0.2,0.2,0.2,0.8,0.2,0.2,0.2,0.8","1","",""
"","html-keyboard-response","155","102102","0.0-155.0","39GAF6DQWSMREH39XVW7OQYB2FP1VM","A3OV174HQJIJK8","3HUR21WDDUBEMSLDIXZW1FAIHW8YX3","","null","<img src=""img/land1.png"" style=""width:200px; border:14px solid green;"">","null","","","","","","","","","",""
"","image-keyboard-response","156","103056","0.0-156.0","39GAF6DQWSMREH39XVW7OQYB2FP1VM","A3OV174HQJIJK8","3HUR21WDDUBEMSLDIXZW1FAIHW8YX3","","953.1000000089407","img/land4.png","74","953.9000000059605","1","0","3","1","0.8,0.2,0.2,0.2,0.8,0.2,0.2,0.2,0.8","0.8,0.2,0.2,0.2,0.8,0.2,0.2,0.2,0.8","1","",""
"","html-keyboard-response","157","103358","0.0-157.0","39GAF6DQWSMREH39XVW7OQYB2FP1VM","A3OV174HQJIJK8","3HUR21WDDUBEMSLDIXZW1FAIHW8YX3","","null","<img src=""img/land4.png"" style=""width:200px;border:14px solid red;"">","null","","","","","","","","","",""
"","image-keyboard-response","158","103913","0.0-158.0","39GAF6DQWSMREH39XVW7OQYB2FP1VM","A3OV174HQJIJK8","3HUR21WDDUBEMSLDIXZW1FAIHW8YX3","","554.2000000029802","img/land4.png","75","554.8000000119209","2","0","3","1","0.8,0.2,0.2,0.2,0.8,0.2,0.2,0.2,0.8","0.8,0.2,0.2,0.2,0.8,0.2,0.2,0.2,0.8","1","",""
"","html-keyboard-response","159","104215","0.0-159.0","39GAF6DQWSMREH39XVW7OQYB2FP1VM","A3OV174HQJIJK8","3HUR21WDDUBEMSLDIXZW1FAIHW8YX3","","null","<img src=""img/land4.png"" style=""width:200px;border:14px solid red;"">","null","","","","","","","","","",""
"","image-keyboard-response","160","104505","0.0-160.0","39GAF6DQWSMREH39XVW7OQYB2FP1VM","A3OV174HQJIJK8","3HUR21WDDUBEMSLDIXZW1FAIHW8YX3","","289.70000000298023","img/land4.png","76","290.5","3","1","3","1","0.8,0.2,0.2,0.2,0.8,0.2,0.2,0.2,0.8","0.8,0.2,0.2,0.2,0.8,0.2,0.2,0.2,0.8","1","",""
"","html-keyboard-response","161","104811","0.0-161.0","39GAF6DQWSMREH39XVW7OQYB2FP1VM","A3OV174HQJIJK8","3HUR21WDDUBEMSLDIXZW1FAIHW8YX3","","null","<img src=""img/land4.png"" style=""width:200px; border:14px solid green;"">","null","","","","","","","","","",""
"","image-keyboard-response","162","106119","0.0-162.0","39GAF6DQWSMREH39XVW7OQYB2FP1VM","A3OV174HQJIJK8","3HUR21WDDUBEMSLDIXZW1FAIHW8YX3","","1307.1000000089407","img/land1.png","75","1308","2","1","2","1","0.8,0.2,0.2,0.2,0.8,0.2,0.2,0.2,0.8","0.8,0.2,0.2,0.2,0.8,0.2,0.2,0.2,0.8","1","",""
"","html-keyboard-response","163","106420","0.0-163.0","39GAF6DQWSMREH39XVW7OQYB2FP1VM","A3OV174HQJIJK8","3HUR21WDDUBEMSLDIXZW1FAIHW8YX3","","null","<img src=""img/land1.png"" style=""width:200px; border:14px solid green;"">","null","","","","","","","","","",""
"","image-keyboard-response","164","107123","0.0-164.0","39GAF6DQWSMREH39XVW7OQYB2FP1VM","A3OV174HQJIJK8","3HUR21WDDUBEMSLDIXZW1FAIHW8YX3","","702","img/land2.png","74","702.6999999880791","1","1","1","1","0.8,0.2,0.2,0.2,0.8,0.2,0.2,0.2,0.8","0.8,0.2,0.2,0.2,0.8,0.2,0.2,0.2,0.8","1","",""
"","html-keyboard-response","165","107425","0.0-165.0","39GAF6DQWSMREH39XVW7OQYB2FP1VM","A3OV174HQJIJK8","3HUR21WDDUBEMSLDIXZW1FAIHW8YX3","","null","<img src=""img/land2.png"" style=""width:200px; border:14px solid green;"">","null","","","","","","","","","",""
"","image-keyboard-response","166","107983","0.0-166.0","39GAF6DQWSMREH39XVW7OQYB2FP1VM","A3OV174HQJIJK8","3HUR21WDDUBEMSLDIXZW1FAIHW8YX3","","557.3000000119209","img/land4.png","76","558.1000000089407","3","1","3","1","0.8,0.2,0.2,0.2,0.8,0.2,0.2,0.2,0.8","0.8,0.2,0.2,0.2,0.8,0.2,0.2,0.2,0.8","1","",""
"","html-keyboard-response","167","108285","0.0-167.0","39GAF6DQWSMREH39XVW7OQYB2FP1VM","A3OV174HQJIJK8","3HUR21WDDUBEMSLDIXZW1FAIHW8YX3","","null","<img src=""img/land4.png"" style=""width:200px; border:14px solid green;"">","null","","","","","","","","","",""
"","image-keyboard-response","168","109210","0.0-168.0","39GAF6DQWSMREH39XVW7OQYB2FP1VM","A3OV174HQJIJK8","3HUR21WDDUBEMSLDIXZW1FAIHW8YX3","","924.2000000029802","img/land2.png","74","925","1","1","1","1","0.8,0.2,0.2,0.2,0.8,0.2,0.2,0.2,0.8","0.8,0.2,0.2,0.2,0.8,0.2,0.2,0.2,0.8","1","",""
"","html-keyboard-response","169","109525","0.0-169.0","39GAF6DQWSMREH39XVW7OQYB2FP1VM","A3OV174HQJIJK8","3HUR21WDDUBEMSLDIXZW1FAIHW8YX3","","null","<img src=""img/land2.png"" style=""width:200px; border:14px solid green;"">","null","","","","","","","","","",""
"","image-keyboard-response","170","110261","0.0-170.0","39GAF6DQWSMREH39XVW7OQYB2FP1VM","A3OV174HQJIJK8","3HUR21WDDUBEMSLDIXZW1FAIHW8YX3","","735","img/land1.png","75","735.8000000119209","2","1","2","1","0.8,0.2,0.2,0.2,0.8,0.2,0.2,0.2,0.8","0.8,0.2,0.2,0.2,0.8,0.2,0.2,0.2,0.8","1","",""
"","html-keyboard-response","171","110563","0.0-171.0","39GAF6DQWSMREH39XVW7OQYB2FP1VM","A3OV174HQJIJK8","3HUR21WDDUBEMSLDIXZW1FAIHW8YX3","","null","<img src=""img/land1.png"" style=""width:200px; border:14px solid green;"">","null","","","","","","","","","",""
"","image-keyboard-response","172","111009","0.0-172.0","39GAF6DQWSMREH39XVW7OQYB2FP1VM","A3OV174HQJIJK8","3HUR21WDDUBEMSLDIXZW1FAIHW8YX3","","445.1000000089407","img/land4.png","76","445.80000001192093","3","1","3","1","0.8,0.2,0.2,0.2,0.8,0.2,0.2,0.2,0.8","0.8,0.2,0.2,0.2,0.8,0.2,0.2,0.2,0.8","1","",""
"","html-keyboard-response","173","111310","0.0-173.0","39GAF6DQWSMREH39XVW7OQYB2FP1VM","A3OV174HQJIJK8","3HUR21WDDUBEMSLDIXZW1FAIHW8YX3","","null","<img src=""img/land4.png"" style=""width:200px; border:14px solid green;"">","null","","","","","","","","","",""
"","image-keyboard-response","174","112010","0.0-174.0","39GAF6DQWSMREH39XVW7OQYB2FP1VM","A3OV174HQJIJK8","3HUR21WDDUBEMSLDIXZW1FAIHW8YX3","","698.7999999970198","img/land1.png","75","699.5999999940395","2","1","2","1","0.8,0.2,0.2,0.2,0.8,0.2,0.2,0.2,0.8","0.8,0.2,0.2,0.2,0.8,0.2,0.2,0.2,0.8","1","",""
"","html-keyboard-response","175","112311","0.0-175.0","39GAF6DQWSMREH39XVW7OQYB2FP1VM","A3OV174HQJIJK8","3HUR21WDDUBEMSLDIXZW1FAIHW8YX3","","null","<img src=""img/land1.png"" style=""width:200px; border:14px solid green;"">","null","","","","","","","","","",""
"","image-keyboard-response","176","113045","0.0-176.0","39GAF6DQWSMREH39XVW7OQYB2FP1VM","A3OV174HQJIJK8","3HUR21WDDUBEMSLDIXZW1FAIHW8YX3","","733.0999999940395","img/land4.png","76","733.8000000119209","3","1","3","1","0.8,0.2,0.2,0.2,0.8,0.2,0.2,0.2,0.8","0.8,0.2,0.2,0.2,0.8,0.2,0.2,0.2,0.8","1","",""
"","html-keyboard-response","177","113346","0.0-177.0","39GAF6DQWSMREH39XVW7OQYB2FP1VM","A3OV174HQJIJK8","3HUR21WDDUBEMSLDIXZW1FAIHW8YX3","","null","<img src=""img/land4.png"" style=""width:200px; border:14px solid green;"">","null","","","","","","","","","",""
"","image-keyboard-response","178","114010","0.0-178.0","39GAF6DQWSMREH39XVW7OQYB2FP1VM","A3OV174HQJIJK8","3HUR21WDDUBEMSLDIXZW1FAIHW8YX3","","662.9000000059605","img/land2.png","74","663.7000000029802","1","1","1","1","0.8,0.2,0.2,0.2,0.8,0.2,0.2,0.2,0.8","0.8,0.2,0.2,0.2,0.8,0.2,0.2,0.2,0.8","1","",""
"","html-keyboard-response","179","114311","0.0-179.0","39GAF6DQWSMREH39XVW7OQYB2FP1VM","A3OV174HQJIJK8","3HUR21WDDUBEMSLDIXZW1FAIHW8YX3","","null","<img src=""img/land2.png"" style=""width:200px; border:14px solid green;"">","null","","","","","","","","","",""
"","image-keyboard-response","180","114928","0.0-180.0","39GAF6DQWSMREH39XVW7OQYB2FP1VM","A3OV174HQJIJK8","3HUR21WDDUBEMSLDIXZW1FAIHW8YX3","","615.8999999910593","img/land4.png","76","616.7000000029802","3","1","3","1","0.8,0.2,0.2,0.2,0.8,0.2,0.2,0.2,0.8","0.8,0.2,0.2,0.2,0.8,0.2,0.2,0.2,0.8","1","",""
"","html-keyboard-response","181","115230","0.0-181.0","39GAF6DQWSMREH39XVW7OQYB2FP1VM","A3OV174HQJIJK8","3HUR21WDDUBEMSLDIXZW1FAIHW8YX3","","null","<img src=""img/land4.png"" style=""width:200px; border:14px solid green;"">","null","","","","","","","","","",""
"","html-keyboard-response","182","146018","0.0-182.0","39GAF6DQWSMREH39XVW7OQYB2FP1VM","A3OV174HQJIJK8","3HUR21WDDUBEMSLDIXZW1FAIHW8YX3","","","","","","","","","","","","","",""
"","image-keyboard-response","183","146943","0.0-183.0","39GAF6DQWSMREH39XVW7OQYB2FP1VM","A3OV174HQJIJK8","3HUR21WDDUBEMSLDIXZW1FAIHW8YX3","","924","img/land5.png","74","924.8999999910593","1","0","1","2","0.8,0.2,0.2,0.2,0.8,0.2,0.2,0.2,0.8","0.2,0.8,0.2,0.2,0.2,0.8,0.8,0.2,0.2","3","",""
"","html-keyboard-response","184","147244","0.0-184.0","39GAF6DQWSMREH39XVW7OQYB2FP1VM","A3OV174HQJIJK8","3HUR21WDDUBEMSLDIXZW1FAIHW8YX3","","null","<img src=""img/land5.png"" style=""width:200px;border:14px solid red;"">","null","","","","","","","","","",""
"","image-keyboard-response","185","147603","0.0-185.0","39GAF6DQWSMREH39XVW7OQYB2FP1VM","A3OV174HQJIJK8","3HUR21WDDUBEMSLDIXZW1FAIHW8YX3","","357.90000000596046","img/land5.png","75","358.70000000298023","2","1","1","2","0.8,0.2,0.2,0.2,0.8,0.2,0.2,0.2,0.8","0.2,0.8,0.2,0.2,0.2,0.8,0.8,0.2,0.2","3","",""
"","html-keyboard-response","186","147905","0.0-186.0","39GAF6DQWSMREH39XVW7OQYB2FP1VM","A3OV174HQJIJK8","3HUR21WDDUBEMSLDIXZW1FAIHW8YX3","","null","<img src=""img/land5.png"" style=""width:200px; border:14px solid green;"">","null","","","","","","","","","",""
"","image-keyboard-response","187","149146","0.0-187.0","39GAF6DQWSMREH39XVW7OQYB2FP1VM","A3OV174HQJIJK8","3HUR21WDDUBEMSLDIXZW1FAIHW8YX3","","1241","img/land3.png","74","1241.7999999970198","1","0","2","2","0.8,0.2,0.2,0.2,0.8,0.2,0.2,0.2,0.8","0.2,0.8,0.2,0.2,0.2,0.8,0.8,0.2,0.2","3","",""
"","html-keyboard-response","188","149454","0.0-188.0","39GAF6DQWSMREH39XVW7OQYB2FP1VM","A3OV174HQJIJK8","3HUR21WDDUBEMSLDIXZW1FAIHW8YX3","","null","<img src=""img/land3.png"" style=""width:200px;border:14px solid red;"">","null","","","","","","","","","",""
"","image-keyboard-response","189","150508","0.0-189.0","39GAF6DQWSMREH39XVW7OQYB2FP1VM","A3OV174HQJIJK8","3HUR21WDDUBEMSLDIXZW1FAIHW8YX3","","1052.7999999970198","img/land6.png","76","1053.5999999940395","3","0","3","2","0.8,0.2,0.2,0.2,0.8,0.2,0.2,0.2,0.8","0.2,0.8,0.2,0.2,0.2,0.8,0.8,0.2,0.2","3","",""
"","html-keyboard-response","190","150809","0.0-190.0","39GAF6DQWSMREH39XVW7OQYB2FP1VM","A3OV174HQJIJK8","3HUR21WDDUBEMSLDIXZW1FAIHW8YX3","","null","<img src=""img/land6.png"" style=""width:200px;border:14px solid red;"">","null","","","","","","","","","",""
"","image-keyboard-response","191","151685","0.0-191.0","39GAF6DQWSMREH39XVW7OQYB2FP1VM","A3OV174HQJIJK8","3HUR21WDDUBEMSLDIXZW1FAIHW8YX3","","874.2000000029802","img/land3.png","76","875","3","1","2","2","0.8,0.2,0.2,0.2,0.8,0.2,0.2,0.2,0.8","0.2,0.8,0.2,0.2,0.2,0.8,0.8,0.2,0.2","3","",""
"","html-keyboard-response","192","151986","0.0-192.0","39GAF6DQWSMREH39XVW7OQYB2FP1VM","A3OV174HQJIJK8","3HUR21WDDUBEMSLDIXZW1FAIHW8YX3","","null","<img src=""img/land3.png"" style=""width:200px; border:14px solid green;"">","null","","","","","","","","","",""
"","image-keyboard-response","193","152517","0.0-193.0","39GAF6DQWSMREH39XVW7OQYB2FP1VM","A3OV174HQJIJK8","3HUR21WDDUBEMSLDIXZW1FAIHW8YX3","","529.5","img/land3.png","76","530.2999999970198","3","1","2","2","0.8,0.2,0.2,0.2,0.8,0.2,0.2,0.2,0.8","0.2,0.8,0.2,0.2,0.2,0.8,0.8,0.2,0.2","3","",""
"","html-keyboard-response","194","152818","0.0-194.0","39GAF6DQWSMREH39XVW7OQYB2FP1VM","A3OV174HQJIJK8","3HUR21WDDUBEMSLDIXZW1FAIHW8YX3","","null","<img src=""img/land3.png"" style=""width:200px; border:14px solid green;"">","null","","","","","","","","","",""
"","image-keyboard-response","195","153473","0.0-195.0","39GAF6DQWSMREH39XVW7OQYB2FP1VM","A3OV174HQJIJK8","3HUR21WDDUBEMSLDIXZW1FAIHW8YX3","","654.5999999940395","img/land5.png","75","655.5","2","1","1","2","0.8,0.2,0.2,0.2,0.8,0.2,0.2,0.2,0.8","0.2,0.8,0.2,0.2,0.2,0.8,0.8,0.2,0.2","3","",""
"","html-keyboard-response","196","153775","0.0-196.0","39GAF6DQWSMREH39XVW7OQYB2FP1VM","A3OV174HQJIJK8","3HUR21WDDUBEMSLDIXZW1FAIHW8YX3","","null","<img src=""img/land5.png"" style=""width:200px; border:14px solid green;"">","null","","","","","","","","","",""
"","image-keyboard-response","197","154152","0.0-197.0","39GAF6DQWSMREH39XVW7OQYB2FP1VM","A3OV174HQJIJK8","3HUR21WDDUBEMSLDIXZW1FAIHW8YX3","","376.90000000596046","img/land5.png","75","377.70000000298023","2","1","1","2","0.8,0.2,0.2,0.2,0.8,0.2,0.2,0.2,0.8","0.2,0.8,0.2,0.2,0.2,0.8,0.8,0.2,0.2","3","",""
"","html-keyboard-response","198","154453","0.0-198.0","39GAF6DQWSMREH39XVW7OQYB2FP1VM","A3OV174HQJIJK8","3HUR21WDDUBEMSLDIXZW1FAIHW8YX3","","null","<img src=""img/land5.png"" style=""width:200px; border:14px solid green;"">","null","","","","","","","","","",""
"","image-keyboard-response","199","154807","0.0-199.0","39GAF6DQWSMREH39XVW7OQYB2FP1VM","A3OV174HQJIJK8","3HUR21WDDUBEMSLDIXZW1FAIHW8YX3","","353","img/land5.png","75","353.90000000596046","2","1","1","2","0.8,0.2,0.2,0.2,0.8,0.2,0.2,0.2,0.8","0.2,0.8,0.2,0.2,0.2,0.8,0.8,0.2,0.2","3","",""
"","html-keyboard-response","200","155109","0.0-200.0","39GAF6DQWSMREH39XVW7OQYB2FP1VM","A3OV174HQJIJK8","3HUR21WDDUBEMSLDIXZW1FAIHW8YX3","","null","<img src=""img/land5.png"" style=""width:200px; border:14px solid green;"">","null","","","","","","","","","",""
"","image-keyboard-response","201","155569","0.0-201.0","39GAF6DQWSMREH39XVW7OQYB2FP1VM","A3OV174HQJIJK8","3HUR21WDDUBEMSLDIXZW1FAIHW8YX3","","459","img/land3.png","76","459.8999999910593","3","1","2","2","0.8,0.2,0.2,0.2,0.8,0.2,0.2,0.2,0.8","0.2,0.8,0.2,0.2,0.2,0.8,0.8,0.2,0.2","3","",""
"","html-keyboard-response","202","155871","0.0-202.0","39GAF6DQWSMREH39XVW7OQYB2FP1VM","A3OV174HQJIJK8","3HUR21WDDUBEMSLDIXZW1FAIHW8YX3","","null","<img src=""img/land3.png"" style=""width:200px; border:14px solid green;"">","null","","","","","","","","","",""
"","image-keyboard-response","203","156648","0.0-203.0","39GAF6DQWSMREH39XVW7OQYB2FP1VM","A3OV174HQJIJK8","3HUR21WDDUBEMSLDIXZW1FAIHW8YX3","","776.1000000089407","img/land5.png","75","776.9000000059605","2","1","1","2","0.8,0.2,0.2,0.2,0.8,0.2,0.2,0.2,0.8","0.2,0.8,0.2,0.2,0.2,0.8,0.8,0.2,0.2","3","",""
"","html-keyboard-response","204","156950","0.0-204.0","39GAF6DQWSMREH39XVW7OQYB2FP1VM","A3OV174HQJIJK8","3HUR21WDDUBEMSLDIXZW1FAIHW8YX3","","null","<img src=""img/land5.png"" style=""width:200px; border:14px solid green;"">","null","","","","","","","","","",""
"","image-keyboard-response","205","157523","0.0-205.0","39GAF6DQWSMREH39XVW7OQYB2FP1VM","A3OV174HQJIJK8","3HUR21WDDUBEMSLDIXZW1FAIHW8YX3","","572.7999999970198","img/land6.png","74","573.5","1","1","3","2","0.8,0.2,0.2,0.2,0.8,0.2,0.2,0.2,0.8","0.2,0.8,0.2,0.2,0.2,0.8,0.8,0.2,0.2","3","",""
"","html-keyboard-response","206","157826","0.0-206.0","39GAF6DQWSMREH39XVW7OQYB2FP1VM","A3OV174HQJIJK8","3HUR21WDDUBEMSLDIXZW1FAIHW8YX3","","null","<img src=""img/land6.png"" style=""width:200px; border:14px solid green;"">","null","","","","","","","","","",""
"","image-keyboard-response","207","159776","0.0-207.0","39GAF6DQWSMREH39XVW7OQYB2FP1VM","A3OV174HQJIJK8","3HUR21WDDUBEMSLDIXZW1FAIHW8YX3","","1948.9000000059605","img/land3.png","75","1949.7000000029802","2","0","2","2","0.8,0.2,0.2,0.2,0.8,0.2,0.2,0.2,0.8","0.2,0.8,0.2,0.2,0.2,0.8,0.8,0.2,0.2","3","",""
"","html-keyboard-response","208","160078","0.0-208.0","39GAF6DQWSMREH39XVW7OQYB2FP1VM","A3OV174HQJIJK8","3HUR21WDDUBEMSLDIXZW1FAIHW8YX3","","null","<img src=""img/land3.png"" style=""width:200px;border:14px solid red;"">","null","","","","","","","","","",""
"","image-keyboard-response","209","160202","0.0-209.0","39GAF6DQWSMREH39XVW7OQYB2FP1VM","A3OV174HQJIJK8","3HUR21WDDUBEMSLDIXZW1FAIHW8YX3","","123.90000000596046","img/land3.png","76","124.59999999403954","3","1","2","2","0.8,0.2,0.2,0.2,0.8,0.2,0.2,0.2,0.8","0.2,0.8,0.2,0.2,0.2,0.8,0.8,0.2,0.2","3","",""
"","html-keyboard-response","210","160504","0.0-210.0","39GAF6DQWSMREH39XVW7OQYB2FP1VM","A3OV174HQJIJK8","3HUR21WDDUBEMSLDIXZW1FAIHW8YX3","","null","<img src=""img/land3.png"" style=""width:200px; border:14px solid green;"">","null","","","","","","","","","",""
"","image-keyboard-response","211","161147","0.0-211.0","39GAF6DQWSMREH39XVW7OQYB2FP1VM","A3OV174HQJIJK8","3HUR21WDDUBEMSLDIXZW1FAIHW8YX3","","642.2999999970198","img/land5.png","75","643.1000000089407","2","1","1","2","0.8,0.2,0.2,0.2,0.8,0.2,0.2,0.2,0.8","0.2,0.8,0.2,0.2,0.2,0.8,0.8,0.2,0.2","3","",""
"","html-keyboard-response","212","161449","0.0-212.0","39GAF6DQWSMREH39XVW7OQYB2FP1VM","A3OV174HQJIJK8","3HUR21WDDUBEMSLDIXZW1FAIHW8YX3","","null","<img src=""img/land5.png"" style=""width:200px; border:14px solid green;"">","null","","","","","","","","","",""
"","image-keyboard-response","213","161827","0.0-213.0","39GAF6DQWSMREH39XVW7OQYB2FP1VM","A3OV174HQJIJK8","3HUR21WDDUBEMSLDIXZW1FAIHW8YX3","","377","img/land5.png","75","377.90000000596046","2","1","1","2","0.8,0.2,0.2,0.2,0.8,0.2,0.2,0.2,0.8","0.2,0.8,0.2,0.2,0.2,0.8,0.8,0.2,0.2","3","",""
"","html-keyboard-response","214","162130","0.0-214.0","39GAF6DQWSMREH39XVW7OQYB2FP1VM","A3OV174HQJIJK8","3HUR21WDDUBEMSLDIXZW1FAIHW8YX3","","null","<img src=""img/land5.png"" style=""width:200px; border:14px solid green;"">","null","","","","","","","","","",""
"","image-keyboard-response","215","162435","0.0-215.0","39GAF6DQWSMREH39XVW7OQYB2FP1VM","A3OV174HQJIJK8","3HUR21WDDUBEMSLDIXZW1FAIHW8YX3","","304.09999999403954","img/land5.png","75","304.8999999910593","2","1","1","2","0.8,0.2,0.2,0.2,0.8,0.2,0.2,0.2,0.8","0.2,0.8,0.2,0.2,0.2,0.8,0.8,0.2,0.2","3","",""
"","html-keyboard-response","216","162737","0.0-216.0","39GAF6DQWSMREH39XVW7OQYB2FP1VM","A3OV174HQJIJK8","3HUR21WDDUBEMSLDIXZW1FAIHW8YX3","","null","<img src=""img/land5.png"" style=""width:200px; border:14px solid green;"">","null","","","","","","","","","",""
"","image-keyboard-response","217","163015","0.0-217.0","39GAF6DQWSMREH39XVW7OQYB2FP1VM","A3OV174HQJIJK8","3HUR21WDDUBEMSLDIXZW1FAIHW8YX3","","277.3999999910593","img/land5.png","75","278.20000000298023","2","1","1","2","0.8,0.2,0.2,0.2,0.8,0.2,0.2,0.2,0.8","0.2,0.8,0.2,0.2,0.2,0.8,0.8,0.2,0.2","3","",""
"","html-keyboard-response","218","163317","0.0-218.0","39GAF6DQWSMREH39XVW7OQYB2FP1VM","A3OV174HQJIJK8","3HUR21WDDUBEMSLDIXZW1FAIHW8YX3","","null","<img src=""img/land5.png"" style=""width:200px; border:14px solid green;"">","null","","","","","","","","","",""
"","image-keyboard-response","219","163995","0.0-219.0","39GAF6DQWSMREH39XVW7OQYB2FP1VM","A3OV174HQJIJK8","3HUR21WDDUBEMSLDIXZW1FAIHW8YX3","","677.7999999970198","img/land6.png","74","678.7000000029802","1","1","3","2","0.8,0.2,0.2,0.2,0.8,0.2,0.2,0.2,0.8","0.2,0.8,0.2,0.2,0.2,0.8,0.8,0.2,0.2","3","",""
"","html-keyboard-response","220","164298","0.0-220.0","39GAF6DQWSMREH39XVW7OQYB2FP1VM","A3OV174HQJIJK8","3HUR21WDDUBEMSLDIXZW1FAIHW8YX3","","null","<img src=""img/land6.png"" style=""width:200px; border:14px solid green;"">","null","","","","","","","","","",""
"","image-keyboard-response","221","165253","0.0-221.0","39GAF6DQWSMREH39XVW7OQYB2FP1VM","A3OV174HQJIJK8","3HUR21WDDUBEMSLDIXZW1FAIHW8YX3","","954.8999999910593","img/land5.png","75","955.8000000119209","2","1","1","2","0.8,0.2,0.2,0.2,0.8,0.2,0.2,0.2,0.8","0.2,0.8,0.2,0.2,0.2,0.8,0.8,0.2,0.2","3","",""
"","html-keyboard-response","222","165555","0.0-222.0","39GAF6DQWSMREH39XVW7OQYB2FP1VM","A3OV174HQJIJK8","3HUR21WDDUBEMSLDIXZW1FAIHW8YX3","","null","<img src=""img/land5.png"" style=""width:200px; border:14px solid green;"">","null","","","","","","","","","",""
"","image-keyboard-response","223","166167","0.0-223.0","39GAF6DQWSMREH39XVW7OQYB2FP1VM","A3OV174HQJIJK8","3HUR21WDDUBEMSLDIXZW1FAIHW8YX3","","611.5999999940395","img/land6.png","74","612.5","1","1","3","2","0.8,0.2,0.2,0.2,0.8,0.2,0.2,0.2,0.8","0.2,0.8,0.2,0.2,0.2,0.8,0.8,0.2,0.2","3","",""
"","html-keyboard-response","224","166469","0.0-224.0","39GAF6DQWSMREH39XVW7OQYB2FP1VM","A3OV174HQJIJK8","3HUR21WDDUBEMSLDIXZW1FAIHW8YX3","","null","<img src=""img/land6.png"" style=""width:200px; border:14px solid green;"">","null","","","","","","","","","",""
"","image-keyboard-response","225","166822","0.0-225.0","39GAF6DQWSMREH39XVW7OQYB2FP1VM","A3OV174HQJIJK8","3HUR21WDDUBEMSLDIXZW1FAIHW8YX3","","352.8999999910593","img/land6.png","74","353.79999999701977","1","0","3","2","0.8,0.2,0.2,0.2,0.8,0.2,0.2,0.2,0.8","0.2,0.8,0.2,0.2,0.2,0.8,0.8,0.2,0.2","3","",""
"","html-keyboard-response","226","167124","0.0-226.0","39GAF6DQWSMREH39XVW7OQYB2FP1VM","A3OV174HQJIJK8","3HUR21WDDUBEMSLDIXZW1FAIHW8YX3","","null","<img src=""img/land6.png"" style=""width:200px;border:14px solid red;"">","null","","","","","","","","","",""
"","image-keyboard-response","227","167824","0.0-227.0","39GAF6DQWSMREH39XVW7OQYB2FP1VM","A3OV174HQJIJK8","3HUR21WDDUBEMSLDIXZW1FAIHW8YX3","","699.1999999880791","img/land5.png","75","700.1000000089407","2","1","1","2","0.8,0.2,0.2,0.2,0.8,0.2,0.2,0.2,0.8","0.2,0.8,0.2,0.2,0.2,0.8,0.8,0.2,0.2","3","",""
"","html-keyboard-response","228","168126","0.0-228.0","39GAF6DQWSMREH39XVW7OQYB2FP1VM","A3OV174HQJIJK8","3HUR21WDDUBEMSLDIXZW1FAIHW8YX3","","null","<img src=""img/land5.png"" style=""width:200px; border:14px solid green;"">","null","","","","","","","","","",""
"","image-keyboard-response","229","168459","0.0-229.0","39GAF6DQWSMREH39XVW7OQYB2FP1VM","A3OV174HQJIJK8","3HUR21WDDUBEMSLDIXZW1FAIHW8YX3","","332.1000000089407","img/land5.png","75","333","2","1","1","2","0.8,0.2,0.2,0.2,0.8,0.2,0.2,0.2,0.8","0.2,0.8,0.2,0.2,0.2,0.8,0.8,0.2,0.2","3","",""
"","html-keyboard-response","230","168762","0.0-230.0","39GAF6DQWSMREH39XVW7OQYB2FP1VM","A3OV174HQJIJK8","3HUR21WDDUBEMSLDIXZW1FAIHW8YX3","","null","<img src=""img/land5.png"" style=""width:200px; border:14px solid green;"">","null","","","","","","","","","",""
"","image-keyboard-response","231","169172","0.0-231.0","39GAF6DQWSMREH39XVW7OQYB2FP1VM","A3OV174HQJIJK8","3HUR21WDDUBEMSLDIXZW1FAIHW8YX3","","409.30000001192093","img/land3.png","76","410.20000000298023","3","1","2","2","0.8,0.2,0.2,0.2,0.8,0.2,0.2,0.2,0.8","0.2,0.8,0.2,0.2,0.2,0.8,0.8,0.2,0.2","3","",""
"","html-keyboard-response","232","169474","0.0-232.0","39GAF6DQWSMREH39XVW7OQYB2FP1VM","A3OV174HQJIJK8","3HUR21WDDUBEMSLDIXZW1FAIHW8YX3","","null","<img src=""img/land3.png"" style=""width:200px; border:14px solid green;"">","null","","","","","","","","","",""
"","image-keyboard-response","233","170116","0.0-233.0","39GAF6DQWSMREH39XVW7OQYB2FP1VM","A3OV174HQJIJK8","3HUR21WDDUBEMSLDIXZW1FAIHW8YX3","","641.2999999970198","img/land5.png","75","642","2","1","1","2","0.8,0.2,0.2,0.2,0.8,0.2,0.2,0.2,0.8","0.2,0.8,0.2,0.2,0.2,0.8,0.8,0.2,0.2","3","",""
"","html-keyboard-response","234","170418","0.0-234.0","39GAF6DQWSMREH39XVW7OQYB2FP1VM","A3OV174HQJIJK8","3HUR21WDDUBEMSLDIXZW1FAIHW8YX3","","null","<img src=""img/land5.png"" style=""width:200px; border:14px solid green;"">","null","","","","","","","","","",""
"","image-keyboard-response","235","170771","0.0-235.0","39GAF6DQWSMREH39XVW7OQYB2FP1VM","A3OV174HQJIJK8","3HUR21WDDUBEMSLDIXZW1FAIHW8YX3","","352.59999999403954","img/land5.png","75","353.3999999910593","2","0","1","2","0.8,0.2,0.2,0.2,0.8,0.2,0.2,0.2,0.8","0.2,0.8,0.2,0.2,0.2,0.8,0.8,0.2,0.2","3","",""
"","html-keyboard-response","236","171079","0.0-236.0","39GAF6DQWSMREH39XVW7OQYB2FP1VM","A3OV174HQJIJK8","3HUR21WDDUBEMSLDIXZW1FAIHW8YX3","","null","<img src=""img/land5.png"" style=""width:200px;border:14px solid red;"">","null","","","","","","","","","",""
"","image-keyboard-response","237","172287","0.0-237.0","39GAF6DQWSMREH39XVW7OQYB2FP1VM","A3OV174HQJIJK8","3HUR21WDDUBEMSLDIXZW1FAIHW8YX3","","1207.5","img/land3.png","76","1208.3999999910593","3","1","2","2","0.8,0.2,0.2,0.2,0.8,0.2,0.2,0.2,0.8","0.2,0.8,0.2,0.2,0.2,0.8,0.8,0.2,0.2","3","",""
"","html-keyboard-response","238","172589","0.0-238.0","39GAF6DQWSMREH39XVW7OQYB2FP1VM","A3OV174HQJIJK8","3HUR21WDDUBEMSLDIXZW1FAIHW8YX3","","null","<img src=""img/land3.png"" style=""width:200px; border:14px solid green;"">","null","","","","","","","","","",""
"","image-keyboard-response","239","173184","0.0-239.0","39GAF6DQWSMREH39XVW7OQYB2FP1VM","A3OV174HQJIJK8","3HUR21WDDUBEMSLDIXZW1FAIHW8YX3","","594.2000000029802","img/land5.png","75","594.9000000059605","2","1","1","2","0.8,0.2,0.2,0.2,0.8,0.2,0.2,0.2,0.8","0.2,0.8,0.2,0.2,0.2,0.8,0.8,0.2,0.2","3","",""
"","html-keyboard-response","240","173485","0.0-240.0","39GAF6DQWSMREH39XVW7OQYB2FP1VM","A3OV174HQJIJK8","3HUR21WDDUBEMSLDIXZW1FAIHW8YX3","","null","<img src=""img/land5.png"" style=""width:200px; border:14px solid green;"">","null","","","","","","","","","",""
"","image-keyboard-response","241","173900","0.0-241.0","39GAF6DQWSMREH39XVW7OQYB2FP1VM","A3OV174HQJIJK8","3HUR21WDDUBEMSLDIXZW1FAIHW8YX3","","413.90000000596046","img/land5.png","75","414.70000000298023","2","1","1","2","0.8,0.2,0.2,0.2,0.8,0.2,0.2,0.2,0.8","0.2,0.8,0.2,0.2,0.2,0.8,0.8,0.2,0.2","3","",""
"","html-keyboard-response","242","174201","0.0-242.0","39GAF6DQWSMREH39XVW7OQYB2FP1VM","A3OV174HQJIJK8","3HUR21WDDUBEMSLDIXZW1FAIHW8YX3","","null","<img src=""img/land5.png"" style=""width:200px; border:14px solid green;"">","null","","","","","","","","","",""
"","image-keyboard-response","243","174552","0.0-243.0","39GAF6DQWSMREH39XVW7OQYB2FP1VM","A3OV174HQJIJK8","3HUR21WDDUBEMSLDIXZW1FAIHW8YX3","","349.90000000596046","img/land5.png","75","350.70000000298023","2","1","1","2","0.8,0.2,0.2,0.2,0.8,0.2,0.2,0.2,0.8","0.2,0.8,0.2,0.2,0.2,0.8,0.8,0.2,0.2","3","",""
"","html-keyboard-response","244","174854","0.0-244.0","39GAF6DQWSMREH39XVW7OQYB2FP1VM","A3OV174HQJIJK8","3HUR21WDDUBEMSLDIXZW1FAIHW8YX3","","null","<img src=""img/land5.png"" style=""width:200px; border:14px solid green;"">","null","","","","","","","","","",""
"","image-keyboard-response","245","175234","0.0-245.0","39GAF6DQWSMREH39XVW7OQYB2FP1VM","A3OV174HQJIJK8","3HUR21WDDUBEMSLDIXZW1FAIHW8YX3","","379","img/land5.png","75","379.79999999701977","2","1","1","2","0.8,0.2,0.2,0.2,0.8,0.2,0.2,0.2,0.8","0.2,0.8,0.2,0.2,0.2,0.8,0.8,0.2,0.2","3","",""
"","html-keyboard-response","246","175535","0.0-246.0","39GAF6DQWSMREH39XVW7OQYB2FP1VM","A3OV174HQJIJK8","3HUR21WDDUBEMSLDIXZW1FAIHW8YX3","","null","<img src=""img/land5.png"" style=""width:200px; border:14px solid green;"">","null","","","","","","","","","",""
"","image-keyboard-response","247","175907","0.0-247.0","39GAF6DQWSMREH39XVW7OQYB2FP1VM","A3OV174HQJIJK8","3HUR21WDDUBEMSLDIXZW1FAIHW8YX3","","371.1000000089407","img/land5.png","75","371.79999999701977","2","1","1","2","0.8,0.2,0.2,0.2,0.8,0.2,0.2,0.2,0.8","0.2,0.8,0.2,0.2,0.2,0.8,0.8,0.2,0.2","3","",""
"","html-keyboard-response","248","176209","0.0-248.0","39GAF6DQWSMREH39XVW7OQYB2FP1VM","A3OV174HQJIJK8","3HUR21WDDUBEMSLDIXZW1FAIHW8YX3","","null","<img src=""img/land5.png"" style=""width:200px; border:14px solid green;"">","null","","","","","","","","","",""
"","image-keyboard-response","249","176585","0.0-249.0","39GAF6DQWSMREH39XVW7OQYB2FP1VM","A3OV174HQJIJK8","3HUR21WDDUBEMSLDIXZW1FAIHW8YX3","","375","img/land5.png","75","376","2","1","1","2","0.8,0.2,0.2,0.2,0.8,0.2,0.2,0.2,0.8","0.2,0.8,0.2,0.2,0.2,0.8,0.8,0.2,0.2","3","",""
"","html-keyboard-response","250","176887","0.0-250.0","39GAF6DQWSMREH39XVW7OQYB2FP1VM","A3OV174HQJIJK8","3HUR21WDDUBEMSLDIXZW1FAIHW8YX3","","null","<img src=""img/land5.png"" style=""width:200px; border:14px solid green;"">","null","","","","","","","","","",""
"","image-keyboard-response","251","177562","0.0-251.0","39GAF6DQWSMREH39XVW7OQYB2FP1VM","A3OV174HQJIJK8","3HUR21WDDUBEMSLDIXZW1FAIHW8YX3","","674.4000000059605","img/land5.png","75","675.3000000119209","2","1","1","2","0.8,0.2,0.2,0.2,0.8,0.2,0.2,0.2,0.8","0.2,0.8,0.2,0.2,0.2,0.8,0.8,0.2,0.2","3","",""
"","html-keyboard-response","252","177865","0.0-252.0","39GAF6DQWSMREH39XVW7OQYB2FP1VM","A3OV174HQJIJK8","3HUR21WDDUBEMSLDIXZW1FAIHW8YX3","","null","<img src=""img/land5.png"" style=""width:200px; border:14px solid green;"">","null","","","","","","","","","",""
"","image-keyboard-response","253","178494","0.0-253.0","39GAF6DQWSMREH39XVW7OQYB2FP1VM","A3OV174HQJIJK8","3HUR21WDDUBEMSLDIXZW1FAIHW8YX3","","628.3999999910593","img/land6.png","74","629.1000000089407","1","1","3","2","0.8,0.2,0.2,0.2,0.8,0.2,0.2,0.2,0.8","0.2,0.8,0.2,0.2,0.2,0.8,0.8,0.2,0.2","3","",""
"","html-keyboard-response","254","178795","0.0-254.0","39GAF6DQWSMREH39XVW7OQYB2FP1VM","A3OV174HQJIJK8","3HUR21WDDUBEMSLDIXZW1FAIHW8YX3","","null","<img src=""img/land6.png"" style=""width:200px; border:14px solid green;"">","null","","","","","","","","","",""
"","image-keyboard-response","255","179433","0.0-255.0","39GAF6DQWSMREH39XVW7OQYB2FP1VM","A3OV174HQJIJK8","3HUR21WDDUBEMSLDIXZW1FAIHW8YX3","","637","img/land5.png","75","637.7999999970198","2","1","1","2","0.8,0.2,0.2,0.2,0.8,0.2,0.2,0.2,0.8","0.2,0.8,0.2,0.2,0.2,0.8,0.8,0.2,0.2","3","",""
"","html-keyboard-response","256","179734","0.0-256.0","39GAF6DQWSMREH39XVW7OQYB2FP1VM","A3OV174HQJIJK8","3HUR21WDDUBEMSLDIXZW1FAIHW8YX3","","null","<img src=""img/land5.png"" style=""width:200px; border:14px solid green;"">","null","","","","","","","","","",""
"","image-keyboard-response","257","180136","0.0-257.0","39GAF6DQWSMREH39XVW7OQYB2FP1VM","A3OV174HQJIJK8","3HUR21WDDUBEMSLDIXZW1FAIHW8YX3","","400.70000000298023","img/land5.png","75","401.6000000089407","2","1","1","2","0.8,0.2,0.2,0.2,0.8,0.2,0.2,0.2,0.8","0.2,0.8,0.2,0.2,0.2,0.8,0.8,0.2,0.2","3","",""
"","html-keyboard-response","258","180438","0.0-258.0","39GAF6DQWSMREH39XVW7OQYB2FP1VM","A3OV174HQJIJK8","3HUR21WDDUBEMSLDIXZW1FAIHW8YX3","","null","<img src=""img/land5.png"" style=""width:200px; border:14px solid green;"">","null","","","","","","","","","",""
"","image-keyboard-response","259","180826","0.0-259.0","39GAF6DQWSMREH39XVW7OQYB2FP1VM","A3OV174HQJIJK8","3HUR21WDDUBEMSLDIXZW1FAIHW8YX3","","387.70000000298023","img/land5.png","75","388.3999999910593","2","1","1","2","0.8,0.2,0.2,0.2,0.8,0.2,0.2,0.2,0.8","0.2,0.8,0.2,0.2,0.2,0.8,0.8,0.2,0.2","3","",""
"","html-keyboard-response","260","181128","0.0-260.0","39GAF6DQWSMREH39XVW7OQYB2FP1VM","A3OV174HQJIJK8","3HUR21WDDUBEMSLDIXZW1FAIHW8YX3","","null","<img src=""img/land5.png"" style=""width:200px; border:14px solid green;"">","null","","","","","","","","","",""
"","image-keyboard-response","261","181630","0.0-261.0","39GAF6DQWSMREH39XVW7OQYB2FP1VM","A3OV174HQJIJK8","3HUR21WDDUBEMSLDIXZW1FAIHW8YX3","","500.90000000596046","img/land6.png","74","501.59999999403954","1","0","3","2","0.8,0.2,0.2,0.2,0.8,0.2,0.2,0.2,0.8","0.2,0.8,0.2,0.2,0.2,0.8,0.8,0.2,0.2","3","",""
"","html-keyboard-response","262","181932","0.0-262.0","39GAF6DQWSMREH39XVW7OQYB2FP1VM","A3OV174HQJIJK8","3HUR21WDDUBEMSLDIXZW1FAIHW8YX3","","null","<img src=""img/land6.png"" style=""width:200px;border:14px solid red;"">","null","","","","","","","","","",""
"","image-keyboard-response","263","182822","0.0-263.0","39GAF6DQWSMREH39XVW7OQYB2FP1VM","A3OV174HQJIJK8","3HUR21WDDUBEMSLDIXZW1FAIHW8YX3","","889.7000000029802","img/land5.png","75","890.3999999910593","2","1","1","2","0.8,0.2,0.2,0.2,0.8,0.2,0.2,0.2,0.8","0.2,0.8,0.2,0.2,0.2,0.8,0.8,0.2,0.2","3","",""
"","html-keyboard-response","264","183126","0.0-264.0","39GAF6DQWSMREH39XVW7OQYB2FP1VM","A3OV174HQJIJK8","3HUR21WDDUBEMSLDIXZW1FAIHW8YX3","","null","<img src=""img/land5.png"" style=""width:200px; border:14px solid green;"">","null","","","","","","","","","",""
"","image-keyboard-response","265","183492","0.0-265.0","39GAF6DQWSMREH39XVW7OQYB2FP1VM","A3OV174HQJIJK8","3HUR21WDDUBEMSLDIXZW1FAIHW8YX3","","365","img/land5.png","75","366.09999999403954","2","0","1","2","0.8,0.2,0.2,0.2,0.8,0.2,0.2,0.2,0.8","0.2,0.8,0.2,0.2,0.2,0.8,0.8,0.2,0.2","3","",""
"","html-keyboard-response","266","183794","0.0-266.0","39GAF6DQWSMREH39XVW7OQYB2FP1VM","A3OV174HQJIJK8","3HUR21WDDUBEMSLDIXZW1FAIHW8YX3","","null","<img src=""img/land5.png"" style=""width:200px;border:14px solid red;"">","null","","","","","","","","","",""
"","image-keyboard-response","267","184200","0.0-267.0","39GAF6DQWSMREH39XVW7OQYB2FP1VM","A3OV174HQJIJK8","3HUR21WDDUBEMSLDIXZW1FAIHW8YX3","","405.59999999403954","img/land5.png","75","406.40000000596046","2","1","1","2","0.8,0.2,0.2,0.2,0.8,0.2,0.2,0.2,0.8","0.2,0.8,0.2,0.2,0.2,0.8,0.8,0.2,0.2","3","",""
"","html-keyboard-response","268","184503","0.0-268.0","39GAF6DQWSMREH39XVW7OQYB2FP1VM","A3OV174HQJIJK8","3HUR21WDDUBEMSLDIXZW1FAIHW8YX3","","null","<img src=""img/land5.png"" style=""width:200px; border:14px solid green;"">","null","","","","","","","","","",""
"","image-keyboard-response","269","184839","0.0-269.0","39GAF6DQWSMREH39XVW7OQYB2FP1VM","A3OV174HQJIJK8","3HUR21WDDUBEMSLDIXZW1FAIHW8YX3","","335.29999999701977","img/land5.png","75","336.20000000298023","2","1","1","2","0.8,0.2,0.2,0.2,0.8,0.2,0.2,0.2,0.8","0.2,0.8,0.2,0.2,0.2,0.8,0.8,0.2,0.2","3","",""
"","html-keyboard-response","270","185141","0.0-270.0","39GAF6DQWSMREH39XVW7OQYB2FP1VM","A3OV174HQJIJK8","3HUR21WDDUBEMSLDIXZW1FAIHW8YX3","","null","<img src=""img/land5.png"" style=""width:200px; border:14px solid green;"">","null","","","","","","","","","",""
"","image-keyboard-response","271","185751","0.0-271.0","39GAF6DQWSMREH39XVW7OQYB2FP1VM","A3OV174HQJIJK8","3HUR21WDDUBEMSLDIXZW1FAIHW8YX3","","609.2999999970198","img/land3.png","76","609.8999999910593","3","1","2","2","0.8,0.2,0.2,0.2,0.8,0.2,0.2,0.2,0.8","0.2,0.8,0.2,0.2,0.2,0.8,0.8,0.2,0.2","3","",""
"","html-keyboard-response","272","186053","0.0-272.0","39GAF6DQWSMREH39XVW7OQYB2FP1VM","A3OV174HQJIJK8","3HUR21WDDUBEMSLDIXZW1FAIHW8YX3","","null","<img src=""img/land3.png"" style=""width:200px; border:14px solid green;"">","null","","","","","","","","","",""
"","image-keyboard-response","273","186551","0.0-273.0","39GAF6DQWSMREH39XVW7OQYB2FP1VM","A3OV174HQJIJK8","3HUR21WDDUBEMSLDIXZW1FAIHW8YX3","","496.8999999910593","img/land6.png","75","497.79999999701977","2","0","3","2","0.8,0.2,0.2,0.2,0.8,0.2,0.2,0.2,0.8","0.2,0.8,0.2,0.2,0.2,0.8,0.8,0.2,0.2","3","",""
"","html-keyboard-response","274","186852","0.0-274.0","39GAF6DQWSMREH39XVW7OQYB2FP1VM","A3OV174HQJIJK8","3HUR21WDDUBEMSLDIXZW1FAIHW8YX3","","null","<img src=""img/land6.png"" style=""width:200px;border:14px solid red;"">","null","","","","","","","","","",""
"","image-keyboard-response","275","187158","0.0-275.0","39GAF6DQWSMREH39XVW7OQYB2FP1VM","A3OV174HQJIJK8","3HUR21WDDUBEMSLDIXZW1FAIHW8YX3","","305","img/land5.png","74","305.79999999701977","1","0","1","2","0.8,0.2,0.2,0.2,0.8,0.2,0.2,0.2,0.8","0.2,0.8,0.2,0.2,0.2,0.8,0.8,0.2,0.2","3","",""
"","html-keyboard-response","276","187460","0.0-276.0","39GAF6DQWSMREH39XVW7OQYB2FP1VM","A3OV174HQJIJK8","3HUR21WDDUBEMSLDIXZW1FAIHW8YX3","","null","<img src=""img/land5.png"" style=""width:200px;border:14px solid red;"">","null","","","","","","","","","",""
"","image-keyboard-response","277","187864","0.0-277.0","39GAF6DQWSMREH39XVW7OQYB2FP1VM","A3OV174HQJIJK8","3HUR21WDDUBEMSLDIXZW1FAIHW8YX3","","403.29999999701977","img/land5.png","75","404.09999999403954","2","1","1","2","0.8,0.2,0.2,0.2,0.8,0.2,0.2,0.2,0.8","0.2,0.8,0.2,0.2,0.2,0.8,0.8,0.2,0.2","3","",""
"","html-keyboard-response","278","188167","0.0-278.0","39GAF6DQWSMREH39XVW7OQYB2FP1VM","A3OV174HQJIJK8","3HUR21WDDUBEMSLDIXZW1FAIHW8YX3","","null","<img src=""img/land5.png"" style=""width:200px; border:14px solid green;"">","null","","","","","","","","","",""
"","image-keyboard-response","279","188686","0.0-279.0","39GAF6DQWSMREH39XVW7OQYB2FP1VM","A3OV174HQJIJK8","3HUR21WDDUBEMSLDIXZW1FAIHW8YX3","","518.4000000059605","img/land5.png","75","519.2999999970198","2","1","1","2","0.8,0.2,0.2,0.2,0.8,0.2,0.2,0.2,0.8","0.2,0.8,0.2,0.2,0.2,0.8,0.8,0.2,0.2","3","",""
"","html-keyboard-response","280","188987","0.0-280.0","39GAF6DQWSMREH39XVW7OQYB2FP1VM","A3OV174HQJIJK8","3HUR21WDDUBEMSLDIXZW1FAIHW8YX3","","null","<img src=""img/land5.png"" style=""width:200px; border:14px solid green;"">","null","","","","","","","","","",""
"","image-keyboard-response","281","189976","0.0-281.0","39GAF6DQWSMREH39XVW7OQYB2FP1VM","A3OV174HQJIJK8","3HUR21WDDUBEMSLDIXZW1FAIHW8YX3","","988","img/land6.png","74","988.7000000029802","1","1","3","2","0.8,0.2,0.2,0.2,0.8,0.2,0.2,0.2,0.8","0.2,0.8,0.2,0.2,0.2,0.8,0.8,0.2,0.2","3","",""
"","html-keyboard-response","282","190278","0.0-282.0","39GAF6DQWSMREH39XVW7OQYB2FP1VM","A3OV174HQJIJK8","3HUR21WDDUBEMSLDIXZW1FAIHW8YX3","","null","<img src=""img/land6.png"" style=""width:200px; border:14px solid green;"">","null","","","","","","","","","",""
"","image-keyboard-response","283","190932","0.0-283.0","39GAF6DQWSMREH39XVW7OQYB2FP1VM","A3OV174HQJIJK8","3HUR21WDDUBEMSLDIXZW1FAIHW8YX3","","652.7999999970198","img/land5.png","75","653.5999999940395","2","1","1","2","0.8,0.2,0.2,0.2,0.8,0.2,0.2,0.2,0.8","0.2,0.8,0.2,0.2,0.2,0.8,0.8,0.2,0.2","3","",""
"","html-keyboard-response","284","191234","0.0-284.0","39GAF6DQWSMREH39XVW7OQYB2FP1VM","A3OV174HQJIJK8","3HUR21WDDUBEMSLDIXZW1FAIHW8YX3","","null","<img src=""img/land5.png"" style=""width:200px; border:14px solid green;"">","null","","","","","","","","","",""
"","image-keyboard-response","285","191832","0.0-285.0","39GAF6DQWSMREH39XVW7OQYB2FP1VM","A3OV174HQJIJK8","3HUR21WDDUBEMSLDIXZW1FAIHW8YX3","","597.5","img/land5.png","75","598.2999999970198","2","0","1","2","0.8,0.2,0.2,0.2,0.8,0.2,0.2,0.2,0.8","0.2,0.8,0.2,0.2,0.2,0.8,0.8,0.2,0.2","3","",""
"","html-keyboard-response","286","192134","0.0-286.0","39GAF6DQWSMREH39XVW7OQYB2FP1VM","A3OV174HQJIJK8","3HUR21WDDUBEMSLDIXZW1FAIHW8YX3","","null","<img src=""img/land5.png"" style=""width:200px;border:14px solid red;"">","null","","","","","","","","","",""
"","image-keyboard-response","287","192496","0.0-287.0","39GAF6DQWSMREH39XVW7OQYB2FP1VM","A3OV174HQJIJK8","3HUR21WDDUBEMSLDIXZW1FAIHW8YX3","","361.5","img/land5.png","75","362.29999999701977","2","0","1","2","0.8,0.2,0.2,0.2,0.8,0.2,0.2,0.2,0.8","0.2,0.8,0.2,0.2,0.2,0.8,0.8,0.2,0.2","3","",""
"","html-keyboard-response","288","192799","0.0-288.0","39GAF6DQWSMREH39XVW7OQYB2FP1VM","A3OV174HQJIJK8","3HUR21WDDUBEMSLDIXZW1FAIHW8YX3","","null","<img src=""img/land5.png"" style=""width:200px;border:14px solid red;"">","null","","","","","","","","","",""
"","image-keyboard-response","289","193102","0.0-289.0","39GAF6DQWSMREH39XVW7OQYB2FP1VM","A3OV174HQJIJK8","3HUR21WDDUBEMSLDIXZW1FAIHW8YX3","","302.5","img/land5.png","75","303.3999999910593","2","1","1","2","0.8,0.2,0.2,0.2,0.8,0.2,0.2,0.2,0.8","0.2,0.8,0.2,0.2,0.2,0.8,0.8,0.2,0.2","3","",""
"","html-keyboard-response","290","193404","0.0-290.0","39GAF6DQWSMREH39XVW7OQYB2FP1VM","A3OV174HQJIJK8","3HUR21WDDUBEMSLDIXZW1FAIHW8YX3","","null","<img src=""img/land5.png"" style=""width:200px; border:14px solid green;"">","null","","","","","","","","","",""
"","image-keyboard-response","291","194149","0.0-291.0","39GAF6DQWSMREH39XVW7OQYB2FP1VM","A3OV174HQJIJK8","3HUR21WDDUBEMSLDIXZW1FAIHW8YX3","","744.2999999970198","img/land6.png","74","745.0999999940395","1","1","3","2","0.8,0.2,0.2,0.2,0.8,0.2,0.2,0.2,0.8","0.2,0.8,0.2,0.2,0.2,0.8,0.8,0.2,0.2","3","",""
"","html-keyboard-response","292","194450","0.0-292.0","39GAF6DQWSMREH39XVW7OQYB2FP1VM","A3OV174HQJIJK8","3HUR21WDDUBEMSLDIXZW1FAIHW8YX3","","null","<img src=""img/land6.png"" style=""width:200px; border:14px solid green;"">","null","","","","","","","","","",""
"","image-keyboard-response","293","195397","0.0-293.0","39GAF6DQWSMREH39XVW7OQYB2FP1VM","A3OV174HQJIJK8","3HUR21WDDUBEMSLDIXZW1FAIHW8YX3","","945.9000000059605","img/land5.png","75","946.5999999940395","2","1","1","2","0.8,0.2,0.2,0.2,0.8,0.2,0.2,0.2,0.8","0.2,0.8,0.2,0.2,0.2,0.8,0.8,0.2,0.2","3","",""
"","html-keyboard-response","294","195699","0.0-294.0","39GAF6DQWSMREH39XVW7OQYB2FP1VM","A3OV174HQJIJK8","3HUR21WDDUBEMSLDIXZW1FAIHW8YX3","","null","<img src=""img/land5.png"" style=""width:200px; border:14px solid green;"">","null","","","","","","","","","",""
"","image-keyboard-response","295","196460","0.0-295.0","39GAF6DQWSMREH39XVW7OQYB2FP1VM","A3OV174HQJIJK8","3HUR21WDDUBEMSLDIXZW1FAIHW8YX3","","760.1000000089407","img/land3.png","76","760.9000000059605","3","1","2","2","0.8,0.2,0.2,0.2,0.8,0.2,0.2,0.2,0.8","0.2,0.8,0.2,0.2,0.2,0.8,0.8,0.2,0.2","3","",""
"","html-keyboard-response","296","196763","0.0-296.0","39GAF6DQWSMREH39XVW7OQYB2FP1VM","A3OV174HQJIJK8","3HUR21WDDUBEMSLDIXZW1FAIHW8YX3","","null","<img src=""img/land3.png"" style=""width:200px; border:14px solid green;"">","null","","","","","","","","","",""
"","image-keyboard-response","297","197862","0.0-297.0","39GAF6DQWSMREH39XVW7OQYB2FP1VM","A3OV174HQJIJK8","3HUR21WDDUBEMSLDIXZW1FAIHW8YX3","","1098.5","img/land5.png","75","1099.2000000029802","2","1","1","2","0.8,0.2,0.2,0.2,0.8,0.2,0.2,0.2,0.8","0.2,0.8,0.2,0.2,0.2,0.8,0.8,0.2,0.2","3","",""
"","html-keyboard-response","298","198164","0.0-298.0","39GAF6DQWSMREH39XVW7OQYB2FP1VM","A3OV174HQJIJK8","3HUR21WDDUBEMSLDIXZW1FAIHW8YX3","","null","<img src=""img/land5.png"" style=""width:200px; border:14px solid green;"">","null","","","","","","","","","",""
"","image-keyboard-response","299","198800","0.0-299.0","39GAF6DQWSMREH39XVW7OQYB2FP1VM","A3OV174HQJIJK8","3HUR21WDDUBEMSLDIXZW1FAIHW8YX3","","635.5","img/land6.png","74","636.2000000029802","1","1","3","2","0.8,0.2,0.2,0.2,0.8,0.2,0.2,0.2,0.8","0.2,0.8,0.2,0.2,0.2,0.8,0.8,0.2,0.2","3","",""
"","html-keyboard-response","300","199101","0.0-300.0","39GAF6DQWSMREH39XVW7OQYB2FP1VM","A3OV174HQJIJK8","3HUR21WDDUBEMSLDIXZW1FAIHW8YX3","","null","<img src=""img/land6.png"" style=""width:200px; border:14px solid green;"">","null","","","","","","","","","",""
"","image-keyboard-response","301","199729","0.0-301.0","39GAF6DQWSMREH39XVW7OQYB2FP1VM","A3OV174HQJIJK8","3HUR21WDDUBEMSLDIXZW1FAIHW8YX3","","626.9000000059605","img/land5.png","75","627.7000000029802","2","1","1","2","0.8,0.2,0.2,0.2,0.8,0.2,0.2,0.2,0.8","0.2,0.8,0.2,0.2,0.2,0.8,0.8,0.2,0.2","3","",""
"","html-keyboard-response","302","200031","0.0-302.0","39GAF6DQWSMREH39XVW7OQYB2FP1VM","A3OV174HQJIJK8","3HUR21WDDUBEMSLDIXZW1FAIHW8YX3","","null","<img src=""img/land5.png"" style=""width:200px; border:14px solid green;"">","null","","","","","","","","","",""
"","image-keyboard-response","303","200491","0.0-303.0","39GAF6DQWSMREH39XVW7OQYB2FP1VM","A3OV174HQJIJK8","3HUR21WDDUBEMSLDIXZW1FAIHW8YX3","","458.79999999701977","img/land6.png","74","459.6000000089407","1","1","3","2","0.8,0.2,0.2,0.2,0.8,0.2,0.2,0.2,0.8","0.2,0.8,0.2,0.2,0.2,0.8,0.8,0.2,0.2","3","",""
"","html-keyboard-response","304","200792","0.0-304.0","39GAF6DQWSMREH39XVW7OQYB2FP1VM","A3OV174HQJIJK8","3HUR21WDDUBEMSLDIXZW1FAIHW8YX3","","null","<img src=""img/land6.png"" style=""width:200px; border:14px solid green;"">","null","","","","","","","","","",""
"","image-keyboard-response","305","201353","0.0-305.0","39GAF6DQWSMREH39XVW7OQYB2FP1VM","A3OV174HQJIJK8","3HUR21WDDUBEMSLDIXZW1FAIHW8YX3","","559.7000000029802","img/land3.png","76","560.7000000029802","3","0","2","2","0.8,0.2,0.2,0.2,0.8,0.2,0.2,0.2,0.8","0.2,0.8,0.2,0.2,0.2,0.8,0.8,0.2,0.2","3","",""
"","html-keyboard-response","306","201655","0.0-306.0","39GAF6DQWSMREH39XVW7OQYB2FP1VM","A3OV174HQJIJK8","3HUR21WDDUBEMSLDIXZW1FAIHW8YX3","","null","<img src=""img/land3.png"" style=""width:200px;border:14px solid red;"">","null","","","","","","","","","",""
"","image-keyboard-response","307","202295","0.0-307.0","39GAF6DQWSMREH39XVW7OQYB2FP1VM","A3OV174HQJIJK8","3HUR21WDDUBEMSLDIXZW1FAIHW8YX3","","639.3999999910593","img/land5.png","75","640.2000000029802","2","1","1","2","0.8,0.2,0.2,0.2,0.8,0.2,0.2,0.2,0.8","0.2,0.8,0.2,0.2,0.2,0.8,0.8,0.2,0.2","3","",""
"","html-keyboard-response","308","202596","0.0-308.0","39GAF6DQWSMREH39XVW7OQYB2FP1VM","A3OV174HQJIJK8","3HUR21WDDUBEMSLDIXZW1FAIHW8YX3","","null","<img src=""img/land5.png"" style=""width:200px; border:14px solid green;"">","null","","","","","","","","","",""
"","image-keyboard-response","309","202974","0.0-309.0","39GAF6DQWSMREH39XVW7OQYB2FP1VM","A3OV174HQJIJK8","3HUR21WDDUBEMSLDIXZW1FAIHW8YX3","","376.5","img/land5.png","75","377.40000000596046","2","1","1","2","0.8,0.2,0.2,0.2,0.8,0.2,0.2,0.2,0.8","0.2,0.8,0.2,0.2,0.2,0.8,0.8,0.2,0.2","3","",""
"","html-keyboard-response","310","203276","0.0-310.0","39GAF6DQWSMREH39XVW7OQYB2FP1VM","A3OV174HQJIJK8","3HUR21WDDUBEMSLDIXZW1FAIHW8YX3","","null","<img src=""img/land5.png"" style=""width:200px; border:14px solid green;"">","null","","","","","","","","","",""
"","image-keyboard-response","311","203899","0.0-311.0","39GAF6DQWSMREH39XVW7OQYB2FP1VM","A3OV174HQJIJK8","3HUR21WDDUBEMSLDIXZW1FAIHW8YX3","","622.5","img/land6.png","74","623.3999999910593","1","1","3","2","0.8,0.2,0.2,0.2,0.8,0.2,0.2,0.2,0.8","0.2,0.8,0.2,0.2,0.2,0.8,0.8,0.2,0.2","3","",""
"","html-keyboard-response","312","204210","0.0-312.0","39GAF6DQWSMREH39XVW7OQYB2FP1VM","A3OV174HQJIJK8","3HUR21WDDUBEMSLDIXZW1FAIHW8YX3","","null","<img src=""img/land6.png"" style=""width:200px; border:14px solid green;"">","null","","","","","","","","","",""
"","image-keyboard-response","313","205173","0.0-313.0","39GAF6DQWSMREH39XVW7OQYB2FP1VM","A3OV174HQJIJK8","3HUR21WDDUBEMSLDIXZW1FAIHW8YX3","","961.7999999970198","img/land5.png","75","962.7000000029802","2","1","1","2","0.8,0.2,0.2,0.2,0.8,0.2,0.2,0.2,0.8","0.2,0.8,0.2,0.2,0.2,0.8,0.8,0.2,0.2","3","",""
"","html-keyboard-response","314","205474","0.0-314.0","39GAF6DQWSMREH39XVW7OQYB2FP1VM","A3OV174HQJIJK8","3HUR21WDDUBEMSLDIXZW1FAIHW8YX3","","null","<img src=""img/land5.png"" style=""width:200px; border:14px solid green;"">","null","","","","","","","","","",""
"","image-keyboard-response","315","205887","0.0-315.0","39GAF6DQWSMREH39XVW7OQYB2FP1VM","A3OV174HQJIJK8","3HUR21WDDUBEMSLDIXZW1FAIHW8YX3","","411.59999999403954","img/land5.png","75","412.5","2","1","1","2","0.8,0.2,0.2,0.2,0.8,0.2,0.2,0.2,0.8","0.2,0.8,0.2,0.2,0.2,0.8,0.8,0.2,0.2","3","",""
"","html-keyboard-response","316","206188","0.0-316.0","39GAF6DQWSMREH39XVW7OQYB2FP1VM","A3OV174HQJIJK8","3HUR21WDDUBEMSLDIXZW1FAIHW8YX3","","null","<img src=""img/land5.png"" style=""width:200px; border:14px solid green;"">","null","","","","","","","","","",""
"","image-keyboard-response","317","206501","0.0-317.0","39GAF6DQWSMREH39XVW7OQYB2FP1VM","A3OV174HQJIJK8","3HUR21WDDUBEMSLDIXZW1FAIHW8YX3","","311.80000001192093","img/land5.png","75","312.70000000298023","2","1","1","2","0.8,0.2,0.2,0.2,0.8,0.2,0.2,0.2,0.8","0.2,0.8,0.2,0.2,0.2,0.8,0.8,0.2,0.2","3","",""
"","html-keyboard-response","318","206803","0.0-318.0","39GAF6DQWSMREH39XVW7OQYB2FP1VM","A3OV174HQJIJK8","3HUR21WDDUBEMSLDIXZW1FAIHW8YX3","","null","<img src=""img/land5.png"" style=""width:200px; border:14px solid green;"">","null","","","","","","","","","",""
"","image-keyboard-response","319","207371","0.0-319.0","39GAF6DQWSMREH39XVW7OQYB2FP1VM","A3OV174HQJIJK8","3HUR21WDDUBEMSLDIXZW1FAIHW8YX3","","566.8999999910593","img/land3.png","76","567.7000000029802","3","1","2","2","0.8,0.2,0.2,0.2,0.8,0.2,0.2,0.2,0.8","0.2,0.8,0.2,0.2,0.2,0.8,0.8,0.2,0.2","3","",""
"","html-keyboard-response","320","207673","0.0-320.0","39GAF6DQWSMREH39XVW7OQYB2FP1VM","A3OV174HQJIJK8","3HUR21WDDUBEMSLDIXZW1FAIHW8YX3","","null","<img src=""img/land3.png"" style=""width:200px; border:14px solid green;"">","null","","","","","","","","","",""
"","image-keyboard-response","321","208195","0.0-321.0","39GAF6DQWSMREH39XVW7OQYB2FP1VM","A3OV174HQJIJK8","3HUR21WDDUBEMSLDIXZW1FAIHW8YX3","","520.7999999970198","img/land5.png","75","521.6000000089407","2","1","1","2","0.8,0.2,0.2,0.2,0.8,0.2,0.2,0.2,0.8","0.2,0.8,0.2,0.2,0.2,0.8,0.8,0.2,0.2","3","",""
"","html-keyboard-response","322","208496","0.0-322.0","39GAF6DQWSMREH39XVW7OQYB2FP1VM","A3OV174HQJIJK8","3HUR21WDDUBEMSLDIXZW1FAIHW8YX3","","null","<img src=""img/land5.png"" style=""width:200px; border:14px solid green;"">","null","","","","","","","","","",""
"","image-keyboard-response","323","208808","0.0-323.0","39GAF6DQWSMREH39XVW7OQYB2FP1VM","A3OV174HQJIJK8","3HUR21WDDUBEMSLDIXZW1FAIHW8YX3","","310.6000000089407","img/land5.png","75","311.3999999910593","2","1","1","2","0.8,0.2,0.2,0.2,0.8,0.2,0.2,0.2,0.8","0.2,0.8,0.2,0.2,0.2,0.8,0.8,0.2,0.2","3","",""
"","html-keyboard-response","324","209109","0.0-324.0","39GAF6DQWSMREH39XVW7OQYB2FP1VM","A3OV174HQJIJK8","3HUR21WDDUBEMSLDIXZW1FAIHW8YX3","","null","<img src=""img/land5.png"" style=""width:200px; border:14px solid green;"">","null","","","","","","","","","",""
"","image-keyboard-response","325","209619","0.0-325.0","39GAF6DQWSMREH39XVW7OQYB2FP1VM","A3OV174HQJIJK8","3HUR21WDDUBEMSLDIXZW1FAIHW8YX3","","508.70000000298023","img/land3.png","76","509.5","3","0","2","2","0.8,0.2,0.2,0.2,0.8,0.2,0.2,0.2,0.8","0.2,0.8,0.2,0.2,0.2,0.8,0.8,0.2,0.2","3","",""
"","html-keyboard-response","326","209921","0.0-326.0","39GAF6DQWSMREH39XVW7OQYB2FP1VM","A3OV174HQJIJK8","3HUR21WDDUBEMSLDIXZW1FAIHW8YX3","","null","<img src=""img/land3.png"" style=""width:200px;border:14px solid red;"">","null","","","","","","","","","",""
"","image-keyboard-response","327","210560","0.0-327.0","39GAF6DQWSMREH39XVW7OQYB2FP1VM","A3OV174HQJIJK8","3HUR21WDDUBEMSLDIXZW1FAIHW8YX3","","637.8000000119209","img/land6.png","74","638.8000000119209","1","1","3","2","0.8,0.2,0.2,0.2,0.8,0.2,0.2,0.2,0.8","0.2,0.8,0.2,0.2,0.2,0.8,0.8,0.2,0.2","3","",""
"","html-keyboard-response","328","210861","0.0-328.0","39GAF6DQWSMREH39XVW7OQYB2FP1VM","A3OV174HQJIJK8","3HUR21WDDUBEMSLDIXZW1FAIHW8YX3","","null","<img src=""img/land6.png"" style=""width:200px; border:14px solid green;"">","null","","","","","","","","","",""
"","image-keyboard-response","329","211499","0.0-329.0","39GAF6DQWSMREH39XVW7OQYB2FP1VM","A3OV174HQJIJK8","3HUR21WDDUBEMSLDIXZW1FAIHW8YX3","","636.4000000059605","img/land5.png","75","637.5","2","1","1","2","0.8,0.2,0.2,0.2,0.8,0.2,0.2,0.2,0.8","0.2,0.8,0.2,0.2,0.2,0.8,0.8,0.2,0.2","3","",""
"","html-keyboard-response","330","211800","0.0-330.0","39GAF6DQWSMREH39XVW7OQYB2FP1VM","A3OV174HQJIJK8","3HUR21WDDUBEMSLDIXZW1FAIHW8YX3","","null","<img src=""img/land5.png"" style=""width:200px; border:14px solid green;"">","null","","","","","","","","","",""
"","image-keyboard-response","331","212133","0.0-331.0","39GAF6DQWSMREH39XVW7OQYB2FP1VM","A3OV174HQJIJK8","3HUR21WDDUBEMSLDIXZW1FAIHW8YX3","","332.70000000298023","img/land5.png","75","333.5","2","0","1","2","0.8,0.2,0.2,0.2,0.8,0.2,0.2,0.2,0.8","0.2,0.8,0.2,0.2,0.2,0.8,0.8,0.2,0.2","3","",""
"","html-keyboard-response","332","212435","0.0-332.0","39GAF6DQWSMREH39XVW7OQYB2FP1VM","A3OV174HQJIJK8","3HUR21WDDUBEMSLDIXZW1FAIHW8YX3","","null","<img src=""img/land5.png"" style=""width:200px;border:14px solid red;"">","null","","","","","","","","","",""
"","image-keyboard-response","333","212815","0.0-333.0","39GAF6DQWSMREH39XVW7OQYB2FP1VM","A3OV174HQJIJK8","3HUR21WDDUBEMSLDIXZW1FAIHW8YX3","","378.40000000596046","img/land5.png","75","379.1000000089407","2","0","1","2","0.8,0.2,0.2,0.2,0.8,0.2,0.2,0.2,0.8","0.2,0.8,0.2,0.2,0.2,0.8,0.8,0.2,0.2","3","",""
"","html-keyboard-response","334","213116","0.0-334.0","39GAF6DQWSMREH39XVW7OQYB2FP1VM","A3OV174HQJIJK8","3HUR21WDDUBEMSLDIXZW1FAIHW8YX3","","null","<img src=""img/land5.png"" style=""width:200px;border:14px solid red;"">","null","","","","","","","","","",""
"","image-keyboard-response","335","213436","0.0-335.0","39GAF6DQWSMREH39XVW7OQYB2FP1VM","A3OV174HQJIJK8","3HUR21WDDUBEMSLDIXZW1FAIHW8YX3","","318.29999999701977","img/land5.png","75","319","2","1","1","2","0.8,0.2,0.2,0.2,0.8,0.2,0.2,0.2,0.8","0.2,0.8,0.2,0.2,0.2,0.8,0.8,0.2,0.2","3","",""
"","html-keyboard-response","336","213737","0.0-336.0","39GAF6DQWSMREH39XVW7OQYB2FP1VM","A3OV174HQJIJK8","3HUR21WDDUBEMSLDIXZW1FAIHW8YX3","","null","<img src=""img/land5.png"" style=""width:200px; border:14px solid green;"">","null","","","","","","","","","",""
"","image-keyboard-response","337","214738","0.0-337.0","39GAF6DQWSMREH39XVW7OQYB2FP1VM","A3OV174HQJIJK8","3HUR21WDDUBEMSLDIXZW1FAIHW8YX3","","999.7000000029802","img/land3.png","76","1000.5999999940395","3","0","2","2","0.8,0.2,0.2,0.2,0.8,0.2,0.2,0.2,0.8","0.2,0.8,0.2,0.2,0.2,0.8,0.8,0.2,0.2","3","",""
"","html-keyboard-response","338","215039","0.0-338.0","39GAF6DQWSMREH39XVW7OQYB2FP1VM","A3OV174HQJIJK8","3HUR21WDDUBEMSLDIXZW1FAIHW8YX3","","null","<img src=""img/land3.png"" style=""width:200px;border:14px solid red;"">","null","","","","","","","","","",""
"","image-keyboard-response","339","215316","0.0-339.0","39GAF6DQWSMREH39XVW7OQYB2FP1VM","A3OV174HQJIJK8","3HUR21WDDUBEMSLDIXZW1FAIHW8YX3","","275.90000000596046","img/land3.png","76","276.79999999701977","3","1","2","2","0.8,0.2,0.2,0.2,0.8,0.2,0.2,0.2,0.8","0.2,0.8,0.2,0.2,0.2,0.8,0.8,0.2,0.2","3","",""
"","html-keyboard-response","340","215617","0.0-340.0","39GAF6DQWSMREH39XVW7OQYB2FP1VM","A3OV174HQJIJK8","3HUR21WDDUBEMSLDIXZW1FAIHW8YX3","","null","<img src=""img/land3.png"" style=""width:200px; border:14px solid green;"">","null","","","","","","","","","",""
"","image-keyboard-response","341","216178","0.0-341.0","39GAF6DQWSMREH39XVW7OQYB2FP1VM","A3OV174HQJIJK8","3HUR21WDDUBEMSLDIXZW1FAIHW8YX3","","559.7999999970198","img/land5.png","75","560.5999999940395","2","1","1","2","0.8,0.2,0.2,0.2,0.8,0.2,0.2,0.2,0.8","0.2,0.8,0.2,0.2,0.2,0.8,0.8,0.2,0.2","3","",""
"","html-keyboard-response","342","216479","0.0-342.0","39GAF6DQWSMREH39XVW7OQYB2FP1VM","A3OV174HQJIJK8","3HUR21WDDUBEMSLDIXZW1FAIHW8YX3","","null","<img src=""img/land5.png"" style=""width:200px; border:14px solid green;"">","null","","","","","","","","","",""
"","image-keyboard-response","343","217156","0.0-343.0","39GAF6DQWSMREH39XVW7OQYB2FP1VM","A3OV174HQJIJK8","3HUR21WDDUBEMSLDIXZW1FAIHW8YX3","","676.1000000089407","img/land3.png","76","677","3","1","2","2","0.8,0.2,0.2,0.2,0.8,0.2,0.2,0.2,0.8","0.2,0.8,0.2,0.2,0.2,0.8,0.8,0.2,0.2","3","",""
"","html-keyboard-response","344","217458","0.0-344.0","39GAF6DQWSMREH39XVW7OQYB2FP1VM","A3OV174HQJIJK8","3HUR21WDDUBEMSLDIXZW1FAIHW8YX3","","null","<img src=""img/land3.png"" style=""width:200px; border:14px solid green;"">","null","","","","","","","","","",""
"","image-keyboard-response","345","218628","0.0-345.0","39GAF6DQWSMREH39XVW7OQYB2FP1VM","A3OV174HQJIJK8","3HUR21WDDUBEMSLDIXZW1FAIHW8YX3","","1168.7000000029802","img/land5.png","75","1169.5","2","0","1","2","0.8,0.2,0.2,0.2,0.8,0.2,0.2,0.2,0.8","0.2,0.8,0.2,0.2,0.2,0.8,0.8,0.2,0.2","3","",""
"","html-keyboard-response","346","218929","0.0-346.0","39GAF6DQWSMREH39XVW7OQYB2FP1VM","A3OV174HQJIJK8","3HUR21WDDUBEMSLDIXZW1FAIHW8YX3","","null","<img src=""img/land5.png"" style=""width:200px;border:14px solid red;"">","null","","","","","","","","","",""
"","image-keyboard-response","347","219324","0.0-347.0","39GAF6DQWSMREH39XVW7OQYB2FP1VM","A3OV174HQJIJK8","3HUR21WDDUBEMSLDIXZW1FAIHW8YX3","","393.90000000596046","img/land5.png","75","394.79999999701977","2","1","1","2","0.8,0.2,0.2,0.2,0.8,0.2,0.2,0.2,0.8","0.2,0.8,0.2,0.2,0.2,0.8,0.8,0.2,0.2","3","",""
"","html-keyboard-response","348","219625","0.0-348.0","39GAF6DQWSMREH39XVW7OQYB2FP1VM","A3OV174HQJIJK8","3HUR21WDDUBEMSLDIXZW1FAIHW8YX3","","null","<img src=""img/land5.png"" style=""width:200px; border:14px solid green;"">","null","","","","","","","","","",""
"","image-keyboard-response","349","220513","0.0-349.0","39GAF6DQWSMREH39XVW7OQYB2FP1VM","A3OV174HQJIJK8","3HUR21WDDUBEMSLDIXZW1FAIHW8YX3","","886.8999999910593","img/land3.png","76","887.7999999970198","3","1","2","2","0.8,0.2,0.2,0.2,0.8,0.2,0.2,0.2,0.8","0.2,0.8,0.2,0.2,0.2,0.8,0.8,0.2,0.2","3","",""
"","html-keyboard-response","350","220814","0.0-350.0","39GAF6DQWSMREH39XVW7OQYB2FP1VM","A3OV174HQJIJK8","3HUR21WDDUBEMSLDIXZW1FAIHW8YX3","","null","<img src=""img/land3.png"" style=""width:200px; border:14px solid green;"">","null","","","","","","","","","",""
"","image-keyboard-response","351","221250","0.0-351.0","39GAF6DQWSMREH39XVW7OQYB2FP1VM","A3OV174HQJIJK8","3HUR21WDDUBEMSLDIXZW1FAIHW8YX3","","434.3999999910593","img/land3.png","76","435.30000001192093","3","1","2","2","0.8,0.2,0.2,0.2,0.8,0.2,0.2,0.2,0.8","0.2,0.8,0.2,0.2,0.2,0.8,0.8,0.2,0.2","3","",""
"","html-keyboard-response","352","221551","0.0-352.0","39GAF6DQWSMREH39XVW7OQYB2FP1VM","A3OV174HQJIJK8","3HUR21WDDUBEMSLDIXZW1FAIHW8YX3","","null","<img src=""img/land3.png"" style=""width:200px; border:14px solid green;"">","null","","","","","","","","","",""
"","image-keyboard-response","353","222240","0.0-353.0","39GAF6DQWSMREH39XVW7OQYB2FP1VM","A3OV174HQJIJK8","3HUR21WDDUBEMSLDIXZW1FAIHW8YX3","","687.8999999910593","img/land5.png","75","688.7999999970198","2","0","1","2","0.8,0.2,0.2,0.2,0.8,0.2,0.2,0.2,0.8","0.2,0.8,0.2,0.2,0.2,0.8,0.8,0.2,0.2","3","",""
"","html-keyboard-response","354","222541","0.0-354.0","39GAF6DQWSMREH39XVW7OQYB2FP1VM","A3OV174HQJIJK8","3HUR21WDDUBEMSLDIXZW1FAIHW8YX3","","null","<img src=""img/land5.png"" style=""width:200px;border:14px solid red;"">","null","","","","","","","","","",""
