"success","trial_type","trial_index","time_elapsed","internal_node_id","assignmentID","mturkID","hitID","view_history","rt","stimulus","key_press","reactionTime","a","r","s","cond","reward_cond","reward_cond_actual","reward_matrix_idx","responses","question_order"
"true","fullscreen","0","3214","0.0-0.0","3U4J9857OFXQGPK5HUMGOOVH1YAB71","A3POD149IG0DIW","3BDORL6HKKZHMTYWD6BFF6WBDQ9CRF","","","","","","","","","","","","","",""
"","instructions","1","73364","0.0-1.0","3U4J9857OFXQGPK5HUMGOOVH1YAB71","A3POD149IG0DIW","3BDORL6HKKZHMTYWD6BFF6WBDQ9CRF","[{""page_index"":0,""viewing_time"":4316},{""page_index"":1,""viewing_time"":2191.5999999996275},{""page_index"":2,""viewing_time"":4797.5999999996275},{""page_index"":3,""viewing_time"":5840.10000000149},{""page_index"":4,""viewing_time"":5523.299999998882},{""page_index"":5,""viewing_time"":9183},{""page_index"":4,""viewing_time"":7760.5999999996275},{""page_index"":3,""viewing_time"":8771.800000000745},{""page_index"":4,""viewing_time"":1364.5},{""page_index"":3,""viewing_time"":1360.4000000003725},{""page_index"":2,""viewing_time"":2319.199999999255},{""page_index"":3,""viewing_time"":3352.2000000011176},{""page_index"":4,""viewing_time"":2052.199999999255},{""page_index"":5,""viewing_time"":7603.800000000745},{""page_index"":6,""viewing_time"":3697.0999999996275}]","70141.40000000037","","","","","","","","","","","",""
"","image-keyboard-response","2","74836","0.0-2.0","3U4J9857OFXQGPK5HUMGOOVH1YAB71","A3POD149IG0DIW","3BDORL6HKKZHMTYWD6BFF6WBDQ9CRF","","1433.4000000003725","img/land6.png","74","1451.7999999988824","1","0","2","2","1,0.5,0.5,0.5,1,0.5,0.5,0.5,1","1,0.5,0.5,0.5,1,0.5,0.5,0.5,1","1","",""
"","html-keyboard-response","3","75156","0.0-3.0","3U4J9857OFXQGPK5HUMGOOVH1YAB71","A3POD149IG0DIW","3BDORL6HKKZHMTYWD6BFF6WBDQ9CRF","","null","<img src=""img/land6.png"" style=""width:200px;border:14px solid red;"">","null","","","","","","","","","",""
"","image-keyboard-response","4","75812","0.0-4.0","3U4J9857OFXQGPK5HUMGOOVH1YAB71","A3POD149IG0DIW","3BDORL6HKKZHMTYWD6BFF6WBDQ9CRF","","648.5999999996275","img/land3.png","76","655.0999999996275","3","1","1","2","1,0.5,0.5,0.5,1,0.5,0.5,0.5,1","1,0.5,0.5,0.5,1,0.5,0.5,0.5,1","1","",""
"","html-keyboard-response","5","76124","0.0-5.0","3U4J9857OFXQGPK5HUMGOOVH1YAB71","A3POD149IG0DIW","3BDORL6HKKZHMTYWD6BFF6WBDQ9CRF","","null","<img src=""img/land3.png"" style=""width:200px; border:14px solid green;"">","null","","","","","","","","","",""
"","image-keyboard-response","6","77072","0.0-6.0","3U4J9857OFXQGPK5HUMGOOVH1YAB71","A3POD149IG0DIW","3BDORL6HKKZHMTYWD6BFF6WBDQ9CRF","","942.5999999996275","img/land2.png","74","946.8000000007451","1","0","3","2","1,0.5,0.5,0.5,1,0.5,0.5,0.5,1","1,0.5,0.5,0.5,1,0.5,0.5,0.5,1","1","",""
"","html-keyboard-response","7","77380","0.0-7.0","3U4J9857OFXQGPK5HUMGOOVH1YAB71","A3POD149IG0DIW","3BDORL6HKKZHMTYWD6BFF6WBDQ9CRF","","null","<img src=""img/land2.png"" style=""width:200px;border:14px solid red;"">","null","","","","","","","","","",""
"","image-keyboard-response","8","78210","0.0-8.0","3U4J9857OFXQGPK5HUMGOOVH1YAB71","A3POD149IG0DIW","3BDORL6HKKZHMTYWD6BFF6WBDQ9CRF","","816","img/land2.png","76","824.4000000003725","3","1","3","2","1,0.5,0.5,0.5,1,0.5,0.5,0.5,1","1,0.5,0.5,0.5,1,0.5,0.5,0.5,1","1","",""
"","html-keyboard-response","9","78517","0.0-9.0","3U4J9857OFXQGPK5HUMGOOVH1YAB71","A3POD149IG0DIW","3BDORL6HKKZHMTYWD6BFF6WBDQ9CRF","","null","<img src=""img/land2.png"" style=""width:200px; border:14px solid green;"">","null","","","","","","","","","",""
"","image-keyboard-response","10","79417","0.0-10.0","3U4J9857OFXQGPK5HUMGOOVH1YAB71","A3POD149IG0DIW","3BDORL6HKKZHMTYWD6BFF6WBDQ9CRF","","892.5999999996275","img/land3.png","76","898.5999999996275","3","0","1","2","1,0.5,0.5,0.5,1,0.5,0.5,0.5,1","1,0.5,0.5,0.5,1,0.5,0.5,0.5,1","1","",""
"","html-keyboard-response","11","79724","0.0-11.0","3U4J9857OFXQGPK5HUMGOOVH1YAB71","A3POD149IG0DIW","3BDORL6HKKZHMTYWD6BFF6WBDQ9CRF","","null","<img src=""img/land3.png"" style=""width:200px;border:14px solid red;"">","null","","","","","","","","","",""
"","image-keyboard-response","12","81220","0.0-12.0","3U4J9857OFXQGPK5HUMGOOVH1YAB71","A3POD149IG0DIW","3BDORL6HKKZHMTYWD6BFF6WBDQ9CRF","","1486.3999999985099","img/land6.png","75","1494.5999999996275","2","1","2","2","1,0.5,0.5,0.5,1,0.5,0.5,0.5,1","1,0.5,0.5,0.5,1,0.5,0.5,0.5,1","1","",""
"","html-keyboard-response","13","81526","0.0-13.0","3U4J9857OFXQGPK5HUMGOOVH1YAB71","A3POD149IG0DIW","3BDORL6HKKZHMTYWD6BFF6WBDQ9CRF","","null","<img src=""img/land6.png"" style=""width:200px; border:14px solid green;"">","null","","","","","","","","","",""
"","image-keyboard-response","14","82702","0.0-14.0","3U4J9857OFXQGPK5HUMGOOVH1YAB71","A3POD149IG0DIW","3BDORL6HKKZHMTYWD6BFF6WBDQ9CRF","","1169.300000000745","img/land3.png","75","1174.2999999988824","2","1","1","2","1,0.5,0.5,0.5,1,0.5,0.5,0.5,1","1,0.5,0.5,0.5,1,0.5,0.5,0.5,1","1","",""
"","html-keyboard-response","15","83027","0.0-15.0","3U4J9857OFXQGPK5HUMGOOVH1YAB71","A3POD149IG0DIW","3BDORL6HKKZHMTYWD6BFF6WBDQ9CRF","","null","<img src=""img/land3.png"" style=""width:200px; border:14px solid green;"">","null","","","","","","","","","",""
"","image-keyboard-response","16","83899","0.0-16.0","3U4J9857OFXQGPK5HUMGOOVH1YAB71","A3POD149IG0DIW","3BDORL6HKKZHMTYWD6BFF6WBDQ9CRF","","866.5","img/land3.png","76","871.1999999992549","3","0","1","2","1,0.5,0.5,0.5,1,0.5,0.5,0.5,1","1,0.5,0.5,0.5,1,0.5,0.5,0.5,1","1","",""
"","html-keyboard-response","17","84205","0.0-17.0","3U4J9857OFXQGPK5HUMGOOVH1YAB71","A3POD149IG0DIW","3BDORL6HKKZHMTYWD6BFF6WBDQ9CRF","","null","<img src=""img/land3.png"" style=""width:200px;border:14px solid red;"">","null","","","","","","","","","",""
"","image-keyboard-response","18","85397","0.0-18.0","3U4J9857OFXQGPK5HUMGOOVH1YAB71","A3POD149IG0DIW","3BDORL6HKKZHMTYWD6BFF6WBDQ9CRF","","1186.7999999988824","img/land3.png","76","1193","3","0","1","2","1,0.5,0.5,0.5,1,0.5,0.5,0.5,1","1,0.5,0.5,0.5,1,0.5,0.5,0.5,1","1","",""
"","html-keyboard-response","19","85710","0.0-19.0","3U4J9857OFXQGPK5HUMGOOVH1YAB71","A3POD149IG0DIW","3BDORL6HKKZHMTYWD6BFF6WBDQ9CRF","","null","<img src=""img/land3.png"" style=""width:200px;border:14px solid red;"">","null","","","","","","","","","",""
"","image-keyboard-response","20","86538","0.0-20.0","3U4J9857OFXQGPK5HUMGOOVH1YAB71","A3POD149IG0DIW","3BDORL6HKKZHMTYWD6BFF6WBDQ9CRF","","819.0999999996275","img/land6.png","75","825","2","1","2","2","1,0.5,0.5,0.5,1,0.5,0.5,0.5,1","1,0.5,0.5,0.5,1,0.5,0.5,0.5,1","1","",""
"","html-keyboard-response","21","86843","0.0-21.0","3U4J9857OFXQGPK5HUMGOOVH1YAB71","A3POD149IG0DIW","3BDORL6HKKZHMTYWD6BFF6WBDQ9CRF","","null","<img src=""img/land6.png"" style=""width:200px; border:14px solid green;"">","null","","","","","","","","","",""
"","image-keyboard-response","22","87586","0.0-22.0","3U4J9857OFXQGPK5HUMGOOVH1YAB71","A3POD149IG0DIW","3BDORL6HKKZHMTYWD6BFF6WBDQ9CRF","","739.1999999992549","img/land3.png","75","743.0999999996275","2","0","1","2","1,0.5,0.5,0.5,1,0.5,0.5,0.5,1","1,0.5,0.5,0.5,1,0.5,0.5,0.5,1","1","",""
"","html-keyboard-response","23","87896","0.0-23.0","3U4J9857OFXQGPK5HUMGOOVH1YAB71","A3POD149IG0DIW","3BDORL6HKKZHMTYWD6BFF6WBDQ9CRF","","null","<img src=""img/land3.png"" style=""width:200px;border:14px solid red;"">","null","","","","","","","","","",""
"","image-keyboard-response","24","89900","0.0-24.0","3U4J9857OFXQGPK5HUMGOOVH1YAB71","A3POD149IG0DIW","3BDORL6HKKZHMTYWD6BFF6WBDQ9CRF","","","img/land2.png","","2003.8999999985099","-1","0","3","2","1,0.5,0.5,0.5,1,0.5,0.5,0.5,1","1,0.5,0.5,0.5,1,0.5,0.5,0.5,1","1","",""
"","html-keyboard-response","25","90204","0.0-25.0","3U4J9857OFXQGPK5HUMGOOVH1YAB71","A3POD149IG0DIW","3BDORL6HKKZHMTYWD6BFF6WBDQ9CRF","","null","<img src=""img/land2.png"" style=""width:200px;border:14px solid red;"">","null","","","","","","","","","",""
"","image-keyboard-response","26","90944","0.0-26.0","3U4J9857OFXQGPK5HUMGOOVH1YAB71","A3POD149IG0DIW","3BDORL6HKKZHMTYWD6BFF6WBDQ9CRF","","735","img/land3.png","75","738.5","2","1","1","2","1,0.5,0.5,0.5,1,0.5,0.5,0.5,1","1,0.5,0.5,0.5,1,0.5,0.5,0.5,1","1","",""
"","html-keyboard-response","27","91248","0.0-27.0","3U4J9857OFXQGPK5HUMGOOVH1YAB71","A3POD149IG0DIW","3BDORL6HKKZHMTYWD6BFF6WBDQ9CRF","","null","<img src=""img/land3.png"" style=""width:200px; border:14px solid green;"">","null","","","","","","","","","",""
"","image-keyboard-response","28","92336","0.0-28.0","3U4J9857OFXQGPK5HUMGOOVH1YAB71","A3POD149IG0DIW","3BDORL6HKKZHMTYWD6BFF6WBDQ9CRF","","1081.199999999255","img/land2.png","76","1086.9000000003725","3","1","3","2","1,0.5,0.5,0.5,1,0.5,0.5,0.5,1","1,0.5,0.5,0.5,1,0.5,0.5,0.5,1","1","",""
"","html-keyboard-response","29","92639","0.0-29.0","3U4J9857OFXQGPK5HUMGOOVH1YAB71","A3POD149IG0DIW","3BDORL6HKKZHMTYWD6BFF6WBDQ9CRF","","null","<img src=""img/land2.png"" style=""width:200px; border:14px solid green;"">","null","","","","","","","","","",""
"","image-keyboard-response","30","94298","0.0-30.0","3U4J9857OFXQGPK5HUMGOOVH1YAB71","A3POD149IG0DIW","3BDORL6HKKZHMTYWD6BFF6WBDQ9CRF","","1655.7999999988824","img/land3.png","75","1658.5999999996275","2","1","1","2","1,0.5,0.5,0.5,1,0.5,0.5,0.5,1","1,0.5,0.5,0.5,1,0.5,0.5,0.5,1","1","",""
"","html-keyboard-response","31","94604","0.0-31.0","3U4J9857OFXQGPK5HUMGOOVH1YAB71","A3POD149IG0DIW","3BDORL6HKKZHMTYWD6BFF6WBDQ9CRF","","null","<img src=""img/land3.png"" style=""width:200px; border:14px solid green;"">","null","","","","","","","","","",""
"","image-keyboard-response","32","95631","0.0-32.0","3U4J9857OFXQGPK5HUMGOOVH1YAB71","A3POD149IG0DIW","3BDORL6HKKZHMTYWD6BFF6WBDQ9CRF","","1020.8000000007451","img/land2.png","76","1026.0999999996275","3","1","3","2","1,0.5,0.5,0.5,1,0.5,0.5,0.5,1","1,0.5,0.5,0.5,1,0.5,0.5,0.5,1","1","",""
"","html-keyboard-response","33","95935","0.0-33.0","3U4J9857OFXQGPK5HUMGOOVH1YAB71","A3POD149IG0DIW","3BDORL6HKKZHMTYWD6BFF6WBDQ9CRF","","null","<img src=""img/land2.png"" style=""width:200px; border:14px solid green;"">","null","","","","","","","","","",""
"","image-keyboard-response","34","97525","0.0-34.0","3U4J9857OFXQGPK5HUMGOOVH1YAB71","A3POD149IG0DIW","3BDORL6HKKZHMTYWD6BFF6WBDQ9CRF","","1587.199999999255","img/land3.png","75","1590.300000000745","2","1","1","2","1,0.5,0.5,0.5,1,0.5,0.5,0.5,1","1,0.5,0.5,0.5,1,0.5,0.5,0.5,1","1","",""
"","html-keyboard-response","35","97831","0.0-35.0","3U4J9857OFXQGPK5HUMGOOVH1YAB71","A3POD149IG0DIW","3BDORL6HKKZHMTYWD6BFF6WBDQ9CRF","","null","<img src=""img/land3.png"" style=""width:200px; border:14px solid green;"">","null","","","","","","","","","",""
"","image-keyboard-response","36","98727","0.0-36.0","3U4J9857OFXQGPK5HUMGOOVH1YAB71","A3POD149IG0DIW","3BDORL6HKKZHMTYWD6BFF6WBDQ9CRF","","892.4000000003725","img/land2.png","76","895.1999999992549","3","1","3","2","1,0.5,0.5,0.5,1,0.5,0.5,0.5,1","1,0.5,0.5,0.5,1,0.5,0.5,0.5,1","1","",""
"","html-keyboard-response","37","99031","0.0-37.0","3U4J9857OFXQGPK5HUMGOOVH1YAB71","A3POD149IG0DIW","3BDORL6HKKZHMTYWD6BFF6WBDQ9CRF","","null","<img src=""img/land2.png"" style=""width:200px; border:14px solid green;"">","null","","","","","","","","","",""
"","image-keyboard-response","38","100291","0.0-38.0","3U4J9857OFXQGPK5HUMGOOVH1YAB71","A3POD149IG0DIW","3BDORL6HKKZHMTYWD6BFF6WBDQ9CRF","","1256.9000000003725","img/land3.png","76","1259.7999999988824","3","1","1","2","1,0.5,0.5,0.5,1,0.5,0.5,0.5,1","1,0.5,0.5,0.5,1,0.5,0.5,0.5,1","1","",""
"","html-keyboard-response","39","100597","0.0-39.0","3U4J9857OFXQGPK5HUMGOOVH1YAB71","A3POD149IG0DIW","3BDORL6HKKZHMTYWD6BFF6WBDQ9CRF","","null","<img src=""img/land3.png"" style=""width:200px; border:14px solid green;"">","null","","","","","","","","","",""
"","image-keyboard-response","40","101452","0.0-40.0","3U4J9857OFXQGPK5HUMGOOVH1YAB71","A3POD149IG0DIW","3BDORL6HKKZHMTYWD6BFF6WBDQ9CRF","","846.1999999992549","img/land3.png","75","854.3000000007451","2","1","1","2","1,0.5,0.5,0.5,1,0.5,0.5,0.5,1","1,0.5,0.5,0.5,1,0.5,0.5,0.5,1","1","",""
"","html-keyboard-response","41","101760","0.0-41.0","3U4J9857OFXQGPK5HUMGOOVH1YAB71","A3POD149IG0DIW","3BDORL6HKKZHMTYWD6BFF6WBDQ9CRF","","null","<img src=""img/land3.png"" style=""width:200px; border:14px solid green;"">","null","","","","","","","","","",""
"","image-keyboard-response","42","103769","0.0-42.0","3U4J9857OFXQGPK5HUMGOOVH1YAB71","A3POD149IG0DIW","3BDORL6HKKZHMTYWD6BFF6WBDQ9CRF","","","img/land2.png","","2006.9000000003725","-1","0","3","2","1,0.5,0.5,0.5,1,0.5,0.5,0.5,1","1,0.5,0.5,0.5,1,0.5,0.5,0.5,1","1","",""
"","html-keyboard-response","43","104076","0.0-43.0","3U4J9857OFXQGPK5HUMGOOVH1YAB71","A3POD149IG0DIW","3BDORL6HKKZHMTYWD6BFF6WBDQ9CRF","","null","<img src=""img/land2.png"" style=""width:200px;border:14px solid red;"">","null","","","","","","","","","",""
"","image-keyboard-response","44","104589","0.0-44.0","3U4J9857OFXQGPK5HUMGOOVH1YAB71","A3POD149IG0DIW","3BDORL6HKKZHMTYWD6BFF6WBDQ9CRF","","504.59999999962747","img/land2.png","75","512.4000000003725","2","0","3","2","1,0.5,0.5,0.5,1,0.5,0.5,0.5,1","1,0.5,0.5,0.5,1,0.5,0.5,0.5,1","1","",""
"","html-keyboard-response","45","104897","0.0-45.0","3U4J9857OFXQGPK5HUMGOOVH1YAB71","A3POD149IG0DIW","3BDORL6HKKZHMTYWD6BFF6WBDQ9CRF","","null","<img src=""img/land2.png"" style=""width:200px;border:14px solid red;"">","null","","","","","","","","","",""
"","image-keyboard-response","46","106181","0.0-46.0","3U4J9857OFXQGPK5HUMGOOVH1YAB71","A3POD149IG0DIW","3BDORL6HKKZHMTYWD6BFF6WBDQ9CRF","","1276.300000000745","img/land2.png","75","1282.199999999255","2","1","3","2","1,0.5,0.5,0.5,1,0.5,0.5,0.5,1","1,0.5,0.5,0.5,1,0.5,0.5,0.5,1","1","",""
"","html-keyboard-response","47","106488","0.0-47.0","3U4J9857OFXQGPK5HUMGOOVH1YAB71","A3POD149IG0DIW","3BDORL6HKKZHMTYWD6BFF6WBDQ9CRF","","null","<img src=""img/land2.png"" style=""width:200px; border:14px solid green;"">","null","","","","","","","","","",""
"","image-keyboard-response","48","107637","0.0-48.0","3U4J9857OFXQGPK5HUMGOOVH1YAB71","A3POD149IG0DIW","3BDORL6HKKZHMTYWD6BFF6WBDQ9CRF","","1145.5","img/land6.png","75","1148.300000000745","2","1","2","2","1,0.5,0.5,0.5,1,0.5,0.5,0.5,1","1,0.5,0.5,0.5,1,0.5,0.5,0.5,1","1","",""
"","html-keyboard-response","49","107944","0.0-49.0","3U4J9857OFXQGPK5HUMGOOVH1YAB71","A3POD149IG0DIW","3BDORL6HKKZHMTYWD6BFF6WBDQ9CRF","","null","<img src=""img/land6.png"" style=""width:200px; border:14px solid green;"">","null","","","","","","","","","",""
"","image-keyboard-response","50","109252","0.0-50.0","3U4J9857OFXQGPK5HUMGOOVH1YAB71","A3POD149IG0DIW","3BDORL6HKKZHMTYWD6BFF6WBDQ9CRF","","1296.7000000011176","img/land6.png","75","1305.9000000003725","2","1","2","2","1,0.5,0.5,0.5,1,0.5,0.5,0.5,1","1,0.5,0.5,0.5,1,0.5,0.5,0.5,1","1","",""
"","html-keyboard-response","51","109559","0.0-51.0","3U4J9857OFXQGPK5HUMGOOVH1YAB71","A3POD149IG0DIW","3BDORL6HKKZHMTYWD6BFF6WBDQ9CRF","","null","<img src=""img/land6.png"" style=""width:200px; border:14px solid green;"">","null","","","","","","","","","",""
"","image-keyboard-response","52","110739","0.0-52.0","3U4J9857OFXQGPK5HUMGOOVH1YAB71","A3POD149IG0DIW","3BDORL6HKKZHMTYWD6BFF6WBDQ9CRF","","1170.5","img/land3.png","75","1177.2000000011176","2","0","1","2","1,0.5,0.5,0.5,1,0.5,0.5,0.5,1","1,0.5,0.5,0.5,1,0.5,0.5,0.5,1","1","",""
"","html-keyboard-response","53","111050","0.0-53.0","3U4J9857OFXQGPK5HUMGOOVH1YAB71","A3POD149IG0DIW","3BDORL6HKKZHMTYWD6BFF6WBDQ9CRF","","null","<img src=""img/land3.png"" style=""width:200px;border:14px solid red;"">","null","","","","","","","","","",""
"","image-keyboard-response","54","112103","0.0-54.0","3U4J9857OFXQGPK5HUMGOOVH1YAB71","A3POD149IG0DIW","3BDORL6HKKZHMTYWD6BFF6WBDQ9CRF","","1045.4000000003725","img/land6.png","76","1051.9000000003725","3","0","2","2","1,0.5,0.5,0.5,1,0.5,0.5,0.5,1","1,0.5,0.5,0.5,1,0.5,0.5,0.5,1","1","",""
"","html-keyboard-response","55","112409","0.0-55.0","3U4J9857OFXQGPK5HUMGOOVH1YAB71","A3POD149IG0DIW","3BDORL6HKKZHMTYWD6BFF6WBDQ9CRF","","null","<img src=""img/land6.png"" style=""width:200px;border:14px solid red;"">","null","","","","","","","","","",""
"","image-keyboard-response","56","112785","0.0-56.0","3U4J9857OFXQGPK5HUMGOOVH1YAB71","A3POD149IG0DIW","3BDORL6HKKZHMTYWD6BFF6WBDQ9CRF","","363.69999999925494","img/land3.png","75","371.7999999988824","2","0","1","2","1,0.5,0.5,0.5,1,0.5,0.5,0.5,1","1,0.5,0.5,0.5,1,0.5,0.5,0.5,1","1","",""
"","html-keyboard-response","57","113093","0.0-57.0","3U4J9857OFXQGPK5HUMGOOVH1YAB71","A3POD149IG0DIW","3BDORL6HKKZHMTYWD6BFF6WBDQ9CRF","","null","<img src=""img/land3.png"" style=""width:200px;border:14px solid red;"">","null","","","","","","","","","",""
"","image-keyboard-response","58","114090","0.0-58.0","3U4J9857OFXQGPK5HUMGOOVH1YAB71","A3POD149IG0DIW","3BDORL6HKKZHMTYWD6BFF6WBDQ9CRF","","990.9000000003725","img/land3.png","76","996","3","1","1","2","1,0.5,0.5,0.5,1,0.5,0.5,0.5,1","1,0.5,0.5,0.5,1,0.5,0.5,0.5,1","1","",""
"","html-keyboard-response","59","114397","0.0-59.0","3U4J9857OFXQGPK5HUMGOOVH1YAB71","A3POD149IG0DIW","3BDORL6HKKZHMTYWD6BFF6WBDQ9CRF","","null","<img src=""img/land3.png"" style=""width:200px; border:14px solid green;"">","null","","","","","","","","","",""
"","image-keyboard-response","60","115513","0.0-60.0","3U4J9857OFXQGPK5HUMGOOVH1YAB71","A3POD149IG0DIW","3BDORL6HKKZHMTYWD6BFF6WBDQ9CRF","","1108.300000000745","img/land3.png","76","1113.5","3","1","1","2","1,0.5,0.5,0.5,1,0.5,0.5,0.5,1","1,0.5,0.5,0.5,1,0.5,0.5,0.5,1","1","",""
"","html-keyboard-response","61","115818","0.0-61.0","3U4J9857OFXQGPK5HUMGOOVH1YAB71","A3POD149IG0DIW","3BDORL6HKKZHMTYWD6BFF6WBDQ9CRF","","null","<img src=""img/land3.png"" style=""width:200px; border:14px solid green;"">","null","","","","","","","","","",""
"","image-keyboard-response","62","116464","0.0-62.0","3U4J9857OFXQGPK5HUMGOOVH1YAB71","A3POD149IG0DIW","3BDORL6HKKZHMTYWD6BFF6WBDQ9CRF","","638.5","img/land3.png","76","644.3999999985099","3","1","1","2","1,0.5,0.5,0.5,1,0.5,0.5,0.5,1","1,0.5,0.5,0.5,1,0.5,0.5,0.5,1","1","",""
"","html-keyboard-response","63","116772","0.0-63.0","3U4J9857OFXQGPK5HUMGOOVH1YAB71","A3POD149IG0DIW","3BDORL6HKKZHMTYWD6BFF6WBDQ9CRF","","null","<img src=""img/land3.png"" style=""width:200px; border:14px solid green;"">","null","","","","","","","","","",""
"","image-keyboard-response","64","117233","0.0-64.0","3U4J9857OFXQGPK5HUMGOOVH1YAB71","A3POD149IG0DIW","3BDORL6HKKZHMTYWD6BFF6WBDQ9CRF","","451.2000000011176","img/land3.png","76","458","3","0","1","2","1,0.5,0.5,0.5,1,0.5,0.5,0.5,1","1,0.5,0.5,0.5,1,0.5,0.5,0.5,1","1","",""
"","html-keyboard-response","65","117539","0.0-65.0","3U4J9857OFXQGPK5HUMGOOVH1YAB71","A3POD149IG0DIW","3BDORL6HKKZHMTYWD6BFF6WBDQ9CRF","","null","<img src=""img/land3.png"" style=""width:200px;border:14px solid red;"">","null","","","","","","","","","",""
"","image-keyboard-response","66","119383","0.0-66.0","3U4J9857OFXQGPK5HUMGOOVH1YAB71","A3POD149IG0DIW","3BDORL6HKKZHMTYWD6BFF6WBDQ9CRF","","1836","img/land2.png","75","1842.699999999255","2","1","3","2","1,0.5,0.5,0.5,1,0.5,0.5,0.5,1","1,0.5,0.5,0.5,1,0.5,0.5,0.5,1","1","",""
"","html-keyboard-response","67","119688","0.0-67.0","3U4J9857OFXQGPK5HUMGOOVH1YAB71","A3POD149IG0DIW","3BDORL6HKKZHMTYWD6BFF6WBDQ9CRF","","null","<img src=""img/land2.png"" style=""width:200px; border:14px solid green;"">","null","","","","","","","","","",""
"","image-keyboard-response","68","121334","0.0-68.0","3U4J9857OFXQGPK5HUMGOOVH1YAB71","A3POD149IG0DIW","3BDORL6HKKZHMTYWD6BFF6WBDQ9CRF","","1638.699999999255","img/land3.png","75","1647.699999999255","2","0","1","2","1,0.5,0.5,0.5,1,0.5,0.5,0.5,1","1,0.5,0.5,0.5,1,0.5,0.5,0.5,1","1","",""
"","html-keyboard-response","69","121643","0.0-69.0","3U4J9857OFXQGPK5HUMGOOVH1YAB71","A3POD149IG0DIW","3BDORL6HKKZHMTYWD6BFF6WBDQ9CRF","","null","<img src=""img/land3.png"" style=""width:200px;border:14px solid red;"">","null","","","","","","","","","",""
"","image-keyboard-response","70","121870","0.0-70.0","3U4J9857OFXQGPK5HUMGOOVH1YAB71","A3POD149IG0DIW","3BDORL6HKKZHMTYWD6BFF6WBDQ9CRF","","221.09999999962747","img/land3.png","76","227.7999999988824","3","0","1","2","1,0.5,0.5,0.5,1,0.5,0.5,0.5,1","1,0.5,0.5,0.5,1,0.5,0.5,0.5,1","1","",""
"","html-keyboard-response","71","122179","0.0-71.0","3U4J9857OFXQGPK5HUMGOOVH1YAB71","A3POD149IG0DIW","3BDORL6HKKZHMTYWD6BFF6WBDQ9CRF","","null","<img src=""img/land3.png"" style=""width:200px;border:14px solid red;"">","null","","","","","","","","","",""
"","image-keyboard-response","72","124188","0.0-72.0","3U4J9857OFXQGPK5HUMGOOVH1YAB71","A3POD149IG0DIW","3BDORL6HKKZHMTYWD6BFF6WBDQ9CRF","","","img/land6.png","","2006","-1","0","2","2","1,0.5,0.5,0.5,1,0.5,0.5,0.5,1","1,0.5,0.5,0.5,1,0.5,0.5,0.5,1","1","",""
"","html-keyboard-response","73","124497","0.0-73.0","3U4J9857OFXQGPK5HUMGOOVH1YAB71","A3POD149IG0DIW","3BDORL6HKKZHMTYWD6BFF6WBDQ9CRF","","null","<img src=""img/land6.png"" style=""width:200px;border:14px solid red;"">","null","","","","","","","","","",""
"","image-keyboard-response","74","125334","0.0-74.0","3U4J9857OFXQGPK5HUMGOOVH1YAB71","A3POD149IG0DIW","3BDORL6HKKZHMTYWD6BFF6WBDQ9CRF","","827.4000000003725","img/land3.png","75","835.1999999992549","2","1","1","2","1,0.5,0.5,0.5,1,0.5,0.5,0.5,1","1,0.5,0.5,0.5,1,0.5,0.5,0.5,1","1","",""
"","html-keyboard-response","75","125641","0.0-75.0","3U4J9857OFXQGPK5HUMGOOVH1YAB71","A3POD149IG0DIW","3BDORL6HKKZHMTYWD6BFF6WBDQ9CRF","","null","<img src=""img/land3.png"" style=""width:200px; border:14px solid green;"">","null","","","","","","","","","",""
"","image-keyboard-response","76","126078","0.0-76.0","3U4J9857OFXQGPK5HUMGOOVH1YAB71","A3POD149IG0DIW","3BDORL6HKKZHMTYWD6BFF6WBDQ9CRF","","429.2000000011176","img/land3.png","76","434.90000000037253","3","0","1","2","1,0.5,0.5,0.5,1,0.5,0.5,0.5,1","1,0.5,0.5,0.5,1,0.5,0.5,0.5,1","1","",""
"","html-keyboard-response","77","126385","0.0-77.0","3U4J9857OFXQGPK5HUMGOOVH1YAB71","A3POD149IG0DIW","3BDORL6HKKZHMTYWD6BFF6WBDQ9CRF","","null","<img src=""img/land3.png"" style=""width:200px;border:14px solid red;"">","null","","","","","","","","","",""
"","image-keyboard-response","78","127183","0.0-78.0","3U4J9857OFXQGPK5HUMGOOVH1YAB71","A3POD149IG0DIW","3BDORL6HKKZHMTYWD6BFF6WBDQ9CRF","","787.3000000007451","img/land3.png","76","796.3000000007451","3","0","1","2","1,0.5,0.5,0.5,1,0.5,0.5,0.5,1","1,0.5,0.5,0.5,1,0.5,0.5,0.5,1","1","",""
"","html-keyboard-response","79","127488","0.0-79.0","3U4J9857OFXQGPK5HUMGOOVH1YAB71","A3POD149IG0DIW","3BDORL6HKKZHMTYWD6BFF6WBDQ9CRF","","null","<img src=""img/land3.png"" style=""width:200px;border:14px solid red;"">","null","","","","","","","","","",""
"","image-keyboard-response","80","128187","0.0-80.0","3U4J9857OFXQGPK5HUMGOOVH1YAB71","A3POD149IG0DIW","3BDORL6HKKZHMTYWD6BFF6WBDQ9CRF","","685.7999999988824","img/land3.png","76","698","3","0","1","2","1,0.5,0.5,0.5,1,0.5,0.5,0.5,1","1,0.5,0.5,0.5,1,0.5,0.5,0.5,1","1","",""
"","html-keyboard-response","81","128493","0.0-81.0","3U4J9857OFXQGPK5HUMGOOVH1YAB71","A3POD149IG0DIW","3BDORL6HKKZHMTYWD6BFF6WBDQ9CRF","","null","<img src=""img/land3.png"" style=""width:200px;border:14px solid red;"">","null","","","","","","","","","",""
"","image-keyboard-response","82","128933","0.0-82.0","3U4J9857OFXQGPK5HUMGOOVH1YAB71","A3POD149IG0DIW","3BDORL6HKKZHMTYWD6BFF6WBDQ9CRF","","433.7000000011176","img/land3.png","75","439.40000000037253","2","1","1","2","1,0.5,0.5,0.5,1,0.5,0.5,0.5,1","1,0.5,0.5,0.5,1,0.5,0.5,0.5,1","1","",""
"","html-keyboard-response","83","129240","0.0-83.0","3U4J9857OFXQGPK5HUMGOOVH1YAB71","A3POD149IG0DIW","3BDORL6HKKZHMTYWD6BFF6WBDQ9CRF","","null","<img src=""img/land3.png"" style=""width:200px; border:14px solid green;"">","null","","","","","","","","","",""
"","image-keyboard-response","84","131198","0.0-84.0","3U4J9857OFXQGPK5HUMGOOVH1YAB71","A3POD149IG0DIW","3BDORL6HKKZHMTYWD6BFF6WBDQ9CRF","","1950.699999999255","img/land6.png","75","1956.699999999255","2","1","2","2","1,0.5,0.5,0.5,1,0.5,0.5,0.5,1","1,0.5,0.5,0.5,1,0.5,0.5,0.5,1","1","",""
"","html-keyboard-response","85","131508","0.0-85.0","3U4J9857OFXQGPK5HUMGOOVH1YAB71","A3POD149IG0DIW","3BDORL6HKKZHMTYWD6BFF6WBDQ9CRF","","null","<img src=""img/land6.png"" style=""width:200px; border:14px solid green;"">","null","","","","","","","","","",""
"","image-keyboard-response","86","132777","0.0-86.0","3U4J9857OFXQGPK5HUMGOOVH1YAB71","A3POD149IG0DIW","3BDORL6HKKZHMTYWD6BFF6WBDQ9CRF","","1260.7999999988824","img/land3.png","75","1268.199999999255","2","1","1","2","1,0.5,0.5,0.5,1,0.5,0.5,0.5,1","1,0.5,0.5,0.5,1,0.5,0.5,0.5,1","1","",""
"","html-keyboard-response","87","133084","0.0-87.0","3U4J9857OFXQGPK5HUMGOOVH1YAB71","A3POD149IG0DIW","3BDORL6HKKZHMTYWD6BFF6WBDQ9CRF","","null","<img src=""img/land3.png"" style=""width:200px; border:14px solid green;"">","null","","","","","","","","","",""
"","image-keyboard-response","88","134072","0.0-88.0","3U4J9857OFXQGPK5HUMGOOVH1YAB71","A3POD149IG0DIW","3BDORL6HKKZHMTYWD6BFF6WBDQ9CRF","","978.8000000007451","img/land2.png","75","986.3000000007451","2","0","3","2","1,0.5,0.5,0.5,1,0.5,0.5,0.5,1","1,0.5,0.5,0.5,1,0.5,0.5,0.5,1","1","",""
"","html-keyboard-response","89","134382","0.0-89.0","3U4J9857OFXQGPK5HUMGOOVH1YAB71","A3POD149IG0DIW","3BDORL6HKKZHMTYWD6BFF6WBDQ9CRF","","null","<img src=""img/land2.png"" style=""width:200px;border:14px solid red;"">","null","","","","","","","","","",""
"","image-keyboard-response","90","135375","0.0-90.0","3U4J9857OFXQGPK5HUMGOOVH1YAB71","A3POD149IG0DIW","3BDORL6HKKZHMTYWD6BFF6WBDQ9CRF","","986.6000000014901","img/land2.png","75","992.5999999996275","2","0","3","2","1,0.5,0.5,0.5,1,0.5,0.5,0.5,1","1,0.5,0.5,0.5,1,0.5,0.5,0.5,1","1","",""
"","html-keyboard-response","91","135680","0.0-91.0","3U4J9857OFXQGPK5HUMGOOVH1YAB71","A3POD149IG0DIW","3BDORL6HKKZHMTYWD6BFF6WBDQ9CRF","","null","<img src=""img/land2.png"" style=""width:200px;border:14px solid red;"">","null","","","","","","","","","",""
"","image-keyboard-response","92","136793","0.0-92.0","3U4J9857OFXQGPK5HUMGOOVH1YAB71","A3POD149IG0DIW","3BDORL6HKKZHMTYWD6BFF6WBDQ9CRF","","1106.5999999996275","img/land6.png","75","1111","2","1","2","2","1,0.5,0.5,0.5,1,0.5,0.5,0.5,1","1,0.5,0.5,0.5,1,0.5,0.5,0.5,1","1","",""
"","html-keyboard-response","93","137099","0.0-93.0","3U4J9857OFXQGPK5HUMGOOVH1YAB71","A3POD149IG0DIW","3BDORL6HKKZHMTYWD6BFF6WBDQ9CRF","","null","<img src=""img/land6.png"" style=""width:200px; border:14px solid green;"">","null","","","","","","","","","",""
"","image-keyboard-response","94","137973","0.0-94.0","3U4J9857OFXQGPK5HUMGOOVH1YAB71","A3POD149IG0DIW","3BDORL6HKKZHMTYWD6BFF6WBDQ9CRF","","865.6000000014901","img/land3.png","76","872.8999999985099","3","1","1","2","1,0.5,0.5,0.5,1,0.5,0.5,0.5,1","1,0.5,0.5,0.5,1,0.5,0.5,0.5,1","1","",""
"","html-keyboard-response","95","138280","0.0-95.0","3U4J9857OFXQGPK5HUMGOOVH1YAB71","A3POD149IG0DIW","3BDORL6HKKZHMTYWD6BFF6WBDQ9CRF","","null","<img src=""img/land3.png"" style=""width:200px; border:14px solid green;"">","null","","","","","","","","","",""
"","image-keyboard-response","96","139310","0.0-96.0","3U4J9857OFXQGPK5HUMGOOVH1YAB71","A3POD149IG0DIW","3BDORL6HKKZHMTYWD6BFF6WBDQ9CRF","","1025.7000000011176","img/land6.png","75","1029.4000000003725","2","1","2","2","1,0.5,0.5,0.5,1,0.5,0.5,0.5,1","1,0.5,0.5,0.5,1,0.5,0.5,0.5,1","1","",""
"","html-keyboard-response","97","139617","0.0-97.0","3U4J9857OFXQGPK5HUMGOOVH1YAB71","A3POD149IG0DIW","3BDORL6HKKZHMTYWD6BFF6WBDQ9CRF","","null","<img src=""img/land6.png"" style=""width:200px; border:14px solid green;"">","null","","","","","","","","","",""
"","image-keyboard-response","98","140538","0.0-98.0","3U4J9857OFXQGPK5HUMGOOVH1YAB71","A3POD149IG0DIW","3BDORL6HKKZHMTYWD6BFF6WBDQ9CRF","","908.5999999996275","img/land3.png","76","918.4000000003725","3","0","1","2","1,0.5,0.5,0.5,1,0.5,0.5,0.5,1","1,0.5,0.5,0.5,1,0.5,0.5,0.5,1","1","",""
"","html-keyboard-response","99","140845","0.0-99.0","3U4J9857OFXQGPK5HUMGOOVH1YAB71","A3POD149IG0DIW","3BDORL6HKKZHMTYWD6BFF6WBDQ9CRF","","null","<img src=""img/land3.png"" style=""width:200px;border:14px solid red;"">","null","","","","","","","","","",""
"","image-keyboard-response","100","141286","0.0-100.0","3U4J9857OFXQGPK5HUMGOOVH1YAB71","A3POD149IG0DIW","3BDORL6HKKZHMTYWD6BFF6WBDQ9CRF","","435.09999999962747","img/land3.png","75","439.90000000037253","2","0","1","2","1,0.5,0.5,0.5,1,0.5,0.5,0.5,1","1,0.5,0.5,0.5,1,0.5,0.5,0.5,1","1","",""
"","html-keyboard-response","101","141593","0.0-101.0","3U4J9857OFXQGPK5HUMGOOVH1YAB71","A3POD149IG0DIW","3BDORL6HKKZHMTYWD6BFF6WBDQ9CRF","","null","<img src=""img/land3.png"" style=""width:200px;border:14px solid red;"">","null","","","","","","","","","",""
"","image-keyboard-response","102","142767","0.0-102.0","3U4J9857OFXQGPK5HUMGOOVH1YAB71","A3POD149IG0DIW","3BDORL6HKKZHMTYWD6BFF6WBDQ9CRF","","1167.800000000745","img/land6.png","75","1172.9000000003725","2","1","2","2","1,0.5,0.5,0.5,1,0.5,0.5,0.5,1","1,0.5,0.5,0.5,1,0.5,0.5,0.5,1","1","",""
"","html-keyboard-response","103","143073","0.0-103.0","3U4J9857OFXQGPK5HUMGOOVH1YAB71","A3POD149IG0DIW","3BDORL6HKKZHMTYWD6BFF6WBDQ9CRF","","null","<img src=""img/land6.png"" style=""width:200px; border:14px solid green;"">","null","","","","","","","","","",""
"","image-keyboard-response","104","144133","0.0-104.0","3U4J9857OFXQGPK5HUMGOOVH1YAB71","A3POD149IG0DIW","3BDORL6HKKZHMTYWD6BFF6WBDQ9CRF","","1052.7999999988824","img/land3.png","75","1058.800000000745","2","1","1","2","1,0.5,0.5,0.5,1,0.5,0.5,0.5,1","1,0.5,0.5,0.5,1,0.5,0.5,0.5,1","1","",""
"","html-keyboard-response","105","144441","0.0-105.0","3U4J9857OFXQGPK5HUMGOOVH1YAB71","A3POD149IG0DIW","3BDORL6HKKZHMTYWD6BFF6WBDQ9CRF","","null","<img src=""img/land3.png"" style=""width:200px; border:14px solid green;"">","null","","","","","","","","","",""
"","image-keyboard-response","106","144792","0.0-106.0","3U4J9857OFXQGPK5HUMGOOVH1YAB71","A3POD149IG0DIW","3BDORL6HKKZHMTYWD6BFF6WBDQ9CRF","","344","img/land3.png","76","350.19999999925494","3","0","1","2","1,0.5,0.5,0.5,1,0.5,0.5,0.5,1","1,0.5,0.5,0.5,1,0.5,0.5,0.5,1","1","",""
"","html-keyboard-response","107","145099","0.0-107.0","3U4J9857OFXQGPK5HUMGOOVH1YAB71","A3POD149IG0DIW","3BDORL6HKKZHMTYWD6BFF6WBDQ9CRF","","null","<img src=""img/land3.png"" style=""width:200px;border:14px solid red;"">","null","","","","","","","","","",""
"","image-keyboard-response","108","145762","0.0-108.0","3U4J9857OFXQGPK5HUMGOOVH1YAB71","A3POD149IG0DIW","3BDORL6HKKZHMTYWD6BFF6WBDQ9CRF","","655.8999999985099","img/land6.png","75","661.7000000011176","2","1","2","2","1,0.5,0.5,0.5,1,0.5,0.5,0.5,1","1,0.5,0.5,0.5,1,0.5,0.5,0.5,1","1","",""
"","html-keyboard-response","109","146073","0.0-109.0","3U4J9857OFXQGPK5HUMGOOVH1YAB71","A3POD149IG0DIW","3BDORL6HKKZHMTYWD6BFF6WBDQ9CRF","","null","<img src=""img/land6.png"" style=""width:200px; border:14px solid green;"">","null","","","","","","","","","",""
"","image-keyboard-response","110","147317","0.0-110.0","3U4J9857OFXQGPK5HUMGOOVH1YAB71","A3POD149IG0DIW","3BDORL6HKKZHMTYWD6BFF6WBDQ9CRF","","1235.2999999988824","img/land6.png","76","1243","3","1","2","2","1,0.5,0.5,0.5,1,0.5,0.5,0.5,1","1,0.5,0.5,0.5,1,0.5,0.5,0.5,1","1","",""
"","html-keyboard-response","111","147626","0.0-111.0","3U4J9857OFXQGPK5HUMGOOVH1YAB71","A3POD149IG0DIW","3BDORL6HKKZHMTYWD6BFF6WBDQ9CRF","","null","<img src=""img/land6.png"" style=""width:200px; border:14px solid green;"">","null","","","","","","","","","",""
"","image-keyboard-response","112","148411","0.0-112.0","3U4J9857OFXQGPK5HUMGOOVH1YAB71","A3POD149IG0DIW","3BDORL6HKKZHMTYWD6BFF6WBDQ9CRF","","777.6000000014901","img/land3.png","75","787","2","0","1","2","1,0.5,0.5,0.5,1,0.5,0.5,0.5,1","1,0.5,0.5,0.5,1,0.5,0.5,0.5,1","1","",""
"","html-keyboard-response","113","148721","0.0-113.0","3U4J9857OFXQGPK5HUMGOOVH1YAB71","A3POD149IG0DIW","3BDORL6HKKZHMTYWD6BFF6WBDQ9CRF","","null","<img src=""img/land3.png"" style=""width:200px;border:14px solid red;"">","null","","","","","","","","","",""
"","image-keyboard-response","114","149530","0.0-114.0","3U4J9857OFXQGPK5HUMGOOVH1YAB71","A3POD149IG0DIW","3BDORL6HKKZHMTYWD6BFF6WBDQ9CRF","","799.3999999985099","img/land3.png","76","807.6999999992549","3","1","1","2","1,0.5,0.5,0.5,1,0.5,0.5,0.5,1","1,0.5,0.5,0.5,1,0.5,0.5,0.5,1","1","",""
"","html-keyboard-response","115","149839","0.0-115.0","3U4J9857OFXQGPK5HUMGOOVH1YAB71","A3POD149IG0DIW","3BDORL6HKKZHMTYWD6BFF6WBDQ9CRF","","null","<img src=""img/land3.png"" style=""width:200px; border:14px solid green;"">","null","","","","","","","","","",""
"","image-keyboard-response","116","150700","0.0-116.0","3U4J9857OFXQGPK5HUMGOOVH1YAB71","A3POD149IG0DIW","3BDORL6HKKZHMTYWD6BFF6WBDQ9CRF","","852.6999999992549","img/land3.png","76","860.0999999996275","3","0","1","2","1,0.5,0.5,0.5,1,0.5,0.5,0.5,1","1,0.5,0.5,0.5,1,0.5,0.5,0.5,1","1","",""
"","html-keyboard-response","117","151009","0.0-117.0","3U4J9857OFXQGPK5HUMGOOVH1YAB71","A3POD149IG0DIW","3BDORL6HKKZHMTYWD6BFF6WBDQ9CRF","","null","<img src=""img/land3.png"" style=""width:200px;border:14px solid red;"">","null","","","","","","","","","",""
"","image-keyboard-response","118","151985","0.0-118.0","3U4J9857OFXQGPK5HUMGOOVH1YAB71","A3POD149IG0DIW","3BDORL6HKKZHMTYWD6BFF6WBDQ9CRF","","969","img/land3.png","76","974","3","0","1","2","1,0.5,0.5,0.5,1,0.5,0.5,0.5,1","1,0.5,0.5,0.5,1,0.5,0.5,0.5,1","1","",""
"","html-keyboard-response","119","152294","0.0-119.0","3U4J9857OFXQGPK5HUMGOOVH1YAB71","A3POD149IG0DIW","3BDORL6HKKZHMTYWD6BFF6WBDQ9CRF","","null","<img src=""img/land3.png"" style=""width:200px;border:14px solid red;"">","null","","","","","","","","","",""
"","image-keyboard-response","120","152827","0.0-120.0","3U4J9857OFXQGPK5HUMGOOVH1YAB71","A3POD149IG0DIW","3BDORL6HKKZHMTYWD6BFF6WBDQ9CRF","","522.5","img/land2.png","75","531","2","1","3","2","1,0.5,0.5,0.5,1,0.5,0.5,0.5,1","1,0.5,0.5,0.5,1,0.5,0.5,0.5,1","1","",""
"","html-keyboard-response","121","153136","0.0-121.0","3U4J9857OFXQGPK5HUMGOOVH1YAB71","A3POD149IG0DIW","3BDORL6HKKZHMTYWD6BFF6WBDQ9CRF","","null","<img src=""img/land2.png"" style=""width:200px; border:14px solid green;"">","null","","","","","","","","","",""
"","image-keyboard-response","122","153882","0.0-122.0","3U4J9857OFXQGPK5HUMGOOVH1YAB71","A3POD149IG0DIW","3BDORL6HKKZHMTYWD6BFF6WBDQ9CRF","","737","img/land3.png","75","744","2","1","1","2","1,0.5,0.5,0.5,1,0.5,0.5,0.5,1","1,0.5,0.5,0.5,1,0.5,0.5,0.5,1","1","",""
"","html-keyboard-response","123","154188","0.0-123.0","3U4J9857OFXQGPK5HUMGOOVH1YAB71","A3POD149IG0DIW","3BDORL6HKKZHMTYWD6BFF6WBDQ9CRF","","null","<img src=""img/land3.png"" style=""width:200px; border:14px solid green;"">","null","","","","","","","","","",""
"","image-keyboard-response","124","154597","0.0-124.0","3U4J9857OFXQGPK5HUMGOOVH1YAB71","A3POD149IG0DIW","3BDORL6HKKZHMTYWD6BFF6WBDQ9CRF","","402.5","img/land3.png","75","406.90000000037253","2","1","1","2","1,0.5,0.5,0.5,1,0.5,0.5,0.5,1","1,0.5,0.5,0.5,1,0.5,0.5,0.5,1","1","",""
"","html-keyboard-response","125","154902","0.0-125.0","3U4J9857OFXQGPK5HUMGOOVH1YAB71","A3POD149IG0DIW","3BDORL6HKKZHMTYWD6BFF6WBDQ9CRF","","null","<img src=""img/land3.png"" style=""width:200px; border:14px solid green;"">","null","","","","","","","","","",""
"","image-keyboard-response","126","155341","0.0-126.0","3U4J9857OFXQGPK5HUMGOOVH1YAB71","A3POD149IG0DIW","3BDORL6HKKZHMTYWD6BFF6WBDQ9CRF","","430.40000000037253","img/land3.png","75","438.2999999988824","2","1","1","2","1,0.5,0.5,0.5,1,0.5,0.5,0.5,1","1,0.5,0.5,0.5,1,0.5,0.5,0.5,1","1","",""
"","html-keyboard-response","127","155647","0.0-127.0","3U4J9857OFXQGPK5HUMGOOVH1YAB71","A3POD149IG0DIW","3BDORL6HKKZHMTYWD6BFF6WBDQ9CRF","","null","<img src=""img/land3.png"" style=""width:200px; border:14px solid green;"">","null","","","","","","","","","",""
"","image-keyboard-response","128","156457","0.0-128.0","3U4J9857OFXQGPK5HUMGOOVH1YAB71","A3POD149IG0DIW","3BDORL6HKKZHMTYWD6BFF6WBDQ9CRF","","801.9000000003725","img/land2.png","75","809.3000000007451","2","0","3","2","1,0.5,0.5,0.5,1,0.5,0.5,0.5,1","1,0.5,0.5,0.5,1,0.5,0.5,0.5,1","1","",""
"","html-keyboard-response","129","156765","0.0-129.0","3U4J9857OFXQGPK5HUMGOOVH1YAB71","A3POD149IG0DIW","3BDORL6HKKZHMTYWD6BFF6WBDQ9CRF","","null","<img src=""img/land2.png"" style=""width:200px;border:14px solid red;"">","null","","","","","","","","","",""
"","image-keyboard-response","130","157579","0.0-130.0","3U4J9857OFXQGPK5HUMGOOVH1YAB71","A3POD149IG0DIW","3BDORL6HKKZHMTYWD6BFF6WBDQ9CRF","","805.0999999996275","img/land3.png","75","812.5","2","1","1","2","1,0.5,0.5,0.5,1,0.5,0.5,0.5,1","1,0.5,0.5,0.5,1,0.5,0.5,0.5,1","1","",""
"","html-keyboard-response","131","157885","0.0-131.0","3U4J9857OFXQGPK5HUMGOOVH1YAB71","A3POD149IG0DIW","3BDORL6HKKZHMTYWD6BFF6WBDQ9CRF","","null","<img src=""img/land3.png"" style=""width:200px; border:14px solid green;"">","null","","","","","","","","","",""
"","image-keyboard-response","132","158607","0.0-132.0","3U4J9857OFXQGPK5HUMGOOVH1YAB71","A3POD149IG0DIW","3BDORL6HKKZHMTYWD6BFF6WBDQ9CRF","","715","img/land6.png","75","721","2","1","2","2","1,0.5,0.5,0.5,1,0.5,0.5,0.5,1","1,0.5,0.5,0.5,1,0.5,0.5,0.5,1","1","",""
"","html-keyboard-response","133","158914","0.0-133.0","3U4J9857OFXQGPK5HUMGOOVH1YAB71","A3POD149IG0DIW","3BDORL6HKKZHMTYWD6BFF6WBDQ9CRF","","null","<img src=""img/land6.png"" style=""width:200px; border:14px solid green;"">","null","","","","","","","","","",""
"","image-keyboard-response","134","159905","0.0-134.0","3U4J9857OFXQGPK5HUMGOOVH1YAB71","A3POD149IG0DIW","3BDORL6HKKZHMTYWD6BFF6WBDQ9CRF","","985.2000000011176","img/land3.png","75","990","2","0","1","2","1,0.5,0.5,0.5,1,0.5,0.5,0.5,1","1,0.5,0.5,0.5,1,0.5,0.5,0.5,1","1","",""
"","html-keyboard-response","135","160211","0.0-135.0","3U4J9857OFXQGPK5HUMGOOVH1YAB71","A3POD149IG0DIW","3BDORL6HKKZHMTYWD6BFF6WBDQ9CRF","","null","<img src=""img/land3.png"" style=""width:200px;border:14px solid red;"">","null","","","","","","","","","",""
"","image-keyboard-response","136","160656","0.0-136.0","3U4J9857OFXQGPK5HUMGOOVH1YAB71","A3POD149IG0DIW","3BDORL6HKKZHMTYWD6BFF6WBDQ9CRF","","435.19999999925494","img/land3.png","76","444.40000000037253","3","1","1","2","1,0.5,0.5,0.5,1,0.5,0.5,0.5,1","1,0.5,0.5,0.5,1,0.5,0.5,0.5,1","1","",""
"","html-keyboard-response","137","160966","0.0-137.0","3U4J9857OFXQGPK5HUMGOOVH1YAB71","A3POD149IG0DIW","3BDORL6HKKZHMTYWD6BFF6WBDQ9CRF","","null","<img src=""img/land3.png"" style=""width:200px; border:14px solid green;"">","null","","","","","","","","","",""
"","image-keyboard-response","138","161278","0.0-138.0","3U4J9857OFXQGPK5HUMGOOVH1YAB71","A3POD149IG0DIW","3BDORL6HKKZHMTYWD6BFF6WBDQ9CRF","","307.6000000014901","img/land3.png","76","310.90000000037253","3","0","1","2","1,0.5,0.5,0.5,1,0.5,0.5,0.5,1","1,0.5,0.5,0.5,1,0.5,0.5,0.5,1","1","",""
"","html-keyboard-response","139","161584","0.0-139.0","3U4J9857OFXQGPK5HUMGOOVH1YAB71","A3POD149IG0DIW","3BDORL6HKKZHMTYWD6BFF6WBDQ9CRF","","null","<img src=""img/land3.png"" style=""width:200px;border:14px solid red;"">","null","","","","","","","","","",""
"","image-keyboard-response","140","162159","0.0-140.0","3U4J9857OFXQGPK5HUMGOOVH1YAB71","A3POD149IG0DIW","3BDORL6HKKZHMTYWD6BFF6WBDQ9CRF","","567.0999999996275","img/land3.png","75","572.5999999996275","2","1","1","2","1,0.5,0.5,0.5,1,0.5,0.5,0.5,1","1,0.5,0.5,0.5,1,0.5,0.5,0.5,1","1","",""
"","html-keyboard-response","141","162465","0.0-141.0","3U4J9857OFXQGPK5HUMGOOVH1YAB71","A3POD149IG0DIW","3BDORL6HKKZHMTYWD6BFF6WBDQ9CRF","","null","<img src=""img/land3.png"" style=""width:200px; border:14px solid green;"">","null","","","","","","","","","",""
"","image-keyboard-response","142","163447","0.0-142.0","3U4J9857OFXQGPK5HUMGOOVH1YAB71","A3POD149IG0DIW","3BDORL6HKKZHMTYWD6BFF6WBDQ9CRF","","974.9000000003725","img/land6.png","75","980.0999999996275","2","1","2","2","1,0.5,0.5,0.5,1,0.5,0.5,0.5,1","1,0.5,0.5,0.5,1,0.5,0.5,0.5,1","1","",""
"","html-keyboard-response","143","163754","0.0-143.0","3U4J9857OFXQGPK5HUMGOOVH1YAB71","A3POD149IG0DIW","3BDORL6HKKZHMTYWD6BFF6WBDQ9CRF","","null","<img src=""img/land6.png"" style=""width:200px; border:14px solid green;"">","null","","","","","","","","","",""
"","image-keyboard-response","144","164733","0.0-144.0","3U4J9857OFXQGPK5HUMGOOVH1YAB71","A3POD149IG0DIW","3BDORL6HKKZHMTYWD6BFF6WBDQ9CRF","","970.1000000014901","img/land3.png","75","975.8000000007451","2","0","1","2","1,0.5,0.5,0.5,1,0.5,0.5,0.5,1","1,0.5,0.5,0.5,1,0.5,0.5,0.5,1","1","",""
"","html-keyboard-response","145","165042","0.0-145.0","3U4J9857OFXQGPK5HUMGOOVH1YAB71","A3POD149IG0DIW","3BDORL6HKKZHMTYWD6BFF6WBDQ9CRF","","null","<img src=""img/land3.png"" style=""width:200px;border:14px solid red;"">","null","","","","","","","","","",""
"","image-keyboard-response","146","165433","0.0-146.0","3U4J9857OFXQGPK5HUMGOOVH1YAB71","A3POD149IG0DIW","3BDORL6HKKZHMTYWD6BFF6WBDQ9CRF","","383.30000000074506","img/land3.png","76","390.40000000037253","3","1","1","2","1,0.5,0.5,0.5,1,0.5,0.5,0.5,1","1,0.5,0.5,0.5,1,0.5,0.5,0.5,1","1","",""
"","html-keyboard-response","147","165740","0.0-147.0","3U4J9857OFXQGPK5HUMGOOVH1YAB71","A3POD149IG0DIW","3BDORL6HKKZHMTYWD6BFF6WBDQ9CRF","","null","<img src=""img/land3.png"" style=""width:200px; border:14px solid green;"">","null","","","","","","","","","",""
"","image-keyboard-response","148","166060","0.0-148.0","3U4J9857OFXQGPK5HUMGOOVH1YAB71","A3POD149IG0DIW","3BDORL6HKKZHMTYWD6BFF6WBDQ9CRF","","313.40000000037253","img/land3.png","76","317.90000000037253","3","1","1","2","1,0.5,0.5,0.5,1,0.5,0.5,0.5,1","1,0.5,0.5,0.5,1,0.5,0.5,0.5,1","1","",""
"","html-keyboard-response","149","166369","0.0-149.0","3U4J9857OFXQGPK5HUMGOOVH1YAB71","A3POD149IG0DIW","3BDORL6HKKZHMTYWD6BFF6WBDQ9CRF","","null","<img src=""img/land3.png"" style=""width:200px; border:14px solid green;"">","null","","","","","","","","","",""
"","image-keyboard-response","150","167514","0.0-150.0","3U4J9857OFXQGPK5HUMGOOVH1YAB71","A3POD149IG0DIW","3BDORL6HKKZHMTYWD6BFF6WBDQ9CRF","","1137","img/land6.png","75","1143","2","1","2","2","1,0.5,0.5,0.5,1,0.5,0.5,0.5,1","1,0.5,0.5,0.5,1,0.5,0.5,0.5,1","1","",""
"","html-keyboard-response","151","167822","0.0-151.0","3U4J9857OFXQGPK5HUMGOOVH1YAB71","A3POD149IG0DIW","3BDORL6HKKZHMTYWD6BFF6WBDQ9CRF","","null","<img src=""img/land6.png"" style=""width:200px; border:14px solid green;"">","null","","","","","","","","","",""
"","image-keyboard-response","152","168671","0.0-152.0","3U4J9857OFXQGPK5HUMGOOVH1YAB71","A3POD149IG0DIW","3BDORL6HKKZHMTYWD6BFF6WBDQ9CRF","","841.1000000014901","img/land3.png","76","845.9000000003725","3","1","1","2","1,0.5,0.5,0.5,1,0.5,0.5,0.5,1","1,0.5,0.5,0.5,1,0.5,0.5,0.5,1","1","",""
"","html-keyboard-response","153","168977","0.0-153.0","3U4J9857OFXQGPK5HUMGOOVH1YAB71","A3POD149IG0DIW","3BDORL6HKKZHMTYWD6BFF6WBDQ9CRF","","null","<img src=""img/land3.png"" style=""width:200px; border:14px solid green;"">","null","","","","","","","","","",""
"","image-keyboard-response","154","169285","0.0-154.0","3U4J9857OFXQGPK5HUMGOOVH1YAB71","A3POD149IG0DIW","3BDORL6HKKZHMTYWD6BFF6WBDQ9CRF","","299.90000000037253","img/land2.png","76","306.69999999925494","3","1","3","2","1,0.5,0.5,0.5,1,0.5,0.5,0.5,1","1,0.5,0.5,0.5,1,0.5,0.5,0.5,1","1","",""
"","html-keyboard-response","155","169591","0.0-155.0","3U4J9857OFXQGPK5HUMGOOVH1YAB71","A3POD149IG0DIW","3BDORL6HKKZHMTYWD6BFF6WBDQ9CRF","","null","<img src=""img/land2.png"" style=""width:200px; border:14px solid green;"">","null","","","","","","","","","",""
"","image-keyboard-response","156","170470","0.0-156.0","3U4J9857OFXQGPK5HUMGOOVH1YAB71","A3POD149IG0DIW","3BDORL6HKKZHMTYWD6BFF6WBDQ9CRF","","872.5","img/land3.png","76","876.8999999985099","3","1","1","2","1,0.5,0.5,0.5,1,0.5,0.5,0.5,1","1,0.5,0.5,0.5,1,0.5,0.5,0.5,1","1","",""
"","html-keyboard-response","157","170776","0.0-157.0","3U4J9857OFXQGPK5HUMGOOVH1YAB71","A3POD149IG0DIW","3BDORL6HKKZHMTYWD6BFF6WBDQ9CRF","","null","<img src=""img/land3.png"" style=""width:200px; border:14px solid green;"">","null","","","","","","","","","",""
"","image-keyboard-response","158","171448","0.0-158.0","3U4J9857OFXQGPK5HUMGOOVH1YAB71","A3POD149IG0DIW","3BDORL6HKKZHMTYWD6BFF6WBDQ9CRF","","667.1999999992549","img/land2.png","76","671.8999999985099","3","1","3","2","1,0.5,0.5,0.5,1,0.5,0.5,0.5,1","1,0.5,0.5,0.5,1,0.5,0.5,0.5,1","1","",""
"","html-keyboard-response","159","171755","0.0-159.0","3U4J9857OFXQGPK5HUMGOOVH1YAB71","A3POD149IG0DIW","3BDORL6HKKZHMTYWD6BFF6WBDQ9CRF","","null","<img src=""img/land2.png"" style=""width:200px; border:14px solid green;"">","null","","","","","","","","","",""
"","image-keyboard-response","160","172381","0.0-160.0","3U4J9857OFXQGPK5HUMGOOVH1YAB71","A3POD149IG0DIW","3BDORL6HKKZHMTYWD6BFF6WBDQ9CRF","","618.2000000011176","img/land3.png","76","624.2000000011176","3","1","1","2","1,0.5,0.5,0.5,1,0.5,0.5,0.5,1","1,0.5,0.5,0.5,1,0.5,0.5,0.5,1","1","",""
"","html-keyboard-response","161","172686","0.0-161.0","3U4J9857OFXQGPK5HUMGOOVH1YAB71","A3POD149IG0DIW","3BDORL6HKKZHMTYWD6BFF6WBDQ9CRF","","null","<img src=""img/land3.png"" style=""width:200px; border:14px solid green;"">","null","","","","","","","","","",""
"","image-keyboard-response","162","173279","0.0-162.0","3U4J9857OFXQGPK5HUMGOOVH1YAB71","A3POD149IG0DIW","3BDORL6HKKZHMTYWD6BFF6WBDQ9CRF","","582.6999999992549","img/land6.png","76","590.1000000014901","3","1","2","2","1,0.5,0.5,0.5,1,0.5,0.5,0.5,1","1,0.5,0.5,0.5,1,0.5,0.5,0.5,1","1","",""
"","html-keyboard-response","163","173587","0.0-163.0","3U4J9857OFXQGPK5HUMGOOVH1YAB71","A3POD149IG0DIW","3BDORL6HKKZHMTYWD6BFF6WBDQ9CRF","","null","<img src=""img/land6.png"" style=""width:200px; border:14px solid green;"">","null","","","","","","","","","",""
"","image-keyboard-response","164","174268","0.0-164.0","3U4J9857OFXQGPK5HUMGOOVH1YAB71","A3POD149IG0DIW","3BDORL6HKKZHMTYWD6BFF6WBDQ9CRF","","673.4000000003725","img/land2.png","76","679.3000000007451","3","1","3","2","1,0.5,0.5,0.5,1,0.5,0.5,0.5,1","1,0.5,0.5,0.5,1,0.5,0.5,0.5,1","1","",""
"","html-keyboard-response","165","174574","0.0-165.0","3U4J9857OFXQGPK5HUMGOOVH1YAB71","A3POD149IG0DIW","3BDORL6HKKZHMTYWD6BFF6WBDQ9CRF","","null","<img src=""img/land2.png"" style=""width:200px; border:14px solid green;"">","null","","","","","","","","","",""
"","image-keyboard-response","166","175189","0.0-166.0","3U4J9857OFXQGPK5HUMGOOVH1YAB71","A3POD149IG0DIW","3BDORL6HKKZHMTYWD6BFF6WBDQ9CRF","","610.0999999996275","img/land6.png","76","615.6999999992549","3","0","2","2","1,0.5,0.5,0.5,1,0.5,0.5,0.5,1","1,0.5,0.5,0.5,1,0.5,0.5,0.5,1","1","",""
"","html-keyboard-response","167","175496","0.0-167.0","3U4J9857OFXQGPK5HUMGOOVH1YAB71","A3POD149IG0DIW","3BDORL6HKKZHMTYWD6BFF6WBDQ9CRF","","null","<img src=""img/land6.png"" style=""width:200px;border:14px solid red;"">","null","","","","","","","","","",""
"","image-keyboard-response","168","175902","0.0-168.0","3U4J9857OFXQGPK5HUMGOOVH1YAB71","A3POD149IG0DIW","3BDORL6HKKZHMTYWD6BFF6WBDQ9CRF","","401.2999999988824","img/land3.png","75","405.69999999925494","2","0","1","2","1,0.5,0.5,0.5,1,0.5,0.5,0.5,1","1,0.5,0.5,0.5,1,0.5,0.5,0.5,1","1","",""
"","html-keyboard-response","169","176211","0.0-169.0","3U4J9857OFXQGPK5HUMGOOVH1YAB71","A3POD149IG0DIW","3BDORL6HKKZHMTYWD6BFF6WBDQ9CRF","","null","<img src=""img/land3.png"" style=""width:200px;border:14px solid red;"">","null","","","","","","","","","",""
"","image-keyboard-response","170","176643","0.0-170.0","3U4J9857OFXQGPK5HUMGOOVH1YAB71","A3POD149IG0DIW","3BDORL6HKKZHMTYWD6BFF6WBDQ9CRF","","423.5","img/land2.png","76","430.59999999962747","3","1","3","2","1,0.5,0.5,0.5,1,0.5,0.5,0.5,1","1,0.5,0.5,0.5,1,0.5,0.5,0.5,1","1","",""
"","html-keyboard-response","171","176947","0.0-171.0","3U4J9857OFXQGPK5HUMGOOVH1YAB71","A3POD149IG0DIW","3BDORL6HKKZHMTYWD6BFF6WBDQ9CRF","","null","<img src=""img/land2.png"" style=""width:200px; border:14px solid green;"">","null","","","","","","","","","",""
"","image-keyboard-response","172","177858","0.0-172.0","3U4J9857OFXQGPK5HUMGOOVH1YAB71","A3POD149IG0DIW","3BDORL6HKKZHMTYWD6BFF6WBDQ9CRF","","903.8000000007451","img/land2.png","76","909.8000000007451","3","1","3","2","1,0.5,0.5,0.5,1,0.5,0.5,0.5,1","1,0.5,0.5,0.5,1,0.5,0.5,0.5,1","1","",""
"","html-keyboard-response","173","178164","0.0-173.0","3U4J9857OFXQGPK5HUMGOOVH1YAB71","A3POD149IG0DIW","3BDORL6HKKZHMTYWD6BFF6WBDQ9CRF","","null","<img src=""img/land2.png"" style=""width:200px; border:14px solid green;"">","null","","","","","","","","","",""
"","image-keyboard-response","174","178905","0.0-174.0","3U4J9857OFXQGPK5HUMGOOVH1YAB71","A3POD149IG0DIW","3BDORL6HKKZHMTYWD6BFF6WBDQ9CRF","","733.4000000003725","img/land3.png","76","739.6999999992549","3","1","1","2","1,0.5,0.5,0.5,1,0.5,0.5,0.5,1","1,0.5,0.5,0.5,1,0.5,0.5,0.5,1","1","",""
"","html-keyboard-response","175","179210","0.0-175.0","3U4J9857OFXQGPK5HUMGOOVH1YAB71","A3POD149IG0DIW","3BDORL6HKKZHMTYWD6BFF6WBDQ9CRF","","null","<img src=""img/land3.png"" style=""width:200px; border:14px solid green;"">","null","","","","","","","","","",""
"","image-keyboard-response","176","179644","0.0-176.0","3U4J9857OFXQGPK5HUMGOOVH1YAB71","A3POD149IG0DIW","3BDORL6HKKZHMTYWD6BFF6WBDQ9CRF","","429.2000000011176","img/land3.png","76","433.19999999925494","3","1","1","2","1,0.5,0.5,0.5,1,0.5,0.5,0.5,1","1,0.5,0.5,0.5,1,0.5,0.5,0.5,1","1","",""
"","html-keyboard-response","177","179950","0.0-177.0","3U4J9857OFXQGPK5HUMGOOVH1YAB71","A3POD149IG0DIW","3BDORL6HKKZHMTYWD6BFF6WBDQ9CRF","","null","<img src=""img/land3.png"" style=""width:200px; border:14px solid green;"">","null","","","","","","","","","",""
"","image-keyboard-response","178","180284","0.0-178.0","3U4J9857OFXQGPK5HUMGOOVH1YAB71","A3POD149IG0DIW","3BDORL6HKKZHMTYWD6BFF6WBDQ9CRF","","328.2999999988824","img/land3.png","76","332.19999999925494","3","1","1","2","1,0.5,0.5,0.5,1,0.5,0.5,0.5,1","1,0.5,0.5,0.5,1,0.5,0.5,0.5,1","1","",""
"","html-keyboard-response","179","180589","0.0-179.0","3U4J9857OFXQGPK5HUMGOOVH1YAB71","A3POD149IG0DIW","3BDORL6HKKZHMTYWD6BFF6WBDQ9CRF","","null","<img src=""img/land3.png"" style=""width:200px; border:14px solid green;"">","null","","","","","","","","","",""
"","image-keyboard-response","180","181163","0.0-180.0","3U4J9857OFXQGPK5HUMGOOVH1YAB71","A3POD149IG0DIW","3BDORL6HKKZHMTYWD6BFF6WBDQ9CRF","","563.6999999992549","img/land2.png","76","571.8999999985099","3","1","3","2","1,0.5,0.5,0.5,1,0.5,0.5,0.5,1","1,0.5,0.5,0.5,1,0.5,0.5,0.5,1","1","",""
"","html-keyboard-response","181","181469","0.0-181.0","3U4J9857OFXQGPK5HUMGOOVH1YAB71","A3POD149IG0DIW","3BDORL6HKKZHMTYWD6BFF6WBDQ9CRF","","null","<img src=""img/land2.png"" style=""width:200px; border:14px solid green;"">","null","","","","","","","","","",""
"","image-keyboard-response","182","182128","0.0-182.0","3U4J9857OFXQGPK5HUMGOOVH1YAB71","A3POD149IG0DIW","3BDORL6HKKZHMTYWD6BFF6WBDQ9CRF","","652.5","img/land6.png","76","657.7999999988824","3","1","2","2","1,0.5,0.5,0.5,1,0.5,0.5,0.5,1","1,0.5,0.5,0.5,1,0.5,0.5,0.5,1","1","",""
"","html-keyboard-response","183","182436","0.0-183.0","3U4J9857OFXQGPK5HUMGOOVH1YAB71","A3POD149IG0DIW","3BDORL6HKKZHMTYWD6BFF6WBDQ9CRF","","null","<img src=""img/land6.png"" style=""width:200px; border:14px solid green;"">","null","","","","","","","","","",""
"","image-keyboard-response","184","183033","0.0-184.0","3U4J9857OFXQGPK5HUMGOOVH1YAB71","A3POD149IG0DIW","3BDORL6HKKZHMTYWD6BFF6WBDQ9CRF","","591.5","img/land2.png","76","596.6999999992549","3","1","3","2","1,0.5,0.5,0.5,1,0.5,0.5,0.5,1","1,0.5,0.5,0.5,1,0.5,0.5,0.5,1","1","",""
"","html-keyboard-response","185","183338","0.0-185.0","3U4J9857OFXQGPK5HUMGOOVH1YAB71","A3POD149IG0DIW","3BDORL6HKKZHMTYWD6BFF6WBDQ9CRF","","null","<img src=""img/land2.png"" style=""width:200px; border:14px solid green;"">","null","","","","","","","","","",""
"","image-keyboard-response","186","184208","0.0-186.0","3U4J9857OFXQGPK5HUMGOOVH1YAB71","A3POD149IG0DIW","3BDORL6HKKZHMTYWD6BFF6WBDQ9CRF","","863.7000000011176","img/land3.png","75","868.1000000014901","2","0","1","2","1,0.5,0.5,0.5,1,0.5,0.5,0.5,1","1,0.5,0.5,0.5,1,0.5,0.5,0.5,1","1","",""
"","html-keyboard-response","187","184514","0.0-187.0","3U4J9857OFXQGPK5HUMGOOVH1YAB71","A3POD149IG0DIW","3BDORL6HKKZHMTYWD6BFF6WBDQ9CRF","","null","<img src=""img/land3.png"" style=""width:200px;border:14px solid red;"">","null","","","","","","","","","",""
"","image-keyboard-response","188","184802","0.0-188.0","3U4J9857OFXQGPK5HUMGOOVH1YAB71","A3POD149IG0DIW","3BDORL6HKKZHMTYWD6BFF6WBDQ9CRF","","281.69999999925494","img/land3.png","76","287.30000000074506","3","0","1","2","1,0.5,0.5,0.5,1,0.5,0.5,0.5,1","1,0.5,0.5,0.5,1,0.5,0.5,0.5,1","1","",""
"","html-keyboard-response","189","185106","0.0-189.0","3U4J9857OFXQGPK5HUMGOOVH1YAB71","A3POD149IG0DIW","3BDORL6HKKZHMTYWD6BFF6WBDQ9CRF","","null","<img src=""img/land3.png"" style=""width:200px;border:14px solid red;"">","null","","","","","","","","","",""
"","image-keyboard-response","190","185466","0.0-190.0","3U4J9857OFXQGPK5HUMGOOVH1YAB71","A3POD149IG0DIW","3BDORL6HKKZHMTYWD6BFF6WBDQ9CRF","","351.5","img/land3.png","76","358.30000000074506","3","0","1","2","1,0.5,0.5,0.5,1,0.5,0.5,0.5,1","1,0.5,0.5,0.5,1,0.5,0.5,0.5,1","1","",""
"","html-keyboard-response","191","185771","0.0-191.0","3U4J9857OFXQGPK5HUMGOOVH1YAB71","A3POD149IG0DIW","3BDORL6HKKZHMTYWD6BFF6WBDQ9CRF","","null","<img src=""img/land3.png"" style=""width:200px;border:14px solid red;"">","null","","","","","","","","","",""
"","image-keyboard-response","192","186126","0.0-192.0","3U4J9857OFXQGPK5HUMGOOVH1YAB71","A3POD149IG0DIW","3BDORL6HKKZHMTYWD6BFF6WBDQ9CRF","","349.5","img/land3.png","75","354.30000000074506","2","0","1","2","1,0.5,0.5,0.5,1,0.5,0.5,0.5,1","1,0.5,0.5,0.5,1,0.5,0.5,0.5,1","1","",""
"","html-keyboard-response","193","186430","0.0-193.0","3U4J9857OFXQGPK5HUMGOOVH1YAB71","A3POD149IG0DIW","3BDORL6HKKZHMTYWD6BFF6WBDQ9CRF","","null","<img src=""img/land3.png"" style=""width:200px;border:14px solid red;"">","null","","","","","","","","","",""
"","image-keyboard-response","194","186797","0.0-194.0","3U4J9857OFXQGPK5HUMGOOVH1YAB71","A3POD149IG0DIW","3BDORL6HKKZHMTYWD6BFF6WBDQ9CRF","","362.09999999962747","img/land3.png","75","366.30000000074506","2","0","1","2","1,0.5,0.5,0.5,1,0.5,0.5,0.5,1","1,0.5,0.5,0.5,1,0.5,0.5,0.5,1","1","",""
"","html-keyboard-response","195","187104","0.0-195.0","3U4J9857OFXQGPK5HUMGOOVH1YAB71","A3POD149IG0DIW","3BDORL6HKKZHMTYWD6BFF6WBDQ9CRF","","null","<img src=""img/land3.png"" style=""width:200px;border:14px solid red;"">","null","","","","","","","","","",""
"","image-keyboard-response","196","187418","0.0-196.0","3U4J9857OFXQGPK5HUMGOOVH1YAB71","A3POD149IG0DIW","3BDORL6HKKZHMTYWD6BFF6WBDQ9CRF","","306.59999999962747","img/land3.png","76","312.80000000074506","3","0","1","2","1,0.5,0.5,0.5,1,0.5,0.5,0.5,1","1,0.5,0.5,0.5,1,0.5,0.5,0.5,1","1","",""
"","html-keyboard-response","197","187723","0.0-197.0","3U4J9857OFXQGPK5HUMGOOVH1YAB71","A3POD149IG0DIW","3BDORL6HKKZHMTYWD6BFF6WBDQ9CRF","","null","<img src=""img/land3.png"" style=""width:200px;border:14px solid red;"">","null","","","","","","","","","",""
"","image-keyboard-response","198","189730","0.0-198.0","3U4J9857OFXQGPK5HUMGOOVH1YAB71","A3POD149IG0DIW","3BDORL6HKKZHMTYWD6BFF6WBDQ9CRF","","","img/land3.png","","2006.0999999996275","-1","0","1","2","1,0.5,0.5,0.5,1,0.5,0.5,0.5,1","1,0.5,0.5,0.5,1,0.5,0.5,0.5,1","1","",""
"","html-keyboard-response","199","190036","0.0-199.0","3U4J9857OFXQGPK5HUMGOOVH1YAB71","A3POD149IG0DIW","3BDORL6HKKZHMTYWD6BFF6WBDQ9CRF","","null","<img src=""img/land3.png"" style=""width:200px;border:14px solid red;"">","null","","","","","","","","","",""
"","image-keyboard-response","200","191015","0.0-200.0","3U4J9857OFXQGPK5HUMGOOVH1YAB71","A3POD149IG0DIW","3BDORL6HKKZHMTYWD6BFF6WBDQ9CRF","","972.9000000003725","img/land3.png","76","977.5","3","1","1","2","1,0.5,0.5,0.5,1,0.5,0.5,0.5,1","1,0.5,0.5,0.5,1,0.5,0.5,0.5,1","1","",""
"","html-keyboard-response","201","191319","0.0-201.0","3U4J9857OFXQGPK5HUMGOOVH1YAB71","A3POD149IG0DIW","3BDORL6HKKZHMTYWD6BFF6WBDQ9CRF","","null","<img src=""img/land3.png"" style=""width:200px; border:14px solid green;"">","null","","","","","","","","","",""
"","image-keyboard-response","202","191718","0.0-202.0","3U4J9857OFXQGPK5HUMGOOVH1YAB71","A3POD149IG0DIW","3BDORL6HKKZHMTYWD6BFF6WBDQ9CRF","","394.90000000037253","img/land3.png","76","398.1000000014901","3","1","1","2","1,0.5,0.5,0.5,1,0.5,0.5,0.5,1","1,0.5,0.5,0.5,1,0.5,0.5,0.5,1","1","",""
"","html-keyboard-response","203","192025","0.0-203.0","3U4J9857OFXQGPK5HUMGOOVH1YAB71","A3POD149IG0DIW","3BDORL6HKKZHMTYWD6BFF6WBDQ9CRF","","null","<img src=""img/land3.png"" style=""width:200px; border:14px solid green;"">","null","","","","","","","","","",""
"","image-keyboard-response","204","192327","0.0-204.0","3U4J9857OFXQGPK5HUMGOOVH1YAB71","A3POD149IG0DIW","3BDORL6HKKZHMTYWD6BFF6WBDQ9CRF","","297","img/land3.png","76","300.59999999962747","3","0","1","2","1,0.5,0.5,0.5,1,0.5,0.5,0.5,1","1,0.5,0.5,0.5,1,0.5,0.5,0.5,1","1","",""
"","html-keyboard-response","205","192634","0.0-205.0","3U4J9857OFXQGPK5HUMGOOVH1YAB71","A3POD149IG0DIW","3BDORL6HKKZHMTYWD6BFF6WBDQ9CRF","","null","<img src=""img/land3.png"" style=""width:200px;border:14px solid red;"">","null","","","","","","","","","",""
"","image-keyboard-response","206","193432","0.0-206.0","3U4J9857OFXQGPK5HUMGOOVH1YAB71","A3POD149IG0DIW","3BDORL6HKKZHMTYWD6BFF6WBDQ9CRF","","793.9000000003725","img/land3.png","75","797.3000000007451","2","0","1","2","1,0.5,0.5,0.5,1,0.5,0.5,0.5,1","1,0.5,0.5,0.5,1,0.5,0.5,0.5,1","1","",""
"","html-keyboard-response","207","193738","0.0-207.0","3U4J9857OFXQGPK5HUMGOOVH1YAB71","A3POD149IG0DIW","3BDORL6HKKZHMTYWD6BFF6WBDQ9CRF","","null","<img src=""img/land3.png"" style=""width:200px;border:14px solid red;"">","null","","","","","","","","","",""
"","image-keyboard-response","208","194041","0.0-208.0","3U4J9857OFXQGPK5HUMGOOVH1YAB71","A3POD149IG0DIW","3BDORL6HKKZHMTYWD6BFF6WBDQ9CRF","","296.30000000074506","img/land6.png","76","301.2999999988824","3","0","2","2","1,0.5,0.5,0.5,1,0.5,0.5,0.5,1","1,0.5,0.5,0.5,1,0.5,0.5,0.5,1","1","",""
"","html-keyboard-response","209","194348","0.0-209.0","3U4J9857OFXQGPK5HUMGOOVH1YAB71","A3POD149IG0DIW","3BDORL6HKKZHMTYWD6BFF6WBDQ9CRF","","null","<img src=""img/land6.png"" style=""width:200px;border:14px solid red;"">","null","","","","","","","","","",""
"","image-keyboard-response","210","195177","0.0-210.0","3U4J9857OFXQGPK5HUMGOOVH1YAB71","A3POD149IG0DIW","3BDORL6HKKZHMTYWD6BFF6WBDQ9CRF","","822.8999999985099","img/land2.png","75","828","2","0","3","2","1,0.5,0.5,0.5,1,0.5,0.5,0.5,1","1,0.5,0.5,0.5,1,0.5,0.5,0.5,1","1","",""
"","html-keyboard-response","211","195484","0.0-211.0","3U4J9857OFXQGPK5HUMGOOVH1YAB71","A3POD149IG0DIW","3BDORL6HKKZHMTYWD6BFF6WBDQ9CRF","","null","<img src=""img/land2.png"" style=""width:200px;border:14px solid red;"">","null","","","","","","","","","",""
"","image-keyboard-response","212","195974","0.0-212.0","3U4J9857OFXQGPK5HUMGOOVH1YAB71","A3POD149IG0DIW","3BDORL6HKKZHMTYWD6BFF6WBDQ9CRF","","485.5","img/land3.png","76","488.5","3","0","1","2","1,0.5,0.5,0.5,1,0.5,0.5,0.5,1","1,0.5,0.5,0.5,1,0.5,0.5,0.5,1","1","",""
"","html-keyboard-response","213","196279","0.0-213.0","3U4J9857OFXQGPK5HUMGOOVH1YAB71","A3POD149IG0DIW","3BDORL6HKKZHMTYWD6BFF6WBDQ9CRF","","null","<img src=""img/land3.png"" style=""width:200px;border:14px solid red;"">","null","","","","","","","","","",""
"","image-keyboard-response","214","196954","0.0-214.0","3U4J9857OFXQGPK5HUMGOOVH1YAB71","A3POD149IG0DIW","3BDORL6HKKZHMTYWD6BFF6WBDQ9CRF","","668.1000000014901","img/land3.png","75","673.2000000011176","2","1","1","2","1,0.5,0.5,0.5,1,0.5,0.5,0.5,1","1,0.5,0.5,0.5,1,0.5,0.5,0.5,1","1","",""
"","html-keyboard-response","215","197264","0.0-215.0","3U4J9857OFXQGPK5HUMGOOVH1YAB71","A3POD149IG0DIW","3BDORL6HKKZHMTYWD6BFF6WBDQ9CRF","","null","<img src=""img/land3.png"" style=""width:200px; border:14px solid green;"">","null","","","","","","","","","",""
"","image-keyboard-response","216","197657","0.0-216.0","3U4J9857OFXQGPK5HUMGOOVH1YAB71","A3POD149IG0DIW","3BDORL6HKKZHMTYWD6BFF6WBDQ9CRF","","387.19999999925494","img/land3.png","75","392.1000000014901","2","1","1","2","1,0.5,0.5,0.5,1,0.5,0.5,0.5,1","1,0.5,0.5,0.5,1,0.5,0.5,0.5,1","1","",""
"","html-keyboard-response","217","197965","0.0-217.0","3U4J9857OFXQGPK5HUMGOOVH1YAB71","A3POD149IG0DIW","3BDORL6HKKZHMTYWD6BFF6WBDQ9CRF","","null","<img src=""img/land3.png"" style=""width:200px; border:14px solid green;"">","null","","","","","","","","","",""
"","image-keyboard-response","218","198308","0.0-218.0","3U4J9857OFXQGPK5HUMGOOVH1YAB71","A3POD149IG0DIW","3BDORL6HKKZHMTYWD6BFF6WBDQ9CRF","","338.7999999988824","img/land3.png","75","341.7000000011176","2","0","1","2","1,0.5,0.5,0.5,1,0.5,0.5,0.5,1","1,0.5,0.5,0.5,1,0.5,0.5,0.5,1","1","",""
"","html-keyboard-response","219","198612","0.0-219.0","3U4J9857OFXQGPK5HUMGOOVH1YAB71","A3POD149IG0DIW","3BDORL6HKKZHMTYWD6BFF6WBDQ9CRF","","null","<img src=""img/land3.png"" style=""width:200px;border:14px solid red;"">","null","","","","","","","","","",""
"","image-keyboard-response","220","199107","0.0-220.0","3U4J9857OFXQGPK5HUMGOOVH1YAB71","A3POD149IG0DIW","3BDORL6HKKZHMTYWD6BFF6WBDQ9CRF","","485.90000000037253","img/land3.png","76","493.3999999985099","3","1","1","2","1,0.5,0.5,0.5,1,0.5,0.5,0.5,1","1,0.5,0.5,0.5,1,0.5,0.5,0.5,1","1","",""
"","html-keyboard-response","221","199411","0.0-221.0","3U4J9857OFXQGPK5HUMGOOVH1YAB71","A3POD149IG0DIW","3BDORL6HKKZHMTYWD6BFF6WBDQ9CRF","","null","<img src=""img/land3.png"" style=""width:200px; border:14px solid green;"">","null","","","","","","","","","",""
"","image-keyboard-response","222","199950","0.0-222.0","3U4J9857OFXQGPK5HUMGOOVH1YAB71","A3POD149IG0DIW","3BDORL6HKKZHMTYWD6BFF6WBDQ9CRF","","531.5999999996275","img/land6.png","76","536.7999999988824","3","0","2","2","1,0.5,0.5,0.5,1,0.5,0.5,0.5,1","1,0.5,0.5,0.5,1,0.5,0.5,0.5,1","1","",""
"","html-keyboard-response","223","200253","0.0-223.0","3U4J9857OFXQGPK5HUMGOOVH1YAB71","A3POD149IG0DIW","3BDORL6HKKZHMTYWD6BFF6WBDQ9CRF","","null","<img src=""img/land6.png"" style=""width:200px;border:14px solid red;"">","null","","","","","","","","","",""
"","image-keyboard-response","224","200527","0.0-224.0","3U4J9857OFXQGPK5HUMGOOVH1YAB71","A3POD149IG0DIW","3BDORL6HKKZHMTYWD6BFF6WBDQ9CRF","","268","img/land6.png","75","271.80000000074506","2","1","2","2","1,0.5,0.5,0.5,1,0.5,0.5,0.5,1","1,0.5,0.5,0.5,1,0.5,0.5,0.5,1","1","",""
"","html-keyboard-response","225","200830","0.0-225.0","3U4J9857OFXQGPK5HUMGOOVH1YAB71","A3POD149IG0DIW","3BDORL6HKKZHMTYWD6BFF6WBDQ9CRF","","null","<img src=""img/land6.png"" style=""width:200px; border:14px solid green;"">","null","","","","","","","","","",""
"","image-keyboard-response","226","201255","0.0-226.0","3U4J9857OFXQGPK5HUMGOOVH1YAB71","A3POD149IG0DIW","3BDORL6HKKZHMTYWD6BFF6WBDQ9CRF","","419.09999999962747","img/land6.png","75","423.7999999988824","2","1","2","2","1,0.5,0.5,0.5,1,0.5,0.5,0.5,1","1,0.5,0.5,0.5,1,0.5,0.5,0.5,1","1","",""
"","html-keyboard-response","227","201560","0.0-227.0","3U4J9857OFXQGPK5HUMGOOVH1YAB71","A3POD149IG0DIW","3BDORL6HKKZHMTYWD6BFF6WBDQ9CRF","","null","<img src=""img/land6.png"" style=""width:200px; border:14px solid green;"">","null","","","","","","","","","",""
"","image-keyboard-response","228","202135","0.0-228.0","3U4J9857OFXQGPK5HUMGOOVH1YAB71","A3POD149IG0DIW","3BDORL6HKKZHMTYWD6BFF6WBDQ9CRF","","568.2999999988824","img/land2.png","75","573.0999999996275","2","0","3","2","1,0.5,0.5,0.5,1,0.5,0.5,0.5,1","1,0.5,0.5,0.5,1,0.5,0.5,0.5,1","1","",""
"","html-keyboard-response","229","202440","0.0-229.0","3U4J9857OFXQGPK5HUMGOOVH1YAB71","A3POD149IG0DIW","3BDORL6HKKZHMTYWD6BFF6WBDQ9CRF","","null","<img src=""img/land2.png"" style=""width:200px;border:14px solid red;"">","null","","","","","","","","","",""
"","image-keyboard-response","230","203044","0.0-230.0","3U4J9857OFXQGPK5HUMGOOVH1YAB71","A3POD149IG0DIW","3BDORL6HKKZHMTYWD6BFF6WBDQ9CRF","","598.7000000011176","img/land6.png","75","602.3000000007451","2","1","2","2","1,0.5,0.5,0.5,1,0.5,0.5,0.5,1","1,0.5,0.5,0.5,1,0.5,0.5,0.5,1","1","",""
"","html-keyboard-response","231","203350","0.0-231.0","3U4J9857OFXQGPK5HUMGOOVH1YAB71","A3POD149IG0DIW","3BDORL6HKKZHMTYWD6BFF6WBDQ9CRF","","null","<img src=""img/land6.png"" style=""width:200px; border:14px solid green;"">","null","","","","","","","","","",""
"","image-keyboard-response","232","203746","0.0-232.0","3U4J9857OFXQGPK5HUMGOOVH1YAB71","A3POD149IG0DIW","3BDORL6HKKZHMTYWD6BFF6WBDQ9CRF","","390.7000000011176","img/land2.png","75","395.80000000074506","2","0","3","2","1,0.5,0.5,0.5,1,0.5,0.5,0.5,1","1,0.5,0.5,0.5,1,0.5,0.5,0.5,1","1","",""
"","html-keyboard-response","233","204053","0.0-233.0","3U4J9857OFXQGPK5HUMGOOVH1YAB71","A3POD149IG0DIW","3BDORL6HKKZHMTYWD6BFF6WBDQ9CRF","","null","<img src=""img/land2.png"" style=""width:200px;border:14px solid red;"">","null","","","","","","","","","",""
"","image-keyboard-response","234","204588","0.0-234.0","3U4J9857OFXQGPK5HUMGOOVH1YAB71","A3POD149IG0DIW","3BDORL6HKKZHMTYWD6BFF6WBDQ9CRF","","526.2999999988824","img/land3.png","76","533.5999999996275","3","0","1","2","1,0.5,0.5,0.5,1,0.5,0.5,0.5,1","1,0.5,0.5,0.5,1,0.5,0.5,0.5,1","1","",""
"","html-keyboard-response","235","204896","0.0-235.0","3U4J9857OFXQGPK5HUMGOOVH1YAB71","A3POD149IG0DIW","3BDORL6HKKZHMTYWD6BFF6WBDQ9CRF","","null","<img src=""img/land3.png"" style=""width:200px;border:14px solid red;"">","null","","","","","","","","","",""
"","image-keyboard-response","236","205418","0.0-236.0","3U4J9857OFXQGPK5HUMGOOVH1YAB71","A3POD149IG0DIW","3BDORL6HKKZHMTYWD6BFF6WBDQ9CRF","","515.8000000007451","img/land2.png","75","520.3000000007451","2","0","3","2","1,0.5,0.5,0.5,1,0.5,0.5,0.5,1","1,0.5,0.5,0.5,1,0.5,0.5,0.5,1","1","",""
"","html-keyboard-response","237","205727","0.0-237.0","3U4J9857OFXQGPK5HUMGOOVH1YAB71","A3POD149IG0DIW","3BDORL6HKKZHMTYWD6BFF6WBDQ9CRF","","null","<img src=""img/land2.png"" style=""width:200px;border:14px solid red;"">","null","","","","","","","","","",""
"","image-keyboard-response","238","205980","0.0-238.0","3U4J9857OFXQGPK5HUMGOOVH1YAB71","A3POD149IG0DIW","3BDORL6HKKZHMTYWD6BFF6WBDQ9CRF","","245.59999999962747","img/land2.png","76","252.19999999925494","3","1","3","2","1,0.5,0.5,0.5,1,0.5,0.5,0.5,1","1,0.5,0.5,0.5,1,0.5,0.5,0.5,1","1","",""
"","html-keyboard-response","239","206287","0.0-239.0","3U4J9857OFXQGPK5HUMGOOVH1YAB71","A3POD149IG0DIW","3BDORL6HKKZHMTYWD6BFF6WBDQ9CRF","","null","<img src=""img/land2.png"" style=""width:200px; border:14px solid green;"">","null","","","","","","","","","",""
"","image-keyboard-response","240","206957","0.0-240.0","3U4J9857OFXQGPK5HUMGOOVH1YAB71","A3POD149IG0DIW","3BDORL6HKKZHMTYWD6BFF6WBDQ9CRF","","663.4000000003725","img/land3.png","76","668.8000000007451","3","1","1","2","1,0.5,0.5,0.5,1,0.5,0.5,0.5,1","1,0.5,0.5,0.5,1,0.5,0.5,0.5,1","1","",""
"","html-keyboard-response","241","207261","0.0-241.0","3U4J9857OFXQGPK5HUMGOOVH1YAB71","A3POD149IG0DIW","3BDORL6HKKZHMTYWD6BFF6WBDQ9CRF","","null","<img src=""img/land3.png"" style=""width:200px; border:14px solid green;"">","null","","","","","","","","","",""
"","image-keyboard-response","242","207669","0.0-242.0","3U4J9857OFXQGPK5HUMGOOVH1YAB71","A3POD149IG0DIW","3BDORL6HKKZHMTYWD6BFF6WBDQ9CRF","","401.5","img/land3.png","76","407.5","3","0","1","2","1,0.5,0.5,0.5,1,0.5,0.5,0.5,1","1,0.5,0.5,0.5,1,0.5,0.5,0.5,1","1","",""
"","html-keyboard-response","243","207974","0.0-243.0","3U4J9857OFXQGPK5HUMGOOVH1YAB71","A3POD149IG0DIW","3BDORL6HKKZHMTYWD6BFF6WBDQ9CRF","","null","<img src=""img/land3.png"" style=""width:200px;border:14px solid red;"">","null","","","","","","","","","",""
"","image-keyboard-response","244","208582","0.0-244.0","3U4J9857OFXQGPK5HUMGOOVH1YAB71","A3POD149IG0DIW","3BDORL6HKKZHMTYWD6BFF6WBDQ9CRF","","598","img/land2.png","75","604.1000000014901","2","0","3","2","1,0.5,0.5,0.5,1,0.5,0.5,0.5,1","1,0.5,0.5,0.5,1,0.5,0.5,0.5,1","1","",""
"","html-keyboard-response","245","208889","0.0-245.0","3U4J9857OFXQGPK5HUMGOOVH1YAB71","A3POD149IG0DIW","3BDORL6HKKZHMTYWD6BFF6WBDQ9CRF","","null","<img src=""img/land2.png"" style=""width:200px;border:14px solid red;"">","null","","","","","","","","","",""
"","image-keyboard-response","246","209079","0.0-246.0","3U4J9857OFXQGPK5HUMGOOVH1YAB71","A3POD149IG0DIW","3BDORL6HKKZHMTYWD6BFF6WBDQ9CRF","","182.19999999925494","img/land3.png","76","187.59999999962747","3","1","1","2","1,0.5,0.5,0.5,1,0.5,0.5,0.5,1","1,0.5,0.5,0.5,1,0.5,0.5,0.5,1","1","",""
"","html-keyboard-response","247","209385","0.0-247.0","3U4J9857OFXQGPK5HUMGOOVH1YAB71","A3POD149IG0DIW","3BDORL6HKKZHMTYWD6BFF6WBDQ9CRF","","null","<img src=""img/land3.png"" style=""width:200px; border:14px solid green;"">","null","","","","","","","","","",""
"","image-keyboard-response","248","209922","0.0-248.0","3U4J9857OFXQGPK5HUMGOOVH1YAB71","A3POD149IG0DIW","3BDORL6HKKZHMTYWD6BFF6WBDQ9CRF","","528.6999999992549","img/land3.png","76","536.5999999996275","3","1","1","2","1,0.5,0.5,0.5,1,0.5,0.5,0.5,1","1,0.5,0.5,0.5,1,0.5,0.5,0.5,1","1","",""
"","html-keyboard-response","249","210228","0.0-249.0","3U4J9857OFXQGPK5HUMGOOVH1YAB71","A3POD149IG0DIW","3BDORL6HKKZHMTYWD6BFF6WBDQ9CRF","","null","<img src=""img/land3.png"" style=""width:200px; border:14px solid green;"">","null","","","","","","","","","",""
"","image-keyboard-response","250","210594","0.0-250.0","3U4J9857OFXQGPK5HUMGOOVH1YAB71","A3POD149IG0DIW","3BDORL6HKKZHMTYWD6BFF6WBDQ9CRF","","357.80000000074506","img/land3.png","76","365","3","1","1","2","1,0.5,0.5,0.5,1,0.5,0.5,0.5,1","1,0.5,0.5,0.5,1,0.5,0.5,0.5,1","1","",""
"","html-keyboard-response","251","210900","0.0-251.0","3U4J9857OFXQGPK5HUMGOOVH1YAB71","A3POD149IG0DIW","3BDORL6HKKZHMTYWD6BFF6WBDQ9CRF","","null","<img src=""img/land3.png"" style=""width:200px; border:14px solid green;"">","null","","","","","","","","","",""
"","image-keyboard-response","252","211386","0.0-252.0","3U4J9857OFXQGPK5HUMGOOVH1YAB71","A3POD149IG0DIW","3BDORL6HKKZHMTYWD6BFF6WBDQ9CRF","","477.59999999962747","img/land6.png","76","485.8999999985099","3","1","2","2","1,0.5,0.5,0.5,1,0.5,0.5,0.5,1","1,0.5,0.5,0.5,1,0.5,0.5,0.5,1","1","",""
"","html-keyboard-response","253","211695","0.0-253.0","3U4J9857OFXQGPK5HUMGOOVH1YAB71","A3POD149IG0DIW","3BDORL6HKKZHMTYWD6BFF6WBDQ9CRF","","null","<img src=""img/land6.png"" style=""width:200px; border:14px solid green;"">","null","","","","","","","","","",""
"","image-keyboard-response","254","212113","0.0-254.0","3U4J9857OFXQGPK5HUMGOOVH1YAB71","A3POD149IG0DIW","3BDORL6HKKZHMTYWD6BFF6WBDQ9CRF","","411.09999999962747","img/land6.png","76","416.69999999925494","3","1","2","2","1,0.5,0.5,0.5,1,0.5,0.5,0.5,1","1,0.5,0.5,0.5,1,0.5,0.5,0.5,1","1","",""
"","html-keyboard-response","255","212419","0.0-255.0","3U4J9857OFXQGPK5HUMGOOVH1YAB71","A3POD149IG0DIW","3BDORL6HKKZHMTYWD6BFF6WBDQ9CRF","","null","<img src=""img/land6.png"" style=""width:200px; border:14px solid green;"">","null","","","","","","","","","",""
"","image-keyboard-response","256","212944","0.0-256.0","3U4J9857OFXQGPK5HUMGOOVH1YAB71","A3POD149IG0DIW","3BDORL6HKKZHMTYWD6BFF6WBDQ9CRF","","519","img/land3.png","76","523.8000000007451","3","1","1","2","1,0.5,0.5,0.5,1,0.5,0.5,0.5,1","1,0.5,0.5,0.5,1,0.5,0.5,0.5,1","1","",""
"","html-keyboard-response","257","213251","0.0-257.0","3U4J9857OFXQGPK5HUMGOOVH1YAB71","A3POD149IG0DIW","3BDORL6HKKZHMTYWD6BFF6WBDQ9CRF","","null","<img src=""img/land3.png"" style=""width:200px; border:14px solid green;"">","null","","","","","","","","","",""
"","image-keyboard-response","258","213653","0.0-258.0","3U4J9857OFXQGPK5HUMGOOVH1YAB71","A3POD149IG0DIW","3BDORL6HKKZHMTYWD6BFF6WBDQ9CRF","","397.30000000074506","img/land3.png","76","402.90000000037253","3","0","1","2","1,0.5,0.5,0.5,1,0.5,0.5,0.5,1","1,0.5,0.5,0.5,1,0.5,0.5,0.5,1","1","",""
"","html-keyboard-response","259","213962","0.0-259.0","3U4J9857OFXQGPK5HUMGOOVH1YAB71","A3POD149IG0DIW","3BDORL6HKKZHMTYWD6BFF6WBDQ9CRF","","null","<img src=""img/land3.png"" style=""width:200px;border:14px solid red;"">","null","","","","","","","","","",""
"","image-keyboard-response","260","214391","0.0-260.0","3U4J9857OFXQGPK5HUMGOOVH1YAB71","A3POD149IG0DIW","3BDORL6HKKZHMTYWD6BFF6WBDQ9CRF","","421.2000000011176","img/land3.png","76","428.09999999962747","3","0","1","2","1,0.5,0.5,0.5,1,0.5,0.5,0.5,1","1,0.5,0.5,0.5,1,0.5,0.5,0.5,1","1","",""
"","html-keyboard-response","261","214699","0.0-261.0","3U4J9857OFXQGPK5HUMGOOVH1YAB71","A3POD149IG0DIW","3BDORL6HKKZHMTYWD6BFF6WBDQ9CRF","","null","<img src=""img/land3.png"" style=""width:200px;border:14px solid red;"">","null","","","","","","","","","",""
"","image-keyboard-response","262","215118","0.0-262.0","3U4J9857OFXQGPK5HUMGOOVH1YAB71","A3POD149IG0DIW","3BDORL6HKKZHMTYWD6BFF6WBDQ9CRF","","410.19999999925494","img/land6.png","75","417.09999999962747","2","1","2","2","1,0.5,0.5,0.5,1,0.5,0.5,0.5,1","1,0.5,0.5,0.5,1,0.5,0.5,0.5,1","1","",""
"","html-keyboard-response","263","215423","0.0-263.0","3U4J9857OFXQGPK5HUMGOOVH1YAB71","A3POD149IG0DIW","3BDORL6HKKZHMTYWD6BFF6WBDQ9CRF","","null","<img src=""img/land6.png"" style=""width:200px; border:14px solid green;"">","null","","","","","","","","","",""
"","image-keyboard-response","264","215679","0.0-264.0","3U4J9857OFXQGPK5HUMGOOVH1YAB71","A3POD149IG0DIW","3BDORL6HKKZHMTYWD6BFF6WBDQ9CRF","","250.5","img/land3.png","76","255.39999999850988","3","1","1","2","1,0.5,0.5,0.5,1,0.5,0.5,0.5,1","1,0.5,0.5,0.5,1,0.5,0.5,0.5,1","1","",""
"","html-keyboard-response","265","215986","0.0-265.0","3U4J9857OFXQGPK5HUMGOOVH1YAB71","A3POD149IG0DIW","3BDORL6HKKZHMTYWD6BFF6WBDQ9CRF","","null","<img src=""img/land3.png"" style=""width:200px; border:14px solid green;"">","null","","","","","","","","","",""
"","image-keyboard-response","266","216615","0.0-266.0","3U4J9857OFXQGPK5HUMGOOVH1YAB71","A3POD149IG0DIW","3BDORL6HKKZHMTYWD6BFF6WBDQ9CRF","","618.3000000007451","img/land3.png","76","624.7999999988824","3","0","1","2","1,0.5,0.5,0.5,1,0.5,0.5,0.5,1","1,0.5,0.5,0.5,1,0.5,0.5,0.5,1","1","",""
"","html-keyboard-response","267","216924","0.0-267.0","3U4J9857OFXQGPK5HUMGOOVH1YAB71","A3POD149IG0DIW","3BDORL6HKKZHMTYWD6BFF6WBDQ9CRF","","null","<img src=""img/land3.png"" style=""width:200px;border:14px solid red;"">","null","","","","","","","","","",""
"","image-keyboard-response","268","217230","0.0-268.0","3U4J9857OFXQGPK5HUMGOOVH1YAB71","A3POD149IG0DIW","3BDORL6HKKZHMTYWD6BFF6WBDQ9CRF","","299.2000000011176","img/land2.png","75","305.59999999962747","2","1","3","2","1,0.5,0.5,0.5,1,0.5,0.5,0.5,1","1,0.5,0.5,0.5,1,0.5,0.5,0.5,1","1","",""
"","html-keyboard-response","269","217537","0.0-269.0","3U4J9857OFXQGPK5HUMGOOVH1YAB71","A3POD149IG0DIW","3BDORL6HKKZHMTYWD6BFF6WBDQ9CRF","","null","<img src=""img/land2.png"" style=""width:200px; border:14px solid green;"">","null","","","","","","","","","",""
"","image-keyboard-response","270","218302","0.0-270.0","3U4J9857OFXQGPK5HUMGOOVH1YAB71","A3POD149IG0DIW","3BDORL6HKKZHMTYWD6BFF6WBDQ9CRF","","759.4000000003725","img/land3.png","75","762.9000000003725","2","0","1","2","1,0.5,0.5,0.5,1,0.5,0.5,0.5,1","1,0.5,0.5,0.5,1,0.5,0.5,0.5,1","1","",""
"","html-keyboard-response","271","218612","0.0-271.0","3U4J9857OFXQGPK5HUMGOOVH1YAB71","A3POD149IG0DIW","3BDORL6HKKZHMTYWD6BFF6WBDQ9CRF","","null","<img src=""img/land3.png"" style=""width:200px;border:14px solid red;"">","null","","","","","","","","","",""
"","image-keyboard-response","272","218839","0.0-272.0","3U4J9857OFXQGPK5HUMGOOVH1YAB71","A3POD149IG0DIW","3BDORL6HKKZHMTYWD6BFF6WBDQ9CRF","","216.90000000037253","img/land6.png","76","226.30000000074506","3","1","2","2","1,0.5,0.5,0.5,1,0.5,0.5,0.5,1","1,0.5,0.5,0.5,1,0.5,0.5,0.5,1","1","",""
"","html-keyboard-response","273","219146","0.0-273.0","3U4J9857OFXQGPK5HUMGOOVH1YAB71","A3POD149IG0DIW","3BDORL6HKKZHMTYWD6BFF6WBDQ9CRF","","null","<img src=""img/land6.png"" style=""width:200px; border:14px solid green;"">","null","","","","","","","","","",""
"","image-keyboard-response","274","219793","0.0-274.0","3U4J9857OFXQGPK5HUMGOOVH1YAB71","A3POD149IG0DIW","3BDORL6HKKZHMTYWD6BFF6WBDQ9CRF","","639.7999999988824","img/land6.png","76","645.8000000007451","3","1","2","2","1,0.5,0.5,0.5,1,0.5,0.5,0.5,1","1,0.5,0.5,0.5,1,0.5,0.5,0.5,1","1","",""
"","html-keyboard-response","275","220099","0.0-275.0","3U4J9857OFXQGPK5HUMGOOVH1YAB71","A3POD149IG0DIW","3BDORL6HKKZHMTYWD6BFF6WBDQ9CRF","","null","<img src=""img/land6.png"" style=""width:200px; border:14px solid green;"">","null","","","","","","","","","",""
"","image-keyboard-response","276","220439","0.0-276.0","3U4J9857OFXQGPK5HUMGOOVH1YAB71","A3POD149IG0DIW","3BDORL6HKKZHMTYWD6BFF6WBDQ9CRF","","335","img/land6.png","76","339.09999999962747","3","0","2","2","1,0.5,0.5,0.5,1,0.5,0.5,0.5,1","1,0.5,0.5,0.5,1,0.5,0.5,0.5,1","1","",""
"","html-keyboard-response","277","220747","0.0-277.0","3U4J9857OFXQGPK5HUMGOOVH1YAB71","A3POD149IG0DIW","3BDORL6HKKZHMTYWD6BFF6WBDQ9CRF","","null","<img src=""img/land6.png"" style=""width:200px;border:14px solid red;"">","null","","","","","","","","","",""
"","image-keyboard-response","278","221283","0.0-278.0","3U4J9857OFXQGPK5HUMGOOVH1YAB71","A3POD149IG0DIW","3BDORL6HKKZHMTYWD6BFF6WBDQ9CRF","","531.2999999988824","img/land3.png","75","534.2000000011176","2","1","1","2","1,0.5,0.5,0.5,1,0.5,0.5,0.5,1","1,0.5,0.5,0.5,1,0.5,0.5,0.5,1","1","",""
"","html-keyboard-response","279","221586","0.0-279.0","3U4J9857OFXQGPK5HUMGOOVH1YAB71","A3POD149IG0DIW","3BDORL6HKKZHMTYWD6BFF6WBDQ9CRF","","null","<img src=""img/land3.png"" style=""width:200px; border:14px solid green;"">","null","","","","","","","","","",""
"","image-keyboard-response","280","222008","0.0-280.0","3U4J9857OFXQGPK5HUMGOOVH1YAB71","A3POD149IG0DIW","3BDORL6HKKZHMTYWD6BFF6WBDQ9CRF","","413.59999999962747","img/land3.png","75","419.59999999962747","2","0","1","2","1,0.5,0.5,0.5,1,0.5,0.5,0.5,1","1,0.5,0.5,0.5,1,0.5,0.5,0.5,1","1","",""
"","html-keyboard-response","281","222318","0.0-281.0","3U4J9857OFXQGPK5HUMGOOVH1YAB71","A3POD149IG0DIW","3BDORL6HKKZHMTYWD6BFF6WBDQ9CRF","","null","<img src=""img/land3.png"" style=""width:200px;border:14px solid red;"">","null","","","","","","","","","",""
"","image-keyboard-response","282","222633","0.0-282.0","3U4J9857OFXQGPK5HUMGOOVH1YAB71","A3POD149IG0DIW","3BDORL6HKKZHMTYWD6BFF6WBDQ9CRF","","311.8999999985099","img/land3.png","76","314.7999999988824","3","0","1","2","1,0.5,0.5,0.5,1,0.5,0.5,0.5,1","1,0.5,0.5,0.5,1,0.5,0.5,0.5,1","1","",""
"","html-keyboard-response","283","222939","0.0-283.0","3U4J9857OFXQGPK5HUMGOOVH1YAB71","A3POD149IG0DIW","3BDORL6HKKZHMTYWD6BFF6WBDQ9CRF","","null","<img src=""img/land3.png"" style=""width:200px;border:14px solid red;"">","null","","","","","","","","","",""
"","image-keyboard-response","284","223420","0.0-284.0","3U4J9857OFXQGPK5HUMGOOVH1YAB71","A3POD149IG0DIW","3BDORL6HKKZHMTYWD6BFF6WBDQ9CRF","","474.69999999925494","img/land2.png","75","481.80000000074506","2","0","3","2","1,0.5,0.5,0.5,1,0.5,0.5,0.5,1","1,0.5,0.5,0.5,1,0.5,0.5,0.5,1","1","",""
"","html-keyboard-response","285","223732","0.0-285.0","3U4J9857OFXQGPK5HUMGOOVH1YAB71","A3POD149IG0DIW","3BDORL6HKKZHMTYWD6BFF6WBDQ9CRF","","null","<img src=""img/land2.png"" style=""width:200px;border:14px solid red;"">","null","","","","","","","","","",""
"","image-keyboard-response","286","225741","0.0-286.0","3U4J9857OFXQGPK5HUMGOOVH1YAB71","A3POD149IG0DIW","3BDORL6HKKZHMTYWD6BFF6WBDQ9CRF","","","img/land3.png","","2007.3999999985099","-1","0","1","2","1,0.5,0.5,0.5,1,0.5,0.5,0.5,1","1,0.5,0.5,0.5,1,0.5,0.5,0.5,1","1","",""
"","html-keyboard-response","287","226049","0.0-287.0","3U4J9857OFXQGPK5HUMGOOVH1YAB71","A3POD149IG0DIW","3BDORL6HKKZHMTYWD6BFF6WBDQ9CRF","","null","<img src=""img/land3.png"" style=""width:200px;border:14px solid red;"">","null","","","","","","","","","",""
"","image-keyboard-response","288","226947","0.0-288.0","3U4J9857OFXQGPK5HUMGOOVH1YAB71","A3POD149IG0DIW","3BDORL6HKKZHMTYWD6BFF6WBDQ9CRF","","893.2999999988824","img/land3.png","74","896.3999999985099","1","1","1","2","1,0.5,0.5,0.5,1,0.5,0.5,0.5,1","1,0.5,0.5,0.5,1,0.5,0.5,0.5,1","1","",""
"","html-keyboard-response","289","227252","0.0-289.0","3U4J9857OFXQGPK5HUMGOOVH1YAB71","A3POD149IG0DIW","3BDORL6HKKZHMTYWD6BFF6WBDQ9CRF","","null","<img src=""img/land3.png"" style=""width:200px; border:14px solid green;"">","null","","","","","","","","","",""
"","image-keyboard-response","290","227567","0.0-290.0","3U4J9857OFXQGPK5HUMGOOVH1YAB71","A3POD149IG0DIW","3BDORL6HKKZHMTYWD6BFF6WBDQ9CRF","","307.1000000014901","img/land3.png","75","314.19999999925494","2","1","1","2","1,0.5,0.5,0.5,1,0.5,0.5,0.5,1","1,0.5,0.5,0.5,1,0.5,0.5,0.5,1","1","",""
"","html-keyboard-response","291","227875","0.0-291.0","3U4J9857OFXQGPK5HUMGOOVH1YAB71","A3POD149IG0DIW","3BDORL6HKKZHMTYWD6BFF6WBDQ9CRF","","null","<img src=""img/land3.png"" style=""width:200px; border:14px solid green;"">","null","","","","","","","","","",""
"","image-keyboard-response","292","228345","0.0-292.0","3U4J9857OFXQGPK5HUMGOOVH1YAB71","A3POD149IG0DIW","3BDORL6HKKZHMTYWD6BFF6WBDQ9CRF","","462.7999999988824","img/land2.png","75","468.6000000014901","2","0","3","2","1,0.5,0.5,0.5,1,0.5,0.5,0.5,1","1,0.5,0.5,0.5,1,0.5,0.5,0.5,1","1","",""
"","html-keyboard-response","293","228651","0.0-293.0","3U4J9857OFXQGPK5HUMGOOVH1YAB71","A3POD149IG0DIW","3BDORL6HKKZHMTYWD6BFF6WBDQ9CRF","","null","<img src=""img/land2.png"" style=""width:200px;border:14px solid red;"">","null","","","","","","","","","",""
"","image-keyboard-response","294","228914","0.0-294.0","3U4J9857OFXQGPK5HUMGOOVH1YAB71","A3POD149IG0DIW","3BDORL6HKKZHMTYWD6BFF6WBDQ9CRF","","256.5","img/land3.png","74","261.59999999962747","1","1","1","2","1,0.5,0.5,0.5,1,0.5,0.5,0.5,1","1,0.5,0.5,0.5,1,0.5,0.5,0.5,1","1","",""
"","html-keyboard-response","295","229220","0.0-295.0","3U4J9857OFXQGPK5HUMGOOVH1YAB71","A3POD149IG0DIW","3BDORL6HKKZHMTYWD6BFF6WBDQ9CRF","","null","<img src=""img/land3.png"" style=""width:200px; border:14px solid green;"">","null","","","","","","","","","",""
"","image-keyboard-response","296","229781","0.0-296.0","3U4J9857OFXQGPK5HUMGOOVH1YAB71","A3POD149IG0DIW","3BDORL6HKKZHMTYWD6BFF6WBDQ9CRF","","552.9000000003725","img/land3.png","74","558.9000000003725","1","1","1","2","1,0.5,0.5,0.5,1,0.5,0.5,0.5,1","1,0.5,0.5,0.5,1,0.5,0.5,0.5,1","1","",""
"","html-keyboard-response","297","230087","0.0-297.0","3U4J9857OFXQGPK5HUMGOOVH1YAB71","A3POD149IG0DIW","3BDORL6HKKZHMTYWD6BFF6WBDQ9CRF","","null","<img src=""img/land3.png"" style=""width:200px; border:14px solid green;"">","null","","","","","","","","","",""
"","image-keyboard-response","298","230372","0.0-298.0","3U4J9857OFXQGPK5HUMGOOVH1YAB71","A3POD149IG0DIW","3BDORL6HKKZHMTYWD6BFF6WBDQ9CRF","","277.8999999985099","img/land3.png","75","282.90000000037253","2","1","1","2","1,0.5,0.5,0.5,1,0.5,0.5,0.5,1","1,0.5,0.5,0.5,1,0.5,0.5,0.5,1","1","",""
"","html-keyboard-response","299","230676","0.0-299.0","3U4J9857OFXQGPK5HUMGOOVH1YAB71","A3POD149IG0DIW","3BDORL6HKKZHMTYWD6BFF6WBDQ9CRF","","null","<img src=""img/land3.png"" style=""width:200px; border:14px solid green;"">","null","","","","","","","","","",""
"","image-keyboard-response","300","231019","0.0-300.0","3U4J9857OFXQGPK5HUMGOOVH1YAB71","A3POD149IG0DIW","3BDORL6HKKZHMTYWD6BFF6WBDQ9CRF","","336","img/land3.png","75","341.19999999925494","2","1","1","2","1,0.5,0.5,0.5,1,0.5,0.5,0.5,1","1,0.5,0.5,0.5,1,0.5,0.5,0.5,1","1","",""
"","html-keyboard-response","301","231328","0.0-301.0","3U4J9857OFXQGPK5HUMGOOVH1YAB71","A3POD149IG0DIW","3BDORL6HKKZHMTYWD6BFF6WBDQ9CRF","","null","<img src=""img/land3.png"" style=""width:200px; border:14px solid green;"">","null","","","","","","","","","",""
"","image-keyboard-response","302","232066","0.0-302.0","3U4J9857OFXQGPK5HUMGOOVH1YAB71","A3POD149IG0DIW","3BDORL6HKKZHMTYWD6BFF6WBDQ9CRF","","731.2000000011176","img/land5.png","74","737.5999999996275","1","1","2","1","1,0.5,0.5,0.5,1,0.5,0.5,0.5,1","1,0.5,0.5,0.5,1,0.5,0.5,0.5,1","1","",""
"","html-keyboard-response","303","232373","0.0-303.0","3U4J9857OFXQGPK5HUMGOOVH1YAB71","A3POD149IG0DIW","3BDORL6HKKZHMTYWD6BFF6WBDQ9CRF","","null","<img src=""img/land5.png"" style=""width:200px; border:14px solid green;"">","null","","","","","","","","","",""
"","image-keyboard-response","304","232882","0.0-304.0","3U4J9857OFXQGPK5HUMGOOVH1YAB71","A3POD149IG0DIW","3BDORL6HKKZHMTYWD6BFF6WBDQ9CRF","","504.19999999925494","img/land1.png","74","509.5","1","0","3","1","1,0.5,0.5,0.5,1,0.5,0.5,0.5,1","1,0.5,0.5,0.5,1,0.5,0.5,0.5,1","1","",""
"","html-keyboard-response","305","233189","0.0-305.0","3U4J9857OFXQGPK5HUMGOOVH1YAB71","A3POD149IG0DIW","3BDORL6HKKZHMTYWD6BFF6WBDQ9CRF","","null","<img src=""img/land1.png"" style=""width:200px;border:14px solid red;"">","null","","","","","","","","","",""
"","image-keyboard-response","306","233675","0.0-306.0","3U4J9857OFXQGPK5HUMGOOVH1YAB71","A3POD149IG0DIW","3BDORL6HKKZHMTYWD6BFF6WBDQ9CRF","","479.1000000014901","img/land4.png","75","484.09999999962747","2","0","1","1","1,0.5,0.5,0.5,1,0.5,0.5,0.5,1","1,0.5,0.5,0.5,1,0.5,0.5,0.5,1","1","",""
"","html-keyboard-response","307","233982","0.0-307.0","3U4J9857OFXQGPK5HUMGOOVH1YAB71","A3POD149IG0DIW","3BDORL6HKKZHMTYWD6BFF6WBDQ9CRF","","null","<img src=""img/land4.png"" style=""width:200px;border:14px solid red;"">","null","","","","","","","","","",""
"","image-keyboard-response","308","234809","0.0-308.0","3U4J9857OFXQGPK5HUMGOOVH1YAB71","A3POD149IG0DIW","3BDORL6HKKZHMTYWD6BFF6WBDQ9CRF","","822.2000000011176","img/land4.png","76","827.5999999996275","3","1","1","1","1,0.5,0.5,0.5,1,0.5,0.5,0.5,1","1,0.5,0.5,0.5,1,0.5,0.5,0.5,1","1","",""
"","html-keyboard-response","309","235120","0.0-309.0","3U4J9857OFXQGPK5HUMGOOVH1YAB71","A3POD149IG0DIW","3BDORL6HKKZHMTYWD6BFF6WBDQ9CRF","","null","<img src=""img/land4.png"" style=""width:200px; border:14px solid green;"">","null","","","","","","","","","",""
"","image-keyboard-response","310","235594","0.0-310.0","3U4J9857OFXQGPK5HUMGOOVH1YAB71","A3POD149IG0DIW","3BDORL6HKKZHMTYWD6BFF6WBDQ9CRF","","464.90000000037253","img/land5.png","76","471.80000000074506","3","0","2","1","1,0.5,0.5,0.5,1,0.5,0.5,0.5,1","1,0.5,0.5,0.5,1,0.5,0.5,0.5,1","1","",""
"","html-keyboard-response","311","235903","0.0-311.0","3U4J9857OFXQGPK5HUMGOOVH1YAB71","A3POD149IG0DIW","3BDORL6HKKZHMTYWD6BFF6WBDQ9CRF","","null","<img src=""img/land5.png"" style=""width:200px;border:14px solid red;"">","null","","","","","","","","","",""
"","image-keyboard-response","312","236290","0.0-312.0","3U4J9857OFXQGPK5HUMGOOVH1YAB71","A3POD149IG0DIW","3BDORL6HKKZHMTYWD6BFF6WBDQ9CRF","","380.5","img/land5.png","74","385.19999999925494","1","0","2","1","1,0.5,0.5,0.5,1,0.5,0.5,0.5,1","1,0.5,0.5,0.5,1,0.5,0.5,0.5,1","1","",""
"","html-keyboard-response","313","236595","0.0-313.0","3U4J9857OFXQGPK5HUMGOOVH1YAB71","A3POD149IG0DIW","3BDORL6HKKZHMTYWD6BFF6WBDQ9CRF","","null","<img src=""img/land5.png"" style=""width:200px;border:14px solid red;"">","null","","","","","","","","","",""
"","image-keyboard-response","314","237034","0.0-314.0","3U4J9857OFXQGPK5HUMGOOVH1YAB71","A3POD149IG0DIW","3BDORL6HKKZHMTYWD6BFF6WBDQ9CRF","","430.2000000011176","img/land1.png","75","437.30000000074506","2","0","3","1","1,0.5,0.5,0.5,1,0.5,0.5,0.5,1","1,0.5,0.5,0.5,1,0.5,0.5,0.5,1","1","",""
"","html-keyboard-response","315","237339","0.0-315.0","3U4J9857OFXQGPK5HUMGOOVH1YAB71","A3POD149IG0DIW","3BDORL6HKKZHMTYWD6BFF6WBDQ9CRF","","null","<img src=""img/land1.png"" style=""width:200px;border:14px solid red;"">","null","","","","","","","","","",""
"","image-keyboard-response","316","237915","0.0-316.0","3U4J9857OFXQGPK5HUMGOOVH1YAB71","A3POD149IG0DIW","3BDORL6HKKZHMTYWD6BFF6WBDQ9CRF","","569","img/land4.png","74","574.1999999992549","1","1","1","1","1,0.5,0.5,0.5,1,0.5,0.5,0.5,1","1,0.5,0.5,0.5,1,0.5,0.5,0.5,1","1","",""
"","html-keyboard-response","317","238219","0.0-317.0","3U4J9857OFXQGPK5HUMGOOVH1YAB71","A3POD149IG0DIW","3BDORL6HKKZHMTYWD6BFF6WBDQ9CRF","","null","<img src=""img/land4.png"" style=""width:200px; border:14px solid green;"">","null","","","","","","","","","",""
"","image-keyboard-response","318","238618","0.0-318.0","3U4J9857OFXQGPK5HUMGOOVH1YAB71","A3POD149IG0DIW","3BDORL6HKKZHMTYWD6BFF6WBDQ9CRF","","394.09999999962747","img/land4.png","74","398.19999999925494","1","1","1","1","1,0.5,0.5,0.5,1,0.5,0.5,0.5,1","1,0.5,0.5,0.5,1,0.5,0.5,0.5,1","1","",""
"","html-keyboard-response","319","238926","0.0-319.0","3U4J9857OFXQGPK5HUMGOOVH1YAB71","A3POD149IG0DIW","3BDORL6HKKZHMTYWD6BFF6WBDQ9CRF","","null","<img src=""img/land4.png"" style=""width:200px; border:14px solid green;"">","null","","","","","","","","","",""
"","image-keyboard-response","320","239407","0.0-320.0","3U4J9857OFXQGPK5HUMGOOVH1YAB71","A3POD149IG0DIW","3BDORL6HKKZHMTYWD6BFF6WBDQ9CRF","","473.2999999988824","img/land5.png","74","478.59999999962747","1","1","2","1","1,0.5,0.5,0.5,1,0.5,0.5,0.5,1","1,0.5,0.5,0.5,1,0.5,0.5,0.5,1","1","",""
"","html-keyboard-response","321","239712","0.0-321.0","3U4J9857OFXQGPK5HUMGOOVH1YAB71","A3POD149IG0DIW","3BDORL6HKKZHMTYWD6BFF6WBDQ9CRF","","null","<img src=""img/land5.png"" style=""width:200px; border:14px solid green;"">","null","","","","","","","","","",""
"","image-keyboard-response","322","240294","0.0-322.0","3U4J9857OFXQGPK5HUMGOOVH1YAB71","A3POD149IG0DIW","3BDORL6HKKZHMTYWD6BFF6WBDQ9CRF","","575.2000000011176","img/land4.png","74","580.1999999992549","1","1","1","1","1,0.5,0.5,0.5,1,0.5,0.5,0.5,1","1,0.5,0.5,0.5,1,0.5,0.5,0.5,1","1","",""
"","html-keyboard-response","323","240601","0.0-323.0","3U4J9857OFXQGPK5HUMGOOVH1YAB71","A3POD149IG0DIW","3BDORL6HKKZHMTYWD6BFF6WBDQ9CRF","","null","<img src=""img/land4.png"" style=""width:200px; border:14px solid green;"">","null","","","","","","","","","",""
"","image-keyboard-response","324","241166","0.0-324.0","3U4J9857OFXQGPK5HUMGOOVH1YAB71","A3POD149IG0DIW","3BDORL6HKKZHMTYWD6BFF6WBDQ9CRF","","557.1999999992549","img/land1.png","74","563.6999999992549","1","1","3","1","1,0.5,0.5,0.5,1,0.5,0.5,0.5,1","1,0.5,0.5,0.5,1,0.5,0.5,0.5,1","1","",""
"","html-keyboard-response","325","241472","0.0-325.0","3U4J9857OFXQGPK5HUMGOOVH1YAB71","A3POD149IG0DIW","3BDORL6HKKZHMTYWD6BFF6WBDQ9CRF","","null","<img src=""img/land1.png"" style=""width:200px; border:14px solid green;"">","null","","","","","","","","","",""
"","image-keyboard-response","326","241973","0.0-326.0","3U4J9857OFXQGPK5HUMGOOVH1YAB71","A3POD149IG0DIW","3BDORL6HKKZHMTYWD6BFF6WBDQ9CRF","","493.80000000074506","img/land4.png","74","499.80000000074506","1","1","1","1","1,0.5,0.5,0.5,1,0.5,0.5,0.5,1","1,0.5,0.5,0.5,1,0.5,0.5,0.5,1","1","",""
"","html-keyboard-response","327","242277","0.0-327.0","3U4J9857OFXQGPK5HUMGOOVH1YAB71","A3POD149IG0DIW","3BDORL6HKKZHMTYWD6BFF6WBDQ9CRF","","null","<img src=""img/land4.png"" style=""width:200px; border:14px solid green;"">","null","","","","","","","","","",""
"","image-keyboard-response","328","242865","0.0-328.0","3U4J9857OFXQGPK5HUMGOOVH1YAB71","A3POD149IG0DIW","3BDORL6HKKZHMTYWD6BFF6WBDQ9CRF","","584.1999999992549","img/land1.png","74","588.3000000007451","1","1","3","1","1,0.5,0.5,0.5,1,0.5,0.5,0.5,1","1,0.5,0.5,0.5,1,0.5,0.5,0.5,1","1","",""
"","html-keyboard-response","329","243172","0.0-329.0","3U4J9857OFXQGPK5HUMGOOVH1YAB71","A3POD149IG0DIW","3BDORL6HKKZHMTYWD6BFF6WBDQ9CRF","","null","<img src=""img/land1.png"" style=""width:200px; border:14px solid green;"">","null","","","","","","","","","",""
"","image-keyboard-response","330","243677","0.0-330.0","3U4J9857OFXQGPK5HUMGOOVH1YAB71","A3POD149IG0DIW","3BDORL6HKKZHMTYWD6BFF6WBDQ9CRF","","498.40000000037253","img/land1.png","74","503.80000000074506","1","0","3","1","1,0.5,0.5,0.5,1,0.5,0.5,0.5,1","1,0.5,0.5,0.5,1,0.5,0.5,0.5,1","1","",""
"","html-keyboard-response","331","243986","0.0-331.0","3U4J9857OFXQGPK5HUMGOOVH1YAB71","A3POD149IG0DIW","3BDORL6HKKZHMTYWD6BFF6WBDQ9CRF","","null","<img src=""img/land1.png"" style=""width:200px;border:14px solid red;"">","null","","","","","","","","","",""
"","image-keyboard-response","332","244325","0.0-332.0","3U4J9857OFXQGPK5HUMGOOVH1YAB71","A3POD149IG0DIW","3BDORL6HKKZHMTYWD6BFF6WBDQ9CRF","","332.69999999925494","img/land1.png","75","336.80000000074506","2","0","3","1","1,0.5,0.5,0.5,1,0.5,0.5,0.5,1","1,0.5,0.5,0.5,1,0.5,0.5,0.5,1","1","",""
"","html-keyboard-response","333","244629","0.0-333.0","3U4J9857OFXQGPK5HUMGOOVH1YAB71","A3POD149IG0DIW","3BDORL6HKKZHMTYWD6BFF6WBDQ9CRF","","null","<img src=""img/land1.png"" style=""width:200px;border:14px solid red;"">","null","","","","","","","","","",""
"","image-keyboard-response","334","245103","0.0-334.0","3U4J9857OFXQGPK5HUMGOOVH1YAB71","A3POD149IG0DIW","3BDORL6HKKZHMTYWD6BFF6WBDQ9CRF","","468.09999999962747","img/land1.png","74","473.09999999962747","1","0","3","1","1,0.5,0.5,0.5,1,0.5,0.5,0.5,1","1,0.5,0.5,0.5,1,0.5,0.5,0.5,1","1","",""
"","html-keyboard-response","335","245412","0.0-335.0","3U4J9857OFXQGPK5HUMGOOVH1YAB71","A3POD149IG0DIW","3BDORL6HKKZHMTYWD6BFF6WBDQ9CRF","","null","<img src=""img/land1.png"" style=""width:200px;border:14px solid red;"">","null","","","","","","","","","",""
"","image-keyboard-response","336","246325","0.0-336.0","3U4J9857OFXQGPK5HUMGOOVH1YAB71","A3POD149IG0DIW","3BDORL6HKKZHMTYWD6BFF6WBDQ9CRF","","907","img/land5.png","75","911.1999999992549","2","1","2","1","1,0.5,0.5,0.5,1,0.5,0.5,0.5,1","1,0.5,0.5,0.5,1,0.5,0.5,0.5,1","1","",""
"","html-keyboard-response","337","246629","0.0-337.0","3U4J9857OFXQGPK5HUMGOOVH1YAB71","A3POD149IG0DIW","3BDORL6HKKZHMTYWD6BFF6WBDQ9CRF","","null","<img src=""img/land5.png"" style=""width:200px; border:14px solid green;"">","null","","","","","","","","","",""
"","image-keyboard-response","338","247339","0.0-338.0","3U4J9857OFXQGPK5HUMGOOVH1YAB71","A3POD149IG0DIW","3BDORL6HKKZHMTYWD6BFF6WBDQ9CRF","","704.5999999996275","img/land4.png","75","708.5","2","0","1","1","1,0.5,0.5,0.5,1,0.5,0.5,0.5,1","1,0.5,0.5,0.5,1,0.5,0.5,0.5,1","1","",""
"","html-keyboard-response","339","247646","0.0-339.0","3U4J9857OFXQGPK5HUMGOOVH1YAB71","A3POD149IG0DIW","3BDORL6HKKZHMTYWD6BFF6WBDQ9CRF","","null","<img src=""img/land4.png"" style=""width:200px;border:14px solid red;"">","null","","","","","","","","","",""
"","image-keyboard-response","340","247967","0.0-340.0","3U4J9857OFXQGPK5HUMGOOVH1YAB71","A3POD149IG0DIW","3BDORL6HKKZHMTYWD6BFF6WBDQ9CRF","","313.6000000014901","img/land5.png","74","319.80000000074506","1","0","2","1","1,0.5,0.5,0.5,1,0.5,0.5,0.5,1","1,0.5,0.5,0.5,1,0.5,0.5,0.5,1","1","",""
"","html-keyboard-response","341","248274","0.0-341.0","3U4J9857OFXQGPK5HUMGOOVH1YAB71","A3POD149IG0DIW","3BDORL6HKKZHMTYWD6BFF6WBDQ9CRF","","null","<img src=""img/land5.png"" style=""width:200px;border:14px solid red;"">","null","","","","","","","","","",""
"","image-keyboard-response","342","248658","0.0-342.0","3U4J9857OFXQGPK5HUMGOOVH1YAB71","A3POD149IG0DIW","3BDORL6HKKZHMTYWD6BFF6WBDQ9CRF","","377.40000000037253","img/land4.png","76","382.30000000074506","3","1","1","1","1,0.5,0.5,0.5,1,0.5,0.5,0.5,1","1,0.5,0.5,0.5,1,0.5,0.5,0.5,1","1","",""
"","html-keyboard-response","343","248965","0.0-343.0","3U4J9857OFXQGPK5HUMGOOVH1YAB71","A3POD149IG0DIW","3BDORL6HKKZHMTYWD6BFF6WBDQ9CRF","","null","<img src=""img/land4.png"" style=""width:200px; border:14px solid green;"">","null","","","","","","","","","",""
"","image-keyboard-response","344","249335","0.0-344.0","3U4J9857OFXQGPK5HUMGOOVH1YAB71","A3POD149IG0DIW","3BDORL6HKKZHMTYWD6BFF6WBDQ9CRF","","364.59999999962747","img/land1.png","76","369","3","1","3","1","1,0.5,0.5,0.5,1,0.5,0.5,0.5,1","1,0.5,0.5,0.5,1,0.5,0.5,0.5,1","1","",""
"","html-keyboard-response","345","249639","0.0-345.0","3U4J9857OFXQGPK5HUMGOOVH1YAB71","A3POD149IG0DIW","3BDORL6HKKZHMTYWD6BFF6WBDQ9CRF","","null","<img src=""img/land1.png"" style=""width:200px; border:14px solid green;"">","null","","","","","","","","","",""
"","image-keyboard-response","346","250023","0.0-346.0","3U4J9857OFXQGPK5HUMGOOVH1YAB71","A3POD149IG0DIW","3BDORL6HKKZHMTYWD6BFF6WBDQ9CRF","","380.09999999962747","img/land5.png","76","383","3","0","2","1","1,0.5,0.5,0.5,1,0.5,0.5,0.5,1","1,0.5,0.5,0.5,1,0.5,0.5,0.5,1","1","",""
"","html-keyboard-response","347","250328","0.0-347.0","3U4J9857OFXQGPK5HUMGOOVH1YAB71","A3POD149IG0DIW","3BDORL6HKKZHMTYWD6BFF6WBDQ9CRF","","null","<img src=""img/land5.png"" style=""width:200px;border:14px solid red;"">","null","","","","","","","","","",""
"","image-keyboard-response","348","250827","0.0-348.0","3U4J9857OFXQGPK5HUMGOOVH1YAB71","A3POD149IG0DIW","3BDORL6HKKZHMTYWD6BFF6WBDQ9CRF","","495.2999999988824","img/land4.png","74","498","1","1","1","1","1,0.5,0.5,0.5,1,0.5,0.5,0.5,1","1,0.5,0.5,0.5,1,0.5,0.5,0.5,1","1","",""
"","html-keyboard-response","349","251135","0.0-349.0","3U4J9857OFXQGPK5HUMGOOVH1YAB71","A3POD149IG0DIW","3BDORL6HKKZHMTYWD6BFF6WBDQ9CRF","","null","<img src=""img/land4.png"" style=""width:200px; border:14px solid green;"">","null","","","","","","","","","",""
"","image-keyboard-response","350","251757","0.0-350.0","3U4J9857OFXQGPK5HUMGOOVH1YAB71","A3POD149IG0DIW","3BDORL6HKKZHMTYWD6BFF6WBDQ9CRF","","615","img/land5.png","74","621.5","1","1","2","1","1,0.5,0.5,0.5,1,0.5,0.5,0.5,1","1,0.5,0.5,0.5,1,0.5,0.5,0.5,1","1","",""
"","html-keyboard-response","351","252061","0.0-351.0","3U4J9857OFXQGPK5HUMGOOVH1YAB71","A3POD149IG0DIW","3BDORL6HKKZHMTYWD6BFF6WBDQ9CRF","","null","<img src=""img/land5.png"" style=""width:200px; border:14px solid green;"">","null","","","","","","","","","",""
"","image-keyboard-response","352","252562","0.0-352.0","3U4J9857OFXQGPK5HUMGOOVH1YAB71","A3POD149IG0DIW","3BDORL6HKKZHMTYWD6BFF6WBDQ9CRF","","495.80000000074506","img/land1.png","74","499.90000000037253","1","1","3","1","1,0.5,0.5,0.5,1,0.5,0.5,0.5,1","1,0.5,0.5,0.5,1,0.5,0.5,0.5,1","1","",""
"","html-keyboard-response","353","252870","0.0-353.0","3U4J9857OFXQGPK5HUMGOOVH1YAB71","A3POD149IG0DIW","3BDORL6HKKZHMTYWD6BFF6WBDQ9CRF","","null","<img src=""img/land1.png"" style=""width:200px; border:14px solid green;"">","null","","","","","","","","","",""
"","image-keyboard-response","354","253277","0.0-354.0","3U4J9857OFXQGPK5HUMGOOVH1YAB71","A3POD149IG0DIW","3BDORL6HKKZHMTYWD6BFF6WBDQ9CRF","","399.80000000074506","img/land1.png","74","404.7999999988824","1","1","3","1","1,0.5,0.5,0.5,1,0.5,0.5,0.5,1","1,0.5,0.5,0.5,1,0.5,0.5,0.5,1","1","",""
"","html-keyboard-response","355","253582","0.0-355.0","3U4J9857OFXQGPK5HUMGOOVH1YAB71","A3POD149IG0DIW","3BDORL6HKKZHMTYWD6BFF6WBDQ9CRF","","null","<img src=""img/land1.png"" style=""width:200px; border:14px solid green;"">","null","","","","","","","","","",""
"","image-keyboard-response","356","254040","0.0-356.0","3U4J9857OFXQGPK5HUMGOOVH1YAB71","A3POD149IG0DIW","3BDORL6HKKZHMTYWD6BFF6WBDQ9CRF","","450.40000000037253","img/land4.png","74","456.40000000037253","1","1","1","1","1,0.5,0.5,0.5,1,0.5,0.5,0.5,1","1,0.5,0.5,0.5,1,0.5,0.5,0.5,1","1","",""
"","html-keyboard-response","357","254346","0.0-357.0","3U4J9857OFXQGPK5HUMGOOVH1YAB71","A3POD149IG0DIW","3BDORL6HKKZHMTYWD6BFF6WBDQ9CRF","","null","<img src=""img/land4.png"" style=""width:200px; border:14px solid green;"">","null","","","","","","","","","",""
"","image-keyboard-response","358","255099","0.0-358.0","3U4J9857OFXQGPK5HUMGOOVH1YAB71","A3POD149IG0DIW","3BDORL6HKKZHMTYWD6BFF6WBDQ9CRF","","746.7000000011176","img/land5.png","76","751.6000000014901","3","1","2","1","1,0.5,0.5,0.5,1,0.5,0.5,0.5,1","1,0.5,0.5,0.5,1,0.5,0.5,0.5,1","1","",""
"","html-keyboard-response","359","255405","0.0-359.0","3U4J9857OFXQGPK5HUMGOOVH1YAB71","A3POD149IG0DIW","3BDORL6HKKZHMTYWD6BFF6WBDQ9CRF","","null","<img src=""img/land5.png"" style=""width:200px; border:14px solid green;"">","null","","","","","","","","","",""
"","image-keyboard-response","360","256225","0.0-360.0","3U4J9857OFXQGPK5HUMGOOVH1YAB71","A3POD149IG0DIW","3BDORL6HKKZHMTYWD6BFF6WBDQ9CRF","","813.1999999992549","img/land4.png","76","819.8000000007451","3","1","1","1","1,0.5,0.5,0.5,1,0.5,0.5,0.5,1","1,0.5,0.5,0.5,1,0.5,0.5,0.5,1","1","",""
