"success","trial_type","trial_index","time_elapsed","internal_node_id","assignmentID","mturkID","hitID","view_history","rt","stimulus","key_press","reactionTime","a","r","warning","s","reward_cond","responses","question_order"
"true","fullscreen","0","74095","0.0-0.0","3HRMW88U17C8H5OINKRGNPWO2HLM07","A3PRQ2GSU42718","3SA4EMRVJVOCGON1OYE6FAUV3AFP0G","","","","","","","","","","","",""
"","instructions","1","120420","0.0-1.0","3HRMW88U17C8H5OINKRGNPWO2HLM07","A3PRQ2GSU42718","3SA4EMRVJVOCGON1OYE6FAUV3AFP0G","[{""page_index"":0,""viewing_time"":17765},{""page_index"":1,""viewing_time"":4870},{""page_index"":2,""viewing_time"":1262},{""page_index"":3,""viewing_time"":1170},{""page_index"":4,""viewing_time"":8541},{""page_index"":5,""viewing_time"":1998},{""page_index"":6,""viewing_time"":6418},{""page_index"":7,""viewing_time"":4297}]","46321","","","","","","","","","",""
"","image-keyboard-response","2","121427","0.0-2.0","3HRMW88U17C8H5OINKRGNPWO2HLM07","A3PRQ2GSU42718","3SA4EMRVJVOCGON1OYE6FAUV3AFP0G","","","img/land3.png","","1008","-1","0","true","2","0.8,0.2,0.2,0.2,0.8,0.2,0.2,0.2,0.8","",""
"","html-keyboard-response","3","121747","0.0-3.0","3HRMW88U17C8H5OINKRGNPWO2HLM07","A3PRQ2GSU42718","3SA4EMRVJVOCGON1OYE6FAUV3AFP0G","","null","<img src=""img/land3.png"" style=""width:200px;border:14px solid red;"">","null","","","","","","","",""
"","html-keyboard-response","4","125487","0.0-4.0-0.0","3HRMW88U17C8H5OINKRGNPWO2HLM07","A3PRQ2GSU42718","3SA4EMRVJVOCGON1OYE6FAUV3AFP0G","","","","","","","","","","","",""
"","image-keyboard-response","5","126226","0.0-5.0","3HRMW88U17C8H5OINKRGNPWO2HLM07","A3PRQ2GSU42718","3SA4EMRVJVOCGON1OYE6FAUV3AFP0G","","737","img/land3.png","74","739","1","0","false","2","0.8,0.2,0.2,0.2,0.8,0.2,0.2,0.2,0.8","",""
"","html-keyboard-response","6","126530","0.0-6.0","3HRMW88U17C8H5OINKRGNPWO2HLM07","A3PRQ2GSU42718","3SA4EMRVJVOCGON1OYE6FAUV3AFP0G","","null","<img src=""img/land3.png"" style=""width:200px;border:14px solid red;"">","null","","","","","","","",""
"","image-keyboard-response","7","127161","0.0-8.0","3HRMW88U17C8H5OINKRGNPWO2HLM07","A3PRQ2GSU42718","3SA4EMRVJVOCGON1OYE6FAUV3AFP0G","","628","img/land9.png","74","630","1","1","false","1","0.8,0.2,0.2,0.2,0.8,0.2,0.2,0.2,0.8","",""
"","html-keyboard-response","8","127478","0.0-9.0","3HRMW88U17C8H5OINKRGNPWO2HLM07","A3PRQ2GSU42718","3SA4EMRVJVOCGON1OYE6FAUV3AFP0G","","null","<img src=""img/land9.png"" style=""width:200px; border:14px solid green;"">","null","","","","","","","",""
"","image-keyboard-response","9","128053","0.0-11.0","3HRMW88U17C8H5OINKRGNPWO2HLM07","A3PRQ2GSU42718","3SA4EMRVJVOCGON1OYE6FAUV3AFP0G","","573","img/land9.png","74","574","1","1","false","1","0.8,0.2,0.2,0.2,0.8,0.2,0.2,0.2,0.8","",""
"","html-keyboard-response","10","128379","0.0-12.0","3HRMW88U17C8H5OINKRGNPWO2HLM07","A3PRQ2GSU42718","3SA4EMRVJVOCGON1OYE6FAUV3AFP0G","","null","<img src=""img/land9.png"" style=""width:200px; border:14px solid green;"">","null","","","","","","","",""
"","image-keyboard-response","11","128847","0.0-14.0","3HRMW88U17C8H5OINKRGNPWO2HLM07","A3PRQ2GSU42718","3SA4EMRVJVOCGON1OYE6FAUV3AFP0G","","466","img/land9.png","74","468","1","1","false","1","0.8,0.2,0.2,0.2,0.8,0.2,0.2,0.2,0.8","",""
"","html-keyboard-response","12","129164","0.0-15.0","3HRMW88U17C8H5OINKRGNPWO2HLM07","A3PRQ2GSU42718","3SA4EMRVJVOCGON1OYE6FAUV3AFP0G","","null","<img src=""img/land9.png"" style=""width:200px; border:14px solid green;"">","null","","","","","","","",""
"","image-keyboard-response","13","129793","0.0-17.0","3HRMW88U17C8H5OINKRGNPWO2HLM07","A3PRQ2GSU42718","3SA4EMRVJVOCGON1OYE6FAUV3AFP0G","","627","img/land5.png","74","628","1","0","false","3","0.8,0.2,0.2,0.2,0.8,0.2,0.2,0.2,0.8","",""
"","html-keyboard-response","14","130097","0.0-18.0","3HRMW88U17C8H5OINKRGNPWO2HLM07","A3PRQ2GSU42718","3SA4EMRVJVOCGON1OYE6FAUV3AFP0G","","null","<img src=""img/land5.png"" style=""width:200px;border:14px solid red;"">","null","","","","","","","",""
"","image-keyboard-response","15","130853","0.0-20.0","3HRMW88U17C8H5OINKRGNPWO2HLM07","A3PRQ2GSU42718","3SA4EMRVJVOCGON1OYE6FAUV3AFP0G","","754","img/land9.png","75","754","2","0","false","1","0.8,0.2,0.2,0.2,0.8,0.2,0.2,0.2,0.8","",""
"","html-keyboard-response","16","131177","0.0-21.0","3HRMW88U17C8H5OINKRGNPWO2HLM07","A3PRQ2GSU42718","3SA4EMRVJVOCGON1OYE6FAUV3AFP0G","","null","<img src=""img/land9.png"" style=""width:200px;border:14px solid red;"">","null","","","","","","","",""
"","image-keyboard-response","17","131593","0.0-23.0","3HRMW88U17C8H5OINKRGNPWO2HLM07","A3PRQ2GSU42718","3SA4EMRVJVOCGON1OYE6FAUV3AFP0G","","414","img/land5.png","75","414","2","0","false","3","0.8,0.2,0.2,0.2,0.8,0.2,0.2,0.2,0.8","",""
"","html-keyboard-response","18","131894","0.0-24.0","3HRMW88U17C8H5OINKRGNPWO2HLM07","A3PRQ2GSU42718","3SA4EMRVJVOCGON1OYE6FAUV3AFP0G","","null","<img src=""img/land5.png"" style=""width:200px;border:14px solid red;"">","null","","","","","","","",""
"","image-keyboard-response","19","132316","0.0-26.0","3HRMW88U17C8H5OINKRGNPWO2HLM07","A3PRQ2GSU42718","3SA4EMRVJVOCGON1OYE6FAUV3AFP0G","","420","img/land3.png","76","422","3","0","false","2","0.8,0.2,0.2,0.2,0.8,0.2,0.2,0.2,0.8","",""
"","html-keyboard-response","20","132627","0.0-27.0","3HRMW88U17C8H5OINKRGNPWO2HLM07","A3PRQ2GSU42718","3SA4EMRVJVOCGON1OYE6FAUV3AFP0G","","null","<img src=""img/land3.png"" style=""width:200px;border:14px solid red;"">","null","","","","","","","",""
"","image-keyboard-response","21","132980","0.0-29.0","3HRMW88U17C8H5OINKRGNPWO2HLM07","A3PRQ2GSU42718","3SA4EMRVJVOCGON1OYE6FAUV3AFP0G","","350","img/land9.png","74","352","1","0","false","1","0.8,0.2,0.2,0.2,0.8,0.2,0.2,0.2,0.8","",""
"","html-keyboard-response","22","133287","0.0-30.0","3HRMW88U17C8H5OINKRGNPWO2HLM07","A3PRQ2GSU42718","3SA4EMRVJVOCGON1OYE6FAUV3AFP0G","","null","<img src=""img/land9.png"" style=""width:200px;border:14px solid red;"">","null","","","","","","","",""
"","image-keyboard-response","23","133687","0.0-32.0","3HRMW88U17C8H5OINKRGNPWO2HLM07","A3PRQ2GSU42718","3SA4EMRVJVOCGON1OYE6FAUV3AFP0G","","397","img/land9.png","75","399","2","0","false","1","0.8,0.2,0.2,0.2,0.8,0.2,0.2,0.2,0.8","",""
"","html-keyboard-response","24","133999","0.0-33.0","3HRMW88U17C8H5OINKRGNPWO2HLM07","A3PRQ2GSU42718","3SA4EMRVJVOCGON1OYE6FAUV3AFP0G","","null","<img src=""img/land9.png"" style=""width:200px;border:14px solid red;"">","null","","","","","","","",""
"","image-keyboard-response","25","134302","0.0-35.0","3HRMW88U17C8H5OINKRGNPWO2HLM07","A3PRQ2GSU42718","3SA4EMRVJVOCGON1OYE6FAUV3AFP0G","","301","img/land3.png","76","302","3","1","false","2","0.8,0.2,0.2,0.2,0.8,0.2,0.2,0.2,0.8","",""
"","html-keyboard-response","26","134613","0.0-36.0","3HRMW88U17C8H5OINKRGNPWO2HLM07","A3PRQ2GSU42718","3SA4EMRVJVOCGON1OYE6FAUV3AFP0G","","null","<img src=""img/land3.png"" style=""width:200px; border:14px solid green;"">","null","","","","","","","",""
"","image-keyboard-response","27","135062","0.0-38.0","3HRMW88U17C8H5OINKRGNPWO2HLM07","A3PRQ2GSU42718","3SA4EMRVJVOCGON1OYE6FAUV3AFP0G","","445","img/land5.png","76","447","3","1","false","3","0.8,0.2,0.2,0.2,0.8,0.2,0.2,0.2,0.8","",""
"","html-keyboard-response","28","135368","0.0-39.0","3HRMW88U17C8H5OINKRGNPWO2HLM07","A3PRQ2GSU42718","3SA4EMRVJVOCGON1OYE6FAUV3AFP0G","","null","<img src=""img/land5.png"" style=""width:200px; border:14px solid green;"">","null","","","","","","","",""
"","image-keyboard-response","29","135746","0.0-41.0","3HRMW88U17C8H5OINKRGNPWO2HLM07","A3PRQ2GSU42718","3SA4EMRVJVOCGON1OYE6FAUV3AFP0G","","377","img/land9.png","76","378","3","0","false","1","0.8,0.2,0.2,0.2,0.8,0.2,0.2,0.2,0.8","",""
"","html-keyboard-response","30","136063","0.0-42.0","3HRMW88U17C8H5OINKRGNPWO2HLM07","A3PRQ2GSU42718","3SA4EMRVJVOCGON1OYE6FAUV3AFP0G","","null","<img src=""img/land9.png"" style=""width:200px;border:14px solid red;"">","null","","","","","","","",""
"","image-keyboard-response","31","136416","0.0-44.0","3HRMW88U17C8H5OINKRGNPWO2HLM07","A3PRQ2GSU42718","3SA4EMRVJVOCGON1OYE6FAUV3AFP0G","","351","img/land5.png","74","351","1","0","false","3","0.8,0.2,0.2,0.2,0.8,0.2,0.2,0.2,0.8","",""
"","html-keyboard-response","32","136723","0.0-45.0","3HRMW88U17C8H5OINKRGNPWO2HLM07","A3PRQ2GSU42718","3SA4EMRVJVOCGON1OYE6FAUV3AFP0G","","null","<img src=""img/land5.png"" style=""width:200px;border:14px solid red;"">","null","","","","","","","",""
"","image-keyboard-response","33","137024","0.0-47.0","3HRMW88U17C8H5OINKRGNPWO2HLM07","A3PRQ2GSU42718","3SA4EMRVJVOCGON1OYE6FAUV3AFP0G","","299","img/land9.png","75","300","2","0","false","1","0.8,0.2,0.2,0.2,0.8,0.2,0.2,0.2,0.8","",""
"","html-keyboard-response","34","137335","0.0-48.0","3HRMW88U17C8H5OINKRGNPWO2HLM07","A3PRQ2GSU42718","3SA4EMRVJVOCGON1OYE6FAUV3AFP0G","","null","<img src=""img/land9.png"" style=""width:200px;border:14px solid red;"">","null","","","","","","","",""
"","image-keyboard-response","35","137645","0.0-50.0","3HRMW88U17C8H5OINKRGNPWO2HLM07","A3PRQ2GSU42718","3SA4EMRVJVOCGON1OYE6FAUV3AFP0G","","308","img/land5.png","76","308","3","1","false","3","0.8,0.2,0.2,0.2,0.8,0.2,0.2,0.2,0.8","",""
"","html-keyboard-response","36","137956","0.0-51.0","3HRMW88U17C8H5OINKRGNPWO2HLM07","A3PRQ2GSU42718","3SA4EMRVJVOCGON1OYE6FAUV3AFP0G","","null","<img src=""img/land5.png"" style=""width:200px; border:14px solid green;"">","null","","","","","","","",""
"","image-keyboard-response","37","138357","0.0-53.0","3HRMW88U17C8H5OINKRGNPWO2HLM07","A3PRQ2GSU42718","3SA4EMRVJVOCGON1OYE6FAUV3AFP0G","","400","img/land5.png","76","400","3","1","false","3","0.8,0.2,0.2,0.2,0.8,0.2,0.2,0.2,0.8","",""
"","html-keyboard-response","38","138672","0.0-54.0","3HRMW88U17C8H5OINKRGNPWO2HLM07","A3PRQ2GSU42718","3SA4EMRVJVOCGON1OYE6FAUV3AFP0G","","null","<img src=""img/land5.png"" style=""width:200px; border:14px solid green;"">","null","","","","","","","",""
"","image-keyboard-response","39","138944","0.0-56.0","3HRMW88U17C8H5OINKRGNPWO2HLM07","A3PRQ2GSU42718","3SA4EMRVJVOCGON1OYE6FAUV3AFP0G","","271","img/land5.png","76","272","3","1","false","3","0.8,0.2,0.2,0.2,0.8,0.2,0.2,0.2,0.8","",""
"","html-keyboard-response","40","139261","0.0-57.0","3HRMW88U17C8H5OINKRGNPWO2HLM07","A3PRQ2GSU42718","3SA4EMRVJVOCGON1OYE6FAUV3AFP0G","","null","<img src=""img/land5.png"" style=""width:200px; border:14px solid green;"">","null","","","","","","","",""
"","image-keyboard-response","41","139529","0.0-59.0","3HRMW88U17C8H5OINKRGNPWO2HLM07","A3PRQ2GSU42718","3SA4EMRVJVOCGON1OYE6FAUV3AFP0G","","266","img/land9.png","76","268","3","0","false","1","0.8,0.2,0.2,0.2,0.8,0.2,0.2,0.2,0.8","",""
"","html-keyboard-response","42","139841","0.0-60.0","3HRMW88U17C8H5OINKRGNPWO2HLM07","A3PRQ2GSU42718","3SA4EMRVJVOCGON1OYE6FAUV3AFP0G","","null","<img src=""img/land9.png"" style=""width:200px;border:14px solid red;"">","null","","","","","","","",""
"","image-keyboard-response","43","140102","0.0-62.0","3HRMW88U17C8H5OINKRGNPWO2HLM07","A3PRQ2GSU42718","3SA4EMRVJVOCGON1OYE6FAUV3AFP0G","","260","img/land5.png","76","262","3","1","false","3","0.8,0.2,0.2,0.2,0.8,0.2,0.2,0.2,0.8","",""
"","html-keyboard-response","44","140427","0.0-63.0","3HRMW88U17C8H5OINKRGNPWO2HLM07","A3PRQ2GSU42718","3SA4EMRVJVOCGON1OYE6FAUV3AFP0G","","null","<img src=""img/land5.png"" style=""width:200px; border:14px solid green;"">","null","","","","","","","",""
"","image-keyboard-response","45","141000","0.0-65.0","3HRMW88U17C8H5OINKRGNPWO2HLM07","A3PRQ2GSU42718","3SA4EMRVJVOCGON1OYE6FAUV3AFP0G","","571","img/land9.png","76","573","3","0","false","1","0.8,0.2,0.2,0.2,0.8,0.2,0.2,0.2,0.8","",""
"","html-keyboard-response","46","141315","0.0-66.0","3HRMW88U17C8H5OINKRGNPWO2HLM07","A3PRQ2GSU42718","3SA4EMRVJVOCGON1OYE6FAUV3AFP0G","","null","<img src=""img/land9.png"" style=""width:200px;border:14px solid red;"">","null","","","","","","","",""
"","image-keyboard-response","47","141604","0.0-68.0","3HRMW88U17C8H5OINKRGNPWO2HLM07","A3PRQ2GSU42718","3SA4EMRVJVOCGON1OYE6FAUV3AFP0G","","288","img/land5.png","75","289","2","0","false","3","0.8,0.2,0.2,0.2,0.8,0.2,0.2,0.2,0.8","",""
"","html-keyboard-response","48","141911","0.0-69.0","3HRMW88U17C8H5OINKRGNPWO2HLM07","A3PRQ2GSU42718","3SA4EMRVJVOCGON1OYE6FAUV3AFP0G","","null","<img src=""img/land5.png"" style=""width:200px;border:14px solid red;"">","null","","","","","","","",""
"","image-keyboard-response","49","142170","0.0-71.0","3HRMW88U17C8H5OINKRGNPWO2HLM07","A3PRQ2GSU42718","3SA4EMRVJVOCGON1OYE6FAUV3AFP0G","","257","img/land5.png","74","258","1","0","false","3","0.8,0.2,0.2,0.2,0.8,0.2,0.2,0.2,0.8","",""
"","html-keyboard-response","50","142477","0.0-72.0","3HRMW88U17C8H5OINKRGNPWO2HLM07","A3PRQ2GSU42718","3SA4EMRVJVOCGON1OYE6FAUV3AFP0G","","null","<img src=""img/land5.png"" style=""width:200px;border:14px solid red;"">","null","","","","","","","",""
"","image-keyboard-response","51","142827","0.0-74.0","3HRMW88U17C8H5OINKRGNPWO2HLM07","A3PRQ2GSU42718","3SA4EMRVJVOCGON1OYE6FAUV3AFP0G","","347","img/land3.png","74","349","1","0","false","2","0.8,0.2,0.2,0.2,0.8,0.2,0.2,0.2,0.8","",""
"","html-keyboard-response","52","143145","0.0-75.0","3HRMW88U17C8H5OINKRGNPWO2HLM07","A3PRQ2GSU42718","3SA4EMRVJVOCGON1OYE6FAUV3AFP0G","","null","<img src=""img/land3.png"" style=""width:200px;border:14px solid red;"">","null","","","","","","","",""
"","image-keyboard-response","53","143350","0.0-77.0","3HRMW88U17C8H5OINKRGNPWO2HLM07","A3PRQ2GSU42718","3SA4EMRVJVOCGON1OYE6FAUV3AFP0G","","203","img/land9.png","74","204","1","1","false","1","0.8,0.2,0.2,0.2,0.8,0.2,0.2,0.2,0.8","",""
"","html-keyboard-response","54","143663","0.0-78.0","3HRMW88U17C8H5OINKRGNPWO2HLM07","A3PRQ2GSU42718","3SA4EMRVJVOCGON1OYE6FAUV3AFP0G","","null","<img src=""img/land9.png"" style=""width:200px; border:14px solid green;"">","null","","","","","","","",""
"","image-keyboard-response","55","144213","0.0-80.0","3HRMW88U17C8H5OINKRGNPWO2HLM07","A3PRQ2GSU42718","3SA4EMRVJVOCGON1OYE6FAUV3AFP0G","","548","img/land5.png","74","550","1","0","false","3","0.8,0.2,0.2,0.2,0.8,0.2,0.2,0.2,0.8","",""
"","html-keyboard-response","56","144519","0.0-81.0","3HRMW88U17C8H5OINKRGNPWO2HLM07","A3PRQ2GSU42718","3SA4EMRVJVOCGON1OYE6FAUV3AFP0G","","null","<img src=""img/land5.png"" style=""width:200px;border:14px solid red;"">","null","","","","","","","",""
"","image-keyboard-response","57","144811","0.0-83.0","3HRMW88U17C8H5OINKRGNPWO2HLM07","A3PRQ2GSU42718","3SA4EMRVJVOCGON1OYE6FAUV3AFP0G","","290","img/land5.png","76","291","3","1","false","3","0.8,0.2,0.2,0.2,0.8,0.2,0.2,0.2,0.8","",""
"","html-keyboard-response","58","145119","0.0-84.0","3HRMW88U17C8H5OINKRGNPWO2HLM07","A3PRQ2GSU42718","3SA4EMRVJVOCGON1OYE6FAUV3AFP0G","","null","<img src=""img/land5.png"" style=""width:200px; border:14px solid green;"">","null","","","","","","","",""
"","image-keyboard-response","59","145668","0.0-86.0","3HRMW88U17C8H5OINKRGNPWO2HLM07","A3PRQ2GSU42718","3SA4EMRVJVOCGON1OYE6FAUV3AFP0G","","548","img/land9.png","75","549","2","0","false","1","0.8,0.2,0.2,0.2,0.8,0.2,0.2,0.2,0.8","",""
"","html-keyboard-response","60","145980","0.0-87.0","3HRMW88U17C8H5OINKRGNPWO2HLM07","A3PRQ2GSU42718","3SA4EMRVJVOCGON1OYE6FAUV3AFP0G","","null","<img src=""img/land9.png"" style=""width:200px;border:14px solid red;"">","null","","","","","","","",""
"","image-keyboard-response","61","146224","0.0-89.0","3HRMW88U17C8H5OINKRGNPWO2HLM07","A3PRQ2GSU42718","3SA4EMRVJVOCGON1OYE6FAUV3AFP0G","","243","img/land9.png","76","243","3","0","false","1","0.8,0.2,0.2,0.2,0.8,0.2,0.2,0.2,0.8","",""
"","html-keyboard-response","62","146532","0.0-90.0","3HRMW88U17C8H5OINKRGNPWO2HLM07","A3PRQ2GSU42718","3SA4EMRVJVOCGON1OYE6FAUV3AFP0G","","null","<img src=""img/land9.png"" style=""width:200px;border:14px solid red;"">","null","","","","","","","",""
"","image-keyboard-response","63","146709","0.0-92.0","3HRMW88U17C8H5OINKRGNPWO2HLM07","A3PRQ2GSU42718","3SA4EMRVJVOCGON1OYE6FAUV3AFP0G","","175","img/land9.png","74","176","1","1","false","1","0.8,0.2,0.2,0.2,0.8,0.2,0.2,0.2,0.8","",""
"","html-keyboard-response","64","147028","0.0-93.0","3HRMW88U17C8H5OINKRGNPWO2HLM07","A3PRQ2GSU42718","3SA4EMRVJVOCGON1OYE6FAUV3AFP0G","","null","<img src=""img/land9.png"" style=""width:200px; border:14px solid green;"">","null","","","","","","","",""
"","image-keyboard-response","65","147281","0.0-95.0","3HRMW88U17C8H5OINKRGNPWO2HLM07","A3PRQ2GSU42718","3SA4EMRVJVOCGON1OYE6FAUV3AFP0G","","252","img/land9.png","74","252","1","0","false","1","0.8,0.2,0.2,0.2,0.8,0.2,0.2,0.2,0.8","",""
"","html-keyboard-response","66","147595","0.0-96.0","3HRMW88U17C8H5OINKRGNPWO2HLM07","A3PRQ2GSU42718","3SA4EMRVJVOCGON1OYE6FAUV3AFP0G","","null","<img src=""img/land9.png"" style=""width:200px;border:14px solid red;"">","null","","","","","","","",""
"","image-keyboard-response","67","147821","0.0-98.0","3HRMW88U17C8H5OINKRGNPWO2HLM07","A3PRQ2GSU42718","3SA4EMRVJVOCGON1OYE6FAUV3AFP0G","","225","img/land5.png","75","225","2","1","false","3","0.8,0.2,0.2,0.2,0.8,0.2,0.2,0.2,0.8","",""
"","html-keyboard-response","68","148128","0.0-99.0","3HRMW88U17C8H5OINKRGNPWO2HLM07","A3PRQ2GSU42718","3SA4EMRVJVOCGON1OYE6FAUV3AFP0G","","null","<img src=""img/land5.png"" style=""width:200px; border:14px solid green;"">","null","","","","","","","",""
"","image-keyboard-response","69","148408","0.0-101.0","3HRMW88U17C8H5OINKRGNPWO2HLM07","A3PRQ2GSU42718","3SA4EMRVJVOCGON1OYE6FAUV3AFP0G","","277","img/land5.png","75","279","2","1","false","3","0.8,0.2,0.2,0.2,0.8,0.2,0.2,0.2,0.8","",""
"","html-keyboard-response","70","148710","0.0-102.0","3HRMW88U17C8H5OINKRGNPWO2HLM07","A3PRQ2GSU42718","3SA4EMRVJVOCGON1OYE6FAUV3AFP0G","","null","<img src=""img/land5.png"" style=""width:200px; border:14px solid green;"">","null","","","","","","","",""
"","image-keyboard-response","71","148948","0.0-104.0","3HRMW88U17C8H5OINKRGNPWO2HLM07","A3PRQ2GSU42718","3SA4EMRVJVOCGON1OYE6FAUV3AFP0G","","236","img/land9.png","75","237","2","1","false","1","0.8,0.2,0.2,0.2,0.8,0.2,0.2,0.2,0.8","",""
"","html-keyboard-response","72","149264","0.0-105.0","3HRMW88U17C8H5OINKRGNPWO2HLM07","A3PRQ2GSU42718","3SA4EMRVJVOCGON1OYE6FAUV3AFP0G","","null","<img src=""img/land9.png"" style=""width:200px; border:14px solid green;"">","null","","","","","","","",""
"","image-keyboard-response","73","149512","0.0-107.0","3HRMW88U17C8H5OINKRGNPWO2HLM07","A3PRQ2GSU42718","3SA4EMRVJVOCGON1OYE6FAUV3AFP0G","","246","img/land3.png","75","248","2","1","false","2","0.8,0.2,0.2,0.2,0.8,0.2,0.2,0.2,0.8","",""
"","html-keyboard-response","74","149831","0.0-108.0","3HRMW88U17C8H5OINKRGNPWO2HLM07","A3PRQ2GSU42718","3SA4EMRVJVOCGON1OYE6FAUV3AFP0G","","null","<img src=""img/land3.png"" style=""width:200px; border:14px solid green;"">","null","","","","","","","",""
"","image-keyboard-response","75","150122","0.0-110.0","3HRMW88U17C8H5OINKRGNPWO2HLM07","A3PRQ2GSU42718","3SA4EMRVJVOCGON1OYE6FAUV3AFP0G","","288","img/land9.png","75","289","2","1","false","1","0.8,0.2,0.2,0.2,0.8,0.2,0.2,0.2,0.8","",""
"","html-keyboard-response","76","150425","0.0-111.0","3HRMW88U17C8H5OINKRGNPWO2HLM07","A3PRQ2GSU42718","3SA4EMRVJVOCGON1OYE6FAUV3AFP0G","","null","<img src=""img/land9.png"" style=""width:200px; border:14px solid green;"">","null","","","","","","","",""
"","image-keyboard-response","77","150623","0.0-113.0","3HRMW88U17C8H5OINKRGNPWO2HLM07","A3PRQ2GSU42718","3SA4EMRVJVOCGON1OYE6FAUV3AFP0G","","196","img/land9.png","75","197","2","0","false","1","0.8,0.2,0.2,0.2,0.8,0.2,0.2,0.2,0.8","",""
"","html-keyboard-response","78","150926","0.0-114.0","3HRMW88U17C8H5OINKRGNPWO2HLM07","A3PRQ2GSU42718","3SA4EMRVJVOCGON1OYE6FAUV3AFP0G","","null","<img src=""img/land9.png"" style=""width:200px;border:14px solid red;"">","null","","","","","","","",""
"","image-keyboard-response","79","151525","0.0-116.0","3HRMW88U17C8H5OINKRGNPWO2HLM07","A3PRQ2GSU42718","3SA4EMRVJVOCGON1OYE6FAUV3AFP0G","","598","img/land3.png","75","599","2","1","false","2","0.8,0.2,0.2,0.2,0.8,0.2,0.2,0.2,0.8","",""
"","html-keyboard-response","80","151840","0.0-117.0","3HRMW88U17C8H5OINKRGNPWO2HLM07","A3PRQ2GSU42718","3SA4EMRVJVOCGON1OYE6FAUV3AFP0G","","null","<img src=""img/land3.png"" style=""width:200px; border:14px solid green;"">","null","","","","","","","",""
"","image-keyboard-response","81","152048","0.0-119.0","3HRMW88U17C8H5OINKRGNPWO2HLM07","A3PRQ2GSU42718","3SA4EMRVJVOCGON1OYE6FAUV3AFP0G","","207","img/land3.png","75","208","2","1","false","2","0.8,0.2,0.2,0.2,0.8,0.2,0.2,0.2,0.8","",""
"","html-keyboard-response","82","152362","0.0-120.0","3HRMW88U17C8H5OINKRGNPWO2HLM07","A3PRQ2GSU42718","3SA4EMRVJVOCGON1OYE6FAUV3AFP0G","","null","<img src=""img/land3.png"" style=""width:200px; border:14px solid green;"">","null","","","","","","","",""
"","image-keyboard-response","83","152578","0.0-122.0","3HRMW88U17C8H5OINKRGNPWO2HLM07","A3PRQ2GSU42718","3SA4EMRVJVOCGON1OYE6FAUV3AFP0G","","213","img/land5.png","75","214","2","0","false","3","0.8,0.2,0.2,0.2,0.8,0.2,0.2,0.2,0.8","",""
"","html-keyboard-response","84","152884","0.0-123.0","3HRMW88U17C8H5OINKRGNPWO2HLM07","A3PRQ2GSU42718","3SA4EMRVJVOCGON1OYE6FAUV3AFP0G","","null","<img src=""img/land5.png"" style=""width:200px;border:14px solid red;"">","null","","","","","","","",""
"","image-keyboard-response","85","153192","0.0-125.0","3HRMW88U17C8H5OINKRGNPWO2HLM07","A3PRQ2GSU42718","3SA4EMRVJVOCGON1OYE6FAUV3AFP0G","","306","img/land3.png","75","308","2","1","false","2","0.8,0.2,0.2,0.2,0.8,0.2,0.2,0.2,0.8","",""
"","html-keyboard-response","86","153511","0.0-126.0","3HRMW88U17C8H5OINKRGNPWO2HLM07","A3PRQ2GSU42718","3SA4EMRVJVOCGON1OYE6FAUV3AFP0G","","null","<img src=""img/land3.png"" style=""width:200px; border:14px solid green;"">","null","","","","","","","",""
"","image-keyboard-response","87","153695","0.0-128.0","3HRMW88U17C8H5OINKRGNPWO2HLM07","A3PRQ2GSU42718","3SA4EMRVJVOCGON1OYE6FAUV3AFP0G","","182","img/land3.png","75","182","2","1","false","2","0.8,0.2,0.2,0.2,0.8,0.2,0.2,0.2,0.8","",""
"","html-keyboard-response","88","154003","0.0-129.0","3HRMW88U17C8H5OINKRGNPWO2HLM07","A3PRQ2GSU42718","3SA4EMRVJVOCGON1OYE6FAUV3AFP0G","","null","<img src=""img/land3.png"" style=""width:200px; border:14px solid green;"">","null","","","","","","","",""
"","image-keyboard-response","89","154229","0.0-131.0","3HRMW88U17C8H5OINKRGNPWO2HLM07","A3PRQ2GSU42718","3SA4EMRVJVOCGON1OYE6FAUV3AFP0G","","224","img/land3.png","75","225","2","1","false","2","0.8,0.2,0.2,0.2,0.8,0.2,0.2,0.2,0.8","",""
"","html-keyboard-response","90","154536","0.0-132.0","3HRMW88U17C8H5OINKRGNPWO2HLM07","A3PRQ2GSU42718","3SA4EMRVJVOCGON1OYE6FAUV3AFP0G","","null","<img src=""img/land3.png"" style=""width:200px; border:14px solid green;"">","null","","","","","","","",""
"","image-keyboard-response","91","154742","0.0-134.0","3HRMW88U17C8H5OINKRGNPWO2HLM07","A3PRQ2GSU42718","3SA4EMRVJVOCGON1OYE6FAUV3AFP0G","","205","img/land5.png","75","206","2","0","false","3","0.8,0.2,0.2,0.2,0.8,0.2,0.2,0.2,0.8","",""
"","html-keyboard-response","92","155049","0.0-135.0","3HRMW88U17C8H5OINKRGNPWO2HLM07","A3PRQ2GSU42718","3SA4EMRVJVOCGON1OYE6FAUV3AFP0G","","null","<img src=""img/land5.png"" style=""width:200px;border:14px solid red;"">","null","","","","","","","",""
"","image-keyboard-response","93","155270","0.0-137.0","3HRMW88U17C8H5OINKRGNPWO2HLM07","A3PRQ2GSU42718","3SA4EMRVJVOCGON1OYE6FAUV3AFP0G","","219","img/land3.png","75","219","2","0","false","2","0.8,0.2,0.2,0.2,0.8,0.2,0.2,0.2,0.8","",""
"","html-keyboard-response","94","155582","0.0-138.0","3HRMW88U17C8H5OINKRGNPWO2HLM07","A3PRQ2GSU42718","3SA4EMRVJVOCGON1OYE6FAUV3AFP0G","","null","<img src=""img/land3.png"" style=""width:200px;border:14px solid red;"">","null","","","","","","","",""
"","image-keyboard-response","95","155822","0.0-140.0","3HRMW88U17C8H5OINKRGNPWO2HLM07","A3PRQ2GSU42718","3SA4EMRVJVOCGON1OYE6FAUV3AFP0G","","238","img/land3.png","75","239","2","0","false","2","0.8,0.2,0.2,0.2,0.8,0.2,0.2,0.2,0.8","",""
"","html-keyboard-response","96","156130","0.0-141.0","3HRMW88U17C8H5OINKRGNPWO2HLM07","A3PRQ2GSU42718","3SA4EMRVJVOCGON1OYE6FAUV3AFP0G","","null","<img src=""img/land3.png"" style=""width:200px;border:14px solid red;"">","null","","","","","","","",""
"","image-keyboard-response","97","156261","0.0-143.0","3HRMW88U17C8H5OINKRGNPWO2HLM07","A3PRQ2GSU42718","3SA4EMRVJVOCGON1OYE6FAUV3AFP0G","","130","img/land5.png","74","132","1","0","false","3","0.8,0.2,0.2,0.2,0.8,0.2,0.2,0.2,0.8","",""
"","html-keyboard-response","98","156583","0.0-144.0","3HRMW88U17C8H5OINKRGNPWO2HLM07","A3PRQ2GSU42718","3SA4EMRVJVOCGON1OYE6FAUV3AFP0G","","null","<img src=""img/land5.png"" style=""width:200px;border:14px solid red;"">","null","","","","","","","",""
"","image-keyboard-response","99","156750","0.0-146.0","3HRMW88U17C8H5OINKRGNPWO2HLM07","A3PRQ2GSU42718","3SA4EMRVJVOCGON1OYE6FAUV3AFP0G","","165","img/land3.png","75","166","2","1","false","2","0.8,0.2,0.2,0.2,0.8,0.2,0.2,0.2,0.8","",""
"","html-keyboard-response","100","157071","0.0-147.0","3HRMW88U17C8H5OINKRGNPWO2HLM07","A3PRQ2GSU42718","3SA4EMRVJVOCGON1OYE6FAUV3AFP0G","","null","<img src=""img/land3.png"" style=""width:200px; border:14px solid green;"">","null","","","","","","","",""
"","image-keyboard-response","101","157235","0.0-149.0","3HRMW88U17C8H5OINKRGNPWO2HLM07","A3PRQ2GSU42718","3SA4EMRVJVOCGON1OYE6FAUV3AFP0G","","163","img/land9.png","75","163","2","0","false","1","0.8,0.2,0.2,0.2,0.8,0.2,0.2,0.2,0.8","",""
"","html-keyboard-response","102","157537","0.0-150.0","3HRMW88U17C8H5OINKRGNPWO2HLM07","A3PRQ2GSU42718","3SA4EMRVJVOCGON1OYE6FAUV3AFP0G","","null","<img src=""img/land9.png"" style=""width:200px;border:14px solid red;"">","null","","","","","","","",""
"","image-keyboard-response","103","157720","0.0-152.0","3HRMW88U17C8H5OINKRGNPWO2HLM07","A3PRQ2GSU42718","3SA4EMRVJVOCGON1OYE6FAUV3AFP0G","","180","img/land3.png","75","180","2","1","false","2","0.8,0.2,0.2,0.2,0.8,0.2,0.2,0.2,0.8","",""
"","html-keyboard-response","104","158047","0.0-153.0","3HRMW88U17C8H5OINKRGNPWO2HLM07","A3PRQ2GSU42718","3SA4EMRVJVOCGON1OYE6FAUV3AFP0G","","null","<img src=""img/land3.png"" style=""width:200px; border:14px solid green;"">","null","","","","","","","",""
"","image-keyboard-response","105","158220","0.0-155.0","3HRMW88U17C8H5OINKRGNPWO2HLM07","A3PRQ2GSU42718","3SA4EMRVJVOCGON1OYE6FAUV3AFP0G","","172","img/land3.png","75","173","2","1","false","2","0.8,0.2,0.2,0.2,0.8,0.2,0.2,0.2,0.8","",""
"","html-keyboard-response","106","158530","0.0-156.0","3HRMW88U17C8H5OINKRGNPWO2HLM07","A3PRQ2GSU42718","3SA4EMRVJVOCGON1OYE6FAUV3AFP0G","","null","<img src=""img/land3.png"" style=""width:200px; border:14px solid green;"">","null","","","","","","","",""
"","image-keyboard-response","107","158711","0.0-158.0","3HRMW88U17C8H5OINKRGNPWO2HLM07","A3PRQ2GSU42718","3SA4EMRVJVOCGON1OYE6FAUV3AFP0G","","180","img/land9.png","75","181","2","1","false","1","0.8,0.2,0.2,0.2,0.8,0.2,0.2,0.2,0.8","",""
"","html-keyboard-response","108","159015","0.0-159.0","3HRMW88U17C8H5OINKRGNPWO2HLM07","A3PRQ2GSU42718","3SA4EMRVJVOCGON1OYE6FAUV3AFP0G","","null","<img src=""img/land9.png"" style=""width:200px; border:14px solid green;"">","null","","","","","","","",""
"","image-keyboard-response","109","159209","0.0-161.0","3HRMW88U17C8H5OINKRGNPWO2HLM07","A3PRQ2GSU42718","3SA4EMRVJVOCGON1OYE6FAUV3AFP0G","","193","img/land9.png","75","195","2","0","false","1","0.8,0.2,0.2,0.2,0.8,0.2,0.2,0.2,0.8","",""
"","html-keyboard-response","110","159524","0.0-162.0","3HRMW88U17C8H5OINKRGNPWO2HLM07","A3PRQ2GSU42718","3SA4EMRVJVOCGON1OYE6FAUV3AFP0G","","null","<img src=""img/land9.png"" style=""width:200px;border:14px solid red;"">","null","","","","","","","",""
"","image-keyboard-response","111","159716","0.0-164.0","3HRMW88U17C8H5OINKRGNPWO2HLM07","A3PRQ2GSU42718","3SA4EMRVJVOCGON1OYE6FAUV3AFP0G","","190","img/land3.png","75","190","2","0","false","2","0.8,0.2,0.2,0.2,0.8,0.2,0.2,0.2,0.8","",""
"","html-keyboard-response","112","160064","0.0-165.0","3HRMW88U17C8H5OINKRGNPWO2HLM07","A3PRQ2GSU42718","3SA4EMRVJVOCGON1OYE6FAUV3AFP0G","","null","<img src=""img/land3.png"" style=""width:200px;border:14px solid red;"">","null","","","","","","","",""
"","image-keyboard-response","113","160223","0.0-167.0","3HRMW88U17C8H5OINKRGNPWO2HLM07","A3PRQ2GSU42718","3SA4EMRVJVOCGON1OYE6FAUV3AFP0G","","158","img/land5.png","75","159","2","0","false","3","0.8,0.2,0.2,0.2,0.8,0.2,0.2,0.2,0.8","",""
"","html-keyboard-response","114","160527","0.0-168.0","3HRMW88U17C8H5OINKRGNPWO2HLM07","A3PRQ2GSU42718","3SA4EMRVJVOCGON1OYE6FAUV3AFP0G","","null","<img src=""img/land5.png"" style=""width:200px;border:14px solid red;"">","null","","","","","","","",""
"","image-keyboard-response","115","160688","0.0-170.0","3HRMW88U17C8H5OINKRGNPWO2HLM07","A3PRQ2GSU42718","3SA4EMRVJVOCGON1OYE6FAUV3AFP0G","","159","img/land3.png","75","161","2","1","false","2","0.8,0.2,0.2,0.2,0.8,0.2,0.2,0.2,0.8","",""
"","html-keyboard-response","116","161007","0.0-171.0","3HRMW88U17C8H5OINKRGNPWO2HLM07","A3PRQ2GSU42718","3SA4EMRVJVOCGON1OYE6FAUV3AFP0G","","null","<img src=""img/land3.png"" style=""width:200px; border:14px solid green;"">","null","","","","","","","",""
"","image-keyboard-response","117","161200","0.0-173.0","3HRMW88U17C8H5OINKRGNPWO2HLM07","A3PRQ2GSU42718","3SA4EMRVJVOCGON1OYE6FAUV3AFP0G","","191","img/land5.png","75","192","2","0","false","3","0.8,0.2,0.2,0.2,0.8,0.2,0.2,0.2,0.8","",""
"","html-keyboard-response","118","161516","0.0-174.0","3HRMW88U17C8H5OINKRGNPWO2HLM07","A3PRQ2GSU42718","3SA4EMRVJVOCGON1OYE6FAUV3AFP0G","","null","<img src=""img/land5.png"" style=""width:200px;border:14px solid red;"">","null","","","","","","","",""
"","image-keyboard-response","119","161720","0.0-176.0","3HRMW88U17C8H5OINKRGNPWO2HLM07","A3PRQ2GSU42718","3SA4EMRVJVOCGON1OYE6FAUV3AFP0G","","200","img/land9.png","75","202","2","1","false","1","0.8,0.2,0.2,0.2,0.8,0.2,0.2,0.2,0.8","",""
"","html-keyboard-response","120","162040","0.0-177.0","3HRMW88U17C8H5OINKRGNPWO2HLM07","A3PRQ2GSU42718","3SA4EMRVJVOCGON1OYE6FAUV3AFP0G","","null","<img src=""img/land9.png"" style=""width:200px; border:14px solid green;"">","null","","","","","","","",""
"","image-keyboard-response","121","162224","0.0-179.0","3HRMW88U17C8H5OINKRGNPWO2HLM07","A3PRQ2GSU42718","3SA4EMRVJVOCGON1OYE6FAUV3AFP0G","","183","img/land3.png","75","183","2","1","false","2","0.8,0.2,0.2,0.2,0.8,0.2,0.2,0.2,0.8","",""
"","html-keyboard-response","122","162538","0.0-180.0","3HRMW88U17C8H5OINKRGNPWO2HLM07","A3PRQ2GSU42718","3SA4EMRVJVOCGON1OYE6FAUV3AFP0G","","null","<img src=""img/land3.png"" style=""width:200px; border:14px solid green;"">","null","","","","","","","",""
"","image-keyboard-response","123","162684","0.0-182.0","3HRMW88U17C8H5OINKRGNPWO2HLM07","A3PRQ2GSU42718","3SA4EMRVJVOCGON1OYE6FAUV3AFP0G","","144","img/land3.png","75","145","2","1","false","2","0.8,0.2,0.2,0.2,0.8,0.2,0.2,0.2,0.8","",""
"","html-keyboard-response","124","162994","0.0-183.0","3HRMW88U17C8H5OINKRGNPWO2HLM07","A3PRQ2GSU42718","3SA4EMRVJVOCGON1OYE6FAUV3AFP0G","","null","<img src=""img/land3.png"" style=""width:200px; border:14px solid green;"">","null","","","","","","","",""
"","image-keyboard-response","125","163119","0.0-185.0","3HRMW88U17C8H5OINKRGNPWO2HLM07","A3PRQ2GSU42718","3SA4EMRVJVOCGON1OYE6FAUV3AFP0G","","124","img/land3.png","75","125","2","1","false","2","0.8,0.2,0.2,0.2,0.8,0.2,0.2,0.2,0.8","",""
"","html-keyboard-response","126","163425","0.0-186.0","3HRMW88U17C8H5OINKRGNPWO2HLM07","A3PRQ2GSU42718","3SA4EMRVJVOCGON1OYE6FAUV3AFP0G","","null","<img src=""img/land3.png"" style=""width:200px; border:14px solid green;"">","null","","","","","","","",""
"","image-keyboard-response","127","163582","0.0-188.0","3HRMW88U17C8H5OINKRGNPWO2HLM07","A3PRQ2GSU42718","3SA4EMRVJVOCGON1OYE6FAUV3AFP0G","","156","img/land9.png","75","157","2","0","false","1","0.8,0.2,0.2,0.2,0.8,0.2,0.2,0.2,0.8","",""
"","html-keyboard-response","128","163906","0.0-189.0","3HRMW88U17C8H5OINKRGNPWO2HLM07","A3PRQ2GSU42718","3SA4EMRVJVOCGON1OYE6FAUV3AFP0G","","null","<img src=""img/land9.png"" style=""width:200px;border:14px solid red;"">","null","","","","","","","",""
"","image-keyboard-response","129","164037","0.0-191.0","3HRMW88U17C8H5OINKRGNPWO2HLM07","A3PRQ2GSU42718","3SA4EMRVJVOCGON1OYE6FAUV3AFP0G","","128","img/land5.png","75","129","2","0","false","3","0.8,0.2,0.2,0.2,0.8,0.2,0.2,0.2,0.8","",""
"","html-keyboard-response","130","164348","0.0-192.0","3HRMW88U17C8H5OINKRGNPWO2HLM07","A3PRQ2GSU42718","3SA4EMRVJVOCGON1OYE6FAUV3AFP0G","","null","<img src=""img/land5.png"" style=""width:200px;border:14px solid red;"">","null","","","","","","","",""
"","image-keyboard-response","131","164507","0.0-194.0","3HRMW88U17C8H5OINKRGNPWO2HLM07","A3PRQ2GSU42718","3SA4EMRVJVOCGON1OYE6FAUV3AFP0G","","157","img/land9.png","75","157","2","0","false","1","0.8,0.2,0.2,0.2,0.8,0.2,0.2,0.2,0.8","",""
"","html-keyboard-response","132","164816","0.0-195.0","3HRMW88U17C8H5OINKRGNPWO2HLM07","A3PRQ2GSU42718","3SA4EMRVJVOCGON1OYE6FAUV3AFP0G","","null","<img src=""img/land9.png"" style=""width:200px;border:14px solid red;"">","null","","","","","","","",""
"","image-keyboard-response","133","164956","0.0-197.0","3HRMW88U17C8H5OINKRGNPWO2HLM07","A3PRQ2GSU42718","3SA4EMRVJVOCGON1OYE6FAUV3AFP0G","","139","img/land3.png","75","140","2","1","false","2","0.8,0.2,0.2,0.2,0.8,0.2,0.2,0.2,0.8","",""
"","html-keyboard-response","134","165263","0.0-198.0","3HRMW88U17C8H5OINKRGNPWO2HLM07","A3PRQ2GSU42718","3SA4EMRVJVOCGON1OYE6FAUV3AFP0G","","null","<img src=""img/land3.png"" style=""width:200px; border:14px solid green;"">","null","","","","","","","",""
"","image-keyboard-response","135","165415","0.0-200.0","3HRMW88U17C8H5OINKRGNPWO2HLM07","A3PRQ2GSU42718","3SA4EMRVJVOCGON1OYE6FAUV3AFP0G","","150","img/land9.png","75","151","2","0","false","1","0.8,0.2,0.2,0.2,0.8,0.2,0.2,0.2,0.8","",""
"","html-keyboard-response","136","165734","0.0-201.0","3HRMW88U17C8H5OINKRGNPWO2HLM07","A3PRQ2GSU42718","3SA4EMRVJVOCGON1OYE6FAUV3AFP0G","","null","<img src=""img/land9.png"" style=""width:200px;border:14px solid red;"">","null","","","","","","","",""
"","image-keyboard-response","137","165891","0.0-203.0","3HRMW88U17C8H5OINKRGNPWO2HLM07","A3PRQ2GSU42718","3SA4EMRVJVOCGON1OYE6FAUV3AFP0G","","155","img/land3.png","75","156","2","1","false","2","0.8,0.2,0.2,0.2,0.8,0.2,0.2,0.2,0.8","",""
"","html-keyboard-response","138","166208","0.0-204.0","3HRMW88U17C8H5OINKRGNPWO2HLM07","A3PRQ2GSU42718","3SA4EMRVJVOCGON1OYE6FAUV3AFP0G","","null","<img src=""img/land3.png"" style=""width:200px; border:14px solid green;"">","null","","","","","","","",""
"","image-keyboard-response","139","166317","0.0-206.0","3HRMW88U17C8H5OINKRGNPWO2HLM07","A3PRQ2GSU42718","3SA4EMRVJVOCGON1OYE6FAUV3AFP0G","","107","img/land3.png","75","108","2","1","false","2","0.8,0.2,0.2,0.2,0.8,0.2,0.2,0.2,0.8","",""
"","html-keyboard-response","140","166627","0.0-207.0","3HRMW88U17C8H5OINKRGNPWO2HLM07","A3PRQ2GSU42718","3SA4EMRVJVOCGON1OYE6FAUV3AFP0G","","null","<img src=""img/land3.png"" style=""width:200px; border:14px solid green;"">","null","","","","","","","",""
"","image-keyboard-response","141","166802","0.0-209.0","3HRMW88U17C8H5OINKRGNPWO2HLM07","A3PRQ2GSU42718","3SA4EMRVJVOCGON1OYE6FAUV3AFP0G","","174","img/land3.png","75","174","2","0","false","2","0.8,0.2,0.2,0.2,0.8,0.2,0.2,0.2,0.8","",""
"","html-keyboard-response","142","167108","0.0-210.0","3HRMW88U17C8H5OINKRGNPWO2HLM07","A3PRQ2GSU42718","3SA4EMRVJVOCGON1OYE6FAUV3AFP0G","","null","<img src=""img/land3.png"" style=""width:200px;border:14px solid red;"">","null","","","","","","","",""
"","image-keyboard-response","143","167259","0.0-212.0","3HRMW88U17C8H5OINKRGNPWO2HLM07","A3PRQ2GSU42718","3SA4EMRVJVOCGON1OYE6FAUV3AFP0G","","149","img/land5.png","75","149","2","0","false","3","0.8,0.2,0.2,0.2,0.8,0.2,0.2,0.2,0.8","",""
"","html-keyboard-response","144","167569","0.0-213.0","3HRMW88U17C8H5OINKRGNPWO2HLM07","A3PRQ2GSU42718","3SA4EMRVJVOCGON1OYE6FAUV3AFP0G","","null","<img src=""img/land5.png"" style=""width:200px;border:14px solid red;"">","null","","","","","","","",""
"","image-keyboard-response","145","167698","0.0-215.0","3HRMW88U17C8H5OINKRGNPWO2HLM07","A3PRQ2GSU42718","3SA4EMRVJVOCGON1OYE6FAUV3AFP0G","","127","img/land3.png","75","128","2","1","false","2","0.8,0.2,0.2,0.2,0.8,0.2,0.2,0.2,0.8","",""
"","html-keyboard-response","146","168005","0.0-216.0","3HRMW88U17C8H5OINKRGNPWO2HLM07","A3PRQ2GSU42718","3SA4EMRVJVOCGON1OYE6FAUV3AFP0G","","null","<img src=""img/land3.png"" style=""width:200px; border:14px solid green;"">","null","","","","","","","",""
"","image-keyboard-response","147","168146","0.0-218.0","3HRMW88U17C8H5OINKRGNPWO2HLM07","A3PRQ2GSU42718","3SA4EMRVJVOCGON1OYE6FAUV3AFP0G","","138","img/land3.png","75","140","2","1","false","2","0.8,0.2,0.2,0.2,0.8,0.2,0.2,0.2,0.8","",""
"","html-keyboard-response","148","168451","0.0-219.0","3HRMW88U17C8H5OINKRGNPWO2HLM07","A3PRQ2GSU42718","3SA4EMRVJVOCGON1OYE6FAUV3AFP0G","","null","<img src=""img/land3.png"" style=""width:200px; border:14px solid green;"">","null","","","","","","","",""
"","image-keyboard-response","149","168594","0.0-221.0","3HRMW88U17C8H5OINKRGNPWO2HLM07","A3PRQ2GSU42718","3SA4EMRVJVOCGON1OYE6FAUV3AFP0G","","141","img/land5.png","75","143","2","0","false","3","0.8,0.2,0.2,0.2,0.8,0.2,0.2,0.2,0.8","",""
"","html-keyboard-response","150","168909","0.0-222.0","3HRMW88U17C8H5OINKRGNPWO2HLM07","A3PRQ2GSU42718","3SA4EMRVJVOCGON1OYE6FAUV3AFP0G","","null","<img src=""img/land5.png"" style=""width:200px;border:14px solid red;"">","null","","","","","","","",""
"","image-keyboard-response","151","169058","0.0-224.0","3HRMW88U17C8H5OINKRGNPWO2HLM07","A3PRQ2GSU42718","3SA4EMRVJVOCGON1OYE6FAUV3AFP0G","","147","img/land5.png","75","149","2","0","false","3","0.8,0.2,0.2,0.2,0.8,0.2,0.2,0.2,0.8","",""
"","html-keyboard-response","152","169375","0.0-225.0","3HRMW88U17C8H5OINKRGNPWO2HLM07","A3PRQ2GSU42718","3SA4EMRVJVOCGON1OYE6FAUV3AFP0G","","null","<img src=""img/land5.png"" style=""width:200px;border:14px solid red;"">","null","","","","","","","",""
"","image-keyboard-response","153","169507","0.0-227.0","3HRMW88U17C8H5OINKRGNPWO2HLM07","A3PRQ2GSU42718","3SA4EMRVJVOCGON1OYE6FAUV3AFP0G","","131","img/land9.png","75","133","2","0","false","1","0.8,0.2,0.2,0.2,0.8,0.2,0.2,0.2,0.8","",""
"","html-keyboard-response","154","169824","0.0-228.0","3HRMW88U17C8H5OINKRGNPWO2HLM07","A3PRQ2GSU42718","3SA4EMRVJVOCGON1OYE6FAUV3AFP0G","","null","<img src=""img/land9.png"" style=""width:200px;border:14px solid red;"">","null","","","","","","","",""
"","image-keyboard-response","155","169950","0.0-230.0","3HRMW88U17C8H5OINKRGNPWO2HLM07","A3PRQ2GSU42718","3SA4EMRVJVOCGON1OYE6FAUV3AFP0G","","125","img/land5.png","75","126","2","0","false","3","0.8,0.2,0.2,0.2,0.8,0.2,0.2,0.2,0.8","",""
"","html-keyboard-response","156","170259","0.0-231.0","3HRMW88U17C8H5OINKRGNPWO2HLM07","A3PRQ2GSU42718","3SA4EMRVJVOCGON1OYE6FAUV3AFP0G","","null","<img src=""img/land5.png"" style=""width:200px;border:14px solid red;"">","null","","","","","","","",""
"","image-keyboard-response","157","170400","0.0-233.0","3HRMW88U17C8H5OINKRGNPWO2HLM07","A3PRQ2GSU42718","3SA4EMRVJVOCGON1OYE6FAUV3AFP0G","","139","img/land3.png","75","140","2","0","false","2","0.8,0.2,0.2,0.2,0.8,0.2,0.2,0.2,0.8","",""
"","html-keyboard-response","158","170716","0.0-234.0","3HRMW88U17C8H5OINKRGNPWO2HLM07","A3PRQ2GSU42718","3SA4EMRVJVOCGON1OYE6FAUV3AFP0G","","null","<img src=""img/land3.png"" style=""width:200px;border:14px solid red;"">","null","","","","","","","",""
"","image-keyboard-response","159","170838","0.0-236.0","3HRMW88U17C8H5OINKRGNPWO2HLM07","A3PRQ2GSU42718","3SA4EMRVJVOCGON1OYE6FAUV3AFP0G","","120","img/land9.png","75","121","2","0","false","1","0.8,0.2,0.2,0.2,0.8,0.2,0.2,0.2,0.8","",""
"","html-keyboard-response","160","171144","0.0-237.0","3HRMW88U17C8H5OINKRGNPWO2HLM07","A3PRQ2GSU42718","3SA4EMRVJVOCGON1OYE6FAUV3AFP0G","","null","<img src=""img/land9.png"" style=""width:200px;border:14px solid red;"">","null","","","","","","","",""
"","image-keyboard-response","161","171252","0.0-239.0","3HRMW88U17C8H5OINKRGNPWO2HLM07","A3PRQ2GSU42718","3SA4EMRVJVOCGON1OYE6FAUV3AFP0G","","106","img/land3.png","75","107","2","1","false","2","0.8,0.2,0.2,0.2,0.8,0.2,0.2,0.2,0.8","",""
"","html-keyboard-response","162","171562","0.0-240.0","3HRMW88U17C8H5OINKRGNPWO2HLM07","A3PRQ2GSU42718","3SA4EMRVJVOCGON1OYE6FAUV3AFP0G","","null","<img src=""img/land3.png"" style=""width:200px; border:14px solid green;"">","null","","","","","","","",""
"","image-keyboard-response","163","171681","0.0-242.0","3HRMW88U17C8H5OINKRGNPWO2HLM07","A3PRQ2GSU42718","3SA4EMRVJVOCGON1OYE6FAUV3AFP0G","","118","img/land9.png","75","119","2","1","false","1","0.8,0.2,0.2,0.2,0.8,0.2,0.2,0.2,0.8","",""
"","html-keyboard-response","164","171984","0.0-243.0","3HRMW88U17C8H5OINKRGNPWO2HLM07","A3PRQ2GSU42718","3SA4EMRVJVOCGON1OYE6FAUV3AFP0G","","null","<img src=""img/land9.png"" style=""width:200px; border:14px solid green;"">","null","","","","","","","",""
"","image-keyboard-response","165","172089","0.0-245.0","3HRMW88U17C8H5OINKRGNPWO2HLM07","A3PRQ2GSU42718","3SA4EMRVJVOCGON1OYE6FAUV3AFP0G","","104","img/land9.png","75","104","2","0","false","1","0.8,0.2,0.2,0.2,0.8,0.2,0.2,0.2,0.8","",""
"","html-keyboard-response","166","172393","0.0-246.0","3HRMW88U17C8H5OINKRGNPWO2HLM07","A3PRQ2GSU42718","3SA4EMRVJVOCGON1OYE6FAUV3AFP0G","","null","<img src=""img/land9.png"" style=""width:200px;border:14px solid red;"">","null","","","","","","","",""
"","image-keyboard-response","167","172513","0.0-248.0","3HRMW88U17C8H5OINKRGNPWO2HLM07","A3PRQ2GSU42718","3SA4EMRVJVOCGON1OYE6FAUV3AFP0G","","118","img/land3.png","75","120","2","1","false","2","0.8,0.2,0.2,0.2,0.8,0.2,0.2,0.2,0.8","",""
"","html-keyboard-response","168","172826","0.0-249.0","3HRMW88U17C8H5OINKRGNPWO2HLM07","A3PRQ2GSU42718","3SA4EMRVJVOCGON1OYE6FAUV3AFP0G","","null","<img src=""img/land3.png"" style=""width:200px; border:14px solid green;"">","null","","","","","","","",""
"","image-keyboard-response","169","172898","0.0-251.0","3HRMW88U17C8H5OINKRGNPWO2HLM07","A3PRQ2GSU42718","3SA4EMRVJVOCGON1OYE6FAUV3AFP0G","","71","img/land9.png","75","72","2","0","false","1","0.8,0.2,0.2,0.2,0.8,0.2,0.2,0.2,0.8","",""
"","html-keyboard-response","170","173214","0.0-252.0","3HRMW88U17C8H5OINKRGNPWO2HLM07","A3PRQ2GSU42718","3SA4EMRVJVOCGON1OYE6FAUV3AFP0G","","null","<img src=""img/land9.png"" style=""width:200px;border:14px solid red;"">","null","","","","","","","",""
"","image-keyboard-response","171","173304","0.0-254.0","3HRMW88U17C8H5OINKRGNPWO2HLM07","A3PRQ2GSU42718","3SA4EMRVJVOCGON1OYE6FAUV3AFP0G","","89","img/land5.png","75","89","2","1","false","3","0.8,0.2,0.2,0.2,0.8,0.2,0.2,0.2,0.8","",""
"","html-keyboard-response","172","173611","0.0-255.0","3HRMW88U17C8H5OINKRGNPWO2HLM07","A3PRQ2GSU42718","3SA4EMRVJVOCGON1OYE6FAUV3AFP0G","","null","<img src=""img/land5.png"" style=""width:200px; border:14px solid green;"">","null","","","","","","","",""
"","image-keyboard-response","173","173719","0.0-257.0","3HRMW88U17C8H5OINKRGNPWO2HLM07","A3PRQ2GSU42718","3SA4EMRVJVOCGON1OYE6FAUV3AFP0G","","106","img/land5.png","75","106","2","0","false","3","0.8,0.2,0.2,0.2,0.8,0.2,0.2,0.2,0.8","",""
"","html-keyboard-response","174","174026","0.0-258.0","3HRMW88U17C8H5OINKRGNPWO2HLM07","A3PRQ2GSU42718","3SA4EMRVJVOCGON1OYE6FAUV3AFP0G","","null","<img src=""img/land5.png"" style=""width:200px;border:14px solid red;"">","null","","","","","","","",""
"","image-keyboard-response","175","174127","0.0-260.0","3HRMW88U17C8H5OINKRGNPWO2HLM07","A3PRQ2GSU42718","3SA4EMRVJVOCGON1OYE6FAUV3AFP0G","","100","img/land5.png","75","101","2","0","false","3","0.8,0.2,0.2,0.2,0.8,0.2,0.2,0.2,0.8","",""
"","html-keyboard-response","176","174434","0.0-261.0","3HRMW88U17C8H5OINKRGNPWO2HLM07","A3PRQ2GSU42718","3SA4EMRVJVOCGON1OYE6FAUV3AFP0G","","null","<img src=""img/land5.png"" style=""width:200px;border:14px solid red;"">","null","","","","","","","",""
"","image-keyboard-response","177","174548","0.0-263.0","3HRMW88U17C8H5OINKRGNPWO2HLM07","A3PRQ2GSU42718","3SA4EMRVJVOCGON1OYE6FAUV3AFP0G","","112","img/land5.png","75","113","2","0","false","3","0.8,0.2,0.2,0.2,0.8,0.2,0.2,0.2,0.8","",""
"","html-keyboard-response","178","174852","0.0-264.0","3HRMW88U17C8H5OINKRGNPWO2HLM07","A3PRQ2GSU42718","3SA4EMRVJVOCGON1OYE6FAUV3AFP0G","","null","<img src=""img/land5.png"" style=""width:200px;border:14px solid red;"">","null","","","","","","","",""
"","image-keyboard-response","179","174942","0.0-266.0","3HRMW88U17C8H5OINKRGNPWO2HLM07","A3PRQ2GSU42718","3SA4EMRVJVOCGON1OYE6FAUV3AFP0G","","87","img/land5.png","75","89","2","0","false","3","0.8,0.2,0.2,0.2,0.8,0.2,0.2,0.2,0.8","",""
"","html-keyboard-response","180","175252","0.0-267.0","3HRMW88U17C8H5OINKRGNPWO2HLM07","A3PRQ2GSU42718","3SA4EMRVJVOCGON1OYE6FAUV3AFP0G","","null","<img src=""img/land5.png"" style=""width:200px;border:14px solid red;"">","null","","","","","","","",""
"","image-keyboard-response","181","175328","0.0-269.0","3HRMW88U17C8H5OINKRGNPWO2HLM07","A3PRQ2GSU42718","3SA4EMRVJVOCGON1OYE6FAUV3AFP0G","","73","img/land5.png","75","74","2","0","false","3","0.8,0.2,0.2,0.2,0.8,0.2,0.2,0.2,0.8","",""
"","html-keyboard-response","182","175636","0.0-270.0","3HRMW88U17C8H5OINKRGNPWO2HLM07","A3PRQ2GSU42718","3SA4EMRVJVOCGON1OYE6FAUV3AFP0G","","null","<img src=""img/land5.png"" style=""width:200px;border:14px solid red;"">","null","","","","","","","",""
"","html-keyboard-response","183","224930","0.0-272.0","3HRMW88U17C8H5OINKRGNPWO2HLM07","A3PRQ2GSU42718","3SA4EMRVJVOCGON1OYE6FAUV3AFP0G","","","","","","","","","","","",""
"","image-keyboard-response","184","225941","0.0-273.0","3HRMW88U17C8H5OINKRGNPWO2HLM07","A3PRQ2GSU42718","3SA4EMRVJVOCGON1OYE6FAUV3AFP0G","","","img/land1.png","","1011","-1","0","true","3","0.6,0.6,0,0,0.6,0.6,0.6,0,0.6","",""
"","html-keyboard-response","185","226247","0.0-274.0","3HRMW88U17C8H5OINKRGNPWO2HLM07","A3PRQ2GSU42718","3SA4EMRVJVOCGON1OYE6FAUV3AFP0G","","null","<img src=""img/land1.png"" style=""width:200px;border:14px solid red;"">","null","","","","","","","",""
"","html-keyboard-response","186","230949","0.0-275.0-0.0","3HRMW88U17C8H5OINKRGNPWO2HLM07","A3PRQ2GSU42718","3SA4EMRVJVOCGON1OYE6FAUV3AFP0G","","","","","","","","","","","",""
"","image-keyboard-response","187","231748","0.0-276.0","3HRMW88U17C8H5OINKRGNPWO2HLM07","A3PRQ2GSU42718","3SA4EMRVJVOCGON1OYE6FAUV3AFP0G","","798","img/land1.png","74","799","1","1","false","3","0.6,0.6,0,0,0.6,0.6,0.6,0,0.6","",""
"","html-keyboard-response","188","232053","0.0-277.0","3HRMW88U17C8H5OINKRGNPWO2HLM07","A3PRQ2GSU42718","3SA4EMRVJVOCGON1OYE6FAUV3AFP0G","","null","<img src=""img/land1.png"" style=""width:200px; border:14px solid green;"">","null","","","","","","","",""
"","image-keyboard-response","189","232181","0.0-279.0","3HRMW88U17C8H5OINKRGNPWO2HLM07","A3PRQ2GSU42718","3SA4EMRVJVOCGON1OYE6FAUV3AFP0G","","126","img/land8.png","74","128","1","0","false","2","0.6,0.6,0,0,0.6,0.6,0.6,0,0.6","",""
"","html-keyboard-response","190","232487","0.0-280.0","3HRMW88U17C8H5OINKRGNPWO2HLM07","A3PRQ2GSU42718","3SA4EMRVJVOCGON1OYE6FAUV3AFP0G","","null","<img src=""img/land8.png"" style=""width:200px;border:14px solid red;"">","null","","","","","","","",""
"","image-keyboard-response","191","232685","0.0-282.0","3HRMW88U17C8H5OINKRGNPWO2HLM07","A3PRQ2GSU42718","3SA4EMRVJVOCGON1OYE6FAUV3AFP0G","","197","img/land1.png","74","198","1","1","false","3","0.6,0.6,0,0,0.6,0.6,0.6,0,0.6","",""
"","html-keyboard-response","192","232991","0.0-283.0","3HRMW88U17C8H5OINKRGNPWO2HLM07","A3PRQ2GSU42718","3SA4EMRVJVOCGON1OYE6FAUV3AFP0G","","null","<img src=""img/land1.png"" style=""width:200px; border:14px solid green;"">","null","","","","","","","",""
"","image-keyboard-response","193","233130","0.0-285.0","3HRMW88U17C8H5OINKRGNPWO2HLM07","A3PRQ2GSU42718","3SA4EMRVJVOCGON1OYE6FAUV3AFP0G","","137","img/land4.png","74","138","1","1","false","1","0.6,0.6,0,0,0.6,0.6,0.6,0,0.6","",""
"","html-keyboard-response","194","233440","0.0-286.0","3HRMW88U17C8H5OINKRGNPWO2HLM07","A3PRQ2GSU42718","3SA4EMRVJVOCGON1OYE6FAUV3AFP0G","","null","<img src=""img/land4.png"" style=""width:200px; border:14px solid green;"">","null","","","","","","","",""
"","image-keyboard-response","195","233600","0.0-288.0","3HRMW88U17C8H5OINKRGNPWO2HLM07","A3PRQ2GSU42718","3SA4EMRVJVOCGON1OYE6FAUV3AFP0G","","158","img/land1.png","74","159","1","0","false","3","0.6,0.6,0,0,0.6,0.6,0.6,0,0.6","",""
"","html-keyboard-response","196","233907","0.0-289.0","3HRMW88U17C8H5OINKRGNPWO2HLM07","A3PRQ2GSU42718","3SA4EMRVJVOCGON1OYE6FAUV3AFP0G","","null","<img src=""img/land1.png"" style=""width:200px;border:14px solid red;"">","null","","","","","","","",""
"","image-keyboard-response","197","234030","0.0-291.0","3HRMW88U17C8H5OINKRGNPWO2HLM07","A3PRQ2GSU42718","3SA4EMRVJVOCGON1OYE6FAUV3AFP0G","","121","img/land8.png","74","123","1","0","false","2","0.6,0.6,0,0,0.6,0.6,0.6,0,0.6","",""
"","html-keyboard-response","198","234342","0.0-292.0","3HRMW88U17C8H5OINKRGNPWO2HLM07","A3PRQ2GSU42718","3SA4EMRVJVOCGON1OYE6FAUV3AFP0G","","null","<img src=""img/land8.png"" style=""width:200px;border:14px solid red;"">","null","","","","","","","",""
"","image-keyboard-response","199","234470","0.0-294.0","3HRMW88U17C8H5OINKRGNPWO2HLM07","A3PRQ2GSU42718","3SA4EMRVJVOCGON1OYE6FAUV3AFP0G","","127","img/land8.png","74","127","1","0","false","2","0.6,0.6,0,0,0.6,0.6,0.6,0,0.6","",""
"","html-keyboard-response","200","234784","0.0-295.0","3HRMW88U17C8H5OINKRGNPWO2HLM07","A3PRQ2GSU42718","3SA4EMRVJVOCGON1OYE6FAUV3AFP0G","","null","<img src=""img/land8.png"" style=""width:200px;border:14px solid red;"">","null","","","","","","","",""
"","image-keyboard-response","201","234920","0.0-297.0","3HRMW88U17C8H5OINKRGNPWO2HLM07","A3PRQ2GSU42718","3SA4EMRVJVOCGON1OYE6FAUV3AFP0G","","134","img/land1.png","74","135","1","0","false","3","0.6,0.6,0,0,0.6,0.6,0.6,0,0.6","",""
"","html-keyboard-response","202","235228","0.0-298.0","3HRMW88U17C8H5OINKRGNPWO2HLM07","A3PRQ2GSU42718","3SA4EMRVJVOCGON1OYE6FAUV3AFP0G","","null","<img src=""img/land1.png"" style=""width:200px;border:14px solid red;"">","null","","","","","","","",""
"","image-keyboard-response","203","235342","0.0-300.0","3HRMW88U17C8H5OINKRGNPWO2HLM07","A3PRQ2GSU42718","3SA4EMRVJVOCGON1OYE6FAUV3AFP0G","","112","img/land4.png","74","113","1","1","false","1","0.6,0.6,0,0,0.6,0.6,0.6,0,0.6","",""
"","html-keyboard-response","204","235651","0.0-301.0","3HRMW88U17C8H5OINKRGNPWO2HLM07","A3PRQ2GSU42718","3SA4EMRVJVOCGON1OYE6FAUV3AFP0G","","null","<img src=""img/land4.png"" style=""width:200px; border:14px solid green;"">","null","","","","","","","",""
"","image-keyboard-response","205","235781","0.0-303.0","3HRMW88U17C8H5OINKRGNPWO2HLM07","A3PRQ2GSU42718","3SA4EMRVJVOCGON1OYE6FAUV3AFP0G","","128","img/land1.png","74","130","1","1","false","3","0.6,0.6,0,0,0.6,0.6,0.6,0,0.6","",""
"","html-keyboard-response","206","236087","0.0-304.0","3HRMW88U17C8H5OINKRGNPWO2HLM07","A3PRQ2GSU42718","3SA4EMRVJVOCGON1OYE6FAUV3AFP0G","","null","<img src=""img/land1.png"" style=""width:200px; border:14px solid green;"">","null","","","","","","","",""
"","image-keyboard-response","207","236217","0.0-306.0","3HRMW88U17C8H5OINKRGNPWO2HLM07","A3PRQ2GSU42718","3SA4EMRVJVOCGON1OYE6FAUV3AFP0G","","128","img/land1.png","74","129","1","0","false","3","0.6,0.6,0,0,0.6,0.6,0.6,0,0.6","",""
"","html-keyboard-response","208","236521","0.0-307.0","3HRMW88U17C8H5OINKRGNPWO2HLM07","A3PRQ2GSU42718","3SA4EMRVJVOCGON1OYE6FAUV3AFP0G","","null","<img src=""img/land1.png"" style=""width:200px;border:14px solid red;"">","null","","","","","","","",""
"","image-keyboard-response","209","236660","0.0-309.0","3HRMW88U17C8H5OINKRGNPWO2HLM07","A3PRQ2GSU42718","3SA4EMRVJVOCGON1OYE6FAUV3AFP0G","","136","img/land8.png","74","137","1","0","false","2","0.6,0.6,0,0,0.6,0.6,0.6,0,0.6","",""
"","html-keyboard-response","210","236967","0.0-310.0","3HRMW88U17C8H5OINKRGNPWO2HLM07","A3PRQ2GSU42718","3SA4EMRVJVOCGON1OYE6FAUV3AFP0G","","null","<img src=""img/land8.png"" style=""width:200px;border:14px solid red;"">","null","","","","","","","",""
"","image-keyboard-response","211","237089","0.0-312.0","3HRMW88U17C8H5OINKRGNPWO2HLM07","A3PRQ2GSU42718","3SA4EMRVJVOCGON1OYE6FAUV3AFP0G","","121","img/land8.png","74","121","1","0","false","2","0.6,0.6,0,0,0.6,0.6,0.6,0,0.6","",""
"","html-keyboard-response","212","237406","0.0-313.0","3HRMW88U17C8H5OINKRGNPWO2HLM07","A3PRQ2GSU42718","3SA4EMRVJVOCGON1OYE6FAUV3AFP0G","","null","<img src=""img/land8.png"" style=""width:200px;border:14px solid red;"">","null","","","","","","","",""
"","image-keyboard-response","213","237520","0.0-315.0","3HRMW88U17C8H5OINKRGNPWO2HLM07","A3PRQ2GSU42718","3SA4EMRVJVOCGON1OYE6FAUV3AFP0G","","112","img/land4.png","74","113","1","1","false","1","0.6,0.6,0,0,0.6,0.6,0.6,0,0.6","",""
"","html-keyboard-response","214","237822","0.0-316.0","3HRMW88U17C8H5OINKRGNPWO2HLM07","A3PRQ2GSU42718","3SA4EMRVJVOCGON1OYE6FAUV3AFP0G","","null","<img src=""img/land4.png"" style=""width:200px; border:14px solid green;"">","null","","","","","","","",""
"","image-keyboard-response","215","237959","0.0-318.0","3HRMW88U17C8H5OINKRGNPWO2HLM07","A3PRQ2GSU42718","3SA4EMRVJVOCGON1OYE6FAUV3AFP0G","","134","img/land8.png","74","135","1","0","false","2","0.6,0.6,0,0,0.6,0.6,0.6,0,0.6","",""
"","html-keyboard-response","216","238269","0.0-319.0","3HRMW88U17C8H5OINKRGNPWO2HLM07","A3PRQ2GSU42718","3SA4EMRVJVOCGON1OYE6FAUV3AFP0G","","null","<img src=""img/land8.png"" style=""width:200px;border:14px solid red;"">","null","","","","","","","",""
"","image-keyboard-response","217","238437","0.0-321.0","3HRMW88U17C8H5OINKRGNPWO2HLM07","A3PRQ2GSU42718","3SA4EMRVJVOCGON1OYE6FAUV3AFP0G","","166","img/land4.png","74","168","1","1","false","1","0.6,0.6,0,0,0.6,0.6,0.6,0,0.6","",""
"","html-keyboard-response","218","238743","0.0-322.0","3HRMW88U17C8H5OINKRGNPWO2HLM07","A3PRQ2GSU42718","3SA4EMRVJVOCGON1OYE6FAUV3AFP0G","","null","<img src=""img/land4.png"" style=""width:200px; border:14px solid green;"">","null","","","","","","","",""
"","image-keyboard-response","219","238898","0.0-324.0","3HRMW88U17C8H5OINKRGNPWO2HLM07","A3PRQ2GSU42718","3SA4EMRVJVOCGON1OYE6FAUV3AFP0G","","153","img/land1.png","74","155","1","0","false","3","0.6,0.6,0,0,0.6,0.6,0.6,0,0.6","",""
"","html-keyboard-response","220","239209","0.0-325.0","3HRMW88U17C8H5OINKRGNPWO2HLM07","A3PRQ2GSU42718","3SA4EMRVJVOCGON1OYE6FAUV3AFP0G","","null","<img src=""img/land1.png"" style=""width:200px;border:14px solid red;"">","null","","","","","","","",""
"","image-keyboard-response","221","239338","0.0-327.0","3HRMW88U17C8H5OINKRGNPWO2HLM07","A3PRQ2GSU42718","3SA4EMRVJVOCGON1OYE6FAUV3AFP0G","","127","img/land1.png","74","129","1","1","false","3","0.6,0.6,0,0,0.6,0.6,0.6,0,0.6","",""
"","html-keyboard-response","222","239644","0.0-328.0","3HRMW88U17C8H5OINKRGNPWO2HLM07","A3PRQ2GSU42718","3SA4EMRVJVOCGON1OYE6FAUV3AFP0G","","null","<img src=""img/land1.png"" style=""width:200px; border:14px solid green;"">","null","","","","","","","",""
"","image-keyboard-response","223","239775","0.0-330.0","3HRMW88U17C8H5OINKRGNPWO2HLM07","A3PRQ2GSU42718","3SA4EMRVJVOCGON1OYE6FAUV3AFP0G","","129","img/land8.png","74","130","1","0","false","2","0.6,0.6,0,0,0.6,0.6,0.6,0,0.6","",""
"","html-keyboard-response","224","240089","0.0-331.0","3HRMW88U17C8H5OINKRGNPWO2HLM07","A3PRQ2GSU42718","3SA4EMRVJVOCGON1OYE6FAUV3AFP0G","","null","<img src=""img/land8.png"" style=""width:200px;border:14px solid red;"">","null","","","","","","","",""
"","image-keyboard-response","225","240214","0.0-333.0","3HRMW88U17C8H5OINKRGNPWO2HLM07","A3PRQ2GSU42718","3SA4EMRVJVOCGON1OYE6FAUV3AFP0G","","123","img/land1.png","74","125","1","1","false","3","0.6,0.6,0,0,0.6,0.6,0.6,0,0.6","",""
"","html-keyboard-response","226","240518","0.0-334.0","3HRMW88U17C8H5OINKRGNPWO2HLM07","A3PRQ2GSU42718","3SA4EMRVJVOCGON1OYE6FAUV3AFP0G","","null","<img src=""img/land1.png"" style=""width:200px; border:14px solid green;"">","null","","","","","","","",""
"","image-keyboard-response","227","240668","0.0-336.0","3HRMW88U17C8H5OINKRGNPWO2HLM07","A3PRQ2GSU42718","3SA4EMRVJVOCGON1OYE6FAUV3AFP0G","","147","img/land4.png","74","149","1","1","false","1","0.6,0.6,0,0,0.6,0.6,0.6,0,0.6","",""
"","html-keyboard-response","228","240970","0.0-337.0","3HRMW88U17C8H5OINKRGNPWO2HLM07","A3PRQ2GSU42718","3SA4EMRVJVOCGON1OYE6FAUV3AFP0G","","null","<img src=""img/land4.png"" style=""width:200px; border:14px solid green;"">","null","","","","","","","",""
"","image-keyboard-response","229","241129","0.0-339.0","3HRMW88U17C8H5OINKRGNPWO2HLM07","A3PRQ2GSU42718","3SA4EMRVJVOCGON1OYE6FAUV3AFP0G","","156","img/land8.png","74","158","1","0","false","2","0.6,0.6,0,0,0.6,0.6,0.6,0,0.6","",""
"","html-keyboard-response","230","241435","0.0-340.0","3HRMW88U17C8H5OINKRGNPWO2HLM07","A3PRQ2GSU42718","3SA4EMRVJVOCGON1OYE6FAUV3AFP0G","","null","<img src=""img/land8.png"" style=""width:200px;border:14px solid red;"">","null","","","","","","","",""
"","image-keyboard-response","231","241597","0.0-342.0","3HRMW88U17C8H5OINKRGNPWO2HLM07","A3PRQ2GSU42718","3SA4EMRVJVOCGON1OYE6FAUV3AFP0G","","160","img/land8.png","74","160","1","0","false","2","0.6,0.6,0,0,0.6,0.6,0.6,0,0.6","",""
"","html-keyboard-response","232","241907","0.0-343.0","3HRMW88U17C8H5OINKRGNPWO2HLM07","A3PRQ2GSU42718","3SA4EMRVJVOCGON1OYE6FAUV3AFP0G","","null","<img src=""img/land8.png"" style=""width:200px;border:14px solid red;"">","null","","","","","","","",""
"","image-keyboard-response","233","242043","0.0-345.0","3HRMW88U17C8H5OINKRGNPWO2HLM07","A3PRQ2GSU42718","3SA4EMRVJVOCGON1OYE6FAUV3AFP0G","","134","img/land4.png","74","135","1","1","false","1","0.6,0.6,0,0,0.6,0.6,0.6,0,0.6","",""
"","html-keyboard-response","234","242354","0.0-346.0","3HRMW88U17C8H5OINKRGNPWO2HLM07","A3PRQ2GSU42718","3SA4EMRVJVOCGON1OYE6FAUV3AFP0G","","null","<img src=""img/land4.png"" style=""width:200px; border:14px solid green;"">","null","","","","","","","",""
"","image-keyboard-response","235","242476","0.0-348.0","3HRMW88U17C8H5OINKRGNPWO2HLM07","A3PRQ2GSU42718","3SA4EMRVJVOCGON1OYE6FAUV3AFP0G","","122","img/land4.png","74","123","1","1","false","1","0.6,0.6,0,0,0.6,0.6,0.6,0,0.6","",""
"","html-keyboard-response","236","242784","0.0-349.0","3HRMW88U17C8H5OINKRGNPWO2HLM07","A3PRQ2GSU42718","3SA4EMRVJVOCGON1OYE6FAUV3AFP0G","","null","<img src=""img/land4.png"" style=""width:200px; border:14px solid green;"">","null","","","","","","","",""
"","image-keyboard-response","237","242929","0.0-351.0","3HRMW88U17C8H5OINKRGNPWO2HLM07","A3PRQ2GSU42718","3SA4EMRVJVOCGON1OYE6FAUV3AFP0G","","142","img/land1.png","74","143","1","0","false","3","0.6,0.6,0,0,0.6,0.6,0.6,0,0.6","",""
"","html-keyboard-response","238","243244","0.0-352.0","3HRMW88U17C8H5OINKRGNPWO2HLM07","A3PRQ2GSU42718","3SA4EMRVJVOCGON1OYE6FAUV3AFP0G","","null","<img src=""img/land1.png"" style=""width:200px;border:14px solid red;"">","null","","","","","","","",""
"","image-keyboard-response","239","243336","0.0-354.0","3HRMW88U17C8H5OINKRGNPWO2HLM07","A3PRQ2GSU42718","3SA4EMRVJVOCGON1OYE6FAUV3AFP0G","","91","img/land8.png","74","93","1","0","false","2","0.6,0.6,0,0,0.6,0.6,0.6,0,0.6","",""
"","html-keyboard-response","240","243645","0.0-355.0","3HRMW88U17C8H5OINKRGNPWO2HLM07","A3PRQ2GSU42718","3SA4EMRVJVOCGON1OYE6FAUV3AFP0G","","null","<img src=""img/land8.png"" style=""width:200px;border:14px solid red;"">","null","","","","","","","",""
"","image-keyboard-response","241","243718","0.0-357.0","3HRMW88U17C8H5OINKRGNPWO2HLM07","A3PRQ2GSU42718","3SA4EMRVJVOCGON1OYE6FAUV3AFP0G","","71","img/land8.png","74","73","1","0","false","2","0.6,0.6,0,0,0.6,0.6,0.6,0,0.6","",""
"","html-keyboard-response","242","244034","0.0-358.0","3HRMW88U17C8H5OINKRGNPWO2HLM07","A3PRQ2GSU42718","3SA4EMRVJVOCGON1OYE6FAUV3AFP0G","","null","<img src=""img/land8.png"" style=""width:200px;border:14px solid red;"">","null","","","","","","","",""
"","image-keyboard-response","243","244160","0.0-360.0","3HRMW88U17C8H5OINKRGNPWO2HLM07","A3PRQ2GSU42718","3SA4EMRVJVOCGON1OYE6FAUV3AFP0G","","125","img/land4.png","74","125","1","1","false","1","0.6,0.6,0,0,0.6,0.6,0.6,0,0.6","",""
"","html-keyboard-response","244","244469","0.0-361.0","3HRMW88U17C8H5OINKRGNPWO2HLM07","A3PRQ2GSU42718","3SA4EMRVJVOCGON1OYE6FAUV3AFP0G","","null","<img src=""img/land4.png"" style=""width:200px; border:14px solid green;"">","null","","","","","","","",""
"","image-keyboard-response","245","244562","0.0-363.0","3HRMW88U17C8H5OINKRGNPWO2HLM07","A3PRQ2GSU42718","3SA4EMRVJVOCGON1OYE6FAUV3AFP0G","","91","img/land4.png","74","93","1","1","false","1","0.6,0.6,0,0,0.6,0.6,0.6,0,0.6","",""
"","html-keyboard-response","246","244877","0.0-364.0","3HRMW88U17C8H5OINKRGNPWO2HLM07","A3PRQ2GSU42718","3SA4EMRVJVOCGON1OYE6FAUV3AFP0G","","null","<img src=""img/land4.png"" style=""width:200px; border:14px solid green;"">","null","","","","","","","",""
"","image-keyboard-response","247","244972","0.0-366.0","3HRMW88U17C8H5OINKRGNPWO2HLM07","A3PRQ2GSU42718","3SA4EMRVJVOCGON1OYE6FAUV3AFP0G","","91","img/land1.png","74","93","1","1","false","3","0.6,0.6,0,0,0.6,0.6,0.6,0,0.6","",""
"","html-keyboard-response","248","245289","0.0-367.0","3HRMW88U17C8H5OINKRGNPWO2HLM07","A3PRQ2GSU42718","3SA4EMRVJVOCGON1OYE6FAUV3AFP0G","","null","<img src=""img/land1.png"" style=""width:200px; border:14px solid green;"">","null","","","","","","","",""
"","image-keyboard-response","249","245424","0.0-369.0","3HRMW88U17C8H5OINKRGNPWO2HLM07","A3PRQ2GSU42718","3SA4EMRVJVOCGON1OYE6FAUV3AFP0G","","133","img/land8.png","74","134","1","0","false","2","0.6,0.6,0,0,0.6,0.6,0.6,0,0.6","",""
"","html-keyboard-response","250","245744","0.0-370.0","3HRMW88U17C8H5OINKRGNPWO2HLM07","A3PRQ2GSU42718","3SA4EMRVJVOCGON1OYE6FAUV3AFP0G","","null","<img src=""img/land8.png"" style=""width:200px;border:14px solid red;"">","null","","","","","","","",""
"","image-keyboard-response","251","245848","0.0-372.0","3HRMW88U17C8H5OINKRGNPWO2HLM07","A3PRQ2GSU42718","3SA4EMRVJVOCGON1OYE6FAUV3AFP0G","","101","img/land1.png","74","104","1","1","false","3","0.6,0.6,0,0,0.6,0.6,0.6,0,0.6","",""
"","html-keyboard-response","252","246161","0.0-373.0","3HRMW88U17C8H5OINKRGNPWO2HLM07","A3PRQ2GSU42718","3SA4EMRVJVOCGON1OYE6FAUV3AFP0G","","null","<img src=""img/land1.png"" style=""width:200px; border:14px solid green;"">","null","","","","","","","",""
"","image-keyboard-response","253","246303","0.0-375.0","3HRMW88U17C8H5OINKRGNPWO2HLM07","A3PRQ2GSU42718","3SA4EMRVJVOCGON1OYE6FAUV3AFP0G","","139","img/land1.png","74","141","1","1","false","3","0.6,0.6,0,0,0.6,0.6,0.6,0,0.6","",""
"","html-keyboard-response","254","246605","0.0-376.0","3HRMW88U17C8H5OINKRGNPWO2HLM07","A3PRQ2GSU42718","3SA4EMRVJVOCGON1OYE6FAUV3AFP0G","","null","<img src=""img/land1.png"" style=""width:200px; border:14px solid green;"">","null","","","","","","","",""
"","image-keyboard-response","255","246725","0.0-378.0","3HRMW88U17C8H5OINKRGNPWO2HLM07","A3PRQ2GSU42718","3SA4EMRVJVOCGON1OYE6FAUV3AFP0G","","117","img/land8.png","74","118","1","0","false","2","0.6,0.6,0,0,0.6,0.6,0.6,0,0.6","",""
"","html-keyboard-response","256","247043","0.0-379.0","3HRMW88U17C8H5OINKRGNPWO2HLM07","A3PRQ2GSU42718","3SA4EMRVJVOCGON1OYE6FAUV3AFP0G","","null","<img src=""img/land8.png"" style=""width:200px;border:14px solid red;"">","null","","","","","","","",""
"","image-keyboard-response","257","247194","0.0-381.0","3HRMW88U17C8H5OINKRGNPWO2HLM07","A3PRQ2GSU42718","3SA4EMRVJVOCGON1OYE6FAUV3AFP0G","","150","img/land1.png","74","152","1","1","false","3","0.6,0.6,0,0,0.6,0.6,0.6,0,0.6","",""
"","html-keyboard-response","258","247523","0.0-382.0","3HRMW88U17C8H5OINKRGNPWO2HLM07","A3PRQ2GSU42718","3SA4EMRVJVOCGON1OYE6FAUV3AFP0G","","null","<img src=""img/land1.png"" style=""width:200px; border:14px solid green;"">","null","","","","","","","",""
"","image-keyboard-response","259","247595","0.0-384.0","3HRMW88U17C8H5OINKRGNPWO2HLM07","A3PRQ2GSU42718","3SA4EMRVJVOCGON1OYE6FAUV3AFP0G","","69","img/land8.png","74","71","1","0","false","2","0.6,0.6,0,0,0.6,0.6,0.6,0,0.6","",""
"","html-keyboard-response","260","247911","0.0-385.0","3HRMW88U17C8H5OINKRGNPWO2HLM07","A3PRQ2GSU42718","3SA4EMRVJVOCGON1OYE6FAUV3AFP0G","","null","<img src=""img/land8.png"" style=""width:200px;border:14px solid red;"">","null","","","","","","","",""
"","image-keyboard-response","261","248043","0.0-387.0","3HRMW88U17C8H5OINKRGNPWO2HLM07","A3PRQ2GSU42718","3SA4EMRVJVOCGON1OYE6FAUV3AFP0G","","129","img/land4.png","74","131","1","0","false","1","0.6,0.6,0,0,0.6,0.6,0.6,0,0.6","",""
"","html-keyboard-response","262","248357","0.0-388.0","3HRMW88U17C8H5OINKRGNPWO2HLM07","A3PRQ2GSU42718","3SA4EMRVJVOCGON1OYE6FAUV3AFP0G","","null","<img src=""img/land4.png"" style=""width:200px;border:14px solid red;"">","null","","","","","","","",""
"","image-keyboard-response","263","248494","0.0-390.0","3HRMW88U17C8H5OINKRGNPWO2HLM07","A3PRQ2GSU42718","3SA4EMRVJVOCGON1OYE6FAUV3AFP0G","","135","img/land1.png","74","136","1","1","false","3","0.6,0.6,0,0,0.6,0.6,0.6,0,0.6","",""
"","html-keyboard-response","264","248797","0.0-391.0","3HRMW88U17C8H5OINKRGNPWO2HLM07","A3PRQ2GSU42718","3SA4EMRVJVOCGON1OYE6FAUV3AFP0G","","null","<img src=""img/land1.png"" style=""width:200px; border:14px solid green;"">","null","","","","","","","",""
"","image-keyboard-response","265","248943","0.0-393.0","3HRMW88U17C8H5OINKRGNPWO2HLM07","A3PRQ2GSU42718","3SA4EMRVJVOCGON1OYE6FAUV3AFP0G","","144","img/land4.png","74","146","1","0","false","1","0.6,0.6,0,0,0.6,0.6,0.6,0,0.6","",""
"","html-keyboard-response","266","249252","0.0-394.0","3HRMW88U17C8H5OINKRGNPWO2HLM07","A3PRQ2GSU42718","3SA4EMRVJVOCGON1OYE6FAUV3AFP0G","","null","<img src=""img/land4.png"" style=""width:200px;border:14px solid red;"">","null","","","","","","","",""
"","image-keyboard-response","267","249407","0.0-396.0","3HRMW88U17C8H5OINKRGNPWO2HLM07","A3PRQ2GSU42718","3SA4EMRVJVOCGON1OYE6FAUV3AFP0G","","153","img/land8.png","74","154","1","0","false","2","0.6,0.6,0,0,0.6,0.6,0.6,0,0.6","",""
"","html-keyboard-response","268","249710","0.0-397.0","3HRMW88U17C8H5OINKRGNPWO2HLM07","A3PRQ2GSU42718","3SA4EMRVJVOCGON1OYE6FAUV3AFP0G","","null","<img src=""img/land8.png"" style=""width:200px;border:14px solid red;"">","null","","","","","","","",""
"","image-keyboard-response","269","249874","0.0-399.0","3HRMW88U17C8H5OINKRGNPWO2HLM07","A3PRQ2GSU42718","3SA4EMRVJVOCGON1OYE6FAUV3AFP0G","","162","img/land8.png","74","163","1","0","false","2","0.6,0.6,0,0,0.6,0.6,0.6,0,0.6","",""
"","html-keyboard-response","270","250200","0.0-400.0","3HRMW88U17C8H5OINKRGNPWO2HLM07","A3PRQ2GSU42718","3SA4EMRVJVOCGON1OYE6FAUV3AFP0G","","null","<img src=""img/land8.png"" style=""width:200px;border:14px solid red;"">","null","","","","","","","",""
"","image-keyboard-response","271","250349","0.0-402.0","3HRMW88U17C8H5OINKRGNPWO2HLM07","A3PRQ2GSU42718","3SA4EMRVJVOCGON1OYE6FAUV3AFP0G","","148","img/land8.png","74","149","1","0","false","2","0.6,0.6,0,0,0.6,0.6,0.6,0,0.6","",""
"","html-keyboard-response","272","250671","0.0-403.0","3HRMW88U17C8H5OINKRGNPWO2HLM07","A3PRQ2GSU42718","3SA4EMRVJVOCGON1OYE6FAUV3AFP0G","","null","<img src=""img/land8.png"" style=""width:200px;border:14px solid red;"">","null","","","","","","","",""
"","image-keyboard-response","273","250760","0.0-405.0","3HRMW88U17C8H5OINKRGNPWO2HLM07","A3PRQ2GSU42718","3SA4EMRVJVOCGON1OYE6FAUV3AFP0G","","87","img/land1.png","74","88","1","1","false","3","0.6,0.6,0,0,0.6,0.6,0.6,0,0.6","",""
"","html-keyboard-response","274","251075","0.0-406.0","3HRMW88U17C8H5OINKRGNPWO2HLM07","A3PRQ2GSU42718","3SA4EMRVJVOCGON1OYE6FAUV3AFP0G","","null","<img src=""img/land1.png"" style=""width:200px; border:14px solid green;"">","null","","","","","","","",""
"","image-keyboard-response","275","251185","0.0-408.0","3HRMW88U17C8H5OINKRGNPWO2HLM07","A3PRQ2GSU42718","3SA4EMRVJVOCGON1OYE6FAUV3AFP0G","","108","img/land4.png","74","110","1","1","false","1","0.6,0.6,0,0,0.6,0.6,0.6,0,0.6","",""
"","html-keyboard-response","276","251495","0.0-409.0","3HRMW88U17C8H5OINKRGNPWO2HLM07","A3PRQ2GSU42718","3SA4EMRVJVOCGON1OYE6FAUV3AFP0G","","null","<img src=""img/land4.png"" style=""width:200px; border:14px solid green;"">","null","","","","","","","",""
"","image-keyboard-response","277","251606","0.0-411.0","3HRMW88U17C8H5OINKRGNPWO2HLM07","A3PRQ2GSU42718","3SA4EMRVJVOCGON1OYE6FAUV3AFP0G","","109","img/land8.png","74","110","1","0","false","2","0.6,0.6,0,0,0.6,0.6,0.6,0,0.6","",""
"","html-keyboard-response","278","251911","0.0-412.0","3HRMW88U17C8H5OINKRGNPWO2HLM07","A3PRQ2GSU42718","3SA4EMRVJVOCGON1OYE6FAUV3AFP0G","","null","<img src=""img/land8.png"" style=""width:200px;border:14px solid red;"">","null","","","","","","","",""
"","image-keyboard-response","279","252036","0.0-414.0","3HRMW88U17C8H5OINKRGNPWO2HLM07","A3PRQ2GSU42718","3SA4EMRVJVOCGON1OYE6FAUV3AFP0G","","124","img/land4.png","74","125","1","1","false","1","0.6,0.6,0,0,0.6,0.6,0.6,0,0.6","",""
"","html-keyboard-response","280","252355","0.0-415.0","3HRMW88U17C8H5OINKRGNPWO2HLM07","A3PRQ2GSU42718","3SA4EMRVJVOCGON1OYE6FAUV3AFP0G","","null","<img src=""img/land4.png"" style=""width:200px; border:14px solid green;"">","null","","","","","","","",""
"","image-keyboard-response","281","252446","0.0-417.0","3HRMW88U17C8H5OINKRGNPWO2HLM07","A3PRQ2GSU42718","3SA4EMRVJVOCGON1OYE6FAUV3AFP0G","","88","img/land1.png","74","89","1","0","false","3","0.6,0.6,0,0,0.6,0.6,0.6,0,0.6","",""
"","html-keyboard-response","282","252759","0.0-418.0","3HRMW88U17C8H5OINKRGNPWO2HLM07","A3PRQ2GSU42718","3SA4EMRVJVOCGON1OYE6FAUV3AFP0G","","null","<img src=""img/land1.png"" style=""width:200px;border:14px solid red;"">","null","","","","","","","",""
"","image-keyboard-response","283","252876","0.0-420.0","3HRMW88U17C8H5OINKRGNPWO2HLM07","A3PRQ2GSU42718","3SA4EMRVJVOCGON1OYE6FAUV3AFP0G","","115","img/land8.png","74","116","1","0","false","2","0.6,0.6,0,0,0.6,0.6,0.6,0,0.6","",""
"","html-keyboard-response","284","253186","0.0-421.0","3HRMW88U17C8H5OINKRGNPWO2HLM07","A3PRQ2GSU42718","3SA4EMRVJVOCGON1OYE6FAUV3AFP0G","","null","<img src=""img/land8.png"" style=""width:200px;border:14px solid red;"">","null","","","","","","","",""
"","image-keyboard-response","285","253306","0.0-423.0","3HRMW88U17C8H5OINKRGNPWO2HLM07","A3PRQ2GSU42718","3SA4EMRVJVOCGON1OYE6FAUV3AFP0G","","119","img/land8.png","74","120","1","0","false","2","0.6,0.6,0,0,0.6,0.6,0.6,0,0.6","",""
"","html-keyboard-response","286","253624","0.0-424.0","3HRMW88U17C8H5OINKRGNPWO2HLM07","A3PRQ2GSU42718","3SA4EMRVJVOCGON1OYE6FAUV3AFP0G","","null","<img src=""img/land8.png"" style=""width:200px;border:14px solid red;"">","null","","","","","","","",""
"","image-keyboard-response","287","253725","0.0-426.0","3HRMW88U17C8H5OINKRGNPWO2HLM07","A3PRQ2GSU42718","3SA4EMRVJVOCGON1OYE6FAUV3AFP0G","","98","img/land8.png","74","100","1","0","false","2","0.6,0.6,0,0,0.6,0.6,0.6,0,0.6","",""
"","html-keyboard-response","288","254043","0.0-427.0","3HRMW88U17C8H5OINKRGNPWO2HLM07","A3PRQ2GSU42718","3SA4EMRVJVOCGON1OYE6FAUV3AFP0G","","null","<img src=""img/land8.png"" style=""width:200px;border:14px solid red;"">","null","","","","","","","",""
"","image-keyboard-response","289","254150","0.0-429.0","3HRMW88U17C8H5OINKRGNPWO2HLM07","A3PRQ2GSU42718","3SA4EMRVJVOCGON1OYE6FAUV3AFP0G","","105","img/land4.png","74","107","1","0","false","1","0.6,0.6,0,0,0.6,0.6,0.6,0,0.6","",""
"","html-keyboard-response","290","254462","0.0-430.0","3HRMW88U17C8H5OINKRGNPWO2HLM07","A3PRQ2GSU42718","3SA4EMRVJVOCGON1OYE6FAUV3AFP0G","","null","<img src=""img/land4.png"" style=""width:200px;border:14px solid red;"">","null","","","","","","","",""
"","image-keyboard-response","291","254547","0.0-432.0","3HRMW88U17C8H5OINKRGNPWO2HLM07","A3PRQ2GSU42718","3SA4EMRVJVOCGON1OYE6FAUV3AFP0G","","82","img/land1.png","74","84","1","1","false","3","0.6,0.6,0,0,0.6,0.6,0.6,0,0.6","",""
"","html-keyboard-response","292","254863","0.0-433.0","3HRMW88U17C8H5OINKRGNPWO2HLM07","A3PRQ2GSU42718","3SA4EMRVJVOCGON1OYE6FAUV3AFP0G","","null","<img src=""img/land1.png"" style=""width:200px; border:14px solid green;"">","null","","","","","","","",""
"","image-keyboard-response","293","254971","0.0-435.0","3HRMW88U17C8H5OINKRGNPWO2HLM07","A3PRQ2GSU42718","3SA4EMRVJVOCGON1OYE6FAUV3AFP0G","","107","img/land4.png","74","108","1","0","false","1","0.6,0.6,0,0,0.6,0.6,0.6,0,0.6","",""
"","html-keyboard-response","294","255295","0.0-436.0","3HRMW88U17C8H5OINKRGNPWO2HLM07","A3PRQ2GSU42718","3SA4EMRVJVOCGON1OYE6FAUV3AFP0G","","null","<img src=""img/land4.png"" style=""width:200px;border:14px solid red;"">","null","","","","","","","",""
"","image-keyboard-response","295","255405","0.0-438.0","3HRMW88U17C8H5OINKRGNPWO2HLM07","A3PRQ2GSU42718","3SA4EMRVJVOCGON1OYE6FAUV3AFP0G","","107","img/land8.png","74","109","1","0","false","2","0.6,0.6,0,0,0.6,0.6,0.6,0,0.6","",""
"","html-keyboard-response","296","255717","0.0-439.0","3HRMW88U17C8H5OINKRGNPWO2HLM07","A3PRQ2GSU42718","3SA4EMRVJVOCGON1OYE6FAUV3AFP0G","","null","<img src=""img/land8.png"" style=""width:200px;border:14px solid red;"">","null","","","","","","","",""
"","image-keyboard-response","297","255827","0.0-441.0","3HRMW88U17C8H5OINKRGNPWO2HLM07","A3PRQ2GSU42718","3SA4EMRVJVOCGON1OYE6FAUV3AFP0G","","108","img/land8.png","74","110","1","0","false","2","0.6,0.6,0,0,0.6,0.6,0.6,0,0.6","",""
"","html-keyboard-response","298","256130","0.0-442.0","3HRMW88U17C8H5OINKRGNPWO2HLM07","A3PRQ2GSU42718","3SA4EMRVJVOCGON1OYE6FAUV3AFP0G","","null","<img src=""img/land8.png"" style=""width:200px;border:14px solid red;"">","null","","","","","","","",""
"","image-keyboard-response","299","256255","0.0-444.0","3HRMW88U17C8H5OINKRGNPWO2HLM07","A3PRQ2GSU42718","3SA4EMRVJVOCGON1OYE6FAUV3AFP0G","","123","img/land4.png","74","125","1","0","false","1","0.6,0.6,0,0,0.6,0.6,0.6,0,0.6","",""
"","html-keyboard-response","300","256566","0.0-445.0","3HRMW88U17C8H5OINKRGNPWO2HLM07","A3PRQ2GSU42718","3SA4EMRVJVOCGON1OYE6FAUV3AFP0G","","null","<img src=""img/land4.png"" style=""width:200px;border:14px solid red;"">","null","","","","","","","",""
"","image-keyboard-response","301","256652","0.0-447.0","3HRMW88U17C8H5OINKRGNPWO2HLM07","A3PRQ2GSU42718","3SA4EMRVJVOCGON1OYE6FAUV3AFP0G","","83","img/land4.png","74","84","1","0","false","1","0.6,0.6,0,0,0.6,0.6,0.6,0,0.6","",""
"","html-keyboard-response","302","256966","0.0-448.0","3HRMW88U17C8H5OINKRGNPWO2HLM07","A3PRQ2GSU42718","3SA4EMRVJVOCGON1OYE6FAUV3AFP0G","","null","<img src=""img/land4.png"" style=""width:200px;border:14px solid red;"">","null","","","","","","","",""
"","image-keyboard-response","303","257036","0.0-450.0","3HRMW88U17C8H5OINKRGNPWO2HLM07","A3PRQ2GSU42718","3SA4EMRVJVOCGON1OYE6FAUV3AFP0G","","67","img/land4.png","74","69","1","1","false","1","0.6,0.6,0,0,0.6,0.6,0.6,0,0.6","",""
"","html-keyboard-response","304","257338","0.0-451.0","3HRMW88U17C8H5OINKRGNPWO2HLM07","A3PRQ2GSU42718","3SA4EMRVJVOCGON1OYE6FAUV3AFP0G","","null","<img src=""img/land4.png"" style=""width:200px; border:14px solid green;"">","null","","","","","","","",""
"","image-keyboard-response","305","257451","0.0-453.0","3HRMW88U17C8H5OINKRGNPWO2HLM07","A3PRQ2GSU42718","3SA4EMRVJVOCGON1OYE6FAUV3AFP0G","","111","img/land1.png","74","112","1","0","false","3","0.6,0.6,0,0,0.6,0.6,0.6,0,0.6","",""
"","html-keyboard-response","306","257769","0.0-454.0","3HRMW88U17C8H5OINKRGNPWO2HLM07","A3PRQ2GSU42718","3SA4EMRVJVOCGON1OYE6FAUV3AFP0G","","null","<img src=""img/land1.png"" style=""width:200px;border:14px solid red;"">","null","","","","","","","",""
"","image-keyboard-response","307","257895","0.0-456.0","3HRMW88U17C8H5OINKRGNPWO2HLM07","A3PRQ2GSU42718","3SA4EMRVJVOCGON1OYE6FAUV3AFP0G","","125","img/land4.png","74","125","1","1","false","1","0.6,0.6,0,0,0.6,0.6,0.6,0,0.6","",""
"","html-keyboard-response","308","258209","0.0-457.0","3HRMW88U17C8H5OINKRGNPWO2HLM07","A3PRQ2GSU42718","3SA4EMRVJVOCGON1OYE6FAUV3AFP0G","","null","<img src=""img/land4.png"" style=""width:200px; border:14px solid green;"">","null","","","","","","","",""
"","image-keyboard-response","309","258354","0.0-459.0","3HRMW88U17C8H5OINKRGNPWO2HLM07","A3PRQ2GSU42718","3SA4EMRVJVOCGON1OYE6FAUV3AFP0G","","144","img/land1.png","74","145","1","1","false","3","0.6,0.6,0,0,0.6,0.6,0.6,0,0.6","",""
"","html-keyboard-response","310","258671","0.0-460.0","3HRMW88U17C8H5OINKRGNPWO2HLM07","A3PRQ2GSU42718","3SA4EMRVJVOCGON1OYE6FAUV3AFP0G","","null","<img src=""img/land1.png"" style=""width:200px; border:14px solid green;"">","null","","","","","","","",""
"","image-keyboard-response","311","258745","0.0-462.0","3HRMW88U17C8H5OINKRGNPWO2HLM07","A3PRQ2GSU42718","3SA4EMRVJVOCGON1OYE6FAUV3AFP0G","","71","img/land8.png","75","72","2","1","false","2","0.6,0.6,0,0,0.6,0.6,0.6,0,0.6","",""
"","html-keyboard-response","312","259073","0.0-463.0","3HRMW88U17C8H5OINKRGNPWO2HLM07","A3PRQ2GSU42718","3SA4EMRVJVOCGON1OYE6FAUV3AFP0G","","null","<img src=""img/land8.png"" style=""width:200px; border:14px solid green;"">","null","","","","","","","",""
"","image-keyboard-response","313","259145","0.0-465.0","3HRMW88U17C8H5OINKRGNPWO2HLM07","A3PRQ2GSU42718","3SA4EMRVJVOCGON1OYE6FAUV3AFP0G","","69","img/land4.png","75","71","2","1","false","1","0.6,0.6,0,0,0.6,0.6,0.6,0,0.6","",""
"","html-keyboard-response","314","259460","0.0-466.0","3HRMW88U17C8H5OINKRGNPWO2HLM07","A3PRQ2GSU42718","3SA4EMRVJVOCGON1OYE6FAUV3AFP0G","","null","<img src=""img/land4.png"" style=""width:200px; border:14px solid green;"">","null","","","","","","","",""
"","image-keyboard-response","315","259550","0.0-468.0","3HRMW88U17C8H5OINKRGNPWO2HLM07","A3PRQ2GSU42718","3SA4EMRVJVOCGON1OYE6FAUV3AFP0G","","88","img/land4.png","75","90","2","1","false","1","0.6,0.6,0,0,0.6,0.6,0.6,0,0.6","",""
"","html-keyboard-response","316","259856","0.0-469.0","3HRMW88U17C8H5OINKRGNPWO2HLM07","A3PRQ2GSU42718","3SA4EMRVJVOCGON1OYE6FAUV3AFP0G","","null","<img src=""img/land4.png"" style=""width:200px; border:14px solid green;"">","null","","","","","","","",""
"","image-keyboard-response","317","259965","0.0-471.0","3HRMW88U17C8H5OINKRGNPWO2HLM07","A3PRQ2GSU42718","3SA4EMRVJVOCGON1OYE6FAUV3AFP0G","","106","img/land8.png","75","108","2","1","false","2","0.6,0.6,0,0,0.6,0.6,0.6,0,0.6","",""
"","html-keyboard-response","318","260283","0.0-472.0","3HRMW88U17C8H5OINKRGNPWO2HLM07","A3PRQ2GSU42718","3SA4EMRVJVOCGON1OYE6FAUV3AFP0G","","null","<img src=""img/land8.png"" style=""width:200px; border:14px solid green;"">","null","","","","","","","",""
"","image-keyboard-response","319","260406","0.0-474.0","3HRMW88U17C8H5OINKRGNPWO2HLM07","A3PRQ2GSU42718","3SA4EMRVJVOCGON1OYE6FAUV3AFP0G","","119","img/land8.png","75","121","2","0","false","2","0.6,0.6,0,0,0.6,0.6,0.6,0,0.6","",""
"","html-keyboard-response","320","260726","0.0-475.0","3HRMW88U17C8H5OINKRGNPWO2HLM07","A3PRQ2GSU42718","3SA4EMRVJVOCGON1OYE6FAUV3AFP0G","","null","<img src=""img/land8.png"" style=""width:200px;border:14px solid red;"">","null","","","","","","","",""
"","image-keyboard-response","321","260799","0.0-477.0","3HRMW88U17C8H5OINKRGNPWO2HLM07","A3PRQ2GSU42718","3SA4EMRVJVOCGON1OYE6FAUV3AFP0G","","71","img/land4.png","75","72","2","1","false","1","0.6,0.6,0,0,0.6,0.6,0.6,0,0.6","",""
"","html-keyboard-response","322","261121","0.0-478.0","3HRMW88U17C8H5OINKRGNPWO2HLM07","A3PRQ2GSU42718","3SA4EMRVJVOCGON1OYE6FAUV3AFP0G","","null","<img src=""img/land4.png"" style=""width:200px; border:14px solid green;"">","null","","","","","","","",""
"","image-keyboard-response","323","261199","0.0-480.0","3HRMW88U17C8H5OINKRGNPWO2HLM07","A3PRQ2GSU42718","3SA4EMRVJVOCGON1OYE6FAUV3AFP0G","","75","img/land4.png","75","76","2","0","false","1","0.6,0.6,0,0,0.6,0.6,0.6,0,0.6","",""
"","html-keyboard-response","324","261512","0.0-481.0","3HRMW88U17C8H5OINKRGNPWO2HLM07","A3PRQ2GSU42718","3SA4EMRVJVOCGON1OYE6FAUV3AFP0G","","null","<img src=""img/land4.png"" style=""width:200px;border:14px solid red;"">","null","","","","","","","",""
"","image-keyboard-response","325","261618","0.0-483.0","3HRMW88U17C8H5OINKRGNPWO2HLM07","A3PRQ2GSU42718","3SA4EMRVJVOCGON1OYE6FAUV3AFP0G","","104","img/land8.png","75","105","2","1","false","2","0.6,0.6,0,0,0.6,0.6,0.6,0,0.6","",""
"","html-keyboard-response","326","261927","0.0-484.0","3HRMW88U17C8H5OINKRGNPWO2HLM07","A3PRQ2GSU42718","3SA4EMRVJVOCGON1OYE6FAUV3AFP0G","","null","<img src=""img/land8.png"" style=""width:200px; border:14px solid green;"">","null","","","","","","","",""
"","image-keyboard-response","327","262044","0.0-486.0","3HRMW88U17C8H5OINKRGNPWO2HLM07","A3PRQ2GSU42718","3SA4EMRVJVOCGON1OYE6FAUV3AFP0G","","115","img/land4.png","75","115","2","1","false","1","0.6,0.6,0,0,0.6,0.6,0.6,0,0.6","",""
"","html-keyboard-response","328","262354","0.0-487.0","3HRMW88U17C8H5OINKRGNPWO2HLM07","A3PRQ2GSU42718","3SA4EMRVJVOCGON1OYE6FAUV3AFP0G","","null","<img src=""img/land4.png"" style=""width:200px; border:14px solid green;"">","null","","","","","","","",""
"","image-keyboard-response","329","262447","0.0-489.0","3HRMW88U17C8H5OINKRGNPWO2HLM07","A3PRQ2GSU42718","3SA4EMRVJVOCGON1OYE6FAUV3AFP0G","","91","img/land8.png","75","92","2","0","false","2","0.6,0.6,0,0,0.6,0.6,0.6,0,0.6","",""
"","html-keyboard-response","330","262749","0.0-490.0","3HRMW88U17C8H5OINKRGNPWO2HLM07","A3PRQ2GSU42718","3SA4EMRVJVOCGON1OYE6FAUV3AFP0G","","null","<img src=""img/land8.png"" style=""width:200px;border:14px solid red;"">","null","","","","","","","",""
"","image-keyboard-response","331","262839","0.0-492.0","3HRMW88U17C8H5OINKRGNPWO2HLM07","A3PRQ2GSU42718","3SA4EMRVJVOCGON1OYE6FAUV3AFP0G","","87","img/land1.png","75","90","2","0","false","3","0.6,0.6,0,0,0.6,0.6,0.6,0,0.6","",""
"","html-keyboard-response","332","263146","0.0-493.0","3HRMW88U17C8H5OINKRGNPWO2HLM07","A3PRQ2GSU42718","3SA4EMRVJVOCGON1OYE6FAUV3AFP0G","","null","<img src=""img/land1.png"" style=""width:200px;border:14px solid red;"">","null","","","","","","","",""
"","image-keyboard-response","333","263227","0.0-495.0","3HRMW88U17C8H5OINKRGNPWO2HLM07","A3PRQ2GSU42718","3SA4EMRVJVOCGON1OYE6FAUV3AFP0G","","79","img/land4.png","75","81","2","0","false","1","0.6,0.6,0,0,0.6,0.6,0.6,0,0.6","",""
"","html-keyboard-response","334","263537","0.0-496.0","3HRMW88U17C8H5OINKRGNPWO2HLM07","A3PRQ2GSU42718","3SA4EMRVJVOCGON1OYE6FAUV3AFP0G","","null","<img src=""img/land4.png"" style=""width:200px;border:14px solid red;"">","null","","","","","","","",""
"","image-keyboard-response","335","263599","0.0-498.0","3HRMW88U17C8H5OINKRGNPWO2HLM07","A3PRQ2GSU42718","3SA4EMRVJVOCGON1OYE6FAUV3AFP0G","","60","img/land1.png","75","61","2","0","false","3","0.6,0.6,0,0,0.6,0.6,0.6,0,0.6","",""
"","html-keyboard-response","336","263902","0.0-499.0","3HRMW88U17C8H5OINKRGNPWO2HLM07","A3PRQ2GSU42718","3SA4EMRVJVOCGON1OYE6FAUV3AFP0G","","null","<img src=""img/land1.png"" style=""width:200px;border:14px solid red;"">","null","","","","","","","",""
"","image-keyboard-response","337","263962","0.0-501.0","3HRMW88U17C8H5OINKRGNPWO2HLM07","A3PRQ2GSU42718","3SA4EMRVJVOCGON1OYE6FAUV3AFP0G","","59","img/land1.png","76","61","3","1","false","3","0.6,0.6,0,0,0.6,0.6,0.6,0,0.6","",""
"","html-keyboard-response","338","264285","0.0-502.0","3HRMW88U17C8H5OINKRGNPWO2HLM07","A3PRQ2GSU42718","3SA4EMRVJVOCGON1OYE6FAUV3AFP0G","","null","<img src=""img/land1.png"" style=""width:200px; border:14px solid green;"">","null","","","","","","","",""
"","image-keyboard-response","339","264350","0.0-504.0","3HRMW88U17C8H5OINKRGNPWO2HLM07","A3PRQ2GSU42718","3SA4EMRVJVOCGON1OYE6FAUV3AFP0G","","63","img/land4.png","76","64","3","0","false","1","0.6,0.6,0,0,0.6,0.6,0.6,0,0.6","",""
"","html-keyboard-response","340","264666","0.0-505.0","3HRMW88U17C8H5OINKRGNPWO2HLM07","A3PRQ2GSU42718","3SA4EMRVJVOCGON1OYE6FAUV3AFP0G","","null","<img src=""img/land4.png"" style=""width:200px;border:14px solid red;"">","null","","","","","","","",""
"","image-keyboard-response","341","264731","0.0-507.0","3HRMW88U17C8H5OINKRGNPWO2HLM07","A3PRQ2GSU42718","3SA4EMRVJVOCGON1OYE6FAUV3AFP0G","","62","img/land1.png","76","63","3","0","false","3","0.6,0.6,0,0,0.6,0.6,0.6,0,0.6","",""
"","html-keyboard-response","342","265035","0.0-508.0","3HRMW88U17C8H5OINKRGNPWO2HLM07","A3PRQ2GSU42718","3SA4EMRVJVOCGON1OYE6FAUV3AFP0G","","null","<img src=""img/land1.png"" style=""width:200px;border:14px solid red;"">","null","","","","","","","",""
"","image-keyboard-response","343","265126","0.0-510.0","3HRMW88U17C8H5OINKRGNPWO2HLM07","A3PRQ2GSU42718","3SA4EMRVJVOCGON1OYE6FAUV3AFP0G","","88","img/land1.png","76","90","3","1","false","3","0.6,0.6,0,0,0.6,0.6,0.6,0,0.6","",""
"","html-keyboard-response","344","265430","0.0-511.0","3HRMW88U17C8H5OINKRGNPWO2HLM07","A3PRQ2GSU42718","3SA4EMRVJVOCGON1OYE6FAUV3AFP0G","","null","<img src=""img/land1.png"" style=""width:200px; border:14px solid green;"">","null","","","","","","","",""
"","image-keyboard-response","345","265509","0.0-513.0","3HRMW88U17C8H5OINKRGNPWO2HLM07","A3PRQ2GSU42718","3SA4EMRVJVOCGON1OYE6FAUV3AFP0G","","76","img/land4.png","76","78","3","0","false","1","0.6,0.6,0,0,0.6,0.6,0.6,0,0.6","",""
"","html-keyboard-response","346","265823","0.0-514.0","3HRMW88U17C8H5OINKRGNPWO2HLM07","A3PRQ2GSU42718","3SA4EMRVJVOCGON1OYE6FAUV3AFP0G","","null","<img src=""img/land4.png"" style=""width:200px;border:14px solid red;"">","null","","","","","","","",""
"","image-keyboard-response","347","265904","0.0-516.0","3HRMW88U17C8H5OINKRGNPWO2HLM07","A3PRQ2GSU42718","3SA4EMRVJVOCGON1OYE6FAUV3AFP0G","","79","img/land4.png","76","80","3","0","false","1","0.6,0.6,0,0,0.6,0.6,0.6,0,0.6","",""
"","html-keyboard-response","348","266220","0.0-517.0","3HRMW88U17C8H5OINKRGNPWO2HLM07","A3PRQ2GSU42718","3SA4EMRVJVOCGON1OYE6FAUV3AFP0G","","null","<img src=""img/land4.png"" style=""width:200px;border:14px solid red;"">","null","","","","","","","",""
"","image-keyboard-response","349","266283","0.0-519.0","3HRMW88U17C8H5OINKRGNPWO2HLM07","A3PRQ2GSU42718","3SA4EMRVJVOCGON1OYE6FAUV3AFP0G","","60","img/land4.png","76","62","3","0","false","1","0.6,0.6,0,0,0.6,0.6,0.6,0,0.6","",""
"","html-keyboard-response","350","266590","0.0-520.0","3HRMW88U17C8H5OINKRGNPWO2HLM07","A3PRQ2GSU42718","3SA4EMRVJVOCGON1OYE6FAUV3AFP0G","","null","<img src=""img/land4.png"" style=""width:200px;border:14px solid red;"">","null","","","","","","","",""
"","image-keyboard-response","351","266652","0.0-522.0","3HRMW88U17C8H5OINKRGNPWO2HLM07","A3PRQ2GSU42718","3SA4EMRVJVOCGON1OYE6FAUV3AFP0G","","60","img/land1.png","76","62","3","1","false","3","0.6,0.6,0,0,0.6,0.6,0.6,0,0.6","",""
"","html-keyboard-response","352","266956","0.0-523.0","3HRMW88U17C8H5OINKRGNPWO2HLM07","A3PRQ2GSU42718","3SA4EMRVJVOCGON1OYE6FAUV3AFP0G","","null","<img src=""img/land1.png"" style=""width:200px; border:14px solid green;"">","null","","","","","","","",""
"","image-keyboard-response","353","267026","0.0-525.0","3HRMW88U17C8H5OINKRGNPWO2HLM07","A3PRQ2GSU42718","3SA4EMRVJVOCGON1OYE6FAUV3AFP0G","","68","img/land8.png","76","70","3","0","false","2","0.6,0.6,0,0,0.6,0.6,0.6,0,0.6","",""
"","html-keyboard-response","354","267340","0.0-526.0","3HRMW88U17C8H5OINKRGNPWO2HLM07","A3PRQ2GSU42718","3SA4EMRVJVOCGON1OYE6FAUV3AFP0G","","null","<img src=""img/land8.png"" style=""width:200px;border:14px solid red;"">","null","","","","","","","",""
"","image-keyboard-response","355","267402","0.0-528.0","3HRMW88U17C8H5OINKRGNPWO2HLM07","A3PRQ2GSU42718","3SA4EMRVJVOCGON1OYE6FAUV3AFP0G","","60","img/land1.png","76","61","3","0","false","3","0.6,0.6,0,0,0.6,0.6,0.6,0,0.6","",""
"","html-keyboard-response","356","267708","0.0-529.0","3HRMW88U17C8H5OINKRGNPWO2HLM07","A3PRQ2GSU42718","3SA4EMRVJVOCGON1OYE6FAUV3AFP0G","","null","<img src=""img/land1.png"" style=""width:200px;border:14px solid red;"">","null","","","","","","","",""
"","image-keyboard-response","357","267786","0.0-531.0","3HRMW88U17C8H5OINKRGNPWO2HLM07","A3PRQ2GSU42718","3SA4EMRVJVOCGON1OYE6FAUV3AFP0G","","75","img/land1.png","76","77","3","0","false","3","0.6,0.6,0,0,0.6,0.6,0.6,0,0.6","",""
"","html-keyboard-response","358","268094","0.0-532.0","3HRMW88U17C8H5OINKRGNPWO2HLM07","A3PRQ2GSU42718","3SA4EMRVJVOCGON1OYE6FAUV3AFP0G","","null","<img src=""img/land1.png"" style=""width:200px;border:14px solid red;"">","null","","","","","","","",""
"","image-keyboard-response","359","268153","0.0-534.0","3HRMW88U17C8H5OINKRGNPWO2HLM07","A3PRQ2GSU42718","3SA4EMRVJVOCGON1OYE6FAUV3AFP0G","","57","img/land8.png","76","58","3","0","false","2","0.6,0.6,0,0,0.6,0.6,0.6,0,0.6","",""
"","html-keyboard-response","360","268460","0.0-535.0","3HRMW88U17C8H5OINKRGNPWO2HLM07","A3PRQ2GSU42718","3SA4EMRVJVOCGON1OYE6FAUV3AFP0G","","null","<img src=""img/land8.png"" style=""width:200px;border:14px solid red;"">","null","","","","","","","",""
"","image-keyboard-response","361","268507","0.0-537.0","3HRMW88U17C8H5OINKRGNPWO2HLM07","A3PRQ2GSU42718","3SA4EMRVJVOCGON1OYE6FAUV3AFP0G","","45","img/land1.png","76","45","3","1","false","3","0.6,0.6,0,0,0.6,0.6,0.6,0,0.6","",""
"","html-keyboard-response","362","268811","0.0-538.0","3HRMW88U17C8H5OINKRGNPWO2HLM07","A3PRQ2GSU42718","3SA4EMRVJVOCGON1OYE6FAUV3AFP0G","","null","<img src=""img/land1.png"" style=""width:200px; border:14px solid green;"">","null","","","","","","","",""
"","image-keyboard-response","363","268864","0.0-540.0","3HRMW88U17C8H5OINKRGNPWO2HLM07","A3PRQ2GSU42718","3SA4EMRVJVOCGON1OYE6FAUV3AFP0G","","52","img/land4.png","76","54","3","0","false","1","0.6,0.6,0,0,0.6,0.6,0.6,0,0.6","",""
"","html-keyboard-response","364","269179","0.0-541.0","3HRMW88U17C8H5OINKRGNPWO2HLM07","A3PRQ2GSU42718","3SA4EMRVJVOCGON1OYE6FAUV3AFP0G","","null","<img src=""img/land4.png"" style=""width:200px;border:14px solid red;"">","null","","","","","","","",""
"","html-keyboard-response","365","271526","0.0-543.0","3HRMW88U17C8H5OINKRGNPWO2HLM07","A3PRQ2GSU42718","3SA4EMRVJVOCGON1OYE6FAUV3AFP0G","","","","","","","","","","","",""
"","image-keyboard-response","366","272540","0.0-544.0","3HRMW88U17C8H5OINKRGNPWO2HLM07","A3PRQ2GSU42718","3SA4EMRVJVOCGON1OYE6FAUV3AFP0G","","","img/land2.png","","1013","-1","0","true","1","0.8,0.8,0.2,0.2,0.8,0.8,0.8,0.2,0.8","",""
"","html-keyboard-response","367","272844","0.0-545.0","3HRMW88U17C8H5OINKRGNPWO2HLM07","A3PRQ2GSU42718","3SA4EMRVJVOCGON1OYE6FAUV3AFP0G","","null","<img src=""img/land2.png"" style=""width:200px;border:14px solid red;"">","null","","","","","","","",""
"","html-keyboard-response","368","275129","0.0-546.0-0.0","3HRMW88U17C8H5OINKRGNPWO2HLM07","A3PRQ2GSU42718","3SA4EMRVJVOCGON1OYE6FAUV3AFP0G","","","","","","","","","","","",""
"","image-keyboard-response","369","275794","0.0-547.0","3HRMW88U17C8H5OINKRGNPWO2HLM07","A3PRQ2GSU42718","3SA4EMRVJVOCGON1OYE6FAUV3AFP0G","","662","img/land2.png","75","665","2","1","false","1","0.8,0.8,0.2,0.2,0.8,0.8,0.8,0.2,0.8","",""
"","html-keyboard-response","370","276100","0.0-548.0","3HRMW88U17C8H5OINKRGNPWO2HLM07","A3PRQ2GSU42718","3SA4EMRVJVOCGON1OYE6FAUV3AFP0G","","null","<img src=""img/land2.png"" style=""width:200px; border:14px solid green;"">","null","","","","","","","",""
"","image-keyboard-response","371","276147","0.0-550.0","3HRMW88U17C8H5OINKRGNPWO2HLM07","A3PRQ2GSU42718","3SA4EMRVJVOCGON1OYE6FAUV3AFP0G","","43","img/land7.png","75","44","2","0","false","3","0.8,0.8,0.2,0.2,0.8,0.8,0.8,0.2,0.8","",""
"","html-keyboard-response","372","276454","0.0-551.0","3HRMW88U17C8H5OINKRGNPWO2HLM07","A3PRQ2GSU42718","3SA4EMRVJVOCGON1OYE6FAUV3AFP0G","","null","<img src=""img/land7.png"" style=""width:200px;border:14px solid red;"">","null","","","","","","","",""
"","image-keyboard-response","373","276522","0.0-553.0","3HRMW88U17C8H5OINKRGNPWO2HLM07","A3PRQ2GSU42718","3SA4EMRVJVOCGON1OYE6FAUV3AFP0G","","65","img/land7.png","75","67","2","0","false","3","0.8,0.8,0.2,0.2,0.8,0.8,0.8,0.2,0.8","",""
"","html-keyboard-response","374","276823","0.0-554.0","3HRMW88U17C8H5OINKRGNPWO2HLM07","A3PRQ2GSU42718","3SA4EMRVJVOCGON1OYE6FAUV3AFP0G","","null","<img src=""img/land7.png"" style=""width:200px;border:14px solid red;"">","null","","","","","","","",""
"","image-keyboard-response","375","276886","0.0-556.0","3HRMW88U17C8H5OINKRGNPWO2HLM07","A3PRQ2GSU42718","3SA4EMRVJVOCGON1OYE6FAUV3AFP0G","","61","img/land7.png","75","62","2","0","false","3","0.8,0.8,0.2,0.2,0.8,0.8,0.8,0.2,0.8","",""
"","html-keyboard-response","376","277191","0.0-557.0","3HRMW88U17C8H5OINKRGNPWO2HLM07","A3PRQ2GSU42718","3SA4EMRVJVOCGON1OYE6FAUV3AFP0G","","null","<img src=""img/land7.png"" style=""width:200px;border:14px solid red;"">","null","","","","","","","",""
"","image-keyboard-response","377","277221","0.0-559.0","3HRMW88U17C8H5OINKRGNPWO2HLM07","A3PRQ2GSU42718","3SA4EMRVJVOCGON1OYE6FAUV3AFP0G","","28","img/land7.png","75","30","2","0","false","3","0.8,0.8,0.2,0.2,0.8,0.8,0.8,0.2,0.8","",""
"","html-keyboard-response","378","277536","0.0-560.0","3HRMW88U17C8H5OINKRGNPWO2HLM07","A3PRQ2GSU42718","3SA4EMRVJVOCGON1OYE6FAUV3AFP0G","","null","<img src=""img/land7.png"" style=""width:200px;border:14px solid red;"">","null","","","","","","","",""
"","image-keyboard-response","379","277584","0.0-562.0","3HRMW88U17C8H5OINKRGNPWO2HLM07","A3PRQ2GSU42718","3SA4EMRVJVOCGON1OYE6FAUV3AFP0G","","44","img/land6.png","75","45","2","0","false","2","0.8,0.8,0.2,0.2,0.8,0.8,0.8,0.2,0.8","",""
"","html-keyboard-response","380","277901","0.0-563.0","3HRMW88U17C8H5OINKRGNPWO2HLM07","A3PRQ2GSU42718","3SA4EMRVJVOCGON1OYE6FAUV3AFP0G","","null","<img src=""img/land6.png"" style=""width:200px;border:14px solid red;"">","null","","","","","","","",""
"","image-keyboard-response","381","277903","0.0-565.0","3HRMW88U17C8H5OINKRGNPWO2HLM07","A3PRQ2GSU42718","3SA4EMRVJVOCGON1OYE6FAUV3AFP0G","","1","img/land2.png","75","2","2","1","false","1","0.8,0.8,0.2,0.2,0.8,0.8,0.8,0.2,0.8","",""
"","html-keyboard-response","382","278228","0.0-566.0","3HRMW88U17C8H5OINKRGNPWO2HLM07","A3PRQ2GSU42718","3SA4EMRVJVOCGON1OYE6FAUV3AFP0G","","null","<img src=""img/land2.png"" style=""width:200px; border:14px solid green;"">","null","","","","","","","",""
"","image-keyboard-response","383","278546","0.0-568.0","3HRMW88U17C8H5OINKRGNPWO2HLM07","A3PRQ2GSU42718","3SA4EMRVJVOCGON1OYE6FAUV3AFP0G","","316","img/land7.png","76","317","3","1","false","3","0.8,0.8,0.2,0.2,0.8,0.8,0.8,0.2,0.8","",""
"","html-keyboard-response","384","278865","0.0-569.0","3HRMW88U17C8H5OINKRGNPWO2HLM07","A3PRQ2GSU42718","3SA4EMRVJVOCGON1OYE6FAUV3AFP0G","","null","<img src=""img/land7.png"" style=""width:200px; border:14px solid green;"">","null","","","","","","","",""
"","image-keyboard-response","385","278917","0.0-571.0","3HRMW88U17C8H5OINKRGNPWO2HLM07","A3PRQ2GSU42718","3SA4EMRVJVOCGON1OYE6FAUV3AFP0G","","50","img/land2.png","76","52","3","0","false","1","0.8,0.8,0.2,0.2,0.8,0.8,0.8,0.2,0.8","",""
"","html-keyboard-response","386","279230","0.0-572.0","3HRMW88U17C8H5OINKRGNPWO2HLM07","A3PRQ2GSU42718","3SA4EMRVJVOCGON1OYE6FAUV3AFP0G","","null","<img src=""img/land2.png"" style=""width:200px;border:14px solid red;"">","null","","","","","","","",""
"","image-keyboard-response","387","279267","0.0-574.0","3HRMW88U17C8H5OINKRGNPWO2HLM07","A3PRQ2GSU42718","3SA4EMRVJVOCGON1OYE6FAUV3AFP0G","","36","img/land7.png","76","38","3","1","false","3","0.8,0.8,0.2,0.2,0.8,0.8,0.8,0.2,0.8","",""
"","html-keyboard-response","388","279578","0.0-575.0","3HRMW88U17C8H5OINKRGNPWO2HLM07","A3PRQ2GSU42718","3SA4EMRVJVOCGON1OYE6FAUV3AFP0G","","null","<img src=""img/land7.png"" style=""width:200px; border:14px solid green;"">","null","","","","","","","",""
"","image-keyboard-response","389","279690","0.0-577.0","3HRMW88U17C8H5OINKRGNPWO2HLM07","A3PRQ2GSU42718","3SA4EMRVJVOCGON1OYE6FAUV3AFP0G","","110","img/land6.png","76","111","3","1","false","2","0.8,0.8,0.2,0.2,0.8,0.8,0.8,0.2,0.8","",""
"","html-keyboard-response","390","279994","0.0-578.0","3HRMW88U17C8H5OINKRGNPWO2HLM07","A3PRQ2GSU42718","3SA4EMRVJVOCGON1OYE6FAUV3AFP0G","","null","<img src=""img/land6.png"" style=""width:200px; border:14px solid green;"">","null","","","","","","","",""
"","image-keyboard-response","391","280042","0.0-580.0","3HRMW88U17C8H5OINKRGNPWO2HLM07","A3PRQ2GSU42718","3SA4EMRVJVOCGON1OYE6FAUV3AFP0G","","48","img/land2.png","76","48","3","0","false","1","0.8,0.8,0.2,0.2,0.8,0.8,0.8,0.2,0.8","",""
"","html-keyboard-response","392","280350","0.0-581.0","3HRMW88U17C8H5OINKRGNPWO2HLM07","A3PRQ2GSU42718","3SA4EMRVJVOCGON1OYE6FAUV3AFP0G","","null","<img src=""img/land2.png"" style=""width:200px;border:14px solid red;"">","null","","","","","","","",""
"","image-keyboard-response","393","280425","0.0-583.0","3HRMW88U17C8H5OINKRGNPWO2HLM07","A3PRQ2GSU42718","3SA4EMRVJVOCGON1OYE6FAUV3AFP0G","","74","img/land6.png","76","75","3","1","false","2","0.8,0.8,0.2,0.2,0.8,0.8,0.8,0.2,0.8","",""
"","html-keyboard-response","394","280737","0.0-584.0","3HRMW88U17C8H5OINKRGNPWO2HLM07","A3PRQ2GSU42718","3SA4EMRVJVOCGON1OYE6FAUV3AFP0G","","null","<img src=""img/land6.png"" style=""width:200px; border:14px solid green;"">","null","","","","","","","",""
"","image-keyboard-response","395","280760","0.0-586.0","3HRMW88U17C8H5OINKRGNPWO2HLM07","A3PRQ2GSU42718","3SA4EMRVJVOCGON1OYE6FAUV3AFP0G","","22","img/land7.png","76","23","3","1","false","3","0.8,0.8,0.2,0.2,0.8,0.8,0.8,0.2,0.8","",""
"","html-keyboard-response","396","281064","0.0-587.0","3HRMW88U17C8H5OINKRGNPWO2HLM07","A3PRQ2GSU42718","3SA4EMRVJVOCGON1OYE6FAUV3AFP0G","","null","<img src=""img/land7.png"" style=""width:200px; border:14px solid green;"">","null","","","","","","","",""
"","image-keyboard-response","397","281106","0.0-589.0","3HRMW88U17C8H5OINKRGNPWO2HLM07","A3PRQ2GSU42718","3SA4EMRVJVOCGON1OYE6FAUV3AFP0G","","40","img/land6.png","76","42","3","0","false","2","0.8,0.8,0.2,0.2,0.8,0.8,0.8,0.2,0.8","",""
"","html-keyboard-response","398","281410","0.0-590.0","3HRMW88U17C8H5OINKRGNPWO2HLM07","A3PRQ2GSU42718","3SA4EMRVJVOCGON1OYE6FAUV3AFP0G","","null","<img src=""img/land6.png"" style=""width:200px;border:14px solid red;"">","null","","","","","","","",""
"","image-keyboard-response","399","281465","0.0-592.0","3HRMW88U17C8H5OINKRGNPWO2HLM07","A3PRQ2GSU42718","3SA4EMRVJVOCGON1OYE6FAUV3AFP0G","","54","img/land7.png","76","56","3","1","false","3","0.8,0.8,0.2,0.2,0.8,0.8,0.8,0.2,0.8","",""
"","html-keyboard-response","400","281775","0.0-593.0","3HRMW88U17C8H5OINKRGNPWO2HLM07","A3PRQ2GSU42718","3SA4EMRVJVOCGON1OYE6FAUV3AFP0G","","null","<img src=""img/land7.png"" style=""width:200px; border:14px solid green;"">","null","","","","","","","",""
"","image-keyboard-response","401","281821","0.0-595.0","3HRMW88U17C8H5OINKRGNPWO2HLM07","A3PRQ2GSU42718","3SA4EMRVJVOCGON1OYE6FAUV3AFP0G","","44","img/land7.png","76","45","3","1","false","3","0.8,0.8,0.2,0.2,0.8,0.8,0.8,0.2,0.8","",""
"","html-keyboard-response","402","282128","0.0-596.0","3HRMW88U17C8H5OINKRGNPWO2HLM07","A3PRQ2GSU42718","3SA4EMRVJVOCGON1OYE6FAUV3AFP0G","","null","<img src=""img/land7.png"" style=""width:200px; border:14px solid green;"">","null","","","","","","","",""
"","image-keyboard-response","403","282159","0.0-598.0","3HRMW88U17C8H5OINKRGNPWO2HLM07","A3PRQ2GSU42718","3SA4EMRVJVOCGON1OYE6FAUV3AFP0G","","30","img/land6.png","76","30","3","0","false","2","0.8,0.8,0.2,0.2,0.8,0.8,0.8,0.2,0.8","",""
"","html-keyboard-response","404","282470","0.0-599.0","3HRMW88U17C8H5OINKRGNPWO2HLM07","A3PRQ2GSU42718","3SA4EMRVJVOCGON1OYE6FAUV3AFP0G","","null","<img src=""img/land6.png"" style=""width:200px;border:14px solid red;"">","null","","","","","","","",""
"","image-keyboard-response","405","282496","0.0-601.0","3HRMW88U17C8H5OINKRGNPWO2HLM07","A3PRQ2GSU42718","3SA4EMRVJVOCGON1OYE6FAUV3AFP0G","","24","img/land7.png","76","26","3","1","false","3","0.8,0.8,0.2,0.2,0.8,0.8,0.8,0.2,0.8","",""
"","html-keyboard-response","406","282828","0.0-602.0","3HRMW88U17C8H5OINKRGNPWO2HLM07","A3PRQ2GSU42718","3SA4EMRVJVOCGON1OYE6FAUV3AFP0G","","null","<img src=""img/land7.png"" style=""width:200px; border:14px solid green;"">","null","","","","","","","",""
