"success","trial_type","trial_index","time_elapsed","internal_node_id","assignmentID","mturkID","hitID","view_history","rt","stimulus","key_press","reactionTime","a","r","s","cond","reward_cond","reward_cond_actual","reward_matrix_idx","responses","question_order"
"true","fullscreen","0","3153","0.0-0.0","37WLF8U1WQC85SAU4XUHHDEBT5O6KI","A3QNV0P3W7ZOAX","3YO4AH2FPD6XG0OGOBTVFFK58DY0QT","","","","","","","","","","","","","",""
"","instructions","1","38419","0.0-1.0","37WLF8U1WQC85SAU4XUHHDEBT5O6KI","A3QNV0P3W7ZOAX","3YO4AH2FPD6XG0OGOBTVFFK58DY0QT","[{""page_index"":0,""viewing_time"":2401},{""page_index"":1,""viewing_time"":2011},{""page_index"":2,""viewing_time"":4456},{""page_index"":3,""viewing_time"":12668},{""page_index"":4,""viewing_time"":6111},{""page_index"":5,""viewing_time"":3152},{""page_index"":6,""viewing_time"":4453}]","35252","","","","","","","","","","","",""
"","image-keyboard-response","2","39947","0.0-2.0","37WLF8U1WQC85SAU4XUHHDEBT5O6KI","A3QNV0P3W7ZOAX","3YO4AH2FPD6XG0OGOBTVFFK58DY0QT","","","img/land2.png","","1526","-1","0","2","2","1,0.7,0.7,0.7,1,0.7,0.7,0.7,1","1,0.7,0.7,0.7,1,0.7,0.7,0.7,1","","",""
"","html-keyboard-response","3","40256","0.0-3.0","37WLF8U1WQC85SAU4XUHHDEBT5O6KI","A3QNV0P3W7ZOAX","3YO4AH2FPD6XG0OGOBTVFFK58DY0QT","","null","<img src=""img/land2.png"" style=""width:200px;border:14px solid red;"">","null","","","","","","","","","",""
"","image-keyboard-response","4","41236","0.0-4.0","37WLF8U1WQC85SAU4XUHHDEBT5O6KI","A3QNV0P3W7ZOAX","3YO4AH2FPD6XG0OGOBTVFFK58DY0QT","","975","img/land2.png","75","980","2","1","2","2","1,0.7,0.7,0.7,1,0.7,0.7,0.7,1","1,0.7,0.7,0.7,1,0.7,0.7,0.7,1","","",""
"","html-keyboard-response","5","41538","0.0-5.0","37WLF8U1WQC85SAU4XUHHDEBT5O6KI","A3QNV0P3W7ZOAX","3YO4AH2FPD6XG0OGOBTVFFK58DY0QT","","null","<img src=""img/land2.png"" style=""width:200px; border:14px solid green;"">","null","","","","","","","","","",""
"","image-keyboard-response","6","42721","0.0-6.0","37WLF8U1WQC85SAU4XUHHDEBT5O6KI","A3QNV0P3W7ZOAX","3YO4AH2FPD6XG0OGOBTVFFK58DY0QT","","1182","img/land3.png","74","1183","1","0","3","2","1,0.7,0.7,0.7,1,0.7,0.7,0.7,1","1,0.7,0.7,0.7,1,0.7,0.7,0.7,1","","",""
"","html-keyboard-response","7","43032","0.0-7.0","37WLF8U1WQC85SAU4XUHHDEBT5O6KI","A3QNV0P3W7ZOAX","3YO4AH2FPD6XG0OGOBTVFFK58DY0QT","","null","<img src=""img/land3.png"" style=""width:200px;border:14px solid red;"">","null","","","","","","","","","",""
"","image-keyboard-response","8","43893","0.0-8.0","37WLF8U1WQC85SAU4XUHHDEBT5O6KI","A3QNV0P3W7ZOAX","3YO4AH2FPD6XG0OGOBTVFFK58DY0QT","","858","img/land1.png","76","861","3","0","1","2","1,0.7,0.7,0.7,1,0.7,0.7,0.7,1","1,0.7,0.7,0.7,1,0.7,0.7,0.7,1","","",""
"","html-keyboard-response","9","44195","0.0-9.0","37WLF8U1WQC85SAU4XUHHDEBT5O6KI","A3QNV0P3W7ZOAX","3YO4AH2FPD6XG0OGOBTVFFK58DY0QT","","null","<img src=""img/land1.png"" style=""width:200px;border:14px solid red;"">","null","","","","","","","","","",""
"","image-keyboard-response","10","44631","0.0-10.0","37WLF8U1WQC85SAU4XUHHDEBT5O6KI","A3QNV0P3W7ZOAX","3YO4AH2FPD6XG0OGOBTVFFK58DY0QT","","434","img/land1.png","74","436","1","1","1","2","1,0.7,0.7,0.7,1,0.7,0.7,0.7,1","1,0.7,0.7,0.7,1,0.7,0.7,0.7,1","","",""
"","html-keyboard-response","11","44934","0.0-11.0","37WLF8U1WQC85SAU4XUHHDEBT5O6KI","A3QNV0P3W7ZOAX","3YO4AH2FPD6XG0OGOBTVFFK58DY0QT","","null","<img src=""img/land1.png"" style=""width:200px; border:14px solid green;"">","null","","","","","","","","","",""
"","image-keyboard-response","12","46082","0.0-12.0","37WLF8U1WQC85SAU4XUHHDEBT5O6KI","A3QNV0P3W7ZOAX","3YO4AH2FPD6XG0OGOBTVFFK58DY0QT","","1148","img/land1.png","74","1148","1","1","1","2","1,0.7,0.7,0.7,1,0.7,0.7,0.7,1","1,0.7,0.7,0.7,1,0.7,0.7,0.7,1","","",""
"","html-keyboard-response","13","46385","0.0-13.0","37WLF8U1WQC85SAU4XUHHDEBT5O6KI","A3QNV0P3W7ZOAX","3YO4AH2FPD6XG0OGOBTVFFK58DY0QT","","null","<img src=""img/land1.png"" style=""width:200px; border:14px solid green;"">","null","","","","","","","","","",""
"","image-keyboard-response","14","47398","0.0-14.0","37WLF8U1WQC85SAU4XUHHDEBT5O6KI","A3QNV0P3W7ZOAX","3YO4AH2FPD6XG0OGOBTVFFK58DY0QT","","1011","img/land3.png","75","1013","2","1","3","2","1,0.7,0.7,0.7,1,0.7,0.7,0.7,1","1,0.7,0.7,0.7,1,0.7,0.7,0.7,1","","",""
"","html-keyboard-response","15","47700","0.0-15.0","37WLF8U1WQC85SAU4XUHHDEBT5O6KI","A3QNV0P3W7ZOAX","3YO4AH2FPD6XG0OGOBTVFFK58DY0QT","","null","<img src=""img/land3.png"" style=""width:200px; border:14px solid green;"">","null","","","","","","","","","",""
"","image-keyboard-response","16","48973","0.0-16.0","37WLF8U1WQC85SAU4XUHHDEBT5O6KI","A3QNV0P3W7ZOAX","3YO4AH2FPD6XG0OGOBTVFFK58DY0QT","","1273","img/land2.png","76","1273","3","1","2","2","1,0.7,0.7,0.7,1,0.7,0.7,0.7,1","1,0.7,0.7,0.7,1,0.7,0.7,0.7,1","","",""
"","html-keyboard-response","17","49274","0.0-17.0","37WLF8U1WQC85SAU4XUHHDEBT5O6KI","A3QNV0P3W7ZOAX","3YO4AH2FPD6XG0OGOBTVFFK58DY0QT","","null","<img src=""img/land2.png"" style=""width:200px; border:14px solid green;"">","null","","","","","","","","","",""
"","image-keyboard-response","18","50277","0.0-18.0","37WLF8U1WQC85SAU4XUHHDEBT5O6KI","A3QNV0P3W7ZOAX","3YO4AH2FPD6XG0OGOBTVFFK58DY0QT","","1001","img/land1.png","74","1003","1","1","1","2","1,0.7,0.7,0.7,1,0.7,0.7,0.7,1","1,0.7,0.7,0.7,1,0.7,0.7,0.7,1","","",""
"","html-keyboard-response","19","50680","0.0-19.0","37WLF8U1WQC85SAU4XUHHDEBT5O6KI","A3QNV0P3W7ZOAX","3YO4AH2FPD6XG0OGOBTVFFK58DY0QT","","null","<img src=""img/land1.png"" style=""width:200px; border:14px solid green;"">","null","","","","","","","","","",""
"","image-keyboard-response","20","52026","0.0-20.0","37WLF8U1WQC85SAU4XUHHDEBT5O6KI","A3QNV0P3W7ZOAX","3YO4AH2FPD6XG0OGOBTVFFK58DY0QT","","1345","img/land1.png","74","1346","1","1","1","2","1,0.7,0.7,0.7,1,0.7,0.7,0.7,1","1,0.7,0.7,0.7,1,0.7,0.7,0.7,1","","",""
"","html-keyboard-response","21","52348","0.0-21.0","37WLF8U1WQC85SAU4XUHHDEBT5O6KI","A3QNV0P3W7ZOAX","3YO4AH2FPD6XG0OGOBTVFFK58DY0QT","","null","<img src=""img/land1.png"" style=""width:200px; border:14px solid green;"">","null","","","","","","","","","",""
"","image-keyboard-response","22","53285","0.0-22.0","37WLF8U1WQC85SAU4XUHHDEBT5O6KI","A3QNV0P3W7ZOAX","3YO4AH2FPD6XG0OGOBTVFFK58DY0QT","","896","img/land3.png","75","937","2","1","3","2","1,0.7,0.7,0.7,1,0.7,0.7,0.7,1","1,0.7,0.7,0.7,1,0.7,0.7,0.7,1","","",""
"","html-keyboard-response","23","53586","0.0-23.0","37WLF8U1WQC85SAU4XUHHDEBT5O6KI","A3QNV0P3W7ZOAX","3YO4AH2FPD6XG0OGOBTVFFK58DY0QT","","null","<img src=""img/land3.png"" style=""width:200px; border:14px solid green;"">","null","","","","","","","","","",""
"","image-keyboard-response","24","54563","0.0-24.0","37WLF8U1WQC85SAU4XUHHDEBT5O6KI","A3QNV0P3W7ZOAX","3YO4AH2FPD6XG0OGOBTVFFK58DY0QT","","977","img/land1.png","76","977","3","0","1","2","1,0.7,0.7,0.7,1,0.7,0.7,0.7,1","1,0.7,0.7,0.7,1,0.7,0.7,0.7,1","","",""
"","html-keyboard-response","25","54870","0.0-25.0","37WLF8U1WQC85SAU4XUHHDEBT5O6KI","A3QNV0P3W7ZOAX","3YO4AH2FPD6XG0OGOBTVFFK58DY0QT","","null","<img src=""img/land1.png"" style=""width:200px;border:14px solid red;"">","null","","","","","","","","","",""
"","image-keyboard-response","26","56186","0.0-26.0","37WLF8U1WQC85SAU4XUHHDEBT5O6KI","A3QNV0P3W7ZOAX","3YO4AH2FPD6XG0OGOBTVFFK58DY0QT","","1314","img/land3.png","74","1316","1","0","3","2","1,0.7,0.7,0.7,1,0.7,0.7,0.7,1","1,0.7,0.7,0.7,1,0.7,0.7,0.7,1","","",""
"","html-keyboard-response","27","56489","0.0-27.0","37WLF8U1WQC85SAU4XUHHDEBT5O6KI","A3QNV0P3W7ZOAX","3YO4AH2FPD6XG0OGOBTVFFK58DY0QT","","null","<img src=""img/land3.png"" style=""width:200px;border:14px solid red;"">","null","","","","","","","","","",""
"","image-keyboard-response","28","57670","0.0-28.0","37WLF8U1WQC85SAU4XUHHDEBT5O6KI","A3QNV0P3W7ZOAX","3YO4AH2FPD6XG0OGOBTVFFK58DY0QT","","1179","img/land2.png","76","1181","3","1","2","2","1,0.7,0.7,0.7,1,0.7,0.7,0.7,1","1,0.7,0.7,0.7,1,0.7,0.7,0.7,1","","",""
"","html-keyboard-response","29","57988","0.0-29.0","37WLF8U1WQC85SAU4XUHHDEBT5O6KI","A3QNV0P3W7ZOAX","3YO4AH2FPD6XG0OGOBTVFFK58DY0QT","","null","<img src=""img/land2.png"" style=""width:200px; border:14px solid green;"">","null","","","","","","","","","",""
"","image-keyboard-response","30","59140","0.0-30.0","37WLF8U1WQC85SAU4XUHHDEBT5O6KI","A3QNV0P3W7ZOAX","3YO4AH2FPD6XG0OGOBTVFFK58DY0QT","","1150","img/land1.png","76","1151","3","0","1","2","1,0.7,0.7,0.7,1,0.7,0.7,0.7,1","1,0.7,0.7,0.7,1,0.7,0.7,0.7,1","","",""
"","html-keyboard-response","31","59441","0.0-31.0","37WLF8U1WQC85SAU4XUHHDEBT5O6KI","A3QNV0P3W7ZOAX","3YO4AH2FPD6XG0OGOBTVFFK58DY0QT","","null","<img src=""img/land1.png"" style=""width:200px;border:14px solid red;"">","null","","","","","","","","","",""
"","image-keyboard-response","32","60402","0.0-32.0","37WLF8U1WQC85SAU4XUHHDEBT5O6KI","A3QNV0P3W7ZOAX","3YO4AH2FPD6XG0OGOBTVFFK58DY0QT","","961","img/land1.png","76","961","3","1","1","2","1,0.7,0.7,0.7,1,0.7,0.7,0.7,1","1,0.7,0.7,0.7,1,0.7,0.7,0.7,1","","",""
"","html-keyboard-response","33","60702","0.0-33.0","37WLF8U1WQC85SAU4XUHHDEBT5O6KI","A3QNV0P3W7ZOAX","3YO4AH2FPD6XG0OGOBTVFFK58DY0QT","","null","<img src=""img/land1.png"" style=""width:200px; border:14px solid green;"">","null","","","","","","","","","",""
"","image-keyboard-response","34","61575","0.0-34.0","37WLF8U1WQC85SAU4XUHHDEBT5O6KI","A3QNV0P3W7ZOAX","3YO4AH2FPD6XG0OGOBTVFFK58DY0QT","","872","img/land1.png","76","873","3","1","1","2","1,0.7,0.7,0.7,1,0.7,0.7,0.7,1","1,0.7,0.7,0.7,1,0.7,0.7,0.7,1","","",""
"","html-keyboard-response","35","61878","0.0-35.0","37WLF8U1WQC85SAU4XUHHDEBT5O6KI","A3QNV0P3W7ZOAX","3YO4AH2FPD6XG0OGOBTVFFK58DY0QT","","null","<img src=""img/land1.png"" style=""width:200px; border:14px solid green;"">","null","","","","","","","","","",""
"","image-keyboard-response","36","63094","0.0-36.0","37WLF8U1WQC85SAU4XUHHDEBT5O6KI","A3QNV0P3W7ZOAX","3YO4AH2FPD6XG0OGOBTVFFK58DY0QT","","1215","img/land2.png","76","1216","3","0","2","2","1,0.7,0.7,0.7,1,0.7,0.7,0.7,1","1,0.7,0.7,0.7,1,0.7,0.7,0.7,1","","",""
"","html-keyboard-response","37","63403","0.0-37.0","37WLF8U1WQC85SAU4XUHHDEBT5O6KI","A3QNV0P3W7ZOAX","3YO4AH2FPD6XG0OGOBTVFFK58DY0QT","","null","<img src=""img/land2.png"" style=""width:200px;border:14px solid red;"">","null","","","","","","","","","",""
"","image-keyboard-response","38","64700","0.0-38.0","37WLF8U1WQC85SAU4XUHHDEBT5O6KI","A3QNV0P3W7ZOAX","3YO4AH2FPD6XG0OGOBTVFFK58DY0QT","","1297","img/land1.png","74","1297","1","1","1","2","1,0.7,0.7,0.7,1,0.7,0.7,0.7,1","1,0.7,0.7,0.7,1,0.7,0.7,0.7,1","","",""
"","html-keyboard-response","39","65006","0.0-39.0","37WLF8U1WQC85SAU4XUHHDEBT5O6KI","A3QNV0P3W7ZOAX","3YO4AH2FPD6XG0OGOBTVFFK58DY0QT","","null","<img src=""img/land1.png"" style=""width:200px; border:14px solid green;"">","null","","","","","","","","","",""
"","image-keyboard-response","40","66507","0.0-40.0","37WLF8U1WQC85SAU4XUHHDEBT5O6KI","A3QNV0P3W7ZOAX","3YO4AH2FPD6XG0OGOBTVFFK58DY0QT","","","img/land3.png","","1501","-1","0","3","2","1,0.7,0.7,0.7,1,0.7,0.7,0.7,1","1,0.7,0.7,0.7,1,0.7,0.7,0.7,1","","",""
"","html-keyboard-response","41","66809","0.0-41.0","37WLF8U1WQC85SAU4XUHHDEBT5O6KI","A3QNV0P3W7ZOAX","3YO4AH2FPD6XG0OGOBTVFFK58DY0QT","","null","<img src=""img/land3.png"" style=""width:200px;border:14px solid red;"">","null","","","","","","","","","",""
"","image-keyboard-response","42","68257","0.0-42.0","37WLF8U1WQC85SAU4XUHHDEBT5O6KI","A3QNV0P3W7ZOAX","3YO4AH2FPD6XG0OGOBTVFFK58DY0QT","","1448","img/land1.png","76","1448","3","1","1","2","1,0.7,0.7,0.7,1,0.7,0.7,0.7,1","1,0.7,0.7,0.7,1,0.7,0.7,0.7,1","","",""
"","html-keyboard-response","43","68571","0.0-43.0","37WLF8U1WQC85SAU4XUHHDEBT5O6KI","A3QNV0P3W7ZOAX","3YO4AH2FPD6XG0OGOBTVFFK58DY0QT","","null","<img src=""img/land1.png"" style=""width:200px; border:14px solid green;"">","null","","","","","","","","","",""
"","image-keyboard-response","44","70072","0.0-44.0","37WLF8U1WQC85SAU4XUHHDEBT5O6KI","A3QNV0P3W7ZOAX","3YO4AH2FPD6XG0OGOBTVFFK58DY0QT","","","img/land1.png","","1501","-1","0","1","2","1,0.7,0.7,0.7,1,0.7,0.7,0.7,1","1,0.7,0.7,0.7,1,0.7,0.7,0.7,1","","",""
"","html-keyboard-response","45","70385","0.0-45.0","37WLF8U1WQC85SAU4XUHHDEBT5O6KI","A3QNV0P3W7ZOAX","3YO4AH2FPD6XG0OGOBTVFFK58DY0QT","","null","<img src=""img/land1.png"" style=""width:200px;border:14px solid red;"">","null","","","","","","","","","",""
"","image-keyboard-response","46","70541","0.0-46.0","37WLF8U1WQC85SAU4XUHHDEBT5O6KI","A3QNV0P3W7ZOAX","3YO4AH2FPD6XG0OGOBTVFFK58DY0QT","","155","img/land3.png","74","156","1","1","3","2","1,0.7,0.7,0.7,1,0.7,0.7,0.7,1","1,0.7,0.7,0.7,1,0.7,0.7,0.7,1","","",""
"","html-keyboard-response","47","70850","0.0-47.0","37WLF8U1WQC85SAU4XUHHDEBT5O6KI","A3QNV0P3W7ZOAX","3YO4AH2FPD6XG0OGOBTVFFK58DY0QT","","null","<img src=""img/land3.png"" style=""width:200px; border:14px solid green;"">","null","","","","","","","","","",""
"","image-keyboard-response","48","72353","0.0-48.0","37WLF8U1WQC85SAU4XUHHDEBT5O6KI","A3QNV0P3W7ZOAX","3YO4AH2FPD6XG0OGOBTVFFK58DY0QT","","","img/land3.png","","1502","-1","0","3","2","1,0.7,0.7,0.7,1,0.7,0.7,0.7,1","1,0.7,0.7,0.7,1,0.7,0.7,0.7,1","","",""
"","html-keyboard-response","49","72653","0.0-49.0","37WLF8U1WQC85SAU4XUHHDEBT5O6KI","A3QNV0P3W7ZOAX","3YO4AH2FPD6XG0OGOBTVFFK58DY0QT","","null","<img src=""img/land3.png"" style=""width:200px;border:14px solid red;"">","null","","","","","","","","","",""
"","image-keyboard-response","50","73875","0.0-50.0","37WLF8U1WQC85SAU4XUHHDEBT5O6KI","A3QNV0P3W7ZOAX","3YO4AH2FPD6XG0OGOBTVFFK58DY0QT","","1222","img/land1.png","74","1222","1","1","1","2","1,0.7,0.7,0.7,1,0.7,0.7,0.7,1","1,0.7,0.7,0.7,1,0.7,0.7,0.7,1","","",""
"","html-keyboard-response","51","74176","0.0-51.0","37WLF8U1WQC85SAU4XUHHDEBT5O6KI","A3QNV0P3W7ZOAX","3YO4AH2FPD6XG0OGOBTVFFK58DY0QT","","null","<img src=""img/land1.png"" style=""width:200px; border:14px solid green;"">","null","","","","","","","","","",""
"","image-keyboard-response","52","75144","0.0-52.0","37WLF8U1WQC85SAU4XUHHDEBT5O6KI","A3QNV0P3W7ZOAX","3YO4AH2FPD6XG0OGOBTVFFK58DY0QT","","968","img/land1.png","74","969","1","1","1","2","1,0.7,0.7,0.7,1,0.7,0.7,0.7,1","1,0.7,0.7,0.7,1,0.7,0.7,0.7,1","","",""
"","html-keyboard-response","53","75475","0.0-53.0","37WLF8U1WQC85SAU4XUHHDEBT5O6KI","A3QNV0P3W7ZOAX","3YO4AH2FPD6XG0OGOBTVFFK58DY0QT","","null","<img src=""img/land1.png"" style=""width:200px; border:14px solid green;"">","null","","","","","","","","","",""
"","image-keyboard-response","54","76260","0.0-54.0","37WLF8U1WQC85SAU4XUHHDEBT5O6KI","A3QNV0P3W7ZOAX","3YO4AH2FPD6XG0OGOBTVFFK58DY0QT","","782","img/land1.png","74","782","1","1","1","2","1,0.7,0.7,0.7,1,0.7,0.7,0.7,1","1,0.7,0.7,0.7,1,0.7,0.7,0.7,1","","",""
"","html-keyboard-response","55","76561","0.0-55.0","37WLF8U1WQC85SAU4XUHHDEBT5O6KI","A3QNV0P3W7ZOAX","3YO4AH2FPD6XG0OGOBTVFFK58DY0QT","","null","<img src=""img/land1.png"" style=""width:200px; border:14px solid green;"">","null","","","","","","","","","",""
"","image-keyboard-response","56","77491","0.0-56.0","37WLF8U1WQC85SAU4XUHHDEBT5O6KI","A3QNV0P3W7ZOAX","3YO4AH2FPD6XG0OGOBTVFFK58DY0QT","","927","img/land3.png","75","930","2","1","3","2","1,0.7,0.7,0.7,1,0.7,0.7,0.7,1","1,0.7,0.7,0.7,1,0.7,0.7,0.7,1","","",""
"","html-keyboard-response","57","77798","0.0-57.0","37WLF8U1WQC85SAU4XUHHDEBT5O6KI","A3QNV0P3W7ZOAX","3YO4AH2FPD6XG0OGOBTVFFK58DY0QT","","null","<img src=""img/land3.png"" style=""width:200px; border:14px solid green;"">","null","","","","","","","","","",""
"","image-keyboard-response","58","78762","0.0-58.0","37WLF8U1WQC85SAU4XUHHDEBT5O6KI","A3QNV0P3W7ZOAX","3YO4AH2FPD6XG0OGOBTVFFK58DY0QT","","962","img/land2.png","76","964","3","0","2","2","1,0.7,0.7,0.7,1,0.7,0.7,0.7,1","1,0.7,0.7,0.7,1,0.7,0.7,0.7,1","","",""
"","html-keyboard-response","59","79063","0.0-59.0","37WLF8U1WQC85SAU4XUHHDEBT5O6KI","A3QNV0P3W7ZOAX","3YO4AH2FPD6XG0OGOBTVFFK58DY0QT","","null","<img src=""img/land2.png"" style=""width:200px;border:14px solid red;"">","null","","","","","","","","","",""
"","image-keyboard-response","60","79805","0.0-60.0","37WLF8U1WQC85SAU4XUHHDEBT5O6KI","A3QNV0P3W7ZOAX","3YO4AH2FPD6XG0OGOBTVFFK58DY0QT","","740","img/land2.png","76","742","3","1","2","2","1,0.7,0.7,0.7,1,0.7,0.7,0.7,1","1,0.7,0.7,0.7,1,0.7,0.7,0.7,1","","",""
"","html-keyboard-response","61","80118","0.0-61.0","37WLF8U1WQC85SAU4XUHHDEBT5O6KI","A3QNV0P3W7ZOAX","3YO4AH2FPD6XG0OGOBTVFFK58DY0QT","","null","<img src=""img/land2.png"" style=""width:200px; border:14px solid green;"">","null","","","","","","","","","",""
"","image-keyboard-response","62","81007","0.0-62.0","37WLF8U1WQC85SAU4XUHHDEBT5O6KI","A3QNV0P3W7ZOAX","3YO4AH2FPD6XG0OGOBTVFFK58DY0QT","","883","img/land2.png","76","888","3","0","2","2","1,0.7,0.7,0.7,1,0.7,0.7,0.7,1","1,0.7,0.7,0.7,1,0.7,0.7,0.7,1","","",""
"","html-keyboard-response","63","81307","0.0-63.0","37WLF8U1WQC85SAU4XUHHDEBT5O6KI","A3QNV0P3W7ZOAX","3YO4AH2FPD6XG0OGOBTVFFK58DY0QT","","null","<img src=""img/land2.png"" style=""width:200px;border:14px solid red;"">","null","","","","","","","","","",""
"","image-keyboard-response","64","82558","0.0-64.0","37WLF8U1WQC85SAU4XUHHDEBT5O6KI","A3QNV0P3W7ZOAX","3YO4AH2FPD6XG0OGOBTVFFK58DY0QT","","1250","img/land1.png","74","1251","1","1","1","2","1,0.7,0.7,0.7,1,0.7,0.7,0.7,1","1,0.7,0.7,0.7,1,0.7,0.7,0.7,1","","",""
"","html-keyboard-response","65","82866","0.0-65.0","37WLF8U1WQC85SAU4XUHHDEBT5O6KI","A3QNV0P3W7ZOAX","3YO4AH2FPD6XG0OGOBTVFFK58DY0QT","","null","<img src=""img/land1.png"" style=""width:200px; border:14px solid green;"">","null","","","","","","","","","",""
"","image-keyboard-response","66","83673","0.0-66.0","37WLF8U1WQC85SAU4XUHHDEBT5O6KI","A3QNV0P3W7ZOAX","3YO4AH2FPD6XG0OGOBTVFFK58DY0QT","","807","img/land1.png","74","807","1","1","1","2","1,0.7,0.7,0.7,1,0.7,0.7,0.7,1","1,0.7,0.7,0.7,1,0.7,0.7,0.7,1","","",""
"","html-keyboard-response","67","84002","0.0-67.0","37WLF8U1WQC85SAU4XUHHDEBT5O6KI","A3QNV0P3W7ZOAX","3YO4AH2FPD6XG0OGOBTVFFK58DY0QT","","null","<img src=""img/land1.png"" style=""width:200px; border:14px solid green;"">","null","","","","","","","","","",""
"","image-keyboard-response","68","85107","0.0-68.0","37WLF8U1WQC85SAU4XUHHDEBT5O6KI","A3QNV0P3W7ZOAX","3YO4AH2FPD6XG0OGOBTVFFK58DY0QT","","1103","img/land2.png","76","1104","3","0","2","2","1,0.7,0.7,0.7,1,0.7,0.7,0.7,1","1,0.7,0.7,0.7,1,0.7,0.7,0.7,1","","",""
"","html-keyboard-response","69","85408","0.0-69.0","37WLF8U1WQC85SAU4XUHHDEBT5O6KI","A3QNV0P3W7ZOAX","3YO4AH2FPD6XG0OGOBTVFFK58DY0QT","","null","<img src=""img/land2.png"" style=""width:200px;border:14px solid red;"">","null","","","","","","","","","",""
"","image-keyboard-response","70","86558","0.0-70.0","37WLF8U1WQC85SAU4XUHHDEBT5O6KI","A3QNV0P3W7ZOAX","3YO4AH2FPD6XG0OGOBTVFFK58DY0QT","","1147","img/land3.png","75","1150","2","1","3","2","1,0.7,0.7,0.7,1,0.7,0.7,0.7,1","1,0.7,0.7,0.7,1,0.7,0.7,0.7,1","","",""
"","html-keyboard-response","71","86866","0.0-71.0","37WLF8U1WQC85SAU4XUHHDEBT5O6KI","A3QNV0P3W7ZOAX","3YO4AH2FPD6XG0OGOBTVFFK58DY0QT","","null","<img src=""img/land3.png"" style=""width:200px; border:14px solid green;"">","null","","","","","","","","","",""
"","image-keyboard-response","72","87702","0.0-72.0","37WLF8U1WQC85SAU4XUHHDEBT5O6KI","A3QNV0P3W7ZOAX","3YO4AH2FPD6XG0OGOBTVFFK58DY0QT","","831","img/land3.png","75","836","2","1","3","2","1,0.7,0.7,0.7,1,0.7,0.7,0.7,1","1,0.7,0.7,0.7,1,0.7,0.7,0.7,1","","",""
"","html-keyboard-response","73","88009","0.0-73.0","37WLF8U1WQC85SAU4XUHHDEBT5O6KI","A3QNV0P3W7ZOAX","3YO4AH2FPD6XG0OGOBTVFFK58DY0QT","","null","<img src=""img/land3.png"" style=""width:200px; border:14px solid green;"">","null","","","","","","","","","",""
"","image-keyboard-response","74","89212","0.0-74.0","37WLF8U1WQC85SAU4XUHHDEBT5O6KI","A3QNV0P3W7ZOAX","3YO4AH2FPD6XG0OGOBTVFFK58DY0QT","","1201","img/land2.png","76","1203","3","0","2","2","1,0.7,0.7,0.7,1,0.7,0.7,0.7,1","1,0.7,0.7,0.7,1,0.7,0.7,0.7,1","","",""
"","html-keyboard-response","75","89515","0.0-75.0","37WLF8U1WQC85SAU4XUHHDEBT5O6KI","A3QNV0P3W7ZOAX","3YO4AH2FPD6XG0OGOBTVFFK58DY0QT","","null","<img src=""img/land2.png"" style=""width:200px;border:14px solid red;"">","null","","","","","","","","","",""
"","image-keyboard-response","76","90309","0.0-76.0","37WLF8U1WQC85SAU4XUHHDEBT5O6KI","A3QNV0P3W7ZOAX","3YO4AH2FPD6XG0OGOBTVFFK58DY0QT","","793","img/land2.png","76","794","3","0","2","2","1,0.7,0.7,0.7,1,0.7,0.7,0.7,1","1,0.7,0.7,0.7,1,0.7,0.7,0.7,1","","",""
"","html-keyboard-response","77","90614","0.0-77.0","37WLF8U1WQC85SAU4XUHHDEBT5O6KI","A3QNV0P3W7ZOAX","3YO4AH2FPD6XG0OGOBTVFFK58DY0QT","","null","<img src=""img/land2.png"" style=""width:200px;border:14px solid red;"">","null","","","","","","","","","",""
"","image-keyboard-response","78","91826","0.0-78.0","37WLF8U1WQC85SAU4XUHHDEBT5O6KI","A3QNV0P3W7ZOAX","3YO4AH2FPD6XG0OGOBTVFFK58DY0QT","","1210","img/land2.png","76","1212","3","1","2","2","1,0.7,0.7,0.7,1,0.7,0.7,0.7,1","1,0.7,0.7,0.7,1,0.7,0.7,0.7,1","","",""
"","html-keyboard-response","79","92129","0.0-79.0","37WLF8U1WQC85SAU4XUHHDEBT5O6KI","A3QNV0P3W7ZOAX","3YO4AH2FPD6XG0OGOBTVFFK58DY0QT","","null","<img src=""img/land2.png"" style=""width:200px; border:14px solid green;"">","null","","","","","","","","","",""
"","image-keyboard-response","80","93086","0.0-80.0","37WLF8U1WQC85SAU4XUHHDEBT5O6KI","A3QNV0P3W7ZOAX","3YO4AH2FPD6XG0OGOBTVFFK58DY0QT","","955","img/land1.png","74","956","1","1","1","2","1,0.7,0.7,0.7,1,0.7,0.7,0.7,1","1,0.7,0.7,0.7,1,0.7,0.7,0.7,1","","",""
"","html-keyboard-response","81","93388","0.0-81.0","37WLF8U1WQC85SAU4XUHHDEBT5O6KI","A3QNV0P3W7ZOAX","3YO4AH2FPD6XG0OGOBTVFFK58DY0QT","","null","<img src=""img/land1.png"" style=""width:200px; border:14px solid green;"">","null","","","","","","","","","",""
"","image-keyboard-response","82","94041","0.0-82.0","37WLF8U1WQC85SAU4XUHHDEBT5O6KI","A3QNV0P3W7ZOAX","3YO4AH2FPD6XG0OGOBTVFFK58DY0QT","","653","img/land1.png","74","653","1","1","1","2","1,0.7,0.7,0.7,1,0.7,0.7,0.7,1","1,0.7,0.7,0.7,1,0.7,0.7,0.7,1","","",""
"","html-keyboard-response","83","94341","0.0-83.0","37WLF8U1WQC85SAU4XUHHDEBT5O6KI","A3QNV0P3W7ZOAX","3YO4AH2FPD6XG0OGOBTVFFK58DY0QT","","null","<img src=""img/land1.png"" style=""width:200px; border:14px solid green;"">","null","","","","","","","","","",""
"","image-keyboard-response","84","95017","0.0-84.0","37WLF8U1WQC85SAU4XUHHDEBT5O6KI","A3QNV0P3W7ZOAX","3YO4AH2FPD6XG0OGOBTVFFK58DY0QT","","676","img/land1.png","74","676","1","1","1","2","1,0.7,0.7,0.7,1,0.7,0.7,0.7,1","1,0.7,0.7,0.7,1,0.7,0.7,0.7,1","","",""
"","html-keyboard-response","85","95369","0.0-85.0","37WLF8U1WQC85SAU4XUHHDEBT5O6KI","A3QNV0P3W7ZOAX","3YO4AH2FPD6XG0OGOBTVFFK58DY0QT","","null","<img src=""img/land1.png"" style=""width:200px; border:14px solid green;"">","null","","","","","","","","","",""
"","image-keyboard-response","86","96003","0.0-86.0","37WLF8U1WQC85SAU4XUHHDEBT5O6KI","A3QNV0P3W7ZOAX","3YO4AH2FPD6XG0OGOBTVFFK58DY0QT","","634","img/land1.png","74","634","1","1","1","2","1,0.7,0.7,0.7,1,0.7,0.7,0.7,1","1,0.7,0.7,0.7,1,0.7,0.7,0.7,1","","",""
"","html-keyboard-response","87","96311","0.0-87.0","37WLF8U1WQC85SAU4XUHHDEBT5O6KI","A3QNV0P3W7ZOAX","3YO4AH2FPD6XG0OGOBTVFFK58DY0QT","","null","<img src=""img/land1.png"" style=""width:200px; border:14px solid green;"">","null","","","","","","","","","",""
"","image-keyboard-response","88","96977","0.0-88.0","37WLF8U1WQC85SAU4XUHHDEBT5O6KI","A3QNV0P3W7ZOAX","3YO4AH2FPD6XG0OGOBTVFFK58DY0QT","","664","img/land1.png","74","666","1","1","1","2","1,0.7,0.7,0.7,1,0.7,0.7,0.7,1","1,0.7,0.7,0.7,1,0.7,0.7,0.7,1","","",""
"","html-keyboard-response","89","97282","0.0-89.0","37WLF8U1WQC85SAU4XUHHDEBT5O6KI","A3QNV0P3W7ZOAX","3YO4AH2FPD6XG0OGOBTVFFK58DY0QT","","null","<img src=""img/land1.png"" style=""width:200px; border:14px solid green;"">","null","","","","","","","","","",""
"","image-keyboard-response","90","97892","0.0-90.0","37WLF8U1WQC85SAU4XUHHDEBT5O6KI","A3QNV0P3W7ZOAX","3YO4AH2FPD6XG0OGOBTVFFK58DY0QT","","609","img/land1.png","74","610","1","1","1","2","1,0.7,0.7,0.7,1,0.7,0.7,0.7,1","1,0.7,0.7,0.7,1,0.7,0.7,0.7,1","","",""
"","html-keyboard-response","91","98197","0.0-91.0","37WLF8U1WQC85SAU4XUHHDEBT5O6KI","A3QNV0P3W7ZOAX","3YO4AH2FPD6XG0OGOBTVFFK58DY0QT","","null","<img src=""img/land1.png"" style=""width:200px; border:14px solid green;"">","null","","","","","","","","","",""
"","image-keyboard-response","92","98825","0.0-92.0","37WLF8U1WQC85SAU4XUHHDEBT5O6KI","A3QNV0P3W7ZOAX","3YO4AH2FPD6XG0OGOBTVFFK58DY0QT","","627","img/land1.png","74","628","1","1","1","2","1,0.7,0.7,0.7,1,0.7,0.7,0.7,1","1,0.7,0.7,0.7,1,0.7,0.7,0.7,1","","",""
"","html-keyboard-response","93","99127","0.0-93.0","37WLF8U1WQC85SAU4XUHHDEBT5O6KI","A3QNV0P3W7ZOAX","3YO4AH2FPD6XG0OGOBTVFFK58DY0QT","","null","<img src=""img/land1.png"" style=""width:200px; border:14px solid green;"">","null","","","","","","","","","",""
"","image-keyboard-response","94","100058","0.0-94.0","37WLF8U1WQC85SAU4XUHHDEBT5O6KI","A3QNV0P3W7ZOAX","3YO4AH2FPD6XG0OGOBTVFFK58DY0QT","","930","img/land1.png","74","931","1","1","1","2","1,0.7,0.7,0.7,1,0.7,0.7,0.7,1","1,0.7,0.7,0.7,1,0.7,0.7,0.7,1","","",""
"","html-keyboard-response","95","100364","0.0-95.0","37WLF8U1WQC85SAU4XUHHDEBT5O6KI","A3QNV0P3W7ZOAX","3YO4AH2FPD6XG0OGOBTVFFK58DY0QT","","null","<img src=""img/land1.png"" style=""width:200px; border:14px solid green;"">","null","","","","","","","","","",""
"","image-keyboard-response","96","100922","0.0-96.0","37WLF8U1WQC85SAU4XUHHDEBT5O6KI","A3QNV0P3W7ZOAX","3YO4AH2FPD6XG0OGOBTVFFK58DY0QT","","558","img/land1.png","74","558","1","1","1","2","1,0.7,0.7,0.7,1,0.7,0.7,0.7,1","1,0.7,0.7,0.7,1,0.7,0.7,0.7,1","","",""
"","html-keyboard-response","97","101227","0.0-97.0","37WLF8U1WQC85SAU4XUHHDEBT5O6KI","A3QNV0P3W7ZOAX","3YO4AH2FPD6XG0OGOBTVFFK58DY0QT","","null","<img src=""img/land1.png"" style=""width:200px; border:14px solid green;"">","null","","","","","","","","","",""
"","image-keyboard-response","98","101803","0.0-98.0","37WLF8U1WQC85SAU4XUHHDEBT5O6KI","A3QNV0P3W7ZOAX","3YO4AH2FPD6XG0OGOBTVFFK58DY0QT","","575","img/land1.png","74","576","1","1","1","2","1,0.7,0.7,0.7,1,0.7,0.7,0.7,1","1,0.7,0.7,0.7,1,0.7,0.7,0.7,1","","",""
"","html-keyboard-response","99","102103","0.0-99.0","37WLF8U1WQC85SAU4XUHHDEBT5O6KI","A3QNV0P3W7ZOAX","3YO4AH2FPD6XG0OGOBTVFFK58DY0QT","","null","<img src=""img/land1.png"" style=""width:200px; border:14px solid green;"">","null","","","","","","","","","",""
"","image-keyboard-response","100","103128","0.0-100.0","37WLF8U1WQC85SAU4XUHHDEBT5O6KI","A3QNV0P3W7ZOAX","3YO4AH2FPD6XG0OGOBTVFFK58DY0QT","","1023","img/land2.png","76","1025","3","1","2","2","1,0.7,0.7,0.7,1,0.7,0.7,0.7,1","1,0.7,0.7,0.7,1,0.7,0.7,0.7,1","","",""
"","html-keyboard-response","101","103430","0.0-101.0","37WLF8U1WQC85SAU4XUHHDEBT5O6KI","A3QNV0P3W7ZOAX","3YO4AH2FPD6XG0OGOBTVFFK58DY0QT","","null","<img src=""img/land2.png"" style=""width:200px; border:14px solid green;"">","null","","","","","","","","","",""
"","image-keyboard-response","102","104062","0.0-102.0","37WLF8U1WQC85SAU4XUHHDEBT5O6KI","A3QNV0P3W7ZOAX","3YO4AH2FPD6XG0OGOBTVFFK58DY0QT","","631","img/land2.png","76","632","3","1","2","2","1,0.7,0.7,0.7,1,0.7,0.7,0.7,1","1,0.7,0.7,0.7,1,0.7,0.7,0.7,1","","",""
"","html-keyboard-response","103","104371","0.0-103.0","37WLF8U1WQC85SAU4XUHHDEBT5O6KI","A3QNV0P3W7ZOAX","3YO4AH2FPD6XG0OGOBTVFFK58DY0QT","","null","<img src=""img/land2.png"" style=""width:200px; border:14px solid green;"">","null","","","","","","","","","",""
"","image-keyboard-response","104","104997","0.0-104.0","37WLF8U1WQC85SAU4XUHHDEBT5O6KI","A3QNV0P3W7ZOAX","3YO4AH2FPD6XG0OGOBTVFFK58DY0QT","","626","img/land1.png","76","626","3","1","1","2","1,0.7,0.7,0.7,1,0.7,0.7,0.7,1","1,0.7,0.7,0.7,1,0.7,0.7,0.7,1","","",""
"","html-keyboard-response","105","105300","0.0-105.0","37WLF8U1WQC85SAU4XUHHDEBT5O6KI","A3QNV0P3W7ZOAX","3YO4AH2FPD6XG0OGOBTVFFK58DY0QT","","null","<img src=""img/land1.png"" style=""width:200px; border:14px solid green;"">","null","","","","","","","","","",""
"","image-keyboard-response","106","105554","0.0-106.0","37WLF8U1WQC85SAU4XUHHDEBT5O6KI","A3QNV0P3W7ZOAX","3YO4AH2FPD6XG0OGOBTVFFK58DY0QT","","253","img/land3.png","74","254","1","1","3","2","1,0.7,0.7,0.7,1,0.7,0.7,0.7,1","1,0.7,0.7,0.7,1,0.7,0.7,0.7,1","","",""
"","html-keyboard-response","107","105854","0.0-107.0","37WLF8U1WQC85SAU4XUHHDEBT5O6KI","A3QNV0P3W7ZOAX","3YO4AH2FPD6XG0OGOBTVFFK58DY0QT","","null","<img src=""img/land3.png"" style=""width:200px; border:14px solid green;"">","null","","","","","","","","","",""
"","image-keyboard-response","108","107114","0.0-108.0","37WLF8U1WQC85SAU4XUHHDEBT5O6KI","A3QNV0P3W7ZOAX","3YO4AH2FPD6XG0OGOBTVFFK58DY0QT","","1260","img/land1.png","74","1260","1","1","1","2","1,0.7,0.7,0.7,1,0.7,0.7,0.7,1","1,0.7,0.7,0.7,1,0.7,0.7,0.7,1","","",""
"","html-keyboard-response","109","107433","0.0-109.0","37WLF8U1WQC85SAU4XUHHDEBT5O6KI","A3QNV0P3W7ZOAX","3YO4AH2FPD6XG0OGOBTVFFK58DY0QT","","null","<img src=""img/land1.png"" style=""width:200px; border:14px solid green;"">","null","","","","","","","","","",""
"","image-keyboard-response","110","108462","0.0-110.0","37WLF8U1WQC85SAU4XUHHDEBT5O6KI","A3QNV0P3W7ZOAX","3YO4AH2FPD6XG0OGOBTVFFK58DY0QT","","1026","img/land1.png","74","1029","1","1","1","2","1,0.7,0.7,0.7,1,0.7,0.7,0.7,1","1,0.7,0.7,0.7,1,0.7,0.7,0.7,1","","",""
"","html-keyboard-response","111","108822","0.0-111.0","37WLF8U1WQC85SAU4XUHHDEBT5O6KI","A3QNV0P3W7ZOAX","3YO4AH2FPD6XG0OGOBTVFFK58DY0QT","","null","<img src=""img/land1.png"" style=""width:200px; border:14px solid green;"">","null","","","","","","","","","",""
"","image-keyboard-response","112","109641","0.0-112.0","37WLF8U1WQC85SAU4XUHHDEBT5O6KI","A3QNV0P3W7ZOAX","3YO4AH2FPD6XG0OGOBTVFFK58DY0QT","","815","img/land3.png","75","819","2","1","3","2","1,0.7,0.7,0.7,1,0.7,0.7,0.7,1","1,0.7,0.7,0.7,1,0.7,0.7,0.7,1","","",""
"","html-keyboard-response","113","109954","0.0-113.0","37WLF8U1WQC85SAU4XUHHDEBT5O6KI","A3QNV0P3W7ZOAX","3YO4AH2FPD6XG0OGOBTVFFK58DY0QT","","null","<img src=""img/land3.png"" style=""width:200px; border:14px solid green;"">","null","","","","","","","","","",""
"","image-keyboard-response","114","110894","0.0-114.0","37WLF8U1WQC85SAU4XUHHDEBT5O6KI","A3QNV0P3W7ZOAX","3YO4AH2FPD6XG0OGOBTVFFK58DY0QT","","940","img/land1.png","74","940","1","1","1","2","1,0.7,0.7,0.7,1,0.7,0.7,0.7,1","1,0.7,0.7,0.7,1,0.7,0.7,0.7,1","","",""
"","html-keyboard-response","115","111194","0.0-115.0","37WLF8U1WQC85SAU4XUHHDEBT5O6KI","A3QNV0P3W7ZOAX","3YO4AH2FPD6XG0OGOBTVFFK58DY0QT","","null","<img src=""img/land1.png"" style=""width:200px; border:14px solid green;"">","null","","","","","","","","","",""
"","image-keyboard-response","116","111970","0.0-116.0","37WLF8U1WQC85SAU4XUHHDEBT5O6KI","A3QNV0P3W7ZOAX","3YO4AH2FPD6XG0OGOBTVFFK58DY0QT","","776","img/land1.png","74","776","1","1","1","2","1,0.7,0.7,0.7,1,0.7,0.7,0.7,1","1,0.7,0.7,0.7,1,0.7,0.7,0.7,1","","",""
"","html-keyboard-response","117","112280","0.0-117.0","37WLF8U1WQC85SAU4XUHHDEBT5O6KI","A3QNV0P3W7ZOAX","3YO4AH2FPD6XG0OGOBTVFFK58DY0QT","","null","<img src=""img/land1.png"" style=""width:200px; border:14px solid green;"">","null","","","","","","","","","",""
"","image-keyboard-response","118","113093","0.0-118.0","37WLF8U1WQC85SAU4XUHHDEBT5O6KI","A3QNV0P3W7ZOAX","3YO4AH2FPD6XG0OGOBTVFFK58DY0QT","","813","img/land1.png","74","813","1","1","1","2","1,0.7,0.7,0.7,1,0.7,0.7,0.7,1","1,0.7,0.7,0.7,1,0.7,0.7,0.7,1","","",""
"","html-keyboard-response","119","113687","0.0-119.0","37WLF8U1WQC85SAU4XUHHDEBT5O6KI","A3QNV0P3W7ZOAX","3YO4AH2FPD6XG0OGOBTVFFK58DY0QT","","null","<img src=""img/land1.png"" style=""width:200px; border:14px solid green;"">","null","","","","","","","","","",""
"","image-keyboard-response","120","114503","0.0-120.0","37WLF8U1WQC85SAU4XUHHDEBT5O6KI","A3QNV0P3W7ZOAX","3YO4AH2FPD6XG0OGOBTVFFK58DY0QT","","794","img/land1.png","74","816","1","1","1","2","1,0.7,0.7,0.7,1,0.7,0.7,0.7,1","1,0.7,0.7,0.7,1,0.7,0.7,0.7,1","","",""
"","html-keyboard-response","121","114881","0.0-121.0","37WLF8U1WQC85SAU4XUHHDEBT5O6KI","A3QNV0P3W7ZOAX","3YO4AH2FPD6XG0OGOBTVFFK58DY0QT","","null","<img src=""img/land1.png"" style=""width:200px; border:14px solid green;"">","null","","","","","","","","","",""
"","image-keyboard-response","122","115888","0.0-122.0","37WLF8U1WQC85SAU4XUHHDEBT5O6KI","A3QNV0P3W7ZOAX","3YO4AH2FPD6XG0OGOBTVFFK58DY0QT","","1006","img/land3.png","75","1007","2","0","3","2","1,0.7,0.7,0.7,1,0.7,0.7,0.7,1","1,0.7,0.7,0.7,1,0.7,0.7,0.7,1","","",""
"","html-keyboard-response","123","116189","0.0-123.0","37WLF8U1WQC85SAU4XUHHDEBT5O6KI","A3QNV0P3W7ZOAX","3YO4AH2FPD6XG0OGOBTVFFK58DY0QT","","null","<img src=""img/land3.png"" style=""width:200px;border:14px solid red;"">","null","","","","","","","","","",""
"","image-keyboard-response","124","117150","0.0-124.0","37WLF8U1WQC85SAU4XUHHDEBT5O6KI","A3QNV0P3W7ZOAX","3YO4AH2FPD6XG0OGOBTVFFK58DY0QT","","961","img/land1.png","74","961","1","1","1","2","1,0.7,0.7,0.7,1,0.7,0.7,0.7,1","1,0.7,0.7,0.7,1,0.7,0.7,0.7,1","","",""
"","html-keyboard-response","125","117495","0.0-125.0","37WLF8U1WQC85SAU4XUHHDEBT5O6KI","A3QNV0P3W7ZOAX","3YO4AH2FPD6XG0OGOBTVFFK58DY0QT","","null","<img src=""img/land1.png"" style=""width:200px; border:14px solid green;"">","null","","","","","","","","","",""
"","image-keyboard-response","126","118398","0.0-126.0","37WLF8U1WQC85SAU4XUHHDEBT5O6KI","A3QNV0P3W7ZOAX","3YO4AH2FPD6XG0OGOBTVFFK58DY0QT","","901","img/land1.png","74","903","1","1","1","2","1,0.7,0.7,0.7,1,0.7,0.7,0.7,1","1,0.7,0.7,0.7,1,0.7,0.7,0.7,1","","",""
"","html-keyboard-response","127","118736","0.0-127.0","37WLF8U1WQC85SAU4XUHHDEBT5O6KI","A3QNV0P3W7ZOAX","3YO4AH2FPD6XG0OGOBTVFFK58DY0QT","","null","<img src=""img/land1.png"" style=""width:200px; border:14px solid green;"">","null","","","","","","","","","",""
"","image-keyboard-response","128","119773","0.0-128.0","37WLF8U1WQC85SAU4XUHHDEBT5O6KI","A3QNV0P3W7ZOAX","3YO4AH2FPD6XG0OGOBTVFFK58DY0QT","","1022","img/land1.png","74","1037","1","1","1","2","1,0.7,0.7,0.7,1,0.7,0.7,0.7,1","1,0.7,0.7,0.7,1,0.7,0.7,0.7,1","","",""
"","html-keyboard-response","129","120076","0.0-129.0","37WLF8U1WQC85SAU4XUHHDEBT5O6KI","A3QNV0P3W7ZOAX","3YO4AH2FPD6XG0OGOBTVFFK58DY0QT","","null","<img src=""img/land1.png"" style=""width:200px; border:14px solid green;"">","null","","","","","","","","","",""
"","image-keyboard-response","130","121028","0.0-130.0","37WLF8U1WQC85SAU4XUHHDEBT5O6KI","A3QNV0P3W7ZOAX","3YO4AH2FPD6XG0OGOBTVFFK58DY0QT","","952","img/land3.png","75","952","2","1","3","2","1,0.7,0.7,0.7,1,0.7,0.7,0.7,1","1,0.7,0.7,0.7,1,0.7,0.7,0.7,1","","",""
"","html-keyboard-response","131","121345","0.0-131.0","37WLF8U1WQC85SAU4XUHHDEBT5O6KI","A3QNV0P3W7ZOAX","3YO4AH2FPD6XG0OGOBTVFFK58DY0QT","","null","<img src=""img/land3.png"" style=""width:200px; border:14px solid green;"">","null","","","","","","","","","",""
"","image-keyboard-response","132","122104","0.0-132.0","37WLF8U1WQC85SAU4XUHHDEBT5O6KI","A3QNV0P3W7ZOAX","3YO4AH2FPD6XG0OGOBTVFFK58DY0QT","","758","img/land3.png","75","759","2","1","3","2","1,0.7,0.7,0.7,1,0.7,0.7,0.7,1","1,0.7,0.7,0.7,1,0.7,0.7,0.7,1","","",""
"","html-keyboard-response","133","122423","0.0-133.0","37WLF8U1WQC85SAU4XUHHDEBT5O6KI","A3QNV0P3W7ZOAX","3YO4AH2FPD6XG0OGOBTVFFK58DY0QT","","null","<img src=""img/land3.png"" style=""width:200px; border:14px solid green;"">","null","","","","","","","","","",""
"","image-keyboard-response","134","123152","0.0-134.0","37WLF8U1WQC85SAU4XUHHDEBT5O6KI","A3QNV0P3W7ZOAX","3YO4AH2FPD6XG0OGOBTVFFK58DY0QT","","696","img/land3.png","75","728","2","0","3","2","1,0.7,0.7,0.7,1,0.7,0.7,0.7,1","1,0.7,0.7,0.7,1,0.7,0.7,0.7,1","","",""
"","html-keyboard-response","135","123453","0.0-135.0","37WLF8U1WQC85SAU4XUHHDEBT5O6KI","A3QNV0P3W7ZOAX","3YO4AH2FPD6XG0OGOBTVFFK58DY0QT","","null","<img src=""img/land3.png"" style=""width:200px;border:14px solid red;"">","null","","","","","","","","","",""
"","image-keyboard-response","136","124501","0.0-136.0","37WLF8U1WQC85SAU4XUHHDEBT5O6KI","A3QNV0P3W7ZOAX","3YO4AH2FPD6XG0OGOBTVFFK58DY0QT","","1040","img/land1.png","74","1048","1","1","1","2","1,0.7,0.7,0.7,1,0.7,0.7,0.7,1","1,0.7,0.7,0.7,1,0.7,0.7,0.7,1","","",""
"","html-keyboard-response","137","124803","0.0-137.0","37WLF8U1WQC85SAU4XUHHDEBT5O6KI","A3QNV0P3W7ZOAX","3YO4AH2FPD6XG0OGOBTVFFK58DY0QT","","null","<img src=""img/land1.png"" style=""width:200px; border:14px solid green;"">","null","","","","","","","","","",""
"","image-keyboard-response","138","125400","0.0-138.0","37WLF8U1WQC85SAU4XUHHDEBT5O6KI","A3QNV0P3W7ZOAX","3YO4AH2FPD6XG0OGOBTVFFK58DY0QT","","595","img/land1.png","74","597","1","1","1","2","1,0.7,0.7,0.7,1,0.7,0.7,0.7,1","1,0.7,0.7,0.7,1,0.7,0.7,0.7,1","","",""
"","html-keyboard-response","139","125710","0.0-139.0","37WLF8U1WQC85SAU4XUHHDEBT5O6KI","A3QNV0P3W7ZOAX","3YO4AH2FPD6XG0OGOBTVFFK58DY0QT","","null","<img src=""img/land1.png"" style=""width:200px; border:14px solid green;"">","null","","","","","","","","","",""
"","image-keyboard-response","140","126324","0.0-140.0","37WLF8U1WQC85SAU4XUHHDEBT5O6KI","A3QNV0P3W7ZOAX","3YO4AH2FPD6XG0OGOBTVFFK58DY0QT","","612","img/land1.png","74","614","1","1","1","2","1,0.7,0.7,0.7,1,0.7,0.7,0.7,1","1,0.7,0.7,0.7,1,0.7,0.7,0.7,1","","",""
"","html-keyboard-response","141","126632","0.0-141.0","37WLF8U1WQC85SAU4XUHHDEBT5O6KI","A3QNV0P3W7ZOAX","3YO4AH2FPD6XG0OGOBTVFFK58DY0QT","","null","<img src=""img/land1.png"" style=""width:200px; border:14px solid green;"">","null","","","","","","","","","",""
"","image-keyboard-response","142","127749","0.0-142.0","37WLF8U1WQC85SAU4XUHHDEBT5O6KI","A3QNV0P3W7ZOAX","3YO4AH2FPD6XG0OGOBTVFFK58DY0QT","","1108","img/land2.png","76","1117","3","0","2","2","1,0.7,0.7,0.7,1,0.7,0.7,0.7,1","1,0.7,0.7,0.7,1,0.7,0.7,0.7,1","","",""
"","html-keyboard-response","143","128061","0.0-143.0","37WLF8U1WQC85SAU4XUHHDEBT5O6KI","A3QNV0P3W7ZOAX","3YO4AH2FPD6XG0OGOBTVFFK58DY0QT","","null","<img src=""img/land2.png"" style=""width:200px;border:14px solid red;"">","null","","","","","","","","","",""
"","image-keyboard-response","144","129070","0.0-144.0","37WLF8U1WQC85SAU4XUHHDEBT5O6KI","A3QNV0P3W7ZOAX","3YO4AH2FPD6XG0OGOBTVFFK58DY0QT","","1009","img/land1.png","74","1009","1","1","1","2","1,0.7,0.7,0.7,1,0.7,0.7,0.7,1","1,0.7,0.7,0.7,1,0.7,0.7,0.7,1","","",""
"","html-keyboard-response","145","129375","0.0-145.0","37WLF8U1WQC85SAU4XUHHDEBT5O6KI","A3QNV0P3W7ZOAX","3YO4AH2FPD6XG0OGOBTVFFK58DY0QT","","null","<img src=""img/land1.png"" style=""width:200px; border:14px solid green;"">","null","","","","","","","","","",""
"","image-keyboard-response","146","130320","0.0-146.0","37WLF8U1WQC85SAU4XUHHDEBT5O6KI","A3QNV0P3W7ZOAX","3YO4AH2FPD6XG0OGOBTVFFK58DY0QT","","941","img/land3.png","75","943","2","1","3","2","1,0.7,0.7,0.7,1,0.7,0.7,0.7,1","1,0.7,0.7,0.7,1,0.7,0.7,0.7,1","","",""
"","html-keyboard-response","147","130622","0.0-147.0","37WLF8U1WQC85SAU4XUHHDEBT5O6KI","A3QNV0P3W7ZOAX","3YO4AH2FPD6XG0OGOBTVFFK58DY0QT","","null","<img src=""img/land3.png"" style=""width:200px; border:14px solid green;"">","null","","","","","","","","","",""
"","image-keyboard-response","148","131488","0.0-148.0","37WLF8U1WQC85SAU4XUHHDEBT5O6KI","A3QNV0P3W7ZOAX","3YO4AH2FPD6XG0OGOBTVFFK58DY0QT","","864","img/land2.png","76","866","3","1","2","2","1,0.7,0.7,0.7,1,0.7,0.7,0.7,1","1,0.7,0.7,0.7,1,0.7,0.7,0.7,1","","",""
"","html-keyboard-response","149","131799","0.0-149.0","37WLF8U1WQC85SAU4XUHHDEBT5O6KI","A3QNV0P3W7ZOAX","3YO4AH2FPD6XG0OGOBTVFFK58DY0QT","","null","<img src=""img/land2.png"" style=""width:200px; border:14px solid green;"">","null","","","","","","","","","",""
"","image-keyboard-response","150","132681","0.0-150.0","37WLF8U1WQC85SAU4XUHHDEBT5O6KI","A3QNV0P3W7ZOAX","3YO4AH2FPD6XG0OGOBTVFFK58DY0QT","","882","img/land1.png","74","882","1","1","1","2","1,0.7,0.7,0.7,1,0.7,0.7,0.7,1","1,0.7,0.7,0.7,1,0.7,0.7,0.7,1","","",""
"","html-keyboard-response","151","133042","0.0-151.0","37WLF8U1WQC85SAU4XUHHDEBT5O6KI","A3QNV0P3W7ZOAX","3YO4AH2FPD6XG0OGOBTVFFK58DY0QT","","null","<img src=""img/land1.png"" style=""width:200px; border:14px solid green;"">","null","","","","","","","","","",""
"","image-keyboard-response","152","134054","0.0-152.0","37WLF8U1WQC85SAU4XUHHDEBT5O6KI","A3QNV0P3W7ZOAX","3YO4AH2FPD6XG0OGOBTVFFK58DY0QT","","1008","img/land1.png","74","1011","1","1","1","2","1,0.7,0.7,0.7,1,0.7,0.7,0.7,1","1,0.7,0.7,0.7,1,0.7,0.7,0.7,1","","",""
"","html-keyboard-response","153","134356","0.0-153.0","37WLF8U1WQC85SAU4XUHHDEBT5O6KI","A3QNV0P3W7ZOAX","3YO4AH2FPD6XG0OGOBTVFFK58DY0QT","","null","<img src=""img/land1.png"" style=""width:200px; border:14px solid green;"">","null","","","","","","","","","",""
"","image-keyboard-response","154","135325","0.0-154.0","37WLF8U1WQC85SAU4XUHHDEBT5O6KI","A3QNV0P3W7ZOAX","3YO4AH2FPD6XG0OGOBTVFFK58DY0QT","","968","img/land2.png","76","969","3","1","2","2","1,0.7,0.7,0.7,1,0.7,0.7,0.7,1","1,0.7,0.7,0.7,1,0.7,0.7,0.7,1","","",""
"","html-keyboard-response","155","135632","0.0-155.0","37WLF8U1WQC85SAU4XUHHDEBT5O6KI","A3QNV0P3W7ZOAX","3YO4AH2FPD6XG0OGOBTVFFK58DY0QT","","null","<img src=""img/land2.png"" style=""width:200px; border:14px solid green;"">","null","","","","","","","","","",""
"","image-keyboard-response","156","136578","0.0-156.0","37WLF8U1WQC85SAU4XUHHDEBT5O6KI","A3QNV0P3W7ZOAX","3YO4AH2FPD6XG0OGOBTVFFK58DY0QT","","928","img/land2.png","76","946","3","1","2","2","1,0.7,0.7,0.7,1,0.7,0.7,0.7,1","1,0.7,0.7,0.7,1,0.7,0.7,0.7,1","","",""
"","html-keyboard-response","157","136879","0.0-157.0","37WLF8U1WQC85SAU4XUHHDEBT5O6KI","A3QNV0P3W7ZOAX","3YO4AH2FPD6XG0OGOBTVFFK58DY0QT","","null","<img src=""img/land2.png"" style=""width:200px; border:14px solid green;"">","null","","","","","","","","","",""
"","image-keyboard-response","158","137679","0.0-158.0","37WLF8U1WQC85SAU4XUHHDEBT5O6KI","A3QNV0P3W7ZOAX","3YO4AH2FPD6XG0OGOBTVFFK58DY0QT","","799","img/land1.png","74","800","1","1","1","2","1,0.7,0.7,0.7,1,0.7,0.7,0.7,1","1,0.7,0.7,0.7,1,0.7,0.7,0.7,1","","",""
"","html-keyboard-response","159","137999","0.0-159.0","37WLF8U1WQC85SAU4XUHHDEBT5O6KI","A3QNV0P3W7ZOAX","3YO4AH2FPD6XG0OGOBTVFFK58DY0QT","","null","<img src=""img/land1.png"" style=""width:200px; border:14px solid green;"">","null","","","","","","","","","",""
"","image-keyboard-response","160","138644","0.0-160.0","37WLF8U1WQC85SAU4XUHHDEBT5O6KI","A3QNV0P3W7ZOAX","3YO4AH2FPD6XG0OGOBTVFFK58DY0QT","","644","img/land1.png","74","645","1","1","1","2","1,0.7,0.7,0.7,1,0.7,0.7,0.7,1","1,0.7,0.7,0.7,1,0.7,0.7,0.7,1","","",""
"","html-keyboard-response","161","138971","0.0-161.0","37WLF8U1WQC85SAU4XUHHDEBT5O6KI","A3QNV0P3W7ZOAX","3YO4AH2FPD6XG0OGOBTVFFK58DY0QT","","null","<img src=""img/land1.png"" style=""width:200px; border:14px solid green;"">","null","","","","","","","","","",""
"","image-keyboard-response","162","139857","0.0-162.0","37WLF8U1WQC85SAU4XUHHDEBT5O6KI","A3QNV0P3W7ZOAX","3YO4AH2FPD6XG0OGOBTVFFK58DY0QT","","886","img/land3.png","75","886","2","1","3","2","1,0.7,0.7,0.7,1,0.7,0.7,0.7,1","1,0.7,0.7,0.7,1,0.7,0.7,0.7,1","","",""
"","html-keyboard-response","163","140160","0.0-163.0","37WLF8U1WQC85SAU4XUHHDEBT5O6KI","A3QNV0P3W7ZOAX","3YO4AH2FPD6XG0OGOBTVFFK58DY0QT","","null","<img src=""img/land3.png"" style=""width:200px; border:14px solid green;"">","null","","","","","","","","","",""
"","image-keyboard-response","164","141052","0.0-164.0","37WLF8U1WQC85SAU4XUHHDEBT5O6KI","A3QNV0P3W7ZOAX","3YO4AH2FPD6XG0OGOBTVFFK58DY0QT","","888","img/land2.png","76","890","3","1","2","2","1,0.7,0.7,0.7,1,0.7,0.7,0.7,1","1,0.7,0.7,0.7,1,0.7,0.7,0.7,1","","",""
"","html-keyboard-response","165","141353","0.0-165.0","37WLF8U1WQC85SAU4XUHHDEBT5O6KI","A3QNV0P3W7ZOAX","3YO4AH2FPD6XG0OGOBTVFFK58DY0QT","","null","<img src=""img/land2.png"" style=""width:200px; border:14px solid green;"">","null","","","","","","","","","",""
"","image-keyboard-response","166","142869","0.0-166.0","37WLF8U1WQC85SAU4XUHHDEBT5O6KI","A3QNV0P3W7ZOAX","3YO4AH2FPD6XG0OGOBTVFFK58DY0QT","","","img/land3.png","","1515","-1","0","3","2","1,0.7,0.7,0.7,1,0.7,0.7,0.7,1","1,0.7,0.7,0.7,1,0.7,0.7,0.7,1","","",""
"","html-keyboard-response","167","143175","0.0-167.0","37WLF8U1WQC85SAU4XUHHDEBT5O6KI","A3QNV0P3W7ZOAX","3YO4AH2FPD6XG0OGOBTVFFK58DY0QT","","null","<img src=""img/land3.png"" style=""width:200px;border:14px solid red;"">","null","","","","","","","","","",""
"","image-keyboard-response","168","144328","0.0-168.0","37WLF8U1WQC85SAU4XUHHDEBT5O6KI","A3QNV0P3W7ZOAX","3YO4AH2FPD6XG0OGOBTVFFK58DY0QT","","1152","img/land1.png","76","1155","3","1","1","2","1,0.7,0.7,0.7,1,0.7,0.7,0.7,1","1,0.7,0.7,0.7,1,0.7,0.7,0.7,1","","",""
"","html-keyboard-response","169","144635","0.0-169.0","37WLF8U1WQC85SAU4XUHHDEBT5O6KI","A3QNV0P3W7ZOAX","3YO4AH2FPD6XG0OGOBTVFFK58DY0QT","","null","<img src=""img/land1.png"" style=""width:200px; border:14px solid green;"">","null","","","","","","","","","",""
"","image-keyboard-response","170","144789","0.0-170.0","37WLF8U1WQC85SAU4XUHHDEBT5O6KI","A3QNV0P3W7ZOAX","3YO4AH2FPD6XG0OGOBTVFFK58DY0QT","","153","img/land1.png","74","155","1","1","1","2","1,0.7,0.7,0.7,1,0.7,0.7,0.7,1","1,0.7,0.7,0.7,1,0.7,0.7,0.7,1","","",""
"","html-keyboard-response","171","145092","0.0-171.0","37WLF8U1WQC85SAU4XUHHDEBT5O6KI","A3QNV0P3W7ZOAX","3YO4AH2FPD6XG0OGOBTVFFK58DY0QT","","null","<img src=""img/land1.png"" style=""width:200px; border:14px solid green;"">","null","","","","","","","","","",""
"","image-keyboard-response","172","146020","0.0-172.0","37WLF8U1WQC85SAU4XUHHDEBT5O6KI","A3QNV0P3W7ZOAX","3YO4AH2FPD6XG0OGOBTVFFK58DY0QT","","924","img/land2.png","76","928","3","1","2","2","1,0.7,0.7,0.7,1,0.7,0.7,0.7,1","1,0.7,0.7,0.7,1,0.7,0.7,0.7,1","","",""
"","html-keyboard-response","173","146364","0.0-173.0","37WLF8U1WQC85SAU4XUHHDEBT5O6KI","A3QNV0P3W7ZOAX","3YO4AH2FPD6XG0OGOBTVFFK58DY0QT","","null","<img src=""img/land2.png"" style=""width:200px; border:14px solid green;"">","null","","","","","","","","","",""
"","image-keyboard-response","174","147361","0.0-174.0","37WLF8U1WQC85SAU4XUHHDEBT5O6KI","A3QNV0P3W7ZOAX","3YO4AH2FPD6XG0OGOBTVFFK58DY0QT","","996","img/land1.png","74","997","1","1","1","2","1,0.7,0.7,0.7,1,0.7,0.7,0.7,1","1,0.7,0.7,0.7,1,0.7,0.7,0.7,1","","",""
"","html-keyboard-response","175","147664","0.0-175.0","37WLF8U1WQC85SAU4XUHHDEBT5O6KI","A3QNV0P3W7ZOAX","3YO4AH2FPD6XG0OGOBTVFFK58DY0QT","","null","<img src=""img/land1.png"" style=""width:200px; border:14px solid green;"">","null","","","","","","","","","",""
"","image-keyboard-response","176","148762","0.0-176.0","37WLF8U1WQC85SAU4XUHHDEBT5O6KI","A3QNV0P3W7ZOAX","3YO4AH2FPD6XG0OGOBTVFFK58DY0QT","","1098","img/land1.png","74","1098","1","1","1","2","1,0.7,0.7,0.7,1,0.7,0.7,0.7,1","1,0.7,0.7,0.7,1,0.7,0.7,0.7,1","","",""
"","html-keyboard-response","177","149063","0.0-177.0","37WLF8U1WQC85SAU4XUHHDEBT5O6KI","A3QNV0P3W7ZOAX","3YO4AH2FPD6XG0OGOBTVFFK58DY0QT","","null","<img src=""img/land1.png"" style=""width:200px; border:14px solid green;"">","null","","","","","","","","","",""
"","image-keyboard-response","178","150114","0.0-178.0","37WLF8U1WQC85SAU4XUHHDEBT5O6KI","A3QNV0P3W7ZOAX","3YO4AH2FPD6XG0OGOBTVFFK58DY0QT","","1050","img/land1.png","74","1051","1","1","1","2","1,0.7,0.7,0.7,1,0.7,0.7,0.7,1","1,0.7,0.7,0.7,1,0.7,0.7,0.7,1","","",""
"","html-keyboard-response","179","150435","0.0-179.0","37WLF8U1WQC85SAU4XUHHDEBT5O6KI","A3QNV0P3W7ZOAX","3YO4AH2FPD6XG0OGOBTVFFK58DY0QT","","null","<img src=""img/land1.png"" style=""width:200px; border:14px solid green;"">","null","","","","","","","","","",""
"","image-keyboard-response","180","151143","0.0-180.0","37WLF8U1WQC85SAU4XUHHDEBT5O6KI","A3QNV0P3W7ZOAX","3YO4AH2FPD6XG0OGOBTVFFK58DY0QT","","705","img/land1.png","74","707","1","1","1","2","1,0.7,0.7,0.7,1,0.7,0.7,0.7,1","1,0.7,0.7,0.7,1,0.7,0.7,0.7,1","","",""
"","html-keyboard-response","181","151452","0.0-181.0","37WLF8U1WQC85SAU4XUHHDEBT5O6KI","A3QNV0P3W7ZOAX","3YO4AH2FPD6XG0OGOBTVFFK58DY0QT","","null","<img src=""img/land1.png"" style=""width:200px; border:14px solid green;"">","null","","","","","","","","","",""
"","image-keyboard-response","182","152099","0.0-182.0","37WLF8U1WQC85SAU4XUHHDEBT5O6KI","A3QNV0P3W7ZOAX","3YO4AH2FPD6XG0OGOBTVFFK58DY0QT","","646","img/land1.png","74","647","1","1","1","2","1,0.7,0.7,0.7,1,0.7,0.7,0.7,1","1,0.7,0.7,0.7,1,0.7,0.7,0.7,1","","",""
"","html-keyboard-response","183","152440","0.0-183.0","37WLF8U1WQC85SAU4XUHHDEBT5O6KI","A3QNV0P3W7ZOAX","3YO4AH2FPD6XG0OGOBTVFFK58DY0QT","","null","<img src=""img/land1.png"" style=""width:200px; border:14px solid green;"">","null","","","","","","","","","",""
"","image-keyboard-response","184","153515","0.0-184.0","37WLF8U1WQC85SAU4XUHHDEBT5O6KI","A3QNV0P3W7ZOAX","3YO4AH2FPD6XG0OGOBTVFFK58DY0QT","","1068","img/land3.png","75","1070","2","1","3","2","1,0.7,0.7,0.7,1,0.7,0.7,0.7,1","1,0.7,0.7,0.7,1,0.7,0.7,0.7,1","","",""
"","html-keyboard-response","185","153825","0.0-185.0","37WLF8U1WQC85SAU4XUHHDEBT5O6KI","A3QNV0P3W7ZOAX","3YO4AH2FPD6XG0OGOBTVFFK58DY0QT","","null","<img src=""img/land3.png"" style=""width:200px; border:14px solid green;"">","null","","","","","","","","","",""
"","image-keyboard-response","186","154919","0.0-186.0","37WLF8U1WQC85SAU4XUHHDEBT5O6KI","A3QNV0P3W7ZOAX","3YO4AH2FPD6XG0OGOBTVFFK58DY0QT","","1088","img/land2.png","76","1089","3","1","2","2","1,0.7,0.7,0.7,1,0.7,0.7,0.7,1","1,0.7,0.7,0.7,1,0.7,0.7,0.7,1","","",""
"","html-keyboard-response","187","155227","0.0-187.0","37WLF8U1WQC85SAU4XUHHDEBT5O6KI","A3QNV0P3W7ZOAX","3YO4AH2FPD6XG0OGOBTVFFK58DY0QT","","null","<img src=""img/land2.png"" style=""width:200px; border:14px solid green;"">","null","","","","","","","","","",""
"","image-keyboard-response","188","156265","0.0-188.0","37WLF8U1WQC85SAU4XUHHDEBT5O6KI","A3QNV0P3W7ZOAX","3YO4AH2FPD6XG0OGOBTVFFK58DY0QT","","1026","img/land1.png","74","1037","1","1","1","2","1,0.7,0.7,0.7,1,0.7,0.7,0.7,1","1,0.7,0.7,0.7,1,0.7,0.7,0.7,1","","",""
"","html-keyboard-response","189","156581","0.0-189.0","37WLF8U1WQC85SAU4XUHHDEBT5O6KI","A3QNV0P3W7ZOAX","3YO4AH2FPD6XG0OGOBTVFFK58DY0QT","","null","<img src=""img/land1.png"" style=""width:200px; border:14px solid green;"">","null","","","","","","","","","",""
"","image-keyboard-response","190","157369","0.0-190.0","37WLF8U1WQC85SAU4XUHHDEBT5O6KI","A3QNV0P3W7ZOAX","3YO4AH2FPD6XG0OGOBTVFFK58DY0QT","","787","img/land1.png","74","788","1","1","1","2","1,0.7,0.7,0.7,1,0.7,0.7,0.7,1","1,0.7,0.7,0.7,1,0.7,0.7,0.7,1","","",""
"","html-keyboard-response","191","157688","0.0-191.0","37WLF8U1WQC85SAU4XUHHDEBT5O6KI","A3QNV0P3W7ZOAX","3YO4AH2FPD6XG0OGOBTVFFK58DY0QT","","null","<img src=""img/land1.png"" style=""width:200px; border:14px solid green;"">","null","","","","","","","","","",""
"","image-keyboard-response","192","158626","0.0-192.0","37WLF8U1WQC85SAU4XUHHDEBT5O6KI","A3QNV0P3W7ZOAX","3YO4AH2FPD6XG0OGOBTVFFK58DY0QT","","936","img/land3.png","75","940","2","1","3","2","1,0.7,0.7,0.7,1,0.7,0.7,0.7,1","1,0.7,0.7,0.7,1,0.7,0.7,0.7,1","","",""
"","html-keyboard-response","193","158930","0.0-193.0","37WLF8U1WQC85SAU4XUHHDEBT5O6KI","A3QNV0P3W7ZOAX","3YO4AH2FPD6XG0OGOBTVFFK58DY0QT","","null","<img src=""img/land3.png"" style=""width:200px; border:14px solid green;"">","null","","","","","","","","","",""
"","image-keyboard-response","194","159578","0.0-194.0","37WLF8U1WQC85SAU4XUHHDEBT5O6KI","A3QNV0P3W7ZOAX","3YO4AH2FPD6XG0OGOBTVFFK58DY0QT","","645","img/land1.png","75","648","2","0","1","2","1,0.7,0.7,0.7,1,0.7,0.7,0.7,1","1,0.7,0.7,0.7,1,0.7,0.7,0.7,1","","",""
"","html-keyboard-response","195","159887","0.0-195.0","37WLF8U1WQC85SAU4XUHHDEBT5O6KI","A3QNV0P3W7ZOAX","3YO4AH2FPD6XG0OGOBTVFFK58DY0QT","","null","<img src=""img/land1.png"" style=""width:200px;border:14px solid red;"">","null","","","","","","","","","",""
"","image-keyboard-response","196","161212","0.0-196.0","37WLF8U1WQC85SAU4XUHHDEBT5O6KI","A3QNV0P3W7ZOAX","3YO4AH2FPD6XG0OGOBTVFFK58DY0QT","","1325","img/land1.png","74","1325","1","1","1","2","1,0.7,0.7,0.7,1,0.7,0.7,0.7,1","1,0.7,0.7,0.7,1,0.7,0.7,0.7,1","","",""
"","html-keyboard-response","197","161523","0.0-197.0","37WLF8U1WQC85SAU4XUHHDEBT5O6KI","A3QNV0P3W7ZOAX","3YO4AH2FPD6XG0OGOBTVFFK58DY0QT","","null","<img src=""img/land1.png"" style=""width:200px; border:14px solid green;"">","null","","","","","","","","","",""
"","image-keyboard-response","198","162159","0.0-198.0","37WLF8U1WQC85SAU4XUHHDEBT5O6KI","A3QNV0P3W7ZOAX","3YO4AH2FPD6XG0OGOBTVFFK58DY0QT","","629","img/land1.png","74","631","1","1","1","2","1,0.7,0.7,0.7,1,0.7,0.7,0.7,1","1,0.7,0.7,0.7,1,0.7,0.7,0.7,1","","",""
"","html-keyboard-response","199","162469","0.0-199.0","37WLF8U1WQC85SAU4XUHHDEBT5O6KI","A3QNV0P3W7ZOAX","3YO4AH2FPD6XG0OGOBTVFFK58DY0QT","","null","<img src=""img/land1.png"" style=""width:200px; border:14px solid green;"">","null","","","","","","","","","",""
"","image-keyboard-response","200","163349","0.0-200.0","37WLF8U1WQC85SAU4XUHHDEBT5O6KI","A3QNV0P3W7ZOAX","3YO4AH2FPD6XG0OGOBTVFFK58DY0QT","","878","img/land3.png","75","880","2","0","3","2","1,0.7,0.7,0.7,1,0.7,0.7,0.7,1","1,0.7,0.7,0.7,1,0.7,0.7,0.7,1","","",""
"","html-keyboard-response","201","163679","0.0-201.0","37WLF8U1WQC85SAU4XUHHDEBT5O6KI","A3QNV0P3W7ZOAX","3YO4AH2FPD6XG0OGOBTVFFK58DY0QT","","null","<img src=""img/land3.png"" style=""width:200px;border:14px solid red;"">","null","","","","","","","","","",""
"","image-keyboard-response","202","164286","0.0-202.0","37WLF8U1WQC85SAU4XUHHDEBT5O6KI","A3QNV0P3W7ZOAX","3YO4AH2FPD6XG0OGOBTVFFK58DY0QT","","605","img/land3.png","75","607","2","1","3","2","1,0.7,0.7,0.7,1,0.7,0.7,0.7,1","1,0.7,0.7,0.7,1,0.7,0.7,0.7,1","","",""
"","html-keyboard-response","203","164587","0.0-203.0","37WLF8U1WQC85SAU4XUHHDEBT5O6KI","A3QNV0P3W7ZOAX","3YO4AH2FPD6XG0OGOBTVFFK58DY0QT","","null","<img src=""img/land3.png"" style=""width:200px; border:14px solid green;"">","null","","","","","","","","","",""
"","image-keyboard-response","204","165461","0.0-204.0","37WLF8U1WQC85SAU4XUHHDEBT5O6KI","A3QNV0P3W7ZOAX","3YO4AH2FPD6XG0OGOBTVFFK58DY0QT","","869","img/land1.png","74","873","1","1","1","2","1,0.7,0.7,0.7,1,0.7,0.7,0.7,1","1,0.7,0.7,0.7,1,0.7,0.7,0.7,1","","",""
"","html-keyboard-response","205","165846","0.0-205.0","37WLF8U1WQC85SAU4XUHHDEBT5O6KI","A3QNV0P3W7ZOAX","3YO4AH2FPD6XG0OGOBTVFFK58DY0QT","","null","<img src=""img/land1.png"" style=""width:200px; border:14px solid green;"">","null","","","","","","","","","",""
"","image-keyboard-response","206","166463","0.0-206.0","37WLF8U1WQC85SAU4XUHHDEBT5O6KI","A3QNV0P3W7ZOAX","3YO4AH2FPD6XG0OGOBTVFFK58DY0QT","","617","img/land2.png","74","617","1","1","2","2","1,0.7,0.7,0.7,1,0.7,0.7,0.7,1","1,0.7,0.7,0.7,1,0.7,0.7,0.7,1","","",""
"","html-keyboard-response","207","167189","0.0-207.0","37WLF8U1WQC85SAU4XUHHDEBT5O6KI","A3QNV0P3W7ZOAX","3YO4AH2FPD6XG0OGOBTVFFK58DY0QT","","null","<img src=""img/land2.png"" style=""width:200px; border:14px solid green;"">","null","","","","","","","","","",""
"","image-keyboard-response","208","167509","0.0-208.0","37WLF8U1WQC85SAU4XUHHDEBT5O6KI","A3QNV0P3W7ZOAX","3YO4AH2FPD6XG0OGOBTVFFK58DY0QT","","317","img/land2.png","76","320","3","1","2","2","1,0.7,0.7,0.7,1,0.7,0.7,0.7,1","1,0.7,0.7,0.7,1,0.7,0.7,0.7,1","","",""
"","html-keyboard-response","209","168561","0.0-209.0","37WLF8U1WQC85SAU4XUHHDEBT5O6KI","A3QNV0P3W7ZOAX","3YO4AH2FPD6XG0OGOBTVFFK58DY0QT","","null","<img src=""img/land2.png"" style=""width:200px; border:14px solid green;"">","null","","","","","","","","","",""
"","image-keyboard-response","210","170090","0.0-210.0","37WLF8U1WQC85SAU4XUHHDEBT5O6KI","A3QNV0P3W7ZOAX","3YO4AH2FPD6XG0OGOBTVFFK58DY0QT","","","img/land1.png","","1529","-1","0","1","2","1,0.7,0.7,0.7,1,0.7,0.7,0.7,1","1,0.7,0.7,0.7,1,0.7,0.7,0.7,1","","",""
"","html-keyboard-response","211","170880","0.0-211.0","37WLF8U1WQC85SAU4XUHHDEBT5O6KI","A3QNV0P3W7ZOAX","3YO4AH2FPD6XG0OGOBTVFFK58DY0QT","","null","<img src=""img/land1.png"" style=""width:200px;border:14px solid red;"">","null","","","","","","","","","",""
"","image-keyboard-response","212","171319","0.0-212.0","37WLF8U1WQC85SAU4XUHHDEBT5O6KI","A3QNV0P3W7ZOAX","3YO4AH2FPD6XG0OGOBTVFFK58DY0QT","","409","img/land1.png","74","438","1","1","1","2","1,0.7,0.7,0.7,1,0.7,0.7,0.7,1","1,0.7,0.7,0.7,1,0.7,0.7,0.7,1","","",""
"","html-keyboard-response","213","171767","0.0-213.0","37WLF8U1WQC85SAU4XUHHDEBT5O6KI","A3QNV0P3W7ZOAX","3YO4AH2FPD6XG0OGOBTVFFK58DY0QT","","null","<img src=""img/land1.png"" style=""width:200px; border:14px solid green;"">","null","","","","","","","","","",""
"","image-keyboard-response","214","172283","0.0-214.0","37WLF8U1WQC85SAU4XUHHDEBT5O6KI","A3QNV0P3W7ZOAX","3YO4AH2FPD6XG0OGOBTVFFK58DY0QT","","493","img/land3.png","75","513","2","1","3","2","1,0.7,0.7,0.7,1,0.7,0.7,0.7,1","1,0.7,0.7,0.7,1,0.7,0.7,0.7,1","","",""
"","html-keyboard-response","215","172605","0.0-215.0","37WLF8U1WQC85SAU4XUHHDEBT5O6KI","A3QNV0P3W7ZOAX","3YO4AH2FPD6XG0OGOBTVFFK58DY0QT","","null","<img src=""img/land3.png"" style=""width:200px; border:14px solid green;"">","null","","","","","","","","","",""
"","image-keyboard-response","216","174007","0.0-216.0","37WLF8U1WQC85SAU4XUHHDEBT5O6KI","A3QNV0P3W7ZOAX","3YO4AH2FPD6XG0OGOBTVFFK58DY0QT","","1370","img/land1.png","74","1401","1","1","1","2","1,0.7,0.7,0.7,1,0.7,0.7,0.7,1","1,0.7,0.7,0.7,1,0.7,0.7,0.7,1","","",""
"","html-keyboard-response","217","174405","0.0-217.0","37WLF8U1WQC85SAU4XUHHDEBT5O6KI","A3QNV0P3W7ZOAX","3YO4AH2FPD6XG0OGOBTVFFK58DY0QT","","null","<img src=""img/land1.png"" style=""width:200px; border:14px solid green;"">","null","","","","","","","","","",""
"","image-keyboard-response","218","175525","0.0-218.0","37WLF8U1WQC85SAU4XUHHDEBT5O6KI","A3QNV0P3W7ZOAX","3YO4AH2FPD6XG0OGOBTVFFK58DY0QT","","1114","img/land1.png","74","1118","1","1","1","2","1,0.7,0.7,0.7,1,0.7,0.7,0.7,1","1,0.7,0.7,0.7,1,0.7,0.7,0.7,1","","",""
"","html-keyboard-response","219","176164","0.0-219.0","37WLF8U1WQC85SAU4XUHHDEBT5O6KI","A3QNV0P3W7ZOAX","3YO4AH2FPD6XG0OGOBTVFFK58DY0QT","","null","<img src=""img/land1.png"" style=""width:200px; border:14px solid green;"">","null","","","","","","","","","",""
"","image-keyboard-response","220","177206","0.0-220.0","37WLF8U1WQC85SAU4XUHHDEBT5O6KI","A3QNV0P3W7ZOAX","3YO4AH2FPD6XG0OGOBTVFFK58DY0QT","","1038","img/land1.png","74","1041","1","1","1","2","1,0.7,0.7,0.7,1,0.7,0.7,0.7,1","1,0.7,0.7,0.7,1,0.7,0.7,0.7,1","","",""
"","html-keyboard-response","221","177625","0.0-221.0","37WLF8U1WQC85SAU4XUHHDEBT5O6KI","A3QNV0P3W7ZOAX","3YO4AH2FPD6XG0OGOBTVFFK58DY0QT","","null","<img src=""img/land1.png"" style=""width:200px; border:14px solid green;"">","null","","","","","","","","","",""
"","image-keyboard-response","222","179284","0.0-222.0","37WLF8U1WQC85SAU4XUHHDEBT5O6KI","A3QNV0P3W7ZOAX","3YO4AH2FPD6XG0OGOBTVFFK58DY0QT","","1656","img/land1.png","74","1658","1","1","1","2","1,0.7,0.7,0.7,1,0.7,0.7,0.7,1","1,0.7,0.7,0.7,1,0.7,0.7,0.7,1","","",""
"","html-keyboard-response","223","179642","0.0-223.0","37WLF8U1WQC85SAU4XUHHDEBT5O6KI","A3QNV0P3W7ZOAX","3YO4AH2FPD6XG0OGOBTVFFK58DY0QT","","null","<img src=""img/land1.png"" style=""width:200px; border:14px solid green;"">","null","","","","","","","","","",""
"","image-keyboard-response","224","180873","0.0-224.0","37WLF8U1WQC85SAU4XUHHDEBT5O6KI","A3QNV0P3W7ZOAX","3YO4AH2FPD6XG0OGOBTVFFK58DY0QT","","1230","img/land3.png","75","1231","2","1","3","2","1,0.7,0.7,0.7,1,0.7,0.7,0.7,1","1,0.7,0.7,0.7,1,0.7,0.7,0.7,1","","",""
"","html-keyboard-response","225","181216","0.0-225.0","37WLF8U1WQC85SAU4XUHHDEBT5O6KI","A3QNV0P3W7ZOAX","3YO4AH2FPD6XG0OGOBTVFFK58DY0QT","","null","<img src=""img/land3.png"" style=""width:200px; border:14px solid green;"">","null","","","","","","","","","",""
"","image-keyboard-response","226","182374","0.0-226.0","37WLF8U1WQC85SAU4XUHHDEBT5O6KI","A3QNV0P3W7ZOAX","3YO4AH2FPD6XG0OGOBTVFFK58DY0QT","","1074","img/land1.png","74","1158","1","1","1","2","1,0.7,0.7,0.7,1,0.7,0.7,0.7,1","1,0.7,0.7,0.7,1,0.7,0.7,0.7,1","","",""
"","html-keyboard-response","227","182854","0.0-227.0","37WLF8U1WQC85SAU4XUHHDEBT5O6KI","A3QNV0P3W7ZOAX","3YO4AH2FPD6XG0OGOBTVFFK58DY0QT","","null","<img src=""img/land1.png"" style=""width:200px; border:14px solid green;"">","null","","","","","","","","","",""
"","image-keyboard-response","228","183972","0.0-228.0","37WLF8U1WQC85SAU4XUHHDEBT5O6KI","A3QNV0P3W7ZOAX","3YO4AH2FPD6XG0OGOBTVFFK58DY0QT","","1114","img/land2.png","76","1115","3","1","2","2","1,0.7,0.7,0.7,1,0.7,0.7,0.7,1","1,0.7,0.7,0.7,1,0.7,0.7,0.7,1","","",""
"","html-keyboard-response","229","184274","0.0-229.0","37WLF8U1WQC85SAU4XUHHDEBT5O6KI","A3QNV0P3W7ZOAX","3YO4AH2FPD6XG0OGOBTVFFK58DY0QT","","null","<img src=""img/land2.png"" style=""width:200px; border:14px solid green;"">","null","","","","","","","","","",""
"","image-keyboard-response","230","185385","0.0-230.0","37WLF8U1WQC85SAU4XUHHDEBT5O6KI","A3QNV0P3W7ZOAX","3YO4AH2FPD6XG0OGOBTVFFK58DY0QT","","1107","img/land1.png","74","1110","1","1","1","2","1,0.7,0.7,0.7,1,0.7,0.7,0.7,1","1,0.7,0.7,0.7,1,0.7,0.7,0.7,1","","",""
"","html-keyboard-response","231","185751","0.0-231.0","37WLF8U1WQC85SAU4XUHHDEBT5O6KI","A3QNV0P3W7ZOAX","3YO4AH2FPD6XG0OGOBTVFFK58DY0QT","","null","<img src=""img/land1.png"" style=""width:200px; border:14px solid green;"">","null","","","","","","","","","",""
"","image-keyboard-response","232","187276","0.0-232.0","37WLF8U1WQC85SAU4XUHHDEBT5O6KI","A3QNV0P3W7ZOAX","3YO4AH2FPD6XG0OGOBTVFFK58DY0QT","","","img/land1.png","","1511","-1","0","1","2","1,0.7,0.7,0.7,1,0.7,0.7,0.7,1","1,0.7,0.7,0.7,1,0.7,0.7,0.7,1","","",""
"","html-keyboard-response","233","187650","0.0-233.0","37WLF8U1WQC85SAU4XUHHDEBT5O6KI","A3QNV0P3W7ZOAX","3YO4AH2FPD6XG0OGOBTVFFK58DY0QT","","null","<img src=""img/land1.png"" style=""width:200px;border:14px solid red;"">","null","","","","","","","","","",""
"","image-keyboard-response","234","187760","0.0-234.0","37WLF8U1WQC85SAU4XUHHDEBT5O6KI","A3QNV0P3W7ZOAX","3YO4AH2FPD6XG0OGOBTVFFK58DY0QT","","110","img/land1.png","74","110","1","1","1","2","1,0.7,0.7,0.7,1,0.7,0.7,0.7,1","1,0.7,0.7,0.7,1,0.7,0.7,0.7,1","","",""
"","html-keyboard-response","235","188067","0.0-235.0","37WLF8U1WQC85SAU4XUHHDEBT5O6KI","A3QNV0P3W7ZOAX","3YO4AH2FPD6XG0OGOBTVFFK58DY0QT","","null","<img src=""img/land1.png"" style=""width:200px; border:14px solid green;"">","null","","","","","","","","","",""
"","image-keyboard-response","236","188918","0.0-236.0","37WLF8U1WQC85SAU4XUHHDEBT5O6KI","A3QNV0P3W7ZOAX","3YO4AH2FPD6XG0OGOBTVFFK58DY0QT","","848","img/land1.png","74","851","1","1","1","2","1,0.7,0.7,0.7,1,0.7,0.7,0.7,1","1,0.7,0.7,0.7,1,0.7,0.7,0.7,1","","",""
"","html-keyboard-response","237","189237","0.0-237.0","37WLF8U1WQC85SAU4XUHHDEBT5O6KI","A3QNV0P3W7ZOAX","3YO4AH2FPD6XG0OGOBTVFFK58DY0QT","","null","<img src=""img/land1.png"" style=""width:200px; border:14px solid green;"">","null","","","","","","","","","",""
"","image-keyboard-response","238","190001","0.0-238.0","37WLF8U1WQC85SAU4XUHHDEBT5O6KI","A3QNV0P3W7ZOAX","3YO4AH2FPD6XG0OGOBTVFFK58DY0QT","","763","img/land1.png","74","764","1","1","1","2","1,0.7,0.7,0.7,1,0.7,0.7,0.7,1","1,0.7,0.7,0.7,1,0.7,0.7,0.7,1","","",""
"","html-keyboard-response","239","190543","0.0-239.0","37WLF8U1WQC85SAU4XUHHDEBT5O6KI","A3QNV0P3W7ZOAX","3YO4AH2FPD6XG0OGOBTVFFK58DY0QT","","null","<img src=""img/land1.png"" style=""width:200px; border:14px solid green;"">","null","","","","","","","","","",""
"","image-keyboard-response","240","191601","0.0-240.0","37WLF8U1WQC85SAU4XUHHDEBT5O6KI","A3QNV0P3W7ZOAX","3YO4AH2FPD6XG0OGOBTVFFK58DY0QT","","995","img/land1.png","74","1006","1","1","1","2","1,0.7,0.7,0.7,1,0.7,0.7,0.7,1","1,0.7,0.7,0.7,1,0.7,0.7,0.7,1","","",""
"","html-keyboard-response","241","191922","0.0-241.0","37WLF8U1WQC85SAU4XUHHDEBT5O6KI","A3QNV0P3W7ZOAX","3YO4AH2FPD6XG0OGOBTVFFK58DY0QT","","null","<img src=""img/land1.png"" style=""width:200px; border:14px solid green;"">","null","","","","","","","","","",""
"","image-keyboard-response","242","192790","0.0-242.0","37WLF8U1WQC85SAU4XUHHDEBT5O6KI","A3QNV0P3W7ZOAX","3YO4AH2FPD6XG0OGOBTVFFK58DY0QT","","867","img/land1.png","74","868","1","1","1","2","1,0.7,0.7,0.7,1,0.7,0.7,0.7,1","1,0.7,0.7,0.7,1,0.7,0.7,0.7,1","","",""
"","html-keyboard-response","243","193098","0.0-243.0","37WLF8U1WQC85SAU4XUHHDEBT5O6KI","A3QNV0P3W7ZOAX","3YO4AH2FPD6XG0OGOBTVFFK58DY0QT","","null","<img src=""img/land1.png"" style=""width:200px; border:14px solid green;"">","null","","","","","","","","","",""
"","image-keyboard-response","244","193718","0.0-244.0","37WLF8U1WQC85SAU4XUHHDEBT5O6KI","A3QNV0P3W7ZOAX","3YO4AH2FPD6XG0OGOBTVFFK58DY0QT","","614","img/land1.png","74","619","1","1","1","2","1,0.7,0.7,0.7,1,0.7,0.7,0.7,1","1,0.7,0.7,0.7,1,0.7,0.7,0.7,1","","",""
"","html-keyboard-response","245","194096","0.0-245.0","37WLF8U1WQC85SAU4XUHHDEBT5O6KI","A3QNV0P3W7ZOAX","3YO4AH2FPD6XG0OGOBTVFFK58DY0QT","","null","<img src=""img/land1.png"" style=""width:200px; border:14px solid green;"">","null","","","","","","","","","",""
"","image-keyboard-response","246","195090","0.0-246.0","37WLF8U1WQC85SAU4XUHHDEBT5O6KI","A3QNV0P3W7ZOAX","3YO4AH2FPD6XG0OGOBTVFFK58DY0QT","","991","img/land3.png","75","994","2","1","3","2","1,0.7,0.7,0.7,1,0.7,0.7,0.7,1","1,0.7,0.7,0.7,1,0.7,0.7,0.7,1","","",""
"","html-keyboard-response","247","195630","0.0-247.0","37WLF8U1WQC85SAU4XUHHDEBT5O6KI","A3QNV0P3W7ZOAX","3YO4AH2FPD6XG0OGOBTVFFK58DY0QT","","null","<img src=""img/land3.png"" style=""width:200px; border:14px solid green;"">","null","","","","","","","","","",""
"","image-keyboard-response","248","196191","0.0-248.0","37WLF8U1WQC85SAU4XUHHDEBT5O6KI","A3QNV0P3W7ZOAX","3YO4AH2FPD6XG0OGOBTVFFK58DY0QT","","560","img/land3.png","75","561","2","1","3","2","1,0.7,0.7,0.7,1,0.7,0.7,0.7,1","1,0.7,0.7,0.7,1,0.7,0.7,0.7,1","","",""
"","html-keyboard-response","249","196494","0.0-249.0","37WLF8U1WQC85SAU4XUHHDEBT5O6KI","A3QNV0P3W7ZOAX","3YO4AH2FPD6XG0OGOBTVFFK58DY0QT","","null","<img src=""img/land3.png"" style=""width:200px; border:14px solid green;"">","null","","","","","","","","","",""
"","image-keyboard-response","250","197132","0.0-250.0","37WLF8U1WQC85SAU4XUHHDEBT5O6KI","A3QNV0P3W7ZOAX","3YO4AH2FPD6XG0OGOBTVFFK58DY0QT","","635","img/land3.png","75","637","2","1","3","2","1,0.7,0.7,0.7,1,0.7,0.7,0.7,1","1,0.7,0.7,0.7,1,0.7,0.7,0.7,1","","",""
"","html-keyboard-response","251","197452","0.0-251.0","37WLF8U1WQC85SAU4XUHHDEBT5O6KI","A3QNV0P3W7ZOAX","3YO4AH2FPD6XG0OGOBTVFFK58DY0QT","","null","<img src=""img/land3.png"" style=""width:200px; border:14px solid green;"">","null","","","","","","","","","",""
"","image-keyboard-response","252","198542","0.0-252.0","37WLF8U1WQC85SAU4XUHHDEBT5O6KI","A3QNV0P3W7ZOAX","3YO4AH2FPD6XG0OGOBTVFFK58DY0QT","","1084","img/land1.png","74","1090","1","1","1","2","1,0.7,0.7,0.7,1,0.7,0.7,0.7,1","1,0.7,0.7,0.7,1,0.7,0.7,0.7,1","","",""
"","html-keyboard-response","253","198848","0.0-253.0","37WLF8U1WQC85SAU4XUHHDEBT5O6KI","A3QNV0P3W7ZOAX","3YO4AH2FPD6XG0OGOBTVFFK58DY0QT","","null","<img src=""img/land1.png"" style=""width:200px; border:14px solid green;"">","null","","","","","","","","","",""
"","image-keyboard-response","254","199597","0.0-254.0","37WLF8U1WQC85SAU4XUHHDEBT5O6KI","A3QNV0P3W7ZOAX","3YO4AH2FPD6XG0OGOBTVFFK58DY0QT","","746","img/land1.png","74","749","1","1","1","2","1,0.7,0.7,0.7,1,0.7,0.7,0.7,1","1,0.7,0.7,0.7,1,0.7,0.7,0.7,1","","",""
"","html-keyboard-response","255","200181","0.0-255.0","37WLF8U1WQC85SAU4XUHHDEBT5O6KI","A3QNV0P3W7ZOAX","3YO4AH2FPD6XG0OGOBTVFFK58DY0QT","","null","<img src=""img/land1.png"" style=""width:200px; border:14px solid green;"">","null","","","","","","","","","",""
"","image-keyboard-response","256","201387","0.0-256.0","37WLF8U1WQC85SAU4XUHHDEBT5O6KI","A3QNV0P3W7ZOAX","3YO4AH2FPD6XG0OGOBTVFFK58DY0QT","","1200","img/land2.png","76","1206","3","1","2","2","1,0.7,0.7,0.7,1,0.7,0.7,0.7,1","1,0.7,0.7,0.7,1,0.7,0.7,0.7,1","","",""
"","html-keyboard-response","257","201688","0.0-257.0","37WLF8U1WQC85SAU4XUHHDEBT5O6KI","A3QNV0P3W7ZOAX","3YO4AH2FPD6XG0OGOBTVFFK58DY0QT","","null","<img src=""img/land2.png"" style=""width:200px; border:14px solid green;"">","null","","","","","","","","","",""
"","image-keyboard-response","258","202414","0.0-258.0","37WLF8U1WQC85SAU4XUHHDEBT5O6KI","A3QNV0P3W7ZOAX","3YO4AH2FPD6XG0OGOBTVFFK58DY0QT","","726","img/land2.png","76","727","3","1","2","2","1,0.7,0.7,0.7,1,0.7,0.7,0.7,1","1,0.7,0.7,0.7,1,0.7,0.7,0.7,1","","",""
"","html-keyboard-response","259","202716","0.0-259.0","37WLF8U1WQC85SAU4XUHHDEBT5O6KI","A3QNV0P3W7ZOAX","3YO4AH2FPD6XG0OGOBTVFFK58DY0QT","","null","<img src=""img/land2.png"" style=""width:200px; border:14px solid green;"">","null","","","","","","","","","",""
"","image-keyboard-response","260","203677","0.0-260.0","37WLF8U1WQC85SAU4XUHHDEBT5O6KI","A3QNV0P3W7ZOAX","3YO4AH2FPD6XG0OGOBTVFFK58DY0QT","","961","img/land1.png","74","962","1","1","1","2","1,0.7,0.7,0.7,1,0.7,0.7,0.7,1","1,0.7,0.7,0.7,1,0.7,0.7,0.7,1","","",""
"","html-keyboard-response","261","203978","0.0-261.0","37WLF8U1WQC85SAU4XUHHDEBT5O6KI","A3QNV0P3W7ZOAX","3YO4AH2FPD6XG0OGOBTVFFK58DY0QT","","null","<img src=""img/land1.png"" style=""width:200px; border:14px solid green;"">","null","","","","","","","","","",""
"","image-keyboard-response","262","204664","0.0-262.0","37WLF8U1WQC85SAU4XUHHDEBT5O6KI","A3QNV0P3W7ZOAX","3YO4AH2FPD6XG0OGOBTVFFK58DY0QT","","684","img/land1.png","74","684","1","1","1","2","1,0.7,0.7,0.7,1,0.7,0.7,0.7,1","1,0.7,0.7,0.7,1,0.7,0.7,0.7,1","","",""
"","html-keyboard-response","263","204968","0.0-263.0","37WLF8U1WQC85SAU4XUHHDEBT5O6KI","A3QNV0P3W7ZOAX","3YO4AH2FPD6XG0OGOBTVFFK58DY0QT","","null","<img src=""img/land1.png"" style=""width:200px; border:14px solid green;"">","null","","","","","","","","","",""
"","image-keyboard-response","264","205969","0.0-264.0","37WLF8U1WQC85SAU4XUHHDEBT5O6KI","A3QNV0P3W7ZOAX","3YO4AH2FPD6XG0OGOBTVFFK58DY0QT","","994","img/land2.png","76","1001","3","1","2","2","1,0.7,0.7,0.7,1,0.7,0.7,0.7,1","1,0.7,0.7,0.7,1,0.7,0.7,0.7,1","","",""
"","html-keyboard-response","265","206270","0.0-265.0","37WLF8U1WQC85SAU4XUHHDEBT5O6KI","A3QNV0P3W7ZOAX","3YO4AH2FPD6XG0OGOBTVFFK58DY0QT","","null","<img src=""img/land2.png"" style=""width:200px; border:14px solid green;"">","null","","","","","","","","","",""
"","image-keyboard-response","266","206941","0.0-266.0","37WLF8U1WQC85SAU4XUHHDEBT5O6KI","A3QNV0P3W7ZOAX","3YO4AH2FPD6XG0OGOBTVFFK58DY0QT","","671","img/land2.png","76","709","3","1","2","2","1,0.7,0.7,0.7,1,0.7,0.7,0.7,1","1,0.7,0.7,0.7,1,0.7,0.7,0.7,1","","",""
"","html-keyboard-response","267","207288","0.0-267.0","37WLF8U1WQC85SAU4XUHHDEBT5O6KI","A3QNV0P3W7ZOAX","3YO4AH2FPD6XG0OGOBTVFFK58DY0QT","","null","<img src=""img/land2.png"" style=""width:200px; border:14px solid green;"">","null","","","","","","","","","",""
"","image-keyboard-response","268","208235","0.0-268.0","37WLF8U1WQC85SAU4XUHHDEBT5O6KI","A3QNV0P3W7ZOAX","3YO4AH2FPD6XG0OGOBTVFFK58DY0QT","","944","img/land1.png","74","946","1","1","1","2","1,0.7,0.7,0.7,1,0.7,0.7,0.7,1","1,0.7,0.7,0.7,1,0.7,0.7,0.7,1","","",""
"","html-keyboard-response","269","208538","0.0-269.0","37WLF8U1WQC85SAU4XUHHDEBT5O6KI","A3QNV0P3W7ZOAX","3YO4AH2FPD6XG0OGOBTVFFK58DY0QT","","null","<img src=""img/land1.png"" style=""width:200px; border:14px solid green;"">","null","","","","","","","","","",""
"","image-keyboard-response","270","209389","0.0-270.0","37WLF8U1WQC85SAU4XUHHDEBT5O6KI","A3QNV0P3W7ZOAX","3YO4AH2FPD6XG0OGOBTVFFK58DY0QT","","821","img/land2.png","74","854","1","0","2","2","1,0.7,0.7,0.7,1,0.7,0.7,0.7,1","1,0.7,0.7,0.7,1,0.7,0.7,0.7,1","","",""
"","html-keyboard-response","271","209695","0.0-271.0","37WLF8U1WQC85SAU4XUHHDEBT5O6KI","A3QNV0P3W7ZOAX","3YO4AH2FPD6XG0OGOBTVFFK58DY0QT","","null","<img src=""img/land2.png"" style=""width:200px;border:14px solid red;"">","null","","","","","","","","","",""
"","image-keyboard-response","272","210082","0.0-272.0","37WLF8U1WQC85SAU4XUHHDEBT5O6KI","A3QNV0P3W7ZOAX","3YO4AH2FPD6XG0OGOBTVFFK58DY0QT","","385","img/land1.png","76","385","3","1","1","2","1,0.7,0.7,0.7,1,0.7,0.7,0.7,1","1,0.7,0.7,0.7,1,0.7,0.7,0.7,1","","",""
"","html-keyboard-response","273","210387","0.0-273.0","37WLF8U1WQC85SAU4XUHHDEBT5O6KI","A3QNV0P3W7ZOAX","3YO4AH2FPD6XG0OGOBTVFFK58DY0QT","","null","<img src=""img/land1.png"" style=""width:200px; border:14px solid green;"">","null","","","","","","","","","",""
"","image-keyboard-response","274","211056","0.0-274.0","37WLF8U1WQC85SAU4XUHHDEBT5O6KI","A3QNV0P3W7ZOAX","3YO4AH2FPD6XG0OGOBTVFFK58DY0QT","","669","img/land1.png","74","670","1","1","1","2","1,0.7,0.7,0.7,1,0.7,0.7,0.7,1","1,0.7,0.7,0.7,1,0.7,0.7,0.7,1","","",""
"","html-keyboard-response","275","211375","0.0-275.0","37WLF8U1WQC85SAU4XUHHDEBT5O6KI","A3QNV0P3W7ZOAX","3YO4AH2FPD6XG0OGOBTVFFK58DY0QT","","null","<img src=""img/land1.png"" style=""width:200px; border:14px solid green;"">","null","","","","","","","","","",""
"","image-keyboard-response","276","212152","0.0-276.0","37WLF8U1WQC85SAU4XUHHDEBT5O6KI","A3QNV0P3W7ZOAX","3YO4AH2FPD6XG0OGOBTVFFK58DY0QT","","771","img/land1.png","74","775","1","1","1","2","1,0.7,0.7,0.7,1,0.7,0.7,0.7,1","1,0.7,0.7,0.7,1,0.7,0.7,0.7,1","","",""
"","html-keyboard-response","277","212483","0.0-277.0","37WLF8U1WQC85SAU4XUHHDEBT5O6KI","A3QNV0P3W7ZOAX","3YO4AH2FPD6XG0OGOBTVFFK58DY0QT","","null","<img src=""img/land1.png"" style=""width:200px; border:14px solid green;"">","null","","","","","","","","","",""
"","image-keyboard-response","278","213381","0.0-278.0","37WLF8U1WQC85SAU4XUHHDEBT5O6KI","A3QNV0P3W7ZOAX","3YO4AH2FPD6XG0OGOBTVFFK58DY0QT","","891","img/land1.png","74","893","1","1","1","2","1,0.7,0.7,0.7,1,0.7,0.7,0.7,1","1,0.7,0.7,0.7,1,0.7,0.7,0.7,1","","",""
"","html-keyboard-response","279","213745","0.0-279.0","37WLF8U1WQC85SAU4XUHHDEBT5O6KI","A3QNV0P3W7ZOAX","3YO4AH2FPD6XG0OGOBTVFFK58DY0QT","","null","<img src=""img/land1.png"" style=""width:200px; border:14px solid green;"">","null","","","","","","","","","",""
"","image-keyboard-response","280","214691","0.0-280.0","37WLF8U1WQC85SAU4XUHHDEBT5O6KI","A3QNV0P3W7ZOAX","3YO4AH2FPD6XG0OGOBTVFFK58DY0QT","","934","img/land3.png","75","936","2","1","3","2","1,0.7,0.7,0.7,1,0.7,0.7,0.7,1","1,0.7,0.7,0.7,1,0.7,0.7,0.7,1","","",""
"","html-keyboard-response","281","214994","0.0-281.0","37WLF8U1WQC85SAU4XUHHDEBT5O6KI","A3QNV0P3W7ZOAX","3YO4AH2FPD6XG0OGOBTVFFK58DY0QT","","null","<img src=""img/land3.png"" style=""width:200px; border:14px solid green;"">","null","","","","","","","","","",""
"","image-keyboard-response","282","215703","0.0-282.0","37WLF8U1WQC85SAU4XUHHDEBT5O6KI","A3QNV0P3W7ZOAX","3YO4AH2FPD6XG0OGOBTVFFK58DY0QT","","709","img/land3.png","75","709","2","1","3","2","1,0.7,0.7,0.7,1,0.7,0.7,0.7,1","1,0.7,0.7,0.7,1,0.7,0.7,0.7,1","","",""
"","html-keyboard-response","283","216014","0.0-283.0","37WLF8U1WQC85SAU4XUHHDEBT5O6KI","A3QNV0P3W7ZOAX","3YO4AH2FPD6XG0OGOBTVFFK58DY0QT","","null","<img src=""img/land3.png"" style=""width:200px; border:14px solid green;"">","null","","","","","","","","","",""
"","image-keyboard-response","284","216370","0.0-284.0","37WLF8U1WQC85SAU4XUHHDEBT5O6KI","A3QNV0P3W7ZOAX","3YO4AH2FPD6XG0OGOBTVFFK58DY0QT","","346","img/land1.png","75","355","2","0","1","2","1,0.7,0.7,0.7,1,0.7,0.7,0.7,1","1,0.7,0.7,0.7,1,0.7,0.7,0.7,1","","",""
"","html-keyboard-response","285","216727","0.0-285.0","37WLF8U1WQC85SAU4XUHHDEBT5O6KI","A3QNV0P3W7ZOAX","3YO4AH2FPD6XG0OGOBTVFFK58DY0QT","","null","<img src=""img/land1.png"" style=""width:200px;border:14px solid red;"">","null","","","","","","","","","",""
"","image-keyboard-response","286","217014","0.0-286.0","37WLF8U1WQC85SAU4XUHHDEBT5O6KI","A3QNV0P3W7ZOAX","3YO4AH2FPD6XG0OGOBTVFFK58DY0QT","","226","img/land2.png","74","286","1","1","2","2","1,0.7,0.7,0.7,1,0.7,0.7,0.7,1","1,0.7,0.7,0.7,1,0.7,0.7,0.7,1","","",""
"","html-keyboard-response","287","217316","0.0-287.0","37WLF8U1WQC85SAU4XUHHDEBT5O6KI","A3QNV0P3W7ZOAX","3YO4AH2FPD6XG0OGOBTVFFK58DY0QT","","null","<img src=""img/land2.png"" style=""width:200px; border:14px solid green;"">","null","","","","","","","","","",""
"","image-keyboard-response","288","218825","0.0-288.0","37WLF8U1WQC85SAU4XUHHDEBT5O6KI","A3QNV0P3W7ZOAX","3YO4AH2FPD6XG0OGOBTVFFK58DY0QT","","1503","img/land1.png","74","1509","1","1","1","2","1,0.7,0.7,0.7,1,0.7,0.7,0.7,1","1,0.7,0.7,0.7,1,0.7,0.7,0.7,1","","",""
"","html-keyboard-response","289","219161","0.0-289.0","37WLF8U1WQC85SAU4XUHHDEBT5O6KI","A3QNV0P3W7ZOAX","3YO4AH2FPD6XG0OGOBTVFFK58DY0QT","","null","<img src=""img/land1.png"" style=""width:200px; border:14px solid green;"">","null","","","","","","","","","",""
"","image-keyboard-response","290","220662","0.0-290.0","37WLF8U1WQC85SAU4XUHHDEBT5O6KI","A3QNV0P3W7ZOAX","3YO4AH2FPD6XG0OGOBTVFFK58DY0QT","","","img/land1.png","","1501","-1","0","1","2","1,0.7,0.7,0.7,1,0.7,0.7,0.7,1","1,0.7,0.7,0.7,1,0.7,0.7,0.7,1","","",""
"","html-keyboard-response","291","220967","0.0-291.0","37WLF8U1WQC85SAU4XUHHDEBT5O6KI","A3QNV0P3W7ZOAX","3YO4AH2FPD6XG0OGOBTVFFK58DY0QT","","null","<img src=""img/land1.png"" style=""width:200px;border:14px solid red;"">","null","","","","","","","","","",""
"","image-keyboard-response","292","221680","0.0-292.0","37WLF8U1WQC85SAU4XUHHDEBT5O6KI","A3QNV0P3W7ZOAX","3YO4AH2FPD6XG0OGOBTVFFK58DY0QT","","713","img/land1.png","74","713","1","1","1","2","1,0.7,0.7,0.7,1,0.7,0.7,0.7,1","1,0.7,0.7,0.7,1,0.7,0.7,0.7,1","","",""
"","html-keyboard-response","293","222058","0.0-293.0","37WLF8U1WQC85SAU4XUHHDEBT5O6KI","A3QNV0P3W7ZOAX","3YO4AH2FPD6XG0OGOBTVFFK58DY0QT","","null","<img src=""img/land1.png"" style=""width:200px; border:14px solid green;"">","null","","","","","","","","","",""
"","image-keyboard-response","294","223012","0.0-294.0","37WLF8U1WQC85SAU4XUHHDEBT5O6KI","A3QNV0P3W7ZOAX","3YO4AH2FPD6XG0OGOBTVFFK58DY0QT","","952","img/land1.png","74","954","1","1","1","2","1,0.7,0.7,0.7,1,0.7,0.7,0.7,1","1,0.7,0.7,0.7,1,0.7,0.7,0.7,1","","",""
"","html-keyboard-response","295","223352","0.0-295.0","37WLF8U1WQC85SAU4XUHHDEBT5O6KI","A3QNV0P3W7ZOAX","3YO4AH2FPD6XG0OGOBTVFFK58DY0QT","","null","<img src=""img/land1.png"" style=""width:200px; border:14px solid green;"">","null","","","","","","","","","",""
"","image-keyboard-response","296","224152","0.0-296.0","37WLF8U1WQC85SAU4XUHHDEBT5O6KI","A3QNV0P3W7ZOAX","3YO4AH2FPD6XG0OGOBTVFFK58DY0QT","","773","img/land1.png","74","799","1","1","1","2","1,0.7,0.7,0.7,1,0.7,0.7,0.7,1","1,0.7,0.7,0.7,1,0.7,0.7,0.7,1","","",""
"","html-keyboard-response","297","224457","0.0-297.0","37WLF8U1WQC85SAU4XUHHDEBT5O6KI","A3QNV0P3W7ZOAX","3YO4AH2FPD6XG0OGOBTVFFK58DY0QT","","null","<img src=""img/land1.png"" style=""width:200px; border:14px solid green;"">","null","","","","","","","","","",""
"","image-keyboard-response","298","225144","0.0-298.0","37WLF8U1WQC85SAU4XUHHDEBT5O6KI","A3QNV0P3W7ZOAX","3YO4AH2FPD6XG0OGOBTVFFK58DY0QT","","687","img/land1.png","74","687","1","1","1","2","1,0.7,0.7,0.7,1,0.7,0.7,0.7,1","1,0.7,0.7,0.7,1,0.7,0.7,0.7,1","","",""
"","html-keyboard-response","299","225447","0.0-299.0","37WLF8U1WQC85SAU4XUHHDEBT5O6KI","A3QNV0P3W7ZOAX","3YO4AH2FPD6XG0OGOBTVFFK58DY0QT","","null","<img src=""img/land1.png"" style=""width:200px; border:14px solid green;"">","null","","","","","","","","","",""
"","image-keyboard-response","300","226025","0.0-300.0","37WLF8U1WQC85SAU4XUHHDEBT5O6KI","A3QNV0P3W7ZOAX","3YO4AH2FPD6XG0OGOBTVFFK58DY0QT","","574","img/land1.png","74","578","1","1","1","2","1,0.7,0.7,0.7,1,0.7,0.7,0.7,1","1,0.7,0.7,0.7,1,0.7,0.7,0.7,1","","",""
"","html-keyboard-response","301","226346","0.0-301.0","37WLF8U1WQC85SAU4XUHHDEBT5O6KI","A3QNV0P3W7ZOAX","3YO4AH2FPD6XG0OGOBTVFFK58DY0QT","","null","<img src=""img/land1.png"" style=""width:200px; border:14px solid green;"">","null","","","","","","","","","",""
"","html-keyboard-response","302","230131","0.0-302.0","37WLF8U1WQC85SAU4XUHHDEBT5O6KI","A3QNV0P3W7ZOAX","3YO4AH2FPD6XG0OGOBTVFFK58DY0QT","","","","","","","","","","","","","",""
"","image-keyboard-response","303","231637","0.0-303.0","37WLF8U1WQC85SAU4XUHHDEBT5O6KI","A3QNV0P3W7ZOAX","3YO4AH2FPD6XG0OGOBTVFFK58DY0QT","","","img/land4.png","","1507","-1","0","1","2","1,0.7,0.7,0.7,1,0.7,0.7,0.7,1","1,0.7,0.7,0.7,1,0.7,0.7,0.7,1","","",""
"","html-keyboard-response","304","231948","0.0-304.0","37WLF8U1WQC85SAU4XUHHDEBT5O6KI","A3QNV0P3W7ZOAX","3YO4AH2FPD6XG0OGOBTVFFK58DY0QT","","null","<img src=""img/land4.png"" style=""width:200px;border:14px solid red;"">","null","","","","","","","","","",""
"","image-keyboard-response","305","232677","0.0-305.0","37WLF8U1WQC85SAU4XUHHDEBT5O6KI","A3QNV0P3W7ZOAX","3YO4AH2FPD6XG0OGOBTVFFK58DY0QT","","729","img/land5.png","74","729","1","1","2","2","1,0.7,0.7,0.7,1,0.7,0.7,0.7,1","1,0.7,0.7,0.7,1,0.7,0.7,0.7,1","","",""
"","html-keyboard-response","306","232977","0.0-306.0","37WLF8U1WQC85SAU4XUHHDEBT5O6KI","A3QNV0P3W7ZOAX","3YO4AH2FPD6XG0OGOBTVFFK58DY0QT","","null","<img src=""img/land5.png"" style=""width:200px; border:14px solid green;"">","null","","","","","","","","","",""
"","image-keyboard-response","307","233024","0.0-307.0","37WLF8U1WQC85SAU4XUHHDEBT5O6KI","A3QNV0P3W7ZOAX","3YO4AH2FPD6XG0OGOBTVFFK58DY0QT","","44","img/land4.png","75","46","2","1","1","2","1,0.7,0.7,0.7,1,0.7,0.7,0.7,1","1,0.7,0.7,0.7,1,0.7,0.7,0.7,1","","",""
"","html-keyboard-response","308","233332","0.0-308.0","37WLF8U1WQC85SAU4XUHHDEBT5O6KI","A3QNV0P3W7ZOAX","3YO4AH2FPD6XG0OGOBTVFFK58DY0QT","","null","<img src=""img/land4.png"" style=""width:200px; border:14px solid green;"">","null","","","","","","","","","",""
"","image-keyboard-response","309","233631","0.0-309.0","37WLF8U1WQC85SAU4XUHHDEBT5O6KI","A3QNV0P3W7ZOAX","3YO4AH2FPD6XG0OGOBTVFFK58DY0QT","","285","img/land4.png","76","292","3","0","1","2","1,0.7,0.7,0.7,1,0.7,0.7,0.7,1","1,0.7,0.7,0.7,1,0.7,0.7,0.7,1","","",""
"","html-keyboard-response","310","233943","0.0-310.0","37WLF8U1WQC85SAU4XUHHDEBT5O6KI","A3QNV0P3W7ZOAX","3YO4AH2FPD6XG0OGOBTVFFK58DY0QT","","null","<img src=""img/land4.png"" style=""width:200px;border:14px solid red;"">","null","","","","","","","","","",""
"","image-keyboard-response","311","234033","0.0-311.0","37WLF8U1WQC85SAU4XUHHDEBT5O6KI","A3QNV0P3W7ZOAX","3YO4AH2FPD6XG0OGOBTVFFK58DY0QT","","77","img/land5.png","75","88","2","1","2","2","1,0.7,0.7,0.7,1,0.7,0.7,0.7,1","1,0.7,0.7,0.7,1,0.7,0.7,0.7,1","","",""
"","html-keyboard-response","312","234341","0.0-312.0","37WLF8U1WQC85SAU4XUHHDEBT5O6KI","A3QNV0P3W7ZOAX","3YO4AH2FPD6XG0OGOBTVFFK58DY0QT","","null","<img src=""img/land5.png"" style=""width:200px; border:14px solid green;"">","null","","","","","","","","","",""
"","image-keyboard-response","313","234378","0.0-313.0","37WLF8U1WQC85SAU4XUHHDEBT5O6KI","A3QNV0P3W7ZOAX","3YO4AH2FPD6XG0OGOBTVFFK58DY0QT","","33","img/land6.png","74","36","1","1","3","2","1,0.7,0.7,0.7,1,0.7,0.7,0.7,1","1,0.7,0.7,0.7,1,0.7,0.7,0.7,1","","",""
"","html-keyboard-response","314","234686","0.0-314.0","37WLF8U1WQC85SAU4XUHHDEBT5O6KI","A3QNV0P3W7ZOAX","3YO4AH2FPD6XG0OGOBTVFFK58DY0QT","","null","<img src=""img/land6.png"" style=""width:200px; border:14px solid green;"">","null","","","","","","","","","",""
"","image-keyboard-response","315","234832","0.0-315.0","37WLF8U1WQC85SAU4XUHHDEBT5O6KI","A3QNV0P3W7ZOAX","3YO4AH2FPD6XG0OGOBTVFFK58DY0QT","","146","img/land5.png","74","146","1","1","2","2","1,0.7,0.7,0.7,1,0.7,0.7,0.7,1","1,0.7,0.7,0.7,1,0.7,0.7,0.7,1","","",""
"","html-keyboard-response","316","235137","0.0-316.0","37WLF8U1WQC85SAU4XUHHDEBT5O6KI","A3QNV0P3W7ZOAX","3YO4AH2FPD6XG0OGOBTVFFK58DY0QT","","null","<img src=""img/land5.png"" style=""width:200px; border:14px solid green;"">","null","","","","","","","","","",""
"","image-keyboard-response","317","235458","0.0-317.0","37WLF8U1WQC85SAU4XUHHDEBT5O6KI","A3QNV0P3W7ZOAX","3YO4AH2FPD6XG0OGOBTVFFK58DY0QT","","315","img/land5.png","74","315","1","0","2","2","1,0.7,0.7,0.7,1,0.7,0.7,0.7,1","1,0.7,0.7,0.7,1,0.7,0.7,0.7,1","","",""
"","html-keyboard-response","318","235763","0.0-318.0","37WLF8U1WQC85SAU4XUHHDEBT5O6KI","A3QNV0P3W7ZOAX","3YO4AH2FPD6XG0OGOBTVFFK58DY0QT","","null","<img src=""img/land5.png"" style=""width:200px;border:14px solid red;"">","null","","","","","","","","","",""
"","image-keyboard-response","319","235767","0.0-319.0","37WLF8U1WQC85SAU4XUHHDEBT5O6KI","A3QNV0P3W7ZOAX","3YO4AH2FPD6XG0OGOBTVFFK58DY0QT","","4","img/land4.png","75","4","2","1","1","2","1,0.7,0.7,0.7,1,0.7,0.7,0.7,1","1,0.7,0.7,0.7,1,0.7,0.7,0.7,1","","",""
"","html-keyboard-response","320","236076","0.0-320.0","37WLF8U1WQC85SAU4XUHHDEBT5O6KI","A3QNV0P3W7ZOAX","3YO4AH2FPD6XG0OGOBTVFFK58DY0QT","","null","<img src=""img/land4.png"" style=""width:200px; border:14px solid green;"">","null","","","","","","","","","",""
"","image-keyboard-response","321","236252","0.0-321.0","37WLF8U1WQC85SAU4XUHHDEBT5O6KI","A3QNV0P3W7ZOAX","3YO4AH2FPD6XG0OGOBTVFFK58DY0QT","","175","img/land6.png","76","177","3","1","3","2","1,0.7,0.7,0.7,1,0.7,0.7,0.7,1","1,0.7,0.7,0.7,1,0.7,0.7,0.7,1","","",""
"","html-keyboard-response","322","236575","0.0-322.0","37WLF8U1WQC85SAU4XUHHDEBT5O6KI","A3QNV0P3W7ZOAX","3YO4AH2FPD6XG0OGOBTVFFK58DY0QT","","null","<img src=""img/land6.png"" style=""width:200px; border:14px solid green;"">","null","","","","","","","","","",""
"","image-keyboard-response","323","236860","0.0-323.0","37WLF8U1WQC85SAU4XUHHDEBT5O6KI","A3QNV0P3W7ZOAX","3YO4AH2FPD6XG0OGOBTVFFK58DY0QT","","264","img/land6.png","74","269","1","1","3","2","1,0.7,0.7,0.7,1,0.7,0.7,0.7,1","1,0.7,0.7,0.7,1,0.7,0.7,0.7,1","","",""
"","html-keyboard-response","324","237199","0.0-324.0","37WLF8U1WQC85SAU4XUHHDEBT5O6KI","A3QNV0P3W7ZOAX","3YO4AH2FPD6XG0OGOBTVFFK58DY0QT","","null","<img src=""img/land6.png"" style=""width:200px; border:14px solid green;"">","null","","","","","","","","","",""
"","image-keyboard-response","325","237208","0.0-325.0","37WLF8U1WQC85SAU4XUHHDEBT5O6KI","A3QNV0P3W7ZOAX","3YO4AH2FPD6XG0OGOBTVFFK58DY0QT","","8","img/land5.png","75","9","2","1","2","2","1,0.7,0.7,0.7,1,0.7,0.7,0.7,1","1,0.7,0.7,0.7,1,0.7,0.7,0.7,1","","",""
"","html-keyboard-response","326","237516","0.0-326.0","37WLF8U1WQC85SAU4XUHHDEBT5O6KI","A3QNV0P3W7ZOAX","3YO4AH2FPD6XG0OGOBTVFFK58DY0QT","","null","<img src=""img/land5.png"" style=""width:200px; border:14px solid green;"">","null","","","","","","","","","",""
"","image-keyboard-response","327","237678","0.0-327.0","37WLF8U1WQC85SAU4XUHHDEBT5O6KI","A3QNV0P3W7ZOAX","3YO4AH2FPD6XG0OGOBTVFFK58DY0QT","","162","img/land6.png","76","162","3","1","3","2","1,0.7,0.7,0.7,1,0.7,0.7,0.7,1","1,0.7,0.7,0.7,1,0.7,0.7,0.7,1","","",""
"","html-keyboard-response","328","238000","0.0-328.0","37WLF8U1WQC85SAU4XUHHDEBT5O6KI","A3QNV0P3W7ZOAX","3YO4AH2FPD6XG0OGOBTVFFK58DY0QT","","null","<img src=""img/land6.png"" style=""width:200px; border:14px solid green;"">","null","","","","","","","","","",""
"","image-keyboard-response","329","238379","0.0-329.0","37WLF8U1WQC85SAU4XUHHDEBT5O6KI","A3QNV0P3W7ZOAX","3YO4AH2FPD6XG0OGOBTVFFK58DY0QT","","376","img/land6.png","74","378","1","0","3","2","1,0.7,0.7,0.7,1,0.7,0.7,0.7,1","1,0.7,0.7,0.7,1,0.7,0.7,0.7,1","","",""
"","html-keyboard-response","330","238768","0.0-330.0","37WLF8U1WQC85SAU4XUHHDEBT5O6KI","A3QNV0P3W7ZOAX","3YO4AH2FPD6XG0OGOBTVFFK58DY0QT","","null","<img src=""img/land6.png"" style=""width:200px;border:14px solid red;"">","null","","","","","","","","","",""
"","image-keyboard-response","331","239314","0.0-331.0","37WLF8U1WQC85SAU4XUHHDEBT5O6KI","A3QNV0P3W7ZOAX","3YO4AH2FPD6XG0OGOBTVFFK58DY0QT","","544","img/land6.png","74","545","1","0","3","2","1,0.7,0.7,0.7,1,0.7,0.7,0.7,1","1,0.7,0.7,0.7,1,0.7,0.7,0.7,1","","",""
"","html-keyboard-response","332","239616","0.0-332.0","37WLF8U1WQC85SAU4XUHHDEBT5O6KI","A3QNV0P3W7ZOAX","3YO4AH2FPD6XG0OGOBTVFFK58DY0QT","","null","<img src=""img/land6.png"" style=""width:200px;border:14px solid red;"">","null","","","","","","","","","",""
"","image-keyboard-response","333","239739","0.0-333.0","37WLF8U1WQC85SAU4XUHHDEBT5O6KI","A3QNV0P3W7ZOAX","3YO4AH2FPD6XG0OGOBTVFFK58DY0QT","","117","img/land5.png","74","123","1","0","2","2","1,0.7,0.7,0.7,1,0.7,0.7,0.7,1","1,0.7,0.7,0.7,1,0.7,0.7,0.7,1","","",""
"","html-keyboard-response","334","240050","0.0-334.0","37WLF8U1WQC85SAU4XUHHDEBT5O6KI","A3QNV0P3W7ZOAX","3YO4AH2FPD6XG0OGOBTVFFK58DY0QT","","null","<img src=""img/land5.png"" style=""width:200px;border:14px solid red;"">","null","","","","","","","","","",""
"","image-keyboard-response","335","240438","0.0-335.0","37WLF8U1WQC85SAU4XUHHDEBT5O6KI","A3QNV0P3W7ZOAX","3YO4AH2FPD6XG0OGOBTVFFK58DY0QT","","381","img/land5.png","75","389","2","1","2","2","1,0.7,0.7,0.7,1,0.7,0.7,0.7,1","1,0.7,0.7,0.7,1,0.7,0.7,0.7,1","","",""
"","html-keyboard-response","336","240743","0.0-336.0","37WLF8U1WQC85SAU4XUHHDEBT5O6KI","A3QNV0P3W7ZOAX","3YO4AH2FPD6XG0OGOBTVFFK58DY0QT","","null","<img src=""img/land5.png"" style=""width:200px; border:14px solid green;"">","null","","","","","","","","","",""
"","image-keyboard-response","337","241199","0.0-337.0","37WLF8U1WQC85SAU4XUHHDEBT5O6KI","A3QNV0P3W7ZOAX","3YO4AH2FPD6XG0OGOBTVFFK58DY0QT","","452","img/land6.png","76","455","3","1","3","2","1,0.7,0.7,0.7,1,0.7,0.7,0.7,1","1,0.7,0.7,0.7,1,0.7,0.7,0.7,1","","",""
"","html-keyboard-response","338","241534","0.0-338.0","37WLF8U1WQC85SAU4XUHHDEBT5O6KI","A3QNV0P3W7ZOAX","3YO4AH2FPD6XG0OGOBTVFFK58DY0QT","","null","<img src=""img/land6.png"" style=""width:200px; border:14px solid green;"">","null","","","","","","","","","",""
"","image-keyboard-response","339","241670","0.0-339.0","37WLF8U1WQC85SAU4XUHHDEBT5O6KI","A3QNV0P3W7ZOAX","3YO4AH2FPD6XG0OGOBTVFFK58DY0QT","","134","img/land6.png","74","137","1","1","3","2","1,0.7,0.7,0.7,1,0.7,0.7,0.7,1","1,0.7,0.7,0.7,1,0.7,0.7,0.7,1","","",""
"","html-keyboard-response","340","241983","0.0-340.0","37WLF8U1WQC85SAU4XUHHDEBT5O6KI","A3QNV0P3W7ZOAX","3YO4AH2FPD6XG0OGOBTVFFK58DY0QT","","null","<img src=""img/land6.png"" style=""width:200px; border:14px solid green;"">","null","","","","","","","","","",""
"","image-keyboard-response","341","242142","0.0-341.0","37WLF8U1WQC85SAU4XUHHDEBT5O6KI","A3QNV0P3W7ZOAX","3YO4AH2FPD6XG0OGOBTVFFK58DY0QT","","148","img/land4.png","74","148","1","1","1","2","1,0.7,0.7,0.7,1,0.7,0.7,0.7,1","1,0.7,0.7,0.7,1,0.7,0.7,0.7,1","","",""
"","html-keyboard-response","342","242445","0.0-342.0","37WLF8U1WQC85SAU4XUHHDEBT5O6KI","A3QNV0P3W7ZOAX","3YO4AH2FPD6XG0OGOBTVFFK58DY0QT","","null","<img src=""img/land4.png"" style=""width:200px; border:14px solid green;"">","null","","","","","","","","","",""
"","image-keyboard-response","343","242598","0.0-343.0","37WLF8U1WQC85SAU4XUHHDEBT5O6KI","A3QNV0P3W7ZOAX","3YO4AH2FPD6XG0OGOBTVFFK58DY0QT","","115","img/land6.png","74","148","1","1","3","2","1,0.7,0.7,0.7,1,0.7,0.7,0.7,1","1,0.7,0.7,0.7,1,0.7,0.7,0.7,1","","",""
"","html-keyboard-response","344","242899","0.0-344.0","37WLF8U1WQC85SAU4XUHHDEBT5O6KI","A3QNV0P3W7ZOAX","3YO4AH2FPD6XG0OGOBTVFFK58DY0QT","","null","<img src=""img/land6.png"" style=""width:200px; border:14px solid green;"">","null","","","","","","","","","",""
"","image-keyboard-response","345","243002","0.0-345.0","37WLF8U1WQC85SAU4XUHHDEBT5O6KI","A3QNV0P3W7ZOAX","3YO4AH2FPD6XG0OGOBTVFFK58DY0QT","","99","img/land5.png","74","103","1","0","2","2","1,0.7,0.7,0.7,1,0.7,0.7,0.7,1","1,0.7,0.7,0.7,1,0.7,0.7,0.7,1","","",""
"","html-keyboard-response","346","243318","0.0-346.0","37WLF8U1WQC85SAU4XUHHDEBT5O6KI","A3QNV0P3W7ZOAX","3YO4AH2FPD6XG0OGOBTVFFK58DY0QT","","null","<img src=""img/land5.png"" style=""width:200px;border:14px solid red;"">","null","","","","","","","","","",""
"","image-keyboard-response","347","243582","0.0-347.0","37WLF8U1WQC85SAU4XUHHDEBT5O6KI","A3QNV0P3W7ZOAX","3YO4AH2FPD6XG0OGOBTVFFK58DY0QT","","260","img/land5.png","75","265","2","1","2","2","1,0.7,0.7,0.7,1,0.7,0.7,0.7,1","1,0.7,0.7,0.7,1,0.7,0.7,0.7,1","","",""
"","html-keyboard-response","348","243965","0.0-348.0","37WLF8U1WQC85SAU4XUHHDEBT5O6KI","A3QNV0P3W7ZOAX","3YO4AH2FPD6XG0OGOBTVFFK58DY0QT","","null","<img src=""img/land5.png"" style=""width:200px; border:14px solid green;"">","null","","","","","","","","","",""
"","image-keyboard-response","349","244063","0.0-349.0","37WLF8U1WQC85SAU4XUHHDEBT5O6KI","A3QNV0P3W7ZOAX","3YO4AH2FPD6XG0OGOBTVFFK58DY0QT","","97","img/land4.png","76","102","3","0","1","2","1,0.7,0.7,0.7,1,0.7,0.7,0.7,1","1,0.7,0.7,0.7,1,0.7,0.7,0.7,1","","",""
"","html-keyboard-response","350","244386","0.0-350.0","37WLF8U1WQC85SAU4XUHHDEBT5O6KI","A3QNV0P3W7ZOAX","3YO4AH2FPD6XG0OGOBTVFFK58DY0QT","","null","<img src=""img/land4.png"" style=""width:200px;border:14px solid red;"">","null","","","","","","","","","",""
"","image-keyboard-response","351","244433","0.0-351.0","37WLF8U1WQC85SAU4XUHHDEBT5O6KI","A3QNV0P3W7ZOAX","3YO4AH2FPD6XG0OGOBTVFFK58DY0QT","","34","img/land5.png","74","44","1","1","2","2","1,0.7,0.7,0.7,1,0.7,0.7,0.7,1","1,0.7,0.7,0.7,1,0.7,0.7,0.7,1","","",""
"","html-keyboard-response","352","244794","0.0-352.0","37WLF8U1WQC85SAU4XUHHDEBT5O6KI","A3QNV0P3W7ZOAX","3YO4AH2FPD6XG0OGOBTVFFK58DY0QT","","null","<img src=""img/land5.png"" style=""width:200px; border:14px solid green;"">","null","","","","","","","","","",""
"","image-keyboard-response","353","245063","0.0-353.0","37WLF8U1WQC85SAU4XUHHDEBT5O6KI","A3QNV0P3W7ZOAX","3YO4AH2FPD6XG0OGOBTVFFK58DY0QT","","259","img/land4.png","74","267","1","1","1","2","1,0.7,0.7,0.7,1,0.7,0.7,0.7,1","1,0.7,0.7,0.7,1,0.7,0.7,0.7,1","","",""
"","html-keyboard-response","354","245403","0.0-354.0","37WLF8U1WQC85SAU4XUHHDEBT5O6KI","A3QNV0P3W7ZOAX","3YO4AH2FPD6XG0OGOBTVFFK58DY0QT","","null","<img src=""img/land4.png"" style=""width:200px; border:14px solid green;"">","null","","","","","","","","","",""
"","image-keyboard-response","355","245975","0.0-355.0","37WLF8U1WQC85SAU4XUHHDEBT5O6KI","A3QNV0P3W7ZOAX","3YO4AH2FPD6XG0OGOBTVFFK58DY0QT","","567","img/land6.png","74","572","1","1","3","2","1,0.7,0.7,0.7,1,0.7,0.7,0.7,1","1,0.7,0.7,0.7,1,0.7,0.7,0.7,1","","",""
"","html-keyboard-response","356","246309","0.0-356.0","37WLF8U1WQC85SAU4XUHHDEBT5O6KI","A3QNV0P3W7ZOAX","3YO4AH2FPD6XG0OGOBTVFFK58DY0QT","","null","<img src=""img/land6.png"" style=""width:200px; border:14px solid green;"">","null","","","","","","","","","",""
"","image-keyboard-response","357","246762","0.0-357.0","37WLF8U1WQC85SAU4XUHHDEBT5O6KI","A3QNV0P3W7ZOAX","3YO4AH2FPD6XG0OGOBTVFFK58DY0QT","","434","img/land5.png","76","438","3","0","2","2","1,0.7,0.7,0.7,1,0.7,0.7,0.7,1","1,0.7,0.7,0.7,1,0.7,0.7,0.7,1","","",""
"","html-keyboard-response","358","247067","0.0-358.0","37WLF8U1WQC85SAU4XUHHDEBT5O6KI","A3QNV0P3W7ZOAX","3YO4AH2FPD6XG0OGOBTVFFK58DY0QT","","null","<img src=""img/land5.png"" style=""width:200px;border:14px solid red;"">","null","","","","","","","","","",""
"","image-keyboard-response","359","247180","0.0-359.0","37WLF8U1WQC85SAU4XUHHDEBT5O6KI","A3QNV0P3W7ZOAX","3YO4AH2FPD6XG0OGOBTVFFK58DY0QT","","112","img/land6.png","74","113","1","0","3","2","1,0.7,0.7,0.7,1,0.7,0.7,0.7,1","1,0.7,0.7,0.7,1,0.7,0.7,0.7,1","","",""
"","html-keyboard-response","360","247490","0.0-360.0","37WLF8U1WQC85SAU4XUHHDEBT5O6KI","A3QNV0P3W7ZOAX","3YO4AH2FPD6XG0OGOBTVFFK58DY0QT","","null","<img src=""img/land6.png"" style=""width:200px;border:14px solid red;"">","null","","","","","","","","","",""
"","image-keyboard-response","361","247682","0.0-361.0","37WLF8U1WQC85SAU4XUHHDEBT5O6KI","A3QNV0P3W7ZOAX","3YO4AH2FPD6XG0OGOBTVFFK58DY0QT","","192","img/land5.png","75","192","2","1","2","2","1,0.7,0.7,0.7,1,0.7,0.7,0.7,1","1,0.7,0.7,0.7,1,0.7,0.7,0.7,1","","",""
"","html-keyboard-response","362","247995","0.0-362.0","37WLF8U1WQC85SAU4XUHHDEBT5O6KI","A3QNV0P3W7ZOAX","3YO4AH2FPD6XG0OGOBTVFFK58DY0QT","","null","<img src=""img/land5.png"" style=""width:200px; border:14px solid green;"">","null","","","","","","","","","",""
"","image-keyboard-response","363","248169","0.0-363.0","37WLF8U1WQC85SAU4XUHHDEBT5O6KI","A3QNV0P3W7ZOAX","3YO4AH2FPD6XG0OGOBTVFFK58DY0QT","","169","img/land6.png","75","174","2","1","3","2","1,0.7,0.7,0.7,1,0.7,0.7,0.7,1","1,0.7,0.7,0.7,1,0.7,0.7,0.7,1","","",""
"","html-keyboard-response","364","248484","0.0-364.0","37WLF8U1WQC85SAU4XUHHDEBT5O6KI","A3QNV0P3W7ZOAX","3YO4AH2FPD6XG0OGOBTVFFK58DY0QT","","null","<img src=""img/land6.png"" style=""width:200px; border:14px solid green;"">","null","","","","","","","","","",""
"","image-keyboard-response","365","248625","0.0-365.0","37WLF8U1WQC85SAU4XUHHDEBT5O6KI","A3QNV0P3W7ZOAX","3YO4AH2FPD6XG0OGOBTVFFK58DY0QT","","131","img/land5.png","75","140","2","1","2","2","1,0.7,0.7,0.7,1,0.7,0.7,0.7,1","1,0.7,0.7,0.7,1,0.7,0.7,0.7,1","","",""
"","html-keyboard-response","366","248963","0.0-366.0","37WLF8U1WQC85SAU4XUHHDEBT5O6KI","A3QNV0P3W7ZOAX","3YO4AH2FPD6XG0OGOBTVFFK58DY0QT","","null","<img src=""img/land5.png"" style=""width:200px; border:14px solid green;"">","null","","","","","","","","","",""
"","image-keyboard-response","367","249107","0.0-367.0","37WLF8U1WQC85SAU4XUHHDEBT5O6KI","A3QNV0P3W7ZOAX","3YO4AH2FPD6XG0OGOBTVFFK58DY0QT","","136","img/land6.png","74","144","1","0","3","2","1,0.7,0.7,0.7,1,0.7,0.7,0.7,1","1,0.7,0.7,0.7,1,0.7,0.7,0.7,1","","",""
"","html-keyboard-response","368","249408","0.0-368.0","37WLF8U1WQC85SAU4XUHHDEBT5O6KI","A3QNV0P3W7ZOAX","3YO4AH2FPD6XG0OGOBTVFFK58DY0QT","","null","<img src=""img/land6.png"" style=""width:200px;border:14px solid red;"">","null","","","","","","","","","",""
"","image-keyboard-response","369","249493","0.0-369.0","37WLF8U1WQC85SAU4XUHHDEBT5O6KI","A3QNV0P3W7ZOAX","3YO4AH2FPD6XG0OGOBTVFFK58DY0QT","","85","img/land6.png","74","85","1","0","3","2","1,0.7,0.7,0.7,1,0.7,0.7,0.7,1","1,0.7,0.7,0.7,1,0.7,0.7,0.7,1","","",""
"","html-keyboard-response","370","249977","0.0-370.0","37WLF8U1WQC85SAU4XUHHDEBT5O6KI","A3QNV0P3W7ZOAX","3YO4AH2FPD6XG0OGOBTVFFK58DY0QT","","null","<img src=""img/land6.png"" style=""width:200px;border:14px solid red;"">","null","","","","","","","","","",""
"","image-keyboard-response","371","250079","0.0-371.0","37WLF8U1WQC85SAU4XUHHDEBT5O6KI","A3QNV0P3W7ZOAX","3YO4AH2FPD6XG0OGOBTVFFK58DY0QT","","102","img/land5.png","76","103","3","1","2","2","1,0.7,0.7,0.7,1,0.7,0.7,0.7,1","1,0.7,0.7,0.7,1,0.7,0.7,0.7,1","","",""
"","html-keyboard-response","372","250392","0.0-372.0","37WLF8U1WQC85SAU4XUHHDEBT5O6KI","A3QNV0P3W7ZOAX","3YO4AH2FPD6XG0OGOBTVFFK58DY0QT","","null","<img src=""img/land5.png"" style=""width:200px; border:14px solid green;"">","null","","","","","","","","","",""
"","image-keyboard-response","373","250465","0.0-373.0","37WLF8U1WQC85SAU4XUHHDEBT5O6KI","A3QNV0P3W7ZOAX","3YO4AH2FPD6XG0OGOBTVFFK58DY0QT","","67","img/land6.png","74","70","1","1","3","2","1,0.7,0.7,0.7,1,0.7,0.7,0.7,1","1,0.7,0.7,0.7,1,0.7,0.7,0.7,1","","",""
"","html-keyboard-response","374","250766","0.0-374.0","37WLF8U1WQC85SAU4XUHHDEBT5O6KI","A3QNV0P3W7ZOAX","3YO4AH2FPD6XG0OGOBTVFFK58DY0QT","","null","<img src=""img/land6.png"" style=""width:200px; border:14px solid green;"">","null","","","","","","","","","",""
"","image-keyboard-response","375","250891","0.0-375.0","37WLF8U1WQC85SAU4XUHHDEBT5O6KI","A3QNV0P3W7ZOAX","3YO4AH2FPD6XG0OGOBTVFFK58DY0QT","","121","img/land4.png","76","123","3","1","1","2","1,0.7,0.7,0.7,1,0.7,0.7,0.7,1","1,0.7,0.7,0.7,1,0.7,0.7,0.7,1","","",""
"","html-keyboard-response","376","251202","0.0-376.0","37WLF8U1WQC85SAU4XUHHDEBT5O6KI","A3QNV0P3W7ZOAX","3YO4AH2FPD6XG0OGOBTVFFK58DY0QT","","null","<img src=""img/land4.png"" style=""width:200px; border:14px solid green;"">","null","","","","","","","","","",""
"","image-keyboard-response","377","251453","0.0-377.0","37WLF8U1WQC85SAU4XUHHDEBT5O6KI","A3QNV0P3W7ZOAX","3YO4AH2FPD6XG0OGOBTVFFK58DY0QT","","249","img/land4.png","74","251","1","1","1","2","1,0.7,0.7,0.7,1,0.7,0.7,0.7,1","1,0.7,0.7,0.7,1,0.7,0.7,0.7,1","","",""
"","html-keyboard-response","378","251759","0.0-378.0","37WLF8U1WQC85SAU4XUHHDEBT5O6KI","A3QNV0P3W7ZOAX","3YO4AH2FPD6XG0OGOBTVFFK58DY0QT","","null","<img src=""img/land4.png"" style=""width:200px; border:14px solid green;"">","null","","","","","","","","","",""
