"success","trial_type","trial_index","time_elapsed","internal_node_id","assignmentID","mturkID","hitID","view_history","rt","stimulus","key_press","reactionTime","a","r","s","cond","reward_cond","reward_cond_actual","reward_matrix_idx","responses","question_order"
"true","fullscreen","0","2421","0.0-0.0","3P4MQ7TPPYYDI1NVUBYWTQHDKO1BBN","A3QPVH0DRW0ZQV","3S1L4CQSFXRWQOWP2XFUSMS4AZDFAL","","","","","","","","","","","","","",""
"","instructions","1","638998","0.0-1.0","3P4MQ7TPPYYDI1NVUBYWTQHDKO1BBN","A3QPVH0DRW0ZQV","3S1L4CQSFXRWQOWP2XFUSMS4AZDFAL","[{""page_index"":0,""viewing_time"":1708.3999999985099},{""page_index"":1,""viewing_time"":2098.89999999851},{""page_index"":2,""viewing_time"":1010.7000000029802},{""page_index"":3,""viewing_time"":5223.39999999851},{""page_index"":4,""viewing_time"":5257},{""page_index"":5,""viewing_time"":23264},{""page_index"":6,""viewing_time"":598012.1999999993}]","636574.8999999985","","","","","","","","","","","",""
"","image-keyboard-response","2","640733","0.0-2.0","3P4MQ7TPPYYDI1NVUBYWTQHDKO1BBN","A3QPVH0DRW0ZQV","3S1L4CQSFXRWQOWP2XFUSMS4AZDFAL","","1734.5","img/land3.png","74","1735.3999999985099","1","1","1","1","1,0.5,0.5,0.5,1,0.5,0.5,0.5,1","1,0.5,0.5,0.5,1,0.5,0.5,0.5,1","1","",""
"","html-keyboard-response","3","641035","0.0-3.0","3P4MQ7TPPYYDI1NVUBYWTQHDKO1BBN","A3QPVH0DRW0ZQV","3S1L4CQSFXRWQOWP2XFUSMS4AZDFAL","","null","<img src=""img/land3.png"" style=""width:200px; border:14px solid green;"">","null","","","","","","","","","",""
"","image-keyboard-response","4","641749","0.0-4.0","3P4MQ7TPPYYDI1NVUBYWTQHDKO1BBN","A3QPVH0DRW0ZQV","3S1L4CQSFXRWQOWP2XFUSMS4AZDFAL","","713.4000000022352","img/land1.png","75","714","2","0","3","1","1,0.5,0.5,0.5,1,0.5,0.5,0.5,1","1,0.5,0.5,0.5,1,0.5,0.5,0.5,1","1","",""
"","html-keyboard-response","5","642051","0.0-5.0","3P4MQ7TPPYYDI1NVUBYWTQHDKO1BBN","A3QPVH0DRW0ZQV","3S1L4CQSFXRWQOWP2XFUSMS4AZDFAL","","null","<img src=""img/land1.png"" style=""width:200px;border:14px solid red;"">","null","","","","","","","","","",""
"","image-keyboard-response","6","642807","0.0-6.0","3P4MQ7TPPYYDI1NVUBYWTQHDKO1BBN","A3QPVH0DRW0ZQV","3S1L4CQSFXRWQOWP2XFUSMS4AZDFAL","","755.8000000007451","img/land1.png","76","756.1999999992549","3","1","3","1","1,0.5,0.5,0.5,1,0.5,0.5,0.5,1","1,0.5,0.5,0.5,1,0.5,0.5,0.5,1","1","",""
"","html-keyboard-response","7","643108","0.0-7.0","3P4MQ7TPPYYDI1NVUBYWTQHDKO1BBN","A3QPVH0DRW0ZQV","3S1L4CQSFXRWQOWP2XFUSMS4AZDFAL","","null","<img src=""img/land1.png"" style=""width:200px; border:14px solid green;"">","null","","","","","","","","","",""
"","image-keyboard-response","8","644435","0.0-8.0","3P4MQ7TPPYYDI1NVUBYWTQHDKO1BBN","A3QPVH0DRW0ZQV","3S1L4CQSFXRWQOWP2XFUSMS4AZDFAL","","1326.800000000745","img/land6.png","75","1327.199999999255","2","1","2","1","1,0.5,0.5,0.5,1,0.5,0.5,0.5,1","1,0.5,0.5,0.5,1,0.5,0.5,0.5,1","1","",""
"","html-keyboard-response","9","644736","0.0-9.0","3P4MQ7TPPYYDI1NVUBYWTQHDKO1BBN","A3QPVH0DRW0ZQV","3S1L4CQSFXRWQOWP2XFUSMS4AZDFAL","","null","<img src=""img/land6.png"" style=""width:200px; border:14px solid green;"">","null","","","","","","","","","",""
"","image-keyboard-response","10","645451","0.0-10.0","3P4MQ7TPPYYDI1NVUBYWTQHDKO1BBN","A3QPVH0DRW0ZQV","3S1L4CQSFXRWQOWP2XFUSMS4AZDFAL","","714.1999999992549","img/land6.png","75","714.6000000014901","2","1","2","1","1,0.5,0.5,0.5,1,0.5,0.5,0.5,1","1,0.5,0.5,0.5,1,0.5,0.5,0.5,1","1","",""
"","html-keyboard-response","11","645753","0.0-11.0","3P4MQ7TPPYYDI1NVUBYWTQHDKO1BBN","A3QPVH0DRW0ZQV","3S1L4CQSFXRWQOWP2XFUSMS4AZDFAL","","null","<img src=""img/land6.png"" style=""width:200px; border:14px solid green;"">","null","","","","","","","","","",""
"","image-keyboard-response","12","646411","0.0-12.0","3P4MQ7TPPYYDI1NVUBYWTQHDKO1BBN","A3QPVH0DRW0ZQV","3S1L4CQSFXRWQOWP2XFUSMS4AZDFAL","","657.4000000022352","img/land1.png","76","657.6999999992549","3","1","3","1","1,0.5,0.5,0.5,1,0.5,0.5,0.5,1","1,0.5,0.5,0.5,1,0.5,0.5,0.5,1","1","",""
"","html-keyboard-response","13","646725","0.0-13.0","3P4MQ7TPPYYDI1NVUBYWTQHDKO1BBN","A3QPVH0DRW0ZQV","3S1L4CQSFXRWQOWP2XFUSMS4AZDFAL","","null","<img src=""img/land1.png"" style=""width:200px; border:14px solid green;"">","null","","","","","","","","","",""
"","image-keyboard-response","14","647289","0.0-14.0","3P4MQ7TPPYYDI1NVUBYWTQHDKO1BBN","A3QPVH0DRW0ZQV","3S1L4CQSFXRWQOWP2XFUSMS4AZDFAL","","564.2000000029802","img/land3.png","74","564.6999999992549","1","1","1","1","1,0.5,0.5,0.5,1,0.5,0.5,0.5,1","1,0.5,0.5,0.5,1,0.5,0.5,0.5,1","1","",""
"","html-keyboard-response","15","647590","0.0-15.0","3P4MQ7TPPYYDI1NVUBYWTQHDKO1BBN","A3QPVH0DRW0ZQV","3S1L4CQSFXRWQOWP2XFUSMS4AZDFAL","","null","<img src=""img/land3.png"" style=""width:200px; border:14px solid green;"">","null","","","","","","","","","",""
"","image-keyboard-response","16","648276","0.0-16.0","3P4MQ7TPPYYDI1NVUBYWTQHDKO1BBN","A3QPVH0DRW0ZQV","3S1L4CQSFXRWQOWP2XFUSMS4AZDFAL","","685.4000000022352","img/land3.png","74","685.6999999992549","1","1","1","1","1,0.5,0.5,0.5,1,0.5,0.5,0.5,1","1,0.5,0.5,0.5,1,0.5,0.5,0.5,1","1","",""
"","html-keyboard-response","17","648577","0.0-17.0","3P4MQ7TPPYYDI1NVUBYWTQHDKO1BBN","A3QPVH0DRW0ZQV","3S1L4CQSFXRWQOWP2XFUSMS4AZDFAL","","null","<img src=""img/land3.png"" style=""width:200px; border:14px solid green;"">","null","","","","","","","","","",""
"","image-keyboard-response","18","648903","0.0-18.0","3P4MQ7TPPYYDI1NVUBYWTQHDKO1BBN","A3QPVH0DRW0ZQV","3S1L4CQSFXRWQOWP2XFUSMS4AZDFAL","","325.4000000022352","img/land3.png","74","325.69999999925494","1","1","1","1","1,0.5,0.5,0.5,1,0.5,0.5,0.5,1","1,0.5,0.5,0.5,1,0.5,0.5,0.5,1","1","",""
"","html-keyboard-response","19","649203","0.0-19.0","3P4MQ7TPPYYDI1NVUBYWTQHDKO1BBN","A3QPVH0DRW0ZQV","3S1L4CQSFXRWQOWP2XFUSMS4AZDFAL","","null","<img src=""img/land3.png"" style=""width:200px; border:14px solid green;"">","null","","","","","","","","","",""
"","image-keyboard-response","20","649821","0.0-20.0","3P4MQ7TPPYYDI1NVUBYWTQHDKO1BBN","A3QPVH0DRW0ZQV","3S1L4CQSFXRWQOWP2XFUSMS4AZDFAL","","616.9000000022352","img/land1.png","76","617.3000000007451","3","1","3","1","1,0.5,0.5,0.5,1,0.5,0.5,0.5,1","1,0.5,0.5,0.5,1,0.5,0.5,0.5,1","1","",""
"","html-keyboard-response","21","650122","0.0-21.0","3P4MQ7TPPYYDI1NVUBYWTQHDKO1BBN","A3QPVH0DRW0ZQV","3S1L4CQSFXRWQOWP2XFUSMS4AZDFAL","","null","<img src=""img/land1.png"" style=""width:200px; border:14px solid green;"">","null","","","","","","","","","",""
"","image-keyboard-response","22","650541","0.0-22.0","3P4MQ7TPPYYDI1NVUBYWTQHDKO1BBN","A3QPVH0DRW0ZQV","3S1L4CQSFXRWQOWP2XFUSMS4AZDFAL","","418.29999999701977","img/land1.png","76","418.80000000074506","3","1","3","1","1,0.5,0.5,0.5,1,0.5,0.5,0.5,1","1,0.5,0.5,0.5,1,0.5,0.5,0.5,1","1","",""
"","html-keyboard-response","23","650842","0.0-23.0","3P4MQ7TPPYYDI1NVUBYWTQHDKO1BBN","A3QPVH0DRW0ZQV","3S1L4CQSFXRWQOWP2XFUSMS4AZDFAL","","null","<img src=""img/land1.png"" style=""width:200px; border:14px solid green;"">","null","","","","","","","","","",""
"","image-keyboard-response","24","651147","0.0-24.0","3P4MQ7TPPYYDI1NVUBYWTQHDKO1BBN","A3QPVH0DRW0ZQV","3S1L4CQSFXRWQOWP2XFUSMS4AZDFAL","","304.29999999701977","img/land1.png","76","304.6000000014901","3","1","3","1","1,0.5,0.5,0.5,1,0.5,0.5,0.5,1","1,0.5,0.5,0.5,1,0.5,0.5,0.5,1","1","",""
"","html-keyboard-response","25","651448","0.0-25.0","3P4MQ7TPPYYDI1NVUBYWTQHDKO1BBN","A3QPVH0DRW0ZQV","3S1L4CQSFXRWQOWP2XFUSMS4AZDFAL","","null","<img src=""img/land1.png"" style=""width:200px; border:14px solid green;"">","null","","","","","","","","","",""
"","image-keyboard-response","26","651802","0.0-26.0","3P4MQ7TPPYYDI1NVUBYWTQHDKO1BBN","A3QPVH0DRW0ZQV","3S1L4CQSFXRWQOWP2XFUSMS4AZDFAL","","353.0999999977648","img/land1.png","76","353.5","3","1","3","1","1,0.5,0.5,0.5,1,0.5,0.5,0.5,1","1,0.5,0.5,0.5,1,0.5,0.5,0.5,1","1","",""
"","html-keyboard-response","27","652103","0.0-27.0","3P4MQ7TPPYYDI1NVUBYWTQHDKO1BBN","A3QPVH0DRW0ZQV","3S1L4CQSFXRWQOWP2XFUSMS4AZDFAL","","null","<img src=""img/land1.png"" style=""width:200px; border:14px solid green;"">","null","","","","","","","","","",""
"","image-keyboard-response","28","652723","0.0-28.0","3P4MQ7TPPYYDI1NVUBYWTQHDKO1BBN","A3QPVH0DRW0ZQV","3S1L4CQSFXRWQOWP2XFUSMS4AZDFAL","","619.6999999992549","img/land6.png","75","620","2","1","2","1","1,0.5,0.5,0.5,1,0.5,0.5,0.5,1","1,0.5,0.5,0.5,1,0.5,0.5,0.5,1","1","",""
"","html-keyboard-response","29","653024","0.0-29.0","3P4MQ7TPPYYDI1NVUBYWTQHDKO1BBN","A3QPVH0DRW0ZQV","3S1L4CQSFXRWQOWP2XFUSMS4AZDFAL","","null","<img src=""img/land6.png"" style=""width:200px; border:14px solid green;"">","null","","","","","","","","","",""
"","image-keyboard-response","30","653345","0.0-30.0","3P4MQ7TPPYYDI1NVUBYWTQHDKO1BBN","A3QPVH0DRW0ZQV","3S1L4CQSFXRWQOWP2XFUSMS4AZDFAL","","320.1000000014901","img/land6.png","75","320.5","2","1","2","1","1,0.5,0.5,0.5,1,0.5,0.5,0.5,1","1,0.5,0.5,0.5,1,0.5,0.5,0.5,1","1","",""
"","html-keyboard-response","31","653646","0.0-31.0","3P4MQ7TPPYYDI1NVUBYWTQHDKO1BBN","A3QPVH0DRW0ZQV","3S1L4CQSFXRWQOWP2XFUSMS4AZDFAL","","null","<img src=""img/land6.png"" style=""width:200px; border:14px solid green;"">","null","","","","","","","","","",""
"","image-keyboard-response","32","654268","0.0-32.0","3P4MQ7TPPYYDI1NVUBYWTQHDKO1BBN","A3QPVH0DRW0ZQV","3S1L4CQSFXRWQOWP2XFUSMS4AZDFAL","","622.2000000029802","img/land3.png","74","622.5","1","1","1","1","1,0.5,0.5,0.5,1,0.5,0.5,0.5,1","1,0.5,0.5,0.5,1,0.5,0.5,0.5,1","1","",""
"","html-keyboard-response","33","654569","0.0-33.0","3P4MQ7TPPYYDI1NVUBYWTQHDKO1BBN","A3QPVH0DRW0ZQV","3S1L4CQSFXRWQOWP2XFUSMS4AZDFAL","","null","<img src=""img/land3.png"" style=""width:200px; border:14px solid green;"">","null","","","","","","","","","",""
"","image-keyboard-response","34","655611","0.0-34.0","3P4MQ7TPPYYDI1NVUBYWTQHDKO1BBN","A3QPVH0DRW0ZQV","3S1L4CQSFXRWQOWP2XFUSMS4AZDFAL","","1042","img/land1.png","76","1042.199999999255","3","1","3","1","1,0.5,0.5,0.5,1,0.5,0.5,0.5,1","1,0.5,0.5,0.5,1,0.5,0.5,0.5,1","1","",""
"","html-keyboard-response","35","655912","0.0-35.0","3P4MQ7TPPYYDI1NVUBYWTQHDKO1BBN","A3QPVH0DRW0ZQV","3S1L4CQSFXRWQOWP2XFUSMS4AZDFAL","","null","<img src=""img/land1.png"" style=""width:200px; border:14px solid green;"">","null","","","","","","","","","",""
"","image-keyboard-response","36","656394","0.0-36.0","3P4MQ7TPPYYDI1NVUBYWTQHDKO1BBN","A3QPVH0DRW0ZQV","3S1L4CQSFXRWQOWP2XFUSMS4AZDFAL","","480.8999999985099","img/land6.png","75","481.30000000074506","2","1","2","1","1,0.5,0.5,0.5,1,0.5,0.5,0.5,1","1,0.5,0.5,0.5,1,0.5,0.5,0.5,1","1","",""
"","html-keyboard-response","37","656694","0.0-37.0","3P4MQ7TPPYYDI1NVUBYWTQHDKO1BBN","A3QPVH0DRW0ZQV","3S1L4CQSFXRWQOWP2XFUSMS4AZDFAL","","null","<img src=""img/land6.png"" style=""width:200px; border:14px solid green;"">","null","","","","","","","","","",""
"","image-keyboard-response","38","657361","0.0-38.0","3P4MQ7TPPYYDI1NVUBYWTQHDKO1BBN","A3QPVH0DRW0ZQV","3S1L4CQSFXRWQOWP2XFUSMS4AZDFAL","","666.1999999992549","img/land3.png","74","666.5","1","1","1","1","1,0.5,0.5,0.5,1,0.5,0.5,0.5,1","1,0.5,0.5,0.5,1,0.5,0.5,0.5,1","1","",""
"","html-keyboard-response","39","657662","0.0-39.0","3P4MQ7TPPYYDI1NVUBYWTQHDKO1BBN","A3QPVH0DRW0ZQV","3S1L4CQSFXRWQOWP2XFUSMS4AZDFAL","","null","<img src=""img/land3.png"" style=""width:200px; border:14px solid green;"">","null","","","","","","","","","",""
"","image-keyboard-response","40","658046","0.0-40.0","3P4MQ7TPPYYDI1NVUBYWTQHDKO1BBN","A3QPVH0DRW0ZQV","3S1L4CQSFXRWQOWP2XFUSMS4AZDFAL","","383.30000000074506","img/land3.png","74","383.80000000074506","1","1","1","1","1,0.5,0.5,0.5,1,0.5,0.5,0.5,1","1,0.5,0.5,0.5,1,0.5,0.5,0.5,1","1","",""
"","html-keyboard-response","41","658347","0.0-41.0","3P4MQ7TPPYYDI1NVUBYWTQHDKO1BBN","A3QPVH0DRW0ZQV","3S1L4CQSFXRWQOWP2XFUSMS4AZDFAL","","null","<img src=""img/land3.png"" style=""width:200px; border:14px solid green;"">","null","","","","","","","","","",""
"","image-keyboard-response","42","658907","0.0-42.0","3P4MQ7TPPYYDI1NVUBYWTQHDKO1BBN","A3QPVH0DRW0ZQV","3S1L4CQSFXRWQOWP2XFUSMS4AZDFAL","","559.3999999985099","img/land6.png","75","559.6999999992549","2","1","2","1","1,0.5,0.5,0.5,1,0.5,0.5,0.5,1","1,0.5,0.5,0.5,1,0.5,0.5,0.5,1","1","",""
"","html-keyboard-response","43","659208","0.0-43.0","3P4MQ7TPPYYDI1NVUBYWTQHDKO1BBN","A3QPVH0DRW0ZQV","3S1L4CQSFXRWQOWP2XFUSMS4AZDFAL","","null","<img src=""img/land6.png"" style=""width:200px; border:14px solid green;"">","null","","","","","","","","","",""
"","image-keyboard-response","44","659638","0.0-44.0","3P4MQ7TPPYYDI1NVUBYWTQHDKO1BBN","A3QPVH0DRW0ZQV","3S1L4CQSFXRWQOWP2XFUSMS4AZDFAL","","430.30000000074506","img/land6.png","75","430.5999999977648","2","1","2","1","1,0.5,0.5,0.5,1,0.5,0.5,0.5,1","1,0.5,0.5,0.5,1,0.5,0.5,0.5,1","1","",""
"","html-keyboard-response","45","659940","0.0-45.0","3P4MQ7TPPYYDI1NVUBYWTQHDKO1BBN","A3QPVH0DRW0ZQV","3S1L4CQSFXRWQOWP2XFUSMS4AZDFAL","","null","<img src=""img/land6.png"" style=""width:200px; border:14px solid green;"">","null","","","","","","","","","",""
"","image-keyboard-response","46","660465","0.0-46.0","3P4MQ7TPPYYDI1NVUBYWTQHDKO1BBN","A3QPVH0DRW0ZQV","3S1L4CQSFXRWQOWP2XFUSMS4AZDFAL","","525.3000000007451","img/land1.png","76","525.6999999992549","3","1","3","1","1,0.5,0.5,0.5,1,0.5,0.5,0.5,1","1,0.5,0.5,0.5,1,0.5,0.5,0.5,1","1","",""
"","html-keyboard-response","47","660766","0.0-47.0","3P4MQ7TPPYYDI1NVUBYWTQHDKO1BBN","A3QPVH0DRW0ZQV","3S1L4CQSFXRWQOWP2XFUSMS4AZDFAL","","null","<img src=""img/land1.png"" style=""width:200px; border:14px solid green;"">","null","","","","","","","","","",""
"","image-keyboard-response","48","661090","0.0-48.0","3P4MQ7TPPYYDI1NVUBYWTQHDKO1BBN","A3QPVH0DRW0ZQV","3S1L4CQSFXRWQOWP2XFUSMS4AZDFAL","","323.19999999925494","img/land1.png","76","323.5999999977648","3","1","3","1","1,0.5,0.5,0.5,1,0.5,0.5,0.5,1","1,0.5,0.5,0.5,1,0.5,0.5,0.5,1","1","",""
"","html-keyboard-response","49","661392","0.0-49.0","3P4MQ7TPPYYDI1NVUBYWTQHDKO1BBN","A3QPVH0DRW0ZQV","3S1L4CQSFXRWQOWP2XFUSMS4AZDFAL","","null","<img src=""img/land1.png"" style=""width:200px; border:14px solid green;"">","null","","","","","","","","","",""
"","image-keyboard-response","50","662245","0.0-50.0","3P4MQ7TPPYYDI1NVUBYWTQHDKO1BBN","A3QPVH0DRW0ZQV","3S1L4CQSFXRWQOWP2XFUSMS4AZDFAL","","852.7000000029802","img/land3.png","75","853.1000000014901","2","0","1","1","1,0.5,0.5,0.5,1,0.5,0.5,0.5,1","1,0.5,0.5,0.5,1,0.5,0.5,0.5,1","1","",""
"","html-keyboard-response","51","662546","0.0-51.0","3P4MQ7TPPYYDI1NVUBYWTQHDKO1BBN","A3QPVH0DRW0ZQV","3S1L4CQSFXRWQOWP2XFUSMS4AZDFAL","","null","<img src=""img/land3.png"" style=""width:200px;border:14px solid red;"">","null","","","","","","","","","",""
"","image-keyboard-response","52","663667","0.0-52.0","3P4MQ7TPPYYDI1NVUBYWTQHDKO1BBN","A3QPVH0DRW0ZQV","3S1L4CQSFXRWQOWP2XFUSMS4AZDFAL","","1119.699999999255","img/land1.png","76","1120.0999999977648","3","1","3","1","1,0.5,0.5,0.5,1,0.5,0.5,0.5,1","1,0.5,0.5,0.5,1,0.5,0.5,0.5,1","1","",""
"","html-keyboard-response","53","663967","0.0-53.0","3P4MQ7TPPYYDI1NVUBYWTQHDKO1BBN","A3QPVH0DRW0ZQV","3S1L4CQSFXRWQOWP2XFUSMS4AZDFAL","","null","<img src=""img/land1.png"" style=""width:200px; border:14px solid green;"">","null","","","","","","","","","",""
"","image-keyboard-response","54","664483","0.0-54.0","3P4MQ7TPPYYDI1NVUBYWTQHDKO1BBN","A3QPVH0DRW0ZQV","3S1L4CQSFXRWQOWP2XFUSMS4AZDFAL","","515.8000000007451","img/land3.png","75","516.0999999977648","2","0","1","1","1,0.5,0.5,0.5,1,0.5,0.5,0.5,1","1,0.5,0.5,0.5,1,0.5,0.5,0.5,1","1","",""
"","html-keyboard-response","55","664785","0.0-55.0","3P4MQ7TPPYYDI1NVUBYWTQHDKO1BBN","A3QPVH0DRW0ZQV","3S1L4CQSFXRWQOWP2XFUSMS4AZDFAL","","null","<img src=""img/land3.png"" style=""width:200px;border:14px solid red;"">","null","","","","","","","","","",""
"","image-keyboard-response","56","666137","0.0-56.0","3P4MQ7TPPYYDI1NVUBYWTQHDKO1BBN","A3QPVH0DRW0ZQV","3S1L4CQSFXRWQOWP2XFUSMS4AZDFAL","","1351.699999999255","img/land6.png","75","1352.1000000014901","2","1","2","1","1,0.5,0.5,0.5,1,0.5,0.5,0.5,1","1,0.5,0.5,0.5,1,0.5,0.5,0.5,1","1","",""
"","html-keyboard-response","57","666438","0.0-57.0","3P4MQ7TPPYYDI1NVUBYWTQHDKO1BBN","A3QPVH0DRW0ZQV","3S1L4CQSFXRWQOWP2XFUSMS4AZDFAL","","null","<img src=""img/land6.png"" style=""width:200px; border:14px solid green;"">","null","","","","","","","","","",""
"","image-keyboard-response","58","666761","0.0-58.0","3P4MQ7TPPYYDI1NVUBYWTQHDKO1BBN","A3QPVH0DRW0ZQV","3S1L4CQSFXRWQOWP2XFUSMS4AZDFAL","","322.19999999925494","img/land6.png","75","322.6000000014901","2","1","2","1","1,0.5,0.5,0.5,1,0.5,0.5,0.5,1","1,0.5,0.5,0.5,1,0.5,0.5,0.5,1","1","",""
"","html-keyboard-response","59","667061","0.0-59.0","3P4MQ7TPPYYDI1NVUBYWTQHDKO1BBN","A3QPVH0DRW0ZQV","3S1L4CQSFXRWQOWP2XFUSMS4AZDFAL","","null","<img src=""img/land6.png"" style=""width:200px; border:14px solid green;"">","null","","","","","","","","","",""
"","image-keyboard-response","60","667430","0.0-60.0","3P4MQ7TPPYYDI1NVUBYWTQHDKO1BBN","A3QPVH0DRW0ZQV","3S1L4CQSFXRWQOWP2XFUSMS4AZDFAL","","368.19999999925494","img/land3.png","74","368.70000000298023","1","1","1","1","1,0.5,0.5,0.5,1,0.5,0.5,0.5,1","1,0.5,0.5,0.5,1,0.5,0.5,0.5,1","1","",""
"","html-keyboard-response","61","667732","0.0-61.0","3P4MQ7TPPYYDI1NVUBYWTQHDKO1BBN","A3QPVH0DRW0ZQV","3S1L4CQSFXRWQOWP2XFUSMS4AZDFAL","","null","<img src=""img/land3.png"" style=""width:200px; border:14px solid green;"">","null","","","","","","","","","",""
"","image-keyboard-response","62","668401","0.0-62.0","3P4MQ7TPPYYDI1NVUBYWTQHDKO1BBN","A3QPVH0DRW0ZQV","3S1L4CQSFXRWQOWP2XFUSMS4AZDFAL","","668.5999999977648","img/land1.png","76","669","3","1","3","1","1,0.5,0.5,0.5,1,0.5,0.5,0.5,1","1,0.5,0.5,0.5,1,0.5,0.5,0.5,1","1","",""
"","html-keyboard-response","63","668702","0.0-63.0","3P4MQ7TPPYYDI1NVUBYWTQHDKO1BBN","A3QPVH0DRW0ZQV","3S1L4CQSFXRWQOWP2XFUSMS4AZDFAL","","null","<img src=""img/land1.png"" style=""width:200px; border:14px solid green;"">","null","","","","","","","","","",""
"","image-keyboard-response","64","669140","0.0-64.0","3P4MQ7TPPYYDI1NVUBYWTQHDKO1BBN","A3QPVH0DRW0ZQV","3S1L4CQSFXRWQOWP2XFUSMS4AZDFAL","","437.69999999925494","img/land3.png","74","438.1000000014901","1","1","1","1","1,0.5,0.5,0.5,1,0.5,0.5,0.5,1","1,0.5,0.5,0.5,1,0.5,0.5,0.5,1","1","",""
"","html-keyboard-response","65","669441","0.0-65.0","3P4MQ7TPPYYDI1NVUBYWTQHDKO1BBN","A3QPVH0DRW0ZQV","3S1L4CQSFXRWQOWP2XFUSMS4AZDFAL","","null","<img src=""img/land3.png"" style=""width:200px; border:14px solid green;"">","null","","","","","","","","","",""
"","image-keyboard-response","66","669994","0.0-66.0","3P4MQ7TPPYYDI1NVUBYWTQHDKO1BBN","A3QPVH0DRW0ZQV","3S1L4CQSFXRWQOWP2XFUSMS4AZDFAL","","552","img/land6.png","75","552.3999999985099","2","1","2","1","1,0.5,0.5,0.5,1,0.5,0.5,0.5,1","1,0.5,0.5,0.5,1,0.5,0.5,0.5,1","1","",""
"","html-keyboard-response","67","670295","0.0-67.0","3P4MQ7TPPYYDI1NVUBYWTQHDKO1BBN","A3QPVH0DRW0ZQV","3S1L4CQSFXRWQOWP2XFUSMS4AZDFAL","","null","<img src=""img/land6.png"" style=""width:200px; border:14px solid green;"">","null","","","","","","","","","",""
"","image-keyboard-response","68","670958","0.0-68.0","3P4MQ7TPPYYDI1NVUBYWTQHDKO1BBN","A3QPVH0DRW0ZQV","3S1L4CQSFXRWQOWP2XFUSMS4AZDFAL","","662.8000000007451","img/land6.png","75","663.1999999992549","2","1","2","1","1,0.5,0.5,0.5,1,0.5,0.5,0.5,1","1,0.5,0.5,0.5,1,0.5,0.5,0.5,1","1","",""
"","html-keyboard-response","69","671259","0.0-69.0","3P4MQ7TPPYYDI1NVUBYWTQHDKO1BBN","A3QPVH0DRW0ZQV","3S1L4CQSFXRWQOWP2XFUSMS4AZDFAL","","null","<img src=""img/land6.png"" style=""width:200px; border:14px solid green;"">","null","","","","","","","","","",""
"","image-keyboard-response","70","671566","0.0-70.0","3P4MQ7TPPYYDI1NVUBYWTQHDKO1BBN","A3QPVH0DRW0ZQV","3S1L4CQSFXRWQOWP2XFUSMS4AZDFAL","","306","img/land6.png","75","306.5","2","1","2","1","1,0.5,0.5,0.5,1,0.5,0.5,0.5,1","1,0.5,0.5,0.5,1,0.5,0.5,0.5,1","1","",""
"","html-keyboard-response","71","671867","0.0-71.0","3P4MQ7TPPYYDI1NVUBYWTQHDKO1BBN","A3QPVH0DRW0ZQV","3S1L4CQSFXRWQOWP2XFUSMS4AZDFAL","","null","<img src=""img/land6.png"" style=""width:200px; border:14px solid green;"">","null","","","","","","","","","",""
"","image-keyboard-response","72","672157","0.0-72.0","3P4MQ7TPPYYDI1NVUBYWTQHDKO1BBN","A3QPVH0DRW0ZQV","3S1L4CQSFXRWQOWP2XFUSMS4AZDFAL","","289.4000000022352","img/land6.png","75","289.80000000074506","2","1","2","1","1,0.5,0.5,0.5,1,0.5,0.5,0.5,1","1,0.5,0.5,0.5,1,0.5,0.5,0.5,1","1","",""
"","html-keyboard-response","73","672458","0.0-73.0","3P4MQ7TPPYYDI1NVUBYWTQHDKO1BBN","A3QPVH0DRW0ZQV","3S1L4CQSFXRWQOWP2XFUSMS4AZDFAL","","null","<img src=""img/land6.png"" style=""width:200px; border:14px solid green;"">","null","","","","","","","","","",""
"","image-keyboard-response","74","673129","0.0-74.0","3P4MQ7TPPYYDI1NVUBYWTQHDKO1BBN","A3QPVH0DRW0ZQV","3S1L4CQSFXRWQOWP2XFUSMS4AZDFAL","","671","img/land1.png","76","671.4000000022352","3","1","3","1","1,0.5,0.5,0.5,1,0.5,0.5,0.5,1","1,0.5,0.5,0.5,1,0.5,0.5,0.5,1","1","",""
"","html-keyboard-response","75","673430","0.0-75.0","3P4MQ7TPPYYDI1NVUBYWTQHDKO1BBN","A3QPVH0DRW0ZQV","3S1L4CQSFXRWQOWP2XFUSMS4AZDFAL","","null","<img src=""img/land1.png"" style=""width:200px; border:14px solid green;"">","null","","","","","","","","","",""
"","image-keyboard-response","76","673987","0.0-76.0","3P4MQ7TPPYYDI1NVUBYWTQHDKO1BBN","A3QPVH0DRW0ZQV","3S1L4CQSFXRWQOWP2XFUSMS4AZDFAL","","556.6000000014901","img/land6.png","75","557","2","1","2","1","1,0.5,0.5,0.5,1,0.5,0.5,0.5,1","1,0.5,0.5,0.5,1,0.5,0.5,0.5,1","1","",""
"","html-keyboard-response","77","674288","0.0-77.0","3P4MQ7TPPYYDI1NVUBYWTQHDKO1BBN","A3QPVH0DRW0ZQV","3S1L4CQSFXRWQOWP2XFUSMS4AZDFAL","","null","<img src=""img/land6.png"" style=""width:200px; border:14px solid green;"">","null","","","","","","","","","",""
"","image-keyboard-response","78","675501","0.0-78.0","3P4MQ7TPPYYDI1NVUBYWTQHDKO1BBN","A3QPVH0DRW0ZQV","3S1L4CQSFXRWQOWP2XFUSMS4AZDFAL","","1212.5","img/land3.png","74","1212.8999999985099","1","1","1","1","1,0.5,0.5,0.5,1,0.5,0.5,0.5,1","1,0.5,0.5,0.5,1,0.5,0.5,0.5,1","1","",""
"","html-keyboard-response","79","675802","0.0-79.0","3P4MQ7TPPYYDI1NVUBYWTQHDKO1BBN","A3QPVH0DRW0ZQV","3S1L4CQSFXRWQOWP2XFUSMS4AZDFAL","","null","<img src=""img/land3.png"" style=""width:200px; border:14px solid green;"">","null","","","","","","","","","",""
"","image-keyboard-response","80","676176","0.0-80.0","3P4MQ7TPPYYDI1NVUBYWTQHDKO1BBN","A3QPVH0DRW0ZQV","3S1L4CQSFXRWQOWP2XFUSMS4AZDFAL","","373.30000000074506","img/land3.png","74","373.69999999925494","1","1","1","1","1,0.5,0.5,0.5,1,0.5,0.5,0.5,1","1,0.5,0.5,0.5,1,0.5,0.5,0.5,1","1","",""
"","html-keyboard-response","81","676477","0.0-81.0","3P4MQ7TPPYYDI1NVUBYWTQHDKO1BBN","A3QPVH0DRW0ZQV","3S1L4CQSFXRWQOWP2XFUSMS4AZDFAL","","null","<img src=""img/land3.png"" style=""width:200px; border:14px solid green;"">","null","","","","","","","","","",""
"","image-keyboard-response","82","677203","0.0-82.0","3P4MQ7TPPYYDI1NVUBYWTQHDKO1BBN","A3QPVH0DRW0ZQV","3S1L4CQSFXRWQOWP2XFUSMS4AZDFAL","","726","img/land1.png","76","726.3999999985099","3","1","3","1","1,0.5,0.5,0.5,1,0.5,0.5,0.5,1","1,0.5,0.5,0.5,1,0.5,0.5,0.5,1","1","",""
"","html-keyboard-response","83","677504","0.0-83.0","3P4MQ7TPPYYDI1NVUBYWTQHDKO1BBN","A3QPVH0DRW0ZQV","3S1L4CQSFXRWQOWP2XFUSMS4AZDFAL","","null","<img src=""img/land1.png"" style=""width:200px; border:14px solid green;"">","null","","","","","","","","","",""
"","image-keyboard-response","84","678022","0.0-84.0","3P4MQ7TPPYYDI1NVUBYWTQHDKO1BBN","A3QPVH0DRW0ZQV","3S1L4CQSFXRWQOWP2XFUSMS4AZDFAL","","517.6000000014901","img/land1.png","76","517.9000000022352","3","1","3","1","1,0.5,0.5,0.5,1,0.5,0.5,0.5,1","1,0.5,0.5,0.5,1,0.5,0.5,0.5,1","1","",""
"","html-keyboard-response","85","678324","0.0-85.0","3P4MQ7TPPYYDI1NVUBYWTQHDKO1BBN","A3QPVH0DRW0ZQV","3S1L4CQSFXRWQOWP2XFUSMS4AZDFAL","","null","<img src=""img/land1.png"" style=""width:200px; border:14px solid green;"">","null","","","","","","","","","",""
"","image-keyboard-response","86","678678","0.0-86.0","3P4MQ7TPPYYDI1NVUBYWTQHDKO1BBN","A3QPVH0DRW0ZQV","3S1L4CQSFXRWQOWP2XFUSMS4AZDFAL","","354.1000000014901","img/land1.png","76","354.5","3","1","3","1","1,0.5,0.5,0.5,1,0.5,0.5,0.5,1","1,0.5,0.5,0.5,1,0.5,0.5,0.5,1","1","",""
"","html-keyboard-response","87","678980","0.0-87.0","3P4MQ7TPPYYDI1NVUBYWTQHDKO1BBN","A3QPVH0DRW0ZQV","3S1L4CQSFXRWQOWP2XFUSMS4AZDFAL","","null","<img src=""img/land1.png"" style=""width:200px; border:14px solid green;"">","null","","","","","","","","","",""
"","image-keyboard-response","88","679456","0.0-88.0","3P4MQ7TPPYYDI1NVUBYWTQHDKO1BBN","A3QPVH0DRW0ZQV","3S1L4CQSFXRWQOWP2XFUSMS4AZDFAL","","476.0999999977648","img/land3.png","75","476.5","2","1","1","1","1,0.5,0.5,0.5,1,0.5,0.5,0.5,1","1,0.5,0.5,0.5,1,0.5,0.5,0.5,1","1","",""
"","html-keyboard-response","89","679758","0.0-89.0","3P4MQ7TPPYYDI1NVUBYWTQHDKO1BBN","A3QPVH0DRW0ZQV","3S1L4CQSFXRWQOWP2XFUSMS4AZDFAL","","null","<img src=""img/land3.png"" style=""width:200px; border:14px solid green;"">","null","","","","","","","","","",""
"","image-keyboard-response","90","679829","0.0-90.0","3P4MQ7TPPYYDI1NVUBYWTQHDKO1BBN","A3QPVH0DRW0ZQV","3S1L4CQSFXRWQOWP2XFUSMS4AZDFAL","","70.80000000074506","img/land3.png","74","71.09999999776483","1","1","1","1","1,0.5,0.5,0.5,1,0.5,0.5,0.5,1","1,0.5,0.5,0.5,1,0.5,0.5,0.5,1","1","",""
"","html-keyboard-response","91","680130","0.0-91.0","3P4MQ7TPPYYDI1NVUBYWTQHDKO1BBN","A3QPVH0DRW0ZQV","3S1L4CQSFXRWQOWP2XFUSMS4AZDFAL","","null","<img src=""img/land3.png"" style=""width:200px; border:14px solid green;"">","null","","","","","","","","","",""
"","image-keyboard-response","92","681550","0.0-92.0","3P4MQ7TPPYYDI1NVUBYWTQHDKO1BBN","A3QPVH0DRW0ZQV","3S1L4CQSFXRWQOWP2XFUSMS4AZDFAL","","1419.5","img/land6.png","75","1419.9000000022352","2","1","2","1","1,0.5,0.5,0.5,1,0.5,0.5,0.5,1","1,0.5,0.5,0.5,1,0.5,0.5,0.5,1","1","",""
"","html-keyboard-response","93","681850","0.0-93.0","3P4MQ7TPPYYDI1NVUBYWTQHDKO1BBN","A3QPVH0DRW0ZQV","3S1L4CQSFXRWQOWP2XFUSMS4AZDFAL","","null","<img src=""img/land6.png"" style=""width:200px; border:14px solid green;"">","null","","","","","","","","","",""
"","image-keyboard-response","94","682338","0.0-94.0","3P4MQ7TPPYYDI1NVUBYWTQHDKO1BBN","A3QPVH0DRW0ZQV","3S1L4CQSFXRWQOWP2XFUSMS4AZDFAL","","487.3999999985099","img/land3.png","74","487.80000000074506","1","1","1","1","1,0.5,0.5,0.5,1,0.5,0.5,0.5,1","1,0.5,0.5,0.5,1,0.5,0.5,0.5,1","1","",""
"","html-keyboard-response","95","682639","0.0-95.0","3P4MQ7TPPYYDI1NVUBYWTQHDKO1BBN","A3QPVH0DRW0ZQV","3S1L4CQSFXRWQOWP2XFUSMS4AZDFAL","","null","<img src=""img/land3.png"" style=""width:200px; border:14px solid green;"">","null","","","","","","","","","",""
"","image-keyboard-response","96","683086","0.0-96.0","3P4MQ7TPPYYDI1NVUBYWTQHDKO1BBN","A3QPVH0DRW0ZQV","3S1L4CQSFXRWQOWP2XFUSMS4AZDFAL","","447.1000000014901","img/land3.png","74","447.5","1","1","1","1","1,0.5,0.5,0.5,1,0.5,0.5,0.5,1","1,0.5,0.5,0.5,1,0.5,0.5,0.5,1","1","",""
"","html-keyboard-response","97","683387","0.0-97.0","3P4MQ7TPPYYDI1NVUBYWTQHDKO1BBN","A3QPVH0DRW0ZQV","3S1L4CQSFXRWQOWP2XFUSMS4AZDFAL","","null","<img src=""img/land3.png"" style=""width:200px; border:14px solid green;"">","null","","","","","","","","","",""
"","image-keyboard-response","98","684093","0.0-98.0","3P4MQ7TPPYYDI1NVUBYWTQHDKO1BBN","A3QPVH0DRW0ZQV","3S1L4CQSFXRWQOWP2XFUSMS4AZDFAL","","705.4000000022352","img/land1.png","76","705.6999999992549","3","1","3","1","1,0.5,0.5,0.5,1,0.5,0.5,0.5,1","1,0.5,0.5,0.5,1,0.5,0.5,0.5,1","1","",""
"","html-keyboard-response","99","684394","0.0-99.0","3P4MQ7TPPYYDI1NVUBYWTQHDKO1BBN","A3QPVH0DRW0ZQV","3S1L4CQSFXRWQOWP2XFUSMS4AZDFAL","","null","<img src=""img/land1.png"" style=""width:200px; border:14px solid green;"">","null","","","","","","","","","",""
"","image-keyboard-response","100","684798","0.0-100.0","3P4MQ7TPPYYDI1NVUBYWTQHDKO1BBN","A3QPVH0DRW0ZQV","3S1L4CQSFXRWQOWP2XFUSMS4AZDFAL","","403.19999999925494","img/land1.png","76","403.70000000298023","3","1","3","1","1,0.5,0.5,0.5,1,0.5,0.5,0.5,1","1,0.5,0.5,0.5,1,0.5,0.5,0.5,1","1","",""
"","html-keyboard-response","101","685099","0.0-101.0","3P4MQ7TPPYYDI1NVUBYWTQHDKO1BBN","A3QPVH0DRW0ZQV","3S1L4CQSFXRWQOWP2XFUSMS4AZDFAL","","null","<img src=""img/land1.png"" style=""width:200px; border:14px solid green;"">","null","","","","","","","","","",""
"","image-keyboard-response","102","685951","0.0-102.0","3P4MQ7TPPYYDI1NVUBYWTQHDKO1BBN","A3QPVH0DRW0ZQV","3S1L4CQSFXRWQOWP2XFUSMS4AZDFAL","","851.4000000022352","img/land3.png","75","851.7000000029802","2","0","1","1","1,0.5,0.5,0.5,1,0.5,0.5,0.5,1","1,0.5,0.5,0.5,1,0.5,0.5,0.5,1","1","",""
"","html-keyboard-response","103","686252","0.0-103.0","3P4MQ7TPPYYDI1NVUBYWTQHDKO1BBN","A3QPVH0DRW0ZQV","3S1L4CQSFXRWQOWP2XFUSMS4AZDFAL","","null","<img src=""img/land3.png"" style=""width:200px;border:14px solid red;"">","null","","","","","","","","","",""
"","image-keyboard-response","104","687791","0.0-104.0","3P4MQ7TPPYYDI1NVUBYWTQHDKO1BBN","A3QPVH0DRW0ZQV","3S1L4CQSFXRWQOWP2XFUSMS4AZDFAL","","1538.199999999255","img/land1.png","76","1538.6000000014901","3","1","3","1","1,0.5,0.5,0.5,1,0.5,0.5,0.5,1","1,0.5,0.5,0.5,1,0.5,0.5,0.5,1","1","",""
"","html-keyboard-response","105","688092","0.0-105.0","3P4MQ7TPPYYDI1NVUBYWTQHDKO1BBN","A3QPVH0DRW0ZQV","3S1L4CQSFXRWQOWP2XFUSMS4AZDFAL","","null","<img src=""img/land1.png"" style=""width:200px; border:14px solid green;"">","null","","","","","","","","","",""
"","image-keyboard-response","106","688780","0.0-106.0","3P4MQ7TPPYYDI1NVUBYWTQHDKO1BBN","A3QPVH0DRW0ZQV","3S1L4CQSFXRWQOWP2XFUSMS4AZDFAL","","688","img/land6.png","75","688.5","2","1","2","1","1,0.5,0.5,0.5,1,0.5,0.5,0.5,1","1,0.5,0.5,0.5,1,0.5,0.5,0.5,1","1","",""
"","html-keyboard-response","107","689082","0.0-107.0","3P4MQ7TPPYYDI1NVUBYWTQHDKO1BBN","A3QPVH0DRW0ZQV","3S1L4CQSFXRWQOWP2XFUSMS4AZDFAL","","null","<img src=""img/land6.png"" style=""width:200px; border:14px solid green;"">","null","","","","","","","","","",""
"","image-keyboard-response","108","689776","0.0-108.0","3P4MQ7TPPYYDI1NVUBYWTQHDKO1BBN","A3QPVH0DRW0ZQV","3S1L4CQSFXRWQOWP2XFUSMS4AZDFAL","","693.3000000007451","img/land3.png","74","693.6000000014901","1","1","1","1","1,0.5,0.5,0.5,1,0.5,0.5,0.5,1","1,0.5,0.5,0.5,1,0.5,0.5,0.5,1","1","",""
"","html-keyboard-response","109","690077","0.0-109.0","3P4MQ7TPPYYDI1NVUBYWTQHDKO1BBN","A3QPVH0DRW0ZQV","3S1L4CQSFXRWQOWP2XFUSMS4AZDFAL","","null","<img src=""img/land3.png"" style=""width:200px; border:14px solid green;"">","null","","","","","","","","","",""
"","image-keyboard-response","110","690749","0.0-110.0","3P4MQ7TPPYYDI1NVUBYWTQHDKO1BBN","A3QPVH0DRW0ZQV","3S1L4CQSFXRWQOWP2XFUSMS4AZDFAL","","671.6000000014901","img/land1.png","76","671.8000000007451","3","1","3","1","1,0.5,0.5,0.5,1,0.5,0.5,0.5,1","1,0.5,0.5,0.5,1,0.5,0.5,0.5,1","1","",""
"","html-keyboard-response","111","691051","0.0-111.0","3P4MQ7TPPYYDI1NVUBYWTQHDKO1BBN","A3QPVH0DRW0ZQV","3S1L4CQSFXRWQOWP2XFUSMS4AZDFAL","","null","<img src=""img/land1.png"" style=""width:200px; border:14px solid green;"">","null","","","","","","","","","",""
"","image-keyboard-response","112","691700","0.0-112.0","3P4MQ7TPPYYDI1NVUBYWTQHDKO1BBN","A3QPVH0DRW0ZQV","3S1L4CQSFXRWQOWP2XFUSMS4AZDFAL","","649","img/land6.png","75","649.3000000007451","2","1","2","1","1,0.5,0.5,0.5,1,0.5,0.5,0.5,1","1,0.5,0.5,0.5,1,0.5,0.5,0.5,1","1","",""
"","html-keyboard-response","113","692002","0.0-113.0","3P4MQ7TPPYYDI1NVUBYWTQHDKO1BBN","A3QPVH0DRW0ZQV","3S1L4CQSFXRWQOWP2XFUSMS4AZDFAL","","null","<img src=""img/land6.png"" style=""width:200px; border:14px solid green;"">","null","","","","","","","","","",""
"","image-keyboard-response","114","692420","0.0-114.0","3P4MQ7TPPYYDI1NVUBYWTQHDKO1BBN","A3QPVH0DRW0ZQV","3S1L4CQSFXRWQOWP2XFUSMS4AZDFAL","","417.69999999925494","img/land6.png","75","417.8999999985099","2","1","2","1","1,0.5,0.5,0.5,1,0.5,0.5,0.5,1","1,0.5,0.5,0.5,1,0.5,0.5,0.5,1","1","",""
"","html-keyboard-response","115","692721","0.0-115.0","3P4MQ7TPPYYDI1NVUBYWTQHDKO1BBN","A3QPVH0DRW0ZQV","3S1L4CQSFXRWQOWP2XFUSMS4AZDFAL","","null","<img src=""img/land6.png"" style=""width:200px; border:14px solid green;"">","null","","","","","","","","","",""
"","image-keyboard-response","116","693314","0.0-116.0","3P4MQ7TPPYYDI1NVUBYWTQHDKO1BBN","A3QPVH0DRW0ZQV","3S1L4CQSFXRWQOWP2XFUSMS4AZDFAL","","591.8000000007451","img/land3.png","74","592.1999999992549","1","1","1","1","1,0.5,0.5,0.5,1,0.5,0.5,0.5,1","1,0.5,0.5,0.5,1,0.5,0.5,0.5,1","1","",""
"","html-keyboard-response","117","693614","0.0-117.0","3P4MQ7TPPYYDI1NVUBYWTQHDKO1BBN","A3QPVH0DRW0ZQV","3S1L4CQSFXRWQOWP2XFUSMS4AZDFAL","","null","<img src=""img/land3.png"" style=""width:200px; border:14px solid green;"">","null","","","","","","","","","",""
"","image-keyboard-response","118","694032","0.0-118.0","3P4MQ7TPPYYDI1NVUBYWTQHDKO1BBN","A3QPVH0DRW0ZQV","3S1L4CQSFXRWQOWP2XFUSMS4AZDFAL","","417.30000000074506","img/land3.png","74","417.5999999977648","1","1","1","1","1,0.5,0.5,0.5,1,0.5,0.5,0.5,1","1,0.5,0.5,0.5,1,0.5,0.5,0.5,1","1","",""
"","html-keyboard-response","119","694333","0.0-119.0","3P4MQ7TPPYYDI1NVUBYWTQHDKO1BBN","A3QPVH0DRW0ZQV","3S1L4CQSFXRWQOWP2XFUSMS4AZDFAL","","null","<img src=""img/land3.png"" style=""width:200px; border:14px solid green;"">","null","","","","","","","","","",""
"","image-keyboard-response","120","695153","0.0-120.0","3P4MQ7TPPYYDI1NVUBYWTQHDKO1BBN","A3QPVH0DRW0ZQV","3S1L4CQSFXRWQOWP2XFUSMS4AZDFAL","","819.1000000014901","img/land1.png","76","819.3000000007451","3","1","3","1","1,0.5,0.5,0.5,1,0.5,0.5,0.5,1","1,0.5,0.5,0.5,1,0.5,0.5,0.5,1","1","",""
"","html-keyboard-response","121","695454","0.0-121.0","3P4MQ7TPPYYDI1NVUBYWTQHDKO1BBN","A3QPVH0DRW0ZQV","3S1L4CQSFXRWQOWP2XFUSMS4AZDFAL","","null","<img src=""img/land1.png"" style=""width:200px; border:14px solid green;"">","null","","","","","","","","","",""
"","image-keyboard-response","122","696095","0.0-122.0","3P4MQ7TPPYYDI1NVUBYWTQHDKO1BBN","A3QPVH0DRW0ZQV","3S1L4CQSFXRWQOWP2XFUSMS4AZDFAL","","640","img/land6.png","75","640.5","2","1","2","1","1,0.5,0.5,0.5,1,0.5,0.5,0.5,1","1,0.5,0.5,0.5,1,0.5,0.5,0.5,1","1","",""
"","html-keyboard-response","123","696396","0.0-123.0","3P4MQ7TPPYYDI1NVUBYWTQHDKO1BBN","A3QPVH0DRW0ZQV","3S1L4CQSFXRWQOWP2XFUSMS4AZDFAL","","null","<img src=""img/land6.png"" style=""width:200px; border:14px solid green;"">","null","","","","","","","","","",""
"","image-keyboard-response","124","697063","0.0-124.0","3P4MQ7TPPYYDI1NVUBYWTQHDKO1BBN","A3QPVH0DRW0ZQV","3S1L4CQSFXRWQOWP2XFUSMS4AZDFAL","","666.9000000022352","img/land6.png","75","667.3000000007451","2","1","2","1","1,0.5,0.5,0.5,1,0.5,0.5,0.5,1","1,0.5,0.5,0.5,1,0.5,0.5,0.5,1","1","",""
"","html-keyboard-response","125","697364","0.0-125.0","3P4MQ7TPPYYDI1NVUBYWTQHDKO1BBN","A3QPVH0DRW0ZQV","3S1L4CQSFXRWQOWP2XFUSMS4AZDFAL","","null","<img src=""img/land6.png"" style=""width:200px; border:14px solid green;"">","null","","","","","","","","","",""
"","image-keyboard-response","126","697782","0.0-126.0","3P4MQ7TPPYYDI1NVUBYWTQHDKO1BBN","A3QPVH0DRW0ZQV","3S1L4CQSFXRWQOWP2XFUSMS4AZDFAL","","417.5","img/land6.png","75","417.9000000022352","2","1","2","1","1,0.5,0.5,0.5,1,0.5,0.5,0.5,1","1,0.5,0.5,0.5,1,0.5,0.5,0.5,1","1","",""
"","html-keyboard-response","127","698083","0.0-127.0","3P4MQ7TPPYYDI1NVUBYWTQHDKO1BBN","A3QPVH0DRW0ZQV","3S1L4CQSFXRWQOWP2XFUSMS4AZDFAL","","null","<img src=""img/land6.png"" style=""width:200px; border:14px solid green;"">","null","","","","","","","","","",""
"","image-keyboard-response","128","698836","0.0-128.0","3P4MQ7TPPYYDI1NVUBYWTQHDKO1BBN","A3QPVH0DRW0ZQV","3S1L4CQSFXRWQOWP2XFUSMS4AZDFAL","","752.1000000014901","img/land1.png","76","752.5","3","1","3","1","1,0.5,0.5,0.5,1,0.5,0.5,0.5,1","1,0.5,0.5,0.5,1,0.5,0.5,0.5,1","1","",""
"","html-keyboard-response","129","699136","0.0-129.0","3P4MQ7TPPYYDI1NVUBYWTQHDKO1BBN","A3QPVH0DRW0ZQV","3S1L4CQSFXRWQOWP2XFUSMS4AZDFAL","","null","<img src=""img/land1.png"" style=""width:200px; border:14px solid green;"">","null","","","","","","","","","",""
"","image-keyboard-response","130","699689","0.0-130.0","3P4MQ7TPPYYDI1NVUBYWTQHDKO1BBN","A3QPVH0DRW0ZQV","3S1L4CQSFXRWQOWP2XFUSMS4AZDFAL","","551.6000000014901","img/land3.png","74","551.8999999985099","1","1","1","1","1,0.5,0.5,0.5,1,0.5,0.5,0.5,1","1,0.5,0.5,0.5,1,0.5,0.5,0.5,1","1","",""
"","html-keyboard-response","131","699989","0.0-131.0","3P4MQ7TPPYYDI1NVUBYWTQHDKO1BBN","A3QPVH0DRW0ZQV","3S1L4CQSFXRWQOWP2XFUSMS4AZDFAL","","null","<img src=""img/land3.png"" style=""width:200px; border:14px solid green;"">","null","","","","","","","","","",""
"","image-keyboard-response","132","701112","0.0-132.0","3P4MQ7TPPYYDI1NVUBYWTQHDKO1BBN","A3QPVH0DRW0ZQV","3S1L4CQSFXRWQOWP2XFUSMS4AZDFAL","","1122.5","img/land6.png","75","1122.8999999985099","2","1","2","1","1,0.5,0.5,0.5,1,0.5,0.5,0.5,1","1,0.5,0.5,0.5,1,0.5,0.5,0.5,1","1","",""
"","html-keyboard-response","133","701413","0.0-133.0","3P4MQ7TPPYYDI1NVUBYWTQHDKO1BBN","A3QPVH0DRW0ZQV","3S1L4CQSFXRWQOWP2XFUSMS4AZDFAL","","null","<img src=""img/land6.png"" style=""width:200px; border:14px solid green;"">","null","","","","","","","","","",""
"","image-keyboard-response","134","701782","0.0-134.0","3P4MQ7TPPYYDI1NVUBYWTQHDKO1BBN","A3QPVH0DRW0ZQV","3S1L4CQSFXRWQOWP2XFUSMS4AZDFAL","","368.9000000022352","img/land6.png","75","369.1000000014901","2","1","2","1","1,0.5,0.5,0.5,1,0.5,0.5,0.5,1","1,0.5,0.5,0.5,1,0.5,0.5,0.5,1","1","",""
"","html-keyboard-response","135","702083","0.0-135.0","3P4MQ7TPPYYDI1NVUBYWTQHDKO1BBN","A3QPVH0DRW0ZQV","3S1L4CQSFXRWQOWP2XFUSMS4AZDFAL","","null","<img src=""img/land6.png"" style=""width:200px; border:14px solid green;"">","null","","","","","","","","","",""
"","image-keyboard-response","136","702627","0.0-136.0","3P4MQ7TPPYYDI1NVUBYWTQHDKO1BBN","A3QPVH0DRW0ZQV","3S1L4CQSFXRWQOWP2XFUSMS4AZDFAL","","543.5","img/land3.png","76","544","3","0","1","1","1,0.5,0.5,0.5,1,0.5,0.5,0.5,1","1,0.5,0.5,0.5,1,0.5,0.5,0.5,1","1","",""
"","html-keyboard-response","137","702929","0.0-137.0","3P4MQ7TPPYYDI1NVUBYWTQHDKO1BBN","A3QPVH0DRW0ZQV","3S1L4CQSFXRWQOWP2XFUSMS4AZDFAL","","null","<img src=""img/land3.png"" style=""width:200px;border:14px solid red;"">","null","","","","","","","","","",""
"","image-keyboard-response","138","703724","0.0-138.0","3P4MQ7TPPYYDI1NVUBYWTQHDKO1BBN","A3QPVH0DRW0ZQV","3S1L4CQSFXRWQOWP2XFUSMS4AZDFAL","","795.1000000014901","img/land6.png","75","795.3999999985099","2","1","2","1","1,0.5,0.5,0.5,1,0.5,0.5,0.5,1","1,0.5,0.5,0.5,1,0.5,0.5,0.5,1","1","",""
"","html-keyboard-response","139","704026","0.0-139.0","3P4MQ7TPPYYDI1NVUBYWTQHDKO1BBN","A3QPVH0DRW0ZQV","3S1L4CQSFXRWQOWP2XFUSMS4AZDFAL","","null","<img src=""img/land6.png"" style=""width:200px; border:14px solid green;"">","null","","","","","","","","","",""
"","image-keyboard-response","140","704962","0.0-140.0","3P4MQ7TPPYYDI1NVUBYWTQHDKO1BBN","A3QPVH0DRW0ZQV","3S1L4CQSFXRWQOWP2XFUSMS4AZDFAL","","935.6000000014901","img/land3.png","74","936","1","1","1","1","1,0.5,0.5,0.5,1,0.5,0.5,0.5,1","1,0.5,0.5,0.5,1,0.5,0.5,0.5,1","1","",""
"","html-keyboard-response","141","705263","0.0-141.0","3P4MQ7TPPYYDI1NVUBYWTQHDKO1BBN","A3QPVH0DRW0ZQV","3S1L4CQSFXRWQOWP2XFUSMS4AZDFAL","","null","<img src=""img/land3.png"" style=""width:200px; border:14px solid green;"">","null","","","","","","","","","",""
"","image-keyboard-response","142","706018","0.0-142.0","3P4MQ7TPPYYDI1NVUBYWTQHDKO1BBN","A3QPVH0DRW0ZQV","3S1L4CQSFXRWQOWP2XFUSMS4AZDFAL","","754.6000000014901","img/land6.png","75","754.9000000022352","2","1","2","1","1,0.5,0.5,0.5,1,0.5,0.5,0.5,1","1,0.5,0.5,0.5,1,0.5,0.5,0.5,1","1","",""
"","html-keyboard-response","143","706319","0.0-143.0","3P4MQ7TPPYYDI1NVUBYWTQHDKO1BBN","A3QPVH0DRW0ZQV","3S1L4CQSFXRWQOWP2XFUSMS4AZDFAL","","null","<img src=""img/land6.png"" style=""width:200px; border:14px solid green;"">","null","","","","","","","","","",""
"","image-keyboard-response","144","707440","0.0-144.0","3P4MQ7TPPYYDI1NVUBYWTQHDKO1BBN","A3QPVH0DRW0ZQV","3S1L4CQSFXRWQOWP2XFUSMS4AZDFAL","","1119.800000000745","img/land3.png","74","1120.2000000029802","1","1","1","1","1,0.5,0.5,0.5,1,0.5,0.5,0.5,1","1,0.5,0.5,0.5,1,0.5,0.5,0.5,1","1","",""
"","html-keyboard-response","145","707741","0.0-145.0","3P4MQ7TPPYYDI1NVUBYWTQHDKO1BBN","A3QPVH0DRW0ZQV","3S1L4CQSFXRWQOWP2XFUSMS4AZDFAL","","null","<img src=""img/land3.png"" style=""width:200px; border:14px solid green;"">","null","","","","","","","","","",""
"","image-keyboard-response","146","709235","0.0-146.0","3P4MQ7TPPYYDI1NVUBYWTQHDKO1BBN","A3QPVH0DRW0ZQV","3S1L4CQSFXRWQOWP2XFUSMS4AZDFAL","","1493.3999999985099","img/land1.png","76","1493.7000000029802","3","1","3","1","1,0.5,0.5,0.5,1,0.5,0.5,0.5,1","1,0.5,0.5,0.5,1,0.5,0.5,0.5,1","1","",""
"","html-keyboard-response","147","709535","0.0-147.0","3P4MQ7TPPYYDI1NVUBYWTQHDKO1BBN","A3QPVH0DRW0ZQV","3S1L4CQSFXRWQOWP2XFUSMS4AZDFAL","","null","<img src=""img/land1.png"" style=""width:200px; border:14px solid green;"">","null","","","","","","","","","",""
"","image-keyboard-response","148","710185","0.0-148.0","3P4MQ7TPPYYDI1NVUBYWTQHDKO1BBN","A3QPVH0DRW0ZQV","3S1L4CQSFXRWQOWP2XFUSMS4AZDFAL","","649.2000000029802","img/land6.png","75","649.5999999977648","2","1","2","1","1,0.5,0.5,0.5,1,0.5,0.5,0.5,1","1,0.5,0.5,0.5,1,0.5,0.5,0.5,1","1","",""
"","html-keyboard-response","149","710485","0.0-149.0","3P4MQ7TPPYYDI1NVUBYWTQHDKO1BBN","A3QPVH0DRW0ZQV","3S1L4CQSFXRWQOWP2XFUSMS4AZDFAL","","null","<img src=""img/land6.png"" style=""width:200px; border:14px solid green;"">","null","","","","","","","","","",""
"","image-keyboard-response","150","711392","0.0-150.0","3P4MQ7TPPYYDI1NVUBYWTQHDKO1BBN","A3QPVH0DRW0ZQV","3S1L4CQSFXRWQOWP2XFUSMS4AZDFAL","","905.7999999970198","img/land1.png","76","906.3000000007451","3","1","3","1","1,0.5,0.5,0.5,1,0.5,0.5,0.5,1","1,0.5,0.5,0.5,1,0.5,0.5,0.5,1","1","",""
"","html-keyboard-response","151","711693","0.0-151.0","3P4MQ7TPPYYDI1NVUBYWTQHDKO1BBN","A3QPVH0DRW0ZQV","3S1L4CQSFXRWQOWP2XFUSMS4AZDFAL","","null","<img src=""img/land1.png"" style=""width:200px; border:14px solid green;"">","null","","","","","","","","","",""
"","image-keyboard-response","152","712405","0.0-152.0","3P4MQ7TPPYYDI1NVUBYWTQHDKO1BBN","A3QPVH0DRW0ZQV","3S1L4CQSFXRWQOWP2XFUSMS4AZDFAL","","711.0999999977648","img/land3.png","74","711.6000000014901","1","1","1","1","1,0.5,0.5,0.5,1,0.5,0.5,0.5,1","1,0.5,0.5,0.5,1,0.5,0.5,0.5,1","1","",""
"","html-keyboard-response","153","712716","0.0-153.0","3P4MQ7TPPYYDI1NVUBYWTQHDKO1BBN","A3QPVH0DRW0ZQV","3S1L4CQSFXRWQOWP2XFUSMS4AZDFAL","","null","<img src=""img/land3.png"" style=""width:200px; border:14px solid green;"">","null","","","","","","","","","",""
"","image-keyboard-response","154","714705","0.0-154.0","3P4MQ7TPPYYDI1NVUBYWTQHDKO1BBN","A3QPVH0DRW0ZQV","3S1L4CQSFXRWQOWP2XFUSMS4AZDFAL","","1987.699999999255","img/land1.png","76","1988.1000000014901","3","1","3","1","1,0.5,0.5,0.5,1,0.5,0.5,0.5,1","1,0.5,0.5,0.5,1,0.5,0.5,0.5,1","1","",""
"","html-keyboard-response","155","715007","0.0-155.0","3P4MQ7TPPYYDI1NVUBYWTQHDKO1BBN","A3QPVH0DRW0ZQV","3S1L4CQSFXRWQOWP2XFUSMS4AZDFAL","","null","<img src=""img/land1.png"" style=""width:200px; border:14px solid green;"">","null","","","","","","","","","",""
"","image-keyboard-response","156","715638","0.0-156.0","3P4MQ7TPPYYDI1NVUBYWTQHDKO1BBN","A3QPVH0DRW0ZQV","3S1L4CQSFXRWQOWP2XFUSMS4AZDFAL","","630.6999999992549","img/land6.png","75","630.8999999985099","2","1","2","1","1,0.5,0.5,0.5,1,0.5,0.5,0.5,1","1,0.5,0.5,0.5,1,0.5,0.5,0.5,1","1","",""
"","html-keyboard-response","157","715939","0.0-157.0","3P4MQ7TPPYYDI1NVUBYWTQHDKO1BBN","A3QPVH0DRW0ZQV","3S1L4CQSFXRWQOWP2XFUSMS4AZDFAL","","null","<img src=""img/land6.png"" style=""width:200px; border:14px solid green;"">","null","","","","","","","","","",""
"","image-keyboard-response","158","716434","0.0-158.0","3P4MQ7TPPYYDI1NVUBYWTQHDKO1BBN","A3QPVH0DRW0ZQV","3S1L4CQSFXRWQOWP2XFUSMS4AZDFAL","","494.5","img/land6.png","75","494.9000000022352","2","1","2","1","1,0.5,0.5,0.5,1,0.5,0.5,0.5,1","1,0.5,0.5,0.5,1,0.5,0.5,0.5,1","1","",""
"","html-keyboard-response","159","716735","0.0-159.0","3P4MQ7TPPYYDI1NVUBYWTQHDKO1BBN","A3QPVH0DRW0ZQV","3S1L4CQSFXRWQOWP2XFUSMS4AZDFAL","","null","<img src=""img/land6.png"" style=""width:200px; border:14px solid green;"">","null","","","","","","","","","",""
"","image-keyboard-response","160","717211","0.0-160.0","3P4MQ7TPPYYDI1NVUBYWTQHDKO1BBN","A3QPVH0DRW0ZQV","3S1L4CQSFXRWQOWP2XFUSMS4AZDFAL","","475.80000000074506","img/land6.png","75","476.19999999925494","2","1","2","1","1,0.5,0.5,0.5,1,0.5,0.5,0.5,1","1,0.5,0.5,0.5,1,0.5,0.5,0.5,1","1","",""
"","html-keyboard-response","161","717512","0.0-161.0","3P4MQ7TPPYYDI1NVUBYWTQHDKO1BBN","A3QPVH0DRW0ZQV","3S1L4CQSFXRWQOWP2XFUSMS4AZDFAL","","null","<img src=""img/land6.png"" style=""width:200px; border:14px solid green;"">","null","","","","","","","","","",""
"","image-keyboard-response","162","718195","0.0-162.0","3P4MQ7TPPYYDI1NVUBYWTQHDKO1BBN","A3QPVH0DRW0ZQV","3S1L4CQSFXRWQOWP2XFUSMS4AZDFAL","","682.2000000029802","img/land1.png","76","682.5999999977648","3","1","3","1","1,0.5,0.5,0.5,1,0.5,0.5,0.5,1","1,0.5,0.5,0.5,1,0.5,0.5,0.5,1","1","",""
"","html-keyboard-response","163","718496","0.0-163.0","3P4MQ7TPPYYDI1NVUBYWTQHDKO1BBN","A3QPVH0DRW0ZQV","3S1L4CQSFXRWQOWP2XFUSMS4AZDFAL","","null","<img src=""img/land1.png"" style=""width:200px; border:14px solid green;"">","null","","","","","","","","","",""
"","image-keyboard-response","164","718929","0.0-164.0","3P4MQ7TPPYYDI1NVUBYWTQHDKO1BBN","A3QPVH0DRW0ZQV","3S1L4CQSFXRWQOWP2XFUSMS4AZDFAL","","433.5","img/land1.png","76","433.79999999701977","3","1","3","1","1,0.5,0.5,0.5,1,0.5,0.5,0.5,1","1,0.5,0.5,0.5,1,0.5,0.5,0.5,1","1","",""
"","html-keyboard-response","165","719230","0.0-165.0","3P4MQ7TPPYYDI1NVUBYWTQHDKO1BBN","A3QPVH0DRW0ZQV","3S1L4CQSFXRWQOWP2XFUSMS4AZDFAL","","null","<img src=""img/land1.png"" style=""width:200px; border:14px solid green;"">","null","","","","","","","","","",""
"","image-keyboard-response","166","719842","0.0-166.0","3P4MQ7TPPYYDI1NVUBYWTQHDKO1BBN","A3QPVH0DRW0ZQV","3S1L4CQSFXRWQOWP2XFUSMS4AZDFAL","","610.7999999970198","img/land3.png","74","611.1999999992549","1","1","1","1","1,0.5,0.5,0.5,1,0.5,0.5,0.5,1","1,0.5,0.5,0.5,1,0.5,0.5,0.5,1","1","",""
"","html-keyboard-response","167","720143","0.0-167.0","3P4MQ7TPPYYDI1NVUBYWTQHDKO1BBN","A3QPVH0DRW0ZQV","3S1L4CQSFXRWQOWP2XFUSMS4AZDFAL","","null","<img src=""img/land3.png"" style=""width:200px; border:14px solid green;"">","null","","","","","","","","","",""
"","image-keyboard-response","168","720845","0.0-168.0","3P4MQ7TPPYYDI1NVUBYWTQHDKO1BBN","A3QPVH0DRW0ZQV","3S1L4CQSFXRWQOWP2XFUSMS4AZDFAL","","701.5999999977648","img/land1.png","76","702","3","1","3","1","1,0.5,0.5,0.5,1,0.5,0.5,0.5,1","1,0.5,0.5,0.5,1,0.5,0.5,0.5,1","1","",""
"","html-keyboard-response","169","721146","0.0-169.0","3P4MQ7TPPYYDI1NVUBYWTQHDKO1BBN","A3QPVH0DRW0ZQV","3S1L4CQSFXRWQOWP2XFUSMS4AZDFAL","","null","<img src=""img/land1.png"" style=""width:200px; border:14px solid green;"">","null","","","","","","","","","",""
"","image-keyboard-response","170","721570","0.0-170.0","3P4MQ7TPPYYDI1NVUBYWTQHDKO1BBN","A3QPVH0DRW0ZQV","3S1L4CQSFXRWQOWP2XFUSMS4AZDFAL","","423.8999999985099","img/land1.png","76","424.29999999701977","3","1","3","1","1,0.5,0.5,0.5,1,0.5,0.5,0.5,1","1,0.5,0.5,0.5,1,0.5,0.5,0.5,1","1","",""
"","html-keyboard-response","171","721871","0.0-171.0","3P4MQ7TPPYYDI1NVUBYWTQHDKO1BBN","A3QPVH0DRW0ZQV","3S1L4CQSFXRWQOWP2XFUSMS4AZDFAL","","null","<img src=""img/land1.png"" style=""width:200px; border:14px solid green;"">","null","","","","","","","","","",""
"","image-keyboard-response","172","722358","0.0-172.0","3P4MQ7TPPYYDI1NVUBYWTQHDKO1BBN","A3QPVH0DRW0ZQV","3S1L4CQSFXRWQOWP2XFUSMS4AZDFAL","","487.1000000014901","img/land1.png","76","487.5","3","1","3","1","1,0.5,0.5,0.5,1,0.5,0.5,0.5,1","1,0.5,0.5,0.5,1,0.5,0.5,0.5,1","1","",""
"","html-keyboard-response","173","722659","0.0-173.0","3P4MQ7TPPYYDI1NVUBYWTQHDKO1BBN","A3QPVH0DRW0ZQV","3S1L4CQSFXRWQOWP2XFUSMS4AZDFAL","","null","<img src=""img/land1.png"" style=""width:200px; border:14px solid green;"">","null","","","","","","","","","",""
"","image-keyboard-response","174","723310","0.0-174.0","3P4MQ7TPPYYDI1NVUBYWTQHDKO1BBN","A3QPVH0DRW0ZQV","3S1L4CQSFXRWQOWP2XFUSMS4AZDFAL","","651.1999999992549","img/land3.png","74","651.6000000014901","1","1","1","1","1,0.5,0.5,0.5,1,0.5,0.5,0.5,1","1,0.5,0.5,0.5,1,0.5,0.5,0.5,1","1","",""
"","html-keyboard-response","175","723612","0.0-175.0","3P4MQ7TPPYYDI1NVUBYWTQHDKO1BBN","A3QPVH0DRW0ZQV","3S1L4CQSFXRWQOWP2XFUSMS4AZDFAL","","null","<img src=""img/land3.png"" style=""width:200px; border:14px solid green;"">","null","","","","","","","","","",""
"","image-keyboard-response","176","724220","0.0-176.0","3P4MQ7TPPYYDI1NVUBYWTQHDKO1BBN","A3QPVH0DRW0ZQV","3S1L4CQSFXRWQOWP2XFUSMS4AZDFAL","","606.8999999985099","img/land6.png","75","607.3000000007451","2","1","2","1","1,0.5,0.5,0.5,1,0.5,0.5,0.5,1","1,0.5,0.5,0.5,1,0.5,0.5,0.5,1","1","",""
"","html-keyboard-response","177","724521","0.0-177.0","3P4MQ7TPPYYDI1NVUBYWTQHDKO1BBN","A3QPVH0DRW0ZQV","3S1L4CQSFXRWQOWP2XFUSMS4AZDFAL","","null","<img src=""img/land6.png"" style=""width:200px; border:14px solid green;"">","null","","","","","","","","","",""
"","image-keyboard-response","178","725485","0.0-178.0","3P4MQ7TPPYYDI1NVUBYWTQHDKO1BBN","A3QPVH0DRW0ZQV","3S1L4CQSFXRWQOWP2XFUSMS4AZDFAL","","963.8999999985099","img/land3.png","74","964.3000000007451","1","1","1","1","1,0.5,0.5,0.5,1,0.5,0.5,0.5,1","1,0.5,0.5,0.5,1,0.5,0.5,0.5,1","1","",""
"","html-keyboard-response","179","725786","0.0-179.0","3P4MQ7TPPYYDI1NVUBYWTQHDKO1BBN","A3QPVH0DRW0ZQV","3S1L4CQSFXRWQOWP2XFUSMS4AZDFAL","","null","<img src=""img/land3.png"" style=""width:200px; border:14px solid green;"">","null","","","","","","","","","",""
"","image-keyboard-response","180","726109","0.0-180.0","3P4MQ7TPPYYDI1NVUBYWTQHDKO1BBN","A3QPVH0DRW0ZQV","3S1L4CQSFXRWQOWP2XFUSMS4AZDFAL","","323.3999999985099","img/land3.png","74","323.80000000074506","1","1","1","1","1,0.5,0.5,0.5,1,0.5,0.5,0.5,1","1,0.5,0.5,0.5,1,0.5,0.5,0.5,1","1","",""
"","html-keyboard-response","181","726411","0.0-181.0","3P4MQ7TPPYYDI1NVUBYWTQHDKO1BBN","A3QPVH0DRW0ZQV","3S1L4CQSFXRWQOWP2XFUSMS4AZDFAL","","null","<img src=""img/land3.png"" style=""width:200px; border:14px solid green;"">","null","","","","","","","","","",""
"","html-keyboard-response","182","729988","0.0-182.0","3P4MQ7TPPYYDI1NVUBYWTQHDKO1BBN","A3QPVH0DRW0ZQV","3S1L4CQSFXRWQOWP2XFUSMS4AZDFAL","","","","","","","","","","","","","",""
"","image-keyboard-response","183","731060","0.0-183.0","3P4MQ7TPPYYDI1NVUBYWTQHDKO1BBN","A3QPVH0DRW0ZQV","3S1L4CQSFXRWQOWP2XFUSMS4AZDFAL","","1072.1000000014901","img/land2.png","75","1072.5999999977648","2","1","1","2","1,0.5,0.5,0.5,1,0.5,0.5,0.5,1","0.5,1,0.5,0.5,0.5,1,1,0.5,0.5","3","",""
"","html-keyboard-response","184","731361","0.0-184.0","3P4MQ7TPPYYDI1NVUBYWTQHDKO1BBN","A3QPVH0DRW0ZQV","3S1L4CQSFXRWQOWP2XFUSMS4AZDFAL","","null","<img src=""img/land2.png"" style=""width:200px; border:14px solid green;"">","null","","","","","","","","","",""
"","image-keyboard-response","185","731690","0.0-185.0","3P4MQ7TPPYYDI1NVUBYWTQHDKO1BBN","A3QPVH0DRW0ZQV","3S1L4CQSFXRWQOWP2XFUSMS4AZDFAL","","328","img/land2.png","75","328.5","2","1","1","2","1,0.5,0.5,0.5,1,0.5,0.5,0.5,1","0.5,1,0.5,0.5,0.5,1,1,0.5,0.5","3","",""
"","html-keyboard-response","186","731991","0.0-186.0","3P4MQ7TPPYYDI1NVUBYWTQHDKO1BBN","A3QPVH0DRW0ZQV","3S1L4CQSFXRWQOWP2XFUSMS4AZDFAL","","null","<img src=""img/land2.png"" style=""width:200px; border:14px solid green;"">","null","","","","","","","","","",""
"","image-keyboard-response","187","732909","0.0-187.0","3P4MQ7TPPYYDI1NVUBYWTQHDKO1BBN","A3QPVH0DRW0ZQV","3S1L4CQSFXRWQOWP2XFUSMS4AZDFAL","","918.2000000029802","img/land4.png","76","918.5","3","1","3","2","1,0.5,0.5,0.5,1,0.5,0.5,0.5,1","0.5,1,0.5,0.5,0.5,1,1,0.5,0.5","3","",""
"","html-keyboard-response","188","733211","0.0-188.0","3P4MQ7TPPYYDI1NVUBYWTQHDKO1BBN","A3QPVH0DRW0ZQV","3S1L4CQSFXRWQOWP2XFUSMS4AZDFAL","","null","<img src=""img/land4.png"" style=""width:200px; border:14px solid green;"">","null","","","","","","","","","",""
"","image-keyboard-response","189","733721","0.0-189.0","3P4MQ7TPPYYDI1NVUBYWTQHDKO1BBN","A3QPVH0DRW0ZQV","3S1L4CQSFXRWQOWP2XFUSMS4AZDFAL","","510.20000000298023","img/land2.png","75","510.6000000014901","2","1","1","2","1,0.5,0.5,0.5,1,0.5,0.5,0.5,1","0.5,1,0.5,0.5,0.5,1,1,0.5,0.5","3","",""
"","html-keyboard-response","190","734023","0.0-190.0","3P4MQ7TPPYYDI1NVUBYWTQHDKO1BBN","A3QPVH0DRW0ZQV","3S1L4CQSFXRWQOWP2XFUSMS4AZDFAL","","null","<img src=""img/land2.png"" style=""width:200px; border:14px solid green;"">","null","","","","","","","","","",""
"","image-keyboard-response","191","734328","0.0-191.0","3P4MQ7TPPYYDI1NVUBYWTQHDKO1BBN","A3QPVH0DRW0ZQV","3S1L4CQSFXRWQOWP2XFUSMS4AZDFAL","","304.9000000022352","img/land2.png","75","305.5","2","1","1","2","1,0.5,0.5,0.5,1,0.5,0.5,0.5,1","0.5,1,0.5,0.5,0.5,1,1,0.5,0.5","3","",""
"","html-keyboard-response","192","734630","0.0-192.0","3P4MQ7TPPYYDI1NVUBYWTQHDKO1BBN","A3QPVH0DRW0ZQV","3S1L4CQSFXRWQOWP2XFUSMS4AZDFAL","","null","<img src=""img/land2.png"" style=""width:200px; border:14px solid green;"">","null","","","","","","","","","",""
"","image-keyboard-response","193","735237","0.0-193.0","3P4MQ7TPPYYDI1NVUBYWTQHDKO1BBN","A3QPVH0DRW0ZQV","3S1L4CQSFXRWQOWP2XFUSMS4AZDFAL","","606.5","img/land5.png","74","606.9000000022352","1","1","2","2","1,0.5,0.5,0.5,1,0.5,0.5,0.5,1","0.5,1,0.5,0.5,0.5,1,1,0.5,0.5","3","",""
"","html-keyboard-response","194","735539","0.0-194.0","3P4MQ7TPPYYDI1NVUBYWTQHDKO1BBN","A3QPVH0DRW0ZQV","3S1L4CQSFXRWQOWP2XFUSMS4AZDFAL","","null","<img src=""img/land5.png"" style=""width:200px; border:14px solid green;"">","null","","","","","","","","","",""
"","image-keyboard-response","195","736108","0.0-195.0","3P4MQ7TPPYYDI1NVUBYWTQHDKO1BBN","A3QPVH0DRW0ZQV","3S1L4CQSFXRWQOWP2XFUSMS4AZDFAL","","569.2000000029802","img/land2.png","75","569.5","2","1","1","2","1,0.5,0.5,0.5,1,0.5,0.5,0.5,1","0.5,1,0.5,0.5,0.5,1,1,0.5,0.5","3","",""
"","html-keyboard-response","196","736409","0.0-196.0","3P4MQ7TPPYYDI1NVUBYWTQHDKO1BBN","A3QPVH0DRW0ZQV","3S1L4CQSFXRWQOWP2XFUSMS4AZDFAL","","null","<img src=""img/land2.png"" style=""width:200px; border:14px solid green;"">","null","","","","","","","","","",""
"","image-keyboard-response","197","736672","0.0-197.0","3P4MQ7TPPYYDI1NVUBYWTQHDKO1BBN","A3QPVH0DRW0ZQV","3S1L4CQSFXRWQOWP2XFUSMS4AZDFAL","","262.3999999985099","img/land2.png","75","262.70000000298023","2","1","1","2","1,0.5,0.5,0.5,1,0.5,0.5,0.5,1","0.5,1,0.5,0.5,0.5,1,1,0.5,0.5","3","",""
"","html-keyboard-response","198","736973","0.0-198.0","3P4MQ7TPPYYDI1NVUBYWTQHDKO1BBN","A3QPVH0DRW0ZQV","3S1L4CQSFXRWQOWP2XFUSMS4AZDFAL","","null","<img src=""img/land2.png"" style=""width:200px; border:14px solid green;"">","null","","","","","","","","","",""
"","image-keyboard-response","199","737284","0.0-199.0","3P4MQ7TPPYYDI1NVUBYWTQHDKO1BBN","A3QPVH0DRW0ZQV","3S1L4CQSFXRWQOWP2XFUSMS4AZDFAL","","310.1000000014901","img/land2.png","75","310.5","2","1","1","2","1,0.5,0.5,0.5,1,0.5,0.5,0.5,1","0.5,1,0.5,0.5,0.5,1,1,0.5,0.5","3","",""
"","html-keyboard-response","200","737585","0.0-200.0","3P4MQ7TPPYYDI1NVUBYWTQHDKO1BBN","A3QPVH0DRW0ZQV","3S1L4CQSFXRWQOWP2XFUSMS4AZDFAL","","null","<img src=""img/land2.png"" style=""width:200px; border:14px solid green;"">","null","","","","","","","","","",""
"","image-keyboard-response","201","737850","0.0-201.0","3P4MQ7TPPYYDI1NVUBYWTQHDKO1BBN","A3QPVH0DRW0ZQV","3S1L4CQSFXRWQOWP2XFUSMS4AZDFAL","","264.6000000014901","img/land2.png","75","265","2","1","1","2","1,0.5,0.5,0.5,1,0.5,0.5,0.5,1","0.5,1,0.5,0.5,0.5,1,1,0.5,0.5","3","",""
"","html-keyboard-response","202","738151","0.0-202.0","3P4MQ7TPPYYDI1NVUBYWTQHDKO1BBN","A3QPVH0DRW0ZQV","3S1L4CQSFXRWQOWP2XFUSMS4AZDFAL","","null","<img src=""img/land2.png"" style=""width:200px; border:14px solid green;"">","null","","","","","","","","","",""
"","image-keyboard-response","203","738434","0.0-203.0","3P4MQ7TPPYYDI1NVUBYWTQHDKO1BBN","A3QPVH0DRW0ZQV","3S1L4CQSFXRWQOWP2XFUSMS4AZDFAL","","282.3999999985099","img/land2.png","75","282.8999999985099","2","1","1","2","1,0.5,0.5,0.5,1,0.5,0.5,0.5,1","0.5,1,0.5,0.5,0.5,1,1,0.5,0.5","3","",""
"","html-keyboard-response","204","738735","0.0-204.0","3P4MQ7TPPYYDI1NVUBYWTQHDKO1BBN","A3QPVH0DRW0ZQV","3S1L4CQSFXRWQOWP2XFUSMS4AZDFAL","","null","<img src=""img/land2.png"" style=""width:200px; border:14px solid green;"">","null","","","","","","","","","",""
"","image-keyboard-response","205","739767","0.0-205.0","3P4MQ7TPPYYDI1NVUBYWTQHDKO1BBN","A3QPVH0DRW0ZQV","3S1L4CQSFXRWQOWP2XFUSMS4AZDFAL","","1031.5999999977648","img/land5.png","74","1031.9000000022352","1","1","2","2","1,0.5,0.5,0.5,1,0.5,0.5,0.5,1","0.5,1,0.5,0.5,0.5,1,1,0.5,0.5","3","",""
"","html-keyboard-response","206","740069","0.0-206.0","3P4MQ7TPPYYDI1NVUBYWTQHDKO1BBN","A3QPVH0DRW0ZQV","3S1L4CQSFXRWQOWP2XFUSMS4AZDFAL","","null","<img src=""img/land5.png"" style=""width:200px; border:14px solid green;"">","null","","","","","","","","","",""
"","image-keyboard-response","207","740602","0.0-207.0","3P4MQ7TPPYYDI1NVUBYWTQHDKO1BBN","A3QPVH0DRW0ZQV","3S1L4CQSFXRWQOWP2XFUSMS4AZDFAL","","532.1000000014901","img/land2.png","75","532.5","2","1","1","2","1,0.5,0.5,0.5,1,0.5,0.5,0.5,1","0.5,1,0.5,0.5,0.5,1,1,0.5,0.5","3","",""
"","html-keyboard-response","208","740903","0.0-208.0","3P4MQ7TPPYYDI1NVUBYWTQHDKO1BBN","A3QPVH0DRW0ZQV","3S1L4CQSFXRWQOWP2XFUSMS4AZDFAL","","null","<img src=""img/land2.png"" style=""width:200px; border:14px solid green;"">","null","","","","","","","","","",""
"","image-keyboard-response","209","741182","0.0-209.0","3P4MQ7TPPYYDI1NVUBYWTQHDKO1BBN","A3QPVH0DRW0ZQV","3S1L4CQSFXRWQOWP2XFUSMS4AZDFAL","","278.0999999977648","img/land2.png","75","278.5","2","1","1","2","1,0.5,0.5,0.5,1,0.5,0.5,0.5,1","0.5,1,0.5,0.5,0.5,1,1,0.5,0.5","3","",""
"","html-keyboard-response","210","741483","0.0-210.0","3P4MQ7TPPYYDI1NVUBYWTQHDKO1BBN","A3QPVH0DRW0ZQV","3S1L4CQSFXRWQOWP2XFUSMS4AZDFAL","","null","<img src=""img/land2.png"" style=""width:200px; border:14px solid green;"">","null","","","","","","","","","",""
"","image-keyboard-response","211","741917","0.0-211.0","3P4MQ7TPPYYDI1NVUBYWTQHDKO1BBN","A3QPVH0DRW0ZQV","3S1L4CQSFXRWQOWP2XFUSMS4AZDFAL","","433.5999999977648","img/land5.png","74","434","1","0","2","2","1,0.5,0.5,0.5,1,0.5,0.5,0.5,1","0.5,1,0.5,0.5,0.5,1,1,0.5,0.5","3","",""
"","html-keyboard-response","212","742218","0.0-212.0","3P4MQ7TPPYYDI1NVUBYWTQHDKO1BBN","A3QPVH0DRW0ZQV","3S1L4CQSFXRWQOWP2XFUSMS4AZDFAL","","null","<img src=""img/land5.png"" style=""width:200px;border:14px solid red;"">","null","","","","","","","","","",""
"","image-keyboard-response","213","742965","0.0-213.0","3P4MQ7TPPYYDI1NVUBYWTQHDKO1BBN","A3QPVH0DRW0ZQV","3S1L4CQSFXRWQOWP2XFUSMS4AZDFAL","","746.8000000007451","img/land2.png","75","747.2999999970198","2","1","1","2","1,0.5,0.5,0.5,1,0.5,0.5,0.5,1","0.5,1,0.5,0.5,0.5,1,1,0.5,0.5","3","",""
"","html-keyboard-response","214","743266","0.0-214.0","3P4MQ7TPPYYDI1NVUBYWTQHDKO1BBN","A3QPVH0DRW0ZQV","3S1L4CQSFXRWQOWP2XFUSMS4AZDFAL","","null","<img src=""img/land2.png"" style=""width:200px; border:14px solid green;"">","null","","","","","","","","","",""
"","image-keyboard-response","215","743497","0.0-215.0","3P4MQ7TPPYYDI1NVUBYWTQHDKO1BBN","A3QPVH0DRW0ZQV","3S1L4CQSFXRWQOWP2XFUSMS4AZDFAL","","230.60000000149012","img/land2.png","75","230.89999999850988","2","1","1","2","1,0.5,0.5,0.5,1,0.5,0.5,0.5,1","0.5,1,0.5,0.5,0.5,1,1,0.5,0.5","3","",""
"","html-keyboard-response","216","743799","0.0-216.0","3P4MQ7TPPYYDI1NVUBYWTQHDKO1BBN","A3QPVH0DRW0ZQV","3S1L4CQSFXRWQOWP2XFUSMS4AZDFAL","","null","<img src=""img/land2.png"" style=""width:200px; border:14px solid green;"">","null","","","","","","","","","",""
"","image-keyboard-response","217","744502","0.0-217.0","3P4MQ7TPPYYDI1NVUBYWTQHDKO1BBN","A3QPVH0DRW0ZQV","3S1L4CQSFXRWQOWP2XFUSMS4AZDFAL","","702.5","img/land4.png","76","702.8000000007451","3","1","3","2","1,0.5,0.5,0.5,1,0.5,0.5,0.5,1","0.5,1,0.5,0.5,0.5,1,1,0.5,0.5","3","",""
"","html-keyboard-response","218","744803","0.0-218.0","3P4MQ7TPPYYDI1NVUBYWTQHDKO1BBN","A3QPVH0DRW0ZQV","3S1L4CQSFXRWQOWP2XFUSMS4AZDFAL","","null","<img src=""img/land4.png"" style=""width:200px; border:14px solid green;"">","null","","","","","","","","","",""
"","image-keyboard-response","219","745430","0.0-219.0","3P4MQ7TPPYYDI1NVUBYWTQHDKO1BBN","A3QPVH0DRW0ZQV","3S1L4CQSFXRWQOWP2XFUSMS4AZDFAL","","625.8000000007451","img/land5.png","74","626.1999999992549","1","1","2","2","1,0.5,0.5,0.5,1,0.5,0.5,0.5,1","0.5,1,0.5,0.5,0.5,1,1,0.5,0.5","3","",""
"","html-keyboard-response","220","745731","0.0-220.0","3P4MQ7TPPYYDI1NVUBYWTQHDKO1BBN","A3QPVH0DRW0ZQV","3S1L4CQSFXRWQOWP2XFUSMS4AZDFAL","","null","<img src=""img/land5.png"" style=""width:200px; border:14px solid green;"">","null","","","","","","","","","",""
"","image-keyboard-response","221","746281","0.0-221.0","3P4MQ7TPPYYDI1NVUBYWTQHDKO1BBN","A3QPVH0DRW0ZQV","3S1L4CQSFXRWQOWP2XFUSMS4AZDFAL","","549.1999999992549","img/land4.png","75","549.6000000014901","2","1","3","2","1,0.5,0.5,0.5,1,0.5,0.5,0.5,1","0.5,1,0.5,0.5,0.5,1,1,0.5,0.5","3","",""
"","html-keyboard-response","222","746582","0.0-222.0","3P4MQ7TPPYYDI1NVUBYWTQHDKO1BBN","A3QPVH0DRW0ZQV","3S1L4CQSFXRWQOWP2XFUSMS4AZDFAL","","null","<img src=""img/land4.png"" style=""width:200px; border:14px solid green;"">","null","","","","","","","","","",""
"","image-keyboard-response","223","747706","0.0-223.0","3P4MQ7TPPYYDI1NVUBYWTQHDKO1BBN","A3QPVH0DRW0ZQV","3S1L4CQSFXRWQOWP2XFUSMS4AZDFAL","","1123","img/land2.png","75","1123.300000000745","2","1","1","2","1,0.5,0.5,0.5,1,0.5,0.5,0.5,1","0.5,1,0.5,0.5,0.5,1,1,0.5,0.5","3","",""
"","html-keyboard-response","224","748007","0.0-224.0","3P4MQ7TPPYYDI1NVUBYWTQHDKO1BBN","A3QPVH0DRW0ZQV","3S1L4CQSFXRWQOWP2XFUSMS4AZDFAL","","null","<img src=""img/land2.png"" style=""width:200px; border:14px solid green;"">","null","","","","","","","","","",""
"","image-keyboard-response","225","748312","0.0-225.0","3P4MQ7TPPYYDI1NVUBYWTQHDKO1BBN","A3QPVH0DRW0ZQV","3S1L4CQSFXRWQOWP2XFUSMS4AZDFAL","","304.19999999925494","img/land2.png","75","304.6000000014901","2","1","1","2","1,0.5,0.5,0.5,1,0.5,0.5,0.5,1","0.5,1,0.5,0.5,0.5,1,1,0.5,0.5","3","",""
"","html-keyboard-response","226","748613","0.0-226.0","3P4MQ7TPPYYDI1NVUBYWTQHDKO1BBN","A3QPVH0DRW0ZQV","3S1L4CQSFXRWQOWP2XFUSMS4AZDFAL","","null","<img src=""img/land2.png"" style=""width:200px; border:14px solid green;"">","null","","","","","","","","","",""
"","image-keyboard-response","227","748810","0.0-227.0","3P4MQ7TPPYYDI1NVUBYWTQHDKO1BBN","A3QPVH0DRW0ZQV","3S1L4CQSFXRWQOWP2XFUSMS4AZDFAL","","196.40000000223517","img/land2.png","75","196.80000000074506","2","1","1","2","1,0.5,0.5,0.5,1,0.5,0.5,0.5,1","0.5,1,0.5,0.5,0.5,1,1,0.5,0.5","3","",""
"","html-keyboard-response","228","749111","0.0-228.0","3P4MQ7TPPYYDI1NVUBYWTQHDKO1BBN","A3QPVH0DRW0ZQV","3S1L4CQSFXRWQOWP2XFUSMS4AZDFAL","","null","<img src=""img/land2.png"" style=""width:200px; border:14px solid green;"">","null","","","","","","","","","",""
"","image-keyboard-response","229","749374","0.0-229.0","3P4MQ7TPPYYDI1NVUBYWTQHDKO1BBN","A3QPVH0DRW0ZQV","3S1L4CQSFXRWQOWP2XFUSMS4AZDFAL","","262.19999999925494","img/land2.png","75","262.6000000014901","2","1","1","2","1,0.5,0.5,0.5,1,0.5,0.5,0.5,1","0.5,1,0.5,0.5,0.5,1,1,0.5,0.5","3","",""
"","html-keyboard-response","230","749675","0.0-230.0","3P4MQ7TPPYYDI1NVUBYWTQHDKO1BBN","A3QPVH0DRW0ZQV","3S1L4CQSFXRWQOWP2XFUSMS4AZDFAL","","null","<img src=""img/land2.png"" style=""width:200px; border:14px solid green;"">","null","","","","","","","","","",""
"","image-keyboard-response","231","750388","0.0-231.0","3P4MQ7TPPYYDI1NVUBYWTQHDKO1BBN","A3QPVH0DRW0ZQV","3S1L4CQSFXRWQOWP2XFUSMS4AZDFAL","","712.2999999970198","img/land5.png","74","712.6000000014901","1","1","2","2","1,0.5,0.5,0.5,1,0.5,0.5,0.5,1","0.5,1,0.5,0.5,0.5,1,1,0.5,0.5","3","",""
"","html-keyboard-response","232","750689","0.0-232.0","3P4MQ7TPPYYDI1NVUBYWTQHDKO1BBN","A3QPVH0DRW0ZQV","3S1L4CQSFXRWQOWP2XFUSMS4AZDFAL","","null","<img src=""img/land5.png"" style=""width:200px; border:14px solid green;"">","null","","","","","","","","","",""
"","image-keyboard-response","233","751167","0.0-233.0","3P4MQ7TPPYYDI1NVUBYWTQHDKO1BBN","A3QPVH0DRW0ZQV","3S1L4CQSFXRWQOWP2XFUSMS4AZDFAL","","477.29999999701977","img/land2.png","75","477.80000000074506","2","1","1","2","1,0.5,0.5,0.5,1,0.5,0.5,0.5,1","0.5,1,0.5,0.5,0.5,1,1,0.5,0.5","3","",""
"","html-keyboard-response","234","751468","0.0-234.0","3P4MQ7TPPYYDI1NVUBYWTQHDKO1BBN","A3QPVH0DRW0ZQV","3S1L4CQSFXRWQOWP2XFUSMS4AZDFAL","","null","<img src=""img/land2.png"" style=""width:200px; border:14px solid green;"">","null","","","","","","","","","",""
"","image-keyboard-response","235","751599","0.0-235.0","3P4MQ7TPPYYDI1NVUBYWTQHDKO1BBN","A3QPVH0DRW0ZQV","3S1L4CQSFXRWQOWP2XFUSMS4AZDFAL","","130.69999999925494","img/land4.png","75","131","2","0","3","2","1,0.5,0.5,0.5,1,0.5,0.5,0.5,1","0.5,1,0.5,0.5,0.5,1,1,0.5,0.5","3","",""
"","html-keyboard-response","236","751900","0.0-236.0","3P4MQ7TPPYYDI1NVUBYWTQHDKO1BBN","A3QPVH0DRW0ZQV","3S1L4CQSFXRWQOWP2XFUSMS4AZDFAL","","null","<img src=""img/land4.png"" style=""width:200px;border:14px solid red;"">","null","","","","","","","","","",""
"","image-keyboard-response","237","752549","0.0-237.0","3P4MQ7TPPYYDI1NVUBYWTQHDKO1BBN","A3QPVH0DRW0ZQV","3S1L4CQSFXRWQOWP2XFUSMS4AZDFAL","","648.1000000014901","img/land2.png","75","648.5","2","1","1","2","1,0.5,0.5,0.5,1,0.5,0.5,0.5,1","0.5,1,0.5,0.5,0.5,1,1,0.5,0.5","3","",""
"","html-keyboard-response","238","752850","0.0-238.0","3P4MQ7TPPYYDI1NVUBYWTQHDKO1BBN","A3QPVH0DRW0ZQV","3S1L4CQSFXRWQOWP2XFUSMS4AZDFAL","","null","<img src=""img/land2.png"" style=""width:200px; border:14px solid green;"">","null","","","","","","","","","",""
"","image-keyboard-response","239","753508","0.0-239.0","3P4MQ7TPPYYDI1NVUBYWTQHDKO1BBN","A3QPVH0DRW0ZQV","3S1L4CQSFXRWQOWP2XFUSMS4AZDFAL","","657.2999999970198","img/land5.png","74","657.6000000014901","1","0","2","2","1,0.5,0.5,0.5,1,0.5,0.5,0.5,1","0.5,1,0.5,0.5,0.5,1,1,0.5,0.5","3","",""
"","html-keyboard-response","240","753809","0.0-240.0","3P4MQ7TPPYYDI1NVUBYWTQHDKO1BBN","A3QPVH0DRW0ZQV","3S1L4CQSFXRWQOWP2XFUSMS4AZDFAL","","null","<img src=""img/land5.png"" style=""width:200px;border:14px solid red;"">","null","","","","","","","","","",""
"","image-keyboard-response","241","754448","0.0-241.0","3P4MQ7TPPYYDI1NVUBYWTQHDKO1BBN","A3QPVH0DRW0ZQV","3S1L4CQSFXRWQOWP2XFUSMS4AZDFAL","","638.1999999992549","img/land2.png","75","638.5","2","1","1","2","1,0.5,0.5,0.5,1,0.5,0.5,0.5,1","0.5,1,0.5,0.5,0.5,1,1,0.5,0.5","3","",""
"","html-keyboard-response","242","754757","0.0-242.0","3P4MQ7TPPYYDI1NVUBYWTQHDKO1BBN","A3QPVH0DRW0ZQV","3S1L4CQSFXRWQOWP2XFUSMS4AZDFAL","","null","<img src=""img/land2.png"" style=""width:200px; border:14px solid green;"">","null","","","","","","","","","",""
"","image-keyboard-response","243","755040","0.0-243.0","3P4MQ7TPPYYDI1NVUBYWTQHDKO1BBN","A3QPVH0DRW0ZQV","3S1L4CQSFXRWQOWP2XFUSMS4AZDFAL","","281.5999999977648","img/land2.png","75","282.1000000014901","2","1","1","2","1,0.5,0.5,0.5,1,0.5,0.5,0.5,1","0.5,1,0.5,0.5,0.5,1,1,0.5,0.5","3","",""
"","html-keyboard-response","244","755341","0.0-244.0","3P4MQ7TPPYYDI1NVUBYWTQHDKO1BBN","A3QPVH0DRW0ZQV","3S1L4CQSFXRWQOWP2XFUSMS4AZDFAL","","null","<img src=""img/land2.png"" style=""width:200px; border:14px solid green;"">","null","","","","","","","","","",""
"","image-keyboard-response","245","755569","0.0-245.0","3P4MQ7TPPYYDI1NVUBYWTQHDKO1BBN","A3QPVH0DRW0ZQV","3S1L4CQSFXRWQOWP2XFUSMS4AZDFAL","","228","img/land2.png","75","228.20000000298023","2","1","1","2","1,0.5,0.5,0.5,1,0.5,0.5,0.5,1","0.5,1,0.5,0.5,0.5,1,1,0.5,0.5","3","",""
"","html-keyboard-response","246","755870","0.0-246.0","3P4MQ7TPPYYDI1NVUBYWTQHDKO1BBN","A3QPVH0DRW0ZQV","3S1L4CQSFXRWQOWP2XFUSMS4AZDFAL","","null","<img src=""img/land2.png"" style=""width:200px; border:14px solid green;"">","null","","","","","","","","","",""
"","image-keyboard-response","247","756164","0.0-247.0","3P4MQ7TPPYYDI1NVUBYWTQHDKO1BBN","A3QPVH0DRW0ZQV","3S1L4CQSFXRWQOWP2XFUSMS4AZDFAL","","293","img/land2.png","75","293.3999999985099","2","1","1","2","1,0.5,0.5,0.5,1,0.5,0.5,0.5,1","0.5,1,0.5,0.5,0.5,1,1,0.5,0.5","3","",""
"","html-keyboard-response","248","756466","0.0-248.0","3P4MQ7TPPYYDI1NVUBYWTQHDKO1BBN","A3QPVH0DRW0ZQV","3S1L4CQSFXRWQOWP2XFUSMS4AZDFAL","","null","<img src=""img/land2.png"" style=""width:200px; border:14px solid green;"">","null","","","","","","","","","",""
"","image-keyboard-response","249","756685","0.0-249.0","3P4MQ7TPPYYDI1NVUBYWTQHDKO1BBN","A3QPVH0DRW0ZQV","3S1L4CQSFXRWQOWP2XFUSMS4AZDFAL","","218.30000000074506","img/land2.png","75","218.69999999925494","2","1","1","2","1,0.5,0.5,0.5,1,0.5,0.5,0.5,1","0.5,1,0.5,0.5,0.5,1,1,0.5,0.5","3","",""
"","html-keyboard-response","250","756986","0.0-250.0","3P4MQ7TPPYYDI1NVUBYWTQHDKO1BBN","A3QPVH0DRW0ZQV","3S1L4CQSFXRWQOWP2XFUSMS4AZDFAL","","null","<img src=""img/land2.png"" style=""width:200px; border:14px solid green;"">","null","","","","","","","","","",""
"","image-keyboard-response","251","757107","0.0-251.0","3P4MQ7TPPYYDI1NVUBYWTQHDKO1BBN","A3QPVH0DRW0ZQV","3S1L4CQSFXRWQOWP2XFUSMS4AZDFAL","","120.09999999776483","img/land2.png","75","120.5","2","1","1","2","1,0.5,0.5,0.5,1,0.5,0.5,0.5,1","0.5,1,0.5,0.5,0.5,1,1,0.5,0.5","3","",""
"","html-keyboard-response","252","757408","0.0-252.0","3P4MQ7TPPYYDI1NVUBYWTQHDKO1BBN","A3QPVH0DRW0ZQV","3S1L4CQSFXRWQOWP2XFUSMS4AZDFAL","","null","<img src=""img/land2.png"" style=""width:200px; border:14px solid green;"">","null","","","","","","","","","",""
"","image-keyboard-response","253","758123","0.0-253.0","3P4MQ7TPPYYDI1NVUBYWTQHDKO1BBN","A3QPVH0DRW0ZQV","3S1L4CQSFXRWQOWP2XFUSMS4AZDFAL","","715.6999999992549","img/land4.png","76","716.1000000014901","3","0","3","2","1,0.5,0.5,0.5,1,0.5,0.5,0.5,1","0.5,1,0.5,0.5,0.5,1,1,0.5,0.5","3","",""
"","html-keyboard-response","254","758424","0.0-254.0","3P4MQ7TPPYYDI1NVUBYWTQHDKO1BBN","A3QPVH0DRW0ZQV","3S1L4CQSFXRWQOWP2XFUSMS4AZDFAL","","null","<img src=""img/land4.png"" style=""width:200px;border:14px solid red;"">","null","","","","","","","","","",""
"","image-keyboard-response","255","758998","0.0-255.0","3P4MQ7TPPYYDI1NVUBYWTQHDKO1BBN","A3QPVH0DRW0ZQV","3S1L4CQSFXRWQOWP2XFUSMS4AZDFAL","","573","img/land4.png","75","573.2999999970198","2","0","3","2","1,0.5,0.5,0.5,1,0.5,0.5,0.5,1","0.5,1,0.5,0.5,0.5,1,1,0.5,0.5","3","",""
"","html-keyboard-response","256","759300","0.0-256.0","3P4MQ7TPPYYDI1NVUBYWTQHDKO1BBN","A3QPVH0DRW0ZQV","3S1L4CQSFXRWQOWP2XFUSMS4AZDFAL","","null","<img src=""img/land4.png"" style=""width:200px;border:14px solid red;"">","null","","","","","","","","","",""
"","image-keyboard-response","257","760168","0.0-257.0","3P4MQ7TPPYYDI1NVUBYWTQHDKO1BBN","A3QPVH0DRW0ZQV","3S1L4CQSFXRWQOWP2XFUSMS4AZDFAL","","867.0999999977648","img/land2.png","75","867.5999999977648","2","1","1","2","1,0.5,0.5,0.5,1,0.5,0.5,0.5,1","0.5,1,0.5,0.5,0.5,1,1,0.5,0.5","3","",""
"","html-keyboard-response","258","760469","0.0-258.0","3P4MQ7TPPYYDI1NVUBYWTQHDKO1BBN","A3QPVH0DRW0ZQV","3S1L4CQSFXRWQOWP2XFUSMS4AZDFAL","","null","<img src=""img/land2.png"" style=""width:200px; border:14px solid green;"">","null","","","","","","","","","",""
"","image-keyboard-response","259","760729","0.0-259.0","3P4MQ7TPPYYDI1NVUBYWTQHDKO1BBN","A3QPVH0DRW0ZQV","3S1L4CQSFXRWQOWP2XFUSMS4AZDFAL","","260.1000000014901","img/land2.png","75","260.3999999985099","2","1","1","2","1,0.5,0.5,0.5,1,0.5,0.5,0.5,1","0.5,1,0.5,0.5,0.5,1,1,0.5,0.5","3","",""
"","html-keyboard-response","260","761031","0.0-260.0","3P4MQ7TPPYYDI1NVUBYWTQHDKO1BBN","A3QPVH0DRW0ZQV","3S1L4CQSFXRWQOWP2XFUSMS4AZDFAL","","null","<img src=""img/land2.png"" style=""width:200px; border:14px solid green;"">","null","","","","","","","","","",""
"","image-keyboard-response","261","761697","0.0-261.0","3P4MQ7TPPYYDI1NVUBYWTQHDKO1BBN","A3QPVH0DRW0ZQV","3S1L4CQSFXRWQOWP2XFUSMS4AZDFAL","","666.1000000014901","img/land5.png","74","666.6000000014901","1","1","2","2","1,0.5,0.5,0.5,1,0.5,0.5,0.5,1","0.5,1,0.5,0.5,0.5,1,1,0.5,0.5","3","",""
"","html-keyboard-response","262","762009","0.0-262.0","3P4MQ7TPPYYDI1NVUBYWTQHDKO1BBN","A3QPVH0DRW0ZQV","3S1L4CQSFXRWQOWP2XFUSMS4AZDFAL","","null","<img src=""img/land5.png"" style=""width:200px; border:14px solid green;"">","null","","","","","","","","","",""
"","image-keyboard-response","263","762729","0.0-263.0","3P4MQ7TPPYYDI1NVUBYWTQHDKO1BBN","A3QPVH0DRW0ZQV","3S1L4CQSFXRWQOWP2XFUSMS4AZDFAL","","718.8000000007451","img/land4.png","76","719.3999999985099","3","0","3","2","1,0.5,0.5,0.5,1,0.5,0.5,0.5,1","0.5,1,0.5,0.5,0.5,1,1,0.5,0.5","3","",""
"","html-keyboard-response","264","763030","0.0-264.0","3P4MQ7TPPYYDI1NVUBYWTQHDKO1BBN","A3QPVH0DRW0ZQV","3S1L4CQSFXRWQOWP2XFUSMS4AZDFAL","","null","<img src=""img/land4.png"" style=""width:200px;border:14px solid red;"">","null","","","","","","","","","",""
"","image-keyboard-response","265","763859","0.0-265.0","3P4MQ7TPPYYDI1NVUBYWTQHDKO1BBN","A3QPVH0DRW0ZQV","3S1L4CQSFXRWQOWP2XFUSMS4AZDFAL","","828.7999999970198","img/land5.png","74","829.2000000029802","1","0","2","2","1,0.5,0.5,0.5,1,0.5,0.5,0.5,1","0.5,1,0.5,0.5,0.5,1,1,0.5,0.5","3","",""
"","html-keyboard-response","266","764161","0.0-266.0","3P4MQ7TPPYYDI1NVUBYWTQHDKO1BBN","A3QPVH0DRW0ZQV","3S1L4CQSFXRWQOWP2XFUSMS4AZDFAL","","null","<img src=""img/land5.png"" style=""width:200px;border:14px solid red;"">","null","","","","","","","","","",""
"","image-keyboard-response","267","764506","0.0-267.0","3P4MQ7TPPYYDI1NVUBYWTQHDKO1BBN","A3QPVH0DRW0ZQV","3S1L4CQSFXRWQOWP2XFUSMS4AZDFAL","","344.79999999701977","img/land5.png","74","345.30000000074506","1","1","2","2","1,0.5,0.5,0.5,1,0.5,0.5,0.5,1","0.5,1,0.5,0.5,0.5,1,1,0.5,0.5","3","",""
"","html-keyboard-response","268","764807","0.0-268.0","3P4MQ7TPPYYDI1NVUBYWTQHDKO1BBN","A3QPVH0DRW0ZQV","3S1L4CQSFXRWQOWP2XFUSMS4AZDFAL","","null","<img src=""img/land5.png"" style=""width:200px; border:14px solid green;"">","null","","","","","","","","","",""
"","image-keyboard-response","269","765454","0.0-269.0","3P4MQ7TPPYYDI1NVUBYWTQHDKO1BBN","A3QPVH0DRW0ZQV","3S1L4CQSFXRWQOWP2XFUSMS4AZDFAL","","646.3000000007451","img/land2.png","75","646.6999999992549","2","1","1","2","1,0.5,0.5,0.5,1,0.5,0.5,0.5,1","0.5,1,0.5,0.5,0.5,1,1,0.5,0.5","3","",""
"","html-keyboard-response","270","765755","0.0-270.0","3P4MQ7TPPYYDI1NVUBYWTQHDKO1BBN","A3QPVH0DRW0ZQV","3S1L4CQSFXRWQOWP2XFUSMS4AZDFAL","","null","<img src=""img/land2.png"" style=""width:200px; border:14px solid green;"">","null","","","","","","","","","",""
"","image-keyboard-response","271","766286","0.0-271.0","3P4MQ7TPPYYDI1NVUBYWTQHDKO1BBN","A3QPVH0DRW0ZQV","3S1L4CQSFXRWQOWP2XFUSMS4AZDFAL","","530.3000000007451","img/land2.png","75","530.8999999985099","2","1","1","2","1,0.5,0.5,0.5,1,0.5,0.5,0.5,1","0.5,1,0.5,0.5,0.5,1,1,0.5,0.5","3","",""
"","html-keyboard-response","272","766588","0.0-272.0","3P4MQ7TPPYYDI1NVUBYWTQHDKO1BBN","A3QPVH0DRW0ZQV","3S1L4CQSFXRWQOWP2XFUSMS4AZDFAL","","null","<img src=""img/land2.png"" style=""width:200px; border:14px solid green;"">","null","","","","","","","","","",""
"","image-keyboard-response","273","766912","0.0-273.0","3P4MQ7TPPYYDI1NVUBYWTQHDKO1BBN","A3QPVH0DRW0ZQV","3S1L4CQSFXRWQOWP2XFUSMS4AZDFAL","","324","img/land2.png","75","324.5","2","1","1","2","1,0.5,0.5,0.5,1,0.5,0.5,0.5,1","0.5,1,0.5,0.5,0.5,1,1,0.5,0.5","3","",""
"","html-keyboard-response","274","767213","0.0-274.0","3P4MQ7TPPYYDI1NVUBYWTQHDKO1BBN","A3QPVH0DRW0ZQV","3S1L4CQSFXRWQOWP2XFUSMS4AZDFAL","","null","<img src=""img/land2.png"" style=""width:200px; border:14px solid green;"">","null","","","","","","","","","",""
"","image-keyboard-response","275","767512","0.0-275.0","3P4MQ7TPPYYDI1NVUBYWTQHDKO1BBN","A3QPVH0DRW0ZQV","3S1L4CQSFXRWQOWP2XFUSMS4AZDFAL","","298.9000000022352","img/land2.png","75","299.1000000014901","2","1","1","2","1,0.5,0.5,0.5,1,0.5,0.5,0.5,1","0.5,1,0.5,0.5,0.5,1,1,0.5,0.5","3","",""
"","html-keyboard-response","276","767814","0.0-276.0","3P4MQ7TPPYYDI1NVUBYWTQHDKO1BBN","A3QPVH0DRW0ZQV","3S1L4CQSFXRWQOWP2XFUSMS4AZDFAL","","null","<img src=""img/land2.png"" style=""width:200px; border:14px solid green;"">","null","","","","","","","","","",""
"","image-keyboard-response","277","768053","0.0-277.0","3P4MQ7TPPYYDI1NVUBYWTQHDKO1BBN","A3QPVH0DRW0ZQV","3S1L4CQSFXRWQOWP2XFUSMS4AZDFAL","","238.60000000149012","img/land2.png","75","239","2","1","1","2","1,0.5,0.5,0.5,1,0.5,0.5,0.5,1","0.5,1,0.5,0.5,0.5,1,1,0.5,0.5","3","",""
"","html-keyboard-response","278","768354","0.0-278.0","3P4MQ7TPPYYDI1NVUBYWTQHDKO1BBN","A3QPVH0DRW0ZQV","3S1L4CQSFXRWQOWP2XFUSMS4AZDFAL","","null","<img src=""img/land2.png"" style=""width:200px; border:14px solid green;"">","null","","","","","","","","","",""
"","image-keyboard-response","279","768646","0.0-279.0","3P4MQ7TPPYYDI1NVUBYWTQHDKO1BBN","A3QPVH0DRW0ZQV","3S1L4CQSFXRWQOWP2XFUSMS4AZDFAL","","292.30000000074506","img/land2.png","75","292.5999999977648","2","1","1","2","1,0.5,0.5,0.5,1,0.5,0.5,0.5,1","0.5,1,0.5,0.5,0.5,1,1,0.5,0.5","3","",""
"","html-keyboard-response","280","768947","0.0-280.0","3P4MQ7TPPYYDI1NVUBYWTQHDKO1BBN","A3QPVH0DRW0ZQV","3S1L4CQSFXRWQOWP2XFUSMS4AZDFAL","","null","<img src=""img/land2.png"" style=""width:200px; border:14px solid green;"">","null","","","","","","","","","",""
"","image-keyboard-response","281","769208","0.0-281.0","3P4MQ7TPPYYDI1NVUBYWTQHDKO1BBN","A3QPVH0DRW0ZQV","3S1L4CQSFXRWQOWP2XFUSMS4AZDFAL","","260.30000000074506","img/land2.png","75","260.80000000074506","2","1","1","2","1,0.5,0.5,0.5,1,0.5,0.5,0.5,1","0.5,1,0.5,0.5,0.5,1,1,0.5,0.5","3","",""
"","html-keyboard-response","282","769509","0.0-282.0","3P4MQ7TPPYYDI1NVUBYWTQHDKO1BBN","A3QPVH0DRW0ZQV","3S1L4CQSFXRWQOWP2XFUSMS4AZDFAL","","null","<img src=""img/land2.png"" style=""width:200px; border:14px solid green;"">","null","","","","","","","","","",""
"","image-keyboard-response","283","769711","0.0-283.0","3P4MQ7TPPYYDI1NVUBYWTQHDKO1BBN","A3QPVH0DRW0ZQV","3S1L4CQSFXRWQOWP2XFUSMS4AZDFAL","","202","img/land2.png","75","202.30000000074506","2","1","1","2","1,0.5,0.5,0.5,1,0.5,0.5,0.5,1","0.5,1,0.5,0.5,0.5,1,1,0.5,0.5","3","",""
"","html-keyboard-response","284","770012","0.0-284.0","3P4MQ7TPPYYDI1NVUBYWTQHDKO1BBN","A3QPVH0DRW0ZQV","3S1L4CQSFXRWQOWP2XFUSMS4AZDFAL","","null","<img src=""img/land2.png"" style=""width:200px; border:14px solid green;"">","null","","","","","","","","","",""
"","image-keyboard-response","285","770280","0.0-285.0","3P4MQ7TPPYYDI1NVUBYWTQHDKO1BBN","A3QPVH0DRW0ZQV","3S1L4CQSFXRWQOWP2XFUSMS4AZDFAL","","267.5999999977648","img/land2.png","75","267.9000000022352","2","1","1","2","1,0.5,0.5,0.5,1,0.5,0.5,0.5,1","0.5,1,0.5,0.5,0.5,1,1,0.5,0.5","3","",""
"","html-keyboard-response","286","770581","0.0-286.0","3P4MQ7TPPYYDI1NVUBYWTQHDKO1BBN","A3QPVH0DRW0ZQV","3S1L4CQSFXRWQOWP2XFUSMS4AZDFAL","","null","<img src=""img/land2.png"" style=""width:200px; border:14px solid green;"">","null","","","","","","","","","",""
"","image-keyboard-response","287","770753","0.0-287.0","3P4MQ7TPPYYDI1NVUBYWTQHDKO1BBN","A3QPVH0DRW0ZQV","3S1L4CQSFXRWQOWP2XFUSMS4AZDFAL","","172.10000000149012","img/land5.png","75","172.69999999925494","2","0","2","2","1,0.5,0.5,0.5,1,0.5,0.5,0.5,1","0.5,1,0.5,0.5,0.5,1,1,0.5,0.5","3","",""
"","html-keyboard-response","288","771055","0.0-288.0","3P4MQ7TPPYYDI1NVUBYWTQHDKO1BBN","A3QPVH0DRW0ZQV","3S1L4CQSFXRWQOWP2XFUSMS4AZDFAL","","null","<img src=""img/land5.png"" style=""width:200px;border:14px solid red;"">","null","","","","","","","","","",""
"","image-keyboard-response","289","771506","0.0-289.0","3P4MQ7TPPYYDI1NVUBYWTQHDKO1BBN","A3QPVH0DRW0ZQV","3S1L4CQSFXRWQOWP2XFUSMS4AZDFAL","","451.1000000014901","img/land2.png","74","451.5999999977648","1","0","1","2","1,0.5,0.5,0.5,1,0.5,0.5,0.5,1","0.5,1,0.5,0.5,0.5,1,1,0.5,0.5","3","",""
"","html-keyboard-response","290","771807","0.0-290.0","3P4MQ7TPPYYDI1NVUBYWTQHDKO1BBN","A3QPVH0DRW0ZQV","3S1L4CQSFXRWQOWP2XFUSMS4AZDFAL","","null","<img src=""img/land2.png"" style=""width:200px;border:14px solid red;"">","null","","","","","","","","","",""
"","image-keyboard-response","291","772211","0.0-291.0","3P4MQ7TPPYYDI1NVUBYWTQHDKO1BBN","A3QPVH0DRW0ZQV","3S1L4CQSFXRWQOWP2XFUSMS4AZDFAL","","402.8999999985099","img/land2.png","75","403.19999999925494","2","1","1","2","1,0.5,0.5,0.5,1,0.5,0.5,0.5,1","0.5,1,0.5,0.5,0.5,1,1,0.5,0.5","3","",""
"","html-keyboard-response","292","772513","0.0-292.0","3P4MQ7TPPYYDI1NVUBYWTQHDKO1BBN","A3QPVH0DRW0ZQV","3S1L4CQSFXRWQOWP2XFUSMS4AZDFAL","","null","<img src=""img/land2.png"" style=""width:200px; border:14px solid green;"">","null","","","","","","","","","",""
"","image-keyboard-response","293","773119","0.0-293.0","3P4MQ7TPPYYDI1NVUBYWTQHDKO1BBN","A3QPVH0DRW0ZQV","3S1L4CQSFXRWQOWP2XFUSMS4AZDFAL","","605.6000000014901","img/land5.png","74","606.1999999992549","1","0","2","2","1,0.5,0.5,0.5,1,0.5,0.5,0.5,1","0.5,1,0.5,0.5,0.5,1,1,0.5,0.5","3","",""
"","html-keyboard-response","294","773420","0.0-294.0","3P4MQ7TPPYYDI1NVUBYWTQHDKO1BBN","A3QPVH0DRW0ZQV","3S1L4CQSFXRWQOWP2XFUSMS4AZDFAL","","null","<img src=""img/land5.png"" style=""width:200px;border:14px solid red;"">","null","","","","","","","","","",""
"","image-keyboard-response","295","774105","0.0-295.0","3P4MQ7TPPYYDI1NVUBYWTQHDKO1BBN","A3QPVH0DRW0ZQV","3S1L4CQSFXRWQOWP2XFUSMS4AZDFAL","","684.8999999985099","img/land4.png","76","685.3000000007451","3","1","3","2","1,0.5,0.5,0.5,1,0.5,0.5,0.5,1","0.5,1,0.5,0.5,0.5,1,1,0.5,0.5","3","",""
"","html-keyboard-response","296","774407","0.0-296.0","3P4MQ7TPPYYDI1NVUBYWTQHDKO1BBN","A3QPVH0DRW0ZQV","3S1L4CQSFXRWQOWP2XFUSMS4AZDFAL","","null","<img src=""img/land4.png"" style=""width:200px; border:14px solid green;"">","null","","","","","","","","","",""
"","image-keyboard-response","297","775055","0.0-297.0","3P4MQ7TPPYYDI1NVUBYWTQHDKO1BBN","A3QPVH0DRW0ZQV","3S1L4CQSFXRWQOWP2XFUSMS4AZDFAL","","647.5","img/land5.png","74","647.8999999985099","1","0","2","2","1,0.5,0.5,0.5,1,0.5,0.5,0.5,1","0.5,1,0.5,0.5,0.5,1,1,0.5,0.5","3","",""
"","html-keyboard-response","298","775356","0.0-298.0","3P4MQ7TPPYYDI1NVUBYWTQHDKO1BBN","A3QPVH0DRW0ZQV","3S1L4CQSFXRWQOWP2XFUSMS4AZDFAL","","null","<img src=""img/land5.png"" style=""width:200px;border:14px solid red;"">","null","","","","","","","","","",""
"","image-keyboard-response","299","775912","0.0-299.0","3P4MQ7TPPYYDI1NVUBYWTQHDKO1BBN","A3QPVH0DRW0ZQV","3S1L4CQSFXRWQOWP2XFUSMS4AZDFAL","","555.6999999992549","img/land2.png","75","556.0999999977648","2","1","1","2","1,0.5,0.5,0.5,1,0.5,0.5,0.5,1","0.5,1,0.5,0.5,0.5,1,1,0.5,0.5","3","",""
"","html-keyboard-response","300","776213","0.0-300.0","3P4MQ7TPPYYDI1NVUBYWTQHDKO1BBN","A3QPVH0DRW0ZQV","3S1L4CQSFXRWQOWP2XFUSMS4AZDFAL","","null","<img src=""img/land2.png"" style=""width:200px; border:14px solid green;"">","null","","","","","","","","","",""
"","image-keyboard-response","301","776615","0.0-301.0","3P4MQ7TPPYYDI1NVUBYWTQHDKO1BBN","A3QPVH0DRW0ZQV","3S1L4CQSFXRWQOWP2XFUSMS4AZDFAL","","401.8999999985099","img/land2.png","75","402.29999999701977","2","1","1","2","1,0.5,0.5,0.5,1,0.5,0.5,0.5,1","0.5,1,0.5,0.5,0.5,1,1,0.5,0.5","3","",""
"","html-keyboard-response","302","776917","0.0-302.0","3P4MQ7TPPYYDI1NVUBYWTQHDKO1BBN","A3QPVH0DRW0ZQV","3S1L4CQSFXRWQOWP2XFUSMS4AZDFAL","","null","<img src=""img/land2.png"" style=""width:200px; border:14px solid green;"">","null","","","","","","","","","",""
"","image-keyboard-response","303","777175","0.0-303.0","3P4MQ7TPPYYDI1NVUBYWTQHDKO1BBN","A3QPVH0DRW0ZQV","3S1L4CQSFXRWQOWP2XFUSMS4AZDFAL","","257.5999999977648","img/land2.png","75","258","2","1","1","2","1,0.5,0.5,0.5,1,0.5,0.5,0.5,1","0.5,1,0.5,0.5,0.5,1,1,0.5,0.5","3","",""
"","html-keyboard-response","304","777476","0.0-304.0","3P4MQ7TPPYYDI1NVUBYWTQHDKO1BBN","A3QPVH0DRW0ZQV","3S1L4CQSFXRWQOWP2XFUSMS4AZDFAL","","null","<img src=""img/land2.png"" style=""width:200px; border:14px solid green;"">","null","","","","","","","","","",""
"","image-keyboard-response","305","777690","0.0-305.0","3P4MQ7TPPYYDI1NVUBYWTQHDKO1BBN","A3QPVH0DRW0ZQV","3S1L4CQSFXRWQOWP2XFUSMS4AZDFAL","","213.60000000149012","img/land2.png","75","214.10000000149012","2","1","1","2","1,0.5,0.5,0.5,1,0.5,0.5,0.5,1","0.5,1,0.5,0.5,0.5,1,1,0.5,0.5","3","",""
"","html-keyboard-response","306","777992","0.0-306.0","3P4MQ7TPPYYDI1NVUBYWTQHDKO1BBN","A3QPVH0DRW0ZQV","3S1L4CQSFXRWQOWP2XFUSMS4AZDFAL","","null","<img src=""img/land2.png"" style=""width:200px; border:14px solid green;"">","null","","","","","","","","","",""
"","image-keyboard-response","307","778097","0.0-307.0","3P4MQ7TPPYYDI1NVUBYWTQHDKO1BBN","A3QPVH0DRW0ZQV","3S1L4CQSFXRWQOWP2XFUSMS4AZDFAL","","104.10000000149012","img/land2.png","75","104.5","2","1","1","2","1,0.5,0.5,0.5,1,0.5,0.5,0.5,1","0.5,1,0.5,0.5,0.5,1,1,0.5,0.5","3","",""
"","html-keyboard-response","308","778399","0.0-308.0","3P4MQ7TPPYYDI1NVUBYWTQHDKO1BBN","A3QPVH0DRW0ZQV","3S1L4CQSFXRWQOWP2XFUSMS4AZDFAL","","null","<img src=""img/land2.png"" style=""width:200px; border:14px solid green;"">","null","","","","","","","","","",""
"","image-keyboard-response","309","778584","0.0-309.0","3P4MQ7TPPYYDI1NVUBYWTQHDKO1BBN","A3QPVH0DRW0ZQV","3S1L4CQSFXRWQOWP2XFUSMS4AZDFAL","","185","img/land4.png","75","185.40000000223517","2","1","3","2","1,0.5,0.5,0.5,1,0.5,0.5,0.5,1","0.5,1,0.5,0.5,0.5,1,1,0.5,0.5","3","",""
"","html-keyboard-response","310","778885","0.0-310.0","3P4MQ7TPPYYDI1NVUBYWTQHDKO1BBN","A3QPVH0DRW0ZQV","3S1L4CQSFXRWQOWP2XFUSMS4AZDFAL","","null","<img src=""img/land4.png"" style=""width:200px; border:14px solid green;"">","null","","","","","","","","","",""
"","image-keyboard-response","311","779569","0.0-311.0","3P4MQ7TPPYYDI1NVUBYWTQHDKO1BBN","A3QPVH0DRW0ZQV","3S1L4CQSFXRWQOWP2XFUSMS4AZDFAL","","683.5","img/land4.png","76","683.9000000022352","3","0","3","2","1,0.5,0.5,0.5,1,0.5,0.5,0.5,1","0.5,1,0.5,0.5,0.5,1,1,0.5,0.5","3","",""
"","html-keyboard-response","312","779870","0.0-312.0","3P4MQ7TPPYYDI1NVUBYWTQHDKO1BBN","A3QPVH0DRW0ZQV","3S1L4CQSFXRWQOWP2XFUSMS4AZDFAL","","null","<img src=""img/land4.png"" style=""width:200px;border:14px solid red;"">","null","","","","","","","","","",""
"","image-keyboard-response","313","780003","0.0-313.0","3P4MQ7TPPYYDI1NVUBYWTQHDKO1BBN","A3QPVH0DRW0ZQV","3S1L4CQSFXRWQOWP2XFUSMS4AZDFAL","","132.30000000074506","img/land4.png","75","132.60000000149012","2","0","3","2","1,0.5,0.5,0.5,1,0.5,0.5,0.5,1","0.5,1,0.5,0.5,0.5,1,1,0.5,0.5","3","",""
"","html-keyboard-response","314","780303","0.0-314.0","3P4MQ7TPPYYDI1NVUBYWTQHDKO1BBN","A3QPVH0DRW0ZQV","3S1L4CQSFXRWQOWP2XFUSMS4AZDFAL","","null","<img src=""img/land4.png"" style=""width:200px;border:14px solid red;"">","null","","","","","","","","","",""
"","image-keyboard-response","315","781015","0.0-315.0","3P4MQ7TPPYYDI1NVUBYWTQHDKO1BBN","A3QPVH0DRW0ZQV","3S1L4CQSFXRWQOWP2XFUSMS4AZDFAL","","711.7000000029802","img/land2.png","75","712.0999999977648","2","1","1","2","1,0.5,0.5,0.5,1,0.5,0.5,0.5,1","0.5,1,0.5,0.5,0.5,1,1,0.5,0.5","3","",""
"","html-keyboard-response","316","781317","0.0-316.0","3P4MQ7TPPYYDI1NVUBYWTQHDKO1BBN","A3QPVH0DRW0ZQV","3S1L4CQSFXRWQOWP2XFUSMS4AZDFAL","","null","<img src=""img/land2.png"" style=""width:200px; border:14px solid green;"">","null","","","","","","","","","",""
"","image-keyboard-response","317","782316","0.0-317.0","3P4MQ7TPPYYDI1NVUBYWTQHDKO1BBN","A3QPVH0DRW0ZQV","3S1L4CQSFXRWQOWP2XFUSMS4AZDFAL","","997.6999999992549","img/land5.png","74","998.1000000014901","1","0","2","2","1,0.5,0.5,0.5,1,0.5,0.5,0.5,1","0.5,1,0.5,0.5,0.5,1,1,0.5,0.5","3","",""
"","html-keyboard-response","318","782617","0.0-318.0","3P4MQ7TPPYYDI1NVUBYWTQHDKO1BBN","A3QPVH0DRW0ZQV","3S1L4CQSFXRWQOWP2XFUSMS4AZDFAL","","null","<img src=""img/land5.png"" style=""width:200px;border:14px solid red;"">","null","","","","","","","","","",""
"","image-keyboard-response","319","783052","0.0-319.0","3P4MQ7TPPYYDI1NVUBYWTQHDKO1BBN","A3QPVH0DRW0ZQV","3S1L4CQSFXRWQOWP2XFUSMS4AZDFAL","","434.0999999977648","img/land2.png","74","434.3999999985099","1","0","1","2","1,0.5,0.5,0.5,1,0.5,0.5,0.5,1","0.5,1,0.5,0.5,0.5,1,1,0.5,0.5","3","",""
"","html-keyboard-response","320","783352","0.0-320.0","3P4MQ7TPPYYDI1NVUBYWTQHDKO1BBN","A3QPVH0DRW0ZQV","3S1L4CQSFXRWQOWP2XFUSMS4AZDFAL","","null","<img src=""img/land2.png"" style=""width:200px;border:14px solid red;"">","null","","","","","","","","","",""
"","image-keyboard-response","321","783919","0.0-321.0","3P4MQ7TPPYYDI1NVUBYWTQHDKO1BBN","A3QPVH0DRW0ZQV","3S1L4CQSFXRWQOWP2XFUSMS4AZDFAL","","566.2999999970198","img/land2.png","75","566.6999999992549","2","1","1","2","1,0.5,0.5,0.5,1,0.5,0.5,0.5,1","0.5,1,0.5,0.5,0.5,1,1,0.5,0.5","3","",""
"","html-keyboard-response","322","784221","0.0-322.0","3P4MQ7TPPYYDI1NVUBYWTQHDKO1BBN","A3QPVH0DRW0ZQV","3S1L4CQSFXRWQOWP2XFUSMS4AZDFAL","","null","<img src=""img/land2.png"" style=""width:200px; border:14px solid green;"">","null","","","","","","","","","",""
"","image-keyboard-response","323","784892","0.0-323.0","3P4MQ7TPPYYDI1NVUBYWTQHDKO1BBN","A3QPVH0DRW0ZQV","3S1L4CQSFXRWQOWP2XFUSMS4AZDFAL","","670.6999999992549","img/land4.png","76","671","3","1","3","2","1,0.5,0.5,0.5,1,0.5,0.5,0.5,1","0.5,1,0.5,0.5,0.5,1,1,0.5,0.5","3","",""
"","html-keyboard-response","324","785193","0.0-324.0","3P4MQ7TPPYYDI1NVUBYWTQHDKO1BBN","A3QPVH0DRW0ZQV","3S1L4CQSFXRWQOWP2XFUSMS4AZDFAL","","null","<img src=""img/land4.png"" style=""width:200px; border:14px solid green;"">","null","","","","","","","","","",""
"","image-keyboard-response","325","785593","0.0-325.0","3P4MQ7TPPYYDI1NVUBYWTQHDKO1BBN","A3QPVH0DRW0ZQV","3S1L4CQSFXRWQOWP2XFUSMS4AZDFAL","","399.5","img/land4.png","76","399.80000000074506","3","0","3","2","1,0.5,0.5,0.5,1,0.5,0.5,0.5,1","0.5,1,0.5,0.5,0.5,1,1,0.5,0.5","3","",""
"","html-keyboard-response","326","785895","0.0-326.0","3P4MQ7TPPYYDI1NVUBYWTQHDKO1BBN","A3QPVH0DRW0ZQV","3S1L4CQSFXRWQOWP2XFUSMS4AZDFAL","","null","<img src=""img/land4.png"" style=""width:200px;border:14px solid red;"">","null","","","","","","","","","",""
"","image-keyboard-response","327","786499","0.0-327.0","3P4MQ7TPPYYDI1NVUBYWTQHDKO1BBN","A3QPVH0DRW0ZQV","3S1L4CQSFXRWQOWP2XFUSMS4AZDFAL","","603.1999999992549","img/land5.png","74","603.5","1","0","2","2","1,0.5,0.5,0.5,1,0.5,0.5,0.5,1","0.5,1,0.5,0.5,0.5,1,1,0.5,0.5","3","",""
"","html-keyboard-response","328","786799","0.0-328.0","3P4MQ7TPPYYDI1NVUBYWTQHDKO1BBN","A3QPVH0DRW0ZQV","3S1L4CQSFXRWQOWP2XFUSMS4AZDFAL","","null","<img src=""img/land5.png"" style=""width:200px;border:14px solid red;"">","null","","","","","","","","","",""
"","image-keyboard-response","329","787951","0.0-329.0","3P4MQ7TPPYYDI1NVUBYWTQHDKO1BBN","A3QPVH0DRW0ZQV","3S1L4CQSFXRWQOWP2XFUSMS4AZDFAL","","1151.199999999255","img/land4.png","76","1151.5999999977648","3","1","3","2","1,0.5,0.5,0.5,1,0.5,0.5,0.5,1","0.5,1,0.5,0.5,0.5,1,1,0.5,0.5","3","",""
"","html-keyboard-response","330","788253","0.0-330.0","3P4MQ7TPPYYDI1NVUBYWTQHDKO1BBN","A3QPVH0DRW0ZQV","3S1L4CQSFXRWQOWP2XFUSMS4AZDFAL","","null","<img src=""img/land4.png"" style=""width:200px; border:14px solid green;"">","null","","","","","","","","","",""
"","image-keyboard-response","331","788636","0.0-331.0","3P4MQ7TPPYYDI1NVUBYWTQHDKO1BBN","A3QPVH0DRW0ZQV","3S1L4CQSFXRWQOWP2XFUSMS4AZDFAL","","383.1000000014901","img/land4.png","76","383.6000000014901","3","0","3","2","1,0.5,0.5,0.5,1,0.5,0.5,0.5,1","0.5,1,0.5,0.5,0.5,1,1,0.5,0.5","3","",""
"","html-keyboard-response","332","788937","0.0-332.0","3P4MQ7TPPYYDI1NVUBYWTQHDKO1BBN","A3QPVH0DRW0ZQV","3S1L4CQSFXRWQOWP2XFUSMS4AZDFAL","","null","<img src=""img/land4.png"" style=""width:200px;border:14px solid red;"">","null","","","","","","","","","",""
"","image-keyboard-response","333","789494","0.0-333.0","3P4MQ7TPPYYDI1NVUBYWTQHDKO1BBN","A3QPVH0DRW0ZQV","3S1L4CQSFXRWQOWP2XFUSMS4AZDFAL","","556.5","img/land2.png","75","557","2","1","1","2","1,0.5,0.5,0.5,1,0.5,0.5,0.5,1","0.5,1,0.5,0.5,0.5,1,1,0.5,0.5","3","",""
"","html-keyboard-response","334","789795","0.0-334.0","3P4MQ7TPPYYDI1NVUBYWTQHDKO1BBN","A3QPVH0DRW0ZQV","3S1L4CQSFXRWQOWP2XFUSMS4AZDFAL","","null","<img src=""img/land2.png"" style=""width:200px; border:14px solid green;"">","null","","","","","","","","","",""
"","image-keyboard-response","335","790187","0.0-335.0","3P4MQ7TPPYYDI1NVUBYWTQHDKO1BBN","A3QPVH0DRW0ZQV","3S1L4CQSFXRWQOWP2XFUSMS4AZDFAL","","390.80000000074506","img/land2.png","75","391.1000000014901","2","1","1","2","1,0.5,0.5,0.5,1,0.5,0.5,0.5,1","0.5,1,0.5,0.5,0.5,1,1,0.5,0.5","3","",""
"","html-keyboard-response","336","790497","0.0-336.0","3P4MQ7TPPYYDI1NVUBYWTQHDKO1BBN","A3QPVH0DRW0ZQV","3S1L4CQSFXRWQOWP2XFUSMS4AZDFAL","","null","<img src=""img/land2.png"" style=""width:200px; border:14px solid green;"">","null","","","","","","","","","",""
"","image-keyboard-response","337","790983","0.0-337.0","3P4MQ7TPPYYDI1NVUBYWTQHDKO1BBN","A3QPVH0DRW0ZQV","3S1L4CQSFXRWQOWP2XFUSMS4AZDFAL","","485.69999999925494","img/land2.png","75","486.0999999977648","2","1","1","2","1,0.5,0.5,0.5,1,0.5,0.5,0.5,1","0.5,1,0.5,0.5,0.5,1,1,0.5,0.5","3","",""
"","html-keyboard-response","338","791284","0.0-338.0","3P4MQ7TPPYYDI1NVUBYWTQHDKO1BBN","A3QPVH0DRW0ZQV","3S1L4CQSFXRWQOWP2XFUSMS4AZDFAL","","null","<img src=""img/land2.png"" style=""width:200px; border:14px solid green;"">","null","","","","","","","","","",""
"","image-keyboard-response","339","791594","0.0-339.0","3P4MQ7TPPYYDI1NVUBYWTQHDKO1BBN","A3QPVH0DRW0ZQV","3S1L4CQSFXRWQOWP2XFUSMS4AZDFAL","","309.5","img/land2.png","75","309.8999999985099","2","1","1","2","1,0.5,0.5,0.5,1,0.5,0.5,0.5,1","0.5,1,0.5,0.5,0.5,1,1,0.5,0.5","3","",""
"","html-keyboard-response","340","791895","0.0-340.0","3P4MQ7TPPYYDI1NVUBYWTQHDKO1BBN","A3QPVH0DRW0ZQV","3S1L4CQSFXRWQOWP2XFUSMS4AZDFAL","","null","<img src=""img/land2.png"" style=""width:200px; border:14px solid green;"">","null","","","","","","","","","",""
"","image-keyboard-response","341","792528","0.0-341.0","3P4MQ7TPPYYDI1NVUBYWTQHDKO1BBN","A3QPVH0DRW0ZQV","3S1L4CQSFXRWQOWP2XFUSMS4AZDFAL","","632.2999999970198","img/land5.png","74","632.8000000007451","1","0","2","2","1,0.5,0.5,0.5,1,0.5,0.5,0.5,1","0.5,1,0.5,0.5,0.5,1,1,0.5,0.5","3","",""
"","html-keyboard-response","342","792829","0.0-342.0","3P4MQ7TPPYYDI1NVUBYWTQHDKO1BBN","A3QPVH0DRW0ZQV","3S1L4CQSFXRWQOWP2XFUSMS4AZDFAL","","null","<img src=""img/land5.png"" style=""width:200px;border:14px solid red;"">","null","","","","","","","","","",""
"","image-keyboard-response","343","794045","0.0-343.0","3P4MQ7TPPYYDI1NVUBYWTQHDKO1BBN","A3QPVH0DRW0ZQV","3S1L4CQSFXRWQOWP2XFUSMS4AZDFAL","","1215.4000000022352","img/land2.png","76","1215.800000000745","3","0","1","2","1,0.5,0.5,0.5,1,0.5,0.5,0.5,1","0.5,1,0.5,0.5,0.5,1,1,0.5,0.5","3","",""
"","html-keyboard-response","344","794346","0.0-344.0","3P4MQ7TPPYYDI1NVUBYWTQHDKO1BBN","A3QPVH0DRW0ZQV","3S1L4CQSFXRWQOWP2XFUSMS4AZDFAL","","null","<img src=""img/land2.png"" style=""width:200px;border:14px solid red;"">","null","","","","","","","","","",""
"","image-keyboard-response","345","794618","0.0-345.0","3P4MQ7TPPYYDI1NVUBYWTQHDKO1BBN","A3QPVH0DRW0ZQV","3S1L4CQSFXRWQOWP2XFUSMS4AZDFAL","","271.3999999985099","img/land5.png","75","271.80000000074506","2","0","2","2","1,0.5,0.5,0.5,1,0.5,0.5,0.5,1","0.5,1,0.5,0.5,0.5,1,1,0.5,0.5","3","",""
"","html-keyboard-response","346","794919","0.0-346.0","3P4MQ7TPPYYDI1NVUBYWTQHDKO1BBN","A3QPVH0DRW0ZQV","3S1L4CQSFXRWQOWP2XFUSMS4AZDFAL","","null","<img src=""img/land5.png"" style=""width:200px;border:14px solid red;"">","null","","","","","","","","","",""
"","image-keyboard-response","347","796384","0.0-347.0","3P4MQ7TPPYYDI1NVUBYWTQHDKO1BBN","A3QPVH0DRW0ZQV","3S1L4CQSFXRWQOWP2XFUSMS4AZDFAL","","1464.9000000022352","img/land2.png","75","1465.699999999255","2","1","1","2","1,0.5,0.5,0.5,1,0.5,0.5,0.5,1","0.5,1,0.5,0.5,0.5,1,1,0.5,0.5","3","",""
"","html-keyboard-response","348","796686","0.0-348.0","3P4MQ7TPPYYDI1NVUBYWTQHDKO1BBN","A3QPVH0DRW0ZQV","3S1L4CQSFXRWQOWP2XFUSMS4AZDFAL","","null","<img src=""img/land2.png"" style=""width:200px; border:14px solid green;"">","null","","","","","","","","","",""
"","image-keyboard-response","349","797121","0.0-349.0","3P4MQ7TPPYYDI1NVUBYWTQHDKO1BBN","A3QPVH0DRW0ZQV","3S1L4CQSFXRWQOWP2XFUSMS4AZDFAL","","435.5","img/land2.png","75","435.80000000074506","2","1","1","2","1,0.5,0.5,0.5,1,0.5,0.5,0.5,1","0.5,1,0.5,0.5,0.5,1,1,0.5,0.5","3","",""
"","html-keyboard-response","350","797423","0.0-350.0","3P4MQ7TPPYYDI1NVUBYWTQHDKO1BBN","A3QPVH0DRW0ZQV","3S1L4CQSFXRWQOWP2XFUSMS4AZDFAL","","null","<img src=""img/land2.png"" style=""width:200px; border:14px solid green;"">","null","","","","","","","","","",""
"","image-keyboard-response","351","797977","0.0-351.0","3P4MQ7TPPYYDI1NVUBYWTQHDKO1BBN","A3QPVH0DRW0ZQV","3S1L4CQSFXRWQOWP2XFUSMS4AZDFAL","","553.9000000022352","img/land2.png","75","554.3000000007451","2","1","1","2","1,0.5,0.5,0.5,1,0.5,0.5,0.5,1","0.5,1,0.5,0.5,0.5,1,1,0.5,0.5","3","",""
"","html-keyboard-response","352","798278","0.0-352.0","3P4MQ7TPPYYDI1NVUBYWTQHDKO1BBN","A3QPVH0DRW0ZQV","3S1L4CQSFXRWQOWP2XFUSMS4AZDFAL","","null","<img src=""img/land2.png"" style=""width:200px; border:14px solid green;"">","null","","","","","","","","","",""
"","image-keyboard-response","353","798871","0.0-353.0","3P4MQ7TPPYYDI1NVUBYWTQHDKO1BBN","A3QPVH0DRW0ZQV","3S1L4CQSFXRWQOWP2XFUSMS4AZDFAL","","592","img/land2.png","75","592.5","2","1","1","2","1,0.5,0.5,0.5,1,0.5,0.5,0.5,1","0.5,1,0.5,0.5,0.5,1,1,0.5,0.5","3","",""
"","html-keyboard-response","354","799172","0.0-354.0","3P4MQ7TPPYYDI1NVUBYWTQHDKO1BBN","A3QPVH0DRW0ZQV","3S1L4CQSFXRWQOWP2XFUSMS4AZDFAL","","null","<img src=""img/land2.png"" style=""width:200px; border:14px solid green;"">","null","","","","","","","","","",""
"","image-keyboard-response","355","799837","0.0-355.0","3P4MQ7TPPYYDI1NVUBYWTQHDKO1BBN","A3QPVH0DRW0ZQV","3S1L4CQSFXRWQOWP2XFUSMS4AZDFAL","","665.3000000007451","img/land4.png","76","665.6999999992549","3","1","3","2","1,0.5,0.5,0.5,1,0.5,0.5,0.5,1","0.5,1,0.5,0.5,0.5,1,1,0.5,0.5","3","",""
"","html-keyboard-response","356","800139","0.0-356.0","3P4MQ7TPPYYDI1NVUBYWTQHDKO1BBN","A3QPVH0DRW0ZQV","3S1L4CQSFXRWQOWP2XFUSMS4AZDFAL","","null","<img src=""img/land4.png"" style=""width:200px; border:14px solid green;"">","null","","","","","","","","","",""
"","image-keyboard-response","357","801381","0.0-357.0","3P4MQ7TPPYYDI1NVUBYWTQHDKO1BBN","A3QPVH0DRW0ZQV","3S1L4CQSFXRWQOWP2XFUSMS4AZDFAL","","1240.699999999255","img/land2.png","75","1241.1000000014901","2","1","1","2","1,0.5,0.5,0.5,1,0.5,0.5,0.5,1","0.5,1,0.5,0.5,0.5,1,1,0.5,0.5","3","",""
"","html-keyboard-response","358","801681","0.0-358.0","3P4MQ7TPPYYDI1NVUBYWTQHDKO1BBN","A3QPVH0DRW0ZQV","3S1L4CQSFXRWQOWP2XFUSMS4AZDFAL","","null","<img src=""img/land2.png"" style=""width:200px; border:14px solid green;"">","null","","","","","","","","","",""
"","image-keyboard-response","359","802344","0.0-359.0","3P4MQ7TPPYYDI1NVUBYWTQHDKO1BBN","A3QPVH0DRW0ZQV","3S1L4CQSFXRWQOWP2XFUSMS4AZDFAL","","662.1999999992549","img/land5.png","74","662.5999999977648","1","1","2","2","1,0.5,0.5,0.5,1,0.5,0.5,0.5,1","0.5,1,0.5,0.5,0.5,1,1,0.5,0.5","3","",""
"","html-keyboard-response","360","802644","0.0-360.0","3P4MQ7TPPYYDI1NVUBYWTQHDKO1BBN","A3QPVH0DRW0ZQV","3S1L4CQSFXRWQOWP2XFUSMS4AZDFAL","","null","<img src=""img/land5.png"" style=""width:200px; border:14px solid green;"">","null","","","","","","","","","",""
"","image-keyboard-response","361","803299","0.0-361.0","3P4MQ7TPPYYDI1NVUBYWTQHDKO1BBN","A3QPVH0DRW0ZQV","3S1L4CQSFXRWQOWP2XFUSMS4AZDFAL","","654.1000000014901","img/land2.png","75","654.5","2","1","1","2","1,0.5,0.5,0.5,1,0.5,0.5,0.5,1","0.5,1,0.5,0.5,0.5,1,1,0.5,0.5","3","",""
