"success","trial_type","trial_index","time_elapsed","internal_node_id","assignmentID","mturkID","hitID","view_history","rt","stimulus","key_press","reactionTime","a","r","s","cond","reward_cond","reward_cond_actual","reward_matrix_idx","responses","question_order"
"true","fullscreen","0","80739","0.0-0.0","3ZPBJO59KQNGOBO18ZZYAR8BJ06DHT","A3RJC9KTQ0U46B","3RBI0I35XEP26UEZY8S8UZLEA1IY3E","","","","","","","","","","","","","",""
"","instructions","1","219111","0.0-1.0","3ZPBJO59KQNGOBO18ZZYAR8BJ06DHT","A3RJC9KTQ0U46B","3RBI0I35XEP26UEZY8S8UZLEA1IY3E","[{""page_index"":0,""viewing_time"":120450.69999999553},{""page_index"":1,""viewing_time"":8723.80000000447},{""page_index"":2,""viewing_time"":2617.7999999970198},{""page_index"":3,""viewing_time"":2538.3000000044703},{""page_index"":4,""viewing_time"":1162.2999999970198},{""page_index"":5,""viewing_time"":1471.8999999985099},{""page_index"":6,""viewing_time"":1405.5}]","138371","","","","","","","","","","","",""
"","image-keyboard-response","2","220917","0.0-2.0","3ZPBJO59KQNGOBO18ZZYAR8BJ06DHT","A3RJC9KTQ0U46B","3RBI0I35XEP26UEZY8S8UZLEA1IY3E","","1804.1999999955297","img/land2.png","74","1806","1","0","1","2","0.8,0.2,0.2,0.2,0.8,0.2,0.2,0.2,0.8","0.2,0.8,0.2,0.2,0.2,0.8,0.8,0.2,0.2","3","",""
"","html-keyboard-response","3","221220","0.0-3.0","3ZPBJO59KQNGOBO18ZZYAR8BJ06DHT","A3RJC9KTQ0U46B","3RBI0I35XEP26UEZY8S8UZLEA1IY3E","","null","<img src=""img/land2.png"" style=""width:200px;border:14px solid red;"">","null","","","","","","","","","",""
"","image-keyboard-response","4","221796","0.0-4.0","3ZPBJO59KQNGOBO18ZZYAR8BJ06DHT","A3RJC9KTQ0U46B","3RBI0I35XEP26UEZY8S8UZLEA1IY3E","","574.6000000014901","img/land2.png","75","575.7000000029802","2","1","1","2","0.8,0.2,0.2,0.2,0.8,0.2,0.2,0.2,0.8","0.2,0.8,0.2,0.2,0.2,0.8,0.8,0.2,0.2","3","",""
"","html-keyboard-response","5","222099","0.0-5.0","3ZPBJO59KQNGOBO18ZZYAR8BJ06DHT","A3RJC9KTQ0U46B","3RBI0I35XEP26UEZY8S8UZLEA1IY3E","","null","<img src=""img/land2.png"" style=""width:200px; border:14px solid green;"">","null","","","","","","","","","",""
"","image-keyboard-response","6","222965","0.0-6.0","3ZPBJO59KQNGOBO18ZZYAR8BJ06DHT","A3RJC9KTQ0U46B","3RBI0I35XEP26UEZY8S8UZLEA1IY3E","","864.7999999970198","img/land2.png","75","865.5999999940395","2","1","1","2","0.8,0.2,0.2,0.2,0.8,0.2,0.2,0.2,0.8","0.2,0.8,0.2,0.2,0.2,0.8,0.8,0.2,0.2","3","",""
"","html-keyboard-response","7","223267","0.0-7.0","3ZPBJO59KQNGOBO18ZZYAR8BJ06DHT","A3RJC9KTQ0U46B","3RBI0I35XEP26UEZY8S8UZLEA1IY3E","","null","<img src=""img/land2.png"" style=""width:200px; border:14px solid green;"">","null","","","","","","","","","",""
"","image-keyboard-response","8","223645","0.0-8.0","3ZPBJO59KQNGOBO18ZZYAR8BJ06DHT","A3RJC9KTQ0U46B","3RBI0I35XEP26UEZY8S8UZLEA1IY3E","","377.19999999552965","img/land2.png","75","377.8999999985099","2","1","1","2","0.8,0.2,0.2,0.2,0.8,0.2,0.2,0.2,0.8","0.2,0.8,0.2,0.2,0.2,0.8,0.8,0.2,0.2","3","",""
"","html-keyboard-response","9","223947","0.0-9.0","3ZPBJO59KQNGOBO18ZZYAR8BJ06DHT","A3RJC9KTQ0U46B","3RBI0I35XEP26UEZY8S8UZLEA1IY3E","","null","<img src=""img/land2.png"" style=""width:200px; border:14px solid green;"">","null","","","","","","","","","",""
"","image-keyboard-response","10","224437","0.0-10.0","3ZPBJO59KQNGOBO18ZZYAR8BJ06DHT","A3RJC9KTQ0U46B","3RBI0I35XEP26UEZY8S8UZLEA1IY3E","","488.29999999701977","img/land1.png","76","489.6000000014901","3","0","2","2","0.8,0.2,0.2,0.2,0.8,0.2,0.2,0.2,0.8","0.2,0.8,0.2,0.2,0.2,0.8,0.8,0.2,0.2","3","",""
"","html-keyboard-response","11","224739","0.0-11.0","3ZPBJO59KQNGOBO18ZZYAR8BJ06DHT","A3RJC9KTQ0U46B","3RBI0I35XEP26UEZY8S8UZLEA1IY3E","","null","<img src=""img/land1.png"" style=""width:200px;border:14px solid red;"">","null","","","","","","","","","",""
"","image-keyboard-response","12","225517","0.0-12.0","3ZPBJO59KQNGOBO18ZZYAR8BJ06DHT","A3RJC9KTQ0U46B","3RBI0I35XEP26UEZY8S8UZLEA1IY3E","","777.3000000044703","img/land2.png","75","777.8999999985099","2","0","1","2","0.8,0.2,0.2,0.2,0.8,0.2,0.2,0.2,0.8","0.2,0.8,0.2,0.2,0.2,0.8,0.8,0.2,0.2","3","",""
"","html-keyboard-response","13","225819","0.0-13.0","3ZPBJO59KQNGOBO18ZZYAR8BJ06DHT","A3RJC9KTQ0U46B","3RBI0I35XEP26UEZY8S8UZLEA1IY3E","","null","<img src=""img/land2.png"" style=""width:200px;border:14px solid red;"">","null","","","","","","","","","",""
"","image-keyboard-response","14","226140","0.0-14.0","3ZPBJO59KQNGOBO18ZZYAR8BJ06DHT","A3RJC9KTQ0U46B","3RBI0I35XEP26UEZY8S8UZLEA1IY3E","","319.19999999552965","img/land2.png","75","320.30000000447035","2","1","1","2","0.8,0.2,0.2,0.2,0.8,0.2,0.2,0.2,0.8","0.2,0.8,0.2,0.2,0.2,0.8,0.8,0.2,0.2","3","",""
"","html-keyboard-response","15","226443","0.0-15.0","3ZPBJO59KQNGOBO18ZZYAR8BJ06DHT","A3RJC9KTQ0U46B","3RBI0I35XEP26UEZY8S8UZLEA1IY3E","","null","<img src=""img/land2.png"" style=""width:200px; border:14px solid green;"">","null","","","","","","","","","",""
"","image-keyboard-response","16","226757","0.0-16.0","3ZPBJO59KQNGOBO18ZZYAR8BJ06DHT","A3RJC9KTQ0U46B","3RBI0I35XEP26UEZY8S8UZLEA1IY3E","","312","img/land2.png","75","313.20000000298023","2","1","1","2","0.8,0.2,0.2,0.2,0.8,0.2,0.2,0.2,0.8","0.2,0.8,0.2,0.2,0.2,0.8,0.8,0.2,0.2","3","",""
"","html-keyboard-response","17","227058","0.0-17.0","3ZPBJO59KQNGOBO18ZZYAR8BJ06DHT","A3RJC9KTQ0U46B","3RBI0I35XEP26UEZY8S8UZLEA1IY3E","","null","<img src=""img/land2.png"" style=""width:200px; border:14px solid green;"">","null","","","","","","","","","",""
"","image-keyboard-response","18","227342","0.0-18.0","3ZPBJO59KQNGOBO18ZZYAR8BJ06DHT","A3RJC9KTQ0U46B","3RBI0I35XEP26UEZY8S8UZLEA1IY3E","","282.30000000447035","img/land2.png","75","282.90000000596046","2","1","1","2","0.8,0.2,0.2,0.2,0.8,0.2,0.2,0.2,0.8","0.2,0.8,0.2,0.2,0.2,0.8,0.8,0.2,0.2","3","",""
"","html-keyboard-response","19","227643","0.0-19.0","3ZPBJO59KQNGOBO18ZZYAR8BJ06DHT","A3RJC9KTQ0U46B","3RBI0I35XEP26UEZY8S8UZLEA1IY3E","","null","<img src=""img/land2.png"" style=""width:200px; border:14px solid green;"">","null","","","","","","","","","",""
"","image-keyboard-response","20","228556","0.0-20.0","3ZPBJO59KQNGOBO18ZZYAR8BJ06DHT","A3RJC9KTQ0U46B","3RBI0I35XEP26UEZY8S8UZLEA1IY3E","","912.1000000014901","img/land5.png","76","912.9000000059605","3","1","3","2","0.8,0.2,0.2,0.2,0.8,0.2,0.2,0.2,0.8","0.2,0.8,0.2,0.2,0.2,0.8,0.8,0.2,0.2","3","",""
"","html-keyboard-response","21","228858","0.0-21.0","3ZPBJO59KQNGOBO18ZZYAR8BJ06DHT","A3RJC9KTQ0U46B","3RBI0I35XEP26UEZY8S8UZLEA1IY3E","","null","<img src=""img/land5.png"" style=""width:200px; border:14px solid green;"">","null","","","","","","","","","",""
"","image-keyboard-response","22","229821","0.0-22.0","3ZPBJO59KQNGOBO18ZZYAR8BJ06DHT","A3RJC9KTQ0U46B","3RBI0I35XEP26UEZY8S8UZLEA1IY3E","","962","img/land2.png","76","962.8999999985099","3","0","1","2","0.8,0.2,0.2,0.2,0.8,0.2,0.2,0.2,0.8","0.2,0.8,0.2,0.2,0.2,0.8,0.8,0.2,0.2","3","",""
"","html-keyboard-response","23","230132","0.0-23.0","3ZPBJO59KQNGOBO18ZZYAR8BJ06DHT","A3RJC9KTQ0U46B","3RBI0I35XEP26UEZY8S8UZLEA1IY3E","","null","<img src=""img/land2.png"" style=""width:200px;border:14px solid red;"">","null","","","","","","","","","",""
"","image-keyboard-response","24","230348","0.0-24.0","3ZPBJO59KQNGOBO18ZZYAR8BJ06DHT","A3RJC9KTQ0U46B","3RBI0I35XEP26UEZY8S8UZLEA1IY3E","","215.5","img/land5.png","75","216.40000000596046","2","0","3","2","0.8,0.2,0.2,0.2,0.8,0.2,0.2,0.2,0.8","0.2,0.8,0.2,0.2,0.2,0.8,0.8,0.2,0.2","3","",""
"","html-keyboard-response","25","230650","0.0-25.0","3ZPBJO59KQNGOBO18ZZYAR8BJ06DHT","A3RJC9KTQ0U46B","3RBI0I35XEP26UEZY8S8UZLEA1IY3E","","null","<img src=""img/land5.png"" style=""width:200px;border:14px solid red;"">","null","","","","","","","","","",""
"","image-keyboard-response","26","231005","0.0-26.0","3ZPBJO59KQNGOBO18ZZYAR8BJ06DHT","A3RJC9KTQ0U46B","3RBI0I35XEP26UEZY8S8UZLEA1IY3E","","353.29999999701977","img/land5.png","74","354.1000000014901","1","1","3","2","0.8,0.2,0.2,0.2,0.8,0.2,0.2,0.2,0.8","0.2,0.8,0.2,0.2,0.2,0.8,0.8,0.2,0.2","3","",""
"","html-keyboard-response","27","231306","0.0-27.0","3ZPBJO59KQNGOBO18ZZYAR8BJ06DHT","A3RJC9KTQ0U46B","3RBI0I35XEP26UEZY8S8UZLEA1IY3E","","null","<img src=""img/land5.png"" style=""width:200px; border:14px solid green;"">","null","","","","","","","","","",""
"","image-keyboard-response","28","232149","0.0-28.0","3ZPBJO59KQNGOBO18ZZYAR8BJ06DHT","A3RJC9KTQ0U46B","3RBI0I35XEP26UEZY8S8UZLEA1IY3E","","841.7000000029802","img/land1.png","76","842.5","3","1","2","2","0.8,0.2,0.2,0.2,0.8,0.2,0.2,0.2,0.8","0.2,0.8,0.2,0.2,0.2,0.8,0.8,0.2,0.2","3","",""
"","html-keyboard-response","29","232451","0.0-29.0","3ZPBJO59KQNGOBO18ZZYAR8BJ06DHT","A3RJC9KTQ0U46B","3RBI0I35XEP26UEZY8S8UZLEA1IY3E","","null","<img src=""img/land1.png"" style=""width:200px; border:14px solid green;"">","null","","","","","","","","","",""
"","image-keyboard-response","30","232900","0.0-30.0","3ZPBJO59KQNGOBO18ZZYAR8BJ06DHT","A3RJC9KTQ0U46B","3RBI0I35XEP26UEZY8S8UZLEA1IY3E","","448.69999999552965","img/land2.png","75","449.29999999701977","2","1","1","2","0.8,0.2,0.2,0.2,0.8,0.2,0.2,0.2,0.8","0.2,0.8,0.2,0.2,0.2,0.8,0.8,0.2,0.2","3","",""
"","html-keyboard-response","31","233209","0.0-31.0","3ZPBJO59KQNGOBO18ZZYAR8BJ06DHT","A3RJC9KTQ0U46B","3RBI0I35XEP26UEZY8S8UZLEA1IY3E","","null","<img src=""img/land2.png"" style=""width:200px; border:14px solid green;"">","null","","","","","","","","","",""
"","image-keyboard-response","32","233501","0.0-32.0","3ZPBJO59KQNGOBO18ZZYAR8BJ06DHT","A3RJC9KTQ0U46B","3RBI0I35XEP26UEZY8S8UZLEA1IY3E","","289.5","img/land2.png","75","290.69999999552965","2","1","1","2","0.8,0.2,0.2,0.2,0.8,0.2,0.2,0.2,0.8","0.2,0.8,0.2,0.2,0.2,0.8,0.8,0.2,0.2","3","",""
"","html-keyboard-response","33","233803","0.0-33.0","3ZPBJO59KQNGOBO18ZZYAR8BJ06DHT","A3RJC9KTQ0U46B","3RBI0I35XEP26UEZY8S8UZLEA1IY3E","","null","<img src=""img/land2.png"" style=""width:200px; border:14px solid green;"">","null","","","","","","","","","",""
"","image-keyboard-response","34","234341","0.0-34.0","3ZPBJO59KQNGOBO18ZZYAR8BJ06DHT","A3RJC9KTQ0U46B","3RBI0I35XEP26UEZY8S8UZLEA1IY3E","","536.1000000014901","img/land5.png","76","536.7000000029802","3","1","3","2","0.8,0.2,0.2,0.2,0.8,0.2,0.2,0.2,0.8","0.2,0.8,0.2,0.2,0.2,0.8,0.8,0.2,0.2","3","",""
"","html-keyboard-response","35","234643","0.0-35.0","3ZPBJO59KQNGOBO18ZZYAR8BJ06DHT","A3RJC9KTQ0U46B","3RBI0I35XEP26UEZY8S8UZLEA1IY3E","","null","<img src=""img/land5.png"" style=""width:200px; border:14px solid green;"">","null","","","","","","","","","",""
"","image-keyboard-response","36","234972","0.0-36.0","3ZPBJO59KQNGOBO18ZZYAR8BJ06DHT","A3RJC9KTQ0U46B","3RBI0I35XEP26UEZY8S8UZLEA1IY3E","","328.69999999552965","img/land5.png","76","329.5","3","0","3","2","0.8,0.2,0.2,0.2,0.8,0.2,0.2,0.2,0.8","0.2,0.8,0.2,0.2,0.2,0.8,0.8,0.2,0.2","3","",""
"","html-keyboard-response","37","235275","0.0-37.0","3ZPBJO59KQNGOBO18ZZYAR8BJ06DHT","A3RJC9KTQ0U46B","3RBI0I35XEP26UEZY8S8UZLEA1IY3E","","null","<img src=""img/land5.png"" style=""width:200px;border:14px solid red;"">","null","","","","","","","","","",""
"","image-keyboard-response","38","235805","0.0-38.0","3ZPBJO59KQNGOBO18ZZYAR8BJ06DHT","A3RJC9KTQ0U46B","3RBI0I35XEP26UEZY8S8UZLEA1IY3E","","528.6000000014901","img/land2.png","75","529.5999999940395","2","1","1","2","0.8,0.2,0.2,0.2,0.8,0.2,0.2,0.2,0.8","0.2,0.8,0.2,0.2,0.2,0.8,0.8,0.2,0.2","3","",""
"","html-keyboard-response","39","236106","0.0-39.0","3ZPBJO59KQNGOBO18ZZYAR8BJ06DHT","A3RJC9KTQ0U46B","3RBI0I35XEP26UEZY8S8UZLEA1IY3E","","null","<img src=""img/land2.png"" style=""width:200px; border:14px solid green;"">","null","","","","","","","","","",""
"","image-keyboard-response","40","236276","0.0-40.0","3ZPBJO59KQNGOBO18ZZYAR8BJ06DHT","A3RJC9KTQ0U46B","3RBI0I35XEP26UEZY8S8UZLEA1IY3E","","169.20000000298023","img/land2.png","75","170","2","1","1","2","0.8,0.2,0.2,0.2,0.8,0.2,0.2,0.2,0.8","0.2,0.8,0.2,0.2,0.2,0.8,0.8,0.2,0.2","3","",""
"","html-keyboard-response","41","236578","0.0-41.0","3ZPBJO59KQNGOBO18ZZYAR8BJ06DHT","A3RJC9KTQ0U46B","3RBI0I35XEP26UEZY8S8UZLEA1IY3E","","null","<img src=""img/land2.png"" style=""width:200px; border:14px solid green;"">","null","","","","","","","","","",""
"","image-keyboard-response","42","236908","0.0-42.0","3ZPBJO59KQNGOBO18ZZYAR8BJ06DHT","A3RJC9KTQ0U46B","3RBI0I35XEP26UEZY8S8UZLEA1IY3E","","329.1000000014901","img/land2.png","75","329.80000000447035","2","1","1","2","0.8,0.2,0.2,0.2,0.8,0.2,0.2,0.2,0.8","0.2,0.8,0.2,0.2,0.2,0.8,0.8,0.2,0.2","3","",""
"","html-keyboard-response","43","237210","0.0-43.0","3ZPBJO59KQNGOBO18ZZYAR8BJ06DHT","A3RJC9KTQ0U46B","3RBI0I35XEP26UEZY8S8UZLEA1IY3E","","null","<img src=""img/land2.png"" style=""width:200px; border:14px solid green;"">","null","","","","","","","","","",""
"","image-keyboard-response","44","237468","0.0-44.0","3ZPBJO59KQNGOBO18ZZYAR8BJ06DHT","A3RJC9KTQ0U46B","3RBI0I35XEP26UEZY8S8UZLEA1IY3E","","257.3999999985099","img/land2.png","75","258.1000000014901","2","0","1","2","0.8,0.2,0.2,0.2,0.8,0.2,0.2,0.2,0.8","0.2,0.8,0.2,0.2,0.2,0.8,0.8,0.2,0.2","3","",""
"","html-keyboard-response","45","237769","0.0-45.0","3ZPBJO59KQNGOBO18ZZYAR8BJ06DHT","A3RJC9KTQ0U46B","3RBI0I35XEP26UEZY8S8UZLEA1IY3E","","null","<img src=""img/land2.png"" style=""width:200px;border:14px solid red;"">","null","","","","","","","","","",""
"","image-keyboard-response","46","237884","0.0-46.0","3ZPBJO59KQNGOBO18ZZYAR8BJ06DHT","A3RJC9KTQ0U46B","3RBI0I35XEP26UEZY8S8UZLEA1IY3E","","113.30000000447035","img/land2.png","75","114.19999999552965","2","1","1","2","0.8,0.2,0.2,0.2,0.8,0.2,0.2,0.2,0.8","0.2,0.8,0.2,0.2,0.2,0.8,0.8,0.2,0.2","3","",""
"","html-keyboard-response","47","238187","0.0-47.0","3ZPBJO59KQNGOBO18ZZYAR8BJ06DHT","A3RJC9KTQ0U46B","3RBI0I35XEP26UEZY8S8UZLEA1IY3E","","null","<img src=""img/land2.png"" style=""width:200px; border:14px solid green;"">","null","","","","","","","","","",""
"","image-keyboard-response","48","238237","0.0-48.0","3ZPBJO59KQNGOBO18ZZYAR8BJ06DHT","A3RJC9KTQ0U46B","3RBI0I35XEP26UEZY8S8UZLEA1IY3E","","48.399999998509884","img/land2.png","74","49.20000000298023","1","1","1","2","0.8,0.2,0.2,0.2,0.8,0.2,0.2,0.2,0.8","0.2,0.8,0.2,0.2,0.2,0.8,0.8,0.2,0.2","3","",""
"","html-keyboard-response","49","238539","0.0-49.0","3ZPBJO59KQNGOBO18ZZYAR8BJ06DHT","A3RJC9KTQ0U46B","3RBI0I35XEP26UEZY8S8UZLEA1IY3E","","null","<img src=""img/land2.png"" style=""width:200px; border:14px solid green;"">","null","","","","","","","","","",""
"","image-keyboard-response","50","238917","0.0-50.0","3ZPBJO59KQNGOBO18ZZYAR8BJ06DHT","A3RJC9KTQ0U46B","3RBI0I35XEP26UEZY8S8UZLEA1IY3E","","376.59999999403954","img/land2.png","74","377.6000000014901","1","0","1","2","0.8,0.2,0.2,0.2,0.8,0.2,0.2,0.2,0.8","0.2,0.8,0.2,0.2,0.2,0.8,0.8,0.2,0.2","3","",""
"","html-keyboard-response","51","239219","0.0-51.0","3ZPBJO59KQNGOBO18ZZYAR8BJ06DHT","A3RJC9KTQ0U46B","3RBI0I35XEP26UEZY8S8UZLEA1IY3E","","null","<img src=""img/land2.png"" style=""width:200px;border:14px solid red;"">","null","","","","","","","","","",""
"","image-keyboard-response","52","239333","0.0-52.0","3ZPBJO59KQNGOBO18ZZYAR8BJ06DHT","A3RJC9KTQ0U46B","3RBI0I35XEP26UEZY8S8UZLEA1IY3E","","112.60000000149012","img/land5.png","75","113.40000000596046","2","0","3","2","0.8,0.2,0.2,0.2,0.8,0.2,0.2,0.2,0.8","0.2,0.8,0.2,0.2,0.2,0.8,0.8,0.2,0.2","3","",""
"","html-keyboard-response","53","239634","0.0-53.0","3ZPBJO59KQNGOBO18ZZYAR8BJ06DHT","A3RJC9KTQ0U46B","3RBI0I35XEP26UEZY8S8UZLEA1IY3E","","null","<img src=""img/land5.png"" style=""width:200px;border:14px solid red;"">","null","","","","","","","","","",""
"","image-keyboard-response","54","240125","0.0-54.0","3ZPBJO59KQNGOBO18ZZYAR8BJ06DHT","A3RJC9KTQ0U46B","3RBI0I35XEP26UEZY8S8UZLEA1IY3E","","488.5","img/land2.png","76","489.20000000298023","3","1","1","2","0.8,0.2,0.2,0.2,0.8,0.2,0.2,0.2,0.8","0.2,0.8,0.2,0.2,0.2,0.8,0.8,0.2,0.2","3","",""
"","html-keyboard-response","55","240427","0.0-55.0","3ZPBJO59KQNGOBO18ZZYAR8BJ06DHT","A3RJC9KTQ0U46B","3RBI0I35XEP26UEZY8S8UZLEA1IY3E","","null","<img src=""img/land2.png"" style=""width:200px; border:14px solid green;"">","null","","","","","","","","","",""
"","image-keyboard-response","56","240501","0.0-56.0","3ZPBJO59KQNGOBO18ZZYAR8BJ06DHT","A3RJC9KTQ0U46B","3RBI0I35XEP26UEZY8S8UZLEA1IY3E","","72.79999999701977","img/land2.png","76","73.60000000149012","3","0","1","2","0.8,0.2,0.2,0.2,0.8,0.2,0.2,0.2,0.8","0.2,0.8,0.2,0.2,0.2,0.8,0.8,0.2,0.2","3","",""
"","html-keyboard-response","57","240802","0.0-57.0","3ZPBJO59KQNGOBO18ZZYAR8BJ06DHT","A3RJC9KTQ0U46B","3RBI0I35XEP26UEZY8S8UZLEA1IY3E","","null","<img src=""img/land2.png"" style=""width:200px;border:14px solid red;"">","null","","","","","","","","","",""
"","image-keyboard-response","58","240989","0.0-58.0","3ZPBJO59KQNGOBO18ZZYAR8BJ06DHT","A3RJC9KTQ0U46B","3RBI0I35XEP26UEZY8S8UZLEA1IY3E","","185","img/land5.png","75","186.10000000149012","2","1","3","2","0.8,0.2,0.2,0.2,0.8,0.2,0.2,0.2,0.8","0.2,0.8,0.2,0.2,0.2,0.8,0.8,0.2,0.2","3","",""
"","html-keyboard-response","59","241290","0.0-59.0","3ZPBJO59KQNGOBO18ZZYAR8BJ06DHT","A3RJC9KTQ0U46B","3RBI0I35XEP26UEZY8S8UZLEA1IY3E","","null","<img src=""img/land5.png"" style=""width:200px; border:14px solid green;"">","null","","","","","","","","","",""
"","image-keyboard-response","60","241813","0.0-60.0","3ZPBJO59KQNGOBO18ZZYAR8BJ06DHT","A3RJC9KTQ0U46B","3RBI0I35XEP26UEZY8S8UZLEA1IY3E","","521.3999999985099","img/land1.png","76","522.0999999940395","3","1","2","2","0.8,0.2,0.2,0.2,0.8,0.2,0.2,0.2,0.8","0.2,0.8,0.2,0.2,0.2,0.8,0.8,0.2,0.2","3","",""
"","html-keyboard-response","61","242114","0.0-61.0","3ZPBJO59KQNGOBO18ZZYAR8BJ06DHT","A3RJC9KTQ0U46B","3RBI0I35XEP26UEZY8S8UZLEA1IY3E","","null","<img src=""img/land1.png"" style=""width:200px; border:14px solid green;"">","null","","","","","","","","","",""
"","image-keyboard-response","62","242333","0.0-62.0","3ZPBJO59KQNGOBO18ZZYAR8BJ06DHT","A3RJC9KTQ0U46B","3RBI0I35XEP26UEZY8S8UZLEA1IY3E","","217.40000000596046","img/land2.png","75","218","2","0","1","2","0.8,0.2,0.2,0.2,0.8,0.2,0.2,0.2,0.8","0.2,0.8,0.2,0.2,0.2,0.8,0.8,0.2,0.2","3","",""
"","html-keyboard-response","63","242635","0.0-63.0","3ZPBJO59KQNGOBO18ZZYAR8BJ06DHT","A3RJC9KTQ0U46B","3RBI0I35XEP26UEZY8S8UZLEA1IY3E","","null","<img src=""img/land2.png"" style=""width:200px;border:14px solid red;"">","null","","","","","","","","","",""
"","image-keyboard-response","64","242948","0.0-64.0","3ZPBJO59KQNGOBO18ZZYAR8BJ06DHT","A3RJC9KTQ0U46B","3RBI0I35XEP26UEZY8S8UZLEA1IY3E","","312.59999999403954","img/land2.png","76","313.29999999701977","3","1","1","2","0.8,0.2,0.2,0.2,0.8,0.2,0.2,0.2,0.8","0.2,0.8,0.2,0.2,0.2,0.8,0.8,0.2,0.2","3","",""
"","html-keyboard-response","65","243250","0.0-65.0","3ZPBJO59KQNGOBO18ZZYAR8BJ06DHT","A3RJC9KTQ0U46B","3RBI0I35XEP26UEZY8S8UZLEA1IY3E","","null","<img src=""img/land2.png"" style=""width:200px; border:14px solid green;"">","null","","","","","","","","","",""
"","image-keyboard-response","66","243260","0.0-66.0","3ZPBJO59KQNGOBO18ZZYAR8BJ06DHT","A3RJC9KTQ0U46B","3RBI0I35XEP26UEZY8S8UZLEA1IY3E","","9.199999995529652","img/land2.png","76","10","3","0","1","2","0.8,0.2,0.2,0.2,0.8,0.2,0.2,0.2,0.8","0.2,0.8,0.2,0.2,0.2,0.8,0.8,0.2,0.2","3","",""
"","html-keyboard-response","67","243562","0.0-67.0","3ZPBJO59KQNGOBO18ZZYAR8BJ06DHT","A3RJC9KTQ0U46B","3RBI0I35XEP26UEZY8S8UZLEA1IY3E","","null","<img src=""img/land2.png"" style=""width:200px;border:14px solid red;"">","null","","","","","","","","","",""
"","image-keyboard-response","68","243637","0.0-68.0","3ZPBJO59KQNGOBO18ZZYAR8BJ06DHT","A3RJC9KTQ0U46B","3RBI0I35XEP26UEZY8S8UZLEA1IY3E","","74.09999999403954","img/land2.png","76","74.80000000447035","3","0","1","2","0.8,0.2,0.2,0.2,0.8,0.2,0.2,0.2,0.8","0.2,0.8,0.2,0.2,0.2,0.8,0.8,0.2,0.2","3","",""
"","html-keyboard-response","69","243939","0.0-69.0","3ZPBJO59KQNGOBO18ZZYAR8BJ06DHT","A3RJC9KTQ0U46B","3RBI0I35XEP26UEZY8S8UZLEA1IY3E","","null","<img src=""img/land2.png"" style=""width:200px;border:14px solid red;"">","null","","","","","","","","","",""
"","image-keyboard-response","70","244037","0.0-70.0","3ZPBJO59KQNGOBO18ZZYAR8BJ06DHT","A3RJC9KTQ0U46B","3RBI0I35XEP26UEZY8S8UZLEA1IY3E","","96.70000000298023","img/land1.png","75","97.30000000447035","2","0","2","2","0.8,0.2,0.2,0.2,0.8,0.2,0.2,0.2,0.8","0.2,0.8,0.2,0.2,0.2,0.8,0.8,0.2,0.2","3","",""
"","html-keyboard-response","71","244338","0.0-71.0","3ZPBJO59KQNGOBO18ZZYAR8BJ06DHT","A3RJC9KTQ0U46B","3RBI0I35XEP26UEZY8S8UZLEA1IY3E","","null","<img src=""img/land1.png"" style=""width:200px;border:14px solid red;"">","null","","","","","","","","","",""
"","image-keyboard-response","72","244613","0.0-72.0","3ZPBJO59KQNGOBO18ZZYAR8BJ06DHT","A3RJC9KTQ0U46B","3RBI0I35XEP26UEZY8S8UZLEA1IY3E","","273.5","img/land2.png","74","274.29999999701977","1","0","1","2","0.8,0.2,0.2,0.2,0.8,0.2,0.2,0.2,0.8","0.2,0.8,0.2,0.2,0.2,0.8,0.8,0.2,0.2","3","",""
"","html-keyboard-response","73","244925","0.0-73.0","3ZPBJO59KQNGOBO18ZZYAR8BJ06DHT","A3RJC9KTQ0U46B","3RBI0I35XEP26UEZY8S8UZLEA1IY3E","","null","<img src=""img/land2.png"" style=""width:200px;border:14px solid red;"">","null","","","","","","","","","",""
"","image-keyboard-response","74","245124","0.0-74.0","3ZPBJO59KQNGOBO18ZZYAR8BJ06DHT","A3RJC9KTQ0U46B","3RBI0I35XEP26UEZY8S8UZLEA1IY3E","","198.60000000149012","img/land2.png","75","199.5","2","1","1","2","0.8,0.2,0.2,0.2,0.8,0.2,0.2,0.2,0.8","0.2,0.8,0.2,0.2,0.2,0.8,0.8,0.2,0.2","3","",""
"","html-keyboard-response","75","245427","0.0-75.0","3ZPBJO59KQNGOBO18ZZYAR8BJ06DHT","A3RJC9KTQ0U46B","3RBI0I35XEP26UEZY8S8UZLEA1IY3E","","null","<img src=""img/land2.png"" style=""width:200px; border:14px solid green;"">","null","","","","","","","","","",""
"","image-keyboard-response","76","245605","0.0-76.0","3ZPBJO59KQNGOBO18ZZYAR8BJ06DHT","A3RJC9KTQ0U46B","3RBI0I35XEP26UEZY8S8UZLEA1IY3E","","176.80000000447035","img/land5.png","75","177.70000000298023","2","0","3","2","0.8,0.2,0.2,0.2,0.8,0.2,0.2,0.2,0.8","0.2,0.8,0.2,0.2,0.2,0.8,0.8,0.2,0.2","3","",""
"","html-keyboard-response","77","245907","0.0-77.0","3ZPBJO59KQNGOBO18ZZYAR8BJ06DHT","A3RJC9KTQ0U46B","3RBI0I35XEP26UEZY8S8UZLEA1IY3E","","null","<img src=""img/land5.png"" style=""width:200px;border:14px solid red;"">","null","","","","","","","","","",""
"","image-keyboard-response","78","246421","0.0-78.0","3ZPBJO59KQNGOBO18ZZYAR8BJ06DHT","A3RJC9KTQ0U46B","3RBI0I35XEP26UEZY8S8UZLEA1IY3E","","512.6000000014901","img/land2.png","75","513.6999999955297","2","1","1","2","0.8,0.2,0.2,0.2,0.8,0.2,0.2,0.2,0.8","0.2,0.8,0.2,0.2,0.2,0.8,0.8,0.2,0.2","3","",""
"","html-keyboard-response","79","246728","0.0-79.0","3ZPBJO59KQNGOBO18ZZYAR8BJ06DHT","A3RJC9KTQ0U46B","3RBI0I35XEP26UEZY8S8UZLEA1IY3E","","null","<img src=""img/land2.png"" style=""width:200px; border:14px solid green;"">","null","","","","","","","","","",""
"","image-keyboard-response","80","246989","0.0-80.0","3ZPBJO59KQNGOBO18ZZYAR8BJ06DHT","A3RJC9KTQ0U46B","3RBI0I35XEP26UEZY8S8UZLEA1IY3E","","258.6000000014901","img/land2.png","75","259.40000000596046","2","1","1","2","0.8,0.2,0.2,0.2,0.8,0.2,0.2,0.2,0.8","0.2,0.8,0.2,0.2,0.2,0.8,0.8,0.2,0.2","3","",""
"","html-keyboard-response","81","247291","0.0-81.0","3ZPBJO59KQNGOBO18ZZYAR8BJ06DHT","A3RJC9KTQ0U46B","3RBI0I35XEP26UEZY8S8UZLEA1IY3E","","null","<img src=""img/land2.png"" style=""width:200px; border:14px solid green;"">","null","","","","","","","","","",""
"","image-keyboard-response","82","247573","0.0-82.0","3ZPBJO59KQNGOBO18ZZYAR8BJ06DHT","A3RJC9KTQ0U46B","3RBI0I35XEP26UEZY8S8UZLEA1IY3E","","281","img/land2.png","75","281.5","2","0","1","2","0.8,0.2,0.2,0.2,0.8,0.2,0.2,0.2,0.8","0.2,0.8,0.2,0.2,0.2,0.8,0.8,0.2,0.2","3","",""
"","html-keyboard-response","83","247887","0.0-83.0","3ZPBJO59KQNGOBO18ZZYAR8BJ06DHT","A3RJC9KTQ0U46B","3RBI0I35XEP26UEZY8S8UZLEA1IY3E","","null","<img src=""img/land2.png"" style=""width:200px;border:14px solid red;"">","null","","","","","","","","","",""
"","image-keyboard-response","84","248293","0.0-84.0","3ZPBJO59KQNGOBO18ZZYAR8BJ06DHT","A3RJC9KTQ0U46B","3RBI0I35XEP26UEZY8S8UZLEA1IY3E","","404.30000000447035","img/land2.png","75","405.29999999701977","2","1","1","2","0.8,0.2,0.2,0.2,0.8,0.2,0.2,0.2,0.8","0.2,0.8,0.2,0.2,0.2,0.8,0.8,0.2,0.2","3","",""
"","html-keyboard-response","85","248595","0.0-85.0","3ZPBJO59KQNGOBO18ZZYAR8BJ06DHT","A3RJC9KTQ0U46B","3RBI0I35XEP26UEZY8S8UZLEA1IY3E","","null","<img src=""img/land2.png"" style=""width:200px; border:14px solid green;"">","null","","","","","","","","","",""
"","image-keyboard-response","86","249317","0.0-86.0","3ZPBJO59KQNGOBO18ZZYAR8BJ06DHT","A3RJC9KTQ0U46B","3RBI0I35XEP26UEZY8S8UZLEA1IY3E","","720.7999999970198","img/land1.png","76","721.5","3","1","2","2","0.8,0.2,0.2,0.2,0.8,0.2,0.2,0.2,0.8","0.2,0.8,0.2,0.2,0.2,0.8,0.8,0.2,0.2","3","",""
"","html-keyboard-response","87","249621","0.0-87.0","3ZPBJO59KQNGOBO18ZZYAR8BJ06DHT","A3RJC9KTQ0U46B","3RBI0I35XEP26UEZY8S8UZLEA1IY3E","","null","<img src=""img/land1.png"" style=""width:200px; border:14px solid green;"">","null","","","","","","","","","",""
"","image-keyboard-response","88","250165","0.0-88.0","3ZPBJO59KQNGOBO18ZZYAR8BJ06DHT","A3RJC9KTQ0U46B","3RBI0I35XEP26UEZY8S8UZLEA1IY3E","","543.1999999955297","img/land2.png","75","544","2","1","1","2","0.8,0.2,0.2,0.2,0.8,0.2,0.2,0.2,0.8","0.2,0.8,0.2,0.2,0.2,0.8,0.8,0.2,0.2","3","",""
"","html-keyboard-response","89","250467","0.0-89.0","3ZPBJO59KQNGOBO18ZZYAR8BJ06DHT","A3RJC9KTQ0U46B","3RBI0I35XEP26UEZY8S8UZLEA1IY3E","","null","<img src=""img/land2.png"" style=""width:200px; border:14px solid green;"">","null","","","","","","","","","",""
"","image-keyboard-response","90","251189","0.0-90.0","3ZPBJO59KQNGOBO18ZZYAR8BJ06DHT","A3RJC9KTQ0U46B","3RBI0I35XEP26UEZY8S8UZLEA1IY3E","","721","img/land1.png","74","721.8999999985099","1","0","2","2","0.8,0.2,0.2,0.2,0.8,0.2,0.2,0.2,0.8","0.2,0.8,0.2,0.2,0.2,0.8,0.8,0.2,0.2","3","",""
"","html-keyboard-response","91","251500","0.0-91.0","3ZPBJO59KQNGOBO18ZZYAR8BJ06DHT","A3RJC9KTQ0U46B","3RBI0I35XEP26UEZY8S8UZLEA1IY3E","","null","<img src=""img/land1.png"" style=""width:200px;border:14px solid red;"">","null","","","","","","","","","",""
"","image-keyboard-response","92","251733","0.0-92.0","3ZPBJO59KQNGOBO18ZZYAR8BJ06DHT","A3RJC9KTQ0U46B","3RBI0I35XEP26UEZY8S8UZLEA1IY3E","","231.5","img/land2.png","75","232.29999999701977","2","0","1","2","0.8,0.2,0.2,0.2,0.8,0.2,0.2,0.2,0.8","0.2,0.8,0.2,0.2,0.2,0.8,0.8,0.2,0.2","3","",""
"","html-keyboard-response","93","252034","0.0-93.0","3ZPBJO59KQNGOBO18ZZYAR8BJ06DHT","A3RJC9KTQ0U46B","3RBI0I35XEP26UEZY8S8UZLEA1IY3E","","null","<img src=""img/land2.png"" style=""width:200px;border:14px solid red;"">","null","","","","","","","","","",""
"","image-keyboard-response","94","252108","0.0-94.0","3ZPBJO59KQNGOBO18ZZYAR8BJ06DHT","A3RJC9KTQ0U46B","3RBI0I35XEP26UEZY8S8UZLEA1IY3E","","72.19999999552965","img/land5.png","75","73","2","0","3","2","0.8,0.2,0.2,0.2,0.8,0.2,0.2,0.2,0.8","0.2,0.8,0.2,0.2,0.2,0.8,0.8,0.2,0.2","3","",""
"","html-keyboard-response","95","252410","0.0-95.0","3ZPBJO59KQNGOBO18ZZYAR8BJ06DHT","A3RJC9KTQ0U46B","3RBI0I35XEP26UEZY8S8UZLEA1IY3E","","null","<img src=""img/land5.png"" style=""width:200px;border:14px solid red;"">","null","","","","","","","","","",""
"","image-keyboard-response","96","252989","0.0-96.0","3ZPBJO59KQNGOBO18ZZYAR8BJ06DHT","A3RJC9KTQ0U46B","3RBI0I35XEP26UEZY8S8UZLEA1IY3E","","577.5","img/land2.png","76","578.2000000029802","3","0","1","2","0.8,0.2,0.2,0.2,0.8,0.2,0.2,0.2,0.8","0.2,0.8,0.2,0.2,0.2,0.8,0.8,0.2,0.2","3","",""
"","html-keyboard-response","97","253290","0.0-97.0","3ZPBJO59KQNGOBO18ZZYAR8BJ06DHT","A3RJC9KTQ0U46B","3RBI0I35XEP26UEZY8S8UZLEA1IY3E","","null","<img src=""img/land2.png"" style=""width:200px;border:14px solid red;"">","null","","","","","","","","","",""
"","image-keyboard-response","98","253676","0.0-98.0","3ZPBJO59KQNGOBO18ZZYAR8BJ06DHT","A3RJC9KTQ0U46B","3RBI0I35XEP26UEZY8S8UZLEA1IY3E","","385.79999999701977","img/land2.png","75","386.3999999985099","2","1","1","2","0.8,0.2,0.2,0.2,0.8,0.2,0.2,0.2,0.8","0.2,0.8,0.2,0.2,0.2,0.8,0.8,0.2,0.2","3","",""
"","html-keyboard-response","99","253979","0.0-99.0","3ZPBJO59KQNGOBO18ZZYAR8BJ06DHT","A3RJC9KTQ0U46B","3RBI0I35XEP26UEZY8S8UZLEA1IY3E","","null","<img src=""img/land2.png"" style=""width:200px; border:14px solid green;"">","null","","","","","","","","","",""
"","image-keyboard-response","100","254284","0.0-100.0","3ZPBJO59KQNGOBO18ZZYAR8BJ06DHT","A3RJC9KTQ0U46B","3RBI0I35XEP26UEZY8S8UZLEA1IY3E","","305","img/land2.png","75","305.6000000014901","2","1","1","2","0.8,0.2,0.2,0.2,0.8,0.2,0.2,0.2,0.8","0.2,0.8,0.2,0.2,0.2,0.8,0.8,0.2,0.2","3","",""
"","html-keyboard-response","101","254587","0.0-101.0","3ZPBJO59KQNGOBO18ZZYAR8BJ06DHT","A3RJC9KTQ0U46B","3RBI0I35XEP26UEZY8S8UZLEA1IY3E","","null","<img src=""img/land2.png"" style=""width:200px; border:14px solid green;"">","null","","","","","","","","","",""
"","image-keyboard-response","102","254852","0.0-102.0","3ZPBJO59KQNGOBO18ZZYAR8BJ06DHT","A3RJC9KTQ0U46B","3RBI0I35XEP26UEZY8S8UZLEA1IY3E","","264.19999999552965","img/land2.png","75","264.79999999701977","2","1","1","2","0.8,0.2,0.2,0.2,0.8,0.2,0.2,0.2,0.8","0.2,0.8,0.2,0.2,0.2,0.8,0.8,0.2,0.2","3","",""
"","html-keyboard-response","103","255154","0.0-103.0","3ZPBJO59KQNGOBO18ZZYAR8BJ06DHT","A3RJC9KTQ0U46B","3RBI0I35XEP26UEZY8S8UZLEA1IY3E","","null","<img src=""img/land2.png"" style=""width:200px; border:14px solid green;"">","null","","","","","","","","","",""
"","image-keyboard-response","104","255412","0.0-104.0","3ZPBJO59KQNGOBO18ZZYAR8BJ06DHT","A3RJC9KTQ0U46B","3RBI0I35XEP26UEZY8S8UZLEA1IY3E","","257.1000000014901","img/land2.png","75","257.8999999985099","2","1","1","2","0.8,0.2,0.2,0.2,0.8,0.2,0.2,0.2,0.8","0.2,0.8,0.2,0.2,0.2,0.8,0.8,0.2,0.2","3","",""
"","html-keyboard-response","105","255714","0.0-105.0","3ZPBJO59KQNGOBO18ZZYAR8BJ06DHT","A3RJC9KTQ0U46B","3RBI0I35XEP26UEZY8S8UZLEA1IY3E","","null","<img src=""img/land2.png"" style=""width:200px; border:14px solid green;"">","null","","","","","","","","","",""
"","image-keyboard-response","106","255844","0.0-106.0","3ZPBJO59KQNGOBO18ZZYAR8BJ06DHT","A3RJC9KTQ0U46B","3RBI0I35XEP26UEZY8S8UZLEA1IY3E","","129.19999999552965","img/land5.png","75","129.89999999850988","2","0","3","2","0.8,0.2,0.2,0.2,0.8,0.2,0.2,0.2,0.8","0.2,0.8,0.2,0.2,0.2,0.8,0.8,0.2,0.2","3","",""
"","html-keyboard-response","107","256146","0.0-107.0","3ZPBJO59KQNGOBO18ZZYAR8BJ06DHT","A3RJC9KTQ0U46B","3RBI0I35XEP26UEZY8S8UZLEA1IY3E","","null","<img src=""img/land5.png"" style=""width:200px;border:14px solid red;"">","null","","","","","","","","","",""
"","image-keyboard-response","108","256701","0.0-108.0","3ZPBJO59KQNGOBO18ZZYAR8BJ06DHT","A3RJC9KTQ0U46B","3RBI0I35XEP26UEZY8S8UZLEA1IY3E","","553.5","img/land5.png","76","554.2999999970198","3","1","3","2","0.8,0.2,0.2,0.2,0.8,0.2,0.2,0.2,0.8","0.2,0.8,0.2,0.2,0.2,0.8,0.8,0.2,0.2","3","",""
"","html-keyboard-response","109","257002","0.0-109.0","3ZPBJO59KQNGOBO18ZZYAR8BJ06DHT","A3RJC9KTQ0U46B","3RBI0I35XEP26UEZY8S8UZLEA1IY3E","","null","<img src=""img/land5.png"" style=""width:200px; border:14px solid green;"">","null","","","","","","","","","",""
"","image-keyboard-response","110","257749","0.0-110.0","3ZPBJO59KQNGOBO18ZZYAR8BJ06DHT","A3RJC9KTQ0U46B","3RBI0I35XEP26UEZY8S8UZLEA1IY3E","","746.3000000044703","img/land1.png","74","747","1","0","2","2","0.8,0.2,0.2,0.2,0.8,0.2,0.2,0.2,0.8","0.2,0.8,0.2,0.2,0.2,0.8,0.8,0.2,0.2","3","",""
"","html-keyboard-response","111","258051","0.0-111.0","3ZPBJO59KQNGOBO18ZZYAR8BJ06DHT","A3RJC9KTQ0U46B","3RBI0I35XEP26UEZY8S8UZLEA1IY3E","","null","<img src=""img/land1.png"" style=""width:200px;border:14px solid red;"">","null","","","","","","","","","",""
"","image-keyboard-response","112","258276","0.0-112.0","3ZPBJO59KQNGOBO18ZZYAR8BJ06DHT","A3RJC9KTQ0U46B","3RBI0I35XEP26UEZY8S8UZLEA1IY3E","","224.79999999701977","img/land2.png","75","225.29999999701977","2","1","1","2","0.8,0.2,0.2,0.2,0.8,0.2,0.2,0.2,0.8","0.2,0.8,0.2,0.2,0.2,0.8,0.8,0.2,0.2","3","",""
"","html-keyboard-response","113","258578","0.0-113.0","3ZPBJO59KQNGOBO18ZZYAR8BJ06DHT","A3RJC9KTQ0U46B","3RBI0I35XEP26UEZY8S8UZLEA1IY3E","","null","<img src=""img/land2.png"" style=""width:200px; border:14px solid green;"">","null","","","","","","","","","",""
"","image-keyboard-response","114","258732","0.0-114.0","3ZPBJO59KQNGOBO18ZZYAR8BJ06DHT","A3RJC9KTQ0U46B","3RBI0I35XEP26UEZY8S8UZLEA1IY3E","","153.39999999850988","img/land2.png","75","154","2","1","1","2","0.8,0.2,0.2,0.2,0.8,0.2,0.2,0.2,0.8","0.2,0.8,0.2,0.2,0.2,0.8,0.8,0.2,0.2","3","",""
"","html-keyboard-response","115","259034","0.0-115.0","3ZPBJO59KQNGOBO18ZZYAR8BJ06DHT","A3RJC9KTQ0U46B","3RBI0I35XEP26UEZY8S8UZLEA1IY3E","","null","<img src=""img/land2.png"" style=""width:200px; border:14px solid green;"">","null","","","","","","","","","",""
"","image-keyboard-response","116","259092","0.0-116.0","3ZPBJO59KQNGOBO18ZZYAR8BJ06DHT","A3RJC9KTQ0U46B","3RBI0I35XEP26UEZY8S8UZLEA1IY3E","","57.599999994039536","img/land5.png","75","58.399999998509884","2","1","3","2","0.8,0.2,0.2,0.2,0.8,0.2,0.2,0.2,0.8","0.2,0.8,0.2,0.2,0.2,0.8,0.8,0.2,0.2","3","",""
"","html-keyboard-response","117","259394","0.0-117.0","3ZPBJO59KQNGOBO18ZZYAR8BJ06DHT","A3RJC9KTQ0U46B","3RBI0I35XEP26UEZY8S8UZLEA1IY3E","","null","<img src=""img/land5.png"" style=""width:200px; border:14px solid green;"">","null","","","","","","","","","",""
"","image-keyboard-response","118","259541","0.0-118.0","3ZPBJO59KQNGOBO18ZZYAR8BJ06DHT","A3RJC9KTQ0U46B","3RBI0I35XEP26UEZY8S8UZLEA1IY3E","","145.60000000149012","img/land5.png","74","146.20000000298023","1","1","3","2","0.8,0.2,0.2,0.2,0.8,0.2,0.2,0.2,0.8","0.2,0.8,0.2,0.2,0.2,0.8,0.8,0.2,0.2","3","",""
"","html-keyboard-response","119","259842","0.0-119.0","3ZPBJO59KQNGOBO18ZZYAR8BJ06DHT","A3RJC9KTQ0U46B","3RBI0I35XEP26UEZY8S8UZLEA1IY3E","","null","<img src=""img/land5.png"" style=""width:200px; border:14px solid green;"">","null","","","","","","","","","",""
"","image-keyboard-response","120","260220","0.0-120.0","3ZPBJO59KQNGOBO18ZZYAR8BJ06DHT","A3RJC9KTQ0U46B","3RBI0I35XEP26UEZY8S8UZLEA1IY3E","","377.8999999985099","img/land5.png","76","378.6000000014901","3","0","3","2","0.8,0.2,0.2,0.2,0.8,0.2,0.2,0.2,0.8","0.2,0.8,0.2,0.2,0.2,0.8,0.8,0.2,0.2","3","",""
"","html-keyboard-response","121","260521","0.0-121.0","3ZPBJO59KQNGOBO18ZZYAR8BJ06DHT","A3RJC9KTQ0U46B","3RBI0I35XEP26UEZY8S8UZLEA1IY3E","","null","<img src=""img/land5.png"" style=""width:200px;border:14px solid red;"">","null","","","","","","","","","",""
"","image-keyboard-response","122","260932","0.0-122.0","3ZPBJO59KQNGOBO18ZZYAR8BJ06DHT","A3RJC9KTQ0U46B","3RBI0I35XEP26UEZY8S8UZLEA1IY3E","","409.8999999985099","img/land5.png","75","410.6000000014901","2","1","3","2","0.8,0.2,0.2,0.2,0.8,0.2,0.2,0.2,0.8","0.2,0.8,0.2,0.2,0.2,0.8,0.8,0.2,0.2","3","",""
"","html-keyboard-response","123","261234","0.0-123.0","3ZPBJO59KQNGOBO18ZZYAR8BJ06DHT","A3RJC9KTQ0U46B","3RBI0I35XEP26UEZY8S8UZLEA1IY3E","","null","<img src=""img/land5.png"" style=""width:200px; border:14px solid green;"">","null","","","","","","","","","",""
"","image-keyboard-response","124","261644","0.0-124.0","3ZPBJO59KQNGOBO18ZZYAR8BJ06DHT","A3RJC9KTQ0U46B","3RBI0I35XEP26UEZY8S8UZLEA1IY3E","","409.5","img/land1.png","75","410.09999999403954","2","0","2","2","0.8,0.2,0.2,0.2,0.8,0.2,0.2,0.2,0.8","0.2,0.8,0.2,0.2,0.2,0.8,0.8,0.2,0.2","3","",""
"","html-keyboard-response","125","261946","0.0-125.0","3ZPBJO59KQNGOBO18ZZYAR8BJ06DHT","A3RJC9KTQ0U46B","3RBI0I35XEP26UEZY8S8UZLEA1IY3E","","null","<img src=""img/land1.png"" style=""width:200px;border:14px solid red;"">","null","","","","","","","","","",""
"","image-keyboard-response","126","262172","0.0-126.0","3ZPBJO59KQNGOBO18ZZYAR8BJ06DHT","A3RJC9KTQ0U46B","3RBI0I35XEP26UEZY8S8UZLEA1IY3E","","225","img/land2.png","74","225.69999999552965","1","0","1","2","0.8,0.2,0.2,0.2,0.8,0.2,0.2,0.2,0.8","0.2,0.8,0.2,0.2,0.2,0.8,0.8,0.2,0.2","3","",""
"","html-keyboard-response","127","262474","0.0-127.0","3ZPBJO59KQNGOBO18ZZYAR8BJ06DHT","A3RJC9KTQ0U46B","3RBI0I35XEP26UEZY8S8UZLEA1IY3E","","null","<img src=""img/land2.png"" style=""width:200px;border:14px solid red;"">","null","","","","","","","","","",""
"","image-keyboard-response","128","262637","0.0-128.0","3ZPBJO59KQNGOBO18ZZYAR8BJ06DHT","A3RJC9KTQ0U46B","3RBI0I35XEP26UEZY8S8UZLEA1IY3E","","161.29999999701977","img/land1.png","75","162.19999999552965","2","0","2","2","0.8,0.2,0.2,0.2,0.8,0.2,0.2,0.2,0.8","0.2,0.8,0.2,0.2,0.2,0.8,0.8,0.2,0.2","3","",""
"","html-keyboard-response","129","262939","0.0-129.0","3ZPBJO59KQNGOBO18ZZYAR8BJ06DHT","A3RJC9KTQ0U46B","3RBI0I35XEP26UEZY8S8UZLEA1IY3E","","null","<img src=""img/land1.png"" style=""width:200px;border:14px solid red;"">","null","","","","","","","","","",""
"","image-keyboard-response","130","263805","0.0-130.0","3ZPBJO59KQNGOBO18ZZYAR8BJ06DHT","A3RJC9KTQ0U46B","3RBI0I35XEP26UEZY8S8UZLEA1IY3E","","865.1999999955297","img/land5.png","76","866.0999999940395","3","0","3","2","0.8,0.2,0.2,0.2,0.8,0.2,0.2,0.2,0.8","0.2,0.8,0.2,0.2,0.2,0.8,0.8,0.2,0.2","3","",""
"","html-keyboard-response","131","264108","0.0-131.0","3ZPBJO59KQNGOBO18ZZYAR8BJ06DHT","A3RJC9KTQ0U46B","3RBI0I35XEP26UEZY8S8UZLEA1IY3E","","null","<img src=""img/land5.png"" style=""width:200px;border:14px solid red;"">","null","","","","","","","","","",""
"","image-keyboard-response","132","264628","0.0-132.0","3ZPBJO59KQNGOBO18ZZYAR8BJ06DHT","A3RJC9KTQ0U46B","3RBI0I35XEP26UEZY8S8UZLEA1IY3E","","519.3999999985099","img/land2.png","75","520.2000000029802","2","0","1","2","0.8,0.2,0.2,0.2,0.8,0.2,0.2,0.2,0.8","0.2,0.8,0.2,0.2,0.2,0.8,0.8,0.2,0.2","3","",""
"","html-keyboard-response","133","264930","0.0-133.0","3ZPBJO59KQNGOBO18ZZYAR8BJ06DHT","A3RJC9KTQ0U46B","3RBI0I35XEP26UEZY8S8UZLEA1IY3E","","null","<img src=""img/land2.png"" style=""width:200px;border:14px solid red;"">","null","","","","","","","","","",""
"","image-keyboard-response","134","265260","0.0-134.0","3ZPBJO59KQNGOBO18ZZYAR8BJ06DHT","A3RJC9KTQ0U46B","3RBI0I35XEP26UEZY8S8UZLEA1IY3E","","329.3999999985099","img/land5.png","74","330.20000000298023","1","1","3","2","0.8,0.2,0.2,0.2,0.8,0.2,0.2,0.2,0.8","0.2,0.8,0.2,0.2,0.2,0.8,0.8,0.2,0.2","3","",""
"","html-keyboard-response","135","265563","0.0-135.0","3ZPBJO59KQNGOBO18ZZYAR8BJ06DHT","A3RJC9KTQ0U46B","3RBI0I35XEP26UEZY8S8UZLEA1IY3E","","null","<img src=""img/land5.png"" style=""width:200px; border:14px solid green;"">","null","","","","","","","","","",""
"","image-keyboard-response","136","265780","0.0-136.0","3ZPBJO59KQNGOBO18ZZYAR8BJ06DHT","A3RJC9KTQ0U46B","3RBI0I35XEP26UEZY8S8UZLEA1IY3E","","216.39999999850988","img/land2.png","74","217.40000000596046","1","0","1","2","0.8,0.2,0.2,0.2,0.8,0.2,0.2,0.2,0.8","0.2,0.8,0.2,0.2,0.2,0.8,0.8,0.2,0.2","3","",""
"","html-keyboard-response","137","266081","0.0-137.0","3ZPBJO59KQNGOBO18ZZYAR8BJ06DHT","A3RJC9KTQ0U46B","3RBI0I35XEP26UEZY8S8UZLEA1IY3E","","null","<img src=""img/land2.png"" style=""width:200px;border:14px solid red;"">","null","","","","","","","","","",""
"","image-keyboard-response","138","266221","0.0-138.0","3ZPBJO59KQNGOBO18ZZYAR8BJ06DHT","A3RJC9KTQ0U46B","3RBI0I35XEP26UEZY8S8UZLEA1IY3E","","138.09999999403954","img/land1.png","75","138.89999999850988","2","1","2","2","0.8,0.2,0.2,0.2,0.8,0.2,0.2,0.2,0.8","0.2,0.8,0.2,0.2,0.2,0.8,0.8,0.2,0.2","3","",""
"","html-keyboard-response","139","266523","0.0-139.0","3ZPBJO59KQNGOBO18ZZYAR8BJ06DHT","A3RJC9KTQ0U46B","3RBI0I35XEP26UEZY8S8UZLEA1IY3E","","null","<img src=""img/land1.png"" style=""width:200px; border:14px solid green;"">","null","","","","","","","","","",""
"","image-keyboard-response","140","266637","0.0-140.0","3ZPBJO59KQNGOBO18ZZYAR8BJ06DHT","A3RJC9KTQ0U46B","3RBI0I35XEP26UEZY8S8UZLEA1IY3E","","113.60000000149012","img/land5.png","75","114.39999999850988","2","1","3","2","0.8,0.2,0.2,0.2,0.8,0.2,0.2,0.2,0.8","0.2,0.8,0.2,0.2,0.2,0.8,0.8,0.2,0.2","3","",""
"","html-keyboard-response","141","266939","0.0-141.0","3ZPBJO59KQNGOBO18ZZYAR8BJ06DHT","A3RJC9KTQ0U46B","3RBI0I35XEP26UEZY8S8UZLEA1IY3E","","null","<img src=""img/land5.png"" style=""width:200px; border:14px solid green;"">","null","","","","","","","","","",""
"","image-keyboard-response","142","267068","0.0-142.0","3ZPBJO59KQNGOBO18ZZYAR8BJ06DHT","A3RJC9KTQ0U46B","3RBI0I35XEP26UEZY8S8UZLEA1IY3E","","128.30000000447035","img/land2.png","75","129.19999999552965","2","0","1","2","0.8,0.2,0.2,0.2,0.8,0.2,0.2,0.2,0.8","0.2,0.8,0.2,0.2,0.2,0.8,0.8,0.2,0.2","3","",""
"","html-keyboard-response","143","267371","0.0-143.0","3ZPBJO59KQNGOBO18ZZYAR8BJ06DHT","A3RJC9KTQ0U46B","3RBI0I35XEP26UEZY8S8UZLEA1IY3E","","null","<img src=""img/land2.png"" style=""width:200px;border:14px solid red;"">","null","","","","","","","","","",""
"","image-keyboard-response","144","267596","0.0-144.0","3ZPBJO59KQNGOBO18ZZYAR8BJ06DHT","A3RJC9KTQ0U46B","3RBI0I35XEP26UEZY8S8UZLEA1IY3E","","224.29999999701977","img/land1.png","74","225.10000000149012","1","0","2","2","0.8,0.2,0.2,0.2,0.8,0.2,0.2,0.2,0.8","0.2,0.8,0.2,0.2,0.2,0.8,0.8,0.2,0.2","3","",""
"","html-keyboard-response","145","267899","0.0-145.0","3ZPBJO59KQNGOBO18ZZYAR8BJ06DHT","A3RJC9KTQ0U46B","3RBI0I35XEP26UEZY8S8UZLEA1IY3E","","null","<img src=""img/land1.png"" style=""width:200px;border:14px solid red;"">","null","","","","","","","","","",""
"","image-keyboard-response","146","268020","0.0-146.0","3ZPBJO59KQNGOBO18ZZYAR8BJ06DHT","A3RJC9KTQ0U46B","3RBI0I35XEP26UEZY8S8UZLEA1IY3E","","120.39999999850988","img/land1.png","75","121.19999999552965","2","0","2","2","0.8,0.2,0.2,0.2,0.8,0.2,0.2,0.2,0.8","0.2,0.8,0.2,0.2,0.2,0.8,0.8,0.2,0.2","3","",""
"","html-keyboard-response","147","268322","0.0-147.0","3ZPBJO59KQNGOBO18ZZYAR8BJ06DHT","A3RJC9KTQ0U46B","3RBI0I35XEP26UEZY8S8UZLEA1IY3E","","null","<img src=""img/land1.png"" style=""width:200px;border:14px solid red;"">","null","","","","","","","","","",""
"","image-keyboard-response","148","268796","0.0-148.0","3ZPBJO59KQNGOBO18ZZYAR8BJ06DHT","A3RJC9KTQ0U46B","3RBI0I35XEP26UEZY8S8UZLEA1IY3E","","473.69999999552965","img/land2.png","75","474.30000000447035","2","1","1","2","0.8,0.2,0.2,0.2,0.8,0.2,0.2,0.2,0.8","0.2,0.8,0.2,0.2,0.2,0.8,0.8,0.2,0.2","3","",""
"","html-keyboard-response","149","269099","0.0-149.0","3ZPBJO59KQNGOBO18ZZYAR8BJ06DHT","A3RJC9KTQ0U46B","3RBI0I35XEP26UEZY8S8UZLEA1IY3E","","null","<img src=""img/land2.png"" style=""width:200px; border:14px solid green;"">","null","","","","","","","","","",""
"","image-keyboard-response","150","269316","0.0-150.0","3ZPBJO59KQNGOBO18ZZYAR8BJ06DHT","A3RJC9KTQ0U46B","3RBI0I35XEP26UEZY8S8UZLEA1IY3E","","216.5","img/land2.png","75","217.20000000298023","2","1","1","2","0.8,0.2,0.2,0.2,0.8,0.2,0.2,0.2,0.8","0.2,0.8,0.2,0.2,0.2,0.8,0.8,0.2,0.2","3","",""
"","html-keyboard-response","151","269618","0.0-151.0","3ZPBJO59KQNGOBO18ZZYAR8BJ06DHT","A3RJC9KTQ0U46B","3RBI0I35XEP26UEZY8S8UZLEA1IY3E","","null","<img src=""img/land2.png"" style=""width:200px; border:14px solid green;"">","null","","","","","","","","","",""
"","image-keyboard-response","152","269788","0.0-152.0","3ZPBJO59KQNGOBO18ZZYAR8BJ06DHT","A3RJC9KTQ0U46B","3RBI0I35XEP26UEZY8S8UZLEA1IY3E","","169.20000000298023","img/land2.png","75","169.89999999850988","2","0","1","2","0.8,0.2,0.2,0.2,0.8,0.2,0.2,0.2,0.8","0.2,0.8,0.2,0.2,0.2,0.8,0.8,0.2,0.2","3","",""
"","html-keyboard-response","153","270090","0.0-153.0","3ZPBJO59KQNGOBO18ZZYAR8BJ06DHT","A3RJC9KTQ0U46B","3RBI0I35XEP26UEZY8S8UZLEA1IY3E","","null","<img src=""img/land2.png"" style=""width:200px;border:14px solid red;"">","null","","","","","","","","","",""
"","image-keyboard-response","154","270221","0.0-154.0","3ZPBJO59KQNGOBO18ZZYAR8BJ06DHT","A3RJC9KTQ0U46B","3RBI0I35XEP26UEZY8S8UZLEA1IY3E","","129.20000000298023","img/land5.png","75","129.89999999850988","2","0","3","2","0.8,0.2,0.2,0.2,0.8,0.2,0.2,0.2,0.8","0.2,0.8,0.2,0.2,0.2,0.8,0.8,0.2,0.2","3","",""
"","html-keyboard-response","155","270523","0.0-155.0","3ZPBJO59KQNGOBO18ZZYAR8BJ06DHT","A3RJC9KTQ0U46B","3RBI0I35XEP26UEZY8S8UZLEA1IY3E","","null","<img src=""img/land5.png"" style=""width:200px;border:14px solid red;"">","null","","","","","","","","","",""
"","image-keyboard-response","156","270804","0.0-156.0","3ZPBJO59KQNGOBO18ZZYAR8BJ06DHT","A3RJC9KTQ0U46B","3RBI0I35XEP26UEZY8S8UZLEA1IY3E","","281","img/land2.png","76","281.6000000014901","3","0","1","2","0.8,0.2,0.2,0.2,0.8,0.2,0.2,0.2,0.8","0.2,0.8,0.2,0.2,0.2,0.8,0.8,0.2,0.2","3","",""
"","html-keyboard-response","157","271106","0.0-157.0","3ZPBJO59KQNGOBO18ZZYAR8BJ06DHT","A3RJC9KTQ0U46B","3RBI0I35XEP26UEZY8S8UZLEA1IY3E","","null","<img src=""img/land2.png"" style=""width:200px;border:14px solid red;"">","null","","","","","","","","","",""
"","image-keyboard-response","158","271324","0.0-158.0","3ZPBJO59KQNGOBO18ZZYAR8BJ06DHT","A3RJC9KTQ0U46B","3RBI0I35XEP26UEZY8S8UZLEA1IY3E","","217.19999999552965","img/land2.png","75","217.79999999701977","2","1","1","2","0.8,0.2,0.2,0.2,0.8,0.2,0.2,0.2,0.8","0.2,0.8,0.2,0.2,0.2,0.8,0.8,0.2,0.2","3","",""
"","html-keyboard-response","159","271626","0.0-159.0","3ZPBJO59KQNGOBO18ZZYAR8BJ06DHT","A3RJC9KTQ0U46B","3RBI0I35XEP26UEZY8S8UZLEA1IY3E","","null","<img src=""img/land2.png"" style=""width:200px; border:14px solid green;"">","null","","","","","","","","","",""
"","image-keyboard-response","160","271740","0.0-160.0","3ZPBJO59KQNGOBO18ZZYAR8BJ06DHT","A3RJC9KTQ0U46B","3RBI0I35XEP26UEZY8S8UZLEA1IY3E","","112.69999999552965","img/land2.png","75","113.29999999701977","2","1","1","2","0.8,0.2,0.2,0.2,0.8,0.2,0.2,0.2,0.8","0.2,0.8,0.2,0.2,0.2,0.8,0.8,0.2,0.2","3","",""
"","html-keyboard-response","161","272042","0.0-161.0","3ZPBJO59KQNGOBO18ZZYAR8BJ06DHT","A3RJC9KTQ0U46B","3RBI0I35XEP26UEZY8S8UZLEA1IY3E","","null","<img src=""img/land2.png"" style=""width:200px; border:14px solid green;"">","null","","","","","","","","","",""
"","image-keyboard-response","162","272124","0.0-162.0","3ZPBJO59KQNGOBO18ZZYAR8BJ06DHT","A3RJC9KTQ0U46B","3RBI0I35XEP26UEZY8S8UZLEA1IY3E","","81.39999999850988","img/land5.png","75","82","2","1","3","2","0.8,0.2,0.2,0.2,0.8,0.2,0.2,0.2,0.8","0.2,0.8,0.2,0.2,0.2,0.8,0.8,0.2,0.2","3","",""
"","html-keyboard-response","163","272426","0.0-163.0","3ZPBJO59KQNGOBO18ZZYAR8BJ06DHT","A3RJC9KTQ0U46B","3RBI0I35XEP26UEZY8S8UZLEA1IY3E","","null","<img src=""img/land5.png"" style=""width:200px; border:14px solid green;"">","null","","","","","","","","","",""
"","image-keyboard-response","164","273020","0.0-164.0","3ZPBJO59KQNGOBO18ZZYAR8BJ06DHT","A3RJC9KTQ0U46B","3RBI0I35XEP26UEZY8S8UZLEA1IY3E","","593.3000000044703","img/land2.png","75","593.7999999970198","2","1","1","2","0.8,0.2,0.2,0.2,0.8,0.2,0.2,0.2,0.8","0.2,0.8,0.2,0.2,0.2,0.8,0.8,0.2,0.2","3","",""
"","html-keyboard-response","165","273331","0.0-165.0","3ZPBJO59KQNGOBO18ZZYAR8BJ06DHT","A3RJC9KTQ0U46B","3RBI0I35XEP26UEZY8S8UZLEA1IY3E","","null","<img src=""img/land2.png"" style=""width:200px; border:14px solid green;"">","null","","","","","","","","","",""
"","image-keyboard-response","166","273380","0.0-166.0","3ZPBJO59KQNGOBO18ZZYAR8BJ06DHT","A3RJC9KTQ0U46B","3RBI0I35XEP26UEZY8S8UZLEA1IY3E","","48.20000000298023","img/land2.png","75","49.100000001490116","2","0","1","2","0.8,0.2,0.2,0.2,0.8,0.2,0.2,0.2,0.8","0.2,0.8,0.2,0.2,0.2,0.8,0.8,0.2,0.2","3","",""
"","html-keyboard-response","167","273682","0.0-167.0","3ZPBJO59KQNGOBO18ZZYAR8BJ06DHT","A3RJC9KTQ0U46B","3RBI0I35XEP26UEZY8S8UZLEA1IY3E","","null","<img src=""img/land2.png"" style=""width:200px;border:14px solid red;"">","null","","","","","","","","","",""
"","image-keyboard-response","168","274004","0.0-168.0","3ZPBJO59KQNGOBO18ZZYAR8BJ06DHT","A3RJC9KTQ0U46B","3RBI0I35XEP26UEZY8S8UZLEA1IY3E","","321.20000000298023","img/land2.png","76","321.8999999985099","3","0","1","2","0.8,0.2,0.2,0.2,0.8,0.2,0.2,0.2,0.8","0.2,0.8,0.2,0.2,0.2,0.8,0.8,0.2,0.2","3","",""
"","html-keyboard-response","169","274306","0.0-169.0","3ZPBJO59KQNGOBO18ZZYAR8BJ06DHT","A3RJC9KTQ0U46B","3RBI0I35XEP26UEZY8S8UZLEA1IY3E","","null","<img src=""img/land2.png"" style=""width:200px;border:14px solid red;"">","null","","","","","","","","","",""
"","image-keyboard-response","170","274444","0.0-170.0","3ZPBJO59KQNGOBO18ZZYAR8BJ06DHT","A3RJC9KTQ0U46B","3RBI0I35XEP26UEZY8S8UZLEA1IY3E","","137.29999999701977","img/land2.png","76","138.20000000298023","3","0","1","2","0.8,0.2,0.2,0.2,0.8,0.2,0.2,0.2,0.8","0.2,0.8,0.2,0.2,0.2,0.8,0.8,0.2,0.2","3","",""
"","html-keyboard-response","171","274758","0.0-171.0","3ZPBJO59KQNGOBO18ZZYAR8BJ06DHT","A3RJC9KTQ0U46B","3RBI0I35XEP26UEZY8S8UZLEA1IY3E","","null","<img src=""img/land2.png"" style=""width:200px;border:14px solid red;"">","null","","","","","","","","","",""
"","image-keyboard-response","172","275164","0.0-172.0","3ZPBJO59KQNGOBO18ZZYAR8BJ06DHT","A3RJC9KTQ0U46B","3RBI0I35XEP26UEZY8S8UZLEA1IY3E","","404.19999999552965","img/land2.png","74","405.40000000596046","1","1","1","2","0.8,0.2,0.2,0.2,0.8,0.2,0.2,0.2,0.8","0.2,0.8,0.2,0.2,0.2,0.8,0.8,0.2,0.2","3","",""
"","html-keyboard-response","173","275465","0.0-173.0","3ZPBJO59KQNGOBO18ZZYAR8BJ06DHT","A3RJC9KTQ0U46B","3RBI0I35XEP26UEZY8S8UZLEA1IY3E","","null","<img src=""img/land2.png"" style=""width:200px; border:14px solid green;"">","null","","","","","","","","","",""
"","image-keyboard-response","174","275612","0.0-174.0","3ZPBJO59KQNGOBO18ZZYAR8BJ06DHT","A3RJC9KTQ0U46B","3RBI0I35XEP26UEZY8S8UZLEA1IY3E","","145.5","img/land2.png","74","146.39999999850988","1","0","1","2","0.8,0.2,0.2,0.2,0.8,0.2,0.2,0.2,0.8","0.2,0.8,0.2,0.2,0.2,0.8,0.8,0.2,0.2","3","",""
"","html-keyboard-response","175","275913","0.0-175.0","3ZPBJO59KQNGOBO18ZZYAR8BJ06DHT","A3RJC9KTQ0U46B","3RBI0I35XEP26UEZY8S8UZLEA1IY3E","","null","<img src=""img/land2.png"" style=""width:200px;border:14px solid red;"">","null","","","","","","","","","",""
"","image-keyboard-response","176","276156","0.0-176.0","3ZPBJO59KQNGOBO18ZZYAR8BJ06DHT","A3RJC9KTQ0U46B","3RBI0I35XEP26UEZY8S8UZLEA1IY3E","","241.79999999701977","img/land1.png","75","242.60000000149012","2","0","2","2","0.8,0.2,0.2,0.2,0.8,0.2,0.2,0.2,0.8","0.2,0.8,0.2,0.2,0.2,0.8,0.8,0.2,0.2","3","",""
"","html-keyboard-response","177","276459","0.0-177.0","3ZPBJO59KQNGOBO18ZZYAR8BJ06DHT","A3RJC9KTQ0U46B","3RBI0I35XEP26UEZY8S8UZLEA1IY3E","","null","<img src=""img/land1.png"" style=""width:200px;border:14px solid red;"">","null","","","","","","","","","",""
"","image-keyboard-response","178","277596","0.0-178.0","3ZPBJO59KQNGOBO18ZZYAR8BJ06DHT","A3RJC9KTQ0U46B","3RBI0I35XEP26UEZY8S8UZLEA1IY3E","","1136.8000000044703","img/land1.png","74","1137.6000000014901","1","0","2","2","0.8,0.2,0.2,0.2,0.8,0.2,0.2,0.2,0.8","0.2,0.8,0.2,0.2,0.2,0.8,0.8,0.2,0.2","3","",""
"","html-keyboard-response","179","277906","0.0-179.0","3ZPBJO59KQNGOBO18ZZYAR8BJ06DHT","A3RJC9KTQ0U46B","3RBI0I35XEP26UEZY8S8UZLEA1IY3E","","null","<img src=""img/land1.png"" style=""width:200px;border:14px solid red;"">","null","","","","","","","","","",""
"","image-keyboard-response","180","278052","0.0-180.0","3ZPBJO59KQNGOBO18ZZYAR8BJ06DHT","A3RJC9KTQ0U46B","3RBI0I35XEP26UEZY8S8UZLEA1IY3E","","145","img/land1.png","75","146.19999999552965","2","0","2","2","0.8,0.2,0.2,0.2,0.8,0.2,0.2,0.2,0.8","0.2,0.8,0.2,0.2,0.2,0.8,0.8,0.2,0.2","3","",""
"","html-keyboard-response","181","278354","0.0-181.0","3ZPBJO59KQNGOBO18ZZYAR8BJ06DHT","A3RJC9KTQ0U46B","3RBI0I35XEP26UEZY8S8UZLEA1IY3E","","null","<img src=""img/land1.png"" style=""width:200px;border:14px solid red;"">","null","","","","","","","","","",""
"","image-keyboard-response","182","279084","0.0-182.0","3ZPBJO59KQNGOBO18ZZYAR8BJ06DHT","A3RJC9KTQ0U46B","3RBI0I35XEP26UEZY8S8UZLEA1IY3E","","729.1999999955297","img/land2.png","75","730","2","1","1","2","0.8,0.2,0.2,0.2,0.8,0.2,0.2,0.2,0.8","0.2,0.8,0.2,0.2,0.2,0.8,0.8,0.2,0.2","3","",""
"","html-keyboard-response","183","279387","0.0-183.0","3ZPBJO59KQNGOBO18ZZYAR8BJ06DHT","A3RJC9KTQ0U46B","3RBI0I35XEP26UEZY8S8UZLEA1IY3E","","null","<img src=""img/land2.png"" style=""width:200px; border:14px solid green;"">","null","","","","","","","","","",""
"","image-keyboard-response","184","279476","0.0-184.0","3ZPBJO59KQNGOBO18ZZYAR8BJ06DHT","A3RJC9KTQ0U46B","3RBI0I35XEP26UEZY8S8UZLEA1IY3E","","88.39999999850988","img/land2.png","75","89","2","1","1","2","0.8,0.2,0.2,0.2,0.8,0.2,0.2,0.2,0.8","0.2,0.8,0.2,0.2,0.2,0.8,0.8,0.2,0.2","3","",""
"","html-keyboard-response","185","279777","0.0-185.0","3ZPBJO59KQNGOBO18ZZYAR8BJ06DHT","A3RJC9KTQ0U46B","3RBI0I35XEP26UEZY8S8UZLEA1IY3E","","null","<img src=""img/land2.png"" style=""width:200px; border:14px solid green;"">","null","","","","","","","","","",""
"","image-keyboard-response","186","279940","0.0-186.0","3ZPBJO59KQNGOBO18ZZYAR8BJ06DHT","A3RJC9KTQ0U46B","3RBI0I35XEP26UEZY8S8UZLEA1IY3E","","161.79999999701977","img/land5.png","75","162.5","2","1","3","2","0.8,0.2,0.2,0.2,0.8,0.2,0.2,0.2,0.8","0.2,0.8,0.2,0.2,0.2,0.8,0.8,0.2,0.2","3","",""
"","html-keyboard-response","187","280242","0.0-187.0","3ZPBJO59KQNGOBO18ZZYAR8BJ06DHT","A3RJC9KTQ0U46B","3RBI0I35XEP26UEZY8S8UZLEA1IY3E","","null","<img src=""img/land5.png"" style=""width:200px; border:14px solid green;"">","null","","","","","","","","","",""
"","image-keyboard-response","188","280380","0.0-188.0","3ZPBJO59KQNGOBO18ZZYAR8BJ06DHT","A3RJC9KTQ0U46B","3RBI0I35XEP26UEZY8S8UZLEA1IY3E","","137.70000000298023","img/land2.png","76","138.20000000298023","3","0","1","2","0.8,0.2,0.2,0.2,0.8,0.2,0.2,0.2,0.8","0.2,0.8,0.2,0.2,0.2,0.8,0.8,0.2,0.2","3","",""
"","html-keyboard-response","189","280683","0.0-189.0","3ZPBJO59KQNGOBO18ZZYAR8BJ06DHT","A3RJC9KTQ0U46B","3RBI0I35XEP26UEZY8S8UZLEA1IY3E","","null","<img src=""img/land2.png"" style=""width:200px;border:14px solid red;"">","null","","","","","","","","","",""
"","image-keyboard-response","190","280973","0.0-190.0","3ZPBJO59KQNGOBO18ZZYAR8BJ06DHT","A3RJC9KTQ0U46B","3RBI0I35XEP26UEZY8S8UZLEA1IY3E","","288.30000000447035","img/land2.png","75","289","2","0","1","2","0.8,0.2,0.2,0.2,0.8,0.2,0.2,0.2,0.8","0.2,0.8,0.2,0.2,0.2,0.8,0.8,0.2,0.2","3","",""
"","html-keyboard-response","191","281275","0.0-191.0","3ZPBJO59KQNGOBO18ZZYAR8BJ06DHT","A3RJC9KTQ0U46B","3RBI0I35XEP26UEZY8S8UZLEA1IY3E","","null","<img src=""img/land2.png"" style=""width:200px;border:14px solid red;"">","null","","","","","","","","","",""
"","image-keyboard-response","192","281492","0.0-192.0","3ZPBJO59KQNGOBO18ZZYAR8BJ06DHT","A3RJC9KTQ0U46B","3RBI0I35XEP26UEZY8S8UZLEA1IY3E","","216.89999999850988","img/land2.png","74","217.59999999403954","1","0","1","2","0.8,0.2,0.2,0.2,0.8,0.2,0.2,0.2,0.8","0.2,0.8,0.2,0.2,0.2,0.8,0.8,0.2,0.2","3","",""
"","html-keyboard-response","193","281793","0.0-193.0","3ZPBJO59KQNGOBO18ZZYAR8BJ06DHT","A3RJC9KTQ0U46B","3RBI0I35XEP26UEZY8S8UZLEA1IY3E","","null","<img src=""img/land2.png"" style=""width:200px;border:14px solid red;"">","null","","","","","","","","","",""
"","image-keyboard-response","194","282005","0.0-194.0","3ZPBJO59KQNGOBO18ZZYAR8BJ06DHT","A3RJC9KTQ0U46B","3RBI0I35XEP26UEZY8S8UZLEA1IY3E","","209.89999999850988","img/land5.png","75","210.69999999552965","2","0","3","2","0.8,0.2,0.2,0.2,0.8,0.2,0.2,0.2,0.8","0.2,0.8,0.2,0.2,0.2,0.8,0.8,0.2,0.2","3","",""
"","html-keyboard-response","195","282307","0.0-195.0","3ZPBJO59KQNGOBO18ZZYAR8BJ06DHT","A3RJC9KTQ0U46B","3RBI0I35XEP26UEZY8S8UZLEA1IY3E","","null","<img src=""img/land5.png"" style=""width:200px;border:14px solid red;"">","null","","","","","","","","","",""
"","image-keyboard-response","196","282676","0.0-196.0","3ZPBJO59KQNGOBO18ZZYAR8BJ06DHT","A3RJC9KTQ0U46B","3RBI0I35XEP26UEZY8S8UZLEA1IY3E","","368.5","img/land2.png","76","369.40000000596046","3","1","1","2","0.8,0.2,0.2,0.2,0.8,0.2,0.2,0.2,0.8","0.2,0.8,0.2,0.2,0.2,0.8,0.8,0.2,0.2","3","",""
"","html-keyboard-response","197","282978","0.0-197.0","3ZPBJO59KQNGOBO18ZZYAR8BJ06DHT","A3RJC9KTQ0U46B","3RBI0I35XEP26UEZY8S8UZLEA1IY3E","","null","<img src=""img/land2.png"" style=""width:200px; border:14px solid green;"">","null","","","","","","","","","",""
"","image-keyboard-response","198","283276","0.0-198.0","3ZPBJO59KQNGOBO18ZZYAR8BJ06DHT","A3RJC9KTQ0U46B","3RBI0I35XEP26UEZY8S8UZLEA1IY3E","","297.70000000298023","img/land2.png","75","298.3999999985099","2","1","1","2","0.8,0.2,0.2,0.2,0.8,0.2,0.2,0.2,0.8","0.2,0.8,0.2,0.2,0.2,0.8,0.8,0.2,0.2","3","",""
"","html-keyboard-response","199","283578","0.0-199.0","3ZPBJO59KQNGOBO18ZZYAR8BJ06DHT","A3RJC9KTQ0U46B","3RBI0I35XEP26UEZY8S8UZLEA1IY3E","","null","<img src=""img/land2.png"" style=""width:200px; border:14px solid green;"">","null","","","","","","","","","",""
"","image-keyboard-response","200","283668","0.0-200.0","3ZPBJO59KQNGOBO18ZZYAR8BJ06DHT","A3RJC9KTQ0U46B","3RBI0I35XEP26UEZY8S8UZLEA1IY3E","","89.5","img/land5.png","76","90.30000000447035","3","0","3","2","0.8,0.2,0.2,0.2,0.8,0.2,0.2,0.2,0.8","0.2,0.8,0.2,0.2,0.2,0.8,0.8,0.2,0.2","3","",""
"","html-keyboard-response","201","283970","0.0-201.0","3ZPBJO59KQNGOBO18ZZYAR8BJ06DHT","A3RJC9KTQ0U46B","3RBI0I35XEP26UEZY8S8UZLEA1IY3E","","null","<img src=""img/land5.png"" style=""width:200px;border:14px solid red;"">","null","","","","","","","","","",""
"","image-keyboard-response","202","284260","0.0-202.0","3ZPBJO59KQNGOBO18ZZYAR8BJ06DHT","A3RJC9KTQ0U46B","3RBI0I35XEP26UEZY8S8UZLEA1IY3E","","288.70000000298023","img/land2.png","75","289.6000000014901","2","1","1","2","0.8,0.2,0.2,0.2,0.8,0.2,0.2,0.2,0.8","0.2,0.8,0.2,0.2,0.2,0.8,0.8,0.2,0.2","3","",""
"","html-keyboard-response","203","284562","0.0-203.0","3ZPBJO59KQNGOBO18ZZYAR8BJ06DHT","A3RJC9KTQ0U46B","3RBI0I35XEP26UEZY8S8UZLEA1IY3E","","null","<img src=""img/land2.png"" style=""width:200px; border:14px solid green;"">","null","","","","","","","","","",""
"","image-keyboard-response","204","284764","0.0-204.0","3ZPBJO59KQNGOBO18ZZYAR8BJ06DHT","A3RJC9KTQ0U46B","3RBI0I35XEP26UEZY8S8UZLEA1IY3E","","201","img/land1.png","75","201.80000000447035","2","0","2","2","0.8,0.2,0.2,0.2,0.8,0.2,0.2,0.2,0.8","0.2,0.8,0.2,0.2,0.2,0.8,0.8,0.2,0.2","3","",""
"","html-keyboard-response","205","285066","0.0-205.0","3ZPBJO59KQNGOBO18ZZYAR8BJ06DHT","A3RJC9KTQ0U46B","3RBI0I35XEP26UEZY8S8UZLEA1IY3E","","null","<img src=""img/land1.png"" style=""width:200px;border:14px solid red;"">","null","","","","","","","","","",""
"","image-keyboard-response","206","286172","0.0-206.0","3ZPBJO59KQNGOBO18ZZYAR8BJ06DHT","A3RJC9KTQ0U46B","3RBI0I35XEP26UEZY8S8UZLEA1IY3E","","1104.8999999985099","img/land2.png","76","1105.6999999955297","3","0","1","2","0.8,0.2,0.2,0.2,0.8,0.2,0.2,0.2,0.8","0.2,0.8,0.2,0.2,0.2,0.8,0.8,0.2,0.2","3","",""
"","html-keyboard-response","207","286474","0.0-207.0","3ZPBJO59KQNGOBO18ZZYAR8BJ06DHT","A3RJC9KTQ0U46B","3RBI0I35XEP26UEZY8S8UZLEA1IY3E","","null","<img src=""img/land2.png"" style=""width:200px;border:14px solid red;"">","null","","","","","","","","","",""
"","image-keyboard-response","208","286724","0.0-208.0","3ZPBJO59KQNGOBO18ZZYAR8BJ06DHT","A3RJC9KTQ0U46B","3RBI0I35XEP26UEZY8S8UZLEA1IY3E","","249.79999999701977","img/land1.png","75","250.30000000447035","2","0","2","2","0.8,0.2,0.2,0.2,0.8,0.2,0.2,0.2,0.8","0.2,0.8,0.2,0.2,0.2,0.8,0.8,0.2,0.2","3","",""
"","html-keyboard-response","209","287025","0.0-209.0","3ZPBJO59KQNGOBO18ZZYAR8BJ06DHT","A3RJC9KTQ0U46B","3RBI0I35XEP26UEZY8S8UZLEA1IY3E","","null","<img src=""img/land1.png"" style=""width:200px;border:14px solid red;"">","null","","","","","","","","","",""
"","image-keyboard-response","210","287237","0.0-210.0","3ZPBJO59KQNGOBO18ZZYAR8BJ06DHT","A3RJC9KTQ0U46B","3RBI0I35XEP26UEZY8S8UZLEA1IY3E","","210.29999999701977","img/land1.png","74","211","1","0","2","2","0.8,0.2,0.2,0.2,0.8,0.2,0.2,0.2,0.8","0.2,0.8,0.2,0.2,0.2,0.8,0.8,0.2,0.2","3","",""
"","html-keyboard-response","211","287538","0.0-211.0","3ZPBJO59KQNGOBO18ZZYAR8BJ06DHT","A3RJC9KTQ0U46B","3RBI0I35XEP26UEZY8S8UZLEA1IY3E","","null","<img src=""img/land1.png"" style=""width:200px;border:14px solid red;"">","null","","","","","","","","","",""
"","image-keyboard-response","212","287724","0.0-212.0","3ZPBJO59KQNGOBO18ZZYAR8BJ06DHT","A3RJC9KTQ0U46B","3RBI0I35XEP26UEZY8S8UZLEA1IY3E","","185","img/land2.png","75","185.60000000149012","2","1","1","2","0.8,0.2,0.2,0.2,0.8,0.2,0.2,0.2,0.8","0.2,0.8,0.2,0.2,0.2,0.8,0.8,0.2,0.2","3","",""
"","html-keyboard-response","213","288026","0.0-213.0","3ZPBJO59KQNGOBO18ZZYAR8BJ06DHT","A3RJC9KTQ0U46B","3RBI0I35XEP26UEZY8S8UZLEA1IY3E","","null","<img src=""img/land2.png"" style=""width:200px; border:14px solid green;"">","null","","","","","","","","","",""
"","image-keyboard-response","214","288285","0.0-214.0","3ZPBJO59KQNGOBO18ZZYAR8BJ06DHT","A3RJC9KTQ0U46B","3RBI0I35XEP26UEZY8S8UZLEA1IY3E","","257.80000000447035","img/land2.png","75","258.80000000447035","2","1","1","2","0.8,0.2,0.2,0.2,0.8,0.2,0.2,0.2,0.8","0.2,0.8,0.2,0.2,0.2,0.8,0.8,0.2,0.2","3","",""
"","html-keyboard-response","215","288586","0.0-215.0","3ZPBJO59KQNGOBO18ZZYAR8BJ06DHT","A3RJC9KTQ0U46B","3RBI0I35XEP26UEZY8S8UZLEA1IY3E","","null","<img src=""img/land2.png"" style=""width:200px; border:14px solid green;"">","null","","","","","","","","","",""
"","image-keyboard-response","216","288749","0.0-216.0","3ZPBJO59KQNGOBO18ZZYAR8BJ06DHT","A3RJC9KTQ0U46B","3RBI0I35XEP26UEZY8S8UZLEA1IY3E","","161.39999999850988","img/land2.png","75","162.30000000447035","2","1","1","2","0.8,0.2,0.2,0.2,0.8,0.2,0.2,0.2,0.8","0.2,0.8,0.2,0.2,0.2,0.8,0.8,0.2,0.2","3","",""
"","html-keyboard-response","217","289053","0.0-217.0","3ZPBJO59KQNGOBO18ZZYAR8BJ06DHT","A3RJC9KTQ0U46B","3RBI0I35XEP26UEZY8S8UZLEA1IY3E","","null","<img src=""img/land2.png"" style=""width:200px; border:14px solid green;"">","null","","","","","","","","","",""
"","image-keyboard-response","218","289188","0.0-218.0","3ZPBJO59KQNGOBO18ZZYAR8BJ06DHT","A3RJC9KTQ0U46B","3RBI0I35XEP26UEZY8S8UZLEA1IY3E","","133.80000000447035","img/land2.png","75","134.79999999701977","2","1","1","2","0.8,0.2,0.2,0.2,0.8,0.2,0.2,0.2,0.8","0.2,0.8,0.2,0.2,0.2,0.8,0.8,0.2,0.2","3","",""
"","html-keyboard-response","219","289490","0.0-219.0","3ZPBJO59KQNGOBO18ZZYAR8BJ06DHT","A3RJC9KTQ0U46B","3RBI0I35XEP26UEZY8S8UZLEA1IY3E","","null","<img src=""img/land2.png"" style=""width:200px; border:14px solid green;"">","null","","","","","","","","","",""
"","image-keyboard-response","220","289652","0.0-220.0","3ZPBJO59KQNGOBO18ZZYAR8BJ06DHT","A3RJC9KTQ0U46B","3RBI0I35XEP26UEZY8S8UZLEA1IY3E","","161.5","img/land2.png","75","162.30000000447035","2","1","1","2","0.8,0.2,0.2,0.2,0.8,0.2,0.2,0.2,0.8","0.2,0.8,0.2,0.2,0.2,0.8,0.8,0.2,0.2","3","",""
"","html-keyboard-response","221","289954","0.0-221.0","3ZPBJO59KQNGOBO18ZZYAR8BJ06DHT","A3RJC9KTQ0U46B","3RBI0I35XEP26UEZY8S8UZLEA1IY3E","","null","<img src=""img/land2.png"" style=""width:200px; border:14px solid green;"">","null","","","","","","","","","",""
"","image-keyboard-response","222","290020","0.0-222.0","3ZPBJO59KQNGOBO18ZZYAR8BJ06DHT","A3RJC9KTQ0U46B","3RBI0I35XEP26UEZY8S8UZLEA1IY3E","","65.90000000596046","img/land5.png","75","66.60000000149012","2","0","3","2","0.8,0.2,0.2,0.2,0.8,0.2,0.2,0.2,0.8","0.2,0.8,0.2,0.2,0.2,0.8,0.8,0.2,0.2","3","",""
"","html-keyboard-response","223","290322","0.0-223.0","3ZPBJO59KQNGOBO18ZZYAR8BJ06DHT","A3RJC9KTQ0U46B","3RBI0I35XEP26UEZY8S8UZLEA1IY3E","","null","<img src=""img/land5.png"" style=""width:200px;border:14px solid red;"">","null","","","","","","","","","",""
"","image-keyboard-response","224","291205","0.0-224.0","3ZPBJO59KQNGOBO18ZZYAR8BJ06DHT","A3RJC9KTQ0U46B","3RBI0I35XEP26UEZY8S8UZLEA1IY3E","","881.0999999940395","img/land2.png","75","882.1000000014901","2","1","1","2","0.8,0.2,0.2,0.2,0.8,0.2,0.2,0.2,0.8","0.2,0.8,0.2,0.2,0.2,0.8,0.8,0.2,0.2","3","",""
"","html-keyboard-response","225","291522","0.0-225.0","3ZPBJO59KQNGOBO18ZZYAR8BJ06DHT","A3RJC9KTQ0U46B","3RBI0I35XEP26UEZY8S8UZLEA1IY3E","","null","<img src=""img/land2.png"" style=""width:200px; border:14px solid green;"">","null","","","","","","","","","",""
"","image-keyboard-response","226","291612","0.0-226.0","3ZPBJO59KQNGOBO18ZZYAR8BJ06DHT","A3RJC9KTQ0U46B","3RBI0I35XEP26UEZY8S8UZLEA1IY3E","","89.69999999552965","img/land2.png","75","90.29999999701977","2","1","1","2","0.8,0.2,0.2,0.2,0.8,0.2,0.2,0.2,0.8","0.2,0.8,0.2,0.2,0.2,0.8,0.8,0.2,0.2","3","",""
"","html-keyboard-response","227","291914","0.0-227.0","3ZPBJO59KQNGOBO18ZZYAR8BJ06DHT","A3RJC9KTQ0U46B","3RBI0I35XEP26UEZY8S8UZLEA1IY3E","","null","<img src=""img/land2.png"" style=""width:200px; border:14px solid green;"">","null","","","","","","","","","",""
"","image-keyboard-response","228","292068","0.0-228.0","3ZPBJO59KQNGOBO18ZZYAR8BJ06DHT","A3RJC9KTQ0U46B","3RBI0I35XEP26UEZY8S8UZLEA1IY3E","","153.5","img/land2.png","75","154.10000000149012","2","0","1","2","0.8,0.2,0.2,0.2,0.8,0.2,0.2,0.2,0.8","0.2,0.8,0.2,0.2,0.2,0.8,0.8,0.2,0.2","3","",""
"","html-keyboard-response","229","292374","0.0-229.0","3ZPBJO59KQNGOBO18ZZYAR8BJ06DHT","A3RJC9KTQ0U46B","3RBI0I35XEP26UEZY8S8UZLEA1IY3E","","null","<img src=""img/land2.png"" style=""width:200px;border:14px solid red;"">","null","","","","","","","","","",""
"","image-keyboard-response","230","293052","0.0-230.0","3ZPBJO59KQNGOBO18ZZYAR8BJ06DHT","A3RJC9KTQ0U46B","3RBI0I35XEP26UEZY8S8UZLEA1IY3E","","677.5","img/land1.png","74","678.3999999985099","1","0","2","2","0.8,0.2,0.2,0.2,0.8,0.2,0.2,0.2,0.8","0.2,0.8,0.2,0.2,0.2,0.8,0.8,0.2,0.2","3","",""
"","html-keyboard-response","231","293355","0.0-231.0","3ZPBJO59KQNGOBO18ZZYAR8BJ06DHT","A3RJC9KTQ0U46B","3RBI0I35XEP26UEZY8S8UZLEA1IY3E","","null","<img src=""img/land1.png"" style=""width:200px;border:14px solid red;"">","null","","","","","","","","","",""
"","image-keyboard-response","232","293948","0.0-232.0","3ZPBJO59KQNGOBO18ZZYAR8BJ06DHT","A3RJC9KTQ0U46B","3RBI0I35XEP26UEZY8S8UZLEA1IY3E","","592.6000000014901","img/land2.png","75","593.2999999970198","2","1","1","2","0.8,0.2,0.2,0.2,0.8,0.2,0.2,0.2,0.8","0.2,0.8,0.2,0.2,0.2,0.8,0.8,0.2,0.2","3","",""
"","html-keyboard-response","233","294250","0.0-233.0","3ZPBJO59KQNGOBO18ZZYAR8BJ06DHT","A3RJC9KTQ0U46B","3RBI0I35XEP26UEZY8S8UZLEA1IY3E","","null","<img src=""img/land2.png"" style=""width:200px; border:14px solid green;"">","null","","","","","","","","","",""
"","image-keyboard-response","234","294524","0.0-234.0","3ZPBJO59KQNGOBO18ZZYAR8BJ06DHT","A3RJC9KTQ0U46B","3RBI0I35XEP26UEZY8S8UZLEA1IY3E","","273.20000000298023","img/land2.png","75","273.80000000447035","2","1","1","2","0.8,0.2,0.2,0.2,0.8,0.2,0.2,0.2,0.8","0.2,0.8,0.2,0.2,0.2,0.8,0.8,0.2,0.2","3","",""
"","html-keyboard-response","235","294826","0.0-235.0","3ZPBJO59KQNGOBO18ZZYAR8BJ06DHT","A3RJC9KTQ0U46B","3RBI0I35XEP26UEZY8S8UZLEA1IY3E","","null","<img src=""img/land2.png"" style=""width:200px; border:14px solid green;"">","null","","","","","","","","","",""
"","image-keyboard-response","236","294964","0.0-236.0","3ZPBJO59KQNGOBO18ZZYAR8BJ06DHT","A3RJC9KTQ0U46B","3RBI0I35XEP26UEZY8S8UZLEA1IY3E","","136.89999999850988","img/land1.png","75","137.59999999403954","2","0","2","2","0.8,0.2,0.2,0.2,0.8,0.2,0.2,0.2,0.8","0.2,0.8,0.2,0.2,0.2,0.8,0.8,0.2,0.2","3","",""
"","html-keyboard-response","237","295267","0.0-237.0","3ZPBJO59KQNGOBO18ZZYAR8BJ06DHT","A3RJC9KTQ0U46B","3RBI0I35XEP26UEZY8S8UZLEA1IY3E","","null","<img src=""img/land1.png"" style=""width:200px;border:14px solid red;"">","null","","","","","","","","","",""
"","image-keyboard-response","238","295780","0.0-238.0","3ZPBJO59KQNGOBO18ZZYAR8BJ06DHT","A3RJC9KTQ0U46B","3RBI0I35XEP26UEZY8S8UZLEA1IY3E","","512.7000000029802","img/land1.png","74","513.7000000029802","1","0","2","2","0.8,0.2,0.2,0.2,0.8,0.2,0.2,0.2,0.8","0.2,0.8,0.2,0.2,0.2,0.8,0.8,0.2,0.2","3","",""
"","html-keyboard-response","239","296082","0.0-239.0","3ZPBJO59KQNGOBO18ZZYAR8BJ06DHT","A3RJC9KTQ0U46B","3RBI0I35XEP26UEZY8S8UZLEA1IY3E","","null","<img src=""img/land1.png"" style=""width:200px;border:14px solid red;"">","null","","","","","","","","","",""
"","image-keyboard-response","240","296628","0.0-240.0","3ZPBJO59KQNGOBO18ZZYAR8BJ06DHT","A3RJC9KTQ0U46B","3RBI0I35XEP26UEZY8S8UZLEA1IY3E","","545.6000000014901","img/land2.png","75","546.3000000044703","2","1","1","2","0.8,0.2,0.2,0.2,0.8,0.2,0.2,0.2,0.8","0.2,0.8,0.2,0.2,0.2,0.8,0.8,0.2,0.2","3","",""
"","html-keyboard-response","241","296931","0.0-241.0","3ZPBJO59KQNGOBO18ZZYAR8BJ06DHT","A3RJC9KTQ0U46B","3RBI0I35XEP26UEZY8S8UZLEA1IY3E","","null","<img src=""img/land2.png"" style=""width:200px; border:14px solid green;"">","null","","","","","","","","","",""
"","image-keyboard-response","242","297476","0.0-242.0","3ZPBJO59KQNGOBO18ZZYAR8BJ06DHT","A3RJC9KTQ0U46B","3RBI0I35XEP26UEZY8S8UZLEA1IY3E","","544.5999999940395","img/land1.png","74","545.2000000029802","1","0","2","2","0.8,0.2,0.2,0.2,0.8,0.2,0.2,0.2,0.8","0.2,0.8,0.2,0.2,0.2,0.8,0.8,0.2,0.2","3","",""
"","html-keyboard-response","243","297778","0.0-243.0","3ZPBJO59KQNGOBO18ZZYAR8BJ06DHT","A3RJC9KTQ0U46B","3RBI0I35XEP26UEZY8S8UZLEA1IY3E","","null","<img src=""img/land1.png"" style=""width:200px;border:14px solid red;"">","null","","","","","","","","","",""
"","image-keyboard-response","244","298485","0.0-244.0","3ZPBJO59KQNGOBO18ZZYAR8BJ06DHT","A3RJC9KTQ0U46B","3RBI0I35XEP26UEZY8S8UZLEA1IY3E","","706","img/land2.png","75","706.8000000044703","2","1","1","2","0.8,0.2,0.2,0.2,0.8,0.2,0.2,0.2,0.8","0.2,0.8,0.2,0.2,0.2,0.8,0.8,0.2,0.2","3","",""
"","html-keyboard-response","245","298786","0.0-245.0","3ZPBJO59KQNGOBO18ZZYAR8BJ06DHT","A3RJC9KTQ0U46B","3RBI0I35XEP26UEZY8S8UZLEA1IY3E","","null","<img src=""img/land2.png"" style=""width:200px; border:14px solid green;"">","null","","","","","","","","","",""
"","image-keyboard-response","246","298940","0.0-246.0","3ZPBJO59KQNGOBO18ZZYAR8BJ06DHT","A3RJC9KTQ0U46B","3RBI0I35XEP26UEZY8S8UZLEA1IY3E","","152.60000000149012","img/land5.png","75","153.29999999701977","2","0","3","2","0.8,0.2,0.2,0.2,0.8,0.2,0.2,0.2,0.8","0.2,0.8,0.2,0.2,0.2,0.8,0.8,0.2,0.2","3","",""
"","html-keyboard-response","247","299242","0.0-247.0","3ZPBJO59KQNGOBO18ZZYAR8BJ06DHT","A3RJC9KTQ0U46B","3RBI0I35XEP26UEZY8S8UZLEA1IY3E","","null","<img src=""img/land5.png"" style=""width:200px;border:14px solid red;"">","null","","","","","","","","","",""
"","image-keyboard-response","248","299444","0.0-248.0","3ZPBJO59KQNGOBO18ZZYAR8BJ06DHT","A3RJC9KTQ0U46B","3RBI0I35XEP26UEZY8S8UZLEA1IY3E","","200.69999999552965","img/land2.png","76","201.39999999850988","3","1","1","2","0.8,0.2,0.2,0.2,0.8,0.2,0.2,0.2,0.8","0.2,0.8,0.2,0.2,0.2,0.8,0.8,0.2,0.2","3","",""
"","html-keyboard-response","249","299746","0.0-249.0","3ZPBJO59KQNGOBO18ZZYAR8BJ06DHT","A3RJC9KTQ0U46B","3RBI0I35XEP26UEZY8S8UZLEA1IY3E","","null","<img src=""img/land2.png"" style=""width:200px; border:14px solid green;"">","null","","","","","","","","","",""
"","image-keyboard-response","250","299956","0.0-250.0","3ZPBJO59KQNGOBO18ZZYAR8BJ06DHT","A3RJC9KTQ0U46B","3RBI0I35XEP26UEZY8S8UZLEA1IY3E","","209.39999999850988","img/land1.png","75","210.40000000596046","2","0","2","2","0.8,0.2,0.2,0.2,0.8,0.2,0.2,0.2,0.8","0.2,0.8,0.2,0.2,0.2,0.8,0.8,0.2,0.2","3","",""
"","html-keyboard-response","251","300258","0.0-251.0","3ZPBJO59KQNGOBO18ZZYAR8BJ06DHT","A3RJC9KTQ0U46B","3RBI0I35XEP26UEZY8S8UZLEA1IY3E","","null","<img src=""img/land1.png"" style=""width:200px;border:14px solid red;"">","null","","","","","","","","","",""
"","image-keyboard-response","252","300540","0.0-252.0","3ZPBJO59KQNGOBO18ZZYAR8BJ06DHT","A3RJC9KTQ0U46B","3RBI0I35XEP26UEZY8S8UZLEA1IY3E","","281","img/land2.png","74","281.69999999552965","1","0","1","2","0.8,0.2,0.2,0.2,0.8,0.2,0.2,0.2,0.8","0.2,0.8,0.2,0.2,0.2,0.8,0.8,0.2,0.2","3","",""
"","html-keyboard-response","253","300843","0.0-253.0","3ZPBJO59KQNGOBO18ZZYAR8BJ06DHT","A3RJC9KTQ0U46B","3RBI0I35XEP26UEZY8S8UZLEA1IY3E","","null","<img src=""img/land2.png"" style=""width:200px;border:14px solid red;"">","null","","","","","","","","","",""
"","image-keyboard-response","254","301012","0.0-254.0","3ZPBJO59KQNGOBO18ZZYAR8BJ06DHT","A3RJC9KTQ0U46B","3RBI0I35XEP26UEZY8S8UZLEA1IY3E","","168.60000000149012","img/land1.png","75","169.5","2","0","2","2","0.8,0.2,0.2,0.2,0.8,0.2,0.2,0.2,0.8","0.2,0.8,0.2,0.2,0.2,0.8,0.8,0.2,0.2","3","",""
"","html-keyboard-response","255","301315","0.0-255.0","3ZPBJO59KQNGOBO18ZZYAR8BJ06DHT","A3RJC9KTQ0U46B","3RBI0I35XEP26UEZY8S8UZLEA1IY3E","","null","<img src=""img/land1.png"" style=""width:200px;border:14px solid red;"">","null","","","","","","","","","",""
"","image-keyboard-response","256","301421","0.0-256.0","3ZPBJO59KQNGOBO18ZZYAR8BJ06DHT","A3RJC9KTQ0U46B","3RBI0I35XEP26UEZY8S8UZLEA1IY3E","","104.60000000149012","img/land2.png","76","105.89999999850988","3","0","1","2","0.8,0.2,0.2,0.2,0.8,0.2,0.2,0.2,0.8","0.2,0.8,0.2,0.2,0.2,0.8,0.8,0.2,0.2","3","",""
"","html-keyboard-response","257","301724","0.0-257.0","3ZPBJO59KQNGOBO18ZZYAR8BJ06DHT","A3RJC9KTQ0U46B","3RBI0I35XEP26UEZY8S8UZLEA1IY3E","","null","<img src=""img/land2.png"" style=""width:200px;border:14px solid red;"">","null","","","","","","","","","",""
"","image-keyboard-response","258","302812","0.0-258.0","3ZPBJO59KQNGOBO18ZZYAR8BJ06DHT","A3RJC9KTQ0U46B","3RBI0I35XEP26UEZY8S8UZLEA1IY3E","","1086.6999999955297","img/land2.png","75","1087.3999999985099","2","1","1","2","0.8,0.2,0.2,0.2,0.8,0.2,0.2,0.2,0.8","0.2,0.8,0.2,0.2,0.2,0.8,0.8,0.2,0.2","3","",""
"","html-keyboard-response","259","303114","0.0-259.0","3ZPBJO59KQNGOBO18ZZYAR8BJ06DHT","A3RJC9KTQ0U46B","3RBI0I35XEP26UEZY8S8UZLEA1IY3E","","null","<img src=""img/land2.png"" style=""width:200px; border:14px solid green;"">","null","","","","","","","","","",""
"","image-keyboard-response","260","303333","0.0-260.0","3ZPBJO59KQNGOBO18ZZYAR8BJ06DHT","A3RJC9KTQ0U46B","3RBI0I35XEP26UEZY8S8UZLEA1IY3E","","217.39999999850988","img/land2.png","75","218.10000000149012","2","1","1","2","0.8,0.2,0.2,0.2,0.8,0.2,0.2,0.2,0.8","0.2,0.8,0.2,0.2,0.2,0.8,0.8,0.2,0.2","3","",""
"","html-keyboard-response","261","303635","0.0-261.0","3ZPBJO59KQNGOBO18ZZYAR8BJ06DHT","A3RJC9KTQ0U46B","3RBI0I35XEP26UEZY8S8UZLEA1IY3E","","null","<img src=""img/land2.png"" style=""width:200px; border:14px solid green;"">","null","","","","","","","","","",""
"","image-keyboard-response","262","304524","0.0-262.0","3ZPBJO59KQNGOBO18ZZYAR8BJ06DHT","A3RJC9KTQ0U46B","3RBI0I35XEP26UEZY8S8UZLEA1IY3E","","887.5","img/land1.png","74","888.3999999985099","1","0","2","2","0.8,0.2,0.2,0.2,0.8,0.2,0.2,0.2,0.8","0.2,0.8,0.2,0.2,0.2,0.8,0.8,0.2,0.2","3","",""
"","html-keyboard-response","263","304826","0.0-263.0","3ZPBJO59KQNGOBO18ZZYAR8BJ06DHT","A3RJC9KTQ0U46B","3RBI0I35XEP26UEZY8S8UZLEA1IY3E","","null","<img src=""img/land1.png"" style=""width:200px;border:14px solid red;"">","null","","","","","","","","","",""
"","image-keyboard-response","264","305460","0.0-264.0","3ZPBJO59KQNGOBO18ZZYAR8BJ06DHT","A3RJC9KTQ0U46B","3RBI0I35XEP26UEZY8S8UZLEA1IY3E","","632.7999999970198","img/land5.png","76","633.6000000014901","3","1","3","2","0.8,0.2,0.2,0.2,0.8,0.2,0.2,0.2,0.8","0.2,0.8,0.2,0.2,0.2,0.8,0.8,0.2,0.2","3","",""
"","html-keyboard-response","265","305762","0.0-265.0","3ZPBJO59KQNGOBO18ZZYAR8BJ06DHT","A3RJC9KTQ0U46B","3RBI0I35XEP26UEZY8S8UZLEA1IY3E","","null","<img src=""img/land5.png"" style=""width:200px; border:14px solid green;"">","null","","","","","","","","","",""
"","image-keyboard-response","266","306196","0.0-266.0","3ZPBJO59KQNGOBO18ZZYAR8BJ06DHT","A3RJC9KTQ0U46B","3RBI0I35XEP26UEZY8S8UZLEA1IY3E","","432.8999999985099","img/land1.png","74","433.6000000014901","1","0","2","2","0.8,0.2,0.2,0.2,0.8,0.2,0.2,0.2,0.8","0.2,0.8,0.2,0.2,0.2,0.8,0.8,0.2,0.2","3","",""
"","html-keyboard-response","267","306497","0.0-267.0","3ZPBJO59KQNGOBO18ZZYAR8BJ06DHT","A3RJC9KTQ0U46B","3RBI0I35XEP26UEZY8S8UZLEA1IY3E","","null","<img src=""img/land1.png"" style=""width:200px;border:14px solid red;"">","null","","","","","","","","","",""
"","image-keyboard-response","268","306821","0.0-268.0","3ZPBJO59KQNGOBO18ZZYAR8BJ06DHT","A3RJC9KTQ0U46B","3RBI0I35XEP26UEZY8S8UZLEA1IY3E","","322","img/land2.png","75","322.79999999701977","2","1","1","2","0.8,0.2,0.2,0.2,0.8,0.2,0.2,0.2,0.8","0.2,0.8,0.2,0.2,0.2,0.8,0.8,0.2,0.2","3","",""
"","html-keyboard-response","269","307124","0.0-269.0","3ZPBJO59KQNGOBO18ZZYAR8BJ06DHT","A3RJC9KTQ0U46B","3RBI0I35XEP26UEZY8S8UZLEA1IY3E","","null","<img src=""img/land2.png"" style=""width:200px; border:14px solid green;"">","null","","","","","","","","","",""
"","image-keyboard-response","270","307860","0.0-270.0","3ZPBJO59KQNGOBO18ZZYAR8BJ06DHT","A3RJC9KTQ0U46B","3RBI0I35XEP26UEZY8S8UZLEA1IY3E","","735","img/land1.png","74","735.8999999985099","1","0","2","2","0.8,0.2,0.2,0.2,0.8,0.2,0.2,0.2,0.8","0.2,0.8,0.2,0.2,0.2,0.8,0.8,0.2,0.2","3","",""
"","html-keyboard-response","271","308161","0.0-271.0","3ZPBJO59KQNGOBO18ZZYAR8BJ06DHT","A3RJC9KTQ0U46B","3RBI0I35XEP26UEZY8S8UZLEA1IY3E","","null","<img src=""img/land1.png"" style=""width:200px;border:14px solid red;"">","null","","","","","","","","","",""
"","image-keyboard-response","272","308748","0.0-272.0","3ZPBJO59KQNGOBO18ZZYAR8BJ06DHT","A3RJC9KTQ0U46B","3RBI0I35XEP26UEZY8S8UZLEA1IY3E","","586","img/land5.png","76","586.6999999955297","3","0","3","2","0.8,0.2,0.2,0.2,0.8,0.2,0.2,0.2,0.8","0.2,0.8,0.2,0.2,0.2,0.8,0.8,0.2,0.2","3","",""
"","html-keyboard-response","273","309050","0.0-273.0","3ZPBJO59KQNGOBO18ZZYAR8BJ06DHT","A3RJC9KTQ0U46B","3RBI0I35XEP26UEZY8S8UZLEA1IY3E","","null","<img src=""img/land5.png"" style=""width:200px;border:14px solid red;"">","null","","","","","","","","","",""
"","image-keyboard-response","274","309700","0.0-274.0","3ZPBJO59KQNGOBO18ZZYAR8BJ06DHT","A3RJC9KTQ0U46B","3RBI0I35XEP26UEZY8S8UZLEA1IY3E","","648.5","img/land5.png","75","649.2000000029802","2","0","3","2","0.8,0.2,0.2,0.2,0.8,0.2,0.2,0.2,0.8","0.2,0.8,0.2,0.2,0.2,0.8,0.8,0.2,0.2","3","",""
"","html-keyboard-response","275","310002","0.0-275.0","3ZPBJO59KQNGOBO18ZZYAR8BJ06DHT","A3RJC9KTQ0U46B","3RBI0I35XEP26UEZY8S8UZLEA1IY3E","","null","<img src=""img/land5.png"" style=""width:200px;border:14px solid red;"">","null","","","","","","","","","",""
"","image-keyboard-response","276","310124","0.0-276.0","3ZPBJO59KQNGOBO18ZZYAR8BJ06DHT","A3RJC9KTQ0U46B","3RBI0I35XEP26UEZY8S8UZLEA1IY3E","","121.89999999850988","img/land2.png","74","122.60000000149012","1","0","1","2","0.8,0.2,0.2,0.2,0.8,0.2,0.2,0.2,0.8","0.2,0.8,0.2,0.2,0.2,0.8,0.8,0.2,0.2","3","",""
"","html-keyboard-response","277","310426","0.0-277.0","3ZPBJO59KQNGOBO18ZZYAR8BJ06DHT","A3RJC9KTQ0U46B","3RBI0I35XEP26UEZY8S8UZLEA1IY3E","","null","<img src=""img/land2.png"" style=""width:200px;border:14px solid red;"">","null","","","","","","","","","",""
"","image-keyboard-response","278","310868","0.0-278.0","3ZPBJO59KQNGOBO18ZZYAR8BJ06DHT","A3RJC9KTQ0U46B","3RBI0I35XEP26UEZY8S8UZLEA1IY3E","","441.1000000014901","img/land5.png","75","441.79999999701977","2","0","3","2","0.8,0.2,0.2,0.2,0.8,0.2,0.2,0.2,0.8","0.2,0.8,0.2,0.2,0.2,0.8,0.8,0.2,0.2","3","",""
"","html-keyboard-response","279","311170","0.0-279.0","3ZPBJO59KQNGOBO18ZZYAR8BJ06DHT","A3RJC9KTQ0U46B","3RBI0I35XEP26UEZY8S8UZLEA1IY3E","","null","<img src=""img/land5.png"" style=""width:200px;border:14px solid red;"">","null","","","","","","","","","",""
"","image-keyboard-response","280","311284","0.0-280.0","3ZPBJO59KQNGOBO18ZZYAR8BJ06DHT","A3RJC9KTQ0U46B","3RBI0I35XEP26UEZY8S8UZLEA1IY3E","","113.10000000149012","img/land2.png","76","114.09999999403954","3","0","1","2","0.8,0.2,0.2,0.2,0.8,0.2,0.2,0.2,0.8","0.2,0.8,0.2,0.2,0.2,0.8,0.8,0.2,0.2","3","",""
"","html-keyboard-response","281","311587","0.0-281.0","3ZPBJO59KQNGOBO18ZZYAR8BJ06DHT","A3RJC9KTQ0U46B","3RBI0I35XEP26UEZY8S8UZLEA1IY3E","","null","<img src=""img/land2.png"" style=""width:200px;border:14px solid red;"">","null","","","","","","","","","",""
"","image-keyboard-response","282","312276","0.0-282.0","3ZPBJO59KQNGOBO18ZZYAR8BJ06DHT","A3RJC9KTQ0U46B","3RBI0I35XEP26UEZY8S8UZLEA1IY3E","","688.1000000014901","img/land1.png","74","689.1000000014901","1","0","2","2","0.8,0.2,0.2,0.2,0.8,0.2,0.2,0.2,0.8","0.2,0.8,0.2,0.2,0.2,0.8,0.8,0.2,0.2","3","",""
"","html-keyboard-response","283","312579","0.0-283.0","3ZPBJO59KQNGOBO18ZZYAR8BJ06DHT","A3RJC9KTQ0U46B","3RBI0I35XEP26UEZY8S8UZLEA1IY3E","","null","<img src=""img/land1.png"" style=""width:200px;border:14px solid red;"">","null","","","","","","","","","",""
"","image-keyboard-response","284","313356","0.0-284.0","3ZPBJO59KQNGOBO18ZZYAR8BJ06DHT","A3RJC9KTQ0U46B","3RBI0I35XEP26UEZY8S8UZLEA1IY3E","","776.3999999985099","img/land5.png","76","777.3000000044703","3","0","3","2","0.8,0.2,0.2,0.2,0.8,0.2,0.2,0.2,0.8","0.2,0.8,0.2,0.2,0.2,0.8,0.8,0.2,0.2","3","",""
"","html-keyboard-response","285","313659","0.0-285.0","3ZPBJO59KQNGOBO18ZZYAR8BJ06DHT","A3RJC9KTQ0U46B","3RBI0I35XEP26UEZY8S8UZLEA1IY3E","","null","<img src=""img/land5.png"" style=""width:200px;border:14px solid red;"">","null","","","","","","","","","",""
"","image-keyboard-response","286","314452","0.0-286.0","3ZPBJO59KQNGOBO18ZZYAR8BJ06DHT","A3RJC9KTQ0U46B","3RBI0I35XEP26UEZY8S8UZLEA1IY3E","","792.2000000029802","img/land2.png","75","793","2","0","1","2","0.8,0.2,0.2,0.2,0.8,0.2,0.2,0.2,0.8","0.2,0.8,0.2,0.2,0.2,0.8,0.8,0.2,0.2","3","",""
"","html-keyboard-response","287","314755","0.0-287.0","3ZPBJO59KQNGOBO18ZZYAR8BJ06DHT","A3RJC9KTQ0U46B","3RBI0I35XEP26UEZY8S8UZLEA1IY3E","","null","<img src=""img/land2.png"" style=""width:200px;border:14px solid red;"">","null","","","","","","","","","",""
"","image-keyboard-response","288","315556","0.0-288.0","3ZPBJO59KQNGOBO18ZZYAR8BJ06DHT","A3RJC9KTQ0U46B","3RBI0I35XEP26UEZY8S8UZLEA1IY3E","","800.5","img/land2.png","74","801.5","1","0","1","2","0.8,0.2,0.2,0.2,0.8,0.2,0.2,0.2,0.8","0.2,0.8,0.2,0.2,0.2,0.8,0.8,0.2,0.2","3","",""
"","html-keyboard-response","289","315859","0.0-289.0","3ZPBJO59KQNGOBO18ZZYAR8BJ06DHT","A3RJC9KTQ0U46B","3RBI0I35XEP26UEZY8S8UZLEA1IY3E","","null","<img src=""img/land2.png"" style=""width:200px;border:14px solid red;"">","null","","","","","","","","","",""
"","image-keyboard-response","290","316021","0.0-290.0","3ZPBJO59KQNGOBO18ZZYAR8BJ06DHT","A3RJC9KTQ0U46B","3RBI0I35XEP26UEZY8S8UZLEA1IY3E","","160.70000000298023","img/land1.png","76","161.60000000149012","3","1","2","2","0.8,0.2,0.2,0.2,0.8,0.2,0.2,0.2,0.8","0.2,0.8,0.2,0.2,0.2,0.8,0.8,0.2,0.2","3","",""
"","html-keyboard-response","291","316322","0.0-291.0","3ZPBJO59KQNGOBO18ZZYAR8BJ06DHT","A3RJC9KTQ0U46B","3RBI0I35XEP26UEZY8S8UZLEA1IY3E","","null","<img src=""img/land1.png"" style=""width:200px; border:14px solid green;"">","null","","","","","","","","","",""
"","image-keyboard-response","292","317396","0.0-292.0","3ZPBJO59KQNGOBO18ZZYAR8BJ06DHT","A3RJC9KTQ0U46B","3RBI0I35XEP26UEZY8S8UZLEA1IY3E","","1073.5","img/land2.png","75","1074.1000000014901","2","1","1","2","0.8,0.2,0.2,0.2,0.8,0.2,0.2,0.2,0.8","0.2,0.8,0.2,0.2,0.2,0.8,0.8,0.2,0.2","3","",""
"","html-keyboard-response","293","317698","0.0-293.0","3ZPBJO59KQNGOBO18ZZYAR8BJ06DHT","A3RJC9KTQ0U46B","3RBI0I35XEP26UEZY8S8UZLEA1IY3E","","null","<img src=""img/land2.png"" style=""width:200px; border:14px solid green;"">","null","","","","","","","","","",""
"","image-keyboard-response","294","318012","0.0-294.0","3ZPBJO59KQNGOBO18ZZYAR8BJ06DHT","A3RJC9KTQ0U46B","3RBI0I35XEP26UEZY8S8UZLEA1IY3E","","313.5","img/land2.png","75","314.30000000447035","2","1","1","2","0.8,0.2,0.2,0.2,0.8,0.2,0.2,0.2,0.8","0.2,0.8,0.2,0.2,0.2,0.8,0.8,0.2,0.2","3","",""
"","html-keyboard-response","295","318314","0.0-295.0","3ZPBJO59KQNGOBO18ZZYAR8BJ06DHT","A3RJC9KTQ0U46B","3RBI0I35XEP26UEZY8S8UZLEA1IY3E","","null","<img src=""img/land2.png"" style=""width:200px; border:14px solid green;"">","null","","","","","","","","","",""
"","image-keyboard-response","296","319004","0.0-296.0","3ZPBJO59KQNGOBO18ZZYAR8BJ06DHT","A3RJC9KTQ0U46B","3RBI0I35XEP26UEZY8S8UZLEA1IY3E","","689.3999999985099","img/land1.png","75","690.3000000044703","2","0","2","2","0.8,0.2,0.2,0.2,0.8,0.2,0.2,0.2,0.8","0.2,0.8,0.2,0.2,0.2,0.8,0.8,0.2,0.2","3","",""
"","html-keyboard-response","297","319307","0.0-297.0","3ZPBJO59KQNGOBO18ZZYAR8BJ06DHT","A3RJC9KTQ0U46B","3RBI0I35XEP26UEZY8S8UZLEA1IY3E","","null","<img src=""img/land1.png"" style=""width:200px;border:14px solid red;"">","null","","","","","","","","","",""
"","image-keyboard-response","298","320252","0.0-298.0","3ZPBJO59KQNGOBO18ZZYAR8BJ06DHT","A3RJC9KTQ0U46B","3RBI0I35XEP26UEZY8S8UZLEA1IY3E","","944.2999999970198","img/land2.png","75","945.1000000014901","2","1","1","2","0.8,0.2,0.2,0.2,0.8,0.2,0.2,0.2,0.8","0.2,0.8,0.2,0.2,0.2,0.8,0.8,0.2,0.2","3","",""
"","html-keyboard-response","299","320556","0.0-299.0","3ZPBJO59KQNGOBO18ZZYAR8BJ06DHT","A3RJC9KTQ0U46B","3RBI0I35XEP26UEZY8S8UZLEA1IY3E","","null","<img src=""img/land2.png"" style=""width:200px; border:14px solid green;"">","null","","","","","","","","","",""
"","image-keyboard-response","300","321196","0.0-300.0","3ZPBJO59KQNGOBO18ZZYAR8BJ06DHT","A3RJC9KTQ0U46B","3RBI0I35XEP26UEZY8S8UZLEA1IY3E","","639.8000000044703","img/land2.png","75","640.5999999940395","2","1","1","2","0.8,0.2,0.2,0.2,0.8,0.2,0.2,0.2,0.8","0.2,0.8,0.2,0.2,0.2,0.8,0.8,0.2,0.2","3","",""
"","html-keyboard-response","301","321499","0.0-301.0","3ZPBJO59KQNGOBO18ZZYAR8BJ06DHT","A3RJC9KTQ0U46B","3RBI0I35XEP26UEZY8S8UZLEA1IY3E","","null","<img src=""img/land2.png"" style=""width:200px; border:14px solid green;"">","null","","","","","","","","","",""
"","image-keyboard-response","302","323397","0.0-302.0","3ZPBJO59KQNGOBO18ZZYAR8BJ06DHT","A3RJC9KTQ0U46B","3RBI0I35XEP26UEZY8S8UZLEA1IY3E","","1896.2999999970198","img/land6.png","76","1897.3000000044703","3","1","3","1","0.8,0.2,0.2,0.2,0.8,0.2,0.2,0.2,0.8","0.8,0.2,0.2,0.2,0.8,0.2,0.2,0.2,0.8","1","",""
"","html-keyboard-response","303","323700","0.0-303.0","3ZPBJO59KQNGOBO18ZZYAR8BJ06DHT","A3RJC9KTQ0U46B","3RBI0I35XEP26UEZY8S8UZLEA1IY3E","","null","<img src=""img/land6.png"" style=""width:200px; border:14px solid green;"">","null","","","","","","","","","",""
"","image-keyboard-response","304","323980","0.0-304.0","3ZPBJO59KQNGOBO18ZZYAR8BJ06DHT","A3RJC9KTQ0U46B","3RBI0I35XEP26UEZY8S8UZLEA1IY3E","","279.5","img/land6.png","76","280.30000000447035","3","1","3","1","0.8,0.2,0.2,0.2,0.8,0.2,0.2,0.2,0.8","0.8,0.2,0.2,0.2,0.8,0.2,0.2,0.2,0.8","1","",""
"","html-keyboard-response","305","324283","0.0-305.0","3ZPBJO59KQNGOBO18ZZYAR8BJ06DHT","A3RJC9KTQ0U46B","3RBI0I35XEP26UEZY8S8UZLEA1IY3E","","null","<img src=""img/land6.png"" style=""width:200px; border:14px solid green;"">","null","","","","","","","","","",""
"","image-keyboard-response","306","324404","0.0-306.0","3ZPBJO59KQNGOBO18ZZYAR8BJ06DHT","A3RJC9KTQ0U46B","3RBI0I35XEP26UEZY8S8UZLEA1IY3E","","120.5","img/land4.png","76","121.5","3","0","2","1","0.8,0.2,0.2,0.2,0.8,0.2,0.2,0.2,0.8","0.8,0.2,0.2,0.2,0.8,0.2,0.2,0.2,0.8","1","",""
"","html-keyboard-response","307","324706","0.0-307.0","3ZPBJO59KQNGOBO18ZZYAR8BJ06DHT","A3RJC9KTQ0U46B","3RBI0I35XEP26UEZY8S8UZLEA1IY3E","","null","<img src=""img/land4.png"" style=""width:200px;border:14px solid red;"">","null","","","","","","","","","",""
"","image-keyboard-response","308","324988","0.0-308.0","3ZPBJO59KQNGOBO18ZZYAR8BJ06DHT","A3RJC9KTQ0U46B","3RBI0I35XEP26UEZY8S8UZLEA1IY3E","","280.70000000298023","img/land4.png","74","281.5","1","0","2","1","0.8,0.2,0.2,0.2,0.8,0.2,0.2,0.2,0.8","0.8,0.2,0.2,0.2,0.8,0.2,0.2,0.2,0.8","1","",""
"","html-keyboard-response","309","325290","0.0-309.0","3ZPBJO59KQNGOBO18ZZYAR8BJ06DHT","A3RJC9KTQ0U46B","3RBI0I35XEP26UEZY8S8UZLEA1IY3E","","null","<img src=""img/land4.png"" style=""width:200px;border:14px solid red;"">","null","","","","","","","","","",""
"","image-keyboard-response","310","326076","0.0-310.0","3ZPBJO59KQNGOBO18ZZYAR8BJ06DHT","A3RJC9KTQ0U46B","3RBI0I35XEP26UEZY8S8UZLEA1IY3E","","784.6999999955297","img/land4.png","75","785.5","2","1","2","1","0.8,0.2,0.2,0.2,0.8,0.2,0.2,0.2,0.8","0.8,0.2,0.2,0.2,0.8,0.2,0.2,0.2,0.8","1","",""
"","html-keyboard-response","311","326384","0.0-311.0","3ZPBJO59KQNGOBO18ZZYAR8BJ06DHT","A3RJC9KTQ0U46B","3RBI0I35XEP26UEZY8S8UZLEA1IY3E","","null","<img src=""img/land4.png"" style=""width:200px; border:14px solid green;"">","null","","","","","","","","","",""
"","image-keyboard-response","312","326636","0.0-312.0","3ZPBJO59KQNGOBO18ZZYAR8BJ06DHT","A3RJC9KTQ0U46B","3RBI0I35XEP26UEZY8S8UZLEA1IY3E","","250.30000000447035","img/land6.png","75","251.39999999850988","2","1","3","1","0.8,0.2,0.2,0.2,0.8,0.2,0.2,0.2,0.8","0.8,0.2,0.2,0.2,0.8,0.2,0.2,0.2,0.8","1","",""
"","html-keyboard-response","313","326938","0.0-313.0","3ZPBJO59KQNGOBO18ZZYAR8BJ06DHT","A3RJC9KTQ0U46B","3RBI0I35XEP26UEZY8S8UZLEA1IY3E","","null","<img src=""img/land6.png"" style=""width:200px; border:14px solid green;"">","null","","","","","","","","","",""
"","image-keyboard-response","314","327092","0.0-314.0","3ZPBJO59KQNGOBO18ZZYAR8BJ06DHT","A3RJC9KTQ0U46B","3RBI0I35XEP26UEZY8S8UZLEA1IY3E","","153.39999999850988","img/land4.png","75","154","2","1","2","1","0.8,0.2,0.2,0.2,0.8,0.2,0.2,0.2,0.8","0.8,0.2,0.2,0.2,0.8,0.2,0.2,0.2,0.8","1","",""
"","html-keyboard-response","315","327395","0.0-315.0","3ZPBJO59KQNGOBO18ZZYAR8BJ06DHT","A3RJC9KTQ0U46B","3RBI0I35XEP26UEZY8S8UZLEA1IY3E","","null","<img src=""img/land4.png"" style=""width:200px; border:14px solid green;"">","null","","","","","","","","","",""
"","image-keyboard-response","316","327637","0.0-316.0","3ZPBJO59KQNGOBO18ZZYAR8BJ06DHT","A3RJC9KTQ0U46B","3RBI0I35XEP26UEZY8S8UZLEA1IY3E","","241","img/land6.png","75","241.79999999701977","2","1","3","1","0.8,0.2,0.2,0.2,0.8,0.2,0.2,0.2,0.8","0.8,0.2,0.2,0.2,0.8,0.2,0.2,0.2,0.8","1","",""
"","html-keyboard-response","317","327939","0.0-317.0","3ZPBJO59KQNGOBO18ZZYAR8BJ06DHT","A3RJC9KTQ0U46B","3RBI0I35XEP26UEZY8S8UZLEA1IY3E","","null","<img src=""img/land6.png"" style=""width:200px; border:14px solid green;"">","null","","","","","","","","","",""
"","image-keyboard-response","318","328044","0.0-318.0","3ZPBJO59KQNGOBO18ZZYAR8BJ06DHT","A3RJC9KTQ0U46B","3RBI0I35XEP26UEZY8S8UZLEA1IY3E","","103.89999999850988","img/land6.png","75","104.70000000298023","2","1","3","1","0.8,0.2,0.2,0.2,0.8,0.2,0.2,0.2,0.8","0.8,0.2,0.2,0.2,0.8,0.2,0.2,0.2,0.8","1","",""
"","html-keyboard-response","319","328346","0.0-319.0","3ZPBJO59KQNGOBO18ZZYAR8BJ06DHT","A3RJC9KTQ0U46B","3RBI0I35XEP26UEZY8S8UZLEA1IY3E","","null","<img src=""img/land6.png"" style=""width:200px; border:14px solid green;"">","null","","","","","","","","","",""
"","image-keyboard-response","320","328468","0.0-320.0","3ZPBJO59KQNGOBO18ZZYAR8BJ06DHT","A3RJC9KTQ0U46B","3RBI0I35XEP26UEZY8S8UZLEA1IY3E","","121.29999999701977","img/land6.png","75","122.20000000298023","2","1","3","1","0.8,0.2,0.2,0.2,0.8,0.2,0.2,0.2,0.8","0.8,0.2,0.2,0.2,0.8,0.2,0.2,0.2,0.8","1","",""
"","html-keyboard-response","321","328770","0.0-321.0","3ZPBJO59KQNGOBO18ZZYAR8BJ06DHT","A3RJC9KTQ0U46B","3RBI0I35XEP26UEZY8S8UZLEA1IY3E","","null","<img src=""img/land6.png"" style=""width:200px; border:14px solid green;"">","null","","","","","","","","","",""
"","image-keyboard-response","322","329189","0.0-322.0","3ZPBJO59KQNGOBO18ZZYAR8BJ06DHT","A3RJC9KTQ0U46B","3RBI0I35XEP26UEZY8S8UZLEA1IY3E","","417.5","img/land4.png","75","418.19999999552965","2","0","2","1","0.8,0.2,0.2,0.2,0.8,0.2,0.2,0.2,0.8","0.8,0.2,0.2,0.2,0.8,0.2,0.2,0.2,0.8","1","",""
"","html-keyboard-response","323","329491","0.0-323.0","3ZPBJO59KQNGOBO18ZZYAR8BJ06DHT","A3RJC9KTQ0U46B","3RBI0I35XEP26UEZY8S8UZLEA1IY3E","","null","<img src=""img/land4.png"" style=""width:200px;border:14px solid red;"">","null","","","","","","","","","",""
"","image-keyboard-response","324","329644","0.0-324.0","3ZPBJO59KQNGOBO18ZZYAR8BJ06DHT","A3RJC9KTQ0U46B","3RBI0I35XEP26UEZY8S8UZLEA1IY3E","","152.39999999850988","img/land6.png","76","152.89999999850988","3","1","3","1","0.8,0.2,0.2,0.2,0.8,0.2,0.2,0.2,0.8","0.8,0.2,0.2,0.2,0.8,0.2,0.2,0.2,0.8","1","",""
"","html-keyboard-response","325","329949","0.0-325.0","3ZPBJO59KQNGOBO18ZZYAR8BJ06DHT","A3RJC9KTQ0U46B","3RBI0I35XEP26UEZY8S8UZLEA1IY3E","","null","<img src=""img/land6.png"" style=""width:200px; border:14px solid green;"">","null","","","","","","","","","",""
"","image-keyboard-response","326","330132","0.0-326.0","3ZPBJO59KQNGOBO18ZZYAR8BJ06DHT","A3RJC9KTQ0U46B","3RBI0I35XEP26UEZY8S8UZLEA1IY3E","","182.29999999701977","img/land4.png","76","183.19999999552965","3","0","2","1","0.8,0.2,0.2,0.2,0.8,0.2,0.2,0.2,0.8","0.8,0.2,0.2,0.2,0.8,0.2,0.2,0.2,0.8","1","",""
"","html-keyboard-response","327","330434","0.0-327.0","3ZPBJO59KQNGOBO18ZZYAR8BJ06DHT","A3RJC9KTQ0U46B","3RBI0I35XEP26UEZY8S8UZLEA1IY3E","","null","<img src=""img/land4.png"" style=""width:200px;border:14px solid red;"">","null","","","","","","","","","",""
"","image-keyboard-response","328","330676","0.0-328.0","3ZPBJO59KQNGOBO18ZZYAR8BJ06DHT","A3RJC9KTQ0U46B","3RBI0I35XEP26UEZY8S8UZLEA1IY3E","","241.70000000298023","img/land4.png","74","242.40000000596046","1","0","2","1","0.8,0.2,0.2,0.2,0.8,0.2,0.2,0.2,0.8","0.8,0.2,0.2,0.2,0.8,0.2,0.2,0.2,0.8","1","",""
"","html-keyboard-response","329","330979","0.0-329.0","3ZPBJO59KQNGOBO18ZZYAR8BJ06DHT","A3RJC9KTQ0U46B","3RBI0I35XEP26UEZY8S8UZLEA1IY3E","","null","<img src=""img/land4.png"" style=""width:200px;border:14px solid red;"">","null","","","","","","","","","",""
"","image-keyboard-response","330","331108","0.0-330.0","3ZPBJO59KQNGOBO18ZZYAR8BJ06DHT","A3RJC9KTQ0U46B","3RBI0I35XEP26UEZY8S8UZLEA1IY3E","","128.29999999701977","img/land6.png","75","129.10000000149012","2","0","3","1","0.8,0.2,0.2,0.2,0.8,0.2,0.2,0.2,0.8","0.8,0.2,0.2,0.2,0.8,0.2,0.2,0.2,0.8","1","",""
"","html-keyboard-response","331","331410","0.0-331.0","3ZPBJO59KQNGOBO18ZZYAR8BJ06DHT","A3RJC9KTQ0U46B","3RBI0I35XEP26UEZY8S8UZLEA1IY3E","","null","<img src=""img/land6.png"" style=""width:200px;border:14px solid red;"">","null","","","","","","","","","",""
"","image-keyboard-response","332","331636","0.0-332.0","3ZPBJO59KQNGOBO18ZZYAR8BJ06DHT","A3RJC9KTQ0U46B","3RBI0I35XEP26UEZY8S8UZLEA1IY3E","","225.69999999552965","img/land3.png","76","226.30000000447035","3","0","1","1","0.8,0.2,0.2,0.2,0.8,0.2,0.2,0.2,0.8","0.8,0.2,0.2,0.2,0.8,0.2,0.2,0.2,0.8","1","",""
"","html-keyboard-response","333","331938","0.0-333.0","3ZPBJO59KQNGOBO18ZZYAR8BJ06DHT","A3RJC9KTQ0U46B","3RBI0I35XEP26UEZY8S8UZLEA1IY3E","","null","<img src=""img/land3.png"" style=""width:200px;border:14px solid red;"">","null","","","","","","","","","",""
"","image-keyboard-response","334","332421","0.0-334.0","3ZPBJO59KQNGOBO18ZZYAR8BJ06DHT","A3RJC9KTQ0U46B","3RBI0I35XEP26UEZY8S8UZLEA1IY3E","","481.70000000298023","img/land6.png","75","482.6000000014901","2","0","3","1","0.8,0.2,0.2,0.2,0.8,0.2,0.2,0.2,0.8","0.8,0.2,0.2,0.2,0.8,0.2,0.2,0.2,0.8","1","",""
"","html-keyboard-response","335","332723","0.0-335.0","3ZPBJO59KQNGOBO18ZZYAR8BJ06DHT","A3RJC9KTQ0U46B","3RBI0I35XEP26UEZY8S8UZLEA1IY3E","","null","<img src=""img/land6.png"" style=""width:200px;border:14px solid red;"">","null","","","","","","","","","",""
"","image-keyboard-response","336","332804","0.0-336.0","3ZPBJO59KQNGOBO18ZZYAR8BJ06DHT","A3RJC9KTQ0U46B","3RBI0I35XEP26UEZY8S8UZLEA1IY3E","","80.59999999403954","img/land6.png","76","81.30000000447035","3","1","3","1","0.8,0.2,0.2,0.2,0.8,0.2,0.2,0.2,0.8","0.8,0.2,0.2,0.2,0.8,0.2,0.2,0.2,0.8","1","",""
"","html-keyboard-response","337","333106","0.0-337.0","3ZPBJO59KQNGOBO18ZZYAR8BJ06DHT","A3RJC9KTQ0U46B","3RBI0I35XEP26UEZY8S8UZLEA1IY3E","","null","<img src=""img/land6.png"" style=""width:200px; border:14px solid green;"">","null","","","","","","","","","",""
"","image-keyboard-response","338","333316","0.0-338.0","3ZPBJO59KQNGOBO18ZZYAR8BJ06DHT","A3RJC9KTQ0U46B","3RBI0I35XEP26UEZY8S8UZLEA1IY3E","","208.89999999850988","img/land3.png","76","209.70000000298023","3","1","1","1","0.8,0.2,0.2,0.2,0.8,0.2,0.2,0.2,0.8","0.8,0.2,0.2,0.2,0.8,0.2,0.2,0.2,0.8","1","",""
"","html-keyboard-response","339","333618","0.0-339.0","3ZPBJO59KQNGOBO18ZZYAR8BJ06DHT","A3RJC9KTQ0U46B","3RBI0I35XEP26UEZY8S8UZLEA1IY3E","","null","<img src=""img/land3.png"" style=""width:200px; border:14px solid green;"">","null","","","","","","","","","",""
"","image-keyboard-response","340","333765","0.0-340.0","3ZPBJO59KQNGOBO18ZZYAR8BJ06DHT","A3RJC9KTQ0U46B","3RBI0I35XEP26UEZY8S8UZLEA1IY3E","","145.89999999850988","img/land3.png","76","146.70000000298023","3","0","1","1","0.8,0.2,0.2,0.2,0.8,0.2,0.2,0.2,0.8","0.8,0.2,0.2,0.2,0.8,0.2,0.2,0.2,0.8","1","",""
"","html-keyboard-response","341","334066","0.0-341.0","3ZPBJO59KQNGOBO18ZZYAR8BJ06DHT","A3RJC9KTQ0U46B","3RBI0I35XEP26UEZY8S8UZLEA1IY3E","","null","<img src=""img/land3.png"" style=""width:200px;border:14px solid red;"">","null","","","","","","","","","",""
"","image-keyboard-response","342","334276","0.0-342.0","3ZPBJO59KQNGOBO18ZZYAR8BJ06DHT","A3RJC9KTQ0U46B","3RBI0I35XEP26UEZY8S8UZLEA1IY3E","","209.10000000149012","img/land4.png","75","209.69999999552965","2","1","2","1","0.8,0.2,0.2,0.2,0.8,0.2,0.2,0.2,0.8","0.8,0.2,0.2,0.2,0.8,0.2,0.2,0.2,0.8","1","",""
"","html-keyboard-response","343","334579","0.0-343.0","3ZPBJO59KQNGOBO18ZZYAR8BJ06DHT","A3RJC9KTQ0U46B","3RBI0I35XEP26UEZY8S8UZLEA1IY3E","","null","<img src=""img/land4.png"" style=""width:200px; border:14px solid green;"">","null","","","","","","","","","",""
"","image-keyboard-response","344","334709","0.0-344.0","3ZPBJO59KQNGOBO18ZZYAR8BJ06DHT","A3RJC9KTQ0U46B","3RBI0I35XEP26UEZY8S8UZLEA1IY3E","","128.39999999850988","img/land4.png","75","129.20000000298023","2","1","2","1","0.8,0.2,0.2,0.2,0.8,0.2,0.2,0.2,0.8","0.8,0.2,0.2,0.2,0.8,0.2,0.2,0.2,0.8","1","",""
"","html-keyboard-response","345","335010","0.0-345.0","3ZPBJO59KQNGOBO18ZZYAR8BJ06DHT","A3RJC9KTQ0U46B","3RBI0I35XEP26UEZY8S8UZLEA1IY3E","","null","<img src=""img/land4.png"" style=""width:200px; border:14px solid green;"">","null","","","","","","","","","",""
"","image-keyboard-response","346","335124","0.0-346.0","3ZPBJO59KQNGOBO18ZZYAR8BJ06DHT","A3RJC9KTQ0U46B","3RBI0I35XEP26UEZY8S8UZLEA1IY3E","","113.39999999850988","img/land6.png","75","114","2","1","3","1","0.8,0.2,0.2,0.2,0.8,0.2,0.2,0.2,0.8","0.8,0.2,0.2,0.2,0.8,0.2,0.2,0.2,0.8","1","",""
"","html-keyboard-response","347","335427","0.0-347.0","3ZPBJO59KQNGOBO18ZZYAR8BJ06DHT","A3RJC9KTQ0U46B","3RBI0I35XEP26UEZY8S8UZLEA1IY3E","","null","<img src=""img/land6.png"" style=""width:200px; border:14px solid green;"">","null","","","","","","","","","",""
"","image-keyboard-response","348","335540","0.0-348.0","3ZPBJO59KQNGOBO18ZZYAR8BJ06DHT","A3RJC9KTQ0U46B","3RBI0I35XEP26UEZY8S8UZLEA1IY3E","","112.59999999403954","img/land3.png","75","113.29999999701977","2","0","1","1","0.8,0.2,0.2,0.2,0.8,0.2,0.2,0.2,0.8","0.8,0.2,0.2,0.2,0.8,0.2,0.2,0.2,0.8","1","",""
"","html-keyboard-response","349","335842","0.0-349.0","3ZPBJO59KQNGOBO18ZZYAR8BJ06DHT","A3RJC9KTQ0U46B","3RBI0I35XEP26UEZY8S8UZLEA1IY3E","","null","<img src=""img/land3.png"" style=""width:200px;border:14px solid red;"">","null","","","","","","","","","",""
"","image-keyboard-response","350","336021","0.0-350.0","3ZPBJO59KQNGOBO18ZZYAR8BJ06DHT","A3RJC9KTQ0U46B","3RBI0I35XEP26UEZY8S8UZLEA1IY3E","","177.20000000298023","img/land4.png","76","178.20000000298023","3","0","2","1","0.8,0.2,0.2,0.2,0.8,0.2,0.2,0.2,0.8","0.8,0.2,0.2,0.2,0.8,0.2,0.2,0.2,0.8","1","",""
"","html-keyboard-response","351","336323","0.0-351.0","3ZPBJO59KQNGOBO18ZZYAR8BJ06DHT","A3RJC9KTQ0U46B","3RBI0I35XEP26UEZY8S8UZLEA1IY3E","","null","<img src=""img/land4.png"" style=""width:200px;border:14px solid red;"">","null","","","","","","","","","",""
"","image-keyboard-response","352","336461","0.0-352.0","3ZPBJO59KQNGOBO18ZZYAR8BJ06DHT","A3RJC9KTQ0U46B","3RBI0I35XEP26UEZY8S8UZLEA1IY3E","","136.40000000596046","img/land3.png","74","137","1","1","1","1","0.8,0.2,0.2,0.2,0.8,0.2,0.2,0.2,0.8","0.8,0.2,0.2,0.2,0.8,0.2,0.2,0.2,0.8","1","",""
"","html-keyboard-response","353","336762","0.0-353.0","3ZPBJO59KQNGOBO18ZZYAR8BJ06DHT","A3RJC9KTQ0U46B","3RBI0I35XEP26UEZY8S8UZLEA1IY3E","","null","<img src=""img/land3.png"" style=""width:200px; border:14px solid green;"">","null","","","","","","","","","",""
