"success","trial_type","trial_index","time_elapsed","internal_node_id","assignmentID","mturkID","hitID","view_history","rt","stimulus","key_press","reactionTime","a","r","s","reward_cond","responses","question_order"
"true","fullscreen","0","2513","0.0-0.0","3NGI5ARFTURE9X6DBJN8IY9TFPFP1B","A3ROADR7T6811","3VJ4PFXFJ3TL96TFXMATEMT7KJHUAI","","","","","","","","","","",""
"","instructions","1","23333","0.0-1.0","3NGI5ARFTURE9X6DBJN8IY9TFPFP1B","A3ROADR7T6811","3VJ4PFXFJ3TL96TFXMATEMT7KJHUAI","[{""page_index"":0,""viewing_time"":2512},{""page_index"":1,""viewing_time"":1166},{""page_index"":2,""viewing_time"":1062},{""page_index"":3,""viewing_time"":1574},{""page_index"":4,""viewing_time"":2596},{""page_index"":5,""viewing_time"":10340},{""page_index"":6,""viewing_time"":1568}]","20818","","","","","","","","",""
"","image-keyboard-response","2","23856","0.0-2.0","3NGI5ARFTURE9X6DBJN8IY9TFPFP1B","A3ROADR7T6811","3VJ4PFXFJ3TL96TFXMATEMT7KJHUAI","","521","img/land1.png","74","523","1","1","1","1,0.7,0.7,0.7,1,0.7,0.7,0.7,1","",""
"","html-keyboard-response","3","24166","0.0-3.0","3NGI5ARFTURE9X6DBJN8IY9TFPFP1B","A3ROADR7T6811","3VJ4PFXFJ3TL96TFXMATEMT7KJHUAI","","null","<img src=""img/land1.png"" style=""width:200px; border:14px solid green;"">","null","","","","","","",""
"","image-keyboard-response","4","24623","0.0-4.0","3NGI5ARFTURE9X6DBJN8IY9TFPFP1B","A3ROADR7T6811","3VJ4PFXFJ3TL96TFXMATEMT7KJHUAI","","457","img/land3.png","74","457","1","1","3","1,0.7,0.7,0.7,1,0.7,0.7,0.7,1","",""
"","html-keyboard-response","5","24930","0.0-5.0","3NGI5ARFTURE9X6DBJN8IY9TFPFP1B","A3ROADR7T6811","3VJ4PFXFJ3TL96TFXMATEMT7KJHUAI","","null","<img src=""img/land3.png"" style=""width:200px; border:14px solid green;"">","null","","","","","","",""
"","image-keyboard-response","6","25433","0.0-6.0","3NGI5ARFTURE9X6DBJN8IY9TFPFP1B","A3ROADR7T6811","3VJ4PFXFJ3TL96TFXMATEMT7KJHUAI","","501","img/land1.png","74","502","1","1","1","1,0.7,0.7,0.7,1,0.7,0.7,0.7,1","",""
"","html-keyboard-response","7","25735","0.0-7.0","3NGI5ARFTURE9X6DBJN8IY9TFPFP1B","A3ROADR7T6811","3VJ4PFXFJ3TL96TFXMATEMT7KJHUAI","","null","<img src=""img/land1.png"" style=""width:200px; border:14px solid green;"">","null","","","","","","",""
"","image-keyboard-response","8","26096","0.0-8.0","3NGI5ARFTURE9X6DBJN8IY9TFPFP1B","A3ROADR7T6811","3VJ4PFXFJ3TL96TFXMATEMT7KJHUAI","","360","img/land1.png","74","360","1","1","1","1,0.7,0.7,0.7,1,0.7,0.7,0.7,1","",""
"","html-keyboard-response","9","26402","0.0-9.0","3NGI5ARFTURE9X6DBJN8IY9TFPFP1B","A3ROADR7T6811","3VJ4PFXFJ3TL96TFXMATEMT7KJHUAI","","null","<img src=""img/land1.png"" style=""width:200px; border:14px solid green;"">","null","","","","","","",""
"","image-keyboard-response","10","27088","0.0-10.0","3NGI5ARFTURE9X6DBJN8IY9TFPFP1B","A3ROADR7T6811","3VJ4PFXFJ3TL96TFXMATEMT7KJHUAI","","685","img/land2.png","76","685","3","1","2","1,0.7,0.7,0.7,1,0.7,0.7,0.7,1","",""
"","html-keyboard-response","11","27392","0.0-11.0","3NGI5ARFTURE9X6DBJN8IY9TFPFP1B","A3ROADR7T6811","3VJ4PFXFJ3TL96TFXMATEMT7KJHUAI","","null","<img src=""img/land2.png"" style=""width:200px; border:14px solid green;"">","null","","","","","","",""
"","image-keyboard-response","12","27807","0.0-12.0","3NGI5ARFTURE9X6DBJN8IY9TFPFP1B","A3ROADR7T6811","3VJ4PFXFJ3TL96TFXMATEMT7KJHUAI","","414","img/land2.png","76","415","3","0","2","1,0.7,0.7,0.7,1,0.7,0.7,0.7,1","",""
"","html-keyboard-response","13","28121","0.0-13.0","3NGI5ARFTURE9X6DBJN8IY9TFPFP1B","A3ROADR7T6811","3VJ4PFXFJ3TL96TFXMATEMT7KJHUAI","","null","<img src=""img/land2.png"" style=""width:200px;border:14px solid red;"">","null","","","","","","",""
"","image-keyboard-response","14","28584","0.0-14.0","3NGI5ARFTURE9X6DBJN8IY9TFPFP1B","A3ROADR7T6811","3VJ4PFXFJ3TL96TFXMATEMT7KJHUAI","","461","img/land3.png","75","463","2","1","3","1,0.7,0.7,0.7,1,0.7,0.7,0.7,1","",""
"","html-keyboard-response","15","28890","0.0-15.0","3NGI5ARFTURE9X6DBJN8IY9TFPFP1B","A3ROADR7T6811","3VJ4PFXFJ3TL96TFXMATEMT7KJHUAI","","null","<img src=""img/land3.png"" style=""width:200px; border:14px solid green;"">","null","","","","","","",""
"","image-keyboard-response","16","29635","0.0-16.0","3NGI5ARFTURE9X6DBJN8IY9TFPFP1B","A3ROADR7T6811","3VJ4PFXFJ3TL96TFXMATEMT7KJHUAI","","744","img/land1.png","75","745","2","1","1","1,0.7,0.7,0.7,1,0.7,0.7,0.7,1","",""
"","html-keyboard-response","17","29938","0.0-17.0","3NGI5ARFTURE9X6DBJN8IY9TFPFP1B","A3ROADR7T6811","3VJ4PFXFJ3TL96TFXMATEMT7KJHUAI","","null","<img src=""img/land1.png"" style=""width:200px; border:14px solid green;"">","null","","","","","","",""
"","image-keyboard-response","18","30818","0.0-18.0","3NGI5ARFTURE9X6DBJN8IY9TFPFP1B","A3ROADR7T6811","3VJ4PFXFJ3TL96TFXMATEMT7KJHUAI","","879","img/land3.png","75","879","2","1","3","1,0.7,0.7,0.7,1,0.7,0.7,0.7,1","",""
"","html-keyboard-response","19","31128","0.0-19.0","3NGI5ARFTURE9X6DBJN8IY9TFPFP1B","A3ROADR7T6811","3VJ4PFXFJ3TL96TFXMATEMT7KJHUAI","","null","<img src=""img/land3.png"" style=""width:200px; border:14px solid green;"">","null","","","","","","",""
"","image-keyboard-response","20","31626","0.0-20.0","3NGI5ARFTURE9X6DBJN8IY9TFPFP1B","A3ROADR7T6811","3VJ4PFXFJ3TL96TFXMATEMT7KJHUAI","","497","img/land2.png","74","497","1","1","2","1,0.7,0.7,0.7,1,0.7,0.7,0.7,1","",""
"","html-keyboard-response","21","31942","0.0-21.0","3NGI5ARFTURE9X6DBJN8IY9TFPFP1B","A3ROADR7T6811","3VJ4PFXFJ3TL96TFXMATEMT7KJHUAI","","null","<img src=""img/land2.png"" style=""width:200px; border:14px solid green;"">","null","","","","","","",""
"","image-keyboard-response","22","32284","0.0-22.0","3NGI5ARFTURE9X6DBJN8IY9TFPFP1B","A3ROADR7T6811","3VJ4PFXFJ3TL96TFXMATEMT7KJHUAI","","341","img/land2.png","74","341","1","0","2","1,0.7,0.7,0.7,1,0.7,0.7,0.7,1","",""
"","html-keyboard-response","23","32597","0.0-23.0","3NGI5ARFTURE9X6DBJN8IY9TFPFP1B","A3ROADR7T6811","3VJ4PFXFJ3TL96TFXMATEMT7KJHUAI","","null","<img src=""img/land2.png"" style=""width:200px;border:14px solid red;"">","null","","","","","","",""
"","image-keyboard-response","24","33060","0.0-24.0","3NGI5ARFTURE9X6DBJN8IY9TFPFP1B","A3ROADR7T6811","3VJ4PFXFJ3TL96TFXMATEMT7KJHUAI","","463","img/land2.png","74","463","1","1","2","1,0.7,0.7,0.7,1,0.7,0.7,0.7,1","",""
"","html-keyboard-response","25","33373","0.0-25.0","3NGI5ARFTURE9X6DBJN8IY9TFPFP1B","A3ROADR7T6811","3VJ4PFXFJ3TL96TFXMATEMT7KJHUAI","","null","<img src=""img/land2.png"" style=""width:200px; border:14px solid green;"">","null","","","","","","",""
"","image-keyboard-response","26","34203","0.0-26.0","3NGI5ARFTURE9X6DBJN8IY9TFPFP1B","A3ROADR7T6811","3VJ4PFXFJ3TL96TFXMATEMT7KJHUAI","","829","img/land3.png","75","829","2","1","3","1,0.7,0.7,0.7,1,0.7,0.7,0.7,1","",""
"","html-keyboard-response","27","34513","0.0-27.0","3NGI5ARFTURE9X6DBJN8IY9TFPFP1B","A3ROADR7T6811","3VJ4PFXFJ3TL96TFXMATEMT7KJHUAI","","null","<img src=""img/land3.png"" style=""width:200px; border:14px solid green;"">","null","","","","","","",""
"","image-keyboard-response","28","34812","0.0-28.0","3NGI5ARFTURE9X6DBJN8IY9TFPFP1B","A3ROADR7T6811","3VJ4PFXFJ3TL96TFXMATEMT7KJHUAI","","298","img/land3.png","75","299","2","1","3","1,0.7,0.7,0.7,1,0.7,0.7,0.7,1","",""
"","html-keyboard-response","29","35116","0.0-29.0","3NGI5ARFTURE9X6DBJN8IY9TFPFP1B","A3ROADR7T6811","3VJ4PFXFJ3TL96TFXMATEMT7KJHUAI","","null","<img src=""img/land3.png"" style=""width:200px; border:14px solid green;"">","null","","","","","","",""
"","image-keyboard-response","30","35223","0.0-30.0","3NGI5ARFTURE9X6DBJN8IY9TFPFP1B","A3ROADR7T6811","3VJ4PFXFJ3TL96TFXMATEMT7KJHUAI","","106","img/land3.png","75","106","2","1","3","1,0.7,0.7,0.7,1,0.7,0.7,0.7,1","",""
"","html-keyboard-response","31","35534","0.0-31.0","3NGI5ARFTURE9X6DBJN8IY9TFPFP1B","A3ROADR7T6811","3VJ4PFXFJ3TL96TFXMATEMT7KJHUAI","","null","<img src=""img/land3.png"" style=""width:200px; border:14px solid green;"">","null","","","","","","",""
"","image-keyboard-response","32","36031","0.0-32.0","3NGI5ARFTURE9X6DBJN8IY9TFPFP1B","A3ROADR7T6811","3VJ4PFXFJ3TL96TFXMATEMT7KJHUAI","","496","img/land2.png","76","496","3","1","2","1,0.7,0.7,0.7,1,0.7,0.7,0.7,1","",""
"","html-keyboard-response","33","36347","0.0-33.0","3NGI5ARFTURE9X6DBJN8IY9TFPFP1B","A3ROADR7T6811","3VJ4PFXFJ3TL96TFXMATEMT7KJHUAI","","null","<img src=""img/land2.png"" style=""width:200px; border:14px solid green;"">","null","","","","","","",""
"","image-keyboard-response","34","36637","0.0-34.0","3NGI5ARFTURE9X6DBJN8IY9TFPFP1B","A3ROADR7T6811","3VJ4PFXFJ3TL96TFXMATEMT7KJHUAI","","290","img/land2.png","76","291","3","0","2","1,0.7,0.7,0.7,1,0.7,0.7,0.7,1","",""
"","html-keyboard-response","35","36947","0.0-35.0","3NGI5ARFTURE9X6DBJN8IY9TFPFP1B","A3ROADR7T6811","3VJ4PFXFJ3TL96TFXMATEMT7KJHUAI","","null","<img src=""img/land2.png"" style=""width:200px;border:14px solid red;"">","null","","","","","","",""
"","image-keyboard-response","36","37539","0.0-36.0","3NGI5ARFTURE9X6DBJN8IY9TFPFP1B","A3ROADR7T6811","3VJ4PFXFJ3TL96TFXMATEMT7KJHUAI","","589","img/land1.png","74","590","1","1","1","1,0.7,0.7,0.7,1,0.7,0.7,0.7,1","",""
"","html-keyboard-response","37","37840","0.0-37.0","3NGI5ARFTURE9X6DBJN8IY9TFPFP1B","A3ROADR7T6811","3VJ4PFXFJ3TL96TFXMATEMT7KJHUAI","","null","<img src=""img/land1.png"" style=""width:200px; border:14px solid green;"">","null","","","","","","",""
"","image-keyboard-response","38","38539","0.0-38.0","3NGI5ARFTURE9X6DBJN8IY9TFPFP1B","A3ROADR7T6811","3VJ4PFXFJ3TL96TFXMATEMT7KJHUAI","","699","img/land3.png","75","699","2","1","3","1,0.7,0.7,0.7,1,0.7,0.7,0.7,1","",""
"","html-keyboard-response","39","38849","0.0-39.0","3NGI5ARFTURE9X6DBJN8IY9TFPFP1B","A3ROADR7T6811","3VJ4PFXFJ3TL96TFXMATEMT7KJHUAI","","null","<img src=""img/land3.png"" style=""width:200px; border:14px solid green;"">","null","","","","","","",""
"","image-keyboard-response","40","39197","0.0-40.0","3NGI5ARFTURE9X6DBJN8IY9TFPFP1B","A3ROADR7T6811","3VJ4PFXFJ3TL96TFXMATEMT7KJHUAI","","346","img/land3.png","75","348","2","0","3","1,0.7,0.7,0.7,1,0.7,0.7,0.7,1","",""
"","html-keyboard-response","41","39512","0.0-41.0","3NGI5ARFTURE9X6DBJN8IY9TFPFP1B","A3ROADR7T6811","3VJ4PFXFJ3TL96TFXMATEMT7KJHUAI","","null","<img src=""img/land3.png"" style=""width:200px;border:14px solid red;"">","null","","","","","","",""
"","image-keyboard-response","42","40046","0.0-42.0","3NGI5ARFTURE9X6DBJN8IY9TFPFP1B","A3ROADR7T6811","3VJ4PFXFJ3TL96TFXMATEMT7KJHUAI","","534","img/land2.png","76","534","3","1","2","1,0.7,0.7,0.7,1,0.7,0.7,0.7,1","",""
"","html-keyboard-response","43","40355","0.0-43.0","3NGI5ARFTURE9X6DBJN8IY9TFPFP1B","A3ROADR7T6811","3VJ4PFXFJ3TL96TFXMATEMT7KJHUAI","","null","<img src=""img/land2.png"" style=""width:200px; border:14px solid green;"">","null","","","","","","",""
"","image-keyboard-response","44","40663","0.0-44.0","3NGI5ARFTURE9X6DBJN8IY9TFPFP1B","A3ROADR7T6811","3VJ4PFXFJ3TL96TFXMATEMT7KJHUAI","","307","img/land2.png","76","308","3","1","2","1,0.7,0.7,0.7,1,0.7,0.7,0.7,1","",""
"","html-keyboard-response","45","40968","0.0-45.0","3NGI5ARFTURE9X6DBJN8IY9TFPFP1B","A3ROADR7T6811","3VJ4PFXFJ3TL96TFXMATEMT7KJHUAI","","null","<img src=""img/land2.png"" style=""width:200px; border:14px solid green;"">","null","","","","","","",""
"","image-keyboard-response","46","41190","0.0-46.0","3NGI5ARFTURE9X6DBJN8IY9TFPFP1B","A3ROADR7T6811","3VJ4PFXFJ3TL96TFXMATEMT7KJHUAI","","221","img/land1.png","76","221","3","1","1","1,0.7,0.7,0.7,1,0.7,0.7,0.7,1","",""
"","html-keyboard-response","47","41495","0.0-47.0","3NGI5ARFTURE9X6DBJN8IY9TFPFP1B","A3ROADR7T6811","3VJ4PFXFJ3TL96TFXMATEMT7KJHUAI","","null","<img src=""img/land1.png"" style=""width:200px; border:14px solid green;"">","null","","","","","","",""
"","image-keyboard-response","48","42140","0.0-48.0","3NGI5ARFTURE9X6DBJN8IY9TFPFP1B","A3ROADR7T6811","3VJ4PFXFJ3TL96TFXMATEMT7KJHUAI","","643","img/land2.png","76","645","3","1","2","1,0.7,0.7,0.7,1,0.7,0.7,0.7,1","",""
"","html-keyboard-response","49","42450","0.0-49.0","3NGI5ARFTURE9X6DBJN8IY9TFPFP1B","A3ROADR7T6811","3VJ4PFXFJ3TL96TFXMATEMT7KJHUAI","","null","<img src=""img/land2.png"" style=""width:200px; border:14px solid green;"">","null","","","","","","",""
"","image-keyboard-response","50","42800","0.0-50.0","3NGI5ARFTURE9X6DBJN8IY9TFPFP1B","A3ROADR7T6811","3VJ4PFXFJ3TL96TFXMATEMT7KJHUAI","","350","img/land2.png","76","351","3","1","2","1,0.7,0.7,0.7,1,0.7,0.7,0.7,1","",""
"","html-keyboard-response","51","43112","0.0-51.0","3NGI5ARFTURE9X6DBJN8IY9TFPFP1B","A3ROADR7T6811","3VJ4PFXFJ3TL96TFXMATEMT7KJHUAI","","null","<img src=""img/land2.png"" style=""width:200px; border:14px solid green;"">","null","","","","","","",""
"","image-keyboard-response","52","43336","0.0-52.0","3NGI5ARFTURE9X6DBJN8IY9TFPFP1B","A3ROADR7T6811","3VJ4PFXFJ3TL96TFXMATEMT7KJHUAI","","222","img/land2.png","76","222","3","0","2","1,0.7,0.7,0.7,1,0.7,0.7,0.7,1","",""
"","html-keyboard-response","53","43644","0.0-53.0","3NGI5ARFTURE9X6DBJN8IY9TFPFP1B","A3ROADR7T6811","3VJ4PFXFJ3TL96TFXMATEMT7KJHUAI","","null","<img src=""img/land2.png"" style=""width:200px;border:14px solid red;"">","null","","","","","","",""
"","image-keyboard-response","54","44377","0.0-54.0","3NGI5ARFTURE9X6DBJN8IY9TFPFP1B","A3ROADR7T6811","3VJ4PFXFJ3TL96TFXMATEMT7KJHUAI","","733","img/land1.png","74","733","1","1","1","1,0.7,0.7,0.7,1,0.7,0.7,0.7,1","",""
"","html-keyboard-response","55","44678","0.0-55.0","3NGI5ARFTURE9X6DBJN8IY9TFPFP1B","A3ROADR7T6811","3VJ4PFXFJ3TL96TFXMATEMT7KJHUAI","","null","<img src=""img/land1.png"" style=""width:200px; border:14px solid green;"">","null","","","","","","",""
"","image-keyboard-response","56","45499","0.0-56.0","3NGI5ARFTURE9X6DBJN8IY9TFPFP1B","A3ROADR7T6811","3VJ4PFXFJ3TL96TFXMATEMT7KJHUAI","","820","img/land2.png","76","821","3","1","2","1,0.7,0.7,0.7,1,0.7,0.7,0.7,1","",""
"","html-keyboard-response","57","45804","0.0-57.0","3NGI5ARFTURE9X6DBJN8IY9TFPFP1B","A3ROADR7T6811","3VJ4PFXFJ3TL96TFXMATEMT7KJHUAI","","null","<img src=""img/land2.png"" style=""width:200px; border:14px solid green;"">","null","","","","","","",""
"","image-keyboard-response","58","46072","0.0-58.0","3NGI5ARFTURE9X6DBJN8IY9TFPFP1B","A3ROADR7T6811","3VJ4PFXFJ3TL96TFXMATEMT7KJHUAI","","267","img/land2.png","76","267","3","1","2","1,0.7,0.7,0.7,1,0.7,0.7,0.7,1","",""
"","html-keyboard-response","59","46375","0.0-59.0","3NGI5ARFTURE9X6DBJN8IY9TFPFP1B","A3ROADR7T6811","3VJ4PFXFJ3TL96TFXMATEMT7KJHUAI","","null","<img src=""img/land2.png"" style=""width:200px; border:14px solid green;"">","null","","","","","","",""
"","image-keyboard-response","60","46678","0.0-60.0","3NGI5ARFTURE9X6DBJN8IY9TFPFP1B","A3ROADR7T6811","3VJ4PFXFJ3TL96TFXMATEMT7KJHUAI","","302","img/land2.png","76","302","3","1","2","1,0.7,0.7,0.7,1,0.7,0.7,0.7,1","",""
"","html-keyboard-response","61","46981","0.0-61.0","3NGI5ARFTURE9X6DBJN8IY9TFPFP1B","A3ROADR7T6811","3VJ4PFXFJ3TL96TFXMATEMT7KJHUAI","","null","<img src=""img/land2.png"" style=""width:200px; border:14px solid green;"">","null","","","","","","",""
"","image-keyboard-response","62","47234","0.0-62.0","3NGI5ARFTURE9X6DBJN8IY9TFPFP1B","A3ROADR7T6811","3VJ4PFXFJ3TL96TFXMATEMT7KJHUAI","","252","img/land2.png","76","253","3","0","2","1,0.7,0.7,0.7,1,0.7,0.7,0.7,1","",""
"","html-keyboard-response","63","47541","0.0-63.0","3NGI5ARFTURE9X6DBJN8IY9TFPFP1B","A3ROADR7T6811","3VJ4PFXFJ3TL96TFXMATEMT7KJHUAI","","null","<img src=""img/land2.png"" style=""width:200px;border:14px solid red;"">","null","","","","","","",""
"","image-keyboard-response","64","47893","0.0-64.0","3NGI5ARFTURE9X6DBJN8IY9TFPFP1B","A3ROADR7T6811","3VJ4PFXFJ3TL96TFXMATEMT7KJHUAI","","352","img/land2.png","76","353","3","0","2","1,0.7,0.7,0.7,1,0.7,0.7,0.7,1","",""
"","html-keyboard-response","65","48200","0.0-65.0","3NGI5ARFTURE9X6DBJN8IY9TFPFP1B","A3ROADR7T6811","3VJ4PFXFJ3TL96TFXMATEMT7KJHUAI","","null","<img src=""img/land2.png"" style=""width:200px;border:14px solid red;"">","null","","","","","","",""
"","image-keyboard-response","66","48835","0.0-66.0","3NGI5ARFTURE9X6DBJN8IY9TFPFP1B","A3ROADR7T6811","3VJ4PFXFJ3TL96TFXMATEMT7KJHUAI","","634","img/land3.png","75","634","2","1","3","1,0.7,0.7,0.7,1,0.7,0.7,0.7,1","",""
"","html-keyboard-response","67","49139","0.0-67.0","3NGI5ARFTURE9X6DBJN8IY9TFPFP1B","A3ROADR7T6811","3VJ4PFXFJ3TL96TFXMATEMT7KJHUAI","","null","<img src=""img/land3.png"" style=""width:200px; border:14px solid green;"">","null","","","","","","",""
"","image-keyboard-response","68","49826","0.0-68.0","3NGI5ARFTURE9X6DBJN8IY9TFPFP1B","A3ROADR7T6811","3VJ4PFXFJ3TL96TFXMATEMT7KJHUAI","","686","img/land2.png","76","686","3","1","2","1,0.7,0.7,0.7,1,0.7,0.7,0.7,1","",""
"","html-keyboard-response","69","50141","0.0-69.0","3NGI5ARFTURE9X6DBJN8IY9TFPFP1B","A3ROADR7T6811","3VJ4PFXFJ3TL96TFXMATEMT7KJHUAI","","null","<img src=""img/land2.png"" style=""width:200px; border:14px solid green;"">","null","","","","","","",""
"","image-keyboard-response","70","50785","0.0-70.0","3NGI5ARFTURE9X6DBJN8IY9TFPFP1B","A3ROADR7T6811","3VJ4PFXFJ3TL96TFXMATEMT7KJHUAI","","644","img/land1.png","74","644","1","1","1","1,0.7,0.7,0.7,1,0.7,0.7,0.7,1","",""
"","html-keyboard-response","71","51088","0.0-71.0","3NGI5ARFTURE9X6DBJN8IY9TFPFP1B","A3ROADR7T6811","3VJ4PFXFJ3TL96TFXMATEMT7KJHUAI","","null","<img src=""img/land1.png"" style=""width:200px; border:14px solid green;"">","null","","","","","","",""
"","image-keyboard-response","72","51859","0.0-72.0","3NGI5ARFTURE9X6DBJN8IY9TFPFP1B","A3ROADR7T6811","3VJ4PFXFJ3TL96TFXMATEMT7KJHUAI","","771","img/land2.png","76","771","3","1","2","1,0.7,0.7,0.7,1,0.7,0.7,0.7,1","",""
"","html-keyboard-response","73","52174","0.0-73.0","3NGI5ARFTURE9X6DBJN8IY9TFPFP1B","A3ROADR7T6811","3VJ4PFXFJ3TL96TFXMATEMT7KJHUAI","","null","<img src=""img/land2.png"" style=""width:200px; border:14px solid green;"">","null","","","","","","",""
"","image-keyboard-response","74","52618","0.0-74.0","3NGI5ARFTURE9X6DBJN8IY9TFPFP1B","A3ROADR7T6811","3VJ4PFXFJ3TL96TFXMATEMT7KJHUAI","","442","img/land1.png","74","443","1","1","1","1,0.7,0.7,0.7,1,0.7,0.7,0.7,1","",""
"","html-keyboard-response","75","52928","0.0-75.0","3NGI5ARFTURE9X6DBJN8IY9TFPFP1B","A3ROADR7T6811","3VJ4PFXFJ3TL96TFXMATEMT7KJHUAI","","null","<img src=""img/land1.png"" style=""width:200px; border:14px solid green;"">","null","","","","","","",""
"","image-keyboard-response","76","53558","0.0-76.0","3NGI5ARFTURE9X6DBJN8IY9TFPFP1B","A3ROADR7T6811","3VJ4PFXFJ3TL96TFXMATEMT7KJHUAI","","628","img/land3.png","75","630","2","0","3","1,0.7,0.7,0.7,1,0.7,0.7,0.7,1","",""
"","html-keyboard-response","77","53860","0.0-77.0","3NGI5ARFTURE9X6DBJN8IY9TFPFP1B","A3ROADR7T6811","3VJ4PFXFJ3TL96TFXMATEMT7KJHUAI","","null","<img src=""img/land3.png"" style=""width:200px;border:14px solid red;"">","null","","","","","","",""
"","image-keyboard-response","78","54377","0.0-78.0","3NGI5ARFTURE9X6DBJN8IY9TFPFP1B","A3ROADR7T6811","3VJ4PFXFJ3TL96TFXMATEMT7KJHUAI","","517","img/land3.png","75","517","2","0","3","1,0.7,0.7,0.7,1,0.7,0.7,0.7,1","",""
"","html-keyboard-response","79","54692","0.0-79.0","3NGI5ARFTURE9X6DBJN8IY9TFPFP1B","A3ROADR7T6811","3VJ4PFXFJ3TL96TFXMATEMT7KJHUAI","","null","<img src=""img/land3.png"" style=""width:200px;border:14px solid red;"">","null","","","","","","",""
"","image-keyboard-response","80","55369","0.0-80.0","3NGI5ARFTURE9X6DBJN8IY9TFPFP1B","A3ROADR7T6811","3VJ4PFXFJ3TL96TFXMATEMT7KJHUAI","","675","img/land1.png","74","676","1","1","1","1,0.7,0.7,0.7,1,0.7,0.7,0.7,1","",""
"","html-keyboard-response","81","55677","0.0-81.0","3NGI5ARFTURE9X6DBJN8IY9TFPFP1B","A3ROADR7T6811","3VJ4PFXFJ3TL96TFXMATEMT7KJHUAI","","null","<img src=""img/land1.png"" style=""width:200px; border:14px solid green;"">","null","","","","","","",""
"","image-keyboard-response","82","56172","0.0-82.0","3NGI5ARFTURE9X6DBJN8IY9TFPFP1B","A3ROADR7T6811","3VJ4PFXFJ3TL96TFXMATEMT7KJHUAI","","495","img/land3.png","75","495","2","1","3","1,0.7,0.7,0.7,1,0.7,0.7,0.7,1","",""
"","html-keyboard-response","83","56479","0.0-83.0","3NGI5ARFTURE9X6DBJN8IY9TFPFP1B","A3ROADR7T6811","3VJ4PFXFJ3TL96TFXMATEMT7KJHUAI","","null","<img src=""img/land3.png"" style=""width:200px; border:14px solid green;"">","null","","","","","","",""
"","image-keyboard-response","84","57143","0.0-84.0","3NGI5ARFTURE9X6DBJN8IY9TFPFP1B","A3ROADR7T6811","3VJ4PFXFJ3TL96TFXMATEMT7KJHUAI","","664","img/land1.png","74","664","1","1","1","1,0.7,0.7,0.7,1,0.7,0.7,0.7,1","",""
"","html-keyboard-response","85","57449","0.0-85.0","3NGI5ARFTURE9X6DBJN8IY9TFPFP1B","A3ROADR7T6811","3VJ4PFXFJ3TL96TFXMATEMT7KJHUAI","","null","<img src=""img/land1.png"" style=""width:200px; border:14px solid green;"">","null","","","","","","",""
"","image-keyboard-response","86","57810","0.0-86.0","3NGI5ARFTURE9X6DBJN8IY9TFPFP1B","A3ROADR7T6811","3VJ4PFXFJ3TL96TFXMATEMT7KJHUAI","","360","img/land1.png","74","361","1","1","1","1,0.7,0.7,0.7,1,0.7,0.7,0.7,1","",""
"","html-keyboard-response","87","58113","0.0-87.0","3NGI5ARFTURE9X6DBJN8IY9TFPFP1B","A3ROADR7T6811","3VJ4PFXFJ3TL96TFXMATEMT7KJHUAI","","null","<img src=""img/land1.png"" style=""width:200px; border:14px solid green;"">","null","","","","","","",""
"","image-keyboard-response","88","58976","0.0-88.0","3NGI5ARFTURE9X6DBJN8IY9TFPFP1B","A3ROADR7T6811","3VJ4PFXFJ3TL96TFXMATEMT7KJHUAI","","861","img/land3.png","75","861","2","1","3","1,0.7,0.7,0.7,1,0.7,0.7,0.7,1","",""
"","html-keyboard-response","89","59285","0.0-89.0","3NGI5ARFTURE9X6DBJN8IY9TFPFP1B","A3ROADR7T6811","3VJ4PFXFJ3TL96TFXMATEMT7KJHUAI","","null","<img src=""img/land3.png"" style=""width:200px; border:14px solid green;"">","null","","","","","","",""
"","image-keyboard-response","90","59489","0.0-90.0","3NGI5ARFTURE9X6DBJN8IY9TFPFP1B","A3ROADR7T6811","3VJ4PFXFJ3TL96TFXMATEMT7KJHUAI","","204","img/land3.png","75","204","2","0","3","1,0.7,0.7,0.7,1,0.7,0.7,0.7,1","",""
"","html-keyboard-response","91","59801","0.0-91.0","3NGI5ARFTURE9X6DBJN8IY9TFPFP1B","A3ROADR7T6811","3VJ4PFXFJ3TL96TFXMATEMT7KJHUAI","","null","<img src=""img/land3.png"" style=""width:200px;border:14px solid red;"">","null","","","","","","",""
"","image-keyboard-response","92","60276","0.0-92.0","3NGI5ARFTURE9X6DBJN8IY9TFPFP1B","A3ROADR7T6811","3VJ4PFXFJ3TL96TFXMATEMT7KJHUAI","","474","img/land1.png","74","475","1","1","1","1,0.7,0.7,0.7,1,0.7,0.7,0.7,1","",""
"","html-keyboard-response","93","60586","0.0-93.0","3NGI5ARFTURE9X6DBJN8IY9TFPFP1B","A3ROADR7T6811","3VJ4PFXFJ3TL96TFXMATEMT7KJHUAI","","null","<img src=""img/land1.png"" style=""width:200px; border:14px solid green;"">","null","","","","","","",""
"","image-keyboard-response","94","60927","0.0-94.0","3NGI5ARFTURE9X6DBJN8IY9TFPFP1B","A3ROADR7T6811","3VJ4PFXFJ3TL96TFXMATEMT7KJHUAI","","340","img/land1.png","74","340","1","1","1","1,0.7,0.7,0.7,1,0.7,0.7,0.7,1","",""
"","html-keyboard-response","95","61241","0.0-95.0","3NGI5ARFTURE9X6DBJN8IY9TFPFP1B","A3ROADR7T6811","3VJ4PFXFJ3TL96TFXMATEMT7KJHUAI","","null","<img src=""img/land1.png"" style=""width:200px; border:14px solid green;"">","null","","","","","","",""
"","image-keyboard-response","96","61783","0.0-96.0","3NGI5ARFTURE9X6DBJN8IY9TFPFP1B","A3ROADR7T6811","3VJ4PFXFJ3TL96TFXMATEMT7KJHUAI","","541","img/land3.png","75","542","2","0","3","1,0.7,0.7,0.7,1,0.7,0.7,0.7,1","",""
"","html-keyboard-response","97","62089","0.0-97.0","3NGI5ARFTURE9X6DBJN8IY9TFPFP1B","A3ROADR7T6811","3VJ4PFXFJ3TL96TFXMATEMT7KJHUAI","","null","<img src=""img/land3.png"" style=""width:200px;border:14px solid red;"">","null","","","","","","",""
"","image-keyboard-response","98","62359","0.0-98.0","3NGI5ARFTURE9X6DBJN8IY9TFPFP1B","A3ROADR7T6811","3VJ4PFXFJ3TL96TFXMATEMT7KJHUAI","","270","img/land3.png","75","271","2","1","3","1,0.7,0.7,0.7,1,0.7,0.7,0.7,1","",""
"","html-keyboard-response","99","62673","0.0-99.0","3NGI5ARFTURE9X6DBJN8IY9TFPFP1B","A3ROADR7T6811","3VJ4PFXFJ3TL96TFXMATEMT7KJHUAI","","null","<img src=""img/land3.png"" style=""width:200px; border:14px solid green;"">","null","","","","","","",""
"","image-keyboard-response","100","63088","0.0-100.0","3NGI5ARFTURE9X6DBJN8IY9TFPFP1B","A3ROADR7T6811","3VJ4PFXFJ3TL96TFXMATEMT7KJHUAI","","413","img/land1.png","74","413","1","1","1","1,0.7,0.7,0.7,1,0.7,0.7,0.7,1","",""
"","html-keyboard-response","101","63390","0.0-101.0","3NGI5ARFTURE9X6DBJN8IY9TFPFP1B","A3ROADR7T6811","3VJ4PFXFJ3TL96TFXMATEMT7KJHUAI","","null","<img src=""img/land1.png"" style=""width:200px; border:14px solid green;"">","null","","","","","","",""
"","image-keyboard-response","102","64030","0.0-102.0","3NGI5ARFTURE9X6DBJN8IY9TFPFP1B","A3ROADR7T6811","3VJ4PFXFJ3TL96TFXMATEMT7KJHUAI","","638","img/land2.png","76","639","3","1","2","1,0.7,0.7,0.7,1,0.7,0.7,0.7,1","",""
"","html-keyboard-response","103","64350","0.0-103.0","3NGI5ARFTURE9X6DBJN8IY9TFPFP1B","A3ROADR7T6811","3VJ4PFXFJ3TL96TFXMATEMT7KJHUAI","","null","<img src=""img/land2.png"" style=""width:200px; border:14px solid green;"">","null","","","","","","",""
"","image-keyboard-response","104","64839","0.0-104.0","3NGI5ARFTURE9X6DBJN8IY9TFPFP1B","A3ROADR7T6811","3VJ4PFXFJ3TL96TFXMATEMT7KJHUAI","","486","img/land3.png","75","487","2","0","3","1,0.7,0.7,0.7,1,0.7,0.7,0.7,1","",""
"","html-keyboard-response","105","65147","0.0-105.0","3NGI5ARFTURE9X6DBJN8IY9TFPFP1B","A3ROADR7T6811","3VJ4PFXFJ3TL96TFXMATEMT7KJHUAI","","null","<img src=""img/land3.png"" style=""width:200px;border:14px solid red;"">","null","","","","","","",""
"","image-keyboard-response","106","65608","0.0-106.0","3NGI5ARFTURE9X6DBJN8IY9TFPFP1B","A3ROADR7T6811","3VJ4PFXFJ3TL96TFXMATEMT7KJHUAI","","459","img/land3.png","75","459","2","1","3","1,0.7,0.7,0.7,1,0.7,0.7,0.7,1","",""
"","html-keyboard-response","107","65911","0.0-107.0","3NGI5ARFTURE9X6DBJN8IY9TFPFP1B","A3ROADR7T6811","3VJ4PFXFJ3TL96TFXMATEMT7KJHUAI","","null","<img src=""img/land3.png"" style=""width:200px; border:14px solid green;"">","null","","","","","","",""
"","image-keyboard-response","108","66211","0.0-108.0","3NGI5ARFTURE9X6DBJN8IY9TFPFP1B","A3ROADR7T6811","3VJ4PFXFJ3TL96TFXMATEMT7KJHUAI","","300","img/land3.png","75","301","2","0","3","1,0.7,0.7,0.7,1,0.7,0.7,0.7,1","",""
"","html-keyboard-response","109","66528","0.0-109.0","3NGI5ARFTURE9X6DBJN8IY9TFPFP1B","A3ROADR7T6811","3VJ4PFXFJ3TL96TFXMATEMT7KJHUAI","","null","<img src=""img/land3.png"" style=""width:200px;border:14px solid red;"">","null","","","","","","",""
"","image-keyboard-response","110","67173","0.0-110.0","3NGI5ARFTURE9X6DBJN8IY9TFPFP1B","A3ROADR7T6811","3VJ4PFXFJ3TL96TFXMATEMT7KJHUAI","","644","img/land1.png","74","644","1","1","1","1,0.7,0.7,0.7,1,0.7,0.7,0.7,1","",""
"","html-keyboard-response","111","67483","0.0-111.0","3NGI5ARFTURE9X6DBJN8IY9TFPFP1B","A3ROADR7T6811","3VJ4PFXFJ3TL96TFXMATEMT7KJHUAI","","null","<img src=""img/land1.png"" style=""width:200px; border:14px solid green;"">","null","","","","","","",""
"","image-keyboard-response","112","68052","0.0-112.0","3NGI5ARFTURE9X6DBJN8IY9TFPFP1B","A3ROADR7T6811","3VJ4PFXFJ3TL96TFXMATEMT7KJHUAI","","569","img/land3.png","76","569","3","1","3","1,0.7,0.7,0.7,1,0.7,0.7,0.7,1","",""
"","html-keyboard-response","113","68369","0.0-113.0","3NGI5ARFTURE9X6DBJN8IY9TFPFP1B","A3ROADR7T6811","3VJ4PFXFJ3TL96TFXMATEMT7KJHUAI","","null","<img src=""img/land3.png"" style=""width:200px; border:14px solid green;"">","null","","","","","","",""
"","image-keyboard-response","114","69175","0.0-114.0","3NGI5ARFTURE9X6DBJN8IY9TFPFP1B","A3ROADR7T6811","3VJ4PFXFJ3TL96TFXMATEMT7KJHUAI","","805","img/land1.png","74","807","1","1","1","1,0.7,0.7,0.7,1,0.7,0.7,0.7,1","",""
"","html-keyboard-response","115","69486","0.0-115.0","3NGI5ARFTURE9X6DBJN8IY9TFPFP1B","A3ROADR7T6811","3VJ4PFXFJ3TL96TFXMATEMT7KJHUAI","","null","<img src=""img/land1.png"" style=""width:200px; border:14px solid green;"">","null","","","","","","",""
"","image-keyboard-response","116","69852","0.0-116.0","3NGI5ARFTURE9X6DBJN8IY9TFPFP1B","A3ROADR7T6811","3VJ4PFXFJ3TL96TFXMATEMT7KJHUAI","","364","img/land1.png","74","366","1","1","1","1,0.7,0.7,0.7,1,0.7,0.7,0.7,1","",""
"","html-keyboard-response","117","70155","0.0-117.0","3NGI5ARFTURE9X6DBJN8IY9TFPFP1B","A3ROADR7T6811","3VJ4PFXFJ3TL96TFXMATEMT7KJHUAI","","null","<img src=""img/land1.png"" style=""width:200px; border:14px solid green;"">","null","","","","","","",""
"","image-keyboard-response","118","70742","0.0-118.0","3NGI5ARFTURE9X6DBJN8IY9TFPFP1B","A3ROADR7T6811","3VJ4PFXFJ3TL96TFXMATEMT7KJHUAI","","585","img/land2.png","75","586","2","1","2","1,0.7,0.7,0.7,1,0.7,0.7,0.7,1","",""
"","html-keyboard-response","119","71057","0.0-119.0","3NGI5ARFTURE9X6DBJN8IY9TFPFP1B","A3ROADR7T6811","3VJ4PFXFJ3TL96TFXMATEMT7KJHUAI","","null","<img src=""img/land2.png"" style=""width:200px; border:14px solid green;"">","null","","","","","","",""
"","image-keyboard-response","120","71502","0.0-120.0","3NGI5ARFTURE9X6DBJN8IY9TFPFP1B","A3ROADR7T6811","3VJ4PFXFJ3TL96TFXMATEMT7KJHUAI","","445","img/land3.png","76","445","3","1","3","1,0.7,0.7,0.7,1,0.7,0.7,0.7,1","",""
"","html-keyboard-response","121","71805","0.0-121.0","3NGI5ARFTURE9X6DBJN8IY9TFPFP1B","A3ROADR7T6811","3VJ4PFXFJ3TL96TFXMATEMT7KJHUAI","","null","<img src=""img/land3.png"" style=""width:200px; border:14px solid green;"">","null","","","","","","",""
"","image-keyboard-response","122","72340","0.0-122.0","3NGI5ARFTURE9X6DBJN8IY9TFPFP1B","A3ROADR7T6811","3VJ4PFXFJ3TL96TFXMATEMT7KJHUAI","","533","img/land1.png","74","535","1","1","1","1,0.7,0.7,0.7,1,0.7,0.7,0.7,1","",""
"","html-keyboard-response","123","72659","0.0-123.0","3NGI5ARFTURE9X6DBJN8IY9TFPFP1B","A3ROADR7T6811","3VJ4PFXFJ3TL96TFXMATEMT7KJHUAI","","null","<img src=""img/land1.png"" style=""width:200px; border:14px solid green;"">","null","","","","","","",""
"","image-keyboard-response","124","73090","0.0-124.0","3NGI5ARFTURE9X6DBJN8IY9TFPFP1B","A3ROADR7T6811","3VJ4PFXFJ3TL96TFXMATEMT7KJHUAI","","430","img/land3.png","76","431","3","1","3","1,0.7,0.7,0.7,1,0.7,0.7,0.7,1","",""
"","html-keyboard-response","125","73392","0.0-125.0","3NGI5ARFTURE9X6DBJN8IY9TFPFP1B","A3ROADR7T6811","3VJ4PFXFJ3TL96TFXMATEMT7KJHUAI","","null","<img src=""img/land3.png"" style=""width:200px; border:14px solid green;"">","null","","","","","","",""
"","image-keyboard-response","126","73970","0.0-126.0","3NGI5ARFTURE9X6DBJN8IY9TFPFP1B","A3ROADR7T6811","3VJ4PFXFJ3TL96TFXMATEMT7KJHUAI","","579","img/land1.png","75","579","2","1","1","1,0.7,0.7,0.7,1,0.7,0.7,0.7,1","",""
"","html-keyboard-response","127","74276","0.0-127.0","3NGI5ARFTURE9X6DBJN8IY9TFPFP1B","A3ROADR7T6811","3VJ4PFXFJ3TL96TFXMATEMT7KJHUAI","","null","<img src=""img/land1.png"" style=""width:200px; border:14px solid green;"">","null","","","","","","",""
"","image-keyboard-response","128","74972","0.0-128.0","3NGI5ARFTURE9X6DBJN8IY9TFPFP1B","A3ROADR7T6811","3VJ4PFXFJ3TL96TFXMATEMT7KJHUAI","","695","img/land2.png","76","695","3","1","2","1,0.7,0.7,0.7,1,0.7,0.7,0.7,1","",""
"","html-keyboard-response","129","75278","0.0-129.0","3NGI5ARFTURE9X6DBJN8IY9TFPFP1B","A3ROADR7T6811","3VJ4PFXFJ3TL96TFXMATEMT7KJHUAI","","null","<img src=""img/land2.png"" style=""width:200px; border:14px solid green;"">","null","","","","","","",""
"","image-keyboard-response","130","75969","0.0-130.0","3NGI5ARFTURE9X6DBJN8IY9TFPFP1B","A3ROADR7T6811","3VJ4PFXFJ3TL96TFXMATEMT7KJHUAI","","692","img/land1.png","74","692","1","1","1","1,0.7,0.7,0.7,1,0.7,0.7,0.7,1","",""
"","html-keyboard-response","131","76279","0.0-131.0","3NGI5ARFTURE9X6DBJN8IY9TFPFP1B","A3ROADR7T6811","3VJ4PFXFJ3TL96TFXMATEMT7KJHUAI","","null","<img src=""img/land1.png"" style=""width:200px; border:14px solid green;"">","null","","","","","","",""
"","image-keyboard-response","132","77030","0.0-132.0","3NGI5ARFTURE9X6DBJN8IY9TFPFP1B","A3ROADR7T6811","3VJ4PFXFJ3TL96TFXMATEMT7KJHUAI","","750","img/land2.png","75","751","2","1","2","1,0.7,0.7,0.7,1,0.7,0.7,0.7,1","",""
"","html-keyboard-response","133","77342","0.0-133.0","3NGI5ARFTURE9X6DBJN8IY9TFPFP1B","A3ROADR7T6811","3VJ4PFXFJ3TL96TFXMATEMT7KJHUAI","","null","<img src=""img/land2.png"" style=""width:200px; border:14px solid green;"">","null","","","","","","",""
"","image-keyboard-response","134","77870","0.0-134.0","3NGI5ARFTURE9X6DBJN8IY9TFPFP1B","A3ROADR7T6811","3VJ4PFXFJ3TL96TFXMATEMT7KJHUAI","","527","img/land2.png","75","527","2","1","2","1,0.7,0.7,0.7,1,0.7,0.7,0.7,1","",""
"","html-keyboard-response","135","78181","0.0-135.0","3NGI5ARFTURE9X6DBJN8IY9TFPFP1B","A3ROADR7T6811","3VJ4PFXFJ3TL96TFXMATEMT7KJHUAI","","null","<img src=""img/land2.png"" style=""width:200px; border:14px solid green;"">","null","","","","","","",""
"","image-keyboard-response","136","78788","0.0-136.0","3NGI5ARFTURE9X6DBJN8IY9TFPFP1B","A3ROADR7T6811","3VJ4PFXFJ3TL96TFXMATEMT7KJHUAI","","607","img/land1.png","74","607","1","1","1","1,0.7,0.7,0.7,1,0.7,0.7,0.7,1","",""
"","html-keyboard-response","137","79098","0.0-137.0","3NGI5ARFTURE9X6DBJN8IY9TFPFP1B","A3ROADR7T6811","3VJ4PFXFJ3TL96TFXMATEMT7KJHUAI","","null","<img src=""img/land1.png"" style=""width:200px; border:14px solid green;"">","null","","","","","","",""
"","image-keyboard-response","138","79831","0.0-138.0","3NGI5ARFTURE9X6DBJN8IY9TFPFP1B","A3ROADR7T6811","3VJ4PFXFJ3TL96TFXMATEMT7KJHUAI","","731","img/land3.png","76","732","3","1","3","1,0.7,0.7,0.7,1,0.7,0.7,0.7,1","",""
"","html-keyboard-response","139","80146","0.0-139.0","3NGI5ARFTURE9X6DBJN8IY9TFPFP1B","A3ROADR7T6811","3VJ4PFXFJ3TL96TFXMATEMT7KJHUAI","","null","<img src=""img/land3.png"" style=""width:200px; border:14px solid green;"">","null","","","","","","",""
"","image-keyboard-response","140","81149","0.0-140.0","3NGI5ARFTURE9X6DBJN8IY9TFPFP1B","A3ROADR7T6811","3VJ4PFXFJ3TL96TFXMATEMT7KJHUAI","","1001","img/land1.png","74","1002","1","1","1","1,0.7,0.7,0.7,1,0.7,0.7,0.7,1","",""
"","html-keyboard-response","141","81457","0.0-141.0","3NGI5ARFTURE9X6DBJN8IY9TFPFP1B","A3ROADR7T6811","3VJ4PFXFJ3TL96TFXMATEMT7KJHUAI","","null","<img src=""img/land1.png"" style=""width:200px; border:14px solid green;"">","null","","","","","","",""
"","image-keyboard-response","142","81805","0.0-142.0","3NGI5ARFTURE9X6DBJN8IY9TFPFP1B","A3ROADR7T6811","3VJ4PFXFJ3TL96TFXMATEMT7KJHUAI","","348","img/land1.png","74","349","1","1","1","1,0.7,0.7,0.7,1,0.7,0.7,0.7,1","",""
"","html-keyboard-response","143","82113","0.0-143.0","3NGI5ARFTURE9X6DBJN8IY9TFPFP1B","A3ROADR7T6811","3VJ4PFXFJ3TL96TFXMATEMT7KJHUAI","","null","<img src=""img/land1.png"" style=""width:200px; border:14px solid green;"">","null","","","","","","",""
"","image-keyboard-response","144","82837","0.0-144.0","3NGI5ARFTURE9X6DBJN8IY9TFPFP1B","A3ROADR7T6811","3VJ4PFXFJ3TL96TFXMATEMT7KJHUAI","","723","img/land2.png","76","724","3","1","2","1,0.7,0.7,0.7,1,0.7,0.7,0.7,1","",""
"","html-keyboard-response","145","83170","0.0-145.0","3NGI5ARFTURE9X6DBJN8IY9TFPFP1B","A3ROADR7T6811","3VJ4PFXFJ3TL96TFXMATEMT7KJHUAI","","null","<img src=""img/land2.png"" style=""width:200px; border:14px solid green;"">","null","","","","","","",""
"","image-keyboard-response","146","84026","0.0-146.0","3NGI5ARFTURE9X6DBJN8IY9TFPFP1B","A3ROADR7T6811","3VJ4PFXFJ3TL96TFXMATEMT7KJHUAI","","856","img/land3.png","74","856","1","0","3","1,0.7,0.7,0.7,1,0.7,0.7,0.7,1","",""
"","html-keyboard-response","147","84333","0.0-147.0","3NGI5ARFTURE9X6DBJN8IY9TFPFP1B","A3ROADR7T6811","3VJ4PFXFJ3TL96TFXMATEMT7KJHUAI","","null","<img src=""img/land3.png"" style=""width:200px;border:14px solid red;"">","null","","","","","","",""
"","image-keyboard-response","148","85494","0.0-148.0","3NGI5ARFTURE9X6DBJN8IY9TFPFP1B","A3ROADR7T6811","3VJ4PFXFJ3TL96TFXMATEMT7KJHUAI","","1160","img/land1.png","74","1160","1","1","1","1,0.7,0.7,0.7,1,0.7,0.7,0.7,1","",""
"","html-keyboard-response","149","85805","0.0-149.0","3NGI5ARFTURE9X6DBJN8IY9TFPFP1B","A3ROADR7T6811","3VJ4PFXFJ3TL96TFXMATEMT7KJHUAI","","null","<img src=""img/land1.png"" style=""width:200px; border:14px solid green;"">","null","","","","","","",""
"","image-keyboard-response","150","86266","0.0-150.0","3NGI5ARFTURE9X6DBJN8IY9TFPFP1B","A3ROADR7T6811","3VJ4PFXFJ3TL96TFXMATEMT7KJHUAI","","461","img/land1.png","74","462","1","1","1","1,0.7,0.7,0.7,1,0.7,0.7,0.7,1","",""
"","html-keyboard-response","151","86575","0.0-151.0","3NGI5ARFTURE9X6DBJN8IY9TFPFP1B","A3ROADR7T6811","3VJ4PFXFJ3TL96TFXMATEMT7KJHUAI","","null","<img src=""img/land1.png"" style=""width:200px; border:14px solid green;"">","null","","","","","","",""
"","image-keyboard-response","152","86925","0.0-152.0","3NGI5ARFTURE9X6DBJN8IY9TFPFP1B","A3ROADR7T6811","3VJ4PFXFJ3TL96TFXMATEMT7KJHUAI","","349","img/land1.png","74","350","1","1","1","1,0.7,0.7,0.7,1,0.7,0.7,0.7,1","",""
"","html-keyboard-response","153","87238","0.0-153.0","3NGI5ARFTURE9X6DBJN8IY9TFPFP1B","A3ROADR7T6811","3VJ4PFXFJ3TL96TFXMATEMT7KJHUAI","","null","<img src=""img/land1.png"" style=""width:200px; border:14px solid green;"">","null","","","","","","",""
"","image-keyboard-response","154","88120","0.0-154.0","3NGI5ARFTURE9X6DBJN8IY9TFPFP1B","A3ROADR7T6811","3VJ4PFXFJ3TL96TFXMATEMT7KJHUAI","","881","img/land2.png","75","882","2","1","2","1,0.7,0.7,0.7,1,0.7,0.7,0.7,1","",""
"","html-keyboard-response","155","88433","0.0-155.0","3NGI5ARFTURE9X6DBJN8IY9TFPFP1B","A3ROADR7T6811","3VJ4PFXFJ3TL96TFXMATEMT7KJHUAI","","null","<img src=""img/land2.png"" style=""width:200px; border:14px solid green;"">","null","","","","","","",""
"","image-keyboard-response","156","89512","0.0-156.0","3NGI5ARFTURE9X6DBJN8IY9TFPFP1B","A3ROADR7T6811","3VJ4PFXFJ3TL96TFXMATEMT7KJHUAI","","1079","img/land3.png","76","1079","3","1","3","1,0.7,0.7,0.7,1,0.7,0.7,0.7,1","",""
"","html-keyboard-response","157","89825","0.0-157.0","3NGI5ARFTURE9X6DBJN8IY9TFPFP1B","A3ROADR7T6811","3VJ4PFXFJ3TL96TFXMATEMT7KJHUAI","","null","<img src=""img/land3.png"" style=""width:200px; border:14px solid green;"">","null","","","","","","",""
"","image-keyboard-response","158","90583","0.0-158.0","3NGI5ARFTURE9X6DBJN8IY9TFPFP1B","A3ROADR7T6811","3VJ4PFXFJ3TL96TFXMATEMT7KJHUAI","","756","img/land2.png","74","758","1","1","2","1,0.7,0.7,0.7,1,0.7,0.7,0.7,1","",""
"","html-keyboard-response","159","90895","0.0-159.0","3NGI5ARFTURE9X6DBJN8IY9TFPFP1B","A3ROADR7T6811","3VJ4PFXFJ3TL96TFXMATEMT7KJHUAI","","null","<img src=""img/land2.png"" style=""width:200px; border:14px solid green;"">","null","","","","","","",""
"","image-keyboard-response","160","92086","0.0-160.0","3NGI5ARFTURE9X6DBJN8IY9TFPFP1B","A3ROADR7T6811","3VJ4PFXFJ3TL96TFXMATEMT7KJHUAI","","1190","img/land3.png","75","1191","2","0","3","1,0.7,0.7,0.7,1,0.7,0.7,0.7,1","",""
"","html-keyboard-response","161","92397","0.0-161.0","3NGI5ARFTURE9X6DBJN8IY9TFPFP1B","A3ROADR7T6811","3VJ4PFXFJ3TL96TFXMATEMT7KJHUAI","","null","<img src=""img/land3.png"" style=""width:200px;border:14px solid red;"">","null","","","","","","",""
"","image-keyboard-response","162","92933","0.0-162.0","3NGI5ARFTURE9X6DBJN8IY9TFPFP1B","A3ROADR7T6811","3VJ4PFXFJ3TL96TFXMATEMT7KJHUAI","","536","img/land3.png","76","537","3","1","3","1,0.7,0.7,0.7,1,0.7,0.7,0.7,1","",""
"","html-keyboard-response","163","93246","0.0-163.0","3NGI5ARFTURE9X6DBJN8IY9TFPFP1B","A3ROADR7T6811","3VJ4PFXFJ3TL96TFXMATEMT7KJHUAI","","null","<img src=""img/land3.png"" style=""width:200px; border:14px solid green;"">","null","","","","","","",""
"","image-keyboard-response","164","93824","0.0-164.0","3NGI5ARFTURE9X6DBJN8IY9TFPFP1B","A3ROADR7T6811","3VJ4PFXFJ3TL96TFXMATEMT7KJHUAI","","577","img/land1.png","74","577","1","1","1","1,0.7,0.7,0.7,1,0.7,0.7,0.7,1","",""
"","html-keyboard-response","165","94132","0.0-165.0","3NGI5ARFTURE9X6DBJN8IY9TFPFP1B","A3ROADR7T6811","3VJ4PFXFJ3TL96TFXMATEMT7KJHUAI","","null","<img src=""img/land1.png"" style=""width:200px; border:14px solid green;"">","null","","","","","","",""
"","image-keyboard-response","166","95053","0.0-166.0","3NGI5ARFTURE9X6DBJN8IY9TFPFP1B","A3ROADR7T6811","3VJ4PFXFJ3TL96TFXMATEMT7KJHUAI","","921","img/land3.png","76","921","3","1","3","1,0.7,0.7,0.7,1,0.7,0.7,0.7,1","",""
"","html-keyboard-response","167","95365","0.0-167.0","3NGI5ARFTURE9X6DBJN8IY9TFPFP1B","A3ROADR7T6811","3VJ4PFXFJ3TL96TFXMATEMT7KJHUAI","","null","<img src=""img/land3.png"" style=""width:200px; border:14px solid green;"">","null","","","","","","",""
"","image-keyboard-response","168","96017","0.0-168.0","3NGI5ARFTURE9X6DBJN8IY9TFPFP1B","A3ROADR7T6811","3VJ4PFXFJ3TL96TFXMATEMT7KJHUAI","","652","img/land2.png","75","652","2","1","2","1,0.7,0.7,0.7,1,0.7,0.7,0.7,1","",""
"","html-keyboard-response","169","96331","0.0-169.0","3NGI5ARFTURE9X6DBJN8IY9TFPFP1B","A3ROADR7T6811","3VJ4PFXFJ3TL96TFXMATEMT7KJHUAI","","null","<img src=""img/land2.png"" style=""width:200px; border:14px solid green;"">","null","","","","","","",""
"","html-keyboard-response","170","98878","0.0-170.0","3NGI5ARFTURE9X6DBJN8IY9TFPFP1B","A3ROADR7T6811","3VJ4PFXFJ3TL96TFXMATEMT7KJHUAI","","","","","","","","","","",""
"","image-keyboard-response","171","99702","0.0-171.0","3NGI5ARFTURE9X6DBJN8IY9TFPFP1B","A3ROADR7T6811","3VJ4PFXFJ3TL96TFXMATEMT7KJHUAI","","823","img/land4.png","74","824","1","1","1","1,0.7,0.7,0.7,1,0.7,0.7,0.7,1","",""
"","html-keyboard-response","172","100008","0.0-172.0","3NGI5ARFTURE9X6DBJN8IY9TFPFP1B","A3ROADR7T6811","3VJ4PFXFJ3TL96TFXMATEMT7KJHUAI","","null","<img src=""img/land4.png"" style=""width:200px; border:14px solid green;"">","null","","","","","","",""
"","image-keyboard-response","173","100540","0.0-173.0","3NGI5ARFTURE9X6DBJN8IY9TFPFP1B","A3ROADR7T6811","3VJ4PFXFJ3TL96TFXMATEMT7KJHUAI","","531","img/land5.png","74","532","1","1","2","1,0.7,0.7,0.7,1,0.7,0.7,0.7,1","",""
"","html-keyboard-response","174","100856","0.0-174.0","3NGI5ARFTURE9X6DBJN8IY9TFPFP1B","A3ROADR7T6811","3VJ4PFXFJ3TL96TFXMATEMT7KJHUAI","","null","<img src=""img/land5.png"" style=""width:200px; border:14px solid green;"">","null","","","","","","",""
"","image-keyboard-response","175","101431","0.0-175.0","3NGI5ARFTURE9X6DBJN8IY9TFPFP1B","A3ROADR7T6811","3VJ4PFXFJ3TL96TFXMATEMT7KJHUAI","","574","img/land4.png","74","576","1","1","1","1,0.7,0.7,0.7,1,0.7,0.7,0.7,1","",""
"","html-keyboard-response","176","101740","0.0-176.0","3NGI5ARFTURE9X6DBJN8IY9TFPFP1B","A3ROADR7T6811","3VJ4PFXFJ3TL96TFXMATEMT7KJHUAI","","null","<img src=""img/land4.png"" style=""width:200px; border:14px solid green;"">","null","","","","","","",""
"","image-keyboard-response","177","102595","0.0-177.0","3NGI5ARFTURE9X6DBJN8IY9TFPFP1B","A3ROADR7T6811","3VJ4PFXFJ3TL96TFXMATEMT7KJHUAI","","853","img/land5.png","76","853","3","1","2","1,0.7,0.7,0.7,1,0.7,0.7,0.7,1","",""
"","html-keyboard-response","178","102899","0.0-178.0","3NGI5ARFTURE9X6DBJN8IY9TFPFP1B","A3ROADR7T6811","3VJ4PFXFJ3TL96TFXMATEMT7KJHUAI","","null","<img src=""img/land5.png"" style=""width:200px; border:14px solid green;"">","null","","","","","","",""
"","image-keyboard-response","179","103877","0.0-179.0","3NGI5ARFTURE9X6DBJN8IY9TFPFP1B","A3ROADR7T6811","3VJ4PFXFJ3TL96TFXMATEMT7KJHUAI","","977","img/land6.png","75","978","2","1","3","1,0.7,0.7,0.7,1,0.7,0.7,0.7,1","",""
"","html-keyboard-response","180","104199","0.0-180.0","3NGI5ARFTURE9X6DBJN8IY9TFPFP1B","A3ROADR7T6811","3VJ4PFXFJ3TL96TFXMATEMT7KJHUAI","","null","<img src=""img/land6.png"" style=""width:200px; border:14px solid green;"">","null","","","","","","",""
"","image-keyboard-response","181","104878","0.0-181.0","3NGI5ARFTURE9X6DBJN8IY9TFPFP1B","A3ROADR7T6811","3VJ4PFXFJ3TL96TFXMATEMT7KJHUAI","","678","img/land5.png","74","679","1","1","2","1,0.7,0.7,0.7,1,0.7,0.7,0.7,1","",""
"","html-keyboard-response","182","105200","0.0-182.0","3NGI5ARFTURE9X6DBJN8IY9TFPFP1B","A3ROADR7T6811","3VJ4PFXFJ3TL96TFXMATEMT7KJHUAI","","null","<img src=""img/land5.png"" style=""width:200px; border:14px solid green;"">","null","","","","","","",""
"","image-keyboard-response","183","105909","0.0-183.0","3NGI5ARFTURE9X6DBJN8IY9TFPFP1B","A3ROADR7T6811","3VJ4PFXFJ3TL96TFXMATEMT7KJHUAI","","709","img/land5.png","75","709","2","1","2","1,0.7,0.7,0.7,1,0.7,0.7,0.7,1","",""
"","html-keyboard-response","184","106217","0.0-184.0","3NGI5ARFTURE9X6DBJN8IY9TFPFP1B","A3ROADR7T6811","3VJ4PFXFJ3TL96TFXMATEMT7KJHUAI","","null","<img src=""img/land5.png"" style=""width:200px; border:14px solid green;"">","null","","","","","","",""
"","image-keyboard-response","185","106866","0.0-185.0","3NGI5ARFTURE9X6DBJN8IY9TFPFP1B","A3ROADR7T6811","3VJ4PFXFJ3TL96TFXMATEMT7KJHUAI","","648","img/land6.png","75","648","2","1","3","1,0.7,0.7,0.7,1,0.7,0.7,0.7,1","",""
"","html-keyboard-response","186","107181","0.0-186.0","3NGI5ARFTURE9X6DBJN8IY9TFPFP1B","A3ROADR7T6811","3VJ4PFXFJ3TL96TFXMATEMT7KJHUAI","","null","<img src=""img/land6.png"" style=""width:200px; border:14px solid green;"">","null","","","","","","",""
"","image-keyboard-response","187","107666","0.0-187.0","3NGI5ARFTURE9X6DBJN8IY9TFPFP1B","A3ROADR7T6811","3VJ4PFXFJ3TL96TFXMATEMT7KJHUAI","","485","img/land6.png","75","485","2","1","3","1,0.7,0.7,0.7,1,0.7,0.7,0.7,1","",""
"","html-keyboard-response","188","107981","0.0-188.0","3NGI5ARFTURE9X6DBJN8IY9TFPFP1B","A3ROADR7T6811","3VJ4PFXFJ3TL96TFXMATEMT7KJHUAI","","null","<img src=""img/land6.png"" style=""width:200px; border:14px solid green;"">","null","","","","","","",""
"","image-keyboard-response","189","108303","0.0-189.0","3NGI5ARFTURE9X6DBJN8IY9TFPFP1B","A3ROADR7T6811","3VJ4PFXFJ3TL96TFXMATEMT7KJHUAI","","320","img/land5.png","76","321","3","1","2","1,0.7,0.7,0.7,1,0.7,0.7,0.7,1","",""
"","html-keyboard-response","190","108604","0.0-190.0","3NGI5ARFTURE9X6DBJN8IY9TFPFP1B","A3ROADR7T6811","3VJ4PFXFJ3TL96TFXMATEMT7KJHUAI","","null","<img src=""img/land5.png"" style=""width:200px; border:14px solid green;"">","null","","","","","","",""
"","image-keyboard-response","191","109134","0.0-191.0","3NGI5ARFTURE9X6DBJN8IY9TFPFP1B","A3ROADR7T6811","3VJ4PFXFJ3TL96TFXMATEMT7KJHUAI","","529","img/land6.png","74","529","1","1","3","1,0.7,0.7,0.7,1,0.7,0.7,0.7,1","",""
"","html-keyboard-response","192","109445","0.0-192.0","3NGI5ARFTURE9X6DBJN8IY9TFPFP1B","A3ROADR7T6811","3VJ4PFXFJ3TL96TFXMATEMT7KJHUAI","","null","<img src=""img/land6.png"" style=""width:200px; border:14px solid green;"">","null","","","","","","",""
"","image-keyboard-response","193","110003","0.0-193.0","3NGI5ARFTURE9X6DBJN8IY9TFPFP1B","A3ROADR7T6811","3VJ4PFXFJ3TL96TFXMATEMT7KJHUAI","","557","img/land6.png","76","557","3","1","3","1,0.7,0.7,0.7,1,0.7,0.7,0.7,1","",""
"","html-keyboard-response","194","110315","0.0-194.0","3NGI5ARFTURE9X6DBJN8IY9TFPFP1B","A3ROADR7T6811","3VJ4PFXFJ3TL96TFXMATEMT7KJHUAI","","null","<img src=""img/land6.png"" style=""width:200px; border:14px solid green;"">","null","","","","","","",""
"","image-keyboard-response","195","110892","0.0-195.0","3NGI5ARFTURE9X6DBJN8IY9TFPFP1B","A3ROADR7T6811","3VJ4PFXFJ3TL96TFXMATEMT7KJHUAI","","577","img/land4.png","74","577","1","1","1","1,0.7,0.7,0.7,1,0.7,0.7,0.7,1","",""
"","html-keyboard-response","196","111207","0.0-196.0","3NGI5ARFTURE9X6DBJN8IY9TFPFP1B","A3ROADR7T6811","3VJ4PFXFJ3TL96TFXMATEMT7KJHUAI","","null","<img src=""img/land4.png"" style=""width:200px; border:14px solid green;"">","null","","","","","","",""
"","image-keyboard-response","197","111935","0.0-197.0","3NGI5ARFTURE9X6DBJN8IY9TFPFP1B","A3ROADR7T6811","3VJ4PFXFJ3TL96TFXMATEMT7KJHUAI","","726","img/land5.png","75","728","2","1","2","1,0.7,0.7,0.7,1,0.7,0.7,0.7,1","",""
"","html-keyboard-response","198","112240","0.0-198.0","3NGI5ARFTURE9X6DBJN8IY9TFPFP1B","A3ROADR7T6811","3VJ4PFXFJ3TL96TFXMATEMT7KJHUAI","","null","<img src=""img/land5.png"" style=""width:200px; border:14px solid green;"">","null","","","","","","",""
"","image-keyboard-response","199","112626","0.0-199.0","3NGI5ARFTURE9X6DBJN8IY9TFPFP1B","A3ROADR7T6811","3VJ4PFXFJ3TL96TFXMATEMT7KJHUAI","","385","img/land5.png","75","385","2","1","2","1,0.7,0.7,0.7,1,0.7,0.7,0.7,1","",""
"","html-keyboard-response","200","112941","0.0-200.0","3NGI5ARFTURE9X6DBJN8IY9TFPFP1B","A3ROADR7T6811","3VJ4PFXFJ3TL96TFXMATEMT7KJHUAI","","null","<img src=""img/land5.png"" style=""width:200px; border:14px solid green;"">","null","","","","","","",""
"","image-keyboard-response","201","113636","0.0-201.0","3NGI5ARFTURE9X6DBJN8IY9TFPFP1B","A3ROADR7T6811","3VJ4PFXFJ3TL96TFXMATEMT7KJHUAI","","695","img/land4.png","75","696","2","0","1","1,0.7,0.7,0.7,1,0.7,0.7,0.7,1","",""
"","html-keyboard-response","202","113944","0.0-202.0","3NGI5ARFTURE9X6DBJN8IY9TFPFP1B","A3ROADR7T6811","3VJ4PFXFJ3TL96TFXMATEMT7KJHUAI","","null","<img src=""img/land4.png"" style=""width:200px;border:14px solid red;"">","null","","","","","","",""
"","image-keyboard-response","203","114333","0.0-203.0","3NGI5ARFTURE9X6DBJN8IY9TFPFP1B","A3ROADR7T6811","3VJ4PFXFJ3TL96TFXMATEMT7KJHUAI","","388","img/land4.png","74","388","1","1","1","1,0.7,0.7,0.7,1,0.7,0.7,0.7,1","",""
"","html-keyboard-response","204","114644","0.0-204.0","3NGI5ARFTURE9X6DBJN8IY9TFPFP1B","A3ROADR7T6811","3VJ4PFXFJ3TL96TFXMATEMT7KJHUAI","","null","<img src=""img/land4.png"" style=""width:200px; border:14px solid green;"">","null","","","","","","",""
"","image-keyboard-response","205","115030","0.0-205.0","3NGI5ARFTURE9X6DBJN8IY9TFPFP1B","A3ROADR7T6811","3VJ4PFXFJ3TL96TFXMATEMT7KJHUAI","","385","img/land4.png","74","387","1","1","1","1,0.7,0.7,0.7,1,0.7,0.7,0.7,1","",""
"","html-keyboard-response","206","115345","0.0-206.0","3NGI5ARFTURE9X6DBJN8IY9TFPFP1B","A3ROADR7T6811","3VJ4PFXFJ3TL96TFXMATEMT7KJHUAI","","null","<img src=""img/land4.png"" style=""width:200px; border:14px solid green;"">","null","","","","","","",""
"","image-keyboard-response","207","116298","0.0-207.0","3NGI5ARFTURE9X6DBJN8IY9TFPFP1B","A3ROADR7T6811","3VJ4PFXFJ3TL96TFXMATEMT7KJHUAI","","952","img/land4.png","76","953","3","1","1","1,0.7,0.7,0.7,1,0.7,0.7,0.7,1","",""
"","html-keyboard-response","208","116611","0.0-208.0","3NGI5ARFTURE9X6DBJN8IY9TFPFP1B","A3ROADR7T6811","3VJ4PFXFJ3TL96TFXMATEMT7KJHUAI","","null","<img src=""img/land4.png"" style=""width:200px; border:14px solid green;"">","null","","","","","","",""
"","image-keyboard-response","209","116995","0.0-209.0","3NGI5ARFTURE9X6DBJN8IY9TFPFP1B","A3ROADR7T6811","3VJ4PFXFJ3TL96TFXMATEMT7KJHUAI","","382","img/land4.png","76","384","3","1","1","1,0.7,0.7,0.7,1,0.7,0.7,0.7,1","",""
"","html-keyboard-response","210","117316","0.0-210.0","3NGI5ARFTURE9X6DBJN8IY9TFPFP1B","A3ROADR7T6811","3VJ4PFXFJ3TL96TFXMATEMT7KJHUAI","","null","<img src=""img/land4.png"" style=""width:200px; border:14px solid green;"">","null","","","","","","",""
"","image-keyboard-response","211","117786","0.0-211.0","3NGI5ARFTURE9X6DBJN8IY9TFPFP1B","A3ROADR7T6811","3VJ4PFXFJ3TL96TFXMATEMT7KJHUAI","","468","img/land4.png","76","468","3","1","1","1,0.7,0.7,0.7,1,0.7,0.7,0.7,1","",""
"","html-keyboard-response","212","118096","0.0-212.0","3NGI5ARFTURE9X6DBJN8IY9TFPFP1B","A3ROADR7T6811","3VJ4PFXFJ3TL96TFXMATEMT7KJHUAI","","null","<img src=""img/land4.png"" style=""width:200px; border:14px solid green;"">","null","","","","","","",""
"","image-keyboard-response","213","118777","0.0-213.0","3NGI5ARFTURE9X6DBJN8IY9TFPFP1B","A3ROADR7T6811","3VJ4PFXFJ3TL96TFXMATEMT7KJHUAI","","680","img/land6.png","75","681","2","0","3","1,0.7,0.7,0.7,1,0.7,0.7,0.7,1","",""
"","html-keyboard-response","214","119081","0.0-214.0","3NGI5ARFTURE9X6DBJN8IY9TFPFP1B","A3ROADR7T6811","3VJ4PFXFJ3TL96TFXMATEMT7KJHUAI","","null","<img src=""img/land6.png"" style=""width:200px;border:14px solid red;"">","null","","","","","","",""
"","image-keyboard-response","215","119433","0.0-215.0","3NGI5ARFTURE9X6DBJN8IY9TFPFP1B","A3ROADR7T6811","3VJ4PFXFJ3TL96TFXMATEMT7KJHUAI","","351","img/land6.png","75","353","2","1","3","1,0.7,0.7,0.7,1,0.7,0.7,0.7,1","",""
"","html-keyboard-response","216","119735","0.0-216.0","3NGI5ARFTURE9X6DBJN8IY9TFPFP1B","A3ROADR7T6811","3VJ4PFXFJ3TL96TFXMATEMT7KJHUAI","","null","<img src=""img/land6.png"" style=""width:200px; border:14px solid green;"">","null","","","","","","",""
"","image-keyboard-response","217","120404","0.0-217.0","3NGI5ARFTURE9X6DBJN8IY9TFPFP1B","A3ROADR7T6811","3VJ4PFXFJ3TL96TFXMATEMT7KJHUAI","","669","img/land4.png","76","670","3","0","1","1,0.7,0.7,0.7,1,0.7,0.7,0.7,1","",""
"","html-keyboard-response","218","120720","0.0-218.0","3NGI5ARFTURE9X6DBJN8IY9TFPFP1B","A3ROADR7T6811","3VJ4PFXFJ3TL96TFXMATEMT7KJHUAI","","null","<img src=""img/land4.png"" style=""width:200px;border:14px solid red;"">","null","","","","","","",""
"","image-keyboard-response","219","121102","0.0-219.0","3NGI5ARFTURE9X6DBJN8IY9TFPFP1B","A3ROADR7T6811","3VJ4PFXFJ3TL96TFXMATEMT7KJHUAI","","380","img/land4.png","76","381","3","1","1","1,0.7,0.7,0.7,1,0.7,0.7,0.7,1","",""
"","html-keyboard-response","220","121421","0.0-220.0","3NGI5ARFTURE9X6DBJN8IY9TFPFP1B","A3ROADR7T6811","3VJ4PFXFJ3TL96TFXMATEMT7KJHUAI","","null","<img src=""img/land4.png"" style=""width:200px; border:14px solid green;"">","null","","","","","","",""
"","image-keyboard-response","221","122122","0.0-221.0","3NGI5ARFTURE9X6DBJN8IY9TFPFP1B","A3ROADR7T6811","3VJ4PFXFJ3TL96TFXMATEMT7KJHUAI","","701","img/land5.png","74","701","1","1","2","1,0.7,0.7,0.7,1,0.7,0.7,0.7,1","",""
"","html-keyboard-response","222","122438","0.0-222.0","3NGI5ARFTURE9X6DBJN8IY9TFPFP1B","A3ROADR7T6811","3VJ4PFXFJ3TL96TFXMATEMT7KJHUAI","","null","<img src=""img/land5.png"" style=""width:200px; border:14px solid green;"">","null","","","","","","",""
"","image-keyboard-response","223","123719","0.0-223.0","3NGI5ARFTURE9X6DBJN8IY9TFPFP1B","A3ROADR7T6811","3VJ4PFXFJ3TL96TFXMATEMT7KJHUAI","","1281","img/land4.png","76","1281","3","0","1","1,0.7,0.7,0.7,1,0.7,0.7,0.7,1","",""
"","html-keyboard-response","224","124028","0.0-224.0","3NGI5ARFTURE9X6DBJN8IY9TFPFP1B","A3ROADR7T6811","3VJ4PFXFJ3TL96TFXMATEMT7KJHUAI","","null","<img src=""img/land4.png"" style=""width:200px;border:14px solid red;"">","null","","","","","","",""
"","image-keyboard-response","225","124498","0.0-225.0","3NGI5ARFTURE9X6DBJN8IY9TFPFP1B","A3ROADR7T6811","3VJ4PFXFJ3TL96TFXMATEMT7KJHUAI","","468","img/land4.png","76","468","3","1","1","1,0.7,0.7,0.7,1,0.7,0.7,0.7,1","",""
"","html-keyboard-response","226","124804","0.0-226.0","3NGI5ARFTURE9X6DBJN8IY9TFPFP1B","A3ROADR7T6811","3VJ4PFXFJ3TL96TFXMATEMT7KJHUAI","","null","<img src=""img/land4.png"" style=""width:200px; border:14px solid green;"">","null","","","","","","",""
"","image-keyboard-response","227","125399","0.0-227.0","3NGI5ARFTURE9X6DBJN8IY9TFPFP1B","A3ROADR7T6811","3VJ4PFXFJ3TL96TFXMATEMT7KJHUAI","","594","img/land5.png","75","595","2","1","2","1,0.7,0.7,0.7,1,0.7,0.7,0.7,1","",""
"","html-keyboard-response","228","125727","0.0-228.0","3NGI5ARFTURE9X6DBJN8IY9TFPFP1B","A3ROADR7T6811","3VJ4PFXFJ3TL96TFXMATEMT7KJHUAI","","null","<img src=""img/land5.png"" style=""width:200px; border:14px solid green;"">","null","","","","","","",""
"","image-keyboard-response","229","126064","0.0-229.0","3NGI5ARFTURE9X6DBJN8IY9TFPFP1B","A3ROADR7T6811","3VJ4PFXFJ3TL96TFXMATEMT7KJHUAI","","336","img/land5.png","75","337","2","1","2","1,0.7,0.7,0.7,1,0.7,0.7,0.7,1","",""
"","html-keyboard-response","230","126374","0.0-230.0","3NGI5ARFTURE9X6DBJN8IY9TFPFP1B","A3ROADR7T6811","3VJ4PFXFJ3TL96TFXMATEMT7KJHUAI","","null","<img src=""img/land5.png"" style=""width:200px; border:14px solid green;"">","null","","","","","","",""
"","image-keyboard-response","231","126811","0.0-231.0","3NGI5ARFTURE9X6DBJN8IY9TFPFP1B","A3ROADR7T6811","3VJ4PFXFJ3TL96TFXMATEMT7KJHUAI","","437","img/land5.png","74","438","1","1","2","1,0.7,0.7,0.7,1,0.7,0.7,0.7,1","",""
"","html-keyboard-response","232","127128","0.0-232.0","3NGI5ARFTURE9X6DBJN8IY9TFPFP1B","A3ROADR7T6811","3VJ4PFXFJ3TL96TFXMATEMT7KJHUAI","","null","<img src=""img/land5.png"" style=""width:200px; border:14px solid green;"">","null","","","","","","",""
"","image-keyboard-response","233","128057","0.0-233.0","3NGI5ARFTURE9X6DBJN8IY9TFPFP1B","A3ROADR7T6811","3VJ4PFXFJ3TL96TFXMATEMT7KJHUAI","","928","img/land5.png","74","928","1","1","2","1,0.7,0.7,0.7,1,0.7,0.7,0.7,1","",""
"","html-keyboard-response","234","128361","0.0-234.0","3NGI5ARFTURE9X6DBJN8IY9TFPFP1B","A3ROADR7T6811","3VJ4PFXFJ3TL96TFXMATEMT7KJHUAI","","null","<img src=""img/land5.png"" style=""width:200px; border:14px solid green;"">","null","","","","","","",""
"","image-keyboard-response","235","128613","0.0-235.0","3NGI5ARFTURE9X6DBJN8IY9TFPFP1B","A3ROADR7T6811","3VJ4PFXFJ3TL96TFXMATEMT7KJHUAI","","252","img/land5.png","74","252","1","0","2","1,0.7,0.7,0.7,1,0.7,0.7,0.7,1","",""
"","html-keyboard-response","236","128932","0.0-236.0","3NGI5ARFTURE9X6DBJN8IY9TFPFP1B","A3ROADR7T6811","3VJ4PFXFJ3TL96TFXMATEMT7KJHUAI","","null","<img src=""img/land5.png"" style=""width:200px;border:14px solid red;"">","null","","","","","","",""
"","image-keyboard-response","237","129232","0.0-237.0","3NGI5ARFTURE9X6DBJN8IY9TFPFP1B","A3ROADR7T6811","3VJ4PFXFJ3TL96TFXMATEMT7KJHUAI","","298","img/land5.png","76","299","3","1","2","1,0.7,0.7,0.7,1,0.7,0.7,0.7,1","",""
"","html-keyboard-response","238","129548","0.0-238.0","3NGI5ARFTURE9X6DBJN8IY9TFPFP1B","A3ROADR7T6811","3VJ4PFXFJ3TL96TFXMATEMT7KJHUAI","","null","<img src=""img/land5.png"" style=""width:200px; border:14px solid green;"">","null","","","","","","",""
"","image-keyboard-response","239","130384","0.0-239.0","3NGI5ARFTURE9X6DBJN8IY9TFPFP1B","A3ROADR7T6811","3VJ4PFXFJ3TL96TFXMATEMT7KJHUAI","","834","img/land6.png","76","836","3","1","3","1,0.7,0.7,0.7,1,0.7,0.7,0.7,1","",""
"","html-keyboard-response","240","130687","0.0-240.0","3NGI5ARFTURE9X6DBJN8IY9TFPFP1B","A3ROADR7T6811","3VJ4PFXFJ3TL96TFXMATEMT7KJHUAI","","null","<img src=""img/land6.png"" style=""width:200px; border:14px solid green;"">","null","","","","","","",""
"","image-keyboard-response","241","131152","0.0-241.0","3NGI5ARFTURE9X6DBJN8IY9TFPFP1B","A3ROADR7T6811","3VJ4PFXFJ3TL96TFXMATEMT7KJHUAI","","465","img/land5.png","75","465","2","1","2","1,0.7,0.7,0.7,1,0.7,0.7,0.7,1","",""
"","html-keyboard-response","242","131454","0.0-242.0","3NGI5ARFTURE9X6DBJN8IY9TFPFP1B","A3ROADR7T6811","3VJ4PFXFJ3TL96TFXMATEMT7KJHUAI","","null","<img src=""img/land5.png"" style=""width:200px; border:14px solid green;"">","null","","","","","","",""
"","image-keyboard-response","243","131711","0.0-243.0","3NGI5ARFTURE9X6DBJN8IY9TFPFP1B","A3ROADR7T6811","3VJ4PFXFJ3TL96TFXMATEMT7KJHUAI","","256","img/land4.png","75","257","2","0","1","1,0.7,0.7,0.7,1,0.7,0.7,0.7,1","",""
"","html-keyboard-response","244","132017","0.0-244.0","3NGI5ARFTURE9X6DBJN8IY9TFPFP1B","A3ROADR7T6811","3VJ4PFXFJ3TL96TFXMATEMT7KJHUAI","","null","<img src=""img/land4.png"" style=""width:200px;border:14px solid red;"">","null","","","","","","",""
"","image-keyboard-response","245","132296","0.0-245.0","3NGI5ARFTURE9X6DBJN8IY9TFPFP1B","A3ROADR7T6811","3VJ4PFXFJ3TL96TFXMATEMT7KJHUAI","","278","img/land4.png","74","278","1","1","1","1,0.7,0.7,0.7,1,0.7,0.7,0.7,1","",""
"","html-keyboard-response","246","132608","0.0-246.0","3NGI5ARFTURE9X6DBJN8IY9TFPFP1B","A3ROADR7T6811","3VJ4PFXFJ3TL96TFXMATEMT7KJHUAI","","null","<img src=""img/land4.png"" style=""width:200px; border:14px solid green;"">","null","","","","","","",""
"","image-keyboard-response","247","133389","0.0-247.0","3NGI5ARFTURE9X6DBJN8IY9TFPFP1B","A3ROADR7T6811","3VJ4PFXFJ3TL96TFXMATEMT7KJHUAI","","780","img/land6.png","75","780","2","1","3","1,0.7,0.7,0.7,1,0.7,0.7,0.7,1","",""
"","html-keyboard-response","248","133694","0.0-248.0","3NGI5ARFTURE9X6DBJN8IY9TFPFP1B","A3ROADR7T6811","3VJ4PFXFJ3TL96TFXMATEMT7KJHUAI","","null","<img src=""img/land6.png"" style=""width:200px; border:14px solid green;"">","null","","","","","","",""
"","image-keyboard-response","249","133984","0.0-249.0","3NGI5ARFTURE9X6DBJN8IY9TFPFP1B","A3ROADR7T6811","3VJ4PFXFJ3TL96TFXMATEMT7KJHUAI","","290","img/land6.png","75","290","2","0","3","1,0.7,0.7,0.7,1,0.7,0.7,0.7,1","",""
"","html-keyboard-response","250","134295","0.0-250.0","3NGI5ARFTURE9X6DBJN8IY9TFPFP1B","A3ROADR7T6811","3VJ4PFXFJ3TL96TFXMATEMT7KJHUAI","","null","<img src=""img/land6.png"" style=""width:200px;border:14px solid red;"">","null","","","","","","",""
"","image-keyboard-response","251","134794","0.0-251.0","3NGI5ARFTURE9X6DBJN8IY9TFPFP1B","A3ROADR7T6811","3VJ4PFXFJ3TL96TFXMATEMT7KJHUAI","","499","img/land5.png","74","499","1","1","2","1,0.7,0.7,0.7,1,0.7,0.7,0.7,1","",""
"","html-keyboard-response","252","135096","0.0-252.0","3NGI5ARFTURE9X6DBJN8IY9TFPFP1B","A3ROADR7T6811","3VJ4PFXFJ3TL96TFXMATEMT7KJHUAI","","null","<img src=""img/land5.png"" style=""width:200px; border:14px solid green;"">","null","","","","","","",""
"","image-keyboard-response","253","135701","0.0-253.0","3NGI5ARFTURE9X6DBJN8IY9TFPFP1B","A3ROADR7T6811","3VJ4PFXFJ3TL96TFXMATEMT7KJHUAI","","604","img/land4.png","76","604","3","1","1","1,0.7,0.7,0.7,1,0.7,0.7,0.7,1","",""
"","html-keyboard-response","254","136012","0.0-254.0","3NGI5ARFTURE9X6DBJN8IY9TFPFP1B","A3ROADR7T6811","3VJ4PFXFJ3TL96TFXMATEMT7KJHUAI","","null","<img src=""img/land4.png"" style=""width:200px; border:14px solid green;"">","null","","","","","","",""
"","image-keyboard-response","255","136498","0.0-255.0","3NGI5ARFTURE9X6DBJN8IY9TFPFP1B","A3ROADR7T6811","3VJ4PFXFJ3TL96TFXMATEMT7KJHUAI","","485","img/land4.png","76","485","3","1","1","1,0.7,0.7,0.7,1,0.7,0.7,0.7,1","",""
"","html-keyboard-response","256","136813","0.0-256.0","3NGI5ARFTURE9X6DBJN8IY9TFPFP1B","A3ROADR7T6811","3VJ4PFXFJ3TL96TFXMATEMT7KJHUAI","","null","<img src=""img/land4.png"" style=""width:200px; border:14px solid green;"">","null","","","","","","",""
"","image-keyboard-response","257","137135","0.0-257.0","3NGI5ARFTURE9X6DBJN8IY9TFPFP1B","A3ROADR7T6811","3VJ4PFXFJ3TL96TFXMATEMT7KJHUAI","","321","img/land4.png","76","321","3","0","1","1,0.7,0.7,0.7,1,0.7,0.7,0.7,1","",""
"","html-keyboard-response","258","137436","0.0-258.0","3NGI5ARFTURE9X6DBJN8IY9TFPFP1B","A3ROADR7T6811","3VJ4PFXFJ3TL96TFXMATEMT7KJHUAI","","null","<img src=""img/land4.png"" style=""width:200px;border:14px solid red;"">","null","","","","","","",""
"","image-keyboard-response","259","137843","0.0-259.0","3NGI5ARFTURE9X6DBJN8IY9TFPFP1B","A3ROADR7T6811","3VJ4PFXFJ3TL96TFXMATEMT7KJHUAI","","407","img/land4.png","76","408","3","1","1","1,0.7,0.7,0.7,1,0.7,0.7,0.7,1","",""
"","html-keyboard-response","260","138152","0.0-260.0","3NGI5ARFTURE9X6DBJN8IY9TFPFP1B","A3ROADR7T6811","3VJ4PFXFJ3TL96TFXMATEMT7KJHUAI","","null","<img src=""img/land4.png"" style=""width:200px; border:14px solid green;"">","null","","","","","","",""
"","image-keyboard-response","261","138541","0.0-261.0","3NGI5ARFTURE9X6DBJN8IY9TFPFP1B","A3ROADR7T6811","3VJ4PFXFJ3TL96TFXMATEMT7KJHUAI","","387","img/land4.png","76","388","3","1","1","1,0.7,0.7,0.7,1,0.7,0.7,0.7,1","",""
"","html-keyboard-response","262","138853","0.0-262.0","3NGI5ARFTURE9X6DBJN8IY9TFPFP1B","A3ROADR7T6811","3VJ4PFXFJ3TL96TFXMATEMT7KJHUAI","","null","<img src=""img/land4.png"" style=""width:200px; border:14px solid green;"">","null","","","","","","",""
"","image-keyboard-response","263","139736","0.0-263.0","3NGI5ARFTURE9X6DBJN8IY9TFPFP1B","A3ROADR7T6811","3VJ4PFXFJ3TL96TFXMATEMT7KJHUAI","","881","img/land6.png","74","881","1","1","3","1,0.7,0.7,0.7,1,0.7,0.7,0.7,1","",""
"","html-keyboard-response","264","140038","0.0-264.0","3NGI5ARFTURE9X6DBJN8IY9TFPFP1B","A3ROADR7T6811","3VJ4PFXFJ3TL96TFXMATEMT7KJHUAI","","null","<img src=""img/land6.png"" style=""width:200px; border:14px solid green;"">","null","","","","","","",""
"","image-keyboard-response","265","140780","0.0-265.0","3NGI5ARFTURE9X6DBJN8IY9TFPFP1B","A3ROADR7T6811","3VJ4PFXFJ3TL96TFXMATEMT7KJHUAI","","740","img/land4.png","76","741","3","1","1","1,0.7,0.7,0.7,1,0.7,0.7,0.7,1","",""
"","html-keyboard-response","266","141085","0.0-266.0","3NGI5ARFTURE9X6DBJN8IY9TFPFP1B","A3ROADR7T6811","3VJ4PFXFJ3TL96TFXMATEMT7KJHUAI","","null","<img src=""img/land4.png"" style=""width:200px; border:14px solid green;"">","null","","","","","","",""
"","image-keyboard-response","267","141398","0.0-267.0","3NGI5ARFTURE9X6DBJN8IY9TFPFP1B","A3ROADR7T6811","3VJ4PFXFJ3TL96TFXMATEMT7KJHUAI","","312","img/land4.png","76","313","3","0","1","1,0.7,0.7,0.7,1,0.7,0.7,0.7,1","",""
"","html-keyboard-response","268","141702","0.0-268.0","3NGI5ARFTURE9X6DBJN8IY9TFPFP1B","A3ROADR7T6811","3VJ4PFXFJ3TL96TFXMATEMT7KJHUAI","","null","<img src=""img/land4.png"" style=""width:200px;border:14px solid red;"">","null","","","","","","",""
"","image-keyboard-response","269","142073","0.0-269.0","3NGI5ARFTURE9X6DBJN8IY9TFPFP1B","A3ROADR7T6811","3VJ4PFXFJ3TL96TFXMATEMT7KJHUAI","","372","img/land5.png","74","372","1","0","2","1,0.7,0.7,0.7,1,0.7,0.7,0.7,1","",""
"","html-keyboard-response","270","142387","0.0-270.0","3NGI5ARFTURE9X6DBJN8IY9TFPFP1B","A3ROADR7T6811","3VJ4PFXFJ3TL96TFXMATEMT7KJHUAI","","null","<img src=""img/land5.png"" style=""width:200px;border:14px solid red;"">","null","","","","","","",""
"","image-keyboard-response","271","142844","0.0-271.0","3NGI5ARFTURE9X6DBJN8IY9TFPFP1B","A3ROADR7T6811","3VJ4PFXFJ3TL96TFXMATEMT7KJHUAI","","457","img/land4.png","75","458","2","0","1","1,0.7,0.7,0.7,1,0.7,0.7,0.7,1","",""
"","html-keyboard-response","272","143156","0.0-272.0","3NGI5ARFTURE9X6DBJN8IY9TFPFP1B","A3ROADR7T6811","3VJ4PFXFJ3TL96TFXMATEMT7KJHUAI","","null","<img src=""img/land4.png"" style=""width:200px;border:14px solid red;"">","null","","","","","","",""
"","image-keyboard-response","273","143673","0.0-273.0","3NGI5ARFTURE9X6DBJN8IY9TFPFP1B","A3ROADR7T6811","3VJ4PFXFJ3TL96TFXMATEMT7KJHUAI","","516","img/land4.png","76","517","3","0","1","1,0.7,0.7,0.7,1,0.7,0.7,0.7,1","",""
"","html-keyboard-response","274","143988","0.0-274.0","3NGI5ARFTURE9X6DBJN8IY9TFPFP1B","A3ROADR7T6811","3VJ4PFXFJ3TL96TFXMATEMT7KJHUAI","","null","<img src=""img/land4.png"" style=""width:200px;border:14px solid red;"">","null","","","","","","",""
"","image-keyboard-response","275","144218","0.0-275.0","3NGI5ARFTURE9X6DBJN8IY9TFPFP1B","A3ROADR7T6811","3VJ4PFXFJ3TL96TFXMATEMT7KJHUAI","","230","img/land4.png","76","230","3","1","1","1,0.7,0.7,0.7,1,0.7,0.7,0.7,1","",""
"","html-keyboard-response","276","144520","0.0-276.0","3NGI5ARFTURE9X6DBJN8IY9TFPFP1B","A3ROADR7T6811","3VJ4PFXFJ3TL96TFXMATEMT7KJHUAI","","null","<img src=""img/land4.png"" style=""width:200px; border:14px solid green;"">","null","","","","","","",""
"","image-keyboard-response","277","145048","0.0-277.0","3NGI5ARFTURE9X6DBJN8IY9TFPFP1B","A3ROADR7T6811","3VJ4PFXFJ3TL96TFXMATEMT7KJHUAI","","528","img/land4.png","76","528","3","0","1","1,0.7,0.7,0.7,1,0.7,0.7,0.7,1","",""
"","html-keyboard-response","278","145359","0.0-278.0","3NGI5ARFTURE9X6DBJN8IY9TFPFP1B","A3ROADR7T6811","3VJ4PFXFJ3TL96TFXMATEMT7KJHUAI","","null","<img src=""img/land4.png"" style=""width:200px;border:14px solid red;"">","null","","","","","","",""
"","image-keyboard-response","279","145605","0.0-279.0","3NGI5ARFTURE9X6DBJN8IY9TFPFP1B","A3ROADR7T6811","3VJ4PFXFJ3TL96TFXMATEMT7KJHUAI","","244","img/land5.png","74","245","1","1","2","1,0.7,0.7,0.7,1,0.7,0.7,0.7,1","",""
"","html-keyboard-response","280","145907","0.0-280.0","3NGI5ARFTURE9X6DBJN8IY9TFPFP1B","A3ROADR7T6811","3VJ4PFXFJ3TL96TFXMATEMT7KJHUAI","","null","<img src=""img/land5.png"" style=""width:200px; border:14px solid green;"">","null","","","","","","",""
"","image-keyboard-response","281","146483","0.0-281.0","3NGI5ARFTURE9X6DBJN8IY9TFPFP1B","A3ROADR7T6811","3VJ4PFXFJ3TL96TFXMATEMT7KJHUAI","","576","img/land6.png","74","576","1","1","3","1,0.7,0.7,0.7,1,0.7,0.7,0.7,1","",""
"","html-keyboard-response","282","146792","0.0-282.0","3NGI5ARFTURE9X6DBJN8IY9TFPFP1B","A3ROADR7T6811","3VJ4PFXFJ3TL96TFXMATEMT7KJHUAI","","null","<img src=""img/land6.png"" style=""width:200px; border:14px solid green;"">","null","","","","","","",""
"","image-keyboard-response","283","147483","0.0-283.0","3NGI5ARFTURE9X6DBJN8IY9TFPFP1B","A3ROADR7T6811","3VJ4PFXFJ3TL96TFXMATEMT7KJHUAI","","690","img/land4.png","75","691","2","1","1","1,0.7,0.7,0.7,1,0.7,0.7,0.7,1","",""
"","html-keyboard-response","284","147795","0.0-284.0","3NGI5ARFTURE9X6DBJN8IY9TFPFP1B","A3ROADR7T6811","3VJ4PFXFJ3TL96TFXMATEMT7KJHUAI","","null","<img src=""img/land4.png"" style=""width:200px; border:14px solid green;"">","null","","","","","","",""
"","image-keyboard-response","285","148231","0.0-285.0","3NGI5ARFTURE9X6DBJN8IY9TFPFP1B","A3ROADR7T6811","3VJ4PFXFJ3TL96TFXMATEMT7KJHUAI","","436","img/land5.png","76","436","3","1","2","1,0.7,0.7,0.7,1,0.7,0.7,0.7,1","",""
"","html-keyboard-response","286","148549","0.0-286.0","3NGI5ARFTURE9X6DBJN8IY9TFPFP1B","A3ROADR7T6811","3VJ4PFXFJ3TL96TFXMATEMT7KJHUAI","","null","<img src=""img/land5.png"" style=""width:200px; border:14px solid green;"">","null","","","","","","",""
"","image-keyboard-response","287","149593","0.0-287.0","3NGI5ARFTURE9X6DBJN8IY9TFPFP1B","A3ROADR7T6811","3VJ4PFXFJ3TL96TFXMATEMT7KJHUAI","","1043","img/land6.png","76","1043","3","1","3","1,0.7,0.7,0.7,1,0.7,0.7,0.7,1","",""
"","html-keyboard-response","288","149898","0.0-288.0","3NGI5ARFTURE9X6DBJN8IY9TFPFP1B","A3ROADR7T6811","3VJ4PFXFJ3TL96TFXMATEMT7KJHUAI","","null","<img src=""img/land6.png"" style=""width:200px; border:14px solid green;"">","null","","","","","","",""
"","image-keyboard-response","289","150149","0.0-289.0","3NGI5ARFTURE9X6DBJN8IY9TFPFP1B","A3ROADR7T6811","3VJ4PFXFJ3TL96TFXMATEMT7KJHUAI","","251","img/land4.png","76","251","3","1","1","1,0.7,0.7,0.7,1,0.7,0.7,0.7,1","",""
"","html-keyboard-response","290","150452","0.0-290.0","3NGI5ARFTURE9X6DBJN8IY9TFPFP1B","A3ROADR7T6811","3VJ4PFXFJ3TL96TFXMATEMT7KJHUAI","","null","<img src=""img/land4.png"" style=""width:200px; border:14px solid green;"">","null","","","","","","",""
"","image-keyboard-response","291","151071","0.0-291.0","3NGI5ARFTURE9X6DBJN8IY9TFPFP1B","A3ROADR7T6811","3VJ4PFXFJ3TL96TFXMATEMT7KJHUAI","","617","img/land6.png","76","617","3","1","3","1,0.7,0.7,0.7,1,0.7,0.7,0.7,1","",""
"","html-keyboard-response","292","151385","0.0-292.0","3NGI5ARFTURE9X6DBJN8IY9TFPFP1B","A3ROADR7T6811","3VJ4PFXFJ3TL96TFXMATEMT7KJHUAI","","null","<img src=""img/land6.png"" style=""width:200px; border:14px solid green;"">","null","","","","","","",""
"","image-keyboard-response","293","151811","0.0-293.0","3NGI5ARFTURE9X6DBJN8IY9TFPFP1B","A3ROADR7T6811","3VJ4PFXFJ3TL96TFXMATEMT7KJHUAI","","425","img/land4.png","74","427","1","1","1","1,0.7,0.7,0.7,1,0.7,0.7,0.7,1","",""
"","html-keyboard-response","294","152117","0.0-294.0","3NGI5ARFTURE9X6DBJN8IY9TFPFP1B","A3ROADR7T6811","3VJ4PFXFJ3TL96TFXMATEMT7KJHUAI","","null","<img src=""img/land4.png"" style=""width:200px; border:14px solid green;"">","null","","","","","","",""
"","image-keyboard-response","295","152437","0.0-295.0","3NGI5ARFTURE9X6DBJN8IY9TFPFP1B","A3ROADR7T6811","3VJ4PFXFJ3TL96TFXMATEMT7KJHUAI","","320","img/land4.png","74","320","1","1","1","1,0.7,0.7,0.7,1,0.7,0.7,0.7,1","",""
"","html-keyboard-response","296","152754","0.0-296.0","3NGI5ARFTURE9X6DBJN8IY9TFPFP1B","A3ROADR7T6811","3VJ4PFXFJ3TL96TFXMATEMT7KJHUAI","","null","<img src=""img/land4.png"" style=""width:200px; border:14px solid green;"">","null","","","","","","",""
"","image-keyboard-response","297","153581","0.0-297.0","3NGI5ARFTURE9X6DBJN8IY9TFPFP1B","A3ROADR7T6811","3VJ4PFXFJ3TL96TFXMATEMT7KJHUAI","","825","img/land6.png","76","826","3","1","3","1,0.7,0.7,0.7,1,0.7,0.7,0.7,1","",""
"","html-keyboard-response","298","153888","0.0-298.0","3NGI5ARFTURE9X6DBJN8IY9TFPFP1B","A3ROADR7T6811","3VJ4PFXFJ3TL96TFXMATEMT7KJHUAI","","null","<img src=""img/land6.png"" style=""width:200px; border:14px solid green;"">","null","","","","","","",""
"","image-keyboard-response","299","154288","0.0-299.0","3NGI5ARFTURE9X6DBJN8IY9TFPFP1B","A3ROADR7T6811","3VJ4PFXFJ3TL96TFXMATEMT7KJHUAI","","398","img/land6.png","76","400","3","1","3","1,0.7,0.7,0.7,1,0.7,0.7,0.7,1","",""
"","html-keyboard-response","300","154588","0.0-300.0","3NGI5ARFTURE9X6DBJN8IY9TFPFP1B","A3ROADR7T6811","3VJ4PFXFJ3TL96TFXMATEMT7KJHUAI","","null","<img src=""img/land6.png"" style=""width:200px; border:14px solid green;"">","null","","","","","","",""
"","image-keyboard-response","301","155169","0.0-301.0","3NGI5ARFTURE9X6DBJN8IY9TFPFP1B","A3ROADR7T6811","3VJ4PFXFJ3TL96TFXMATEMT7KJHUAI","","579","img/land4.png","74","579","1","1","1","1,0.7,0.7,0.7,1,0.7,0.7,0.7,1","",""
"","html-keyboard-response","302","155475","0.0-302.0","3NGI5ARFTURE9X6DBJN8IY9TFPFP1B","A3ROADR7T6811","3VJ4PFXFJ3TL96TFXMATEMT7KJHUAI","","null","<img src=""img/land4.png"" style=""width:200px; border:14px solid green;"">","null","","","","","","",""
"","image-keyboard-response","303","155765","0.0-303.0","3NGI5ARFTURE9X6DBJN8IY9TFPFP1B","A3ROADR7T6811","3VJ4PFXFJ3TL96TFXMATEMT7KJHUAI","","289","img/land4.png","74","289","1","1","1","1,0.7,0.7,0.7,1,0.7,0.7,0.7,1","",""
"","html-keyboard-response","304","156076","0.0-304.0","3NGI5ARFTURE9X6DBJN8IY9TFPFP1B","A3ROADR7T6811","3VJ4PFXFJ3TL96TFXMATEMT7KJHUAI","","null","<img src=""img/land4.png"" style=""width:200px; border:14px solid green;"">","null","","","","","","",""
"","image-keyboard-response","305","156692","0.0-305.0","3NGI5ARFTURE9X6DBJN8IY9TFPFP1B","A3ROADR7T6811","3VJ4PFXFJ3TL96TFXMATEMT7KJHUAI","","615","img/land6.png","76","615","3","1","3","1,0.7,0.7,0.7,1,0.7,0.7,0.7,1","",""
"","html-keyboard-response","306","157008","0.0-306.0","3NGI5ARFTURE9X6DBJN8IY9TFPFP1B","A3ROADR7T6811","3VJ4PFXFJ3TL96TFXMATEMT7KJHUAI","","null","<img src=""img/land6.png"" style=""width:200px; border:14px solid green;"">","null","","","","","","",""
"","image-keyboard-response","307","157573","0.0-307.0","3NGI5ARFTURE9X6DBJN8IY9TFPFP1B","A3ROADR7T6811","3VJ4PFXFJ3TL96TFXMATEMT7KJHUAI","","565","img/land5.png","75","565","2","1","2","1,0.7,0.7,0.7,1,0.7,0.7,0.7,1","",""
"","html-keyboard-response","308","157879","0.0-308.0","3NGI5ARFTURE9X6DBJN8IY9TFPFP1B","A3ROADR7T6811","3VJ4PFXFJ3TL96TFXMATEMT7KJHUAI","","null","<img src=""img/land5.png"" style=""width:200px; border:14px solid green;"">","null","","","","","","",""
"","image-keyboard-response","309","158404","0.0-309.0","3NGI5ARFTURE9X6DBJN8IY9TFPFP1B","A3ROADR7T6811","3VJ4PFXFJ3TL96TFXMATEMT7KJHUAI","","523","img/land6.png","76","524","3","1","3","1,0.7,0.7,0.7,1,0.7,0.7,0.7,1","",""
"","html-keyboard-response","310","158711","0.0-310.0","3NGI5ARFTURE9X6DBJN8IY9TFPFP1B","A3ROADR7T6811","3VJ4PFXFJ3TL96TFXMATEMT7KJHUAI","","null","<img src=""img/land6.png"" style=""width:200px; border:14px solid green;"">","null","","","","","","",""
"","image-keyboard-response","311","159354","0.0-311.0","3NGI5ARFTURE9X6DBJN8IY9TFPFP1B","A3ROADR7T6811","3VJ4PFXFJ3TL96TFXMATEMT7KJHUAI","","643","img/land4.png","74","644","1","1","1","1,0.7,0.7,0.7,1,0.7,0.7,0.7,1","",""
"","html-keyboard-response","312","159666","0.0-312.0","3NGI5ARFTURE9X6DBJN8IY9TFPFP1B","A3ROADR7T6811","3VJ4PFXFJ3TL96TFXMATEMT7KJHUAI","","null","<img src=""img/land4.png"" style=""width:200px; border:14px solid green;"">","null","","","","","","",""
"","image-keyboard-response","313","160110","0.0-313.0","3NGI5ARFTURE9X6DBJN8IY9TFPFP1B","A3ROADR7T6811","3VJ4PFXFJ3TL96TFXMATEMT7KJHUAI","","444","img/land4.png","74","444","1","1","1","1,0.7,0.7,0.7,1,0.7,0.7,0.7,1","",""
"","html-keyboard-response","314","160415","0.0-314.0","3NGI5ARFTURE9X6DBJN8IY9TFPFP1B","A3ROADR7T6811","3VJ4PFXFJ3TL96TFXMATEMT7KJHUAI","","null","<img src=""img/land4.png"" style=""width:200px; border:14px solid green;"">","null","","","","","","",""
"","image-keyboard-response","315","160708","0.0-315.0","3NGI5ARFTURE9X6DBJN8IY9TFPFP1B","A3ROADR7T6811","3VJ4PFXFJ3TL96TFXMATEMT7KJHUAI","","293","img/land4.png","74","294","1","1","1","1,0.7,0.7,0.7,1,0.7,0.7,0.7,1","",""
"","html-keyboard-response","316","161015","0.0-316.0","3NGI5ARFTURE9X6DBJN8IY9TFPFP1B","A3ROADR7T6811","3VJ4PFXFJ3TL96TFXMATEMT7KJHUAI","","null","<img src=""img/land4.png"" style=""width:200px; border:14px solid green;"">","null","","","","","","",""
"","image-keyboard-response","317","161308","0.0-317.0","3NGI5ARFTURE9X6DBJN8IY9TFPFP1B","A3ROADR7T6811","3VJ4PFXFJ3TL96TFXMATEMT7KJHUAI","","293","img/land4.png","74","293","1","1","1","1,0.7,0.7,0.7,1,0.7,0.7,0.7,1","",""
"","html-keyboard-response","318","161615","0.0-318.0","3NGI5ARFTURE9X6DBJN8IY9TFPFP1B","A3ROADR7T6811","3VJ4PFXFJ3TL96TFXMATEMT7KJHUAI","","null","<img src=""img/land4.png"" style=""width:200px; border:14px solid green;"">","null","","","","","","",""
"","image-keyboard-response","319","161844","0.0-319.0","3NGI5ARFTURE9X6DBJN8IY9TFPFP1B","A3ROADR7T6811","3VJ4PFXFJ3TL96TFXMATEMT7KJHUAI","","227","img/land4.png","74","229","1","1","1","1,0.7,0.7,0.7,1,0.7,0.7,0.7,1","",""
"","html-keyboard-response","320","162147","0.0-320.0","3NGI5ARFTURE9X6DBJN8IY9TFPFP1B","A3ROADR7T6811","3VJ4PFXFJ3TL96TFXMATEMT7KJHUAI","","null","<img src=""img/land4.png"" style=""width:200px; border:14px solid green;"">","null","","","","","","",""
"","image-keyboard-response","321","162432","0.0-321.0","3NGI5ARFTURE9X6DBJN8IY9TFPFP1B","A3ROADR7T6811","3VJ4PFXFJ3TL96TFXMATEMT7KJHUAI","","284","img/land4.png","74","285","1","1","1","1,0.7,0.7,0.7,1,0.7,0.7,0.7,1","",""
"","html-keyboard-response","322","162748","0.0-322.0","3NGI5ARFTURE9X6DBJN8IY9TFPFP1B","A3ROADR7T6811","3VJ4PFXFJ3TL96TFXMATEMT7KJHUAI","","null","<img src=""img/land4.png"" style=""width:200px; border:14px solid green;"">","null","","","","","","",""
"","image-keyboard-response","323","162784","0.0-323.0","3NGI5ARFTURE9X6DBJN8IY9TFPFP1B","A3ROADR7T6811","3VJ4PFXFJ3TL96TFXMATEMT7KJHUAI","","35","img/land6.png","74","35","1","1","3","1,0.7,0.7,0.7,1,0.7,0.7,0.7,1","",""
"","html-keyboard-response","324","163086","0.0-324.0","3NGI5ARFTURE9X6DBJN8IY9TFPFP1B","A3ROADR7T6811","3VJ4PFXFJ3TL96TFXMATEMT7KJHUAI","","null","<img src=""img/land6.png"" style=""width:200px; border:14px solid green;"">","null","","","","","","",""
"","image-keyboard-response","325","163484","0.0-325.0","3NGI5ARFTURE9X6DBJN8IY9TFPFP1B","A3ROADR7T6811","3VJ4PFXFJ3TL96TFXMATEMT7KJHUAI","","397","img/land4.png","76","398","3","1","1","1,0.7,0.7,0.7,1,0.7,0.7,0.7,1","",""
"","html-keyboard-response","326","163787","0.0-326.0","3NGI5ARFTURE9X6DBJN8IY9TFPFP1B","A3ROADR7T6811","3VJ4PFXFJ3TL96TFXMATEMT7KJHUAI","","null","<img src=""img/land4.png"" style=""width:200px; border:14px solid green;"">","null","","","","","","",""
"","image-keyboard-response","327","164262","0.0-327.0","3NGI5ARFTURE9X6DBJN8IY9TFPFP1B","A3ROADR7T6811","3VJ4PFXFJ3TL96TFXMATEMT7KJHUAI","","474","img/land6.png","74","474","1","1","3","1,0.7,0.7,0.7,1,0.7,0.7,0.7,1","",""
"","html-keyboard-response","328","164573","0.0-328.0","3NGI5ARFTURE9X6DBJN8IY9TFPFP1B","A3ROADR7T6811","3VJ4PFXFJ3TL96TFXMATEMT7KJHUAI","","null","<img src=""img/land6.png"" style=""width:200px; border:14px solid green;"">","null","","","","","","",""
"","image-keyboard-response","329","165072","0.0-329.0","3NGI5ARFTURE9X6DBJN8IY9TFPFP1B","A3ROADR7T6811","3VJ4PFXFJ3TL96TFXMATEMT7KJHUAI","","498","img/land4.png","76","498","3","1","1","1,0.7,0.7,0.7,1,0.7,0.7,0.7,1","",""
"","html-keyboard-response","330","165374","0.0-330.0","3NGI5ARFTURE9X6DBJN8IY9TFPFP1B","A3ROADR7T6811","3VJ4PFXFJ3TL96TFXMATEMT7KJHUAI","","null","<img src=""img/land4.png"" style=""width:200px; border:14px solid green;"">","null","","","","","","",""
"","image-keyboard-response","331","166072","0.0-331.0","3NGI5ARFTURE9X6DBJN8IY9TFPFP1B","A3ROADR7T6811","3VJ4PFXFJ3TL96TFXMATEMT7KJHUAI","","698","img/land6.png","76","698","3","1","3","1,0.7,0.7,0.7,1,0.7,0.7,0.7,1","",""
"","html-keyboard-response","332","166376","0.0-332.0","3NGI5ARFTURE9X6DBJN8IY9TFPFP1B","A3ROADR7T6811","3VJ4PFXFJ3TL96TFXMATEMT7KJHUAI","","null","<img src=""img/land6.png"" style=""width:200px; border:14px solid green;"">","null","","","","","","",""
"","image-keyboard-response","333","166837","0.0-333.0","3NGI5ARFTURE9X6DBJN8IY9TFPFP1B","A3ROADR7T6811","3VJ4PFXFJ3TL96TFXMATEMT7KJHUAI","","460","img/land4.png","74","460","1","1","1","1,0.7,0.7,0.7,1,0.7,0.7,0.7,1","",""
"","html-keyboard-response","334","167140","0.0-334.0","3NGI5ARFTURE9X6DBJN8IY9TFPFP1B","A3ROADR7T6811","3VJ4PFXFJ3TL96TFXMATEMT7KJHUAI","","null","<img src=""img/land4.png"" style=""width:200px; border:14px solid green;"">","null","","","","","","",""
"","image-keyboard-response","335","167606","0.0-335.0","3NGI5ARFTURE9X6DBJN8IY9TFPFP1B","A3ROADR7T6811","3VJ4PFXFJ3TL96TFXMATEMT7KJHUAI","","466","img/land4.png","74","467","1","1","1","1,0.7,0.7,0.7,1,0.7,0.7,0.7,1","",""
"","html-keyboard-response","336","167910","0.0-336.0","3NGI5ARFTURE9X6DBJN8IY9TFPFP1B","A3ROADR7T6811","3VJ4PFXFJ3TL96TFXMATEMT7KJHUAI","","null","<img src=""img/land4.png"" style=""width:200px; border:14px solid green;"">","null","","","","","","",""
"","image-keyboard-response","337","168212","0.0-337.0","3NGI5ARFTURE9X6DBJN8IY9TFPFP1B","A3ROADR7T6811","3VJ4PFXFJ3TL96TFXMATEMT7KJHUAI","","301","img/land5.png","74","302","1","1","2","1,0.7,0.7,0.7,1,0.7,0.7,0.7,1","",""
"","html-keyboard-response","338","168525","0.0-338.0","3NGI5ARFTURE9X6DBJN8IY9TFPFP1B","A3ROADR7T6811","3VJ4PFXFJ3TL96TFXMATEMT7KJHUAI","","null","<img src=""img/land5.png"" style=""width:200px; border:14px solid green;"">","null","","","","","","",""
"","instructions","339","170008","0.0-339.0","3NGI5ARFTURE9X6DBJN8IY9TFPFP1B","A3ROADR7T6811","3VJ4PFXFJ3TL96TFXMATEMT7KJHUAI","[{""page_index"":0,""viewing_time"":1481}]","1481","","","","","","","","",""
"","survey-text","340","172915","0.0-340.0-0.0","3NGI5ARFTURE9X6DBJN8IY9TFPFP1B","A3ROADR7T6811","3VJ4PFXFJ3TL96TFXMATEMT7KJHUAI","","2901","","","","","","","","{""Q0"":""30""}",""
"","survey-multi-choice","341","175021","0.0-340.0-1.0","3NGI5ARFTURE9X6DBJN8IY9TFPFP1B","A3ROADR7T6811","3VJ4PFXFJ3TL96TFXMATEMT7KJHUAI","","2105","","","","","","","","{""gender"":""M""}","[0]"
"","survey-text","342","179040","0.0-341.0","3NGI5ARFTURE9X6DBJN8IY9TFPFP1B","A3ROADR7T6811","3VJ4PFXFJ3TL96TFXMATEMT7KJHUAI","","4014","","","","","","","","{""Q0"":""A3ROADR7T6811""}",""
