"success","trial_type","trial_index","time_elapsed","internal_node_id","assignmentID","mturkID","hitID","view_history","rt","stimulus","key_press","reactionTime","a","r","s","cond","reward_cond","reward_cond_actual","reward_matrix_idx","responses","question_order"
"true","fullscreen","0","3046","0.0-0.0","","","","","","","","","","","","","","","","",""
"","instructions","1","68814","0.0-1.0","","","","[{""page_index"":0,""viewing_time"":6615.599999904633},{""page_index"":1,""viewing_time"":767.7000000476837},{""page_index"":2,""viewing_time"":594.2000000476837},{""page_index"":3,""viewing_time"":53399.799999952316},{""page_index"":4,""viewing_time"":2476},{""page_index"":5,""viewing_time"":935.8999998569489},{""page_index"":6,""viewing_time"":978}]","65767.59999990463","","","","","","","","","","","",""
"","image-keyboard-response","2","69507","0.0-2.0","","","","","692.5999999046326","img/land1.png","75","693.5999999046326","2","0","1","1","1,0,0,0.25,0.5,0.25,0.25,0.25,0.5","0,0,1,0.25,0.5,0.25,0.5,0.25,0.25","2","",""
"","html-keyboard-response","3","69808","0.0-3.0","","","","","null","<img src=""img/land1.png"" style=""width:200px;border:14px solid red;"">","null","","","","","","","","","",""
"","image-keyboard-response","4","70547","0.0-4.0","","","","","738","img/land1.png","75","738.6000001430511","2","0","1","1","1,0,0,0.25,0.5,0.25,0.25,0.25,0.5","0,0,1,0.25,0.5,0.25,0.5,0.25,0.25","2","",""
"","html-keyboard-response","5","70849","0.0-5.0","","","","","null","<img src=""img/land1.png"" style=""width:200px;border:14px solid red;"">","null","","","","","","","","","",""
"","image-keyboard-response","6","71027","0.0-6.0","","","","","177.40000009536743","img/land1.png","76","178","3","1","1","1","1,0,0,0.25,0.5,0.25,0.25,0.25,0.5","0,0,1,0.25,0.5,0.25,0.5,0.25,0.25","2","",""
"","html-keyboard-response","7","71328","0.0-7.0","","","","","null","<img src=""img/land1.png"" style=""width:200px; border:14px solid green;"">","null","","","","","","","","","",""
"","image-keyboard-response","8","72067","0.0-8.0","","","","","738.1000001430511","img/land1.png","76","738.7000000476837","3","1","1","1","1,0,0,0.25,0.5,0.25,0.25,0.25,0.5","0,0,1,0.25,0.5,0.25,0.5,0.25,0.25","2","",""
"","html-keyboard-response","9","72369","0.0-9.0","","","","","null","<img src=""img/land1.png"" style=""width:200px; border:14px solid green;"">","null","","","","","","","","","",""
"","image-keyboard-response","10","73083","0.0-10.0","","","","","713.6000001430511","img/land3.png","75","714.2999999523163","2","0","3","1","1,0,0,0.25,0.5,0.25,0.25,0.25,0.5","0,0,1,0.25,0.5,0.25,0.5,0.25,0.25","2","",""
"","html-keyboard-response","11","73384","0.0-11.0","","","","","null","<img src=""img/land3.png"" style=""width:200px;border:14px solid red;"">","null","","","","","","","","","",""
"","image-keyboard-response","12","73587","0.0-12.0","","","","","202.60000014305115","img/land1.png","74","203.10000014305115","1","0","1","1","1,0,0,0.25,0.5,0.25,0.25,0.25,0.5","0,0,1,0.25,0.5,0.25,0.5,0.25,0.25","2","",""
"","html-keyboard-response","13","73888","0.0-13.0","","","","","null","<img src=""img/land1.png"" style=""width:200px;border:14px solid red;"">","null","","","","","","","","","",""
"","image-keyboard-response","14","74283","0.0-14.0","","","","","394.5","img/land1.png","76","395","3","1","1","1","1,0,0,0.25,0.5,0.25,0.25,0.25,0.5","0,0,1,0.25,0.5,0.25,0.5,0.25,0.25","2","",""
"","html-keyboard-response","15","74584","0.0-15.0","","","","","null","<img src=""img/land1.png"" style=""width:200px; border:14px solid green;"">","null","","","","","","","","","",""
"","image-keyboard-response","16","74947","0.0-16.0","","","","","362.30000019073486","img/land1.png","76","362.89999985694885","3","1","1","1","1,0,0,0.25,0.5,0.25,0.25,0.25,0.5","0,0,1,0.25,0.5,0.25,0.5,0.25,0.25","2","",""
"","html-keyboard-response","17","75248","0.0-17.0","","","","","null","<img src=""img/land1.png"" style=""width:200px; border:14px solid green;"">","null","","","","","","","","","",""
"","image-keyboard-response","18","75835","0.0-18.0","","","","","585.9000000953674","img/land2.png","74","586.3999998569489","1","1","2","1","1,0,0,0.25,0.5,0.25,0.25,0.25,0.5","0,0,1,0.25,0.5,0.25,0.5,0.25,0.25","2","",""
"","html-keyboard-response","19","76137","0.0-19.0","","","","","null","<img src=""img/land2.png"" style=""width:200px; border:14px solid green;"">","null","","","","","","","","","",""
"","image-keyboard-response","20","76883","0.0-20.0","","","","","745.7000000476837","img/land1.png","76","746.2999999523163","3","1","1","1","1,0,0,0.25,0.5,0.25,0.25,0.25,0.5","0,0,1,0.25,0.5,0.25,0.5,0.25,0.25","2","",""
"","html-keyboard-response","21","77185","0.0-21.0","","","","","null","<img src=""img/land1.png"" style=""width:200px; border:14px solid green;"">","null","","","","","","","","","",""
"","image-keyboard-response","22","77579","0.0-22.0","","","","","393.80000019073486","img/land1.png","76","394.2999999523163","3","1","1","1","1,0,0,0.25,0.5,0.25,0.25,0.25,0.5","0,0,1,0.25,0.5,0.25,0.5,0.25,0.25","2","",""
"","html-keyboard-response","23","77880","0.0-23.0","","","","","null","<img src=""img/land1.png"" style=""width:200px; border:14px solid green;"">","null","","","","","","","","","",""
"","image-keyboard-response","24","78211","0.0-24.0","","","","","330","img/land1.png","76","330.39999985694885","3","1","1","1","1,0,0,0.25,0.5,0.25,0.25,0.25,0.5","0,0,1,0.25,0.5,0.25,0.5,0.25,0.25","2","",""
"","html-keyboard-response","25","78512","0.0-25.0","","","","","null","<img src=""img/land1.png"" style=""width:200px; border:14px solid green;"">","null","","","","","","","","","",""
"","image-keyboard-response","26","78843","0.0-26.0","","","","","330.60000014305115","img/land1.png","76","331.19999980926514","3","1","1","1","1,0,0,0.25,0.5,0.25,0.25,0.25,0.5","0,0,1,0.25,0.5,0.25,0.5,0.25,0.25","2","",""
"","html-keyboard-response","27","79144","0.0-27.0","","","","","null","<img src=""img/land1.png"" style=""width:200px; border:14px solid green;"">","null","","","","","","","","","",""
"","image-keyboard-response","28","80075","0.0-28.0","","","","","930.3000001907349","img/land2.png","75","930.7999999523163","2","0","2","1","1,0,0,0.25,0.5,0.25,0.25,0.25,0.5","0,0,1,0.25,0.5,0.25,0.5,0.25,0.25","2","",""
"","html-keyboard-response","29","80376","0.0-29.0","","","","","null","<img src=""img/land2.png"" style=""width:200px;border:14px solid red;"">","null","","","","","","","","","",""
"","image-keyboard-response","30","80739","0.0-30.0","","","","","362.59999990463257","img/land2.png","74","363.10000014305115","1","0","2","1","1,0,0,0.25,0.5,0.25,0.25,0.25,0.5","0,0,1,0.25,0.5,0.25,0.5,0.25,0.25","2","",""
"","html-keyboard-response","31","81041","0.0-31.0","","","","","null","<img src=""img/land2.png"" style=""width:200px;border:14px solid red;"">","null","","","","","","","","","",""
"","image-keyboard-response","32","81691","0.0-32.0","","","","","649.3000001907349","img/land1.png","76","649.7999999523163","3","1","1","1","1,0,0,0.25,0.5,0.25,0.25,0.25,0.5","0,0,1,0.25,0.5,0.25,0.5,0.25,0.25","2","",""
"","html-keyboard-response","33","81993","0.0-33.0","","","","","null","<img src=""img/land1.png"" style=""width:200px; border:14px solid green;"">","null","","","","","","","","","",""
"","image-keyboard-response","34","82259","0.0-34.0","","","","","265.5","img/land1.png","76","266.10000014305115","3","1","1","1","1,0,0,0.25,0.5,0.25,0.25,0.25,0.5","0,0,1,0.25,0.5,0.25,0.5,0.25,0.25","2","",""
"","html-keyboard-response","35","82560","0.0-35.0","","","","","null","<img src=""img/land1.png"" style=""width:200px; border:14px solid green;"">","null","","","","","","","","","",""
"","image-keyboard-response","36","82859","0.0-36.0","","","","","298.7000000476837","img/land3.png","76","299.09999990463257","3","0","3","1","1,0,0,0.25,0.5,0.25,0.25,0.25,0.5","0,0,1,0.25,0.5,0.25,0.5,0.25,0.25","2","",""
"","html-keyboard-response","37","83160","0.0-37.0","","","","","null","<img src=""img/land3.png"" style=""width:200px;border:14px solid red;"">","null","","","","","","","","","",""
"","image-keyboard-response","38","83907","0.0-38.0","","","","","746.1000001430511","img/land1.png","76","746.5999999046326","3","1","1","1","1,0,0,0.25,0.5,0.25,0.25,0.25,0.5","0,0,1,0.25,0.5,0.25,0.5,0.25,0.25","2","",""
"","html-keyboard-response","39","84208","0.0-39.0","","","","","null","<img src=""img/land1.png"" style=""width:200px; border:14px solid green;"">","null","","","","","","","","","",""
"","image-keyboard-response","40","84731","0.0-40.0","","","","","522.0999999046326","img/land3.png","74","522.5999999046326","1","1","3","1","1,0,0,0.25,0.5,0.25,0.25,0.25,0.5","0,0,1,0.25,0.5,0.25,0.5,0.25,0.25","2","",""
"","html-keyboard-response","41","85033","0.0-41.0","","","","","null","<img src=""img/land3.png"" style=""width:200px; border:14px solid green;"">","null","","","","","","","","","",""
"","image-keyboard-response","42","85611","0.0-42.0","","","","","577.7000000476837","img/land3.png","74","578.1999998092651","1","0","3","1","1,0,0,0.25,0.5,0.25,0.25,0.25,0.5","0,0,1,0.25,0.5,0.25,0.5,0.25,0.25","2","",""
"","html-keyboard-response","43","85913","0.0-43.0","","","","","null","<img src=""img/land3.png"" style=""width:200px;border:14px solid red;"">","null","","","","","","","","","",""
"","image-keyboard-response","44","86307","0.0-44.0","","","","","393.2999999523163","img/land3.png","74","393.89999985694885","1","1","3","1","1,0,0,0.25,0.5,0.25,0.25,0.25,0.5","0,0,1,0.25,0.5,0.25,0.5,0.25,0.25","2","",""
"","html-keyboard-response","45","86608","0.0-45.0","","","","","null","<img src=""img/land3.png"" style=""width:200px; border:14px solid green;"">","null","","","","","","","","","",""
"","image-keyboard-response","46","87763","0.0-46.0","","","","","1154.1000001430511","img/land2.png","76","1154.6999998092651","3","0","2","1","1,0,0,0.25,0.5,0.25,0.25,0.25,0.5","0,0,1,0.25,0.5,0.25,0.5,0.25,0.25","2","",""
"","html-keyboard-response","47","88064","0.0-47.0","","","","","null","<img src=""img/land2.png"" style=""width:200px;border:14px solid red;"">","null","","","","","","","","","",""
"","image-keyboard-response","48","88403","0.0-48.0","","","","","337.90000009536743","img/land2.png","76","338.2999999523163","3","0","2","1","1,0,0,0.25,0.5,0.25,0.25,0.25,0.5","0,0,1,0.25,0.5,0.25,0.5,0.25,0.25","2","",""
"","html-keyboard-response","49","88705","0.0-49.0","","","","","null","<img src=""img/land2.png"" style=""width:200px;border:14px solid red;"">","null","","","","","","","","","",""
"","image-keyboard-response","50","89443","0.0-50.0","","","","","737.2000000476837","img/land1.png","76","737.9000000953674","3","1","1","1","1,0,0,0.25,0.5,0.25,0.25,0.25,0.5","0,0,1,0.25,0.5,0.25,0.5,0.25,0.25","2","",""
"","html-keyboard-response","51","89745","0.0-51.0","","","","","null","<img src=""img/land1.png"" style=""width:200px; border:14px solid green;"">","null","","","","","","","","","",""
"","image-keyboard-response","52","90364","0.0-52.0","","","","","618.2999999523163","img/land2.png","74","618.9000000953674","1","1","2","1","1,0,0,0.25,0.5,0.25,0.25,0.25,0.5","0,0,1,0.25,0.5,0.25,0.5,0.25,0.25","2","",""
"","html-keyboard-response","53","90665","0.0-53.0","","","","","null","<img src=""img/land2.png"" style=""width:200px; border:14px solid green;"">","null","","","","","","","","","",""
"","image-keyboard-response","54","91531","0.0-54.0","","","","","864.9000000953674","img/land1.png","76","865.3999998569489","3","1","1","1","1,0,0,0.25,0.5,0.25,0.25,0.25,0.5","0,0,1,0.25,0.5,0.25,0.5,0.25,0.25","2","",""
"","html-keyboard-response","55","91833","0.0-55.0","","","","","null","<img src=""img/land1.png"" style=""width:200px; border:14px solid green;"">","null","","","","","","","","","",""
"","image-keyboard-response","56","92227","0.0-56.0","","","","","393.7000000476837","img/land1.png","76","394.19999980926514","3","1","1","1","1,0,0,0.25,0.5,0.25,0.25,0.25,0.5","0,0,1,0.25,0.5,0.25,0.5,0.25,0.25","2","",""
"","html-keyboard-response","57","92528","0.0-57.0","","","","","null","<img src=""img/land1.png"" style=""width:200px; border:14px solid green;"">","null","","","","","","","","","",""
"","image-keyboard-response","58","93307","0.0-58.0","","","","","778.7000000476837","img/land3.png","74","779.2000000476837","1","0","3","1","1,0,0,0.25,0.5,0.25,0.25,0.25,0.5","0,0,1,0.25,0.5,0.25,0.5,0.25,0.25","2","",""
"","html-keyboard-response","59","93614","0.0-59.0","","","","","null","<img src=""img/land3.png"" style=""width:200px;border:14px solid red;"">","null","","","","","","","","","",""
"","image-keyboard-response","60","93907","0.0-60.0","","","","","292","img/land3.png","75","292.39999985694885","2","0","3","1","1,0,0,0.25,0.5,0.25,0.25,0.25,0.5","0,0,1,0.25,0.5,0.25,0.5,0.25,0.25","2","",""
"","html-keyboard-response","61","94208","0.0-61.0","","","","","null","<img src=""img/land3.png"" style=""width:200px;border:14px solid red;"">","null","","","","","","","","","",""
"","image-keyboard-response","62","95460","0.0-62.0","","","","","1250.5","img/land2.png","74","1251","1","0","2","1","1,0,0,0.25,0.5,0.25,0.25,0.25,0.5","0,0,1,0.25,0.5,0.25,0.5,0.25,0.25","2","",""
"","html-keyboard-response","63","95760","0.0-63.0","","","","","null","<img src=""img/land2.png"" style=""width:200px;border:14px solid red;"">","null","","","","","","","","","",""
"","image-keyboard-response","64","95867","0.0-64.0","","","","","106","img/land1.png","75","106.40000009536743","2","0","1","1","1,0,0,0.25,0.5,0.25,0.25,0.25,0.5","0,0,1,0.25,0.5,0.25,0.5,0.25,0.25","2","",""
"","html-keyboard-response","65","96168","0.0-65.0","","","","","null","<img src=""img/land1.png"" style=""width:200px;border:14px solid red;"">","null","","","","","","","","","",""
"","image-keyboard-response","66","96595","0.0-66.0","","","","","426.10000014305115","img/land1.png","76","426.59999990463257","3","1","1","1","1,0,0,0.25,0.5,0.25,0.25,0.25,0.5","0,0,1,0.25,0.5,0.25,0.5,0.25,0.25","2","",""
"","html-keyboard-response","67","96897","0.0-67.0","","","","","null","<img src=""img/land1.png"" style=""width:200px; border:14px solid green;"">","null","","","","","","","","","",""
"","image-keyboard-response","68","97323","0.0-68.0","","","","","425.2000000476837","img/land1.png","76","425.7000000476837","3","1","1","1","1,0,0,0.25,0.5,0.25,0.25,0.25,0.5","0,0,1,0.25,0.5,0.25,0.5,0.25,0.25","2","",""
"","html-keyboard-response","69","97624","0.0-69.0","","","","","null","<img src=""img/land1.png"" style=""width:200px; border:14px solid green;"">","null","","","","","","","","","",""
"","image-keyboard-response","70","99283","0.0-70.0","","","","","1658.3000001907349","img/land2.png","76","1658.8999998569489","3","0","2","1","1,0,0,0.25,0.5,0.25,0.25,0.25,0.5","0,0,1,0.25,0.5,0.25,0.5,0.25,0.25","2","",""
"","html-keyboard-response","71","99585","0.0-71.0","","","","","null","<img src=""img/land2.png"" style=""width:200px;border:14px solid red;"">","null","","","","","","","","","",""
"","image-keyboard-response","72","100363","0.0-72.0","","","","","777.2000000476837","img/land1.png","76","777.7000000476837","3","1","1","1","1,0,0,0.25,0.5,0.25,0.25,0.25,0.5","0,0,1,0.25,0.5,0.25,0.5,0.25,0.25","2","",""
"","html-keyboard-response","73","100670","0.0-73.0","","","","","null","<img src=""img/land1.png"" style=""width:200px; border:14px solid green;"">","null","","","","","","","","","",""
"","image-keyboard-response","74","101283","0.0-74.0","","","","","612.6000001430511","img/land1.png","76","613.1999998092651","3","1","1","1","1,0,0,0.25,0.5,0.25,0.25,0.25,0.5","0,0,1,0.25,0.5,0.25,0.5,0.25,0.25","2","",""
"","html-keyboard-response","75","101585","0.0-75.0","","","","","null","<img src=""img/land1.png"" style=""width:200px; border:14px solid green;"">","null","","","","","","","","","",""
"","image-keyboard-response","76","101692","0.0-76.0","","","","","106.19999980926514","img/land1.png","76","106.5","3","1","1","1","1,0,0,0.25,0.5,0.25,0.25,0.25,0.5","0,0,1,0.25,0.5,0.25,0.5,0.25,0.25","2","",""
"","html-keyboard-response","77","101993","0.0-77.0","","","","","null","<img src=""img/land1.png"" style=""width:200px; border:14px solid green;"">","null","","","","","","","","","",""
"","image-keyboard-response","78","102291","0.0-78.0","","","","","297","img/land1.png","76","297.59999990463257","3","1","1","1","1,0,0,0.25,0.5,0.25,0.25,0.25,0.5","0,0,1,0.25,0.5,0.25,0.5,0.25,0.25","2","",""
"","html-keyboard-response","79","102592","0.0-79.0","","","","","null","<img src=""img/land1.png"" style=""width:200px; border:14px solid green;"">","null","","","","","","","","","",""
"","image-keyboard-response","80","102731","0.0-80.0","","","","","138.5","img/land1.png","76","139","3","1","1","1","1,0,0,0.25,0.5,0.25,0.25,0.25,0.5","0,0,1,0.25,0.5,0.25,0.5,0.25,0.25","2","",""
"","html-keyboard-response","81","103032","0.0-81.0","","","","","null","<img src=""img/land1.png"" style=""width:200px; border:14px solid green;"">","null","","","","","","","","","",""
"","image-keyboard-response","82","103179","0.0-82.0","","","","","145.79999995231628","img/land1.png","76","146.40000009536743","3","1","1","1","1,0,0,0.25,0.5,0.25,0.25,0.25,0.5","0,0,1,0.25,0.5,0.25,0.5,0.25,0.25","2","",""
"","html-keyboard-response","83","103485","0.0-83.0","","","","","null","<img src=""img/land1.png"" style=""width:200px; border:14px solid green;"">","null","","","","","","","","","",""
"","image-keyboard-response","84","103683","0.0-84.0","","","","","196.89999985694885","img/land1.png","76","197.59999990463257","3","1","1","1","1,0,0,0.25,0.5,0.25,0.25,0.25,0.5","0,0,1,0.25,0.5,0.25,0.5,0.25,0.25","2","",""
"","html-keyboard-response","85","103984","0.0-85.0","","","","","null","<img src=""img/land1.png"" style=""width:200px; border:14px solid green;"">","null","","","","","","","","","",""
"","image-keyboard-response","86","104099","0.0-86.0","","","","","114.40000009536743","img/land2.png","76","114.79999995231628","3","1","2","1","1,0,0,0.25,0.5,0.25,0.25,0.25,0.5","0,0,1,0.25,0.5,0.25,0.5,0.25,0.25","2","",""
"","html-keyboard-response","87","104401","0.0-87.0","","","","","null","<img src=""img/land2.png"" style=""width:200px; border:14px solid green;"">","null","","","","","","","","","",""
"","image-keyboard-response","88","104411","0.0-88.0","","","","","9.099999904632568","img/land1.png","74","9.600000143051147","1","0","1","1","1,0,0,0.25,0.5,0.25,0.25,0.25,0.5","0,0,1,0.25,0.5,0.25,0.5,0.25,0.25","2","",""
"","html-keyboard-response","89","104712","0.0-89.0","","","","","null","<img src=""img/land1.png"" style=""width:200px;border:14px solid red;"">","null","","","","","","","","","",""
"","image-keyboard-response","90","104947","0.0-90.0","","","","","234","img/land3.png","74","234.5","1","1","3","1","1,0,0,0.25,0.5,0.25,0.25,0.25,0.5","0,0,1,0.25,0.5,0.25,0.5,0.25,0.25","2","",""
"","html-keyboard-response","91","105248","0.0-91.0","","","","","null","<img src=""img/land3.png"" style=""width:200px; border:14px solid green;"">","null","","","","","","","","","",""
"","image-keyboard-response","92","105299","0.0-92.0","","","","","50.40000009536743","img/land1.png","75","51","2","0","1","1","1,0,0,0.25,0.5,0.25,0.25,0.25,0.5","0,0,1,0.25,0.5,0.25,0.5,0.25,0.25","2","",""
"","html-keyboard-response","93","105601","0.0-93.0","","","","","null","<img src=""img/land1.png"" style=""width:200px;border:14px solid red;"">","null","","","","","","","","","",""
"","image-keyboard-response","94","105771","0.0-94.0","","","","","169.40000009536743","img/land2.png","75","169.89999985694885","2","1","2","1","1,0,0,0.25,0.5,0.25,0.25,0.25,0.5","0,0,1,0.25,0.5,0.25,0.5,0.25,0.25","2","",""
"","html-keyboard-response","95","106072","0.0-95.0","","","","","null","<img src=""img/land2.png"" style=""width:200px; border:14px solid green;"">","null","","","","","","","","","",""
"","image-keyboard-response","96","106403","0.0-96.0","","","","","330.30000019073486","img/land1.png","74","330.89999985694885","1","0","1","1","1,0,0,0.25,0.5,0.25,0.25,0.25,0.5","0,0,1,0.25,0.5,0.25,0.5,0.25,0.25","2","",""
"","html-keyboard-response","97","106704","0.0-97.0","","","","","null","<img src=""img/land1.png"" style=""width:200px;border:14px solid red;"">","null","","","","","","","","","",""
"","image-keyboard-response","98","106787","0.0-98.0","","","","","82.59999990463257","img/land3.png","76","83.10000014305115","3","0","3","1","1,0,0,0.25,0.5,0.25,0.25,0.25,0.5","0,0,1,0.25,0.5,0.25,0.5,0.25,0.25","2","",""
"","html-keyboard-response","99","107089","0.0-99.0","","","","","null","<img src=""img/land3.png"" style=""width:200px;border:14px solid red;"">","null","","","","","","","","","",""
"","image-keyboard-response","100","107419","0.0-100.0","","","","","329.30000019073486","img/land1.png","76","329.7999999523163","3","1","1","1","1,0,0,0.25,0.5,0.25,0.25,0.25,0.5","0,0,1,0.25,0.5,0.25,0.5,0.25,0.25","2","",""
"","html-keyboard-response","101","107721","0.0-101.0","","","","","null","<img src=""img/land1.png"" style=""width:200px; border:14px solid green;"">","null","","","","","","","","","",""
"","image-keyboard-response","102","107827","0.0-102.0","","","","","105.10000014305115","img/land1.png","76","105.5","3","1","1","1","1,0,0,0.25,0.5,0.25,0.25,0.25,0.5","0,0,1,0.25,0.5,0.25,0.5,0.25,0.25","2","",""
"","html-keyboard-response","103","108128","0.0-103.0","","","","","null","<img src=""img/land1.png"" style=""width:200px; border:14px solid green;"">","null","","","","","","","","","",""
"","image-keyboard-response","104","108371","0.0-104.0","","","","","242.39999985694885","img/land1.png","76","242.80000019073486","3","1","1","1","1,0,0,0.25,0.5,0.25,0.25,0.25,0.5","0,0,1,0.25,0.5,0.25,0.5,0.25,0.25","2","",""
"","html-keyboard-response","105","108671","0.0-105.0","","","","","null","<img src=""img/land1.png"" style=""width:200px; border:14px solid green;"">","null","","","","","","","","","",""
"","image-keyboard-response","106","108683","0.0-106.0","","","","","10.700000047683716","img/land3.png","76","11.100000143051147","3","0","3","1","1,0,0,0.25,0.5,0.25,0.25,0.25,0.5","0,0,1,0.25,0.5,0.25,0.5,0.25,0.25","2","",""
"","html-keyboard-response","107","108984","0.0-107.0","","","","","null","<img src=""img/land3.png"" style=""width:200px;border:14px solid red;"">","null","","","","","","","","","",""
"","image-keyboard-response","108","109003","0.0-108.0","","","","","18.600000143051147","img/land1.png","74","19","1","0","1","1","1,0,0,0.25,0.5,0.25,0.25,0.25,0.5","0,0,1,0.25,0.5,0.25,0.5,0.25,0.25","2","",""
"","html-keyboard-response","109","109304","0.0-109.0","","","","","null","<img src=""img/land1.png"" style=""width:200px;border:14px solid red;"">","null","","","","","","","","","",""
"","image-keyboard-response","110","109539","0.0-110.0","","","","","234.40000009536743","img/land3.png","75","234.79999995231628","2","0","3","1","1,0,0,0.25,0.5,0.25,0.25,0.25,0.5","0,0,1,0.25,0.5,0.25,0.5,0.25,0.25","2","",""
"","html-keyboard-response","111","109840","0.0-111.0","","","","","null","<img src=""img/land3.png"" style=""width:200px;border:14px solid red;"">","null","","","","","","","","","",""
"","image-keyboard-response","112","110075","0.0-112.0","","","","","234","img/land1.png","74","234.70000004768372","1","0","1","1","1,0,0,0.25,0.5,0.25,0.25,0.25,0.5","0,0,1,0.25,0.5,0.25,0.5,0.25,0.25","2","",""
"","html-keyboard-response","113","110376","0.0-113.0","","","","","null","<img src=""img/land1.png"" style=""width:200px;border:14px solid red;"">","null","","","","","","","","","",""
"","image-keyboard-response","114","110427","0.0-114.0","","","","","50.299999952316284","img/land3.png","74","50.799999952316284","1","0","3","1","1,0,0,0.25,0.5,0.25,0.25,0.25,0.5","0,0,1,0.25,0.5,0.25,0.5,0.25,0.25","2","",""
"","html-keyboard-response","115","110729","0.0-115.0","","","","","null","<img src=""img/land3.png"" style=""width:200px;border:14px solid red;"">","null","","","","","","","","","",""
"","image-keyboard-response","116","110771","0.0-116.0","","","","","41.59999990463257","img/land1.png","76","42.10000014305115","3","1","1","1","1,0,0,0.25,0.5,0.25,0.25,0.25,0.5","0,0,1,0.25,0.5,0.25,0.5,0.25,0.25","2","",""
"","html-keyboard-response","117","111072","0.0-117.0","","","","","null","<img src=""img/land1.png"" style=""width:200px; border:14px solid green;"">","null","","","","","","","","","",""
"","image-keyboard-response","118","111283","0.0-118.0","","","","","210","img/land1.png","74","210.5","1","0","1","1","1,0,0,0.25,0.5,0.25,0.25,0.25,0.5","0,0,1,0.25,0.5,0.25,0.5,0.25,0.25","2","",""
"","html-keyboard-response","119","111584","0.0-119.0","","","","","null","<img src=""img/land1.png"" style=""width:200px;border:14px solid red;"">","null","","","","","","","","","",""
"","image-keyboard-response","120","111691","0.0-120.0","","","","","106.70000004768372","img/land3.png","75","107.20000004768372","2","0","3","1","1,0,0,0.25,0.5,0.25,0.25,0.25,0.5","0,0,1,0.25,0.5,0.25,0.5,0.25,0.25","2","",""
"","html-keyboard-response","121","111992","0.0-121.0","","","","","null","<img src=""img/land3.png"" style=""width:200px;border:14px solid red;"">","null","","","","","","","","","",""
"","image-keyboard-response","122","112195","0.0-122.0","","","","","202.29999995231628","img/land2.png","74","202.70000004768372","1","0","2","1","1,0,0,0.25,0.5,0.25,0.25,0.25,0.5","0,0,1,0.25,0.5,0.25,0.5,0.25,0.25","2","",""
"","html-keyboard-response","123","112496","0.0-123.0","","","","","null","<img src=""img/land2.png"" style=""width:200px;border:14px solid red;"">","null","","","","","","","","","",""
"","image-keyboard-response","124","112763","0.0-124.0","","","","","266.30000019073486","img/land3.png","75","266.7999999523163","2","0","3","1","1,0,0,0.25,0.5,0.25,0.25,0.25,0.5","0,0,1,0.25,0.5,0.25,0.5,0.25,0.25","2","",""
"","html-keyboard-response","125","113064","0.0-125.0","","","","","null","<img src=""img/land3.png"" style=""width:200px;border:14px solid red;"">","null","","","","","","","","","",""
"","image-keyboard-response","126","113275","0.0-126.0","","","","","210.5","img/land1.png","76","211","3","1","1","1","1,0,0,0.25,0.5,0.25,0.25,0.25,0.5","0,0,1,0.25,0.5,0.25,0.5,0.25,0.25","2","",""
"","html-keyboard-response","127","113576","0.0-127.0","","","","","null","<img src=""img/land1.png"" style=""width:200px; border:14px solid green;"">","null","","","","","","","","","",""
"","image-keyboard-response","128","113619","0.0-128.0","","","","","41.799999952316284","img/land2.png","76","42.299999952316284","3","0","2","1","1,0,0,0.25,0.5,0.25,0.25,0.25,0.5","0,0,1,0.25,0.5,0.25,0.5,0.25,0.25","2","",""
"","html-keyboard-response","129","113921","0.0-129.0","","","","","null","<img src=""img/land2.png"" style=""width:200px;border:14px solid red;"">","null","","","","","","","","","",""
"","image-keyboard-response","130","114131","0.0-130.0","","","","","209.5","img/land1.png","76","210.09999990463257","3","1","1","1","1,0,0,0.25,0.5,0.25,0.25,0.25,0.5","0,0,1,0.25,0.5,0.25,0.5,0.25,0.25","2","",""
"","html-keyboard-response","131","114433","0.0-131.0","","","","","null","<img src=""img/land1.png"" style=""width:200px; border:14px solid green;"">","null","","","","","","","","","",""
"","image-keyboard-response","132","114699","0.0-132.0","","","","","265.5","img/land1.png","76","265.80000019073486","3","1","1","1","1,0,0,0.25,0.5,0.25,0.25,0.25,0.5","0,0,1,0.25,0.5,0.25,0.5,0.25,0.25","2","",""
"","html-keyboard-response","133","115000","0.0-133.0","","","","","null","<img src=""img/land1.png"" style=""width:200px; border:14px solid green;"">","null","","","","","","","","","",""
"","image-keyboard-response","134","115043","0.0-134.0","","","","","42.700000047683716","img/land2.png","76","43.10000014305115","3","1","2","1","1,0,0,0.25,0.5,0.25,0.25,0.25,0.5","0,0,1,0.25,0.5,0.25,0.5,0.25,0.25","2","",""
"","html-keyboard-response","135","115353","0.0-135.0","","","","","null","<img src=""img/land2.png"" style=""width:200px; border:14px solid green;"">","null","","","","","","","","","",""
"","image-keyboard-response","136","115395","0.0-136.0","","","","","41.799999952316284","img/land3.png","76","42.200000047683716","3","1","3","1","1,0,0,0.25,0.5,0.25,0.25,0.25,0.5","0,0,1,0.25,0.5,0.25,0.5,0.25,0.25","2","",""
"","html-keyboard-response","137","115696","0.0-137.0","","","","","null","<img src=""img/land3.png"" style=""width:200px; border:14px solid green;"">","null","","","","","","","","","",""
"","image-keyboard-response","138","115803","0.0-138.0","","","","","106.70000004768372","img/land2.png","76","107.20000004768372","3","1","2","1","1,0,0,0.25,0.5,0.25,0.25,0.25,0.5","0,0,1,0.25,0.5,0.25,0.5,0.25,0.25","2","",""
"","html-keyboard-response","139","116104","0.0-139.0","","","","","null","<img src=""img/land2.png"" style=""width:200px; border:14px solid green;"">","null","","","","","","","","","",""
"","image-keyboard-response","140","116123","0.0-140.0","","","","","17.800000190734863","img/land1.png","76","18.200000047683716","3","1","1","1","1,0,0,0.25,0.5,0.25,0.25,0.25,0.5","0,0,1,0.25,0.5,0.25,0.5,0.25,0.25","2","",""
"","html-keyboard-response","141","116424","0.0-141.0","","","","","null","<img src=""img/land1.png"" style=""width:200px; border:14px solid green;"">","null","","","","","","","","","",""
"","image-keyboard-response","142","116467","0.0-142.0","","","","","41.39999985694885","img/land1.png","76","41.80000019073486","3","1","1","1","1,0,0,0.25,0.5,0.25,0.25,0.25,0.5","0,0,1,0.25,0.5,0.25,0.5,0.25,0.25","2","",""
"","html-keyboard-response","143","116768","0.0-143.0","","","","","null","<img src=""img/land1.png"" style=""width:200px; border:14px solid green;"">","null","","","","","","","","","",""
"","image-keyboard-response","144","116787","0.0-144.0","","","","","17.799999952316284","img/land1.png","76","18.200000047683716","3","1","1","1","1,0,0,0.25,0.5,0.25,0.25,0.25,0.5","0,0,1,0.25,0.5,0.25,0.5,0.25,0.25","2","",""
"","html-keyboard-response","145","117087","0.0-145.0","","","","","null","<img src=""img/land1.png"" style=""width:200px; border:14px solid green;"">","null","","","","","","","","","",""
"","image-keyboard-response","146","117099","0.0-146.0","","","","","10.799999952316284","img/land1.png","76","11.300000190734863","3","1","1","1","1,0,0,0.25,0.5,0.25,0.25,0.25,0.5","0,0,1,0.25,0.5,0.25,0.5,0.25,0.25","2","",""
"","html-keyboard-response","147","117399","0.0-147.0","","","","","null","<img src=""img/land1.png"" style=""width:200px; border:14px solid green;"">","null","","","","","","","","","",""
"","image-keyboard-response","148","117419","0.0-148.0","","","","","18.90000009536743","img/land3.png","76","19.40000009536743","3","1","3","1","1,0,0,0.25,0.5,0.25,0.25,0.25,0.5","0,0,1,0.25,0.5,0.25,0.5,0.25,0.25","2","",""
"","html-keyboard-response","149","117724","0.0-149.0","","","","","null","<img src=""img/land3.png"" style=""width:200px; border:14px solid green;"">","null","","","","","","","","","",""
"","image-keyboard-response","150","117739","0.0-150.0","","","","","14.5","img/land2.png","76","14.900000095367432","3","0","2","1","1,0,0,0.25,0.5,0.25,0.25,0.25,0.5","0,0,1,0.25,0.5,0.25,0.5,0.25,0.25","2","",""
"","html-keyboard-response","151","118040","0.0-151.0","","","","","null","<img src=""img/land2.png"" style=""width:200px;border:14px solid red;"">","null","","","","","","","","","",""
"","image-keyboard-response","152","118083","0.0-152.0","","","","","42.5","img/land2.png","76","43","3","0","2","1","1,0,0,0.25,0.5,0.25,0.25,0.25,0.5","0,0,1,0.25,0.5,0.25,0.5,0.25,0.25","2","",""
"","html-keyboard-response","153","118389","0.0-153.0","","","","","null","<img src=""img/land2.png"" style=""width:200px;border:14px solid red;"">","null","","","","","","","","","",""
"","image-keyboard-response","154","118403","0.0-154.0","","","","","13.600000143051147","img/land1.png","76","14.099999904632568","3","1","1","1","1,0,0,0.25,0.5,0.25,0.25,0.25,0.5","0,0,1,0.25,0.5,0.25,0.5,0.25,0.25","2","",""
"","html-keyboard-response","155","118704","0.0-155.0","","","","","null","<img src=""img/land1.png"" style=""width:200px; border:14px solid green;"">","null","","","","","","","","","",""
"","image-keyboard-response","156","118747","0.0-156.0","","","","","41.89999985694885","img/land1.png","76","42.5","3","1","1","1","1,0,0,0.25,0.5,0.25,0.25,0.25,0.5","0,0,1,0.25,0.5,0.25,0.5,0.25,0.25","2","",""
"","html-keyboard-response","157","119048","0.0-157.0","","","","","null","<img src=""img/land1.png"" style=""width:200px; border:14px solid green;"">","null","","","","","","","","","",""
"","image-keyboard-response","158","119347","0.0-158.0","","","","","297.89999985694885","img/land2.png","76","298.5","3","0","2","1","1,0,0,0.25,0.5,0.25,0.25,0.25,0.5","0,0,1,0.25,0.5,0.25,0.5,0.25,0.25","2","",""
"","html-keyboard-response","159","119648","0.0-159.0","","","","","null","<img src=""img/land2.png"" style=""width:200px;border:14px solid red;"">","null","","","","","","","","","",""
"","image-keyboard-response","160","119923","0.0-160.0","","","","","274.19999980926514","img/land3.png","74","274.7000000476837","1","0","3","1","1,0,0,0.25,0.5,0.25,0.25,0.25,0.5","0,0,1,0.25,0.5,0.25,0.5,0.25,0.25","2","",""
"","html-keyboard-response","161","120225","0.0-161.0","","","","","null","<img src=""img/land3.png"" style=""width:200px;border:14px solid red;"">","null","","","","","","","","","",""
"","image-keyboard-response","162","120459","0.0-162.0","","","","","233.60000014305115","img/land1.png","75","234","2","0","1","1","1,0,0,0.25,0.5,0.25,0.25,0.25,0.5","0,0,1,0.25,0.5,0.25,0.5,0.25,0.25","2","",""
"","html-keyboard-response","163","120761","0.0-163.0","","","","","null","<img src=""img/land1.png"" style=""width:200px;border:14px solid red;"">","null","","","","","","","","","",""
"","image-keyboard-response","164","120995","0.0-164.0","","","","","233.79999995231628","img/land1.png","76","234.39999985694885","3","1","1","1","1,0,0,0.25,0.5,0.25,0.25,0.25,0.5","0,0,1,0.25,0.5,0.25,0.5,0.25,0.25","2","",""
"","html-keyboard-response","165","121297","0.0-165.0","","","","","null","<img src=""img/land1.png"" style=""width:200px; border:14px solid green;"">","null","","","","","","","","","",""
"","image-keyboard-response","166","121787","0.0-166.0","","","","","489.2000000476837","img/land2.png","74","489.7999999523163","1","0","2","1","1,0,0,0.25,0.5,0.25,0.25,0.25,0.5","0,0,1,0.25,0.5,0.25,0.5,0.25,0.25","2","",""
"","html-keyboard-response","167","122089","0.0-167.0","","","","","null","<img src=""img/land2.png"" style=""width:200px;border:14px solid red;"">","null","","","","","","","","","",""
"","image-keyboard-response","168","122355","0.0-168.0","","","","","265.5","img/land2.png","75","266.09999990463257","2","1","2","1","1,0,0,0.25,0.5,0.25,0.25,0.25,0.5","0,0,1,0.25,0.5,0.25,0.5,0.25,0.25","2","",""
"","html-keyboard-response","169","122656","0.0-169.0","","","","","null","<img src=""img/land2.png"" style=""width:200px; border:14px solid green;"">","null","","","","","","","","","",""
"","image-keyboard-response","170","123307","0.0-170.0","","","","","650.2000000476837","img/land1.png","76","650.6000001430511","3","1","1","1","1,0,0,0.25,0.5,0.25,0.25,0.25,0.5","0,0,1,0.25,0.5,0.25,0.5,0.25,0.25","2","",""
"","html-keyboard-response","171","123608","0.0-171.0","","","","","null","<img src=""img/land1.png"" style=""width:200px; border:14px solid green;"">","null","","","","","","","","","",""
"","image-keyboard-response","172","123779","0.0-172.0","","","","","170.29999995231628","img/land1.png","76","170.70000004768372","3","1","1","1","1,0,0,0.25,0.5,0.25,0.25,0.25,0.5","0,0,1,0.25,0.5,0.25,0.5,0.25,0.25","2","",""
"","html-keyboard-response","173","124080","0.0-173.0","","","","","null","<img src=""img/land1.png"" style=""width:200px; border:14px solid green;"">","null","","","","","","","","","",""
"","image-keyboard-response","174","124283","0.0-174.0","","","","","202.5","img/land3.png","76","202.90000009536743","3","1","3","1","1,0,0,0.25,0.5,0.25,0.25,0.25,0.5","0,0,1,0.25,0.5,0.25,0.5,0.25,0.25","2","",""
"","html-keyboard-response","175","124584","0.0-175.0","","","","","null","<img src=""img/land3.png"" style=""width:200px; border:14px solid green;"">","null","","","","","","","","","",""
"","image-keyboard-response","176","124980","0.0-176.0","","","","","394.40000009536743","img/land1.png","74","394.90000009536743","1","0","1","1","1,0,0,0.25,0.5,0.25,0.25,0.25,0.5","0,0,1,0.25,0.5,0.25,0.5,0.25,0.25","2","",""
"","html-keyboard-response","177","125281","0.0-177.0","","","","","null","<img src=""img/land1.png"" style=""width:200px;border:14px solid red;"">","null","","","","","","","","","",""
"","image-keyboard-response","178","125363","0.0-178.0","","","","","81.29999995231628","img/land1.png","76","81.70000004768372","3","1","1","1","1,0,0,0.25,0.5,0.25,0.25,0.25,0.5","0,0,1,0.25,0.5,0.25,0.5,0.25,0.25","2","",""
"","html-keyboard-response","179","125664","0.0-179.0","","","","","null","<img src=""img/land1.png"" style=""width:200px; border:14px solid green;"">","null","","","","","","","","","",""
"","image-keyboard-response","180","125964","0.0-180.0","","","","","298.40000009536743","img/land1.png","76","298.90000009536743","3","1","1","1","1,0,0,0.25,0.5,0.25,0.25,0.25,0.5","0,0,1,0.25,0.5,0.25,0.5,0.25,0.25","2","",""
"","html-keyboard-response","181","126266","0.0-181.0","","","","","null","<img src=""img/land1.png"" style=""width:200px; border:14px solid green;"">","null","","","","","","","","","",""
"","image-keyboard-response","182","126564","0.0-182.0","","","","","297.2999999523163","img/land1.png","76","297.90000009536743","3","1","1","1","1,0,0,0.25,0.5,0.25,0.25,0.25,0.5","0,0,1,0.25,0.5,0.25,0.5,0.25,0.25","2","",""
"","html-keyboard-response","183","126866","0.0-183.0","","","","","null","<img src=""img/land1.png"" style=""width:200px; border:14px solid green;"">","null","","","","","","","","","",""
"","image-keyboard-response","184","127075","0.0-184.0","","","","","209","img/land1.png","76","209.40000009536743","3","1","1","1","1,0,0,0.25,0.5,0.25,0.25,0.25,0.5","0,0,1,0.25,0.5,0.25,0.5,0.25,0.25","2","",""
"","html-keyboard-response","185","127377","0.0-185.0","","","","","null","<img src=""img/land1.png"" style=""width:200px; border:14px solid green;"">","null","","","","","","","","","",""
"","image-keyboard-response","186","127547","0.0-186.0","","","","","169.79999995231628","img/land1.png","76","170.29999995231628","3","1","1","1","1,0,0,0.25,0.5,0.25,0.25,0.25,0.5","0,0,1,0.25,0.5,0.25,0.5,0.25,0.25","2","",""
"","html-keyboard-response","187","127849","0.0-187.0","","","","","null","<img src=""img/land1.png"" style=""width:200px; border:14px solid green;"">","null","","","","","","","","","",""
"","image-keyboard-response","188","128083","0.0-188.0","","","","","233.59999990463257","img/land1.png","76","234","3","1","1","1","1,0,0,0.25,0.5,0.25,0.25,0.25,0.5","0,0,1,0.25,0.5,0.25,0.5,0.25,0.25","2","",""
"","html-keyboard-response","189","128385","0.0-189.0","","","","","null","<img src=""img/land1.png"" style=""width:200px; border:14px solid green;"">","null","","","","","","","","","",""
"","image-keyboard-response","190","128587","0.0-190.0","","","","","202.10000014305115","img/land2.png","76","202.59999990463257","3","0","2","1","1,0,0,0.25,0.5,0.25,0.25,0.25,0.5","0,0,1,0.25,0.5,0.25,0.5,0.25,0.25","2","",""
"","html-keyboard-response","191","128890","0.0-191.0","","","","","null","<img src=""img/land2.png"" style=""width:200px;border:14px solid red;"">","null","","","","","","","","","",""
"","image-keyboard-response","192","128939","0.0-192.0","","","","","49","img/land2.png","75","49.40000009536743","2","0","2","1","1,0,0,0.25,0.5,0.25,0.25,0.25,0.5","0,0,1,0.25,0.5,0.25,0.5,0.25,0.25","2","",""
"","html-keyboard-response","193","129240","0.0-193.0","","","","","null","<img src=""img/land2.png"" style=""width:200px;border:14px solid red;"">","null","","","","","","","","","",""
"","image-keyboard-response","194","129667","0.0-194.0","","","","","426.2000000476837","img/land3.png","76","426.7000000476837","3","0","3","1","1,0,0,0.25,0.5,0.25,0.25,0.25,0.5","0,0,1,0.25,0.5,0.25,0.5,0.25,0.25","2","",""
"","html-keyboard-response","195","129968","0.0-195.0","","","","","null","<img src=""img/land3.png"" style=""width:200px;border:14px solid red;"">","null","","","","","","","","","",""
"","image-keyboard-response","196","130044","0.0-196.0","","","","","74.79999995231628","img/land1.png","74","75.20000004768372","1","0","1","1","1,0,0,0.25,0.5,0.25,0.25,0.25,0.5","0,0,1,0.25,0.5,0.25,0.5,0.25,0.25","2","",""
"","html-keyboard-response","197","130344","0.0-197.0","","","","","null","<img src=""img/land1.png"" style=""width:200px;border:14px solid red;"">","null","","","","","","","","","",""
"","image-keyboard-response","198","130683","0.0-198.0","","","","","338.5","img/land1.png","76","339","3","1","1","1","1,0,0,0.25,0.5,0.25,0.25,0.25,0.5","0,0,1,0.25,0.5,0.25,0.5,0.25,0.25","2","",""
"","html-keyboard-response","199","130985","0.0-199.0","","","","","null","<img src=""img/land1.png"" style=""width:200px; border:14px solid green;"">","null","","","","","","","","","",""
"","image-keyboard-response","200","131187","0.0-200.0","","","","","202.10000014305115","img/land3.png","76","202.70000004768372","3","0","3","1","1,0,0,0.25,0.5,0.25,0.25,0.25,0.5","0,0,1,0.25,0.5,0.25,0.5,0.25,0.25","2","",""
"","html-keyboard-response","201","131489","0.0-201.0","","","","","null","<img src=""img/land3.png"" style=""width:200px;border:14px solid red;"">","null","","","","","","","","","",""
"","image-keyboard-response","202","131883","0.0-202.0","","","","","394.09999990463257","img/land1.png","74","394.59999990463257","1","0","1","1","1,0,0,0.25,0.5,0.25,0.25,0.25,0.5","0,0,1,0.25,0.5,0.25,0.5,0.25,0.25","2","",""
"","html-keyboard-response","203","132184","0.0-203.0","","","","","null","<img src=""img/land1.png"" style=""width:200px;border:14px solid red;"">","null","","","","","","","","","",""
"","image-keyboard-response","204","132547","0.0-204.0","","","","","362.7000000476837","img/land1.png","74","363.09999990463257","1","0","1","1","1,0,0,0.25,0.5,0.25,0.25,0.25,0.5","0,0,1,0.25,0.5,0.25,0.5,0.25,0.25","2","",""
"","html-keyboard-response","205","132849","0.0-205.0","","","","","null","<img src=""img/land1.png"" style=""width:200px;border:14px solid red;"">","null","","","","","","","","","",""
"","image-keyboard-response","206","132891","0.0-206.0","","","","","42","img/land3.png","76","42.5","3","0","3","1","1,0,0,0.25,0.5,0.25,0.25,0.25,0.5","0,0,1,0.25,0.5,0.25,0.5,0.25,0.25","2","",""
"","html-keyboard-response","207","133193","0.0-207.0","","","","","null","<img src=""img/land3.png"" style=""width:200px;border:14px solid red;"">","null","","","","","","","","","",""
"","image-keyboard-response","208","133587","0.0-208.0","","","","","393.89999985694885","img/land3.png","74","394.5","1","1","3","1","1,0,0,0.25,0.5,0.25,0.25,0.25,0.5","0,0,1,0.25,0.5,0.25,0.5,0.25,0.25","2","",""
"","html-keyboard-response","209","133889","0.0-209.0","","","","","null","<img src=""img/land3.png"" style=""width:200px; border:14px solid green;"">","null","","","","","","","","","",""
"","image-keyboard-response","210","134635","0.0-210.0","","","","","745.8999998569489","img/land1.png","76","746.4000000953674","3","1","1","1","1,0,0,0.25,0.5,0.25,0.25,0.25,0.5","0,0,1,0.25,0.5,0.25,0.5,0.25,0.25","2","",""
"","html-keyboard-response","211","134938","0.0-211.0","","","","","null","<img src=""img/land1.png"" style=""width:200px; border:14px solid green;"">","null","","","","","","","","","",""
"","image-keyboard-response","212","135203","0.0-212.0","","","","","265","img/land1.png","76","265.59999990463257","3","1","1","1","1,0,0,0.25,0.5,0.25,0.25,0.25,0.5","0,0,1,0.25,0.5,0.25,0.5,0.25,0.25","2","",""
"","html-keyboard-response","213","135505","0.0-213.0","","","","","null","<img src=""img/land1.png"" style=""width:200px; border:14px solid green;"">","null","","","","","","","","","",""
"","image-keyboard-response","214","136156","0.0-214.0","","","","","650.4000000953674","img/land2.png","76","651","3","0","2","1","1,0,0,0.25,0.5,0.25,0.25,0.25,0.5","0,0,1,0.25,0.5,0.25,0.5,0.25,0.25","2","",""
"","html-keyboard-response","215","136457","0.0-215.0","","","","","null","<img src=""img/land2.png"" style=""width:200px;border:14px solid red;"">","null","","","","","","","","","",""
"","image-keyboard-response","216","136499","0.0-216.0","","","","","41.799999952316284","img/land1.png","75","42.200000047683716","2","0","1","1","1,0,0,0.25,0.5,0.25,0.25,0.25,0.5","0,0,1,0.25,0.5,0.25,0.5,0.25,0.25","2","",""
"","html-keyboard-response","217","136800","0.0-217.0","","","","","null","<img src=""img/land1.png"" style=""width:200px;border:14px solid red;"">","null","","","","","","","","","",""
"","image-keyboard-response","218","137075","0.0-218.0","","","","","274.59999990463257","img/land1.png","76","275","3","1","1","1","1,0,0,0.25,0.5,0.25,0.25,0.25,0.5","0,0,1,0.25,0.5,0.25,0.5,0.25,0.25","2","",""
"","html-keyboard-response","219","137376","0.0-219.0","","","","","null","<img src=""img/land1.png"" style=""width:200px; border:14px solid green;"">","null","","","","","","","","","",""
"","image-keyboard-response","220","137707","0.0-220.0","","","","","330.2999999523163","img/land1.png","76","330.7999999523163","3","1","1","1","1,0,0,0.25,0.5,0.25,0.25,0.25,0.5","0,0,1,0.25,0.5,0.25,0.5,0.25,0.25","2","",""
"","html-keyboard-response","221","138009","0.0-221.0","","","","","null","<img src=""img/land1.png"" style=""width:200px; border:14px solid green;"">","null","","","","","","","","","",""
"","image-keyboard-response","222","138243","0.0-222.0","","","","","233.90000009536743","img/land1.png","76","234.30000019073486","3","1","1","1","1,0,0,0.25,0.5,0.25,0.25,0.25,0.5","0,0,1,0.25,0.5,0.25,0.5,0.25,0.25","2","",""
"","html-keyboard-response","223","138545","0.0-223.0","","","","","null","<img src=""img/land1.png"" style=""width:200px; border:14px solid green;"">","null","","","","","","","","","",""
"","image-keyboard-response","224","138844","0.0-224.0","","","","","298.2999999523163","img/land1.png","76","298.7000000476837","3","1","1","1","1,0,0,0.25,0.5,0.25,0.25,0.25,0.5","0,0,1,0.25,0.5,0.25,0.5,0.25,0.25","2","",""
"","html-keyboard-response","225","139145","0.0-225.0","","","","","null","<img src=""img/land1.png"" style=""width:200px; border:14px solid green;"">","null","","","","","","","","","",""
"","image-keyboard-response","226","139699","0.0-226.0","","","","","553.5","img/land3.png","74","554.0999999046326","1","1","3","1","1,0,0,0.25,0.5,0.25,0.25,0.25,0.5","0,0,1,0.25,0.5,0.25,0.5,0.25,0.25","2","",""
"","html-keyboard-response","227","140000","0.0-227.0","","","","","null","<img src=""img/land3.png"" style=""width:200px; border:14px solid green;"">","null","","","","","","","","","",""
"","image-keyboard-response","228","140299","0.0-228.0","","","","","298.5","img/land1.png","74","299.09999990463257","1","0","1","1","1,0,0,0.25,0.5,0.25,0.25,0.25,0.5","0,0,1,0.25,0.5,0.25,0.5,0.25,0.25","2","",""
"","html-keyboard-response","229","140601","0.0-229.0","","","","","null","<img src=""img/land1.png"" style=""width:200px;border:14px solid red;"">","null","","","","","","","","","",""
"","image-keyboard-response","230","140715","0.0-230.0","","","","","113.59999990463257","img/land1.png","76","114.09999990463257","3","1","1","1","1,0,0,0.25,0.5,0.25,0.25,0.25,0.5","0,0,1,0.25,0.5,0.25,0.5,0.25,0.25","2","",""
"","html-keyboard-response","231","141017","0.0-231.0","","","","","null","<img src=""img/land1.png"" style=""width:200px; border:14px solid green;"">","null","","","","","","","","","",""
"","image-keyboard-response","232","141787","0.0-232.0","","","","","770.0999999046326","img/land3.png","74","770.5999999046326","1","1","3","1","1,0,0,0.25,0.5,0.25,0.25,0.25,0.5","0,0,1,0.25,0.5,0.25,0.5,0.25,0.25","2","",""
"","html-keyboard-response","233","142088","0.0-233.0","","","","","null","<img src=""img/land3.png"" style=""width:200px; border:14px solid green;"">","null","","","","","","","","","",""
"","image-keyboard-response","234","142579","0.0-234.0","","","","","490.7000000476837","img/land1.png","76","491.2000000476837","3","1","1","1","1,0,0,0.25,0.5,0.25,0.25,0.25,0.5","0,0,1,0.25,0.5,0.25,0.5,0.25,0.25","2","",""
"","html-keyboard-response","235","142881","0.0-235.0","","","","","null","<img src=""img/land1.png"" style=""width:200px; border:14px solid green;"">","null","","","","","","","","","",""
"","image-keyboard-response","236","143339","0.0-236.0","","","","","457.59999990463257","img/land3.png","74","458.09999990463257","1","1","3","1","1,0,0,0.25,0.5,0.25,0.25,0.25,0.5","0,0,1,0.25,0.5,0.25,0.5,0.25,0.25","2","",""
"","html-keyboard-response","237","143640","0.0-237.0","","","","","null","<img src=""img/land3.png"" style=""width:200px; border:14px solid green;"">","null","","","","","","","","","",""
"","image-keyboard-response","238","144099","0.0-238.0","","","","","458.09999990463257","img/land1.png","76","458.7000000476837","3","1","1","1","1,0,0,0.25,0.5,0.25,0.25,0.25,0.5","0,0,1,0.25,0.5,0.25,0.5,0.25,0.25","2","",""
"","html-keyboard-response","239","144406","0.0-239.0","","","","","null","<img src=""img/land1.png"" style=""width:200px; border:14px solid green;"">","null","","","","","","","","","",""
"","image-keyboard-response","240","144891","0.0-240.0","","","","","484.89999985694885","img/land1.png","76","485.5","3","1","1","1","1,0,0,0.25,0.5,0.25,0.25,0.25,0.5","0,0,1,0.25,0.5,0.25,0.5,0.25,0.25","2","",""
"","html-keyboard-response","241","145193","0.0-241.0","","","","","null","<img src=""img/land1.png"" style=""width:200px; border:14px solid green;"">","null","","","","","","","","","",""
"","image-keyboard-response","242","145523","0.0-242.0","","","","","329.5","img/land1.png","76","329.80000019073486","3","1","1","1","1,0,0,0.25,0.5,0.25,0.25,0.25,0.5","0,0,1,0.25,0.5,0.25,0.5,0.25,0.25","2","",""
"","html-keyboard-response","243","145825","0.0-243.0","","","","","null","<img src=""img/land1.png"" style=""width:200px; border:14px solid green;"">","null","","","","","","","","","",""
"","image-keyboard-response","244","146188","0.0-244.0","","","","","362.10000014305115","img/land1.png","76","362.5","3","1","1","1","1,0,0,0.25,0.5,0.25,0.25,0.25,0.5","0,0,1,0.25,0.5,0.25,0.5,0.25,0.25","2","",""
"","html-keyboard-response","245","146489","0.0-245.0","","","","","null","<img src=""img/land1.png"" style=""width:200px; border:14px solid green;"">","null","","","","","","","","","",""
"","image-keyboard-response","246","147195","0.0-246.0","","","","","705.2999999523163","img/land2.png","75","705.7000000476837","2","1","2","1","1,0,0,0.25,0.5,0.25,0.25,0.25,0.5","0,0,1,0.25,0.5,0.25,0.5,0.25,0.25","2","",""
"","html-keyboard-response","247","147497","0.0-247.0","","","","","null","<img src=""img/land2.png"" style=""width:200px; border:14px solid green;"">","null","","","","","","","","","",""
"","image-keyboard-response","248","147859","0.0-248.0","","","","","361.89999985694885","img/land2.png","75","362.5","2","1","2","1","1,0,0,0.25,0.5,0.25,0.25,0.25,0.5","0,0,1,0.25,0.5,0.25,0.5,0.25,0.25","2","",""
"","html-keyboard-response","249","148161","0.0-249.0","","","","","null","<img src=""img/land2.png"" style=""width:200px; border:14px solid green;"">","null","","","","","","","","","",""
"","image-keyboard-response","250","148683","0.0-250.0","","","","","521.6000001430511","img/land1.png","76","522.0999999046326","3","1","1","1","1,0,0,0.25,0.5,0.25,0.25,0.25,0.5","0,0,1,0.25,0.5,0.25,0.5,0.25,0.25","2","",""
"","html-keyboard-response","251","148985","0.0-251.0","","","","","null","<img src=""img/land1.png"" style=""width:200px; border:14px solid green;"">","null","","","","","","","","","",""
"","image-keyboard-response","252","149348","0.0-252.0","","","","","362.2000000476837","img/land1.png","76","362.7000000476837","3","1","1","1","1,0,0,0.25,0.5,0.25,0.25,0.25,0.5","0,0,1,0.25,0.5,0.25,0.5,0.25,0.25","2","",""
"","html-keyboard-response","253","149648","0.0-253.0","","","","","null","<img src=""img/land1.png"" style=""width:200px; border:14px solid green;"">","null","","","","","","","","","",""
"","image-keyboard-response","254","150267","0.0-254.0","","","","","618.2000000476837","img/land3.png","74","618.7999999523163","1","0","3","1","1,0,0,0.25,0.5,0.25,0.25,0.25,0.5","0,0,1,0.25,0.5,0.25,0.5,0.25,0.25","2","",""
"","html-keyboard-response","255","150568","0.0-255.0","","","","","null","<img src=""img/land3.png"" style=""width:200px;border:14px solid red;"">","null","","","","","","","","","",""
"","image-keyboard-response","256","150707","0.0-256.0","","","","","138.29999995231628","img/land2.png","74","138.70000004768372","1","1","2","1","1,0,0,0.25,0.5,0.25,0.25,0.25,0.5","0,0,1,0.25,0.5,0.25,0.5,0.25,0.25","2","",""
"","html-keyboard-response","257","151008","0.0-257.0","","","","","null","<img src=""img/land2.png"" style=""width:200px; border:14px solid green;"">","null","","","","","","","","","",""
"","image-keyboard-response","258","151091","0.0-258.0","","","","","82.79999995231628","img/land1.png","76","83.10000014305115","3","1","1","1","1,0,0,0.25,0.5,0.25,0.25,0.25,0.5","0,0,1,0.25,0.5,0.25,0.5,0.25,0.25","2","",""
"","html-keyboard-response","259","151393","0.0-259.0","","","","","null","<img src=""img/land1.png"" style=""width:200px; border:14px solid green;"">","null","","","","","","","","","",""
"","image-keyboard-response","260","152043","0.0-260.0","","","","","650.1000001430511","img/land2.png","75","650.5999999046326","2","1","2","1","1,0,0,0.25,0.5,0.25,0.25,0.25,0.5","0,0,1,0.25,0.5,0.25,0.5,0.25,0.25","2","",""
"","html-keyboard-response","261","152344","0.0-261.0","","","","","null","<img src=""img/land2.png"" style=""width:200px; border:14px solid green;"">","null","","","","","","","","","",""
"","image-keyboard-response","262","152827","0.0-262.0","","","","","482.09999990463257","img/land3.png","76","482.7000000476837","3","0","3","1","1,0,0,0.25,0.5,0.25,0.25,0.25,0.5","0,0,1,0.25,0.5,0.25,0.5,0.25,0.25","2","",""
"","html-keyboard-response","263","153128","0.0-263.0","","","","","null","<img src=""img/land3.png"" style=""width:200px;border:14px solid red;"">","null","","","","","","","","","",""
"","image-keyboard-response","264","153939","0.0-264.0","","","","","810.2000000476837","img/land1.png","76","810.7000000476837","3","1","1","1","1,0,0,0.25,0.5,0.25,0.25,0.25,0.5","0,0,1,0.25,0.5,0.25,0.5,0.25,0.25","2","",""
"","html-keyboard-response","265","154240","0.0-265.0","","","","","null","<img src=""img/land1.png"" style=""width:200px; border:14px solid green;"">","null","","","","","","","","","",""
"","image-keyboard-response","266","155076","0.0-266.0","","","","","834.5","img/land3.png","74","835","1","1","3","1","1,0,0,0.25,0.5,0.25,0.25,0.25,0.5","0,0,1,0.25,0.5,0.25,0.5,0.25,0.25","2","",""
"","html-keyboard-response","267","155378","0.0-267.0","","","","","null","<img src=""img/land3.png"" style=""width:200px; border:14px solid green;"">","null","","","","","","","","","",""
"","image-keyboard-response","268","155899","0.0-268.0","","","","","520.8999998569489","img/land2.png","75","521.5","2","1","2","1","1,0,0,0.25,0.5,0.25,0.25,0.25,0.5","0,0,1,0.25,0.5,0.25,0.5,0.25,0.25","2","",""
"","html-keyboard-response","269","156213","0.0-269.0","","","","","null","<img src=""img/land2.png"" style=""width:200px; border:14px solid green;"">","null","","","","","","","","","",""
"","image-keyboard-response","270","156755","0.0-270.0","","","","","541.5","img/land1.png","76","542.0999999046326","3","1","1","1","1,0,0,0.25,0.5,0.25,0.25,0.25,0.5","0,0,1,0.25,0.5,0.25,0.5,0.25,0.25","2","",""
"","html-keyboard-response","271","157057","0.0-271.0","","","","","null","<img src=""img/land1.png"" style=""width:200px; border:14px solid green;"">","null","","","","","","","","","",""
"","image-keyboard-response","272","157483","0.0-272.0","","","","","425.90000009536743","img/land1.png","76","426.2999999523163","3","1","1","1","1,0,0,0.25,0.5,0.25,0.25,0.25,0.5","0,0,1,0.25,0.5,0.25,0.5,0.25,0.25","2","",""
"","html-keyboard-response","273","157786","0.0-273.0","","","","","null","<img src=""img/land1.png"" style=""width:200px; border:14px solid green;"">","null","","","","","","","","","",""
"","image-keyboard-response","274","158147","0.0-274.0","","","","","361","img/land1.png","76","361.5","3","1","1","1","1,0,0,0.25,0.5,0.25,0.25,0.25,0.5","0,0,1,0.25,0.5,0.25,0.5,0.25,0.25","2","",""
"","html-keyboard-response","275","158449","0.0-275.0","","","","","null","<img src=""img/land1.png"" style=""width:200px; border:14px solid green;"">","null","","","","","","","","","",""
"","image-keyboard-response","276","158779","0.0-276.0","","","","","329.7000000476837","img/land1.png","76","330.2000000476837","3","1","1","1","1,0,0,0.25,0.5,0.25,0.25,0.25,0.5","0,0,1,0.25,0.5,0.25,0.5,0.25,0.25","2","",""
"","html-keyboard-response","277","159084","0.0-277.0","","","","","null","<img src=""img/land1.png"" style=""width:200px; border:14px solid green;"">","null","","","","","","","","","",""
"","image-keyboard-response","278","159891","0.0-278.0","","","","","807","img/land3.png","75","807.4000000953674","2","1","3","1","1,0,0,0.25,0.5,0.25,0.25,0.25,0.5","0,0,1,0.25,0.5,0.25,0.5,0.25,0.25","2","",""
"","html-keyboard-response","279","160192","0.0-279.0","","","","","null","<img src=""img/land3.png"" style=""width:200px; border:14px solid green;"">","null","","","","","","","","","",""
"","image-keyboard-response","280","160931","0.0-280.0","","","","","738.5","img/land1.png","76","739","3","1","1","1","1,0,0,0.25,0.5,0.25,0.25,0.25,0.5","0,0,1,0.25,0.5,0.25,0.5,0.25,0.25","2","",""
"","html-keyboard-response","281","161232","0.0-281.0","","","","","null","<img src=""img/land1.png"" style=""width:200px; border:14px solid green;"">","null","","","","","","","","","",""
"","image-keyboard-response","282","161627","0.0-282.0","","","","","394.2999999523163","img/land1.png","76","394.7999999523163","3","1","1","1","1,0,0,0.25,0.5,0.25,0.25,0.25,0.5","0,0,1,0.25,0.5,0.25,0.5,0.25,0.25","2","",""
"","html-keyboard-response","283","161929","0.0-283.0","","","","","null","<img src=""img/land1.png"" style=""width:200px; border:14px solid green;"">","null","","","","","","","","","",""
"","image-keyboard-response","284","162291","0.0-284.0","","","","","362","img/land1.png","76","362.5","3","1","1","1","1,0,0,0.25,0.5,0.25,0.25,0.25,0.5","0,0,1,0.25,0.5,0.25,0.5,0.25,0.25","2","",""
"","html-keyboard-response","285","162593","0.0-285.0","","","","","null","<img src=""img/land1.png"" style=""width:200px; border:14px solid green;"">","null","","","","","","","","","",""
"","image-keyboard-response","286","163275","0.0-286.0","","","","","681.7999999523163","img/land2.png","75","682.3999998569489","2","0","2","1","1,0,0,0.25,0.5,0.25,0.25,0.25,0.5","0,0,1,0.25,0.5,0.25,0.5,0.25,0.25","2","",""
"","html-keyboard-response","287","163578","0.0-287.0","","","","","null","<img src=""img/land2.png"" style=""width:200px;border:14px solid red;"">","null","","","","","","","","","",""
"","image-keyboard-response","288","164131","0.0-288.0","","","","","553","img/land3.png","74","553.5999999046326","1","1","3","1","1,0,0,0.25,0.5,0.25,0.25,0.25,0.5","0,0,1,0.25,0.5,0.25,0.5,0.25,0.25","2","",""
"","html-keyboard-response","289","164432","0.0-289.0","","","","","null","<img src=""img/land3.png"" style=""width:200px; border:14px solid green;"">","null","","","","","","","","","",""
"","image-keyboard-response","290","165043","0.0-290.0","","","","","610.9000000953674","img/land1.png","76","611.2999999523163","3","1","1","1","1,0,0,0.25,0.5,0.25,0.25,0.25,0.5","0,0,1,0.25,0.5,0.25,0.5,0.25,0.25","2","",""
"","html-keyboard-response","291","165345","0.0-291.0","","","","","null","<img src=""img/land1.png"" style=""width:200px; border:14px solid green;"">","null","","","","","","","","","",""
"","image-keyboard-response","292","165643","0.0-292.0","","","","","297.7999999523163","img/land1.png","76","298.40000009536743","3","1","1","1","1,0,0,0.25,0.5,0.25,0.25,0.25,0.5","0,0,1,0.25,0.5,0.25,0.5,0.25,0.25","2","",""
"","html-keyboard-response","293","165944","0.0-293.0","","","","","null","<img src=""img/land1.png"" style=""width:200px; border:14px solid green;"">","null","","","","","","","","","",""
"","image-keyboard-response","294","166659","0.0-294.0","","","","","714.5","img/land2.png","75","715","2","0","2","1","1,0,0,0.25,0.5,0.25,0.25,0.25,0.5","0,0,1,0.25,0.5,0.25,0.5,0.25,0.25","2","",""
"","html-keyboard-response","295","166960","0.0-295.0","","","","","null","<img src=""img/land2.png"" style=""width:200px;border:14px solid red;"">","null","","","","","","","","","",""
"","image-keyboard-response","296","167452","0.0-296.0","","","","","490.90000009536743","img/land1.png","76","491.5","3","1","1","1","1,0,0,0.25,0.5,0.25,0.25,0.25,0.5","0,0,1,0.25,0.5,0.25,0.5,0.25,0.25","2","",""
"","html-keyboard-response","297","167753","0.0-297.0","","","","","null","<img src=""img/land1.png"" style=""width:200px; border:14px solid green;"">","null","","","","","","","","","",""
"","image-keyboard-response","298","168115","0.0-298.0","","","","","362.09999990463257","img/land1.png","76","362.5","3","1","1","1","1,0,0,0.25,0.5,0.25,0.25,0.25,0.5","0,0,1,0.25,0.5,0.25,0.5,0.25,0.25","2","",""
"","html-keyboard-response","299","168417","0.0-299.0","","","","","null","<img src=""img/land1.png"" style=""width:200px; border:14px solid green;"">","null","","","","","","","","","",""
"","image-keyboard-response","300","168971","0.0-300.0","","","","","553.8999998569489","img/land2.png","76","554.3000001907349","3","1","2","1","1,0,0,0.25,0.5,0.25,0.25,0.25,0.5","0,0,1,0.25,0.5,0.25,0.5,0.25,0.25","2","",""
"","html-keyboard-response","301","169272","0.0-301.0","","","","","null","<img src=""img/land2.png"" style=""width:200px; border:14px solid green;"">","null","","","","","","","","","",""
"","html-keyboard-response","302","172993","0.0-302.0","","","","","","","","","","","","","","","","",""
"","image-keyboard-response","303","174995","0.0-303.0","","","","","","img/land5.png","","2001.1000001430511","-1","0","2","2","1,0,0,0.25,0.5,0.25,0.25,0.25,0.5","0,1,0,0.5,0.25,0.25,0.25,0.25,0.5","3","",""
"","html-keyboard-response","304","175296","0.0-304.0","","","","","null","<img src=""img/land5.png"" style=""width:200px;border:14px solid red;"">","null","","","","","","","","","",""
"","image-keyboard-response","305","176627","0.0-305.0","","","","","1330.7000000476837","img/land5.png","74","1331.2999999523163","1","1","2","2","1,0,0,0.25,0.5,0.25,0.25,0.25,0.5","0,1,0,0.5,0.25,0.25,0.25,0.25,0.5","3","",""
"","html-keyboard-response","306","176929","0.0-306.0","","","","","null","<img src=""img/land5.png"" style=""width:200px; border:14px solid green;"">","null","","","","","","","","","",""
"","image-keyboard-response","307","178308","0.0-307.0","","","","","1378.0999999046326","img/land4.png","75","1378.6000001430511","2","1","1","2","1,0,0,0.25,0.5,0.25,0.25,0.25,0.5","0,1,0,0.5,0.25,0.25,0.25,0.25,0.5","3","",""
"","html-keyboard-response","308","178620","0.0-308.0","","","","","null","<img src=""img/land4.png"" style=""width:200px; border:14px solid green;"">","null","","","","","","","","","",""
"","image-keyboard-response","309","179667","0.0-309.0","","","","","1046.7999999523163","img/land4.png","75","1047.5999999046326","2","1","1","2","1,0,0,0.25,0.5,0.25,0.25,0.25,0.5","0,1,0,0.5,0.25,0.25,0.25,0.25,0.5","3","",""
"","html-keyboard-response","310","179969","0.0-310.0","","","","","null","<img src=""img/land4.png"" style=""width:200px; border:14px solid green;"">","null","","","","","","","","","",""
"","image-keyboard-response","311","180579","0.0-311.0","","","","","609.2999999523163","img/land4.png","75","609.8999998569489","2","1","1","2","1,0,0,0.25,0.5,0.25,0.25,0.25,0.5","0,1,0,0.5,0.25,0.25,0.25,0.25,0.5","3","",""
"","html-keyboard-response","312","180880","0.0-312.0","","","","","null","<img src=""img/land4.png"" style=""width:200px; border:14px solid green;"">","null","","","","","","","","","",""
"","image-keyboard-response","313","181595","0.0-313.0","","","","","714.2999999523163","img/land6.png","76","714.9000000953674","3","0","3","2","1,0,0,0.25,0.5,0.25,0.25,0.25,0.5","0,1,0,0.5,0.25,0.25,0.25,0.25,0.5","3","",""
"","html-keyboard-response","314","181896","0.0-314.0","","","","","null","<img src=""img/land6.png"" style=""width:200px;border:14px solid red;"">","null","","","","","","","","","",""
"","image-keyboard-response","315","182355","0.0-315.0","","","","","458.2999999523163","img/land4.png","74","458.7999999523163","1","0","1","2","1,0,0,0.25,0.5,0.25,0.25,0.25,0.5","0,1,0,0.5,0.25,0.25,0.25,0.25,0.5","3","",""
"","html-keyboard-response","316","182656","0.0-316.0","","","","","null","<img src=""img/land4.png"" style=""width:200px;border:14px solid red;"">","null","","","","","","","","","",""
"","image-keyboard-response","317","183147","0.0-317.0","","","","","490.7999999523163","img/land4.png","75","491.2000000476837","2","1","1","2","1,0,0,0.25,0.5,0.25,0.25,0.25,0.5","0,1,0,0.5,0.25,0.25,0.25,0.25,0.5","3","",""
"","html-keyboard-response","318","183450","0.0-318.0","","","","","null","<img src=""img/land4.png"" style=""width:200px; border:14px solid green;"">","null","","","","","","","","","",""
"","image-keyboard-response","319","184699","0.0-319.0","","","","","1249","img/land5.png","74","1249.4000000953674","1","0","2","2","1,0,0,0.25,0.5,0.25,0.25,0.25,0.5","0,1,0,0.5,0.25,0.25,0.25,0.25,0.5","3","",""
"","html-keyboard-response","320","185001","0.0-320.0","","","","","null","<img src=""img/land5.png"" style=""width:200px;border:14px solid red;"">","null","","","","","","","","","",""
"","image-keyboard-response","321","185267","0.0-321.0","","","","","265.59999990463257","img/land5.png","74","266.2000000476837","1","0","2","2","1,0,0,0.25,0.5,0.25,0.25,0.25,0.5","0,1,0,0.5,0.25,0.25,0.25,0.25,0.5","3","",""
"","html-keyboard-response","322","185568","0.0-322.0","","","","","null","<img src=""img/land5.png"" style=""width:200px;border:14px solid red;"">","null","","","","","","","","","",""
"","image-keyboard-response","323","186659","0.0-323.0","","","","","1090.2000000476837","img/land6.png","76","1090.6999998092651","3","1","3","2","1,0,0,0.25,0.5,0.25,0.25,0.25,0.5","0,1,0,0.5,0.25,0.25,0.25,0.25,0.5","3","",""
"","html-keyboard-response","324","186961","0.0-324.0","","","","","null","<img src=""img/land6.png"" style=""width:200px; border:14px solid green;"">","null","","","","","","","","","",""
"","image-keyboard-response","325","187699","0.0-325.0","","","","","737.4000000953674","img/land4.png","75","738","2","1","1","2","1,0,0,0.25,0.5,0.25,0.25,0.25,0.5","0,1,0,0.5,0.25,0.25,0.25,0.25,0.5","3","",""
"","html-keyboard-response","326","188001","0.0-326.0","","","","","null","<img src=""img/land4.png"" style=""width:200px; border:14px solid green;"">","null","","","","","","","","","",""
"","image-keyboard-response","327","189155","0.0-327.0","","","","","1153.9000000953674","img/land5.png","76","1154.4000000953674","3","0","2","2","1,0,0,0.25,0.5,0.25,0.25,0.25,0.5","0,1,0,0.5,0.25,0.25,0.25,0.25,0.5","3","",""
"","html-keyboard-response","328","189458","0.0-328.0","","","","","null","<img src=""img/land5.png"" style=""width:200px;border:14px solid red;"">","null","","","","","","","","","",""
"","image-keyboard-response","329","190419","0.0-329.0","","","","","960.7999999523163","img/land6.png","75","961.4000000953674","2","1","3","2","1,0,0,0.25,0.5,0.25,0.25,0.25,0.5","0,1,0,0.5,0.25,0.25,0.25,0.25,0.5","3","",""
"","html-keyboard-response","330","190720","0.0-330.0","","","","","null","<img src=""img/land6.png"" style=""width:200px; border:14px solid green;"">","null","","","","","","","","","",""
"","image-keyboard-response","331","191691","0.0-331.0","","","","","970.2000000476837","img/land5.png","74","970.7999999523163","1","0","2","2","1,0,0,0.25,0.5,0.25,0.25,0.25,0.5","0,1,0,0.5,0.25,0.25,0.25,0.25,0.5","3","",""
"","html-keyboard-response","332","191993","0.0-332.0","","","","","null","<img src=""img/land5.png"" style=""width:200px;border:14px solid red;"">","null","","","","","","","","","",""
"","image-keyboard-response","333","192515","0.0-333.0","","","","","521.2999999523163","img/land4.png","75","521.7000000476837","2","1","1","2","1,0,0,0.25,0.5,0.25,0.25,0.25,0.5","0,1,0,0.5,0.25,0.25,0.25,0.25,0.5","3","",""
"","html-keyboard-response","334","192817","0.0-334.0","","","","","null","<img src=""img/land4.png"" style=""width:200px; border:14px solid green;"">","null","","","","","","","","","",""
"","image-keyboard-response","335","193683","0.0-335.0","","","","","865.9000000953674","img/land5.png","76","866.5","3","0","2","2","1,0,0,0.25,0.5,0.25,0.25,0.25,0.5","0,1,0,0.5,0.25,0.25,0.25,0.25,0.5","3","",""
"","html-keyboard-response","336","193985","0.0-336.0","","","","","null","<img src=""img/land5.png"" style=""width:200px;border:14px solid red;"">","null","","","","","","","","","",""
"","image-keyboard-response","337","194915","0.0-337.0","","","","","929.4000000953674","img/land4.png","75","929.9000000953674","2","1","1","2","1,0,0,0.25,0.5,0.25,0.25,0.25,0.5","0,1,0,0.5,0.25,0.25,0.25,0.25,0.5","3","",""
"","html-keyboard-response","338","195216","0.0-338.0","","","","","null","<img src=""img/land4.png"" style=""width:200px; border:14px solid green;"">","null","","","","","","","","","",""
"","image-keyboard-response","339","196155","0.0-339.0","","","","","938.5","img/land6.png","76","939.0999999046326","3","1","3","2","1,0,0,0.25,0.5,0.25,0.25,0.25,0.5","0,1,0,0.5,0.25,0.25,0.25,0.25,0.5","3","",""
"","html-keyboard-response","340","196456","0.0-340.0","","","","","null","<img src=""img/land6.png"" style=""width:200px; border:14px solid green;"">","null","","","","","","","","","",""
"","image-keyboard-response","341","197355","0.0-341.0","","","","","898.5999999046326","img/land4.png","75","899","2","1","1","2","1,0,0,0.25,0.5,0.25,0.25,0.25,0.5","0,1,0,0.5,0.25,0.25,0.25,0.25,0.5","3","",""
"","html-keyboard-response","342","197657","0.0-342.0","","","","","null","<img src=""img/land4.png"" style=""width:200px; border:14px solid green;"">","null","","","","","","","","","",""
"","image-keyboard-response","343","198211","0.0-343.0","","","","","553.0999999046326","img/land6.png","76","553.7000000476837","3","1","3","2","1,0,0,0.25,0.5,0.25,0.25,0.25,0.5","0,1,0,0.5,0.25,0.25,0.25,0.25,0.5","3","",""
"","html-keyboard-response","344","198513","0.0-344.0","","","","","null","<img src=""img/land6.png"" style=""width:200px; border:14px solid green;"">","null","","","","","","","","","",""
"","image-keyboard-response","345","199123","0.0-345.0","","","","","609.8999998569489","img/land6.png","76","610.5","3","0","3","2","1,0,0,0.25,0.5,0.25,0.25,0.25,0.5","0,1,0,0.5,0.25,0.25,0.25,0.25,0.5","3","",""
"","html-keyboard-response","346","199425","0.0-346.0","","","","","null","<img src=""img/land6.png"" style=""width:200px;border:14px solid red;"">","null","","","","","","","","","",""
"","image-keyboard-response","347","199820","0.0-347.0","","","","","394.2999999523163","img/land6.png","76","394.7999999523163","3","0","3","2","1,0,0,0.25,0.5,0.25,0.25,0.25,0.5","0,1,0,0.5,0.25,0.25,0.25,0.25,0.5","3","",""
"","html-keyboard-response","348","200122","0.0-348.0","","","","","null","<img src=""img/land6.png"" style=""width:200px;border:14px solid red;"">","null","","","","","","","","","",""
"","image-keyboard-response","349","200611","0.0-349.0","","","","","488.39999985694885","img/land4.png","75","489","2","1","1","2","1,0,0,0.25,0.5,0.25,0.25,0.25,0.5","0,1,0,0.5,0.25,0.25,0.25,0.25,0.5","3","",""
"","html-keyboard-response","350","200912","0.0-350.0","","","","","null","<img src=""img/land4.png"" style=""width:200px; border:14px solid green;"">","null","","","","","","","","","",""
"","image-keyboard-response","351","201907","0.0-351.0","","","","","994.8000001907349","img/land5.png","75","995.1999998092651","2","1","2","2","1,0,0,0.25,0.5,0.25,0.25,0.25,0.5","0,1,0,0.5,0.25,0.25,0.25,0.25,0.5","3","",""
"","html-keyboard-response","352","202209","0.0-352.0","","","","","null","<img src=""img/land5.png"" style=""width:200px; border:14px solid green;"">","null","","","","","","","","","",""
"","image-keyboard-response","353","203243","0.0-353.0","","","","","1034","img/land6.png","75","1034.5999999046326","2","0","3","2","1,0,0,0.25,0.5,0.25,0.25,0.25,0.5","0,1,0,0.5,0.25,0.25,0.25,0.25,0.5","3","",""
"","html-keyboard-response","354","203546","0.0-354.0","","","","","null","<img src=""img/land6.png"" style=""width:200px;border:14px solid red;"">","null","","","","","","","","","",""
"","image-keyboard-response","355","204475","0.0-355.0","","","","","928.7999999523163","img/land6.png","74","929.3000001907349","1","0","3","2","1,0,0,0.25,0.5,0.25,0.25,0.25,0.5","0,1,0,0.5,0.25,0.25,0.25,0.25,0.5","3","",""
"","html-keyboard-response","356","204777","0.0-356.0","","","","","null","<img src=""img/land6.png"" style=""width:200px;border:14px solid red;"">","null","","","","","","","","","",""
"","image-keyboard-response","357","205043","0.0-357.0","","","","","265.2999999523163","img/land6.png","75","266","2","1","3","2","1,0,0,0.25,0.5,0.25,0.25,0.25,0.5","0,1,0,0.5,0.25,0.25,0.25,0.25,0.5","3","",""
"","html-keyboard-response","358","205344","0.0-358.0","","","","","null","<img src=""img/land6.png"" style=""width:200px; border:14px solid green;"">","null","","","","","","","","","",""
"","image-keyboard-response","359","205899","0.0-359.0","","","","","554.2000000476837","img/land4.png","76","554.7999999523163","3","0","1","2","1,0,0,0.25,0.5,0.25,0.25,0.25,0.5","0,1,0,0.5,0.25,0.25,0.25,0.25,0.5","3","",""
"","html-keyboard-response","360","206200","0.0-360.0","","","","","null","<img src=""img/land4.png"" style=""width:200px;border:14px solid red;"">","null","","","","","","","","","",""
"","image-keyboard-response","361","206243","0.0-361.0","","","","","42.09999990463257","img/land6.png","76","42.59999990463257","3","0","3","2","1,0,0,0.25,0.5,0.25,0.25,0.25,0.5","0,1,0,0.5,0.25,0.25,0.25,0.25,0.5","3","",""
"","html-keyboard-response","362","206545","0.0-362.0","","","","","null","<img src=""img/land6.png"" style=""width:200px;border:14px solid red;"">","null","","","","","","","","","",""
"","image-keyboard-response","363","206595","0.0-363.0","","","","","49.700000047683716","img/land5.png","75","50.200000047683716","2","0","2","2","1,0,0,0.25,0.5,0.25,0.25,0.25,0.5","0,1,0,0.5,0.25,0.25,0.25,0.25,0.5","3","",""
"","html-keyboard-response","364","206896","0.0-364.0","","","","","null","<img src=""img/land5.png"" style=""width:200px;border:14px solid red;"">","null","","","","","","","","","",""
"","image-keyboard-response","365","207036","0.0-365.0","","","","","138.70000004768372","img/land5.png","75","139.20000004768372","2","0","2","2","1,0,0,0.25,0.5,0.25,0.25,0.25,0.5","0,1,0,0.5,0.25,0.25,0.25,0.25,0.5","3","",""
"","html-keyboard-response","366","207337","0.0-366.0","","","","","null","<img src=""img/land5.png"" style=""width:200px;border:14px solid red;"">","null","","","","","","","","","",""
"","image-keyboard-response","367","207355","0.0-367.0","","","","","17.90000009536743","img/land6.png","75","18.399999856948853","2","0","3","2","1,0,0,0.25,0.5,0.25,0.25,0.25,0.5","0,1,0,0.5,0.25,0.25,0.25,0.25,0.5","3","",""
"","html-keyboard-response","368","207656","0.0-368.0","","","","","null","<img src=""img/land6.png"" style=""width:200px;border:14px solid red;"">","null","","","","","","","","","",""
"","image-keyboard-response","369","207955","0.0-369.0","","","","","297.7999999523163","img/land6.png","75","298.40000009536743","2","0","3","2","1,0,0,0.25,0.5,0.25,0.25,0.25,0.5","0,1,0,0.5,0.25,0.25,0.25,0.25,0.5","3","",""
"","html-keyboard-response","370","208257","0.0-370.0","","","","","null","<img src=""img/land6.png"" style=""width:200px;border:14px solid red;"">","null","","","","","","","","","",""
"","image-keyboard-response","371","208275","0.0-371.0","","","","","17.799999952316284","img/land4.png","76","18.299999952316284","3","0","1","2","1,0,0,0.25,0.5,0.25,0.25,0.25,0.5","0,1,0,0.5,0.25,0.25,0.25,0.25,0.5","3","",""
"","html-keyboard-response","372","208576","0.0-372.0","","","","","null","<img src=""img/land4.png"" style=""width:200px;border:14px solid red;"">","null","","","","","","","","","",""
"","image-keyboard-response","373","208715","0.0-373.0","","","","","138.39999985694885","img/land4.png","74","139","1","0","1","2","1,0,0,0.25,0.5,0.25,0.25,0.25,0.5","0,1,0,0.5,0.25,0.25,0.25,0.25,0.5","3","",""
"","html-keyboard-response","374","209017","0.0-374.0","","","","","null","<img src=""img/land4.png"" style=""width:200px;border:14px solid red;"">","null","","","","","","","","","",""
"","image-keyboard-response","375","209123","0.0-375.0","","","","","105.79999995231628","img/land4.png","75","106.40000009536743","2","1","1","2","1,0,0,0.25,0.5,0.25,0.25,0.25,0.5","0,1,0,0.5,0.25,0.25,0.25,0.25,0.5","3","",""
"","html-keyboard-response","376","209424","0.0-376.0","","","","","null","<img src=""img/land4.png"" style=""width:200px; border:14px solid green;"">","null","","","","","","","","","",""
"","image-keyboard-response","377","209443","0.0-377.0","","","","","18.600000143051147","img/land5.png","76","19","3","0","2","2","1,0,0,0.25,0.5,0.25,0.25,0.25,0.5","0,1,0,0.5,0.25,0.25,0.25,0.25,0.5","3","",""
"","html-keyboard-response","378","209744","0.0-378.0","","","","","null","<img src=""img/land5.png"" style=""width:200px;border:14px solid red;"">","null","","","","","","","","","",""
"","image-keyboard-response","379","209947","0.0-379.0","","","","","202.39999985694885","img/land6.png","76","202.79999995231628","3","1","3","2","1,0,0,0.25,0.5,0.25,0.25,0.25,0.5","0,1,0,0.5,0.25,0.25,0.25,0.25,0.5","3","",""
"","html-keyboard-response","380","210249","0.0-380.0","","","","","null","<img src=""img/land6.png"" style=""width:200px; border:14px solid green;"">","null","","","","","","","","","",""
"","image-keyboard-response","381","210483","0.0-381.0","","","","","233.60000014305115","img/land5.png","75","234.10000014305115","2","0","2","2","1,0,0,0.25,0.5,0.25,0.25,0.25,0.5","0,1,0,0.5,0.25,0.25,0.25,0.25,0.5","3","",""
"","html-keyboard-response","382","210785","0.0-382.0","","","","","null","<img src=""img/land5.png"" style=""width:200px;border:14px solid red;"">","null","","","","","","","","","",""
"","image-keyboard-response","383","210867","0.0-383.0","","","","","81.69999980926514","img/land5.png","75","82.29999995231628","2","0","2","2","1,0,0,0.25,0.5,0.25,0.25,0.25,0.5","0,1,0,0.5,0.25,0.25,0.25,0.25,0.5","3","",""
"","html-keyboard-response","384","211168","0.0-384.0","","","","","null","<img src=""img/land5.png"" style=""width:200px;border:14px solid red;"">","null","","","","","","","","","",""
"","image-keyboard-response","385","211243","0.0-385.0","","","","","73.79999995231628","img/land6.png","74","74.39999985694885","1","1","3","2","1,0,0,0.25,0.5,0.25,0.25,0.25,0.5","0,1,0,0.5,0.25,0.25,0.25,0.25,0.5","3","",""
"","html-keyboard-response","386","211544","0.0-386.0","","","","","null","<img src=""img/land6.png"" style=""width:200px; border:14px solid green;"">","null","","","","","","","","","",""
"","image-keyboard-response","387","211595","0.0-387.0","","","","","50.59999990463257","img/land5.png","74","51.10000014305115","1","0","2","2","1,0,0,0.25,0.5,0.25,0.25,0.25,0.5","0,1,0,0.5,0.25,0.25,0.25,0.25,0.5","3","",""
"","html-keyboard-response","388","211895","0.0-388.0","","","","","null","<img src=""img/land5.png"" style=""width:200px;border:14px solid red;"">","null","","","","","","","","","",""
"","image-keyboard-response","389","212163","0.0-389.0","","","","","266.89999985694885","img/land6.png","75","267.39999985694885","2","0","3","2","1,0,0,0.25,0.5,0.25,0.25,0.25,0.5","0,1,0,0.5,0.25,0.25,0.25,0.25,0.5","3","",""
"","html-keyboard-response","390","212465","0.0-390.0","","","","","null","<img src=""img/land6.png"" style=""width:200px;border:14px solid red;"">","null","","","","","","","","","",""
"","image-keyboard-response","391","212571","0.0-391.0","","","","","105.89999985694885","img/land6.png","76","106.5","3","0","3","2","1,0,0,0.25,0.5,0.25,0.25,0.25,0.5","0,1,0,0.5,0.25,0.25,0.25,0.25,0.5","3","",""
"","html-keyboard-response","392","212873","0.0-392.0","","","","","null","<img src=""img/land6.png"" style=""width:200px;border:14px solid red;"">","null","","","","","","","","","",""
"","image-keyboard-response","393","212923","0.0-393.0","","","","","49.799999952316284","img/land6.png","76","50.200000047683716","3","1","3","2","1,0,0,0.25,0.5,0.25,0.25,0.25,0.5","0,1,0,0.5,0.25,0.25,0.25,0.25,0.5","3","",""
"","html-keyboard-response","394","213225","0.0-394.0","","","","","null","<img src=""img/land6.png"" style=""width:200px; border:14px solid green;"">","null","","","","","","","","","",""
"","image-keyboard-response","395","213243","0.0-395.0","","","","","17.399999856948853","img/land5.png","74","17.799999952316284","1","1","2","2","1,0,0,0.25,0.5,0.25,0.25,0.25,0.5","0,1,0,0.5,0.25,0.25,0.25,0.25,0.5","3","",""
"","html-keyboard-response","396","213544","0.0-396.0","","","","","null","<img src=""img/land5.png"" style=""width:200px; border:14px solid green;"">","null","","","","","","","","","",""
"","image-keyboard-response","397","213555","0.0-397.0","","","","","10.099999904632568","img/land5.png","74","10.5","1","0","2","2","1,0,0,0.25,0.5,0.25,0.25,0.25,0.5","0,1,0,0.5,0.25,0.25,0.25,0.25,0.5","3","",""
"","html-keyboard-response","398","213856","0.0-398.0","","","","","null","<img src=""img/land5.png"" style=""width:200px;border:14px solid red;"">","null","","","","","","","","","",""
"","image-keyboard-response","399","213907","0.0-399.0","","","","","50.09999990463257","img/land4.png","74","50.700000047683716","1","0","1","2","1,0,0,0.25,0.5,0.25,0.25,0.25,0.5","0,1,0,0.5,0.25,0.25,0.25,0.25,0.5","3","",""
"","html-keyboard-response","400","214208","0.0-400.0","","","","","null","<img src=""img/land4.png"" style=""width:200px;border:14px solid red;"">","null","","","","","","","","","",""
"","image-keyboard-response","401","214251","0.0-401.0","","","","","42.40000009536743","img/land4.png","76","42.799999952316284","3","0","1","2","1,0,0,0.25,0.5,0.25,0.25,0.25,0.5","0,1,0,0.5,0.25,0.25,0.25,0.25,0.5","3","",""
"","html-keyboard-response","402","214552","0.0-402.0","","","","","null","<img src=""img/land4.png"" style=""width:200px;border:14px solid red;"">","null","","","","","","","","","",""
"","image-keyboard-response","403","214572","0.0-403.0","","","","","18.299999952316284","img/land5.png","76","18.899999856948853","3","1","2","2","1,0,0,0.25,0.5,0.25,0.25,0.25,0.5","0,1,0,0.5,0.25,0.25,0.25,0.25,0.5","3","",""
"","html-keyboard-response","404","214874","0.0-404.0","","","","","null","<img src=""img/land5.png"" style=""width:200px; border:14px solid green;"">","null","","","","","","","","","",""
"","image-keyboard-response","405","214979","0.0-405.0","","","","","104.70000004768372","img/land5.png","75","105.30000019073486","2","0","2","2","1,0,0,0.25,0.5,0.25,0.25,0.25,0.5","0,1,0,0.5,0.25,0.25,0.25,0.25,0.5","3","",""
"","html-keyboard-response","406","215281","0.0-406.0","","","","","null","<img src=""img/land5.png"" style=""width:200px;border:14px solid red;"">","null","","","","","","","","","",""
"","image-keyboard-response","407","215299","0.0-407.0","","","","","17.59999990463257","img/land5.png","74","18.200000047683716","1","0","2","2","1,0,0,0.25,0.5,0.25,0.25,0.25,0.5","0,1,0,0.5,0.25,0.25,0.25,0.25,0.5","3","",""
"","html-keyboard-response","408","215600","0.0-408.0","","","","","null","<img src=""img/land5.png"" style=""width:200px;border:14px solid red;"">","null","","","","","","","","","",""
"","image-keyboard-response","409","215803","0.0-409.0","","","","","202.90000009536743","img/land6.png","76","203.40000009536743","3","0","3","2","1,0,0,0.25,0.5,0.25,0.25,0.25,0.5","0,1,0,0.5,0.25,0.25,0.25,0.25,0.5","3","",""
"","html-keyboard-response","410","216104","0.0-410.0","","","","","null","<img src=""img/land6.png"" style=""width:200px;border:14px solid red;"">","null","","","","","","","","","",""
"","image-keyboard-response","411","216179","0.0-411.0","","","","","74.5","img/land6.png","75","75.09999990463257","2","0","3","2","1,0,0,0.25,0.5,0.25,0.25,0.25,0.5","0,1,0,0.5,0.25,0.25,0.25,0.25,0.5","3","",""
"","html-keyboard-response","412","216481","0.0-412.0","","","","","null","<img src=""img/land6.png"" style=""width:200px;border:14px solid red;"">","null","","","","","","","","","",""
"","image-keyboard-response","413","216499","0.0-413.0","","","","","17.5","img/land5.png","76","18","3","0","2","2","1,0,0,0.25,0.5,0.25,0.25,0.25,0.5","0,1,0,0.5,0.25,0.25,0.25,0.25,0.5","3","",""
"","html-keyboard-response","414","216800","0.0-414.0","","","","","null","<img src=""img/land5.png"" style=""width:200px;border:14px solid red;"">","null","","","","","","","","","",""
"","image-keyboard-response","415","216939","0.0-415.0","","","","","138.59999990463257","img/land5.png","75","139.20000004768372","2","0","2","2","1,0,0,0.25,0.5,0.25,0.25,0.25,0.5","0,1,0,0.5,0.25,0.25,0.25,0.25,0.5","3","",""
"","html-keyboard-response","416","217249","0.0-416.0","","","","","null","<img src=""img/land5.png"" style=""width:200px;border:14px solid red;"">","null","","","","","","","","","",""
"","image-keyboard-response","417","217355","0.0-417.0","","","","","105.69999980926514","img/land4.png","74","106.20000004768372","1","0","1","2","1,0,0,0.25,0.5,0.25,0.25,0.25,0.5","0,1,0,0.5,0.25,0.25,0.25,0.25,0.5","3","",""
"","html-keyboard-response","418","217656","0.0-418.0","","","","","null","<img src=""img/land4.png"" style=""width:200px;border:14px solid red;"">","null","","","","","","","","","",""
"","image-keyboard-response","419","217763","0.0-419.0","","","","","106.10000014305115","img/land4.png","75","106.70000004768372","2","1","1","2","1,0,0,0.25,0.5,0.25,0.25,0.25,0.5","0,1,0,0.5,0.25,0.25,0.25,0.25,0.5","3","",""
"","html-keyboard-response","420","218064","0.0-420.0","","","","","null","<img src=""img/land4.png"" style=""width:200px; border:14px solid green;"">","null","","","","","","","","","",""
"","image-keyboard-response","421","218331","0.0-421.0","","","","","266.40000009536743","img/land4.png","75","267.09999990463257","2","1","1","2","1,0,0,0.25,0.5,0.25,0.25,0.25,0.5","0,1,0,0.5,0.25,0.25,0.25,0.25,0.5","3","",""
"","html-keyboard-response","422","218634","0.0-422.0","","","","","null","<img src=""img/land4.png"" style=""width:200px; border:14px solid green;"">","null","","","","","","","","","",""
"","image-keyboard-response","423","218843","0.0-423.0","","","","","209","img/land6.png","74","209.5","1","0","3","2","1,0,0,0.25,0.5,0.25,0.25,0.25,0.5","0,1,0,0.5,0.25,0.25,0.25,0.25,0.5","3","",""
"","html-keyboard-response","424","219144","0.0-424.0","","","","","null","<img src=""img/land6.png"" style=""width:200px;border:14px solid red;"">","null","","","","","","","","","",""
"","image-keyboard-response","425","219251","0.0-425.0","","","","","105.90000009536743","img/land4.png","75","106.39999985694885","2","1","1","2","1,0,0,0.25,0.5,0.25,0.25,0.25,0.5","0,1,0,0.5,0.25,0.25,0.25,0.25,0.5","3","",""
"","html-keyboard-response","426","219553","0.0-426.0","","","","","null","<img src=""img/land4.png"" style=""width:200px; border:14px solid green;"">","null","","","","","","","","","",""
"","image-keyboard-response","427","219595","0.0-427.0","","","","","41.200000047683716","img/land5.png","75","41.799999952316284","2","0","2","2","1,0,0,0.25,0.5,0.25,0.25,0.25,0.5","0,1,0,0.5,0.25,0.25,0.25,0.25,0.5","3","",""
"","html-keyboard-response","428","219896","0.0-428.0","","","","","null","<img src=""img/land5.png"" style=""width:200px;border:14px solid red;"">","null","","","","","","","","","",""
"","image-keyboard-response","429","220011","0.0-429.0","","","","","114.79999995231628","img/land5.png","75","115.20000004768372","2","0","2","2","1,0,0,0.25,0.5,0.25,0.25,0.25,0.5","0,1,0,0.5,0.25,0.25,0.25,0.25,0.5","3","",""
"","html-keyboard-response","430","220313","0.0-430.0","","","","","null","<img src=""img/land5.png"" style=""width:200px;border:14px solid red;"">","null","","","","","","","","","",""
"","image-keyboard-response","431","220547","0.0-431.0","","","","","233.60000014305115","img/land4.png","75","234.09999990463257","2","1","1","2","1,0,0,0.25,0.5,0.25,0.25,0.25,0.5","0,1,0,0.5,0.25,0.25,0.25,0.25,0.5","3","",""
"","html-keyboard-response","432","220848","0.0-432.0","","","","","null","<img src=""img/land4.png"" style=""width:200px; border:14px solid green;"">","null","","","","","","","","","",""
"","image-keyboard-response","433","220931","0.0-433.0","","","","","82.20000004768372","img/land5.png","74","82.70000004768372","1","0","2","2","1,0,0,0.25,0.5,0.25,0.25,0.25,0.5","0,1,0,0.5,0.25,0.25,0.25,0.25,0.5","3","",""
"","html-keyboard-response","434","221232","0.0-434.0","","","","","null","<img src=""img/land5.png"" style=""width:200px;border:14px solid red;"">","null","","","","","","","","","",""
"","image-keyboard-response","435","221275","0.0-435.0","","","","","41.90000009536743","img/land4.png","76","42.5","3","0","1","2","1,0,0,0.25,0.5,0.25,0.25,0.25,0.5","0,1,0,0.5,0.25,0.25,0.25,0.25,0.5","3","",""
"","html-keyboard-response","436","221576","0.0-436.0","","","","","null","<img src=""img/land4.png"" style=""width:200px;border:14px solid red;"">","null","","","","","","","","","",""
"","image-keyboard-response","437","221659","0.0-437.0","","","","","82.29999995231628","img/land6.png","76","82.79999995231628","3","0","3","2","1,0,0,0.25,0.5,0.25,0.25,0.25,0.5","0,1,0,0.5,0.25,0.25,0.25,0.25,0.5","3","",""
"","html-keyboard-response","438","221961","0.0-438.0","","","","","null","<img src=""img/land6.png"" style=""width:200px;border:14px solid red;"">","null","","","","","","","","","",""
"","image-keyboard-response","439","221971","0.0-439.0","","","","","9.900000095367432","img/land6.png","75","10.299999952316284","2","1","3","2","1,0,0,0.25,0.5,0.25,0.25,0.25,0.5","0,1,0,0.5,0.25,0.25,0.25,0.25,0.5","3","",""
"","html-keyboard-response","440","222272","0.0-440.0","","","","","null","<img src=""img/land6.png"" style=""width:200px; border:14px solid green;"">","null","","","","","","","","","",""
"","image-keyboard-response","441","222539","0.0-441.0","","","","","266.19999980926514","img/land4.png","76","266.7000000476837","3","0","1","2","1,0,0,0.25,0.5,0.25,0.25,0.25,0.5","0,1,0,0.5,0.25,0.25,0.25,0.25,0.5","3","",""
"","html-keyboard-response","442","222840","0.0-442.0","","","","","null","<img src=""img/land4.png"" style=""width:200px;border:14px solid red;"">","null","","","","","","","","","",""
"","image-keyboard-response","443","223203","0.0-443.0","","","","","362","img/land4.png","74","362.5","1","0","1","2","1,0,0,0.25,0.5,0.25,0.25,0.25,0.5","0,1,0,0.5,0.25,0.25,0.25,0.25,0.5","3","",""
"","html-keyboard-response","444","223505","0.0-444.0","","","","","null","<img src=""img/land4.png"" style=""width:200px;border:14px solid red;"">","null","","","","","","","","","",""
"","image-keyboard-response","445","223715","0.0-445.0","","","","","209.79999995231628","img/land5.png","74","210.29999995231628","1","0","2","2","1,0,0,0.25,0.5,0.25,0.25,0.25,0.5","0,1,0,0.5,0.25,0.25,0.25,0.25,0.5","3","",""
"","html-keyboard-response","446","224017","0.0-446.0","","","","","null","<img src=""img/land5.png"" style=""width:200px;border:14px solid red;"">","null","","","","","","","","","",""
"","image-keyboard-response","447","224027","0.0-447.0","","","","","9.699999809265137","img/land6.png","75","10.100000143051147","2","0","3","2","1,0,0,0.25,0.5,0.25,0.25,0.25,0.5","0,1,0,0.5,0.25,0.25,0.25,0.25,0.5","3","",""
"","html-keyboard-response","448","224328","0.0-448.0","","","","","null","<img src=""img/land6.png"" style=""width:200px;border:14px solid red;"">","null","","","","","","","","","",""
"","image-keyboard-response","449","224692","0.0-449.0","","","","","362.89999985694885","img/land6.png","74","363.40000009536743","1","0","3","2","1,0,0,0.25,0.5,0.25,0.25,0.25,0.5","0,1,0,0.5,0.25,0.25,0.25,0.25,0.5","3","",""
"","html-keyboard-response","450","224993","0.0-450.0","","","","","null","<img src=""img/land6.png"" style=""width:200px;border:14px solid red;"">","null","","","","","","","","","",""
"","image-keyboard-response","451","225139","0.0-451.0","","","","","144.90000009536743","img/land5.png","74","145.29999995231628","1","0","2","2","1,0,0,0.25,0.5,0.25,0.25,0.25,0.5","0,1,0,0.5,0.25,0.25,0.25,0.25,0.5","3","",""
"","html-keyboard-response","452","225440","0.0-452.0","","","","","null","<img src=""img/land5.png"" style=""width:200px;border:14px solid red;"">","null","","","","","","","","","",""
"","image-keyboard-response","453","225515","0.0-453.0","","","","","74.5","img/land4.png","75","75","2","1","1","2","1,0,0,0.25,0.5,0.25,0.25,0.25,0.5","0,1,0,0.5,0.25,0.25,0.25,0.25,0.5","3","",""
"","html-keyboard-response","454","225816","0.0-454.0","","","","","null","<img src=""img/land4.png"" style=""width:200px; border:14px solid green;"">","null","","","","","","","","","",""
"","image-keyboard-response","455","225931","0.0-455.0","","","","","114.09999990463257","img/land6.png","76","114.70000004768372","3","0","3","2","1,0,0,0.25,0.5,0.25,0.25,0.25,0.5","0,1,0,0.5,0.25,0.25,0.25,0.25,0.5","3","",""
"","html-keyboard-response","456","226233","0.0-456.0","","","","","null","<img src=""img/land6.png"" style=""width:200px;border:14px solid red;"">","null","","","","","","","","","",""
"","image-keyboard-response","457","226403","0.0-457.0","","","","","169.70000004768372","img/land4.png","75","170.30000019073486","2","1","1","2","1,0,0,0.25,0.5,0.25,0.25,0.25,0.5","0,1,0,0.5,0.25,0.25,0.25,0.25,0.5","3","",""
"","html-keyboard-response","458","226704","0.0-458.0","","","","","null","<img src=""img/land4.png"" style=""width:200px; border:14px solid green;"">","null","","","","","","","","","",""
"","image-keyboard-response","459","226811","0.0-459.0","","","","","105.79999995231628","img/land4.png","74","106.39999985694885","1","0","1","2","1,0,0,0.25,0.5,0.25,0.25,0.25,0.5","0,1,0,0.5,0.25,0.25,0.25,0.25,0.5","3","",""
"","html-keyboard-response","460","227112","0.0-460.0","","","","","null","<img src=""img/land4.png"" style=""width:200px;border:14px solid red;"">","null","","","","","","","","","",""
"","image-keyboard-response","461","227539","0.0-461.0","","","","","426.7000000476837","img/land6.png","76","427.2000000476837","3","0","3","2","1,0,0,0.25,0.5,0.25,0.25,0.25,0.5","0,1,0,0.5,0.25,0.25,0.25,0.25,0.5","3","",""
"","html-keyboard-response","462","227840","0.0-462.0","","","","","null","<img src=""img/land6.png"" style=""width:200px;border:14px solid red;"">","null","","","","","","","","","",""
"","image-keyboard-response","463","227891","0.0-463.0","","","","","50","img/land6.png","76","50.59999990463257","3","1","3","2","1,0,0,0.25,0.5,0.25,0.25,0.25,0.5","0,1,0,0.5,0.25,0.25,0.25,0.25,0.5","3","",""
"","html-keyboard-response","464","228192","0.0-464.0","","","","","null","<img src=""img/land6.png"" style=""width:200px; border:14px solid green;"">","null","","","","","","","","","",""
"","image-keyboard-response","465","228395","0.0-465.0","","","","","202","img/land4.png","76","202.5","3","0","1","2","1,0,0,0.25,0.5,0.25,0.25,0.25,0.5","0,1,0,0.5,0.25,0.25,0.25,0.25,0.5","3","",""
"","html-keyboard-response","466","228696","0.0-466.0","","","","","null","<img src=""img/land4.png"" style=""width:200px;border:14px solid red;"">","null","","","","","","","","","",""
"","image-keyboard-response","467","228747","0.0-467.0","","","","","49.60000014305115","img/land5.png","76","50.19999980926514","3","0","2","2","1,0,0,0.25,0.5,0.25,0.25,0.25,0.5","0,1,0,0.5,0.25,0.25,0.25,0.25,0.5","3","",""
"","html-keyboard-response","468","229048","0.0-468.0","","","","","null","<img src=""img/land5.png"" style=""width:200px;border:14px solid red;"">","null","","","","","","","","","",""
"","image-keyboard-response","469","229091","0.0-469.0","","","","","42.59999990463257","img/land4.png","76","43.09999990463257","3","0","1","2","1,0,0,0.25,0.5,0.25,0.25,0.25,0.5","0,1,0,0.5,0.25,0.25,0.25,0.25,0.5","3","",""
"","html-keyboard-response","470","229392","0.0-470.0","","","","","null","<img src=""img/land4.png"" style=""width:200px;border:14px solid red;"">","null","","","","","","","","","",""
"","image-keyboard-response","471","229411","0.0-471.0","","","","","18.5","img/land5.png","76","18.899999856948853","3","0","2","2","1,0,0,0.25,0.5,0.25,0.25,0.25,0.5","0,1,0,0.5,0.25,0.25,0.25,0.25,0.5","3","",""
"","html-keyboard-response","472","229711","0.0-472.0","","","","","null","<img src=""img/land5.png"" style=""width:200px;border:14px solid red;"">","null","","","","","","","","","",""
"","image-keyboard-response","473","229755","0.0-473.0","","","","","43.39999985694885","img/land6.png","76","43.799999952316284","3","0","3","2","1,0,0,0.25,0.5,0.25,0.25,0.25,0.5","0,1,0,0.5,0.25,0.25,0.25,0.25,0.5","3","",""
"","html-keyboard-response","474","230056","0.0-474.0","","","","","null","<img src=""img/land6.png"" style=""width:200px;border:14px solid red;"">","null","","","","","","","","","",""
"","image-keyboard-response","475","230107","0.0-475.0","","","","","50","img/land6.png","76","50.5","3","1","3","2","1,0,0,0.25,0.5,0.25,0.25,0.25,0.5","0,1,0,0.5,0.25,0.25,0.25,0.25,0.5","3","",""
"","html-keyboard-response","476","230409","0.0-476.0","","","","","null","<img src=""img/land6.png"" style=""width:200px; border:14px solid green;"">","null","","","","","","","","","",""
"","image-keyboard-response","477","230579","0.0-477.0","","","","","169.69999980926514","img/land5.png","75","170.29999995231628","2","0","2","2","1,0,0,0.25,0.5,0.25,0.25,0.25,0.5","0,1,0,0.5,0.25,0.25,0.25,0.25,0.5","3","",""
"","html-keyboard-response","478","230881","0.0-478.0","","","","","null","<img src=""img/land5.png"" style=""width:200px;border:14px solid red;"">","null","","","","","","","","","",""
"","image-keyboard-response","479","230899","0.0-479.0","","","","","17.5","img/land4.png","75","18.200000047683716","2","1","1","2","1,0,0,0.25,0.5,0.25,0.25,0.25,0.5","0,1,0,0.5,0.25,0.25,0.25,0.25,0.5","3","",""
"","html-keyboard-response","480","231201","0.0-480.0","","","","","null","<img src=""img/land4.png"" style=""width:200px; border:14px solid green;"">","null","","","","","","","","","",""
"","image-keyboard-response","481","231435","0.0-481.0","","","","","233.70000004768372","img/land5.png","75","234.20000004768372","2","0","2","2","1,0,0,0.25,0.5,0.25,0.25,0.25,0.5","0,1,0,0.5,0.25,0.25,0.25,0.25,0.5","3","",""
"","html-keyboard-response","482","231736","0.0-482.0","","","","","null","<img src=""img/land5.png"" style=""width:200px;border:14px solid red;"">","null","","","","","","","","","",""
"","instructions","483","234573","0.0-483.0","","","","[{""page_index"":0,""viewing_time"":2836.5}]","2836.7000000476837","","","","","","","","","","","",""
"","survey-text","484","238130","0.0-484.0-0.0","","","","","3554.7000000476837","","","","","","","","","","","{""Q0"":""37""}",""
"","survey-multi-choice","485","240238","0.0-484.0-1.0","","","","","2106.7000000476837","","","","","","","","","","","{""gender"":""M""}","[0]"
"","survey-text","486","248860","0.0-485.0","","","","","8620.5","","","","","","","","","","","{""Q0"":""A3S3WYVCVWW8IZ""}",""
