"success","trial_type","trial_index","time_elapsed","internal_node_id","assignmentID","mturkID","hitID","view_history","rt","stimulus","key_press","reactionTime","a","r","s","cond","reward_cond","reward_cond_actual","reward_matrix_idx","responses","question_order"
"true","fullscreen","0","5173","0.0-0.0","34MAJL3QP59OU7Y903933TDVNJK43R","A3SMOU11PC1TE2","3ECKRY5B1QIH1N6NFX1ECCW5ZDKIZQ","","","","","","","","","","","","","",""
"","instructions","1","26092","0.0-1.0","34MAJL3QP59OU7Y903933TDVNJK43R","A3SMOU11PC1TE2","3ECKRY5B1QIH1N6NFX1ECCW5ZDKIZQ","[{""page_index"":0,""viewing_time"":2155.300000000745},{""page_index"":1,""viewing_time"":1641.7999999998137},{""page_index"":2,""viewing_time"":2422.0999999996275},{""page_index"":3,""viewing_time"":3172},{""page_index"":4,""viewing_time"":1112.1000000005588},{""page_index"":5,""viewing_time"":4331.899999999441},{""page_index"":6,""viewing_time"":6083.100000000559}]","20918.5","","","","","","","","","","","",""
"","image-keyboard-response","2","26785","0.0-2.0","34MAJL3QP59OU7Y903933TDVNJK43R","A3SMOU11PC1TE2","3ECKRY5B1QIH1N6NFX1ECCW5ZDKIZQ","","692","img/land4.png","76","692.7000000001863","3","0","3","1","0.8,0.2,0.2,0.2,0.8,0.2,0.2,0.2,0.8","0.8,0.2,0.2,0.2,0.8,0.2,0.2,0.2,0.8","1","",""
"","html-keyboard-response","3","27091","0.0-3.0","34MAJL3QP59OU7Y903933TDVNJK43R","A3SMOU11PC1TE2","3ECKRY5B1QIH1N6NFX1ECCW5ZDKIZQ","","null","<img src=""img/land4.png"" style=""width:200px;border:14px solid red;"">","null","","","","","","","","","",""
"","image-keyboard-response","4","27799","0.0-4.0","34MAJL3QP59OU7Y903933TDVNJK43R","A3SMOU11PC1TE2","3ECKRY5B1QIH1N6NFX1ECCW5ZDKIZQ","","707.3999999994412","img/land3.png","76","707.9000000003725","3","0","1","1","0.8,0.2,0.2,0.2,0.8,0.2,0.2,0.2,0.8","0.8,0.2,0.2,0.2,0.8,0.2,0.2,0.2,0.8","1","",""
"","html-keyboard-response","5","28111","0.0-5.0","34MAJL3QP59OU7Y903933TDVNJK43R","A3SMOU11PC1TE2","3ECKRY5B1QIH1N6NFX1ECCW5ZDKIZQ","","null","<img src=""img/land3.png"" style=""width:200px;border:14px solid red;"">","null","","","","","","","","","",""
"","image-keyboard-response","6","28757","0.0-6.0","34MAJL3QP59OU7Y903933TDVNJK43R","A3SMOU11PC1TE2","3ECKRY5B1QIH1N6NFX1ECCW5ZDKIZQ","","645.5999999996275","img/land4.png","76","646.0999999996275","3","1","3","1","0.8,0.2,0.2,0.2,0.8,0.2,0.2,0.2,0.8","0.8,0.2,0.2,0.2,0.8,0.2,0.2,0.2,0.8","1","",""
"","html-keyboard-response","7","29068","0.0-7.0","34MAJL3QP59OU7Y903933TDVNJK43R","A3SMOU11PC1TE2","3ECKRY5B1QIH1N6NFX1ECCW5ZDKIZQ","","null","<img src=""img/land4.png"" style=""width:200px; border:14px solid green;"">","null","","","","","","","","","",""
"","image-keyboard-response","8","29957","0.0-8.0","34MAJL3QP59OU7Y903933TDVNJK43R","A3SMOU11PC1TE2","3ECKRY5B1QIH1N6NFX1ECCW5ZDKIZQ","","888.8000000007451","img/land3.png","75","889.2999999998137","2","0","1","1","0.8,0.2,0.2,0.2,0.8,0.2,0.2,0.2,0.8","0.8,0.2,0.2,0.2,0.8,0.2,0.2,0.2,0.8","1","",""
"","html-keyboard-response","9","30258","0.0-9.0","34MAJL3QP59OU7Y903933TDVNJK43R","A3SMOU11PC1TE2","3ECKRY5B1QIH1N6NFX1ECCW5ZDKIZQ","","null","<img src=""img/land3.png"" style=""width:200px;border:14px solid red;"">","null","","","","","","","","","",""
"","image-keyboard-response","10","31069","0.0-10.0","34MAJL3QP59OU7Y903933TDVNJK43R","A3SMOU11PC1TE2","3ECKRY5B1QIH1N6NFX1ECCW5ZDKIZQ","","810.2000000001863","img/land2.png","74","810.6999999992549","1","1","2","1","0.8,0.2,0.2,0.2,0.8,0.2,0.2,0.2,0.8","0.8,0.2,0.2,0.2,0.8,0.2,0.2,0.2,0.8","1","",""
"","html-keyboard-response","11","31370","0.0-11.0","34MAJL3QP59OU7Y903933TDVNJK43R","A3SMOU11PC1TE2","3ECKRY5B1QIH1N6NFX1ECCW5ZDKIZQ","","null","<img src=""img/land2.png"" style=""width:200px; border:14px solid green;"">","null","","","","","","","","","",""
"","image-keyboard-response","12","32229","0.0-12.0","34MAJL3QP59OU7Y903933TDVNJK43R","A3SMOU11PC1TE2","3ECKRY5B1QIH1N6NFX1ECCW5ZDKIZQ","","858.5","img/land4.png","76","858.7999999998137","3","1","3","1","0.8,0.2,0.2,0.2,0.8,0.2,0.2,0.2,0.8","0.8,0.2,0.2,0.2,0.8,0.2,0.2,0.2,0.8","1","",""
"","html-keyboard-response","13","32530","0.0-13.0","34MAJL3QP59OU7Y903933TDVNJK43R","A3SMOU11PC1TE2","3ECKRY5B1QIH1N6NFX1ECCW5ZDKIZQ","","null","<img src=""img/land4.png"" style=""width:200px; border:14px solid green;"">","null","","","","","","","","","",""
"","image-keyboard-response","14","33575","0.0-14.0","34MAJL3QP59OU7Y903933TDVNJK43R","A3SMOU11PC1TE2","3ECKRY5B1QIH1N6NFX1ECCW5ZDKIZQ","","1044.7000000001863","img/land2.png","74","1045","1","0","2","1","0.8,0.2,0.2,0.2,0.8,0.2,0.2,0.2,0.8","0.8,0.2,0.2,0.2,0.8,0.2,0.2,0.2,0.8","1","",""
"","html-keyboard-response","15","33876","0.0-15.0","34MAJL3QP59OU7Y903933TDVNJK43R","A3SMOU11PC1TE2","3ECKRY5B1QIH1N6NFX1ECCW5ZDKIZQ","","null","<img src=""img/land2.png"" style=""width:200px;border:14px solid red;"">","null","","","","","","","","","",""
"","image-keyboard-response","16","34545","0.0-16.0","34MAJL3QP59OU7Y903933TDVNJK43R","A3SMOU11PC1TE2","3ECKRY5B1QIH1N6NFX1ECCW5ZDKIZQ","","668.7000000001863","img/land4.png","76","669.0999999996275","3","1","3","1","0.8,0.2,0.2,0.2,0.8,0.2,0.2,0.2,0.8","0.8,0.2,0.2,0.2,0.8,0.2,0.2,0.2,0.8","1","",""
"","html-keyboard-response","17","34846","0.0-17.0","34MAJL3QP59OU7Y903933TDVNJK43R","A3SMOU11PC1TE2","3ECKRY5B1QIH1N6NFX1ECCW5ZDKIZQ","","null","<img src=""img/land4.png"" style=""width:200px; border:14px solid green;"">","null","","","","","","","","","",""
"","image-keyboard-response","18","35729","0.0-18.0","34MAJL3QP59OU7Y903933TDVNJK43R","A3SMOU11PC1TE2","3ECKRY5B1QIH1N6NFX1ECCW5ZDKIZQ","","882.3000000007451","img/land3.png","75","882.7000000001863","2","1","1","1","0.8,0.2,0.2,0.2,0.8,0.2,0.2,0.2,0.8","0.8,0.2,0.2,0.2,0.8,0.2,0.2,0.2,0.8","1","",""
"","html-keyboard-response","19","36030","0.0-19.0","34MAJL3QP59OU7Y903933TDVNJK43R","A3SMOU11PC1TE2","3ECKRY5B1QIH1N6NFX1ECCW5ZDKIZQ","","null","<img src=""img/land3.png"" style=""width:200px; border:14px solid green;"">","null","","","","","","","","","",""
"","image-keyboard-response","20","37029","0.0-20.0","34MAJL3QP59OU7Y903933TDVNJK43R","A3SMOU11PC1TE2","3ECKRY5B1QIH1N6NFX1ECCW5ZDKIZQ","","998.3999999994412","img/land2.png","74","998.7999999998137","1","0","2","1","0.8,0.2,0.2,0.2,0.8,0.2,0.2,0.2,0.8","0.8,0.2,0.2,0.2,0.8,0.2,0.2,0.2,0.8","1","",""
"","html-keyboard-response","21","37330","0.0-21.0","34MAJL3QP59OU7Y903933TDVNJK43R","A3SMOU11PC1TE2","3ECKRY5B1QIH1N6NFX1ECCW5ZDKIZQ","","null","<img src=""img/land2.png"" style=""width:200px;border:14px solid red;"">","null","","","","","","","","","",""
"","image-keyboard-response","22","38139","0.0-22.0","34MAJL3QP59OU7Y903933TDVNJK43R","A3SMOU11PC1TE2","3ECKRY5B1QIH1N6NFX1ECCW5ZDKIZQ","","808.2000000001863","img/land4.png","76","808.5999999996275","3","1","3","1","0.8,0.2,0.2,0.2,0.8,0.2,0.2,0.2,0.8","0.8,0.2,0.2,0.2,0.8,0.2,0.2,0.2,0.8","1","",""
"","html-keyboard-response","23","38440","0.0-23.0","34MAJL3QP59OU7Y903933TDVNJK43R","A3SMOU11PC1TE2","3ECKRY5B1QIH1N6NFX1ECCW5ZDKIZQ","","null","<img src=""img/land4.png"" style=""width:200px; border:14px solid green;"">","null","","","","","","","","","",""
"","image-keyboard-response","24","39333","0.0-24.0","34MAJL3QP59OU7Y903933TDVNJK43R","A3SMOU11PC1TE2","3ECKRY5B1QIH1N6NFX1ECCW5ZDKIZQ","","892.7000000001863","img/land4.png","76","892.9000000003725","3","0","3","1","0.8,0.2,0.2,0.2,0.8,0.2,0.2,0.2,0.8","0.8,0.2,0.2,0.2,0.8,0.2,0.2,0.2,0.8","1","",""
"","html-keyboard-response","25","39634","0.0-25.0","34MAJL3QP59OU7Y903933TDVNJK43R","A3SMOU11PC1TE2","3ECKRY5B1QIH1N6NFX1ECCW5ZDKIZQ","","null","<img src=""img/land4.png"" style=""width:200px;border:14px solid red;"">","null","","","","","","","","","",""
"","image-keyboard-response","26","40523","0.0-26.0","34MAJL3QP59OU7Y903933TDVNJK43R","A3SMOU11PC1TE2","3ECKRY5B1QIH1N6NFX1ECCW5ZDKIZQ","","888.4000000003725","img/land2.png","75","888.7999999998137","2","1","2","1","0.8,0.2,0.2,0.2,0.8,0.2,0.2,0.2,0.8","0.8,0.2,0.2,0.2,0.8,0.2,0.2,0.2,0.8","1","",""
"","html-keyboard-response","27","40825","0.0-27.0","34MAJL3QP59OU7Y903933TDVNJK43R","A3SMOU11PC1TE2","3ECKRY5B1QIH1N6NFX1ECCW5ZDKIZQ","","null","<img src=""img/land2.png"" style=""width:200px; border:14px solid green;"">","null","","","","","","","","","",""
"","image-keyboard-response","28","41909","0.0-28.0","34MAJL3QP59OU7Y903933TDVNJK43R","A3SMOU11PC1TE2","3ECKRY5B1QIH1N6NFX1ECCW5ZDKIZQ","","1083.9000000003725","img/land4.png","76","1084.3999999994412","3","1","3","1","0.8,0.2,0.2,0.2,0.8,0.2,0.2,0.2,0.8","0.8,0.2,0.2,0.2,0.8,0.2,0.2,0.2,0.8","1","",""
"","html-keyboard-response","29","42210","0.0-29.0","34MAJL3QP59OU7Y903933TDVNJK43R","A3SMOU11PC1TE2","3ECKRY5B1QIH1N6NFX1ECCW5ZDKIZQ","","null","<img src=""img/land4.png"" style=""width:200px; border:14px solid green;"">","null","","","","","","","","","",""
"","image-keyboard-response","30","43685","0.0-30.0","34MAJL3QP59OU7Y903933TDVNJK43R","A3SMOU11PC1TE2","3ECKRY5B1QIH1N6NFX1ECCW5ZDKIZQ","","1474.1000000005588","img/land4.png","76","1474.5","3","1","3","1","0.8,0.2,0.2,0.2,0.8,0.2,0.2,0.2,0.8","0.8,0.2,0.2,0.2,0.8,0.2,0.2,0.2,0.8","1","",""
"","html-keyboard-response","31","43986","0.0-31.0","34MAJL3QP59OU7Y903933TDVNJK43R","A3SMOU11PC1TE2","3ECKRY5B1QIH1N6NFX1ECCW5ZDKIZQ","","null","<img src=""img/land4.png"" style=""width:200px; border:14px solid green;"">","null","","","","","","","","","",""
"","image-keyboard-response","32","44777","0.0-32.0","34MAJL3QP59OU7Y903933TDVNJK43R","A3SMOU11PC1TE2","3ECKRY5B1QIH1N6NFX1ECCW5ZDKIZQ","","790.9000000003725","img/land4.png","76","791.2999999998137","3","1","3","1","0.8,0.2,0.2,0.2,0.8,0.2,0.2,0.2,0.8","0.8,0.2,0.2,0.2,0.8,0.2,0.2,0.2,0.8","1","",""
"","html-keyboard-response","33","45077","0.0-33.0","34MAJL3QP59OU7Y903933TDVNJK43R","A3SMOU11PC1TE2","3ECKRY5B1QIH1N6NFX1ECCW5ZDKIZQ","","null","<img src=""img/land4.png"" style=""width:200px; border:14px solid green;"">","null","","","","","","","","","",""
"","image-keyboard-response","34","45767","0.0-34.0","34MAJL3QP59OU7Y903933TDVNJK43R","A3SMOU11PC1TE2","3ECKRY5B1QIH1N6NFX1ECCW5ZDKIZQ","","688.9000000003725","img/land3.png","75","689.3999999994412","2","0","1","1","0.8,0.2,0.2,0.2,0.8,0.2,0.2,0.2,0.8","0.8,0.2,0.2,0.2,0.8,0.2,0.2,0.2,0.8","1","",""
"","html-keyboard-response","35","46068","0.0-35.0","34MAJL3QP59OU7Y903933TDVNJK43R","A3SMOU11PC1TE2","3ECKRY5B1QIH1N6NFX1ECCW5ZDKIZQ","","null","<img src=""img/land3.png"" style=""width:200px;border:14px solid red;"">","null","","","","","","","","","",""
"","image-keyboard-response","36","46963","0.0-36.0","34MAJL3QP59OU7Y903933TDVNJK43R","A3SMOU11PC1TE2","3ECKRY5B1QIH1N6NFX1ECCW5ZDKIZQ","","894.5999999996275","img/land2.png","75","895","2","0","2","1","0.8,0.2,0.2,0.2,0.8,0.2,0.2,0.2,0.8","0.8,0.2,0.2,0.2,0.8,0.2,0.2,0.2,0.8","1","",""
"","html-keyboard-response","37","47264","0.0-37.0","34MAJL3QP59OU7Y903933TDVNJK43R","A3SMOU11PC1TE2","3ECKRY5B1QIH1N6NFX1ECCW5ZDKIZQ","","null","<img src=""img/land2.png"" style=""width:200px;border:14px solid red;"">","null","","","","","","","","","",""
"","image-keyboard-response","38","48483","0.0-38.0","34MAJL3QP59OU7Y903933TDVNJK43R","A3SMOU11PC1TE2","3ECKRY5B1QIH1N6NFX1ECCW5ZDKIZQ","","1218.699999999255","img/land4.png","76","1219.1000000005588","3","0","3","1","0.8,0.2,0.2,0.2,0.8,0.2,0.2,0.2,0.8","0.8,0.2,0.2,0.2,0.8,0.2,0.2,0.2,0.8","1","",""
"","html-keyboard-response","39","48784","0.0-39.0","34MAJL3QP59OU7Y903933TDVNJK43R","A3SMOU11PC1TE2","3ECKRY5B1QIH1N6NFX1ECCW5ZDKIZQ","","null","<img src=""img/land4.png"" style=""width:200px;border:14px solid red;"">","null","","","","","","","","","",""
"","image-keyboard-response","40","50393","0.0-40.0","34MAJL3QP59OU7Y903933TDVNJK43R","A3SMOU11PC1TE2","3ECKRY5B1QIH1N6NFX1ECCW5ZDKIZQ","","1608.2000000001863","img/land3.png","75","1608.5","2","0","1","1","0.8,0.2,0.2,0.2,0.8,0.2,0.2,0.2,0.8","0.8,0.2,0.2,0.2,0.8,0.2,0.2,0.2,0.8","1","",""
"","html-keyboard-response","41","50704","0.0-41.0","34MAJL3QP59OU7Y903933TDVNJK43R","A3SMOU11PC1TE2","3ECKRY5B1QIH1N6NFX1ECCW5ZDKIZQ","","null","<img src=""img/land3.png"" style=""width:200px;border:14px solid red;"">","null","","","","","","","","","",""
"","image-keyboard-response","42","51405","0.0-42.0","34MAJL3QP59OU7Y903933TDVNJK43R","A3SMOU11PC1TE2","3ECKRY5B1QIH1N6NFX1ECCW5ZDKIZQ","","700.0999999996275","img/land3.png","75","700.5999999996275","2","1","1","1","0.8,0.2,0.2,0.2,0.8,0.2,0.2,0.2,0.8","0.8,0.2,0.2,0.2,0.8,0.2,0.2,0.2,0.8","1","",""
"","html-keyboard-response","43","51706","0.0-43.0","34MAJL3QP59OU7Y903933TDVNJK43R","A3SMOU11PC1TE2","3ECKRY5B1QIH1N6NFX1ECCW5ZDKIZQ","","null","<img src=""img/land3.png"" style=""width:200px; border:14px solid green;"">","null","","","","","","","","","",""
"","image-keyboard-response","44","52645","0.0-44.0","34MAJL3QP59OU7Y903933TDVNJK43R","A3SMOU11PC1TE2","3ECKRY5B1QIH1N6NFX1ECCW5ZDKIZQ","","938.6000000005588","img/land2.png","76","938.9000000003725","3","1","2","1","0.8,0.2,0.2,0.2,0.8,0.2,0.2,0.2,0.8","0.8,0.2,0.2,0.2,0.8,0.2,0.2,0.2,0.8","1","",""
"","html-keyboard-response","45","52946","0.0-45.0","34MAJL3QP59OU7Y903933TDVNJK43R","A3SMOU11PC1TE2","3ECKRY5B1QIH1N6NFX1ECCW5ZDKIZQ","","null","<img src=""img/land2.png"" style=""width:200px; border:14px solid green;"">","null","","","","","","","","","",""
"","image-keyboard-response","46","54065","0.0-46.0","34MAJL3QP59OU7Y903933TDVNJK43R","A3SMOU11PC1TE2","3ECKRY5B1QIH1N6NFX1ECCW5ZDKIZQ","","1118.5999999996275","img/land3.png","76","1118.9000000003725","3","0","1","1","0.8,0.2,0.2,0.2,0.8,0.2,0.2,0.2,0.8","0.8,0.2,0.2,0.2,0.8,0.2,0.2,0.2,0.8","1","",""
"","html-keyboard-response","47","54366","0.0-47.0","34MAJL3QP59OU7Y903933TDVNJK43R","A3SMOU11PC1TE2","3ECKRY5B1QIH1N6NFX1ECCW5ZDKIZQ","","null","<img src=""img/land3.png"" style=""width:200px;border:14px solid red;"">","null","","","","","","","","","",""
"","image-keyboard-response","48","54887","0.0-48.0","34MAJL3QP59OU7Y903933TDVNJK43R","A3SMOU11PC1TE2","3ECKRY5B1QIH1N6NFX1ECCW5ZDKIZQ","","520.4000000003725","img/land3.png","75","520.7000000001863","2","0","1","1","0.8,0.2,0.2,0.2,0.8,0.2,0.2,0.2,0.8","0.8,0.2,0.2,0.2,0.8,0.2,0.2,0.2,0.8","1","",""
"","html-keyboard-response","49","55188","0.0-49.0","34MAJL3QP59OU7Y903933TDVNJK43R","A3SMOU11PC1TE2","3ECKRY5B1QIH1N6NFX1ECCW5ZDKIZQ","","null","<img src=""img/land3.png"" style=""width:200px;border:14px solid red;"">","null","","","","","","","","","",""
"","image-keyboard-response","50","55997","0.0-50.0","34MAJL3QP59OU7Y903933TDVNJK43R","A3SMOU11PC1TE2","3ECKRY5B1QIH1N6NFX1ECCW5ZDKIZQ","","808.0999999996275","img/land4.png","76","808.6000000005588","3","1","3","1","0.8,0.2,0.2,0.2,0.8,0.2,0.2,0.2,0.8","0.8,0.2,0.2,0.2,0.8,0.2,0.2,0.2,0.8","1","",""
"","html-keyboard-response","51","56298","0.0-51.0","34MAJL3QP59OU7Y903933TDVNJK43R","A3SMOU11PC1TE2","3ECKRY5B1QIH1N6NFX1ECCW5ZDKIZQ","","null","<img src=""img/land4.png"" style=""width:200px; border:14px solid green;"">","null","","","","","","","","","",""
"","image-keyboard-response","52","57031","0.0-52.0","34MAJL3QP59OU7Y903933TDVNJK43R","A3SMOU11PC1TE2","3ECKRY5B1QIH1N6NFX1ECCW5ZDKIZQ","","732.6000000005588","img/land3.png","75","732.9000000003725","2","1","1","1","0.8,0.2,0.2,0.2,0.8,0.2,0.2,0.2,0.8","0.8,0.2,0.2,0.2,0.8,0.2,0.2,0.2,0.8","1","",""
"","html-keyboard-response","53","57332","0.0-53.0","34MAJL3QP59OU7Y903933TDVNJK43R","A3SMOU11PC1TE2","3ECKRY5B1QIH1N6NFX1ECCW5ZDKIZQ","","null","<img src=""img/land3.png"" style=""width:200px; border:14px solid green;"">","null","","","","","","","","","",""
"","image-keyboard-response","54","58539","0.0-54.0","34MAJL3QP59OU7Y903933TDVNJK43R","A3SMOU11PC1TE2","3ECKRY5B1QIH1N6NFX1ECCW5ZDKIZQ","","1206.7000000001863","img/land2.png","76","1207","3","0","2","1","0.8,0.2,0.2,0.2,0.8,0.2,0.2,0.2,0.8","0.8,0.2,0.2,0.2,0.8,0.2,0.2,0.2,0.8","1","",""
"","html-keyboard-response","55","58840","0.0-55.0","34MAJL3QP59OU7Y903933TDVNJK43R","A3SMOU11PC1TE2","3ECKRY5B1QIH1N6NFX1ECCW5ZDKIZQ","","null","<img src=""img/land2.png"" style=""width:200px;border:14px solid red;"">","null","","","","","","","","","",""
"","image-keyboard-response","56","59571","0.0-56.0","34MAJL3QP59OU7Y903933TDVNJK43R","A3SMOU11PC1TE2","3ECKRY5B1QIH1N6NFX1ECCW5ZDKIZQ","","730.9000000003725","img/land3.png","75","731.3999999994412","2","0","1","1","0.8,0.2,0.2,0.2,0.8,0.2,0.2,0.2,0.8","0.8,0.2,0.2,0.2,0.8,0.2,0.2,0.2,0.8","1","",""
"","html-keyboard-response","57","59872","0.0-57.0","34MAJL3QP59OU7Y903933TDVNJK43R","A3SMOU11PC1TE2","3ECKRY5B1QIH1N6NFX1ECCW5ZDKIZQ","","null","<img src=""img/land3.png"" style=""width:200px;border:14px solid red;"">","null","","","","","","","","","",""
"","image-keyboard-response","58","60959","0.0-58.0","34MAJL3QP59OU7Y903933TDVNJK43R","A3SMOU11PC1TE2","3ECKRY5B1QIH1N6NFX1ECCW5ZDKIZQ","","1086.4000000003725","img/land2.png","76","1086.7999999998137","3","0","2","1","0.8,0.2,0.2,0.2,0.8,0.2,0.2,0.2,0.8","0.8,0.2,0.2,0.2,0.8,0.2,0.2,0.2,0.8","1","",""
"","html-keyboard-response","59","61259","0.0-59.0","34MAJL3QP59OU7Y903933TDVNJK43R","A3SMOU11PC1TE2","3ECKRY5B1QIH1N6NFX1ECCW5ZDKIZQ","","null","<img src=""img/land2.png"" style=""width:200px;border:14px solid red;"">","null","","","","","","","","","",""
"","image-keyboard-response","60","62257","0.0-60.0","34MAJL3QP59OU7Y903933TDVNJK43R","A3SMOU11PC1TE2","3ECKRY5B1QIH1N6NFX1ECCW5ZDKIZQ","","997.0999999996275","img/land2.png","75","997.5","2","1","2","1","0.8,0.2,0.2,0.2,0.8,0.2,0.2,0.2,0.8","0.8,0.2,0.2,0.2,0.8,0.2,0.2,0.2,0.8","1","",""
"","html-keyboard-response","61","62559","0.0-61.0","34MAJL3QP59OU7Y903933TDVNJK43R","A3SMOU11PC1TE2","3ECKRY5B1QIH1N6NFX1ECCW5ZDKIZQ","","null","<img src=""img/land2.png"" style=""width:200px; border:14px solid green;"">","null","","","","","","","","","",""
"","image-keyboard-response","62","63351","0.0-62.0","34MAJL3QP59OU7Y903933TDVNJK43R","A3SMOU11PC1TE2","3ECKRY5B1QIH1N6NFX1ECCW5ZDKIZQ","","792.4000000003725","img/land2.png","75","792.7999999998137","2","1","2","1","0.8,0.2,0.2,0.2,0.8,0.2,0.2,0.2,0.8","0.8,0.2,0.2,0.2,0.8,0.2,0.2,0.2,0.8","1","",""
"","html-keyboard-response","63","63652","0.0-63.0","34MAJL3QP59OU7Y903933TDVNJK43R","A3SMOU11PC1TE2","3ECKRY5B1QIH1N6NFX1ECCW5ZDKIZQ","","null","<img src=""img/land2.png"" style=""width:200px; border:14px solid green;"">","null","","","","","","","","","",""
"","image-keyboard-response","64","64391","0.0-64.0","34MAJL3QP59OU7Y903933TDVNJK43R","A3SMOU11PC1TE2","3ECKRY5B1QIH1N6NFX1ECCW5ZDKIZQ","","739","img/land3.png","75","739.2000000001863","2","0","1","1","0.8,0.2,0.2,0.2,0.8,0.2,0.2,0.2,0.8","0.8,0.2,0.2,0.2,0.8,0.2,0.2,0.2,0.8","1","",""
"","html-keyboard-response","65","64693","0.0-65.0","34MAJL3QP59OU7Y903933TDVNJK43R","A3SMOU11PC1TE2","3ECKRY5B1QIH1N6NFX1ECCW5ZDKIZQ","","null","<img src=""img/land3.png"" style=""width:200px;border:14px solid red;"">","null","","","","","","","","","",""
"","image-keyboard-response","66","65483","0.0-66.0","34MAJL3QP59OU7Y903933TDVNJK43R","A3SMOU11PC1TE2","3ECKRY5B1QIH1N6NFX1ECCW5ZDKIZQ","","790.3999999994412","img/land2.png","75","790.7999999998137","2","1","2","1","0.8,0.2,0.2,0.2,0.8,0.2,0.2,0.2,0.8","0.8,0.2,0.2,0.2,0.8,0.2,0.2,0.2,0.8","1","",""
"","html-keyboard-response","67","65785","0.0-67.0","34MAJL3QP59OU7Y903933TDVNJK43R","A3SMOU11PC1TE2","3ECKRY5B1QIH1N6NFX1ECCW5ZDKIZQ","","null","<img src=""img/land2.png"" style=""width:200px; border:14px solid green;"">","null","","","","","","","","","",""
"","image-keyboard-response","68","66289","0.0-68.0","34MAJL3QP59OU7Y903933TDVNJK43R","A3SMOU11PC1TE2","3ECKRY5B1QIH1N6NFX1ECCW5ZDKIZQ","","503.70000000018626","img/land3.png","75","504","2","0","1","1","0.8,0.2,0.2,0.2,0.8,0.2,0.2,0.2,0.8","0.8,0.2,0.2,0.2,0.8,0.2,0.2,0.2,0.8","1","",""
"","html-keyboard-response","69","66605","0.0-69.0","34MAJL3QP59OU7Y903933TDVNJK43R","A3SMOU11PC1TE2","3ECKRY5B1QIH1N6NFX1ECCW5ZDKIZQ","","null","<img src=""img/land3.png"" style=""width:200px;border:14px solid red;"">","null","","","","","","","","","",""
"","image-keyboard-response","70","67265","0.0-70.0","34MAJL3QP59OU7Y903933TDVNJK43R","A3SMOU11PC1TE2","3ECKRY5B1QIH1N6NFX1ECCW5ZDKIZQ","","660","img/land4.png","76","660.3999999994412","3","1","3","1","0.8,0.2,0.2,0.2,0.8,0.2,0.2,0.2,0.8","0.8,0.2,0.2,0.2,0.8,0.2,0.2,0.2,0.8","1","",""
"","html-keyboard-response","71","67566","0.0-71.0","34MAJL3QP59OU7Y903933TDVNJK43R","A3SMOU11PC1TE2","3ECKRY5B1QIH1N6NFX1ECCW5ZDKIZQ","","null","<img src=""img/land4.png"" style=""width:200px; border:14px solid green;"">","null","","","","","","","","","",""
"","image-keyboard-response","72","68914","0.0-72.0","34MAJL3QP59OU7Y903933TDVNJK43R","A3SMOU11PC1TE2","3ECKRY5B1QIH1N6NFX1ECCW5ZDKIZQ","","1346.5999999996275","img/land4.png","76","1347","3","1","3","1","0.8,0.2,0.2,0.2,0.8,0.2,0.2,0.2,0.8","0.8,0.2,0.2,0.2,0.8,0.2,0.2,0.2,0.8","1","",""
"","html-keyboard-response","73","69215","0.0-73.0","34MAJL3QP59OU7Y903933TDVNJK43R","A3SMOU11PC1TE2","3ECKRY5B1QIH1N6NFX1ECCW5ZDKIZQ","","null","<img src=""img/land4.png"" style=""width:200px; border:14px solid green;"">","null","","","","","","","","","",""
"","image-keyboard-response","74","69773","0.0-74.0","34MAJL3QP59OU7Y903933TDVNJK43R","A3SMOU11PC1TE2","3ECKRY5B1QIH1N6NFX1ECCW5ZDKIZQ","","558","img/land4.png","76","558.2999999998137","3","1","3","1","0.8,0.2,0.2,0.2,0.8,0.2,0.2,0.2,0.8","0.8,0.2,0.2,0.2,0.8,0.2,0.2,0.2,0.8","1","",""
"","html-keyboard-response","75","70074","0.0-75.0","34MAJL3QP59OU7Y903933TDVNJK43R","A3SMOU11PC1TE2","3ECKRY5B1QIH1N6NFX1ECCW5ZDKIZQ","","null","<img src=""img/land4.png"" style=""width:200px; border:14px solid green;"">","null","","","","","","","","","",""
"","image-keyboard-response","76","71074","0.0-76.0","34MAJL3QP59OU7Y903933TDVNJK43R","A3SMOU11PC1TE2","3ECKRY5B1QIH1N6NFX1ECCW5ZDKIZQ","","998.7999999998137","img/land2.png","75","999.2999999998137","2","0","2","1","0.8,0.2,0.2,0.2,0.8,0.2,0.2,0.2,0.8","0.8,0.2,0.2,0.2,0.8,0.2,0.2,0.2,0.8","1","",""
"","html-keyboard-response","77","71375","0.0-77.0","34MAJL3QP59OU7Y903933TDVNJK43R","A3SMOU11PC1TE2","3ECKRY5B1QIH1N6NFX1ECCW5ZDKIZQ","","null","<img src=""img/land2.png"" style=""width:200px;border:14px solid red;"">","null","","","","","","","","","",""
"","image-keyboard-response","78","72320","0.0-78.0","34MAJL3QP59OU7Y903933TDVNJK43R","A3SMOU11PC1TE2","3ECKRY5B1QIH1N6NFX1ECCW5ZDKIZQ","","944.3000000007451","img/land4.png","76","944.6999999992549","3","1","3","1","0.8,0.2,0.2,0.2,0.8,0.2,0.2,0.2,0.8","0.8,0.2,0.2,0.2,0.8,0.2,0.2,0.2,0.8","1","",""
"","html-keyboard-response","79","72621","0.0-79.0","34MAJL3QP59OU7Y903933TDVNJK43R","A3SMOU11PC1TE2","3ECKRY5B1QIH1N6NFX1ECCW5ZDKIZQ","","null","<img src=""img/land4.png"" style=""width:200px; border:14px solid green;"">","null","","","","","","","","","",""
"","image-keyboard-response","80","73267","0.0-80.0","34MAJL3QP59OU7Y903933TDVNJK43R","A3SMOU11PC1TE2","3ECKRY5B1QIH1N6NFX1ECCW5ZDKIZQ","","646.1000000005588","img/land2.png","75","646.5","2","1","2","1","0.8,0.2,0.2,0.2,0.8,0.2,0.2,0.2,0.8","0.8,0.2,0.2,0.2,0.8,0.2,0.2,0.2,0.8","1","",""
"","html-keyboard-response","81","73569","0.0-81.0","34MAJL3QP59OU7Y903933TDVNJK43R","A3SMOU11PC1TE2","3ECKRY5B1QIH1N6NFX1ECCW5ZDKIZQ","","null","<img src=""img/land2.png"" style=""width:200px; border:14px solid green;"">","null","","","","","","","","","",""
"","image-keyboard-response","82","74357","0.0-82.0","34MAJL3QP59OU7Y903933TDVNJK43R","A3SMOU11PC1TE2","3ECKRY5B1QIH1N6NFX1ECCW5ZDKIZQ","","788.4000000003725","img/land4.png","76","788.7999999998137","3","0","3","1","0.8,0.2,0.2,0.2,0.8,0.2,0.2,0.2,0.8","0.8,0.2,0.2,0.2,0.8,0.2,0.2,0.2,0.8","1","",""
"","html-keyboard-response","83","74658","0.0-83.0","34MAJL3QP59OU7Y903933TDVNJK43R","A3SMOU11PC1TE2","3ECKRY5B1QIH1N6NFX1ECCW5ZDKIZQ","","null","<img src=""img/land4.png"" style=""width:200px;border:14px solid red;"">","null","","","","","","","","","",""
"","image-keyboard-response","84","75307","0.0-84.0","34MAJL3QP59OU7Y903933TDVNJK43R","A3SMOU11PC1TE2","3ECKRY5B1QIH1N6NFX1ECCW5ZDKIZQ","","649","img/land4.png","76","649.2999999998137","3","0","3","1","0.8,0.2,0.2,0.2,0.8,0.2,0.2,0.2,0.8","0.8,0.2,0.2,0.2,0.8,0.2,0.2,0.2,0.8","1","",""
"","html-keyboard-response","85","75609","0.0-85.0","34MAJL3QP59OU7Y903933TDVNJK43R","A3SMOU11PC1TE2","3ECKRY5B1QIH1N6NFX1ECCW5ZDKIZQ","","null","<img src=""img/land4.png"" style=""width:200px;border:14px solid red;"">","null","","","","","","","","","",""
"","image-keyboard-response","86","76386","0.0-86.0","34MAJL3QP59OU7Y903933TDVNJK43R","A3SMOU11PC1TE2","3ECKRY5B1QIH1N6NFX1ECCW5ZDKIZQ","","776.2999999998137","img/land2.png","75","776.5999999996275","2","1","2","1","0.8,0.2,0.2,0.2,0.8,0.2,0.2,0.2,0.8","0.8,0.2,0.2,0.2,0.8,0.2,0.2,0.2,0.8","1","",""
"","html-keyboard-response","87","76686","0.0-87.0","34MAJL3QP59OU7Y903933TDVNJK43R","A3SMOU11PC1TE2","3ECKRY5B1QIH1N6NFX1ECCW5ZDKIZQ","","null","<img src=""img/land2.png"" style=""width:200px; border:14px solid green;"">","null","","","","","","","","","",""
"","image-keyboard-response","88","77636","0.0-88.0","34MAJL3QP59OU7Y903933TDVNJK43R","A3SMOU11PC1TE2","3ECKRY5B1QIH1N6NFX1ECCW5ZDKIZQ","","948.7000000001863","img/land2.png","75","949.2000000001863","2","1","2","1","0.8,0.2,0.2,0.2,0.8,0.2,0.2,0.2,0.8","0.8,0.2,0.2,0.2,0.8,0.2,0.2,0.2,0.8","1","",""
"","html-keyboard-response","89","77936","0.0-89.0","34MAJL3QP59OU7Y903933TDVNJK43R","A3SMOU11PC1TE2","3ECKRY5B1QIH1N6NFX1ECCW5ZDKIZQ","","null","<img src=""img/land2.png"" style=""width:200px; border:14px solid green;"">","null","","","","","","","","","",""
"","image-keyboard-response","90","78605","0.0-90.0","34MAJL3QP59OU7Y903933TDVNJK43R","A3SMOU11PC1TE2","3ECKRY5B1QIH1N6NFX1ECCW5ZDKIZQ","","668.5","img/land2.png","75","668.7999999998137","2","1","2","1","0.8,0.2,0.2,0.2,0.8,0.2,0.2,0.2,0.8","0.8,0.2,0.2,0.2,0.8,0.2,0.2,0.2,0.8","1","",""
"","html-keyboard-response","91","78919","0.0-91.0","34MAJL3QP59OU7Y903933TDVNJK43R","A3SMOU11PC1TE2","3ECKRY5B1QIH1N6NFX1ECCW5ZDKIZQ","","null","<img src=""img/land2.png"" style=""width:200px; border:14px solid green;"">","null","","","","","","","","","",""
"","image-keyboard-response","92","79490","0.0-92.0","34MAJL3QP59OU7Y903933TDVNJK43R","A3SMOU11PC1TE2","3ECKRY5B1QIH1N6NFX1ECCW5ZDKIZQ","","570.2999999998137","img/land4.png","76","570.7000000001863","3","1","3","1","0.8,0.2,0.2,0.2,0.8,0.2,0.2,0.2,0.8","0.8,0.2,0.2,0.2,0.8,0.2,0.2,0.2,0.8","1","",""
"","html-keyboard-response","93","79791","0.0-93.0","34MAJL3QP59OU7Y903933TDVNJK43R","A3SMOU11PC1TE2","3ECKRY5B1QIH1N6NFX1ECCW5ZDKIZQ","","null","<img src=""img/land4.png"" style=""width:200px; border:14px solid green;"">","null","","","","","","","","","",""
"","image-keyboard-response","94","80409","0.0-94.0","34MAJL3QP59OU7Y903933TDVNJK43R","A3SMOU11PC1TE2","3ECKRY5B1QIH1N6NFX1ECCW5ZDKIZQ","","618.3000000007451","img/land2.png","75","618.7000000001863","2","1","2","1","0.8,0.2,0.2,0.2,0.8,0.2,0.2,0.2,0.8","0.8,0.2,0.2,0.2,0.8,0.2,0.2,0.2,0.8","1","",""
"","html-keyboard-response","95","80710","0.0-95.0","34MAJL3QP59OU7Y903933TDVNJK43R","A3SMOU11PC1TE2","3ECKRY5B1QIH1N6NFX1ECCW5ZDKIZQ","","null","<img src=""img/land2.png"" style=""width:200px; border:14px solid green;"">","null","","","","","","","","","",""
"","image-keyboard-response","96","81583","0.0-96.0","34MAJL3QP59OU7Y903933TDVNJK43R","A3SMOU11PC1TE2","3ECKRY5B1QIH1N6NFX1ECCW5ZDKIZQ","","872.5","img/land3.png","74","872.9000000003725","1","1","1","1","0.8,0.2,0.2,0.2,0.8,0.2,0.2,0.2,0.8","0.8,0.2,0.2,0.2,0.8,0.2,0.2,0.2,0.8","1","",""
"","html-keyboard-response","97","81884","0.0-97.0","34MAJL3QP59OU7Y903933TDVNJK43R","A3SMOU11PC1TE2","3ECKRY5B1QIH1N6NFX1ECCW5ZDKIZQ","","null","<img src=""img/land3.png"" style=""width:200px; border:14px solid green;"">","null","","","","","","","","","",""
"","image-keyboard-response","98","82663","0.0-98.0","34MAJL3QP59OU7Y903933TDVNJK43R","A3SMOU11PC1TE2","3ECKRY5B1QIH1N6NFX1ECCW5ZDKIZQ","","779","img/land4.png","76","779.5","3","1","3","1","0.8,0.2,0.2,0.2,0.8,0.2,0.2,0.2,0.8","0.8,0.2,0.2,0.2,0.8,0.2,0.2,0.2,0.8","1","",""
"","html-keyboard-response","99","82965","0.0-99.0","34MAJL3QP59OU7Y903933TDVNJK43R","A3SMOU11PC1TE2","3ECKRY5B1QIH1N6NFX1ECCW5ZDKIZQ","","null","<img src=""img/land4.png"" style=""width:200px; border:14px solid green;"">","null","","","","","","","","","",""
"","image-keyboard-response","100","84860","0.0-100.0","34MAJL3QP59OU7Y903933TDVNJK43R","A3SMOU11PC1TE2","3ECKRY5B1QIH1N6NFX1ECCW5ZDKIZQ","","1894.2999999998137","img/land2.png","75","1894.699999999255","2","1","2","1","0.8,0.2,0.2,0.2,0.8,0.2,0.2,0.2,0.8","0.8,0.2,0.2,0.2,0.8,0.2,0.2,0.2,0.8","1","",""
"","html-keyboard-response","101","85161","0.0-101.0","34MAJL3QP59OU7Y903933TDVNJK43R","A3SMOU11PC1TE2","3ECKRY5B1QIH1N6NFX1ECCW5ZDKIZQ","","null","<img src=""img/land2.png"" style=""width:200px; border:14px solid green;"">","null","","","","","","","","","",""
"","image-keyboard-response","102","85912","0.0-102.0","34MAJL3QP59OU7Y903933TDVNJK43R","A3SMOU11PC1TE2","3ECKRY5B1QIH1N6NFX1ECCW5ZDKIZQ","","750.5","img/land2.png","75","751","2","1","2","1","0.8,0.2,0.2,0.2,0.8,0.2,0.2,0.2,0.8","0.8,0.2,0.2,0.2,0.8,0.2,0.2,0.2,0.8","1","",""
"","html-keyboard-response","103","86212","0.0-103.0","34MAJL3QP59OU7Y903933TDVNJK43R","A3SMOU11PC1TE2","3ECKRY5B1QIH1N6NFX1ECCW5ZDKIZQ","","null","<img src=""img/land2.png"" style=""width:200px; border:14px solid green;"">","null","","","","","","","","","",""
"","image-keyboard-response","104","86741","0.0-104.0","34MAJL3QP59OU7Y903933TDVNJK43R","A3SMOU11PC1TE2","3ECKRY5B1QIH1N6NFX1ECCW5ZDKIZQ","","528.6000000005588","img/land4.png","76","528.9000000003725","3","1","3","1","0.8,0.2,0.2,0.2,0.8,0.2,0.2,0.2,0.8","0.8,0.2,0.2,0.2,0.8,0.2,0.2,0.2,0.8","1","",""
"","html-keyboard-response","105","87042","0.0-105.0","34MAJL3QP59OU7Y903933TDVNJK43R","A3SMOU11PC1TE2","3ECKRY5B1QIH1N6NFX1ECCW5ZDKIZQ","","null","<img src=""img/land4.png"" style=""width:200px; border:14px solid green;"">","null","","","","","","","","","",""
"","image-keyboard-response","106","87822","0.0-106.0","34MAJL3QP59OU7Y903933TDVNJK43R","A3SMOU11PC1TE2","3ECKRY5B1QIH1N6NFX1ECCW5ZDKIZQ","","779.8000000007451","img/land2.png","75","780.2000000001863","2","1","2","1","0.8,0.2,0.2,0.2,0.8,0.2,0.2,0.2,0.8","0.8,0.2,0.2,0.2,0.8,0.2,0.2,0.2,0.8","1","",""
"","html-keyboard-response","107","88135","0.0-107.0","34MAJL3QP59OU7Y903933TDVNJK43R","A3SMOU11PC1TE2","3ECKRY5B1QIH1N6NFX1ECCW5ZDKIZQ","","null","<img src=""img/land2.png"" style=""width:200px; border:14px solid green;"">","null","","","","","","","","","",""
"","image-keyboard-response","108","88888","0.0-108.0","34MAJL3QP59OU7Y903933TDVNJK43R","A3SMOU11PC1TE2","3ECKRY5B1QIH1N6NFX1ECCW5ZDKIZQ","","752.7000000001863","img/land4.png","76","753.2000000001863","3","1","3","1","0.8,0.2,0.2,0.2,0.8,0.2,0.2,0.2,0.8","0.8,0.2,0.2,0.2,0.8,0.2,0.2,0.2,0.8","1","",""
"","html-keyboard-response","109","89190","0.0-109.0","34MAJL3QP59OU7Y903933TDVNJK43R","A3SMOU11PC1TE2","3ECKRY5B1QIH1N6NFX1ECCW5ZDKIZQ","","null","<img src=""img/land4.png"" style=""width:200px; border:14px solid green;"">","null","","","","","","","","","",""
"","image-keyboard-response","110","89759","0.0-110.0","34MAJL3QP59OU7Y903933TDVNJK43R","A3SMOU11PC1TE2","3ECKRY5B1QIH1N6NFX1ECCW5ZDKIZQ","","568.2000000001863","img/land3.png","74","568.6999999992549","1","1","1","1","0.8,0.2,0.2,0.2,0.8,0.2,0.2,0.2,0.8","0.8,0.2,0.2,0.2,0.8,0.2,0.2,0.2,0.8","1","",""
"","html-keyboard-response","111","90065","0.0-111.0","34MAJL3QP59OU7Y903933TDVNJK43R","A3SMOU11PC1TE2","3ECKRY5B1QIH1N6NFX1ECCW5ZDKIZQ","","null","<img src=""img/land3.png"" style=""width:200px; border:14px solid green;"">","null","","","","","","","","","",""
"","image-keyboard-response","112","90632","0.0-112.0","34MAJL3QP59OU7Y903933TDVNJK43R","A3SMOU11PC1TE2","3ECKRY5B1QIH1N6NFX1ECCW5ZDKIZQ","","566.7999999998137","img/land4.png","76","567.2000000001863","3","1","3","1","0.8,0.2,0.2,0.2,0.8,0.2,0.2,0.2,0.8","0.8,0.2,0.2,0.2,0.8,0.2,0.2,0.2,0.8","1","",""
"","html-keyboard-response","113","90933","0.0-113.0","34MAJL3QP59OU7Y903933TDVNJK43R","A3SMOU11PC1TE2","3ECKRY5B1QIH1N6NFX1ECCW5ZDKIZQ","","null","<img src=""img/land4.png"" style=""width:200px; border:14px solid green;"">","null","","","","","","","","","",""
"","image-keyboard-response","114","91712","0.0-114.0","34MAJL3QP59OU7Y903933TDVNJK43R","A3SMOU11PC1TE2","3ECKRY5B1QIH1N6NFX1ECCW5ZDKIZQ","","778.7000000001863","img/land3.png","74","779","1","1","1","1","0.8,0.2,0.2,0.2,0.8,0.2,0.2,0.2,0.8","0.8,0.2,0.2,0.2,0.8,0.2,0.2,0.2,0.8","1","",""
"","html-keyboard-response","115","92014","0.0-115.0","34MAJL3QP59OU7Y903933TDVNJK43R","A3SMOU11PC1TE2","3ECKRY5B1QIH1N6NFX1ECCW5ZDKIZQ","","null","<img src=""img/land3.png"" style=""width:200px; border:14px solid green;"">","null","","","","","","","","","",""
"","image-keyboard-response","116","92650","0.0-116.0","34MAJL3QP59OU7Y903933TDVNJK43R","A3SMOU11PC1TE2","3ECKRY5B1QIH1N6NFX1ECCW5ZDKIZQ","","636.1000000005588","img/land3.png","74","636.4000000003725","1","0","1","1","0.8,0.2,0.2,0.2,0.8,0.2,0.2,0.2,0.8","0.8,0.2,0.2,0.2,0.8,0.2,0.2,0.2,0.8","1","",""
"","html-keyboard-response","117","92951","0.0-117.0","34MAJL3QP59OU7Y903933TDVNJK43R","A3SMOU11PC1TE2","3ECKRY5B1QIH1N6NFX1ECCW5ZDKIZQ","","null","<img src=""img/land3.png"" style=""width:200px;border:14px solid red;"">","null","","","","","","","","","",""
"","image-keyboard-response","118","93472","0.0-118.0","34MAJL3QP59OU7Y903933TDVNJK43R","A3SMOU11PC1TE2","3ECKRY5B1QIH1N6NFX1ECCW5ZDKIZQ","","520.5999999996275","img/land3.png","74","520.9000000003725","1","1","1","1","0.8,0.2,0.2,0.2,0.8,0.2,0.2,0.2,0.8","0.8,0.2,0.2,0.2,0.8,0.2,0.2,0.2,0.8","1","",""
"","html-keyboard-response","119","93773","0.0-119.0","34MAJL3QP59OU7Y903933TDVNJK43R","A3SMOU11PC1TE2","3ECKRY5B1QIH1N6NFX1ECCW5ZDKIZQ","","null","<img src=""img/land3.png"" style=""width:200px; border:14px solid green;"">","null","","","","","","","","","",""
"","image-keyboard-response","120","94640","0.0-120.0","34MAJL3QP59OU7Y903933TDVNJK43R","A3SMOU11PC1TE2","3ECKRY5B1QIH1N6NFX1ECCW5ZDKIZQ","","867","img/land2.png","75","867.3999999994412","2","1","2","1","0.8,0.2,0.2,0.2,0.8,0.2,0.2,0.2,0.8","0.8,0.2,0.2,0.2,0.8,0.2,0.2,0.2,0.8","1","",""
"","html-keyboard-response","121","94941","0.0-121.0","34MAJL3QP59OU7Y903933TDVNJK43R","A3SMOU11PC1TE2","3ECKRY5B1QIH1N6NFX1ECCW5ZDKIZQ","","null","<img src=""img/land2.png"" style=""width:200px; border:14px solid green;"">","null","","","","","","","","","",""
"","image-keyboard-response","122","96023","0.0-122.0","34MAJL3QP59OU7Y903933TDVNJK43R","A3SMOU11PC1TE2","3ECKRY5B1QIH1N6NFX1ECCW5ZDKIZQ","","1081","img/land3.png","74","1081.3999999994412","1","1","1","1","0.8,0.2,0.2,0.2,0.8,0.2,0.2,0.2,0.8","0.8,0.2,0.2,0.2,0.8,0.2,0.2,0.2,0.8","1","",""
"","html-keyboard-response","123","96323","0.0-123.0","34MAJL3QP59OU7Y903933TDVNJK43R","A3SMOU11PC1TE2","3ECKRY5B1QIH1N6NFX1ECCW5ZDKIZQ","","null","<img src=""img/land3.png"" style=""width:200px; border:14px solid green;"">","null","","","","","","","","","",""
"","image-keyboard-response","124","97192","0.0-124.0","34MAJL3QP59OU7Y903933TDVNJK43R","A3SMOU11PC1TE2","3ECKRY5B1QIH1N6NFX1ECCW5ZDKIZQ","","868.7000000001863","img/land2.png","75","869","2","1","2","1","0.8,0.2,0.2,0.2,0.8,0.2,0.2,0.2,0.8","0.8,0.2,0.2,0.2,0.8,0.2,0.2,0.2,0.8","1","",""
"","html-keyboard-response","125","97493","0.0-125.0","34MAJL3QP59OU7Y903933TDVNJK43R","A3SMOU11PC1TE2","3ECKRY5B1QIH1N6NFX1ECCW5ZDKIZQ","","null","<img src=""img/land2.png"" style=""width:200px; border:14px solid green;"">","null","","","","","","","","","",""
"","image-keyboard-response","126","98186","0.0-126.0","34MAJL3QP59OU7Y903933TDVNJK43R","A3SMOU11PC1TE2","3ECKRY5B1QIH1N6NFX1ECCW5ZDKIZQ","","692.5","img/land4.png","76","692.9000000003725","3","1","3","1","0.8,0.2,0.2,0.2,0.8,0.2,0.2,0.2,0.8","0.8,0.2,0.2,0.2,0.8,0.2,0.2,0.2,0.8","1","",""
"","html-keyboard-response","127","98488","0.0-127.0","34MAJL3QP59OU7Y903933TDVNJK43R","A3SMOU11PC1TE2","3ECKRY5B1QIH1N6NFX1ECCW5ZDKIZQ","","null","<img src=""img/land4.png"" style=""width:200px; border:14px solid green;"">","null","","","","","","","","","",""
"","image-keyboard-response","128","99000","0.0-128.0","34MAJL3QP59OU7Y903933TDVNJK43R","A3SMOU11PC1TE2","3ECKRY5B1QIH1N6NFX1ECCW5ZDKIZQ","","512.1000000005588","img/land3.png","74","512.5999999996275","1","1","1","1","0.8,0.2,0.2,0.2,0.8,0.2,0.2,0.2,0.8","0.8,0.2,0.2,0.2,0.8,0.2,0.2,0.2,0.8","1","",""
"","html-keyboard-response","129","99302","0.0-129.0","34MAJL3QP59OU7Y903933TDVNJK43R","A3SMOU11PC1TE2","3ECKRY5B1QIH1N6NFX1ECCW5ZDKIZQ","","null","<img src=""img/land3.png"" style=""width:200px; border:14px solid green;"">","null","","","","","","","","","",""
"","image-keyboard-response","130","99932","0.0-130.0","34MAJL3QP59OU7Y903933TDVNJK43R","A3SMOU11PC1TE2","3ECKRY5B1QIH1N6NFX1ECCW5ZDKIZQ","","630.3000000007451","img/land4.png","76","630.7000000001863","3","1","3","1","0.8,0.2,0.2,0.2,0.8,0.2,0.2,0.2,0.8","0.8,0.2,0.2,0.2,0.8,0.2,0.2,0.2,0.8","1","",""
"","html-keyboard-response","131","100233","0.0-131.0","34MAJL3QP59OU7Y903933TDVNJK43R","A3SMOU11PC1TE2","3ECKRY5B1QIH1N6NFX1ECCW5ZDKIZQ","","null","<img src=""img/land4.png"" style=""width:200px; border:14px solid green;"">","null","","","","","","","","","",""
"","image-keyboard-response","132","100866","0.0-132.0","34MAJL3QP59OU7Y903933TDVNJK43R","A3SMOU11PC1TE2","3ECKRY5B1QIH1N6NFX1ECCW5ZDKIZQ","","632.5","img/land3.png","74","632.7999999998137","1","1","1","1","0.8,0.2,0.2,0.2,0.8,0.2,0.2,0.2,0.8","0.8,0.2,0.2,0.2,0.8,0.2,0.2,0.2,0.8","1","",""
"","html-keyboard-response","133","101167","0.0-133.0","34MAJL3QP59OU7Y903933TDVNJK43R","A3SMOU11PC1TE2","3ECKRY5B1QIH1N6NFX1ECCW5ZDKIZQ","","null","<img src=""img/land3.png"" style=""width:200px; border:14px solid green;"">","null","","","","","","","","","",""
"","image-keyboard-response","134","101876","0.0-134.0","34MAJL3QP59OU7Y903933TDVNJK43R","A3SMOU11PC1TE2","3ECKRY5B1QIH1N6NFX1ECCW5ZDKIZQ","","709.1000000005588","img/land2.png","75","709.5","2","1","2","1","0.8,0.2,0.2,0.2,0.8,0.2,0.2,0.2,0.8","0.8,0.2,0.2,0.2,0.8,0.2,0.2,0.2,0.8","1","",""
"","html-keyboard-response","135","102179","0.0-135.0","34MAJL3QP59OU7Y903933TDVNJK43R","A3SMOU11PC1TE2","3ECKRY5B1QIH1N6NFX1ECCW5ZDKIZQ","","null","<img src=""img/land2.png"" style=""width:200px; border:14px solid green;"">","null","","","","","","","","","",""
"","image-keyboard-response","136","102870","0.0-136.0","34MAJL3QP59OU7Y903933TDVNJK43R","A3SMOU11PC1TE2","3ECKRY5B1QIH1N6NFX1ECCW5ZDKIZQ","","691.3000000007451","img/land4.png","76","691.5999999996275","3","1","3","1","0.8,0.2,0.2,0.2,0.8,0.2,0.2,0.2,0.8","0.8,0.2,0.2,0.2,0.8,0.2,0.2,0.2,0.8","1","",""
"","html-keyboard-response","137","103171","0.0-137.0","34MAJL3QP59OU7Y903933TDVNJK43R","A3SMOU11PC1TE2","3ECKRY5B1QIH1N6NFX1ECCW5ZDKIZQ","","null","<img src=""img/land4.png"" style=""width:200px; border:14px solid green;"">","null","","","","","","","","","",""
"","image-keyboard-response","138","103794","0.0-138.0","34MAJL3QP59OU7Y903933TDVNJK43R","A3SMOU11PC1TE2","3ECKRY5B1QIH1N6NFX1ECCW5ZDKIZQ","","622.7000000001863","img/land3.png","74","623.0999999996275","1","0","1","1","0.8,0.2,0.2,0.2,0.8,0.2,0.2,0.2,0.8","0.8,0.2,0.2,0.2,0.8,0.2,0.2,0.2,0.8","1","",""
"","html-keyboard-response","139","104095","0.0-139.0","34MAJL3QP59OU7Y903933TDVNJK43R","A3SMOU11PC1TE2","3ECKRY5B1QIH1N6NFX1ECCW5ZDKIZQ","","null","<img src=""img/land3.png"" style=""width:200px;border:14px solid red;"">","null","","","","","","","","","",""
"","image-keyboard-response","140","104515","0.0-140.0","34MAJL3QP59OU7Y903933TDVNJK43R","A3SMOU11PC1TE2","3ECKRY5B1QIH1N6NFX1ECCW5ZDKIZQ","","419.09999999962747","img/land3.png","74","419.3999999994412","1","1","1","1","0.8,0.2,0.2,0.2,0.8,0.2,0.2,0.2,0.8","0.8,0.2,0.2,0.2,0.8,0.2,0.2,0.2,0.8","1","",""
"","html-keyboard-response","141","104815","0.0-141.0","34MAJL3QP59OU7Y903933TDVNJK43R","A3SMOU11PC1TE2","3ECKRY5B1QIH1N6NFX1ECCW5ZDKIZQ","","null","<img src=""img/land3.png"" style=""width:200px; border:14px solid green;"">","null","","","","","","","","","",""
"","image-keyboard-response","142","105406","0.0-142.0","34MAJL3QP59OU7Y903933TDVNJK43R","A3SMOU11PC1TE2","3ECKRY5B1QIH1N6NFX1ECCW5ZDKIZQ","","590.7000000001863","img/land3.png","74","591","1","1","1","1","0.8,0.2,0.2,0.2,0.8,0.2,0.2,0.2,0.8","0.8,0.2,0.2,0.2,0.8,0.2,0.2,0.2,0.8","1","",""
"","html-keyboard-response","143","105707","0.0-143.0","34MAJL3QP59OU7Y903933TDVNJK43R","A3SMOU11PC1TE2","3ECKRY5B1QIH1N6NFX1ECCW5ZDKIZQ","","null","<img src=""img/land3.png"" style=""width:200px; border:14px solid green;"">","null","","","","","","","","","",""
"","image-keyboard-response","144","106373","0.0-144.0","34MAJL3QP59OU7Y903933TDVNJK43R","A3SMOU11PC1TE2","3ECKRY5B1QIH1N6NFX1ECCW5ZDKIZQ","","664.9000000003725","img/land4.png","76","665.2999999998137","3","1","3","1","0.8,0.2,0.2,0.2,0.8,0.2,0.2,0.2,0.8","0.8,0.2,0.2,0.2,0.8,0.2,0.2,0.2,0.8","1","",""
"","html-keyboard-response","145","106674","0.0-145.0","34MAJL3QP59OU7Y903933TDVNJK43R","A3SMOU11PC1TE2","3ECKRY5B1QIH1N6NFX1ECCW5ZDKIZQ","","null","<img src=""img/land4.png"" style=""width:200px; border:14px solid green;"">","null","","","","","","","","","",""
"","image-keyboard-response","146","107538","0.0-146.0","34MAJL3QP59OU7Y903933TDVNJK43R","A3SMOU11PC1TE2","3ECKRY5B1QIH1N6NFX1ECCW5ZDKIZQ","","863.9000000003725","img/land2.png","75","864.2999999998137","2","0","2","1","0.8,0.2,0.2,0.2,0.8,0.2,0.2,0.2,0.8","0.8,0.2,0.2,0.2,0.8,0.2,0.2,0.2,0.8","1","",""
"","html-keyboard-response","147","107839","0.0-147.0","34MAJL3QP59OU7Y903933TDVNJK43R","A3SMOU11PC1TE2","3ECKRY5B1QIH1N6NFX1ECCW5ZDKIZQ","","null","<img src=""img/land2.png"" style=""width:200px;border:14px solid red;"">","null","","","","","","","","","",""
"","image-keyboard-response","148","108485","0.0-148.0","34MAJL3QP59OU7Y903933TDVNJK43R","A3SMOU11PC1TE2","3ECKRY5B1QIH1N6NFX1ECCW5ZDKIZQ","","644.7000000001863","img/land4.png","76","645.2000000001863","3","0","3","1","0.8,0.2,0.2,0.2,0.8,0.2,0.2,0.2,0.8","0.8,0.2,0.2,0.2,0.8,0.2,0.2,0.2,0.8","1","",""
"","html-keyboard-response","149","108785","0.0-149.0","34MAJL3QP59OU7Y903933TDVNJK43R","A3SMOU11PC1TE2","3ECKRY5B1QIH1N6NFX1ECCW5ZDKIZQ","","null","<img src=""img/land4.png"" style=""width:200px;border:14px solid red;"">","null","","","","","","","","","",""
"","image-keyboard-response","150","109766","0.0-150.0","34MAJL3QP59OU7Y903933TDVNJK43R","A3SMOU11PC1TE2","3ECKRY5B1QIH1N6NFX1ECCW5ZDKIZQ","","980.8000000007451","img/land3.png","74","981.0999999996275","1","0","1","1","0.8,0.2,0.2,0.2,0.8,0.2,0.2,0.2,0.8","0.8,0.2,0.2,0.2,0.8,0.2,0.2,0.2,0.8","1","",""
"","html-keyboard-response","151","110067","0.0-151.0","34MAJL3QP59OU7Y903933TDVNJK43R","A3SMOU11PC1TE2","3ECKRY5B1QIH1N6NFX1ECCW5ZDKIZQ","","null","<img src=""img/land3.png"" style=""width:200px;border:14px solid red;"">","null","","","","","","","","","",""
"","image-keyboard-response","152","111361","0.0-152.0","34MAJL3QP59OU7Y903933TDVNJK43R","A3SMOU11PC1TE2","3ECKRY5B1QIH1N6NFX1ECCW5ZDKIZQ","","1292.8999999994412","img/land2.png","75","1293.1000000005588","2","0","2","1","0.8,0.2,0.2,0.2,0.8,0.2,0.2,0.2,0.8","0.8,0.2,0.2,0.2,0.8,0.2,0.2,0.2,0.8","1","",""
"","html-keyboard-response","153","111662","0.0-153.0","34MAJL3QP59OU7Y903933TDVNJK43R","A3SMOU11PC1TE2","3ECKRY5B1QIH1N6NFX1ECCW5ZDKIZQ","","null","<img src=""img/land2.png"" style=""width:200px;border:14px solid red;"">","null","","","","","","","","","",""
"","image-keyboard-response","154","112060","0.0-154.0","34MAJL3QP59OU7Y903933TDVNJK43R","A3SMOU11PC1TE2","3ECKRY5B1QIH1N6NFX1ECCW5ZDKIZQ","","398.1000000005588","img/land2.png","75","398.59999999962747","2","1","2","1","0.8,0.2,0.2,0.2,0.8,0.2,0.2,0.2,0.8","0.8,0.2,0.2,0.2,0.8,0.2,0.2,0.2,0.8","1","",""
"","html-keyboard-response","155","112362","0.0-155.0","34MAJL3QP59OU7Y903933TDVNJK43R","A3SMOU11PC1TE2","3ECKRY5B1QIH1N6NFX1ECCW5ZDKIZQ","","null","<img src=""img/land2.png"" style=""width:200px; border:14px solid green;"">","null","","","","","","","","","",""
"","image-keyboard-response","156","113055","0.0-156.0","34MAJL3QP59OU7Y903933TDVNJK43R","A3SMOU11PC1TE2","3ECKRY5B1QIH1N6NFX1ECCW5ZDKIZQ","","692.5999999996275","img/land3.png","74","692.8999999994412","1","1","1","1","0.8,0.2,0.2,0.2,0.8,0.2,0.2,0.2,0.8","0.8,0.2,0.2,0.2,0.8,0.2,0.2,0.2,0.8","1","",""
"","html-keyboard-response","157","113355","0.0-157.0","34MAJL3QP59OU7Y903933TDVNJK43R","A3SMOU11PC1TE2","3ECKRY5B1QIH1N6NFX1ECCW5ZDKIZQ","","null","<img src=""img/land3.png"" style=""width:200px; border:14px solid green;"">","null","","","","","","","","","",""
"","image-keyboard-response","158","113882","0.0-158.0","34MAJL3QP59OU7Y903933TDVNJK43R","A3SMOU11PC1TE2","3ECKRY5B1QIH1N6NFX1ECCW5ZDKIZQ","","526.5","img/land3.png","74","526.9000000003725","1","1","1","1","0.8,0.2,0.2,0.2,0.8,0.2,0.2,0.2,0.8","0.8,0.2,0.2,0.2,0.8,0.2,0.2,0.2,0.8","1","",""
"","html-keyboard-response","159","114183","0.0-159.0","34MAJL3QP59OU7Y903933TDVNJK43R","A3SMOU11PC1TE2","3ECKRY5B1QIH1N6NFX1ECCW5ZDKIZQ","","null","<img src=""img/land3.png"" style=""width:200px; border:14px solid green;"">","null","","","","","","","","","",""
"","image-keyboard-response","160","114621","0.0-160.0","34MAJL3QP59OU7Y903933TDVNJK43R","A3SMOU11PC1TE2","3ECKRY5B1QIH1N6NFX1ECCW5ZDKIZQ","","436.80000000074506","img/land3.png","74","437.19999999925494","1","1","1","1","0.8,0.2,0.2,0.2,0.8,0.2,0.2,0.2,0.8","0.8,0.2,0.2,0.2,0.8,0.2,0.2,0.2,0.8","1","",""
"","html-keyboard-response","161","114922","0.0-161.0","34MAJL3QP59OU7Y903933TDVNJK43R","A3SMOU11PC1TE2","3ECKRY5B1QIH1N6NFX1ECCW5ZDKIZQ","","null","<img src=""img/land3.png"" style=""width:200px; border:14px solid green;"">","null","","","","","","","","","",""
"","image-keyboard-response","162","115482","0.0-162.0","34MAJL3QP59OU7Y903933TDVNJK43R","A3SMOU11PC1TE2","3ECKRY5B1QIH1N6NFX1ECCW5ZDKIZQ","","560.1000000005588","img/land2.png","75","560.5999999996275","2","1","2","1","0.8,0.2,0.2,0.2,0.8,0.2,0.2,0.2,0.8","0.8,0.2,0.2,0.2,0.8,0.2,0.2,0.2,0.8","1","",""
"","html-keyboard-response","163","115784","0.0-163.0","34MAJL3QP59OU7Y903933TDVNJK43R","A3SMOU11PC1TE2","3ECKRY5B1QIH1N6NFX1ECCW5ZDKIZQ","","null","<img src=""img/land2.png"" style=""width:200px; border:14px solid green;"">","null","","","","","","","","","",""
"","image-keyboard-response","164","116456","0.0-164.0","34MAJL3QP59OU7Y903933TDVNJK43R","A3SMOU11PC1TE2","3ECKRY5B1QIH1N6NFX1ECCW5ZDKIZQ","","672.2999999998137","img/land4.png","76","673.2999999998137","3","1","3","1","0.8,0.2,0.2,0.2,0.8,0.2,0.2,0.2,0.8","0.8,0.2,0.2,0.2,0.8,0.2,0.2,0.2,0.8","1","",""
"","html-keyboard-response","165","116758","0.0-165.0","34MAJL3QP59OU7Y903933TDVNJK43R","A3SMOU11PC1TE2","3ECKRY5B1QIH1N6NFX1ECCW5ZDKIZQ","","null","<img src=""img/land4.png"" style=""width:200px; border:14px solid green;"">","null","","","","","","","","","",""
"","image-keyboard-response","166","117519","0.0-166.0","34MAJL3QP59OU7Y903933TDVNJK43R","A3SMOU11PC1TE2","3ECKRY5B1QIH1N6NFX1ECCW5ZDKIZQ","","760.4000000003725","img/land4.png","76","760.8999999994412","3","0","3","1","0.8,0.2,0.2,0.2,0.8,0.2,0.2,0.2,0.8","0.8,0.2,0.2,0.2,0.8,0.2,0.2,0.2,0.8","1","",""
"","html-keyboard-response","167","117820","0.0-167.0","34MAJL3QP59OU7Y903933TDVNJK43R","A3SMOU11PC1TE2","3ECKRY5B1QIH1N6NFX1ECCW5ZDKIZQ","","null","<img src=""img/land4.png"" style=""width:200px;border:14px solid red;"">","null","","","","","","","","","",""
"","image-keyboard-response","168","119138","0.0-168.0","34MAJL3QP59OU7Y903933TDVNJK43R","A3SMOU11PC1TE2","3ECKRY5B1QIH1N6NFX1ECCW5ZDKIZQ","","1318.4000000003725","img/land3.png","74","1318.8999999994412","1","0","1","1","0.8,0.2,0.2,0.2,0.8,0.2,0.2,0.2,0.8","0.8,0.2,0.2,0.2,0.8,0.2,0.2,0.2,0.8","1","",""
"","html-keyboard-response","169","119439","0.0-169.0","34MAJL3QP59OU7Y903933TDVNJK43R","A3SMOU11PC1TE2","3ECKRY5B1QIH1N6NFX1ECCW5ZDKIZQ","","null","<img src=""img/land3.png"" style=""width:200px;border:14px solid red;"">","null","","","","","","","","","",""
"","image-keyboard-response","170","120132","0.0-170.0","34MAJL3QP59OU7Y903933TDVNJK43R","A3SMOU11PC1TE2","3ECKRY5B1QIH1N6NFX1ECCW5ZDKIZQ","","692.5","img/land2.png","75","693","2","1","2","1","0.8,0.2,0.2,0.2,0.8,0.2,0.2,0.2,0.8","0.8,0.2,0.2,0.2,0.8,0.2,0.2,0.2,0.8","1","",""
"","html-keyboard-response","171","120434","0.0-171.0","34MAJL3QP59OU7Y903933TDVNJK43R","A3SMOU11PC1TE2","3ECKRY5B1QIH1N6NFX1ECCW5ZDKIZQ","","null","<img src=""img/land2.png"" style=""width:200px; border:14px solid green;"">","null","","","","","","","","","",""
"","image-keyboard-response","172","120874","0.0-172.0","34MAJL3QP59OU7Y903933TDVNJK43R","A3SMOU11PC1TE2","3ECKRY5B1QIH1N6NFX1ECCW5ZDKIZQ","","440.1000000005588","img/land2.png","75","440.5","2","0","2","1","0.8,0.2,0.2,0.2,0.8,0.2,0.2,0.2,0.8","0.8,0.2,0.2,0.2,0.8,0.2,0.2,0.2,0.8","1","",""
"","html-keyboard-response","173","121176","0.0-173.0","34MAJL3QP59OU7Y903933TDVNJK43R","A3SMOU11PC1TE2","3ECKRY5B1QIH1N6NFX1ECCW5ZDKIZQ","","null","<img src=""img/land2.png"" style=""width:200px;border:14px solid red;"">","null","","","","","","","","","",""
"","image-keyboard-response","174","121761","0.0-174.0","34MAJL3QP59OU7Y903933TDVNJK43R","A3SMOU11PC1TE2","3ECKRY5B1QIH1N6NFX1ECCW5ZDKIZQ","","584.5999999996275","img/land4.png","76","585","3","1","3","1","0.8,0.2,0.2,0.2,0.8,0.2,0.2,0.2,0.8","0.8,0.2,0.2,0.2,0.8,0.2,0.2,0.2,0.8","1","",""
"","html-keyboard-response","175","122062","0.0-175.0","34MAJL3QP59OU7Y903933TDVNJK43R","A3SMOU11PC1TE2","3ECKRY5B1QIH1N6NFX1ECCW5ZDKIZQ","","null","<img src=""img/land4.png"" style=""width:200px; border:14px solid green;"">","null","","","","","","","","","",""
"","image-keyboard-response","176","122850","0.0-176.0","34MAJL3QP59OU7Y903933TDVNJK43R","A3SMOU11PC1TE2","3ECKRY5B1QIH1N6NFX1ECCW5ZDKIZQ","","788","img/land3.png","74","788.4000000003725","1","1","1","1","0.8,0.2,0.2,0.2,0.8,0.2,0.2,0.2,0.8","0.8,0.2,0.2,0.2,0.8,0.2,0.2,0.2,0.8","1","",""
"","html-keyboard-response","177","123150","0.0-177.0","34MAJL3QP59OU7Y903933TDVNJK43R","A3SMOU11PC1TE2","3ECKRY5B1QIH1N6NFX1ECCW5ZDKIZQ","","null","<img src=""img/land3.png"" style=""width:200px; border:14px solid green;"">","null","","","","","","","","","",""
"","image-keyboard-response","178","123920","0.0-178.0","34MAJL3QP59OU7Y903933TDVNJK43R","A3SMOU11PC1TE2","3ECKRY5B1QIH1N6NFX1ECCW5ZDKIZQ","","769","img/land2.png","75","769.4000000003725","2","1","2","1","0.8,0.2,0.2,0.2,0.8,0.2,0.2,0.2,0.8","0.8,0.2,0.2,0.2,0.8,0.2,0.2,0.2,0.8","1","",""
"","html-keyboard-response","179","124220","0.0-179.0","34MAJL3QP59OU7Y903933TDVNJK43R","A3SMOU11PC1TE2","3ECKRY5B1QIH1N6NFX1ECCW5ZDKIZQ","","null","<img src=""img/land2.png"" style=""width:200px; border:14px solid green;"">","null","","","","","","","","","",""
"","image-keyboard-response","180","125074","0.0-180.0","34MAJL3QP59OU7Y903933TDVNJK43R","A3SMOU11PC1TE2","3ECKRY5B1QIH1N6NFX1ECCW5ZDKIZQ","","853.2000000001863","img/land3.png","75","853.6000000005588","2","0","1","1","0.8,0.2,0.2,0.2,0.8,0.2,0.2,0.2,0.8","0.8,0.2,0.2,0.2,0.8,0.2,0.2,0.2,0.8","1","",""
"","html-keyboard-response","181","125375","0.0-181.0","34MAJL3QP59OU7Y903933TDVNJK43R","A3SMOU11PC1TE2","3ECKRY5B1QIH1N6NFX1ECCW5ZDKIZQ","","null","<img src=""img/land3.png"" style=""width:200px;border:14px solid red;"">","null","","","","","","","","","",""
"","html-keyboard-response","182","131365","0.0-182.0","34MAJL3QP59OU7Y903933TDVNJK43R","A3SMOU11PC1TE2","3ECKRY5B1QIH1N6NFX1ECCW5ZDKIZQ","","","","","","","","","","","","","",""
"","image-keyboard-response","183","132602","0.0-183.0","34MAJL3QP59OU7Y903933TDVNJK43R","A3SMOU11PC1TE2","3ECKRY5B1QIH1N6NFX1ECCW5ZDKIZQ","","1236.5999999996275","img/land6.png","75","1237.2000000001863","2","0","1","2","0.8,0.2,0.2,0.2,0.8,0.2,0.2,0.2,0.8","0.8,0.2,0.2,0.2,0.8,0.2,0.2,0.2,0.8","1","",""
"","html-keyboard-response","184","132903","0.0-184.0","34MAJL3QP59OU7Y903933TDVNJK43R","A3SMOU11PC1TE2","3ECKRY5B1QIH1N6NFX1ECCW5ZDKIZQ","","null","<img src=""img/land6.png"" style=""width:200px;border:14px solid red;"">","null","","","","","","","","","",""
"","image-keyboard-response","185","133802","0.0-185.0","34MAJL3QP59OU7Y903933TDVNJK43R","A3SMOU11PC1TE2","3ECKRY5B1QIH1N6NFX1ECCW5ZDKIZQ","","897.9000000003725","img/land1.png","75","898.2999999998137","2","1","2","2","0.8,0.2,0.2,0.2,0.8,0.2,0.2,0.2,0.8","0.8,0.2,0.2,0.2,0.8,0.2,0.2,0.2,0.8","1","",""
"","html-keyboard-response","186","134103","0.0-186.0","34MAJL3QP59OU7Y903933TDVNJK43R","A3SMOU11PC1TE2","3ECKRY5B1QIH1N6NFX1ECCW5ZDKIZQ","","null","<img src=""img/land1.png"" style=""width:200px; border:14px solid green;"">","null","","","","","","","","","",""
"","image-keyboard-response","187","135132","0.0-187.0","34MAJL3QP59OU7Y903933TDVNJK43R","A3SMOU11PC1TE2","3ECKRY5B1QIH1N6NFX1ECCW5ZDKIZQ","","1027.800000000745","img/land5.png","76","1028.0999999996275","3","0","3","2","0.8,0.2,0.2,0.2,0.8,0.2,0.2,0.2,0.8","0.8,0.2,0.2,0.2,0.8,0.2,0.2,0.2,0.8","1","",""
"","html-keyboard-response","188","135432","0.0-188.0","34MAJL3QP59OU7Y903933TDVNJK43R","A3SMOU11PC1TE2","3ECKRY5B1QIH1N6NFX1ECCW5ZDKIZQ","","null","<img src=""img/land5.png"" style=""width:200px;border:14px solid red;"">","null","","","","","","","","","",""
"","image-keyboard-response","189","136074","0.0-189.0","34MAJL3QP59OU7Y903933TDVNJK43R","A3SMOU11PC1TE2","3ECKRY5B1QIH1N6NFX1ECCW5ZDKIZQ","","640.9000000003725","img/land5.png","74","641.2000000001863","1","0","3","2","0.8,0.2,0.2,0.2,0.8,0.2,0.2,0.2,0.8","0.8,0.2,0.2,0.2,0.8,0.2,0.2,0.2,0.8","1","",""
"","html-keyboard-response","190","136374","0.0-190.0","34MAJL3QP59OU7Y903933TDVNJK43R","A3SMOU11PC1TE2","3ECKRY5B1QIH1N6NFX1ECCW5ZDKIZQ","","null","<img src=""img/land5.png"" style=""width:200px;border:14px solid red;"">","null","","","","","","","","","",""
"","image-keyboard-response","191","137306","0.0-191.0","34MAJL3QP59OU7Y903933TDVNJK43R","A3SMOU11PC1TE2","3ECKRY5B1QIH1N6NFX1ECCW5ZDKIZQ","","931","img/land5.png","75","931.3999999994412","2","0","3","2","0.8,0.2,0.2,0.2,0.8,0.2,0.2,0.2,0.8","0.8,0.2,0.2,0.2,0.8,0.2,0.2,0.2,0.8","1","",""
"","html-keyboard-response","192","137607","0.0-192.0","34MAJL3QP59OU7Y903933TDVNJK43R","A3SMOU11PC1TE2","3ECKRY5B1QIH1N6NFX1ECCW5ZDKIZQ","","null","<img src=""img/land5.png"" style=""width:200px;border:14px solid red;"">","null","","","","","","","","","",""
"","image-keyboard-response","193","138740","0.0-193.0","34MAJL3QP59OU7Y903933TDVNJK43R","A3SMOU11PC1TE2","3ECKRY5B1QIH1N6NFX1ECCW5ZDKIZQ","","1132.5","img/land6.png","75","1132.8999999994412","2","1","1","2","0.8,0.2,0.2,0.2,0.8,0.2,0.2,0.2,0.8","0.8,0.2,0.2,0.2,0.8,0.2,0.2,0.2,0.8","1","",""
"","html-keyboard-response","194","139041","0.0-194.0","34MAJL3QP59OU7Y903933TDVNJK43R","A3SMOU11PC1TE2","3ECKRY5B1QIH1N6NFX1ECCW5ZDKIZQ","","null","<img src=""img/land6.png"" style=""width:200px; border:14px solid green;"">","null","","","","","","","","","",""
"","image-keyboard-response","195","139858","0.0-195.0","34MAJL3QP59OU7Y903933TDVNJK43R","A3SMOU11PC1TE2","3ECKRY5B1QIH1N6NFX1ECCW5ZDKIZQ","","816.1000000005588","img/land6.png","75","816.4000000003725","2","0","1","2","0.8,0.2,0.2,0.2,0.8,0.2,0.2,0.2,0.8","0.8,0.2,0.2,0.2,0.8,0.2,0.2,0.2,0.8","1","",""
"","html-keyboard-response","196","140159","0.0-196.0","34MAJL3QP59OU7Y903933TDVNJK43R","A3SMOU11PC1TE2","3ECKRY5B1QIH1N6NFX1ECCW5ZDKIZQ","","null","<img src=""img/land6.png"" style=""width:200px;border:14px solid red;"">","null","","","","","","","","","",""
"","image-keyboard-response","197","140698","0.0-197.0","34MAJL3QP59OU7Y903933TDVNJK43R","A3SMOU11PC1TE2","3ECKRY5B1QIH1N6NFX1ECCW5ZDKIZQ","","538.3999999994412","img/land6.png","74","538.9000000003725","1","0","1","2","0.8,0.2,0.2,0.2,0.8,0.2,0.2,0.2,0.8","0.8,0.2,0.2,0.2,0.8,0.2,0.2,0.2,0.8","1","",""
"","html-keyboard-response","198","140999","0.0-198.0","34MAJL3QP59OU7Y903933TDVNJK43R","A3SMOU11PC1TE2","3ECKRY5B1QIH1N6NFX1ECCW5ZDKIZQ","","null","<img src=""img/land6.png"" style=""width:200px;border:14px solid red;"">","null","","","","","","","","","",""
"","image-keyboard-response","199","142104","0.0-199.0","34MAJL3QP59OU7Y903933TDVNJK43R","A3SMOU11PC1TE2","3ECKRY5B1QIH1N6NFX1ECCW5ZDKIZQ","","1104.300000000745","img/land5.png","74","1104.5999999996275","1","0","3","2","0.8,0.2,0.2,0.2,0.8,0.2,0.2,0.2,0.8","0.8,0.2,0.2,0.2,0.8,0.2,0.2,0.2,0.8","1","",""
"","html-keyboard-response","200","142405","0.0-200.0","34MAJL3QP59OU7Y903933TDVNJK43R","A3SMOU11PC1TE2","3ECKRY5B1QIH1N6NFX1ECCW5ZDKIZQ","","null","<img src=""img/land5.png"" style=""width:200px;border:14px solid red;"">","null","","","","","","","","","",""
"","image-keyboard-response","201","143064","0.0-201.0","34MAJL3QP59OU7Y903933TDVNJK43R","A3SMOU11PC1TE2","3ECKRY5B1QIH1N6NFX1ECCW5ZDKIZQ","","658.6999999992549","img/land5.png","74","659","1","0","3","2","0.8,0.2,0.2,0.2,0.8,0.2,0.2,0.2,0.8","0.8,0.2,0.2,0.2,0.8,0.2,0.2,0.2,0.8","1","",""
"","html-keyboard-response","202","143365","0.0-202.0","34MAJL3QP59OU7Y903933TDVNJK43R","A3SMOU11PC1TE2","3ECKRY5B1QIH1N6NFX1ECCW5ZDKIZQ","","null","<img src=""img/land5.png"" style=""width:200px;border:14px solid red;"">","null","","","","","","","","","",""
"","image-keyboard-response","203","144098","0.0-203.0","34MAJL3QP59OU7Y903933TDVNJK43R","A3SMOU11PC1TE2","3ECKRY5B1QIH1N6NFX1ECCW5ZDKIZQ","","732.3000000007451","img/land6.png","75","732.6999999992549","2","0","1","2","0.8,0.2,0.2,0.2,0.8,0.2,0.2,0.2,0.8","0.8,0.2,0.2,0.2,0.8,0.2,0.2,0.2,0.8","1","",""
"","html-keyboard-response","204","144399","0.0-204.0","34MAJL3QP59OU7Y903933TDVNJK43R","A3SMOU11PC1TE2","3ECKRY5B1QIH1N6NFX1ECCW5ZDKIZQ","","null","<img src=""img/land6.png"" style=""width:200px;border:14px solid red;"">","null","","","","","","","","","",""
"","image-keyboard-response","205","145206","0.0-205.0","34MAJL3QP59OU7Y903933TDVNJK43R","A3SMOU11PC1TE2","3ECKRY5B1QIH1N6NFX1ECCW5ZDKIZQ","","806.3000000007451","img/land5.png","76","806.5999999996275","3","1","3","2","0.8,0.2,0.2,0.2,0.8,0.2,0.2,0.2,0.8","0.8,0.2,0.2,0.2,0.8,0.2,0.2,0.2,0.8","1","",""
"","html-keyboard-response","206","145506","0.0-206.0","34MAJL3QP59OU7Y903933TDVNJK43R","A3SMOU11PC1TE2","3ECKRY5B1QIH1N6NFX1ECCW5ZDKIZQ","","null","<img src=""img/land5.png"" style=""width:200px; border:14px solid green;"">","null","","","","","","","","","",""
"","image-keyboard-response","207","146766","0.0-207.0","34MAJL3QP59OU7Y903933TDVNJK43R","A3SMOU11PC1TE2","3ECKRY5B1QIH1N6NFX1ECCW5ZDKIZQ","","1258.8999999994412","img/land1.png","75","1259.300000000745","2","1","2","2","0.8,0.2,0.2,0.2,0.8,0.2,0.2,0.2,0.8","0.8,0.2,0.2,0.2,0.8,0.2,0.2,0.2,0.8","1","",""
"","html-keyboard-response","208","147066","0.0-208.0","34MAJL3QP59OU7Y903933TDVNJK43R","A3SMOU11PC1TE2","3ECKRY5B1QIH1N6NFX1ECCW5ZDKIZQ","","null","<img src=""img/land1.png"" style=""width:200px; border:14px solid green;"">","null","","","","","","","","","",""
"","image-keyboard-response","209","147868","0.0-209.0","34MAJL3QP59OU7Y903933TDVNJK43R","A3SMOU11PC1TE2","3ECKRY5B1QIH1N6NFX1ECCW5ZDKIZQ","","801.1000000005588","img/land5.png","76","801.4000000003725","3","1","3","2","0.8,0.2,0.2,0.2,0.8,0.2,0.2,0.2,0.8","0.8,0.2,0.2,0.2,0.8,0.2,0.2,0.2,0.8","1","",""
"","html-keyboard-response","210","148169","0.0-210.0","34MAJL3QP59OU7Y903933TDVNJK43R","A3SMOU11PC1TE2","3ECKRY5B1QIH1N6NFX1ECCW5ZDKIZQ","","null","<img src=""img/land5.png"" style=""width:200px; border:14px solid green;"">","null","","","","","","","","","",""
"","image-keyboard-response","211","149064","0.0-211.0","34MAJL3QP59OU7Y903933TDVNJK43R","A3SMOU11PC1TE2","3ECKRY5B1QIH1N6NFX1ECCW5ZDKIZQ","","894","img/land6.png","74","894.5","1","1","1","2","0.8,0.2,0.2,0.2,0.8,0.2,0.2,0.2,0.8","0.8,0.2,0.2,0.2,0.8,0.2,0.2,0.2,0.8","1","",""
"","html-keyboard-response","212","149365","0.0-212.0","34MAJL3QP59OU7Y903933TDVNJK43R","A3SMOU11PC1TE2","3ECKRY5B1QIH1N6NFX1ECCW5ZDKIZQ","","null","<img src=""img/land6.png"" style=""width:200px; border:14px solid green;"">","null","","","","","","","","","",""
"","image-keyboard-response","213","150800","0.0-213.0","34MAJL3QP59OU7Y903933TDVNJK43R","A3SMOU11PC1TE2","3ECKRY5B1QIH1N6NFX1ECCW5ZDKIZQ","","1434.4000000003725","img/land6.png","74","1434.7999999998137","1","0","1","2","0.8,0.2,0.2,0.2,0.8,0.2,0.2,0.2,0.8","0.8,0.2,0.2,0.2,0.8,0.2,0.2,0.2,0.8","1","",""
"","html-keyboard-response","214","151101","0.0-214.0","34MAJL3QP59OU7Y903933TDVNJK43R","A3SMOU11PC1TE2","3ECKRY5B1QIH1N6NFX1ECCW5ZDKIZQ","","null","<img src=""img/land6.png"" style=""width:200px;border:14px solid red;"">","null","","","","","","","","","",""
"","image-keyboard-response","215","151484","0.0-215.0","34MAJL3QP59OU7Y903933TDVNJK43R","A3SMOU11PC1TE2","3ECKRY5B1QIH1N6NFX1ECCW5ZDKIZQ","","382.40000000037253","img/land6.png","74","382.79999999981374","1","1","1","2","0.8,0.2,0.2,0.2,0.8,0.2,0.2,0.2,0.8","0.8,0.2,0.2,0.2,0.8,0.2,0.2,0.2,0.8","1","",""
"","html-keyboard-response","216","151784","0.0-216.0","34MAJL3QP59OU7Y903933TDVNJK43R","A3SMOU11PC1TE2","3ECKRY5B1QIH1N6NFX1ECCW5ZDKIZQ","","null","<img src=""img/land6.png"" style=""width:200px; border:14px solid green;"">","null","","","","","","","","","",""
"","image-keyboard-response","217","152710","0.0-217.0","34MAJL3QP59OU7Y903933TDVNJK43R","A3SMOU11PC1TE2","3ECKRY5B1QIH1N6NFX1ECCW5ZDKIZQ","","924.8000000007451","img/land1.png","75","925.2999999998137","2","1","2","2","0.8,0.2,0.2,0.2,0.8,0.2,0.2,0.2,0.8","0.8,0.2,0.2,0.2,0.8,0.2,0.2,0.2,0.8","1","",""
"","html-keyboard-response","218","153011","0.0-218.0","34MAJL3QP59OU7Y903933TDVNJK43R","A3SMOU11PC1TE2","3ECKRY5B1QIH1N6NFX1ECCW5ZDKIZQ","","null","<img src=""img/land1.png"" style=""width:200px; border:14px solid green;"">","null","","","","","","","","","",""
"","image-keyboard-response","219","153796","0.0-219.0","34MAJL3QP59OU7Y903933TDVNJK43R","A3SMOU11PC1TE2","3ECKRY5B1QIH1N6NFX1ECCW5ZDKIZQ","","784.1999999992549","img/land6.png","74","784.7999999998137","1","1","1","2","0.8,0.2,0.2,0.2,0.8,0.2,0.2,0.2,0.8","0.8,0.2,0.2,0.2,0.8,0.2,0.2,0.2,0.8","1","",""
"","html-keyboard-response","220","154097","0.0-220.0","34MAJL3QP59OU7Y903933TDVNJK43R","A3SMOU11PC1TE2","3ECKRY5B1QIH1N6NFX1ECCW5ZDKIZQ","","null","<img src=""img/land6.png"" style=""width:200px; border:14px solid green;"">","null","","","","","","","","","",""
"","image-keyboard-response","221","154656","0.0-221.0","34MAJL3QP59OU7Y903933TDVNJK43R","A3SMOU11PC1TE2","3ECKRY5B1QIH1N6NFX1ECCW5ZDKIZQ","","558.5","img/land6.png","74","558.9000000003725","1","1","1","2","0.8,0.2,0.2,0.2,0.8,0.2,0.2,0.2,0.8","0.8,0.2,0.2,0.2,0.8,0.2,0.2,0.2,0.8","1","",""
"","html-keyboard-response","222","154957","0.0-222.0","34MAJL3QP59OU7Y903933TDVNJK43R","A3SMOU11PC1TE2","3ECKRY5B1QIH1N6NFX1ECCW5ZDKIZQ","","null","<img src=""img/land6.png"" style=""width:200px; border:14px solid green;"">","null","","","","","","","","","",""
"","image-keyboard-response","223","155322","0.0-223.0","34MAJL3QP59OU7Y903933TDVNJK43R","A3SMOU11PC1TE2","3ECKRY5B1QIH1N6NFX1ECCW5ZDKIZQ","","364.20000000018626","img/land6.png","74","364.59999999962747","1","0","1","2","0.8,0.2,0.2,0.2,0.8,0.2,0.2,0.2,0.8","0.8,0.2,0.2,0.2,0.8,0.2,0.2,0.2,0.8","1","",""
"","html-keyboard-response","224","155623","0.0-224.0","34MAJL3QP59OU7Y903933TDVNJK43R","A3SMOU11PC1TE2","3ECKRY5B1QIH1N6NFX1ECCW5ZDKIZQ","","null","<img src=""img/land6.png"" style=""width:200px;border:14px solid red;"">","null","","","","","","","","","",""
"","image-keyboard-response","225","155950","0.0-225.0","34MAJL3QP59OU7Y903933TDVNJK43R","A3SMOU11PC1TE2","3ECKRY5B1QIH1N6NFX1ECCW5ZDKIZQ","","326.09999999962747","img/land6.png","74","326.40000000037253","1","1","1","2","0.8,0.2,0.2,0.2,0.8,0.2,0.2,0.2,0.8","0.8,0.2,0.2,0.2,0.8,0.2,0.2,0.2,0.8","1","",""
"","html-keyboard-response","226","156250","0.0-226.0","34MAJL3QP59OU7Y903933TDVNJK43R","A3SMOU11PC1TE2","3ECKRY5B1QIH1N6NFX1ECCW5ZDKIZQ","","null","<img src=""img/land6.png"" style=""width:200px; border:14px solid green;"">","null","","","","","","","","","",""
"","image-keyboard-response","227","157008","0.0-227.0","34MAJL3QP59OU7Y903933TDVNJK43R","A3SMOU11PC1TE2","3ECKRY5B1QIH1N6NFX1ECCW5ZDKIZQ","","757.1000000005588","img/land5.png","76","757.5999999996275","3","0","3","2","0.8,0.2,0.2,0.2,0.8,0.2,0.2,0.2,0.8","0.8,0.2,0.2,0.2,0.8,0.2,0.2,0.2,0.8","1","",""
"","html-keyboard-response","228","157309","0.0-228.0","34MAJL3QP59OU7Y903933TDVNJK43R","A3SMOU11PC1TE2","3ECKRY5B1QIH1N6NFX1ECCW5ZDKIZQ","","null","<img src=""img/land5.png"" style=""width:200px;border:14px solid red;"">","null","","","","","","","","","",""
"","image-keyboard-response","229","158130","0.0-229.0","34MAJL3QP59OU7Y903933TDVNJK43R","A3SMOU11PC1TE2","3ECKRY5B1QIH1N6NFX1ECCW5ZDKIZQ","","820.7000000001863","img/land6.png","74","821","1","1","1","2","0.8,0.2,0.2,0.2,0.8,0.2,0.2,0.2,0.8","0.8,0.2,0.2,0.2,0.8,0.2,0.2,0.2,0.8","1","",""
"","html-keyboard-response","230","158431","0.0-230.0","34MAJL3QP59OU7Y903933TDVNJK43R","A3SMOU11PC1TE2","3ECKRY5B1QIH1N6NFX1ECCW5ZDKIZQ","","null","<img src=""img/land6.png"" style=""width:200px; border:14px solid green;"">","null","","","","","","","","","",""
"","image-keyboard-response","231","158818","0.0-231.0","34MAJL3QP59OU7Y903933TDVNJK43R","A3SMOU11PC1TE2","3ECKRY5B1QIH1N6NFX1ECCW5ZDKIZQ","","386.70000000018626","img/land6.png","74","387.09999999962747","1","1","1","2","0.8,0.2,0.2,0.2,0.8,0.2,0.2,0.2,0.8","0.8,0.2,0.2,0.2,0.8,0.2,0.2,0.2,0.8","1","",""
"","html-keyboard-response","232","159119","0.0-232.0","34MAJL3QP59OU7Y903933TDVNJK43R","A3SMOU11PC1TE2","3ECKRY5B1QIH1N6NFX1ECCW5ZDKIZQ","","null","<img src=""img/land6.png"" style=""width:200px; border:14px solid green;"">","null","","","","","","","","","",""
"","image-keyboard-response","233","159894","0.0-233.0","34MAJL3QP59OU7Y903933TDVNJK43R","A3SMOU11PC1TE2","3ECKRY5B1QIH1N6NFX1ECCW5ZDKIZQ","","774.3000000007451","img/land5.png","76","774.5999999996275","3","1","3","2","0.8,0.2,0.2,0.2,0.8,0.2,0.2,0.2,0.8","0.8,0.2,0.2,0.2,0.8,0.2,0.2,0.2,0.8","1","",""
"","html-keyboard-response","234","160195","0.0-234.0","34MAJL3QP59OU7Y903933TDVNJK43R","A3SMOU11PC1TE2","3ECKRY5B1QIH1N6NFX1ECCW5ZDKIZQ","","null","<img src=""img/land5.png"" style=""width:200px; border:14px solid green;"">","null","","","","","","","","","",""
"","image-keyboard-response","235","160796","0.0-235.0","34MAJL3QP59OU7Y903933TDVNJK43R","A3SMOU11PC1TE2","3ECKRY5B1QIH1N6NFX1ECCW5ZDKIZQ","","599.9000000003725","img/land6.png","74","600.2999999998137","1","0","1","2","0.8,0.2,0.2,0.2,0.8,0.2,0.2,0.2,0.8","0.8,0.2,0.2,0.2,0.8,0.2,0.2,0.2,0.8","1","",""
"","html-keyboard-response","236","161096","0.0-236.0","34MAJL3QP59OU7Y903933TDVNJK43R","A3SMOU11PC1TE2","3ECKRY5B1QIH1N6NFX1ECCW5ZDKIZQ","","null","<img src=""img/land6.png"" style=""width:200px;border:14px solid red;"">","null","","","","","","","","","",""
"","image-keyboard-response","237","161338","0.0-237.0","34MAJL3QP59OU7Y903933TDVNJK43R","A3SMOU11PC1TE2","3ECKRY5B1QIH1N6NFX1ECCW5ZDKIZQ","","241","img/land6.png","74","241.3999999994412","1","1","1","2","0.8,0.2,0.2,0.2,0.8,0.2,0.2,0.2,0.8","0.8,0.2,0.2,0.2,0.8,0.2,0.2,0.2,0.8","1","",""
"","html-keyboard-response","238","161639","0.0-238.0","34MAJL3QP59OU7Y903933TDVNJK43R","A3SMOU11PC1TE2","3ECKRY5B1QIH1N6NFX1ECCW5ZDKIZQ","","null","<img src=""img/land6.png"" style=""width:200px; border:14px solid green;"">","null","","","","","","","","","",""
"","image-keyboard-response","239","162322","0.0-239.0","34MAJL3QP59OU7Y903933TDVNJK43R","A3SMOU11PC1TE2","3ECKRY5B1QIH1N6NFX1ECCW5ZDKIZQ","","682.4000000003725","img/land6.png","74","682.5999999996275","1","1","1","2","0.8,0.2,0.2,0.2,0.8,0.2,0.2,0.2,0.8","0.8,0.2,0.2,0.2,0.8,0.2,0.2,0.2,0.8","1","",""
"","html-keyboard-response","240","162623","0.0-240.0","34MAJL3QP59OU7Y903933TDVNJK43R","A3SMOU11PC1TE2","3ECKRY5B1QIH1N6NFX1ECCW5ZDKIZQ","","null","<img src=""img/land6.png"" style=""width:200px; border:14px solid green;"">","null","","","","","","","","","",""
"","image-keyboard-response","241","162922","0.0-241.0","34MAJL3QP59OU7Y903933TDVNJK43R","A3SMOU11PC1TE2","3ECKRY5B1QIH1N6NFX1ECCW5ZDKIZQ","","298.1000000005588","img/land6.png","74","298.5","1","0","1","2","0.8,0.2,0.2,0.2,0.8,0.2,0.2,0.2,0.8","0.8,0.2,0.2,0.2,0.8,0.2,0.2,0.2,0.8","1","",""
"","html-keyboard-response","242","163222","0.0-242.0","34MAJL3QP59OU7Y903933TDVNJK43R","A3SMOU11PC1TE2","3ECKRY5B1QIH1N6NFX1ECCW5ZDKIZQ","","null","<img src=""img/land6.png"" style=""width:200px;border:14px solid red;"">","null","","","","","","","","","",""
"","image-keyboard-response","243","163530","0.0-243.0","34MAJL3QP59OU7Y903933TDVNJK43R","A3SMOU11PC1TE2","3ECKRY5B1QIH1N6NFX1ECCW5ZDKIZQ","","306.79999999981374","img/land6.png","74","307.1000000005588","1","1","1","2","0.8,0.2,0.2,0.2,0.8,0.2,0.2,0.2,0.8","0.8,0.2,0.2,0.2,0.8,0.2,0.2,0.2,0.8","1","",""
"","html-keyboard-response","244","163831","0.0-244.0","34MAJL3QP59OU7Y903933TDVNJK43R","A3SMOU11PC1TE2","3ECKRY5B1QIH1N6NFX1ECCW5ZDKIZQ","","null","<img src=""img/land6.png"" style=""width:200px; border:14px solid green;"">","null","","","","","","","","","",""
"","image-keyboard-response","245","164204","0.0-245.0","34MAJL3QP59OU7Y903933TDVNJK43R","A3SMOU11PC1TE2","3ECKRY5B1QIH1N6NFX1ECCW5ZDKIZQ","","372.3999999994412","img/land6.png","74","372.79999999981374","1","1","1","2","0.8,0.2,0.2,0.2,0.8,0.2,0.2,0.2,0.8","0.8,0.2,0.2,0.2,0.8,0.2,0.2,0.2,0.8","1","",""
"","html-keyboard-response","246","164505","0.0-246.0","34MAJL3QP59OU7Y903933TDVNJK43R","A3SMOU11PC1TE2","3ECKRY5B1QIH1N6NFX1ECCW5ZDKIZQ","","null","<img src=""img/land6.png"" style=""width:200px; border:14px solid green;"">","null","","","","","","","","","",""
"","image-keyboard-response","247","164828","0.0-247.0","34MAJL3QP59OU7Y903933TDVNJK43R","A3SMOU11PC1TE2","3ECKRY5B1QIH1N6NFX1ECCW5ZDKIZQ","","322.6000000005588","img/land6.png","74","323","1","1","1","2","0.8,0.2,0.2,0.2,0.8,0.2,0.2,0.2,0.8","0.8,0.2,0.2,0.2,0.8,0.2,0.2,0.2,0.8","1","",""
"","html-keyboard-response","248","165129","0.0-248.0","34MAJL3QP59OU7Y903933TDVNJK43R","A3SMOU11PC1TE2","3ECKRY5B1QIH1N6NFX1ECCW5ZDKIZQ","","null","<img src=""img/land6.png"" style=""width:200px; border:14px solid green;"">","null","","","","","","","","","",""
"","image-keyboard-response","249","165440","0.0-249.0","34MAJL3QP59OU7Y903933TDVNJK43R","A3SMOU11PC1TE2","3ECKRY5B1QIH1N6NFX1ECCW5ZDKIZQ","","310.09999999962747","img/land6.png","74","310.5","1","1","1","2","0.8,0.2,0.2,0.2,0.8,0.2,0.2,0.2,0.8","0.8,0.2,0.2,0.2,0.8,0.2,0.2,0.2,0.8","1","",""
"","html-keyboard-response","250","165741","0.0-250.0","34MAJL3QP59OU7Y903933TDVNJK43R","A3SMOU11PC1TE2","3ECKRY5B1QIH1N6NFX1ECCW5ZDKIZQ","","null","<img src=""img/land6.png"" style=""width:200px; border:14px solid green;"">","null","","","","","","","","","",""
"","image-keyboard-response","251","166040","0.0-251.0","34MAJL3QP59OU7Y903933TDVNJK43R","A3SMOU11PC1TE2","3ECKRY5B1QIH1N6NFX1ECCW5ZDKIZQ","","298.5","img/land6.png","74","298.90000000037253","1","1","1","2","0.8,0.2,0.2,0.2,0.8,0.2,0.2,0.2,0.8","0.8,0.2,0.2,0.2,0.8,0.2,0.2,0.2,0.8","1","",""
"","html-keyboard-response","252","166340","0.0-252.0","34MAJL3QP59OU7Y903933TDVNJK43R","A3SMOU11PC1TE2","3ECKRY5B1QIH1N6NFX1ECCW5ZDKIZQ","","null","<img src=""img/land6.png"" style=""width:200px; border:14px solid green;"">","null","","","","","","","","","",""
"","image-keyboard-response","253","166710","0.0-253.0","34MAJL3QP59OU7Y903933TDVNJK43R","A3SMOU11PC1TE2","3ECKRY5B1QIH1N6NFX1ECCW5ZDKIZQ","","369.1000000005588","img/land6.png","74","369.30000000074506","1","1","1","2","0.8,0.2,0.2,0.2,0.8,0.2,0.2,0.2,0.8","0.8,0.2,0.2,0.2,0.8,0.2,0.2,0.2,0.8","1","",""
"","html-keyboard-response","254","167011","0.0-254.0","34MAJL3QP59OU7Y903933TDVNJK43R","A3SMOU11PC1TE2","3ECKRY5B1QIH1N6NFX1ECCW5ZDKIZQ","","null","<img src=""img/land6.png"" style=""width:200px; border:14px solid green;"">","null","","","","","","","","","",""
"","image-keyboard-response","255","167356","0.0-255.0","34MAJL3QP59OU7Y903933TDVNJK43R","A3SMOU11PC1TE2","3ECKRY5B1QIH1N6NFX1ECCW5ZDKIZQ","","344.30000000074506","img/land6.png","74","344.69999999925494","1","1","1","2","0.8,0.2,0.2,0.2,0.8,0.2,0.2,0.2,0.8","0.8,0.2,0.2,0.2,0.8,0.2,0.2,0.2,0.8","1","",""
"","html-keyboard-response","256","167657","0.0-256.0","34MAJL3QP59OU7Y903933TDVNJK43R","A3SMOU11PC1TE2","3ECKRY5B1QIH1N6NFX1ECCW5ZDKIZQ","","null","<img src=""img/land6.png"" style=""width:200px; border:14px solid green;"">","null","","","","","","","","","",""
"","image-keyboard-response","257","168554","0.0-257.0","34MAJL3QP59OU7Y903933TDVNJK43R","A3SMOU11PC1TE2","3ECKRY5B1QIH1N6NFX1ECCW5ZDKIZQ","","896.3000000007451","img/land5.png","76","896.7999999998137","3","0","3","2","0.8,0.2,0.2,0.2,0.8,0.2,0.2,0.2,0.8","0.8,0.2,0.2,0.2,0.8,0.2,0.2,0.2,0.8","1","",""
"","html-keyboard-response","258","168855","0.0-258.0","34MAJL3QP59OU7Y903933TDVNJK43R","A3SMOU11PC1TE2","3ECKRY5B1QIH1N6NFX1ECCW5ZDKIZQ","","null","<img src=""img/land5.png"" style=""width:200px;border:14px solid red;"">","null","","","","","","","","","",""
"","image-keyboard-response","259","169110","0.0-259.0","34MAJL3QP59OU7Y903933TDVNJK43R","A3SMOU11PC1TE2","3ECKRY5B1QIH1N6NFX1ECCW5ZDKIZQ","","254.09999999962747","img/land1.png","76","254.5","3","0","2","2","0.8,0.2,0.2,0.2,0.8,0.2,0.2,0.2,0.8","0.8,0.2,0.2,0.2,0.8,0.2,0.2,0.2,0.8","1","",""
"","html-keyboard-response","260","169411","0.0-260.0","34MAJL3QP59OU7Y903933TDVNJK43R","A3SMOU11PC1TE2","3ECKRY5B1QIH1N6NFX1ECCW5ZDKIZQ","","null","<img src=""img/land1.png"" style=""width:200px;border:14px solid red;"">","null","","","","","","","","","",""
"","image-keyboard-response","261","170220","0.0-261.0","34MAJL3QP59OU7Y903933TDVNJK43R","A3SMOU11PC1TE2","3ECKRY5B1QIH1N6NFX1ECCW5ZDKIZQ","","808.2000000001863","img/land6.png","74","808.5","1","1","1","2","0.8,0.2,0.2,0.2,0.8,0.2,0.2,0.2,0.8","0.8,0.2,0.2,0.2,0.8,0.2,0.2,0.2,0.8","1","",""
"","html-keyboard-response","262","170521","0.0-262.0","34MAJL3QP59OU7Y903933TDVNJK43R","A3SMOU11PC1TE2","3ECKRY5B1QIH1N6NFX1ECCW5ZDKIZQ","","null","<img src=""img/land6.png"" style=""width:200px; border:14px solid green;"">","null","","","","","","","","","",""
"","image-keyboard-response","263","171066","0.0-263.0","34MAJL3QP59OU7Y903933TDVNJK43R","A3SMOU11PC1TE2","3ECKRY5B1QIH1N6NFX1ECCW5ZDKIZQ","","544.8000000007451","img/land6.png","74","545","1","1","1","2","0.8,0.2,0.2,0.2,0.8,0.2,0.2,0.2,0.8","0.8,0.2,0.2,0.2,0.8,0.2,0.2,0.2,0.8","1","",""
"","html-keyboard-response","264","171366","0.0-264.0","34MAJL3QP59OU7Y903933TDVNJK43R","A3SMOU11PC1TE2","3ECKRY5B1QIH1N6NFX1ECCW5ZDKIZQ","","null","<img src=""img/land6.png"" style=""width:200px; border:14px solid green;"">","null","","","","","","","","","",""
"","image-keyboard-response","265","171936","0.0-265.0","34MAJL3QP59OU7Y903933TDVNJK43R","A3SMOU11PC1TE2","3ECKRY5B1QIH1N6NFX1ECCW5ZDKIZQ","","568.8999999994412","img/land6.png","74","569.2999999998137","1","1","1","2","0.8,0.2,0.2,0.2,0.8,0.2,0.2,0.2,0.8","0.8,0.2,0.2,0.2,0.8,0.2,0.2,0.2,0.8","1","",""
"","html-keyboard-response","266","172237","0.0-266.0","34MAJL3QP59OU7Y903933TDVNJK43R","A3SMOU11PC1TE2","3ECKRY5B1QIH1N6NFX1ECCW5ZDKIZQ","","null","<img src=""img/land6.png"" style=""width:200px; border:14px solid green;"">","null","","","","","","","","","",""
"","image-keyboard-response","267","172892","0.0-267.0","34MAJL3QP59OU7Y903933TDVNJK43R","A3SMOU11PC1TE2","3ECKRY5B1QIH1N6NFX1ECCW5ZDKIZQ","","654.0999999996275","img/land5.png","76","654.5","3","1","3","2","0.8,0.2,0.2,0.2,0.8,0.2,0.2,0.2,0.8","0.8,0.2,0.2,0.2,0.8,0.2,0.2,0.2,0.8","1","",""
"","html-keyboard-response","268","173192","0.0-268.0","34MAJL3QP59OU7Y903933TDVNJK43R","A3SMOU11PC1TE2","3ECKRY5B1QIH1N6NFX1ECCW5ZDKIZQ","","null","<img src=""img/land5.png"" style=""width:200px; border:14px solid green;"">","null","","","","","","","","","",""
"","image-keyboard-response","269","173772","0.0-269.0","34MAJL3QP59OU7Y903933TDVNJK43R","A3SMOU11PC1TE2","3ECKRY5B1QIH1N6NFX1ECCW5ZDKIZQ","","579","img/land6.png","74","579.2999999998137","1","1","1","2","0.8,0.2,0.2,0.2,0.8,0.2,0.2,0.2,0.8","0.8,0.2,0.2,0.2,0.8,0.2,0.2,0.2,0.8","1","",""
"","html-keyboard-response","270","174073","0.0-270.0","34MAJL3QP59OU7Y903933TDVNJK43R","A3SMOU11PC1TE2","3ECKRY5B1QIH1N6NFX1ECCW5ZDKIZQ","","null","<img src=""img/land6.png"" style=""width:200px; border:14px solid green;"">","null","","","","","","","","","",""
"","image-keyboard-response","271","174488","0.0-271.0","34MAJL3QP59OU7Y903933TDVNJK43R","A3SMOU11PC1TE2","3ECKRY5B1QIH1N6NFX1ECCW5ZDKIZQ","","414.59999999962747","img/land6.png","74","415.1000000005588","1","1","1","2","0.8,0.2,0.2,0.2,0.8,0.2,0.2,0.2,0.8","0.8,0.2,0.2,0.2,0.8,0.2,0.2,0.2,0.8","1","",""
"","html-keyboard-response","272","174788","0.0-272.0","34MAJL3QP59OU7Y903933TDVNJK43R","A3SMOU11PC1TE2","3ECKRY5B1QIH1N6NFX1ECCW5ZDKIZQ","","null","<img src=""img/land6.png"" style=""width:200px; border:14px solid green;"">","null","","","","","","","","","",""
"","image-keyboard-response","273","175392","0.0-273.0","34MAJL3QP59OU7Y903933TDVNJK43R","A3SMOU11PC1TE2","3ECKRY5B1QIH1N6NFX1ECCW5ZDKIZQ","","602.9000000003725","img/land5.png","76","603.2999999998137","3","1","3","2","0.8,0.2,0.2,0.2,0.8,0.2,0.2,0.2,0.8","0.8,0.2,0.2,0.2,0.8,0.2,0.2,0.2,0.8","1","",""
"","html-keyboard-response","274","175693","0.0-274.0","34MAJL3QP59OU7Y903933TDVNJK43R","A3SMOU11PC1TE2","3ECKRY5B1QIH1N6NFX1ECCW5ZDKIZQ","","null","<img src=""img/land5.png"" style=""width:200px; border:14px solid green;"">","null","","","","","","","","","",""
"","image-keyboard-response","275","176338","0.0-275.0","34MAJL3QP59OU7Y903933TDVNJK43R","A3SMOU11PC1TE2","3ECKRY5B1QIH1N6NFX1ECCW5ZDKIZQ","","644.5999999996275","img/land1.png","75","645","2","0","2","2","0.8,0.2,0.2,0.2,0.8,0.2,0.2,0.2,0.8","0.8,0.2,0.2,0.2,0.8,0.2,0.2,0.2,0.8","1","",""
"","html-keyboard-response","276","176639","0.0-276.0","34MAJL3QP59OU7Y903933TDVNJK43R","A3SMOU11PC1TE2","3ECKRY5B1QIH1N6NFX1ECCW5ZDKIZQ","","null","<img src=""img/land1.png"" style=""width:200px;border:14px solid red;"">","null","","","","","","","","","",""
"","image-keyboard-response","277","178350","0.0-277.0","34MAJL3QP59OU7Y903933TDVNJK43R","A3SMOU11PC1TE2","3ECKRY5B1QIH1N6NFX1ECCW5ZDKIZQ","","1710.5","img/land6.png","74","1710.8999999994412","1","1","1","2","0.8,0.2,0.2,0.2,0.8,0.2,0.2,0.2,0.8","0.8,0.2,0.2,0.2,0.8,0.2,0.2,0.2,0.8","1","",""
"","html-keyboard-response","278","178651","0.0-278.0","34MAJL3QP59OU7Y903933TDVNJK43R","A3SMOU11PC1TE2","3ECKRY5B1QIH1N6NFX1ECCW5ZDKIZQ","","null","<img src=""img/land6.png"" style=""width:200px; border:14px solid green;"">","null","","","","","","","","","",""
"","image-keyboard-response","279","179280","0.0-279.0","34MAJL3QP59OU7Y903933TDVNJK43R","A3SMOU11PC1TE2","3ECKRY5B1QIH1N6NFX1ECCW5ZDKIZQ","","628.5","img/land1.png","75","628.8999999994412","2","0","2","2","0.8,0.2,0.2,0.2,0.8,0.2,0.2,0.2,0.8","0.8,0.2,0.2,0.2,0.8,0.2,0.2,0.2,0.8","1","",""
"","html-keyboard-response","280","179581","0.0-280.0","34MAJL3QP59OU7Y903933TDVNJK43R","A3SMOU11PC1TE2","3ECKRY5B1QIH1N6NFX1ECCW5ZDKIZQ","","null","<img src=""img/land1.png"" style=""width:200px;border:14px solid red;"">","null","","","","","","","","","",""
"","image-keyboard-response","281","180016","0.0-281.0","34MAJL3QP59OU7Y903933TDVNJK43R","A3SMOU11PC1TE2","3ECKRY5B1QIH1N6NFX1ECCW5ZDKIZQ","","434.20000000018626","img/land1.png","75","434.69999999925494","2","1","2","2","0.8,0.2,0.2,0.2,0.8,0.2,0.2,0.2,0.8","0.8,0.2,0.2,0.2,0.8,0.2,0.2,0.2,0.8","1","",""
"","html-keyboard-response","282","180317","0.0-282.0","34MAJL3QP59OU7Y903933TDVNJK43R","A3SMOU11PC1TE2","3ECKRY5B1QIH1N6NFX1ECCW5ZDKIZQ","","null","<img src=""img/land1.png"" style=""width:200px; border:14px solid green;"">","null","","","","","","","","","",""
"","image-keyboard-response","283","180697","0.0-283.0","34MAJL3QP59OU7Y903933TDVNJK43R","A3SMOU11PC1TE2","3ECKRY5B1QIH1N6NFX1ECCW5ZDKIZQ","","379.20000000018626","img/land1.png","75","379.59999999962747","2","1","2","2","0.8,0.2,0.2,0.2,0.8,0.2,0.2,0.2,0.8","0.8,0.2,0.2,0.2,0.8,0.2,0.2,0.2,0.8","1","",""
"","html-keyboard-response","284","180998","0.0-284.0","34MAJL3QP59OU7Y903933TDVNJK43R","A3SMOU11PC1TE2","3ECKRY5B1QIH1N6NFX1ECCW5ZDKIZQ","","null","<img src=""img/land1.png"" style=""width:200px; border:14px solid green;"">","null","","","","","","","","","",""
"","image-keyboard-response","285","181563","0.0-285.0","34MAJL3QP59OU7Y903933TDVNJK43R","A3SMOU11PC1TE2","3ECKRY5B1QIH1N6NFX1ECCW5ZDKIZQ","","564.6000000005588","img/land5.png","76","565.0999999996275","3","1","3","2","0.8,0.2,0.2,0.2,0.8,0.2,0.2,0.2,0.8","0.8,0.2,0.2,0.2,0.8,0.2,0.2,0.2,0.8","1","",""
"","html-keyboard-response","286","181863","0.0-286.0","34MAJL3QP59OU7Y903933TDVNJK43R","A3SMOU11PC1TE2","3ECKRY5B1QIH1N6NFX1ECCW5ZDKIZQ","","null","<img src=""img/land5.png"" style=""width:200px; border:14px solid green;"">","null","","","","","","","","","",""
"","image-keyboard-response","287","182579","0.0-287.0","34MAJL3QP59OU7Y903933TDVNJK43R","A3SMOU11PC1TE2","3ECKRY5B1QIH1N6NFX1ECCW5ZDKIZQ","","715","img/land6.png","75","715.2999999998137","2","1","1","2","0.8,0.2,0.2,0.2,0.8,0.2,0.2,0.2,0.8","0.8,0.2,0.2,0.2,0.8,0.2,0.2,0.2,0.8","1","",""
"","html-keyboard-response","288","182880","0.0-288.0","34MAJL3QP59OU7Y903933TDVNJK43R","A3SMOU11PC1TE2","3ECKRY5B1QIH1N6NFX1ECCW5ZDKIZQ","","null","<img src=""img/land6.png"" style=""width:200px; border:14px solid green;"">","null","","","","","","","","","",""
"","image-keyboard-response","289","183944","0.0-289.0","34MAJL3QP59OU7Y903933TDVNJK43R","A3SMOU11PC1TE2","3ECKRY5B1QIH1N6NFX1ECCW5ZDKIZQ","","1063","img/land6.png","75","1063.3999999994412","2","1","1","2","0.8,0.2,0.2,0.2,0.8,0.2,0.2,0.2,0.8","0.8,0.2,0.2,0.2,0.8,0.2,0.2,0.2,0.8","1","",""
"","html-keyboard-response","290","184245","0.0-290.0","34MAJL3QP59OU7Y903933TDVNJK43R","A3SMOU11PC1TE2","3ECKRY5B1QIH1N6NFX1ECCW5ZDKIZQ","","null","<img src=""img/land6.png"" style=""width:200px; border:14px solid green;"">","null","","","","","","","","","",""
"","image-keyboard-response","291","184962","0.0-291.0","34MAJL3QP59OU7Y903933TDVNJK43R","A3SMOU11PC1TE2","3ECKRY5B1QIH1N6NFX1ECCW5ZDKIZQ","","715.7999999998137","img/land1.png","75","716.2999999998137","2","1","2","2","0.8,0.2,0.2,0.2,0.8,0.2,0.2,0.2,0.8","0.8,0.2,0.2,0.2,0.8,0.2,0.2,0.2,0.8","1","",""
"","html-keyboard-response","292","185262","0.0-292.0","34MAJL3QP59OU7Y903933TDVNJK43R","A3SMOU11PC1TE2","3ECKRY5B1QIH1N6NFX1ECCW5ZDKIZQ","","null","<img src=""img/land1.png"" style=""width:200px; border:14px solid green;"">","null","","","","","","","","","",""
"","image-keyboard-response","293","185709","0.0-293.0","34MAJL3QP59OU7Y903933TDVNJK43R","A3SMOU11PC1TE2","3ECKRY5B1QIH1N6NFX1ECCW5ZDKIZQ","","446.70000000018626","img/land6.png","75","447","2","0","1","2","0.8,0.2,0.2,0.2,0.8,0.2,0.2,0.2,0.8","0.8,0.2,0.2,0.2,0.8,0.2,0.2,0.2,0.8","1","",""
"","html-keyboard-response","294","186010","0.0-294.0","34MAJL3QP59OU7Y903933TDVNJK43R","A3SMOU11PC1TE2","3ECKRY5B1QIH1N6NFX1ECCW5ZDKIZQ","","null","<img src=""img/land6.png"" style=""width:200px;border:14px solid red;"">","null","","","","","","","","","",""
"","image-keyboard-response","295","186775","0.0-295.0","34MAJL3QP59OU7Y903933TDVNJK43R","A3SMOU11PC1TE2","3ECKRY5B1QIH1N6NFX1ECCW5ZDKIZQ","","764.6000000005588","img/land5.png","76","765","3","1","3","2","0.8,0.2,0.2,0.2,0.8,0.2,0.2,0.2,0.8","0.8,0.2,0.2,0.2,0.8,0.2,0.2,0.2,0.8","1","",""
"","html-keyboard-response","296","187076","0.0-296.0","34MAJL3QP59OU7Y903933TDVNJK43R","A3SMOU11PC1TE2","3ECKRY5B1QIH1N6NFX1ECCW5ZDKIZQ","","null","<img src=""img/land5.png"" style=""width:200px; border:14px solid green;"">","null","","","","","","","","","",""
"","image-keyboard-response","297","187737","0.0-297.0","34MAJL3QP59OU7Y903933TDVNJK43R","A3SMOU11PC1TE2","3ECKRY5B1QIH1N6NFX1ECCW5ZDKIZQ","","660.7999999998137","img/land6.png","75","661.2000000001863","2","0","1","2","0.8,0.2,0.2,0.2,0.8,0.2,0.2,0.2,0.8","0.8,0.2,0.2,0.2,0.8,0.2,0.2,0.2,0.8","1","",""
"","html-keyboard-response","298","188038","0.0-298.0","34MAJL3QP59OU7Y903933TDVNJK43R","A3SMOU11PC1TE2","3ECKRY5B1QIH1N6NFX1ECCW5ZDKIZQ","","null","<img src=""img/land6.png"" style=""width:200px;border:14px solid red;"">","null","","","","","","","","","",""
"","image-keyboard-response","299","188363","0.0-299.0","34MAJL3QP59OU7Y903933TDVNJK43R","A3SMOU11PC1TE2","3ECKRY5B1QIH1N6NFX1ECCW5ZDKIZQ","","325","img/land6.png","74","325.5","1","0","1","2","0.8,0.2,0.2,0.2,0.8,0.2,0.2,0.2,0.8","0.8,0.2,0.2,0.2,0.8,0.2,0.2,0.2,0.8","1","",""
"","html-keyboard-response","300","188665","0.0-300.0","34MAJL3QP59OU7Y903933TDVNJK43R","A3SMOU11PC1TE2","3ECKRY5B1QIH1N6NFX1ECCW5ZDKIZQ","","null","<img src=""img/land6.png"" style=""width:200px;border:14px solid red;"">","null","","","","","","","","","",""
"","image-keyboard-response","301","188947","0.0-301.0","34MAJL3QP59OU7Y903933TDVNJK43R","A3SMOU11PC1TE2","3ECKRY5B1QIH1N6NFX1ECCW5ZDKIZQ","","282","img/land6.png","74","282.30000000074506","1","0","1","2","0.8,0.2,0.2,0.2,0.8,0.2,0.2,0.2,0.8","0.8,0.2,0.2,0.2,0.8,0.2,0.2,0.2,0.8","1","",""
"","html-keyboard-response","302","189248","0.0-302.0","34MAJL3QP59OU7Y903933TDVNJK43R","A3SMOU11PC1TE2","3ECKRY5B1QIH1N6NFX1ECCW5ZDKIZQ","","null","<img src=""img/land6.png"" style=""width:200px;border:14px solid red;"">","null","","","","","","","","","",""
"","image-keyboard-response","303","189507","0.0-303.0","34MAJL3QP59OU7Y903933TDVNJK43R","A3SMOU11PC1TE2","3ECKRY5B1QIH1N6NFX1ECCW5ZDKIZQ","","258.5","img/land6.png","74","258.90000000037253","1","0","1","2","0.8,0.2,0.2,0.2,0.8,0.2,0.2,0.2,0.8","0.8,0.2,0.2,0.2,0.8,0.2,0.2,0.2,0.8","1","",""
"","html-keyboard-response","304","189808","0.0-304.0","34MAJL3QP59OU7Y903933TDVNJK43R","A3SMOU11PC1TE2","3ECKRY5B1QIH1N6NFX1ECCW5ZDKIZQ","","null","<img src=""img/land6.png"" style=""width:200px;border:14px solid red;"">","null","","","","","","","","","",""
"","image-keyboard-response","305","190747","0.0-305.0","34MAJL3QP59OU7Y903933TDVNJK43R","A3SMOU11PC1TE2","3ECKRY5B1QIH1N6NFX1ECCW5ZDKIZQ","","939","img/land1.png","75","939.2999999998137","2","1","2","2","0.8,0.2,0.2,0.2,0.8,0.2,0.2,0.2,0.8","0.8,0.2,0.2,0.2,0.8,0.2,0.2,0.2,0.8","1","",""
"","html-keyboard-response","306","191048","0.0-306.0","34MAJL3QP59OU7Y903933TDVNJK43R","A3SMOU11PC1TE2","3ECKRY5B1QIH1N6NFX1ECCW5ZDKIZQ","","null","<img src=""img/land1.png"" style=""width:200px; border:14px solid green;"">","null","","","","","","","","","",""
"","image-keyboard-response","307","191810","0.0-307.0","34MAJL3QP59OU7Y903933TDVNJK43R","A3SMOU11PC1TE2","3ECKRY5B1QIH1N6NFX1ECCW5ZDKIZQ","","760.9000000003725","img/land6.png","74","761.4000000003725","1","1","1","2","0.8,0.2,0.2,0.2,0.8,0.2,0.2,0.2,0.8","0.8,0.2,0.2,0.2,0.8,0.2,0.2,0.2,0.8","1","",""
"","html-keyboard-response","308","192111","0.0-308.0","34MAJL3QP59OU7Y903933TDVNJK43R","A3SMOU11PC1TE2","3ECKRY5B1QIH1N6NFX1ECCW5ZDKIZQ","","null","<img src=""img/land6.png"" style=""width:200px; border:14px solid green;"">","null","","","","","","","","","",""
"","image-keyboard-response","309","192436","0.0-309.0","34MAJL3QP59OU7Y903933TDVNJK43R","A3SMOU11PC1TE2","3ECKRY5B1QIH1N6NFX1ECCW5ZDKIZQ","","324.20000000018626","img/land6.png","74","324.59999999962747","1","1","1","2","0.8,0.2,0.2,0.2,0.8,0.2,0.2,0.2,0.8","0.8,0.2,0.2,0.2,0.8,0.2,0.2,0.2,0.8","1","",""
"","html-keyboard-response","310","192736","0.0-310.0","34MAJL3QP59OU7Y903933TDVNJK43R","A3SMOU11PC1TE2","3ECKRY5B1QIH1N6NFX1ECCW5ZDKIZQ","","null","<img src=""img/land6.png"" style=""width:200px; border:14px solid green;"">","null","","","","","","","","","",""
"","image-keyboard-response","311","193006","0.0-311.0","34MAJL3QP59OU7Y903933TDVNJK43R","A3SMOU11PC1TE2","3ECKRY5B1QIH1N6NFX1ECCW5ZDKIZQ","","268.70000000018626","img/land6.png","74","269.1000000005588","1","1","1","2","0.8,0.2,0.2,0.2,0.8,0.2,0.2,0.2,0.8","0.8,0.2,0.2,0.2,0.8,0.2,0.2,0.2,0.8","1","",""
"","html-keyboard-response","312","193321","0.0-312.0","34MAJL3QP59OU7Y903933TDVNJK43R","A3SMOU11PC1TE2","3ECKRY5B1QIH1N6NFX1ECCW5ZDKIZQ","","null","<img src=""img/land6.png"" style=""width:200px; border:14px solid green;"">","null","","","","","","","","","",""
"","image-keyboard-response","313","194083","0.0-313.0","34MAJL3QP59OU7Y903933TDVNJK43R","A3SMOU11PC1TE2","3ECKRY5B1QIH1N6NFX1ECCW5ZDKIZQ","","762.0999999996275","img/land5.png","76","762.5","3","1","3","2","0.8,0.2,0.2,0.2,0.8,0.2,0.2,0.2,0.8","0.8,0.2,0.2,0.2,0.8,0.2,0.2,0.2,0.8","1","",""
"","html-keyboard-response","314","194384","0.0-314.0","34MAJL3QP59OU7Y903933TDVNJK43R","A3SMOU11PC1TE2","3ECKRY5B1QIH1N6NFX1ECCW5ZDKIZQ","","null","<img src=""img/land5.png"" style=""width:200px; border:14px solid green;"">","null","","","","","","","","","",""
"","image-keyboard-response","315","195446","0.0-315.0","34MAJL3QP59OU7Y903933TDVNJK43R","A3SMOU11PC1TE2","3ECKRY5B1QIH1N6NFX1ECCW5ZDKIZQ","","1060.5999999996275","img/land6.png","74","1061","1","1","1","2","0.8,0.2,0.2,0.2,0.8,0.2,0.2,0.2,0.8","0.8,0.2,0.2,0.2,0.8,0.2,0.2,0.2,0.8","1","",""
"","html-keyboard-response","316","195747","0.0-316.0","34MAJL3QP59OU7Y903933TDVNJK43R","A3SMOU11PC1TE2","3ECKRY5B1QIH1N6NFX1ECCW5ZDKIZQ","","null","<img src=""img/land6.png"" style=""width:200px; border:14px solid green;"">","null","","","","","","","","","",""
"","image-keyboard-response","317","196063","0.0-317.0","34MAJL3QP59OU7Y903933TDVNJK43R","A3SMOU11PC1TE2","3ECKRY5B1QIH1N6NFX1ECCW5ZDKIZQ","","316.40000000037253","img/land6.png","74","316.70000000018626","1","1","1","2","0.8,0.2,0.2,0.2,0.8,0.2,0.2,0.2,0.8","0.8,0.2,0.2,0.2,0.8,0.2,0.2,0.2,0.8","1","",""
"","html-keyboard-response","318","196364","0.0-318.0","34MAJL3QP59OU7Y903933TDVNJK43R","A3SMOU11PC1TE2","3ECKRY5B1QIH1N6NFX1ECCW5ZDKIZQ","","null","<img src=""img/land6.png"" style=""width:200px; border:14px solid green;"">","null","","","","","","","","","",""
"","image-keyboard-response","319","196643","0.0-319.0","34MAJL3QP59OU7Y903933TDVNJK43R","A3SMOU11PC1TE2","3ECKRY5B1QIH1N6NFX1ECCW5ZDKIZQ","","278.70000000018626","img/land6.png","74","279","1","1","1","2","0.8,0.2,0.2,0.2,0.8,0.2,0.2,0.2,0.8","0.8,0.2,0.2,0.2,0.8,0.2,0.2,0.2,0.8","1","",""
"","html-keyboard-response","320","196945","0.0-320.0","34MAJL3QP59OU7Y903933TDVNJK43R","A3SMOU11PC1TE2","3ECKRY5B1QIH1N6NFX1ECCW5ZDKIZQ","","null","<img src=""img/land6.png"" style=""width:200px; border:14px solid green;"">","null","","","","","","","","","",""
"","image-keyboard-response","321","198115","0.0-321.0","34MAJL3QP59OU7Y903933TDVNJK43R","A3SMOU11PC1TE2","3ECKRY5B1QIH1N6NFX1ECCW5ZDKIZQ","","1170.300000000745","img/land1.png","75","1170.699999999255","2","1","2","2","0.8,0.2,0.2,0.2,0.8,0.2,0.2,0.2,0.8","0.8,0.2,0.2,0.2,0.8,0.2,0.2,0.2,0.8","1","",""
"","html-keyboard-response","322","198417","0.0-322.0","34MAJL3QP59OU7Y903933TDVNJK43R","A3SMOU11PC1TE2","3ECKRY5B1QIH1N6NFX1ECCW5ZDKIZQ","","null","<img src=""img/land1.png"" style=""width:200px; border:14px solid green;"">","null","","","","","","","","","",""
"","image-keyboard-response","323","199134","0.0-323.0","34MAJL3QP59OU7Y903933TDVNJK43R","A3SMOU11PC1TE2","3ECKRY5B1QIH1N6NFX1ECCW5ZDKIZQ","","716.5","img/land6.png","74","716.9000000003725","1","0","1","2","0.8,0.2,0.2,0.2,0.8,0.2,0.2,0.2,0.8","0.8,0.2,0.2,0.2,0.8,0.2,0.2,0.2,0.8","1","",""
"","html-keyboard-response","324","199434","0.0-324.0","34MAJL3QP59OU7Y903933TDVNJK43R","A3SMOU11PC1TE2","3ECKRY5B1QIH1N6NFX1ECCW5ZDKIZQ","","null","<img src=""img/land6.png"" style=""width:200px;border:14px solid red;"">","null","","","","","","","","","",""
"","image-keyboard-response","325","200136","0.0-325.0","34MAJL3QP59OU7Y903933TDVNJK43R","A3SMOU11PC1TE2","3ECKRY5B1QIH1N6NFX1ECCW5ZDKIZQ","","700.7999999998137","img/land1.png","75","701.2000000001863","2","1","2","2","0.8,0.2,0.2,0.2,0.8,0.2,0.2,0.2,0.8","0.8,0.2,0.2,0.2,0.8,0.2,0.2,0.2,0.8","1","",""
"","html-keyboard-response","326","200442","0.0-326.0","34MAJL3QP59OU7Y903933TDVNJK43R","A3SMOU11PC1TE2","3ECKRY5B1QIH1N6NFX1ECCW5ZDKIZQ","","null","<img src=""img/land1.png"" style=""width:200px; border:14px solid green;"">","null","","","","","","","","","",""
"","image-keyboard-response","327","201151","0.0-327.0","34MAJL3QP59OU7Y903933TDVNJK43R","A3SMOU11PC1TE2","3ECKRY5B1QIH1N6NFX1ECCW5ZDKIZQ","","709.5","img/land1.png","75","709.8999999994412","2","1","2","2","0.8,0.2,0.2,0.2,0.8,0.2,0.2,0.2,0.8","0.8,0.2,0.2,0.2,0.8,0.2,0.2,0.2,0.8","1","",""
"","html-keyboard-response","328","201453","0.0-328.0","34MAJL3QP59OU7Y903933TDVNJK43R","A3SMOU11PC1TE2","3ECKRY5B1QIH1N6NFX1ECCW5ZDKIZQ","","null","<img src=""img/land1.png"" style=""width:200px; border:14px solid green;"">","null","","","","","","","","","",""
"","image-keyboard-response","329","201767","0.0-329.0","34MAJL3QP59OU7Y903933TDVNJK43R","A3SMOU11PC1TE2","3ECKRY5B1QIH1N6NFX1ECCW5ZDKIZQ","","314.09999999962747","img/land1.png","75","314.5","2","1","2","2","0.8,0.2,0.2,0.2,0.8,0.2,0.2,0.2,0.8","0.8,0.2,0.2,0.2,0.8,0.2,0.2,0.2,0.8","1","",""
"","html-keyboard-response","330","202068","0.0-330.0","34MAJL3QP59OU7Y903933TDVNJK43R","A3SMOU11PC1TE2","3ECKRY5B1QIH1N6NFX1ECCW5ZDKIZQ","","null","<img src=""img/land1.png"" style=""width:200px; border:14px solid green;"">","null","","","","","","","","","",""
"","image-keyboard-response","331","202277","0.0-331.0","34MAJL3QP59OU7Y903933TDVNJK43R","A3SMOU11PC1TE2","3ECKRY5B1QIH1N6NFX1ECCW5ZDKIZQ","","209","img/land6.png","75","209.5","2","0","1","2","0.8,0.2,0.2,0.2,0.8,0.2,0.2,0.2,0.8","0.8,0.2,0.2,0.2,0.8,0.2,0.2,0.2,0.8","1","",""
"","html-keyboard-response","332","202578","0.0-332.0","34MAJL3QP59OU7Y903933TDVNJK43R","A3SMOU11PC1TE2","3ECKRY5B1QIH1N6NFX1ECCW5ZDKIZQ","","null","<img src=""img/land6.png"" style=""width:200px;border:14px solid red;"">","null","","","","","","","","","",""
"","image-keyboard-response","333","203643","0.0-333.0","34MAJL3QP59OU7Y903933TDVNJK43R","A3SMOU11PC1TE2","3ECKRY5B1QIH1N6NFX1ECCW5ZDKIZQ","","1064.5","img/land5.png","76","1065","3","1","3","2","0.8,0.2,0.2,0.2,0.8,0.2,0.2,0.2,0.8","0.8,0.2,0.2,0.2,0.8,0.2,0.2,0.2,0.8","1","",""
"","html-keyboard-response","334","203945","0.0-334.0","34MAJL3QP59OU7Y903933TDVNJK43R","A3SMOU11PC1TE2","3ECKRY5B1QIH1N6NFX1ECCW5ZDKIZQ","","null","<img src=""img/land5.png"" style=""width:200px; border:14px solid green;"">","null","","","","","","","","","",""
"","image-keyboard-response","335","204809","0.0-335.0","34MAJL3QP59OU7Y903933TDVNJK43R","A3SMOU11PC1TE2","3ECKRY5B1QIH1N6NFX1ECCW5ZDKIZQ","","864.0999999996275","img/land1.png","75","864.5","2","1","2","2","0.8,0.2,0.2,0.2,0.8,0.2,0.2,0.2,0.8","0.8,0.2,0.2,0.2,0.8,0.2,0.2,0.2,0.8","1","",""
"","html-keyboard-response","336","205111","0.0-336.0","34MAJL3QP59OU7Y903933TDVNJK43R","A3SMOU11PC1TE2","3ECKRY5B1QIH1N6NFX1ECCW5ZDKIZQ","","null","<img src=""img/land1.png"" style=""width:200px; border:14px solid green;"">","null","","","","","","","","","",""
"","image-keyboard-response","337","205666","0.0-337.0","34MAJL3QP59OU7Y903933TDVNJK43R","A3SMOU11PC1TE2","3ECKRY5B1QIH1N6NFX1ECCW5ZDKIZQ","","554.3999999994412","img/land6.png","74","554.7999999998137","1","1","1","2","0.8,0.2,0.2,0.2,0.8,0.2,0.2,0.2,0.8","0.8,0.2,0.2,0.2,0.8,0.2,0.2,0.2,0.8","1","",""
"","html-keyboard-response","338","205966","0.0-338.0","34MAJL3QP59OU7Y903933TDVNJK43R","A3SMOU11PC1TE2","3ECKRY5B1QIH1N6NFX1ECCW5ZDKIZQ","","null","<img src=""img/land6.png"" style=""width:200px; border:14px solid green;"">","null","","","","","","","","","",""
"","image-keyboard-response","339","206651","0.0-339.0","34MAJL3QP59OU7Y903933TDVNJK43R","A3SMOU11PC1TE2","3ECKRY5B1QIH1N6NFX1ECCW5ZDKIZQ","","684.5","img/land5.png","76","684.7999999998137","3","1","3","2","0.8,0.2,0.2,0.2,0.8,0.2,0.2,0.2,0.8","0.8,0.2,0.2,0.2,0.8,0.2,0.2,0.2,0.8","1","",""
"","html-keyboard-response","340","206952","0.0-340.0","34MAJL3QP59OU7Y903933TDVNJK43R","A3SMOU11PC1TE2","3ECKRY5B1QIH1N6NFX1ECCW5ZDKIZQ","","null","<img src=""img/land5.png"" style=""width:200px; border:14px solid green;"">","null","","","","","","","","","",""
"","image-keyboard-response","341","207637","0.0-341.0","34MAJL3QP59OU7Y903933TDVNJK43R","A3SMOU11PC1TE2","3ECKRY5B1QIH1N6NFX1ECCW5ZDKIZQ","","684.5","img/land6.png","74","685","1","0","1","2","0.8,0.2,0.2,0.2,0.8,0.2,0.2,0.2,0.8","0.8,0.2,0.2,0.2,0.8,0.2,0.2,0.2,0.8","1","",""
"","html-keyboard-response","342","207938","0.0-342.0","34MAJL3QP59OU7Y903933TDVNJK43R","A3SMOU11PC1TE2","3ECKRY5B1QIH1N6NFX1ECCW5ZDKIZQ","","null","<img src=""img/land6.png"" style=""width:200px;border:14px solid red;"">","null","","","","","","","","","",""
"","image-keyboard-response","343","208731","0.0-343.0","34MAJL3QP59OU7Y903933TDVNJK43R","A3SMOU11PC1TE2","3ECKRY5B1QIH1N6NFX1ECCW5ZDKIZQ","","792.7000000001863","img/land5.png","76","793.0999999996275","3","1","3","2","0.8,0.2,0.2,0.2,0.8,0.2,0.2,0.2,0.8","0.8,0.2,0.2,0.2,0.8,0.2,0.2,0.2,0.8","1","",""
"","html-keyboard-response","344","209032","0.0-344.0","34MAJL3QP59OU7Y903933TDVNJK43R","A3SMOU11PC1TE2","3ECKRY5B1QIH1N6NFX1ECCW5ZDKIZQ","","null","<img src=""img/land5.png"" style=""width:200px; border:14px solid green;"">","null","","","","","","","","","",""
"","image-keyboard-response","345","209988","0.0-345.0","34MAJL3QP59OU7Y903933TDVNJK43R","A3SMOU11PC1TE2","3ECKRY5B1QIH1N6NFX1ECCW5ZDKIZQ","","954.9000000003725","img/land1.png","75","955.2999999998137","2","0","2","2","0.8,0.2,0.2,0.2,0.8,0.2,0.2,0.2,0.8","0.8,0.2,0.2,0.2,0.8,0.2,0.2,0.2,0.8","1","",""
"","html-keyboard-response","346","210288","0.0-346.0","34MAJL3QP59OU7Y903933TDVNJK43R","A3SMOU11PC1TE2","3ECKRY5B1QIH1N6NFX1ECCW5ZDKIZQ","","null","<img src=""img/land1.png"" style=""width:200px;border:14px solid red;"">","null","","","","","","","","","",""
"","image-keyboard-response","347","211383","0.0-347.0","34MAJL3QP59OU7Y903933TDVNJK43R","A3SMOU11PC1TE2","3ECKRY5B1QIH1N6NFX1ECCW5ZDKIZQ","","1094.5","img/land5.png","76","1094.8999999994412","3","1","3","2","0.8,0.2,0.2,0.2,0.8,0.2,0.2,0.2,0.8","0.8,0.2,0.2,0.2,0.8,0.2,0.2,0.2,0.8","1","",""
"","html-keyboard-response","348","211685","0.0-348.0","34MAJL3QP59OU7Y903933TDVNJK43R","A3SMOU11PC1TE2","3ECKRY5B1QIH1N6NFX1ECCW5ZDKIZQ","","null","<img src=""img/land5.png"" style=""width:200px; border:14px solid green;"">","null","","","","","","","","","",""
"","image-keyboard-response","349","212301","0.0-349.0","34MAJL3QP59OU7Y903933TDVNJK43R","A3SMOU11PC1TE2","3ECKRY5B1QIH1N6NFX1ECCW5ZDKIZQ","","616.2000000001863","img/land6.png","74","616.5999999996275","1","0","1","2","0.8,0.2,0.2,0.2,0.8,0.2,0.2,0.2,0.8","0.8,0.2,0.2,0.2,0.8,0.2,0.2,0.2,0.8","1","",""
"","html-keyboard-response","350","212603","0.0-350.0","34MAJL3QP59OU7Y903933TDVNJK43R","A3SMOU11PC1TE2","3ECKRY5B1QIH1N6NFX1ECCW5ZDKIZQ","","null","<img src=""img/land6.png"" style=""width:200px;border:14px solid red;"">","null","","","","","","","","","",""
"","image-keyboard-response","351","213267","0.0-351.0","34MAJL3QP59OU7Y903933TDVNJK43R","A3SMOU11PC1TE2","3ECKRY5B1QIH1N6NFX1ECCW5ZDKIZQ","","664.5","img/land5.png","76","664.8999999994412","3","1","3","2","0.8,0.2,0.2,0.2,0.8,0.2,0.2,0.2,0.8","0.8,0.2,0.2,0.2,0.8,0.2,0.2,0.2,0.8","1","",""
"","html-keyboard-response","352","213568","0.0-352.0","34MAJL3QP59OU7Y903933TDVNJK43R","A3SMOU11PC1TE2","3ECKRY5B1QIH1N6NFX1ECCW5ZDKIZQ","","null","<img src=""img/land5.png"" style=""width:200px; border:14px solid green;"">","null","","","","","","","","","",""
"","image-keyboard-response","353","214125","0.0-353.0","34MAJL3QP59OU7Y903933TDVNJK43R","A3SMOU11PC1TE2","3ECKRY5B1QIH1N6NFX1ECCW5ZDKIZQ","","556.6000000005588","img/land5.png","76","557.0999999996275","3","1","3","2","0.8,0.2,0.2,0.2,0.8,0.2,0.2,0.2,0.8","0.8,0.2,0.2,0.2,0.8,0.2,0.2,0.2,0.8","1","",""
"","html-keyboard-response","354","214426","0.0-354.0","34MAJL3QP59OU7Y903933TDVNJK43R","A3SMOU11PC1TE2","3ECKRY5B1QIH1N6NFX1ECCW5ZDKIZQ","","null","<img src=""img/land5.png"" style=""width:200px; border:14px solid green;"">","null","","","","","","","","","",""
"","image-keyboard-response","355","215240","0.0-355.0","34MAJL3QP59OU7Y903933TDVNJK43R","A3SMOU11PC1TE2","3ECKRY5B1QIH1N6NFX1ECCW5ZDKIZQ","","812.9000000003725","img/land1.png","75","813.5","2","0","2","2","0.8,0.2,0.2,0.2,0.8,0.2,0.2,0.2,0.8","0.8,0.2,0.2,0.2,0.8,0.2,0.2,0.2,0.8","1","",""
