"success","trial_type","trial_index","time_elapsed","internal_node_id","assignmentID","mturkID","hitID","view_history","rt","stimulus","key_press","reactionTime","a","r","s","cond","reward_cond","reward_cond_actual","reward_matrix_idx","responses","question_order"
"true","fullscreen","0","2270","0.0-0.0","3Y5140Z9DY2P932BJQ8EAXQFXXZPIP","A3UMFQFJ8HE82I","382GHPVPHSDM8N0F9141EAH7F0K34Z","","","","","","","","","","","","","",""
"","instructions","1","9318","0.0-1.0","3Y5140Z9DY2P932BJQ8EAXQFXXZPIP","A3UMFQFJ8HE82I","382GHPVPHSDM8N0F9141EAH7F0K34Z","[{""page_index"":0,""viewing_time"":1163.8999999761581},{""page_index"":1,""viewing_time"":665.9000000059605},{""page_index"":2,""viewing_time"":243.80000001192093},{""page_index"":3,""viewing_time"":1544.0999999940395},{""page_index"":4,""viewing_time"":1420},{""page_index"":5,""viewing_time"":1044.0999999940395},{""page_index"":6,""viewing_time"":964}]","7046.299999982119","","","","","","","","","","","",""
"","image-keyboard-response","2","11281","0.0-2.0","3Y5140Z9DY2P932BJQ8EAXQFXXZPIP","A3UMFQFJ8HE82I","382GHPVPHSDM8N0F9141EAH7F0K34Z","","1960.9000000059605","img/land5.png","75","1962.5999999940395","2","0","1","1","0.8,0.2,0.2,0.2,0.8,0.2,0.2,0.2,0.8","0.8,0.2,0.2,0.2,0.8,0.2,0.2,0.2,0.8","1","",""
"","html-keyboard-response","3","11595","0.0-3.0","3Y5140Z9DY2P932BJQ8EAXQFXXZPIP","A3UMFQFJ8HE82I","382GHPVPHSDM8N0F9141EAH7F0K34Z","","null","<img src=""img/land5.png"" style=""width:200px;border:14px solid red;"">","null","","","","","","","","","",""
"","image-keyboard-response","4","11808","0.0-4.0","3Y5140Z9DY2P932BJQ8EAXQFXXZPIP","A3UMFQFJ8HE82I","382GHPVPHSDM8N0F9141EAH7F0K34Z","","212.69999998807907","img/land5.png","76","213.5","3","1","1","1","0.8,0.2,0.2,0.2,0.8,0.2,0.2,0.2,0.8","0.8,0.2,0.2,0.2,0.8,0.2,0.2,0.2,0.8","1","",""
"","html-keyboard-response","5","12125","0.0-5.0","3Y5140Z9DY2P932BJQ8EAXQFXXZPIP","A3UMFQFJ8HE82I","382GHPVPHSDM8N0F9141EAH7F0K34Z","","null","<img src=""img/land5.png"" style=""width:200px; border:14px solid green;"">","null","","","","","","","","","",""
"","image-keyboard-response","6","12496","0.0-6.0","3Y5140Z9DY2P932BJQ8EAXQFXXZPIP","A3UMFQFJ8HE82I","382GHPVPHSDM8N0F9141EAH7F0K34Z","","370.5","img/land3.png","76","371.30000001192093","3","1","3","1","0.8,0.2,0.2,0.2,0.8,0.2,0.2,0.2,0.8","0.8,0.2,0.2,0.2,0.8,0.2,0.2,0.2,0.8","1","",""
"","html-keyboard-response","7","12813","0.0-7.0","3Y5140Z9DY2P932BJQ8EAXQFXXZPIP","A3UMFQFJ8HE82I","382GHPVPHSDM8N0F9141EAH7F0K34Z","","null","<img src=""img/land3.png"" style=""width:200px; border:14px solid green;"">","null","","","","","","","","","",""
"","image-keyboard-response","8","13152","0.0-8.0","3Y5140Z9DY2P932BJQ8EAXQFXXZPIP","A3UMFQFJ8HE82I","382GHPVPHSDM8N0F9141EAH7F0K34Z","","338.59999999403954","img/land3.png","76","339.40000000596046","3","1","3","1","0.8,0.2,0.2,0.2,0.8,0.2,0.2,0.2,0.8","0.8,0.2,0.2,0.2,0.8,0.2,0.2,0.2,0.8","1","",""
"","html-keyboard-response","9","13468","0.0-9.0","3Y5140Z9DY2P932BJQ8EAXQFXXZPIP","A3UMFQFJ8HE82I","382GHPVPHSDM8N0F9141EAH7F0K34Z","","null","<img src=""img/land3.png"" style=""width:200px; border:14px solid green;"">","null","","","","","","","","","",""
"","image-keyboard-response","10","13793","0.0-10.0","3Y5140Z9DY2P932BJQ8EAXQFXXZPIP","A3UMFQFJ8HE82I","382GHPVPHSDM8N0F9141EAH7F0K34Z","","323.90000000596046","img/land3.png","76","324.89999997615814","3","1","3","1","0.8,0.2,0.2,0.2,0.8,0.2,0.2,0.2,0.8","0.8,0.2,0.2,0.2,0.8,0.2,0.2,0.2,0.8","1","",""
"","html-keyboard-response","11","14100","0.0-11.0","3Y5140Z9DY2P932BJQ8EAXQFXXZPIP","A3UMFQFJ8HE82I","382GHPVPHSDM8N0F9141EAH7F0K34Z","","null","<img src=""img/land3.png"" style=""width:200px; border:14px solid green;"">","null","","","","","","","","","",""
"","image-keyboard-response","12","14544","0.0-12.0","3Y5140Z9DY2P932BJQ8EAXQFXXZPIP","A3UMFQFJ8HE82I","382GHPVPHSDM8N0F9141EAH7F0K34Z","","443.7999999821186","img/land6.png","75","444.59999999403954","2","1","2","1","0.8,0.2,0.2,0.2,0.8,0.2,0.2,0.2,0.8","0.8,0.2,0.2,0.2,0.8,0.2,0.2,0.2,0.8","1","",""
"","html-keyboard-response","13","14847","0.0-13.0","3Y5140Z9DY2P932BJQ8EAXQFXXZPIP","A3UMFQFJ8HE82I","382GHPVPHSDM8N0F9141EAH7F0K34Z","","null","<img src=""img/land6.png"" style=""width:200px; border:14px solid green;"">","null","","","","","","","","","",""
"","image-keyboard-response","14","15120","0.0-14.0","3Y5140Z9DY2P932BJQ8EAXQFXXZPIP","A3UMFQFJ8HE82I","382GHPVPHSDM8N0F9141EAH7F0K34Z","","272.2999999821186","img/land6.png","76","273.09999999403954","3","0","2","1","0.8,0.2,0.2,0.2,0.8,0.2,0.2,0.2,0.8","0.8,0.2,0.2,0.2,0.8,0.2,0.2,0.2,0.8","1","",""
"","html-keyboard-response","15","15423","0.0-15.0","3Y5140Z9DY2P932BJQ8EAXQFXXZPIP","A3UMFQFJ8HE82I","382GHPVPHSDM8N0F9141EAH7F0K34Z","","null","<img src=""img/land6.png"" style=""width:200px;border:14px solid red;"">","null","","","","","","","","","",""
"","image-keyboard-response","16","15617","0.0-16.0","3Y5140Z9DY2P932BJQ8EAXQFXXZPIP","A3UMFQFJ8HE82I","382GHPVPHSDM8N0F9141EAH7F0K34Z","","192.69999998807907","img/land3.png","75","193.90000000596046","2","0","3","1","0.8,0.2,0.2,0.2,0.8,0.2,0.2,0.2,0.8","0.8,0.2,0.2,0.2,0.8,0.2,0.2,0.2,0.8","1","",""
"","html-keyboard-response","17","15924","0.0-17.0","3Y5140Z9DY2P932BJQ8EAXQFXXZPIP","A3UMFQFJ8HE82I","382GHPVPHSDM8N0F9141EAH7F0K34Z","","null","<img src=""img/land3.png"" style=""width:200px;border:14px solid red;"">","null","","","","","","","","","",""
"","image-keyboard-response","18","16560","0.0-18.0","3Y5140Z9DY2P932BJQ8EAXQFXXZPIP","A3UMFQFJ8HE82I","382GHPVPHSDM8N0F9141EAH7F0K34Z","","635.8999999761581","img/land6.png","75","636.5999999940395","2","1","2","1","0.8,0.2,0.2,0.2,0.8,0.2,0.2,0.2,0.8","0.8,0.2,0.2,0.2,0.8,0.2,0.2,0.2,0.8","1","",""
"","html-keyboard-response","19","16872","0.0-19.0","3Y5140Z9DY2P932BJQ8EAXQFXXZPIP","A3UMFQFJ8HE82I","382GHPVPHSDM8N0F9141EAH7F0K34Z","","null","<img src=""img/land6.png"" style=""width:200px; border:14px solid green;"">","null","","","","","","","","","",""
"","image-keyboard-response","20","17584","0.0-20.0","3Y5140Z9DY2P932BJQ8EAXQFXXZPIP","A3UMFQFJ8HE82I","382GHPVPHSDM8N0F9141EAH7F0K34Z","","711.6000000238419","img/land6.png","75","712.2000000178814","2","1","2","1","0.8,0.2,0.2,0.2,0.8,0.2,0.2,0.2,0.8","0.8,0.2,0.2,0.2,0.8,0.2,0.2,0.2,0.8","1","",""
"","html-keyboard-response","21","17899","0.0-21.0","3Y5140Z9DY2P932BJQ8EAXQFXXZPIP","A3UMFQFJ8HE82I","382GHPVPHSDM8N0F9141EAH7F0K34Z","","null","<img src=""img/land6.png"" style=""width:200px; border:14px solid green;"">","null","","","","","","","","","",""
"","image-keyboard-response","22","18560","0.0-22.0","3Y5140Z9DY2P932BJQ8EAXQFXXZPIP","A3UMFQFJ8HE82I","382GHPVPHSDM8N0F9141EAH7F0K34Z","","660.4000000059605","img/land5.png","76","661","3","1","1","1","0.8,0.2,0.2,0.2,0.8,0.2,0.2,0.2,0.8","0.8,0.2,0.2,0.2,0.8,0.2,0.2,0.2,0.8","1","",""
"","html-keyboard-response","23","18867","0.0-23.0","3Y5140Z9DY2P932BJQ8EAXQFXXZPIP","A3UMFQFJ8HE82I","382GHPVPHSDM8N0F9141EAH7F0K34Z","","null","<img src=""img/land5.png"" style=""width:200px; border:14px solid green;"">","null","","","","","","","","","",""
"","image-keyboard-response","24","20032","0.0-24.0","3Y5140Z9DY2P932BJQ8EAXQFXXZPIP","A3UMFQFJ8HE82I","382GHPVPHSDM8N0F9141EAH7F0K34Z","","1164.2999999821186","img/land5.png","76","1164.9000000059605","3","0","1","1","0.8,0.2,0.2,0.2,0.8,0.2,0.2,0.2,0.8","0.8,0.2,0.2,0.2,0.8,0.2,0.2,0.2,0.8","1","",""
"","html-keyboard-response","25","20344","0.0-25.0","3Y5140Z9DY2P932BJQ8EAXQFXXZPIP","A3UMFQFJ8HE82I","382GHPVPHSDM8N0F9141EAH7F0K34Z","","null","<img src=""img/land5.png"" style=""width:200px;border:14px solid red;"">","null","","","","","","","","","",""
"","image-keyboard-response","26","20848","0.0-26.0","3Y5140Z9DY2P932BJQ8EAXQFXXZPIP","A3UMFQFJ8HE82I","382GHPVPHSDM8N0F9141EAH7F0K34Z","","503.39999997615814","img/land6.png","75","504","2","1","2","1","0.8,0.2,0.2,0.2,0.8,0.2,0.2,0.2,0.8","0.8,0.2,0.2,0.2,0.8,0.2,0.2,0.2,0.8","1","",""
"","html-keyboard-response","27","21152","0.0-27.0","3Y5140Z9DY2P932BJQ8EAXQFXXZPIP","A3UMFQFJ8HE82I","382GHPVPHSDM8N0F9141EAH7F0K34Z","","null","<img src=""img/land6.png"" style=""width:200px; border:14px solid green;"">","null","","","","","","","","","",""
"","image-keyboard-response","28","21616","0.0-28.0","3Y5140Z9DY2P932BJQ8EAXQFXXZPIP","A3UMFQFJ8HE82I","382GHPVPHSDM8N0F9141EAH7F0K34Z","","463.30000001192093","img/land6.png","75","463.90000000596046","2","1","2","1","0.8,0.2,0.2,0.2,0.8,0.2,0.2,0.2,0.8","0.8,0.2,0.2,0.2,0.8,0.2,0.2,0.2,0.8","1","",""
"","html-keyboard-response","29","21933","0.0-29.0","3Y5140Z9DY2P932BJQ8EAXQFXXZPIP","A3UMFQFJ8HE82I","382GHPVPHSDM8N0F9141EAH7F0K34Z","","null","<img src=""img/land6.png"" style=""width:200px; border:14px solid green;"">","null","","","","","","","","","",""
"","image-keyboard-response","30","22752","0.0-30.0","3Y5140Z9DY2P932BJQ8EAXQFXXZPIP","A3UMFQFJ8HE82I","382GHPVPHSDM8N0F9141EAH7F0K34Z","","818.7999999821186","img/land3.png","75","819.5999999940395","2","1","3","1","0.8,0.2,0.2,0.2,0.8,0.2,0.2,0.2,0.8","0.8,0.2,0.2,0.2,0.8,0.2,0.2,0.2,0.8","1","",""
"","html-keyboard-response","31","23056","0.0-31.0","3Y5140Z9DY2P932BJQ8EAXQFXXZPIP","A3UMFQFJ8HE82I","382GHPVPHSDM8N0F9141EAH7F0K34Z","","null","<img src=""img/land3.png"" style=""width:200px; border:14px solid green;"">","null","","","","","","","","","",""
"","image-keyboard-response","32","24016","0.0-32.0","3Y5140Z9DY2P932BJQ8EAXQFXXZPIP","A3UMFQFJ8HE82I","382GHPVPHSDM8N0F9141EAH7F0K34Z","","959.9000000059605","img/land3.png","75","960.7000000178814","2","0","3","1","0.8,0.2,0.2,0.2,0.8,0.2,0.2,0.2,0.8","0.8,0.2,0.2,0.2,0.8,0.2,0.2,0.2,0.8","1","",""
"","html-keyboard-response","33","24329","0.0-33.0","3Y5140Z9DY2P932BJQ8EAXQFXXZPIP","A3UMFQFJ8HE82I","382GHPVPHSDM8N0F9141EAH7F0K34Z","","null","<img src=""img/land3.png"" style=""width:200px;border:14px solid red;"">","null","","","","","","","","","",""
"","image-keyboard-response","34","24976","0.0-34.0","3Y5140Z9DY2P932BJQ8EAXQFXXZPIP","A3UMFQFJ8HE82I","382GHPVPHSDM8N0F9141EAH7F0K34Z","","645.5","img/land5.png","76","646.2999999821186","3","0","1","1","0.8,0.2,0.2,0.2,0.8,0.2,0.2,0.2,0.8","0.8,0.2,0.2,0.2,0.8,0.2,0.2,0.2,0.8","1","",""
"","html-keyboard-response","35","25283","0.0-35.0","3Y5140Z9DY2P932BJQ8EAXQFXXZPIP","A3UMFQFJ8HE82I","382GHPVPHSDM8N0F9141EAH7F0K34Z","","null","<img src=""img/land5.png"" style=""width:200px;border:14px solid red;"">","null","","","","","","","","","",""
"","image-keyboard-response","36","26962","0.0-36.0","3Y5140Z9DY2P932BJQ8EAXQFXXZPIP","A3UMFQFJ8HE82I","382GHPVPHSDM8N0F9141EAH7F0K34Z","","1678.4000000059605","img/land5.png","75","1678.8999999761581","2","1","1","1","0.8,0.2,0.2,0.2,0.8,0.2,0.2,0.2,0.8","0.8,0.2,0.2,0.2,0.8,0.2,0.2,0.2,0.8","1","",""
"","html-keyboard-response","37","27270","0.0-37.0","3Y5140Z9DY2P932BJQ8EAXQFXXZPIP","A3UMFQFJ8HE82I","382GHPVPHSDM8N0F9141EAH7F0K34Z","","null","<img src=""img/land5.png"" style=""width:200px; border:14px solid green;"">","null","","","","","","","","","",""
"","image-keyboard-response","38","29200","0.0-38.0","3Y5140Z9DY2P932BJQ8EAXQFXXZPIP","A3UMFQFJ8HE82I","382GHPVPHSDM8N0F9141EAH7F0K34Z","","1929.0999999940395","img/land5.png","75","1929.5","2","0","1","1","0.8,0.2,0.2,0.2,0.8,0.2,0.2,0.2,0.8","0.8,0.2,0.2,0.2,0.8,0.2,0.2,0.2,0.8","1","",""
"","html-keyboard-response","39","29501","0.0-39.0","3Y5140Z9DY2P932BJQ8EAXQFXXZPIP","A3UMFQFJ8HE82I","382GHPVPHSDM8N0F9141EAH7F0K34Z","","null","<img src=""img/land5.png"" style=""width:200px;border:14px solid red;"">","null","","","","","","","","","",""
"","image-keyboard-response","40","30224","0.0-40.0","3Y5140Z9DY2P932BJQ8EAXQFXXZPIP","A3UMFQFJ8HE82I","382GHPVPHSDM8N0F9141EAH7F0K34Z","","722.4000000059605","img/land6.png","76","722.8999999761581","3","0","2","1","0.8,0.2,0.2,0.2,0.8,0.2,0.2,0.2,0.8","0.8,0.2,0.2,0.2,0.8,0.2,0.2,0.2,0.8","1","",""
"","html-keyboard-response","41","30526","0.0-41.0","3Y5140Z9DY2P932BJQ8EAXQFXXZPIP","A3UMFQFJ8HE82I","382GHPVPHSDM8N0F9141EAH7F0K34Z","","null","<img src=""img/land6.png"" style=""width:200px;border:14px solid red;"">","null","","","","","","","","","",""
"","image-keyboard-response","42","31600","0.0-42.0","3Y5140Z9DY2P932BJQ8EAXQFXXZPIP","A3UMFQFJ8HE82I","382GHPVPHSDM8N0F9141EAH7F0K34Z","","1073.2999999821186","img/land5.png","75","1074.1000000238419","2","0","1","1","0.8,0.2,0.2,0.2,0.8,0.2,0.2,0.2,0.8","0.8,0.2,0.2,0.2,0.8,0.2,0.2,0.2,0.8","1","",""
"","html-keyboard-response","43","31901","0.0-43.0","3Y5140Z9DY2P932BJQ8EAXQFXXZPIP","A3UMFQFJ8HE82I","382GHPVPHSDM8N0F9141EAH7F0K34Z","","null","<img src=""img/land5.png"" style=""width:200px;border:14px solid red;"">","null","","","","","","","","","",""
"","image-keyboard-response","44","32896","0.0-44.0","3Y5140Z9DY2P932BJQ8EAXQFXXZPIP","A3UMFQFJ8HE82I","382GHPVPHSDM8N0F9141EAH7F0K34Z","","994.0999999940395","img/land6.png","76","994.5999999940395","3","0","2","1","0.8,0.2,0.2,0.2,0.8,0.2,0.2,0.2,0.8","0.8,0.2,0.2,0.2,0.8,0.2,0.2,0.2,0.8","1","",""
"","html-keyboard-response","45","33197","0.0-45.0","3Y5140Z9DY2P932BJQ8EAXQFXXZPIP","A3UMFQFJ8HE82I","382GHPVPHSDM8N0F9141EAH7F0K34Z","","null","<img src=""img/land6.png"" style=""width:200px;border:14px solid red;"">","null","","","","","","","","","",""
"","image-keyboard-response","46","34160","0.0-46.0","3Y5140Z9DY2P932BJQ8EAXQFXXZPIP","A3UMFQFJ8HE82I","382GHPVPHSDM8N0F9141EAH7F0K34Z","","962.3000000119209","img/land5.png","75","962.7999999821186","2","0","1","1","0.8,0.2,0.2,0.2,0.8,0.2,0.2,0.2,0.8","0.8,0.2,0.2,0.2,0.8,0.2,0.2,0.2,0.8","1","",""
"","html-keyboard-response","47","34461","0.0-47.0","3Y5140Z9DY2P932BJQ8EAXQFXXZPIP","A3UMFQFJ8HE82I","382GHPVPHSDM8N0F9141EAH7F0K34Z","","null","<img src=""img/land5.png"" style=""width:200px;border:14px solid red;"">","null","","","","","","","","","",""
"","image-keyboard-response","48","35024","0.0-48.0","3Y5140Z9DY2P932BJQ8EAXQFXXZPIP","A3UMFQFJ8HE82I","382GHPVPHSDM8N0F9141EAH7F0K34Z","","561.8999999761581","img/land6.png","75","562.5999999940395","2","1","2","1","0.8,0.2,0.2,0.2,0.8,0.2,0.2,0.2,0.8","0.8,0.2,0.2,0.2,0.8,0.2,0.2,0.2,0.8","1","",""
"","html-keyboard-response","49","35325","0.0-49.0","3Y5140Z9DY2P932BJQ8EAXQFXXZPIP","A3UMFQFJ8HE82I","382GHPVPHSDM8N0F9141EAH7F0K34Z","","null","<img src=""img/land6.png"" style=""width:200px; border:14px solid green;"">","null","","","","","","","","","",""
"","image-keyboard-response","50","36416","0.0-50.0","3Y5140Z9DY2P932BJQ8EAXQFXXZPIP","A3UMFQFJ8HE82I","382GHPVPHSDM8N0F9141EAH7F0K34Z","","1089.9000000059605","img/land5.png","75","1090.5","2","0","1","1","0.8,0.2,0.2,0.2,0.8,0.2,0.2,0.2,0.8","0.8,0.2,0.2,0.2,0.8,0.2,0.2,0.2,0.8","1","",""
"","html-keyboard-response","51","36719","0.0-51.0","3Y5140Z9DY2P932BJQ8EAXQFXXZPIP","A3UMFQFJ8HE82I","382GHPVPHSDM8N0F9141EAH7F0K34Z","","null","<img src=""img/land5.png"" style=""width:200px;border:14px solid red;"">","null","","","","","","","","","",""
"","image-keyboard-response","52","37201","0.0-52.0","3Y5140Z9DY2P932BJQ8EAXQFXXZPIP","A3UMFQFJ8HE82I","382GHPVPHSDM8N0F9141EAH7F0K34Z","","480","img/land6.png","76","480.90000000596046","3","0","2","1","0.8,0.2,0.2,0.2,0.8,0.2,0.2,0.2,0.8","0.8,0.2,0.2,0.2,0.8,0.2,0.2,0.2,0.8","1","",""
"","html-keyboard-response","53","37514","0.0-53.0","3Y5140Z9DY2P932BJQ8EAXQFXXZPIP","A3UMFQFJ8HE82I","382GHPVPHSDM8N0F9141EAH7F0K34Z","","null","<img src=""img/land6.png"" style=""width:200px;border:14px solid red;"">","null","","","","","","","","","",""
"","image-keyboard-response","54","38384","0.0-54.0","3Y5140Z9DY2P932BJQ8EAXQFXXZPIP","A3UMFQFJ8HE82I","382GHPVPHSDM8N0F9141EAH7F0K34Z","","869.4000000059605","img/land6.png","75","870","2","1","2","1","0.8,0.2,0.2,0.2,0.8,0.2,0.2,0.2,0.8","0.8,0.2,0.2,0.2,0.8,0.2,0.2,0.2,0.8","1","",""
"","html-keyboard-response","55","38686","0.0-55.0","3Y5140Z9DY2P932BJQ8EAXQFXXZPIP","A3UMFQFJ8HE82I","382GHPVPHSDM8N0F9141EAH7F0K34Z","","null","<img src=""img/land6.png"" style=""width:200px; border:14px solid green;"">","null","","","","","","","","","",""
"","image-keyboard-response","56","40656","0.0-56.0","3Y5140Z9DY2P932BJQ8EAXQFXXZPIP","A3UMFQFJ8HE82I","382GHPVPHSDM8N0F9141EAH7F0K34Z","","1968.6000000238419","img/land6.png","76","1969.2999999821186","3","1","2","1","0.8,0.2,0.2,0.2,0.8,0.2,0.2,0.2,0.8","0.8,0.2,0.2,0.2,0.8,0.2,0.2,0.2,0.8","1","",""
"","html-keyboard-response","57","40957","0.0-57.0","3Y5140Z9DY2P932BJQ8EAXQFXXZPIP","A3UMFQFJ8HE82I","382GHPVPHSDM8N0F9141EAH7F0K34Z","","null","<img src=""img/land6.png"" style=""width:200px; border:14px solid green;"">","null","","","","","","","","","",""
"","image-keyboard-response","58","42864","0.0-58.0","3Y5140Z9DY2P932BJQ8EAXQFXXZPIP","A3UMFQFJ8HE82I","382GHPVPHSDM8N0F9141EAH7F0K34Z","","1906.2000000178814","img/land5.png","75","1906.9000000059605","2","0","1","1","0.8,0.2,0.2,0.2,0.8,0.2,0.2,0.2,0.8","0.8,0.2,0.2,0.2,0.8,0.2,0.2,0.2,0.8","1","",""
"","html-keyboard-response","59","43167","0.0-59.0","3Y5140Z9DY2P932BJQ8EAXQFXXZPIP","A3UMFQFJ8HE82I","382GHPVPHSDM8N0F9141EAH7F0K34Z","","null","<img src=""img/land5.png"" style=""width:200px;border:14px solid red;"">","null","","","","","","","","","",""
"","image-keyboard-response","60","43872","0.0-60.0","3Y5140Z9DY2P932BJQ8EAXQFXXZPIP","A3UMFQFJ8HE82I","382GHPVPHSDM8N0F9141EAH7F0K34Z","","704.2000000178814","img/land6.png","76","704.9000000059605","3","0","2","1","0.8,0.2,0.2,0.2,0.8,0.2,0.2,0.2,0.8","0.8,0.2,0.2,0.2,0.8,0.2,0.2,0.2,0.8","1","",""
"","html-keyboard-response","61","44174","0.0-61.0","3Y5140Z9DY2P932BJQ8EAXQFXXZPIP","A3UMFQFJ8HE82I","382GHPVPHSDM8N0F9141EAH7F0K34Z","","null","<img src=""img/land6.png"" style=""width:200px;border:14px solid red;"">","null","","","","","","","","","",""
"","image-keyboard-response","62","45616","0.0-62.0","3Y5140Z9DY2P932BJQ8EAXQFXXZPIP","A3UMFQFJ8HE82I","382GHPVPHSDM8N0F9141EAH7F0K34Z","","1441.300000011921","img/land5.png","76","1442","3","0","1","1","0.8,0.2,0.2,0.2,0.8,0.2,0.2,0.2,0.8","0.8,0.2,0.2,0.2,0.8,0.2,0.2,0.2,0.8","1","",""
"","html-keyboard-response","63","45917","0.0-63.0","3Y5140Z9DY2P932BJQ8EAXQFXXZPIP","A3UMFQFJ8HE82I","382GHPVPHSDM8N0F9141EAH7F0K34Z","","null","<img src=""img/land5.png"" style=""width:200px;border:14px solid red;"">","null","","","","","","","","","",""
"","image-keyboard-response","64","46576","0.0-64.0","3Y5140Z9DY2P932BJQ8EAXQFXXZPIP","A3UMFQFJ8HE82I","382GHPVPHSDM8N0F9141EAH7F0K34Z","","657.8999999761581","img/land6.png","75","658.5","2","1","2","1","0.8,0.2,0.2,0.2,0.8,0.2,0.2,0.2,0.8","0.8,0.2,0.2,0.2,0.8,0.2,0.2,0.2,0.8","1","",""
"","html-keyboard-response","65","46878","0.0-65.0","3Y5140Z9DY2P932BJQ8EAXQFXXZPIP","A3UMFQFJ8HE82I","382GHPVPHSDM8N0F9141EAH7F0K34Z","","null","<img src=""img/land6.png"" style=""width:200px; border:14px solid green;"">","null","","","","","","","","","",""
"","image-keyboard-response","66","47456","0.0-66.0","3Y5140Z9DY2P932BJQ8EAXQFXXZPIP","A3UMFQFJ8HE82I","382GHPVPHSDM8N0F9141EAH7F0K34Z","","577.8000000119209","img/land3.png","76","578.2999999821186","3","0","3","1","0.8,0.2,0.2,0.2,0.8,0.2,0.2,0.2,0.8","0.8,0.2,0.2,0.2,0.8,0.2,0.2,0.2,0.8","1","",""
"","html-keyboard-response","67","47758","0.0-67.0","3Y5140Z9DY2P932BJQ8EAXQFXXZPIP","A3UMFQFJ8HE82I","382GHPVPHSDM8N0F9141EAH7F0K34Z","","null","<img src=""img/land3.png"" style=""width:200px;border:14px solid red;"">","null","","","","","","","","","",""
"","image-keyboard-response","68","48480","0.0-68.0","3Y5140Z9DY2P932BJQ8EAXQFXXZPIP","A3UMFQFJ8HE82I","382GHPVPHSDM8N0F9141EAH7F0K34Z","","721.0999999940395","img/land5.png","75","721.7000000178814","2","0","1","1","0.8,0.2,0.2,0.2,0.8,0.2,0.2,0.2,0.8","0.8,0.2,0.2,0.2,0.8,0.2,0.2,0.2,0.8","1","",""
"","html-keyboard-response","69","48781","0.0-69.0","3Y5140Z9DY2P932BJQ8EAXQFXXZPIP","A3UMFQFJ8HE82I","382GHPVPHSDM8N0F9141EAH7F0K34Z","","null","<img src=""img/land5.png"" style=""width:200px;border:14px solid red;"">","null","","","","","","","","","",""
"","image-keyboard-response","70","49184","0.0-70.0","3Y5140Z9DY2P932BJQ8EAXQFXXZPIP","A3UMFQFJ8HE82I","382GHPVPHSDM8N0F9141EAH7F0K34Z","","401.69999998807907","img/land6.png","76","402.2000000178814","3","1","2","1","0.8,0.2,0.2,0.2,0.8,0.2,0.2,0.2,0.8","0.8,0.2,0.2,0.2,0.8,0.2,0.2,0.2,0.8","1","",""
"","html-keyboard-response","71","49485","0.0-71.0","3Y5140Z9DY2P932BJQ8EAXQFXXZPIP","A3UMFQFJ8HE82I","382GHPVPHSDM8N0F9141EAH7F0K34Z","","null","<img src=""img/land6.png"" style=""width:200px; border:14px solid green;"">","null","","","","","","","","","",""
"","image-keyboard-response","72","50208","0.0-72.0","3Y5140Z9DY2P932BJQ8EAXQFXXZPIP","A3UMFQFJ8HE82I","382GHPVPHSDM8N0F9141EAH7F0K34Z","","722","img/land3.png","75","722.3999999761581","2","0","3","1","0.8,0.2,0.2,0.2,0.8,0.2,0.2,0.2,0.8","0.8,0.2,0.2,0.2,0.8,0.2,0.2,0.2,0.8","1","",""
"","html-keyboard-response","73","50509","0.0-73.0","3Y5140Z9DY2P932BJQ8EAXQFXXZPIP","A3UMFQFJ8HE82I","382GHPVPHSDM8N0F9141EAH7F0K34Z","","null","<img src=""img/land3.png"" style=""width:200px;border:14px solid red;"">","null","","","","","","","","","",""
"","image-keyboard-response","74","50816","0.0-74.0","3Y5140Z9DY2P932BJQ8EAXQFXXZPIP","A3UMFQFJ8HE82I","382GHPVPHSDM8N0F9141EAH7F0K34Z","","306","img/land6.png","76","306.7000000178814","3","1","2","1","0.8,0.2,0.2,0.2,0.8,0.2,0.2,0.2,0.8","0.8,0.2,0.2,0.2,0.8,0.2,0.2,0.2,0.8","1","",""
"","html-keyboard-response","75","51118","0.0-75.0","3Y5140Z9DY2P932BJQ8EAXQFXXZPIP","A3UMFQFJ8HE82I","382GHPVPHSDM8N0F9141EAH7F0K34Z","","null","<img src=""img/land6.png"" style=""width:200px; border:14px solid green;"">","null","","","","","","","","","",""
"","image-keyboard-response","76","51712","0.0-76.0","3Y5140Z9DY2P932BJQ8EAXQFXXZPIP","A3UMFQFJ8HE82I","382GHPVPHSDM8N0F9141EAH7F0K34Z","","593.2999999821186","img/land5.png","76","593.9000000059605","3","0","1","1","0.8,0.2,0.2,0.2,0.8,0.2,0.2,0.2,0.8","0.8,0.2,0.2,0.2,0.8,0.2,0.2,0.2,0.8","1","",""
"","html-keyboard-response","77","52013","0.0-77.0","3Y5140Z9DY2P932BJQ8EAXQFXXZPIP","A3UMFQFJ8HE82I","382GHPVPHSDM8N0F9141EAH7F0K34Z","","null","<img src=""img/land5.png"" style=""width:200px;border:14px solid red;"">","null","","","","","","","","","",""
"","image-keyboard-response","78","52784","0.0-78.0","3Y5140Z9DY2P932BJQ8EAXQFXXZPIP","A3UMFQFJ8HE82I","382GHPVPHSDM8N0F9141EAH7F0K34Z","","769.8000000119209","img/land3.png","75","770.5999999940395","2","0","3","1","0.8,0.2,0.2,0.2,0.8,0.2,0.2,0.2,0.8","0.8,0.2,0.2,0.2,0.8,0.2,0.2,0.2,0.8","1","",""
"","html-keyboard-response","79","53086","0.0-79.0","3Y5140Z9DY2P932BJQ8EAXQFXXZPIP","A3UMFQFJ8HE82I","382GHPVPHSDM8N0F9141EAH7F0K34Z","","null","<img src=""img/land3.png"" style=""width:200px;border:14px solid red;"">","null","","","","","","","","","",""
"","image-keyboard-response","80","54608","0.0-80.0","3Y5140Z9DY2P932BJQ8EAXQFXXZPIP","A3UMFQFJ8HE82I","382GHPVPHSDM8N0F9141EAH7F0K34Z","","1520.9000000059605","img/land3.png","75","1521.5","2","1","3","1","0.8,0.2,0.2,0.2,0.8,0.2,0.2,0.2,0.8","0.8,0.2,0.2,0.2,0.8,0.2,0.2,0.2,0.8","1","",""
"","html-keyboard-response","81","54909","0.0-81.0","3Y5140Z9DY2P932BJQ8EAXQFXXZPIP","A3UMFQFJ8HE82I","382GHPVPHSDM8N0F9141EAH7F0K34Z","","null","<img src=""img/land3.png"" style=""width:200px; border:14px solid green;"">","null","","","","","","","","","",""
"","image-keyboard-response","82","56416","0.0-82.0","3Y5140Z9DY2P932BJQ8EAXQFXXZPIP","A3UMFQFJ8HE82I","382GHPVPHSDM8N0F9141EAH7F0K34Z","","1506.5999999940395","img/land3.png","75","1507.300000011921","2","1","3","1","0.8,0.2,0.2,0.2,0.8,0.2,0.2,0.2,0.8","0.8,0.2,0.2,0.2,0.8,0.2,0.2,0.2,0.8","1","",""
"","html-keyboard-response","83","56725","0.0-83.0","3Y5140Z9DY2P932BJQ8EAXQFXXZPIP","A3UMFQFJ8HE82I","382GHPVPHSDM8N0F9141EAH7F0K34Z","","null","<img src=""img/land3.png"" style=""width:200px; border:14px solid green;"">","null","","","","","","","","","",""
"","image-keyboard-response","84","57792","0.0-84.0","3Y5140Z9DY2P932BJQ8EAXQFXXZPIP","A3UMFQFJ8HE82I","382GHPVPHSDM8N0F9141EAH7F0K34Z","","1066.2000000178814","img/land3.png","75","1066.9000000059605","2","0","3","1","0.8,0.2,0.2,0.2,0.8,0.2,0.2,0.2,0.8","0.8,0.2,0.2,0.2,0.8,0.2,0.2,0.2,0.8","1","",""
"","html-keyboard-response","85","58094","0.0-85.0","3Y5140Z9DY2P932BJQ8EAXQFXXZPIP","A3UMFQFJ8HE82I","382GHPVPHSDM8N0F9141EAH7F0K34Z","","null","<img src=""img/land3.png"" style=""width:200px;border:14px solid red;"">","null","","","","","","","","","",""
"","image-keyboard-response","86","58400","0.0-86.0","3Y5140Z9DY2P932BJQ8EAXQFXXZPIP","A3UMFQFJ8HE82I","382GHPVPHSDM8N0F9141EAH7F0K34Z","","304.7000000178814","img/land5.png","76","305.5","3","0","1","1","0.8,0.2,0.2,0.2,0.8,0.2,0.2,0.2,0.8","0.8,0.2,0.2,0.2,0.8,0.2,0.2,0.2,0.8","1","",""
"","html-keyboard-response","87","58702","0.0-87.0","3Y5140Z9DY2P932BJQ8EAXQFXXZPIP","A3UMFQFJ8HE82I","382GHPVPHSDM8N0F9141EAH7F0K34Z","","null","<img src=""img/land5.png"" style=""width:200px;border:14px solid red;"">","null","","","","","","","","","",""
"","image-keyboard-response","88","58975","0.0-88.0","3Y5140Z9DY2P932BJQ8EAXQFXXZPIP","A3UMFQFJ8HE82I","382GHPVPHSDM8N0F9141EAH7F0K34Z","","273.09999999403954","img/land3.png","76","273.69999998807907","3","1","3","1","0.8,0.2,0.2,0.2,0.8,0.2,0.2,0.2,0.8","0.8,0.2,0.2,0.2,0.8,0.2,0.2,0.2,0.8","1","",""
"","html-keyboard-response","89","59277","0.0-89.0","3Y5140Z9DY2P932BJQ8EAXQFXXZPIP","A3UMFQFJ8HE82I","382GHPVPHSDM8N0F9141EAH7F0K34Z","","null","<img src=""img/land3.png"" style=""width:200px; border:14px solid green;"">","null","","","","","","","","","",""
"","image-keyboard-response","90","59328","0.0-90.0","3Y5140Z9DY2P932BJQ8EAXQFXXZPIP","A3UMFQFJ8HE82I","382GHPVPHSDM8N0F9141EAH7F0K34Z","","49.599999994039536","img/land5.png","75","50.29999998211861","2","0","1","1","0.8,0.2,0.2,0.2,0.8,0.2,0.2,0.2,0.8","0.8,0.2,0.2,0.2,0.8,0.2,0.2,0.2,0.8","1","",""
"","html-keyboard-response","91","59630","0.0-91.0","3Y5140Z9DY2P932BJQ8EAXQFXXZPIP","A3UMFQFJ8HE82I","382GHPVPHSDM8N0F9141EAH7F0K34Z","","null","<img src=""img/land5.png"" style=""width:200px;border:14px solid red;"">","null","","","","","","","","","",""
"","image-keyboard-response","92","60080","0.0-92.0","3Y5140Z9DY2P932BJQ8EAXQFXXZPIP","A3UMFQFJ8HE82I","382GHPVPHSDM8N0F9141EAH7F0K34Z","","449.30000001192093","img/land6.png","76","449.7999999821186","3","1","2","1","0.8,0.2,0.2,0.2,0.8,0.2,0.2,0.2,0.8","0.8,0.2,0.2,0.2,0.8,0.2,0.2,0.2,0.8","1","",""
"","html-keyboard-response","93","60381","0.0-93.0","3Y5140Z9DY2P932BJQ8EAXQFXXZPIP","A3UMFQFJ8HE82I","382GHPVPHSDM8N0F9141EAH7F0K34Z","","null","<img src=""img/land6.png"" style=""width:200px; border:14px solid green;"">","null","","","","","","","","","",""
"","image-keyboard-response","94","61344","0.0-94.0","3Y5140Z9DY2P932BJQ8EAXQFXXZPIP","A3UMFQFJ8HE82I","382GHPVPHSDM8N0F9141EAH7F0K34Z","","961.8000000119209","img/land5.png","76","962.3999999761581","3","0","1","1","0.8,0.2,0.2,0.2,0.8,0.2,0.2,0.2,0.8","0.8,0.2,0.2,0.2,0.8,0.2,0.2,0.2,0.8","1","",""
"","html-keyboard-response","95","61646","0.0-95.0","3Y5140Z9DY2P932BJQ8EAXQFXXZPIP","A3UMFQFJ8HE82I","382GHPVPHSDM8N0F9141EAH7F0K34Z","","null","<img src=""img/land5.png"" style=""width:200px;border:14px solid red;"">","null","","","","","","","","","",""
"","image-keyboard-response","96","62800","0.0-96.0","3Y5140Z9DY2P932BJQ8EAXQFXXZPIP","A3UMFQFJ8HE82I","382GHPVPHSDM8N0F9141EAH7F0K34Z","","1152.9000000059605","img/land5.png","75","1153.5999999940395","2","0","1","1","0.8,0.2,0.2,0.2,0.8,0.2,0.2,0.2,0.8","0.8,0.2,0.2,0.2,0.8,0.2,0.2,0.2,0.8","1","",""
"","html-keyboard-response","97","63101","0.0-97.0","3Y5140Z9DY2P932BJQ8EAXQFXXZPIP","A3UMFQFJ8HE82I","382GHPVPHSDM8N0F9141EAH7F0K34Z","","null","<img src=""img/land5.png"" style=""width:200px;border:14px solid red;"">","null","","","","","","","","","",""
"","image-keyboard-response","98","64111","0.0-98.0","3Y5140Z9DY2P932BJQ8EAXQFXXZPIP","A3UMFQFJ8HE82I","382GHPVPHSDM8N0F9141EAH7F0K34Z","","1009.7000000178814","img/land6.png","75","1010.1999999880791","2","1","2","1","0.8,0.2,0.2,0.2,0.8,0.2,0.2,0.2,0.8","0.8,0.2,0.2,0.2,0.8,0.2,0.2,0.2,0.8","1","",""
"","html-keyboard-response","99","64413","0.0-99.0","3Y5140Z9DY2P932BJQ8EAXQFXXZPIP","A3UMFQFJ8HE82I","382GHPVPHSDM8N0F9141EAH7F0K34Z","","null","<img src=""img/land6.png"" style=""width:200px; border:14px solid green;"">","null","","","","","","","","","",""
"","image-keyboard-response","100","66016","0.0-100.0","3Y5140Z9DY2P932BJQ8EAXQFXXZPIP","A3UMFQFJ8HE82I","382GHPVPHSDM8N0F9141EAH7F0K34Z","","1602","img/land6.png","75","1602.4000000059605","2","1","2","1","0.8,0.2,0.2,0.2,0.8,0.2,0.2,0.2,0.8","0.8,0.2,0.2,0.2,0.8,0.2,0.2,0.2,0.8","1","",""
"","html-keyboard-response","101","66317","0.0-101.0","3Y5140Z9DY2P932BJQ8EAXQFXXZPIP","A3UMFQFJ8HE82I","382GHPVPHSDM8N0F9141EAH7F0K34Z","","null","<img src=""img/land6.png"" style=""width:200px; border:14px solid green;"">","null","","","","","","","","","",""
"","image-keyboard-response","102","67312","0.0-102.0","3Y5140Z9DY2P932BJQ8EAXQFXXZPIP","A3UMFQFJ8HE82I","382GHPVPHSDM8N0F9141EAH7F0K34Z","","994","img/land3.png","75","994.6999999880791","2","0","3","1","0.8,0.2,0.2,0.2,0.8,0.2,0.2,0.2,0.8","0.8,0.2,0.2,0.2,0.8,0.2,0.2,0.2,0.8","1","",""
"","html-keyboard-response","103","67613","0.0-103.0","3Y5140Z9DY2P932BJQ8EAXQFXXZPIP","A3UMFQFJ8HE82I","382GHPVPHSDM8N0F9141EAH7F0K34Z","","null","<img src=""img/land3.png"" style=""width:200px;border:14px solid red;"">","null","","","","","","","","","",""
"","image-keyboard-response","104","69615","0.0-104.0","3Y5140Z9DY2P932BJQ8EAXQFXXZPIP","A3UMFQFJ8HE82I","382GHPVPHSDM8N0F9141EAH7F0K34Z","","","img/land6.png","","2001.699999988079","-1","0","2","1","0.8,0.2,0.2,0.2,0.8,0.2,0.2,0.2,0.8","0.8,0.2,0.2,0.2,0.8,0.2,0.2,0.2,0.8","1","",""
"","html-keyboard-response","105","69916","0.0-105.0","3Y5140Z9DY2P932BJQ8EAXQFXXZPIP","A3UMFQFJ8HE82I","382GHPVPHSDM8N0F9141EAH7F0K34Z","","null","<img src=""img/land6.png"" style=""width:200px;border:14px solid red;"">","null","","","","","","","","","",""
"","image-keyboard-response","106","71039","0.0-106.0","3Y5140Z9DY2P932BJQ8EAXQFXXZPIP","A3UMFQFJ8HE82I","382GHPVPHSDM8N0F9141EAH7F0K34Z","","1121.8999999761581","img/land3.png","76","1122.800000011921","3","0","3","1","0.8,0.2,0.2,0.2,0.8,0.2,0.2,0.2,0.8","0.8,0.2,0.2,0.2,0.8,0.2,0.2,0.2,0.8","1","",""
"","html-keyboard-response","107","71341","0.0-107.0","3Y5140Z9DY2P932BJQ8EAXQFXXZPIP","A3UMFQFJ8HE82I","382GHPVPHSDM8N0F9141EAH7F0K34Z","","null","<img src=""img/land3.png"" style=""width:200px;border:14px solid red;"">","null","","","","","","","","","",""
"","image-keyboard-response","108","71583","0.0-108.0","3Y5140Z9DY2P932BJQ8EAXQFXXZPIP","A3UMFQFJ8HE82I","382GHPVPHSDM8N0F9141EAH7F0K34Z","","242.10000002384186","img/land3.png","75","242.59999999403954","2","0","3","1","0.8,0.2,0.2,0.2,0.8,0.2,0.2,0.2,0.8","0.8,0.2,0.2,0.2,0.8,0.2,0.2,0.2,0.8","1","",""
"","html-keyboard-response","109","71885","0.0-109.0","3Y5140Z9DY2P932BJQ8EAXQFXXZPIP","A3UMFQFJ8HE82I","382GHPVPHSDM8N0F9141EAH7F0K34Z","","null","<img src=""img/land3.png"" style=""width:200px;border:14px solid red;"">","null","","","","","","","","","",""
"","image-keyboard-response","110","72287","0.0-110.0","3Y5140Z9DY2P932BJQ8EAXQFXXZPIP","A3UMFQFJ8HE82I","382GHPVPHSDM8N0F9141EAH7F0K34Z","","401.40000000596046","img/land6.png","75","402.2000000178814","2","0","2","1","0.8,0.2,0.2,0.2,0.8,0.2,0.2,0.2,0.8","0.8,0.2,0.2,0.2,0.8,0.2,0.2,0.2,0.8","1","",""
"","html-keyboard-response","111","72590","0.0-111.0","3Y5140Z9DY2P932BJQ8EAXQFXXZPIP","A3UMFQFJ8HE82I","382GHPVPHSDM8N0F9141EAH7F0K34Z","","null","<img src=""img/land6.png"" style=""width:200px;border:14px solid red;"">","null","","","","","","","","","",""
"","image-keyboard-response","112","72847","0.0-112.0","3Y5140Z9DY2P932BJQ8EAXQFXXZPIP","A3UMFQFJ8HE82I","382GHPVPHSDM8N0F9141EAH7F0K34Z","","256.59999999403954","img/land3.png","76","257.5","3","1","3","1","0.8,0.2,0.2,0.2,0.8,0.2,0.2,0.2,0.8","0.8,0.2,0.2,0.2,0.8,0.2,0.2,0.2,0.8","1","",""
"","html-keyboard-response","113","73149","0.0-113.0","3Y5140Z9DY2P932BJQ8EAXQFXXZPIP","A3UMFQFJ8HE82I","382GHPVPHSDM8N0F9141EAH7F0K34Z","","null","<img src=""img/land3.png"" style=""width:200px; border:14px solid green;"">","null","","","","","","","","","",""
"","image-keyboard-response","114","73647","0.0-114.0","3Y5140Z9DY2P932BJQ8EAXQFXXZPIP","A3UMFQFJ8HE82I","382GHPVPHSDM8N0F9141EAH7F0K34Z","","497","img/land5.png","76","497.5","3","0","1","1","0.8,0.2,0.2,0.2,0.8,0.2,0.2,0.2,0.8","0.8,0.2,0.2,0.2,0.8,0.2,0.2,0.2,0.8","1","",""
"","html-keyboard-response","115","73949","0.0-115.0","3Y5140Z9DY2P932BJQ8EAXQFXXZPIP","A3UMFQFJ8HE82I","382GHPVPHSDM8N0F9141EAH7F0K34Z","","null","<img src=""img/land5.png"" style=""width:200px;border:14px solid red;"">","null","","","","","","","","","",""
"","image-keyboard-response","116","74559","0.0-116.0","3Y5140Z9DY2P932BJQ8EAXQFXXZPIP","A3UMFQFJ8HE82I","382GHPVPHSDM8N0F9141EAH7F0K34Z","","609.7000000178814","img/land6.png","75","610.3000000119209","2","0","2","1","0.8,0.2,0.2,0.2,0.8,0.2,0.2,0.2,0.8","0.8,0.2,0.2,0.2,0.8,0.2,0.2,0.2,0.8","1","",""
"","html-keyboard-response","117","74863","0.0-117.0","3Y5140Z9DY2P932BJQ8EAXQFXXZPIP","A3UMFQFJ8HE82I","382GHPVPHSDM8N0F9141EAH7F0K34Z","","null","<img src=""img/land6.png"" style=""width:200px;border:14px solid red;"">","null","","","","","","","","","",""
"","image-keyboard-response","118","75263","0.0-118.0","3Y5140Z9DY2P932BJQ8EAXQFXXZPIP","A3UMFQFJ8HE82I","382GHPVPHSDM8N0F9141EAH7F0K34Z","","399.2999999821186","img/land6.png","75","400.30000001192093","2","1","2","1","0.8,0.2,0.2,0.2,0.8,0.2,0.2,0.2,0.8","0.8,0.2,0.2,0.2,0.8,0.2,0.2,0.2,0.8","1","",""
"","html-keyboard-response","119","75566","0.0-119.0","3Y5140Z9DY2P932BJQ8EAXQFXXZPIP","A3UMFQFJ8HE82I","382GHPVPHSDM8N0F9141EAH7F0K34Z","","null","<img src=""img/land6.png"" style=""width:200px; border:14px solid green;"">","null","","","","","","","","","",""
"","image-keyboard-response","120","76015","0.0-120.0","3Y5140Z9DY2P932BJQ8EAXQFXXZPIP","A3UMFQFJ8HE82I","382GHPVPHSDM8N0F9141EAH7F0K34Z","","448.40000000596046","img/land3.png","75","449.09999999403954","2","0","3","1","0.8,0.2,0.2,0.2,0.8,0.2,0.2,0.2,0.8","0.8,0.2,0.2,0.2,0.8,0.2,0.2,0.2,0.8","1","",""
"","html-keyboard-response","121","76327","0.0-121.0","3Y5140Z9DY2P932BJQ8EAXQFXXZPIP","A3UMFQFJ8HE82I","382GHPVPHSDM8N0F9141EAH7F0K34Z","","null","<img src=""img/land3.png"" style=""width:200px;border:14px solid red;"">","null","","","","","","","","","",""
"","image-keyboard-response","122","76528","0.0-122.0","3Y5140Z9DY2P932BJQ8EAXQFXXZPIP","A3UMFQFJ8HE82I","382GHPVPHSDM8N0F9141EAH7F0K34Z","","200.69999998807907","img/land5.png","76","201.19999998807907","3","0","1","1","0.8,0.2,0.2,0.2,0.8,0.2,0.2,0.2,0.8","0.8,0.2,0.2,0.2,0.8,0.2,0.2,0.2,0.8","1","",""
"","html-keyboard-response","123","76830","0.0-123.0","3Y5140Z9DY2P932BJQ8EAXQFXXZPIP","A3UMFQFJ8HE82I","382GHPVPHSDM8N0F9141EAH7F0K34Z","","null","<img src=""img/land5.png"" style=""width:200px;border:14px solid red;"">","null","","","","","","","","","",""
"","image-keyboard-response","124","77616","0.0-124.0","3Y5140Z9DY2P932BJQ8EAXQFXXZPIP","A3UMFQFJ8HE82I","382GHPVPHSDM8N0F9141EAH7F0K34Z","","785.6000000238419","img/land3.png","76","786.0999999940395","3","1","3","1","0.8,0.2,0.2,0.2,0.8,0.2,0.2,0.2,0.8","0.8,0.2,0.2,0.2,0.8,0.2,0.2,0.2,0.8","1","",""
"","html-keyboard-response","125","77918","0.0-125.0","3Y5140Z9DY2P932BJQ8EAXQFXXZPIP","A3UMFQFJ8HE82I","382GHPVPHSDM8N0F9141EAH7F0K34Z","","null","<img src=""img/land3.png"" style=""width:200px; border:14px solid green;"">","null","","","","","","","","","",""
"","image-keyboard-response","126","79631","0.0-126.0","3Y5140Z9DY2P932BJQ8EAXQFXXZPIP","A3UMFQFJ8HE82I","382GHPVPHSDM8N0F9141EAH7F0K34Z","","1712.5999999940395","img/land3.png","76","1713.1000000238419","3","1","3","1","0.8,0.2,0.2,0.2,0.8,0.2,0.2,0.2,0.8","0.8,0.2,0.2,0.2,0.8,0.2,0.2,0.2,0.8","1","",""
"","html-keyboard-response","127","79933","0.0-127.0","3Y5140Z9DY2P932BJQ8EAXQFXXZPIP","A3UMFQFJ8HE82I","382GHPVPHSDM8N0F9141EAH7F0K34Z","","null","<img src=""img/land3.png"" style=""width:200px; border:14px solid green;"">","null","","","","","","","","","",""
"","image-keyboard-response","128","80752","0.0-128.0","3Y5140Z9DY2P932BJQ8EAXQFXXZPIP","A3UMFQFJ8HE82I","382GHPVPHSDM8N0F9141EAH7F0K34Z","","818.8999999761581","img/land6.png","75","819.5","2","1","2","1","0.8,0.2,0.2,0.2,0.8,0.2,0.2,0.2,0.8","0.8,0.2,0.2,0.2,0.8,0.2,0.2,0.2,0.8","1","",""
"","html-keyboard-response","129","81054","0.0-129.0","3Y5140Z9DY2P932BJQ8EAXQFXXZPIP","A3UMFQFJ8HE82I","382GHPVPHSDM8N0F9141EAH7F0K34Z","","null","<img src=""img/land6.png"" style=""width:200px; border:14px solid green;"">","null","","","","","","","","","",""
"","image-keyboard-response","130","81967","0.0-130.0","3Y5140Z9DY2P932BJQ8EAXQFXXZPIP","A3UMFQFJ8HE82I","382GHPVPHSDM8N0F9141EAH7F0K34Z","","912.0999999940395","img/land6.png","75","912.5999999940395","2","0","2","1","0.8,0.2,0.2,0.2,0.8,0.2,0.2,0.2,0.8","0.8,0.2,0.2,0.2,0.8,0.2,0.2,0.2,0.8","1","",""
"","html-keyboard-response","131","82269","0.0-131.0","3Y5140Z9DY2P932BJQ8EAXQFXXZPIP","A3UMFQFJ8HE82I","382GHPVPHSDM8N0F9141EAH7F0K34Z","","null","<img src=""img/land6.png"" style=""width:200px;border:14px solid red;"">","null","","","","","","","","","",""
"","image-keyboard-response","132","83824","0.0-132.0","3Y5140Z9DY2P932BJQ8EAXQFXXZPIP","A3UMFQFJ8HE82I","382GHPVPHSDM8N0F9141EAH7F0K34Z","","1553.5999999940395","img/land5.png","76","1554.199999988079","3","1","1","1","0.8,0.2,0.2,0.2,0.8,0.2,0.2,0.2,0.8","0.8,0.2,0.2,0.2,0.8,0.2,0.2,0.2,0.8","1","",""
"","html-keyboard-response","133","84126","0.0-133.0","3Y5140Z9DY2P932BJQ8EAXQFXXZPIP","A3UMFQFJ8HE82I","382GHPVPHSDM8N0F9141EAH7F0K34Z","","null","<img src=""img/land5.png"" style=""width:200px; border:14px solid green;"">","null","","","","","","","","","",""
"","image-keyboard-response","134","85855","0.0-134.0","3Y5140Z9DY2P932BJQ8EAXQFXXZPIP","A3UMFQFJ8HE82I","382GHPVPHSDM8N0F9141EAH7F0K34Z","","1728.800000011921","img/land5.png","76","1729.2999999821186","3","0","1","1","0.8,0.2,0.2,0.2,0.8,0.2,0.2,0.2,0.8","0.8,0.2,0.2,0.2,0.8,0.2,0.2,0.2,0.8","1","",""
"","html-keyboard-response","135","86158","0.0-135.0","3Y5140Z9DY2P932BJQ8EAXQFXXZPIP","A3UMFQFJ8HE82I","382GHPVPHSDM8N0F9141EAH7F0K34Z","","null","<img src=""img/land5.png"" style=""width:200px;border:14px solid red;"">","null","","","","","","","","","",""
"","image-keyboard-response","136","87999","0.0-136.0","3Y5140Z9DY2P932BJQ8EAXQFXXZPIP","A3UMFQFJ8HE82I","382GHPVPHSDM8N0F9141EAH7F0K34Z","","1840.9000000059605","img/land6.png","75","1841.5","2","1","2","1","0.8,0.2,0.2,0.2,0.8,0.2,0.2,0.2,0.8","0.8,0.2,0.2,0.2,0.8,0.2,0.2,0.2,0.8","1","",""
"","html-keyboard-response","137","88301","0.0-137.0","3Y5140Z9DY2P932BJQ8EAXQFXXZPIP","A3UMFQFJ8HE82I","382GHPVPHSDM8N0F9141EAH7F0K34Z","","null","<img src=""img/land6.png"" style=""width:200px; border:14px solid green;"">","null","","","","","","","","","",""
"","image-keyboard-response","138","88911","0.0-138.0","3Y5140Z9DY2P932BJQ8EAXQFXXZPIP","A3UMFQFJ8HE82I","382GHPVPHSDM8N0F9141EAH7F0K34Z","","609.4000000059605","img/land3.png","76","610","3","0","3","1","0.8,0.2,0.2,0.2,0.8,0.2,0.2,0.2,0.8","0.8,0.2,0.2,0.2,0.8,0.2,0.2,0.2,0.8","1","",""
"","html-keyboard-response","139","89213","0.0-139.0","3Y5140Z9DY2P932BJQ8EAXQFXXZPIP","A3UMFQFJ8HE82I","382GHPVPHSDM8N0F9141EAH7F0K34Z","","null","<img src=""img/land3.png"" style=""width:200px;border:14px solid red;"">","null","","","","","","","","","",""
"","image-keyboard-response","140","90112","0.0-140.0","3Y5140Z9DY2P932BJQ8EAXQFXXZPIP","A3UMFQFJ8HE82I","382GHPVPHSDM8N0F9141EAH7F0K34Z","","897.4000000059605","img/land6.png","75","898.1000000238419","2","1","2","1","0.8,0.2,0.2,0.2,0.8,0.2,0.2,0.2,0.8","0.8,0.2,0.2,0.2,0.8,0.2,0.2,0.2,0.8","1","",""
"","html-keyboard-response","141","90413","0.0-141.0","3Y5140Z9DY2P932BJQ8EAXQFXXZPIP","A3UMFQFJ8HE82I","382GHPVPHSDM8N0F9141EAH7F0K34Z","","null","<img src=""img/land6.png"" style=""width:200px; border:14px solid green;"">","null","","","","","","","","","",""
"","image-keyboard-response","142","91744","0.0-142.0","3Y5140Z9DY2P932BJQ8EAXQFXXZPIP","A3UMFQFJ8HE82I","382GHPVPHSDM8N0F9141EAH7F0K34Z","","1330.0999999940395","img/land3.png","76","1330.7000000178814","3","1","3","1","0.8,0.2,0.2,0.2,0.8,0.2,0.2,0.2,0.8","0.8,0.2,0.2,0.2,0.8,0.2,0.2,0.2,0.8","1","",""
"","html-keyboard-response","143","92045","0.0-143.0","3Y5140Z9DY2P932BJQ8EAXQFXXZPIP","A3UMFQFJ8HE82I","382GHPVPHSDM8N0F9141EAH7F0K34Z","","null","<img src=""img/land3.png"" style=""width:200px; border:14px solid green;"">","null","","","","","","","","","",""
"","image-keyboard-response","144","93631","0.0-144.0","3Y5140Z9DY2P932BJQ8EAXQFXXZPIP","A3UMFQFJ8HE82I","382GHPVPHSDM8N0F9141EAH7F0K34Z","","1585","img/land6.png","75","1585.5999999940395","2","0","2","1","0.8,0.2,0.2,0.2,0.8,0.2,0.2,0.2,0.8","0.8,0.2,0.2,0.2,0.8,0.2,0.2,0.2,0.8","1","",""
"","html-keyboard-response","145","93933","0.0-145.0","3Y5140Z9DY2P932BJQ8EAXQFXXZPIP","A3UMFQFJ8HE82I","382GHPVPHSDM8N0F9141EAH7F0K34Z","","null","<img src=""img/land6.png"" style=""width:200px;border:14px solid red;"">","null","","","","","","","","","",""
"","image-keyboard-response","146","94255","0.0-146.0","3Y5140Z9DY2P932BJQ8EAXQFXXZPIP","A3UMFQFJ8HE82I","382GHPVPHSDM8N0F9141EAH7F0K34Z","","321","img/land5.png","76","321.69999998807907","3","0","1","1","0.8,0.2,0.2,0.2,0.8,0.2,0.2,0.2,0.8","0.8,0.2,0.2,0.2,0.8,0.2,0.2,0.2,0.8","1","",""
"","html-keyboard-response","147","94556","0.0-147.0","3Y5140Z9DY2P932BJQ8EAXQFXXZPIP","A3UMFQFJ8HE82I","382GHPVPHSDM8N0F9141EAH7F0K34Z","","null","<img src=""img/land5.png"" style=""width:200px;border:14px solid red;"">","null","","","","","","","","","",""
"","image-keyboard-response","148","95807","0.0-148.0","3Y5140Z9DY2P932BJQ8EAXQFXXZPIP","A3UMFQFJ8HE82I","382GHPVPHSDM8N0F9141EAH7F0K34Z","","1250","img/land5.png","75","1250.5999999940395","2","1","1","1","0.8,0.2,0.2,0.2,0.8,0.2,0.2,0.2,0.8","0.8,0.2,0.2,0.2,0.8,0.2,0.2,0.2,0.8","1","",""
"","html-keyboard-response","149","96109","0.0-149.0","3Y5140Z9DY2P932BJQ8EAXQFXXZPIP","A3UMFQFJ8HE82I","382GHPVPHSDM8N0F9141EAH7F0K34Z","","null","<img src=""img/land5.png"" style=""width:200px; border:14px solid green;"">","null","","","","","","","","","",""
"","image-keyboard-response","150","97727","0.0-150.0","3Y5140Z9DY2P932BJQ8EAXQFXXZPIP","A3UMFQFJ8HE82I","382GHPVPHSDM8N0F9141EAH7F0K34Z","","1617.2999999821186","img/land5.png","75","1618","2","0","1","1","0.8,0.2,0.2,0.2,0.8,0.2,0.2,0.2,0.8","0.8,0.2,0.2,0.2,0.8,0.2,0.2,0.2,0.8","1","",""
"","html-keyboard-response","151","98029","0.0-151.0","3Y5140Z9DY2P932BJQ8EAXQFXXZPIP","A3UMFQFJ8HE82I","382GHPVPHSDM8N0F9141EAH7F0K34Z","","null","<img src=""img/land5.png"" style=""width:200px;border:14px solid red;"">","null","","","","","","","","","",""
"","image-keyboard-response","152","98495","0.0-152.0","3Y5140Z9DY2P932BJQ8EAXQFXXZPIP","A3UMFQFJ8HE82I","382GHPVPHSDM8N0F9141EAH7F0K34Z","","465.09999999403954","img/land3.png","76","465.90000000596046","3","1","3","1","0.8,0.2,0.2,0.2,0.8,0.2,0.2,0.2,0.8","0.8,0.2,0.2,0.2,0.8,0.2,0.2,0.2,0.8","1","",""
"","html-keyboard-response","153","98800","0.0-153.0","3Y5140Z9DY2P932BJQ8EAXQFXXZPIP","A3UMFQFJ8HE82I","382GHPVPHSDM8N0F9141EAH7F0K34Z","","null","<img src=""img/land3.png"" style=""width:200px; border:14px solid green;"">","null","","","","","","","","","",""
"","image-keyboard-response","154","100047","0.0-154.0","3Y5140Z9DY2P932BJQ8EAXQFXXZPIP","A3UMFQFJ8HE82I","382GHPVPHSDM8N0F9141EAH7F0K34Z","","1246","img/land5.png","76","1246.5999999940395","3","0","1","1","0.8,0.2,0.2,0.2,0.8,0.2,0.2,0.2,0.8","0.8,0.2,0.2,0.2,0.8,0.2,0.2,0.2,0.8","1","",""
"","html-keyboard-response","155","100348","0.0-155.0","3Y5140Z9DY2P932BJQ8EAXQFXXZPIP","A3UMFQFJ8HE82I","382GHPVPHSDM8N0F9141EAH7F0K34Z","","null","<img src=""img/land5.png"" style=""width:200px;border:14px solid red;"">","null","","","","","","","","","",""
"","image-keyboard-response","156","100655","0.0-156.0","3Y5140Z9DY2P932BJQ8EAXQFXXZPIP","A3UMFQFJ8HE82I","382GHPVPHSDM8N0F9141EAH7F0K34Z","","306","img/land5.png","75","306.80000001192093","2","1","1","1","0.8,0.2,0.2,0.2,0.8,0.2,0.2,0.2,0.8","0.8,0.2,0.2,0.2,0.8,0.2,0.2,0.2,0.8","1","",""
"","html-keyboard-response","157","100956","0.0-157.0","3Y5140Z9DY2P932BJQ8EAXQFXXZPIP","A3UMFQFJ8HE82I","382GHPVPHSDM8N0F9141EAH7F0K34Z","","null","<img src=""img/land5.png"" style=""width:200px; border:14px solid green;"">","null","","","","","","","","","",""
"","image-keyboard-response","158","101808","0.0-158.0","3Y5140Z9DY2P932BJQ8EAXQFXXZPIP","A3UMFQFJ8HE82I","382GHPVPHSDM8N0F9141EAH7F0K34Z","","850.2999999821186","img/land3.png","76","851","3","1","3","1","0.8,0.2,0.2,0.2,0.8,0.2,0.2,0.2,0.8","0.8,0.2,0.2,0.2,0.8,0.2,0.2,0.2,0.8","1","",""
"","html-keyboard-response","159","102109","0.0-159.0","3Y5140Z9DY2P932BJQ8EAXQFXXZPIP","A3UMFQFJ8HE82I","382GHPVPHSDM8N0F9141EAH7F0K34Z","","null","<img src=""img/land3.png"" style=""width:200px; border:14px solid green;"">","null","","","","","","","","","",""
"","image-keyboard-response","160","104111","0.0-160.0","3Y5140Z9DY2P932BJQ8EAXQFXXZPIP","A3UMFQFJ8HE82I","382GHPVPHSDM8N0F9141EAH7F0K34Z","","","img/land3.png","","2001.2000000178814","-1","0","3","1","0.8,0.2,0.2,0.2,0.8,0.2,0.2,0.2,0.8","0.8,0.2,0.2,0.2,0.8,0.2,0.2,0.2,0.8","1","",""
"","html-keyboard-response","161","104412","0.0-161.0","3Y5140Z9DY2P932BJQ8EAXQFXXZPIP","A3UMFQFJ8HE82I","382GHPVPHSDM8N0F9141EAH7F0K34Z","","null","<img src=""img/land3.png"" style=""width:200px;border:14px solid red;"">","null","","","","","","","","","",""
"","image-keyboard-response","162","105327","0.0-162.0","3Y5140Z9DY2P932BJQ8EAXQFXXZPIP","A3UMFQFJ8HE82I","382GHPVPHSDM8N0F9141EAH7F0K34Z","","913.6999999880791","img/land5.png","75","914.3000000119209","2","0","1","1","0.8,0.2,0.2,0.2,0.8,0.2,0.2,0.2,0.8","0.8,0.2,0.2,0.2,0.8,0.2,0.2,0.2,0.8","1","",""
"","html-keyboard-response","163","105628","0.0-163.0","3Y5140Z9DY2P932BJQ8EAXQFXXZPIP","A3UMFQFJ8HE82I","382GHPVPHSDM8N0F9141EAH7F0K34Z","","null","<img src=""img/land5.png"" style=""width:200px;border:14px solid red;"">","null","","","","","","","","","",""
"","image-keyboard-response","164","105856","0.0-164.0","3Y5140Z9DY2P932BJQ8EAXQFXXZPIP","A3UMFQFJ8HE82I","382GHPVPHSDM8N0F9141EAH7F0K34Z","","226.5","img/land3.png","76","227.19999998807907","3","1","3","1","0.8,0.2,0.2,0.2,0.8,0.2,0.2,0.2,0.8","0.8,0.2,0.2,0.2,0.8,0.2,0.2,0.2,0.8","1","",""
"","html-keyboard-response","165","106158","0.0-165.0","3Y5140Z9DY2P932BJQ8EAXQFXXZPIP","A3UMFQFJ8HE82I","382GHPVPHSDM8N0F9141EAH7F0K34Z","","null","<img src=""img/land3.png"" style=""width:200px; border:14px solid green;"">","null","","","","","","","","","",""
"","image-keyboard-response","166","106527","0.0-166.0","3Y5140Z9DY2P932BJQ8EAXQFXXZPIP","A3UMFQFJ8HE82I","382GHPVPHSDM8N0F9141EAH7F0K34Z","","367.40000000596046","img/land5.png","75","368","2","0","1","1","0.8,0.2,0.2,0.2,0.8,0.2,0.2,0.2,0.8","0.8,0.2,0.2,0.2,0.8,0.2,0.2,0.2,0.8","1","",""
"","html-keyboard-response","167","106829","0.0-167.0","3Y5140Z9DY2P932BJQ8EAXQFXXZPIP","A3UMFQFJ8HE82I","382GHPVPHSDM8N0F9141EAH7F0K34Z","","null","<img src=""img/land5.png"" style=""width:200px;border:14px solid red;"">","null","","","","","","","","","",""
"","image-keyboard-response","168","107567","0.0-168.0","3Y5140Z9DY2P932BJQ8EAXQFXXZPIP","A3UMFQFJ8HE82I","382GHPVPHSDM8N0F9141EAH7F0K34Z","","737.4000000059605","img/land6.png","76","738.0999999940395","3","0","2","1","0.8,0.2,0.2,0.2,0.8,0.2,0.2,0.2,0.8","0.8,0.2,0.2,0.2,0.8,0.2,0.2,0.2,0.8","1","",""
"","html-keyboard-response","169","107868","0.0-169.0","3Y5140Z9DY2P932BJQ8EAXQFXXZPIP","A3UMFQFJ8HE82I","382GHPVPHSDM8N0F9141EAH7F0K34Z","","null","<img src=""img/land6.png"" style=""width:200px;border:14px solid red;"">","null","","","","","","","","","",""
"","image-keyboard-response","170","109087","0.0-170.0","3Y5140Z9DY2P932BJQ8EAXQFXXZPIP","A3UMFQFJ8HE82I","382GHPVPHSDM8N0F9141EAH7F0K34Z","","1217","img/land6.png","76","1218","3","1","2","1","0.8,0.2,0.2,0.2,0.8,0.2,0.2,0.2,0.8","0.8,0.2,0.2,0.2,0.8,0.2,0.2,0.2,0.8","1","",""
"","html-keyboard-response","171","109389","0.0-171.0","3Y5140Z9DY2P932BJQ8EAXQFXXZPIP","A3UMFQFJ8HE82I","382GHPVPHSDM8N0F9141EAH7F0K34Z","","null","<img src=""img/land6.png"" style=""width:200px; border:14px solid green;"">","null","","","","","","","","","",""
"","image-keyboard-response","172","110335","0.0-172.0","3Y5140Z9DY2P932BJQ8EAXQFXXZPIP","A3UMFQFJ8HE82I","382GHPVPHSDM8N0F9141EAH7F0K34Z","","945.0999999940395","img/land3.png","76","945.8000000119209","3","1","3","1","0.8,0.2,0.2,0.2,0.8,0.2,0.2,0.2,0.8","0.8,0.2,0.2,0.2,0.8,0.2,0.2,0.2,0.8","1","",""
"","html-keyboard-response","173","110637","0.0-173.0","3Y5140Z9DY2P932BJQ8EAXQFXXZPIP","A3UMFQFJ8HE82I","382GHPVPHSDM8N0F9141EAH7F0K34Z","","null","<img src=""img/land3.png"" style=""width:200px; border:14px solid green;"">","null","","","","","","","","","",""
"","image-keyboard-response","174","111407","0.0-174.0","3Y5140Z9DY2P932BJQ8EAXQFXXZPIP","A3UMFQFJ8HE82I","382GHPVPHSDM8N0F9141EAH7F0K34Z","","769","img/land5.png","75","769.5999999940395","2","1","1","1","0.8,0.2,0.2,0.2,0.8,0.2,0.2,0.2,0.8","0.8,0.2,0.2,0.2,0.8,0.2,0.2,0.2,0.8","1","",""
"","html-keyboard-response","175","111709","0.0-175.0","3Y5140Z9DY2P932BJQ8EAXQFXXZPIP","A3UMFQFJ8HE82I","382GHPVPHSDM8N0F9141EAH7F0K34Z","","null","<img src=""img/land5.png"" style=""width:200px; border:14px solid green;"">","null","","","","","","","","","",""
"","image-keyboard-response","176","112544","0.0-176.0","3Y5140Z9DY2P932BJQ8EAXQFXXZPIP","A3UMFQFJ8HE82I","382GHPVPHSDM8N0F9141EAH7F0K34Z","","834.1999999880791","img/land3.png","76","835","3","1","3","1","0.8,0.2,0.2,0.2,0.8,0.2,0.2,0.2,0.8","0.8,0.2,0.2,0.2,0.8,0.2,0.2,0.2,0.8","1","",""
"","html-keyboard-response","177","112846","0.0-177.0","3Y5140Z9DY2P932BJQ8EAXQFXXZPIP","A3UMFQFJ8HE82I","382GHPVPHSDM8N0F9141EAH7F0K34Z","","null","<img src=""img/land3.png"" style=""width:200px; border:14px solid green;"">","null","","","","","","","","","",""
"","image-keyboard-response","178","113647","0.0-178.0","3Y5140Z9DY2P932BJQ8EAXQFXXZPIP","A3UMFQFJ8HE82I","382GHPVPHSDM8N0F9141EAH7F0K34Z","","800.3000000119209","img/land3.png","76","800.7999999821186","3","1","3","1","0.8,0.2,0.2,0.2,0.8,0.2,0.2,0.2,0.8","0.8,0.2,0.2,0.2,0.8,0.2,0.2,0.2,0.8","1","",""
"","html-keyboard-response","179","113949","0.0-179.0","3Y5140Z9DY2P932BJQ8EAXQFXXZPIP","A3UMFQFJ8HE82I","382GHPVPHSDM8N0F9141EAH7F0K34Z","","null","<img src=""img/land3.png"" style=""width:200px; border:14px solid green;"">","null","","","","","","","","","",""
"","image-keyboard-response","180","114687","0.0-180.0","3Y5140Z9DY2P932BJQ8EAXQFXXZPIP","A3UMFQFJ8HE82I","382GHPVPHSDM8N0F9141EAH7F0K34Z","","737.4000000059605","img/land3.png","76","738","3","1","3","1","0.8,0.2,0.2,0.2,0.8,0.2,0.2,0.2,0.8","0.8,0.2,0.2,0.2,0.8,0.2,0.2,0.2,0.8","1","",""
"","html-keyboard-response","181","114988","0.0-181.0","3Y5140Z9DY2P932BJQ8EAXQFXXZPIP","A3UMFQFJ8HE82I","382GHPVPHSDM8N0F9141EAH7F0K34Z","","null","<img src=""img/land3.png"" style=""width:200px; border:14px solid green;"">","null","","","","","","","","","",""
"","html-keyboard-response","182","119713","0.0-182.0","3Y5140Z9DY2P932BJQ8EAXQFXXZPIP","A3UMFQFJ8HE82I","382GHPVPHSDM8N0F9141EAH7F0K34Z","","","","","","","","","","","","","",""
"","image-keyboard-response","183","121631","0.0-183.0","3Y5140Z9DY2P932BJQ8EAXQFXXZPIP","A3UMFQFJ8HE82I","382GHPVPHSDM8N0F9141EAH7F0K34Z","","1917","img/land4.png","75","1917.800000011921","2","1","3","2","0.8,0.2,0.2,0.2,0.8,0.2,0.2,0.2,0.8","0.2,0.2,0.8,0.8,0.2,0.2,0.2,0.8,0.2","2","",""
"","html-keyboard-response","184","121932","0.0-184.0","3Y5140Z9DY2P932BJQ8EAXQFXXZPIP","A3UMFQFJ8HE82I","382GHPVPHSDM8N0F9141EAH7F0K34Z","","null","<img src=""img/land4.png"" style=""width:200px; border:14px solid green;"">","null","","","","","","","","","",""
"","image-keyboard-response","185","122608","0.0-185.0","3Y5140Z9DY2P932BJQ8EAXQFXXZPIP","A3UMFQFJ8HE82I","382GHPVPHSDM8N0F9141EAH7F0K34Z","","675","img/land2.png","76","675.6999999880791","3","1","1","2","0.8,0.2,0.2,0.2,0.8,0.2,0.2,0.2,0.8","0.2,0.2,0.8,0.8,0.2,0.2,0.2,0.8,0.2","2","",""
"","html-keyboard-response","186","122910","0.0-186.0","3Y5140Z9DY2P932BJQ8EAXQFXXZPIP","A3UMFQFJ8HE82I","382GHPVPHSDM8N0F9141EAH7F0K34Z","","null","<img src=""img/land2.png"" style=""width:200px; border:14px solid green;"">","null","","","","","","","","","",""
"","image-keyboard-response","187","123390","0.0-187.0","3Y5140Z9DY2P932BJQ8EAXQFXXZPIP","A3UMFQFJ8HE82I","382GHPVPHSDM8N0F9141EAH7F0K34Z","","479.30000001192093","img/land2.png","75","480","2","0","1","2","0.8,0.2,0.2,0.2,0.8,0.2,0.2,0.2,0.8","0.2,0.2,0.8,0.8,0.2,0.2,0.2,0.8,0.2","2","",""
"","html-keyboard-response","188","123693","0.0-188.0","3Y5140Z9DY2P932BJQ8EAXQFXXZPIP","A3UMFQFJ8HE82I","382GHPVPHSDM8N0F9141EAH7F0K34Z","","null","<img src=""img/land2.png"" style=""width:200px;border:14px solid red;"">","null","","","","","","","","","",""
"","image-keyboard-response","189","124974","0.0-189.0","3Y5140Z9DY2P932BJQ8EAXQFXXZPIP","A3UMFQFJ8HE82I","382GHPVPHSDM8N0F9141EAH7F0K34Z","","1280.6000000238419","img/land1.png","76","1281.2999999821186","3","0","2","2","0.8,0.2,0.2,0.2,0.8,0.2,0.2,0.2,0.8","0.2,0.2,0.8,0.8,0.2,0.2,0.2,0.8,0.2","2","",""
"","html-keyboard-response","190","125276","0.0-190.0","3Y5140Z9DY2P932BJQ8EAXQFXXZPIP","A3UMFQFJ8HE82I","382GHPVPHSDM8N0F9141EAH7F0K34Z","","null","<img src=""img/land1.png"" style=""width:200px;border:14px solid red;"">","null","","","","","","","","","",""
"","image-keyboard-response","191","125566","0.0-191.0","3Y5140Z9DY2P932BJQ8EAXQFXXZPIP","A3UMFQFJ8HE82I","382GHPVPHSDM8N0F9141EAH7F0K34Z","","289.40000000596046","img/land2.png","75","290.09999999403954","2","0","1","2","0.8,0.2,0.2,0.2,0.8,0.2,0.2,0.2,0.8","0.2,0.2,0.8,0.8,0.2,0.2,0.2,0.8,0.2","2","",""
"","html-keyboard-response","192","125868","0.0-192.0","3Y5140Z9DY2P932BJQ8EAXQFXXZPIP","A3UMFQFJ8HE82I","382GHPVPHSDM8N0F9141EAH7F0K34Z","","null","<img src=""img/land2.png"" style=""width:200px;border:14px solid red;"">","null","","","","","","","","","",""
"","image-keyboard-response","193","127869","0.0-193.0","3Y5140Z9DY2P932BJQ8EAXQFXXZPIP","A3UMFQFJ8HE82I","382GHPVPHSDM8N0F9141EAH7F0K34Z","","","img/land2.png","","2001.199999988079","-1","0","1","2","0.8,0.2,0.2,0.2,0.8,0.2,0.2,0.2,0.8","0.2,0.2,0.8,0.8,0.2,0.2,0.2,0.8,0.2","2","",""
"","html-keyboard-response","194","128171","0.0-194.0","3Y5140Z9DY2P932BJQ8EAXQFXXZPIP","A3UMFQFJ8HE82I","382GHPVPHSDM8N0F9141EAH7F0K34Z","","null","<img src=""img/land2.png"" style=""width:200px;border:14px solid red;"">","null","","","","","","","","","",""
"","image-keyboard-response","195","128382","0.0-195.0","3Y5140Z9DY2P932BJQ8EAXQFXXZPIP","A3UMFQFJ8HE82I","382GHPVPHSDM8N0F9141EAH7F0K34Z","","211","img/land1.png","75","211.69999998807907","2","0","2","2","0.8,0.2,0.2,0.2,0.8,0.2,0.2,0.2,0.8","0.2,0.2,0.8,0.8,0.2,0.2,0.2,0.8,0.2","2","",""
"","html-keyboard-response","196","128689","0.0-196.0","3Y5140Z9DY2P932BJQ8EAXQFXXZPIP","A3UMFQFJ8HE82I","382GHPVPHSDM8N0F9141EAH7F0K34Z","","null","<img src=""img/land1.png"" style=""width:200px;border:14px solid red;"">","null","","","","","","","","","",""
"","image-keyboard-response","197","129198","0.0-197.0","3Y5140Z9DY2P932BJQ8EAXQFXXZPIP","A3UMFQFJ8HE82I","382GHPVPHSDM8N0F9141EAH7F0K34Z","","508.30000001192093","img/land2.png","75","508.80000001192093","2","0","1","2","0.8,0.2,0.2,0.2,0.8,0.2,0.2,0.2,0.8","0.2,0.2,0.8,0.8,0.2,0.2,0.2,0.8,0.2","2","",""
"","html-keyboard-response","198","129501","0.0-198.0","3Y5140Z9DY2P932BJQ8EAXQFXXZPIP","A3UMFQFJ8HE82I","382GHPVPHSDM8N0F9141EAH7F0K34Z","","null","<img src=""img/land2.png"" style=""width:200px;border:14px solid red;"">","null","","","","","","","","","",""
"","image-keyboard-response","199","130846","0.0-199.0","3Y5140Z9DY2P932BJQ8EAXQFXXZPIP","A3UMFQFJ8HE82I","382GHPVPHSDM8N0F9141EAH7F0K34Z","","1342.800000011921","img/land4.png","76","1343.5","3","1","3","2","0.8,0.2,0.2,0.2,0.8,0.2,0.2,0.2,0.8","0.2,0.2,0.8,0.8,0.2,0.2,0.2,0.8,0.2","2","",""
"","html-keyboard-response","200","131148","0.0-200.0","3Y5140Z9DY2P932BJQ8EAXQFXXZPIP","A3UMFQFJ8HE82I","382GHPVPHSDM8N0F9141EAH7F0K34Z","","null","<img src=""img/land4.png"" style=""width:200px; border:14px solid green;"">","null","","","","","","","","","",""
"","image-keyboard-response","201","131742","0.0-201.0","3Y5140Z9DY2P932BJQ8EAXQFXXZPIP","A3UMFQFJ8HE82I","382GHPVPHSDM8N0F9141EAH7F0K34Z","","593","img/land1.png","75","593.7999999821186","2","0","2","2","0.8,0.2,0.2,0.2,0.8,0.2,0.2,0.2,0.8","0.2,0.2,0.8,0.8,0.2,0.2,0.2,0.8,0.2","2","",""
"","html-keyboard-response","202","132044","0.0-202.0","3Y5140Z9DY2P932BJQ8EAXQFXXZPIP","A3UMFQFJ8HE82I","382GHPVPHSDM8N0F9141EAH7F0K34Z","","null","<img src=""img/land1.png"" style=""width:200px;border:14px solid red;"">","null","","","","","","","","","",""
"","image-keyboard-response","203","132462","0.0-203.0","3Y5140Z9DY2P932BJQ8EAXQFXXZPIP","A3UMFQFJ8HE82I","382GHPVPHSDM8N0F9141EAH7F0K34Z","","417.40000000596046","img/land4.png","76","418","3","0","3","2","0.8,0.2,0.2,0.2,0.8,0.2,0.2,0.2,0.8","0.2,0.2,0.8,0.8,0.2,0.2,0.2,0.8,0.2","2","",""
"","html-keyboard-response","204","132765","0.0-204.0","3Y5140Z9DY2P932BJQ8EAXQFXXZPIP","A3UMFQFJ8HE82I","382GHPVPHSDM8N0F9141EAH7F0K34Z","","null","<img src=""img/land4.png"" style=""width:200px;border:14px solid red;"">","null","","","","","","","","","",""
"","image-keyboard-response","205","134287","0.0-205.0","3Y5140Z9DY2P932BJQ8EAXQFXXZPIP","A3UMFQFJ8HE82I","382GHPVPHSDM8N0F9141EAH7F0K34Z","","1521.800000011921","img/land4.png","75","1522.4000000059605","2","0","3","2","0.8,0.2,0.2,0.2,0.8,0.2,0.2,0.2,0.8","0.2,0.2,0.8,0.8,0.2,0.2,0.2,0.8,0.2","2","",""
"","html-keyboard-response","206","134589","0.0-206.0","3Y5140Z9DY2P932BJQ8EAXQFXXZPIP","A3UMFQFJ8HE82I","382GHPVPHSDM8N0F9141EAH7F0K34Z","","null","<img src=""img/land4.png"" style=""width:200px;border:14px solid red;"">","null","","","","","","","","","",""
"","image-keyboard-response","207","134670","0.0-207.0","3Y5140Z9DY2P932BJQ8EAXQFXXZPIP","A3UMFQFJ8HE82I","382GHPVPHSDM8N0F9141EAH7F0K34Z","","80.59999999403954","img/land1.png","76","81.2000000178814","3","0","2","2","0.8,0.2,0.2,0.2,0.8,0.2,0.2,0.2,0.8","0.2,0.2,0.8,0.8,0.2,0.2,0.2,0.8,0.2","2","",""
"","html-keyboard-response","208","134983","0.0-208.0","3Y5140Z9DY2P932BJQ8EAXQFXXZPIP","A3UMFQFJ8HE82I","382GHPVPHSDM8N0F9141EAH7F0K34Z","","null","<img src=""img/land1.png"" style=""width:200px;border:14px solid red;"">","null","","","","","","","","","",""
"","image-keyboard-response","209","135983","0.0-209.0","3Y5140Z9DY2P932BJQ8EAXQFXXZPIP","A3UMFQFJ8HE82I","382GHPVPHSDM8N0F9141EAH7F0K34Z","","998.9000000059605","img/land1.png","76","999.5999999940395","3","0","2","2","0.8,0.2,0.2,0.2,0.8,0.2,0.2,0.2,0.8","0.2,0.2,0.8,0.8,0.2,0.2,0.2,0.8,0.2","2","",""
"","html-keyboard-response","210","136285","0.0-210.0","3Y5140Z9DY2P932BJQ8EAXQFXXZPIP","A3UMFQFJ8HE82I","382GHPVPHSDM8N0F9141EAH7F0K34Z","","null","<img src=""img/land1.png"" style=""width:200px;border:14px solid red;"">","null","","","","","","","","","",""
"","image-keyboard-response","211","136670","0.0-211.0","3Y5140Z9DY2P932BJQ8EAXQFXXZPIP","A3UMFQFJ8HE82I","382GHPVPHSDM8N0F9141EAH7F0K34Z","","384.90000000596046","img/land2.png","75","385.59999999403954","2","0","1","2","0.8,0.2,0.2,0.2,0.8,0.2,0.2,0.2,0.8","0.2,0.2,0.8,0.8,0.2,0.2,0.2,0.8,0.2","2","",""
"","html-keyboard-response","212","136972","0.0-212.0","3Y5140Z9DY2P932BJQ8EAXQFXXZPIP","A3UMFQFJ8HE82I","382GHPVPHSDM8N0F9141EAH7F0K34Z","","null","<img src=""img/land2.png"" style=""width:200px;border:14px solid red;"">","null","","","","","","","","","",""
"","image-keyboard-response","213","137710","0.0-213.0","3Y5140Z9DY2P932BJQ8EAXQFXXZPIP","A3UMFQFJ8HE82I","382GHPVPHSDM8N0F9141EAH7F0K34Z","","737.2999999821186","img/land1.png","76","737.9000000059605","3","0","2","2","0.8,0.2,0.2,0.2,0.8,0.2,0.2,0.2,0.8","0.2,0.2,0.8,0.8,0.2,0.2,0.2,0.8,0.2","2","",""
"","html-keyboard-response","214","138012","0.0-214.0","3Y5140Z9DY2P932BJQ8EAXQFXXZPIP","A3UMFQFJ8HE82I","382GHPVPHSDM8N0F9141EAH7F0K34Z","","null","<img src=""img/land1.png"" style=""width:200px;border:14px solid red;"">","null","","","","","","","","","",""
"","image-keyboard-response","215","138064","0.0-215.0","3Y5140Z9DY2P932BJQ8EAXQFXXZPIP","A3UMFQFJ8HE82I","382GHPVPHSDM8N0F9141EAH7F0K34Z","","50.400000005960464","img/land2.png","75","51.099999994039536","2","0","1","2","0.8,0.2,0.2,0.2,0.8,0.2,0.2,0.2,0.8","0.2,0.2,0.8,0.8,0.2,0.2,0.2,0.8,0.2","2","",""
"","html-keyboard-response","216","138365","0.0-216.0","3Y5140Z9DY2P932BJQ8EAXQFXXZPIP","A3UMFQFJ8HE82I","382GHPVPHSDM8N0F9141EAH7F0K34Z","","null","<img src=""img/land2.png"" style=""width:200px;border:14px solid red;"">","null","","","","","","","","","",""
"","image-keyboard-response","217","138446","0.0-217.0","3Y5140Z9DY2P932BJQ8EAXQFXXZPIP","A3UMFQFJ8HE82I","382GHPVPHSDM8N0F9141EAH7F0K34Z","","79.39999997615814","img/land1.png","75","80.59999999403954","2","0","2","2","0.8,0.2,0.2,0.2,0.8,0.2,0.2,0.2,0.8","0.2,0.2,0.8,0.8,0.2,0.2,0.2,0.8,0.2","2","",""
"","html-keyboard-response","218","138748","0.0-218.0","3Y5140Z9DY2P932BJQ8EAXQFXXZPIP","A3UMFQFJ8HE82I","382GHPVPHSDM8N0F9141EAH7F0K34Z","","null","<img src=""img/land1.png"" style=""width:200px;border:14px solid red;"">","null","","","","","","","","","",""
"","image-keyboard-response","219","138831","0.0-219.0","3Y5140Z9DY2P932BJQ8EAXQFXXZPIP","A3UMFQFJ8HE82I","382GHPVPHSDM8N0F9141EAH7F0K34Z","","81.59999999403954","img/land1.png","75","82.19999998807907","2","0","2","2","0.8,0.2,0.2,0.2,0.8,0.2,0.2,0.2,0.8","0.2,0.2,0.8,0.8,0.2,0.2,0.2,0.8,0.2","2","",""
"","html-keyboard-response","220","139132","0.0-220.0","3Y5140Z9DY2P932BJQ8EAXQFXXZPIP","A3UMFQFJ8HE82I","382GHPVPHSDM8N0F9141EAH7F0K34Z","","null","<img src=""img/land1.png"" style=""width:200px;border:14px solid red;"">","null","","","","","","","","","",""
"","image-keyboard-response","221","141133","0.0-221.0","3Y5140Z9DY2P932BJQ8EAXQFXXZPIP","A3UMFQFJ8HE82I","382GHPVPHSDM8N0F9141EAH7F0K34Z","","","img/land2.png","","2001.4000000059605","-1","0","1","2","0.8,0.2,0.2,0.2,0.8,0.2,0.2,0.2,0.8","0.2,0.2,0.8,0.8,0.2,0.2,0.2,0.8,0.2","2","",""
"","html-keyboard-response","222","141436","0.0-222.0","3Y5140Z9DY2P932BJQ8EAXQFXXZPIP","A3UMFQFJ8HE82I","382GHPVPHSDM8N0F9141EAH7F0K34Z","","null","<img src=""img/land2.png"" style=""width:200px;border:14px solid red;"">","null","","","","","","","","","",""
"","image-keyboard-response","223","143437","0.0-223.0","3Y5140Z9DY2P932BJQ8EAXQFXXZPIP","A3UMFQFJ8HE82I","382GHPVPHSDM8N0F9141EAH7F0K34Z","","","img/land1.png","","2001.2999999821186","-1","0","2","2","0.8,0.2,0.2,0.2,0.8,0.2,0.2,0.2,0.8","0.2,0.2,0.8,0.8,0.2,0.2,0.2,0.8,0.2","2","",""
"","html-keyboard-response","224","143738","0.0-224.0","3Y5140Z9DY2P932BJQ8EAXQFXXZPIP","A3UMFQFJ8HE82I","382GHPVPHSDM8N0F9141EAH7F0K34Z","","null","<img src=""img/land1.png"" style=""width:200px;border:14px solid red;"">","null","","","","","","","","","",""
"","image-keyboard-response","225","144174","0.0-225.0","3Y5140Z9DY2P932BJQ8EAXQFXXZPIP","A3UMFQFJ8HE82I","382GHPVPHSDM8N0F9141EAH7F0K34Z","","435.09999999403954","img/land2.png","76","435.69999998807907","3","1","1","2","0.8,0.2,0.2,0.2,0.8,0.2,0.2,0.2,0.8","0.2,0.2,0.8,0.8,0.2,0.2,0.2,0.8,0.2","2","",""
"","html-keyboard-response","226","144475","0.0-226.0","3Y5140Z9DY2P932BJQ8EAXQFXXZPIP","A3UMFQFJ8HE82I","382GHPVPHSDM8N0F9141EAH7F0K34Z","","null","<img src=""img/land2.png"" style=""width:200px; border:14px solid green;"">","null","","","","","","","","","",""
"","image-keyboard-response","227","144815","0.0-227.0","3Y5140Z9DY2P932BJQ8EAXQFXXZPIP","A3UMFQFJ8HE82I","382GHPVPHSDM8N0F9141EAH7F0K34Z","","339.09999999403954","img/land2.png","76","339.7999999821186","3","1","1","2","0.8,0.2,0.2,0.2,0.8,0.2,0.2,0.2,0.8","0.2,0.2,0.8,0.8,0.2,0.2,0.2,0.8,0.2","2","",""
"","html-keyboard-response","228","145117","0.0-228.0","3Y5140Z9DY2P932BJQ8EAXQFXXZPIP","A3UMFQFJ8HE82I","382GHPVPHSDM8N0F9141EAH7F0K34Z","","null","<img src=""img/land2.png"" style=""width:200px; border:14px solid green;"">","null","","","","","","","","","",""
"","image-keyboard-response","229","145438","0.0-229.0","3Y5140Z9DY2P932BJQ8EAXQFXXZPIP","A3UMFQFJ8HE82I","382GHPVPHSDM8N0F9141EAH7F0K34Z","","320.59999999403954","img/land2.png","76","321.30000001192093","3","1","1","2","0.8,0.2,0.2,0.2,0.8,0.2,0.2,0.2,0.8","0.2,0.2,0.8,0.8,0.2,0.2,0.2,0.8,0.2","2","",""
"","html-keyboard-response","230","145740","0.0-230.0","3Y5140Z9DY2P932BJQ8EAXQFXXZPIP","A3UMFQFJ8HE82I","382GHPVPHSDM8N0F9141EAH7F0K34Z","","null","<img src=""img/land2.png"" style=""width:200px; border:14px solid green;"">","null","","","","","","","","","",""
"","image-keyboard-response","231","146238","0.0-231.0","3Y5140Z9DY2P932BJQ8EAXQFXXZPIP","A3UMFQFJ8HE82I","382GHPVPHSDM8N0F9141EAH7F0K34Z","","498","img/land4.png","76","498.5","3","1","3","2","0.8,0.2,0.2,0.2,0.8,0.2,0.2,0.2,0.8","0.2,0.2,0.8,0.8,0.2,0.2,0.2,0.8,0.2","2","",""
"","html-keyboard-response","232","146540","0.0-232.0","3Y5140Z9DY2P932BJQ8EAXQFXXZPIP","A3UMFQFJ8HE82I","382GHPVPHSDM8N0F9141EAH7F0K34Z","","null","<img src=""img/land4.png"" style=""width:200px; border:14px solid green;"">","null","","","","","","","","","",""
"","image-keyboard-response","233","146975","0.0-233.0","3Y5140Z9DY2P932BJQ8EAXQFXXZPIP","A3UMFQFJ8HE82I","382GHPVPHSDM8N0F9141EAH7F0K34Z","","434.40000000596046","img/land1.png","76","434.89999997615814","3","1","2","2","0.8,0.2,0.2,0.2,0.8,0.2,0.2,0.2,0.8","0.2,0.2,0.8,0.8,0.2,0.2,0.2,0.8,0.2","2","",""
"","html-keyboard-response","234","147277","0.0-234.0","3Y5140Z9DY2P932BJQ8EAXQFXXZPIP","A3UMFQFJ8HE82I","382GHPVPHSDM8N0F9141EAH7F0K34Z","","null","<img src=""img/land1.png"" style=""width:200px; border:14px solid green;"">","null","","","","","","","","","",""
"","image-keyboard-response","235","147566","0.0-235.0","3Y5140Z9DY2P932BJQ8EAXQFXXZPIP","A3UMFQFJ8HE82I","382GHPVPHSDM8N0F9141EAH7F0K34Z","","288.80000001192093","img/land2.png","76","289.39999997615814","3","1","1","2","0.8,0.2,0.2,0.2,0.8,0.2,0.2,0.2,0.8","0.2,0.2,0.8,0.8,0.2,0.2,0.2,0.8,0.2","2","",""
"","html-keyboard-response","236","147867","0.0-236.0","3Y5140Z9DY2P932BJQ8EAXQFXXZPIP","A3UMFQFJ8HE82I","382GHPVPHSDM8N0F9141EAH7F0K34Z","","null","<img src=""img/land2.png"" style=""width:200px; border:14px solid green;"">","null","","","","","","","","","",""
"","image-keyboard-response","237","148078","0.0-237.0","3Y5140Z9DY2P932BJQ8EAXQFXXZPIP","A3UMFQFJ8HE82I","382GHPVPHSDM8N0F9141EAH7F0K34Z","","210.2000000178814","img/land4.png","76","211","3","0","3","2","0.8,0.2,0.2,0.2,0.8,0.2,0.2,0.2,0.8","0.2,0.2,0.8,0.8,0.2,0.2,0.2,0.8,0.2","2","",""
"","html-keyboard-response","238","148379","0.0-238.0","3Y5140Z9DY2P932BJQ8EAXQFXXZPIP","A3UMFQFJ8HE82I","382GHPVPHSDM8N0F9141EAH7F0K34Z","","null","<img src=""img/land4.png"" style=""width:200px;border:14px solid red;"">","null","","","","","","","","","",""
"","image-keyboard-response","239","148734","0.0-239.0","3Y5140Z9DY2P932BJQ8EAXQFXXZPIP","A3UMFQFJ8HE82I","382GHPVPHSDM8N0F9141EAH7F0K34Z","","353.90000000596046","img/land1.png","75","354.5","2","0","2","2","0.8,0.2,0.2,0.2,0.8,0.2,0.2,0.2,0.8","0.2,0.2,0.8,0.8,0.2,0.2,0.2,0.8,0.2","2","",""
"","html-keyboard-response","240","149036","0.0-240.0","3Y5140Z9DY2P932BJQ8EAXQFXXZPIP","A3UMFQFJ8HE82I","382GHPVPHSDM8N0F9141EAH7F0K34Z","","null","<img src=""img/land1.png"" style=""width:200px;border:14px solid red;"">","null","","","","","","","","","",""
"","image-keyboard-response","241","149182","0.0-241.0","3Y5140Z9DY2P932BJQ8EAXQFXXZPIP","A3UMFQFJ8HE82I","382GHPVPHSDM8N0F9141EAH7F0K34Z","","145.59999999403954","img/land2.png","74","146.2999999821186","1","0","1","2","0.8,0.2,0.2,0.2,0.8,0.2,0.2,0.2,0.8","0.2,0.2,0.8,0.8,0.2,0.2,0.2,0.8,0.2","2","",""
"","html-keyboard-response","242","149484","0.0-242.0","3Y5140Z9DY2P932BJQ8EAXQFXXZPIP","A3UMFQFJ8HE82I","382GHPVPHSDM8N0F9141EAH7F0K34Z","","null","<img src=""img/land2.png"" style=""width:200px;border:14px solid red;"">","null","","","","","","","","","",""
"","image-keyboard-response","243","149950","0.0-243.0","3Y5140Z9DY2P932BJQ8EAXQFXXZPIP","A3UMFQFJ8HE82I","382GHPVPHSDM8N0F9141EAH7F0K34Z","","466","img/land2.png","75","466.69999998807907","2","0","1","2","0.8,0.2,0.2,0.2,0.8,0.2,0.2,0.2,0.8","0.2,0.2,0.8,0.8,0.2,0.2,0.2,0.8,0.2","2","",""
"","html-keyboard-response","244","150253","0.0-244.0","3Y5140Z9DY2P932BJQ8EAXQFXXZPIP","A3UMFQFJ8HE82I","382GHPVPHSDM8N0F9141EAH7F0K34Z","","null","<img src=""img/land2.png"" style=""width:200px;border:14px solid red;"">","null","","","","","","","","","",""
"","image-keyboard-response","245","150590","0.0-245.0","3Y5140Z9DY2P932BJQ8EAXQFXXZPIP","A3UMFQFJ8HE82I","382GHPVPHSDM8N0F9141EAH7F0K34Z","","336.30000001192093","img/land2.png","75","336.89999997615814","2","0","1","2","0.8,0.2,0.2,0.2,0.8,0.2,0.2,0.2,0.8","0.2,0.2,0.8,0.8,0.2,0.2,0.2,0.8,0.2","2","",""
"","html-keyboard-response","246","150892","0.0-246.0","3Y5140Z9DY2P932BJQ8EAXQFXXZPIP","A3UMFQFJ8HE82I","382GHPVPHSDM8N0F9141EAH7F0K34Z","","null","<img src=""img/land2.png"" style=""width:200px;border:14px solid red;"">","null","","","","","","","","","",""
"","image-keyboard-response","247","150958","0.0-247.0","3Y5140Z9DY2P932BJQ8EAXQFXXZPIP","A3UMFQFJ8HE82I","382GHPVPHSDM8N0F9141EAH7F0K34Z","","65.40000000596046","img/land2.png","76","66.09999999403954","3","1","1","2","0.8,0.2,0.2,0.2,0.8,0.2,0.2,0.2,0.8","0.2,0.2,0.8,0.8,0.2,0.2,0.2,0.8,0.2","2","",""
"","html-keyboard-response","248","151259","0.0-248.0","3Y5140Z9DY2P932BJQ8EAXQFXXZPIP","A3UMFQFJ8HE82I","382GHPVPHSDM8N0F9141EAH7F0K34Z","","null","<img src=""img/land2.png"" style=""width:200px; border:14px solid green;"">","null","","","","","","","","","",""
"","image-keyboard-response","249","151567","0.0-249.0","3Y5140Z9DY2P932BJQ8EAXQFXXZPIP","A3UMFQFJ8HE82I","382GHPVPHSDM8N0F9141EAH7F0K34Z","","307.09999999403954","img/land2.png","76","307.80000001192093","3","1","1","2","0.8,0.2,0.2,0.2,0.8,0.2,0.2,0.2,0.8","0.2,0.2,0.8,0.8,0.2,0.2,0.2,0.8,0.2","2","",""
"","html-keyboard-response","250","151869","0.0-250.0","3Y5140Z9DY2P932BJQ8EAXQFXXZPIP","A3UMFQFJ8HE82I","382GHPVPHSDM8N0F9141EAH7F0K34Z","","null","<img src=""img/land2.png"" style=""width:200px; border:14px solid green;"">","null","","","","","","","","","",""
"","image-keyboard-response","251","152062","0.0-251.0","3Y5140Z9DY2P932BJQ8EAXQFXXZPIP","A3UMFQFJ8HE82I","382GHPVPHSDM8N0F9141EAH7F0K34Z","","193","img/land2.png","76","193.69999998807907","3","1","1","2","0.8,0.2,0.2,0.2,0.8,0.2,0.2,0.2,0.8","0.2,0.2,0.8,0.8,0.2,0.2,0.2,0.8,0.2","2","",""
"","html-keyboard-response","252","152365","0.0-252.0","3Y5140Z9DY2P932BJQ8EAXQFXXZPIP","A3UMFQFJ8HE82I","382GHPVPHSDM8N0F9141EAH7F0K34Z","","null","<img src=""img/land2.png"" style=""width:200px; border:14px solid green;"">","null","","","","","","","","","",""
"","image-keyboard-response","253","152558","0.0-253.0","3Y5140Z9DY2P932BJQ8EAXQFXXZPIP","A3UMFQFJ8HE82I","382GHPVPHSDM8N0F9141EAH7F0K34Z","","191.5","img/land2.png","76","192.30000001192093","3","1","1","2","0.8,0.2,0.2,0.2,0.8,0.2,0.2,0.2,0.8","0.2,0.2,0.8,0.8,0.2,0.2,0.2,0.8,0.2","2","",""
"","html-keyboard-response","254","152860","0.0-254.0","3Y5140Z9DY2P932BJQ8EAXQFXXZPIP","A3UMFQFJ8HE82I","382GHPVPHSDM8N0F9141EAH7F0K34Z","","null","<img src=""img/land2.png"" style=""width:200px; border:14px solid green;"">","null","","","","","","","","","",""
"","image-keyboard-response","255","153054","0.0-255.0","3Y5140Z9DY2P932BJQ8EAXQFXXZPIP","A3UMFQFJ8HE82I","382GHPVPHSDM8N0F9141EAH7F0K34Z","","192.7000000178814","img/land2.png","76","193.59999999403954","3","1","1","2","0.8,0.2,0.2,0.2,0.8,0.2,0.2,0.2,0.8","0.2,0.2,0.8,0.8,0.2,0.2,0.2,0.8,0.2","2","",""
"","html-keyboard-response","256","153356","0.0-256.0","3Y5140Z9DY2P932BJQ8EAXQFXXZPIP","A3UMFQFJ8HE82I","382GHPVPHSDM8N0F9141EAH7F0K34Z","","null","<img src=""img/land2.png"" style=""width:200px; border:14px solid green;"">","null","","","","","","","","","",""
"","image-keyboard-response","257","153486","0.0-257.0","3Y5140Z9DY2P932BJQ8EAXQFXXZPIP","A3UMFQFJ8HE82I","382GHPVPHSDM8N0F9141EAH7F0K34Z","","129.40000000596046","img/land2.png","76","130.09999999403954","3","1","1","2","0.8,0.2,0.2,0.2,0.8,0.2,0.2,0.2,0.8","0.2,0.2,0.8,0.8,0.2,0.2,0.2,0.8,0.2","2","",""
"","html-keyboard-response","258","153788","0.0-258.0","3Y5140Z9DY2P932BJQ8EAXQFXXZPIP","A3UMFQFJ8HE82I","382GHPVPHSDM8N0F9141EAH7F0K34Z","","null","<img src=""img/land2.png"" style=""width:200px; border:14px solid green;"">","null","","","","","","","","","",""
"","image-keyboard-response","259","153982","0.0-259.0","3Y5140Z9DY2P932BJQ8EAXQFXXZPIP","A3UMFQFJ8HE82I","382GHPVPHSDM8N0F9141EAH7F0K34Z","","193.40000000596046","img/land4.png","76","194","3","0","3","2","0.8,0.2,0.2,0.2,0.8,0.2,0.2,0.2,0.8","0.2,0.2,0.8,0.8,0.2,0.2,0.2,0.8,0.2","2","",""
"","html-keyboard-response","260","154284","0.0-260.0","3Y5140Z9DY2P932BJQ8EAXQFXXZPIP","A3UMFQFJ8HE82I","382GHPVPHSDM8N0F9141EAH7F0K34Z","","null","<img src=""img/land4.png"" style=""width:200px;border:14px solid red;"">","null","","","","","","","","","",""
"","image-keyboard-response","261","154558","0.0-261.0","3Y5140Z9DY2P932BJQ8EAXQFXXZPIP","A3UMFQFJ8HE82I","382GHPVPHSDM8N0F9141EAH7F0K34Z","","273.2999999821186","img/land4.png","74","274.09999999403954","1","0","3","2","0.8,0.2,0.2,0.2,0.8,0.2,0.2,0.2,0.8","0.2,0.2,0.8,0.8,0.2,0.2,0.2,0.8,0.2","2","",""
"","html-keyboard-response","262","154859","0.0-262.0","3Y5140Z9DY2P932BJQ8EAXQFXXZPIP","A3UMFQFJ8HE82I","382GHPVPHSDM8N0F9141EAH7F0K34Z","","null","<img src=""img/land4.png"" style=""width:200px;border:14px solid red;"">","null","","","","","","","","","",""
"","image-keyboard-response","263","155151","0.0-263.0","3Y5140Z9DY2P932BJQ8EAXQFXXZPIP","A3UMFQFJ8HE82I","382GHPVPHSDM8N0F9141EAH7F0K34Z","","290.5","img/land2.png","75","291.30000001192093","2","0","1","2","0.8,0.2,0.2,0.2,0.8,0.2,0.2,0.2,0.8","0.2,0.2,0.8,0.8,0.2,0.2,0.2,0.8,0.2","2","",""
"","html-keyboard-response","264","155453","0.0-264.0","3Y5140Z9DY2P932BJQ8EAXQFXXZPIP","A3UMFQFJ8HE82I","382GHPVPHSDM8N0F9141EAH7F0K34Z","","null","<img src=""img/land2.png"" style=""width:200px;border:14px solid red;"">","null","","","","","","","","","",""
"","image-keyboard-response","265","155982","0.0-265.0","3Y5140Z9DY2P932BJQ8EAXQFXXZPIP","A3UMFQFJ8HE82I","382GHPVPHSDM8N0F9141EAH7F0K34Z","","528.4000000059605","img/land2.png","74","529.1999999880791","1","0","1","2","0.8,0.2,0.2,0.2,0.8,0.2,0.2,0.2,0.8","0.2,0.2,0.8,0.8,0.2,0.2,0.2,0.8,0.2","2","",""
"","html-keyboard-response","266","156284","0.0-266.0","3Y5140Z9DY2P932BJQ8EAXQFXXZPIP","A3UMFQFJ8HE82I","382GHPVPHSDM8N0F9141EAH7F0K34Z","","null","<img src=""img/land2.png"" style=""width:200px;border:14px solid red;"">","null","","","","","","","","","",""
"","image-keyboard-response","267","158285","0.0-267.0","3Y5140Z9DY2P932BJQ8EAXQFXXZPIP","A3UMFQFJ8HE82I","382GHPVPHSDM8N0F9141EAH7F0K34Z","","","img/land2.png","","2001.0999999940395","-1","0","1","2","0.8,0.2,0.2,0.2,0.8,0.2,0.2,0.2,0.8","0.2,0.2,0.8,0.8,0.2,0.2,0.2,0.8,0.2","2","",""
"","html-keyboard-response","268","158586","0.0-268.0","3Y5140Z9DY2P932BJQ8EAXQFXXZPIP","A3UMFQFJ8HE82I","382GHPVPHSDM8N0F9141EAH7F0K34Z","","null","<img src=""img/land2.png"" style=""width:200px;border:14px solid red;"">","null","","","","","","","","","",""
"","image-keyboard-response","269","160398","0.0-269.0","3Y5140Z9DY2P932BJQ8EAXQFXXZPIP","A3UMFQFJ8HE82I","382GHPVPHSDM8N0F9141EAH7F0K34Z","","1810.699999988079","img/land2.png","75","1811.4000000059605","2","0","1","2","0.8,0.2,0.2,0.2,0.8,0.2,0.2,0.2,0.8","0.2,0.2,0.8,0.8,0.2,0.2,0.2,0.8,0.2","2","",""
"","html-keyboard-response","270","160705","0.0-270.0","3Y5140Z9DY2P932BJQ8EAXQFXXZPIP","A3UMFQFJ8HE82I","382GHPVPHSDM8N0F9141EAH7F0K34Z","","null","<img src=""img/land2.png"" style=""width:200px;border:14px solid red;"">","null","","","","","","","","","",""
"","image-keyboard-response","271","161998","0.0-271.0","3Y5140Z9DY2P932BJQ8EAXQFXXZPIP","A3UMFQFJ8HE82I","382GHPVPHSDM8N0F9141EAH7F0K34Z","","1291.9000000059605","img/land4.png","74","1292.7000000178814","1","0","3","2","0.8,0.2,0.2,0.2,0.8,0.2,0.2,0.2,0.8","0.2,0.2,0.8,0.8,0.2,0.2,0.2,0.8,0.2","2","",""
"","html-keyboard-response","272","162299","0.0-272.0","3Y5140Z9DY2P932BJQ8EAXQFXXZPIP","A3UMFQFJ8HE82I","382GHPVPHSDM8N0F9141EAH7F0K34Z","","null","<img src=""img/land4.png"" style=""width:200px;border:14px solid red;"">","null","","","","","","","","","",""
"","image-keyboard-response","273","162766","0.0-273.0","3Y5140Z9DY2P932BJQ8EAXQFXXZPIP","A3UMFQFJ8HE82I","382GHPVPHSDM8N0F9141EAH7F0K34Z","","466.09999999403954","img/land2.png","76","466.7000000178814","3","1","1","2","0.8,0.2,0.2,0.2,0.8,0.2,0.2,0.2,0.8","0.2,0.2,0.8,0.8,0.2,0.2,0.2,0.8,0.2","2","",""
"","html-keyboard-response","274","163068","0.0-274.0","3Y5140Z9DY2P932BJQ8EAXQFXXZPIP","A3UMFQFJ8HE82I","382GHPVPHSDM8N0F9141EAH7F0K34Z","","null","<img src=""img/land2.png"" style=""width:200px; border:14px solid green;"">","null","","","","","","","","","",""
"","image-keyboard-response","275","165069","0.0-275.0","3Y5140Z9DY2P932BJQ8EAXQFXXZPIP","A3UMFQFJ8HE82I","382GHPVPHSDM8N0F9141EAH7F0K34Z","","","img/land2.png","","2001.4000000059605","-1","0","1","2","0.8,0.2,0.2,0.2,0.8,0.2,0.2,0.2,0.8","0.2,0.2,0.8,0.8,0.2,0.2,0.2,0.8,0.2","2","",""
"","html-keyboard-response","276","165371","0.0-276.0","3Y5140Z9DY2P932BJQ8EAXQFXXZPIP","A3UMFQFJ8HE82I","382GHPVPHSDM8N0F9141EAH7F0K34Z","","null","<img src=""img/land2.png"" style=""width:200px;border:14px solid red;"">","null","","","","","","","","","",""
"","image-keyboard-response","277","165918","0.0-277.0","3Y5140Z9DY2P932BJQ8EAXQFXXZPIP","A3UMFQFJ8HE82I","382GHPVPHSDM8N0F9141EAH7F0K34Z","","545.7999999821186","img/land4.png","75","546.5","2","0","3","2","0.8,0.2,0.2,0.2,0.8,0.2,0.2,0.2,0.8","0.2,0.2,0.8,0.8,0.2,0.2,0.2,0.8,0.2","2","",""
"","html-keyboard-response","278","166219","0.0-278.0","3Y5140Z9DY2P932BJQ8EAXQFXXZPIP","A3UMFQFJ8HE82I","382GHPVPHSDM8N0F9141EAH7F0K34Z","","null","<img src=""img/land4.png"" style=""width:200px;border:14px solid red;"">","null","","","","","","","","","",""
"","image-keyboard-response","279","166670","0.0-279.0","3Y5140Z9DY2P932BJQ8EAXQFXXZPIP","A3UMFQFJ8HE82I","382GHPVPHSDM8N0F9141EAH7F0K34Z","","449.89999997615814","img/land2.png","74","450.59999999403954","1","0","1","2","0.8,0.2,0.2,0.2,0.8,0.2,0.2,0.2,0.8","0.2,0.2,0.8,0.8,0.2,0.2,0.2,0.8,0.2","2","",""
"","html-keyboard-response","280","166972","0.0-280.0","3Y5140Z9DY2P932BJQ8EAXQFXXZPIP","A3UMFQFJ8HE82I","382GHPVPHSDM8N0F9141EAH7F0K34Z","","null","<img src=""img/land2.png"" style=""width:200px;border:14px solid red;"">","null","","","","","","","","","",""
"","image-keyboard-response","281","167278","0.0-281.0","3Y5140Z9DY2P932BJQ8EAXQFXXZPIP","A3UMFQFJ8HE82I","382GHPVPHSDM8N0F9141EAH7F0K34Z","","305.09999999403954","img/land2.png","76","306","3","1","1","2","0.8,0.2,0.2,0.2,0.8,0.2,0.2,0.2,0.8","0.2,0.2,0.8,0.8,0.2,0.2,0.2,0.8,0.2","2","",""
"","html-keyboard-response","282","167579","0.0-282.0","3Y5140Z9DY2P932BJQ8EAXQFXXZPIP","A3UMFQFJ8HE82I","382GHPVPHSDM8N0F9141EAH7F0K34Z","","null","<img src=""img/land2.png"" style=""width:200px; border:14px solid green;"">","null","","","","","","","","","",""
"","image-keyboard-response","283","168654","0.0-283.0","3Y5140Z9DY2P932BJQ8EAXQFXXZPIP","A3UMFQFJ8HE82I","382GHPVPHSDM8N0F9141EAH7F0K34Z","","1074","img/land4.png","76","1074.7000000178814","3","1","3","2","0.8,0.2,0.2,0.2,0.8,0.2,0.2,0.2,0.8","0.2,0.2,0.8,0.8,0.2,0.2,0.2,0.8,0.2","2","",""
"","html-keyboard-response","284","168956","0.0-284.0","3Y5140Z9DY2P932BJQ8EAXQFXXZPIP","A3UMFQFJ8HE82I","382GHPVPHSDM8N0F9141EAH7F0K34Z","","null","<img src=""img/land4.png"" style=""width:200px; border:14px solid green;"">","null","","","","","","","","","",""
"","image-keyboard-response","285","169550","0.0-285.0","3Y5140Z9DY2P932BJQ8EAXQFXXZPIP","A3UMFQFJ8HE82I","382GHPVPHSDM8N0F9141EAH7F0K34Z","","593.3000000119209","img/land2.png","76","594","3","1","1","2","0.8,0.2,0.2,0.2,0.8,0.2,0.2,0.2,0.8","0.2,0.2,0.8,0.8,0.2,0.2,0.2,0.8,0.2","2","",""
"","html-keyboard-response","286","169852","0.0-286.0","3Y5140Z9DY2P932BJQ8EAXQFXXZPIP","A3UMFQFJ8HE82I","382GHPVPHSDM8N0F9141EAH7F0K34Z","","null","<img src=""img/land2.png"" style=""width:200px; border:14px solid green;"">","null","","","","","","","","","",""
"","image-keyboard-response","287","170302","0.0-287.0","3Y5140Z9DY2P932BJQ8EAXQFXXZPIP","A3UMFQFJ8HE82I","382GHPVPHSDM8N0F9141EAH7F0K34Z","","448.19999998807907","img/land4.png","76","449.60000002384186","3","0","3","2","0.8,0.2,0.2,0.2,0.8,0.2,0.2,0.2,0.8","0.2,0.2,0.8,0.8,0.2,0.2,0.2,0.8,0.2","2","",""
"","html-keyboard-response","288","170605","0.0-288.0","3Y5140Z9DY2P932BJQ8EAXQFXXZPIP","A3UMFQFJ8HE82I","382GHPVPHSDM8N0F9141EAH7F0K34Z","","null","<img src=""img/land4.png"" style=""width:200px;border:14px solid red;"">","null","","","","","","","","","",""
"","image-keyboard-response","289","170974","0.0-289.0","3Y5140Z9DY2P932BJQ8EAXQFXXZPIP","A3UMFQFJ8HE82I","382GHPVPHSDM8N0F9141EAH7F0K34Z","","368.09999999403954","img/land2.png","75","368.80000001192093","2","0","1","2","0.8,0.2,0.2,0.2,0.8,0.2,0.2,0.2,0.8","0.2,0.2,0.8,0.8,0.2,0.2,0.2,0.8,0.2","2","",""
"","html-keyboard-response","290","171276","0.0-290.0","3Y5140Z9DY2P932BJQ8EAXQFXXZPIP","A3UMFQFJ8HE82I","382GHPVPHSDM8N0F9141EAH7F0K34Z","","null","<img src=""img/land2.png"" style=""width:200px;border:14px solid red;"">","null","","","","","","","","","",""
"","image-keyboard-response","291","171550","0.0-291.0","3Y5140Z9DY2P932BJQ8EAXQFXXZPIP","A3UMFQFJ8HE82I","382GHPVPHSDM8N0F9141EAH7F0K34Z","","272.69999998807907","img/land2.png","74","273.30000001192093","1","0","1","2","0.8,0.2,0.2,0.2,0.8,0.2,0.2,0.2,0.8","0.2,0.2,0.8,0.8,0.2,0.2,0.2,0.8,0.2","2","",""
"","html-keyboard-response","292","171861","0.0-292.0","3Y5140Z9DY2P932BJQ8EAXQFXXZPIP","A3UMFQFJ8HE82I","382GHPVPHSDM8N0F9141EAH7F0K34Z","","null","<img src=""img/land2.png"" style=""width:200px;border:14px solid red;"">","null","","","","","","","","","",""
"","image-keyboard-response","293","173342","0.0-293.0","3Y5140Z9DY2P932BJQ8EAXQFXXZPIP","A3UMFQFJ8HE82I","382GHPVPHSDM8N0F9141EAH7F0K34Z","","1479.2999999821186","img/land2.png","76","1480.5","3","0","1","2","0.8,0.2,0.2,0.2,0.8,0.2,0.2,0.2,0.8","0.2,0.2,0.8,0.8,0.2,0.2,0.2,0.8,0.2","2","",""
"","html-keyboard-response","294","173643","0.0-294.0","3Y5140Z9DY2P932BJQ8EAXQFXXZPIP","A3UMFQFJ8HE82I","382GHPVPHSDM8N0F9141EAH7F0K34Z","","null","<img src=""img/land2.png"" style=""width:200px;border:14px solid red;"">","null","","","","","","","","","",""
"","image-keyboard-response","295","173902","0.0-295.0","3Y5140Z9DY2P932BJQ8EAXQFXXZPIP","A3UMFQFJ8HE82I","382GHPVPHSDM8N0F9141EAH7F0K34Z","","257.5","img/land2.png","75","258.09999999403954","2","0","1","2","0.8,0.2,0.2,0.2,0.8,0.2,0.2,0.2,0.8","0.2,0.2,0.8,0.8,0.2,0.2,0.2,0.8,0.2","2","",""
"","html-keyboard-response","296","174203","0.0-296.0","3Y5140Z9DY2P932BJQ8EAXQFXXZPIP","A3UMFQFJ8HE82I","382GHPVPHSDM8N0F9141EAH7F0K34Z","","null","<img src=""img/land2.png"" style=""width:200px;border:14px solid red;"">","null","","","","","","","","","",""
"","image-keyboard-response","297","176207","0.0-297.0","3Y5140Z9DY2P932BJQ8EAXQFXXZPIP","A3UMFQFJ8HE82I","382GHPVPHSDM8N0F9141EAH7F0K34Z","","","img/land2.png","","2004.2999999821186","-1","0","1","2","0.8,0.2,0.2,0.2,0.8,0.2,0.2,0.2,0.8","0.2,0.2,0.8,0.8,0.2,0.2,0.2,0.8,0.2","2","",""
"","html-keyboard-response","298","176509","0.0-298.0","3Y5140Z9DY2P932BJQ8EAXQFXXZPIP","A3UMFQFJ8HE82I","382GHPVPHSDM8N0F9141EAH7F0K34Z","","null","<img src=""img/land2.png"" style=""width:200px;border:14px solid red;"">","null","","","","","","","","","",""
"","image-keyboard-response","299","177086","0.0-299.0","3Y5140Z9DY2P932BJQ8EAXQFXXZPIP","A3UMFQFJ8HE82I","382GHPVPHSDM8N0F9141EAH7F0K34Z","","575.8000000119209","img/land1.png","74","576.5","1","1","2","2","0.8,0.2,0.2,0.2,0.8,0.2,0.2,0.2,0.8","0.2,0.2,0.8,0.8,0.2,0.2,0.2,0.8,0.2","2","",""
"","html-keyboard-response","300","177388","0.0-300.0","3Y5140Z9DY2P932BJQ8EAXQFXXZPIP","A3UMFQFJ8HE82I","382GHPVPHSDM8N0F9141EAH7F0K34Z","","null","<img src=""img/land1.png"" style=""width:200px; border:14px solid green;"">","null","","","","","","","","","",""
"","image-keyboard-response","301","178477","0.0-301.0","3Y5140Z9DY2P932BJQ8EAXQFXXZPIP","A3UMFQFJ8HE82I","382GHPVPHSDM8N0F9141EAH7F0K34Z","","1088.5","img/land2.png","74","1089.199999988079","1","0","1","2","0.8,0.2,0.2,0.2,0.8,0.2,0.2,0.2,0.8","0.2,0.2,0.8,0.8,0.2,0.2,0.2,0.8,0.2","2","",""
"","html-keyboard-response","302","178779","0.0-302.0","3Y5140Z9DY2P932BJQ8EAXQFXXZPIP","A3UMFQFJ8HE82I","382GHPVPHSDM8N0F9141EAH7F0K34Z","","null","<img src=""img/land2.png"" style=""width:200px;border:14px solid red;"">","null","","","","","","","","","",""
"","image-keyboard-response","303","179245","0.0-303.0","3Y5140Z9DY2P932BJQ8EAXQFXXZPIP","A3UMFQFJ8HE82I","382GHPVPHSDM8N0F9141EAH7F0K34Z","","465.5","img/land4.png","75","466.09999999403954","2","1","3","2","0.8,0.2,0.2,0.2,0.8,0.2,0.2,0.2,0.8","0.2,0.2,0.8,0.8,0.2,0.2,0.2,0.8,0.2","2","",""
"","html-keyboard-response","304","179546","0.0-304.0","3Y5140Z9DY2P932BJQ8EAXQFXXZPIP","A3UMFQFJ8HE82I","382GHPVPHSDM8N0F9141EAH7F0K34Z","","null","<img src=""img/land4.png"" style=""width:200px; border:14px solid green;"">","null","","","","","","","","","",""
"","image-keyboard-response","305","180285","0.0-305.0","3Y5140Z9DY2P932BJQ8EAXQFXXZPIP","A3UMFQFJ8HE82I","382GHPVPHSDM8N0F9141EAH7F0K34Z","","738.0999999940395","img/land2.png","76","738.6999999880791","3","1","1","2","0.8,0.2,0.2,0.2,0.8,0.2,0.2,0.2,0.8","0.2,0.2,0.8,0.8,0.2,0.2,0.2,0.8,0.2","2","",""
"","html-keyboard-response","306","180587","0.0-306.0","3Y5140Z9DY2P932BJQ8EAXQFXXZPIP","A3UMFQFJ8HE82I","382GHPVPHSDM8N0F9141EAH7F0K34Z","","null","<img src=""img/land2.png"" style=""width:200px; border:14px solid green;"">","null","","","","","","","","","",""
"","image-keyboard-response","307","181421","0.0-307.0","3Y5140Z9DY2P932BJQ8EAXQFXXZPIP","A3UMFQFJ8HE82I","382GHPVPHSDM8N0F9141EAH7F0K34Z","","833.5","img/land1.png","74","834.0999999940395","1","1","2","2","0.8,0.2,0.2,0.2,0.8,0.2,0.2,0.2,0.8","0.2,0.2,0.8,0.8,0.2,0.2,0.2,0.8,0.2","2","",""
"","html-keyboard-response","308","181723","0.0-308.0","3Y5140Z9DY2P932BJQ8EAXQFXXZPIP","A3UMFQFJ8HE82I","382GHPVPHSDM8N0F9141EAH7F0K34Z","","null","<img src=""img/land1.png"" style=""width:200px; border:14px solid green;"">","null","","","","","","","","","",""
"","image-keyboard-response","309","182045","0.0-309.0","3Y5140Z9DY2P932BJQ8EAXQFXXZPIP","A3UMFQFJ8HE82I","382GHPVPHSDM8N0F9141EAH7F0K34Z","","321.5","img/land2.png","75","322.90000000596046","2","0","1","2","0.8,0.2,0.2,0.2,0.8,0.2,0.2,0.2,0.8","0.2,0.2,0.8,0.8,0.2,0.2,0.2,0.8,0.2","2","",""
"","html-keyboard-response","310","182348","0.0-310.0","3Y5140Z9DY2P932BJQ8EAXQFXXZPIP","A3UMFQFJ8HE82I","382GHPVPHSDM8N0F9141EAH7F0K34Z","","null","<img src=""img/land2.png"" style=""width:200px;border:14px solid red;"">","null","","","","","","","","","",""
"","image-keyboard-response","311","182653","0.0-311.0","3Y5140Z9DY2P932BJQ8EAXQFXXZPIP","A3UMFQFJ8HE82I","382GHPVPHSDM8N0F9141EAH7F0K34Z","","304","img/land4.png","76","304.69999998807907","3","0","3","2","0.8,0.2,0.2,0.2,0.8,0.2,0.2,0.2,0.8","0.2,0.2,0.8,0.8,0.2,0.2,0.2,0.8,0.2","2","",""
"","html-keyboard-response","312","182954","0.0-312.0","3Y5140Z9DY2P932BJQ8EAXQFXXZPIP","A3UMFQFJ8HE82I","382GHPVPHSDM8N0F9141EAH7F0K34Z","","null","<img src=""img/land4.png"" style=""width:200px;border:14px solid red;"">","null","","","","","","","","","",""
"","image-keyboard-response","313","183693","0.0-313.0","3Y5140Z9DY2P932BJQ8EAXQFXXZPIP","A3UMFQFJ8HE82I","382GHPVPHSDM8N0F9141EAH7F0K34Z","","737.8999999761581","img/land2.png","76","738.5","3","1","1","2","0.8,0.2,0.2,0.2,0.8,0.2,0.2,0.2,0.8","0.2,0.2,0.8,0.8,0.2,0.2,0.2,0.8,0.2","2","",""
"","html-keyboard-response","314","183994","0.0-314.0","3Y5140Z9DY2P932BJQ8EAXQFXXZPIP","A3UMFQFJ8HE82I","382GHPVPHSDM8N0F9141EAH7F0K34Z","","null","<img src=""img/land2.png"" style=""width:200px; border:14px solid green;"">","null","","","","","","","","","",""
"","image-keyboard-response","315","184445","0.0-315.0","3Y5140Z9DY2P932BJQ8EAXQFXXZPIP","A3UMFQFJ8HE82I","382GHPVPHSDM8N0F9141EAH7F0K34Z","","449.69999998807907","img/land1.png","75","450.5","2","0","2","2","0.8,0.2,0.2,0.2,0.8,0.2,0.2,0.2,0.8","0.2,0.2,0.8,0.8,0.2,0.2,0.2,0.8,0.2","2","",""
"","html-keyboard-response","316","184747","0.0-316.0","3Y5140Z9DY2P932BJQ8EAXQFXXZPIP","A3UMFQFJ8HE82I","382GHPVPHSDM8N0F9141EAH7F0K34Z","","null","<img src=""img/land1.png"" style=""width:200px;border:14px solid red;"">","null","","","","","","","","","",""
"","image-keyboard-response","317","185053","0.0-317.0","3Y5140Z9DY2P932BJQ8EAXQFXXZPIP","A3UMFQFJ8HE82I","382GHPVPHSDM8N0F9141EAH7F0K34Z","","304.90000000596046","img/land2.png","74","305.59999999403954","1","1","1","2","0.8,0.2,0.2,0.2,0.8,0.2,0.2,0.2,0.8","0.2,0.2,0.8,0.8,0.2,0.2,0.2,0.8,0.2","2","",""
"","html-keyboard-response","318","185354","0.0-318.0","3Y5140Z9DY2P932BJQ8EAXQFXXZPIP","A3UMFQFJ8HE82I","382GHPVPHSDM8N0F9141EAH7F0K34Z","","null","<img src=""img/land2.png"" style=""width:200px; border:14px solid green;"">","null","","","","","","","","","",""
"","image-keyboard-response","319","186045","0.0-319.0","3Y5140Z9DY2P932BJQ8EAXQFXXZPIP","A3UMFQFJ8HE82I","382GHPVPHSDM8N0F9141EAH7F0K34Z","","690.1999999880791","img/land4.png","75","691","2","1","3","2","0.8,0.2,0.2,0.2,0.8,0.2,0.2,0.2,0.8","0.2,0.2,0.8,0.8,0.2,0.2,0.2,0.8,0.2","2","",""
"","html-keyboard-response","320","186347","0.0-320.0","3Y5140Z9DY2P932BJQ8EAXQFXXZPIP","A3UMFQFJ8HE82I","382GHPVPHSDM8N0F9141EAH7F0K34Z","","null","<img src=""img/land4.png"" style=""width:200px; border:14px solid green;"">","null","","","","","","","","","",""
"","image-keyboard-response","321","187294","0.0-321.0","3Y5140Z9DY2P932BJQ8EAXQFXXZPIP","A3UMFQFJ8HE82I","382GHPVPHSDM8N0F9141EAH7F0K34Z","","945.9000000059605","img/land2.png","75","946.6000000238419","2","0","1","2","0.8,0.2,0.2,0.2,0.8,0.2,0.2,0.2,0.8","0.2,0.2,0.8,0.8,0.2,0.2,0.2,0.8,0.2","2","",""
"","html-keyboard-response","322","187596","0.0-322.0","3Y5140Z9DY2P932BJQ8EAXQFXXZPIP","A3UMFQFJ8HE82I","382GHPVPHSDM8N0F9141EAH7F0K34Z","","null","<img src=""img/land2.png"" style=""width:200px;border:14px solid red;"">","null","","","","","","","","","",""
"","image-keyboard-response","323","187853","0.0-323.0","3Y5140Z9DY2P932BJQ8EAXQFXXZPIP","A3UMFQFJ8HE82I","382GHPVPHSDM8N0F9141EAH7F0K34Z","","255.7999999821186","img/land1.png","74","256.5","1","1","2","2","0.8,0.2,0.2,0.2,0.8,0.2,0.2,0.2,0.8","0.2,0.2,0.8,0.8,0.2,0.2,0.2,0.8,0.2","2","",""
"","html-keyboard-response","324","188155","0.0-324.0","3Y5140Z9DY2P932BJQ8EAXQFXXZPIP","A3UMFQFJ8HE82I","382GHPVPHSDM8N0F9141EAH7F0K34Z","","null","<img src=""img/land1.png"" style=""width:200px; border:14px solid green;"">","null","","","","","","","","","",""
"","image-keyboard-response","325","188845","0.0-325.0","3Y5140Z9DY2P932BJQ8EAXQFXXZPIP","A3UMFQFJ8HE82I","382GHPVPHSDM8N0F9141EAH7F0K34Z","","689.5999999940395","img/land1.png","74","690.1999999880791","1","1","2","2","0.8,0.2,0.2,0.2,0.8,0.2,0.2,0.2,0.8","0.2,0.2,0.8,0.8,0.2,0.2,0.2,0.8,0.2","2","",""
"","html-keyboard-response","326","189152","0.0-326.0","3Y5140Z9DY2P932BJQ8EAXQFXXZPIP","A3UMFQFJ8HE82I","382GHPVPHSDM8N0F9141EAH7F0K34Z","","null","<img src=""img/land1.png"" style=""width:200px; border:14px solid green;"">","null","","","","","","","","","",""
"","image-keyboard-response","327","189469","0.0-327.0","3Y5140Z9DY2P932BJQ8EAXQFXXZPIP","A3UMFQFJ8HE82I","382GHPVPHSDM8N0F9141EAH7F0K34Z","","315.39999997615814","img/land1.png","74","316.30000001192093","1","1","2","2","0.8,0.2,0.2,0.2,0.8,0.2,0.2,0.2,0.8","0.2,0.2,0.8,0.8,0.2,0.2,0.2,0.8,0.2","2","",""
"","html-keyboard-response","328","189771","0.0-328.0","3Y5140Z9DY2P932BJQ8EAXQFXXZPIP","A3UMFQFJ8HE82I","382GHPVPHSDM8N0F9141EAH7F0K34Z","","null","<img src=""img/land1.png"" style=""width:200px; border:14px solid green;"">","null","","","","","","","","","",""
"","image-keyboard-response","329","190637","0.0-329.0","3Y5140Z9DY2P932BJQ8EAXQFXXZPIP","A3UMFQFJ8HE82I","382GHPVPHSDM8N0F9141EAH7F0K34Z","","865.2999999821186","img/land4.png","75","866","2","1","3","2","0.8,0.2,0.2,0.2,0.8,0.2,0.2,0.2,0.8","0.2,0.2,0.8,0.8,0.2,0.2,0.2,0.8,0.2","2","",""
"","html-keyboard-response","330","190940","0.0-330.0","3Y5140Z9DY2P932BJQ8EAXQFXXZPIP","A3UMFQFJ8HE82I","382GHPVPHSDM8N0F9141EAH7F0K34Z","","null","<img src=""img/land4.png"" style=""width:200px; border:14px solid green;"">","null","","","","","","","","","",""
"","image-keyboard-response","331","191869","0.0-331.0","3Y5140Z9DY2P932BJQ8EAXQFXXZPIP","A3UMFQFJ8HE82I","382GHPVPHSDM8N0F9141EAH7F0K34Z","","928.7999999821186","img/land2.png","76","929.5","3","1","1","2","0.8,0.2,0.2,0.2,0.8,0.2,0.2,0.2,0.8","0.2,0.2,0.8,0.8,0.2,0.2,0.2,0.8,0.2","2","",""
"","html-keyboard-response","332","192172","0.0-332.0","3Y5140Z9DY2P932BJQ8EAXQFXXZPIP","A3UMFQFJ8HE82I","382GHPVPHSDM8N0F9141EAH7F0K34Z","","null","<img src=""img/land2.png"" style=""width:200px; border:14px solid green;"">","null","","","","","","","","","",""
"","image-keyboard-response","333","192685","0.0-333.0","3Y5140Z9DY2P932BJQ8EAXQFXXZPIP","A3UMFQFJ8HE82I","382GHPVPHSDM8N0F9141EAH7F0K34Z","","512.4000000059605","img/land2.png","76","513","3","1","1","2","0.8,0.2,0.2,0.2,0.8,0.2,0.2,0.2,0.8","0.2,0.2,0.8,0.8,0.2,0.2,0.2,0.8,0.2","2","",""
"","html-keyboard-response","334","192987","0.0-334.0","3Y5140Z9DY2P932BJQ8EAXQFXXZPIP","A3UMFQFJ8HE82I","382GHPVPHSDM8N0F9141EAH7F0K34Z","","null","<img src=""img/land2.png"" style=""width:200px; border:14px solid green;"">","null","","","","","","","","","",""
"","image-keyboard-response","335","193437","0.0-335.0","3Y5140Z9DY2P932BJQ8EAXQFXXZPIP","A3UMFQFJ8HE82I","382GHPVPHSDM8N0F9141EAH7F0K34Z","","449.40000000596046","img/land2.png","76","450","3","1","1","2","0.8,0.2,0.2,0.2,0.8,0.2,0.2,0.2,0.8","0.2,0.2,0.8,0.8,0.2,0.2,0.2,0.8,0.2","2","",""
"","html-keyboard-response","336","193739","0.0-336.0","3Y5140Z9DY2P932BJQ8EAXQFXXZPIP","A3UMFQFJ8HE82I","382GHPVPHSDM8N0F9141EAH7F0K34Z","","null","<img src=""img/land2.png"" style=""width:200px; border:14px solid green;"">","null","","","","","","","","","",""
"","image-keyboard-response","337","194925","0.0-337.0","3Y5140Z9DY2P932BJQ8EAXQFXXZPIP","A3UMFQFJ8HE82I","382GHPVPHSDM8N0F9141EAH7F0K34Z","","1185.4000000059605","img/land4.png","74","1186.2000000178814","1","0","3","2","0.8,0.2,0.2,0.2,0.8,0.2,0.2,0.2,0.8","0.2,0.2,0.8,0.8,0.2,0.2,0.2,0.8,0.2","2","",""
"","html-keyboard-response","338","195226","0.0-338.0","3Y5140Z9DY2P932BJQ8EAXQFXXZPIP","A3UMFQFJ8HE82I","382GHPVPHSDM8N0F9141EAH7F0K34Z","","null","<img src=""img/land4.png"" style=""width:200px;border:14px solid red;"">","null","","","","","","","","","",""
"","image-keyboard-response","339","197228","0.0-339.0","3Y5140Z9DY2P932BJQ8EAXQFXXZPIP","A3UMFQFJ8HE82I","382GHPVPHSDM8N0F9141EAH7F0K34Z","","","img/land2.png","","2001.9000000059605","-1","0","1","2","0.8,0.2,0.2,0.2,0.8,0.2,0.2,0.2,0.8","0.2,0.2,0.8,0.8,0.2,0.2,0.2,0.8,0.2","2","",""
"","html-keyboard-response","340","197531","0.0-340.0","3Y5140Z9DY2P932BJQ8EAXQFXXZPIP","A3UMFQFJ8HE82I","382GHPVPHSDM8N0F9141EAH7F0K34Z","","null","<img src=""img/land2.png"" style=""width:200px;border:14px solid red;"">","null","","","","","","","","","",""
"","image-keyboard-response","341","198045","0.0-341.0","3Y5140Z9DY2P932BJQ8EAXQFXXZPIP","A3UMFQFJ8HE82I","382GHPVPHSDM8N0F9141EAH7F0K34Z","","513.0999999940395","img/land2.png","76","514","3","1","1","2","0.8,0.2,0.2,0.2,0.8,0.2,0.2,0.2,0.8","0.2,0.2,0.8,0.8,0.2,0.2,0.2,0.8,0.2","2","",""
"","html-keyboard-response","342","198347","0.0-342.0","3Y5140Z9DY2P932BJQ8EAXQFXXZPIP","A3UMFQFJ8HE82I","382GHPVPHSDM8N0F9141EAH7F0K34Z","","null","<img src=""img/land2.png"" style=""width:200px; border:14px solid green;"">","null","","","","","","","","","",""
"","image-keyboard-response","343","199357","0.0-343.0","3Y5140Z9DY2P932BJQ8EAXQFXXZPIP","A3UMFQFJ8HE82I","382GHPVPHSDM8N0F9141EAH7F0K34Z","","1008.4000000059605","img/land4.png","76","1009.0999999940395","3","0","3","2","0.8,0.2,0.2,0.2,0.8,0.2,0.2,0.2,0.8","0.2,0.2,0.8,0.8,0.2,0.2,0.2,0.8,0.2","2","",""
"","html-keyboard-response","344","199658","0.0-344.0","3Y5140Z9DY2P932BJQ8EAXQFXXZPIP","A3UMFQFJ8HE82I","382GHPVPHSDM8N0F9141EAH7F0K34Z","","null","<img src=""img/land4.png"" style=""width:200px;border:14px solid red;"">","null","","","","","","","","","",""
"","image-keyboard-response","345","199901","0.0-345.0","3Y5140Z9DY2P932BJQ8EAXQFXXZPIP","A3UMFQFJ8HE82I","382GHPVPHSDM8N0F9141EAH7F0K34Z","","242.40000000596046","img/land4.png","75","243.10000002384186","2","1","3","2","0.8,0.2,0.2,0.2,0.8,0.2,0.2,0.2,0.8","0.2,0.2,0.8,0.8,0.2,0.2,0.2,0.8,0.2","2","",""
"","html-keyboard-response","346","200215","0.0-346.0","3Y5140Z9DY2P932BJQ8EAXQFXXZPIP","A3UMFQFJ8HE82I","382GHPVPHSDM8N0F9141EAH7F0K34Z","","null","<img src=""img/land4.png"" style=""width:200px; border:14px solid green;"">","null","","","","","","","","","",""
"","image-keyboard-response","347","200637","0.0-347.0","3Y5140Z9DY2P932BJQ8EAXQFXXZPIP","A3UMFQFJ8HE82I","382GHPVPHSDM8N0F9141EAH7F0K34Z","","421","img/land2.png","75","421.69999998807907","2","0","1","2","0.8,0.2,0.2,0.2,0.8,0.2,0.2,0.2,0.8","0.2,0.2,0.8,0.8,0.2,0.2,0.2,0.8,0.2","2","",""
"","html-keyboard-response","348","200939","0.0-348.0","3Y5140Z9DY2P932BJQ8EAXQFXXZPIP","A3UMFQFJ8HE82I","382GHPVPHSDM8N0F9141EAH7F0K34Z","","null","<img src=""img/land2.png"" style=""width:200px;border:14px solid red;"">","null","","","","","","","","","",""
"","image-keyboard-response","349","201341","0.0-349.0","3Y5140Z9DY2P932BJQ8EAXQFXXZPIP","A3UMFQFJ8HE82I","382GHPVPHSDM8N0F9141EAH7F0K34Z","","401.40000000596046","img/land2.png","74","402","1","0","1","2","0.8,0.2,0.2,0.2,0.8,0.2,0.2,0.2,0.8","0.2,0.2,0.8,0.8,0.2,0.2,0.2,0.8,0.2","2","",""
"","html-keyboard-response","350","201642","0.0-350.0","3Y5140Z9DY2P932BJQ8EAXQFXXZPIP","A3UMFQFJ8HE82I","382GHPVPHSDM8N0F9141EAH7F0K34Z","","null","<img src=""img/land2.png"" style=""width:200px;border:14px solid red;"">","null","","","","","","","","","",""
"","image-keyboard-response","351","203644","0.0-351.0","3Y5140Z9DY2P932BJQ8EAXQFXXZPIP","A3UMFQFJ8HE82I","382GHPVPHSDM8N0F9141EAH7F0K34Z","","","img/land2.png","","2001.5","-1","0","1","2","0.8,0.2,0.2,0.2,0.8,0.2,0.2,0.2,0.8","0.2,0.2,0.8,0.8,0.2,0.2,0.2,0.8,0.2","2","",""
"","html-keyboard-response","352","203946","0.0-352.0","3Y5140Z9DY2P932BJQ8EAXQFXXZPIP","A3UMFQFJ8HE82I","382GHPVPHSDM8N0F9141EAH7F0K34Z","","null","<img src=""img/land2.png"" style=""width:200px;border:14px solid red;"">","null","","","","","","","","","",""
"","image-keyboard-response","353","204637","0.0-353.0","3Y5140Z9DY2P932BJQ8EAXQFXXZPIP","A3UMFQFJ8HE82I","382GHPVPHSDM8N0F9141EAH7F0K34Z","","689.5","img/land1.png","74","690.4000000059605","1","0","2","2","0.8,0.2,0.2,0.2,0.8,0.2,0.2,0.2,0.8","0.2,0.2,0.8,0.8,0.2,0.2,0.2,0.8,0.2","2","",""
"","html-keyboard-response","354","204938","0.0-354.0","3Y5140Z9DY2P932BJQ8EAXQFXXZPIP","A3UMFQFJ8HE82I","382GHPVPHSDM8N0F9141EAH7F0K34Z","","null","<img src=""img/land1.png"" style=""width:200px;border:14px solid red;"">","null","","","","","","","","","",""
"","image-keyboard-response","355","205149","0.0-355.0","3Y5140Z9DY2P932BJQ8EAXQFXXZPIP","A3UMFQFJ8HE82I","382GHPVPHSDM8N0F9141EAH7F0K34Z","","210","img/land2.png","75","210.5","2","0","1","2","0.8,0.2,0.2,0.2,0.8,0.2,0.2,0.2,0.8","0.2,0.2,0.8,0.8,0.2,0.2,0.2,0.8,0.2","2","",""
"","html-keyboard-response","356","205451","0.0-356.0","3Y5140Z9DY2P932BJQ8EAXQFXXZPIP","A3UMFQFJ8HE82I","382GHPVPHSDM8N0F9141EAH7F0K34Z","","null","<img src=""img/land2.png"" style=""width:200px;border:14px solid red;"">","null","","","","","","","","","",""
