"success","trial_type","trial_index","time_elapsed","internal_node_id","assignmentID","mturkID","hitID","view_history","rt","stimulus","key_press","reactionTime","a","r","s","cond","reward_cond","reward_cond_actual","reward_matrix_idx","responses","question_order"
"true","fullscreen","0","6724","0.0-0.0","3JPSL1DZ5TLA0070RN39PAX1K31NAH","A3V2XCDF45VN9X","3UDTAB6HH6LRO17U79I9TKUGYFV09C","","","","","","","","","","","","","",""
"","instructions","1","17156","0.0-1.0","3JPSL1DZ5TLA0070RN39PAX1K31NAH","A3V2XCDF45VN9X","3UDTAB6HH6LRO17U79I9TKUGYFV09C","[{""page_index"":0,""viewing_time"":2285.5},{""page_index"":1,""viewing_time"":961.1000001430511},{""page_index"":2,""viewing_time"":800.3999998569489},{""page_index"":3,""viewing_time"":2146.2000000476837},{""page_index"":4,""viewing_time"":1546.2999999523163},{""page_index"":5,""viewing_time"":1521.1000001430511},{""page_index"":6,""viewing_time"":1169.3999998569489}]","10430.300000190735","","","","","","","","","","","",""
"","image-keyboard-response","2","18430","0.0-2.0","3JPSL1DZ5TLA0070RN39PAX1K31NAH","A3V2XCDF45VN9X","3UDTAB6HH6LRO17U79I9TKUGYFV09C","","1272.3999998569489","img/land5.png","76","1273.5","3","1","1","2","0.8,0.2,0.2,0.2,0.8,0.2,0.2,0.2,0.8","0.2,0.2,0.8,0.8,0.2,0.2,0.2,0.8,0.2","2","",""
"","html-keyboard-response","3","18745","0.0-3.0","3JPSL1DZ5TLA0070RN39PAX1K31NAH","A3V2XCDF45VN9X","3UDTAB6HH6LRO17U79I9TKUGYFV09C","","null","<img src=""img/land5.png"" style=""width:200px; border:14px solid green;"">","null","","","","","","","","","",""
"","image-keyboard-response","4","19153","0.0-4.0","3JPSL1DZ5TLA0070RN39PAX1K31NAH","A3V2XCDF45VN9X","3UDTAB6HH6LRO17U79I9TKUGYFV09C","","405.59999990463257","img/land5.png","76","406.59999990463257","3","0","1","2","0.8,0.2,0.2,0.2,0.8,0.2,0.2,0.2,0.8","0.2,0.2,0.8,0.8,0.2,0.2,0.2,0.8,0.2","2","",""
"","html-keyboard-response","5","19465","0.0-5.0","3JPSL1DZ5TLA0070RN39PAX1K31NAH","A3V2XCDF45VN9X","3UDTAB6HH6LRO17U79I9TKUGYFV09C","","null","<img src=""img/land5.png"" style=""width:200px;border:14px solid red;"">","null","","","","","","","","","",""
"","image-keyboard-response","6","20028","0.0-6.0","3JPSL1DZ5TLA0070RN39PAX1K31NAH","A3V2XCDF45VN9X","3UDTAB6HH6LRO17U79I9TKUGYFV09C","","561.7000000476837","img/land5.png","76","562.2999999523163","3","1","1","2","0.8,0.2,0.2,0.2,0.8,0.2,0.2,0.2,0.8","0.2,0.2,0.8,0.8,0.2,0.2,0.2,0.8,0.2","2","",""
"","html-keyboard-response","7","20332","0.0-7.0","3JPSL1DZ5TLA0070RN39PAX1K31NAH","A3V2XCDF45VN9X","3UDTAB6HH6LRO17U79I9TKUGYFV09C","","null","<img src=""img/land5.png"" style=""width:200px; border:14px solid green;"">","null","","","","","","","","","",""
"","image-keyboard-response","8","20725","0.0-8.0","3JPSL1DZ5TLA0070RN39PAX1K31NAH","A3V2XCDF45VN9X","3UDTAB6HH6LRO17U79I9TKUGYFV09C","","392.5","img/land5.png","76","393.10000014305115","3","1","1","2","0.8,0.2,0.2,0.2,0.8,0.2,0.2,0.2,0.8","0.2,0.2,0.8,0.8,0.2,0.2,0.2,0.8,0.2","2","",""
"","html-keyboard-response","9","21033","0.0-9.0","3JPSL1DZ5TLA0070RN39PAX1K31NAH","A3V2XCDF45VN9X","3UDTAB6HH6LRO17U79I9TKUGYFV09C","","null","<img src=""img/land5.png"" style=""width:200px; border:14px solid green;"">","null","","","","","","","","","",""
"","image-keyboard-response","10","21361","0.0-10.0","3JPSL1DZ5TLA0070RN39PAX1K31NAH","A3V2XCDF45VN9X","3UDTAB6HH6LRO17U79I9TKUGYFV09C","","327.40000009536743","img/land5.png","76","328.10000014305115","3","0","1","2","0.8,0.2,0.2,0.2,0.8,0.2,0.2,0.2,0.8","0.2,0.2,0.8,0.8,0.2,0.2,0.2,0.8,0.2","2","",""
"","html-keyboard-response","11","21671","0.0-11.0","3JPSL1DZ5TLA0070RN39PAX1K31NAH","A3V2XCDF45VN9X","3UDTAB6HH6LRO17U79I9TKUGYFV09C","","null","<img src=""img/land5.png"" style=""width:200px;border:14px solid red;"">","null","","","","","","","","","",""
"","image-keyboard-response","12","22110","0.0-12.0","3JPSL1DZ5TLA0070RN39PAX1K31NAH","A3V2XCDF45VN9X","3UDTAB6HH6LRO17U79I9TKUGYFV09C","","437.40000009536743","img/land5.png","76","438.5","3","1","1","2","0.8,0.2,0.2,0.2,0.8,0.2,0.2,0.2,0.8","0.2,0.2,0.8,0.8,0.2,0.2,0.2,0.8,0.2","2","",""
"","html-keyboard-response","13","22413","0.0-13.0","3JPSL1DZ5TLA0070RN39PAX1K31NAH","A3V2XCDF45VN9X","3UDTAB6HH6LRO17U79I9TKUGYFV09C","","null","<img src=""img/land5.png"" style=""width:200px; border:14px solid green;"">","null","","","","","","","","","",""
"","image-keyboard-response","14","22756","0.0-14.0","3JPSL1DZ5TLA0070RN39PAX1K31NAH","A3V2XCDF45VN9X","3UDTAB6HH6LRO17U79I9TKUGYFV09C","","342.2000000476837","img/land5.png","76","343.2999999523163","3","1","1","2","0.8,0.2,0.2,0.2,0.8,0.2,0.2,0.2,0.8","0.2,0.2,0.8,0.8,0.2,0.2,0.2,0.8,0.2","2","",""
"","html-keyboard-response","15","23062","0.0-15.0","3JPSL1DZ5TLA0070RN39PAX1K31NAH","A3V2XCDF45VN9X","3UDTAB6HH6LRO17U79I9TKUGYFV09C","","null","<img src=""img/land5.png"" style=""width:200px; border:14px solid green;"">","null","","","","","","","","","",""
"","image-keyboard-response","16","23427","0.0-16.0","3JPSL1DZ5TLA0070RN39PAX1K31NAH","A3V2XCDF45VN9X","3UDTAB6HH6LRO17U79I9TKUGYFV09C","","364.5","img/land5.png","76","365.2999999523163","3","1","1","2","0.8,0.2,0.2,0.2,0.8,0.2,0.2,0.2,0.8","0.2,0.2,0.8,0.8,0.2,0.2,0.2,0.8,0.2","2","",""
"","html-keyboard-response","17","23737","0.0-17.0","3JPSL1DZ5TLA0070RN39PAX1K31NAH","A3V2XCDF45VN9X","3UDTAB6HH6LRO17U79I9TKUGYFV09C","","null","<img src=""img/land5.png"" style=""width:200px; border:14px solid green;"">","null","","","","","","","","","",""
"","image-keyboard-response","18","24113","0.0-18.0","3JPSL1DZ5TLA0070RN39PAX1K31NAH","A3V2XCDF45VN9X","3UDTAB6HH6LRO17U79I9TKUGYFV09C","","375.60000014305115","img/land5.png","76","376.39999985694885","3","1","1","2","0.8,0.2,0.2,0.2,0.8,0.2,0.2,0.2,0.8","0.2,0.2,0.8,0.8,0.2,0.2,0.2,0.8,0.2","2","",""
"","html-keyboard-response","19","24425","0.0-19.0","3JPSL1DZ5TLA0070RN39PAX1K31NAH","A3V2XCDF45VN9X","3UDTAB6HH6LRO17U79I9TKUGYFV09C","","null","<img src=""img/land5.png"" style=""width:200px; border:14px solid green;"">","null","","","","","","","","","",""
"","image-keyboard-response","20","25228","0.0-20.0","3JPSL1DZ5TLA0070RN39PAX1K31NAH","A3V2XCDF45VN9X","3UDTAB6HH6LRO17U79I9TKUGYFV09C","","802.5","img/land3.png","74","803.2999999523163","1","1","2","2","0.8,0.2,0.2,0.2,0.8,0.2,0.2,0.2,0.8","0.2,0.2,0.8,0.8,0.2,0.2,0.2,0.8,0.2","2","",""
"","html-keyboard-response","21","25533","0.0-21.0","3JPSL1DZ5TLA0070RN39PAX1K31NAH","A3V2XCDF45VN9X","3UDTAB6HH6LRO17U79I9TKUGYFV09C","","null","<img src=""img/land3.png"" style=""width:200px; border:14px solid green;"">","null","","","","","","","","","",""
"","image-keyboard-response","22","26146","0.0-22.0","3JPSL1DZ5TLA0070RN39PAX1K31NAH","A3V2XCDF45VN9X","3UDTAB6HH6LRO17U79I9TKUGYFV09C","","611.7000000476837","img/land5.png","76","612.6000001430511","3","1","1","2","0.8,0.2,0.2,0.2,0.8,0.2,0.2,0.2,0.8","0.2,0.2,0.8,0.8,0.2,0.2,0.2,0.8,0.2","2","",""
"","html-keyboard-response","23","26452","0.0-23.0","3JPSL1DZ5TLA0070RN39PAX1K31NAH","A3V2XCDF45VN9X","3UDTAB6HH6LRO17U79I9TKUGYFV09C","","null","<img src=""img/land5.png"" style=""width:200px; border:14px solid green;"">","null","","","","","","","","","",""
"","image-keyboard-response","24","26758","0.0-24.0","3JPSL1DZ5TLA0070RN39PAX1K31NAH","A3V2XCDF45VN9X","3UDTAB6HH6LRO17U79I9TKUGYFV09C","","305.80000019073486","img/land5.png","76","306.40000009536743","3","1","1","2","0.8,0.2,0.2,0.2,0.8,0.2,0.2,0.2,0.8","0.2,0.2,0.8,0.8,0.2,0.2,0.2,0.8,0.2","2","",""
"","html-keyboard-response","25","27062","0.0-25.0","3JPSL1DZ5TLA0070RN39PAX1K31NAH","A3V2XCDF45VN9X","3UDTAB6HH6LRO17U79I9TKUGYFV09C","","null","<img src=""img/land5.png"" style=""width:200px; border:14px solid green;"">","null","","","","","","","","","",""
"","image-keyboard-response","26","27383","0.0-26.0","3JPSL1DZ5TLA0070RN39PAX1K31NAH","A3V2XCDF45VN9X","3UDTAB6HH6LRO17U79I9TKUGYFV09C","","319.80000019073486","img/land5.png","76","320.59999990463257","3","1","1","2","0.8,0.2,0.2,0.2,0.8,0.2,0.2,0.2,0.8","0.2,0.2,0.8,0.8,0.2,0.2,0.2,0.8,0.2","2","",""
"","html-keyboard-response","27","27689","0.0-27.0","3JPSL1DZ5TLA0070RN39PAX1K31NAH","A3V2XCDF45VN9X","3UDTAB6HH6LRO17U79I9TKUGYFV09C","","null","<img src=""img/land5.png"" style=""width:200px; border:14px solid green;"">","null","","","","","","","","","",""
"","image-keyboard-response","28","28021","0.0-28.0","3JPSL1DZ5TLA0070RN39PAX1K31NAH","A3V2XCDF45VN9X","3UDTAB6HH6LRO17U79I9TKUGYFV09C","","331.2000000476837","img/land5.png","76","331.7999999523163","3","0","1","2","0.8,0.2,0.2,0.2,0.8,0.2,0.2,0.2,0.8","0.2,0.2,0.8,0.8,0.2,0.2,0.2,0.8,0.2","2","",""
"","html-keyboard-response","29","28325","0.0-29.0","3JPSL1DZ5TLA0070RN39PAX1K31NAH","A3V2XCDF45VN9X","3UDTAB6HH6LRO17U79I9TKUGYFV09C","","null","<img src=""img/land5.png"" style=""width:200px;border:14px solid red;"">","null","","","","","","","","","",""
"","image-keyboard-response","30","28673","0.0-30.0","3JPSL1DZ5TLA0070RN39PAX1K31NAH","A3V2XCDF45VN9X","3UDTAB6HH6LRO17U79I9TKUGYFV09C","","347.2999999523163","img/land5.png","76","347.89999985694885","3","1","1","2","0.8,0.2,0.2,0.2,0.8,0.2,0.2,0.2,0.8","0.2,0.2,0.8,0.8,0.2,0.2,0.2,0.8,0.2","2","",""
"","html-keyboard-response","31","28985","0.0-31.0","3JPSL1DZ5TLA0070RN39PAX1K31NAH","A3V2XCDF45VN9X","3UDTAB6HH6LRO17U79I9TKUGYFV09C","","null","<img src=""img/land5.png"" style=""width:200px; border:14px solid green;"">","null","","","","","","","","","",""
"","image-keyboard-response","32","29321","0.0-32.0","3JPSL1DZ5TLA0070RN39PAX1K31NAH","A3V2XCDF45VN9X","3UDTAB6HH6LRO17U79I9TKUGYFV09C","","335.5","img/land5.png","76","336.09999990463257","3","1","1","2","0.8,0.2,0.2,0.2,0.8,0.2,0.2,0.2,0.8","0.2,0.2,0.8,0.8,0.2,0.2,0.2,0.8,0.2","2","",""
"","html-keyboard-response","33","29634","0.0-33.0","3JPSL1DZ5TLA0070RN39PAX1K31NAH","A3V2XCDF45VN9X","3UDTAB6HH6LRO17U79I9TKUGYFV09C","","null","<img src=""img/land5.png"" style=""width:200px; border:14px solid green;"">","null","","","","","","","","","",""
"","image-keyboard-response","34","29967","0.0-34.0","3JPSL1DZ5TLA0070RN39PAX1K31NAH","A3V2XCDF45VN9X","3UDTAB6HH6LRO17U79I9TKUGYFV09C","","331.7999999523163","img/land5.png","76","332.60000014305115","3","1","1","2","0.8,0.2,0.2,0.2,0.8,0.2,0.2,0.2,0.8","0.2,0.2,0.8,0.8,0.2,0.2,0.2,0.8,0.2","2","",""
"","html-keyboard-response","35","30272","0.0-35.0","3JPSL1DZ5TLA0070RN39PAX1K31NAH","A3V2XCDF45VN9X","3UDTAB6HH6LRO17U79I9TKUGYFV09C","","null","<img src=""img/land5.png"" style=""width:200px; border:14px solid green;"">","null","","","","","","","","","",""
"","image-keyboard-response","36","30890","0.0-36.0","3JPSL1DZ5TLA0070RN39PAX1K31NAH","A3V2XCDF45VN9X","3UDTAB6HH6LRO17U79I9TKUGYFV09C","","617","img/land4.png","75","617.6000001430511","2","1","3","2","0.8,0.2,0.2,0.2,0.8,0.2,0.2,0.2,0.8","0.2,0.2,0.8,0.8,0.2,0.2,0.2,0.8,0.2","2","",""
"","html-keyboard-response","37","31198","0.0-37.0","3JPSL1DZ5TLA0070RN39PAX1K31NAH","A3V2XCDF45VN9X","3UDTAB6HH6LRO17U79I9TKUGYFV09C","","null","<img src=""img/land4.png"" style=""width:200px; border:14px solid green;"">","null","","","","","","","","","",""
"","image-keyboard-response","38","31909","0.0-38.0","3JPSL1DZ5TLA0070RN39PAX1K31NAH","A3V2XCDF45VN9X","3UDTAB6HH6LRO17U79I9TKUGYFV09C","","709.4000000953674","img/land5.png","76","710","3","1","1","2","0.8,0.2,0.2,0.2,0.8,0.2,0.2,0.2,0.8","0.2,0.2,0.8,0.8,0.2,0.2,0.2,0.8,0.2","2","",""
"","html-keyboard-response","39","32213","0.0-39.0","3JPSL1DZ5TLA0070RN39PAX1K31NAH","A3V2XCDF45VN9X","3UDTAB6HH6LRO17U79I9TKUGYFV09C","","null","<img src=""img/land5.png"" style=""width:200px; border:14px solid green;"">","null","","","","","","","","","",""
"","image-keyboard-response","40","32604","0.0-40.0","3JPSL1DZ5TLA0070RN39PAX1K31NAH","A3V2XCDF45VN9X","3UDTAB6HH6LRO17U79I9TKUGYFV09C","","389.89999985694885","img/land5.png","76","390.5","3","1","1","2","0.8,0.2,0.2,0.2,0.8,0.2,0.2,0.2,0.8","0.2,0.2,0.8,0.8,0.2,0.2,0.2,0.8,0.2","2","",""
"","html-keyboard-response","41","32912","0.0-41.0","3JPSL1DZ5TLA0070RN39PAX1K31NAH","A3V2XCDF45VN9X","3UDTAB6HH6LRO17U79I9TKUGYFV09C","","null","<img src=""img/land5.png"" style=""width:200px; border:14px solid green;"">","null","","","","","","","","","",""
"","image-keyboard-response","42","33385","0.0-42.0","3JPSL1DZ5TLA0070RN39PAX1K31NAH","A3V2XCDF45VN9X","3UDTAB6HH6LRO17U79I9TKUGYFV09C","","471.7000000476837","img/land4.png","75","472.39999985694885","2","1","3","2","0.8,0.2,0.2,0.2,0.8,0.2,0.2,0.2,0.8","0.2,0.2,0.8,0.8,0.2,0.2,0.2,0.8,0.2","2","",""
"","html-keyboard-response","43","33692","0.0-43.0","3JPSL1DZ5TLA0070RN39PAX1K31NAH","A3V2XCDF45VN9X","3UDTAB6HH6LRO17U79I9TKUGYFV09C","","null","<img src=""img/land4.png"" style=""width:200px; border:14px solid green;"">","null","","","","","","","","","",""
"","image-keyboard-response","44","34050","0.0-44.0","3JPSL1DZ5TLA0070RN39PAX1K31NAH","A3V2XCDF45VN9X","3UDTAB6HH6LRO17U79I9TKUGYFV09C","","356.2000000476837","img/land4.png","75","356.90000009536743","2","1","3","2","0.8,0.2,0.2,0.2,0.8,0.2,0.2,0.2,0.8","0.2,0.2,0.8,0.8,0.2,0.2,0.2,0.8,0.2","2","",""
"","html-keyboard-response","45","34357","0.0-45.0","3JPSL1DZ5TLA0070RN39PAX1K31NAH","A3V2XCDF45VN9X","3UDTAB6HH6LRO17U79I9TKUGYFV09C","","null","<img src=""img/land4.png"" style=""width:200px; border:14px solid green;"">","null","","","","","","","","","",""
"","image-keyboard-response","46","34874","0.0-46.0","3JPSL1DZ5TLA0070RN39PAX1K31NAH","A3V2XCDF45VN9X","3UDTAB6HH6LRO17U79I9TKUGYFV09C","","515.4000000953674","img/land5.png","76","516.2999999523163","3","1","1","2","0.8,0.2,0.2,0.2,0.8,0.2,0.2,0.2,0.8","0.2,0.2,0.8,0.8,0.2,0.2,0.2,0.8,0.2","2","",""
"","html-keyboard-response","47","35184","0.0-47.0","3JPSL1DZ5TLA0070RN39PAX1K31NAH","A3V2XCDF45VN9X","3UDTAB6HH6LRO17U79I9TKUGYFV09C","","null","<img src=""img/land5.png"" style=""width:200px; border:14px solid green;"">","null","","","","","","","","","",""
"","image-keyboard-response","48","35762","0.0-48.0","3JPSL1DZ5TLA0070RN39PAX1K31NAH","A3V2XCDF45VN9X","3UDTAB6HH6LRO17U79I9TKUGYFV09C","","576.2000000476837","img/land4.png","75","576.7999999523163","2","1","3","2","0.8,0.2,0.2,0.2,0.8,0.2,0.2,0.2,0.8","0.2,0.2,0.8,0.8,0.2,0.2,0.2,0.8,0.2","2","",""
"","html-keyboard-response","49","36063","0.0-49.0","3JPSL1DZ5TLA0070RN39PAX1K31NAH","A3V2XCDF45VN9X","3UDTAB6HH6LRO17U79I9TKUGYFV09C","","null","<img src=""img/land4.png"" style=""width:200px; border:14px solid green;"">","null","","","","","","","","","",""
"","image-keyboard-response","50","36728","0.0-50.0","3JPSL1DZ5TLA0070RN39PAX1K31NAH","A3V2XCDF45VN9X","3UDTAB6HH6LRO17U79I9TKUGYFV09C","","664","img/land3.png","74","664.6000001430511","1","1","2","2","0.8,0.2,0.2,0.2,0.8,0.2,0.2,0.2,0.8","0.2,0.2,0.8,0.8,0.2,0.2,0.2,0.8,0.2","2","",""
"","html-keyboard-response","51","37040","0.0-51.0","3JPSL1DZ5TLA0070RN39PAX1K31NAH","A3V2XCDF45VN9X","3UDTAB6HH6LRO17U79I9TKUGYFV09C","","null","<img src=""img/land3.png"" style=""width:200px; border:14px solid green;"">","null","","","","","","","","","",""
"","image-keyboard-response","52","37419","0.0-52.0","3JPSL1DZ5TLA0070RN39PAX1K31NAH","A3V2XCDF45VN9X","3UDTAB6HH6LRO17U79I9TKUGYFV09C","","377.7000000476837","img/land3.png","74","378.2999999523163","1","0","2","2","0.8,0.2,0.2,0.2,0.8,0.2,0.2,0.2,0.8","0.2,0.2,0.8,0.8,0.2,0.2,0.2,0.8,0.2","2","",""
"","html-keyboard-response","53","37728","0.0-53.0","3JPSL1DZ5TLA0070RN39PAX1K31NAH","A3V2XCDF45VN9X","3UDTAB6HH6LRO17U79I9TKUGYFV09C","","null","<img src=""img/land3.png"" style=""width:200px;border:14px solid red;"">","null","","","","","","","","","",""
"","image-keyboard-response","54","38719","0.0-54.0","3JPSL1DZ5TLA0070RN39PAX1K31NAH","A3V2XCDF45VN9X","3UDTAB6HH6LRO17U79I9TKUGYFV09C","","989.5","img/land4.png","75","990.2000000476837","2","1","3","2","0.8,0.2,0.2,0.2,0.8,0.2,0.2,0.2,0.8","0.2,0.2,0.8,0.8,0.2,0.2,0.2,0.8,0.2","2","",""
"","html-keyboard-response","55","39024","0.0-55.0","3JPSL1DZ5TLA0070RN39PAX1K31NAH","A3V2XCDF45VN9X","3UDTAB6HH6LRO17U79I9TKUGYFV09C","","null","<img src=""img/land4.png"" style=""width:200px; border:14px solid green;"">","null","","","","","","","","","",""
"","image-keyboard-response","56","39643","0.0-56.0","3JPSL1DZ5TLA0070RN39PAX1K31NAH","A3V2XCDF45VN9X","3UDTAB6HH6LRO17U79I9TKUGYFV09C","","617.8999998569489","img/land3.png","74","618.7000000476837","1","1","2","2","0.8,0.2,0.2,0.2,0.8,0.2,0.2,0.2,0.8","0.2,0.2,0.8,0.8,0.2,0.2,0.2,0.8,0.2","2","",""
"","html-keyboard-response","57","39952","0.0-57.0","3JPSL1DZ5TLA0070RN39PAX1K31NAH","A3V2XCDF45VN9X","3UDTAB6HH6LRO17U79I9TKUGYFV09C","","null","<img src=""img/land3.png"" style=""width:200px; border:14px solid green;"">","null","","","","","","","","","",""
"","image-keyboard-response","58","40624","0.0-58.0","3JPSL1DZ5TLA0070RN39PAX1K31NAH","A3V2XCDF45VN9X","3UDTAB6HH6LRO17U79I9TKUGYFV09C","","671.5","img/land5.png","76","672.2000000476837","3","1","1","2","0.8,0.2,0.2,0.2,0.8,0.2,0.2,0.2,0.8","0.2,0.2,0.8,0.8,0.2,0.2,0.2,0.8,0.2","2","",""
"","html-keyboard-response","59","40934","0.0-59.0","3JPSL1DZ5TLA0070RN39PAX1K31NAH","A3V2XCDF45VN9X","3UDTAB6HH6LRO17U79I9TKUGYFV09C","","null","<img src=""img/land5.png"" style=""width:200px; border:14px solid green;"">","null","","","","","","","","","",""
"","image-keyboard-response","60","41370","0.0-60.0","3JPSL1DZ5TLA0070RN39PAX1K31NAH","A3V2XCDF45VN9X","3UDTAB6HH6LRO17U79I9TKUGYFV09C","","434.90000009536743","img/land5.png","76","435.60000014305115","3","1","1","2","0.8,0.2,0.2,0.2,0.8,0.2,0.2,0.2,0.8","0.2,0.2,0.8,0.8,0.2,0.2,0.2,0.8,0.2","2","",""
"","html-keyboard-response","61","41680","0.0-61.0","3JPSL1DZ5TLA0070RN39PAX1K31NAH","A3V2XCDF45VN9X","3UDTAB6HH6LRO17U79I9TKUGYFV09C","","null","<img src=""img/land5.png"" style=""width:200px; border:14px solid green;"">","null","","","","","","","","","",""
"","image-keyboard-response","62","42365","0.0-62.0","3JPSL1DZ5TLA0070RN39PAX1K31NAH","A3V2XCDF45VN9X","3UDTAB6HH6LRO17U79I9TKUGYFV09C","","684.5","img/land3.png","74","685.2999999523163","1","1","2","2","0.8,0.2,0.2,0.2,0.8,0.2,0.2,0.2,0.8","0.2,0.2,0.8,0.8,0.2,0.2,0.2,0.8,0.2","2","",""
"","html-keyboard-response","63","42672","0.0-63.0","3JPSL1DZ5TLA0070RN39PAX1K31NAH","A3V2XCDF45VN9X","3UDTAB6HH6LRO17U79I9TKUGYFV09C","","null","<img src=""img/land3.png"" style=""width:200px; border:14px solid green;"">","null","","","","","","","","","",""
"","image-keyboard-response","64","43287","0.0-64.0","3JPSL1DZ5TLA0070RN39PAX1K31NAH","A3V2XCDF45VN9X","3UDTAB6HH6LRO17U79I9TKUGYFV09C","","613.5999999046326","img/land5.png","76","614.3999998569489","3","1","1","2","0.8,0.2,0.2,0.2,0.8,0.2,0.2,0.2,0.8","0.2,0.2,0.8,0.8,0.2,0.2,0.2,0.8,0.2","2","",""
"","html-keyboard-response","65","43600","0.0-65.0","3JPSL1DZ5TLA0070RN39PAX1K31NAH","A3V2XCDF45VN9X","3UDTAB6HH6LRO17U79I9TKUGYFV09C","","null","<img src=""img/land5.png"" style=""width:200px; border:14px solid green;"">","null","","","","","","","","","",""
"","image-keyboard-response","66","43961","0.0-66.0","3JPSL1DZ5TLA0070RN39PAX1K31NAH","A3V2XCDF45VN9X","3UDTAB6HH6LRO17U79I9TKUGYFV09C","","360","img/land5.png","76","360.90000009536743","3","1","1","2","0.8,0.2,0.2,0.2,0.8,0.2,0.2,0.2,0.8","0.2,0.2,0.8,0.8,0.2,0.2,0.2,0.8,0.2","2","",""
"","html-keyboard-response","67","44272","0.0-67.0","3JPSL1DZ5TLA0070RN39PAX1K31NAH","A3V2XCDF45VN9X","3UDTAB6HH6LRO17U79I9TKUGYFV09C","","null","<img src=""img/land5.png"" style=""width:200px; border:14px solid green;"">","null","","","","","","","","","",""
"","image-keyboard-response","68","44940","0.0-68.0","3JPSL1DZ5TLA0070RN39PAX1K31NAH","A3V2XCDF45VN9X","3UDTAB6HH6LRO17U79I9TKUGYFV09C","","666.7000000476837","img/land3.png","74","667.3999998569489","1","1","2","2","0.8,0.2,0.2,0.2,0.8,0.2,0.2,0.2,0.8","0.2,0.2,0.8,0.8,0.2,0.2,0.2,0.8,0.2","2","",""
"","html-keyboard-response","69","45248","0.0-69.0","3JPSL1DZ5TLA0070RN39PAX1K31NAH","A3V2XCDF45VN9X","3UDTAB6HH6LRO17U79I9TKUGYFV09C","","null","<img src=""img/land3.png"" style=""width:200px; border:14px solid green;"">","null","","","","","","","","","",""
"","image-keyboard-response","70","45875","0.0-70.0","3JPSL1DZ5TLA0070RN39PAX1K31NAH","A3V2XCDF45VN9X","3UDTAB6HH6LRO17U79I9TKUGYFV09C","","625.7000000476837","img/land5.png","76","626.5","3","0","1","2","0.8,0.2,0.2,0.2,0.8,0.2,0.2,0.2,0.8","0.2,0.2,0.8,0.8,0.2,0.2,0.2,0.8,0.2","2","",""
"","html-keyboard-response","71","46181","0.0-71.0","3JPSL1DZ5TLA0070RN39PAX1K31NAH","A3V2XCDF45VN9X","3UDTAB6HH6LRO17U79I9TKUGYFV09C","","null","<img src=""img/land5.png"" style=""width:200px;border:14px solid red;"">","null","","","","","","","","","",""
"","image-keyboard-response","72","46675","0.0-72.0","3JPSL1DZ5TLA0070RN39PAX1K31NAH","A3V2XCDF45VN9X","3UDTAB6HH6LRO17U79I9TKUGYFV09C","","493.09999990463257","img/land3.png","76","493.7000000476837","3","0","2","2","0.8,0.2,0.2,0.2,0.8,0.2,0.2,0.2,0.8","0.2,0.2,0.8,0.8,0.2,0.2,0.2,0.8,0.2","2","",""
"","html-keyboard-response","73","46981","0.0-73.0","3JPSL1DZ5TLA0070RN39PAX1K31NAH","A3V2XCDF45VN9X","3UDTAB6HH6LRO17U79I9TKUGYFV09C","","null","<img src=""img/land3.png"" style=""width:200px;border:14px solid red;"">","null","","","","","","","","","",""
"","image-keyboard-response","74","47664","0.0-74.0","3JPSL1DZ5TLA0070RN39PAX1K31NAH","A3V2XCDF45VN9X","3UDTAB6HH6LRO17U79I9TKUGYFV09C","","681.8000001907349","img/land4.png","75","682.5999999046326","2","1","3","2","0.8,0.2,0.2,0.2,0.8,0.2,0.2,0.2,0.8","0.2,0.2,0.8,0.8,0.2,0.2,0.2,0.8,0.2","2","",""
"","html-keyboard-response","75","47972","0.0-75.0","3JPSL1DZ5TLA0070RN39PAX1K31NAH","A3V2XCDF45VN9X","3UDTAB6HH6LRO17U79I9TKUGYFV09C","","null","<img src=""img/land4.png"" style=""width:200px; border:14px solid green;"">","null","","","","","","","","","",""
"","image-keyboard-response","76","48654","0.0-76.0","3JPSL1DZ5TLA0070RN39PAX1K31NAH","A3V2XCDF45VN9X","3UDTAB6HH6LRO17U79I9TKUGYFV09C","","680.5","img/land5.png","76","681.4000000953674","3","1","1","2","0.8,0.2,0.2,0.2,0.8,0.2,0.2,0.2,0.8","0.2,0.2,0.8,0.8,0.2,0.2,0.2,0.8,0.2","2","",""
"","html-keyboard-response","77","49079","0.0-77.0","3JPSL1DZ5TLA0070RN39PAX1K31NAH","A3V2XCDF45VN9X","3UDTAB6HH6LRO17U79I9TKUGYFV09C","","null","<img src=""img/land5.png"" style=""width:200px; border:14px solid green;"">","null","","","","","","","","","",""
"","image-keyboard-response","78","49848","0.0-78.0","3JPSL1DZ5TLA0070RN39PAX1K31NAH","A3V2XCDF45VN9X","3UDTAB6HH6LRO17U79I9TKUGYFV09C","","767.8000001907349","img/land3.png","74","768.5999999046326","1","1","2","2","0.8,0.2,0.2,0.2,0.8,0.2,0.2,0.2,0.8","0.2,0.2,0.8,0.8,0.2,0.2,0.2,0.8,0.2","2","",""
"","html-keyboard-response","79","50157","0.0-79.0","3JPSL1DZ5TLA0070RN39PAX1K31NAH","A3V2XCDF45VN9X","3UDTAB6HH6LRO17U79I9TKUGYFV09C","","null","<img src=""img/land3.png"" style=""width:200px; border:14px solid green;"">","null","","","","","","","","","",""
"","image-keyboard-response","80","50706","0.0-80.0","3JPSL1DZ5TLA0070RN39PAX1K31NAH","A3V2XCDF45VN9X","3UDTAB6HH6LRO17U79I9TKUGYFV09C","","548.6000001430511","img/land5.png","76","549.1000001430511","3","0","1","2","0.8,0.2,0.2,0.2,0.8,0.2,0.2,0.2,0.8","0.2,0.2,0.8,0.8,0.2,0.2,0.2,0.8,0.2","2","",""
"","html-keyboard-response","81","51013","0.0-81.0","3JPSL1DZ5TLA0070RN39PAX1K31NAH","A3V2XCDF45VN9X","3UDTAB6HH6LRO17U79I9TKUGYFV09C","","null","<img src=""img/land5.png"" style=""width:200px;border:14px solid red;"">","null","","","","","","","","","",""
"","image-keyboard-response","82","51524","0.0-82.0","3JPSL1DZ5TLA0070RN39PAX1K31NAH","A3V2XCDF45VN9X","3UDTAB6HH6LRO17U79I9TKUGYFV09C","","509.5","img/land5.png","76","510.2999999523163","3","1","1","2","0.8,0.2,0.2,0.2,0.8,0.2,0.2,0.2,0.8","0.2,0.2,0.8,0.8,0.2,0.2,0.2,0.8,0.2","2","",""
"","html-keyboard-response","83","51829","0.0-83.0","3JPSL1DZ5TLA0070RN39PAX1K31NAH","A3V2XCDF45VN9X","3UDTAB6HH6LRO17U79I9TKUGYFV09C","","null","<img src=""img/land5.png"" style=""width:200px; border:14px solid green;"">","null","","","","","","","","","",""
"","image-keyboard-response","84","52545","0.0-84.0","3JPSL1DZ5TLA0070RN39PAX1K31NAH","A3V2XCDF45VN9X","3UDTAB6HH6LRO17U79I9TKUGYFV09C","","714.5","img/land3.png","74","715.4000000953674","1","1","2","2","0.8,0.2,0.2,0.2,0.8,0.2,0.2,0.2,0.8","0.2,0.2,0.8,0.8,0.2,0.2,0.2,0.8,0.2","2","",""
"","html-keyboard-response","85","52853","0.0-85.0","3JPSL1DZ5TLA0070RN39PAX1K31NAH","A3V2XCDF45VN9X","3UDTAB6HH6LRO17U79I9TKUGYFV09C","","null","<img src=""img/land3.png"" style=""width:200px; border:14px solid green;"">","null","","","","","","","","","",""
"","image-keyboard-response","86","53424","0.0-86.0","3JPSL1DZ5TLA0070RN39PAX1K31NAH","A3V2XCDF45VN9X","3UDTAB6HH6LRO17U79I9TKUGYFV09C","","569.7999999523163","img/land5.png","76","570.6000001430511","3","1","1","2","0.8,0.2,0.2,0.2,0.8,0.2,0.2,0.2,0.8","0.2,0.2,0.8,0.8,0.2,0.2,0.2,0.8,0.2","2","",""
"","html-keyboard-response","87","53733","0.0-87.0","3JPSL1DZ5TLA0070RN39PAX1K31NAH","A3V2XCDF45VN9X","3UDTAB6HH6LRO17U79I9TKUGYFV09C","","null","<img src=""img/land5.png"" style=""width:200px; border:14px solid green;"">","null","","","","","","","","","",""
"","image-keyboard-response","88","54145","0.0-88.0","3JPSL1DZ5TLA0070RN39PAX1K31NAH","A3V2XCDF45VN9X","3UDTAB6HH6LRO17U79I9TKUGYFV09C","","410","img/land5.png","76","410.80000019073486","3","1","1","2","0.8,0.2,0.2,0.2,0.8,0.2,0.2,0.2,0.8","0.2,0.2,0.8,0.8,0.2,0.2,0.2,0.8,0.2","2","",""
"","html-keyboard-response","89","54450","0.0-89.0","3JPSL1DZ5TLA0070RN39PAX1K31NAH","A3V2XCDF45VN9X","3UDTAB6HH6LRO17U79I9TKUGYFV09C","","null","<img src=""img/land5.png"" style=""width:200px; border:14px solid green;"">","null","","","","","","","","","",""
"","image-keyboard-response","90","54827","0.0-90.0","3JPSL1DZ5TLA0070RN39PAX1K31NAH","A3V2XCDF45VN9X","3UDTAB6HH6LRO17U79I9TKUGYFV09C","","376.30000019073486","img/land5.png","76","377.10000014305115","3","0","1","2","0.8,0.2,0.2,0.2,0.8,0.2,0.2,0.2,0.8","0.2,0.2,0.8,0.8,0.2,0.2,0.2,0.8,0.2","2","",""
"","html-keyboard-response","91","55131","0.0-91.0","3JPSL1DZ5TLA0070RN39PAX1K31NAH","A3V2XCDF45VN9X","3UDTAB6HH6LRO17U79I9TKUGYFV09C","","null","<img src=""img/land5.png"" style=""width:200px;border:14px solid red;"">","null","","","","","","","","","",""
"","image-keyboard-response","92","55604","0.0-92.0","3JPSL1DZ5TLA0070RN39PAX1K31NAH","A3V2XCDF45VN9X","3UDTAB6HH6LRO17U79I9TKUGYFV09C","","472.2999999523163","img/land5.png","76","473.2000000476837","3","1","1","2","0.8,0.2,0.2,0.2,0.8,0.2,0.2,0.2,0.8","0.2,0.2,0.8,0.8,0.2,0.2,0.2,0.8,0.2","2","",""
"","html-keyboard-response","93","55915","0.0-93.0","3JPSL1DZ5TLA0070RN39PAX1K31NAH","A3V2XCDF45VN9X","3UDTAB6HH6LRO17U79I9TKUGYFV09C","","null","<img src=""img/land5.png"" style=""width:200px; border:14px solid green;"">","null","","","","","","","","","",""
"","image-keyboard-response","94","56331","0.0-94.0","3JPSL1DZ5TLA0070RN39PAX1K31NAH","A3V2XCDF45VN9X","3UDTAB6HH6LRO17U79I9TKUGYFV09C","","415.10000014305115","img/land5.png","76","416.09999990463257","3","1","1","2","0.8,0.2,0.2,0.2,0.8,0.2,0.2,0.2,0.8","0.2,0.2,0.8,0.8,0.2,0.2,0.2,0.8,0.2","2","",""
"","html-keyboard-response","95","56634","0.0-95.0","3JPSL1DZ5TLA0070RN39PAX1K31NAH","A3V2XCDF45VN9X","3UDTAB6HH6LRO17U79I9TKUGYFV09C","","null","<img src=""img/land5.png"" style=""width:200px; border:14px solid green;"">","null","","","","","","","","","",""
"","image-keyboard-response","96","57008","0.0-96.0","3JPSL1DZ5TLA0070RN39PAX1K31NAH","A3V2XCDF45VN9X","3UDTAB6HH6LRO17U79I9TKUGYFV09C","","373.69999980926514","img/land5.png","76","374.2000000476837","3","1","1","2","0.8,0.2,0.2,0.2,0.8,0.2,0.2,0.2,0.8","0.2,0.2,0.8,0.8,0.2,0.2,0.2,0.8,0.2","2","",""
"","html-keyboard-response","97","57316","0.0-97.0","3JPSL1DZ5TLA0070RN39PAX1K31NAH","A3V2XCDF45VN9X","3UDTAB6HH6LRO17U79I9TKUGYFV09C","","null","<img src=""img/land5.png"" style=""width:200px; border:14px solid green;"">","null","","","","","","","","","",""
"","image-keyboard-response","98","57953","0.0-98.0","3JPSL1DZ5TLA0070RN39PAX1K31NAH","A3V2XCDF45VN9X","3UDTAB6HH6LRO17U79I9TKUGYFV09C","","635.5","img/land4.png","75","636.2000000476837","2","1","3","2","0.8,0.2,0.2,0.2,0.8,0.2,0.2,0.2,0.8","0.2,0.2,0.8,0.8,0.2,0.2,0.2,0.8,0.2","2","",""
"","html-keyboard-response","99","58261","0.0-99.0","3JPSL1DZ5TLA0070RN39PAX1K31NAH","A3V2XCDF45VN9X","3UDTAB6HH6LRO17U79I9TKUGYFV09C","","null","<img src=""img/land4.png"" style=""width:200px; border:14px solid green;"">","null","","","","","","","","","",""
"","image-keyboard-response","100","58891","0.0-100.0","3JPSL1DZ5TLA0070RN39PAX1K31NAH","A3V2XCDF45VN9X","3UDTAB6HH6LRO17U79I9TKUGYFV09C","","629.6000001430511","img/land5.png","76","630.2000000476837","3","1","1","2","0.8,0.2,0.2,0.2,0.8,0.2,0.2,0.2,0.8","0.2,0.2,0.8,0.8,0.2,0.2,0.2,0.8,0.2","2","",""
"","html-keyboard-response","101","59196","0.0-101.0","3JPSL1DZ5TLA0070RN39PAX1K31NAH","A3V2XCDF45VN9X","3UDTAB6HH6LRO17U79I9TKUGYFV09C","","null","<img src=""img/land5.png"" style=""width:200px; border:14px solid green;"">","null","","","","","","","","","",""
"","image-keyboard-response","102","59560","0.0-102.0","3JPSL1DZ5TLA0070RN39PAX1K31NAH","A3V2XCDF45VN9X","3UDTAB6HH6LRO17U79I9TKUGYFV09C","","362.90000009536743","img/land5.png","76","363.5","3","1","1","2","0.8,0.2,0.2,0.2,0.8,0.2,0.2,0.2,0.8","0.2,0.2,0.8,0.8,0.2,0.2,0.2,0.8,0.2","2","",""
"","html-keyboard-response","103","59867","0.0-103.0","3JPSL1DZ5TLA0070RN39PAX1K31NAH","A3V2XCDF45VN9X","3UDTAB6HH6LRO17U79I9TKUGYFV09C","","null","<img src=""img/land5.png"" style=""width:200px; border:14px solid green;"">","null","","","","","","","","","",""
"","image-keyboard-response","104","60317","0.0-104.0","3JPSL1DZ5TLA0070RN39PAX1K31NAH","A3V2XCDF45VN9X","3UDTAB6HH6LRO17U79I9TKUGYFV09C","","448.5","img/land5.png","76","449.2000000476837","3","0","1","2","0.8,0.2,0.2,0.2,0.8,0.2,0.2,0.2,0.8","0.2,0.2,0.8,0.8,0.2,0.2,0.2,0.8,0.2","2","",""
"","html-keyboard-response","105","60630","0.0-105.0","3JPSL1DZ5TLA0070RN39PAX1K31NAH","A3V2XCDF45VN9X","3UDTAB6HH6LRO17U79I9TKUGYFV09C","","null","<img src=""img/land5.png"" style=""width:200px;border:14px solid red;"">","null","","","","","","","","","",""
"","image-keyboard-response","106","61234","0.0-106.0","3JPSL1DZ5TLA0070RN39PAX1K31NAH","A3V2XCDF45VN9X","3UDTAB6HH6LRO17U79I9TKUGYFV09C","","603.4000000953674","img/land4.png","75","603.9000000953674","2","1","3","2","0.8,0.2,0.2,0.2,0.8,0.2,0.2,0.2,0.8","0.2,0.2,0.8,0.8,0.2,0.2,0.2,0.8,0.2","2","",""
"","html-keyboard-response","107","61542","0.0-107.0","3JPSL1DZ5TLA0070RN39PAX1K31NAH","A3V2XCDF45VN9X","3UDTAB6HH6LRO17U79I9TKUGYFV09C","","null","<img src=""img/land4.png"" style=""width:200px; border:14px solid green;"">","null","","","","","","","","","",""
"","image-keyboard-response","108","61979","0.0-108.0","3JPSL1DZ5TLA0070RN39PAX1K31NAH","A3V2XCDF45VN9X","3UDTAB6HH6LRO17U79I9TKUGYFV09C","","436","img/land4.png","75","436.89999985694885","2","1","3","2","0.8,0.2,0.2,0.2,0.8,0.2,0.2,0.2,0.8","0.2,0.2,0.8,0.8,0.2,0.2,0.2,0.8,0.2","2","",""
"","html-keyboard-response","109","62283","0.0-109.0","3JPSL1DZ5TLA0070RN39PAX1K31NAH","A3V2XCDF45VN9X","3UDTAB6HH6LRO17U79I9TKUGYFV09C","","null","<img src=""img/land4.png"" style=""width:200px; border:14px solid green;"">","null","","","","","","","","","",""
"","image-keyboard-response","110","62768","0.0-110.0","3JPSL1DZ5TLA0070RN39PAX1K31NAH","A3V2XCDF45VN9X","3UDTAB6HH6LRO17U79I9TKUGYFV09C","","483.2000000476837","img/land4.png","75","483.90000009536743","2","1","3","2","0.8,0.2,0.2,0.2,0.8,0.2,0.2,0.2,0.8","0.2,0.2,0.8,0.8,0.2,0.2,0.2,0.8,0.2","2","",""
"","html-keyboard-response","111","63077","0.0-111.0","3JPSL1DZ5TLA0070RN39PAX1K31NAH","A3V2XCDF45VN9X","3UDTAB6HH6LRO17U79I9TKUGYFV09C","","null","<img src=""img/land4.png"" style=""width:200px; border:14px solid green;"">","null","","","","","","","","","",""
"","image-keyboard-response","112","63623","0.0-112.0","3JPSL1DZ5TLA0070RN39PAX1K31NAH","A3V2XCDF45VN9X","3UDTAB6HH6LRO17U79I9TKUGYFV09C","","545","img/land5.png","76","545.7999999523163","3","1","1","2","0.8,0.2,0.2,0.2,0.8,0.2,0.2,0.2,0.8","0.2,0.2,0.8,0.8,0.2,0.2,0.2,0.8,0.2","2","",""
"","html-keyboard-response","113","63932","0.0-113.0","3JPSL1DZ5TLA0070RN39PAX1K31NAH","A3V2XCDF45VN9X","3UDTAB6HH6LRO17U79I9TKUGYFV09C","","null","<img src=""img/land5.png"" style=""width:200px; border:14px solid green;"">","null","","","","","","","","","",""
"","image-keyboard-response","114","64273","0.0-114.0","3JPSL1DZ5TLA0070RN39PAX1K31NAH","A3V2XCDF45VN9X","3UDTAB6HH6LRO17U79I9TKUGYFV09C","","340.5","img/land5.png","76","341.19999980926514","3","1","1","2","0.8,0.2,0.2,0.2,0.8,0.2,0.2,0.2,0.8","0.2,0.2,0.8,0.8,0.2,0.2,0.2,0.8,0.2","2","",""
"","html-keyboard-response","115","64582","0.0-115.0","3JPSL1DZ5TLA0070RN39PAX1K31NAH","A3V2XCDF45VN9X","3UDTAB6HH6LRO17U79I9TKUGYFV09C","","null","<img src=""img/land5.png"" style=""width:200px; border:14px solid green;"">","null","","","","","","","","","",""
"","image-keyboard-response","116","65238","0.0-116.0","3JPSL1DZ5TLA0070RN39PAX1K31NAH","A3V2XCDF45VN9X","3UDTAB6HH6LRO17U79I9TKUGYFV09C","","654.7000000476837","img/land4.png","75","655.5","2","1","3","2","0.8,0.2,0.2,0.2,0.8,0.2,0.2,0.2,0.8","0.2,0.2,0.8,0.8,0.2,0.2,0.2,0.8,0.2","2","",""
"","html-keyboard-response","117","65547","0.0-117.0","3JPSL1DZ5TLA0070RN39PAX1K31NAH","A3V2XCDF45VN9X","3UDTAB6HH6LRO17U79I9TKUGYFV09C","","null","<img src=""img/land4.png"" style=""width:200px; border:14px solid green;"">","null","","","","","","","","","",""
"","image-keyboard-response","118","66379","0.0-118.0","3JPSL1DZ5TLA0070RN39PAX1K31NAH","A3V2XCDF45VN9X","3UDTAB6HH6LRO17U79I9TKUGYFV09C","","831.0999999046326","img/land5.png","76","831.5999999046326","3","1","1","2","0.8,0.2,0.2,0.2,0.8,0.2,0.2,0.2,0.8","0.2,0.2,0.8,0.8,0.2,0.2,0.2,0.8,0.2","2","",""
"","html-keyboard-response","119","66683","0.0-119.0","3JPSL1DZ5TLA0070RN39PAX1K31NAH","A3V2XCDF45VN9X","3UDTAB6HH6LRO17U79I9TKUGYFV09C","","null","<img src=""img/land5.png"" style=""width:200px; border:14px solid green;"">","null","","","","","","","","","",""
"","image-keyboard-response","120","67079","0.0-120.0","3JPSL1DZ5TLA0070RN39PAX1K31NAH","A3V2XCDF45VN9X","3UDTAB6HH6LRO17U79I9TKUGYFV09C","","395.10000014305115","img/land5.png","76","395.80000019073486","3","1","1","2","0.8,0.2,0.2,0.2,0.8,0.2,0.2,0.2,0.8","0.2,0.2,0.8,0.8,0.2,0.2,0.2,0.8,0.2","2","",""
"","html-keyboard-response","121","67386","0.0-121.0","3JPSL1DZ5TLA0070RN39PAX1K31NAH","A3V2XCDF45VN9X","3UDTAB6HH6LRO17U79I9TKUGYFV09C","","null","<img src=""img/land5.png"" style=""width:200px; border:14px solid green;"">","null","","","","","","","","","",""
"","image-keyboard-response","122","67756","0.0-122.0","3JPSL1DZ5TLA0070RN39PAX1K31NAH","A3V2XCDF45VN9X","3UDTAB6HH6LRO17U79I9TKUGYFV09C","","368.39999985694885","img/land5.png","76","369.2000000476837","3","1","1","2","0.8,0.2,0.2,0.2,0.8,0.2,0.2,0.2,0.8","0.2,0.2,0.8,0.8,0.2,0.2,0.2,0.8,0.2","2","",""
"","html-keyboard-response","123","68062","0.0-123.0","3JPSL1DZ5TLA0070RN39PAX1K31NAH","A3V2XCDF45VN9X","3UDTAB6HH6LRO17U79I9TKUGYFV09C","","null","<img src=""img/land5.png"" style=""width:200px; border:14px solid green;"">","null","","","","","","","","","",""
"","image-keyboard-response","124","68429","0.0-124.0","3JPSL1DZ5TLA0070RN39PAX1K31NAH","A3V2XCDF45VN9X","3UDTAB6HH6LRO17U79I9TKUGYFV09C","","366.5","img/land5.png","76","367.2000000476837","3","0","1","2","0.8,0.2,0.2,0.2,0.8,0.2,0.2,0.2,0.8","0.2,0.2,0.8,0.8,0.2,0.2,0.2,0.8,0.2","2","",""
"","html-keyboard-response","125","68742","0.0-125.0","3JPSL1DZ5TLA0070RN39PAX1K31NAH","A3V2XCDF45VN9X","3UDTAB6HH6LRO17U79I9TKUGYFV09C","","null","<img src=""img/land5.png"" style=""width:200px;border:14px solid red;"">","null","","","","","","","","","",""
"","image-keyboard-response","126","69137","0.0-126.0","3JPSL1DZ5TLA0070RN39PAX1K31NAH","A3V2XCDF45VN9X","3UDTAB6HH6LRO17U79I9TKUGYFV09C","","394.39999985694885","img/land5.png","76","395.09999990463257","3","1","1","2","0.8,0.2,0.2,0.2,0.8,0.2,0.2,0.2,0.8","0.2,0.2,0.8,0.8,0.2,0.2,0.2,0.8,0.2","2","",""
"","html-keyboard-response","127","69446","0.0-127.0","3JPSL1DZ5TLA0070RN39PAX1K31NAH","A3V2XCDF45VN9X","3UDTAB6HH6LRO17U79I9TKUGYFV09C","","null","<img src=""img/land5.png"" style=""width:200px; border:14px solid green;"">","null","","","","","","","","","",""
"","image-keyboard-response","128","70129","0.0-128.0","3JPSL1DZ5TLA0070RN39PAX1K31NAH","A3V2XCDF45VN9X","3UDTAB6HH6LRO17U79I9TKUGYFV09C","","681.7000000476837","img/land3.png","74","682.4000000953674","1","1","2","2","0.8,0.2,0.2,0.2,0.8,0.2,0.2,0.2,0.8","0.2,0.2,0.8,0.8,0.2,0.2,0.2,0.8,0.2","2","",""
"","html-keyboard-response","129","70438","0.0-129.0","3JPSL1DZ5TLA0070RN39PAX1K31NAH","A3V2XCDF45VN9X","3UDTAB6HH6LRO17U79I9TKUGYFV09C","","null","<img src=""img/land3.png"" style=""width:200px; border:14px solid green;"">","null","","","","","","","","","",""
"","image-keyboard-response","130","71034","0.0-130.0","3JPSL1DZ5TLA0070RN39PAX1K31NAH","A3V2XCDF45VN9X","3UDTAB6HH6LRO17U79I9TKUGYFV09C","","594.3999998569489","img/land4.png","75","595.2999999523163","2","0","3","2","0.8,0.2,0.2,0.2,0.8,0.2,0.2,0.2,0.8","0.2,0.2,0.8,0.8,0.2,0.2,0.2,0.8,0.2","2","",""
"","html-keyboard-response","131","71343","0.0-131.0","3JPSL1DZ5TLA0070RN39PAX1K31NAH","A3V2XCDF45VN9X","3UDTAB6HH6LRO17U79I9TKUGYFV09C","","null","<img src=""img/land4.png"" style=""width:200px;border:14px solid red;"">","null","","","","","","","","","",""
"","image-keyboard-response","132","72221","0.0-132.0","3JPSL1DZ5TLA0070RN39PAX1K31NAH","A3V2XCDF45VN9X","3UDTAB6HH6LRO17U79I9TKUGYFV09C","","876.7000000476837","img/land3.png","74","877.4000000953674","1","0","2","2","0.8,0.2,0.2,0.2,0.8,0.2,0.2,0.2,0.8","0.2,0.2,0.8,0.8,0.2,0.2,0.2,0.8,0.2","2","",""
"","html-keyboard-response","133","72523","0.0-133.0","3JPSL1DZ5TLA0070RN39PAX1K31NAH","A3V2XCDF45VN9X","3UDTAB6HH6LRO17U79I9TKUGYFV09C","","null","<img src=""img/land3.png"" style=""width:200px;border:14px solid red;"">","null","","","","","","","","","",""
"","image-keyboard-response","134","73169","0.0-134.0","3JPSL1DZ5TLA0070RN39PAX1K31NAH","A3V2XCDF45VN9X","3UDTAB6HH6LRO17U79I9TKUGYFV09C","","644.0999999046326","img/land5.png","76","644.9000000953674","3","1","1","2","0.8,0.2,0.2,0.2,0.8,0.2,0.2,0.2,0.8","0.2,0.2,0.8,0.8,0.2,0.2,0.2,0.8,0.2","2","",""
"","html-keyboard-response","135","73478","0.0-135.0","3JPSL1DZ5TLA0070RN39PAX1K31NAH","A3V2XCDF45VN9X","3UDTAB6HH6LRO17U79I9TKUGYFV09C","","null","<img src=""img/land5.png"" style=""width:200px; border:14px solid green;"">","null","","","","","","","","","",""
"","image-keyboard-response","136","73867","0.0-136.0","3JPSL1DZ5TLA0070RN39PAX1K31NAH","A3V2XCDF45VN9X","3UDTAB6HH6LRO17U79I9TKUGYFV09C","","388","img/land5.png","76","388.69999980926514","3","1","1","2","0.8,0.2,0.2,0.2,0.8,0.2,0.2,0.2,0.8","0.2,0.2,0.8,0.8,0.2,0.2,0.2,0.8,0.2","2","",""
"","html-keyboard-response","137","74171","0.0-137.0","3JPSL1DZ5TLA0070RN39PAX1K31NAH","A3V2XCDF45VN9X","3UDTAB6HH6LRO17U79I9TKUGYFV09C","","null","<img src=""img/land5.png"" style=""width:200px; border:14px solid green;"">","null","","","","","","","","","",""
"","image-keyboard-response","138","74484","0.0-138.0","3JPSL1DZ5TLA0070RN39PAX1K31NAH","A3V2XCDF45VN9X","3UDTAB6HH6LRO17U79I9TKUGYFV09C","","311.90000009536743","img/land5.png","76","312.5","3","1","1","2","0.8,0.2,0.2,0.2,0.8,0.2,0.2,0.2,0.8","0.2,0.2,0.8,0.8,0.2,0.2,0.2,0.8,0.2","2","",""
"","html-keyboard-response","139","74790","0.0-139.0","3JPSL1DZ5TLA0070RN39PAX1K31NAH","A3V2XCDF45VN9X","3UDTAB6HH6LRO17U79I9TKUGYFV09C","","null","<img src=""img/land5.png"" style=""width:200px; border:14px solid green;"">","null","","","","","","","","","",""
"","image-keyboard-response","140","75340","0.0-140.0","3JPSL1DZ5TLA0070RN39PAX1K31NAH","A3V2XCDF45VN9X","3UDTAB6HH6LRO17U79I9TKUGYFV09C","","549.2999999523163","img/land3.png","74","550.1000001430511","1","1","2","2","0.8,0.2,0.2,0.2,0.8,0.2,0.2,0.2,0.8","0.2,0.2,0.8,0.8,0.2,0.2,0.2,0.8,0.2","2","",""
"","html-keyboard-response","141","75643","0.0-141.0","3JPSL1DZ5TLA0070RN39PAX1K31NAH","A3V2XCDF45VN9X","3UDTAB6HH6LRO17U79I9TKUGYFV09C","","null","<img src=""img/land3.png"" style=""width:200px; border:14px solid green;"">","null","","","","","","","","","",""
"","image-keyboard-response","142","76350","0.0-142.0","3JPSL1DZ5TLA0070RN39PAX1K31NAH","A3V2XCDF45VN9X","3UDTAB6HH6LRO17U79I9TKUGYFV09C","","704.2999999523163","img/land5.png","76","704.9000000953674","3","0","1","2","0.8,0.2,0.2,0.2,0.8,0.2,0.2,0.2,0.8","0.2,0.2,0.8,0.8,0.2,0.2,0.2,0.8,0.2","2","",""
"","html-keyboard-response","143","76652","0.0-143.0","3JPSL1DZ5TLA0070RN39PAX1K31NAH","A3V2XCDF45VN9X","3UDTAB6HH6LRO17U79I9TKUGYFV09C","","null","<img src=""img/land5.png"" style=""width:200px;border:14px solid red;"">","null","","","","","","","","","",""
"","image-keyboard-response","144","77117","0.0-144.0","3JPSL1DZ5TLA0070RN39PAX1K31NAH","A3V2XCDF45VN9X","3UDTAB6HH6LRO17U79I9TKUGYFV09C","","464.90000009536743","img/land5.png","76","465.59999990463257","3","1","1","2","0.8,0.2,0.2,0.2,0.8,0.2,0.2,0.2,0.8","0.2,0.2,0.8,0.8,0.2,0.2,0.2,0.8,0.2","2","",""
"","html-keyboard-response","145","77430","0.0-145.0","3JPSL1DZ5TLA0070RN39PAX1K31NAH","A3V2XCDF45VN9X","3UDTAB6HH6LRO17U79I9TKUGYFV09C","","null","<img src=""img/land5.png"" style=""width:200px; border:14px solid green;"">","null","","","","","","","","","",""
"","image-keyboard-response","146","77755","0.0-146.0","3JPSL1DZ5TLA0070RN39PAX1K31NAH","A3V2XCDF45VN9X","3UDTAB6HH6LRO17U79I9TKUGYFV09C","","323.2999999523163","img/land5.png","76","324","3","1","1","2","0.8,0.2,0.2,0.2,0.8,0.2,0.2,0.2,0.8","0.2,0.2,0.8,0.8,0.2,0.2,0.2,0.8,0.2","2","",""
"","html-keyboard-response","147","78059","0.0-147.0","3JPSL1DZ5TLA0070RN39PAX1K31NAH","A3V2XCDF45VN9X","3UDTAB6HH6LRO17U79I9TKUGYFV09C","","null","<img src=""img/land5.png"" style=""width:200px; border:14px solid green;"">","null","","","","","","","","","",""
"","image-keyboard-response","148","78571","0.0-148.0","3JPSL1DZ5TLA0070RN39PAX1K31NAH","A3V2XCDF45VN9X","3UDTAB6HH6LRO17U79I9TKUGYFV09C","","511.2999999523163","img/land4.png","75","511.7999999523163","2","0","3","2","0.8,0.2,0.2,0.2,0.8,0.2,0.2,0.2,0.8","0.2,0.2,0.8,0.8,0.2,0.2,0.2,0.8,0.2","2","",""
"","html-keyboard-response","149","78875","0.0-149.0","3JPSL1DZ5TLA0070RN39PAX1K31NAH","A3V2XCDF45VN9X","3UDTAB6HH6LRO17U79I9TKUGYFV09C","","null","<img src=""img/land4.png"" style=""width:200px;border:14px solid red;"">","null","","","","","","","","","",""
"","image-keyboard-response","150","79317","0.0-150.0","3JPSL1DZ5TLA0070RN39PAX1K31NAH","A3V2XCDF45VN9X","3UDTAB6HH6LRO17U79I9TKUGYFV09C","","440.39999985694885","img/land4.png","75","441","2","1","3","2","0.8,0.2,0.2,0.2,0.8,0.2,0.2,0.2,0.8","0.2,0.2,0.8,0.8,0.2,0.2,0.2,0.8,0.2","2","",""
"","html-keyboard-response","151","79622","0.0-151.0","3JPSL1DZ5TLA0070RN39PAX1K31NAH","A3V2XCDF45VN9X","3UDTAB6HH6LRO17U79I9TKUGYFV09C","","null","<img src=""img/land4.png"" style=""width:200px; border:14px solid green;"">","null","","","","","","","","","",""
"","image-keyboard-response","152","80247","0.0-152.0","3JPSL1DZ5TLA0070RN39PAX1K31NAH","A3V2XCDF45VN9X","3UDTAB6HH6LRO17U79I9TKUGYFV09C","","624.0999999046326","img/land5.png","76","624.6000001430511","3","1","1","2","0.8,0.2,0.2,0.2,0.8,0.2,0.2,0.2,0.8","0.2,0.2,0.8,0.8,0.2,0.2,0.2,0.8,0.2","2","",""
"","html-keyboard-response","153","80556","0.0-153.0","3JPSL1DZ5TLA0070RN39PAX1K31NAH","A3V2XCDF45VN9X","3UDTAB6HH6LRO17U79I9TKUGYFV09C","","null","<img src=""img/land5.png"" style=""width:200px; border:14px solid green;"">","null","","","","","","","","","",""
"","image-keyboard-response","154","81089","0.0-154.0","3JPSL1DZ5TLA0070RN39PAX1K31NAH","A3V2XCDF45VN9X","3UDTAB6HH6LRO17U79I9TKUGYFV09C","","531.6999998092651","img/land4.png","75","532.4000000953674","2","1","3","2","0.8,0.2,0.2,0.2,0.8,0.2,0.2,0.2,0.8","0.2,0.2,0.8,0.8,0.2,0.2,0.2,0.8,0.2","2","",""
"","html-keyboard-response","155","81398","0.0-155.0","3JPSL1DZ5TLA0070RN39PAX1K31NAH","A3V2XCDF45VN9X","3UDTAB6HH6LRO17U79I9TKUGYFV09C","","null","<img src=""img/land4.png"" style=""width:200px; border:14px solid green;"">","null","","","","","","","","","",""
"","image-keyboard-response","156","81739","0.0-156.0","3JPSL1DZ5TLA0070RN39PAX1K31NAH","A3V2XCDF45VN9X","3UDTAB6HH6LRO17U79I9TKUGYFV09C","","339.2000000476837","img/land4.png","75","339.89999985694885","2","1","3","2","0.8,0.2,0.2,0.2,0.8,0.2,0.2,0.2,0.8","0.2,0.2,0.8,0.8,0.2,0.2,0.2,0.8,0.2","2","",""
"","html-keyboard-response","157","82045","0.0-157.0","3JPSL1DZ5TLA0070RN39PAX1K31NAH","A3V2XCDF45VN9X","3UDTAB6HH6LRO17U79I9TKUGYFV09C","","null","<img src=""img/land4.png"" style=""width:200px; border:14px solid green;"">","null","","","","","","","","","",""
"","image-keyboard-response","158","82601","0.0-158.0","3JPSL1DZ5TLA0070RN39PAX1K31NAH","A3V2XCDF45VN9X","3UDTAB6HH6LRO17U79I9TKUGYFV09C","","554.6000001430511","img/land5.png","76","555.2999999523163","3","1","1","2","0.8,0.2,0.2,0.2,0.8,0.2,0.2,0.2,0.8","0.2,0.2,0.8,0.8,0.2,0.2,0.2,0.8,0.2","2","",""
"","html-keyboard-response","159","82902","0.0-159.0","3JPSL1DZ5TLA0070RN39PAX1K31NAH","A3V2XCDF45VN9X","3UDTAB6HH6LRO17U79I9TKUGYFV09C","","null","<img src=""img/land5.png"" style=""width:200px; border:14px solid green;"">","null","","","","","","","","","",""
"","image-keyboard-response","160","83456","0.0-160.0","3JPSL1DZ5TLA0070RN39PAX1K31NAH","A3V2XCDF45VN9X","3UDTAB6HH6LRO17U79I9TKUGYFV09C","","552.2000000476837","img/land4.png","75","552.9000000953674","2","0","3","2","0.8,0.2,0.2,0.2,0.8,0.2,0.2,0.2,0.8","0.2,0.2,0.8,0.8,0.2,0.2,0.2,0.8,0.2","2","",""
"","html-keyboard-response","161","83766","0.0-161.0","3JPSL1DZ5TLA0070RN39PAX1K31NAH","A3V2XCDF45VN9X","3UDTAB6HH6LRO17U79I9TKUGYFV09C","","null","<img src=""img/land4.png"" style=""width:200px;border:14px solid red;"">","null","","","","","","","","","",""
"","image-keyboard-response","162","84342","0.0-162.0","3JPSL1DZ5TLA0070RN39PAX1K31NAH","A3V2XCDF45VN9X","3UDTAB6HH6LRO17U79I9TKUGYFV09C","","576","img/land5.png","74","576.7000000476837","1","1","1","2","0.8,0.2,0.2,0.2,0.8,0.2,0.2,0.2,0.8","0.2,0.2,0.8,0.8,0.2,0.2,0.2,0.8,0.2","2","",""
"","html-keyboard-response","163","84652","0.0-163.0","3JPSL1DZ5TLA0070RN39PAX1K31NAH","A3V2XCDF45VN9X","3UDTAB6HH6LRO17U79I9TKUGYFV09C","","null","<img src=""img/land5.png"" style=""width:200px; border:14px solid green;"">","null","","","","","","","","","",""
"","image-keyboard-response","164","86049","0.0-164.0","3JPSL1DZ5TLA0070RN39PAX1K31NAH","A3V2XCDF45VN9X","3UDTAB6HH6LRO17U79I9TKUGYFV09C","","1396.7999999523163","img/land4.png","75","1397.3999998569489","2","1","3","2","0.8,0.2,0.2,0.2,0.8,0.2,0.2,0.2,0.8","0.2,0.2,0.8,0.8,0.2,0.2,0.2,0.8,0.2","2","",""
"","html-keyboard-response","165","86357","0.0-165.0","3JPSL1DZ5TLA0070RN39PAX1K31NAH","A3V2XCDF45VN9X","3UDTAB6HH6LRO17U79I9TKUGYFV09C","","null","<img src=""img/land4.png"" style=""width:200px; border:14px solid green;"">","null","","","","","","","","","",""
"","image-keyboard-response","166","87057","0.0-166.0","3JPSL1DZ5TLA0070RN39PAX1K31NAH","A3V2XCDF45VN9X","3UDTAB6HH6LRO17U79I9TKUGYFV09C","","698.5999999046326","img/land3.png","74","699.5999999046326","1","1","2","2","0.8,0.2,0.2,0.2,0.8,0.2,0.2,0.2,0.8","0.2,0.2,0.8,0.8,0.2,0.2,0.2,0.8,0.2","2","",""
"","html-keyboard-response","167","87366","0.0-167.0","3JPSL1DZ5TLA0070RN39PAX1K31NAH","A3V2XCDF45VN9X","3UDTAB6HH6LRO17U79I9TKUGYFV09C","","null","<img src=""img/land3.png"" style=""width:200px; border:14px solid green;"">","null","","","","","","","","","",""
"","image-keyboard-response","168","88063","0.0-168.0","3JPSL1DZ5TLA0070RN39PAX1K31NAH","A3V2XCDF45VN9X","3UDTAB6HH6LRO17U79I9TKUGYFV09C","","695.9000000953674","img/land5.png","76","696.7000000476837","3","0","1","2","0.8,0.2,0.2,0.2,0.8,0.2,0.2,0.2,0.8","0.2,0.2,0.8,0.8,0.2,0.2,0.2,0.8,0.2","2","",""
"","html-keyboard-response","169","88374","0.0-169.0","3JPSL1DZ5TLA0070RN39PAX1K31NAH","A3V2XCDF45VN9X","3UDTAB6HH6LRO17U79I9TKUGYFV09C","","null","<img src=""img/land5.png"" style=""width:200px;border:14px solid red;"">","null","","","","","","","","","",""
"","image-keyboard-response","170","89208","0.0-170.0","3JPSL1DZ5TLA0070RN39PAX1K31NAH","A3V2XCDF45VN9X","3UDTAB6HH6LRO17U79I9TKUGYFV09C","","833","img/land4.png","75","833.7000000476837","2","1","3","2","0.8,0.2,0.2,0.2,0.8,0.2,0.2,0.2,0.8","0.2,0.2,0.8,0.8,0.2,0.2,0.2,0.8,0.2","2","",""
"","html-keyboard-response","171","89516","0.0-171.0","3JPSL1DZ5TLA0070RN39PAX1K31NAH","A3V2XCDF45VN9X","3UDTAB6HH6LRO17U79I9TKUGYFV09C","","null","<img src=""img/land4.png"" style=""width:200px; border:14px solid green;"">","null","","","","","","","","","",""
"","image-keyboard-response","172","90203","0.0-172.0","3JPSL1DZ5TLA0070RN39PAX1K31NAH","A3V2XCDF45VN9X","3UDTAB6HH6LRO17U79I9TKUGYFV09C","","686","img/land5.png","76","686.5999999046326","3","1","1","2","0.8,0.2,0.2,0.2,0.8,0.2,0.2,0.2,0.8","0.2,0.2,0.8,0.8,0.2,0.2,0.2,0.8,0.2","2","",""
"","html-keyboard-response","173","90507","0.0-173.0","3JPSL1DZ5TLA0070RN39PAX1K31NAH","A3V2XCDF45VN9X","3UDTAB6HH6LRO17U79I9TKUGYFV09C","","null","<img src=""img/land5.png"" style=""width:200px; border:14px solid green;"">","null","","","","","","","","","",""
"","image-keyboard-response","174","90824","0.0-174.0","3JPSL1DZ5TLA0070RN39PAX1K31NAH","A3V2XCDF45VN9X","3UDTAB6HH6LRO17U79I9TKUGYFV09C","","315.5","img/land3.png","76","316.2999999523163","3","0","2","2","0.8,0.2,0.2,0.2,0.8,0.2,0.2,0.2,0.8","0.2,0.2,0.8,0.8,0.2,0.2,0.2,0.8,0.2","2","",""
"","html-keyboard-response","175","91131","0.0-175.0","3JPSL1DZ5TLA0070RN39PAX1K31NAH","A3V2XCDF45VN9X","3UDTAB6HH6LRO17U79I9TKUGYFV09C","","null","<img src=""img/land3.png"" style=""width:200px;border:14px solid red;"">","null","","","","","","","","","",""
"","image-keyboard-response","176","91690","0.0-176.0","3JPSL1DZ5TLA0070RN39PAX1K31NAH","A3V2XCDF45VN9X","3UDTAB6HH6LRO17U79I9TKUGYFV09C","","557.6000001430511","img/land3.png","74","558.5","1","0","2","2","0.8,0.2,0.2,0.2,0.8,0.2,0.2,0.2,0.8","0.2,0.2,0.8,0.8,0.2,0.2,0.2,0.8,0.2","2","",""
"","html-keyboard-response","177","91994","0.0-177.0","3JPSL1DZ5TLA0070RN39PAX1K31NAH","A3V2XCDF45VN9X","3UDTAB6HH6LRO17U79I9TKUGYFV09C","","null","<img src=""img/land3.png"" style=""width:200px;border:14px solid red;"">","null","","","","","","","","","",""
"","image-keyboard-response","178","93106","0.0-178.0","3JPSL1DZ5TLA0070RN39PAX1K31NAH","A3V2XCDF45VN9X","3UDTAB6HH6LRO17U79I9TKUGYFV09C","","1110.1999998092651","img/land4.png","75","1110.7999999523163","2","1","3","2","0.8,0.2,0.2,0.2,0.8,0.2,0.2,0.2,0.8","0.2,0.2,0.8,0.8,0.2,0.2,0.2,0.8,0.2","2","",""
"","html-keyboard-response","179","93411","0.0-179.0","3JPSL1DZ5TLA0070RN39PAX1K31NAH","A3V2XCDF45VN9X","3UDTAB6HH6LRO17U79I9TKUGYFV09C","","null","<img src=""img/land4.png"" style=""width:200px; border:14px solid green;"">","null","","","","","","","","","",""
"","image-keyboard-response","180","93836","0.0-180.0","3JPSL1DZ5TLA0070RN39PAX1K31NAH","A3V2XCDF45VN9X","3UDTAB6HH6LRO17U79I9TKUGYFV09C","","423.2000000476837","img/land4.png","75","424.10000014305115","2","0","3","2","0.8,0.2,0.2,0.2,0.8,0.2,0.2,0.2,0.8","0.2,0.2,0.8,0.8,0.2,0.2,0.2,0.8,0.2","2","",""
"","html-keyboard-response","181","94142","0.0-181.0","3JPSL1DZ5TLA0070RN39PAX1K31NAH","A3V2XCDF45VN9X","3UDTAB6HH6LRO17U79I9TKUGYFV09C","","null","<img src=""img/land4.png"" style=""width:200px;border:14px solid red;"">","null","","","","","","","","","",""
"","image-keyboard-response","182","94782","0.0-182.0","3JPSL1DZ5TLA0070RN39PAX1K31NAH","A3V2XCDF45VN9X","3UDTAB6HH6LRO17U79I9TKUGYFV09C","","638.9000000953674","img/land5.png","76","639.5","3","1","1","2","0.8,0.2,0.2,0.2,0.8,0.2,0.2,0.2,0.8","0.2,0.2,0.8,0.8,0.2,0.2,0.2,0.8,0.2","2","",""
"","html-keyboard-response","183","95096","0.0-183.0","3JPSL1DZ5TLA0070RN39PAX1K31NAH","A3V2XCDF45VN9X","3UDTAB6HH6LRO17U79I9TKUGYFV09C","","null","<img src=""img/land5.png"" style=""width:200px; border:14px solid green;"">","null","","","","","","","","","",""
"","image-keyboard-response","184","95528","0.0-184.0","3JPSL1DZ5TLA0070RN39PAX1K31NAH","A3V2XCDF45VN9X","3UDTAB6HH6LRO17U79I9TKUGYFV09C","","430.60000014305115","img/land5.png","76","431.40000009536743","3","0","1","2","0.8,0.2,0.2,0.2,0.8,0.2,0.2,0.2,0.8","0.2,0.2,0.8,0.8,0.2,0.2,0.2,0.8,0.2","2","",""
"","html-keyboard-response","185","95836","0.0-185.0","3JPSL1DZ5TLA0070RN39PAX1K31NAH","A3V2XCDF45VN9X","3UDTAB6HH6LRO17U79I9TKUGYFV09C","","null","<img src=""img/land5.png"" style=""width:200px;border:14px solid red;"">","null","","","","","","","","","",""
"","image-keyboard-response","186","96424","0.0-186.0","3JPSL1DZ5TLA0070RN39PAX1K31NAH","A3V2XCDF45VN9X","3UDTAB6HH6LRO17U79I9TKUGYFV09C","","586.5","img/land3.png","74","587.1999998092651","1","1","2","2","0.8,0.2,0.2,0.2,0.8,0.2,0.2,0.2,0.8","0.2,0.2,0.8,0.8,0.2,0.2,0.2,0.8,0.2","2","",""
"","html-keyboard-response","187","96732","0.0-187.0","3JPSL1DZ5TLA0070RN39PAX1K31NAH","A3V2XCDF45VN9X","3UDTAB6HH6LRO17U79I9TKUGYFV09C","","null","<img src=""img/land3.png"" style=""width:200px; border:14px solid green;"">","null","","","","","","","","","",""
"","image-keyboard-response","188","97391","0.0-188.0","3JPSL1DZ5TLA0070RN39PAX1K31NAH","A3V2XCDF45VN9X","3UDTAB6HH6LRO17U79I9TKUGYFV09C","","658.3999998569489","img/land5.png","76","659.1999998092651","3","1","1","2","0.8,0.2,0.2,0.2,0.8,0.2,0.2,0.2,0.8","0.2,0.2,0.8,0.8,0.2,0.2,0.2,0.8,0.2","2","",""
"","html-keyboard-response","189","97700","0.0-189.0","3JPSL1DZ5TLA0070RN39PAX1K31NAH","A3V2XCDF45VN9X","3UDTAB6HH6LRO17U79I9TKUGYFV09C","","null","<img src=""img/land5.png"" style=""width:200px; border:14px solid green;"">","null","","","","","","","","","",""
"","image-keyboard-response","190","98278","0.0-190.0","3JPSL1DZ5TLA0070RN39PAX1K31NAH","A3V2XCDF45VN9X","3UDTAB6HH6LRO17U79I9TKUGYFV09C","","577.0999999046326","img/land4.png","75","578","2","1","3","2","0.8,0.2,0.2,0.2,0.8,0.2,0.2,0.2,0.8","0.2,0.2,0.8,0.8,0.2,0.2,0.2,0.8,0.2","2","",""
"","html-keyboard-response","191","98591","0.0-191.0","3JPSL1DZ5TLA0070RN39PAX1K31NAH","A3V2XCDF45VN9X","3UDTAB6HH6LRO17U79I9TKUGYFV09C","","null","<img src=""img/land4.png"" style=""width:200px; border:14px solid green;"">","null","","","","","","","","","",""
"","image-keyboard-response","192","99125","0.0-192.0","3JPSL1DZ5TLA0070RN39PAX1K31NAH","A3V2XCDF45VN9X","3UDTAB6HH6LRO17U79I9TKUGYFV09C","","533","img/land5.png","76","533.8000001907349","3","1","1","2","0.8,0.2,0.2,0.2,0.8,0.2,0.2,0.2,0.8","0.2,0.2,0.8,0.8,0.2,0.2,0.2,0.8,0.2","2","",""
"","html-keyboard-response","193","99431","0.0-193.0","3JPSL1DZ5TLA0070RN39PAX1K31NAH","A3V2XCDF45VN9X","3UDTAB6HH6LRO17U79I9TKUGYFV09C","","null","<img src=""img/land5.png"" style=""width:200px; border:14px solid green;"">","null","","","","","","","","","",""
"","image-keyboard-response","194","99998","0.0-194.0","3JPSL1DZ5TLA0070RN39PAX1K31NAH","A3V2XCDF45VN9X","3UDTAB6HH6LRO17U79I9TKUGYFV09C","","566.2999999523163","img/land4.png","75","567.1000001430511","2","1","3","2","0.8,0.2,0.2,0.2,0.8,0.2,0.2,0.2,0.8","0.2,0.2,0.8,0.8,0.2,0.2,0.2,0.8,0.2","2","",""
"","html-keyboard-response","195","100311","0.0-195.0","3JPSL1DZ5TLA0070RN39PAX1K31NAH","A3V2XCDF45VN9X","3UDTAB6HH6LRO17U79I9TKUGYFV09C","","null","<img src=""img/land4.png"" style=""width:200px; border:14px solid green;"">","null","","","","","","","","","",""
"","image-keyboard-response","196","100817","0.0-196.0","3JPSL1DZ5TLA0070RN39PAX1K31NAH","A3V2XCDF45VN9X","3UDTAB6HH6LRO17U79I9TKUGYFV09C","","505","img/land5.png","76","505.80000019073486","3","0","1","2","0.8,0.2,0.2,0.2,0.8,0.2,0.2,0.2,0.8","0.2,0.2,0.8,0.8,0.2,0.2,0.2,0.8,0.2","2","",""
"","html-keyboard-response","197","101127","0.0-197.0","3JPSL1DZ5TLA0070RN39PAX1K31NAH","A3V2XCDF45VN9X","3UDTAB6HH6LRO17U79I9TKUGYFV09C","","null","<img src=""img/land5.png"" style=""width:200px;border:14px solid red;"">","null","","","","","","","","","",""
"","image-keyboard-response","198","101800","0.0-198.0","3JPSL1DZ5TLA0070RN39PAX1K31NAH","A3V2XCDF45VN9X","3UDTAB6HH6LRO17U79I9TKUGYFV09C","","672.6999998092651","img/land3.png","74","673.2999999523163","1","1","2","2","0.8,0.2,0.2,0.2,0.8,0.2,0.2,0.2,0.8","0.2,0.2,0.8,0.8,0.2,0.2,0.2,0.8,0.2","2","",""
"","html-keyboard-response","199","102107","0.0-199.0","3JPSL1DZ5TLA0070RN39PAX1K31NAH","A3V2XCDF45VN9X","3UDTAB6HH6LRO17U79I9TKUGYFV09C","","null","<img src=""img/land3.png"" style=""width:200px; border:14px solid green;"">","null","","","","","","","","","",""
"","image-keyboard-response","200","102560","0.0-200.0","3JPSL1DZ5TLA0070RN39PAX1K31NAH","A3V2XCDF45VN9X","3UDTAB6HH6LRO17U79I9TKUGYFV09C","","451.90000009536743","img/land3.png","74","452.40000009536743","1","1","2","2","0.8,0.2,0.2,0.2,0.8,0.2,0.2,0.2,0.8","0.2,0.2,0.8,0.8,0.2,0.2,0.2,0.8,0.2","2","",""
"","html-keyboard-response","201","102871","0.0-201.0","3JPSL1DZ5TLA0070RN39PAX1K31NAH","A3V2XCDF45VN9X","3UDTAB6HH6LRO17U79I9TKUGYFV09C","","null","<img src=""img/land3.png"" style=""width:200px; border:14px solid green;"">","null","","","","","","","","","",""
"","image-keyboard-response","202","103429","0.0-202.0","3JPSL1DZ5TLA0070RN39PAX1K31NAH","A3V2XCDF45VN9X","3UDTAB6HH6LRO17U79I9TKUGYFV09C","","557.4000000953674","img/land5.png","76","558.0999999046326","3","1","1","2","0.8,0.2,0.2,0.2,0.8,0.2,0.2,0.2,0.8","0.2,0.2,0.8,0.8,0.2,0.2,0.2,0.8,0.2","2","",""
"","html-keyboard-response","203","103734","0.0-203.0","3JPSL1DZ5TLA0070RN39PAX1K31NAH","A3V2XCDF45VN9X","3UDTAB6HH6LRO17U79I9TKUGYFV09C","","null","<img src=""img/land5.png"" style=""width:200px; border:14px solid green;"">","null","","","","","","","","","",""
"","image-keyboard-response","204","104146","0.0-204.0","3JPSL1DZ5TLA0070RN39PAX1K31NAH","A3V2XCDF45VN9X","3UDTAB6HH6LRO17U79I9TKUGYFV09C","","410.59999990463257","img/land5.png","76","411.90000009536743","3","0","1","2","0.8,0.2,0.2,0.2,0.8,0.2,0.2,0.2,0.8","0.2,0.2,0.8,0.8,0.2,0.2,0.2,0.8,0.2","2","",""
"","html-keyboard-response","205","104452","0.0-205.0","3JPSL1DZ5TLA0070RN39PAX1K31NAH","A3V2XCDF45VN9X","3UDTAB6HH6LRO17U79I9TKUGYFV09C","","null","<img src=""img/land5.png"" style=""width:200px;border:14px solid red;"">","null","","","","","","","","","",""
"","image-keyboard-response","206","104940","0.0-206.0","3JPSL1DZ5TLA0070RN39PAX1K31NAH","A3V2XCDF45VN9X","3UDTAB6HH6LRO17U79I9TKUGYFV09C","","487.60000014305115","img/land5.png","76","488.30000019073486","3","0","1","2","0.8,0.2,0.2,0.2,0.8,0.2,0.2,0.2,0.8","0.2,0.2,0.8,0.8,0.2,0.2,0.2,0.8,0.2","2","",""
"","html-keyboard-response","207","105244","0.0-207.0","3JPSL1DZ5TLA0070RN39PAX1K31NAH","A3V2XCDF45VN9X","3UDTAB6HH6LRO17U79I9TKUGYFV09C","","null","<img src=""img/land5.png"" style=""width:200px;border:14px solid red;"">","null","","","","","","","","","",""
"","image-keyboard-response","208","105930","0.0-208.0","3JPSL1DZ5TLA0070RN39PAX1K31NAH","A3V2XCDF45VN9X","3UDTAB6HH6LRO17U79I9TKUGYFV09C","","685.2999999523163","img/land3.png","74","686","1","0","2","2","0.8,0.2,0.2,0.2,0.8,0.2,0.2,0.2,0.8","0.2,0.2,0.8,0.8,0.2,0.2,0.2,0.8,0.2","2","",""
"","html-keyboard-response","209","106239","0.0-209.0","3JPSL1DZ5TLA0070RN39PAX1K31NAH","A3V2XCDF45VN9X","3UDTAB6HH6LRO17U79I9TKUGYFV09C","","null","<img src=""img/land3.png"" style=""width:200px;border:14px solid red;"">","null","","","","","","","","","",""
"","image-keyboard-response","210","106909","0.0-210.0","3JPSL1DZ5TLA0070RN39PAX1K31NAH","A3V2XCDF45VN9X","3UDTAB6HH6LRO17U79I9TKUGYFV09C","","669.8000001907349","img/land5.png","76","670.5","3","0","1","2","0.8,0.2,0.2,0.2,0.8,0.2,0.2,0.2,0.8","0.2,0.2,0.8,0.8,0.2,0.2,0.2,0.8,0.2","2","",""
"","html-keyboard-response","211","107212","0.0-211.0","3JPSL1DZ5TLA0070RN39PAX1K31NAH","A3V2XCDF45VN9X","3UDTAB6HH6LRO17U79I9TKUGYFV09C","","null","<img src=""img/land5.png"" style=""width:200px;border:14px solid red;"">","null","","","","","","","","","",""
"","image-keyboard-response","212","107652","0.0-212.0","3JPSL1DZ5TLA0070RN39PAX1K31NAH","A3V2XCDF45VN9X","3UDTAB6HH6LRO17U79I9TKUGYFV09C","","439.40000009536743","img/land5.png","76","440.2000000476837","3","1","1","2","0.8,0.2,0.2,0.2,0.8,0.2,0.2,0.2,0.8","0.2,0.2,0.8,0.8,0.2,0.2,0.2,0.8,0.2","2","",""
"","html-keyboard-response","213","107958","0.0-213.0","3JPSL1DZ5TLA0070RN39PAX1K31NAH","A3V2XCDF45VN9X","3UDTAB6HH6LRO17U79I9TKUGYFV09C","","null","<img src=""img/land5.png"" style=""width:200px; border:14px solid green;"">","null","","","","","","","","","",""
"","image-keyboard-response","214","108366","0.0-214.0","3JPSL1DZ5TLA0070RN39PAX1K31NAH","A3V2XCDF45VN9X","3UDTAB6HH6LRO17U79I9TKUGYFV09C","","406.30000019073486","img/land5.png","76","407","3","1","1","2","0.8,0.2,0.2,0.2,0.8,0.2,0.2,0.2,0.8","0.2,0.2,0.8,0.8,0.2,0.2,0.2,0.8,0.2","2","",""
"","html-keyboard-response","215","108672","0.0-215.0","3JPSL1DZ5TLA0070RN39PAX1K31NAH","A3V2XCDF45VN9X","3UDTAB6HH6LRO17U79I9TKUGYFV09C","","null","<img src=""img/land5.png"" style=""width:200px; border:14px solid green;"">","null","","","","","","","","","",""
"","image-keyboard-response","216","109083","0.0-216.0","3JPSL1DZ5TLA0070RN39PAX1K31NAH","A3V2XCDF45VN9X","3UDTAB6HH6LRO17U79I9TKUGYFV09C","","410.2999999523163","img/land5.png","76","411.09999990463257","3","1","1","2","0.8,0.2,0.2,0.2,0.8,0.2,0.2,0.2,0.8","0.2,0.2,0.8,0.8,0.2,0.2,0.2,0.8,0.2","2","",""
"","html-keyboard-response","217","109389","0.0-217.0","3JPSL1DZ5TLA0070RN39PAX1K31NAH","A3V2XCDF45VN9X","3UDTAB6HH6LRO17U79I9TKUGYFV09C","","null","<img src=""img/land5.png"" style=""width:200px; border:14px solid green;"">","null","","","","","","","","","",""
"","image-keyboard-response","218","110006","0.0-218.0","3JPSL1DZ5TLA0070RN39PAX1K31NAH","A3V2XCDF45VN9X","3UDTAB6HH6LRO17U79I9TKUGYFV09C","","615.7999999523163","img/land3.png","74","616.5999999046326","1","0","2","2","0.8,0.2,0.2,0.2,0.8,0.2,0.2,0.2,0.8","0.2,0.2,0.8,0.8,0.2,0.2,0.2,0.8,0.2","2","",""
"","html-keyboard-response","219","110310","0.0-219.0","3JPSL1DZ5TLA0070RN39PAX1K31NAH","A3V2XCDF45VN9X","3UDTAB6HH6LRO17U79I9TKUGYFV09C","","null","<img src=""img/land3.png"" style=""width:200px;border:14px solid red;"">","null","","","","","","","","","",""
"","image-keyboard-response","220","110954","0.0-220.0","3JPSL1DZ5TLA0070RN39PAX1K31NAH","A3V2XCDF45VN9X","3UDTAB6HH6LRO17U79I9TKUGYFV09C","","643.0999999046326","img/land4.png","75","644","2","0","3","2","0.8,0.2,0.2,0.2,0.8,0.2,0.2,0.2,0.8","0.2,0.2,0.8,0.8,0.2,0.2,0.2,0.8,0.2","2","",""
"","html-keyboard-response","221","111261","0.0-221.0","3JPSL1DZ5TLA0070RN39PAX1K31NAH","A3V2XCDF45VN9X","3UDTAB6HH6LRO17U79I9TKUGYFV09C","","null","<img src=""img/land4.png"" style=""width:200px;border:14px solid red;"">","null","","","","","","","","","",""
"","image-keyboard-response","222","111866","0.0-222.0","3JPSL1DZ5TLA0070RN39PAX1K31NAH","A3V2XCDF45VN9X","3UDTAB6HH6LRO17U79I9TKUGYFV09C","","604.4000000953674","img/land5.png","76","605.2000000476837","3","1","1","2","0.8,0.2,0.2,0.2,0.8,0.2,0.2,0.2,0.8","0.2,0.2,0.8,0.8,0.2,0.2,0.2,0.8,0.2","2","",""
"","html-keyboard-response","223","112172","0.0-223.0","3JPSL1DZ5TLA0070RN39PAX1K31NAH","A3V2XCDF45VN9X","3UDTAB6HH6LRO17U79I9TKUGYFV09C","","null","<img src=""img/land5.png"" style=""width:200px; border:14px solid green;"">","null","","","","","","","","","",""
"","image-keyboard-response","224","112514","0.0-224.0","3JPSL1DZ5TLA0070RN39PAX1K31NAH","A3V2XCDF45VN9X","3UDTAB6HH6LRO17U79I9TKUGYFV09C","","341.19999980926514","img/land3.png","76","341.90000009536743","3","1","2","2","0.8,0.2,0.2,0.2,0.8,0.2,0.2,0.2,0.8","0.2,0.2,0.8,0.8,0.2,0.2,0.2,0.8,0.2","2","",""
"","html-keyboard-response","225","112822","0.0-225.0","3JPSL1DZ5TLA0070RN39PAX1K31NAH","A3V2XCDF45VN9X","3UDTAB6HH6LRO17U79I9TKUGYFV09C","","null","<img src=""img/land3.png"" style=""width:200px; border:14px solid green;"">","null","","","","","","","","","",""
"","image-keyboard-response","226","114188","0.0-226.0","3JPSL1DZ5TLA0070RN39PAX1K31NAH","A3V2XCDF45VN9X","3UDTAB6HH6LRO17U79I9TKUGYFV09C","","1364.5","img/land5.png","76","1365.3000001907349","3","1","1","2","0.8,0.2,0.2,0.2,0.8,0.2,0.2,0.2,0.8","0.2,0.2,0.8,0.8,0.2,0.2,0.2,0.8,0.2","2","",""
"","html-keyboard-response","227","114493","0.0-227.0","3JPSL1DZ5TLA0070RN39PAX1K31NAH","A3V2XCDF45VN9X","3UDTAB6HH6LRO17U79I9TKUGYFV09C","","null","<img src=""img/land5.png"" style=""width:200px; border:14px solid green;"">","null","","","","","","","","","",""
"","image-keyboard-response","228","114899","0.0-228.0","3JPSL1DZ5TLA0070RN39PAX1K31NAH","A3V2XCDF45VN9X","3UDTAB6HH6LRO17U79I9TKUGYFV09C","","405","img/land5.png","76","405.7000000476837","3","1","1","2","0.8,0.2,0.2,0.2,0.8,0.2,0.2,0.2,0.8","0.2,0.2,0.8,0.8,0.2,0.2,0.2,0.8,0.2","2","",""
"","html-keyboard-response","229","115208","0.0-229.0","3JPSL1DZ5TLA0070RN39PAX1K31NAH","A3V2XCDF45VN9X","3UDTAB6HH6LRO17U79I9TKUGYFV09C","","null","<img src=""img/land5.png"" style=""width:200px; border:14px solid green;"">","null","","","","","","","","","",""
"","image-keyboard-response","230","115631","0.0-230.0","3JPSL1DZ5TLA0070RN39PAX1K31NAH","A3V2XCDF45VN9X","3UDTAB6HH6LRO17U79I9TKUGYFV09C","","421.7999999523163","img/land5.png","76","422.40000009536743","3","1","1","2","0.8,0.2,0.2,0.2,0.8,0.2,0.2,0.2,0.8","0.2,0.2,0.8,0.8,0.2,0.2,0.2,0.8,0.2","2","",""
"","html-keyboard-response","231","115942","0.0-231.0","3JPSL1DZ5TLA0070RN39PAX1K31NAH","A3V2XCDF45VN9X","3UDTAB6HH6LRO17U79I9TKUGYFV09C","","null","<img src=""img/land5.png"" style=""width:200px; border:14px solid green;"">","null","","","","","","","","","",""
"","image-keyboard-response","232","116524","0.0-232.0","3JPSL1DZ5TLA0070RN39PAX1K31NAH","A3V2XCDF45VN9X","3UDTAB6HH6LRO17U79I9TKUGYFV09C","","580.1000001430511","img/land5.png","76","580.8999998569489","3","1","1","2","0.8,0.2,0.2,0.2,0.8,0.2,0.2,0.2,0.8","0.2,0.2,0.8,0.8,0.2,0.2,0.2,0.8,0.2","2","",""
"","html-keyboard-response","233","116829","0.0-233.0","3JPSL1DZ5TLA0070RN39PAX1K31NAH","A3V2XCDF45VN9X","3UDTAB6HH6LRO17U79I9TKUGYFV09C","","null","<img src=""img/land5.png"" style=""width:200px; border:14px solid green;"">","null","","","","","","","","","",""
"","image-keyboard-response","234","117243","0.0-234.0","3JPSL1DZ5TLA0070RN39PAX1K31NAH","A3V2XCDF45VN9X","3UDTAB6HH6LRO17U79I9TKUGYFV09C","","413","img/land5.png","76","413.90000009536743","3","1","1","2","0.8,0.2,0.2,0.2,0.8,0.2,0.2,0.2,0.8","0.2,0.2,0.8,0.8,0.2,0.2,0.2,0.8,0.2","2","",""
"","html-keyboard-response","235","117548","0.0-235.0","3JPSL1DZ5TLA0070RN39PAX1K31NAH","A3V2XCDF45VN9X","3UDTAB6HH6LRO17U79I9TKUGYFV09C","","null","<img src=""img/land5.png"" style=""width:200px; border:14px solid green;"">","null","","","","","","","","","",""
"","image-keyboard-response","236","118484","0.0-236.0","3JPSL1DZ5TLA0070RN39PAX1K31NAH","A3V2XCDF45VN9X","3UDTAB6HH6LRO17U79I9TKUGYFV09C","","934.9000000953674","img/land5.png","76","935.7999999523163","3","0","1","2","0.8,0.2,0.2,0.2,0.8,0.2,0.2,0.2,0.8","0.2,0.2,0.8,0.8,0.2,0.2,0.2,0.8,0.2","2","",""
"","html-keyboard-response","237","118791","0.0-237.0","3JPSL1DZ5TLA0070RN39PAX1K31NAH","A3V2XCDF45VN9X","3UDTAB6HH6LRO17U79I9TKUGYFV09C","","null","<img src=""img/land5.png"" style=""width:200px;border:14px solid red;"">","null","","","","","","","","","",""
"","image-keyboard-response","238","119292","0.0-238.0","3JPSL1DZ5TLA0070RN39PAX1K31NAH","A3V2XCDF45VN9X","3UDTAB6HH6LRO17U79I9TKUGYFV09C","","499.89999985694885","img/land5.png","76","500.7000000476837","3","1","1","2","0.8,0.2,0.2,0.2,0.8,0.2,0.2,0.2,0.8","0.2,0.2,0.8,0.8,0.2,0.2,0.2,0.8,0.2","2","",""
"","html-keyboard-response","239","119597","0.0-239.0","3JPSL1DZ5TLA0070RN39PAX1K31NAH","A3V2XCDF45VN9X","3UDTAB6HH6LRO17U79I9TKUGYFV09C","","null","<img src=""img/land5.png"" style=""width:200px; border:14px solid green;"">","null","","","","","","","","","",""
"","image-keyboard-response","240","120056","0.0-240.0","3JPSL1DZ5TLA0070RN39PAX1K31NAH","A3V2XCDF45VN9X","3UDTAB6HH6LRO17U79I9TKUGYFV09C","","458.2999999523163","img/land5.png","76","459","3","1","1","2","0.8,0.2,0.2,0.2,0.8,0.2,0.2,0.2,0.8","0.2,0.2,0.8,0.8,0.2,0.2,0.2,0.8,0.2","2","",""
"","html-keyboard-response","241","120363","0.0-241.0","3JPSL1DZ5TLA0070RN39PAX1K31NAH","A3V2XCDF45VN9X","3UDTAB6HH6LRO17U79I9TKUGYFV09C","","null","<img src=""img/land5.png"" style=""width:200px; border:14px solid green;"">","null","","","","","","","","","",""
"","image-keyboard-response","242","121023","0.0-242.0","3JPSL1DZ5TLA0070RN39PAX1K31NAH","A3V2XCDF45VN9X","3UDTAB6HH6LRO17U79I9TKUGYFV09C","","659.2000000476837","img/land3.png","74","659.7999999523163","1","0","2","2","0.8,0.2,0.2,0.2,0.8,0.2,0.2,0.2,0.8","0.2,0.2,0.8,0.8,0.2,0.2,0.2,0.8,0.2","2","",""
"","html-keyboard-response","243","121333","0.0-243.0","3JPSL1DZ5TLA0070RN39PAX1K31NAH","A3V2XCDF45VN9X","3UDTAB6HH6LRO17U79I9TKUGYFV09C","","null","<img src=""img/land3.png"" style=""width:200px;border:14px solid red;"">","null","","","","","","","","","",""
"","image-keyboard-response","244","122049","0.0-244.0","3JPSL1DZ5TLA0070RN39PAX1K31NAH","A3V2XCDF45VN9X","3UDTAB6HH6LRO17U79I9TKUGYFV09C","","715","img/land5.png","76","715.7000000476837","3","1","1","2","0.8,0.2,0.2,0.2,0.8,0.2,0.2,0.2,0.8","0.2,0.2,0.8,0.8,0.2,0.2,0.2,0.8,0.2","2","",""
"","html-keyboard-response","245","122359","0.0-245.0","3JPSL1DZ5TLA0070RN39PAX1K31NAH","A3V2XCDF45VN9X","3UDTAB6HH6LRO17U79I9TKUGYFV09C","","null","<img src=""img/land5.png"" style=""width:200px; border:14px solid green;"">","null","","","","","","","","","",""
"","image-keyboard-response","246","122764","0.0-246.0","3JPSL1DZ5TLA0070RN39PAX1K31NAH","A3V2XCDF45VN9X","3UDTAB6HH6LRO17U79I9TKUGYFV09C","","403.5","img/land5.png","76","404.2000000476837","3","0","1","2","0.8,0.2,0.2,0.2,0.8,0.2,0.2,0.2,0.8","0.2,0.2,0.8,0.8,0.2,0.2,0.2,0.8,0.2","2","",""
"","html-keyboard-response","247","123068","0.0-247.0","3JPSL1DZ5TLA0070RN39PAX1K31NAH","A3V2XCDF45VN9X","3UDTAB6HH6LRO17U79I9TKUGYFV09C","","null","<img src=""img/land5.png"" style=""width:200px;border:14px solid red;"">","null","","","","","","","","","",""
"","image-keyboard-response","248","123574","0.0-248.0","3JPSL1DZ5TLA0070RN39PAX1K31NAH","A3V2XCDF45VN9X","3UDTAB6HH6LRO17U79I9TKUGYFV09C","","504.90000009536743","img/land5.png","76","506.10000014305115","3","0","1","2","0.8,0.2,0.2,0.2,0.8,0.2,0.2,0.2,0.8","0.2,0.2,0.8,0.8,0.2,0.2,0.2,0.8,0.2","2","",""
"","html-keyboard-response","249","123885","0.0-249.0","3JPSL1DZ5TLA0070RN39PAX1K31NAH","A3V2XCDF45VN9X","3UDTAB6HH6LRO17U79I9TKUGYFV09C","","null","<img src=""img/land5.png"" style=""width:200px;border:14px solid red;"">","null","","","","","","","","","",""
"","image-keyboard-response","250","124479","0.0-250.0","3JPSL1DZ5TLA0070RN39PAX1K31NAH","A3V2XCDF45VN9X","3UDTAB6HH6LRO17U79I9TKUGYFV09C","","593.3000001907349","img/land5.png","76","594.0999999046326","3","1","1","2","0.8,0.2,0.2,0.2,0.8,0.2,0.2,0.2,0.8","0.2,0.2,0.8,0.8,0.2,0.2,0.2,0.8,0.2","2","",""
"","html-keyboard-response","251","124791","0.0-251.0","3JPSL1DZ5TLA0070RN39PAX1K31NAH","A3V2XCDF45VN9X","3UDTAB6HH6LRO17U79I9TKUGYFV09C","","null","<img src=""img/land5.png"" style=""width:200px; border:14px solid green;"">","null","","","","","","","","","",""
"","image-keyboard-response","252","125182","0.0-252.0","3JPSL1DZ5TLA0070RN39PAX1K31NAH","A3V2XCDF45VN9X","3UDTAB6HH6LRO17U79I9TKUGYFV09C","","390.10000014305115","img/land5.png","76","391","3","0","1","2","0.8,0.2,0.2,0.2,0.8,0.2,0.2,0.2,0.8","0.2,0.2,0.8,0.8,0.2,0.2,0.2,0.8,0.2","2","",""
"","html-keyboard-response","253","125484","0.0-253.0","3JPSL1DZ5TLA0070RN39PAX1K31NAH","A3V2XCDF45VN9X","3UDTAB6HH6LRO17U79I9TKUGYFV09C","","null","<img src=""img/land5.png"" style=""width:200px;border:14px solid red;"">","null","","","","","","","","","",""
"","image-keyboard-response","254","126257","0.0-254.0","3JPSL1DZ5TLA0070RN39PAX1K31NAH","A3V2XCDF45VN9X","3UDTAB6HH6LRO17U79I9TKUGYFV09C","","771.8999998569489","img/land3.png","74","772.5","1","0","2","2","0.8,0.2,0.2,0.2,0.8,0.2,0.2,0.2,0.8","0.2,0.2,0.8,0.8,0.2,0.2,0.2,0.8,0.2","2","",""
"","html-keyboard-response","255","126568","0.0-255.0","3JPSL1DZ5TLA0070RN39PAX1K31NAH","A3V2XCDF45VN9X","3UDTAB6HH6LRO17U79I9TKUGYFV09C","","null","<img src=""img/land3.png"" style=""width:200px;border:14px solid red;"">","null","","","","","","","","","",""
"","image-keyboard-response","256","127287","0.0-256.0","3JPSL1DZ5TLA0070RN39PAX1K31NAH","A3V2XCDF45VN9X","3UDTAB6HH6LRO17U79I9TKUGYFV09C","","718.2000000476837","img/land5.png","76","719","3","1","1","2","0.8,0.2,0.2,0.2,0.8,0.2,0.2,0.2,0.8","0.2,0.2,0.8,0.8,0.2,0.2,0.2,0.8,0.2","2","",""
"","html-keyboard-response","257","127599","0.0-257.0","3JPSL1DZ5TLA0070RN39PAX1K31NAH","A3V2XCDF45VN9X","3UDTAB6HH6LRO17U79I9TKUGYFV09C","","null","<img src=""img/land5.png"" style=""width:200px; border:14px solid green;"">","null","","","","","","","","","",""
"","image-keyboard-response","258","128529","0.0-258.0","3JPSL1DZ5TLA0070RN39PAX1K31NAH","A3V2XCDF45VN9X","3UDTAB6HH6LRO17U79I9TKUGYFV09C","","928.8999998569489","img/land3.png","74","930","1","1","2","2","0.8,0.2,0.2,0.2,0.8,0.2,0.2,0.2,0.8","0.2,0.2,0.8,0.8,0.2,0.2,0.2,0.8,0.2","2","",""
"","html-keyboard-response","259","128840","0.0-259.0","3JPSL1DZ5TLA0070RN39PAX1K31NAH","A3V2XCDF45VN9X","3UDTAB6HH6LRO17U79I9TKUGYFV09C","","null","<img src=""img/land3.png"" style=""width:200px; border:14px solid green;"">","null","","","","","","","","","",""
"","image-keyboard-response","260","129279","0.0-260.0","3JPSL1DZ5TLA0070RN39PAX1K31NAH","A3V2XCDF45VN9X","3UDTAB6HH6LRO17U79I9TKUGYFV09C","","437.80000019073486","img/land3.png","74","438.39999985694885","1","1","2","2","0.8,0.2,0.2,0.2,0.8,0.2,0.2,0.2,0.8","0.2,0.2,0.8,0.8,0.2,0.2,0.2,0.8,0.2","2","",""
"","html-keyboard-response","261","129592","0.0-261.0","3JPSL1DZ5TLA0070RN39PAX1K31NAH","A3V2XCDF45VN9X","3UDTAB6HH6LRO17U79I9TKUGYFV09C","","null","<img src=""img/land3.png"" style=""width:200px; border:14px solid green;"">","null","","","","","","","","","",""
"","image-keyboard-response","262","130284","0.0-262.0","3JPSL1DZ5TLA0070RN39PAX1K31NAH","A3V2XCDF45VN9X","3UDTAB6HH6LRO17U79I9TKUGYFV09C","","691.1999998092651","img/land5.png","76","692","3","1","1","2","0.8,0.2,0.2,0.2,0.8,0.2,0.2,0.2,0.8","0.2,0.2,0.8,0.8,0.2,0.2,0.2,0.8,0.2","2","",""
"","html-keyboard-response","263","130591","0.0-263.0","3JPSL1DZ5TLA0070RN39PAX1K31NAH","A3V2XCDF45VN9X","3UDTAB6HH6LRO17U79I9TKUGYFV09C","","null","<img src=""img/land5.png"" style=""width:200px; border:14px solid green;"">","null","","","","","","","","","",""
"","image-keyboard-response","264","131320","0.0-264.0","3JPSL1DZ5TLA0070RN39PAX1K31NAH","A3V2XCDF45VN9X","3UDTAB6HH6LRO17U79I9TKUGYFV09C","","727.7000000476837","img/land4.png","75","728.5999999046326","2","1","3","2","0.8,0.2,0.2,0.2,0.8,0.2,0.2,0.2,0.8","0.2,0.2,0.8,0.8,0.2,0.2,0.2,0.8,0.2","2","",""
"","html-keyboard-response","265","131629","0.0-265.0","3JPSL1DZ5TLA0070RN39PAX1K31NAH","A3V2XCDF45VN9X","3UDTAB6HH6LRO17U79I9TKUGYFV09C","","null","<img src=""img/land4.png"" style=""width:200px; border:14px solid green;"">","null","","","","","","","","","",""
"","image-keyboard-response","266","132071","0.0-266.0","3JPSL1DZ5TLA0070RN39PAX1K31NAH","A3V2XCDF45VN9X","3UDTAB6HH6LRO17U79I9TKUGYFV09C","","440.7999999523163","img/land4.png","75","441.5","2","1","3","2","0.8,0.2,0.2,0.2,0.8,0.2,0.2,0.2,0.8","0.2,0.2,0.8,0.8,0.2,0.2,0.2,0.8,0.2","2","",""
"","html-keyboard-response","267","132381","0.0-267.0","3JPSL1DZ5TLA0070RN39PAX1K31NAH","A3V2XCDF45VN9X","3UDTAB6HH6LRO17U79I9TKUGYFV09C","","null","<img src=""img/land4.png"" style=""width:200px; border:14px solid green;"">","null","","","","","","","","","",""
"","image-keyboard-response","268","132749","0.0-268.0","3JPSL1DZ5TLA0070RN39PAX1K31NAH","A3V2XCDF45VN9X","3UDTAB6HH6LRO17U79I9TKUGYFV09C","","366.2999999523163","img/land4.png","75","367.09999990463257","2","1","3","2","0.8,0.2,0.2,0.2,0.8,0.2,0.2,0.2,0.8","0.2,0.2,0.8,0.8,0.2,0.2,0.2,0.8,0.2","2","",""
"","html-keyboard-response","269","133053","0.0-269.0","3JPSL1DZ5TLA0070RN39PAX1K31NAH","A3V2XCDF45VN9X","3UDTAB6HH6LRO17U79I9TKUGYFV09C","","null","<img src=""img/land4.png"" style=""width:200px; border:14px solid green;"">","null","","","","","","","","","",""
"","image-keyboard-response","270","133595","0.0-270.0","3JPSL1DZ5TLA0070RN39PAX1K31NAH","A3V2XCDF45VN9X","3UDTAB6HH6LRO17U79I9TKUGYFV09C","","540.5","img/land5.png","76","541.6000001430511","3","0","1","2","0.8,0.2,0.2,0.2,0.8,0.2,0.2,0.2,0.8","0.2,0.2,0.8,0.8,0.2,0.2,0.2,0.8,0.2","2","",""
"","html-keyboard-response","271","133904","0.0-271.0","3JPSL1DZ5TLA0070RN39PAX1K31NAH","A3V2XCDF45VN9X","3UDTAB6HH6LRO17U79I9TKUGYFV09C","","null","<img src=""img/land5.png"" style=""width:200px;border:14px solid red;"">","null","","","","","","","","","",""
"","image-keyboard-response","272","134296","0.0-272.0","3JPSL1DZ5TLA0070RN39PAX1K31NAH","A3V2XCDF45VN9X","3UDTAB6HH6LRO17U79I9TKUGYFV09C","","391.5","img/land5.png","76","392.2000000476837","3","1","1","2","0.8,0.2,0.2,0.2,0.8,0.2,0.2,0.2,0.8","0.2,0.2,0.8,0.8,0.2,0.2,0.2,0.8,0.2","2","",""
"","html-keyboard-response","273","134605","0.0-273.0","3JPSL1DZ5TLA0070RN39PAX1K31NAH","A3V2XCDF45VN9X","3UDTAB6HH6LRO17U79I9TKUGYFV09C","","null","<img src=""img/land5.png"" style=""width:200px; border:14px solid green;"">","null","","","","","","","","","",""
"","image-keyboard-response","274","135001","0.0-274.0","3JPSL1DZ5TLA0070RN39PAX1K31NAH","A3V2XCDF45VN9X","3UDTAB6HH6LRO17U79I9TKUGYFV09C","","394.59999990463257","img/land5.png","76","395.39999985694885","3","1","1","2","0.8,0.2,0.2,0.2,0.8,0.2,0.2,0.2,0.8","0.2,0.2,0.8,0.8,0.2,0.2,0.2,0.8,0.2","2","",""
"","html-keyboard-response","275","135309","0.0-275.0","3JPSL1DZ5TLA0070RN39PAX1K31NAH","A3V2XCDF45VN9X","3UDTAB6HH6LRO17U79I9TKUGYFV09C","","null","<img src=""img/land5.png"" style=""width:200px; border:14px solid green;"">","null","","","","","","","","","",""
"","image-keyboard-response","276","135965","0.0-276.0","3JPSL1DZ5TLA0070RN39PAX1K31NAH","A3V2XCDF45VN9X","3UDTAB6HH6LRO17U79I9TKUGYFV09C","","655.2000000476837","img/land4.png","75","656","2","0","3","2","0.8,0.2,0.2,0.2,0.8,0.2,0.2,0.2,0.8","0.2,0.2,0.8,0.8,0.2,0.2,0.2,0.8,0.2","2","",""
"","html-keyboard-response","277","136274","0.0-277.0","3JPSL1DZ5TLA0070RN39PAX1K31NAH","A3V2XCDF45VN9X","3UDTAB6HH6LRO17U79I9TKUGYFV09C","","null","<img src=""img/land4.png"" style=""width:200px;border:14px solid red;"">","null","","","","","","","","","",""
"","image-keyboard-response","278","136866","0.0-278.0","3JPSL1DZ5TLA0070RN39PAX1K31NAH","A3V2XCDF45VN9X","3UDTAB6HH6LRO17U79I9TKUGYFV09C","","591.6000001430511","img/land3.png","74","592.2999999523163","1","1","2","2","0.8,0.2,0.2,0.2,0.8,0.2,0.2,0.2,0.8","0.2,0.2,0.8,0.8,0.2,0.2,0.2,0.8,0.2","2","",""
"","html-keyboard-response","279","137173","0.0-279.0","3JPSL1DZ5TLA0070RN39PAX1K31NAH","A3V2XCDF45VN9X","3UDTAB6HH6LRO17U79I9TKUGYFV09C","","null","<img src=""img/land3.png"" style=""width:200px; border:14px solid green;"">","null","","","","","","","","","",""
"","image-keyboard-response","280","137811","0.0-280.0","3JPSL1DZ5TLA0070RN39PAX1K31NAH","A3V2XCDF45VN9X","3UDTAB6HH6LRO17U79I9TKUGYFV09C","","637.1000001430511","img/land4.png","75","637.7999999523163","2","1","3","2","0.8,0.2,0.2,0.2,0.8,0.2,0.2,0.2,0.8","0.2,0.2,0.8,0.8,0.2,0.2,0.2,0.8,0.2","2","",""
"","html-keyboard-response","281","138120","0.0-281.0","3JPSL1DZ5TLA0070RN39PAX1K31NAH","A3V2XCDF45VN9X","3UDTAB6HH6LRO17U79I9TKUGYFV09C","","null","<img src=""img/land4.png"" style=""width:200px; border:14px solid green;"">","null","","","","","","","","","",""
"","image-keyboard-response","282","138675","0.0-282.0","3JPSL1DZ5TLA0070RN39PAX1K31NAH","A3V2XCDF45VN9X","3UDTAB6HH6LRO17U79I9TKUGYFV09C","","554.5","img/land5.png","76","555.1999998092651","3","1","1","2","0.8,0.2,0.2,0.2,0.8,0.2,0.2,0.2,0.8","0.2,0.2,0.8,0.8,0.2,0.2,0.2,0.8,0.2","2","",""
"","html-keyboard-response","283","138985","0.0-283.0","3JPSL1DZ5TLA0070RN39PAX1K31NAH","A3V2XCDF45VN9X","3UDTAB6HH6LRO17U79I9TKUGYFV09C","","null","<img src=""img/land5.png"" style=""width:200px; border:14px solid green;"">","null","","","","","","","","","",""
"","image-keyboard-response","284","139456","0.0-284.0","3JPSL1DZ5TLA0070RN39PAX1K31NAH","A3V2XCDF45VN9X","3UDTAB6HH6LRO17U79I9TKUGYFV09C","","470.30000019073486","img/land5.png","76","471","3","1","1","2","0.8,0.2,0.2,0.2,0.8,0.2,0.2,0.2,0.8","0.2,0.2,0.8,0.8,0.2,0.2,0.2,0.8,0.2","2","",""
"","html-keyboard-response","285","139768","0.0-285.0","3JPSL1DZ5TLA0070RN39PAX1K31NAH","A3V2XCDF45VN9X","3UDTAB6HH6LRO17U79I9TKUGYFV09C","","null","<img src=""img/land5.png"" style=""width:200px; border:14px solid green;"">","null","","","","","","","","","",""
"","image-keyboard-response","286","139977","0.0-286.0","3JPSL1DZ5TLA0070RN39PAX1K31NAH","A3V2XCDF45VN9X","3UDTAB6HH6LRO17U79I9TKUGYFV09C","","207.5","img/land5.png","76","208.90000009536743","3","1","1","2","0.8,0.2,0.2,0.2,0.8,0.2,0.2,0.2,0.8","0.2,0.2,0.8,0.8,0.2,0.2,0.2,0.8,0.2","2","",""
"","html-keyboard-response","287","140285","0.0-287.0","3JPSL1DZ5TLA0070RN39PAX1K31NAH","A3V2XCDF45VN9X","3UDTAB6HH6LRO17U79I9TKUGYFV09C","","null","<img src=""img/land5.png"" style=""width:200px; border:14px solid green;"">","null","","","","","","","","","",""
"","image-keyboard-response","288","141012","0.0-288.0","3JPSL1DZ5TLA0070RN39PAX1K31NAH","A3V2XCDF45VN9X","3UDTAB6HH6LRO17U79I9TKUGYFV09C","","725.7000000476837","img/land3.png","75","726.5","2","1","2","2","0.8,0.2,0.2,0.2,0.8,0.2,0.2,0.2,0.8","0.2,0.2,0.8,0.8,0.2,0.2,0.2,0.8,0.2","2","",""
"","html-keyboard-response","289","141320","0.0-289.0","3JPSL1DZ5TLA0070RN39PAX1K31NAH","A3V2XCDF45VN9X","3UDTAB6HH6LRO17U79I9TKUGYFV09C","","null","<img src=""img/land3.png"" style=""width:200px; border:14px solid green;"">","null","","","","","","","","","",""
"","image-keyboard-response","290","142266","0.0-290.0","3JPSL1DZ5TLA0070RN39PAX1K31NAH","A3V2XCDF45VN9X","3UDTAB6HH6LRO17U79I9TKUGYFV09C","","944.7000000476837","img/land5.png","76","945.5","3","1","1","2","0.8,0.2,0.2,0.2,0.8,0.2,0.2,0.2,0.8","0.2,0.2,0.8,0.8,0.2,0.2,0.2,0.8,0.2","2","",""
"","html-keyboard-response","291","142574","0.0-291.0","3JPSL1DZ5TLA0070RN39PAX1K31NAH","A3V2XCDF45VN9X","3UDTAB6HH6LRO17U79I9TKUGYFV09C","","null","<img src=""img/land5.png"" style=""width:200px; border:14px solid green;"">","null","","","","","","","","","",""
"","image-keyboard-response","292","143427","0.0-292.0","3JPSL1DZ5TLA0070RN39PAX1K31NAH","A3V2XCDF45VN9X","3UDTAB6HH6LRO17U79I9TKUGYFV09C","","852.5","img/land3.png","74","853.2999999523163","1","1","2","2","0.8,0.2,0.2,0.2,0.8,0.2,0.2,0.2,0.8","0.2,0.2,0.8,0.8,0.2,0.2,0.2,0.8,0.2","2","",""
"","html-keyboard-response","293","143736","0.0-293.0","3JPSL1DZ5TLA0070RN39PAX1K31NAH","A3V2XCDF45VN9X","3UDTAB6HH6LRO17U79I9TKUGYFV09C","","null","<img src=""img/land3.png"" style=""width:200px; border:14px solid green;"">","null","","","","","","","","","",""
"","image-keyboard-response","294","144204","0.0-294.0","3JPSL1DZ5TLA0070RN39PAX1K31NAH","A3V2XCDF45VN9X","3UDTAB6HH6LRO17U79I9TKUGYFV09C","","466.90000009536743","img/land3.png","74","467.7999999523163","1","1","2","2","0.8,0.2,0.2,0.2,0.8,0.2,0.2,0.2,0.8","0.2,0.2,0.8,0.8,0.2,0.2,0.2,0.8,0.2","2","",""
"","html-keyboard-response","295","144508","0.0-295.0","3JPSL1DZ5TLA0070RN39PAX1K31NAH","A3V2XCDF45VN9X","3UDTAB6HH6LRO17U79I9TKUGYFV09C","","null","<img src=""img/land3.png"" style=""width:200px; border:14px solid green;"">","null","","","","","","","","","",""
"","image-keyboard-response","296","145080","0.0-296.0","3JPSL1DZ5TLA0070RN39PAX1K31NAH","A3V2XCDF45VN9X","3UDTAB6HH6LRO17U79I9TKUGYFV09C","","570.2999999523163","img/land4.png","75","571.0999999046326","2","1","3","2","0.8,0.2,0.2,0.2,0.8,0.2,0.2,0.2,0.8","0.2,0.2,0.8,0.8,0.2,0.2,0.2,0.8,0.2","2","",""
"","html-keyboard-response","297","145392","0.0-297.0","3JPSL1DZ5TLA0070RN39PAX1K31NAH","A3V2XCDF45VN9X","3UDTAB6HH6LRO17U79I9TKUGYFV09C","","null","<img src=""img/land4.png"" style=""width:200px; border:14px solid green;"">","null","","","","","","","","","",""
"","image-keyboard-response","298","146178","0.0-298.0","3JPSL1DZ5TLA0070RN39PAX1K31NAH","A3V2XCDF45VN9X","3UDTAB6HH6LRO17U79I9TKUGYFV09C","","785.0999999046326","img/land3.png","74","785.7000000476837","1","1","2","2","0.8,0.2,0.2,0.2,0.8,0.2,0.2,0.2,0.8","0.2,0.2,0.8,0.8,0.2,0.2,0.2,0.8,0.2","2","",""
"","html-keyboard-response","299","146488","0.0-299.0","3JPSL1DZ5TLA0070RN39PAX1K31NAH","A3V2XCDF45VN9X","3UDTAB6HH6LRO17U79I9TKUGYFV09C","","null","<img src=""img/land3.png"" style=""width:200px; border:14px solid green;"">","null","","","","","","","","","",""
"","image-keyboard-response","300","147203","0.0-300.0","3JPSL1DZ5TLA0070RN39PAX1K31NAH","A3V2XCDF45VN9X","3UDTAB6HH6LRO17U79I9TKUGYFV09C","","713.5","img/land5.png","76","714.2000000476837","3","1","1","2","0.8,0.2,0.2,0.2,0.8,0.2,0.2,0.2,0.8","0.2,0.2,0.8,0.8,0.2,0.2,0.2,0.8,0.2","2","",""
"","html-keyboard-response","301","147512","0.0-301.0","3JPSL1DZ5TLA0070RN39PAX1K31NAH","A3V2XCDF45VN9X","3UDTAB6HH6LRO17U79I9TKUGYFV09C","","null","<img src=""img/land5.png"" style=""width:200px; border:14px solid green;"">","null","","","","","","","","","",""
"","image-keyboard-response","302","148923","0.0-302.0","3JPSL1DZ5TLA0070RN39PAX1K31NAH","A3V2XCDF45VN9X","3UDTAB6HH6LRO17U79I9TKUGYFV09C","","1410.2000000476837","img/land1.png","74","1410.8999998569489","1","1","1","1","0.8,0.2,0.2,0.2,0.8,0.2,0.2,0.2,0.8","0.8,0.2,0.2,0.2,0.8,0.2,0.2,0.2,0.8","1","",""
"","html-keyboard-response","303","149234","0.0-303.0","3JPSL1DZ5TLA0070RN39PAX1K31NAH","A3V2XCDF45VN9X","3UDTAB6HH6LRO17U79I9TKUGYFV09C","","null","<img src=""img/land1.png"" style=""width:200px; border:14px solid green;"">","null","","","","","","","","","",""
"","image-keyboard-response","304","150269","0.0-304.0","3JPSL1DZ5TLA0070RN39PAX1K31NAH","A3V2XCDF45VN9X","3UDTAB6HH6LRO17U79I9TKUGYFV09C","","1034.2000000476837","img/land6.png","76","1035","3","0","2","1","0.8,0.2,0.2,0.2,0.8,0.2,0.2,0.2,0.8","0.8,0.2,0.2,0.2,0.8,0.2,0.2,0.2,0.8","1","",""
"","html-keyboard-response","305","150574","0.0-305.0","3JPSL1DZ5TLA0070RN39PAX1K31NAH","A3V2XCDF45VN9X","3UDTAB6HH6LRO17U79I9TKUGYFV09C","","null","<img src=""img/land6.png"" style=""width:200px;border:14px solid red;"">","null","","","","","","","","","",""
"","image-keyboard-response","306","151369","0.0-306.0","3JPSL1DZ5TLA0070RN39PAX1K31NAH","A3V2XCDF45VN9X","3UDTAB6HH6LRO17U79I9TKUGYFV09C","","793.4000000953674","img/land1.png","74","794.6000001430511","1","1","1","1","0.8,0.2,0.2,0.2,0.8,0.2,0.2,0.2,0.8","0.8,0.2,0.2,0.2,0.8,0.2,0.2,0.2,0.8","1","",""
"","html-keyboard-response","307","151672","0.0-307.0","3JPSL1DZ5TLA0070RN39PAX1K31NAH","A3V2XCDF45VN9X","3UDTAB6HH6LRO17U79I9TKUGYFV09C","","null","<img src=""img/land1.png"" style=""width:200px; border:14px solid green;"">","null","","","","","","","","","",""
"","image-keyboard-response","308","152088","0.0-308.0","3JPSL1DZ5TLA0070RN39PAX1K31NAH","A3V2XCDF45VN9X","3UDTAB6HH6LRO17U79I9TKUGYFV09C","","414.7000000476837","img/land1.png","74","415.2999999523163","1","1","1","1","0.8,0.2,0.2,0.2,0.8,0.2,0.2,0.2,0.8","0.8,0.2,0.2,0.2,0.8,0.2,0.2,0.2,0.8","1","",""
"","html-keyboard-response","309","152398","0.0-309.0","3JPSL1DZ5TLA0070RN39PAX1K31NAH","A3V2XCDF45VN9X","3UDTAB6HH6LRO17U79I9TKUGYFV09C","","null","<img src=""img/land1.png"" style=""width:200px; border:14px solid green;"">","null","","","","","","","","","",""
"","image-keyboard-response","310","152782","0.0-310.0","3JPSL1DZ5TLA0070RN39PAX1K31NAH","A3V2XCDF45VN9X","3UDTAB6HH6LRO17U79I9TKUGYFV09C","","382.2000000476837","img/land1.png","74","382.7000000476837","1","1","1","1","0.8,0.2,0.2,0.2,0.8,0.2,0.2,0.2,0.8","0.8,0.2,0.2,0.2,0.8,0.2,0.2,0.2,0.8","1","",""
"","html-keyboard-response","311","153086","0.0-311.0","3JPSL1DZ5TLA0070RN39PAX1K31NAH","A3V2XCDF45VN9X","3UDTAB6HH6LRO17U79I9TKUGYFV09C","","null","<img src=""img/land1.png"" style=""width:200px; border:14px solid green;"">","null","","","","","","","","","",""
"","image-keyboard-response","312","153789","0.0-312.0","3JPSL1DZ5TLA0070RN39PAX1K31NAH","A3V2XCDF45VN9X","3UDTAB6HH6LRO17U79I9TKUGYFV09C","","702","img/land2.png","75","702.7999999523163","2","0","3","1","0.8,0.2,0.2,0.2,0.8,0.2,0.2,0.2,0.8","0.8,0.2,0.2,0.2,0.8,0.2,0.2,0.2,0.8","1","",""
"","html-keyboard-response","313","154095","0.0-313.0","3JPSL1DZ5TLA0070RN39PAX1K31NAH","A3V2XCDF45VN9X","3UDTAB6HH6LRO17U79I9TKUGYFV09C","","null","<img src=""img/land2.png"" style=""width:200px;border:14px solid red;"">","null","","","","","","","","","",""
"","image-keyboard-response","314","154518","0.0-314.0","3JPSL1DZ5TLA0070RN39PAX1K31NAH","A3V2XCDF45VN9X","3UDTAB6HH6LRO17U79I9TKUGYFV09C","","421.7999999523163","img/land2.png","75","422.59999990463257","2","0","3","1","0.8,0.2,0.2,0.2,0.8,0.2,0.2,0.2,0.8","0.8,0.2,0.2,0.2,0.8,0.2,0.2,0.2,0.8","1","",""
"","html-keyboard-response","315","154824","0.0-315.0","3JPSL1DZ5TLA0070RN39PAX1K31NAH","A3V2XCDF45VN9X","3UDTAB6HH6LRO17U79I9TKUGYFV09C","","null","<img src=""img/land2.png"" style=""width:200px;border:14px solid red;"">","null","","","","","","","","","",""
"","image-keyboard-response","316","155751","0.0-316.0","3JPSL1DZ5TLA0070RN39PAX1K31NAH","A3V2XCDF45VN9X","3UDTAB6HH6LRO17U79I9TKUGYFV09C","","926.1999998092651","img/land1.png","74","926.8999998569489","1","1","1","1","0.8,0.2,0.2,0.2,0.8,0.2,0.2,0.2,0.8","0.8,0.2,0.2,0.2,0.8,0.2,0.2,0.2,0.8","1","",""
"","html-keyboard-response","317","156056","0.0-317.0","3JPSL1DZ5TLA0070RN39PAX1K31NAH","A3V2XCDF45VN9X","3UDTAB6HH6LRO17U79I9TKUGYFV09C","","null","<img src=""img/land1.png"" style=""width:200px; border:14px solid green;"">","null","","","","","","","","","",""
"","image-keyboard-response","318","157114","0.0-318.0","3JPSL1DZ5TLA0070RN39PAX1K31NAH","A3V2XCDF45VN9X","3UDTAB6HH6LRO17U79I9TKUGYFV09C","","1057.4000000953674","img/land2.png","75","1058.2000000476837","2","0","3","1","0.8,0.2,0.2,0.2,0.8,0.2,0.2,0.2,0.8","0.8,0.2,0.2,0.2,0.8,0.2,0.2,0.2,0.8","1","",""
"","html-keyboard-response","319","157422","0.0-319.0","3JPSL1DZ5TLA0070RN39PAX1K31NAH","A3V2XCDF45VN9X","3UDTAB6HH6LRO17U79I9TKUGYFV09C","","null","<img src=""img/land2.png"" style=""width:200px;border:14px solid red;"">","null","","","","","","","","","",""
"","image-keyboard-response","320","157898","0.0-320.0","3JPSL1DZ5TLA0070RN39PAX1K31NAH","A3V2XCDF45VN9X","3UDTAB6HH6LRO17U79I9TKUGYFV09C","","474.7999999523163","img/land2.png","75","475.5","2","0","3","1","0.8,0.2,0.2,0.2,0.8,0.2,0.2,0.2,0.8","0.8,0.2,0.2,0.2,0.8,0.2,0.2,0.2,0.8","1","",""
"","html-keyboard-response","321","158206","0.0-321.0","3JPSL1DZ5TLA0070RN39PAX1K31NAH","A3V2XCDF45VN9X","3UDTAB6HH6LRO17U79I9TKUGYFV09C","","null","<img src=""img/land2.png"" style=""width:200px;border:14px solid red;"">","null","","","","","","","","","",""
"","image-keyboard-response","322","158775","0.0-322.0","3JPSL1DZ5TLA0070RN39PAX1K31NAH","A3V2XCDF45VN9X","3UDTAB6HH6LRO17U79I9TKUGYFV09C","","567.5999999046326","img/land2.png","76","568.4000000953674","3","1","3","1","0.8,0.2,0.2,0.2,0.8,0.2,0.2,0.2,0.8","0.8,0.2,0.2,0.2,0.8,0.2,0.2,0.2,0.8","1","",""
"","html-keyboard-response","323","159081","0.0-323.0","3JPSL1DZ5TLA0070RN39PAX1K31NAH","A3V2XCDF45VN9X","3UDTAB6HH6LRO17U79I9TKUGYFV09C","","null","<img src=""img/land2.png"" style=""width:200px; border:14px solid green;"">","null","","","","","","","","","",""
"","image-keyboard-response","324","159781","0.0-324.0","3JPSL1DZ5TLA0070RN39PAX1K31NAH","A3V2XCDF45VN9X","3UDTAB6HH6LRO17U79I9TKUGYFV09C","","699.3999998569489","img/land6.png","75","700.2000000476837","2","1","2","1","0.8,0.2,0.2,0.2,0.8,0.2,0.2,0.2,0.8","0.8,0.2,0.2,0.2,0.8,0.2,0.2,0.2,0.8","1","",""
"","html-keyboard-response","325","160089","0.0-325.0","3JPSL1DZ5TLA0070RN39PAX1K31NAH","A3V2XCDF45VN9X","3UDTAB6HH6LRO17U79I9TKUGYFV09C","","null","<img src=""img/land6.png"" style=""width:200px; border:14px solid green;"">","null","","","","","","","","","",""
"","image-keyboard-response","326","160988","0.0-326.0","3JPSL1DZ5TLA0070RN39PAX1K31NAH","A3V2XCDF45VN9X","3UDTAB6HH6LRO17U79I9TKUGYFV09C","","898.2999999523163","img/land2.png","76","899","3","1","3","1","0.8,0.2,0.2,0.2,0.8,0.2,0.2,0.2,0.8","0.8,0.2,0.2,0.2,0.8,0.2,0.2,0.2,0.8","1","",""
"","html-keyboard-response","327","161294","0.0-327.0","3JPSL1DZ5TLA0070RN39PAX1K31NAH","A3V2XCDF45VN9X","3UDTAB6HH6LRO17U79I9TKUGYFV09C","","null","<img src=""img/land2.png"" style=""width:200px; border:14px solid green;"">","null","","","","","","","","","",""
"","image-keyboard-response","328","162037","0.0-328.0","3JPSL1DZ5TLA0070RN39PAX1K31NAH","A3V2XCDF45VN9X","3UDTAB6HH6LRO17U79I9TKUGYFV09C","","742.0999999046326","img/land1.png","74","742.7999999523163","1","1","1","1","0.8,0.2,0.2,0.2,0.8,0.2,0.2,0.2,0.8","0.8,0.2,0.2,0.2,0.8,0.2,0.2,0.2,0.8","1","",""
"","html-keyboard-response","329","162345","0.0-329.0","3JPSL1DZ5TLA0070RN39PAX1K31NAH","A3V2XCDF45VN9X","3UDTAB6HH6LRO17U79I9TKUGYFV09C","","null","<img src=""img/land1.png"" style=""width:200px; border:14px solid green;"">","null","","","","","","","","","",""
"","image-keyboard-response","330","162936","0.0-330.0","3JPSL1DZ5TLA0070RN39PAX1K31NAH","A3V2XCDF45VN9X","3UDTAB6HH6LRO17U79I9TKUGYFV09C","","589.7999999523163","img/land2.png","76","590.7000000476837","3","1","3","1","0.8,0.2,0.2,0.2,0.8,0.2,0.2,0.2,0.8","0.8,0.2,0.2,0.2,0.8,0.2,0.2,0.2,0.8","1","",""
"","html-keyboard-response","331","163242","0.0-331.0","3JPSL1DZ5TLA0070RN39PAX1K31NAH","A3V2XCDF45VN9X","3UDTAB6HH6LRO17U79I9TKUGYFV09C","","null","<img src=""img/land2.png"" style=""width:200px; border:14px solid green;"">","null","","","","","","","","","",""
"","image-keyboard-response","332","163943","0.0-332.0","3JPSL1DZ5TLA0070RN39PAX1K31NAH","A3V2XCDF45VN9X","3UDTAB6HH6LRO17U79I9TKUGYFV09C","","700.0999999046326","img/land1.png","74","700.8999998569489","1","0","1","1","0.8,0.2,0.2,0.2,0.8,0.2,0.2,0.2,0.8","0.8,0.2,0.2,0.2,0.8,0.2,0.2,0.2,0.8","1","",""
"","html-keyboard-response","333","164249","0.0-333.0","3JPSL1DZ5TLA0070RN39PAX1K31NAH","A3V2XCDF45VN9X","3UDTAB6HH6LRO17U79I9TKUGYFV09C","","null","<img src=""img/land1.png"" style=""width:200px;border:14px solid red;"">","null","","","","","","","","","",""
"","image-keyboard-response","334","164961","0.0-334.0","3JPSL1DZ5TLA0070RN39PAX1K31NAH","A3V2XCDF45VN9X","3UDTAB6HH6LRO17U79I9TKUGYFV09C","","711.5","img/land6.png","75","712.2999999523163","2","1","2","1","0.8,0.2,0.2,0.2,0.8,0.2,0.2,0.2,0.8","0.8,0.2,0.2,0.2,0.8,0.2,0.2,0.2,0.8","1","",""
"","html-keyboard-response","335","165273","0.0-335.0","3JPSL1DZ5TLA0070RN39PAX1K31NAH","A3V2XCDF45VN9X","3UDTAB6HH6LRO17U79I9TKUGYFV09C","","null","<img src=""img/land6.png"" style=""width:200px; border:14px solid green;"">","null","","","","","","","","","",""
"","image-keyboard-response","336","165967","0.0-336.0","3JPSL1DZ5TLA0070RN39PAX1K31NAH","A3V2XCDF45VN9X","3UDTAB6HH6LRO17U79I9TKUGYFV09C","","693","img/land2.png","76","693.8999998569489","3","0","3","1","0.8,0.2,0.2,0.2,0.8,0.2,0.2,0.2,0.8","0.8,0.2,0.2,0.2,0.8,0.2,0.2,0.2,0.8","1","",""
"","html-keyboard-response","337","166273","0.0-337.0","3JPSL1DZ5TLA0070RN39PAX1K31NAH","A3V2XCDF45VN9X","3UDTAB6HH6LRO17U79I9TKUGYFV09C","","null","<img src=""img/land2.png"" style=""width:200px;border:14px solid red;"">","null","","","","","","","","","",""
"","image-keyboard-response","338","166919","0.0-338.0","3JPSL1DZ5TLA0070RN39PAX1K31NAH","A3V2XCDF45VN9X","3UDTAB6HH6LRO17U79I9TKUGYFV09C","","645.5","img/land6.png","75","646.2999999523163","2","0","2","1","0.8,0.2,0.2,0.2,0.8,0.2,0.2,0.2,0.8","0.8,0.2,0.2,0.2,0.8,0.2,0.2,0.2,0.8","1","",""
"","html-keyboard-response","339","167224","0.0-339.0","3JPSL1DZ5TLA0070RN39PAX1K31NAH","A3V2XCDF45VN9X","3UDTAB6HH6LRO17U79I9TKUGYFV09C","","null","<img src=""img/land6.png"" style=""width:200px;border:14px solid red;"">","null","","","","","","","","","",""
"","image-keyboard-response","340","168125","0.0-340.0","3JPSL1DZ5TLA0070RN39PAX1K31NAH","A3V2XCDF45VN9X","3UDTAB6HH6LRO17U79I9TKUGYFV09C","","900.2000000476837","img/land2.png","76","901","3","1","3","1","0.8,0.2,0.2,0.2,0.8,0.2,0.2,0.2,0.8","0.8,0.2,0.2,0.2,0.8,0.2,0.2,0.2,0.8","1","",""
"","html-keyboard-response","341","168430","0.0-341.0","3JPSL1DZ5TLA0070RN39PAX1K31NAH","A3V2XCDF45VN9X","3UDTAB6HH6LRO17U79I9TKUGYFV09C","","null","<img src=""img/land2.png"" style=""width:200px; border:14px solid green;"">","null","","","","","","","","","",""
"","image-keyboard-response","342","169106","0.0-342.0","3JPSL1DZ5TLA0070RN39PAX1K31NAH","A3V2XCDF45VN9X","3UDTAB6HH6LRO17U79I9TKUGYFV09C","","674.5","img/land6.png","75","675.2999999523163","2","0","2","1","0.8,0.2,0.2,0.2,0.8,0.2,0.2,0.2,0.8","0.8,0.2,0.2,0.2,0.8,0.2,0.2,0.2,0.8","1","",""
"","html-keyboard-response","343","169417","0.0-343.0","3JPSL1DZ5TLA0070RN39PAX1K31NAH","A3V2XCDF45VN9X","3UDTAB6HH6LRO17U79I9TKUGYFV09C","","null","<img src=""img/land6.png"" style=""width:200px;border:14px solid red;"">","null","","","","","","","","","",""
"","image-keyboard-response","344","170169","0.0-344.0","3JPSL1DZ5TLA0070RN39PAX1K31NAH","A3V2XCDF45VN9X","3UDTAB6HH6LRO17U79I9TKUGYFV09C","","750.7000000476837","img/land1.png","74","751.5","1","1","1","1","0.8,0.2,0.2,0.2,0.8,0.2,0.2,0.2,0.8","0.8,0.2,0.2,0.2,0.8,0.2,0.2,0.2,0.8","1","",""
"","html-keyboard-response","345","170478","0.0-345.0","3JPSL1DZ5TLA0070RN39PAX1K31NAH","A3V2XCDF45VN9X","3UDTAB6HH6LRO17U79I9TKUGYFV09C","","null","<img src=""img/land1.png"" style=""width:200px; border:14px solid green;"">","null","","","","","","","","","",""
"","image-keyboard-response","346","171117","0.0-346.0","3JPSL1DZ5TLA0070RN39PAX1K31NAH","A3V2XCDF45VN9X","3UDTAB6HH6LRO17U79I9TKUGYFV09C","","637.7000000476837","img/land6.png","75","638.5","2","1","2","1","0.8,0.2,0.2,0.2,0.8,0.2,0.2,0.2,0.8","0.8,0.2,0.2,0.2,0.8,0.2,0.2,0.2,0.8","1","",""
"","html-keyboard-response","347","171423","0.0-347.0","3JPSL1DZ5TLA0070RN39PAX1K31NAH","A3V2XCDF45VN9X","3UDTAB6HH6LRO17U79I9TKUGYFV09C","","null","<img src=""img/land6.png"" style=""width:200px; border:14px solid green;"">","null","","","","","","","","","",""
"","image-keyboard-response","348","172117","0.0-348.0","3JPSL1DZ5TLA0070RN39PAX1K31NAH","A3V2XCDF45VN9X","3UDTAB6HH6LRO17U79I9TKUGYFV09C","","693","img/land1.png","74","693.7999999523163","1","1","1","1","0.8,0.2,0.2,0.2,0.8,0.2,0.2,0.2,0.8","0.8,0.2,0.2,0.2,0.8,0.2,0.2,0.2,0.8","1","",""
"","html-keyboard-response","349","172422","0.0-349.0","3JPSL1DZ5TLA0070RN39PAX1K31NAH","A3V2XCDF45VN9X","3UDTAB6HH6LRO17U79I9TKUGYFV09C","","null","<img src=""img/land1.png"" style=""width:200px; border:14px solid green;"">","null","","","","","","","","","",""
"","image-keyboard-response","350","173309","0.0-350.0","3JPSL1DZ5TLA0070RN39PAX1K31NAH","A3V2XCDF45VN9X","3UDTAB6HH6LRO17U79I9TKUGYFV09C","","885.7000000476837","img/land2.png","76","886.4000000953674","3","1","3","1","0.8,0.2,0.2,0.2,0.8,0.2,0.2,0.2,0.8","0.8,0.2,0.2,0.2,0.8,0.2,0.2,0.2,0.8","1","",""
"","html-keyboard-response","351","173615","0.0-351.0","3JPSL1DZ5TLA0070RN39PAX1K31NAH","A3V2XCDF45VN9X","3UDTAB6HH6LRO17U79I9TKUGYFV09C","","null","<img src=""img/land2.png"" style=""width:200px; border:14px solid green;"">","null","","","","","","","","","",""
"","image-keyboard-response","352","174358","0.0-352.0","3JPSL1DZ5TLA0070RN39PAX1K31NAH","A3V2XCDF45VN9X","3UDTAB6HH6LRO17U79I9TKUGYFV09C","","741.9000000953674","img/land1.png","74","742.6000001430511","1","1","1","1","0.8,0.2,0.2,0.2,0.8,0.2,0.2,0.2,0.8","0.8,0.2,0.2,0.2,0.8,0.2,0.2,0.2,0.8","1","",""
"","html-keyboard-response","353","174665","0.0-353.0","3JPSL1DZ5TLA0070RN39PAX1K31NAH","A3V2XCDF45VN9X","3UDTAB6HH6LRO17U79I9TKUGYFV09C","","null","<img src=""img/land1.png"" style=""width:200px; border:14px solid green;"">","null","","","","","","","","","",""
"","image-keyboard-response","354","175370","0.0-354.0","3JPSL1DZ5TLA0070RN39PAX1K31NAH","A3V2XCDF45VN9X","3UDTAB6HH6LRO17U79I9TKUGYFV09C","","703.7999999523163","img/land2.png","76","704.5999999046326","3","1","3","1","0.8,0.2,0.2,0.2,0.8,0.2,0.2,0.2,0.8","0.8,0.2,0.2,0.2,0.8,0.2,0.2,0.2,0.8","1","",""
