"success","trial_type","trial_index","time_elapsed","internal_node_id","assignmentID","mturkID","hitID","view_history","rt","stimulus","key_press","reactionTime","a","r","s","cond","reward_cond","reward_cond_actual","reward_matrix_idx","responses","question_order"
"true","fullscreen","0","12387","0.0-0.0","3GNA64GUZFQYXR8BCJ49LTCKX345Q3","A3V2O71AQ29DRZ","3HUR21WDDUBEMSLDIXZW1FAIHW8YX3","","","","","","","","","","","","","",""
"","instructions","1","32977","0.0-1.0","3GNA64GUZFQYXR8BCJ49LTCKX345Q3","A3V2O71AQ29DRZ","3HUR21WDDUBEMSLDIXZW1FAIHW8YX3","[{""page_index"":0,""viewing_time"":1801},{""page_index"":1,""viewing_time"":2115},{""page_index"":2,""viewing_time"":2315},{""page_index"":3,""viewing_time"":5986},{""page_index"":4,""viewing_time"":4666},{""page_index"":5,""viewing_time"":1673},{""page_index"":6,""viewing_time"":2031}]","20587","","","","","","","","","","","",""
"","image-keyboard-response","2","34979","0.0-2.0","3GNA64GUZFQYXR8BCJ49LTCKX345Q3","A3V2O71AQ29DRZ","3HUR21WDDUBEMSLDIXZW1FAIHW8YX3","","","img/land1.png","","2002","-1","0","3","2","0.8,0.2,0.2,0.2,0.8,0.2,0.2,0.2,0.8","0.8,0.2,0.2,0.2,0.8,0.2,0.2,0.2,0.8","1","",""
"","html-keyboard-response","3","35280","0.0-3.0","3GNA64GUZFQYXR8BCJ49LTCKX345Q3","A3V2O71AQ29DRZ","3HUR21WDDUBEMSLDIXZW1FAIHW8YX3","","null","<img src=""img/land1.png"" style=""width:200px;border:14px solid red;"">","null","","","","","","","","","",""
"","image-keyboard-response","4","35979","0.0-4.0","3GNA64GUZFQYXR8BCJ49LTCKX345Q3","A3V2O71AQ29DRZ","3HUR21WDDUBEMSLDIXZW1FAIHW8YX3","","698","img/land1.png","75","698","2","0","3","2","0.8,0.2,0.2,0.2,0.8,0.2,0.2,0.2,0.8","0.8,0.2,0.2,0.2,0.8,0.2,0.2,0.2,0.8","1","",""
"","html-keyboard-response","5","36280","0.0-5.0","3GNA64GUZFQYXR8BCJ49LTCKX345Q3","A3V2O71AQ29DRZ","3HUR21WDDUBEMSLDIXZW1FAIHW8YX3","","null","<img src=""img/land1.png"" style=""width:200px;border:14px solid red;"">","null","","","","","","","","","",""
"","image-keyboard-response","6","36325","0.0-6.0","3GNA64GUZFQYXR8BCJ49LTCKX345Q3","A3V2O71AQ29DRZ","3HUR21WDDUBEMSLDIXZW1FAIHW8YX3","","44","img/land6.png","76","45","3","0","1","2","0.8,0.2,0.2,0.2,0.8,0.2,0.2,0.2,0.8","0.8,0.2,0.2,0.2,0.8,0.2,0.2,0.2,0.8","1","",""
"","html-keyboard-response","7","36626","0.0-7.0","3GNA64GUZFQYXR8BCJ49LTCKX345Q3","A3V2O71AQ29DRZ","3HUR21WDDUBEMSLDIXZW1FAIHW8YX3","","null","<img src=""img/land6.png"" style=""width:200px;border:14px solid red;"">","null","","","","","","","","","",""
"","image-keyboard-response","8","36868","0.0-8.0","3GNA64GUZFQYXR8BCJ49LTCKX345Q3","A3V2O71AQ29DRZ","3HUR21WDDUBEMSLDIXZW1FAIHW8YX3","","242","img/land6.png","75","242","2","0","1","2","0.8,0.2,0.2,0.2,0.8,0.2,0.2,0.2,0.8","0.8,0.2,0.2,0.2,0.8,0.2,0.2,0.2,0.8","1","",""
"","html-keyboard-response","9","37170","0.0-9.0","3GNA64GUZFQYXR8BCJ49LTCKX345Q3","A3V2O71AQ29DRZ","3HUR21WDDUBEMSLDIXZW1FAIHW8YX3","","null","<img src=""img/land6.png"" style=""width:200px;border:14px solid red;"">","null","","","","","","","","","",""
"","image-keyboard-response","10","37268","0.0-10.0","3GNA64GUZFQYXR8BCJ49LTCKX345Q3","A3V2O71AQ29DRZ","3HUR21WDDUBEMSLDIXZW1FAIHW8YX3","","97","img/land6.png","76","98","3","0","1","2","0.8,0.2,0.2,0.2,0.8,0.2,0.2,0.2,0.8","0.8,0.2,0.2,0.2,0.8,0.2,0.2,0.2,0.8","1","",""
"","html-keyboard-response","11","37617","0.0-11.0","3GNA64GUZFQYXR8BCJ49LTCKX345Q3","A3V2O71AQ29DRZ","3HUR21WDDUBEMSLDIXZW1FAIHW8YX3","","null","<img src=""img/land6.png"" style=""width:200px;border:14px solid red;"">","null","","","","","","","","","",""
"","image-keyboard-response","12","37621","0.0-12.0","3GNA64GUZFQYXR8BCJ49LTCKX345Q3","A3V2O71AQ29DRZ","3HUR21WDDUBEMSLDIXZW1FAIHW8YX3","","4","img/land6.png","76","4","3","0","1","2","0.8,0.2,0.2,0.2,0.8,0.2,0.2,0.2,0.8","0.8,0.2,0.2,0.2,0.8,0.2,0.2,0.2,0.8","1","",""
"","html-keyboard-response","13","37921","0.0-13.0","3GNA64GUZFQYXR8BCJ49LTCKX345Q3","A3V2O71AQ29DRZ","3HUR21WDDUBEMSLDIXZW1FAIHW8YX3","","null","<img src=""img/land6.png"" style=""width:200px;border:14px solid red;"">","null","","","","","","","","","",""
"","image-keyboard-response","14","37925","0.0-14.0","3GNA64GUZFQYXR8BCJ49LTCKX345Q3","A3V2O71AQ29DRZ","3HUR21WDDUBEMSLDIXZW1FAIHW8YX3","","4","img/land6.png","76","4","3","0","1","2","0.8,0.2,0.2,0.2,0.8,0.2,0.2,0.2,0.8","0.8,0.2,0.2,0.2,0.8,0.2,0.2,0.2,0.8","1","",""
"","html-keyboard-response","15","38226","0.0-15.0","3GNA64GUZFQYXR8BCJ49LTCKX345Q3","A3V2O71AQ29DRZ","3HUR21WDDUBEMSLDIXZW1FAIHW8YX3","","null","<img src=""img/land6.png"" style=""width:200px;border:14px solid red;"">","null","","","","","","","","","",""
"","image-keyboard-response","16","38422","0.0-16.0","3GNA64GUZFQYXR8BCJ49LTCKX345Q3","A3V2O71AQ29DRZ","3HUR21WDDUBEMSLDIXZW1FAIHW8YX3","","196","img/land6.png","76","196","3","0","1","2","0.8,0.2,0.2,0.2,0.8,0.2,0.2,0.2,0.8","0.8,0.2,0.2,0.2,0.8,0.2,0.2,0.2,0.8","1","",""
"","html-keyboard-response","17","38724","0.0-17.0","3GNA64GUZFQYXR8BCJ49LTCKX345Q3","A3V2O71AQ29DRZ","3HUR21WDDUBEMSLDIXZW1FAIHW8YX3","","null","<img src=""img/land6.png"" style=""width:200px;border:14px solid red;"">","null","","","","","","","","","",""
"","image-keyboard-response","18","38744","0.0-18.0","3GNA64GUZFQYXR8BCJ49LTCKX345Q3","A3V2O71AQ29DRZ","3HUR21WDDUBEMSLDIXZW1FAIHW8YX3","","20","img/land5.png","74","20","1","1","2","2","0.8,0.2,0.2,0.2,0.8,0.2,0.2,0.2,0.8","0.8,0.2,0.2,0.2,0.8,0.2,0.2,0.2,0.8","1","",""
"","html-keyboard-response","19","39044","0.0-19.0","3GNA64GUZFQYXR8BCJ49LTCKX345Q3","A3V2O71AQ29DRZ","3HUR21WDDUBEMSLDIXZW1FAIHW8YX3","","null","<img src=""img/land5.png"" style=""width:200px; border:14px solid green;"">","null","","","","","","","","","",""
"","image-keyboard-response","20","39066","0.0-20.0","3GNA64GUZFQYXR8BCJ49LTCKX345Q3","A3V2O71AQ29DRZ","3HUR21WDDUBEMSLDIXZW1FAIHW8YX3","","22","img/land5.png","76","22","3","0","2","2","0.8,0.2,0.2,0.2,0.8,0.2,0.2,0.2,0.8","0.8,0.2,0.2,0.2,0.8,0.2,0.2,0.2,0.8","1","",""
"","html-keyboard-response","21","39367","0.0-21.0","3GNA64GUZFQYXR8BCJ49LTCKX345Q3","A3V2O71AQ29DRZ","3HUR21WDDUBEMSLDIXZW1FAIHW8YX3","","null","<img src=""img/land5.png"" style=""width:200px;border:14px solid red;"">","null","","","","","","","","","",""
"","image-keyboard-response","22","39444","0.0-22.0","3GNA64GUZFQYXR8BCJ49LTCKX345Q3","A3V2O71AQ29DRZ","3HUR21WDDUBEMSLDIXZW1FAIHW8YX3","","77","img/land6.png","76","77","3","0","1","2","0.8,0.2,0.2,0.2,0.8,0.2,0.2,0.2,0.8","0.8,0.2,0.2,0.2,0.8,0.2,0.2,0.2,0.8","1","",""
"","html-keyboard-response","23","39745","0.0-23.0","3GNA64GUZFQYXR8BCJ49LTCKX345Q3","A3V2O71AQ29DRZ","3HUR21WDDUBEMSLDIXZW1FAIHW8YX3","","null","<img src=""img/land6.png"" style=""width:200px;border:14px solid red;"">","null","","","","","","","","","",""
"","image-keyboard-response","24","39752","0.0-24.0","3GNA64GUZFQYXR8BCJ49LTCKX345Q3","A3V2O71AQ29DRZ","3HUR21WDDUBEMSLDIXZW1FAIHW8YX3","","6","img/land6.png","74","7","1","1","1","2","0.8,0.2,0.2,0.2,0.8,0.2,0.2,0.2,0.8","0.8,0.2,0.2,0.2,0.8,0.2,0.2,0.2,0.8","1","",""
"","html-keyboard-response","25","40105","0.0-25.0","3GNA64GUZFQYXR8BCJ49LTCKX345Q3","A3V2O71AQ29DRZ","3HUR21WDDUBEMSLDIXZW1FAIHW8YX3","","null","<img src=""img/land6.png"" style=""width:200px; border:14px solid green;"">","null","","","","","","","","","",""
"","image-keyboard-response","26","40179","0.0-26.0","3GNA64GUZFQYXR8BCJ49LTCKX345Q3","A3V2O71AQ29DRZ","3HUR21WDDUBEMSLDIXZW1FAIHW8YX3","","74","img/land6.png","74","74","1","1","1","2","0.8,0.2,0.2,0.2,0.8,0.2,0.2,0.2,0.8","0.8,0.2,0.2,0.2,0.8,0.2,0.2,0.2,0.8","1","",""
"","html-keyboard-response","27","40480","0.0-27.0","3GNA64GUZFQYXR8BCJ49LTCKX345Q3","A3V2O71AQ29DRZ","3HUR21WDDUBEMSLDIXZW1FAIHW8YX3","","null","<img src=""img/land6.png"" style=""width:200px; border:14px solid green;"">","null","","","","","","","","","",""
"","image-keyboard-response","28","40538","0.0-28.0","3GNA64GUZFQYXR8BCJ49LTCKX345Q3","A3V2O71AQ29DRZ","3HUR21WDDUBEMSLDIXZW1FAIHW8YX3","","58","img/land6.png","75","58","2","0","1","2","0.8,0.2,0.2,0.2,0.8,0.2,0.2,0.2,0.8","0.8,0.2,0.2,0.2,0.8,0.2,0.2,0.2,0.8","1","",""
"","html-keyboard-response","29","40840","0.0-29.0","3GNA64GUZFQYXR8BCJ49LTCKX345Q3","A3V2O71AQ29DRZ","3HUR21WDDUBEMSLDIXZW1FAIHW8YX3","","null","<img src=""img/land6.png"" style=""width:200px;border:14px solid red;"">","null","","","","","","","","","",""
"","image-keyboard-response","30","40841","0.0-30.0","3GNA64GUZFQYXR8BCJ49LTCKX345Q3","A3V2O71AQ29DRZ","3HUR21WDDUBEMSLDIXZW1FAIHW8YX3","","0","img/land5.png","74","1","1","0","2","2","0.8,0.2,0.2,0.2,0.8,0.2,0.2,0.2,0.8","0.8,0.2,0.2,0.2,0.8,0.2,0.2,0.2,0.8","1","",""
"","html-keyboard-response","31","41142","0.0-31.0","3GNA64GUZFQYXR8BCJ49LTCKX345Q3","A3V2O71AQ29DRZ","3HUR21WDDUBEMSLDIXZW1FAIHW8YX3","","null","<img src=""img/land5.png"" style=""width:200px;border:14px solid red;"">","null","","","","","","","","","",""
"","image-keyboard-response","32","41149","0.0-32.0","3GNA64GUZFQYXR8BCJ49LTCKX345Q3","A3V2O71AQ29DRZ","3HUR21WDDUBEMSLDIXZW1FAIHW8YX3","","7","img/land5.png","76","7","3","0","2","2","0.8,0.2,0.2,0.2,0.8,0.2,0.2,0.2,0.8","0.8,0.2,0.2,0.2,0.8,0.2,0.2,0.2,0.8","1","",""
"","html-keyboard-response","33","41450","0.0-33.0","3GNA64GUZFQYXR8BCJ49LTCKX345Q3","A3V2O71AQ29DRZ","3HUR21WDDUBEMSLDIXZW1FAIHW8YX3","","null","<img src=""img/land5.png"" style=""width:200px;border:14px solid red;"">","null","","","","","","","","","",""
"","image-keyboard-response","34","41486","0.0-34.0","3GNA64GUZFQYXR8BCJ49LTCKX345Q3","A3V2O71AQ29DRZ","3HUR21WDDUBEMSLDIXZW1FAIHW8YX3","","36","img/land6.png","74","36","1","1","1","2","0.8,0.2,0.2,0.2,0.8,0.2,0.2,0.2,0.8","0.8,0.2,0.2,0.2,0.8,0.2,0.2,0.2,0.8","1","",""
"","html-keyboard-response","35","41788","0.0-35.0","3GNA64GUZFQYXR8BCJ49LTCKX345Q3","A3V2O71AQ29DRZ","3HUR21WDDUBEMSLDIXZW1FAIHW8YX3","","null","<img src=""img/land6.png"" style=""width:200px; border:14px solid green;"">","null","","","","","","","","","",""
"","image-keyboard-response","36","41840","0.0-36.0","3GNA64GUZFQYXR8BCJ49LTCKX345Q3","A3V2O71AQ29DRZ","3HUR21WDDUBEMSLDIXZW1FAIHW8YX3","","52","img/land5.png","76","52","3","1","2","2","0.8,0.2,0.2,0.2,0.8,0.2,0.2,0.2,0.8","0.8,0.2,0.2,0.2,0.8,0.2,0.2,0.2,0.8","1","",""
"","html-keyboard-response","37","42141","0.0-37.0","3GNA64GUZFQYXR8BCJ49LTCKX345Q3","A3V2O71AQ29DRZ","3HUR21WDDUBEMSLDIXZW1FAIHW8YX3","","null","<img src=""img/land5.png"" style=""width:200px; border:14px solid green;"">","null","","","","","","","","","",""
"","image-keyboard-response","38","42219","0.0-38.0","3GNA64GUZFQYXR8BCJ49LTCKX345Q3","A3V2O71AQ29DRZ","3HUR21WDDUBEMSLDIXZW1FAIHW8YX3","","77","img/land6.png","76","78","3","0","1","2","0.8,0.2,0.2,0.2,0.8,0.2,0.2,0.2,0.8","0.8,0.2,0.2,0.2,0.8,0.2,0.2,0.2,0.8","1","",""
"","html-keyboard-response","39","42520","0.0-39.0","3GNA64GUZFQYXR8BCJ49LTCKX345Q3","A3V2O71AQ29DRZ","3HUR21WDDUBEMSLDIXZW1FAIHW8YX3","","null","<img src=""img/land6.png"" style=""width:200px;border:14px solid red;"">","null","","","","","","","","","",""
"","image-keyboard-response","40","42554","0.0-40.0","3GNA64GUZFQYXR8BCJ49LTCKX345Q3","A3V2O71AQ29DRZ","3HUR21WDDUBEMSLDIXZW1FAIHW8YX3","","34","img/land5.png","74","34","1","0","2","2","0.8,0.2,0.2,0.2,0.8,0.2,0.2,0.2,0.8","0.8,0.2,0.2,0.2,0.8,0.2,0.2,0.2,0.8","1","",""
"","html-keyboard-response","41","42858","0.0-41.0","3GNA64GUZFQYXR8BCJ49LTCKX345Q3","A3V2O71AQ29DRZ","3HUR21WDDUBEMSLDIXZW1FAIHW8YX3","","null","<img src=""img/land5.png"" style=""width:200px;border:14px solid red;"">","null","","","","","","","","","",""
"","image-keyboard-response","42","43043","0.0-42.0","3GNA64GUZFQYXR8BCJ49LTCKX345Q3","A3V2O71AQ29DRZ","3HUR21WDDUBEMSLDIXZW1FAIHW8YX3","","185","img/land5.png","76","185","3","1","2","2","0.8,0.2,0.2,0.2,0.8,0.2,0.2,0.2,0.8","0.8,0.2,0.2,0.2,0.8,0.2,0.2,0.2,0.8","1","",""
"","html-keyboard-response","43","43343","0.0-43.0","3GNA64GUZFQYXR8BCJ49LTCKX345Q3","A3V2O71AQ29DRZ","3HUR21WDDUBEMSLDIXZW1FAIHW8YX3","","null","<img src=""img/land5.png"" style=""width:200px; border:14px solid green;"">","null","","","","","","","","","",""
"","image-keyboard-response","44","43358","0.0-44.0","3GNA64GUZFQYXR8BCJ49LTCKX345Q3","A3V2O71AQ29DRZ","3HUR21WDDUBEMSLDIXZW1FAIHW8YX3","","14","img/land1.png","75","15","2","0","3","2","0.8,0.2,0.2,0.2,0.8,0.2,0.2,0.2,0.8","0.8,0.2,0.2,0.2,0.8,0.2,0.2,0.2,0.8","1","",""
"","html-keyboard-response","45","43659","0.0-45.0","3GNA64GUZFQYXR8BCJ49LTCKX345Q3","A3V2O71AQ29DRZ","3HUR21WDDUBEMSLDIXZW1FAIHW8YX3","","null","<img src=""img/land1.png"" style=""width:200px;border:14px solid red;"">","null","","","","","","","","","",""
"","image-keyboard-response","46","43812","0.0-46.0","3GNA64GUZFQYXR8BCJ49LTCKX345Q3","A3V2O71AQ29DRZ","3HUR21WDDUBEMSLDIXZW1FAIHW8YX3","","153","img/land6.png","75","153","2","0","1","2","0.8,0.2,0.2,0.2,0.8,0.2,0.2,0.2,0.8","0.8,0.2,0.2,0.2,0.8,0.2,0.2,0.2,0.8","1","",""
"","html-keyboard-response","47","44113","0.0-47.0","3GNA64GUZFQYXR8BCJ49LTCKX345Q3","A3V2O71AQ29DRZ","3HUR21WDDUBEMSLDIXZW1FAIHW8YX3","","null","<img src=""img/land6.png"" style=""width:200px;border:14px solid red;"">","null","","","","","","","","","",""
"","image-keyboard-response","48","44160","0.0-48.0","3GNA64GUZFQYXR8BCJ49LTCKX345Q3","A3V2O71AQ29DRZ","3HUR21WDDUBEMSLDIXZW1FAIHW8YX3","","47","img/land6.png","76","48","3","0","1","2","0.8,0.2,0.2,0.2,0.8,0.2,0.2,0.2,0.8","0.8,0.2,0.2,0.2,0.8,0.2,0.2,0.2,0.8","1","",""
"","html-keyboard-response","49","44461","0.0-49.0","3GNA64GUZFQYXR8BCJ49LTCKX345Q3","A3V2O71AQ29DRZ","3HUR21WDDUBEMSLDIXZW1FAIHW8YX3","","null","<img src=""img/land6.png"" style=""width:200px;border:14px solid red;"">","null","","","","","","","","","",""
"","image-keyboard-response","50","44628","0.0-50.0","3GNA64GUZFQYXR8BCJ49LTCKX345Q3","A3V2O71AQ29DRZ","3HUR21WDDUBEMSLDIXZW1FAIHW8YX3","","167","img/land6.png","76","167","3","0","1","2","0.8,0.2,0.2,0.2,0.8,0.2,0.2,0.2,0.8","0.8,0.2,0.2,0.2,0.8,0.2,0.2,0.2,0.8","1","",""
"","html-keyboard-response","51","44929","0.0-51.0","3GNA64GUZFQYXR8BCJ49LTCKX345Q3","A3V2O71AQ29DRZ","3HUR21WDDUBEMSLDIXZW1FAIHW8YX3","","null","<img src=""img/land6.png"" style=""width:200px;border:14px solid red;"">","null","","","","","","","","","",""
"","image-keyboard-response","52","45040","0.0-52.0","3GNA64GUZFQYXR8BCJ49LTCKX345Q3","A3V2O71AQ29DRZ","3HUR21WDDUBEMSLDIXZW1FAIHW8YX3","","111","img/land6.png","76","111","3","1","1","2","0.8,0.2,0.2,0.2,0.8,0.2,0.2,0.2,0.8","0.8,0.2,0.2,0.2,0.8,0.2,0.2,0.2,0.8","1","",""
"","html-keyboard-response","53","45342","0.0-53.0","3GNA64GUZFQYXR8BCJ49LTCKX345Q3","A3V2O71AQ29DRZ","3HUR21WDDUBEMSLDIXZW1FAIHW8YX3","","null","<img src=""img/land6.png"" style=""width:200px; border:14px solid green;"">","null","","","","","","","","","",""
"","image-keyboard-response","54","45389","0.0-54.0","3GNA64GUZFQYXR8BCJ49LTCKX345Q3","A3V2O71AQ29DRZ","3HUR21WDDUBEMSLDIXZW1FAIHW8YX3","","47","img/land6.png","76","47","3","0","1","2","0.8,0.2,0.2,0.2,0.8,0.2,0.2,0.2,0.8","0.8,0.2,0.2,0.2,0.8,0.2,0.2,0.2,0.8","1","",""
"","html-keyboard-response","55","45690","0.0-55.0","3GNA64GUZFQYXR8BCJ49LTCKX345Q3","A3V2O71AQ29DRZ","3HUR21WDDUBEMSLDIXZW1FAIHW8YX3","","null","<img src=""img/land6.png"" style=""width:200px;border:14px solid red;"">","null","","","","","","","","","",""
"","image-keyboard-response","56","45760","0.0-56.0","3GNA64GUZFQYXR8BCJ49LTCKX345Q3","A3V2O71AQ29DRZ","3HUR21WDDUBEMSLDIXZW1FAIHW8YX3","","69","img/land5.png","75","70","2","1","2","2","0.8,0.2,0.2,0.2,0.8,0.2,0.2,0.2,0.8","0.8,0.2,0.2,0.2,0.8,0.2,0.2,0.2,0.8","1","",""
"","html-keyboard-response","57","46062","0.0-57.0","3GNA64GUZFQYXR8BCJ49LTCKX345Q3","A3V2O71AQ29DRZ","3HUR21WDDUBEMSLDIXZW1FAIHW8YX3","","null","<img src=""img/land5.png"" style=""width:200px; border:14px solid green;"">","null","","","","","","","","","",""
"","image-keyboard-response","58","46144","0.0-58.0","3GNA64GUZFQYXR8BCJ49LTCKX345Q3","A3V2O71AQ29DRZ","3HUR21WDDUBEMSLDIXZW1FAIHW8YX3","","82","img/land1.png","74","82","1","0","3","2","0.8,0.2,0.2,0.2,0.8,0.2,0.2,0.2,0.8","0.8,0.2,0.2,0.2,0.8,0.2,0.2,0.2,0.8","1","",""
"","html-keyboard-response","59","46444","0.0-59.0","3GNA64GUZFQYXR8BCJ49LTCKX345Q3","A3V2O71AQ29DRZ","3HUR21WDDUBEMSLDIXZW1FAIHW8YX3","","null","<img src=""img/land1.png"" style=""width:200px;border:14px solid red;"">","null","","","","","","","","","",""
"","image-keyboard-response","60","46619","0.0-60.0","3GNA64GUZFQYXR8BCJ49LTCKX345Q3","A3V2O71AQ29DRZ","3HUR21WDDUBEMSLDIXZW1FAIHW8YX3","","174","img/land6.png","76","175","3","0","1","2","0.8,0.2,0.2,0.2,0.8,0.2,0.2,0.2,0.8","0.8,0.2,0.2,0.2,0.8,0.2,0.2,0.2,0.8","1","",""
"","html-keyboard-response","61","46921","0.0-61.0","3GNA64GUZFQYXR8BCJ49LTCKX345Q3","A3V2O71AQ29DRZ","3HUR21WDDUBEMSLDIXZW1FAIHW8YX3","","null","<img src=""img/land6.png"" style=""width:200px;border:14px solid red;"">","null","","","","","","","","","",""
"","image-keyboard-response","62","47024","0.0-62.0","3GNA64GUZFQYXR8BCJ49LTCKX345Q3","A3V2O71AQ29DRZ","3HUR21WDDUBEMSLDIXZW1FAIHW8YX3","","103","img/land6.png","76","104","3","0","1","2","0.8,0.2,0.2,0.2,0.8,0.2,0.2,0.2,0.8","0.8,0.2,0.2,0.2,0.8,0.2,0.2,0.2,0.8","1","",""
"","html-keyboard-response","63","47329","0.0-63.0","3GNA64GUZFQYXR8BCJ49LTCKX345Q3","A3V2O71AQ29DRZ","3HUR21WDDUBEMSLDIXZW1FAIHW8YX3","","null","<img src=""img/land6.png"" style=""width:200px;border:14px solid red;"">","null","","","","","","","","","",""
"","image-keyboard-response","64","47334","0.0-64.0","3GNA64GUZFQYXR8BCJ49LTCKX345Q3","A3V2O71AQ29DRZ","3HUR21WDDUBEMSLDIXZW1FAIHW8YX3","","4","img/land6.png","74","5","1","1","1","2","0.8,0.2,0.2,0.2,0.8,0.2,0.2,0.2,0.8","0.8,0.2,0.2,0.2,0.8,0.2,0.2,0.2,0.8","1","",""
"","html-keyboard-response","65","47635","0.0-65.0","3GNA64GUZFQYXR8BCJ49LTCKX345Q3","A3V2O71AQ29DRZ","3HUR21WDDUBEMSLDIXZW1FAIHW8YX3","","null","<img src=""img/land6.png"" style=""width:200px; border:14px solid green;"">","null","","","","","","","","","",""
"","image-keyboard-response","66","47673","0.0-66.0","3GNA64GUZFQYXR8BCJ49LTCKX345Q3","A3V2O71AQ29DRZ","3HUR21WDDUBEMSLDIXZW1FAIHW8YX3","","38","img/land6.png","76","38","3","0","1","2","0.8,0.2,0.2,0.2,0.8,0.2,0.2,0.2,0.8","0.8,0.2,0.2,0.2,0.8,0.2,0.2,0.2,0.8","1","",""
"","html-keyboard-response","67","47987","0.0-67.0","3GNA64GUZFQYXR8BCJ49LTCKX345Q3","A3V2O71AQ29DRZ","3HUR21WDDUBEMSLDIXZW1FAIHW8YX3","","null","<img src=""img/land6.png"" style=""width:200px;border:14px solid red;"">","null","","","","","","","","","",""
"","image-keyboard-response","68","48058","0.0-68.0","3GNA64GUZFQYXR8BCJ49LTCKX345Q3","A3V2O71AQ29DRZ","3HUR21WDDUBEMSLDIXZW1FAIHW8YX3","","70","img/land6.png","75","71","2","1","1","2","0.8,0.2,0.2,0.2,0.8,0.2,0.2,0.2,0.8","0.8,0.2,0.2,0.2,0.8,0.2,0.2,0.2,0.8","1","",""
"","html-keyboard-response","69","48358","0.0-69.0","3GNA64GUZFQYXR8BCJ49LTCKX345Q3","A3V2O71AQ29DRZ","3HUR21WDDUBEMSLDIXZW1FAIHW8YX3","","null","<img src=""img/land6.png"" style=""width:200px; border:14px solid green;"">","null","","","","","","","","","",""
"","image-keyboard-response","70","48553","0.0-70.0","3GNA64GUZFQYXR8BCJ49LTCKX345Q3","A3V2O71AQ29DRZ","3HUR21WDDUBEMSLDIXZW1FAIHW8YX3","","195","img/land6.png","76","195","3","0","1","2","0.8,0.2,0.2,0.2,0.8,0.2,0.2,0.2,0.8","0.8,0.2,0.2,0.2,0.8,0.2,0.2,0.2,0.8","1","",""
"","html-keyboard-response","71","48854","0.0-71.0","3GNA64GUZFQYXR8BCJ49LTCKX345Q3","A3V2O71AQ29DRZ","3HUR21WDDUBEMSLDIXZW1FAIHW8YX3","","null","<img src=""img/land6.png"" style=""width:200px;border:14px solid red;"">","null","","","","","","","","","",""
"","image-keyboard-response","72","48888","0.0-72.0","3GNA64GUZFQYXR8BCJ49LTCKX345Q3","A3V2O71AQ29DRZ","3HUR21WDDUBEMSLDIXZW1FAIHW8YX3","","33","img/land6.png","76","34","3","0","1","2","0.8,0.2,0.2,0.2,0.8,0.2,0.2,0.2,0.8","0.8,0.2,0.2,0.2,0.8,0.2,0.2,0.2,0.8","1","",""
"","html-keyboard-response","73","49190","0.0-73.0","3GNA64GUZFQYXR8BCJ49LTCKX345Q3","A3V2O71AQ29DRZ","3HUR21WDDUBEMSLDIXZW1FAIHW8YX3","","null","<img src=""img/land6.png"" style=""width:200px;border:14px solid red;"">","null","","","","","","","","","",""
"","image-keyboard-response","74","49273","0.0-74.0","3GNA64GUZFQYXR8BCJ49LTCKX345Q3","A3V2O71AQ29DRZ","3HUR21WDDUBEMSLDIXZW1FAIHW8YX3","","83","img/land1.png","75","83","2","0","3","2","0.8,0.2,0.2,0.2,0.8,0.2,0.2,0.2,0.8","0.8,0.2,0.2,0.2,0.8,0.2,0.2,0.2,0.8","1","",""
"","html-keyboard-response","75","49574","0.0-75.0","3GNA64GUZFQYXR8BCJ49LTCKX345Q3","A3V2O71AQ29DRZ","3HUR21WDDUBEMSLDIXZW1FAIHW8YX3","","null","<img src=""img/land1.png"" style=""width:200px;border:14px solid red;"">","null","","","","","","","","","",""
"","image-keyboard-response","76","49660","0.0-76.0","3GNA64GUZFQYXR8BCJ49LTCKX345Q3","A3V2O71AQ29DRZ","3HUR21WDDUBEMSLDIXZW1FAIHW8YX3","","86","img/land1.png","75","86","2","1","3","2","0.8,0.2,0.2,0.2,0.8,0.2,0.2,0.2,0.8","0.8,0.2,0.2,0.2,0.8,0.2,0.2,0.2,0.8","1","",""
"","html-keyboard-response","77","49961","0.0-77.0","3GNA64GUZFQYXR8BCJ49LTCKX345Q3","A3V2O71AQ29DRZ","3HUR21WDDUBEMSLDIXZW1FAIHW8YX3","","null","<img src=""img/land1.png"" style=""width:200px; border:14px solid green;"">","null","","","","","","","","","",""
"","image-keyboard-response","78","50083","0.0-78.0","3GNA64GUZFQYXR8BCJ49LTCKX345Q3","A3V2O71AQ29DRZ","3HUR21WDDUBEMSLDIXZW1FAIHW8YX3","","122","img/land5.png","76","122","3","0","2","2","0.8,0.2,0.2,0.2,0.8,0.2,0.2,0.2,0.8","0.8,0.2,0.2,0.2,0.8,0.2,0.2,0.2,0.8","1","",""
"","html-keyboard-response","79","50384","0.0-79.0","3GNA64GUZFQYXR8BCJ49LTCKX345Q3","A3V2O71AQ29DRZ","3HUR21WDDUBEMSLDIXZW1FAIHW8YX3","","null","<img src=""img/land5.png"" style=""width:200px;border:14px solid red;"">","null","","","","","","","","","",""
"","image-keyboard-response","80","50449","0.0-80.0","3GNA64GUZFQYXR8BCJ49LTCKX345Q3","A3V2O71AQ29DRZ","3HUR21WDDUBEMSLDIXZW1FAIHW8YX3","","65","img/land6.png","76","65","3","0","1","2","0.8,0.2,0.2,0.2,0.8,0.2,0.2,0.2,0.8","0.8,0.2,0.2,0.2,0.8,0.2,0.2,0.2,0.8","1","",""
"","html-keyboard-response","81","50751","0.0-81.0","3GNA64GUZFQYXR8BCJ49LTCKX345Q3","A3V2O71AQ29DRZ","3HUR21WDDUBEMSLDIXZW1FAIHW8YX3","","null","<img src=""img/land6.png"" style=""width:200px;border:14px solid red;"">","null","","","","","","","","","",""
"","image-keyboard-response","82","50787","0.0-82.0","3GNA64GUZFQYXR8BCJ49LTCKX345Q3","A3V2O71AQ29DRZ","3HUR21WDDUBEMSLDIXZW1FAIHW8YX3","","35","img/land1.png","76","36","3","1","3","2","0.8,0.2,0.2,0.2,0.8,0.2,0.2,0.2,0.8","0.8,0.2,0.2,0.2,0.8,0.2,0.2,0.2,0.8","1","",""
"","html-keyboard-response","83","51090","0.0-83.0","3GNA64GUZFQYXR8BCJ49LTCKX345Q3","A3V2O71AQ29DRZ","3HUR21WDDUBEMSLDIXZW1FAIHW8YX3","","null","<img src=""img/land1.png"" style=""width:200px; border:14px solid green;"">","null","","","","","","","","","",""
"","image-keyboard-response","84","51098","0.0-84.0","3GNA64GUZFQYXR8BCJ49LTCKX345Q3","A3V2O71AQ29DRZ","3HUR21WDDUBEMSLDIXZW1FAIHW8YX3","","7","img/land6.png","74","8","1","1","1","2","0.8,0.2,0.2,0.2,0.8,0.2,0.2,0.2,0.8","0.8,0.2,0.2,0.2,0.8,0.2,0.2,0.2,0.8","1","",""
"","html-keyboard-response","85","51399","0.0-85.0","3GNA64GUZFQYXR8BCJ49LTCKX345Q3","A3V2O71AQ29DRZ","3HUR21WDDUBEMSLDIXZW1FAIHW8YX3","","null","<img src=""img/land6.png"" style=""width:200px; border:14px solid green;"">","null","","","","","","","","","",""
"","image-keyboard-response","86","51439","0.0-86.0","3GNA64GUZFQYXR8BCJ49LTCKX345Q3","A3V2O71AQ29DRZ","3HUR21WDDUBEMSLDIXZW1FAIHW8YX3","","38","img/land5.png","76","40","3","1","2","2","0.8,0.2,0.2,0.2,0.8,0.2,0.2,0.2,0.8","0.8,0.2,0.2,0.2,0.8,0.2,0.2,0.2,0.8","1","",""
"","html-keyboard-response","87","51740","0.0-87.0","3GNA64GUZFQYXR8BCJ49LTCKX345Q3","A3V2O71AQ29DRZ","3HUR21WDDUBEMSLDIXZW1FAIHW8YX3","","null","<img src=""img/land5.png"" style=""width:200px; border:14px solid green;"">","null","","","","","","","","","",""
"","image-keyboard-response","88","51790","0.0-88.0","3GNA64GUZFQYXR8BCJ49LTCKX345Q3","A3V2O71AQ29DRZ","3HUR21WDDUBEMSLDIXZW1FAIHW8YX3","","49","img/land6.png","75","50","2","0","1","2","0.8,0.2,0.2,0.2,0.8,0.2,0.2,0.2,0.8","0.8,0.2,0.2,0.2,0.8,0.2,0.2,0.2,0.8","1","",""
"","html-keyboard-response","89","52092","0.0-89.0","3GNA64GUZFQYXR8BCJ49LTCKX345Q3","A3V2O71AQ29DRZ","3HUR21WDDUBEMSLDIXZW1FAIHW8YX3","","null","<img src=""img/land6.png"" style=""width:200px;border:14px solid red;"">","null","","","","","","","","","",""
"","image-keyboard-response","90","52119","0.0-90.0","3GNA64GUZFQYXR8BCJ49LTCKX345Q3","A3V2O71AQ29DRZ","3HUR21WDDUBEMSLDIXZW1FAIHW8YX3","","27","img/land6.png","76","27","3","0","1","2","0.8,0.2,0.2,0.2,0.8,0.2,0.2,0.2,0.8","0.8,0.2,0.2,0.2,0.8,0.2,0.2,0.2,0.8","1","",""
"","html-keyboard-response","91","52420","0.0-91.0","3GNA64GUZFQYXR8BCJ49LTCKX345Q3","A3V2O71AQ29DRZ","3HUR21WDDUBEMSLDIXZW1FAIHW8YX3","","null","<img src=""img/land6.png"" style=""width:200px;border:14px solid red;"">","null","","","","","","","","","",""
"","image-keyboard-response","92","52455","0.0-92.0","3GNA64GUZFQYXR8BCJ49LTCKX345Q3","A3V2O71AQ29DRZ","3HUR21WDDUBEMSLDIXZW1FAIHW8YX3","","33","img/land6.png","76","35","3","0","1","2","0.8,0.2,0.2,0.2,0.8,0.2,0.2,0.2,0.8","0.8,0.2,0.2,0.2,0.8,0.2,0.2,0.2,0.8","1","",""
"","html-keyboard-response","93","52756","0.0-93.0","3GNA64GUZFQYXR8BCJ49LTCKX345Q3","A3V2O71AQ29DRZ","3HUR21WDDUBEMSLDIXZW1FAIHW8YX3","","null","<img src=""img/land6.png"" style=""width:200px;border:14px solid red;"">","null","","","","","","","","","",""
"","image-keyboard-response","94","52781","0.0-94.0","3GNA64GUZFQYXR8BCJ49LTCKX345Q3","A3V2O71AQ29DRZ","3HUR21WDDUBEMSLDIXZW1FAIHW8YX3","","24","img/land5.png","76","25","3","0","2","2","0.8,0.2,0.2,0.2,0.8,0.2,0.2,0.2,0.8","0.8,0.2,0.2,0.2,0.8,0.2,0.2,0.2,0.8","1","",""
"","html-keyboard-response","95","53082","0.0-95.0","3GNA64GUZFQYXR8BCJ49LTCKX345Q3","A3V2O71AQ29DRZ","3HUR21WDDUBEMSLDIXZW1FAIHW8YX3","","null","<img src=""img/land5.png"" style=""width:200px;border:14px solid red;"">","null","","","","","","","","","",""
"","image-keyboard-response","96","53158","0.0-96.0","3GNA64GUZFQYXR8BCJ49LTCKX345Q3","A3V2O71AQ29DRZ","3HUR21WDDUBEMSLDIXZW1FAIHW8YX3","","76","img/land6.png","76","76","3","0","1","2","0.8,0.2,0.2,0.2,0.8,0.2,0.2,0.2,0.8","0.8,0.2,0.2,0.2,0.8,0.2,0.2,0.2,0.8","1","",""
"","html-keyboard-response","97","53460","0.0-97.0","3GNA64GUZFQYXR8BCJ49LTCKX345Q3","A3V2O71AQ29DRZ","3HUR21WDDUBEMSLDIXZW1FAIHW8YX3","","null","<img src=""img/land6.png"" style=""width:200px;border:14px solid red;"">","null","","","","","","","","","",""
"","image-keyboard-response","98","53534","0.0-98.0","3GNA64GUZFQYXR8BCJ49LTCKX345Q3","A3V2O71AQ29DRZ","3HUR21WDDUBEMSLDIXZW1FAIHW8YX3","","74","img/land6.png","76","74","3","0","1","2","0.8,0.2,0.2,0.2,0.8,0.2,0.2,0.2,0.8","0.8,0.2,0.2,0.2,0.8,0.2,0.2,0.2,0.8","1","",""
"","html-keyboard-response","99","53836","0.0-99.0","3GNA64GUZFQYXR8BCJ49LTCKX345Q3","A3V2O71AQ29DRZ","3HUR21WDDUBEMSLDIXZW1FAIHW8YX3","","null","<img src=""img/land6.png"" style=""width:200px;border:14px solid red;"">","null","","","","","","","","","",""
"","image-keyboard-response","100","53919","0.0-100.0","3GNA64GUZFQYXR8BCJ49LTCKX345Q3","A3V2O71AQ29DRZ","3HUR21WDDUBEMSLDIXZW1FAIHW8YX3","","83","img/land6.png","76","83","3","0","1","2","0.8,0.2,0.2,0.2,0.8,0.2,0.2,0.2,0.8","0.8,0.2,0.2,0.2,0.8,0.2,0.2,0.2,0.8","1","",""
"","html-keyboard-response","101","54221","0.0-101.0","3GNA64GUZFQYXR8BCJ49LTCKX345Q3","A3V2O71AQ29DRZ","3HUR21WDDUBEMSLDIXZW1FAIHW8YX3","","null","<img src=""img/land6.png"" style=""width:200px;border:14px solid red;"">","null","","","","","","","","","",""
"","image-keyboard-response","102","54356","0.0-102.0","3GNA64GUZFQYXR8BCJ49LTCKX345Q3","A3V2O71AQ29DRZ","3HUR21WDDUBEMSLDIXZW1FAIHW8YX3","","135","img/land6.png","76","135","3","1","1","2","0.8,0.2,0.2,0.2,0.8,0.2,0.2,0.2,0.8","0.8,0.2,0.2,0.2,0.8,0.2,0.2,0.2,0.8","1","",""
"","html-keyboard-response","103","54657","0.0-103.0","3GNA64GUZFQYXR8BCJ49LTCKX345Q3","A3V2O71AQ29DRZ","3HUR21WDDUBEMSLDIXZW1FAIHW8YX3","","null","<img src=""img/land6.png"" style=""width:200px; border:14px solid green;"">","null","","","","","","","","","",""
"","image-keyboard-response","104","54692","0.0-104.0","3GNA64GUZFQYXR8BCJ49LTCKX345Q3","A3V2O71AQ29DRZ","3HUR21WDDUBEMSLDIXZW1FAIHW8YX3","","35","img/land6.png","74","35","1","1","1","2","0.8,0.2,0.2,0.2,0.8,0.2,0.2,0.2,0.8","0.8,0.2,0.2,0.2,0.8,0.2,0.2,0.2,0.8","1","",""
"","html-keyboard-response","105","54992","0.0-105.0","3GNA64GUZFQYXR8BCJ49LTCKX345Q3","A3V2O71AQ29DRZ","3HUR21WDDUBEMSLDIXZW1FAIHW8YX3","","null","<img src=""img/land6.png"" style=""width:200px; border:14px solid green;"">","null","","","","","","","","","",""
"","image-keyboard-response","106","55067","0.0-106.0","3GNA64GUZFQYXR8BCJ49LTCKX345Q3","A3V2O71AQ29DRZ","3HUR21WDDUBEMSLDIXZW1FAIHW8YX3","","75","img/land6.png","76","75","3","0","1","2","0.8,0.2,0.2,0.2,0.8,0.2,0.2,0.2,0.8","0.8,0.2,0.2,0.2,0.8,0.2,0.2,0.2,0.8","1","",""
"","html-keyboard-response","107","55369","0.0-107.0","3GNA64GUZFQYXR8BCJ49LTCKX345Q3","A3V2O71AQ29DRZ","3HUR21WDDUBEMSLDIXZW1FAIHW8YX3","","null","<img src=""img/land6.png"" style=""width:200px;border:14px solid red;"">","null","","","","","","","","","",""
"","image-keyboard-response","108","55397","0.0-108.0","3GNA64GUZFQYXR8BCJ49LTCKX345Q3","A3V2O71AQ29DRZ","3HUR21WDDUBEMSLDIXZW1FAIHW8YX3","","26","img/land6.png","75","28","2","0","1","2","0.8,0.2,0.2,0.2,0.8,0.2,0.2,0.2,0.8","0.8,0.2,0.2,0.2,0.8,0.2,0.2,0.2,0.8","1","",""
"","html-keyboard-response","109","55697","0.0-109.0","3GNA64GUZFQYXR8BCJ49LTCKX345Q3","A3V2O71AQ29DRZ","3HUR21WDDUBEMSLDIXZW1FAIHW8YX3","","null","<img src=""img/land6.png"" style=""width:200px;border:14px solid red;"">","null","","","","","","","","","",""
"","image-keyboard-response","110","55791","0.0-110.0","3GNA64GUZFQYXR8BCJ49LTCKX345Q3","A3V2O71AQ29DRZ","3HUR21WDDUBEMSLDIXZW1FAIHW8YX3","","93","img/land6.png","76","94","3","0","1","2","0.8,0.2,0.2,0.2,0.8,0.2,0.2,0.2,0.8","0.8,0.2,0.2,0.2,0.8,0.2,0.2,0.2,0.8","1","",""
"","html-keyboard-response","111","56092","0.0-111.0","3GNA64GUZFQYXR8BCJ49LTCKX345Q3","A3V2O71AQ29DRZ","3HUR21WDDUBEMSLDIXZW1FAIHW8YX3","","null","<img src=""img/land6.png"" style=""width:200px;border:14px solid red;"">","null","","","","","","","","","",""
"","image-keyboard-response","112","56164","0.0-112.0","3GNA64GUZFQYXR8BCJ49LTCKX345Q3","A3V2O71AQ29DRZ","3HUR21WDDUBEMSLDIXZW1FAIHW8YX3","","72","img/land6.png","75","72","2","0","1","2","0.8,0.2,0.2,0.2,0.8,0.2,0.2,0.2,0.8","0.8,0.2,0.2,0.2,0.8,0.2,0.2,0.2,0.8","1","",""
"","html-keyboard-response","113","56466","0.0-113.0","3GNA64GUZFQYXR8BCJ49LTCKX345Q3","A3V2O71AQ29DRZ","3HUR21WDDUBEMSLDIXZW1FAIHW8YX3","","null","<img src=""img/land6.png"" style=""width:200px;border:14px solid red;"">","null","","","","","","","","","",""
"","image-keyboard-response","114","56602","0.0-114.0","3GNA64GUZFQYXR8BCJ49LTCKX345Q3","A3V2O71AQ29DRZ","3HUR21WDDUBEMSLDIXZW1FAIHW8YX3","","136","img/land6.png","76","136","3","0","1","2","0.8,0.2,0.2,0.2,0.8,0.2,0.2,0.2,0.8","0.8,0.2,0.2,0.2,0.8,0.2,0.2,0.2,0.8","1","",""
"","html-keyboard-response","115","56903","0.0-115.0","3GNA64GUZFQYXR8BCJ49LTCKX345Q3","A3V2O71AQ29DRZ","3HUR21WDDUBEMSLDIXZW1FAIHW8YX3","","null","<img src=""img/land6.png"" style=""width:200px;border:14px solid red;"">","null","","","","","","","","","",""
"","image-keyboard-response","116","56995","0.0-116.0","3GNA64GUZFQYXR8BCJ49LTCKX345Q3","A3V2O71AQ29DRZ","3HUR21WDDUBEMSLDIXZW1FAIHW8YX3","","92","img/land6.png","76","92","3","0","1","2","0.8,0.2,0.2,0.2,0.8,0.2,0.2,0.2,0.8","0.8,0.2,0.2,0.2,0.8,0.2,0.2,0.2,0.8","1","",""
"","html-keyboard-response","117","57332","0.0-117.0","3GNA64GUZFQYXR8BCJ49LTCKX345Q3","A3V2O71AQ29DRZ","3HUR21WDDUBEMSLDIXZW1FAIHW8YX3","","null","<img src=""img/land6.png"" style=""width:200px;border:14px solid red;"">","null","","","","","","","","","",""
"","image-keyboard-response","118","57372","0.0-118.0","3GNA64GUZFQYXR8BCJ49LTCKX345Q3","A3V2O71AQ29DRZ","3HUR21WDDUBEMSLDIXZW1FAIHW8YX3","","39","img/land5.png","74","39","1","0","2","2","0.8,0.2,0.2,0.2,0.8,0.2,0.2,0.2,0.8","0.8,0.2,0.2,0.2,0.8,0.2,0.2,0.2,0.8","1","",""
"","html-keyboard-response","119","57672","0.0-119.0","3GNA64GUZFQYXR8BCJ49LTCKX345Q3","A3V2O71AQ29DRZ","3HUR21WDDUBEMSLDIXZW1FAIHW8YX3","","null","<img src=""img/land5.png"" style=""width:200px;border:14px solid red;"">","null","","","","","","","","","",""
"","image-keyboard-response","120","57714","0.0-120.0","3GNA64GUZFQYXR8BCJ49LTCKX345Q3","A3V2O71AQ29DRZ","3HUR21WDDUBEMSLDIXZW1FAIHW8YX3","","42","img/land6.png","76","42","3","0","1","2","0.8,0.2,0.2,0.2,0.8,0.2,0.2,0.2,0.8","0.8,0.2,0.2,0.2,0.8,0.2,0.2,0.2,0.8","1","",""
"","html-keyboard-response","121","58023","0.0-121.0","3GNA64GUZFQYXR8BCJ49LTCKX345Q3","A3V2O71AQ29DRZ","3HUR21WDDUBEMSLDIXZW1FAIHW8YX3","","null","<img src=""img/land6.png"" style=""width:200px;border:14px solid red;"">","null","","","","","","","","","",""
"","image-keyboard-response","122","58031","0.0-122.0","3GNA64GUZFQYXR8BCJ49LTCKX345Q3","A3V2O71AQ29DRZ","3HUR21WDDUBEMSLDIXZW1FAIHW8YX3","","8","img/land6.png","76","8","3","1","1","2","0.8,0.2,0.2,0.2,0.8,0.2,0.2,0.2,0.8","0.8,0.2,0.2,0.2,0.8,0.2,0.2,0.2,0.8","1","",""
"","html-keyboard-response","123","58331","0.0-123.0","3GNA64GUZFQYXR8BCJ49LTCKX345Q3","A3V2O71AQ29DRZ","3HUR21WDDUBEMSLDIXZW1FAIHW8YX3","","null","<img src=""img/land6.png"" style=""width:200px; border:14px solid green;"">","null","","","","","","","","","",""
"","image-keyboard-response","124","58366","0.0-124.0","3GNA64GUZFQYXR8BCJ49LTCKX345Q3","A3V2O71AQ29DRZ","3HUR21WDDUBEMSLDIXZW1FAIHW8YX3","","35","img/land6.png","76","35","3","0","1","2","0.8,0.2,0.2,0.2,0.8,0.2,0.2,0.2,0.8","0.8,0.2,0.2,0.2,0.8,0.2,0.2,0.2,0.8","1","",""
"","html-keyboard-response","125","58667","0.0-125.0","3GNA64GUZFQYXR8BCJ49LTCKX345Q3","A3V2O71AQ29DRZ","3HUR21WDDUBEMSLDIXZW1FAIHW8YX3","","null","<img src=""img/land6.png"" style=""width:200px;border:14px solid red;"">","null","","","","","","","","","",""
"","image-keyboard-response","126","58709","0.0-126.0","3GNA64GUZFQYXR8BCJ49LTCKX345Q3","A3V2O71AQ29DRZ","3HUR21WDDUBEMSLDIXZW1FAIHW8YX3","","42","img/land6.png","76","42","3","0","1","2","0.8,0.2,0.2,0.2,0.8,0.2,0.2,0.2,0.8","0.8,0.2,0.2,0.2,0.8,0.2,0.2,0.2,0.8","1","",""
"","html-keyboard-response","127","59010","0.0-127.0","3GNA64GUZFQYXR8BCJ49LTCKX345Q3","A3V2O71AQ29DRZ","3HUR21WDDUBEMSLDIXZW1FAIHW8YX3","","null","<img src=""img/land6.png"" style=""width:200px;border:14px solid red;"">","null","","","","","","","","","",""
"","image-keyboard-response","128","59059","0.0-128.0","3GNA64GUZFQYXR8BCJ49LTCKX345Q3","A3V2O71AQ29DRZ","3HUR21WDDUBEMSLDIXZW1FAIHW8YX3","","49","img/land6.png","76","49","3","0","1","2","0.8,0.2,0.2,0.2,0.8,0.2,0.2,0.2,0.8","0.8,0.2,0.2,0.2,0.8,0.2,0.2,0.2,0.8","1","",""
"","html-keyboard-response","129","59361","0.0-129.0","3GNA64GUZFQYXR8BCJ49LTCKX345Q3","A3V2O71AQ29DRZ","3HUR21WDDUBEMSLDIXZW1FAIHW8YX3","","null","<img src=""img/land6.png"" style=""width:200px;border:14px solid red;"">","null","","","","","","","","","",""
"","image-keyboard-response","130","59436","0.0-130.0","3GNA64GUZFQYXR8BCJ49LTCKX345Q3","A3V2O71AQ29DRZ","3HUR21WDDUBEMSLDIXZW1FAIHW8YX3","","75","img/land6.png","76","75","3","0","1","2","0.8,0.2,0.2,0.2,0.8,0.2,0.2,0.2,0.8","0.8,0.2,0.2,0.2,0.8,0.2,0.2,0.2,0.8","1","",""
"","html-keyboard-response","131","59737","0.0-131.0","3GNA64GUZFQYXR8BCJ49LTCKX345Q3","A3V2O71AQ29DRZ","3HUR21WDDUBEMSLDIXZW1FAIHW8YX3","","null","<img src=""img/land6.png"" style=""width:200px;border:14px solid red;"">","null","","","","","","","","","",""
"","image-keyboard-response","132","59820","0.0-132.0","3GNA64GUZFQYXR8BCJ49LTCKX345Q3","A3V2O71AQ29DRZ","3HUR21WDDUBEMSLDIXZW1FAIHW8YX3","","83","img/land5.png","76","83","3","0","2","2","0.8,0.2,0.2,0.2,0.8,0.2,0.2,0.2,0.8","0.8,0.2,0.2,0.2,0.8,0.2,0.2,0.2,0.8","1","",""
"","html-keyboard-response","133","60122","0.0-133.0","3GNA64GUZFQYXR8BCJ49LTCKX345Q3","A3V2O71AQ29DRZ","3HUR21WDDUBEMSLDIXZW1FAIHW8YX3","","null","<img src=""img/land5.png"" style=""width:200px;border:14px solid red;"">","null","","","","","","","","","",""
"","image-keyboard-response","134","60132","0.0-134.0","3GNA64GUZFQYXR8BCJ49LTCKX345Q3","A3V2O71AQ29DRZ","3HUR21WDDUBEMSLDIXZW1FAIHW8YX3","","10","img/land6.png","74","10","1","1","1","2","0.8,0.2,0.2,0.2,0.8,0.2,0.2,0.2,0.8","0.8,0.2,0.2,0.2,0.8,0.2,0.2,0.2,0.8","1","",""
"","html-keyboard-response","135","60434","0.0-135.0","3GNA64GUZFQYXR8BCJ49LTCKX345Q3","A3V2O71AQ29DRZ","3HUR21WDDUBEMSLDIXZW1FAIHW8YX3","","null","<img src=""img/land6.png"" style=""width:200px; border:14px solid green;"">","null","","","","","","","","","",""
"","image-keyboard-response","136","60494","0.0-136.0","3GNA64GUZFQYXR8BCJ49LTCKX345Q3","A3V2O71AQ29DRZ","3HUR21WDDUBEMSLDIXZW1FAIHW8YX3","","59","img/land6.png","76","60","3","1","1","2","0.8,0.2,0.2,0.2,0.8,0.2,0.2,0.2,0.8","0.8,0.2,0.2,0.2,0.8,0.2,0.2,0.2,0.8","1","",""
"","html-keyboard-response","137","60796","0.0-137.0","3GNA64GUZFQYXR8BCJ49LTCKX345Q3","A3V2O71AQ29DRZ","3HUR21WDDUBEMSLDIXZW1FAIHW8YX3","","null","<img src=""img/land6.png"" style=""width:200px; border:14px solid green;"">","null","","","","","","","","","",""
"","image-keyboard-response","138","60920","0.0-138.0","3GNA64GUZFQYXR8BCJ49LTCKX345Q3","A3V2O71AQ29DRZ","3HUR21WDDUBEMSLDIXZW1FAIHW8YX3","","122","img/land1.png","75","124","2","0","3","2","0.8,0.2,0.2,0.2,0.8,0.2,0.2,0.2,0.8","0.8,0.2,0.2,0.2,0.8,0.2,0.2,0.2,0.8","1","",""
"","html-keyboard-response","139","61221","0.0-139.0","3GNA64GUZFQYXR8BCJ49LTCKX345Q3","A3V2O71AQ29DRZ","3HUR21WDDUBEMSLDIXZW1FAIHW8YX3","","null","<img src=""img/land1.png"" style=""width:200px;border:14px solid red;"">","null","","","","","","","","","",""
"","image-keyboard-response","140","61374","0.0-140.0","3GNA64GUZFQYXR8BCJ49LTCKX345Q3","A3V2O71AQ29DRZ","3HUR21WDDUBEMSLDIXZW1FAIHW8YX3","","153","img/land6.png","76","153","3","0","1","2","0.8,0.2,0.2,0.2,0.8,0.2,0.2,0.2,0.8","0.8,0.2,0.2,0.2,0.8,0.2,0.2,0.2,0.8","1","",""
"","html-keyboard-response","141","61675","0.0-141.0","3GNA64GUZFQYXR8BCJ49LTCKX345Q3","A3V2O71AQ29DRZ","3HUR21WDDUBEMSLDIXZW1FAIHW8YX3","","null","<img src=""img/land6.png"" style=""width:200px;border:14px solid red;"">","null","","","","","","","","","",""
"","image-keyboard-response","142","61687","0.0-142.0","3GNA64GUZFQYXR8BCJ49LTCKX345Q3","A3V2O71AQ29DRZ","3HUR21WDDUBEMSLDIXZW1FAIHW8YX3","","12","img/land6.png","74","12","1","1","1","2","0.8,0.2,0.2,0.2,0.8,0.2,0.2,0.2,0.8","0.8,0.2,0.2,0.2,0.8,0.2,0.2,0.2,0.8","1","",""
"","html-keyboard-response","143","61987","0.0-143.0","3GNA64GUZFQYXR8BCJ49LTCKX345Q3","A3V2O71AQ29DRZ","3HUR21WDDUBEMSLDIXZW1FAIHW8YX3","","null","<img src=""img/land6.png"" style=""width:200px; border:14px solid green;"">","null","","","","","","","","","",""
"","image-keyboard-response","144","62114","0.0-144.0","3GNA64GUZFQYXR8BCJ49LTCKX345Q3","A3V2O71AQ29DRZ","3HUR21WDDUBEMSLDIXZW1FAIHW8YX3","","127","img/land6.png","75","127","2","1","1","2","0.8,0.2,0.2,0.2,0.8,0.2,0.2,0.2,0.8","0.8,0.2,0.2,0.2,0.8,0.2,0.2,0.2,0.8","1","",""
"","html-keyboard-response","145","62415","0.0-145.0","3GNA64GUZFQYXR8BCJ49LTCKX345Q3","A3V2O71AQ29DRZ","3HUR21WDDUBEMSLDIXZW1FAIHW8YX3","","null","<img src=""img/land6.png"" style=""width:200px; border:14px solid green;"">","null","","","","","","","","","",""
"","image-keyboard-response","146","62463","0.0-146.0","3GNA64GUZFQYXR8BCJ49LTCKX345Q3","A3V2O71AQ29DRZ","3HUR21WDDUBEMSLDIXZW1FAIHW8YX3","","47","img/land1.png","75","48","2","0","3","2","0.8,0.2,0.2,0.2,0.8,0.2,0.2,0.2,0.8","0.8,0.2,0.2,0.2,0.8,0.2,0.2,0.2,0.8","1","",""
"","html-keyboard-response","147","62764","0.0-147.0","3GNA64GUZFQYXR8BCJ49LTCKX345Q3","A3V2O71AQ29DRZ","3HUR21WDDUBEMSLDIXZW1FAIHW8YX3","","null","<img src=""img/land1.png"" style=""width:200px;border:14px solid red;"">","null","","","","","","","","","",""
"","image-keyboard-response","148","62796","0.0-148.0","3GNA64GUZFQYXR8BCJ49LTCKX345Q3","A3V2O71AQ29DRZ","3HUR21WDDUBEMSLDIXZW1FAIHW8YX3","","32","img/land5.png","75","32","2","1","2","2","0.8,0.2,0.2,0.2,0.8,0.2,0.2,0.2,0.8","0.8,0.2,0.2,0.2,0.8,0.2,0.2,0.2,0.8","1","",""
"","html-keyboard-response","149","63097","0.0-149.0","3GNA64GUZFQYXR8BCJ49LTCKX345Q3","A3V2O71AQ29DRZ","3HUR21WDDUBEMSLDIXZW1FAIHW8YX3","","null","<img src=""img/land5.png"" style=""width:200px; border:14px solid green;"">","null","","","","","","","","","",""
"","image-keyboard-response","150","63112","0.0-150.0","3GNA64GUZFQYXR8BCJ49LTCKX345Q3","A3V2O71AQ29DRZ","3HUR21WDDUBEMSLDIXZW1FAIHW8YX3","","15","img/land6.png","76","15","3","0","1","2","0.8,0.2,0.2,0.2,0.8,0.2,0.2,0.2,0.8","0.8,0.2,0.2,0.2,0.8,0.2,0.2,0.2,0.8","1","",""
"","html-keyboard-response","151","63413","0.0-151.0","3GNA64GUZFQYXR8BCJ49LTCKX345Q3","A3V2O71AQ29DRZ","3HUR21WDDUBEMSLDIXZW1FAIHW8YX3","","null","<img src=""img/land6.png"" style=""width:200px;border:14px solid red;"">","null","","","","","","","","","",""
"","image-keyboard-response","152","63458","0.0-152.0","3GNA64GUZFQYXR8BCJ49LTCKX345Q3","A3V2O71AQ29DRZ","3HUR21WDDUBEMSLDIXZW1FAIHW8YX3","","44","img/land6.png","74","45","1","0","1","2","0.8,0.2,0.2,0.2,0.8,0.2,0.2,0.2,0.8","0.8,0.2,0.2,0.2,0.8,0.2,0.2,0.2,0.8","1","",""
"","html-keyboard-response","153","63758","0.0-153.0","3GNA64GUZFQYXR8BCJ49LTCKX345Q3","A3V2O71AQ29DRZ","3HUR21WDDUBEMSLDIXZW1FAIHW8YX3","","null","<img src=""img/land6.png"" style=""width:200px;border:14px solid red;"">","null","","","","","","","","","",""
"","image-keyboard-response","154","63764","0.0-154.0","3GNA64GUZFQYXR8BCJ49LTCKX345Q3","A3V2O71AQ29DRZ","3HUR21WDDUBEMSLDIXZW1FAIHW8YX3","","6","img/land6.png","76","6","3","0","1","2","0.8,0.2,0.2,0.2,0.8,0.2,0.2,0.2,0.8","0.8,0.2,0.2,0.2,0.8,0.2,0.2,0.2,0.8","1","",""
"","html-keyboard-response","155","64066","0.0-155.0","3GNA64GUZFQYXR8BCJ49LTCKX345Q3","A3V2O71AQ29DRZ","3HUR21WDDUBEMSLDIXZW1FAIHW8YX3","","null","<img src=""img/land6.png"" style=""width:200px;border:14px solid red;"">","null","","","","","","","","","",""
"","image-keyboard-response","156","64101","0.0-156.0","3GNA64GUZFQYXR8BCJ49LTCKX345Q3","A3V2O71AQ29DRZ","3HUR21WDDUBEMSLDIXZW1FAIHW8YX3","","33","img/land6.png","76","35","3","1","1","2","0.8,0.2,0.2,0.2,0.8,0.2,0.2,0.2,0.8","0.8,0.2,0.2,0.2,0.8,0.2,0.2,0.2,0.8","1","",""
"","html-keyboard-response","157","64402","0.0-157.0","3GNA64GUZFQYXR8BCJ49LTCKX345Q3","A3V2O71AQ29DRZ","3HUR21WDDUBEMSLDIXZW1FAIHW8YX3","","null","<img src=""img/land6.png"" style=""width:200px; border:14px solid green;"">","null","","","","","","","","","",""
"","image-keyboard-response","158","64428","0.0-158.0","3GNA64GUZFQYXR8BCJ49LTCKX345Q3","A3V2O71AQ29DRZ","3HUR21WDDUBEMSLDIXZW1FAIHW8YX3","","26","img/land1.png","74","26","1","0","3","2","0.8,0.2,0.2,0.2,0.8,0.2,0.2,0.2,0.8","0.8,0.2,0.2,0.2,0.8,0.2,0.2,0.2,0.8","1","",""
"","html-keyboard-response","159","64730","0.0-159.0","3GNA64GUZFQYXR8BCJ49LTCKX345Q3","A3V2O71AQ29DRZ","3HUR21WDDUBEMSLDIXZW1FAIHW8YX3","","null","<img src=""img/land1.png"" style=""width:200px;border:14px solid red;"">","null","","","","","","","","","",""
"","image-keyboard-response","160","64784","0.0-160.0","3GNA64GUZFQYXR8BCJ49LTCKX345Q3","A3V2O71AQ29DRZ","3HUR21WDDUBEMSLDIXZW1FAIHW8YX3","","54","img/land1.png","76","54","3","1","3","2","0.8,0.2,0.2,0.2,0.8,0.2,0.2,0.2,0.8","0.8,0.2,0.2,0.2,0.8,0.2,0.2,0.2,0.8","1","",""
"","html-keyboard-response","161","65085","0.0-161.0","3GNA64GUZFQYXR8BCJ49LTCKX345Q3","A3V2O71AQ29DRZ","3HUR21WDDUBEMSLDIXZW1FAIHW8YX3","","null","<img src=""img/land1.png"" style=""width:200px; border:14px solid green;"">","null","","","","","","","","","",""
"","image-keyboard-response","162","65156","0.0-162.0","3GNA64GUZFQYXR8BCJ49LTCKX345Q3","A3V2O71AQ29DRZ","3HUR21WDDUBEMSLDIXZW1FAIHW8YX3","","71","img/land6.png","74","71","1","1","1","2","0.8,0.2,0.2,0.2,0.8,0.2,0.2,0.2,0.8","0.8,0.2,0.2,0.2,0.8,0.2,0.2,0.2,0.8","1","",""
"","html-keyboard-response","163","65457","0.0-163.0","3GNA64GUZFQYXR8BCJ49LTCKX345Q3","A3V2O71AQ29DRZ","3HUR21WDDUBEMSLDIXZW1FAIHW8YX3","","null","<img src=""img/land6.png"" style=""width:200px; border:14px solid green;"">","null","","","","","","","","","",""
"","image-keyboard-response","164","65500","0.0-164.0","3GNA64GUZFQYXR8BCJ49LTCKX345Q3","A3V2O71AQ29DRZ","3HUR21WDDUBEMSLDIXZW1FAIHW8YX3","","43","img/land5.png","74","44","1","0","2","2","0.8,0.2,0.2,0.2,0.8,0.2,0.2,0.2,0.8","0.8,0.2,0.2,0.2,0.8,0.2,0.2,0.2,0.8","1","",""
"","html-keyboard-response","165","65801","0.0-165.0","3GNA64GUZFQYXR8BCJ49LTCKX345Q3","A3V2O71AQ29DRZ","3HUR21WDDUBEMSLDIXZW1FAIHW8YX3","","null","<img src=""img/land5.png"" style=""width:200px;border:14px solid red;"">","null","","","","","","","","","",""
"","image-keyboard-response","166","65836","0.0-166.0","3GNA64GUZFQYXR8BCJ49LTCKX345Q3","A3V2O71AQ29DRZ","3HUR21WDDUBEMSLDIXZW1FAIHW8YX3","","35","img/land6.png","76","35","3","0","1","2","0.8,0.2,0.2,0.2,0.8,0.2,0.2,0.2,0.8","0.8,0.2,0.2,0.2,0.8,0.2,0.2,0.2,0.8","1","",""
"","html-keyboard-response","167","66138","0.0-167.0","3GNA64GUZFQYXR8BCJ49LTCKX345Q3","A3V2O71AQ29DRZ","3HUR21WDDUBEMSLDIXZW1FAIHW8YX3","","null","<img src=""img/land6.png"" style=""width:200px;border:14px solid red;"">","null","","","","","","","","","",""
"","image-keyboard-response","168","66206","0.0-168.0","3GNA64GUZFQYXR8BCJ49LTCKX345Q3","A3V2O71AQ29DRZ","3HUR21WDDUBEMSLDIXZW1FAIHW8YX3","","66","img/land1.png","76","67","3","1","3","2","0.8,0.2,0.2,0.2,0.8,0.2,0.2,0.2,0.8","0.8,0.2,0.2,0.2,0.8,0.2,0.2,0.2,0.8","1","",""
"","html-keyboard-response","169","66508","0.0-169.0","3GNA64GUZFQYXR8BCJ49LTCKX345Q3","A3V2O71AQ29DRZ","3HUR21WDDUBEMSLDIXZW1FAIHW8YX3","","null","<img src=""img/land1.png"" style=""width:200px; border:14px solid green;"">","null","","","","","","","","","",""
"","image-keyboard-response","170","66595","0.0-170.0","3GNA64GUZFQYXR8BCJ49LTCKX345Q3","A3V2O71AQ29DRZ","3HUR21WDDUBEMSLDIXZW1FAIHW8YX3","","86","img/land6.png","74","87","1","1","1","2","0.8,0.2,0.2,0.2,0.8,0.2,0.2,0.2,0.8","0.8,0.2,0.2,0.2,0.8,0.2,0.2,0.2,0.8","1","",""
"","html-keyboard-response","171","66896","0.0-171.0","3GNA64GUZFQYXR8BCJ49LTCKX345Q3","A3V2O71AQ29DRZ","3HUR21WDDUBEMSLDIXZW1FAIHW8YX3","","null","<img src=""img/land6.png"" style=""width:200px; border:14px solid green;"">","null","","","","","","","","","",""
"","image-keyboard-response","172","66973","0.0-172.0","3GNA64GUZFQYXR8BCJ49LTCKX345Q3","A3V2O71AQ29DRZ","3HUR21WDDUBEMSLDIXZW1FAIHW8YX3","","76","img/land1.png","76","77","3","1","3","2","0.8,0.2,0.2,0.2,0.8,0.2,0.2,0.2,0.8","0.8,0.2,0.2,0.2,0.8,0.2,0.2,0.2,0.8","1","",""
"","html-keyboard-response","173","67274","0.0-173.0","3GNA64GUZFQYXR8BCJ49LTCKX345Q3","A3V2O71AQ29DRZ","3HUR21WDDUBEMSLDIXZW1FAIHW8YX3","","null","<img src=""img/land1.png"" style=""width:200px; border:14px solid green;"">","null","","","","","","","","","",""
"","image-keyboard-response","174","67355","0.0-174.0","3GNA64GUZFQYXR8BCJ49LTCKX345Q3","A3V2O71AQ29DRZ","3HUR21WDDUBEMSLDIXZW1FAIHW8YX3","","81","img/land6.png","74","81","1","0","1","2","0.8,0.2,0.2,0.2,0.8,0.2,0.2,0.2,0.8","0.8,0.2,0.2,0.2,0.8,0.2,0.2,0.2,0.8","1","",""
"","html-keyboard-response","175","67656","0.0-175.0","3GNA64GUZFQYXR8BCJ49LTCKX345Q3","A3V2O71AQ29DRZ","3HUR21WDDUBEMSLDIXZW1FAIHW8YX3","","null","<img src=""img/land6.png"" style=""width:200px;border:14px solid red;"">","null","","","","","","","","","",""
"","image-keyboard-response","176","67749","0.0-176.0","3GNA64GUZFQYXR8BCJ49LTCKX345Q3","A3V2O71AQ29DRZ","3HUR21WDDUBEMSLDIXZW1FAIHW8YX3","","92","img/land1.png","74","93","1","0","3","2","0.8,0.2,0.2,0.2,0.8,0.2,0.2,0.2,0.8","0.8,0.2,0.2,0.2,0.8,0.2,0.2,0.2,0.8","1","",""
"","html-keyboard-response","177","68050","0.0-177.0","3GNA64GUZFQYXR8BCJ49LTCKX345Q3","A3V2O71AQ29DRZ","3HUR21WDDUBEMSLDIXZW1FAIHW8YX3","","null","<img src=""img/land1.png"" style=""width:200px;border:14px solid red;"">","null","","","","","","","","","",""
"","image-keyboard-response","178","68155","0.0-178.0","3GNA64GUZFQYXR8BCJ49LTCKX345Q3","A3V2O71AQ29DRZ","3HUR21WDDUBEMSLDIXZW1FAIHW8YX3","","105","img/land5.png","76","105","3","0","2","2","0.8,0.2,0.2,0.2,0.8,0.2,0.2,0.2,0.8","0.8,0.2,0.2,0.2,0.8,0.2,0.2,0.2,0.8","1","",""
"","html-keyboard-response","179","68456","0.0-179.0","3GNA64GUZFQYXR8BCJ49LTCKX345Q3","A3V2O71AQ29DRZ","3HUR21WDDUBEMSLDIXZW1FAIHW8YX3","","null","<img src=""img/land5.png"" style=""width:200px;border:14px solid red;"">","null","","","","","","","","","",""
"","image-keyboard-response","180","68534","0.0-180.0","3GNA64GUZFQYXR8BCJ49LTCKX345Q3","A3V2O71AQ29DRZ","3HUR21WDDUBEMSLDIXZW1FAIHW8YX3","","78","img/land1.png","76","79","3","0","3","2","0.8,0.2,0.2,0.2,0.8,0.2,0.2,0.2,0.8","0.8,0.2,0.2,0.2,0.8,0.2,0.2,0.2,0.8","1","",""
"","html-keyboard-response","181","68836","0.0-181.0","3GNA64GUZFQYXR8BCJ49LTCKX345Q3","A3V2O71AQ29DRZ","3HUR21WDDUBEMSLDIXZW1FAIHW8YX3","","null","<img src=""img/land1.png"" style=""width:200px;border:14px solid red;"">","null","","","","","","","","","",""
"","image-keyboard-response","182","68867","0.0-182.0","3GNA64GUZFQYXR8BCJ49LTCKX345Q3","A3V2O71AQ29DRZ","3HUR21WDDUBEMSLDIXZW1FAIHW8YX3","","30","img/land5.png","76","31","3","1","2","2","0.8,0.2,0.2,0.2,0.8,0.2,0.2,0.2,0.8","0.8,0.2,0.2,0.2,0.8,0.2,0.2,0.2,0.8","1","",""
"","html-keyboard-response","183","69168","0.0-183.0","3GNA64GUZFQYXR8BCJ49LTCKX345Q3","A3V2O71AQ29DRZ","3HUR21WDDUBEMSLDIXZW1FAIHW8YX3","","null","<img src=""img/land5.png"" style=""width:200px; border:14px solid green;"">","null","","","","","","","","","",""
"","image-keyboard-response","184","69220","0.0-184.0","3GNA64GUZFQYXR8BCJ49LTCKX345Q3","A3V2O71AQ29DRZ","3HUR21WDDUBEMSLDIXZW1FAIHW8YX3","","52","img/land5.png","74","52","1","0","2","2","0.8,0.2,0.2,0.2,0.8,0.2,0.2,0.2,0.8","0.8,0.2,0.2,0.2,0.8,0.2,0.2,0.2,0.8","1","",""
"","html-keyboard-response","185","69523","0.0-185.0","3GNA64GUZFQYXR8BCJ49LTCKX345Q3","A3V2O71AQ29DRZ","3HUR21WDDUBEMSLDIXZW1FAIHW8YX3","","null","<img src=""img/land5.png"" style=""width:200px;border:14px solid red;"">","null","","","","","","","","","",""
"","image-keyboard-response","186","69541","0.0-186.0","3GNA64GUZFQYXR8BCJ49LTCKX345Q3","A3V2O71AQ29DRZ","3HUR21WDDUBEMSLDIXZW1FAIHW8YX3","","17","img/land5.png","74","18","1","0","2","2","0.8,0.2,0.2,0.2,0.8,0.2,0.2,0.2,0.8","0.8,0.2,0.2,0.2,0.8,0.2,0.2,0.2,0.8","1","",""
"","html-keyboard-response","187","69843","0.0-187.0","3GNA64GUZFQYXR8BCJ49LTCKX345Q3","A3V2O71AQ29DRZ","3HUR21WDDUBEMSLDIXZW1FAIHW8YX3","","null","<img src=""img/land5.png"" style=""width:200px;border:14px solid red;"">","null","","","","","","","","","",""
"","image-keyboard-response","188","69969","0.0-188.0","3GNA64GUZFQYXR8BCJ49LTCKX345Q3","A3V2O71AQ29DRZ","3HUR21WDDUBEMSLDIXZW1FAIHW8YX3","","126","img/land6.png","76","127","3","0","1","2","0.8,0.2,0.2,0.2,0.8,0.2,0.2,0.2,0.8","0.8,0.2,0.2,0.2,0.8,0.2,0.2,0.2,0.8","1","",""
"","html-keyboard-response","189","70271","0.0-189.0","3GNA64GUZFQYXR8BCJ49LTCKX345Q3","A3V2O71AQ29DRZ","3HUR21WDDUBEMSLDIXZW1FAIHW8YX3","","null","<img src=""img/land6.png"" style=""width:200px;border:14px solid red;"">","null","","","","","","","","","",""
"","image-keyboard-response","190","70330","0.0-190.0","3GNA64GUZFQYXR8BCJ49LTCKX345Q3","A3V2O71AQ29DRZ","3HUR21WDDUBEMSLDIXZW1FAIHW8YX3","","58","img/land1.png","74","59","1","1","3","2","0.8,0.2,0.2,0.2,0.8,0.2,0.2,0.2,0.8","0.8,0.2,0.2,0.2,0.8,0.2,0.2,0.2,0.8","1","",""
"","html-keyboard-response","191","70633","0.0-191.0","3GNA64GUZFQYXR8BCJ49LTCKX345Q3","A3V2O71AQ29DRZ","3HUR21WDDUBEMSLDIXZW1FAIHW8YX3","","null","<img src=""img/land1.png"" style=""width:200px; border:14px solid green;"">","null","","","","","","","","","",""
"","image-keyboard-response","192","70639","0.0-192.0","3GNA64GUZFQYXR8BCJ49LTCKX345Q3","A3V2O71AQ29DRZ","3HUR21WDDUBEMSLDIXZW1FAIHW8YX3","","5","img/land6.png","74","6","1","1","1","2","0.8,0.2,0.2,0.2,0.8,0.2,0.2,0.2,0.8","0.8,0.2,0.2,0.2,0.8,0.2,0.2,0.2,0.8","1","",""
"","html-keyboard-response","193","70939","0.0-193.0","3GNA64GUZFQYXR8BCJ49LTCKX345Q3","A3V2O71AQ29DRZ","3HUR21WDDUBEMSLDIXZW1FAIHW8YX3","","null","<img src=""img/land6.png"" style=""width:200px; border:14px solid green;"">","null","","","","","","","","","",""
"","image-keyboard-response","194","71103","0.0-194.0","3GNA64GUZFQYXR8BCJ49LTCKX345Q3","A3V2O71AQ29DRZ","3HUR21WDDUBEMSLDIXZW1FAIHW8YX3","","164","img/land6.png","76","164","3","0","1","2","0.8,0.2,0.2,0.2,0.8,0.2,0.2,0.2,0.8","0.8,0.2,0.2,0.2,0.8,0.2,0.2,0.2,0.8","1","",""
"","html-keyboard-response","195","71403","0.0-195.0","3GNA64GUZFQYXR8BCJ49LTCKX345Q3","A3V2O71AQ29DRZ","3HUR21WDDUBEMSLDIXZW1FAIHW8YX3","","null","<img src=""img/land6.png"" style=""width:200px;border:14px solid red;"">","null","","","","","","","","","",""
"","image-keyboard-response","196","71432","0.0-196.0","3GNA64GUZFQYXR8BCJ49LTCKX345Q3","A3V2O71AQ29DRZ","3HUR21WDDUBEMSLDIXZW1FAIHW8YX3","","28","img/land5.png","75","29","2","1","2","2","0.8,0.2,0.2,0.2,0.8,0.2,0.2,0.2,0.8","0.8,0.2,0.2,0.2,0.8,0.2,0.2,0.2,0.8","1","",""
"","html-keyboard-response","197","71733","0.0-197.0","3GNA64GUZFQYXR8BCJ49LTCKX345Q3","A3V2O71AQ29DRZ","3HUR21WDDUBEMSLDIXZW1FAIHW8YX3","","null","<img src=""img/land5.png"" style=""width:200px; border:14px solid green;"">","null","","","","","","","","","",""
"","image-keyboard-response","198","71823","0.0-198.0","3GNA64GUZFQYXR8BCJ49LTCKX345Q3","A3V2O71AQ29DRZ","3HUR21WDDUBEMSLDIXZW1FAIHW8YX3","","89","img/land6.png","74","90","1","1","1","2","0.8,0.2,0.2,0.2,0.8,0.2,0.2,0.2,0.8","0.8,0.2,0.2,0.2,0.8,0.2,0.2,0.2,0.8","1","",""
"","html-keyboard-response","199","72124","0.0-199.0","3GNA64GUZFQYXR8BCJ49LTCKX345Q3","A3V2O71AQ29DRZ","3HUR21WDDUBEMSLDIXZW1FAIHW8YX3","","null","<img src=""img/land6.png"" style=""width:200px; border:14px solid green;"">","null","","","","","","","","","",""
"","image-keyboard-response","200","72177","0.0-200.0","3GNA64GUZFQYXR8BCJ49LTCKX345Q3","A3V2O71AQ29DRZ","3HUR21WDDUBEMSLDIXZW1FAIHW8YX3","","52","img/land6.png","76","53","3","0","1","2","0.8,0.2,0.2,0.2,0.8,0.2,0.2,0.2,0.8","0.8,0.2,0.2,0.2,0.8,0.2,0.2,0.2,0.8","1","",""
"","html-keyboard-response","201","72477","0.0-201.0","3GNA64GUZFQYXR8BCJ49LTCKX345Q3","A3V2O71AQ29DRZ","3HUR21WDDUBEMSLDIXZW1FAIHW8YX3","","null","<img src=""img/land6.png"" style=""width:200px;border:14px solid red;"">","null","","","","","","","","","",""
"","image-keyboard-response","202","72686","0.0-202.0","3GNA64GUZFQYXR8BCJ49LTCKX345Q3","A3V2O71AQ29DRZ","3HUR21WDDUBEMSLDIXZW1FAIHW8YX3","","209","img/land1.png","76","209","3","1","3","2","0.8,0.2,0.2,0.2,0.8,0.2,0.2,0.2,0.8","0.8,0.2,0.2,0.2,0.8,0.2,0.2,0.2,0.8","1","",""
"","html-keyboard-response","203","73001","0.0-203.0","3GNA64GUZFQYXR8BCJ49LTCKX345Q3","A3V2O71AQ29DRZ","3HUR21WDDUBEMSLDIXZW1FAIHW8YX3","","null","<img src=""img/land1.png"" style=""width:200px; border:14px solid green;"">","null","","","","","","","","","",""
"","image-keyboard-response","204","73017","0.0-204.0","3GNA64GUZFQYXR8BCJ49LTCKX345Q3","A3V2O71AQ29DRZ","3HUR21WDDUBEMSLDIXZW1FAIHW8YX3","","16","img/land6.png","74","16","1","0","1","2","0.8,0.2,0.2,0.2,0.8,0.2,0.2,0.2,0.8","0.8,0.2,0.2,0.2,0.8,0.2,0.2,0.2,0.8","1","",""
"","html-keyboard-response","205","73318","0.0-205.0","3GNA64GUZFQYXR8BCJ49LTCKX345Q3","A3V2O71AQ29DRZ","3HUR21WDDUBEMSLDIXZW1FAIHW8YX3","","null","<img src=""img/land6.png"" style=""width:200px;border:14px solid red;"">","null","","","","","","","","","",""
"","image-keyboard-response","206","73419","0.0-206.0","3GNA64GUZFQYXR8BCJ49LTCKX345Q3","A3V2O71AQ29DRZ","3HUR21WDDUBEMSLDIXZW1FAIHW8YX3","","101","img/land5.png","74","101","1","0","2","2","0.8,0.2,0.2,0.2,0.8,0.2,0.2,0.2,0.8","0.8,0.2,0.2,0.2,0.8,0.2,0.2,0.2,0.8","1","",""
"","html-keyboard-response","207","73720","0.0-207.0","3GNA64GUZFQYXR8BCJ49LTCKX345Q3","A3V2O71AQ29DRZ","3HUR21WDDUBEMSLDIXZW1FAIHW8YX3","","null","<img src=""img/land5.png"" style=""width:200px;border:14px solid red;"">","null","","","","","","","","","",""
"","image-keyboard-response","208","73760","0.0-208.0","3GNA64GUZFQYXR8BCJ49LTCKX345Q3","A3V2O71AQ29DRZ","3HUR21WDDUBEMSLDIXZW1FAIHW8YX3","","40","img/land6.png","74","40","1","1","1","2","0.8,0.2,0.2,0.2,0.8,0.2,0.2,0.2,0.8","0.8,0.2,0.2,0.2,0.8,0.2,0.2,0.2,0.8","1","",""
"","html-keyboard-response","209","74062","0.0-209.0","3GNA64GUZFQYXR8BCJ49LTCKX345Q3","A3V2O71AQ29DRZ","3HUR21WDDUBEMSLDIXZW1FAIHW8YX3","","null","<img src=""img/land6.png"" style=""width:200px; border:14px solid green;"">","null","","","","","","","","","",""
"","image-keyboard-response","210","74258","0.0-210.0","3GNA64GUZFQYXR8BCJ49LTCKX345Q3","A3V2O71AQ29DRZ","3HUR21WDDUBEMSLDIXZW1FAIHW8YX3","","196","img/land1.png","76","196","3","1","3","2","0.8,0.2,0.2,0.2,0.8,0.2,0.2,0.2,0.8","0.8,0.2,0.2,0.2,0.8,0.2,0.2,0.2,0.8","1","",""
"","html-keyboard-response","211","74558","0.0-211.0","3GNA64GUZFQYXR8BCJ49LTCKX345Q3","A3V2O71AQ29DRZ","3HUR21WDDUBEMSLDIXZW1FAIHW8YX3","","null","<img src=""img/land1.png"" style=""width:200px; border:14px solid green;"">","null","","","","","","","","","",""
"","image-keyboard-response","212","74569","0.0-212.0","3GNA64GUZFQYXR8BCJ49LTCKX345Q3","A3V2O71AQ29DRZ","3HUR21WDDUBEMSLDIXZW1FAIHW8YX3","","11","img/land1.png","76","11","3","1","3","2","0.8,0.2,0.2,0.2,0.8,0.2,0.2,0.2,0.8","0.8,0.2,0.2,0.2,0.8,0.2,0.2,0.2,0.8","1","",""
"","html-keyboard-response","213","74871","0.0-213.0","3GNA64GUZFQYXR8BCJ49LTCKX345Q3","A3V2O71AQ29DRZ","3HUR21WDDUBEMSLDIXZW1FAIHW8YX3","","null","<img src=""img/land1.png"" style=""width:200px; border:14px solid green;"">","null","","","","","","","","","",""
"","image-keyboard-response","214","74897","0.0-214.0","3GNA64GUZFQYXR8BCJ49LTCKX345Q3","A3V2O71AQ29DRZ","3HUR21WDDUBEMSLDIXZW1FAIHW8YX3","","26","img/land5.png","75","26","2","1","2","2","0.8,0.2,0.2,0.2,0.8,0.2,0.2,0.2,0.8","0.8,0.2,0.2,0.2,0.8,0.2,0.2,0.2,0.8","1","",""
"","html-keyboard-response","215","75198","0.0-215.0","3GNA64GUZFQYXR8BCJ49LTCKX345Q3","A3V2O71AQ29DRZ","3HUR21WDDUBEMSLDIXZW1FAIHW8YX3","","null","<img src=""img/land5.png"" style=""width:200px; border:14px solid green;"">","null","","","","","","","","","",""
"","image-keyboard-response","216","75244","0.0-216.0","3GNA64GUZFQYXR8BCJ49LTCKX345Q3","A3V2O71AQ29DRZ","3HUR21WDDUBEMSLDIXZW1FAIHW8YX3","","46","img/land1.png","76","46","3","1","3","2","0.8,0.2,0.2,0.2,0.8,0.2,0.2,0.2,0.8","0.8,0.2,0.2,0.2,0.8,0.2,0.2,0.2,0.8","1","",""
"","html-keyboard-response","217","75546","0.0-217.0","3GNA64GUZFQYXR8BCJ49LTCKX345Q3","A3V2O71AQ29DRZ","3HUR21WDDUBEMSLDIXZW1FAIHW8YX3","","null","<img src=""img/land1.png"" style=""width:200px; border:14px solid green;"">","null","","","","","","","","","",""
"","image-keyboard-response","218","75583","0.0-218.0","3GNA64GUZFQYXR8BCJ49LTCKX345Q3","A3V2O71AQ29DRZ","3HUR21WDDUBEMSLDIXZW1FAIHW8YX3","","37","img/land1.png","74","37","1","0","3","2","0.8,0.2,0.2,0.2,0.8,0.2,0.2,0.2,0.8","0.8,0.2,0.2,0.2,0.8,0.2,0.2,0.2,0.8","1","",""
"","html-keyboard-response","219","75884","0.0-219.0","3GNA64GUZFQYXR8BCJ49LTCKX345Q3","A3V2O71AQ29DRZ","3HUR21WDDUBEMSLDIXZW1FAIHW8YX3","","null","<img src=""img/land1.png"" style=""width:200px;border:14px solid red;"">","null","","","","","","","","","",""
"","image-keyboard-response","220","75952","0.0-220.0","3GNA64GUZFQYXR8BCJ49LTCKX345Q3","A3V2O71AQ29DRZ","3HUR21WDDUBEMSLDIXZW1FAIHW8YX3","","68","img/land1.png","76","68","3","1","3","2","0.8,0.2,0.2,0.2,0.8,0.2,0.2,0.2,0.8","0.8,0.2,0.2,0.2,0.8,0.2,0.2,0.2,0.8","1","",""
"","html-keyboard-response","221","76254","0.0-221.0","3GNA64GUZFQYXR8BCJ49LTCKX345Q3","A3V2O71AQ29DRZ","3HUR21WDDUBEMSLDIXZW1FAIHW8YX3","","null","<img src=""img/land1.png"" style=""width:200px; border:14px solid green;"">","null","","","","","","","","","",""
"","image-keyboard-response","222","76311","0.0-222.0","3GNA64GUZFQYXR8BCJ49LTCKX345Q3","A3V2O71AQ29DRZ","3HUR21WDDUBEMSLDIXZW1FAIHW8YX3","","56","img/land6.png","75","57","2","0","1","2","0.8,0.2,0.2,0.2,0.8,0.2,0.2,0.2,0.8","0.8,0.2,0.2,0.2,0.8,0.2,0.2,0.2,0.8","1","",""
"","html-keyboard-response","223","76611","0.0-223.0","3GNA64GUZFQYXR8BCJ49LTCKX345Q3","A3V2O71AQ29DRZ","3HUR21WDDUBEMSLDIXZW1FAIHW8YX3","","null","<img src=""img/land6.png"" style=""width:200px;border:14px solid red;"">","null","","","","","","","","","",""
"","image-keyboard-response","224","76637","0.0-224.0","3GNA64GUZFQYXR8BCJ49LTCKX345Q3","A3V2O71AQ29DRZ","3HUR21WDDUBEMSLDIXZW1FAIHW8YX3","","25","img/land6.png","75","26","2","0","1","2","0.8,0.2,0.2,0.2,0.8,0.2,0.2,0.2,0.8","0.8,0.2,0.2,0.2,0.8,0.2,0.2,0.2,0.8","1","",""
"","html-keyboard-response","225","76938","0.0-225.0","3GNA64GUZFQYXR8BCJ49LTCKX345Q3","A3V2O71AQ29DRZ","3HUR21WDDUBEMSLDIXZW1FAIHW8YX3","","null","<img src=""img/land6.png"" style=""width:200px;border:14px solid red;"">","null","","","","","","","","","",""
"","image-keyboard-response","226","77012","0.0-226.0","3GNA64GUZFQYXR8BCJ49LTCKX345Q3","A3V2O71AQ29DRZ","3HUR21WDDUBEMSLDIXZW1FAIHW8YX3","","74","img/land1.png","74","74","1","0","3","2","0.8,0.2,0.2,0.2,0.8,0.2,0.2,0.2,0.8","0.8,0.2,0.2,0.2,0.8,0.2,0.2,0.2,0.8","1","",""
"","html-keyboard-response","227","77313","0.0-227.0","3GNA64GUZFQYXR8BCJ49LTCKX345Q3","A3V2O71AQ29DRZ","3HUR21WDDUBEMSLDIXZW1FAIHW8YX3","","null","<img src=""img/land1.png"" style=""width:200px;border:14px solid red;"">","null","","","","","","","","","",""
"","image-keyboard-response","228","77421","0.0-228.0","3GNA64GUZFQYXR8BCJ49LTCKX345Q3","A3V2O71AQ29DRZ","3HUR21WDDUBEMSLDIXZW1FAIHW8YX3","","108","img/land5.png","74","108","1","0","2","2","0.8,0.2,0.2,0.2,0.8,0.2,0.2,0.2,0.8","0.8,0.2,0.2,0.2,0.8,0.2,0.2,0.2,0.8","1","",""
"","html-keyboard-response","229","77722","0.0-229.0","3GNA64GUZFQYXR8BCJ49LTCKX345Q3","A3V2O71AQ29DRZ","3HUR21WDDUBEMSLDIXZW1FAIHW8YX3","","null","<img src=""img/land5.png"" style=""width:200px;border:14px solid red;"">","null","","","","","","","","","",""
"","image-keyboard-response","230","77871","0.0-230.0","3GNA64GUZFQYXR8BCJ49LTCKX345Q3","A3V2O71AQ29DRZ","3HUR21WDDUBEMSLDIXZW1FAIHW8YX3","","149","img/land5.png","76","149","3","0","2","2","0.8,0.2,0.2,0.2,0.8,0.2,0.2,0.2,0.8","0.8,0.2,0.2,0.2,0.8,0.2,0.2,0.2,0.8","1","",""
"","html-keyboard-response","231","78172","0.0-231.0","3GNA64GUZFQYXR8BCJ49LTCKX345Q3","A3V2O71AQ29DRZ","3HUR21WDDUBEMSLDIXZW1FAIHW8YX3","","null","<img src=""img/land5.png"" style=""width:200px;border:14px solid red;"">","null","","","","","","","","","",""
"","image-keyboard-response","232","78183","0.0-232.0","3GNA64GUZFQYXR8BCJ49LTCKX345Q3","A3V2O71AQ29DRZ","3HUR21WDDUBEMSLDIXZW1FAIHW8YX3","","11","img/land6.png","74","11","1","1","1","2","0.8,0.2,0.2,0.2,0.8,0.2,0.2,0.2,0.8","0.8,0.2,0.2,0.2,0.8,0.2,0.2,0.2,0.8","1","",""
"","html-keyboard-response","233","78484","0.0-233.0","3GNA64GUZFQYXR8BCJ49LTCKX345Q3","A3V2O71AQ29DRZ","3HUR21WDDUBEMSLDIXZW1FAIHW8YX3","","null","<img src=""img/land6.png"" style=""width:200px; border:14px solid green;"">","null","","","","","","","","","",""
"","image-keyboard-response","234","78537","0.0-234.0","3GNA64GUZFQYXR8BCJ49LTCKX345Q3","A3V2O71AQ29DRZ","3HUR21WDDUBEMSLDIXZW1FAIHW8YX3","","52","img/land6.png","75","53","2","1","1","2","0.8,0.2,0.2,0.2,0.8,0.2,0.2,0.2,0.8","0.8,0.2,0.2,0.2,0.8,0.2,0.2,0.2,0.8","1","",""
"","html-keyboard-response","235","78838","0.0-235.0","3GNA64GUZFQYXR8BCJ49LTCKX345Q3","A3V2O71AQ29DRZ","3HUR21WDDUBEMSLDIXZW1FAIHW8YX3","","null","<img src=""img/land6.png"" style=""width:200px; border:14px solid green;"">","null","","","","","","","","","",""
"","image-keyboard-response","236","78939","0.0-236.0","3GNA64GUZFQYXR8BCJ49LTCKX345Q3","A3V2O71AQ29DRZ","3HUR21WDDUBEMSLDIXZW1FAIHW8YX3","","101","img/land5.png","74","102","1","0","2","2","0.8,0.2,0.2,0.2,0.8,0.2,0.2,0.2,0.8","0.8,0.2,0.2,0.2,0.8,0.2,0.2,0.2,0.8","1","",""
"","html-keyboard-response","237","79240","0.0-237.0","3GNA64GUZFQYXR8BCJ49LTCKX345Q3","A3V2O71AQ29DRZ","3HUR21WDDUBEMSLDIXZW1FAIHW8YX3","","null","<img src=""img/land5.png"" style=""width:200px;border:14px solid red;"">","null","","","","","","","","","",""
"","image-keyboard-response","238","79296","0.0-238.0","3GNA64GUZFQYXR8BCJ49LTCKX345Q3","A3V2O71AQ29DRZ","3HUR21WDDUBEMSLDIXZW1FAIHW8YX3","","56","img/land5.png","76","56","3","0","2","2","0.8,0.2,0.2,0.2,0.8,0.2,0.2,0.2,0.8","0.8,0.2,0.2,0.2,0.8,0.2,0.2,0.2,0.8","1","",""
"","html-keyboard-response","239","79597","0.0-239.0","3GNA64GUZFQYXR8BCJ49LTCKX345Q3","A3V2O71AQ29DRZ","3HUR21WDDUBEMSLDIXZW1FAIHW8YX3","","null","<img src=""img/land5.png"" style=""width:200px;border:14px solid red;"">","null","","","","","","","","","",""
"","image-keyboard-response","240","79668","0.0-240.0","3GNA64GUZFQYXR8BCJ49LTCKX345Q3","A3V2O71AQ29DRZ","3HUR21WDDUBEMSLDIXZW1FAIHW8YX3","","71","img/land1.png","76","71","3","1","3","2","0.8,0.2,0.2,0.2,0.8,0.2,0.2,0.2,0.8","0.8,0.2,0.2,0.2,0.8,0.2,0.2,0.2,0.8","1","",""
"","html-keyboard-response","241","79970","0.0-241.0","3GNA64GUZFQYXR8BCJ49LTCKX345Q3","A3V2O71AQ29DRZ","3HUR21WDDUBEMSLDIXZW1FAIHW8YX3","","null","<img src=""img/land1.png"" style=""width:200px; border:14px solid green;"">","null","","","","","","","","","",""
"","image-keyboard-response","242","80009","0.0-242.0","3GNA64GUZFQYXR8BCJ49LTCKX345Q3","A3V2O71AQ29DRZ","3HUR21WDDUBEMSLDIXZW1FAIHW8YX3","","38","img/land6.png","75","39","2","1","1","2","0.8,0.2,0.2,0.2,0.8,0.2,0.2,0.2,0.8","0.8,0.2,0.2,0.2,0.8,0.2,0.2,0.2,0.8","1","",""
"","html-keyboard-response","243","80309","0.0-243.0","3GNA64GUZFQYXR8BCJ49LTCKX345Q3","A3V2O71AQ29DRZ","3HUR21WDDUBEMSLDIXZW1FAIHW8YX3","","null","<img src=""img/land6.png"" style=""width:200px; border:14px solid green;"">","null","","","","","","","","","",""
"","image-keyboard-response","244","80373","0.0-244.0","3GNA64GUZFQYXR8BCJ49LTCKX345Q3","A3V2O71AQ29DRZ","3HUR21WDDUBEMSLDIXZW1FAIHW8YX3","","64","img/land6.png","74","64","1","0","1","2","0.8,0.2,0.2,0.2,0.8,0.2,0.2,0.2,0.8","0.8,0.2,0.2,0.2,0.8,0.2,0.2,0.2,0.8","1","",""
"","html-keyboard-response","245","80674","0.0-245.0","3GNA64GUZFQYXR8BCJ49LTCKX345Q3","A3V2O71AQ29DRZ","3HUR21WDDUBEMSLDIXZW1FAIHW8YX3","","null","<img src=""img/land6.png"" style=""width:200px;border:14px solid red;"">","null","","","","","","","","","",""
"","image-keyboard-response","246","80722","0.0-246.0","3GNA64GUZFQYXR8BCJ49LTCKX345Q3","A3V2O71AQ29DRZ","3HUR21WDDUBEMSLDIXZW1FAIHW8YX3","","48","img/land6.png","75","48","2","0","1","2","0.8,0.2,0.2,0.2,0.8,0.2,0.2,0.2,0.8","0.8,0.2,0.2,0.2,0.8,0.2,0.2,0.2,0.8","1","",""
"","html-keyboard-response","247","81023","0.0-247.0","3GNA64GUZFQYXR8BCJ49LTCKX345Q3","A3V2O71AQ29DRZ","3HUR21WDDUBEMSLDIXZW1FAIHW8YX3","","null","<img src=""img/land6.png"" style=""width:200px;border:14px solid red;"">","null","","","","","","","","","",""
"","image-keyboard-response","248","81036","0.0-248.0","3GNA64GUZFQYXR8BCJ49LTCKX345Q3","A3V2O71AQ29DRZ","3HUR21WDDUBEMSLDIXZW1FAIHW8YX3","","12","img/land5.png","75","13","2","1","2","2","0.8,0.2,0.2,0.2,0.8,0.2,0.2,0.2,0.8","0.8,0.2,0.2,0.2,0.8,0.2,0.2,0.2,0.8","1","",""
"","html-keyboard-response","249","81353","0.0-249.0","3GNA64GUZFQYXR8BCJ49LTCKX345Q3","A3V2O71AQ29DRZ","3HUR21WDDUBEMSLDIXZW1FAIHW8YX3","","null","<img src=""img/land5.png"" style=""width:200px; border:14px solid green;"">","null","","","","","","","","","",""
"","image-keyboard-response","250","81417","0.0-250.0","3GNA64GUZFQYXR8BCJ49LTCKX345Q3","A3V2O71AQ29DRZ","3HUR21WDDUBEMSLDIXZW1FAIHW8YX3","","61","img/land6.png","75","63","2","0","1","2","0.8,0.2,0.2,0.2,0.8,0.2,0.2,0.2,0.8","0.8,0.2,0.2,0.2,0.8,0.2,0.2,0.2,0.8","1","",""
"","html-keyboard-response","251","81719","0.0-251.0","3GNA64GUZFQYXR8BCJ49LTCKX345Q3","A3V2O71AQ29DRZ","3HUR21WDDUBEMSLDIXZW1FAIHW8YX3","","null","<img src=""img/land6.png"" style=""width:200px;border:14px solid red;"">","null","","","","","","","","","",""
"","image-keyboard-response","252","81720","0.0-252.0","3GNA64GUZFQYXR8BCJ49LTCKX345Q3","A3V2O71AQ29DRZ","3HUR21WDDUBEMSLDIXZW1FAIHW8YX3","","1","img/land1.png","75","1","2","0","3","2","0.8,0.2,0.2,0.2,0.8,0.2,0.2,0.2,0.8","0.8,0.2,0.2,0.2,0.8,0.2,0.2,0.2,0.8","1","",""
"","html-keyboard-response","253","82032","0.0-253.0","3GNA64GUZFQYXR8BCJ49LTCKX345Q3","A3V2O71AQ29DRZ","3HUR21WDDUBEMSLDIXZW1FAIHW8YX3","","null","<img src=""img/land1.png"" style=""width:200px;border:14px solid red;"">","null","","","","","","","","","",""
"","image-keyboard-response","254","82080","0.0-254.0","3GNA64GUZFQYXR8BCJ49LTCKX345Q3","A3V2O71AQ29DRZ","3HUR21WDDUBEMSLDIXZW1FAIHW8YX3","","47","img/land1.png","75","48","2","1","3","2","0.8,0.2,0.2,0.2,0.8,0.2,0.2,0.2,0.8","0.8,0.2,0.2,0.2,0.8,0.2,0.2,0.2,0.8","1","",""
"","html-keyboard-response","255","82381","0.0-255.0","3GNA64GUZFQYXR8BCJ49LTCKX345Q3","A3V2O71AQ29DRZ","3HUR21WDDUBEMSLDIXZW1FAIHW8YX3","","null","<img src=""img/land1.png"" style=""width:200px; border:14px solid green;"">","null","","","","","","","","","",""
"","image-keyboard-response","256","82387","0.0-256.0","3GNA64GUZFQYXR8BCJ49LTCKX345Q3","A3V2O71AQ29DRZ","3HUR21WDDUBEMSLDIXZW1FAIHW8YX3","","6","img/land5.png","74","6","1","0","2","2","0.8,0.2,0.2,0.2,0.8,0.2,0.2,0.2,0.8","0.8,0.2,0.2,0.2,0.8,0.2,0.2,0.2,0.8","1","",""
"","html-keyboard-response","257","82687","0.0-257.0","3GNA64GUZFQYXR8BCJ49LTCKX345Q3","A3V2O71AQ29DRZ","3HUR21WDDUBEMSLDIXZW1FAIHW8YX3","","null","<img src=""img/land5.png"" style=""width:200px;border:14px solid red;"">","null","","","","","","","","","",""
"","image-keyboard-response","258","82729","0.0-258.0","3GNA64GUZFQYXR8BCJ49LTCKX345Q3","A3V2O71AQ29DRZ","3HUR21WDDUBEMSLDIXZW1FAIHW8YX3","","42","img/land6.png","74","42","1","1","1","2","0.8,0.2,0.2,0.2,0.8,0.2,0.2,0.2,0.8","0.8,0.2,0.2,0.2,0.8,0.2,0.2,0.2,0.8","1","",""
"","html-keyboard-response","259","83030","0.0-259.0","3GNA64GUZFQYXR8BCJ49LTCKX345Q3","A3V2O71AQ29DRZ","3HUR21WDDUBEMSLDIXZW1FAIHW8YX3","","null","<img src=""img/land6.png"" style=""width:200px; border:14px solid green;"">","null","","","","","","","","","",""
"","image-keyboard-response","260","83103","0.0-260.0","3GNA64GUZFQYXR8BCJ49LTCKX345Q3","A3V2O71AQ29DRZ","3HUR21WDDUBEMSLDIXZW1FAIHW8YX3","","73","img/land6.png","76","73","3","0","1","2","0.8,0.2,0.2,0.2,0.8,0.2,0.2,0.2,0.8","0.8,0.2,0.2,0.2,0.8,0.2,0.2,0.2,0.8","1","",""
"","html-keyboard-response","261","83404","0.0-261.0","3GNA64GUZFQYXR8BCJ49LTCKX345Q3","A3V2O71AQ29DRZ","3HUR21WDDUBEMSLDIXZW1FAIHW8YX3","","null","<img src=""img/land6.png"" style=""width:200px;border:14px solid red;"">","null","","","","","","","","","",""
"","image-keyboard-response","262","83481","0.0-262.0","3GNA64GUZFQYXR8BCJ49LTCKX345Q3","A3V2O71AQ29DRZ","3HUR21WDDUBEMSLDIXZW1FAIHW8YX3","","77","img/land1.png","74","77","1","0","3","2","0.8,0.2,0.2,0.2,0.8,0.2,0.2,0.2,0.8","0.8,0.2,0.2,0.2,0.8,0.2,0.2,0.2,0.8","1","",""
"","html-keyboard-response","263","83798","0.0-263.0","3GNA64GUZFQYXR8BCJ49LTCKX345Q3","A3V2O71AQ29DRZ","3HUR21WDDUBEMSLDIXZW1FAIHW8YX3","","null","<img src=""img/land1.png"" style=""width:200px;border:14px solid red;"">","null","","","","","","","","","",""
"","image-keyboard-response","264","83872","0.0-264.0","3GNA64GUZFQYXR8BCJ49LTCKX345Q3","A3V2O71AQ29DRZ","3HUR21WDDUBEMSLDIXZW1FAIHW8YX3","","72","img/land1.png","75","74","2","0","3","2","0.8,0.2,0.2,0.2,0.8,0.2,0.2,0.2,0.8","0.8,0.2,0.2,0.2,0.8,0.2,0.2,0.2,0.8","1","",""
"","html-keyboard-response","265","84172","0.0-265.0","3GNA64GUZFQYXR8BCJ49LTCKX345Q3","A3V2O71AQ29DRZ","3HUR21WDDUBEMSLDIXZW1FAIHW8YX3","","null","<img src=""img/land1.png"" style=""width:200px;border:14px solid red;"">","null","","","","","","","","","",""
"","image-keyboard-response","266","84222","0.0-266.0","3GNA64GUZFQYXR8BCJ49LTCKX345Q3","A3V2O71AQ29DRZ","3HUR21WDDUBEMSLDIXZW1FAIHW8YX3","","49","img/land6.png","74","50","1","1","1","2","0.8,0.2,0.2,0.2,0.8,0.2,0.2,0.2,0.8","0.8,0.2,0.2,0.2,0.8,0.2,0.2,0.2,0.8","1","",""
"","html-keyboard-response","267","84522","0.0-267.0","3GNA64GUZFQYXR8BCJ49LTCKX345Q3","A3V2O71AQ29DRZ","3HUR21WDDUBEMSLDIXZW1FAIHW8YX3","","null","<img src=""img/land6.png"" style=""width:200px; border:14px solid green;"">","null","","","","","","","","","",""
"","image-keyboard-response","268","84649","0.0-268.0","3GNA64GUZFQYXR8BCJ49LTCKX345Q3","A3V2O71AQ29DRZ","3HUR21WDDUBEMSLDIXZW1FAIHW8YX3","","127","img/land6.png","74","127","1","0","1","2","0.8,0.2,0.2,0.2,0.8,0.2,0.2,0.2,0.8","0.8,0.2,0.2,0.2,0.8,0.2,0.2,0.2,0.8","1","",""
"","html-keyboard-response","269","84951","0.0-269.0","3GNA64GUZFQYXR8BCJ49LTCKX345Q3","A3V2O71AQ29DRZ","3HUR21WDDUBEMSLDIXZW1FAIHW8YX3","","null","<img src=""img/land6.png"" style=""width:200px;border:14px solid red;"">","null","","","","","","","","","",""
"","image-keyboard-response","270","84991","0.0-270.0","3GNA64GUZFQYXR8BCJ49LTCKX345Q3","A3V2O71AQ29DRZ","3HUR21WDDUBEMSLDIXZW1FAIHW8YX3","","40","img/land1.png","76","40","3","1","3","2","0.8,0.2,0.2,0.2,0.8,0.2,0.2,0.2,0.8","0.8,0.2,0.2,0.2,0.8,0.2,0.2,0.2,0.8","1","",""
"","html-keyboard-response","271","85293","0.0-271.0","3GNA64GUZFQYXR8BCJ49LTCKX345Q3","A3V2O71AQ29DRZ","3HUR21WDDUBEMSLDIXZW1FAIHW8YX3","","null","<img src=""img/land1.png"" style=""width:200px; border:14px solid green;"">","null","","","","","","","","","",""
"","image-keyboard-response","272","85337","0.0-272.0","3GNA64GUZFQYXR8BCJ49LTCKX345Q3","A3V2O71AQ29DRZ","3HUR21WDDUBEMSLDIXZW1FAIHW8YX3","","44","img/land6.png","75","44","2","1","1","2","0.8,0.2,0.2,0.2,0.8,0.2,0.2,0.2,0.8","0.8,0.2,0.2,0.2,0.8,0.2,0.2,0.2,0.8","1","",""
"","html-keyboard-response","273","85639","0.0-273.0","3GNA64GUZFQYXR8BCJ49LTCKX345Q3","A3V2O71AQ29DRZ","3HUR21WDDUBEMSLDIXZW1FAIHW8YX3","","null","<img src=""img/land6.png"" style=""width:200px; border:14px solid green;"">","null","","","","","","","","","",""
"","image-keyboard-response","274","85779","0.0-274.0","3GNA64GUZFQYXR8BCJ49LTCKX345Q3","A3V2O71AQ29DRZ","3HUR21WDDUBEMSLDIXZW1FAIHW8YX3","","139","img/land6.png","76","140","3","1","1","2","0.8,0.2,0.2,0.2,0.8,0.2,0.2,0.2,0.8","0.8,0.2,0.2,0.2,0.8,0.2,0.2,0.2,0.8","1","",""
"","html-keyboard-response","275","86079","0.0-275.0","3GNA64GUZFQYXR8BCJ49LTCKX345Q3","A3V2O71AQ29DRZ","3HUR21WDDUBEMSLDIXZW1FAIHW8YX3","","null","<img src=""img/land6.png"" style=""width:200px; border:14px solid green;"">","null","","","","","","","","","",""
"","image-keyboard-response","276","86092","0.0-276.0","3GNA64GUZFQYXR8BCJ49LTCKX345Q3","A3V2O71AQ29DRZ","3HUR21WDDUBEMSLDIXZW1FAIHW8YX3","","13","img/land6.png","76","13","3","1","1","2","0.8,0.2,0.2,0.2,0.8,0.2,0.2,0.2,0.8","0.8,0.2,0.2,0.2,0.8,0.2,0.2,0.2,0.8","1","",""
"","html-keyboard-response","277","86394","0.0-277.0","3GNA64GUZFQYXR8BCJ49LTCKX345Q3","A3V2O71AQ29DRZ","3HUR21WDDUBEMSLDIXZW1FAIHW8YX3","","null","<img src=""img/land6.png"" style=""width:200px; border:14px solid green;"">","null","","","","","","","","","",""
"","image-keyboard-response","278","86426","0.0-278.0","3GNA64GUZFQYXR8BCJ49LTCKX345Q3","A3V2O71AQ29DRZ","3HUR21WDDUBEMSLDIXZW1FAIHW8YX3","","32","img/land6.png","75","32","2","0","1","2","0.8,0.2,0.2,0.2,0.8,0.2,0.2,0.2,0.8","0.8,0.2,0.2,0.2,0.8,0.2,0.2,0.2,0.8","1","",""
"","html-keyboard-response","279","86727","0.0-279.0","3GNA64GUZFQYXR8BCJ49LTCKX345Q3","A3V2O71AQ29DRZ","3HUR21WDDUBEMSLDIXZW1FAIHW8YX3","","null","<img src=""img/land6.png"" style=""width:200px;border:14px solid red;"">","null","","","","","","","","","",""
"","image-keyboard-response","280","86866","0.0-280.0","3GNA64GUZFQYXR8BCJ49LTCKX345Q3","A3V2O71AQ29DRZ","3HUR21WDDUBEMSLDIXZW1FAIHW8YX3","","138","img/land6.png","76","139","3","0","1","2","0.8,0.2,0.2,0.2,0.8,0.2,0.2,0.2,0.8","0.8,0.2,0.2,0.2,0.8,0.2,0.2,0.2,0.8","1","",""
"","html-keyboard-response","281","87169","0.0-281.0","3GNA64GUZFQYXR8BCJ49LTCKX345Q3","A3V2O71AQ29DRZ","3HUR21WDDUBEMSLDIXZW1FAIHW8YX3","","null","<img src=""img/land6.png"" style=""width:200px;border:14px solid red;"">","null","","","","","","","","","",""
"","image-keyboard-response","282","87430","0.0-282.0","3GNA64GUZFQYXR8BCJ49LTCKX345Q3","A3V2O71AQ29DRZ","3HUR21WDDUBEMSLDIXZW1FAIHW8YX3","","261","img/land6.png","76","261","3","0","1","2","0.8,0.2,0.2,0.2,0.8,0.2,0.2,0.2,0.8","0.8,0.2,0.2,0.2,0.8,0.2,0.2,0.2,0.8","1","",""
"","html-keyboard-response","283","87731","0.0-283.0","3GNA64GUZFQYXR8BCJ49LTCKX345Q3","A3V2O71AQ29DRZ","3HUR21WDDUBEMSLDIXZW1FAIHW8YX3","","null","<img src=""img/land6.png"" style=""width:200px;border:14px solid red;"">","null","","","","","","","","","",""
"","image-keyboard-response","284","87818","0.0-284.0","3GNA64GUZFQYXR8BCJ49LTCKX345Q3","A3V2O71AQ29DRZ","3HUR21WDDUBEMSLDIXZW1FAIHW8YX3","","87","img/land6.png","75","89","2","0","1","2","0.8,0.2,0.2,0.2,0.8,0.2,0.2,0.2,0.8","0.8,0.2,0.2,0.2,0.8,0.2,0.2,0.2,0.8","1","",""
"","html-keyboard-response","285","88120","0.0-285.0","3GNA64GUZFQYXR8BCJ49LTCKX345Q3","A3V2O71AQ29DRZ","3HUR21WDDUBEMSLDIXZW1FAIHW8YX3","","null","<img src=""img/land6.png"" style=""width:200px;border:14px solid red;"">","null","","","","","","","","","",""
"","image-keyboard-response","286","88129","0.0-286.0","3GNA64GUZFQYXR8BCJ49LTCKX345Q3","A3V2O71AQ29DRZ","3HUR21WDDUBEMSLDIXZW1FAIHW8YX3","","9","img/land6.png","75","9","2","0","1","2","0.8,0.2,0.2,0.2,0.8,0.2,0.2,0.2,0.8","0.8,0.2,0.2,0.2,0.8,0.2,0.2,0.2,0.8","1","",""
"","html-keyboard-response","287","88430","0.0-287.0","3GNA64GUZFQYXR8BCJ49LTCKX345Q3","A3V2O71AQ29DRZ","3HUR21WDDUBEMSLDIXZW1FAIHW8YX3","","null","<img src=""img/land6.png"" style=""width:200px;border:14px solid red;"">","null","","","","","","","","","",""
"","image-keyboard-response","288","88441","0.0-288.0","3GNA64GUZFQYXR8BCJ49LTCKX345Q3","A3V2O71AQ29DRZ","3HUR21WDDUBEMSLDIXZW1FAIHW8YX3","","11","img/land5.png","75","11","2","1","2","2","0.8,0.2,0.2,0.2,0.8,0.2,0.2,0.2,0.8","0.8,0.2,0.2,0.2,0.8,0.2,0.2,0.2,0.8","1","",""
"","html-keyboard-response","289","88743","0.0-289.0","3GNA64GUZFQYXR8BCJ49LTCKX345Q3","A3V2O71AQ29DRZ","3HUR21WDDUBEMSLDIXZW1FAIHW8YX3","","null","<img src=""img/land5.png"" style=""width:200px; border:14px solid green;"">","null","","","","","","","","","",""
"","image-keyboard-response","290","88821","0.0-290.0","3GNA64GUZFQYXR8BCJ49LTCKX345Q3","A3V2O71AQ29DRZ","3HUR21WDDUBEMSLDIXZW1FAIHW8YX3","","77","img/land6.png","74","79","1","0","1","2","0.8,0.2,0.2,0.2,0.8,0.2,0.2,0.2,0.8","0.8,0.2,0.2,0.2,0.8,0.2,0.2,0.2,0.8","1","",""
"","html-keyboard-response","291","89123","0.0-291.0","3GNA64GUZFQYXR8BCJ49LTCKX345Q3","A3V2O71AQ29DRZ","3HUR21WDDUBEMSLDIXZW1FAIHW8YX3","","null","<img src=""img/land6.png"" style=""width:200px;border:14px solid red;"">","null","","","","","","","","","",""
"","image-keyboard-response","292","89160","0.0-292.0","3GNA64GUZFQYXR8BCJ49LTCKX345Q3","A3V2O71AQ29DRZ","3HUR21WDDUBEMSLDIXZW1FAIHW8YX3","","36","img/land6.png","74","37","1","1","1","2","0.8,0.2,0.2,0.2,0.8,0.2,0.2,0.2,0.8","0.8,0.2,0.2,0.2,0.8,0.2,0.2,0.2,0.8","1","",""
"","html-keyboard-response","293","89462","0.0-293.0","3GNA64GUZFQYXR8BCJ49LTCKX345Q3","A3V2O71AQ29DRZ","3HUR21WDDUBEMSLDIXZW1FAIHW8YX3","","null","<img src=""img/land6.png"" style=""width:200px; border:14px solid green;"">","null","","","","","","","","","",""
"","image-keyboard-response","294","89523","0.0-294.0","3GNA64GUZFQYXR8BCJ49LTCKX345Q3","A3V2O71AQ29DRZ","3HUR21WDDUBEMSLDIXZW1FAIHW8YX3","","61","img/land5.png","76","61","3","0","2","2","0.8,0.2,0.2,0.2,0.8,0.2,0.2,0.2,0.8","0.8,0.2,0.2,0.2,0.8,0.2,0.2,0.2,0.8","1","",""
"","html-keyboard-response","295","89825","0.0-295.0","3GNA64GUZFQYXR8BCJ49LTCKX345Q3","A3V2O71AQ29DRZ","3HUR21WDDUBEMSLDIXZW1FAIHW8YX3","","null","<img src=""img/land5.png"" style=""width:200px;border:14px solid red;"">","null","","","","","","","","","",""
"","image-keyboard-response","296","89938","0.0-296.0","3GNA64GUZFQYXR8BCJ49LTCKX345Q3","A3V2O71AQ29DRZ","3HUR21WDDUBEMSLDIXZW1FAIHW8YX3","","113","img/land6.png","76","113","3","0","1","2","0.8,0.2,0.2,0.2,0.8,0.2,0.2,0.2,0.8","0.8,0.2,0.2,0.2,0.8,0.2,0.2,0.2,0.8","1","",""
"","html-keyboard-response","297","90239","0.0-297.0","3GNA64GUZFQYXR8BCJ49LTCKX345Q3","A3V2O71AQ29DRZ","3HUR21WDDUBEMSLDIXZW1FAIHW8YX3","","null","<img src=""img/land6.png"" style=""width:200px;border:14px solid red;"">","null","","","","","","","","","",""
"","image-keyboard-response","298","90422","0.0-298.0","3GNA64GUZFQYXR8BCJ49LTCKX345Q3","A3V2O71AQ29DRZ","3HUR21WDDUBEMSLDIXZW1FAIHW8YX3","","183","img/land1.png","76","183","3","1","3","2","0.8,0.2,0.2,0.2,0.8,0.2,0.2,0.2,0.8","0.8,0.2,0.2,0.2,0.8,0.2,0.2,0.2,0.8","1","",""
"","html-keyboard-response","299","90723","0.0-299.0","3GNA64GUZFQYXR8BCJ49LTCKX345Q3","A3V2O71AQ29DRZ","3HUR21WDDUBEMSLDIXZW1FAIHW8YX3","","null","<img src=""img/land1.png"" style=""width:200px; border:14px solid green;"">","null","","","","","","","","","",""
"","image-keyboard-response","300","90854","0.0-300.0","3GNA64GUZFQYXR8BCJ49LTCKX345Q3","A3V2O71AQ29DRZ","3HUR21WDDUBEMSLDIXZW1FAIHW8YX3","","130","img/land6.png","75","131","2","0","1","2","0.8,0.2,0.2,0.2,0.8,0.2,0.2,0.2,0.8","0.8,0.2,0.2,0.2,0.8,0.2,0.2,0.2,0.8","1","",""
"","html-keyboard-response","301","91154","0.0-301.0","3GNA64GUZFQYXR8BCJ49LTCKX345Q3","A3V2O71AQ29DRZ","3HUR21WDDUBEMSLDIXZW1FAIHW8YX3","","null","<img src=""img/land6.png"" style=""width:200px;border:14px solid red;"">","null","","","","","","","","","",""
"","image-keyboard-response","302","91233","0.0-302.0","3GNA64GUZFQYXR8BCJ49LTCKX345Q3","A3V2O71AQ29DRZ","3HUR21WDDUBEMSLDIXZW1FAIHW8YX3","","78","img/land3.png","74","79","1","1","1","1","0.8,0.2,0.2,0.2,0.8,0.2,0.2,0.2,0.8","0.8,0.2,0.2,0.2,0.8,0.2,0.2,0.2,0.8","1","",""
"","html-keyboard-response","303","91534","0.0-303.0","3GNA64GUZFQYXR8BCJ49LTCKX345Q3","A3V2O71AQ29DRZ","3HUR21WDDUBEMSLDIXZW1FAIHW8YX3","","null","<img src=""img/land3.png"" style=""width:200px; border:14px solid green;"">","null","","","","","","","","","",""
"","image-keyboard-response","304","91729","0.0-304.0","3GNA64GUZFQYXR8BCJ49LTCKX345Q3","A3V2O71AQ29DRZ","3HUR21WDDUBEMSLDIXZW1FAIHW8YX3","","195","img/land4.png","75","196","2","1","2","1","0.8,0.2,0.2,0.2,0.8,0.2,0.2,0.2,0.8","0.8,0.2,0.2,0.2,0.8,0.2,0.2,0.2,0.8","1","",""
"","html-keyboard-response","305","92030","0.0-305.0","3GNA64GUZFQYXR8BCJ49LTCKX345Q3","A3V2O71AQ29DRZ","3HUR21WDDUBEMSLDIXZW1FAIHW8YX3","","null","<img src=""img/land4.png"" style=""width:200px; border:14px solid green;"">","null","","","","","","","","","",""
"","image-keyboard-response","306","92144","0.0-306.0","3GNA64GUZFQYXR8BCJ49LTCKX345Q3","A3V2O71AQ29DRZ","3HUR21WDDUBEMSLDIXZW1FAIHW8YX3","","112","img/land2.png","75","113","2","0","3","1","0.8,0.2,0.2,0.2,0.8,0.2,0.2,0.2,0.8","0.8,0.2,0.2,0.2,0.8,0.2,0.2,0.2,0.8","1","",""
"","html-keyboard-response","307","92446","0.0-307.0","3GNA64GUZFQYXR8BCJ49LTCKX345Q3","A3V2O71AQ29DRZ","3HUR21WDDUBEMSLDIXZW1FAIHW8YX3","","null","<img src=""img/land2.png"" style=""width:200px;border:14px solid red;"">","null","","","","","","","","","",""
"","image-keyboard-response","308","92620","0.0-308.0","3GNA64GUZFQYXR8BCJ49LTCKX345Q3","A3V2O71AQ29DRZ","3HUR21WDDUBEMSLDIXZW1FAIHW8YX3","","174","img/land4.png","75","174","2","1","2","1","0.8,0.2,0.2,0.2,0.8,0.2,0.2,0.2,0.8","0.8,0.2,0.2,0.2,0.8,0.2,0.2,0.2,0.8","1","",""
"","html-keyboard-response","309","92923","0.0-309.0","3GNA64GUZFQYXR8BCJ49LTCKX345Q3","A3V2O71AQ29DRZ","3HUR21WDDUBEMSLDIXZW1FAIHW8YX3","","null","<img src=""img/land4.png"" style=""width:200px; border:14px solid green;"">","null","","","","","","","","","",""
"","image-keyboard-response","310","93016","0.0-310.0","3GNA64GUZFQYXR8BCJ49LTCKX345Q3","A3V2O71AQ29DRZ","3HUR21WDDUBEMSLDIXZW1FAIHW8YX3","","93","img/land2.png","76","93","3","1","3","1","0.8,0.2,0.2,0.2,0.8,0.2,0.2,0.2,0.8","0.8,0.2,0.2,0.2,0.8,0.2,0.2,0.2,0.8","1","",""
"","html-keyboard-response","311","93317","0.0-311.0","3GNA64GUZFQYXR8BCJ49LTCKX345Q3","A3V2O71AQ29DRZ","3HUR21WDDUBEMSLDIXZW1FAIHW8YX3","","null","<img src=""img/land2.png"" style=""width:200px; border:14px solid green;"">","null","","","","","","","","","",""
"","image-keyboard-response","312","93449","0.0-312.0","3GNA64GUZFQYXR8BCJ49LTCKX345Q3","A3V2O71AQ29DRZ","3HUR21WDDUBEMSLDIXZW1FAIHW8YX3","","132","img/land2.png","76","132","3","1","3","1","0.8,0.2,0.2,0.2,0.8,0.2,0.2,0.2,0.8","0.8,0.2,0.2,0.2,0.8,0.2,0.2,0.2,0.8","1","",""
"","html-keyboard-response","313","93750","0.0-313.0","3GNA64GUZFQYXR8BCJ49LTCKX345Q3","A3V2O71AQ29DRZ","3HUR21WDDUBEMSLDIXZW1FAIHW8YX3","","null","<img src=""img/land2.png"" style=""width:200px; border:14px solid green;"">","null","","","","","","","","","",""
"","image-keyboard-response","314","93830","0.0-314.0","3GNA64GUZFQYXR8BCJ49LTCKX345Q3","A3V2O71AQ29DRZ","3HUR21WDDUBEMSLDIXZW1FAIHW8YX3","","80","img/land2.png","76","80","3","1","3","1","0.8,0.2,0.2,0.2,0.8,0.2,0.2,0.2,0.8","0.8,0.2,0.2,0.2,0.8,0.2,0.2,0.2,0.8","1","",""
"","html-keyboard-response","315","94132","0.0-315.0","3GNA64GUZFQYXR8BCJ49LTCKX345Q3","A3V2O71AQ29DRZ","3HUR21WDDUBEMSLDIXZW1FAIHW8YX3","","null","<img src=""img/land2.png"" style=""width:200px; border:14px solid green;"">","null","","","","","","","","","",""
"","image-keyboard-response","316","94220","0.0-316.0","3GNA64GUZFQYXR8BCJ49LTCKX345Q3","A3V2O71AQ29DRZ","3HUR21WDDUBEMSLDIXZW1FAIHW8YX3","","88","img/land3.png","76","88","3","0","1","1","0.8,0.2,0.2,0.2,0.8,0.2,0.2,0.2,0.8","0.8,0.2,0.2,0.2,0.8,0.2,0.2,0.2,0.8","1","",""
"","html-keyboard-response","317","94521","0.0-317.0","3GNA64GUZFQYXR8BCJ49LTCKX345Q3","A3V2O71AQ29DRZ","3HUR21WDDUBEMSLDIXZW1FAIHW8YX3","","null","<img src=""img/land3.png"" style=""width:200px;border:14px solid red;"">","null","","","","","","","","","",""
"","image-keyboard-response","318","94626","0.0-318.0","3GNA64GUZFQYXR8BCJ49LTCKX345Q3","A3V2O71AQ29DRZ","3HUR21WDDUBEMSLDIXZW1FAIHW8YX3","","105","img/land3.png","76","105","3","0","1","1","0.8,0.2,0.2,0.2,0.8,0.2,0.2,0.2,0.8","0.8,0.2,0.2,0.2,0.8,0.2,0.2,0.2,0.8","1","",""
"","html-keyboard-response","319","94926","0.0-319.0","3GNA64GUZFQYXR8BCJ49LTCKX345Q3","A3V2O71AQ29DRZ","3HUR21WDDUBEMSLDIXZW1FAIHW8YX3","","null","<img src=""img/land3.png"" style=""width:200px;border:14px solid red;"">","null","","","","","","","","","",""
"","image-keyboard-response","320","95025","0.0-320.0","3GNA64GUZFQYXR8BCJ49LTCKX345Q3","A3V2O71AQ29DRZ","3HUR21WDDUBEMSLDIXZW1FAIHW8YX3","","98","img/land3.png","76","99","3","0","1","1","0.8,0.2,0.2,0.2,0.8,0.2,0.2,0.2,0.8","0.8,0.2,0.2,0.2,0.8,0.2,0.2,0.2,0.8","1","",""
"","html-keyboard-response","321","95330","0.0-321.0","3GNA64GUZFQYXR8BCJ49LTCKX345Q3","A3V2O71AQ29DRZ","3HUR21WDDUBEMSLDIXZW1FAIHW8YX3","","null","<img src=""img/land3.png"" style=""width:200px;border:14px solid red;"">","null","","","","","","","","","",""
"","image-keyboard-response","322","95362","0.0-322.0","3GNA64GUZFQYXR8BCJ49LTCKX345Q3","A3V2O71AQ29DRZ","3HUR21WDDUBEMSLDIXZW1FAIHW8YX3","","31","img/land3.png","74","32","1","1","1","1","0.8,0.2,0.2,0.2,0.8,0.2,0.2,0.2,0.8","0.8,0.2,0.2,0.2,0.8,0.2,0.2,0.2,0.8","1","",""
"","html-keyboard-response","323","95663","0.0-323.0","3GNA64GUZFQYXR8BCJ49LTCKX345Q3","A3V2O71AQ29DRZ","3HUR21WDDUBEMSLDIXZW1FAIHW8YX3","","null","<img src=""img/land3.png"" style=""width:200px; border:14px solid green;"">","null","","","","","","","","","",""
"","image-keyboard-response","324","95691","0.0-324.0","3GNA64GUZFQYXR8BCJ49LTCKX345Q3","A3V2O71AQ29DRZ","3HUR21WDDUBEMSLDIXZW1FAIHW8YX3","","26","img/land3.png","74","28","1","1","1","1","0.8,0.2,0.2,0.2,0.8,0.2,0.2,0.2,0.8","0.8,0.2,0.2,0.2,0.8,0.2,0.2,0.2,0.8","1","",""
"","html-keyboard-response","325","95991","0.0-325.0","3GNA64GUZFQYXR8BCJ49LTCKX345Q3","A3V2O71AQ29DRZ","3HUR21WDDUBEMSLDIXZW1FAIHW8YX3","","null","<img src=""img/land3.png"" style=""width:200px; border:14px solid green;"">","null","","","","","","","","","",""
"","image-keyboard-response","326","96090","0.0-326.0","3GNA64GUZFQYXR8BCJ49LTCKX345Q3","A3V2O71AQ29DRZ","3HUR21WDDUBEMSLDIXZW1FAIHW8YX3","","99","img/land2.png","76","99","3","0","3","1","0.8,0.2,0.2,0.2,0.8,0.2,0.2,0.2,0.8","0.8,0.2,0.2,0.2,0.8,0.2,0.2,0.2,0.8","1","",""
"","html-keyboard-response","327","96391","0.0-327.0","3GNA64GUZFQYXR8BCJ49LTCKX345Q3","A3V2O71AQ29DRZ","3HUR21WDDUBEMSLDIXZW1FAIHW8YX3","","null","<img src=""img/land2.png"" style=""width:200px;border:14px solid red;"">","null","","","","","","","","","",""
"","image-keyboard-response","328","96401","0.0-328.0","3GNA64GUZFQYXR8BCJ49LTCKX345Q3","A3V2O71AQ29DRZ","3HUR21WDDUBEMSLDIXZW1FAIHW8YX3","","10","img/land3.png","75","10","2","0","1","1","0.8,0.2,0.2,0.2,0.8,0.2,0.2,0.2,0.8","0.8,0.2,0.2,0.2,0.8,0.2,0.2,0.2,0.8","1","",""
"","html-keyboard-response","329","96703","0.0-329.0","3GNA64GUZFQYXR8BCJ49LTCKX345Q3","A3V2O71AQ29DRZ","3HUR21WDDUBEMSLDIXZW1FAIHW8YX3","","null","<img src=""img/land3.png"" style=""width:200px;border:14px solid red;"">","null","","","","","","","","","",""
"","image-keyboard-response","330","96809","0.0-330.0","3GNA64GUZFQYXR8BCJ49LTCKX345Q3","A3V2O71AQ29DRZ","3HUR21WDDUBEMSLDIXZW1FAIHW8YX3","","105","img/land4.png","76","106","3","0","2","1","0.8,0.2,0.2,0.2,0.8,0.2,0.2,0.2,0.8","0.8,0.2,0.2,0.2,0.8,0.2,0.2,0.2,0.8","1","",""
"","html-keyboard-response","331","97110","0.0-331.0","3GNA64GUZFQYXR8BCJ49LTCKX345Q3","A3V2O71AQ29DRZ","3HUR21WDDUBEMSLDIXZW1FAIHW8YX3","","null","<img src=""img/land4.png"" style=""width:200px;border:14px solid red;"">","null","","","","","","","","","",""
"","image-keyboard-response","332","97288","0.0-332.0","3GNA64GUZFQYXR8BCJ49LTCKX345Q3","A3V2O71AQ29DRZ","3HUR21WDDUBEMSLDIXZW1FAIHW8YX3","","177","img/land3.png","75","178","2","1","1","1","0.8,0.2,0.2,0.2,0.8,0.2,0.2,0.2,0.8","0.8,0.2,0.2,0.2,0.8,0.2,0.2,0.2,0.8","1","",""
"","html-keyboard-response","333","97589","0.0-333.0","3GNA64GUZFQYXR8BCJ49LTCKX345Q3","A3V2O71AQ29DRZ","3HUR21WDDUBEMSLDIXZW1FAIHW8YX3","","null","<img src=""img/land3.png"" style=""width:200px; border:14px solid green;"">","null","","","","","","","","","",""
"","image-keyboard-response","334","97723","0.0-334.0","3GNA64GUZFQYXR8BCJ49LTCKX345Q3","A3V2O71AQ29DRZ","3HUR21WDDUBEMSLDIXZW1FAIHW8YX3","","132","img/land4.png","76","134","3","0","2","1","0.8,0.2,0.2,0.2,0.8,0.2,0.2,0.2,0.8","0.8,0.2,0.2,0.2,0.8,0.2,0.2,0.2,0.8","1","",""
"","html-keyboard-response","335","98025","0.0-335.0","3GNA64GUZFQYXR8BCJ49LTCKX345Q3","A3V2O71AQ29DRZ","3HUR21WDDUBEMSLDIXZW1FAIHW8YX3","","null","<img src=""img/land4.png"" style=""width:200px;border:14px solid red;"">","null","","","","","","","","","",""
"","image-keyboard-response","336","98036","0.0-336.0","3GNA64GUZFQYXR8BCJ49LTCKX345Q3","A3V2O71AQ29DRZ","3HUR21WDDUBEMSLDIXZW1FAIHW8YX3","","10","img/land3.png","74","11","1","0","1","1","0.8,0.2,0.2,0.2,0.8,0.2,0.2,0.2,0.8","0.8,0.2,0.2,0.2,0.8,0.2,0.2,0.2,0.8","1","",""
"","html-keyboard-response","337","98336","0.0-337.0","3GNA64GUZFQYXR8BCJ49LTCKX345Q3","A3V2O71AQ29DRZ","3HUR21WDDUBEMSLDIXZW1FAIHW8YX3","","null","<img src=""img/land3.png"" style=""width:200px;border:14px solid red;"">","null","","","","","","","","","",""
"","image-keyboard-response","338","98349","0.0-338.0","3GNA64GUZFQYXR8BCJ49LTCKX345Q3","A3V2O71AQ29DRZ","3HUR21WDDUBEMSLDIXZW1FAIHW8YX3","","13","img/land4.png","76","13","3","0","2","1","0.8,0.2,0.2,0.2,0.8,0.2,0.2,0.2,0.8","0.8,0.2,0.2,0.2,0.8,0.2,0.2,0.2,0.8","1","",""
"","html-keyboard-response","339","98649","0.0-339.0","3GNA64GUZFQYXR8BCJ49LTCKX345Q3","A3V2O71AQ29DRZ","3HUR21WDDUBEMSLDIXZW1FAIHW8YX3","","null","<img src=""img/land4.png"" style=""width:200px;border:14px solid red;"">","null","","","","","","","","","",""
"","image-keyboard-response","340","98660","0.0-340.0","3GNA64GUZFQYXR8BCJ49LTCKX345Q3","A3V2O71AQ29DRZ","3HUR21WDDUBEMSLDIXZW1FAIHW8YX3","","11","img/land4.png","75","11","2","1","2","1","0.8,0.2,0.2,0.2,0.8,0.2,0.2,0.2,0.8","0.8,0.2,0.2,0.2,0.8,0.2,0.2,0.2,0.8","1","",""
"","html-keyboard-response","341","98962","0.0-341.0","3GNA64GUZFQYXR8BCJ49LTCKX345Q3","A3V2O71AQ29DRZ","3HUR21WDDUBEMSLDIXZW1FAIHW8YX3","","null","<img src=""img/land4.png"" style=""width:200px; border:14px solid green;"">","null","","","","","","","","","",""
"","image-keyboard-response","342","99130","0.0-342.0","3GNA64GUZFQYXR8BCJ49LTCKX345Q3","A3V2O71AQ29DRZ","3HUR21WDDUBEMSLDIXZW1FAIHW8YX3","","168","img/land2.png","76","168","3","1","3","1","0.8,0.2,0.2,0.2,0.8,0.2,0.2,0.2,0.8","0.8,0.2,0.2,0.2,0.8,0.2,0.2,0.2,0.8","1","",""
"","html-keyboard-response","343","99438","0.0-343.0","3GNA64GUZFQYXR8BCJ49LTCKX345Q3","A3V2O71AQ29DRZ","3HUR21WDDUBEMSLDIXZW1FAIHW8YX3","","null","<img src=""img/land2.png"" style=""width:200px; border:14px solid green;"">","null","","","","","","","","","",""
"","image-keyboard-response","344","99466","0.0-344.0","3GNA64GUZFQYXR8BCJ49LTCKX345Q3","A3V2O71AQ29DRZ","3HUR21WDDUBEMSLDIXZW1FAIHW8YX3","","28","img/land3.png","76","28","3","0","1","1","0.8,0.2,0.2,0.2,0.8,0.2,0.2,0.2,0.8","0.8,0.2,0.2,0.2,0.8,0.2,0.2,0.2,0.8","1","",""
"","html-keyboard-response","345","99768","0.0-345.0","3GNA64GUZFQYXR8BCJ49LTCKX345Q3","A3V2O71AQ29DRZ","3HUR21WDDUBEMSLDIXZW1FAIHW8YX3","","null","<img src=""img/land3.png"" style=""width:200px;border:14px solid red;"">","null","","","","","","","","","",""
"","image-keyboard-response","346","99797","0.0-346.0","3GNA64GUZFQYXR8BCJ49LTCKX345Q3","A3V2O71AQ29DRZ","3HUR21WDDUBEMSLDIXZW1FAIHW8YX3","","29","img/land4.png","75","29","2","1","2","1","0.8,0.2,0.2,0.2,0.8,0.2,0.2,0.2,0.8","0.8,0.2,0.2,0.2,0.8,0.2,0.2,0.2,0.8","1","",""
"","html-keyboard-response","347","100098","0.0-347.0","3GNA64GUZFQYXR8BCJ49LTCKX345Q3","A3V2O71AQ29DRZ","3HUR21WDDUBEMSLDIXZW1FAIHW8YX3","","null","<img src=""img/land4.png"" style=""width:200px; border:14px solid green;"">","null","","","","","","","","","",""
"","image-keyboard-response","348","100261","0.0-348.0","3GNA64GUZFQYXR8BCJ49LTCKX345Q3","A3V2O71AQ29DRZ","3HUR21WDDUBEMSLDIXZW1FAIHW8YX3","","163","img/land4.png","76","163","3","0","2","1","0.8,0.2,0.2,0.2,0.8,0.2,0.2,0.2,0.8","0.8,0.2,0.2,0.2,0.8,0.2,0.2,0.2,0.8","1","",""
"","html-keyboard-response","349","100562","0.0-349.0","3GNA64GUZFQYXR8BCJ49LTCKX345Q3","A3V2O71AQ29DRZ","3HUR21WDDUBEMSLDIXZW1FAIHW8YX3","","null","<img src=""img/land4.png"" style=""width:200px;border:14px solid red;"">","null","","","","","","","","","",""
"","image-keyboard-response","350","100705","0.0-350.0","3GNA64GUZFQYXR8BCJ49LTCKX345Q3","A3V2O71AQ29DRZ","3HUR21WDDUBEMSLDIXZW1FAIHW8YX3","","143","img/land2.png","74","143","1","0","3","1","0.8,0.2,0.2,0.2,0.8,0.2,0.2,0.2,0.8","0.8,0.2,0.2,0.2,0.8,0.2,0.2,0.2,0.8","1","",""
"","html-keyboard-response","351","101006","0.0-351.0","3GNA64GUZFQYXR8BCJ49LTCKX345Q3","A3V2O71AQ29DRZ","3HUR21WDDUBEMSLDIXZW1FAIHW8YX3","","null","<img src=""img/land2.png"" style=""width:200px;border:14px solid red;"">","null","","","","","","","","","",""
"","image-keyboard-response","352","101107","0.0-352.0","3GNA64GUZFQYXR8BCJ49LTCKX345Q3","A3V2O71AQ29DRZ","3HUR21WDDUBEMSLDIXZW1FAIHW8YX3","","100","img/land4.png","76","101","3","0","2","1","0.8,0.2,0.2,0.2,0.8,0.2,0.2,0.2,0.8","0.8,0.2,0.2,0.2,0.8,0.2,0.2,0.2,0.8","1","",""
"","html-keyboard-response","353","101408","0.0-353.0","3GNA64GUZFQYXR8BCJ49LTCKX345Q3","A3V2O71AQ29DRZ","3HUR21WDDUBEMSLDIXZW1FAIHW8YX3","","null","<img src=""img/land4.png"" style=""width:200px;border:14px solid red;"">","null","","","","","","","","","",""
"","image-keyboard-response","354","101516","0.0-354.0","3GNA64GUZFQYXR8BCJ49LTCKX345Q3","A3V2O71AQ29DRZ","3HUR21WDDUBEMSLDIXZW1FAIHW8YX3","","107","img/land3.png","76","108","3","0","1","1","0.8,0.2,0.2,0.2,0.8,0.2,0.2,0.2,0.8","0.8,0.2,0.2,0.2,0.8,0.2,0.2,0.2,0.8","1","",""
"","html-keyboard-response","355","101842","0.0-355.0","3GNA64GUZFQYXR8BCJ49LTCKX345Q3","A3V2O71AQ29DRZ","3HUR21WDDUBEMSLDIXZW1FAIHW8YX3","","null","<img src=""img/land3.png"" style=""width:200px;border:14px solid red;"">","null","","","","","","","","","",""
"","image-keyboard-response","356","101917","0.0-356.0","3GNA64GUZFQYXR8BCJ49LTCKX345Q3","A3V2O71AQ29DRZ","3HUR21WDDUBEMSLDIXZW1FAIHW8YX3","","73","img/land2.png","75","75","2","0","3","1","0.8,0.2,0.2,0.2,0.8,0.2,0.2,0.2,0.8","0.8,0.2,0.2,0.2,0.8,0.2,0.2,0.2,0.8","1","",""
"","html-keyboard-response","357","102217","0.0-357.0","3GNA64GUZFQYXR8BCJ49LTCKX345Q3","A3V2O71AQ29DRZ","3HUR21WDDUBEMSLDIXZW1FAIHW8YX3","","null","<img src=""img/land2.png"" style=""width:200px;border:14px solid red;"">","null","","","","","","","","","",""
"","image-keyboard-response","358","102290","0.0-358.0","3GNA64GUZFQYXR8BCJ49LTCKX345Q3","A3V2O71AQ29DRZ","3HUR21WDDUBEMSLDIXZW1FAIHW8YX3","","72","img/land3.png","75","73","2","0","1","1","0.8,0.2,0.2,0.2,0.8,0.2,0.2,0.2,0.8","0.8,0.2,0.2,0.2,0.8,0.2,0.2,0.2,0.8","1","",""
"","html-keyboard-response","359","102591","0.0-359.0","3GNA64GUZFQYXR8BCJ49LTCKX345Q3","A3V2O71AQ29DRZ","3HUR21WDDUBEMSLDIXZW1FAIHW8YX3","","null","<img src=""img/land3.png"" style=""width:200px;border:14px solid red;"">","null","","","","","","","","","",""
"","image-keyboard-response","360","102722","0.0-360.0","3GNA64GUZFQYXR8BCJ49LTCKX345Q3","A3V2O71AQ29DRZ","3HUR21WDDUBEMSLDIXZW1FAIHW8YX3","","131","img/land2.png","74","131","1","0","3","1","0.8,0.2,0.2,0.2,0.8,0.2,0.2,0.2,0.8","0.8,0.2,0.2,0.2,0.8,0.2,0.2,0.2,0.8","1","",""
"","html-keyboard-response","361","103038","0.0-361.0","3GNA64GUZFQYXR8BCJ49LTCKX345Q3","A3V2O71AQ29DRZ","3HUR21WDDUBEMSLDIXZW1FAIHW8YX3","","null","<img src=""img/land2.png"" style=""width:200px;border:14px solid red;"">","null","","","","","","","","","",""
"","image-keyboard-response","362","103055","0.0-362.0","3GNA64GUZFQYXR8BCJ49LTCKX345Q3","A3V2O71AQ29DRZ","3HUR21WDDUBEMSLDIXZW1FAIHW8YX3","","12","img/land2.png","74","15","1","1","3","1","0.8,0.2,0.2,0.2,0.8,0.2,0.2,0.2,0.8","0.8,0.2,0.2,0.2,0.8,0.2,0.2,0.2,0.8","1","",""
"","html-keyboard-response","363","103356","0.0-363.0","3GNA64GUZFQYXR8BCJ49LTCKX345Q3","A3V2O71AQ29DRZ","3HUR21WDDUBEMSLDIXZW1FAIHW8YX3","","null","<img src=""img/land2.png"" style=""width:200px; border:14px solid green;"">","null","","","","","","","","","",""
"","image-keyboard-response","364","103590","0.0-364.0","3GNA64GUZFQYXR8BCJ49LTCKX345Q3","A3V2O71AQ29DRZ","3HUR21WDDUBEMSLDIXZW1FAIHW8YX3","","234","img/land2.png","74","234","1","1","3","1","0.8,0.2,0.2,0.2,0.8,0.2,0.2,0.2,0.8","0.8,0.2,0.2,0.2,0.8,0.2,0.2,0.2,0.8","1","",""
"","html-keyboard-response","365","103892","0.0-365.0","3GNA64GUZFQYXR8BCJ49LTCKX345Q3","A3V2O71AQ29DRZ","3HUR21WDDUBEMSLDIXZW1FAIHW8YX3","","null","<img src=""img/land2.png"" style=""width:200px; border:14px solid green;"">","null","","","","","","","","","",""
"","image-keyboard-response","366","104040","0.0-366.0","3GNA64GUZFQYXR8BCJ49LTCKX345Q3","A3V2O71AQ29DRZ","3HUR21WDDUBEMSLDIXZW1FAIHW8YX3","","148","img/land2.png","76","148","3","1","3","1","0.8,0.2,0.2,0.2,0.8,0.2,0.2,0.2,0.8","0.8,0.2,0.2,0.2,0.8,0.2,0.2,0.2,0.8","1","",""
"","html-keyboard-response","367","104341","0.0-367.0","3GNA64GUZFQYXR8BCJ49LTCKX345Q3","A3V2O71AQ29DRZ","3HUR21WDDUBEMSLDIXZW1FAIHW8YX3","","null","<img src=""img/land2.png"" style=""width:200px; border:14px solid green;"">","null","","","","","","","","","",""
"","image-keyboard-response","368","104400","0.0-368.0","3GNA64GUZFQYXR8BCJ49LTCKX345Q3","A3V2O71AQ29DRZ","3HUR21WDDUBEMSLDIXZW1FAIHW8YX3","","59","img/land3.png","74","59","1","1","1","1","0.8,0.2,0.2,0.2,0.8,0.2,0.2,0.2,0.8","0.8,0.2,0.2,0.2,0.8,0.2,0.2,0.2,0.8","1","",""
"","html-keyboard-response","369","104701","0.0-369.0","3GNA64GUZFQYXR8BCJ49LTCKX345Q3","A3V2O71AQ29DRZ","3HUR21WDDUBEMSLDIXZW1FAIHW8YX3","","null","<img src=""img/land3.png"" style=""width:200px; border:14px solid green;"">","null","","","","","","","","","",""
"","image-keyboard-response","370","104791","0.0-370.0","3GNA64GUZFQYXR8BCJ49LTCKX345Q3","A3V2O71AQ29DRZ","3HUR21WDDUBEMSLDIXZW1FAIHW8YX3","","90","img/land2.png","76","90","3","1","3","1","0.8,0.2,0.2,0.2,0.8,0.2,0.2,0.2,0.8","0.8,0.2,0.2,0.2,0.8,0.2,0.2,0.2,0.8","1","",""
"","html-keyboard-response","371","105092","0.0-371.0","3GNA64GUZFQYXR8BCJ49LTCKX345Q3","A3V2O71AQ29DRZ","3HUR21WDDUBEMSLDIXZW1FAIHW8YX3","","null","<img src=""img/land2.png"" style=""width:200px; border:14px solid green;"">","null","","","","","","","","","",""
"","image-keyboard-response","372","105132","0.0-372.0","3GNA64GUZFQYXR8BCJ49LTCKX345Q3","A3V2O71AQ29DRZ","3HUR21WDDUBEMSLDIXZW1FAIHW8YX3","","40","img/land2.png","74","40","1","0","3","1","0.8,0.2,0.2,0.2,0.8,0.2,0.2,0.2,0.8","0.8,0.2,0.2,0.2,0.8,0.2,0.2,0.2,0.8","1","",""
