"success","trial_type","trial_index","time_elapsed","internal_node_id","assignmentID","mturkID","hitID","view_history","rt","stimulus","key_press","reactionTime","a","r","s","cond","reward_cond","reward_cond_actual","reward_matrix_idx","responses","question_order"
"true","fullscreen","0","5031","0.0-0.0","3Z7EFSHGNA0359I2D7M9T7ENMQCXC5","A3W0SCW5UYEB0F","3UUIU9GZC5R93N292LT21FRJ9VS5TN","","","","","","","","","","","","","",""
"","instructions","1","30035","0.0-1.0","3Z7EFSHGNA0359I2D7M9T7ENMQCXC5","A3W0SCW5UYEB0F","3UUIU9GZC5R93N292LT21FRJ9VS5TN","[{""page_index"":0,""viewing_time"":6032.300000190735},{""page_index"":1,""viewing_time"":3491},{""page_index"":2,""viewing_time"":2138.0999999046326},{""page_index"":3,""viewing_time"":4872.299999952316},{""page_index"":4,""viewing_time"":2933.7000000476837},{""page_index"":5,""viewing_time"":2658},{""page_index"":6,""viewing_time"":2875.7000000476837}]","25001.5","","","","","","","","","","","",""
"","image-keyboard-response","2","32038","0.0-2.0","3Z7EFSHGNA0359I2D7M9T7ENMQCXC5","A3W0SCW5UYEB0F","3UUIU9GZC5R93N292LT21FRJ9VS5TN","","","img/land4.png","","2002.9000000953674","-1","0","1","2","0.8,0.2,0.2,0.2,0.8,0.2,0.2,0.2,0.8","0.2,0.8,0.2,0.2,0.2,0.8,0.8,0.2,0.2","3","",""
"","html-keyboard-response","3","32350","0.0-3.0","3Z7EFSHGNA0359I2D7M9T7ENMQCXC5","A3W0SCW5UYEB0F","3UUIU9GZC5R93N292LT21FRJ9VS5TN","","null","<img src=""img/land4.png"" style=""width:200px;border:14px solid red;"">","null","","","","","","","","","",""
"","image-keyboard-response","4","32941","0.0-4.0","3Z7EFSHGNA0359I2D7M9T7ENMQCXC5","A3W0SCW5UYEB0F","3UUIU9GZC5R93N292LT21FRJ9VS5TN","","588.7000000476837","img/land4.png","74","589.8999998569489","1","0","1","2","0.8,0.2,0.2,0.2,0.8,0.2,0.2,0.2,0.8","0.2,0.8,0.2,0.2,0.2,0.8,0.8,0.2,0.2","3","",""
"","html-keyboard-response","5","33243","0.0-5.0","3Z7EFSHGNA0359I2D7M9T7ENMQCXC5","A3W0SCW5UYEB0F","3UUIU9GZC5R93N292LT21FRJ9VS5TN","","null","<img src=""img/land4.png"" style=""width:200px;border:14px solid red;"">","null","","","","","","","","","",""
"","image-keyboard-response","6","33982","0.0-6.0","3Z7EFSHGNA0359I2D7M9T7ENMQCXC5","A3W0SCW5UYEB0F","3UUIU9GZC5R93N292LT21FRJ9VS5TN","","737.2999999523163","img/land2.png","75","738.2999999523163","2","0","3","2","0.8,0.2,0.2,0.2,0.8,0.2,0.2,0.2,0.8","0.2,0.8,0.2,0.2,0.2,0.8,0.8,0.2,0.2","3","",""
"","html-keyboard-response","7","34283","0.0-7.0","3Z7EFSHGNA0359I2D7M9T7ENMQCXC5","A3W0SCW5UYEB0F","3UUIU9GZC5R93N292LT21FRJ9VS5TN","","null","<img src=""img/land2.png"" style=""width:200px;border:14px solid red;"">","null","","","","","","","","","",""
"","image-keyboard-response","8","34712","0.0-8.0","3Z7EFSHGNA0359I2D7M9T7ENMQCXC5","A3W0SCW5UYEB0F","3UUIU9GZC5R93N292LT21FRJ9VS5TN","","427.5","img/land4.png","76","428.7999999523163","3","0","1","2","0.8,0.2,0.2,0.2,0.8,0.2,0.2,0.2,0.8","0.2,0.8,0.2,0.2,0.2,0.8,0.8,0.2,0.2","3","",""
"","html-keyboard-response","9","35014","0.0-9.0","3Z7EFSHGNA0359I2D7M9T7ENMQCXC5","A3W0SCW5UYEB0F","3UUIU9GZC5R93N292LT21FRJ9VS5TN","","null","<img src=""img/land4.png"" style=""width:200px;border:14px solid red;"">","null","","","","","","","","","",""
"","image-keyboard-response","10","35511","0.0-10.0","3Z7EFSHGNA0359I2D7M9T7ENMQCXC5","A3W0SCW5UYEB0F","3UUIU9GZC5R93N292LT21FRJ9VS5TN","","495.2000000476837","img/land2.png","75","496.5","2","0","3","2","0.8,0.2,0.2,0.2,0.8,0.2,0.2,0.2,0.8","0.2,0.8,0.2,0.2,0.2,0.8,0.8,0.2,0.2","3","",""
"","html-keyboard-response","11","35814","0.0-11.0","3Z7EFSHGNA0359I2D7M9T7ENMQCXC5","A3W0SCW5UYEB0F","3UUIU9GZC5R93N292LT21FRJ9VS5TN","","null","<img src=""img/land2.png"" style=""width:200px;border:14px solid red;"">","null","","","","","","","","","",""
"","image-keyboard-response","12","36419","0.0-12.0","3Z7EFSHGNA0359I2D7M9T7ENMQCXC5","A3W0SCW5UYEB0F","3UUIU9GZC5R93N292LT21FRJ9VS5TN","","602.8999998569489","img/land4.png","74","604.2000000476837","1","1","1","2","0.8,0.2,0.2,0.2,0.8,0.2,0.2,0.2,0.8","0.2,0.8,0.2,0.2,0.2,0.8,0.8,0.2,0.2","3","",""
"","html-keyboard-response","13","36721","0.0-13.0","3Z7EFSHGNA0359I2D7M9T7ENMQCXC5","A3W0SCW5UYEB0F","3UUIU9GZC5R93N292LT21FRJ9VS5TN","","null","<img src=""img/land4.png"" style=""width:200px; border:14px solid green;"">","null","","","","","","","","","",""
"","image-keyboard-response","14","37277","0.0-14.0","3Z7EFSHGNA0359I2D7M9T7ENMQCXC5","A3W0SCW5UYEB0F","3UUIU9GZC5R93N292LT21FRJ9VS5TN","","554.2000000476837","img/land4.png","74","555.1999998092651","1","0","1","2","0.8,0.2,0.2,0.2,0.8,0.2,0.2,0.2,0.8","0.2,0.8,0.2,0.2,0.2,0.8,0.8,0.2,0.2","3","",""
"","html-keyboard-response","15","37579","0.0-15.0","3Z7EFSHGNA0359I2D7M9T7ENMQCXC5","A3W0SCW5UYEB0F","3UUIU9GZC5R93N292LT21FRJ9VS5TN","","null","<img src=""img/land4.png"" style=""width:200px;border:14px solid red;"">","null","","","","","","","","","",""
"","image-keyboard-response","16","38505","0.0-16.0","3Z7EFSHGNA0359I2D7M9T7ENMQCXC5","A3W0SCW5UYEB0F","3UUIU9GZC5R93N292LT21FRJ9VS5TN","","925.2000000476837","img/land4.png","74","926.2999999523163","1","0","1","2","0.8,0.2,0.2,0.2,0.8,0.2,0.2,0.2,0.8","0.2,0.8,0.2,0.2,0.2,0.8,0.8,0.2,0.2","3","",""
"","html-keyboard-response","17","38807","0.0-17.0","3Z7EFSHGNA0359I2D7M9T7ENMQCXC5","A3W0SCW5UYEB0F","3UUIU9GZC5R93N292LT21FRJ9VS5TN","","null","<img src=""img/land4.png"" style=""width:200px;border:14px solid red;"">","null","","","","","","","","","",""
"","image-keyboard-response","18","39477","0.0-18.0","3Z7EFSHGNA0359I2D7M9T7ENMQCXC5","A3W0SCW5UYEB0F","3UUIU9GZC5R93N292LT21FRJ9VS5TN","","668.3999998569489","img/land2.png","75","669.5","2","1","3","2","0.8,0.2,0.2,0.2,0.8,0.2,0.2,0.2,0.8","0.2,0.8,0.2,0.2,0.2,0.8,0.8,0.2,0.2","3","",""
"","html-keyboard-response","19","39779","0.0-19.0","3Z7EFSHGNA0359I2D7M9T7ENMQCXC5","A3W0SCW5UYEB0F","3UUIU9GZC5R93N292LT21FRJ9VS5TN","","null","<img src=""img/land2.png"" style=""width:200px; border:14px solid green;"">","null","","","","","","","","","",""
"","image-keyboard-response","20","40493","0.0-20.0","3Z7EFSHGNA0359I2D7M9T7ENMQCXC5","A3W0SCW5UYEB0F","3UUIU9GZC5R93N292LT21FRJ9VS5TN","","713.0999999046326","img/land3.png","76","714","3","1","2","2","0.8,0.2,0.2,0.2,0.8,0.2,0.2,0.2,0.8","0.2,0.8,0.2,0.2,0.2,0.8,0.8,0.2,0.2","3","",""
"","html-keyboard-response","21","40795","0.0-21.0","3Z7EFSHGNA0359I2D7M9T7ENMQCXC5","A3W0SCW5UYEB0F","3UUIU9GZC5R93N292LT21FRJ9VS5TN","","null","<img src=""img/land3.png"" style=""width:200px; border:14px solid green;"">","null","","","","","","","","","",""
"","image-keyboard-response","22","41366","0.0-22.0","3Z7EFSHGNA0359I2D7M9T7ENMQCXC5","A3W0SCW5UYEB0F","3UUIU9GZC5R93N292LT21FRJ9VS5TN","","569","img/land4.png","74","570.0999999046326","1","0","1","2","0.8,0.2,0.2,0.2,0.8,0.2,0.2,0.2,0.8","0.2,0.8,0.2,0.2,0.2,0.8,0.8,0.2,0.2","3","",""
"","html-keyboard-response","23","41668","0.0-23.0","3Z7EFSHGNA0359I2D7M9T7ENMQCXC5","A3W0SCW5UYEB0F","3UUIU9GZC5R93N292LT21FRJ9VS5TN","","null","<img src=""img/land4.png"" style=""width:200px;border:14px solid red;"">","null","","","","","","","","","",""
"","image-keyboard-response","24","42474","0.0-24.0","3Z7EFSHGNA0359I2D7M9T7ENMQCXC5","A3W0SCW5UYEB0F","3UUIU9GZC5R93N292LT21FRJ9VS5TN","","804.5999999046326","img/land4.png","75","805.7000000476837","2","1","1","2","0.8,0.2,0.2,0.2,0.8,0.2,0.2,0.2,0.8","0.2,0.8,0.2,0.2,0.2,0.8,0.8,0.2,0.2","3","",""
"","html-keyboard-response","25","42776","0.0-25.0","3Z7EFSHGNA0359I2D7M9T7ENMQCXC5","A3W0SCW5UYEB0F","3UUIU9GZC5R93N292LT21FRJ9VS5TN","","null","<img src=""img/land4.png"" style=""width:200px; border:14px solid green;"">","null","","","","","","","","","",""
"","image-keyboard-response","26","43447","0.0-26.0","3Z7EFSHGNA0359I2D7M9T7ENMQCXC5","A3W0SCW5UYEB0F","3UUIU9GZC5R93N292LT21FRJ9VS5TN","","670.1000001430511","img/land4.png","75","671.2000000476837","2","1","1","2","0.8,0.2,0.2,0.2,0.8,0.2,0.2,0.2,0.8","0.2,0.8,0.2,0.2,0.2,0.8,0.8,0.2,0.2","3","",""
"","html-keyboard-response","27","43750","0.0-27.0","3Z7EFSHGNA0359I2D7M9T7ENMQCXC5","A3W0SCW5UYEB0F","3UUIU9GZC5R93N292LT21FRJ9VS5TN","","null","<img src=""img/land4.png"" style=""width:200px; border:14px solid green;"">","null","","","","","","","","","",""
"","image-keyboard-response","28","44329","0.0-28.0","3Z7EFSHGNA0359I2D7M9T7ENMQCXC5","A3W0SCW5UYEB0F","3UUIU9GZC5R93N292LT21FRJ9VS5TN","","578.6000001430511","img/land4.png","75","579.5","2","1","1","2","0.8,0.2,0.2,0.2,0.8,0.2,0.2,0.2,0.8","0.2,0.8,0.2,0.2,0.2,0.8,0.8,0.2,0.2","3","",""
"","html-keyboard-response","29","44631","0.0-29.0","3Z7EFSHGNA0359I2D7M9T7ENMQCXC5","A3W0SCW5UYEB0F","3UUIU9GZC5R93N292LT21FRJ9VS5TN","","null","<img src=""img/land4.png"" style=""width:200px; border:14px solid green;"">","null","","","","","","","","","",""
"","image-keyboard-response","30","45151","0.0-30.0","3Z7EFSHGNA0359I2D7M9T7ENMQCXC5","A3W0SCW5UYEB0F","3UUIU9GZC5R93N292LT21FRJ9VS5TN","","517.7000000476837","img/land4.png","75","518.7999999523163","2","1","1","2","0.8,0.2,0.2,0.2,0.8,0.2,0.2,0.2,0.8","0.2,0.8,0.2,0.2,0.2,0.8,0.8,0.2,0.2","3","",""
"","html-keyboard-response","31","45452","0.0-31.0","3Z7EFSHGNA0359I2D7M9T7ENMQCXC5","A3W0SCW5UYEB0F","3UUIU9GZC5R93N292LT21FRJ9VS5TN","","null","<img src=""img/land4.png"" style=""width:200px; border:14px solid green;"">","null","","","","","","","","","",""
"","image-keyboard-response","32","45999","0.0-32.0","3Z7EFSHGNA0359I2D7M9T7ENMQCXC5","A3W0SCW5UYEB0F","3UUIU9GZC5R93N292LT21FRJ9VS5TN","","545.7999999523163","img/land4.png","75","546.8000001907349","2","1","1","2","0.8,0.2,0.2,0.2,0.8,0.2,0.2,0.2,0.8","0.2,0.8,0.2,0.2,0.2,0.8,0.8,0.2,0.2","3","",""
"","html-keyboard-response","33","46301","0.0-33.0","3Z7EFSHGNA0359I2D7M9T7ENMQCXC5","A3W0SCW5UYEB0F","3UUIU9GZC5R93N292LT21FRJ9VS5TN","","null","<img src=""img/land4.png"" style=""width:200px; border:14px solid green;"">","null","","","","","","","","","",""
"","image-keyboard-response","34","46772","0.0-34.0","3Z7EFSHGNA0359I2D7M9T7ENMQCXC5","A3W0SCW5UYEB0F","3UUIU9GZC5R93N292LT21FRJ9VS5TN","","469.2000000476837","img/land4.png","75","470.39999985694885","2","1","1","2","0.8,0.2,0.2,0.2,0.8,0.2,0.2,0.2,0.8","0.2,0.8,0.2,0.2,0.2,0.8,0.8,0.2,0.2","3","",""
"","html-keyboard-response","35","47073","0.0-35.0","3Z7EFSHGNA0359I2D7M9T7ENMQCXC5","A3W0SCW5UYEB0F","3UUIU9GZC5R93N292LT21FRJ9VS5TN","","null","<img src=""img/land4.png"" style=""width:200px; border:14px solid green;"">","null","","","","","","","","","",""
"","image-keyboard-response","36","47609","0.0-36.0","3Z7EFSHGNA0359I2D7M9T7ENMQCXC5","A3W0SCW5UYEB0F","3UUIU9GZC5R93N292LT21FRJ9VS5TN","","534.5","img/land2.png","76","535.5999999046326","3","0","3","2","0.8,0.2,0.2,0.2,0.8,0.2,0.2,0.2,0.8","0.2,0.8,0.2,0.2,0.2,0.8,0.8,0.2,0.2","3","",""
"","html-keyboard-response","37","47911","0.0-37.0","3Z7EFSHGNA0359I2D7M9T7ENMQCXC5","A3W0SCW5UYEB0F","3UUIU9GZC5R93N292LT21FRJ9VS5TN","","null","<img src=""img/land2.png"" style=""width:200px;border:14px solid red;"">","null","","","","","","","","","",""
"","image-keyboard-response","38","48762","0.0-38.0","3Z7EFSHGNA0359I2D7M9T7ENMQCXC5","A3W0SCW5UYEB0F","3UUIU9GZC5R93N292LT21FRJ9VS5TN","","850","img/land3.png","76","851","3","1","2","2","0.8,0.2,0.2,0.2,0.8,0.2,0.2,0.2,0.8","0.2,0.8,0.2,0.2,0.2,0.8,0.8,0.2,0.2","3","",""
"","html-keyboard-response","39","49064","0.0-39.0","3Z7EFSHGNA0359I2D7M9T7ENMQCXC5","A3W0SCW5UYEB0F","3UUIU9GZC5R93N292LT21FRJ9VS5TN","","null","<img src=""img/land3.png"" style=""width:200px; border:14px solid green;"">","null","","","","","","","","","",""
"","image-keyboard-response","40","49561","0.0-40.0","3Z7EFSHGNA0359I2D7M9T7ENMQCXC5","A3W0SCW5UYEB0F","3UUIU9GZC5R93N292LT21FRJ9VS5TN","","495.60000014305115","img/land3.png","76","496.7000000476837","3","1","2","2","0.8,0.2,0.2,0.2,0.8,0.2,0.2,0.2,0.8","0.2,0.8,0.2,0.2,0.2,0.8,0.8,0.2,0.2","3","",""
"","html-keyboard-response","41","49863","0.0-41.0","3Z7EFSHGNA0359I2D7M9T7ENMQCXC5","A3W0SCW5UYEB0F","3UUIU9GZC5R93N292LT21FRJ9VS5TN","","null","<img src=""img/land3.png"" style=""width:200px; border:14px solid green;"">","null","","","","","","","","","",""
"","image-keyboard-response","42","50554","0.0-42.0","3Z7EFSHGNA0359I2D7M9T7ENMQCXC5","A3W0SCW5UYEB0F","3UUIU9GZC5R93N292LT21FRJ9VS5TN","","690.2999999523163","img/land4.png","75","691.1000001430511","2","1","1","2","0.8,0.2,0.2,0.2,0.8,0.2,0.2,0.2,0.8","0.2,0.8,0.2,0.2,0.2,0.8,0.8,0.2,0.2","3","",""
"","html-keyboard-response","43","50857","0.0-43.0","3Z7EFSHGNA0359I2D7M9T7ENMQCXC5","A3W0SCW5UYEB0F","3UUIU9GZC5R93N292LT21FRJ9VS5TN","","null","<img src=""img/land4.png"" style=""width:200px; border:14px solid green;"">","null","","","","","","","","","",""
"","image-keyboard-response","44","51497","0.0-44.0","3Z7EFSHGNA0359I2D7M9T7ENMQCXC5","A3W0SCW5UYEB0F","3UUIU9GZC5R93N292LT21FRJ9VS5TN","","638.5","img/land3.png","76","639.5","3","1","2","2","0.8,0.2,0.2,0.2,0.8,0.2,0.2,0.2,0.8","0.2,0.8,0.2,0.2,0.2,0.8,0.8,0.2,0.2","3","",""
"","html-keyboard-response","45","51799","0.0-45.0","3Z7EFSHGNA0359I2D7M9T7ENMQCXC5","A3W0SCW5UYEB0F","3UUIU9GZC5R93N292LT21FRJ9VS5TN","","null","<img src=""img/land3.png"" style=""width:200px; border:14px solid green;"">","null","","","","","","","","","",""
"","image-keyboard-response","46","52374","0.0-46.0","3Z7EFSHGNA0359I2D7M9T7ENMQCXC5","A3W0SCW5UYEB0F","3UUIU9GZC5R93N292LT21FRJ9VS5TN","","573.7999999523163","img/land3.png","76","574.5999999046326","3","1","2","2","0.8,0.2,0.2,0.2,0.8,0.2,0.2,0.2,0.8","0.2,0.8,0.2,0.2,0.2,0.8,0.8,0.2,0.2","3","",""
"","html-keyboard-response","47","52676","0.0-47.0","3Z7EFSHGNA0359I2D7M9T7ENMQCXC5","A3W0SCW5UYEB0F","3UUIU9GZC5R93N292LT21FRJ9VS5TN","","null","<img src=""img/land3.png"" style=""width:200px; border:14px solid green;"">","null","","","","","","","","","",""
"","image-keyboard-response","48","53217","0.0-48.0","3Z7EFSHGNA0359I2D7M9T7ENMQCXC5","A3W0SCW5UYEB0F","3UUIU9GZC5R93N292LT21FRJ9VS5TN","","540","img/land4.png","75","541","2","1","1","2","0.8,0.2,0.2,0.2,0.8,0.2,0.2,0.2,0.8","0.2,0.8,0.2,0.2,0.2,0.8,0.8,0.2,0.2","3","",""
"","html-keyboard-response","49","53519","0.0-49.0","3Z7EFSHGNA0359I2D7M9T7ENMQCXC5","A3W0SCW5UYEB0F","3UUIU9GZC5R93N292LT21FRJ9VS5TN","","null","<img src=""img/land4.png"" style=""width:200px; border:14px solid green;"">","null","","","","","","","","","",""
"","image-keyboard-response","50","54047","0.0-50.0","3Z7EFSHGNA0359I2D7M9T7ENMQCXC5","A3W0SCW5UYEB0F","3UUIU9GZC5R93N292LT21FRJ9VS5TN","","526.5","img/land4.png","75","527.5999999046326","2","1","1","2","0.8,0.2,0.2,0.2,0.8,0.2,0.2,0.2,0.8","0.2,0.8,0.2,0.2,0.2,0.8,0.8,0.2,0.2","3","",""
"","html-keyboard-response","51","54349","0.0-51.0","3Z7EFSHGNA0359I2D7M9T7ENMQCXC5","A3W0SCW5UYEB0F","3UUIU9GZC5R93N292LT21FRJ9VS5TN","","null","<img src=""img/land4.png"" style=""width:200px; border:14px solid green;"">","null","","","","","","","","","",""
"","image-keyboard-response","52","54837","0.0-52.0","3Z7EFSHGNA0359I2D7M9T7ENMQCXC5","A3W0SCW5UYEB0F","3UUIU9GZC5R93N292LT21FRJ9VS5TN","","486.60000014305115","img/land4.png","75","487.59999990463257","2","1","1","2","0.8,0.2,0.2,0.2,0.8,0.2,0.2,0.2,0.8","0.2,0.8,0.2,0.2,0.2,0.8,0.8,0.2,0.2","3","",""
"","html-keyboard-response","53","55139","0.0-53.0","3Z7EFSHGNA0359I2D7M9T7ENMQCXC5","A3W0SCW5UYEB0F","3UUIU9GZC5R93N292LT21FRJ9VS5TN","","null","<img src=""img/land4.png"" style=""width:200px; border:14px solid green;"">","null","","","","","","","","","",""
"","image-keyboard-response","54","55599","0.0-54.0","3Z7EFSHGNA0359I2D7M9T7ENMQCXC5","A3W0SCW5UYEB0F","3UUIU9GZC5R93N292LT21FRJ9VS5TN","","458.40000009536743","img/land4.png","75","459.40000009536743","2","0","1","2","0.8,0.2,0.2,0.2,0.8,0.2,0.2,0.2,0.8","0.2,0.8,0.2,0.2,0.2,0.8,0.8,0.2,0.2","3","",""
"","html-keyboard-response","55","55901","0.0-55.0","3Z7EFSHGNA0359I2D7M9T7ENMQCXC5","A3W0SCW5UYEB0F","3UUIU9GZC5R93N292LT21FRJ9VS5TN","","null","<img src=""img/land4.png"" style=""width:200px;border:14px solid red;"">","null","","","","","","","","","",""
"","image-keyboard-response","56","56683","0.0-56.0","3Z7EFSHGNA0359I2D7M9T7ENMQCXC5","A3W0SCW5UYEB0F","3UUIU9GZC5R93N292LT21FRJ9VS5TN","","780.7000000476837","img/land4.png","75","781.6000001430511","2","1","1","2","0.8,0.2,0.2,0.2,0.8,0.2,0.2,0.2,0.8","0.2,0.8,0.2,0.2,0.2,0.8,0.8,0.2,0.2","3","",""
"","html-keyboard-response","57","56985","0.0-57.0","3Z7EFSHGNA0359I2D7M9T7ENMQCXC5","A3W0SCW5UYEB0F","3UUIU9GZC5R93N292LT21FRJ9VS5TN","","null","<img src=""img/land4.png"" style=""width:200px; border:14px solid green;"">","null","","","","","","","","","",""
"","image-keyboard-response","58","57497","0.0-58.0","3Z7EFSHGNA0359I2D7M9T7ENMQCXC5","A3W0SCW5UYEB0F","3UUIU9GZC5R93N292LT21FRJ9VS5TN","","511.09999990463257","img/land4.png","75","512.2000000476837","2","1","1","2","0.8,0.2,0.2,0.2,0.8,0.2,0.2,0.2,0.8","0.2,0.8,0.2,0.2,0.2,0.8,0.8,0.2,0.2","3","",""
"","html-keyboard-response","59","57810","0.0-59.0","3Z7EFSHGNA0359I2D7M9T7ENMQCXC5","A3W0SCW5UYEB0F","3UUIU9GZC5R93N292LT21FRJ9VS5TN","","null","<img src=""img/land4.png"" style=""width:200px; border:14px solid green;"">","null","","","","","","","","","",""
"","image-keyboard-response","60","58283","0.0-60.0","3Z7EFSHGNA0359I2D7M9T7ENMQCXC5","A3W0SCW5UYEB0F","3UUIU9GZC5R93N292LT21FRJ9VS5TN","","471.09999990463257","img/land4.png","75","472.09999990463257","2","1","1","2","0.8,0.2,0.2,0.2,0.8,0.2,0.2,0.2,0.8","0.2,0.8,0.2,0.2,0.2,0.8,0.8,0.2,0.2","3","",""
"","html-keyboard-response","61","58584","0.0-61.0","3Z7EFSHGNA0359I2D7M9T7ENMQCXC5","A3W0SCW5UYEB0F","3UUIU9GZC5R93N292LT21FRJ9VS5TN","","null","<img src=""img/land4.png"" style=""width:200px; border:14px solid green;"">","null","","","","","","","","","",""
"","image-keyboard-response","62","59074","0.0-62.0","3Z7EFSHGNA0359I2D7M9T7ENMQCXC5","A3W0SCW5UYEB0F","3UUIU9GZC5R93N292LT21FRJ9VS5TN","","488.40000009536743","img/land3.png","76","489.40000009536743","3","1","2","2","0.8,0.2,0.2,0.2,0.8,0.2,0.2,0.2,0.8","0.2,0.8,0.2,0.2,0.2,0.8,0.8,0.2,0.2","3","",""
"","html-keyboard-response","63","59375","0.0-63.0","3Z7EFSHGNA0359I2D7M9T7ENMQCXC5","A3W0SCW5UYEB0F","3UUIU9GZC5R93N292LT21FRJ9VS5TN","","null","<img src=""img/land3.png"" style=""width:200px; border:14px solid green;"">","null","","","","","","","","","",""
"","image-keyboard-response","64","59988","0.0-64.0","3Z7EFSHGNA0359I2D7M9T7ENMQCXC5","A3W0SCW5UYEB0F","3UUIU9GZC5R93N292LT21FRJ9VS5TN","","611.7999999523163","img/land4.png","75","612.9000000953674","2","1","1","2","0.8,0.2,0.2,0.2,0.8,0.2,0.2,0.2,0.8","0.2,0.8,0.2,0.2,0.2,0.8,0.8,0.2,0.2","3","",""
"","html-keyboard-response","65","60291","0.0-65.0","3Z7EFSHGNA0359I2D7M9T7ENMQCXC5","A3W0SCW5UYEB0F","3UUIU9GZC5R93N292LT21FRJ9VS5TN","","null","<img src=""img/land4.png"" style=""width:200px; border:14px solid green;"">","null","","","","","","","","","",""
"","image-keyboard-response","66","60795","0.0-66.0","3Z7EFSHGNA0359I2D7M9T7ENMQCXC5","A3W0SCW5UYEB0F","3UUIU9GZC5R93N292LT21FRJ9VS5TN","","502.2999999523163","img/land3.png","76","503.39999985694885","3","1","2","2","0.8,0.2,0.2,0.2,0.8,0.2,0.2,0.2,0.8","0.2,0.8,0.2,0.2,0.2,0.8,0.8,0.2,0.2","3","",""
"","html-keyboard-response","67","61096","0.0-67.0","3Z7EFSHGNA0359I2D7M9T7ENMQCXC5","A3W0SCW5UYEB0F","3UUIU9GZC5R93N292LT21FRJ9VS5TN","","null","<img src=""img/land3.png"" style=""width:200px; border:14px solid green;"">","null","","","","","","","","","",""
"","image-keyboard-response","68","61525","0.0-68.0","3Z7EFSHGNA0359I2D7M9T7ENMQCXC5","A3W0SCW5UYEB0F","3UUIU9GZC5R93N292LT21FRJ9VS5TN","","428.2000000476837","img/land4.png","75","429.2000000476837","2","1","1","2","0.8,0.2,0.2,0.2,0.8,0.2,0.2,0.2,0.8","0.2,0.8,0.2,0.2,0.2,0.8,0.8,0.2,0.2","3","",""
"","html-keyboard-response","69","61826","0.0-69.0","3Z7EFSHGNA0359I2D7M9T7ENMQCXC5","A3W0SCW5UYEB0F","3UUIU9GZC5R93N292LT21FRJ9VS5TN","","null","<img src=""img/land4.png"" style=""width:200px; border:14px solid green;"">","null","","","","","","","","","",""
"","image-keyboard-response","70","62414","0.0-70.0","3Z7EFSHGNA0359I2D7M9T7ENMQCXC5","A3W0SCW5UYEB0F","3UUIU9GZC5R93N292LT21FRJ9VS5TN","","586.1000001430511","img/land4.png","75","587.0999999046326","2","0","1","2","0.8,0.2,0.2,0.2,0.8,0.2,0.2,0.2,0.8","0.2,0.8,0.2,0.2,0.2,0.8,0.8,0.2,0.2","3","",""
"","html-keyboard-response","71","62717","0.0-71.0","3Z7EFSHGNA0359I2D7M9T7ENMQCXC5","A3W0SCW5UYEB0F","3UUIU9GZC5R93N292LT21FRJ9VS5TN","","null","<img src=""img/land4.png"" style=""width:200px;border:14px solid red;"">","null","","","","","","","","","",""
"","image-keyboard-response","72","63194","0.0-72.0","3Z7EFSHGNA0359I2D7M9T7ENMQCXC5","A3W0SCW5UYEB0F","3UUIU9GZC5R93N292LT21FRJ9VS5TN","","475.89999985694885","img/land3.png","76","477.2000000476837","3","1","2","2","0.8,0.2,0.2,0.2,0.8,0.2,0.2,0.2,0.8","0.2,0.8,0.2,0.2,0.2,0.8,0.8,0.2,0.2","3","",""
"","html-keyboard-response","73","63496","0.0-73.0","3Z7EFSHGNA0359I2D7M9T7ENMQCXC5","A3W0SCW5UYEB0F","3UUIU9GZC5R93N292LT21FRJ9VS5TN","","null","<img src=""img/land3.png"" style=""width:200px; border:14px solid green;"">","null","","","","","","","","","",""
"","image-keyboard-response","74","63978","0.0-74.0","3Z7EFSHGNA0359I2D7M9T7ENMQCXC5","A3W0SCW5UYEB0F","3UUIU9GZC5R93N292LT21FRJ9VS5TN","","480.10000014305115","img/land4.png","75","481.2999999523163","2","0","1","2","0.8,0.2,0.2,0.2,0.8,0.2,0.2,0.2,0.8","0.2,0.8,0.2,0.2,0.2,0.8,0.8,0.2,0.2","3","",""
"","html-keyboard-response","75","64280","0.0-75.0","3Z7EFSHGNA0359I2D7M9T7ENMQCXC5","A3W0SCW5UYEB0F","3UUIU9GZC5R93N292LT21FRJ9VS5TN","","null","<img src=""img/land4.png"" style=""width:200px;border:14px solid red;"">","null","","","","","","","","","",""
"","image-keyboard-response","76","64765","0.0-76.0","3Z7EFSHGNA0359I2D7M9T7ENMQCXC5","A3W0SCW5UYEB0F","3UUIU9GZC5R93N292LT21FRJ9VS5TN","","483.7000000476837","img/land4.png","75","484.90000009536743","2","1","1","2","0.8,0.2,0.2,0.2,0.8,0.2,0.2,0.2,0.8","0.2,0.8,0.2,0.2,0.2,0.8,0.8,0.2,0.2","3","",""
"","html-keyboard-response","77","65067","0.0-77.0","3Z7EFSHGNA0359I2D7M9T7ENMQCXC5","A3W0SCW5UYEB0F","3UUIU9GZC5R93N292LT21FRJ9VS5TN","","null","<img src=""img/land4.png"" style=""width:200px; border:14px solid green;"">","null","","","","","","","","","",""
"","image-keyboard-response","78","65622","0.0-78.0","3Z7EFSHGNA0359I2D7M9T7ENMQCXC5","A3W0SCW5UYEB0F","3UUIU9GZC5R93N292LT21FRJ9VS5TN","","552.5","img/land3.png","76","553.7999999523163","3","1","2","2","0.8,0.2,0.2,0.2,0.8,0.2,0.2,0.2,0.8","0.2,0.8,0.2,0.2,0.2,0.8,0.8,0.2,0.2","3","",""
"","html-keyboard-response","79","65924","0.0-79.0","3Z7EFSHGNA0359I2D7M9T7ENMQCXC5","A3W0SCW5UYEB0F","3UUIU9GZC5R93N292LT21FRJ9VS5TN","","null","<img src=""img/land3.png"" style=""width:200px; border:14px solid green;"">","null","","","","","","","","","",""
"","image-keyboard-response","80","66722","0.0-80.0","3Z7EFSHGNA0359I2D7M9T7ENMQCXC5","A3W0SCW5UYEB0F","3UUIU9GZC5R93N292LT21FRJ9VS5TN","","797.2999999523163","img/land2.png","75","798.4000000953674","2","0","3","2","0.8,0.2,0.2,0.2,0.8,0.2,0.2,0.2,0.8","0.2,0.8,0.2,0.2,0.2,0.8,0.8,0.2,0.2","3","",""
"","html-keyboard-response","81","67024","0.0-81.0","3Z7EFSHGNA0359I2D7M9T7ENMQCXC5","A3W0SCW5UYEB0F","3UUIU9GZC5R93N292LT21FRJ9VS5TN","","null","<img src=""img/land2.png"" style=""width:200px;border:14px solid red;"">","null","","","","","","","","","",""
"","image-keyboard-response","82","67578","0.0-82.0","3Z7EFSHGNA0359I2D7M9T7ENMQCXC5","A3W0SCW5UYEB0F","3UUIU9GZC5R93N292LT21FRJ9VS5TN","","552.4000000953674","img/land3.png","76","553.0999999046326","3","0","2","2","0.8,0.2,0.2,0.2,0.8,0.2,0.2,0.2,0.8","0.2,0.8,0.2,0.2,0.2,0.8,0.8,0.2,0.2","3","",""
"","html-keyboard-response","83","67879","0.0-83.0","3Z7EFSHGNA0359I2D7M9T7ENMQCXC5","A3W0SCW5UYEB0F","3UUIU9GZC5R93N292LT21FRJ9VS5TN","","null","<img src=""img/land3.png"" style=""width:200px;border:14px solid red;"">","null","","","","","","","","","",""
"","image-keyboard-response","84","68824","0.0-84.0","3Z7EFSHGNA0359I2D7M9T7ENMQCXC5","A3W0SCW5UYEB0F","3UUIU9GZC5R93N292LT21FRJ9VS5TN","","943.5999999046326","img/land4.png","75","944.5","2","1","1","2","0.8,0.2,0.2,0.2,0.8,0.2,0.2,0.2,0.8","0.2,0.8,0.2,0.2,0.2,0.8,0.8,0.2,0.2","3","",""
"","html-keyboard-response","85","69125","0.0-85.0","3Z7EFSHGNA0359I2D7M9T7ENMQCXC5","A3W0SCW5UYEB0F","3UUIU9GZC5R93N292LT21FRJ9VS5TN","","null","<img src=""img/land4.png"" style=""width:200px; border:14px solid green;"">","null","","","","","","","","","",""
"","image-keyboard-response","86","69656","0.0-86.0","3Z7EFSHGNA0359I2D7M9T7ENMQCXC5","A3W0SCW5UYEB0F","3UUIU9GZC5R93N292LT21FRJ9VS5TN","","529.3000001907349","img/land4.png","75","530.2999999523163","2","1","1","2","0.8,0.2,0.2,0.2,0.8,0.2,0.2,0.2,0.8","0.2,0.8,0.2,0.2,0.2,0.8,0.8,0.2,0.2","3","",""
"","html-keyboard-response","87","69958","0.0-87.0","3Z7EFSHGNA0359I2D7M9T7ENMQCXC5","A3W0SCW5UYEB0F","3UUIU9GZC5R93N292LT21FRJ9VS5TN","","null","<img src=""img/land4.png"" style=""width:200px; border:14px solid green;"">","null","","","","","","","","","",""
"","image-keyboard-response","88","70467","0.0-88.0","3Z7EFSHGNA0359I2D7M9T7ENMQCXC5","A3W0SCW5UYEB0F","3UUIU9GZC5R93N292LT21FRJ9VS5TN","","507.60000014305115","img/land4.png","75","508.80000019073486","2","0","1","2","0.8,0.2,0.2,0.2,0.8,0.2,0.2,0.2,0.8","0.2,0.8,0.2,0.2,0.2,0.8,0.8,0.2,0.2","3","",""
"","html-keyboard-response","89","70769","0.0-89.0","3Z7EFSHGNA0359I2D7M9T7ENMQCXC5","A3W0SCW5UYEB0F","3UUIU9GZC5R93N292LT21FRJ9VS5TN","","null","<img src=""img/land4.png"" style=""width:200px;border:14px solid red;"">","null","","","","","","","","","",""
"","image-keyboard-response","90","71299","0.0-90.0","3Z7EFSHGNA0359I2D7M9T7ENMQCXC5","A3W0SCW5UYEB0F","3UUIU9GZC5R93N292LT21FRJ9VS5TN","","528.5","img/land4.png","75","529.3999998569489","2","1","1","2","0.8,0.2,0.2,0.2,0.8,0.2,0.2,0.2,0.8","0.2,0.8,0.2,0.2,0.2,0.8,0.8,0.2,0.2","3","",""
"","html-keyboard-response","91","71600","0.0-91.0","3Z7EFSHGNA0359I2D7M9T7ENMQCXC5","A3W0SCW5UYEB0F","3UUIU9GZC5R93N292LT21FRJ9VS5TN","","null","<img src=""img/land4.png"" style=""width:200px; border:14px solid green;"">","null","","","","","","","","","",""
"","image-keyboard-response","92","72152","0.0-92.0","3Z7EFSHGNA0359I2D7M9T7ENMQCXC5","A3W0SCW5UYEB0F","3UUIU9GZC5R93N292LT21FRJ9VS5TN","","550.7999999523163","img/land3.png","76","551.8999998569489","3","0","2","2","0.8,0.2,0.2,0.2,0.8,0.2,0.2,0.2,0.8","0.2,0.8,0.2,0.2,0.2,0.8,0.8,0.2,0.2","3","",""
"","html-keyboard-response","93","72454","0.0-93.0","3Z7EFSHGNA0359I2D7M9T7ENMQCXC5","A3W0SCW5UYEB0F","3UUIU9GZC5R93N292LT21FRJ9VS5TN","","null","<img src=""img/land3.png"" style=""width:200px;border:14px solid red;"">","null","","","","","","","","","",""
"","image-keyboard-response","94","73334","0.0-94.0","3Z7EFSHGNA0359I2D7M9T7ENMQCXC5","A3W0SCW5UYEB0F","3UUIU9GZC5R93N292LT21FRJ9VS5TN","","878.7999999523163","img/land4.png","75","879.9000000953674","2","1","1","2","0.8,0.2,0.2,0.2,0.8,0.2,0.2,0.2,0.8","0.2,0.8,0.2,0.2,0.2,0.8,0.8,0.2,0.2","3","",""
"","html-keyboard-response","95","73636","0.0-95.0","3Z7EFSHGNA0359I2D7M9T7ENMQCXC5","A3W0SCW5UYEB0F","3UUIU9GZC5R93N292LT21FRJ9VS5TN","","null","<img src=""img/land4.png"" style=""width:200px; border:14px solid green;"">","null","","","","","","","","","",""
"","image-keyboard-response","96","74477","0.0-96.0","3Z7EFSHGNA0359I2D7M9T7ENMQCXC5","A3W0SCW5UYEB0F","3UUIU9GZC5R93N292LT21FRJ9VS5TN","","839.4000000953674","img/land2.png","74","840.6000001430511","1","1","3","2","0.8,0.2,0.2,0.2,0.8,0.2,0.2,0.2,0.8","0.2,0.8,0.2,0.2,0.2,0.8,0.8,0.2,0.2","3","",""
"","html-keyboard-response","97","74779","0.0-97.0","3Z7EFSHGNA0359I2D7M9T7ENMQCXC5","A3W0SCW5UYEB0F","3UUIU9GZC5R93N292LT21FRJ9VS5TN","","null","<img src=""img/land2.png"" style=""width:200px; border:14px solid green;"">","null","","","","","","","","","",""
"","image-keyboard-response","98","75403","0.0-98.0","3Z7EFSHGNA0359I2D7M9T7ENMQCXC5","A3W0SCW5UYEB0F","3UUIU9GZC5R93N292LT21FRJ9VS5TN","","622.5","img/land3.png","76","623.5999999046326","3","1","2","2","0.8,0.2,0.2,0.2,0.8,0.2,0.2,0.2,0.8","0.2,0.8,0.2,0.2,0.2,0.8,0.8,0.2,0.2","3","",""
"","html-keyboard-response","99","75705","0.0-99.0","3Z7EFSHGNA0359I2D7M9T7ENMQCXC5","A3W0SCW5UYEB0F","3UUIU9GZC5R93N292LT21FRJ9VS5TN","","null","<img src=""img/land3.png"" style=""width:200px; border:14px solid green;"">","null","","","","","","","","","",""
"","image-keyboard-response","100","76464","0.0-100.0","3Z7EFSHGNA0359I2D7M9T7ENMQCXC5","A3W0SCW5UYEB0F","3UUIU9GZC5R93N292LT21FRJ9VS5TN","","757.2999999523163","img/land2.png","74","758.5","1","1","3","2","0.8,0.2,0.2,0.2,0.8,0.2,0.2,0.2,0.8","0.2,0.8,0.2,0.2,0.2,0.8,0.8,0.2,0.2","3","",""
"","html-keyboard-response","101","76766","0.0-101.0","3Z7EFSHGNA0359I2D7M9T7ENMQCXC5","A3W0SCW5UYEB0F","3UUIU9GZC5R93N292LT21FRJ9VS5TN","","null","<img src=""img/land2.png"" style=""width:200px; border:14px solid green;"">","null","","","","","","","","","",""
"","image-keyboard-response","102","77449","0.0-102.0","3Z7EFSHGNA0359I2D7M9T7ENMQCXC5","A3W0SCW5UYEB0F","3UUIU9GZC5R93N292LT21FRJ9VS5TN","","681.7999999523163","img/land4.png","76","682.7999999523163","3","0","1","2","0.8,0.2,0.2,0.2,0.8,0.2,0.2,0.2,0.8","0.2,0.8,0.2,0.2,0.2,0.8,0.8,0.2,0.2","3","",""
"","html-keyboard-response","103","77752","0.0-103.0","3Z7EFSHGNA0359I2D7M9T7ENMQCXC5","A3W0SCW5UYEB0F","3UUIU9GZC5R93N292LT21FRJ9VS5TN","","null","<img src=""img/land4.png"" style=""width:200px;border:14px solid red;"">","null","","","","","","","","","",""
"","image-keyboard-response","104","78610","0.0-104.0","3Z7EFSHGNA0359I2D7M9T7ENMQCXC5","A3W0SCW5UYEB0F","3UUIU9GZC5R93N292LT21FRJ9VS5TN","","856.2999999523163","img/land3.png","76","857.2999999523163","3","1","2","2","0.8,0.2,0.2,0.2,0.8,0.2,0.2,0.2,0.8","0.2,0.8,0.2,0.2,0.2,0.8,0.8,0.2,0.2","3","",""
"","html-keyboard-response","105","78912","0.0-105.0","3Z7EFSHGNA0359I2D7M9T7ENMQCXC5","A3W0SCW5UYEB0F","3UUIU9GZC5R93N292LT21FRJ9VS5TN","","null","<img src=""img/land3.png"" style=""width:200px; border:14px solid green;"">","null","","","","","","","","","",""
"","image-keyboard-response","106","79466","0.0-106.0","3Z7EFSHGNA0359I2D7M9T7ENMQCXC5","A3W0SCW5UYEB0F","3UUIU9GZC5R93N292LT21FRJ9VS5TN","","552.1000001430511","img/land3.png","76","553.2000000476837","3","1","2","2","0.8,0.2,0.2,0.2,0.8,0.2,0.2,0.2,0.8","0.2,0.8,0.2,0.2,0.2,0.8,0.8,0.2,0.2","3","",""
"","html-keyboard-response","107","79768","0.0-107.0","3Z7EFSHGNA0359I2D7M9T7ENMQCXC5","A3W0SCW5UYEB0F","3UUIU9GZC5R93N292LT21FRJ9VS5TN","","null","<img src=""img/land3.png"" style=""width:200px; border:14px solid green;"">","null","","","","","","","","","",""
"","image-keyboard-response","108","80411","0.0-108.0","3Z7EFSHGNA0359I2D7M9T7ENMQCXC5","A3W0SCW5UYEB0F","3UUIU9GZC5R93N292LT21FRJ9VS5TN","","641.5","img/land2.png","74","643","1","0","3","2","0.8,0.2,0.2,0.2,0.8,0.2,0.2,0.2,0.8","0.2,0.8,0.2,0.2,0.2,0.8,0.8,0.2,0.2","3","",""
"","html-keyboard-response","109","80716","0.0-109.0","3Z7EFSHGNA0359I2D7M9T7ENMQCXC5","A3W0SCW5UYEB0F","3UUIU9GZC5R93N292LT21FRJ9VS5TN","","null","<img src=""img/land2.png"" style=""width:200px;border:14px solid red;"">","null","","","","","","","","","",""
"","image-keyboard-response","110","81389","0.0-110.0","3Z7EFSHGNA0359I2D7M9T7ENMQCXC5","A3W0SCW5UYEB0F","3UUIU9GZC5R93N292LT21FRJ9VS5TN","","671.5","img/land4.png","75","672.5","2","1","1","2","0.8,0.2,0.2,0.2,0.8,0.2,0.2,0.2,0.8","0.2,0.8,0.2,0.2,0.2,0.8,0.8,0.2,0.2","3","",""
"","html-keyboard-response","111","81691","0.0-111.0","3Z7EFSHGNA0359I2D7M9T7ENMQCXC5","A3W0SCW5UYEB0F","3UUIU9GZC5R93N292LT21FRJ9VS5TN","","null","<img src=""img/land4.png"" style=""width:200px; border:14px solid green;"">","null","","","","","","","","","",""
"","image-keyboard-response","112","82253","0.0-112.0","3Z7EFSHGNA0359I2D7M9T7ENMQCXC5","A3W0SCW5UYEB0F","3UUIU9GZC5R93N292LT21FRJ9VS5TN","","560.9000000953674","img/land4.png","75","562.2000000476837","2","1","1","2","0.8,0.2,0.2,0.2,0.8,0.2,0.2,0.2,0.8","0.2,0.8,0.2,0.2,0.2,0.8,0.8,0.2,0.2","3","",""
"","html-keyboard-response","113","82555","0.0-113.0","3Z7EFSHGNA0359I2D7M9T7ENMQCXC5","A3W0SCW5UYEB0F","3UUIU9GZC5R93N292LT21FRJ9VS5TN","","null","<img src=""img/land4.png"" style=""width:200px; border:14px solid green;"">","null","","","","","","","","","",""
"","image-keyboard-response","114","83052","0.0-114.0","3Z7EFSHGNA0359I2D7M9T7ENMQCXC5","A3W0SCW5UYEB0F","3UUIU9GZC5R93N292LT21FRJ9VS5TN","","495.80000019073486","img/land3.png","76","497.09999990463257","3","1","2","2","0.8,0.2,0.2,0.2,0.8,0.2,0.2,0.2,0.8","0.2,0.8,0.2,0.2,0.2,0.8,0.8,0.2,0.2","3","",""
"","html-keyboard-response","115","83354","0.0-115.0","3Z7EFSHGNA0359I2D7M9T7ENMQCXC5","A3W0SCW5UYEB0F","3UUIU9GZC5R93N292LT21FRJ9VS5TN","","null","<img src=""img/land3.png"" style=""width:200px; border:14px solid green;"">","null","","","","","","","","","",""
"","image-keyboard-response","116","84016","0.0-116.0","3Z7EFSHGNA0359I2D7M9T7ENMQCXC5","A3W0SCW5UYEB0F","3UUIU9GZC5R93N292LT21FRJ9VS5TN","","659.9000000953674","img/land4.png","75","661.1000001430511","2","1","1","2","0.8,0.2,0.2,0.2,0.8,0.2,0.2,0.2,0.8","0.2,0.8,0.2,0.2,0.2,0.8,0.8,0.2,0.2","3","",""
"","html-keyboard-response","117","84317","0.0-117.0","3Z7EFSHGNA0359I2D7M9T7ENMQCXC5","A3W0SCW5UYEB0F","3UUIU9GZC5R93N292LT21FRJ9VS5TN","","null","<img src=""img/land4.png"" style=""width:200px; border:14px solid green;"">","null","","","","","","","","","",""
"","image-keyboard-response","118","84822","0.0-118.0","3Z7EFSHGNA0359I2D7M9T7ENMQCXC5","A3W0SCW5UYEB0F","3UUIU9GZC5R93N292LT21FRJ9VS5TN","","503.7000000476837","img/land3.png","76","504.69999980926514","3","1","2","2","0.8,0.2,0.2,0.2,0.8,0.2,0.2,0.2,0.8","0.2,0.8,0.2,0.2,0.2,0.8,0.8,0.2,0.2","3","",""
"","html-keyboard-response","119","85124","0.0-119.0","3Z7EFSHGNA0359I2D7M9T7ENMQCXC5","A3W0SCW5UYEB0F","3UUIU9GZC5R93N292LT21FRJ9VS5TN","","null","<img src=""img/land3.png"" style=""width:200px; border:14px solid green;"">","null","","","","","","","","","",""
"","image-keyboard-response","120","85631","0.0-120.0","3Z7EFSHGNA0359I2D7M9T7ENMQCXC5","A3W0SCW5UYEB0F","3UUIU9GZC5R93N292LT21FRJ9VS5TN","","505.5","img/land3.png","76","506.59999990463257","3","1","2","2","0.8,0.2,0.2,0.2,0.8,0.2,0.2,0.2,0.8","0.2,0.8,0.2,0.2,0.2,0.8,0.8,0.2,0.2","3","",""
"","html-keyboard-response","121","85933","0.0-121.0","3Z7EFSHGNA0359I2D7M9T7ENMQCXC5","A3W0SCW5UYEB0F","3UUIU9GZC5R93N292LT21FRJ9VS5TN","","null","<img src=""img/land3.png"" style=""width:200px; border:14px solid green;"">","null","","","","","","","","","",""
"","image-keyboard-response","122","86754","0.0-122.0","3Z7EFSHGNA0359I2D7M9T7ENMQCXC5","A3W0SCW5UYEB0F","3UUIU9GZC5R93N292LT21FRJ9VS5TN","","819.3999998569489","img/land2.png","74","820.3999998569489","1","1","3","2","0.8,0.2,0.2,0.2,0.8,0.2,0.2,0.2,0.8","0.2,0.8,0.2,0.2,0.2,0.8,0.8,0.2,0.2","3","",""
"","html-keyboard-response","123","87056","0.0-123.0","3Z7EFSHGNA0359I2D7M9T7ENMQCXC5","A3W0SCW5UYEB0F","3UUIU9GZC5R93N292LT21FRJ9VS5TN","","null","<img src=""img/land2.png"" style=""width:200px; border:14px solid green;"">","null","","","","","","","","","",""
"","image-keyboard-response","124","87714","0.0-124.0","3Z7EFSHGNA0359I2D7M9T7ENMQCXC5","A3W0SCW5UYEB0F","3UUIU9GZC5R93N292LT21FRJ9VS5TN","","656.2000000476837","img/land4.png","75","657.3000001907349","2","1","1","2","0.8,0.2,0.2,0.2,0.8,0.2,0.2,0.2,0.8","0.2,0.8,0.2,0.2,0.2,0.8,0.8,0.2,0.2","3","",""
"","html-keyboard-response","125","88016","0.0-125.0","3Z7EFSHGNA0359I2D7M9T7ENMQCXC5","A3W0SCW5UYEB0F","3UUIU9GZC5R93N292LT21FRJ9VS5TN","","null","<img src=""img/land4.png"" style=""width:200px; border:14px solid green;"">","null","","","","","","","","","",""
"","image-keyboard-response","126","88837","0.0-126.0","3Z7EFSHGNA0359I2D7M9T7ENMQCXC5","A3W0SCW5UYEB0F","3UUIU9GZC5R93N292LT21FRJ9VS5TN","","820.1000001430511","img/land2.png","74","821.0999999046326","1","1","3","2","0.8,0.2,0.2,0.2,0.8,0.2,0.2,0.2,0.8","0.2,0.8,0.2,0.2,0.2,0.8,0.8,0.2,0.2","3","",""
"","html-keyboard-response","127","89139","0.0-127.0","3Z7EFSHGNA0359I2D7M9T7ENMQCXC5","A3W0SCW5UYEB0F","3UUIU9GZC5R93N292LT21FRJ9VS5TN","","null","<img src=""img/land2.png"" style=""width:200px; border:14px solid green;"">","null","","","","","","","","","",""
"","image-keyboard-response","128","89704","0.0-128.0","3Z7EFSHGNA0359I2D7M9T7ENMQCXC5","A3W0SCW5UYEB0F","3UUIU9GZC5R93N292LT21FRJ9VS5TN","","563.8000001907349","img/land2.png","74","564.7999999523163","1","1","3","2","0.8,0.2,0.2,0.2,0.8,0.2,0.2,0.2,0.8","0.2,0.8,0.2,0.2,0.2,0.8,0.8,0.2,0.2","3","",""
"","html-keyboard-response","129","90005","0.0-129.0","3Z7EFSHGNA0359I2D7M9T7ENMQCXC5","A3W0SCW5UYEB0F","3UUIU9GZC5R93N292LT21FRJ9VS5TN","","null","<img src=""img/land2.png"" style=""width:200px; border:14px solid green;"">","null","","","","","","","","","",""
"","image-keyboard-response","130","90730","0.0-130.0","3Z7EFSHGNA0359I2D7M9T7ENMQCXC5","A3W0SCW5UYEB0F","3UUIU9GZC5R93N292LT21FRJ9VS5TN","","723.5999999046326","img/land4.png","75","724.8000001907349","2","0","1","2","0.8,0.2,0.2,0.2,0.8,0.2,0.2,0.2,0.8","0.2,0.8,0.2,0.2,0.2,0.8,0.8,0.2,0.2","3","",""
"","html-keyboard-response","131","91032","0.0-131.0","3Z7EFSHGNA0359I2D7M9T7ENMQCXC5","A3W0SCW5UYEB0F","3UUIU9GZC5R93N292LT21FRJ9VS5TN","","null","<img src=""img/land4.png"" style=""width:200px;border:14px solid red;"">","null","","","","","","","","","",""
"","image-keyboard-response","132","91554","0.0-132.0","3Z7EFSHGNA0359I2D7M9T7ENMQCXC5","A3W0SCW5UYEB0F","3UUIU9GZC5R93N292LT21FRJ9VS5TN","","520.2000000476837","img/land2.png","75","521.7000000476837","2","1","3","2","0.8,0.2,0.2,0.2,0.8,0.2,0.2,0.2,0.8","0.2,0.8,0.2,0.2,0.2,0.8,0.8,0.2,0.2","3","",""
"","html-keyboard-response","133","91856","0.0-133.0","3Z7EFSHGNA0359I2D7M9T7ENMQCXC5","A3W0SCW5UYEB0F","3UUIU9GZC5R93N292LT21FRJ9VS5TN","","null","<img src=""img/land2.png"" style=""width:200px; border:14px solid green;"">","null","","","","","","","","","",""
"","image-keyboard-response","134","92472","0.0-134.0","3Z7EFSHGNA0359I2D7M9T7ENMQCXC5","A3W0SCW5UYEB0F","3UUIU9GZC5R93N292LT21FRJ9VS5TN","","614.3999998569489","img/land2.png","74","615.4000000953674","1","1","3","2","0.8,0.2,0.2,0.2,0.8,0.2,0.2,0.2,0.8","0.2,0.8,0.2,0.2,0.2,0.8,0.8,0.2,0.2","3","",""
"","html-keyboard-response","135","92773","0.0-135.0","3Z7EFSHGNA0359I2D7M9T7ENMQCXC5","A3W0SCW5UYEB0F","3UUIU9GZC5R93N292LT21FRJ9VS5TN","","null","<img src=""img/land2.png"" style=""width:200px; border:14px solid green;"">","null","","","","","","","","","",""
"","image-keyboard-response","136","93427","0.0-136.0","3Z7EFSHGNA0359I2D7M9T7ENMQCXC5","A3W0SCW5UYEB0F","3UUIU9GZC5R93N292LT21FRJ9VS5TN","","651.5999999046326","img/land3.png","76","652.4000000953674","3","0","2","2","0.8,0.2,0.2,0.2,0.8,0.2,0.2,0.2,0.8","0.2,0.8,0.2,0.2,0.2,0.8,0.8,0.2,0.2","3","",""
"","html-keyboard-response","137","93729","0.0-137.0","3Z7EFSHGNA0359I2D7M9T7ENMQCXC5","A3W0SCW5UYEB0F","3UUIU9GZC5R93N292LT21FRJ9VS5TN","","null","<img src=""img/land3.png"" style=""width:200px;border:14px solid red;"">","null","","","","","","","","","",""
"","image-keyboard-response","138","94671","0.0-138.0","3Z7EFSHGNA0359I2D7M9T7ENMQCXC5","A3W0SCW5UYEB0F","3UUIU9GZC5R93N292LT21FRJ9VS5TN","","940.2000000476837","img/land4.png","75","941.2000000476837","2","1","1","2","0.8,0.2,0.2,0.2,0.8,0.2,0.2,0.2,0.8","0.2,0.8,0.2,0.2,0.2,0.8,0.8,0.2,0.2","3","",""
"","html-keyboard-response","139","94972","0.0-139.0","3Z7EFSHGNA0359I2D7M9T7ENMQCXC5","A3W0SCW5UYEB0F","3UUIU9GZC5R93N292LT21FRJ9VS5TN","","null","<img src=""img/land4.png"" style=""width:200px; border:14px solid green;"">","null","","","","","","","","","",""
"","image-keyboard-response","140","95475","0.0-140.0","3Z7EFSHGNA0359I2D7M9T7ENMQCXC5","A3W0SCW5UYEB0F","3UUIU9GZC5R93N292LT21FRJ9VS5TN","","501.09999990463257","img/land4.png","75","502","2","1","1","2","0.8,0.2,0.2,0.2,0.8,0.2,0.2,0.2,0.8","0.2,0.8,0.2,0.2,0.2,0.8,0.8,0.2,0.2","3","",""
"","html-keyboard-response","141","95777","0.0-141.0","3Z7EFSHGNA0359I2D7M9T7ENMQCXC5","A3W0SCW5UYEB0F","3UUIU9GZC5R93N292LT21FRJ9VS5TN","","null","<img src=""img/land4.png"" style=""width:200px; border:14px solid green;"">","null","","","","","","","","","",""
"","image-keyboard-response","142","96258","0.0-142.0","3Z7EFSHGNA0359I2D7M9T7ENMQCXC5","A3W0SCW5UYEB0F","3UUIU9GZC5R93N292LT21FRJ9VS5TN","","479.2000000476837","img/land4.png","75","480.2000000476837","2","0","1","2","0.8,0.2,0.2,0.2,0.8,0.2,0.2,0.2,0.8","0.2,0.8,0.2,0.2,0.2,0.8,0.8,0.2,0.2","3","",""
"","html-keyboard-response","143","96560","0.0-143.0","3Z7EFSHGNA0359I2D7M9T7ENMQCXC5","A3W0SCW5UYEB0F","3UUIU9GZC5R93N292LT21FRJ9VS5TN","","null","<img src=""img/land4.png"" style=""width:200px;border:14px solid red;"">","null","","","","","","","","","",""
"","image-keyboard-response","144","97225","0.0-144.0","3Z7EFSHGNA0359I2D7M9T7ENMQCXC5","A3W0SCW5UYEB0F","3UUIU9GZC5R93N292LT21FRJ9VS5TN","","664.7999999523163","img/land3.png","76","665.5999999046326","3","1","2","2","0.8,0.2,0.2,0.2,0.8,0.2,0.2,0.2,0.8","0.2,0.8,0.2,0.2,0.2,0.8,0.8,0.2,0.2","3","",""
"","html-keyboard-response","145","97527","0.0-145.0","3Z7EFSHGNA0359I2D7M9T7ENMQCXC5","A3W0SCW5UYEB0F","3UUIU9GZC5R93N292LT21FRJ9VS5TN","","null","<img src=""img/land3.png"" style=""width:200px; border:14px solid green;"">","null","","","","","","","","","",""
"","image-keyboard-response","146","98253","0.0-146.0","3Z7EFSHGNA0359I2D7M9T7ENMQCXC5","A3W0SCW5UYEB0F","3UUIU9GZC5R93N292LT21FRJ9VS5TN","","724.7999999523163","img/land2.png","74","725.7999999523163","1","1","3","2","0.8,0.2,0.2,0.2,0.8,0.2,0.2,0.2,0.8","0.2,0.8,0.2,0.2,0.2,0.8,0.8,0.2,0.2","3","",""
"","html-keyboard-response","147","98555","0.0-147.0","3Z7EFSHGNA0359I2D7M9T7ENMQCXC5","A3W0SCW5UYEB0F","3UUIU9GZC5R93N292LT21FRJ9VS5TN","","null","<img src=""img/land2.png"" style=""width:200px; border:14px solid green;"">","null","","","","","","","","","",""
"","image-keyboard-response","148","99218","0.0-148.0","3Z7EFSHGNA0359I2D7M9T7ENMQCXC5","A3W0SCW5UYEB0F","3UUIU9GZC5R93N292LT21FRJ9VS5TN","","661.1999998092651","img/land4.png","75","662.2000000476837","2","1","1","2","0.8,0.2,0.2,0.2,0.8,0.2,0.2,0.2,0.8","0.2,0.8,0.2,0.2,0.2,0.8,0.8,0.2,0.2","3","",""
"","html-keyboard-response","149","99520","0.0-149.0","3Z7EFSHGNA0359I2D7M9T7ENMQCXC5","A3W0SCW5UYEB0F","3UUIU9GZC5R93N292LT21FRJ9VS5TN","","null","<img src=""img/land4.png"" style=""width:200px; border:14px solid green;"">","null","","","","","","","","","",""
"","image-keyboard-response","150","99976","0.0-150.0","3Z7EFSHGNA0359I2D7M9T7ENMQCXC5","A3W0SCW5UYEB0F","3UUIU9GZC5R93N292LT21FRJ9VS5TN","","454.59999990463257","img/land4.png","75","455.5","2","1","1","2","0.8,0.2,0.2,0.2,0.8,0.2,0.2,0.2,0.8","0.2,0.8,0.2,0.2,0.2,0.8,0.8,0.2,0.2","3","",""
"","html-keyboard-response","151","100277","0.0-151.0","3Z7EFSHGNA0359I2D7M9T7ENMQCXC5","A3W0SCW5UYEB0F","3UUIU9GZC5R93N292LT21FRJ9VS5TN","","null","<img src=""img/land4.png"" style=""width:200px; border:14px solid green;"">","null","","","","","","","","","",""
"","image-keyboard-response","152","100807","0.0-152.0","3Z7EFSHGNA0359I2D7M9T7ENMQCXC5","A3W0SCW5UYEB0F","3UUIU9GZC5R93N292LT21FRJ9VS5TN","","529","img/land4.png","75","529.9000000953674","2","1","1","2","0.8,0.2,0.2,0.2,0.8,0.2,0.2,0.2,0.8","0.2,0.8,0.2,0.2,0.2,0.8,0.8,0.2,0.2","3","",""
"","html-keyboard-response","153","101109","0.0-153.0","3Z7EFSHGNA0359I2D7M9T7ENMQCXC5","A3W0SCW5UYEB0F","3UUIU9GZC5R93N292LT21FRJ9VS5TN","","null","<img src=""img/land4.png"" style=""width:200px; border:14px solid green;"">","null","","","","","","","","","",""
"","image-keyboard-response","154","101770","0.0-154.0","3Z7EFSHGNA0359I2D7M9T7ENMQCXC5","A3W0SCW5UYEB0F","3UUIU9GZC5R93N292LT21FRJ9VS5TN","","659.7000000476837","img/land2.png","74","660.7000000476837","1","1","3","2","0.8,0.2,0.2,0.2,0.8,0.2,0.2,0.2,0.8","0.2,0.8,0.2,0.2,0.2,0.8,0.8,0.2,0.2","3","",""
"","html-keyboard-response","155","102072","0.0-155.0","3Z7EFSHGNA0359I2D7M9T7ENMQCXC5","A3W0SCW5UYEB0F","3UUIU9GZC5R93N292LT21FRJ9VS5TN","","null","<img src=""img/land2.png"" style=""width:200px; border:14px solid green;"">","null","","","","","","","","","",""
"","image-keyboard-response","156","102616","0.0-156.0","3Z7EFSHGNA0359I2D7M9T7ENMQCXC5","A3W0SCW5UYEB0F","3UUIU9GZC5R93N292LT21FRJ9VS5TN","","543.1000001430511","img/land4.png","75","544.0999999046326","2","1","1","2","0.8,0.2,0.2,0.2,0.8,0.2,0.2,0.2,0.8","0.2,0.8,0.2,0.2,0.2,0.8,0.8,0.2,0.2","3","",""
"","html-keyboard-response","157","102918","0.0-157.0","3Z7EFSHGNA0359I2D7M9T7ENMQCXC5","A3W0SCW5UYEB0F","3UUIU9GZC5R93N292LT21FRJ9VS5TN","","null","<img src=""img/land4.png"" style=""width:200px; border:14px solid green;"">","null","","","","","","","","","",""
"","image-keyboard-response","158","103383","0.0-158.0","3Z7EFSHGNA0359I2D7M9T7ENMQCXC5","A3W0SCW5UYEB0F","3UUIU9GZC5R93N292LT21FRJ9VS5TN","","463.7000000476837","img/land4.png","75","464.60000014305115","2","1","1","2","0.8,0.2,0.2,0.2,0.8,0.2,0.2,0.2,0.8","0.2,0.8,0.2,0.2,0.2,0.8,0.8,0.2,0.2","3","",""
"","html-keyboard-response","159","103685","0.0-159.0","3Z7EFSHGNA0359I2D7M9T7ENMQCXC5","A3W0SCW5UYEB0F","3UUIU9GZC5R93N292LT21FRJ9VS5TN","","null","<img src=""img/land4.png"" style=""width:200px; border:14px solid green;"">","null","","","","","","","","","",""
"","image-keyboard-response","160","104187","0.0-160.0","3Z7EFSHGNA0359I2D7M9T7ENMQCXC5","A3W0SCW5UYEB0F","3UUIU9GZC5R93N292LT21FRJ9VS5TN","","500","img/land2.png","74","501","1","1","3","2","0.8,0.2,0.2,0.2,0.8,0.2,0.2,0.2,0.8","0.2,0.8,0.2,0.2,0.2,0.8,0.8,0.2,0.2","3","",""
"","html-keyboard-response","161","104489","0.0-161.0","3Z7EFSHGNA0359I2D7M9T7ENMQCXC5","A3W0SCW5UYEB0F","3UUIU9GZC5R93N292LT21FRJ9VS5TN","","null","<img src=""img/land2.png"" style=""width:200px; border:14px solid green;"">","null","","","","","","","","","",""
"","image-keyboard-response","162","105017","0.0-162.0","3Z7EFSHGNA0359I2D7M9T7ENMQCXC5","A3W0SCW5UYEB0F","3UUIU9GZC5R93N292LT21FRJ9VS5TN","","527.2999999523163","img/land4.png","75","528.2999999523163","2","1","1","2","0.8,0.2,0.2,0.2,0.8,0.2,0.2,0.2,0.8","0.2,0.8,0.2,0.2,0.2,0.8,0.8,0.2,0.2","3","",""
"","html-keyboard-response","163","105319","0.0-163.0","3Z7EFSHGNA0359I2D7M9T7ENMQCXC5","A3W0SCW5UYEB0F","3UUIU9GZC5R93N292LT21FRJ9VS5TN","","null","<img src=""img/land4.png"" style=""width:200px; border:14px solid green;"">","null","","","","","","","","","",""
"","image-keyboard-response","164","105853","0.0-164.0","3Z7EFSHGNA0359I2D7M9T7ENMQCXC5","A3W0SCW5UYEB0F","3UUIU9GZC5R93N292LT21FRJ9VS5TN","","533.1000001430511","img/land2.png","74","534.0999999046326","1","1","3","2","0.8,0.2,0.2,0.2,0.8,0.2,0.2,0.2,0.8","0.2,0.8,0.2,0.2,0.2,0.8,0.8,0.2,0.2","3","",""
"","html-keyboard-response","165","106154","0.0-165.0","3Z7EFSHGNA0359I2D7M9T7ENMQCXC5","A3W0SCW5UYEB0F","3UUIU9GZC5R93N292LT21FRJ9VS5TN","","null","<img src=""img/land2.png"" style=""width:200px; border:14px solid green;"">","null","","","","","","","","","",""
"","image-keyboard-response","166","106705","0.0-166.0","3Z7EFSHGNA0359I2D7M9T7ENMQCXC5","A3W0SCW5UYEB0F","3UUIU9GZC5R93N292LT21FRJ9VS5TN","","549.4000000953674","img/land3.png","76","550.5","3","1","2","2","0.8,0.2,0.2,0.2,0.8,0.2,0.2,0.2,0.8","0.2,0.8,0.2,0.2,0.2,0.8,0.8,0.2,0.2","3","",""
"","html-keyboard-response","167","107008","0.0-167.0","3Z7EFSHGNA0359I2D7M9T7ENMQCXC5","A3W0SCW5UYEB0F","3UUIU9GZC5R93N292LT21FRJ9VS5TN","","null","<img src=""img/land3.png"" style=""width:200px; border:14px solid green;"">","null","","","","","","","","","",""
"","image-keyboard-response","168","107727","0.0-168.0","3Z7EFSHGNA0359I2D7M9T7ENMQCXC5","A3W0SCW5UYEB0F","3UUIU9GZC5R93N292LT21FRJ9VS5TN","","717.8999998569489","img/land4.png","75","718.9000000953674","2","1","1","2","0.8,0.2,0.2,0.2,0.8,0.2,0.2,0.2,0.8","0.2,0.8,0.2,0.2,0.2,0.8,0.8,0.2,0.2","3","",""
"","html-keyboard-response","169","108029","0.0-169.0","3Z7EFSHGNA0359I2D7M9T7ENMQCXC5","A3W0SCW5UYEB0F","3UUIU9GZC5R93N292LT21FRJ9VS5TN","","null","<img src=""img/land4.png"" style=""width:200px; border:14px solid green;"">","null","","","","","","","","","",""
"","image-keyboard-response","170","108523","0.0-170.0","3Z7EFSHGNA0359I2D7M9T7ENMQCXC5","A3W0SCW5UYEB0F","3UUIU9GZC5R93N292LT21FRJ9VS5TN","","492.7000000476837","img/land4.png","75","493.90000009536743","2","1","1","2","0.8,0.2,0.2,0.2,0.8,0.2,0.2,0.2,0.8","0.2,0.8,0.2,0.2,0.2,0.8,0.8,0.2,0.2","3","",""
"","html-keyboard-response","171","108826","0.0-171.0","3Z7EFSHGNA0359I2D7M9T7ENMQCXC5","A3W0SCW5UYEB0F","3UUIU9GZC5R93N292LT21FRJ9VS5TN","","null","<img src=""img/land4.png"" style=""width:200px; border:14px solid green;"">","null","","","","","","","","","",""
"","image-keyboard-response","172","109376","0.0-172.0","3Z7EFSHGNA0359I2D7M9T7ENMQCXC5","A3W0SCW5UYEB0F","3UUIU9GZC5R93N292LT21FRJ9VS5TN","","548.7000000476837","img/land4.png","75","549.8999998569489","2","0","1","2","0.8,0.2,0.2,0.2,0.8,0.2,0.2,0.2,0.8","0.2,0.8,0.2,0.2,0.2,0.8,0.8,0.2,0.2","3","",""
"","html-keyboard-response","173","109679","0.0-173.0","3Z7EFSHGNA0359I2D7M9T7ENMQCXC5","A3W0SCW5UYEB0F","3UUIU9GZC5R93N292LT21FRJ9VS5TN","","null","<img src=""img/land4.png"" style=""width:200px;border:14px solid red;"">","null","","","","","","","","","",""
"","image-keyboard-response","174","110237","0.0-174.0","3Z7EFSHGNA0359I2D7M9T7ENMQCXC5","A3W0SCW5UYEB0F","3UUIU9GZC5R93N292LT21FRJ9VS5TN","","557.0999999046326","img/land4.png","75","558.1999998092651","2","1","1","2","0.8,0.2,0.2,0.2,0.8,0.2,0.2,0.2,0.8","0.2,0.8,0.2,0.2,0.2,0.8,0.8,0.2,0.2","3","",""
"","html-keyboard-response","175","110540","0.0-175.0","3Z7EFSHGNA0359I2D7M9T7ENMQCXC5","A3W0SCW5UYEB0F","3UUIU9GZC5R93N292LT21FRJ9VS5TN","","null","<img src=""img/land4.png"" style=""width:200px; border:14px solid green;"">","null","","","","","","","","","",""
"","image-keyboard-response","176","111153","0.0-176.0","3Z7EFSHGNA0359I2D7M9T7ENMQCXC5","A3W0SCW5UYEB0F","3UUIU9GZC5R93N292LT21FRJ9VS5TN","","611.8999998569489","img/land4.png","75","613.2999999523163","2","0","1","2","0.8,0.2,0.2,0.2,0.8,0.2,0.2,0.2,0.8","0.2,0.8,0.2,0.2,0.2,0.8,0.8,0.2,0.2","3","",""
"","html-keyboard-response","177","111465","0.0-177.0","3Z7EFSHGNA0359I2D7M9T7ENMQCXC5","A3W0SCW5UYEB0F","3UUIU9GZC5R93N292LT21FRJ9VS5TN","","null","<img src=""img/land4.png"" style=""width:200px;border:14px solid red;"">","null","","","","","","","","","",""
"","image-keyboard-response","178","111974","0.0-178.0","3Z7EFSHGNA0359I2D7M9T7ENMQCXC5","A3W0SCW5UYEB0F","3UUIU9GZC5R93N292LT21FRJ9VS5TN","","507.39999985694885","img/land4.png","75","508.60000014305115","2","1","1","2","0.8,0.2,0.2,0.2,0.8,0.2,0.2,0.2,0.8","0.2,0.8,0.2,0.2,0.2,0.8,0.8,0.2,0.2","3","",""
"","html-keyboard-response","179","112277","0.0-179.0","3Z7EFSHGNA0359I2D7M9T7ENMQCXC5","A3W0SCW5UYEB0F","3UUIU9GZC5R93N292LT21FRJ9VS5TN","","null","<img src=""img/land4.png"" style=""width:200px; border:14px solid green;"">","null","","","","","","","","","",""
"","image-keyboard-response","180","112847","0.0-180.0","3Z7EFSHGNA0359I2D7M9T7ENMQCXC5","A3W0SCW5UYEB0F","3UUIU9GZC5R93N292LT21FRJ9VS5TN","","568.7000000476837","img/land4.png","75","569.7999999523163","2","1","1","2","0.8,0.2,0.2,0.2,0.8,0.2,0.2,0.2,0.8","0.2,0.8,0.2,0.2,0.2,0.8,0.8,0.2,0.2","3","",""
"","html-keyboard-response","181","113148","0.0-181.0","3Z7EFSHGNA0359I2D7M9T7ENMQCXC5","A3W0SCW5UYEB0F","3UUIU9GZC5R93N292LT21FRJ9VS5TN","","null","<img src=""img/land4.png"" style=""width:200px; border:14px solid green;"">","null","","","","","","","","","",""
"","image-keyboard-response","182","113799","0.0-182.0","3Z7EFSHGNA0359I2D7M9T7ENMQCXC5","A3W0SCW5UYEB0F","3UUIU9GZC5R93N292LT21FRJ9VS5TN","","649.0999999046326","img/land4.png","75","649.8999998569489","2","0","1","2","0.8,0.2,0.2,0.2,0.8,0.2,0.2,0.2,0.8","0.2,0.8,0.2,0.2,0.2,0.8,0.8,0.2,0.2","3","",""
"","html-keyboard-response","183","114101","0.0-183.0","3Z7EFSHGNA0359I2D7M9T7ENMQCXC5","A3W0SCW5UYEB0F","3UUIU9GZC5R93N292LT21FRJ9VS5TN","","null","<img src=""img/land4.png"" style=""width:200px;border:14px solid red;"">","null","","","","","","","","","",""
"","image-keyboard-response","184","114683","0.0-184.0","3Z7EFSHGNA0359I2D7M9T7ENMQCXC5","A3W0SCW5UYEB0F","3UUIU9GZC5R93N292LT21FRJ9VS5TN","","579.9000000953674","img/land4.png","75","580.8999998569489","2","1","1","2","0.8,0.2,0.2,0.2,0.8,0.2,0.2,0.2,0.8","0.2,0.8,0.2,0.2,0.2,0.8,0.8,0.2,0.2","3","",""
"","html-keyboard-response","185","114984","0.0-185.0","3Z7EFSHGNA0359I2D7M9T7ENMQCXC5","A3W0SCW5UYEB0F","3UUIU9GZC5R93N292LT21FRJ9VS5TN","","null","<img src=""img/land4.png"" style=""width:200px; border:14px solid green;"">","null","","","","","","","","","",""
"","image-keyboard-response","186","115562","0.0-186.0","3Z7EFSHGNA0359I2D7M9T7ENMQCXC5","A3W0SCW5UYEB0F","3UUIU9GZC5R93N292LT21FRJ9VS5TN","","575.9000000953674","img/land4.png","75","577","2","1","1","2","0.8,0.2,0.2,0.2,0.8,0.2,0.2,0.2,0.8","0.2,0.8,0.2,0.2,0.2,0.8,0.8,0.2,0.2","3","",""
"","html-keyboard-response","187","115863","0.0-187.0","3Z7EFSHGNA0359I2D7M9T7ENMQCXC5","A3W0SCW5UYEB0F","3UUIU9GZC5R93N292LT21FRJ9VS5TN","","null","<img src=""img/land4.png"" style=""width:200px; border:14px solid green;"">","null","","","","","","","","","",""
"","image-keyboard-response","188","116517","0.0-188.0","3Z7EFSHGNA0359I2D7M9T7ENMQCXC5","A3W0SCW5UYEB0F","3UUIU9GZC5R93N292LT21FRJ9VS5TN","","653.2999999523163","img/land2.png","74","654.2000000476837","1","0","3","2","0.8,0.2,0.2,0.2,0.8,0.2,0.2,0.2,0.8","0.2,0.8,0.2,0.2,0.2,0.8,0.8,0.2,0.2","3","",""
"","html-keyboard-response","189","116819","0.0-189.0","3Z7EFSHGNA0359I2D7M9T7ENMQCXC5","A3W0SCW5UYEB0F","3UUIU9GZC5R93N292LT21FRJ9VS5TN","","null","<img src=""img/land2.png"" style=""width:200px;border:14px solid red;"">","null","","","","","","","","","",""
"","image-keyboard-response","190","117421","0.0-190.0","3Z7EFSHGNA0359I2D7M9T7ENMQCXC5","A3W0SCW5UYEB0F","3UUIU9GZC5R93N292LT21FRJ9VS5TN","","600.9000000953674","img/land2.png","74","601.9000000953674","1","1","3","2","0.8,0.2,0.2,0.2,0.8,0.2,0.2,0.2,0.8","0.2,0.8,0.2,0.2,0.2,0.8,0.8,0.2,0.2","3","",""
"","html-keyboard-response","191","117724","0.0-191.0","3Z7EFSHGNA0359I2D7M9T7ENMQCXC5","A3W0SCW5UYEB0F","3UUIU9GZC5R93N292LT21FRJ9VS5TN","","null","<img src=""img/land2.png"" style=""width:200px; border:14px solid green;"">","null","","","","","","","","","",""
"","image-keyboard-response","192","118354","0.0-192.0","3Z7EFSHGNA0359I2D7M9T7ENMQCXC5","A3W0SCW5UYEB0F","3UUIU9GZC5R93N292LT21FRJ9VS5TN","","628.7000000476837","img/land2.png","74","629.9000000953674","1","0","3","2","0.8,0.2,0.2,0.2,0.8,0.2,0.2,0.2,0.8","0.2,0.8,0.2,0.2,0.2,0.8,0.8,0.2,0.2","3","",""
"","html-keyboard-response","193","118656","0.0-193.0","3Z7EFSHGNA0359I2D7M9T7ENMQCXC5","A3W0SCW5UYEB0F","3UUIU9GZC5R93N292LT21FRJ9VS5TN","","null","<img src=""img/land2.png"" style=""width:200px;border:14px solid red;"">","null","","","","","","","","","",""
"","image-keyboard-response","194","119504","0.0-194.0","3Z7EFSHGNA0359I2D7M9T7ENMQCXC5","A3W0SCW5UYEB0F","3UUIU9GZC5R93N292LT21FRJ9VS5TN","","846.7000000476837","img/land4.png","75","847.5999999046326","2","1","1","2","0.8,0.2,0.2,0.2,0.8,0.2,0.2,0.2,0.8","0.2,0.8,0.2,0.2,0.2,0.8,0.8,0.2,0.2","3","",""
"","html-keyboard-response","195","119807","0.0-195.0","3Z7EFSHGNA0359I2D7M9T7ENMQCXC5","A3W0SCW5UYEB0F","3UUIU9GZC5R93N292LT21FRJ9VS5TN","","null","<img src=""img/land4.png"" style=""width:200px; border:14px solid green;"">","null","","","","","","","","","",""
"","image-keyboard-response","196","120420","0.0-196.0","3Z7EFSHGNA0359I2D7M9T7ENMQCXC5","A3W0SCW5UYEB0F","3UUIU9GZC5R93N292LT21FRJ9VS5TN","","612.0999999046326","img/land2.png","74","613.0999999046326","1","0","3","2","0.8,0.2,0.2,0.2,0.8,0.2,0.2,0.2,0.8","0.2,0.8,0.2,0.2,0.2,0.8,0.8,0.2,0.2","3","",""
"","html-keyboard-response","197","120722","0.0-197.0","3Z7EFSHGNA0359I2D7M9T7ENMQCXC5","A3W0SCW5UYEB0F","3UUIU9GZC5R93N292LT21FRJ9VS5TN","","null","<img src=""img/land2.png"" style=""width:200px;border:14px solid red;"">","null","","","","","","","","","",""
"","image-keyboard-response","198","121365","0.0-198.0","3Z7EFSHGNA0359I2D7M9T7ENMQCXC5","A3W0SCW5UYEB0F","3UUIU9GZC5R93N292LT21FRJ9VS5TN","","641.3000001907349","img/land3.png","76","642.5","3","1","2","2","0.8,0.2,0.2,0.2,0.8,0.2,0.2,0.2,0.8","0.2,0.8,0.2,0.2,0.2,0.8,0.8,0.2,0.2","3","",""
"","html-keyboard-response","199","121667","0.0-199.0","3Z7EFSHGNA0359I2D7M9T7ENMQCXC5","A3W0SCW5UYEB0F","3UUIU9GZC5R93N292LT21FRJ9VS5TN","","null","<img src=""img/land3.png"" style=""width:200px; border:14px solid green;"">","null","","","","","","","","","",""
"","image-keyboard-response","200","122315","0.0-200.0","3Z7EFSHGNA0359I2D7M9T7ENMQCXC5","A3W0SCW5UYEB0F","3UUIU9GZC5R93N292LT21FRJ9VS5TN","","647.2000000476837","img/land4.png","75","648.0999999046326","2","1","1","2","0.8,0.2,0.2,0.2,0.8,0.2,0.2,0.2,0.8","0.2,0.8,0.2,0.2,0.2,0.8,0.8,0.2,0.2","3","",""
"","html-keyboard-response","201","122617","0.0-201.0","3Z7EFSHGNA0359I2D7M9T7ENMQCXC5","A3W0SCW5UYEB0F","3UUIU9GZC5R93N292LT21FRJ9VS5TN","","null","<img src=""img/land4.png"" style=""width:200px; border:14px solid green;"">","null","","","","","","","","","",""
"","image-keyboard-response","202","123132","0.0-202.0","3Z7EFSHGNA0359I2D7M9T7ENMQCXC5","A3W0SCW5UYEB0F","3UUIU9GZC5R93N292LT21FRJ9VS5TN","","514","img/land4.png","75","515.0999999046326","2","0","1","2","0.8,0.2,0.2,0.2,0.8,0.2,0.2,0.2,0.8","0.2,0.8,0.2,0.2,0.2,0.8,0.8,0.2,0.2","3","",""
"","html-keyboard-response","203","123434","0.0-203.0","3Z7EFSHGNA0359I2D7M9T7ENMQCXC5","A3W0SCW5UYEB0F","3UUIU9GZC5R93N292LT21FRJ9VS5TN","","null","<img src=""img/land4.png"" style=""width:200px;border:14px solid red;"">","null","","","","","","","","","",""
"","image-keyboard-response","204","124112","0.0-204.0","3Z7EFSHGNA0359I2D7M9T7ENMQCXC5","A3W0SCW5UYEB0F","3UUIU9GZC5R93N292LT21FRJ9VS5TN","","676.5999999046326","img/land2.png","74","677.7999999523163","1","1","3","2","0.8,0.2,0.2,0.2,0.8,0.2,0.2,0.2,0.8","0.2,0.8,0.2,0.2,0.2,0.8,0.8,0.2,0.2","3","",""
"","html-keyboard-response","205","124413","0.0-205.0","3Z7EFSHGNA0359I2D7M9T7ENMQCXC5","A3W0SCW5UYEB0F","3UUIU9GZC5R93N292LT21FRJ9VS5TN","","null","<img src=""img/land2.png"" style=""width:200px; border:14px solid green;"">","null","","","","","","","","","",""
"","image-keyboard-response","206","125127","0.0-206.0","3Z7EFSHGNA0359I2D7M9T7ENMQCXC5","A3W0SCW5UYEB0F","3UUIU9GZC5R93N292LT21FRJ9VS5TN","","712.5999999046326","img/land4.png","75","713.7000000476837","2","1","1","2","0.8,0.2,0.2,0.2,0.8,0.2,0.2,0.2,0.8","0.2,0.8,0.2,0.2,0.2,0.8,0.8,0.2,0.2","3","",""
"","html-keyboard-response","207","125429","0.0-207.0","3Z7EFSHGNA0359I2D7M9T7ENMQCXC5","A3W0SCW5UYEB0F","3UUIU9GZC5R93N292LT21FRJ9VS5TN","","null","<img src=""img/land4.png"" style=""width:200px; border:14px solid green;"">","null","","","","","","","","","",""
"","image-keyboard-response","208","125995","0.0-208.0","3Z7EFSHGNA0359I2D7M9T7ENMQCXC5","A3W0SCW5UYEB0F","3UUIU9GZC5R93N292LT21FRJ9VS5TN","","565","img/land4.png","75","566.1999998092651","2","1","1","2","0.8,0.2,0.2,0.2,0.8,0.2,0.2,0.2,0.8","0.2,0.8,0.2,0.2,0.2,0.8,0.8,0.2,0.2","3","",""
"","html-keyboard-response","209","126298","0.0-209.0","3Z7EFSHGNA0359I2D7M9T7ENMQCXC5","A3W0SCW5UYEB0F","3UUIU9GZC5R93N292LT21FRJ9VS5TN","","null","<img src=""img/land4.png"" style=""width:200px; border:14px solid green;"">","null","","","","","","","","","",""
"","image-keyboard-response","210","127006","0.0-210.0","3Z7EFSHGNA0359I2D7M9T7ENMQCXC5","A3W0SCW5UYEB0F","3UUIU9GZC5R93N292LT21FRJ9VS5TN","","706.5999999046326","img/land2.png","74","707.7000000476837","1","1","3","2","0.8,0.2,0.2,0.2,0.8,0.2,0.2,0.2,0.8","0.2,0.8,0.2,0.2,0.2,0.8,0.8,0.2,0.2","3","",""
"","html-keyboard-response","211","127308","0.0-211.0","3Z7EFSHGNA0359I2D7M9T7ENMQCXC5","A3W0SCW5UYEB0F","3UUIU9GZC5R93N292LT21FRJ9VS5TN","","null","<img src=""img/land2.png"" style=""width:200px; border:14px solid green;"">","null","","","","","","","","","",""
"","image-keyboard-response","212","127966","0.0-212.0","3Z7EFSHGNA0359I2D7M9T7ENMQCXC5","A3W0SCW5UYEB0F","3UUIU9GZC5R93N292LT21FRJ9VS5TN","","656.7999999523163","img/land4.png","75","657.7999999523163","2","1","1","2","0.8,0.2,0.2,0.2,0.8,0.2,0.2,0.2,0.8","0.2,0.8,0.2,0.2,0.2,0.8,0.8,0.2,0.2","3","",""
"","html-keyboard-response","213","128269","0.0-213.0","3Z7EFSHGNA0359I2D7M9T7ENMQCXC5","A3W0SCW5UYEB0F","3UUIU9GZC5R93N292LT21FRJ9VS5TN","","null","<img src=""img/land4.png"" style=""width:200px; border:14px solid green;"">","null","","","","","","","","","",""
"","image-keyboard-response","214","128887","0.0-214.0","3Z7EFSHGNA0359I2D7M9T7ENMQCXC5","A3W0SCW5UYEB0F","3UUIU9GZC5R93N292LT21FRJ9VS5TN","","616.9000000953674","img/land4.png","75","618","2","1","1","2","0.8,0.2,0.2,0.2,0.8,0.2,0.2,0.2,0.8","0.2,0.8,0.2,0.2,0.2,0.8,0.8,0.2,0.2","3","",""
"","html-keyboard-response","215","129189","0.0-215.0","3Z7EFSHGNA0359I2D7M9T7ENMQCXC5","A3W0SCW5UYEB0F","3UUIU9GZC5R93N292LT21FRJ9VS5TN","","null","<img src=""img/land4.png"" style=""width:200px; border:14px solid green;"">","null","","","","","","","","","",""
"","image-keyboard-response","216","129817","0.0-216.0","3Z7EFSHGNA0359I2D7M9T7ENMQCXC5","A3W0SCW5UYEB0F","3UUIU9GZC5R93N292LT21FRJ9VS5TN","","626.7000000476837","img/land4.png","75","627.9000000953674","2","1","1","2","0.8,0.2,0.2,0.2,0.8,0.2,0.2,0.2,0.8","0.2,0.8,0.2,0.2,0.2,0.8,0.8,0.2,0.2","3","",""
"","html-keyboard-response","217","130119","0.0-217.0","3Z7EFSHGNA0359I2D7M9T7ENMQCXC5","A3W0SCW5UYEB0F","3UUIU9GZC5R93N292LT21FRJ9VS5TN","","null","<img src=""img/land4.png"" style=""width:200px; border:14px solid green;"">","null","","","","","","","","","",""
"","image-keyboard-response","218","130614","0.0-218.0","3Z7EFSHGNA0359I2D7M9T7ENMQCXC5","A3W0SCW5UYEB0F","3UUIU9GZC5R93N292LT21FRJ9VS5TN","","493.5","img/land4.png","75","494.7999999523163","2","0","1","2","0.8,0.2,0.2,0.2,0.8,0.2,0.2,0.2,0.8","0.2,0.8,0.2,0.2,0.2,0.8,0.8,0.2,0.2","3","",""
"","html-keyboard-response","219","130916","0.0-219.0","3Z7EFSHGNA0359I2D7M9T7ENMQCXC5","A3W0SCW5UYEB0F","3UUIU9GZC5R93N292LT21FRJ9VS5TN","","null","<img src=""img/land4.png"" style=""width:200px;border:14px solid red;"">","null","","","","","","","","","",""
"","image-keyboard-response","220","131435","0.0-220.0","3Z7EFSHGNA0359I2D7M9T7ENMQCXC5","A3W0SCW5UYEB0F","3UUIU9GZC5R93N292LT21FRJ9VS5TN","","518.0999999046326","img/land2.png","74","519.0999999046326","1","1","3","2","0.8,0.2,0.2,0.2,0.8,0.2,0.2,0.2,0.8","0.2,0.8,0.2,0.2,0.2,0.8,0.8,0.2,0.2","3","",""
"","html-keyboard-response","221","131737","0.0-221.0","3Z7EFSHGNA0359I2D7M9T7ENMQCXC5","A3W0SCW5UYEB0F","3UUIU9GZC5R93N292LT21FRJ9VS5TN","","null","<img src=""img/land2.png"" style=""width:200px; border:14px solid green;"">","null","","","","","","","","","",""
"","image-keyboard-response","222","132268","0.0-222.0","3Z7EFSHGNA0359I2D7M9T7ENMQCXC5","A3W0SCW5UYEB0F","3UUIU9GZC5R93N292LT21FRJ9VS5TN","","529.5999999046326","img/land2.png","74","530.8999998569489","1","1","3","2","0.8,0.2,0.2,0.2,0.8,0.2,0.2,0.2,0.8","0.2,0.8,0.2,0.2,0.2,0.8,0.8,0.2,0.2","3","",""
"","html-keyboard-response","223","132571","0.0-223.0","3Z7EFSHGNA0359I2D7M9T7ENMQCXC5","A3W0SCW5UYEB0F","3UUIU9GZC5R93N292LT21FRJ9VS5TN","","null","<img src=""img/land2.png"" style=""width:200px; border:14px solid green;"">","null","","","","","","","","","",""
"","image-keyboard-response","224","133315","0.0-224.0","3Z7EFSHGNA0359I2D7M9T7ENMQCXC5","A3W0SCW5UYEB0F","3UUIU9GZC5R93N292LT21FRJ9VS5TN","","742.3000001907349","img/land3.png","76","743.4000000953674","3","1","2","2","0.8,0.2,0.2,0.2,0.8,0.2,0.2,0.2,0.8","0.2,0.8,0.2,0.2,0.2,0.8,0.8,0.2,0.2","3","",""
"","html-keyboard-response","225","133616","0.0-225.0","3Z7EFSHGNA0359I2D7M9T7ENMQCXC5","A3W0SCW5UYEB0F","3UUIU9GZC5R93N292LT21FRJ9VS5TN","","null","<img src=""img/land3.png"" style=""width:200px; border:14px solid green;"">","null","","","","","","","","","",""
"","image-keyboard-response","226","134232","0.0-226.0","3Z7EFSHGNA0359I2D7M9T7ENMQCXC5","A3W0SCW5UYEB0F","3UUIU9GZC5R93N292LT21FRJ9VS5TN","","614.3999998569489","img/land4.png","75","615.7000000476837","2","1","1","2","0.8,0.2,0.2,0.2,0.8,0.2,0.2,0.2,0.8","0.2,0.8,0.2,0.2,0.2,0.8,0.8,0.2,0.2","3","",""
"","html-keyboard-response","227","134534","0.0-227.0","3Z7EFSHGNA0359I2D7M9T7ENMQCXC5","A3W0SCW5UYEB0F","3UUIU9GZC5R93N292LT21FRJ9VS5TN","","null","<img src=""img/land4.png"" style=""width:200px; border:14px solid green;"">","null","","","","","","","","","",""
"","image-keyboard-response","228","134995","0.0-228.0","3Z7EFSHGNA0359I2D7M9T7ENMQCXC5","A3W0SCW5UYEB0F","3UUIU9GZC5R93N292LT21FRJ9VS5TN","","459.2999999523163","img/land4.png","75","460.40000009536743","2","1","1","2","0.8,0.2,0.2,0.2,0.8,0.2,0.2,0.2,0.8","0.2,0.8,0.2,0.2,0.2,0.8,0.8,0.2,0.2","3","",""
"","html-keyboard-response","229","135296","0.0-229.0","3Z7EFSHGNA0359I2D7M9T7ENMQCXC5","A3W0SCW5UYEB0F","3UUIU9GZC5R93N292LT21FRJ9VS5TN","","null","<img src=""img/land4.png"" style=""width:200px; border:14px solid green;"">","null","","","","","","","","","",""
"","image-keyboard-response","230","135992","0.0-230.0","3Z7EFSHGNA0359I2D7M9T7ENMQCXC5","A3W0SCW5UYEB0F","3UUIU9GZC5R93N292LT21FRJ9VS5TN","","694.2999999523163","img/land3.png","76","695.2000000476837","3","1","2","2","0.8,0.2,0.2,0.2,0.8,0.2,0.2,0.2,0.8","0.2,0.8,0.2,0.2,0.2,0.8,0.8,0.2,0.2","3","",""
"","html-keyboard-response","231","136294","0.0-231.0","3Z7EFSHGNA0359I2D7M9T7ENMQCXC5","A3W0SCW5UYEB0F","3UUIU9GZC5R93N292LT21FRJ9VS5TN","","null","<img src=""img/land3.png"" style=""width:200px; border:14px solid green;"">","null","","","","","","","","","",""
"","image-keyboard-response","232","136822","0.0-232.0","3Z7EFSHGNA0359I2D7M9T7ENMQCXC5","A3W0SCW5UYEB0F","3UUIU9GZC5R93N292LT21FRJ9VS5TN","","526.7999999523163","img/land2.png","75","527.7999999523163","2","0","3","2","0.8,0.2,0.2,0.2,0.8,0.2,0.2,0.2,0.8","0.2,0.8,0.2,0.2,0.2,0.8,0.8,0.2,0.2","3","",""
"","html-keyboard-response","233","137124","0.0-233.0","3Z7EFSHGNA0359I2D7M9T7ENMQCXC5","A3W0SCW5UYEB0F","3UUIU9GZC5R93N292LT21FRJ9VS5TN","","null","<img src=""img/land2.png"" style=""width:200px;border:14px solid red;"">","null","","","","","","","","","",""
"","image-keyboard-response","234","138091","0.0-234.0","3Z7EFSHGNA0359I2D7M9T7ENMQCXC5","A3W0SCW5UYEB0F","3UUIU9GZC5R93N292LT21FRJ9VS5TN","","966","img/land4.png","75","966.8999998569489","2","0","1","2","0.8,0.2,0.2,0.2,0.8,0.2,0.2,0.2,0.8","0.2,0.8,0.2,0.2,0.2,0.8,0.8,0.2,0.2","3","",""
"","html-keyboard-response","235","138393","0.0-235.0","3Z7EFSHGNA0359I2D7M9T7ENMQCXC5","A3W0SCW5UYEB0F","3UUIU9GZC5R93N292LT21FRJ9VS5TN","","null","<img src=""img/land4.png"" style=""width:200px;border:14px solid red;"">","null","","","","","","","","","",""
"","image-keyboard-response","236","138931","0.0-236.0","3Z7EFSHGNA0359I2D7M9T7ENMQCXC5","A3W0SCW5UYEB0F","3UUIU9GZC5R93N292LT21FRJ9VS5TN","","536.6999998092651","img/land3.png","76","537.5999999046326","3","1","2","2","0.8,0.2,0.2,0.2,0.8,0.2,0.2,0.2,0.8","0.2,0.8,0.2,0.2,0.2,0.8,0.8,0.2,0.2","3","",""
"","html-keyboard-response","237","139234","0.0-237.0","3Z7EFSHGNA0359I2D7M9T7ENMQCXC5","A3W0SCW5UYEB0F","3UUIU9GZC5R93N292LT21FRJ9VS5TN","","null","<img src=""img/land3.png"" style=""width:200px; border:14px solid green;"">","null","","","","","","","","","",""
"","image-keyboard-response","238","139977","0.0-238.0","3Z7EFSHGNA0359I2D7M9T7ENMQCXC5","A3W0SCW5UYEB0F","3UUIU9GZC5R93N292LT21FRJ9VS5TN","","741","img/land4.png","75","742","2","0","1","2","0.8,0.2,0.2,0.2,0.8,0.2,0.2,0.2,0.8","0.2,0.8,0.2,0.2,0.2,0.8,0.8,0.2,0.2","3","",""
"","html-keyboard-response","239","140279","0.0-239.0","3Z7EFSHGNA0359I2D7M9T7ENMQCXC5","A3W0SCW5UYEB0F","3UUIU9GZC5R93N292LT21FRJ9VS5TN","","null","<img src=""img/land4.png"" style=""width:200px;border:14px solid red;"">","null","","","","","","","","","",""
"","image-keyboard-response","240","140762","0.0-240.0","3Z7EFSHGNA0359I2D7M9T7ENMQCXC5","A3W0SCW5UYEB0F","3UUIU9GZC5R93N292LT21FRJ9VS5TN","","482","img/land4.png","75","483.2999999523163","2","1","1","2","0.8,0.2,0.2,0.2,0.8,0.2,0.2,0.2,0.8","0.2,0.8,0.2,0.2,0.2,0.8,0.8,0.2,0.2","3","",""
"","html-keyboard-response","241","141065","0.0-241.0","3Z7EFSHGNA0359I2D7M9T7ENMQCXC5","A3W0SCW5UYEB0F","3UUIU9GZC5R93N292LT21FRJ9VS5TN","","null","<img src=""img/land4.png"" style=""width:200px; border:14px solid green;"">","null","","","","","","","","","",""
"","image-keyboard-response","242","141675","0.0-242.0","3Z7EFSHGNA0359I2D7M9T7ENMQCXC5","A3W0SCW5UYEB0F","3UUIU9GZC5R93N292LT21FRJ9VS5TN","","609.2000000476837","img/land4.png","75","610.1000001430511","2","1","1","2","0.8,0.2,0.2,0.2,0.8,0.2,0.2,0.2,0.8","0.2,0.8,0.2,0.2,0.2,0.8,0.8,0.2,0.2","3","",""
"","html-keyboard-response","243","141976","0.0-243.0","3Z7EFSHGNA0359I2D7M9T7ENMQCXC5","A3W0SCW5UYEB0F","3UUIU9GZC5R93N292LT21FRJ9VS5TN","","null","<img src=""img/land4.png"" style=""width:200px; border:14px solid green;"">","null","","","","","","","","","",""
"","image-keyboard-response","244","142552","0.0-244.0","3Z7EFSHGNA0359I2D7M9T7ENMQCXC5","A3W0SCW5UYEB0F","3UUIU9GZC5R93N292LT21FRJ9VS5TN","","573.8000001907349","img/land4.png","75","574.6999998092651","2","1","1","2","0.8,0.2,0.2,0.2,0.8,0.2,0.2,0.2,0.8","0.2,0.8,0.2,0.2,0.2,0.8,0.8,0.2,0.2","3","",""
"","html-keyboard-response","245","142853","0.0-245.0","3Z7EFSHGNA0359I2D7M9T7ENMQCXC5","A3W0SCW5UYEB0F","3UUIU9GZC5R93N292LT21FRJ9VS5TN","","null","<img src=""img/land4.png"" style=""width:200px; border:14px solid green;"">","null","","","","","","","","","",""
"","image-keyboard-response","246","143464","0.0-246.0","3Z7EFSHGNA0359I2D7M9T7ENMQCXC5","A3W0SCW5UYEB0F","3UUIU9GZC5R93N292LT21FRJ9VS5TN","","609.2000000476837","img/land3.png","76","610.1000001430511","3","1","2","2","0.8,0.2,0.2,0.2,0.8,0.2,0.2,0.2,0.8","0.2,0.8,0.2,0.2,0.2,0.8,0.8,0.2,0.2","3","",""
"","html-keyboard-response","247","143765","0.0-247.0","3Z7EFSHGNA0359I2D7M9T7ENMQCXC5","A3W0SCW5UYEB0F","3UUIU9GZC5R93N292LT21FRJ9VS5TN","","null","<img src=""img/land3.png"" style=""width:200px; border:14px solid green;"">","null","","","","","","","","","",""
"","image-keyboard-response","248","144603","0.0-248.0","3Z7EFSHGNA0359I2D7M9T7ENMQCXC5","A3W0SCW5UYEB0F","3UUIU9GZC5R93N292LT21FRJ9VS5TN","","836.9000000953674","img/land2.png","74","838","1","1","3","2","0.8,0.2,0.2,0.2,0.8,0.2,0.2,0.2,0.8","0.2,0.8,0.2,0.2,0.2,0.8,0.8,0.2,0.2","3","",""
"","html-keyboard-response","249","144905","0.0-249.0","3Z7EFSHGNA0359I2D7M9T7ENMQCXC5","A3W0SCW5UYEB0F","3UUIU9GZC5R93N292LT21FRJ9VS5TN","","null","<img src=""img/land2.png"" style=""width:200px; border:14px solid green;"">","null","","","","","","","","","",""
"","image-keyboard-response","250","145425","0.0-250.0","3Z7EFSHGNA0359I2D7M9T7ENMQCXC5","A3W0SCW5UYEB0F","3UUIU9GZC5R93N292LT21FRJ9VS5TN","","518.9000000953674","img/land2.png","74","520","1","1","3","2","0.8,0.2,0.2,0.2,0.8,0.2,0.2,0.2,0.8","0.2,0.8,0.2,0.2,0.2,0.8,0.8,0.2,0.2","3","",""
"","html-keyboard-response","251","145727","0.0-251.0","3Z7EFSHGNA0359I2D7M9T7ENMQCXC5","A3W0SCW5UYEB0F","3UUIU9GZC5R93N292LT21FRJ9VS5TN","","null","<img src=""img/land2.png"" style=""width:200px; border:14px solid green;"">","null","","","","","","","","","",""
"","image-keyboard-response","252","146404","0.0-252.0","3Z7EFSHGNA0359I2D7M9T7ENMQCXC5","A3W0SCW5UYEB0F","3UUIU9GZC5R93N292LT21FRJ9VS5TN","","676.2000000476837","img/land3.png","76","677.2000000476837","3","1","2","2","0.8,0.2,0.2,0.2,0.8,0.2,0.2,0.2,0.8","0.2,0.8,0.2,0.2,0.2,0.8,0.8,0.2,0.2","3","",""
"","html-keyboard-response","253","146706","0.0-253.0","3Z7EFSHGNA0359I2D7M9T7ENMQCXC5","A3W0SCW5UYEB0F","3UUIU9GZC5R93N292LT21FRJ9VS5TN","","null","<img src=""img/land3.png"" style=""width:200px; border:14px solid green;"">","null","","","","","","","","","",""
"","image-keyboard-response","254","147359","0.0-254.0","3Z7EFSHGNA0359I2D7M9T7ENMQCXC5","A3W0SCW5UYEB0F","3UUIU9GZC5R93N292LT21FRJ9VS5TN","","650.7999999523163","img/land4.png","75","652.0999999046326","2","1","1","2","0.8,0.2,0.2,0.2,0.8,0.2,0.2,0.2,0.8","0.2,0.8,0.2,0.2,0.2,0.8,0.8,0.2,0.2","3","",""
"","html-keyboard-response","255","147661","0.0-255.0","3Z7EFSHGNA0359I2D7M9T7ENMQCXC5","A3W0SCW5UYEB0F","3UUIU9GZC5R93N292LT21FRJ9VS5TN","","null","<img src=""img/land4.png"" style=""width:200px; border:14px solid green;"">","null","","","","","","","","","",""
"","image-keyboard-response","256","148277","0.0-256.0","3Z7EFSHGNA0359I2D7M9T7ENMQCXC5","A3W0SCW5UYEB0F","3UUIU9GZC5R93N292LT21FRJ9VS5TN","","614.7000000476837","img/land4.png","75","616","2","1","1","2","0.8,0.2,0.2,0.2,0.8,0.2,0.2,0.2,0.8","0.2,0.8,0.2,0.2,0.2,0.8,0.8,0.2,0.2","3","",""
"","html-keyboard-response","257","148579","0.0-257.0","3Z7EFSHGNA0359I2D7M9T7ENMQCXC5","A3W0SCW5UYEB0F","3UUIU9GZC5R93N292LT21FRJ9VS5TN","","null","<img src=""img/land4.png"" style=""width:200px; border:14px solid green;"">","null","","","","","","","","","",""
"","image-keyboard-response","258","149133","0.0-258.0","3Z7EFSHGNA0359I2D7M9T7ENMQCXC5","A3W0SCW5UYEB0F","3UUIU9GZC5R93N292LT21FRJ9VS5TN","","552.4000000953674","img/land4.png","75","553.3000001907349","2","1","1","2","0.8,0.2,0.2,0.2,0.8,0.2,0.2,0.2,0.8","0.2,0.8,0.2,0.2,0.2,0.8,0.8,0.2,0.2","3","",""
"","html-keyboard-response","259","149434","0.0-259.0","3Z7EFSHGNA0359I2D7M9T7ENMQCXC5","A3W0SCW5UYEB0F","3UUIU9GZC5R93N292LT21FRJ9VS5TN","","null","<img src=""img/land4.png"" style=""width:200px; border:14px solid green;"">","null","","","","","","","","","",""
"","image-keyboard-response","260","150015","0.0-260.0","3Z7EFSHGNA0359I2D7M9T7ENMQCXC5","A3W0SCW5UYEB0F","3UUIU9GZC5R93N292LT21FRJ9VS5TN","","579.5","img/land4.png","75","580.3999998569489","2","1","1","2","0.8,0.2,0.2,0.2,0.8,0.2,0.2,0.2,0.8","0.2,0.8,0.2,0.2,0.2,0.8,0.8,0.2,0.2","3","",""
"","html-keyboard-response","261","150316","0.0-261.0","3Z7EFSHGNA0359I2D7M9T7ENMQCXC5","A3W0SCW5UYEB0F","3UUIU9GZC5R93N292LT21FRJ9VS5TN","","null","<img src=""img/land4.png"" style=""width:200px; border:14px solid green;"">","null","","","","","","","","","",""
"","image-keyboard-response","262","150911","0.0-262.0","3Z7EFSHGNA0359I2D7M9T7ENMQCXC5","A3W0SCW5UYEB0F","3UUIU9GZC5R93N292LT21FRJ9VS5TN","","593.7000000476837","img/land4.png","75","594.4000000953674","2","1","1","2","0.8,0.2,0.2,0.2,0.8,0.2,0.2,0.2,0.8","0.2,0.8,0.2,0.2,0.2,0.8,0.8,0.2,0.2","3","",""
"","html-keyboard-response","263","151214","0.0-263.0","3Z7EFSHGNA0359I2D7M9T7ENMQCXC5","A3W0SCW5UYEB0F","3UUIU9GZC5R93N292LT21FRJ9VS5TN","","null","<img src=""img/land4.png"" style=""width:200px; border:14px solid green;"">","null","","","","","","","","","",""
"","image-keyboard-response","264","151844","0.0-264.0","3Z7EFSHGNA0359I2D7M9T7ENMQCXC5","A3W0SCW5UYEB0F","3UUIU9GZC5R93N292LT21FRJ9VS5TN","","629.7000000476837","img/land4.png","75","630.3999998569489","2","1","1","2","0.8,0.2,0.2,0.2,0.8,0.2,0.2,0.2,0.8","0.2,0.8,0.2,0.2,0.2,0.8,0.8,0.2,0.2","3","",""
"","html-keyboard-response","265","152146","0.0-265.0","3Z7EFSHGNA0359I2D7M9T7ENMQCXC5","A3W0SCW5UYEB0F","3UUIU9GZC5R93N292LT21FRJ9VS5TN","","null","<img src=""img/land4.png"" style=""width:200px; border:14px solid green;"">","null","","","","","","","","","",""
"","image-keyboard-response","266","152733","0.0-266.0","3Z7EFSHGNA0359I2D7M9T7ENMQCXC5","A3W0SCW5UYEB0F","3UUIU9GZC5R93N292LT21FRJ9VS5TN","","585.3999998569489","img/land3.png","76","586.3999998569489","3","1","2","2","0.8,0.2,0.2,0.2,0.8,0.2,0.2,0.2,0.8","0.2,0.8,0.2,0.2,0.2,0.8,0.8,0.2,0.2","3","",""
"","html-keyboard-response","267","153035","0.0-267.0","3Z7EFSHGNA0359I2D7M9T7ENMQCXC5","A3W0SCW5UYEB0F","3UUIU9GZC5R93N292LT21FRJ9VS5TN","","null","<img src=""img/land3.png"" style=""width:200px; border:14px solid green;"">","null","","","","","","","","","",""
"","image-keyboard-response","268","153627","0.0-268.0","3Z7EFSHGNA0359I2D7M9T7ENMQCXC5","A3W0SCW5UYEB0F","3UUIU9GZC5R93N292LT21FRJ9VS5TN","","591","img/land2.png","74","592.2000000476837","1","1","3","2","0.8,0.2,0.2,0.2,0.8,0.2,0.2,0.2,0.8","0.2,0.8,0.2,0.2,0.2,0.8,0.8,0.2,0.2","3","",""
"","html-keyboard-response","269","153929","0.0-269.0","3Z7EFSHGNA0359I2D7M9T7ENMQCXC5","A3W0SCW5UYEB0F","3UUIU9GZC5R93N292LT21FRJ9VS5TN","","null","<img src=""img/land2.png"" style=""width:200px; border:14px solid green;"">","null","","","","","","","","","",""
"","image-keyboard-response","270","154476","0.0-270.0","3Z7EFSHGNA0359I2D7M9T7ENMQCXC5","A3W0SCW5UYEB0F","3UUIU9GZC5R93N292LT21FRJ9VS5TN","","545.7999999523163","img/land2.png","74","547","1","1","3","2","0.8,0.2,0.2,0.2,0.8,0.2,0.2,0.2,0.8","0.2,0.8,0.2,0.2,0.2,0.8,0.8,0.2,0.2","3","",""
"","html-keyboard-response","271","154778","0.0-271.0","3Z7EFSHGNA0359I2D7M9T7ENMQCXC5","A3W0SCW5UYEB0F","3UUIU9GZC5R93N292LT21FRJ9VS5TN","","null","<img src=""img/land2.png"" style=""width:200px; border:14px solid green;"">","null","","","","","","","","","",""
"","image-keyboard-response","272","155583","0.0-272.0","3Z7EFSHGNA0359I2D7M9T7ENMQCXC5","A3W0SCW5UYEB0F","3UUIU9GZC5R93N292LT21FRJ9VS5TN","","803.5999999046326","img/land4.png","75","804.3999998569489","2","1","1","2","0.8,0.2,0.2,0.2,0.8,0.2,0.2,0.2,0.8","0.2,0.8,0.2,0.2,0.2,0.8,0.8,0.2,0.2","3","",""
"","html-keyboard-response","273","155884","0.0-273.0","3Z7EFSHGNA0359I2D7M9T7ENMQCXC5","A3W0SCW5UYEB0F","3UUIU9GZC5R93N292LT21FRJ9VS5TN","","null","<img src=""img/land4.png"" style=""width:200px; border:14px solid green;"">","null","","","","","","","","","",""
"","image-keyboard-response","274","156469","0.0-274.0","3Z7EFSHGNA0359I2D7M9T7ENMQCXC5","A3W0SCW5UYEB0F","3UUIU9GZC5R93N292LT21FRJ9VS5TN","","584.7999999523163","img/land3.png","76","585.6999998092651","3","1","2","2","0.8,0.2,0.2,0.2,0.8,0.2,0.2,0.2,0.8","0.2,0.8,0.2,0.2,0.2,0.8,0.8,0.2,0.2","3","",""
"","html-keyboard-response","275","156771","0.0-275.0","3Z7EFSHGNA0359I2D7M9T7ENMQCXC5","A3W0SCW5UYEB0F","3UUIU9GZC5R93N292LT21FRJ9VS5TN","","null","<img src=""img/land3.png"" style=""width:200px; border:14px solid green;"">","null","","","","","","","","","",""
"","image-keyboard-response","276","157367","0.0-276.0","3Z7EFSHGNA0359I2D7M9T7ENMQCXC5","A3W0SCW5UYEB0F","3UUIU9GZC5R93N292LT21FRJ9VS5TN","","593.8000001907349","img/land4.png","75","595.0999999046326","2","1","1","2","0.8,0.2,0.2,0.2,0.8,0.2,0.2,0.2,0.8","0.2,0.8,0.2,0.2,0.2,0.8,0.8,0.2,0.2","3","",""
"","html-keyboard-response","277","157670","0.0-277.0","3Z7EFSHGNA0359I2D7M9T7ENMQCXC5","A3W0SCW5UYEB0F","3UUIU9GZC5R93N292LT21FRJ9VS5TN","","null","<img src=""img/land4.png"" style=""width:200px; border:14px solid green;"">","null","","","","","","","","","",""
"","image-keyboard-response","278","158118","0.0-278.0","3Z7EFSHGNA0359I2D7M9T7ENMQCXC5","A3W0SCW5UYEB0F","3UUIU9GZC5R93N292LT21FRJ9VS5TN","","446","img/land4.png","75","446.89999985694885","2","1","1","2","0.8,0.2,0.2,0.2,0.8,0.2,0.2,0.2,0.8","0.2,0.8,0.2,0.2,0.2,0.8,0.8,0.2,0.2","3","",""
"","html-keyboard-response","279","158420","0.0-279.0","3Z7EFSHGNA0359I2D7M9T7ENMQCXC5","A3W0SCW5UYEB0F","3UUIU9GZC5R93N292LT21FRJ9VS5TN","","null","<img src=""img/land4.png"" style=""width:200px; border:14px solid green;"">","null","","","","","","","","","",""
"","image-keyboard-response","280","159148","0.0-280.0","3Z7EFSHGNA0359I2D7M9T7ENMQCXC5","A3W0SCW5UYEB0F","3UUIU9GZC5R93N292LT21FRJ9VS5TN","","726.7999999523163","img/land3.png","76","727.8000001907349","3","1","2","2","0.8,0.2,0.2,0.2,0.8,0.2,0.2,0.2,0.8","0.2,0.8,0.2,0.2,0.2,0.8,0.8,0.2,0.2","3","",""
"","html-keyboard-response","281","159450","0.0-281.0","3Z7EFSHGNA0359I2D7M9T7ENMQCXC5","A3W0SCW5UYEB0F","3UUIU9GZC5R93N292LT21FRJ9VS5TN","","null","<img src=""img/land3.png"" style=""width:200px; border:14px solid green;"">","null","","","","","","","","","",""
"","image-keyboard-response","282","159955","0.0-282.0","3Z7EFSHGNA0359I2D7M9T7ENMQCXC5","A3W0SCW5UYEB0F","3UUIU9GZC5R93N292LT21FRJ9VS5TN","","503.5","img/land4.png","75","504.5","2","1","1","2","0.8,0.2,0.2,0.2,0.8,0.2,0.2,0.2,0.8","0.2,0.8,0.2,0.2,0.2,0.8,0.8,0.2,0.2","3","",""
"","html-keyboard-response","283","160257","0.0-283.0","3Z7EFSHGNA0359I2D7M9T7ENMQCXC5","A3W0SCW5UYEB0F","3UUIU9GZC5R93N292LT21FRJ9VS5TN","","null","<img src=""img/land4.png"" style=""width:200px; border:14px solid green;"">","null","","","","","","","","","",""
"","image-keyboard-response","284","160801","0.0-284.0","3Z7EFSHGNA0359I2D7M9T7ENMQCXC5","A3W0SCW5UYEB0F","3UUIU9GZC5R93N292LT21FRJ9VS5TN","","542.5","img/land3.png","76","543.6000001430511","3","1","2","2","0.8,0.2,0.2,0.2,0.8,0.2,0.2,0.2,0.8","0.2,0.8,0.2,0.2,0.2,0.8,0.8,0.2,0.2","3","",""
"","html-keyboard-response","285","161103","0.0-285.0","3Z7EFSHGNA0359I2D7M9T7ENMQCXC5","A3W0SCW5UYEB0F","3UUIU9GZC5R93N292LT21FRJ9VS5TN","","null","<img src=""img/land3.png"" style=""width:200px; border:14px solid green;"">","null","","","","","","","","","",""
"","image-keyboard-response","286","161561","0.0-286.0","3Z7EFSHGNA0359I2D7M9T7ENMQCXC5","A3W0SCW5UYEB0F","3UUIU9GZC5R93N292LT21FRJ9VS5TN","","457.30000019073486","img/land4.png","75","458.2000000476837","2","1","1","2","0.8,0.2,0.2,0.2,0.8,0.2,0.2,0.2,0.8","0.2,0.8,0.2,0.2,0.2,0.8,0.8,0.2,0.2","3","",""
"","html-keyboard-response","287","161863","0.0-287.0","3Z7EFSHGNA0359I2D7M9T7ENMQCXC5","A3W0SCW5UYEB0F","3UUIU9GZC5R93N292LT21FRJ9VS5TN","","null","<img src=""img/land4.png"" style=""width:200px; border:14px solid green;"">","null","","","","","","","","","",""
"","image-keyboard-response","288","162441","0.0-288.0","3Z7EFSHGNA0359I2D7M9T7ENMQCXC5","A3W0SCW5UYEB0F","3UUIU9GZC5R93N292LT21FRJ9VS5TN","","577.1000001430511","img/land4.png","75","578.1000001430511","2","0","1","2","0.8,0.2,0.2,0.2,0.8,0.2,0.2,0.2,0.8","0.2,0.8,0.2,0.2,0.2,0.8,0.8,0.2,0.2","3","",""
"","html-keyboard-response","289","162742","0.0-289.0","3Z7EFSHGNA0359I2D7M9T7ENMQCXC5","A3W0SCW5UYEB0F","3UUIU9GZC5R93N292LT21FRJ9VS5TN","","null","<img src=""img/land4.png"" style=""width:200px;border:14px solid red;"">","null","","","","","","","","","",""
"","image-keyboard-response","290","163266","0.0-290.0","3Z7EFSHGNA0359I2D7M9T7ENMQCXC5","A3W0SCW5UYEB0F","3UUIU9GZC5R93N292LT21FRJ9VS5TN","","522.3000001907349","img/land4.png","75","523.2999999523163","2","1","1","2","0.8,0.2,0.2,0.2,0.8,0.2,0.2,0.2,0.8","0.2,0.8,0.2,0.2,0.2,0.8,0.8,0.2,0.2","3","",""
"","html-keyboard-response","291","163568","0.0-291.0","3Z7EFSHGNA0359I2D7M9T7ENMQCXC5","A3W0SCW5UYEB0F","3UUIU9GZC5R93N292LT21FRJ9VS5TN","","null","<img src=""img/land4.png"" style=""width:200px; border:14px solid green;"">","null","","","","","","","","","",""
"","image-keyboard-response","292","164138","0.0-292.0","3Z7EFSHGNA0359I2D7M9T7ENMQCXC5","A3W0SCW5UYEB0F","3UUIU9GZC5R93N292LT21FRJ9VS5TN","","568.5999999046326","img/land4.png","75","569.6000001430511","2","1","1","2","0.8,0.2,0.2,0.2,0.8,0.2,0.2,0.2,0.8","0.2,0.8,0.2,0.2,0.2,0.8,0.8,0.2,0.2","3","",""
"","html-keyboard-response","293","164439","0.0-293.0","3Z7EFSHGNA0359I2D7M9T7ENMQCXC5","A3W0SCW5UYEB0F","3UUIU9GZC5R93N292LT21FRJ9VS5TN","","null","<img src=""img/land4.png"" style=""width:200px; border:14px solid green;"">","null","","","","","","","","","",""
"","image-keyboard-response","294","164988","0.0-294.0","3Z7EFSHGNA0359I2D7M9T7ENMQCXC5","A3W0SCW5UYEB0F","3UUIU9GZC5R93N292LT21FRJ9VS5TN","","547.1999998092651","img/land4.png","75","548.3000001907349","2","1","1","2","0.8,0.2,0.2,0.2,0.8,0.2,0.2,0.2,0.8","0.2,0.8,0.2,0.2,0.2,0.8,0.8,0.2,0.2","3","",""
"","html-keyboard-response","295","165289","0.0-295.0","3Z7EFSHGNA0359I2D7M9T7ENMQCXC5","A3W0SCW5UYEB0F","3UUIU9GZC5R93N292LT21FRJ9VS5TN","","null","<img src=""img/land4.png"" style=""width:200px; border:14px solid green;"">","null","","","","","","","","","",""
"","image-keyboard-response","296","165808","0.0-296.0","3Z7EFSHGNA0359I2D7M9T7ENMQCXC5","A3W0SCW5UYEB0F","3UUIU9GZC5R93N292LT21FRJ9VS5TN","","517.0999999046326","img/land4.png","75","518.4000000953674","2","1","1","2","0.8,0.2,0.2,0.2,0.8,0.2,0.2,0.2,0.8","0.2,0.8,0.2,0.2,0.2,0.8,0.8,0.2,0.2","3","",""
"","html-keyboard-response","297","166109","0.0-297.0","3Z7EFSHGNA0359I2D7M9T7ENMQCXC5","A3W0SCW5UYEB0F","3UUIU9GZC5R93N292LT21FRJ9VS5TN","","null","<img src=""img/land4.png"" style=""width:200px; border:14px solid green;"">","null","","","","","","","","","",""
"","image-keyboard-response","298","166631","0.0-298.0","3Z7EFSHGNA0359I2D7M9T7ENMQCXC5","A3W0SCW5UYEB0F","3UUIU9GZC5R93N292LT21FRJ9VS5TN","","520.5","img/land4.png","75","521.5999999046326","2","1","1","2","0.8,0.2,0.2,0.2,0.8,0.2,0.2,0.2,0.8","0.2,0.8,0.2,0.2,0.2,0.8,0.8,0.2,0.2","3","",""
"","html-keyboard-response","299","166933","0.0-299.0","3Z7EFSHGNA0359I2D7M9T7ENMQCXC5","A3W0SCW5UYEB0F","3UUIU9GZC5R93N292LT21FRJ9VS5TN","","null","<img src=""img/land4.png"" style=""width:200px; border:14px solid green;"">","null","","","","","","","","","",""
"","image-keyboard-response","300","167487","0.0-300.0","3Z7EFSHGNA0359I2D7M9T7ENMQCXC5","A3W0SCW5UYEB0F","3UUIU9GZC5R93N292LT21FRJ9VS5TN","","553.2999999523163","img/land4.png","75","554.2999999523163","2","1","1","2","0.8,0.2,0.2,0.2,0.8,0.2,0.2,0.2,0.8","0.2,0.8,0.2,0.2,0.2,0.8,0.8,0.2,0.2","3","",""
"","html-keyboard-response","301","167789","0.0-301.0","3Z7EFSHGNA0359I2D7M9T7ENMQCXC5","A3W0SCW5UYEB0F","3UUIU9GZC5R93N292LT21FRJ9VS5TN","","null","<img src=""img/land4.png"" style=""width:200px; border:14px solid green;"">","null","","","","","","","","","",""
"","image-keyboard-response","302","169185","0.0-302.0","3Z7EFSHGNA0359I2D7M9T7ENMQCXC5","A3W0SCW5UYEB0F","3UUIU9GZC5R93N292LT21FRJ9VS5TN","","1394.2000000476837","img/land5.png","76","1395.2999999523163","3","1","1","1","0.8,0.2,0.2,0.2,0.8,0.2,0.2,0.2,0.8","0.8,0.2,0.2,0.2,0.8,0.2,0.2,0.2,0.8","1","",""
"","html-keyboard-response","303","169487","0.0-303.0","3Z7EFSHGNA0359I2D7M9T7ENMQCXC5","A3W0SCW5UYEB0F","3UUIU9GZC5R93N292LT21FRJ9VS5TN","","null","<img src=""img/land5.png"" style=""width:200px; border:14px solid green;"">","null","","","","","","","","","",""
"","image-keyboard-response","304","170113","0.0-304.0","3Z7EFSHGNA0359I2D7M9T7ENMQCXC5","A3W0SCW5UYEB0F","3UUIU9GZC5R93N292LT21FRJ9VS5TN","","624.1000001430511","img/land5.png","76","625.2000000476837","3","0","1","1","0.8,0.2,0.2,0.2,0.8,0.2,0.2,0.2,0.8","0.8,0.2,0.2,0.2,0.8,0.2,0.2,0.2,0.8","1","",""
"","html-keyboard-response","305","170415","0.0-305.0","3Z7EFSHGNA0359I2D7M9T7ENMQCXC5","A3W0SCW5UYEB0F","3UUIU9GZC5R93N292LT21FRJ9VS5TN","","null","<img src=""img/land5.png"" style=""width:200px;border:14px solid red;"">","null","","","","","","","","","",""
"","image-keyboard-response","306","171164","0.0-306.0","3Z7EFSHGNA0359I2D7M9T7ENMQCXC5","A3W0SCW5UYEB0F","3UUIU9GZC5R93N292LT21FRJ9VS5TN","","747.5","img/land1.png","75","748.4000000953674","2","1","2","1","0.8,0.2,0.2,0.2,0.8,0.2,0.2,0.2,0.8","0.8,0.2,0.2,0.2,0.8,0.2,0.2,0.2,0.8","1","",""
"","html-keyboard-response","307","171466","0.0-307.0","3Z7EFSHGNA0359I2D7M9T7ENMQCXC5","A3W0SCW5UYEB0F","3UUIU9GZC5R93N292LT21FRJ9VS5TN","","null","<img src=""img/land1.png"" style=""width:200px; border:14px solid green;"">","null","","","","","","","","","",""
"","image-keyboard-response","308","172053","0.0-308.0","3Z7EFSHGNA0359I2D7M9T7ENMQCXC5","A3W0SCW5UYEB0F","3UUIU9GZC5R93N292LT21FRJ9VS5TN","","585.5","img/land1.png","75","586.7999999523163","2","1","2","1","0.8,0.2,0.2,0.2,0.8,0.2,0.2,0.2,0.8","0.8,0.2,0.2,0.2,0.8,0.2,0.2,0.2,0.8","1","",""
"","html-keyboard-response","309","172355","0.0-309.0","3Z7EFSHGNA0359I2D7M9T7ENMQCXC5","A3W0SCW5UYEB0F","3UUIU9GZC5R93N292LT21FRJ9VS5TN","","null","<img src=""img/land1.png"" style=""width:200px; border:14px solid green;"">","null","","","","","","","","","",""
"","image-keyboard-response","310","173056","0.0-310.0","3Z7EFSHGNA0359I2D7M9T7ENMQCXC5","A3W0SCW5UYEB0F","3UUIU9GZC5R93N292LT21FRJ9VS5TN","","699.2999999523163","img/land6.png","74","700.4000000953674","1","0","3","1","0.8,0.2,0.2,0.2,0.8,0.2,0.2,0.2,0.8","0.8,0.2,0.2,0.2,0.8,0.2,0.2,0.2,0.8","1","",""
"","html-keyboard-response","311","173359","0.0-311.0","3Z7EFSHGNA0359I2D7M9T7ENMQCXC5","A3W0SCW5UYEB0F","3UUIU9GZC5R93N292LT21FRJ9VS5TN","","null","<img src=""img/land6.png"" style=""width:200px;border:14px solid red;"">","null","","","","","","","","","",""
"","image-keyboard-response","312","174055","0.0-312.0","3Z7EFSHGNA0359I2D7M9T7ENMQCXC5","A3W0SCW5UYEB0F","3UUIU9GZC5R93N292LT21FRJ9VS5TN","","695.3999998569489","img/land1.png","75","696.5999999046326","2","0","2","1","0.8,0.2,0.2,0.2,0.8,0.2,0.2,0.2,0.8","0.8,0.2,0.2,0.2,0.8,0.2,0.2,0.2,0.8","1","",""
"","html-keyboard-response","313","174357","0.0-313.0","3Z7EFSHGNA0359I2D7M9T7ENMQCXC5","A3W0SCW5UYEB0F","3UUIU9GZC5R93N292LT21FRJ9VS5TN","","null","<img src=""img/land1.png"" style=""width:200px;border:14px solid red;"">","null","","","","","","","","","",""
"","image-keyboard-response","314","175017","0.0-314.0","3Z7EFSHGNA0359I2D7M9T7ENMQCXC5","A3W0SCW5UYEB0F","3UUIU9GZC5R93N292LT21FRJ9VS5TN","","658.5999999046326","img/land5.png","76","659.7000000476837","3","0","1","1","0.8,0.2,0.2,0.2,0.8,0.2,0.2,0.2,0.8","0.8,0.2,0.2,0.2,0.8,0.2,0.2,0.2,0.8","1","",""
"","html-keyboard-response","315","175319","0.0-315.0","3Z7EFSHGNA0359I2D7M9T7ENMQCXC5","A3W0SCW5UYEB0F","3UUIU9GZC5R93N292LT21FRJ9VS5TN","","null","<img src=""img/land5.png"" style=""width:200px;border:14px solid red;"">","null","","","","","","","","","",""
"","image-keyboard-response","316","175920","0.0-316.0","3Z7EFSHGNA0359I2D7M9T7ENMQCXC5","A3W0SCW5UYEB0F","3UUIU9GZC5R93N292LT21FRJ9VS5TN","","599.2000000476837","img/land6.png","75","600.4000000953674","2","0","3","1","0.8,0.2,0.2,0.2,0.8,0.2,0.2,0.2,0.8","0.8,0.2,0.2,0.2,0.8,0.2,0.2,0.2,0.8","1","",""
"","html-keyboard-response","317","176222","0.0-317.0","3Z7EFSHGNA0359I2D7M9T7ENMQCXC5","A3W0SCW5UYEB0F","3UUIU9GZC5R93N292LT21FRJ9VS5TN","","null","<img src=""img/land6.png"" style=""width:200px;border:14px solid red;"">","null","","","","","","","","","",""
"","image-keyboard-response","318","176869","0.0-318.0","3Z7EFSHGNA0359I2D7M9T7ENMQCXC5","A3W0SCW5UYEB0F","3UUIU9GZC5R93N292LT21FRJ9VS5TN","","645.2999999523163","img/land1.png","75","646.4000000953674","2","1","2","1","0.8,0.2,0.2,0.2,0.8,0.2,0.2,0.2,0.8","0.8,0.2,0.2,0.2,0.8,0.2,0.2,0.2,0.8","1","",""
"","html-keyboard-response","319","177171","0.0-319.0","3Z7EFSHGNA0359I2D7M9T7ENMQCXC5","A3W0SCW5UYEB0F","3UUIU9GZC5R93N292LT21FRJ9VS5TN","","null","<img src=""img/land1.png"" style=""width:200px; border:14px solid green;"">","null","","","","","","","","","",""
"","image-keyboard-response","320","177770","0.0-320.0","3Z7EFSHGNA0359I2D7M9T7ENMQCXC5","A3W0SCW5UYEB0F","3UUIU9GZC5R93N292LT21FRJ9VS5TN","","598.0999999046326","img/land1.png","75","599.0999999046326","2","0","2","1","0.8,0.2,0.2,0.2,0.8,0.2,0.2,0.2,0.8","0.8,0.2,0.2,0.2,0.8,0.2,0.2,0.2,0.8","1","",""
"","html-keyboard-response","321","178072","0.0-321.0","3Z7EFSHGNA0359I2D7M9T7ENMQCXC5","A3W0SCW5UYEB0F","3UUIU9GZC5R93N292LT21FRJ9VS5TN","","null","<img src=""img/land1.png"" style=""width:200px;border:14px solid red;"">","null","","","","","","","","","",""
"","image-keyboard-response","322","178759","0.0-322.0","3Z7EFSHGNA0359I2D7M9T7ENMQCXC5","A3W0SCW5UYEB0F","3UUIU9GZC5R93N292LT21FRJ9VS5TN","","686.2000000476837","img/land5.png","76","687.0999999046326","3","0","1","1","0.8,0.2,0.2,0.2,0.8,0.2,0.2,0.2,0.8","0.8,0.2,0.2,0.2,0.8,0.2,0.2,0.2,0.8","1","",""
"","html-keyboard-response","323","179061","0.0-323.0","3Z7EFSHGNA0359I2D7M9T7ENMQCXC5","A3W0SCW5UYEB0F","3UUIU9GZC5R93N292LT21FRJ9VS5TN","","null","<img src=""img/land5.png"" style=""width:200px;border:14px solid red;"">","null","","","","","","","","","",""
"","image-keyboard-response","324","179941","0.0-324.0","3Z7EFSHGNA0359I2D7M9T7ENMQCXC5","A3W0SCW5UYEB0F","3UUIU9GZC5R93N292LT21FRJ9VS5TN","","878.2000000476837","img/land6.png","75","879.3000001907349","2","1","3","1","0.8,0.2,0.2,0.2,0.8,0.2,0.2,0.2,0.8","0.8,0.2,0.2,0.2,0.8,0.2,0.2,0.2,0.8","1","",""
"","html-keyboard-response","325","180242","0.0-325.0","3Z7EFSHGNA0359I2D7M9T7ENMQCXC5","A3W0SCW5UYEB0F","3UUIU9GZC5R93N292LT21FRJ9VS5TN","","null","<img src=""img/land6.png"" style=""width:200px; border:14px solid green;"">","null","","","","","","","","","",""
"","image-keyboard-response","326","180778","0.0-326.0","3Z7EFSHGNA0359I2D7M9T7ENMQCXC5","A3W0SCW5UYEB0F","3UUIU9GZC5R93N292LT21FRJ9VS5TN","","534.4000000953674","img/land6.png","75","535.4000000953674","2","0","3","1","0.8,0.2,0.2,0.2,0.8,0.2,0.2,0.2,0.8","0.8,0.2,0.2,0.2,0.8,0.2,0.2,0.2,0.8","1","",""
"","html-keyboard-response","327","181080","0.0-327.0","3Z7EFSHGNA0359I2D7M9T7ENMQCXC5","A3W0SCW5UYEB0F","3UUIU9GZC5R93N292LT21FRJ9VS5TN","","null","<img src=""img/land6.png"" style=""width:200px;border:14px solid red;"">","null","","","","","","","","","",""
"","image-keyboard-response","328","181719","0.0-328.0","3Z7EFSHGNA0359I2D7M9T7ENMQCXC5","A3W0SCW5UYEB0F","3UUIU9GZC5R93N292LT21FRJ9VS5TN","","637.7999999523163","img/land1.png","75","638.7999999523163","2","1","2","1","0.8,0.2,0.2,0.2,0.8,0.2,0.2,0.2,0.8","0.8,0.2,0.2,0.2,0.8,0.2,0.2,0.2,0.8","1","",""
"","html-keyboard-response","329","182020","0.0-329.0","3Z7EFSHGNA0359I2D7M9T7ENMQCXC5","A3W0SCW5UYEB0F","3UUIU9GZC5R93N292LT21FRJ9VS5TN","","null","<img src=""img/land1.png"" style=""width:200px; border:14px solid green;"">","null","","","","","","","","","",""
"","image-keyboard-response","330","182556","0.0-330.0","3Z7EFSHGNA0359I2D7M9T7ENMQCXC5","A3W0SCW5UYEB0F","3UUIU9GZC5R93N292LT21FRJ9VS5TN","","534.3999998569489","img/land1.png","75","535.5999999046326","2","0","2","1","0.8,0.2,0.2,0.2,0.8,0.2,0.2,0.2,0.8","0.8,0.2,0.2,0.2,0.8,0.2,0.2,0.2,0.8","1","",""
"","html-keyboard-response","331","182858","0.0-331.0","3Z7EFSHGNA0359I2D7M9T7ENMQCXC5","A3W0SCW5UYEB0F","3UUIU9GZC5R93N292LT21FRJ9VS5TN","","null","<img src=""img/land1.png"" style=""width:200px;border:14px solid red;"">","null","","","","","","","","","",""
"","image-keyboard-response","332","183492","0.0-332.0","3Z7EFSHGNA0359I2D7M9T7ENMQCXC5","A3W0SCW5UYEB0F","3UUIU9GZC5R93N292LT21FRJ9VS5TN","","632.8999998569489","img/land5.png","74","634.0999999046326","1","0","1","1","0.8,0.2,0.2,0.2,0.8,0.2,0.2,0.2,0.8","0.8,0.2,0.2,0.2,0.8,0.2,0.2,0.2,0.8","1","",""
"","html-keyboard-response","333","183794","0.0-333.0","3Z7EFSHGNA0359I2D7M9T7ENMQCXC5","A3W0SCW5UYEB0F","3UUIU9GZC5R93N292LT21FRJ9VS5TN","","null","<img src=""img/land5.png"" style=""width:200px;border:14px solid red;"">","null","","","","","","","","","",""
"","image-keyboard-response","334","184411","0.0-334.0","3Z7EFSHGNA0359I2D7M9T7ENMQCXC5","A3W0SCW5UYEB0F","3UUIU9GZC5R93N292LT21FRJ9VS5TN","","615.7000000476837","img/land5.png","76","616.7999999523163","3","0","1","1","0.8,0.2,0.2,0.2,0.8,0.2,0.2,0.2,0.8","0.8,0.2,0.2,0.2,0.8,0.2,0.2,0.2,0.8","1","",""
"","html-keyboard-response","335","184713","0.0-335.0","3Z7EFSHGNA0359I2D7M9T7ENMQCXC5","A3W0SCW5UYEB0F","3UUIU9GZC5R93N292LT21FRJ9VS5TN","","null","<img src=""img/land5.png"" style=""width:200px;border:14px solid red;"">","null","","","","","","","","","",""
"","image-keyboard-response","336","185139","0.0-336.0","3Z7EFSHGNA0359I2D7M9T7ENMQCXC5","A3W0SCW5UYEB0F","3UUIU9GZC5R93N292LT21FRJ9VS5TN","","425.09999990463257","img/land5.png","75","425.90000009536743","2","0","1","1","0.8,0.2,0.2,0.2,0.8,0.2,0.2,0.2,0.8","0.8,0.2,0.2,0.2,0.8,0.2,0.2,0.2,0.8","1","",""
"","html-keyboard-response","337","185441","0.0-337.0","3Z7EFSHGNA0359I2D7M9T7ENMQCXC5","A3W0SCW5UYEB0F","3UUIU9GZC5R93N292LT21FRJ9VS5TN","","null","<img src=""img/land5.png"" style=""width:200px;border:14px solid red;"">","null","","","","","","","","","",""
"","image-keyboard-response","338","186167","0.0-338.0","3Z7EFSHGNA0359I2D7M9T7ENMQCXC5","A3W0SCW5UYEB0F","3UUIU9GZC5R93N292LT21FRJ9VS5TN","","724.7999999523163","img/land1.png","75","726","2","1","2","1","0.8,0.2,0.2,0.2,0.8,0.2,0.2,0.2,0.8","0.8,0.2,0.2,0.2,0.8,0.2,0.2,0.2,0.8","1","",""
"","html-keyboard-response","339","186469","0.0-339.0","3Z7EFSHGNA0359I2D7M9T7ENMQCXC5","A3W0SCW5UYEB0F","3UUIU9GZC5R93N292LT21FRJ9VS5TN","","null","<img src=""img/land1.png"" style=""width:200px; border:14px solid green;"">","null","","","","","","","","","",""
"","image-keyboard-response","340","187141","0.0-340.0","3Z7EFSHGNA0359I2D7M9T7ENMQCXC5","A3W0SCW5UYEB0F","3UUIU9GZC5R93N292LT21FRJ9VS5TN","","670.2000000476837","img/land5.png","75","671.2000000476837","2","1","1","1","0.8,0.2,0.2,0.2,0.8,0.2,0.2,0.2,0.8","0.8,0.2,0.2,0.2,0.8,0.2,0.2,0.2,0.8","1","",""
"","html-keyboard-response","341","187442","0.0-341.0","3Z7EFSHGNA0359I2D7M9T7ENMQCXC5","A3W0SCW5UYEB0F","3UUIU9GZC5R93N292LT21FRJ9VS5TN","","null","<img src=""img/land5.png"" style=""width:200px; border:14px solid green;"">","null","","","","","","","","","",""
"","image-keyboard-response","342","187849","0.0-342.0","3Z7EFSHGNA0359I2D7M9T7ENMQCXC5","A3W0SCW5UYEB0F","3UUIU9GZC5R93N292LT21FRJ9VS5TN","","405.7000000476837","img/land5.png","76","406.7999999523163","3","1","1","1","0.8,0.2,0.2,0.2,0.8,0.2,0.2,0.2,0.8","0.8,0.2,0.2,0.2,0.8,0.2,0.2,0.2,0.8","1","",""
"","html-keyboard-response","343","188151","0.0-343.0","3Z7EFSHGNA0359I2D7M9T7ENMQCXC5","A3W0SCW5UYEB0F","3UUIU9GZC5R93N292LT21FRJ9VS5TN","","null","<img src=""img/land5.png"" style=""width:200px; border:14px solid green;"">","null","","","","","","","","","",""
"","image-keyboard-response","344","188636","0.0-344.0","3Z7EFSHGNA0359I2D7M9T7ENMQCXC5","A3W0SCW5UYEB0F","3UUIU9GZC5R93N292LT21FRJ9VS5TN","","483","img/land5.png","75","484.2000000476837","2","0","1","1","0.8,0.2,0.2,0.2,0.8,0.2,0.2,0.2,0.8","0.8,0.2,0.2,0.2,0.8,0.2,0.2,0.2,0.8","1","",""
"","html-keyboard-response","345","188937","0.0-345.0","3Z7EFSHGNA0359I2D7M9T7ENMQCXC5","A3W0SCW5UYEB0F","3UUIU9GZC5R93N292LT21FRJ9VS5TN","","null","<img src=""img/land5.png"" style=""width:200px;border:14px solid red;"">","null","","","","","","","","","",""
"","image-keyboard-response","346","189385","0.0-346.0","3Z7EFSHGNA0359I2D7M9T7ENMQCXC5","A3W0SCW5UYEB0F","3UUIU9GZC5R93N292LT21FRJ9VS5TN","","446.40000009536743","img/land5.png","76","447.59999990463257","3","1","1","1","0.8,0.2,0.2,0.2,0.8,0.2,0.2,0.2,0.8","0.8,0.2,0.2,0.2,0.8,0.2,0.2,0.2,0.8","1","",""
"","html-keyboard-response","347","189688","0.0-347.0","3Z7EFSHGNA0359I2D7M9T7ENMQCXC5","A3W0SCW5UYEB0F","3UUIU9GZC5R93N292LT21FRJ9VS5TN","","null","<img src=""img/land5.png"" style=""width:200px; border:14px solid green;"">","null","","","","","","","","","",""
"","image-keyboard-response","348","190352","0.0-348.0","3Z7EFSHGNA0359I2D7M9T7ENMQCXC5","A3W0SCW5UYEB0F","3UUIU9GZC5R93N292LT21FRJ9VS5TN","","663.4000000953674","img/land1.png","75","664.5","2","1","2","1","0.8,0.2,0.2,0.2,0.8,0.2,0.2,0.2,0.8","0.8,0.2,0.2,0.2,0.8,0.2,0.2,0.2,0.8","1","",""
"","html-keyboard-response","349","190654","0.0-349.0","3Z7EFSHGNA0359I2D7M9T7ENMQCXC5","A3W0SCW5UYEB0F","3UUIU9GZC5R93N292LT21FRJ9VS5TN","","null","<img src=""img/land1.png"" style=""width:200px; border:14px solid green;"">","null","","","","","","","","","",""
"","image-keyboard-response","350","191131","0.0-350.0","3Z7EFSHGNA0359I2D7M9T7ENMQCXC5","A3W0SCW5UYEB0F","3UUIU9GZC5R93N292LT21FRJ9VS5TN","","476.2999999523163","img/land1.png","75","477.2999999523163","2","1","2","1","0.8,0.2,0.2,0.2,0.8,0.2,0.2,0.2,0.8","0.8,0.2,0.2,0.2,0.8,0.2,0.2,0.2,0.8","1","",""
"","html-keyboard-response","351","191433","0.0-351.0","3Z7EFSHGNA0359I2D7M9T7ENMQCXC5","A3W0SCW5UYEB0F","3UUIU9GZC5R93N292LT21FRJ9VS5TN","","null","<img src=""img/land1.png"" style=""width:200px; border:14px solid green;"">","null","","","","","","","","","",""
"","image-keyboard-response","352","192132","0.0-352.0","3Z7EFSHGNA0359I2D7M9T7ENMQCXC5","A3W0SCW5UYEB0F","3UUIU9GZC5R93N292LT21FRJ9VS5TN","","697.6000001430511","img/land5.png","76","698.7000000476837","3","1","1","1","0.8,0.2,0.2,0.2,0.8,0.2,0.2,0.2,0.8","0.8,0.2,0.2,0.2,0.8,0.2,0.2,0.2,0.8","1","",""
"","html-keyboard-response","353","192434","0.0-353.0","3Z7EFSHGNA0359I2D7M9T7ENMQCXC5","A3W0SCW5UYEB0F","3UUIU9GZC5R93N292LT21FRJ9VS5TN","","null","<img src=""img/land5.png"" style=""width:200px; border:14px solid green;"">","null","","","","","","","","","",""
