"success","trial_type","trial_index","time_elapsed","internal_node_id","assignmentID","mturkID","hitID","view_history","rt","stimulus","key_press","reactionTime","a","r","s","cond","reward_cond","reward_cond_actual","reward_matrix_idx","responses","question_order"
"true","fullscreen","0","2196","0.0-0.0","3PM8NZGV8Z27ZASLIPN4DC34Q6RXQQ","A50NVZ6AI91O","3WRBLBQ2GRU63BU2LFOJL1G32T90GO","","","","","","","","","","","","","",""
"","instructions","1","10631","0.0-1.0","3PM8NZGV8Z27ZASLIPN4DC34Q6RXQQ","A50NVZ6AI91O","3WRBLBQ2GRU63BU2LFOJL1G32T90GO","[{""page_index"":0,""viewing_time"":2266.2999999523163},{""page_index"":1,""viewing_time"":1142.9000000953674},{""page_index"":2,""viewing_time"":824.7000000476837},{""page_index"":3,""viewing_time"":1268.5999999046326},{""page_index"":4,""viewing_time"":998.9000000953674},{""page_index"":5,""viewing_time"":969.2999999523163},{""page_index"":6,""viewing_time"":960.8999998569489}]","8432.299999952316","","","","","","","","","","","",""
"","image-keyboard-response","2","11780","0.0-2.0","3PM8NZGV8Z27ZASLIPN4DC34Q6RXQQ","A50NVZ6AI91O","3WRBLBQ2GRU63BU2LFOJL1G32T90GO","","1145.0999999046326","img/land1.png","74","1147.8000001907349","1","0","1","2","0.8,0.2,0.2,0.2,0.8,0.2,0.2,0.2,0.8","0.2,0.8,0.2,0.2,0.2,0.8,0.8,0.2,0.2","3","",""
"","html-keyboard-response","3","12091","0.0-3.0","3PM8NZGV8Z27ZASLIPN4DC34Q6RXQQ","A50NVZ6AI91O","3WRBLBQ2GRU63BU2LFOJL1G32T90GO","","null","<img src=""img/land1.png"" style=""width:200px;border:14px solid red;"">","null","","","","","","","","","",""
"","image-keyboard-response","4","12350","0.0-4.0","3PM8NZGV8Z27ZASLIPN4DC34Q6RXQQ","A50NVZ6AI91O","3WRBLBQ2GRU63BU2LFOJL1G32T90GO","","255.79999995231628","img/land3.png","75","258","2","0","2","2","0.8,0.2,0.2,0.2,0.8,0.2,0.2,0.2,0.8","0.2,0.8,0.2,0.2,0.2,0.8,0.8,0.2,0.2","3","",""
"","html-keyboard-response","5","12663","0.0-5.0","3PM8NZGV8Z27ZASLIPN4DC34Q6RXQQ","A50NVZ6AI91O","3WRBLBQ2GRU63BU2LFOJL1G32T90GO","","null","<img src=""img/land3.png"" style=""width:200px;border:14px solid red;"">","null","","","","","","","","","",""
"","image-keyboard-response","6","12903","0.0-6.0","3PM8NZGV8Z27ZASLIPN4DC34Q6RXQQ","A50NVZ6AI91O","3WRBLBQ2GRU63BU2LFOJL1G32T90GO","","237.70000004768372","img/land3.png","76","239.79999995231628","3","1","2","2","0.8,0.2,0.2,0.2,0.8,0.2,0.2,0.2,0.8","0.2,0.8,0.2,0.2,0.2,0.8,0.8,0.2,0.2","3","",""
"","html-keyboard-response","7","13217","0.0-7.0","3PM8NZGV8Z27ZASLIPN4DC34Q6RXQQ","A50NVZ6AI91O","3WRBLBQ2GRU63BU2LFOJL1G32T90GO","","null","<img src=""img/land3.png"" style=""width:200px; border:14px solid green;"">","null","","","","","","","","","",""
"","image-keyboard-response","8","13543","0.0-8.0","3PM8NZGV8Z27ZASLIPN4DC34Q6RXQQ","A50NVZ6AI91O","3WRBLBQ2GRU63BU2LFOJL1G32T90GO","","324.5","img/land1.png","74","326.2000000476837","1","0","1","2","0.8,0.2,0.2,0.2,0.8,0.2,0.2,0.2,0.8","0.2,0.8,0.2,0.2,0.2,0.8,0.8,0.2,0.2","3","",""
"","html-keyboard-response","9","13856","0.0-9.0","3PM8NZGV8Z27ZASLIPN4DC34Q6RXQQ","A50NVZ6AI91O","3WRBLBQ2GRU63BU2LFOJL1G32T90GO","","null","<img src=""img/land1.png"" style=""width:200px;border:14px solid red;"">","null","","","","","","","","","",""
"","image-keyboard-response","10","14106","0.0-10.0","3PM8NZGV8Z27ZASLIPN4DC34Q6RXQQ","A50NVZ6AI91O","3WRBLBQ2GRU63BU2LFOJL1G32T90GO","","248.89999985694885","img/land3.png","75","249.59999990463257","2","0","2","2","0.8,0.2,0.2,0.2,0.8,0.2,0.2,0.2,0.8","0.2,0.8,0.2,0.2,0.2,0.8,0.8,0.2,0.2","3","",""
"","html-keyboard-response","11","14419","0.0-11.0","3PM8NZGV8Z27ZASLIPN4DC34Q6RXQQ","A50NVZ6AI91O","3WRBLBQ2GRU63BU2LFOJL1G32T90GO","","null","<img src=""img/land3.png"" style=""width:200px;border:14px solid red;"">","null","","","","","","","","","",""
"","image-keyboard-response","12","14717","0.0-12.0","3PM8NZGV8Z27ZASLIPN4DC34Q6RXQQ","A50NVZ6AI91O","3WRBLBQ2GRU63BU2LFOJL1G32T90GO","","295.7000000476837","img/land1.png","76","297.7999999523163","3","0","1","2","0.8,0.2,0.2,0.2,0.8,0.2,0.2,0.2,0.8","0.2,0.8,0.2,0.2,0.2,0.8,0.8,0.2,0.2","3","",""
"","html-keyboard-response","13","15030","0.0-13.0","3PM8NZGV8Z27ZASLIPN4DC34Q6RXQQ","A50NVZ6AI91O","3WRBLBQ2GRU63BU2LFOJL1G32T90GO","","null","<img src=""img/land1.png"" style=""width:200px;border:14px solid red;"">","null","","","","","","","","","",""
"","image-keyboard-response","14","15311","0.0-14.0","3PM8NZGV8Z27ZASLIPN4DC34Q6RXQQ","A50NVZ6AI91O","3WRBLBQ2GRU63BU2LFOJL1G32T90GO","","278.89999985694885","img/land1.png","74","280.7999999523163","1","0","1","2","0.8,0.2,0.2,0.2,0.8,0.2,0.2,0.2,0.8","0.2,0.8,0.2,0.2,0.2,0.8,0.8,0.2,0.2","3","",""
"","html-keyboard-response","15","15625","0.0-15.0","3PM8NZGV8Z27ZASLIPN4DC34Q6RXQQ","A50NVZ6AI91O","3WRBLBQ2GRU63BU2LFOJL1G32T90GO","","null","<img src=""img/land1.png"" style=""width:200px;border:14px solid red;"">","null","","","","","","","","","",""
"","image-keyboard-response","16","16006","0.0-16.0","3PM8NZGV8Z27ZASLIPN4DC34Q6RXQQ","A50NVZ6AI91O","3WRBLBQ2GRU63BU2LFOJL1G32T90GO","","379.2000000476837","img/land1.png","75","381.10000014305115","2","1","1","2","0.8,0.2,0.2,0.2,0.8,0.2,0.2,0.2,0.8","0.2,0.8,0.2,0.2,0.2,0.8,0.8,0.2,0.2","3","",""
"","html-keyboard-response","17","16320","0.0-17.0","3PM8NZGV8Z27ZASLIPN4DC34Q6RXQQ","A50NVZ6AI91O","3WRBLBQ2GRU63BU2LFOJL1G32T90GO","","null","<img src=""img/land1.png"" style=""width:200px; border:14px solid green;"">","null","","","","","","","","","",""
"","image-keyboard-response","18","16665","0.0-18.0","3PM8NZGV8Z27ZASLIPN4DC34Q6RXQQ","A50NVZ6AI91O","3WRBLBQ2GRU63BU2LFOJL1G32T90GO","","343.10000014305115","img/land1.png","76","344.7000000476837","3","0","1","2","0.8,0.2,0.2,0.2,0.8,0.2,0.2,0.2,0.8","0.2,0.8,0.2,0.2,0.2,0.8,0.8,0.2,0.2","3","",""
"","html-keyboard-response","19","16979","0.0-19.0","3PM8NZGV8Z27ZASLIPN4DC34Q6RXQQ","A50NVZ6AI91O","3WRBLBQ2GRU63BU2LFOJL1G32T90GO","","null","<img src=""img/land1.png"" style=""width:200px;border:14px solid red;"">","null","","","","","","","","","",""
"","image-keyboard-response","20","17265","0.0-20.0","3PM8NZGV8Z27ZASLIPN4DC34Q6RXQQ","A50NVZ6AI91O","3WRBLBQ2GRU63BU2LFOJL1G32T90GO","","283.5","img/land1.png","74","286.09999990463257","1","0","1","2","0.8,0.2,0.2,0.2,0.8,0.2,0.2,0.2,0.8","0.2,0.8,0.2,0.2,0.2,0.8,0.8,0.2,0.2","3","",""
"","html-keyboard-response","21","17581","0.0-21.0","3PM8NZGV8Z27ZASLIPN4DC34Q6RXQQ","A50NVZ6AI91O","3WRBLBQ2GRU63BU2LFOJL1G32T90GO","","null","<img src=""img/land1.png"" style=""width:200px;border:14px solid red;"">","null","","","","","","","","","",""
"","image-keyboard-response","22","17774","0.0-22.0","3PM8NZGV8Z27ZASLIPN4DC34Q6RXQQ","A50NVZ6AI91O","3WRBLBQ2GRU63BU2LFOJL1G32T90GO","","191.79999995231628","img/land1.png","75","193","2","0","1","2","0.8,0.2,0.2,0.2,0.8,0.2,0.2,0.2,0.8","0.2,0.8,0.2,0.2,0.2,0.8,0.8,0.2,0.2","3","",""
"","html-keyboard-response","23","18089","0.0-23.0","3PM8NZGV8Z27ZASLIPN4DC34Q6RXQQ","A50NVZ6AI91O","3WRBLBQ2GRU63BU2LFOJL1G32T90GO","","null","<img src=""img/land1.png"" style=""width:200px;border:14px solid red;"">","null","","","","","","","","","",""
"","image-keyboard-response","24","18256","0.0-24.0","3PM8NZGV8Z27ZASLIPN4DC34Q6RXQQ","A50NVZ6AI91O","3WRBLBQ2GRU63BU2LFOJL1G32T90GO","","165.19999980926514","img/land1.png","76","166.89999985694885","3","1","1","2","0.8,0.2,0.2,0.2,0.8,0.2,0.2,0.2,0.8","0.2,0.8,0.2,0.2,0.2,0.8,0.8,0.2,0.2","3","",""
"","html-keyboard-response","25","18571","0.0-25.0","3PM8NZGV8Z27ZASLIPN4DC34Q6RXQQ","A50NVZ6AI91O","3WRBLBQ2GRU63BU2LFOJL1G32T90GO","","null","<img src=""img/land1.png"" style=""width:200px; border:14px solid green;"">","null","","","","","","","","","",""
"","image-keyboard-response","26","18825","0.0-26.0","3PM8NZGV8Z27ZASLIPN4DC34Q6RXQQ","A50NVZ6AI91O","3WRBLBQ2GRU63BU2LFOJL1G32T90GO","","252.20000004768372","img/land1.png","74","254","1","0","1","2","0.8,0.2,0.2,0.2,0.8,0.2,0.2,0.2,0.8","0.2,0.8,0.2,0.2,0.2,0.8,0.8,0.2,0.2","3","",""
"","html-keyboard-response","27","19139","0.0-27.0","3PM8NZGV8Z27ZASLIPN4DC34Q6RXQQ","A50NVZ6AI91O","3WRBLBQ2GRU63BU2LFOJL1G32T90GO","","null","<img src=""img/land1.png"" style=""width:200px;border:14px solid red;"">","null","","","","","","","","","",""
"","image-keyboard-response","28","19269","0.0-28.0","3PM8NZGV8Z27ZASLIPN4DC34Q6RXQQ","A50NVZ6AI91O","3WRBLBQ2GRU63BU2LFOJL1G32T90GO","","127.30000019073486","img/land1.png","75","129.5","2","1","1","2","0.8,0.2,0.2,0.2,0.8,0.2,0.2,0.2,0.8","0.2,0.8,0.2,0.2,0.2,0.8,0.8,0.2,0.2","3","",""
"","html-keyboard-response","29","19586","0.0-29.0","3PM8NZGV8Z27ZASLIPN4DC34Q6RXQQ","A50NVZ6AI91O","3WRBLBQ2GRU63BU2LFOJL1G32T90GO","","null","<img src=""img/land1.png"" style=""width:200px; border:14px solid green;"">","null","","","","","","","","","",""
"","image-keyboard-response","30","19786","0.0-30.0","3PM8NZGV8Z27ZASLIPN4DC34Q6RXQQ","A50NVZ6AI91O","3WRBLBQ2GRU63BU2LFOJL1G32T90GO","","198.79999995231628","img/land1.png","76","199.89999985694885","3","0","1","2","0.8,0.2,0.2,0.2,0.8,0.2,0.2,0.2,0.8","0.2,0.8,0.2,0.2,0.2,0.8,0.8,0.2,0.2","3","",""
"","html-keyboard-response","31","20098","0.0-31.0","3PM8NZGV8Z27ZASLIPN4DC34Q6RXQQ","A50NVZ6AI91O","3WRBLBQ2GRU63BU2LFOJL1G32T90GO","","null","<img src=""img/land1.png"" style=""width:200px;border:14px solid red;"">","null","","","","","","","","","",""
"","image-keyboard-response","32","20310","0.0-32.0","3PM8NZGV8Z27ZASLIPN4DC34Q6RXQQ","A50NVZ6AI91O","3WRBLBQ2GRU63BU2LFOJL1G32T90GO","","210.90000009536743","img/land1.png","74","211.90000009536743","1","0","1","2","0.8,0.2,0.2,0.2,0.8,0.2,0.2,0.2,0.8","0.2,0.8,0.2,0.2,0.2,0.8,0.8,0.2,0.2","3","",""
"","html-keyboard-response","33","20625","0.0-33.0","3PM8NZGV8Z27ZASLIPN4DC34Q6RXQQ","A50NVZ6AI91O","3WRBLBQ2GRU63BU2LFOJL1G32T90GO","","null","<img src=""img/land1.png"" style=""width:200px;border:14px solid red;"">","null","","","","","","","","","",""
"","image-keyboard-response","34","20761","0.0-34.0","3PM8NZGV8Z27ZASLIPN4DC34Q6RXQQ","A50NVZ6AI91O","3WRBLBQ2GRU63BU2LFOJL1G32T90GO","","134.5","img/land1.png","75","136.29999995231628","2","0","1","2","0.8,0.2,0.2,0.2,0.8,0.2,0.2,0.2,0.8","0.2,0.8,0.2,0.2,0.2,0.8,0.8,0.2,0.2","3","",""
"","html-keyboard-response","35","21073","0.0-35.0","3PM8NZGV8Z27ZASLIPN4DC34Q6RXQQ","A50NVZ6AI91O","3WRBLBQ2GRU63BU2LFOJL1G32T90GO","","null","<img src=""img/land1.png"" style=""width:200px;border:14px solid red;"">","null","","","","","","","","","",""
"","image-keyboard-response","36","21213","0.0-36.0","3PM8NZGV8Z27ZASLIPN4DC34Q6RXQQ","A50NVZ6AI91O","3WRBLBQ2GRU63BU2LFOJL1G32T90GO","","136.70000004768372","img/land3.png","76","138.69999980926514","3","1","2","2","0.8,0.2,0.2,0.2,0.8,0.2,0.2,0.2,0.8","0.2,0.8,0.2,0.2,0.2,0.8,0.8,0.2,0.2","3","",""
"","html-keyboard-response","37","21527","0.0-37.0","3PM8NZGV8Z27ZASLIPN4DC34Q6RXQQ","A50NVZ6AI91O","3WRBLBQ2GRU63BU2LFOJL1G32T90GO","","null","<img src=""img/land3.png"" style=""width:200px; border:14px solid green;"">","null","","","","","","","","","",""
"","image-keyboard-response","38","21780","0.0-38.0","3PM8NZGV8Z27ZASLIPN4DC34Q6RXQQ","A50NVZ6AI91O","3WRBLBQ2GRU63BU2LFOJL1G32T90GO","","251.09999990463257","img/land6.png","74","252.29999995231628","1","1","3","2","0.8,0.2,0.2,0.2,0.8,0.2,0.2,0.2,0.8","0.2,0.8,0.2,0.2,0.2,0.8,0.8,0.2,0.2","3","",""
"","html-keyboard-response","39","22095","0.0-39.0","3PM8NZGV8Z27ZASLIPN4DC34Q6RXQQ","A50NVZ6AI91O","3WRBLBQ2GRU63BU2LFOJL1G32T90GO","","null","<img src=""img/land6.png"" style=""width:200px; border:14px solid green;"">","null","","","","","","","","","",""
"","image-keyboard-response","40","22353","0.0-40.0","3PM8NZGV8Z27ZASLIPN4DC34Q6RXQQ","A50NVZ6AI91O","3WRBLBQ2GRU63BU2LFOJL1G32T90GO","","256.09999990463257","img/land6.png","75","258","2","0","3","2","0.8,0.2,0.2,0.2,0.8,0.2,0.2,0.2,0.8","0.2,0.8,0.2,0.2,0.2,0.8,0.8,0.2,0.2","3","",""
"","html-keyboard-response","41","22666","0.0-41.0","3PM8NZGV8Z27ZASLIPN4DC34Q6RXQQ","A50NVZ6AI91O","3WRBLBQ2GRU63BU2LFOJL1G32T90GO","","null","<img src=""img/land6.png"" style=""width:200px;border:14px solid red;"">","null","","","","","","","","","",""
"","image-keyboard-response","42","22826","0.0-42.0","3PM8NZGV8Z27ZASLIPN4DC34Q6RXQQ","A50NVZ6AI91O","3WRBLBQ2GRU63BU2LFOJL1G32T90GO","","157.60000014305115","img/land1.png","76","159.5","3","0","1","2","0.8,0.2,0.2,0.2,0.8,0.2,0.2,0.2,0.8","0.2,0.8,0.2,0.2,0.2,0.8,0.8,0.2,0.2","3","",""
"","html-keyboard-response","43","23140","0.0-43.0","3PM8NZGV8Z27ZASLIPN4DC34Q6RXQQ","A50NVZ6AI91O","3WRBLBQ2GRU63BU2LFOJL1G32T90GO","","null","<img src=""img/land1.png"" style=""width:200px;border:14px solid red;"">","null","","","","","","","","","",""
"","image-keyboard-response","44","23343","0.0-44.0","3PM8NZGV8Z27ZASLIPN4DC34Q6RXQQ","A50NVZ6AI91O","3WRBLBQ2GRU63BU2LFOJL1G32T90GO","","200.90000009536743","img/land1.png","74","202.30000019073486","1","0","1","2","0.8,0.2,0.2,0.2,0.8,0.2,0.2,0.2,0.8","0.2,0.8,0.2,0.2,0.2,0.8,0.8,0.2,0.2","3","",""
"","html-keyboard-response","45","23656","0.0-45.0","3PM8NZGV8Z27ZASLIPN4DC34Q6RXQQ","A50NVZ6AI91O","3WRBLBQ2GRU63BU2LFOJL1G32T90GO","","null","<img src=""img/land1.png"" style=""width:200px;border:14px solid red;"">","null","","","","","","","","","",""
"","image-keyboard-response","46","23758","0.0-46.0","3PM8NZGV8Z27ZASLIPN4DC34Q6RXQQ","A50NVZ6AI91O","3WRBLBQ2GRU63BU2LFOJL1G32T90GO","","100.39999985694885","img/land6.png","75","102.20000004768372","2","0","3","2","0.8,0.2,0.2,0.2,0.8,0.2,0.2,0.2,0.8","0.2,0.8,0.2,0.2,0.2,0.8,0.8,0.2,0.2","3","",""
"","html-keyboard-response","47","24070","0.0-47.0","3PM8NZGV8Z27ZASLIPN4DC34Q6RXQQ","A50NVZ6AI91O","3WRBLBQ2GRU63BU2LFOJL1G32T90GO","","null","<img src=""img/land6.png"" style=""width:200px;border:14px solid red;"">","null","","","","","","","","","",""
"","image-keyboard-response","48","24319","0.0-48.0","3PM8NZGV8Z27ZASLIPN4DC34Q6RXQQ","A50NVZ6AI91O","3WRBLBQ2GRU63BU2LFOJL1G32T90GO","","246.09999990463257","img/land1.png","76","248.09999990463257","3","0","1","2","0.8,0.2,0.2,0.2,0.8,0.2,0.2,0.2,0.8","0.2,0.8,0.2,0.2,0.2,0.8,0.8,0.2,0.2","3","",""
"","html-keyboard-response","49","24633","0.0-49.0","3PM8NZGV8Z27ZASLIPN4DC34Q6RXQQ","A50NVZ6AI91O","3WRBLBQ2GRU63BU2LFOJL1G32T90GO","","null","<img src=""img/land1.png"" style=""width:200px;border:14px solid red;"">","null","","","","","","","","","",""
"","image-keyboard-response","50","24698","0.0-50.0","3PM8NZGV8Z27ZASLIPN4DC34Q6RXQQ","A50NVZ6AI91O","3WRBLBQ2GRU63BU2LFOJL1G32T90GO","","62.799999952316284","img/land3.png","74","64.60000014305115","1","0","2","2","0.8,0.2,0.2,0.2,0.8,0.2,0.2,0.2,0.8","0.2,0.8,0.2,0.2,0.2,0.8,0.8,0.2,0.2","3","",""
"","html-keyboard-response","51","25012","0.0-51.0","3PM8NZGV8Z27ZASLIPN4DC34Q6RXQQ","A50NVZ6AI91O","3WRBLBQ2GRU63BU2LFOJL1G32T90GO","","null","<img src=""img/land3.png"" style=""width:200px;border:14px solid red;"">","null","","","","","","","","","",""
"","image-keyboard-response","52","25185","0.0-52.0","3PM8NZGV8Z27ZASLIPN4DC34Q6RXQQ","A50NVZ6AI91O","3WRBLBQ2GRU63BU2LFOJL1G32T90GO","","172","img/land6.png","75","173.19999980926514","2","1","3","2","0.8,0.2,0.2,0.2,0.8,0.2,0.2,0.2,0.8","0.2,0.8,0.2,0.2,0.2,0.8,0.8,0.2,0.2","3","",""
"","html-keyboard-response","53","25499","0.0-53.0","3PM8NZGV8Z27ZASLIPN4DC34Q6RXQQ","A50NVZ6AI91O","3WRBLBQ2GRU63BU2LFOJL1G32T90GO","","null","<img src=""img/land6.png"" style=""width:200px; border:14px solid green;"">","null","","","","","","","","","",""
"","image-keyboard-response","54","25577","0.0-54.0","3PM8NZGV8Z27ZASLIPN4DC34Q6RXQQ","A50NVZ6AI91O","3WRBLBQ2GRU63BU2LFOJL1G32T90GO","","75.79999995231628","img/land1.png","76","77.70000004768372","3","0","1","2","0.8,0.2,0.2,0.2,0.8,0.2,0.2,0.2,0.8","0.2,0.8,0.2,0.2,0.2,0.8,0.8,0.2,0.2","3","",""
"","html-keyboard-response","55","25895","0.0-55.0","3PM8NZGV8Z27ZASLIPN4DC34Q6RXQQ","A50NVZ6AI91O","3WRBLBQ2GRU63BU2LFOJL1G32T90GO","","null","<img src=""img/land1.png"" style=""width:200px;border:14px solid red;"">","null","","","","","","","","","",""
"","image-keyboard-response","56","25949","0.0-56.0","3PM8NZGV8Z27ZASLIPN4DC34Q6RXQQ","A50NVZ6AI91O","3WRBLBQ2GRU63BU2LFOJL1G32T90GO","","51.700000047683716","img/land1.png","74","53.5","1","0","1","2","0.8,0.2,0.2,0.2,0.8,0.2,0.2,0.2,0.8","0.2,0.8,0.2,0.2,0.2,0.8,0.8,0.2,0.2","3","",""
"","html-keyboard-response","57","26260","0.0-57.0","3PM8NZGV8Z27ZASLIPN4DC34Q6RXQQ","A50NVZ6AI91O","3WRBLBQ2GRU63BU2LFOJL1G32T90GO","","null","<img src=""img/land1.png"" style=""width:200px;border:14px solid red;"">","null","","","","","","","","","",""
"","image-keyboard-response","58","26307","0.0-58.0","3PM8NZGV8Z27ZASLIPN4DC34Q6RXQQ","A50NVZ6AI91O","3WRBLBQ2GRU63BU2LFOJL1G32T90GO","","44.5","img/land6.png","75","46.299999952316284","2","0","3","2","0.8,0.2,0.2,0.2,0.8,0.2,0.2,0.2,0.8","0.2,0.8,0.2,0.2,0.2,0.8,0.8,0.2,0.2","3","",""
"","html-keyboard-response","59","26611","0.0-59.0","3PM8NZGV8Z27ZASLIPN4DC34Q6RXQQ","A50NVZ6AI91O","3WRBLBQ2GRU63BU2LFOJL1G32T90GO","","null","<img src=""img/land6.png"" style=""width:200px;border:14px solid red;"">","null","","","","","","","","","",""
"","image-keyboard-response","60","26642","0.0-60.0","3PM8NZGV8Z27ZASLIPN4DC34Q6RXQQ","A50NVZ6AI91O","3WRBLBQ2GRU63BU2LFOJL1G32T90GO","","29.399999856948853","img/land1.png","76","30.800000190734863","3","1","1","2","0.8,0.2,0.2,0.2,0.8,0.2,0.2,0.2,0.8","0.2,0.8,0.2,0.2,0.2,0.8,0.8,0.2,0.2","3","",""
"","html-keyboard-response","61","26958","0.0-61.0","3PM8NZGV8Z27ZASLIPN4DC34Q6RXQQ","A50NVZ6AI91O","3WRBLBQ2GRU63BU2LFOJL1G32T90GO","","null","<img src=""img/land1.png"" style=""width:200px; border:14px solid green;"">","null","","","","","","","","","",""
"","image-keyboard-response","62","27000","0.0-62.0","3PM8NZGV8Z27ZASLIPN4DC34Q6RXQQ","A50NVZ6AI91O","3WRBLBQ2GRU63BU2LFOJL1G32T90GO","","38.80000019073486","img/land1.png","74","41","1","0","1","2","0.8,0.2,0.2,0.2,0.8,0.2,0.2,0.2,0.8","0.2,0.8,0.2,0.2,0.2,0.8,0.8,0.2,0.2","3","",""
"","html-keyboard-response","63","27308","0.0-63.0","3PM8NZGV8Z27ZASLIPN4DC34Q6RXQQ","A50NVZ6AI91O","3WRBLBQ2GRU63BU2LFOJL1G32T90GO","","null","<img src=""img/land1.png"" style=""width:200px;border:14px solid red;"">","null","","","","","","","","","",""
"","image-keyboard-response","64","27544","0.0-64.0","3PM8NZGV8Z27ZASLIPN4DC34Q6RXQQ","A50NVZ6AI91O","3WRBLBQ2GRU63BU2LFOJL1G32T90GO","","233.80000019073486","img/land1.png","75","235.89999985694885","2","1","1","2","0.8,0.2,0.2,0.2,0.8,0.2,0.2,0.2,0.8","0.2,0.8,0.2,0.2,0.2,0.8,0.8,0.2,0.2","3","",""
"","html-keyboard-response","65","27858","0.0-65.0","3PM8NZGV8Z27ZASLIPN4DC34Q6RXQQ","A50NVZ6AI91O","3WRBLBQ2GRU63BU2LFOJL1G32T90GO","","null","<img src=""img/land1.png"" style=""width:200px; border:14px solid green;"">","null","","","","","","","","","",""
"","image-keyboard-response","66","27869","0.0-66.0","3PM8NZGV8Z27ZASLIPN4DC34Q6RXQQ","A50NVZ6AI91O","3WRBLBQ2GRU63BU2LFOJL1G32T90GO","","8.799999952316284","img/land1.png","74","10.099999904632568","1","1","1","2","0.8,0.2,0.2,0.2,0.8,0.2,0.2,0.2,0.8","0.2,0.8,0.2,0.2,0.2,0.8,0.8,0.2,0.2","3","",""
"","html-keyboard-response","67","28173","0.0-67.0","3PM8NZGV8Z27ZASLIPN4DC34Q6RXQQ","A50NVZ6AI91O","3WRBLBQ2GRU63BU2LFOJL1G32T90GO","","null","<img src=""img/land1.png"" style=""width:200px; border:14px solid green;"">","null","","","","","","","","","",""
"","image-keyboard-response","68","28306","0.0-68.0","3PM8NZGV8Z27ZASLIPN4DC34Q6RXQQ","A50NVZ6AI91O","3WRBLBQ2GRU63BU2LFOJL1G32T90GO","","131","img/land6.png","76","132.59999990463257","3","0","3","2","0.8,0.2,0.2,0.2,0.8,0.2,0.2,0.2,0.8","0.2,0.8,0.2,0.2,0.2,0.8,0.8,0.2,0.2","3","",""
"","html-keyboard-response","69","28619","0.0-69.0","3PM8NZGV8Z27ZASLIPN4DC34Q6RXQQ","A50NVZ6AI91O","3WRBLBQ2GRU63BU2LFOJL1G32T90GO","","null","<img src=""img/land6.png"" style=""width:200px;border:14px solid red;"">","null","","","","","","","","","",""
"","image-keyboard-response","70","28661","0.0-70.0","3PM8NZGV8Z27ZASLIPN4DC34Q6RXQQ","A50NVZ6AI91O","3WRBLBQ2GRU63BU2LFOJL1G32T90GO","","40","img/land1.png","75","41.60000014305115","2","1","1","2","0.8,0.2,0.2,0.2,0.8,0.2,0.2,0.2,0.8","0.2,0.8,0.2,0.2,0.2,0.8,0.8,0.2,0.2","3","",""
"","html-keyboard-response","71","28966","0.0-71.0","3PM8NZGV8Z27ZASLIPN4DC34Q6RXQQ","A50NVZ6AI91O","3WRBLBQ2GRU63BU2LFOJL1G32T90GO","","null","<img src=""img/land1.png"" style=""width:200px; border:14px solid green;"">","null","","","","","","","","","",""
"","image-keyboard-response","72","28976","0.0-72.0","3PM8NZGV8Z27ZASLIPN4DC34Q6RXQQ","A50NVZ6AI91O","3WRBLBQ2GRU63BU2LFOJL1G32T90GO","","7.5","img/land1.png","74","9.299999952316284","1","0","1","2","0.8,0.2,0.2,0.2,0.8,0.2,0.2,0.2,0.8","0.2,0.8,0.2,0.2,0.2,0.8,0.8,0.2,0.2","3","",""
"","html-keyboard-response","73","29292","0.0-73.0","3PM8NZGV8Z27ZASLIPN4DC34Q6RXQQ","A50NVZ6AI91O","3WRBLBQ2GRU63BU2LFOJL1G32T90GO","","null","<img src=""img/land1.png"" style=""width:200px;border:14px solid red;"">","null","","","","","","","","","",""
"","image-keyboard-response","74","29500","0.0-74.0","3PM8NZGV8Z27ZASLIPN4DC34Q6RXQQ","A50NVZ6AI91O","3WRBLBQ2GRU63BU2LFOJL1G32T90GO","","207.90000009536743","img/land6.png","75","208.60000014305115","2","0","3","2","0.8,0.2,0.2,0.2,0.8,0.2,0.2,0.2,0.8","0.2,0.8,0.2,0.2,0.2,0.8,0.8,0.2,0.2","3","",""
"","html-keyboard-response","75","29801","0.0-75.0","3PM8NZGV8Z27ZASLIPN4DC34Q6RXQQ","A50NVZ6AI91O","3WRBLBQ2GRU63BU2LFOJL1G32T90GO","","null","<img src=""img/land6.png"" style=""width:200px;border:14px solid red;"">","null","","","","","","","","","",""
"","image-keyboard-response","76","29894","0.0-76.0","3PM8NZGV8Z27ZASLIPN4DC34Q6RXQQ","A50NVZ6AI91O","3WRBLBQ2GRU63BU2LFOJL1G32T90GO","","91.10000014305115","img/land1.png","74","92.70000004768372","1","1","1","2","0.8,0.2,0.2,0.2,0.8,0.2,0.2,0.2,0.8","0.2,0.8,0.2,0.2,0.2,0.8,0.8,0.2,0.2","3","",""
"","html-keyboard-response","77","30197","0.0-77.0","3PM8NZGV8Z27ZASLIPN4DC34Q6RXQQ","A50NVZ6AI91O","3WRBLBQ2GRU63BU2LFOJL1G32T90GO","","null","<img src=""img/land1.png"" style=""width:200px; border:14px solid green;"">","null","","","","","","","","","",""
"","image-keyboard-response","78","30260","0.0-78.0","3PM8NZGV8Z27ZASLIPN4DC34Q6RXQQ","A50NVZ6AI91O","3WRBLBQ2GRU63BU2LFOJL1G32T90GO","","60.30000019073486","img/land6.png","76","61.799999952316284","3","0","3","2","0.8,0.2,0.2,0.2,0.8,0.2,0.2,0.2,0.8","0.2,0.8,0.2,0.2,0.2,0.8,0.8,0.2,0.2","3","",""
"","html-keyboard-response","79","30562","0.0-79.0","3PM8NZGV8Z27ZASLIPN4DC34Q6RXQQ","A50NVZ6AI91O","3WRBLBQ2GRU63BU2LFOJL1G32T90GO","","null","<img src=""img/land6.png"" style=""width:200px;border:14px solid red;"">","null","","","","","","","","","",""
"","image-keyboard-response","80","30885","0.0-80.0","3PM8NZGV8Z27ZASLIPN4DC34Q6RXQQ","A50NVZ6AI91O","3WRBLBQ2GRU63BU2LFOJL1G32T90GO","","322.5","img/land3.png","74","323.30000019073486","1","0","2","2","0.8,0.2,0.2,0.2,0.8,0.2,0.2,0.2,0.8","0.2,0.8,0.2,0.2,0.2,0.8,0.8,0.2,0.2","3","",""
"","html-keyboard-response","81","31187","0.0-81.0","3PM8NZGV8Z27ZASLIPN4DC34Q6RXQQ","A50NVZ6AI91O","3WRBLBQ2GRU63BU2LFOJL1G32T90GO","","null","<img src=""img/land3.png"" style=""width:200px;border:14px solid red;"">","null","","","","","","","","","",""
"","image-keyboard-response","82","31342","0.0-82.0","3PM8NZGV8Z27ZASLIPN4DC34Q6RXQQ","A50NVZ6AI91O","3WRBLBQ2GRU63BU2LFOJL1G32T90GO","","153.70000004768372","img/land1.png","76","154.39999985694885","3","0","1","2","0.8,0.2,0.2,0.2,0.8,0.2,0.2,0.2,0.8","0.2,0.8,0.2,0.2,0.2,0.8,0.8,0.2,0.2","3","",""
"","html-keyboard-response","83","31643","0.0-83.0","3PM8NZGV8Z27ZASLIPN4DC34Q6RXQQ","A50NVZ6AI91O","3WRBLBQ2GRU63BU2LFOJL1G32T90GO","","null","<img src=""img/land1.png"" style=""width:200px;border:14px solid red;"">","null","","","","","","","","","",""
"","image-keyboard-response","84","31720","0.0-84.0","3PM8NZGV8Z27ZASLIPN4DC34Q6RXQQ","A50NVZ6AI91O","3WRBLBQ2GRU63BU2LFOJL1G32T90GO","","76.29999995231628","img/land1.png","75","76.90000009536743","2","1","1","2","0.8,0.2,0.2,0.2,0.8,0.2,0.2,0.2,0.8","0.2,0.8,0.2,0.2,0.2,0.8,0.8,0.2,0.2","3","",""
"","html-keyboard-response","85","32022","0.0-85.0","3PM8NZGV8Z27ZASLIPN4DC34Q6RXQQ","A50NVZ6AI91O","3WRBLBQ2GRU63BU2LFOJL1G32T90GO","","null","<img src=""img/land1.png"" style=""width:200px; border:14px solid green;"">","null","","","","","","","","","",""
"","image-keyboard-response","86","32120","0.0-86.0","3PM8NZGV8Z27ZASLIPN4DC34Q6RXQQ","A50NVZ6AI91O","3WRBLBQ2GRU63BU2LFOJL1G32T90GO","","96.5","img/land1.png","74","97.80000019073486","1","0","1","2","0.8,0.2,0.2,0.2,0.8,0.2,0.2,0.2,0.8","0.2,0.8,0.2,0.2,0.2,0.8,0.8,0.2,0.2","3","",""
"","html-keyboard-response","87","32422","0.0-87.0","3PM8NZGV8Z27ZASLIPN4DC34Q6RXQQ","A50NVZ6AI91O","3WRBLBQ2GRU63BU2LFOJL1G32T90GO","","null","<img src=""img/land1.png"" style=""width:200px;border:14px solid red;"">","null","","","","","","","","","",""
"","image-keyboard-response","88","32503","0.0-88.0","3PM8NZGV8Z27ZASLIPN4DC34Q6RXQQ","A50NVZ6AI91O","3WRBLBQ2GRU63BU2LFOJL1G32T90GO","","79.29999995231628","img/land3.png","75","80.70000004768372","2","0","2","2","0.8,0.2,0.2,0.2,0.8,0.2,0.2,0.2,0.8","0.2,0.8,0.2,0.2,0.2,0.8,0.8,0.2,0.2","3","",""
"","html-keyboard-response","89","32805","0.0-89.0","3PM8NZGV8Z27ZASLIPN4DC34Q6RXQQ","A50NVZ6AI91O","3WRBLBQ2GRU63BU2LFOJL1G32T90GO","","null","<img src=""img/land3.png"" style=""width:200px;border:14px solid red;"">","null","","","","","","","","","",""
"","image-keyboard-response","90","32961","0.0-90.0","3PM8NZGV8Z27ZASLIPN4DC34Q6RXQQ","A50NVZ6AI91O","3WRBLBQ2GRU63BU2LFOJL1G32T90GO","","153.59999990463257","img/land1.png","74","155.09999990463257","1","1","1","2","0.8,0.2,0.2,0.2,0.8,0.2,0.2,0.2,0.8","0.2,0.8,0.2,0.2,0.2,0.8,0.8,0.2,0.2","3","",""
"","html-keyboard-response","91","33263","0.0-91.0","3PM8NZGV8Z27ZASLIPN4DC34Q6RXQQ","A50NVZ6AI91O","3WRBLBQ2GRU63BU2LFOJL1G32T90GO","","null","<img src=""img/land1.png"" style=""width:200px; border:14px solid green;"">","null","","","","","","","","","",""
"","image-keyboard-response","92","33282","0.0-92.0","3PM8NZGV8Z27ZASLIPN4DC34Q6RXQQ","A50NVZ6AI91O","3WRBLBQ2GRU63BU2LFOJL1G32T90GO","","16.399999856948853","img/land1.png","76","17.700000047683716","3","0","1","2","0.8,0.2,0.2,0.2,0.8,0.2,0.2,0.2,0.8","0.2,0.8,0.2,0.2,0.2,0.8,0.8,0.2,0.2","3","",""
"","html-keyboard-response","93","33583","0.0-93.0","3PM8NZGV8Z27ZASLIPN4DC34Q6RXQQ","A50NVZ6AI91O","3WRBLBQ2GRU63BU2LFOJL1G32T90GO","","null","<img src=""img/land1.png"" style=""width:200px;border:14px solid red;"">","null","","","","","","","","","",""
"","image-keyboard-response","94","33684","0.0-94.0","3PM8NZGV8Z27ZASLIPN4DC34Q6RXQQ","A50NVZ6AI91O","3WRBLBQ2GRU63BU2LFOJL1G32T90GO","","98.39999985694885","img/land1.png","75","99.90000009536743","2","1","1","2","0.8,0.2,0.2,0.2,0.8,0.2,0.2,0.2,0.8","0.2,0.8,0.2,0.2,0.2,0.8,0.8,0.2,0.2","3","",""
"","html-keyboard-response","95","33987","0.0-95.0","3PM8NZGV8Z27ZASLIPN4DC34Q6RXQQ","A50NVZ6AI91O","3WRBLBQ2GRU63BU2LFOJL1G32T90GO","","null","<img src=""img/land1.png"" style=""width:200px; border:14px solid green;"">","null","","","","","","","","","",""
"","image-keyboard-response","96","34287","0.0-96.0","3PM8NZGV8Z27ZASLIPN4DC34Q6RXQQ","A50NVZ6AI91O","3WRBLBQ2GRU63BU2LFOJL1G32T90GO","","297.90000009536743","img/land1.png","76","299.5","3","0","1","2","0.8,0.2,0.2,0.2,0.8,0.2,0.2,0.2,0.8","0.2,0.8,0.2,0.2,0.2,0.8,0.8,0.2,0.2","3","",""
"","html-keyboard-response","97","34590","0.0-97.0","3PM8NZGV8Z27ZASLIPN4DC34Q6RXQQ","A50NVZ6AI91O","3WRBLBQ2GRU63BU2LFOJL1G32T90GO","","null","<img src=""img/land1.png"" style=""width:200px;border:14px solid red;"">","null","","","","","","","","","",""
"","image-keyboard-response","98","34606","0.0-98.0","3PM8NZGV8Z27ZASLIPN4DC34Q6RXQQ","A50NVZ6AI91O","3WRBLBQ2GRU63BU2LFOJL1G32T90GO","","14.400000095367432","img/land1.png","75","15.900000095367432","2","1","1","2","0.8,0.2,0.2,0.2,0.8,0.2,0.2,0.2,0.8","0.2,0.8,0.2,0.2,0.2,0.8,0.8,0.2,0.2","3","",""
"","html-keyboard-response","99","34909","0.0-99.0","3PM8NZGV8Z27ZASLIPN4DC34Q6RXQQ","A50NVZ6AI91O","3WRBLBQ2GRU63BU2LFOJL1G32T90GO","","null","<img src=""img/land1.png"" style=""width:200px; border:14px solid green;"">","null","","","","","","","","","",""
"","image-keyboard-response","100","35255","0.0-100.0","3PM8NZGV8Z27ZASLIPN4DC34Q6RXQQ","A50NVZ6AI91O","3WRBLBQ2GRU63BU2LFOJL1G32T90GO","","344.5","img/land1.png","76","346.2000000476837","3","0","1","2","0.8,0.2,0.2,0.2,0.8,0.2,0.2,0.2,0.8","0.2,0.8,0.2,0.2,0.2,0.8,0.8,0.2,0.2","3","",""
"","html-keyboard-response","101","35561","0.0-101.0","3PM8NZGV8Z27ZASLIPN4DC34Q6RXQQ","A50NVZ6AI91O","3WRBLBQ2GRU63BU2LFOJL1G32T90GO","","null","<img src=""img/land1.png"" style=""width:200px;border:14px solid red;"">","null","","","","","","","","","",""
"","image-keyboard-response","102","35643","0.0-102.0","3PM8NZGV8Z27ZASLIPN4DC34Q6RXQQ","A50NVZ6AI91O","3WRBLBQ2GRU63BU2LFOJL1G32T90GO","","80.29999995231628","img/land3.png","75","81.89999985694885","2","0","2","2","0.8,0.2,0.2,0.2,0.8,0.2,0.2,0.2,0.8","0.2,0.8,0.2,0.2,0.2,0.8,0.8,0.2,0.2","3","",""
"","html-keyboard-response","103","35946","0.0-103.0","3PM8NZGV8Z27ZASLIPN4DC34Q6RXQQ","A50NVZ6AI91O","3WRBLBQ2GRU63BU2LFOJL1G32T90GO","","null","<img src=""img/land3.png"" style=""width:200px;border:14px solid red;"">","null","","","","","","","","","",""
"","image-keyboard-response","104","36413","0.0-104.0","3PM8NZGV8Z27ZASLIPN4DC34Q6RXQQ","A50NVZ6AI91O","3WRBLBQ2GRU63BU2LFOJL1G32T90GO","","465","img/land1.png","76","466.7000000476837","3","0","1","2","0.8,0.2,0.2,0.2,0.8,0.2,0.2,0.2,0.8","0.2,0.8,0.2,0.2,0.2,0.8,0.8,0.2,0.2","3","",""
"","html-keyboard-response","105","36716","0.0-105.0","3PM8NZGV8Z27ZASLIPN4DC34Q6RXQQ","A50NVZ6AI91O","3WRBLBQ2GRU63BU2LFOJL1G32T90GO","","null","<img src=""img/land1.png"" style=""width:200px;border:14px solid red;"">","null","","","","","","","","","",""
"","image-keyboard-response","106","36804","0.0-106.0","3PM8NZGV8Z27ZASLIPN4DC34Q6RXQQ","A50NVZ6AI91O","3WRBLBQ2GRU63BU2LFOJL1G32T90GO","","85.90000009536743","img/land6.png","75","87.40000009536743","2","0","3","2","0.8,0.2,0.2,0.2,0.8,0.2,0.2,0.2,0.8","0.2,0.8,0.2,0.2,0.2,0.8,0.8,0.2,0.2","3","",""
"","html-keyboard-response","107","37107","0.0-107.0","3PM8NZGV8Z27ZASLIPN4DC34Q6RXQQ","A50NVZ6AI91O","3WRBLBQ2GRU63BU2LFOJL1G32T90GO","","null","<img src=""img/land6.png"" style=""width:200px;border:14px solid red;"">","null","","","","","","","","","",""
"","image-keyboard-response","108","37630","0.0-108.0","3PM8NZGV8Z27ZASLIPN4DC34Q6RXQQ","A50NVZ6AI91O","3WRBLBQ2GRU63BU2LFOJL1G32T90GO","","520.0999999046326","img/land6.png","76","521.7999999523163","3","0","3","2","0.8,0.2,0.2,0.2,0.8,0.2,0.2,0.2,0.8","0.2,0.8,0.2,0.2,0.2,0.8,0.8,0.2,0.2","3","",""
"","html-keyboard-response","109","37933","0.0-109.0","3PM8NZGV8Z27ZASLIPN4DC34Q6RXQQ","A50NVZ6AI91O","3WRBLBQ2GRU63BU2LFOJL1G32T90GO","","null","<img src=""img/land6.png"" style=""width:200px;border:14px solid red;"">","null","","","","","","","","","",""
"","image-keyboard-response","110","38031","0.0-110.0","3PM8NZGV8Z27ZASLIPN4DC34Q6RXQQ","A50NVZ6AI91O","3WRBLBQ2GRU63BU2LFOJL1G32T90GO","","96.30000019073486","img/land6.png","75","97.90000009536743","2","0","3","2","0.8,0.2,0.2,0.2,0.8,0.2,0.2,0.2,0.8","0.2,0.8,0.2,0.2,0.2,0.8,0.8,0.2,0.2","3","",""
"","html-keyboard-response","111","38334","0.0-111.0","3PM8NZGV8Z27ZASLIPN4DC34Q6RXQQ","A50NVZ6AI91O","3WRBLBQ2GRU63BU2LFOJL1G32T90GO","","null","<img src=""img/land6.png"" style=""width:200px;border:14px solid red;"">","null","","","","","","","","","",""
"","image-keyboard-response","112","38397","0.0-112.0","3PM8NZGV8Z27ZASLIPN4DC34Q6RXQQ","A50NVZ6AI91O","3WRBLBQ2GRU63BU2LFOJL1G32T90GO","","62.200000047683716","img/land3.png","74","63.200000047683716","1","0","2","2","0.8,0.2,0.2,0.2,0.8,0.2,0.2,0.2,0.8","0.2,0.8,0.2,0.2,0.2,0.8,0.8,0.2,0.2","3","",""
"","html-keyboard-response","113","38700","0.0-113.0","3PM8NZGV8Z27ZASLIPN4DC34Q6RXQQ","A50NVZ6AI91O","3WRBLBQ2GRU63BU2LFOJL1G32T90GO","","null","<img src=""img/land3.png"" style=""width:200px;border:14px solid red;"">","null","","","","","","","","","",""
"","image-keyboard-response","114","38994","0.0-114.0","3PM8NZGV8Z27ZASLIPN4DC34Q6RXQQ","A50NVZ6AI91O","3WRBLBQ2GRU63BU2LFOJL1G32T90GO","","291.2999999523163","img/land6.png","76","293.10000014305115","3","0","3","2","0.8,0.2,0.2,0.2,0.8,0.2,0.2,0.2,0.8","0.2,0.8,0.2,0.2,0.2,0.8,0.8,0.2,0.2","3","",""
"","html-keyboard-response","115","39296","0.0-115.0","3PM8NZGV8Z27ZASLIPN4DC34Q6RXQQ","A50NVZ6AI91O","3WRBLBQ2GRU63BU2LFOJL1G32T90GO","","null","<img src=""img/land6.png"" style=""width:200px;border:14px solid red;"">","null","","","","","","","","","",""
"","image-keyboard-response","116","39466","0.0-116.0","3PM8NZGV8Z27ZASLIPN4DC34Q6RXQQ","A50NVZ6AI91O","3WRBLBQ2GRU63BU2LFOJL1G32T90GO","","167.90000009536743","img/land1.png","75","169.5","2","1","1","2","0.8,0.2,0.2,0.2,0.8,0.2,0.2,0.2,0.8","0.2,0.8,0.2,0.2,0.2,0.8,0.8,0.2,0.2","3","",""
"","html-keyboard-response","117","39776","0.0-117.0","3PM8NZGV8Z27ZASLIPN4DC34Q6RXQQ","A50NVZ6AI91O","3WRBLBQ2GRU63BU2LFOJL1G32T90GO","","null","<img src=""img/land1.png"" style=""width:200px; border:14px solid green;"">","null","","","","","","","","","",""
"","image-keyboard-response","118","39816","0.0-118.0","3PM8NZGV8Z27ZASLIPN4DC34Q6RXQQ","A50NVZ6AI91O","3WRBLBQ2GRU63BU2LFOJL1G32T90GO","","37.89999985694885","img/land1.png","74","39.90000009536743","1","0","1","2","0.8,0.2,0.2,0.2,0.8,0.2,0.2,0.2,0.8","0.2,0.8,0.2,0.2,0.2,0.8,0.8,0.2,0.2","3","",""
"","html-keyboard-response","119","40118","0.0-119.0","3PM8NZGV8Z27ZASLIPN4DC34Q6RXQQ","A50NVZ6AI91O","3WRBLBQ2GRU63BU2LFOJL1G32T90GO","","null","<img src=""img/land1.png"" style=""width:200px;border:14px solid red;"">","null","","","","","","","","","",""
"","image-keyboard-response","120","40345","0.0-120.0","3PM8NZGV8Z27ZASLIPN4DC34Q6RXQQ","A50NVZ6AI91O","3WRBLBQ2GRU63BU2LFOJL1G32T90GO","","223.90000009536743","img/land1.png","76","225.69999980926514","3","0","1","2","0.8,0.2,0.2,0.2,0.8,0.2,0.2,0.2,0.8","0.2,0.8,0.2,0.2,0.2,0.8,0.8,0.2,0.2","3","",""
"","html-keyboard-response","121","40647","0.0-121.0","3PM8NZGV8Z27ZASLIPN4DC34Q6RXQQ","A50NVZ6AI91O","3WRBLBQ2GRU63BU2LFOJL1G32T90GO","","null","<img src=""img/land1.png"" style=""width:200px;border:14px solid red;"">","null","","","","","","","","","",""
"","image-keyboard-response","122","40724","0.0-122.0","3PM8NZGV8Z27ZASLIPN4DC34Q6RXQQ","A50NVZ6AI91O","3WRBLBQ2GRU63BU2LFOJL1G32T90GO","","74.20000004768372","img/land3.png","75","76.10000014305115","2","0","2","2","0.8,0.2,0.2,0.2,0.8,0.2,0.2,0.2,0.8","0.2,0.8,0.2,0.2,0.2,0.8,0.8,0.2,0.2","3","",""
"","html-keyboard-response","123","41027","0.0-123.0","3PM8NZGV8Z27ZASLIPN4DC34Q6RXQQ","A50NVZ6AI91O","3WRBLBQ2GRU63BU2LFOJL1G32T90GO","","null","<img src=""img/land3.png"" style=""width:200px;border:14px solid red;"">","null","","","","","","","","","",""
"","image-keyboard-response","124","41060","0.0-124.0","3PM8NZGV8Z27ZASLIPN4DC34Q6RXQQ","A50NVZ6AI91O","3WRBLBQ2GRU63BU2LFOJL1G32T90GO","","31.59999990463257","img/land1.png","74","33.200000047683716","1","1","1","2","0.8,0.2,0.2,0.2,0.8,0.2,0.2,0.2,0.8","0.2,0.8,0.2,0.2,0.2,0.8,0.8,0.2,0.2","3","",""
"","html-keyboard-response","125","41361","0.0-125.0","3PM8NZGV8Z27ZASLIPN4DC34Q6RXQQ","A50NVZ6AI91O","3WRBLBQ2GRU63BU2LFOJL1G32T90GO","","null","<img src=""img/land1.png"" style=""width:200px; border:14px solid green;"">","null","","","","","","","","","",""
"","image-keyboard-response","126","41536","0.0-126.0","3PM8NZGV8Z27ZASLIPN4DC34Q6RXQQ","A50NVZ6AI91O","3WRBLBQ2GRU63BU2LFOJL1G32T90GO","","173.30000019073486","img/land1.png","76","174.5","3","1","1","2","0.8,0.2,0.2,0.2,0.8,0.2,0.2,0.2,0.8","0.2,0.8,0.2,0.2,0.2,0.8,0.8,0.2,0.2","3","",""
"","html-keyboard-response","127","41839","0.0-127.0","3PM8NZGV8Z27ZASLIPN4DC34Q6RXQQ","A50NVZ6AI91O","3WRBLBQ2GRU63BU2LFOJL1G32T90GO","","null","<img src=""img/land1.png"" style=""width:200px; border:14px solid green;"">","null","","","","","","","","","",""
"","image-keyboard-response","128","41864","0.0-128.0","3PM8NZGV8Z27ZASLIPN4DC34Q6RXQQ","A50NVZ6AI91O","3WRBLBQ2GRU63BU2LFOJL1G32T90GO","","22.90000009536743","img/land1.png","75","24.5","2","0","1","2","0.8,0.2,0.2,0.2,0.8,0.2,0.2,0.2,0.8","0.2,0.8,0.2,0.2,0.2,0.8,0.8,0.2,0.2","3","",""
"","html-keyboard-response","129","42167","0.0-129.0","3PM8NZGV8Z27ZASLIPN4DC34Q6RXQQ","A50NVZ6AI91O","3WRBLBQ2GRU63BU2LFOJL1G32T90GO","","null","<img src=""img/land1.png"" style=""width:200px;border:14px solid red;"">","null","","","","","","","","","",""
"","image-keyboard-response","130","42351","0.0-130.0","3PM8NZGV8Z27ZASLIPN4DC34Q6RXQQ","A50NVZ6AI91O","3WRBLBQ2GRU63BU2LFOJL1G32T90GO","","182.19999980926514","img/land3.png","74","183.90000009536743","1","0","2","2","0.8,0.2,0.2,0.2,0.8,0.2,0.2,0.2,0.8","0.2,0.8,0.2,0.2,0.2,0.8,0.8,0.2,0.2","3","",""
"","html-keyboard-response","131","42653","0.0-131.0","3PM8NZGV8Z27ZASLIPN4DC34Q6RXQQ","A50NVZ6AI91O","3WRBLBQ2GRU63BU2LFOJL1G32T90GO","","null","<img src=""img/land3.png"" style=""width:200px;border:14px solid red;"">","null","","","","","","","","","",""
"","image-keyboard-response","132","42805","0.0-132.0","3PM8NZGV8Z27ZASLIPN4DC34Q6RXQQ","A50NVZ6AI91O","3WRBLBQ2GRU63BU2LFOJL1G32T90GO","","150.70000004768372","img/land1.png","76","152","3","1","1","2","0.8,0.2,0.2,0.2,0.8,0.2,0.2,0.2,0.8","0.2,0.8,0.2,0.2,0.2,0.8,0.8,0.2,0.2","3","",""
"","html-keyboard-response","133","43107","0.0-133.0","3PM8NZGV8Z27ZASLIPN4DC34Q6RXQQ","A50NVZ6AI91O","3WRBLBQ2GRU63BU2LFOJL1G32T90GO","","null","<img src=""img/land1.png"" style=""width:200px; border:14px solid green;"">","null","","","","","","","","","",""
"","image-keyboard-response","134","43206","0.0-134.0","3PM8NZGV8Z27ZASLIPN4DC34Q6RXQQ","A50NVZ6AI91O","3WRBLBQ2GRU63BU2LFOJL1G32T90GO","","96.39999985694885","img/land1.png","75","98.09999990463257","2","0","1","2","0.8,0.2,0.2,0.2,0.8,0.2,0.2,0.2,0.8","0.2,0.8,0.2,0.2,0.2,0.8,0.8,0.2,0.2","3","",""
"","html-keyboard-response","135","43508","0.0-135.0","3PM8NZGV8Z27ZASLIPN4DC34Q6RXQQ","A50NVZ6AI91O","3WRBLBQ2GRU63BU2LFOJL1G32T90GO","","null","<img src=""img/land1.png"" style=""width:200px;border:14px solid red;"">","null","","","","","","","","","",""
"","image-keyboard-response","136","43654","0.0-136.0","3PM8NZGV8Z27ZASLIPN4DC34Q6RXQQ","A50NVZ6AI91O","3WRBLBQ2GRU63BU2LFOJL1G32T90GO","","143.09999990463257","img/land3.png","74","145.09999990463257","1","0","2","2","0.8,0.2,0.2,0.2,0.8,0.2,0.2,0.2,0.8","0.2,0.8,0.2,0.2,0.2,0.8,0.8,0.2,0.2","3","",""
"","html-keyboard-response","137","43966","0.0-137.0","3PM8NZGV8Z27ZASLIPN4DC34Q6RXQQ","A50NVZ6AI91O","3WRBLBQ2GRU63BU2LFOJL1G32T90GO","","null","<img src=""img/land3.png"" style=""width:200px;border:14px solid red;"">","null","","","","","","","","","",""
"","image-keyboard-response","138","44162","0.0-138.0","3PM8NZGV8Z27ZASLIPN4DC34Q6RXQQ","A50NVZ6AI91O","3WRBLBQ2GRU63BU2LFOJL1G32T90GO","","193.69999980926514","img/land6.png","76","195.29999995231628","3","0","3","2","0.8,0.2,0.2,0.2,0.8,0.2,0.2,0.2,0.8","0.2,0.8,0.2,0.2,0.2,0.8,0.8,0.2,0.2","3","",""
"","html-keyboard-response","139","44465","0.0-139.0","3PM8NZGV8Z27ZASLIPN4DC34Q6RXQQ","A50NVZ6AI91O","3WRBLBQ2GRU63BU2LFOJL1G32T90GO","","null","<img src=""img/land6.png"" style=""width:200px;border:14px solid red;"">","null","","","","","","","","","",""
"","image-keyboard-response","140","44719","0.0-140.0","3PM8NZGV8Z27ZASLIPN4DC34Q6RXQQ","A50NVZ6AI91O","3WRBLBQ2GRU63BU2LFOJL1G32T90GO","","252.29999995231628","img/land6.png","74","253.79999995231628","1","1","3","2","0.8,0.2,0.2,0.2,0.8,0.2,0.2,0.2,0.8","0.2,0.8,0.2,0.2,0.2,0.8,0.8,0.2,0.2","3","",""
"","html-keyboard-response","141","45022","0.0-141.0","3PM8NZGV8Z27ZASLIPN4DC34Q6RXQQ","A50NVZ6AI91O","3WRBLBQ2GRU63BU2LFOJL1G32T90GO","","null","<img src=""img/land6.png"" style=""width:200px; border:14px solid green;"">","null","","","","","","","","","",""
"","image-keyboard-response","142","45489","0.0-142.0","3PM8NZGV8Z27ZASLIPN4DC34Q6RXQQ","A50NVZ6AI91O","3WRBLBQ2GRU63BU2LFOJL1G32T90GO","","465.40000009536743","img/land6.png","76","467.2000000476837","3","1","3","2","0.8,0.2,0.2,0.2,0.8,0.2,0.2,0.2,0.8","0.2,0.8,0.2,0.2,0.2,0.8,0.8,0.2,0.2","3","",""
"","html-keyboard-response","143","45792","0.0-143.0","3PM8NZGV8Z27ZASLIPN4DC34Q6RXQQ","A50NVZ6AI91O","3WRBLBQ2GRU63BU2LFOJL1G32T90GO","","null","<img src=""img/land6.png"" style=""width:200px; border:14px solid green;"">","null","","","","","","","","","",""
"","image-keyboard-response","144","46106","0.0-144.0","3PM8NZGV8Z27ZASLIPN4DC34Q6RXQQ","A50NVZ6AI91O","3WRBLBQ2GRU63BU2LFOJL1G32T90GO","","311.7999999523163","img/land1.png","74","313.5","1","0","1","2","0.8,0.2,0.2,0.2,0.8,0.2,0.2,0.2,0.8","0.2,0.8,0.2,0.2,0.2,0.8,0.8,0.2,0.2","3","",""
"","html-keyboard-response","145","46409","0.0-145.0","3PM8NZGV8Z27ZASLIPN4DC34Q6RXQQ","A50NVZ6AI91O","3WRBLBQ2GRU63BU2LFOJL1G32T90GO","","null","<img src=""img/land1.png"" style=""width:200px;border:14px solid red;"">","null","","","","","","","","","",""
"","image-keyboard-response","146","46865","0.0-146.0","3PM8NZGV8Z27ZASLIPN4DC34Q6RXQQ","A50NVZ6AI91O","3WRBLBQ2GRU63BU2LFOJL1G32T90GO","","453.7000000476837","img/land1.png","76","455.60000014305115","3","0","1","2","0.8,0.2,0.2,0.2,0.8,0.2,0.2,0.2,0.8","0.2,0.8,0.2,0.2,0.2,0.8,0.8,0.2,0.2","3","",""
"","html-keyboard-response","147","47168","0.0-147.0","3PM8NZGV8Z27ZASLIPN4DC34Q6RXQQ","A50NVZ6AI91O","3WRBLBQ2GRU63BU2LFOJL1G32T90GO","","null","<img src=""img/land1.png"" style=""width:200px;border:14px solid red;"">","null","","","","","","","","","",""
"","image-keyboard-response","148","47480","0.0-148.0","3PM8NZGV8Z27ZASLIPN4DC34Q6RXQQ","A50NVZ6AI91O","3WRBLBQ2GRU63BU2LFOJL1G32T90GO","","310.09999990463257","img/land1.png","75","311.7999999523163","2","1","1","2","0.8,0.2,0.2,0.2,0.8,0.2,0.2,0.2,0.8","0.2,0.8,0.2,0.2,0.2,0.8,0.8,0.2,0.2","3","",""
"","html-keyboard-response","149","47784","0.0-149.0","3PM8NZGV8Z27ZASLIPN4DC34Q6RXQQ","A50NVZ6AI91O","3WRBLBQ2GRU63BU2LFOJL1G32T90GO","","null","<img src=""img/land1.png"" style=""width:200px; border:14px solid green;"">","null","","","","","","","","","",""
"","image-keyboard-response","150","48036","0.0-150.0","3PM8NZGV8Z27ZASLIPN4DC34Q6RXQQ","A50NVZ6AI91O","3WRBLBQ2GRU63BU2LFOJL1G32T90GO","","250.10000014305115","img/land3.png","74","251.79999995231628","1","0","2","2","0.8,0.2,0.2,0.2,0.8,0.2,0.2,0.2,0.8","0.2,0.8,0.2,0.2,0.2,0.8,0.8,0.2,0.2","3","",""
"","html-keyboard-response","151","48339","0.0-151.0","3PM8NZGV8Z27ZASLIPN4DC34Q6RXQQ","A50NVZ6AI91O","3WRBLBQ2GRU63BU2LFOJL1G32T90GO","","null","<img src=""img/land3.png"" style=""width:200px;border:14px solid red;"">","null","","","","","","","","","",""
"","image-keyboard-response","152","48836","0.0-152.0","3PM8NZGV8Z27ZASLIPN4DC34Q6RXQQ","A50NVZ6AI91O","3WRBLBQ2GRU63BU2LFOJL1G32T90GO","","494","img/land6.png","74","495.89999985694885","1","1","3","2","0.8,0.2,0.2,0.2,0.8,0.2,0.2,0.2,0.8","0.2,0.8,0.2,0.2,0.2,0.8,0.8,0.2,0.2","3","",""
"","html-keyboard-response","153","49138","0.0-153.0","3PM8NZGV8Z27ZASLIPN4DC34Q6RXQQ","A50NVZ6AI91O","3WRBLBQ2GRU63BU2LFOJL1G32T90GO","","null","<img src=""img/land6.png"" style=""width:200px; border:14px solid green;"">","null","","","","","","","","","",""
"","image-keyboard-response","154","49535","0.0-154.0","3PM8NZGV8Z27ZASLIPN4DC34Q6RXQQ","A50NVZ6AI91O","3WRBLBQ2GRU63BU2LFOJL1G32T90GO","","394.30000019073486","img/land1.png","76","396.2999999523163","3","0","1","2","0.8,0.2,0.2,0.2,0.8,0.2,0.2,0.2,0.8","0.2,0.8,0.2,0.2,0.2,0.8,0.8,0.2,0.2","3","",""
"","html-keyboard-response","155","49838","0.0-155.0","3PM8NZGV8Z27ZASLIPN4DC34Q6RXQQ","A50NVZ6AI91O","3WRBLBQ2GRU63BU2LFOJL1G32T90GO","","null","<img src=""img/land1.png"" style=""width:200px;border:14px solid red;"">","null","","","","","","","","","",""
"","image-keyboard-response","156","50321","0.0-156.0","3PM8NZGV8Z27ZASLIPN4DC34Q6RXQQ","A50NVZ6AI91O","3WRBLBQ2GRU63BU2LFOJL1G32T90GO","","481.19999980926514","img/land6.png","76","482.40000009536743","3","0","3","2","0.8,0.2,0.2,0.2,0.8,0.2,0.2,0.2,0.8","0.2,0.8,0.2,0.2,0.2,0.8,0.8,0.2,0.2","3","",""
"","html-keyboard-response","157","50623","0.0-157.0","3PM8NZGV8Z27ZASLIPN4DC34Q6RXQQ","A50NVZ6AI91O","3WRBLBQ2GRU63BU2LFOJL1G32T90GO","","null","<img src=""img/land6.png"" style=""width:200px;border:14px solid red;"">","null","","","","","","","","","",""
"","image-keyboard-response","158","51057","0.0-158.0","3PM8NZGV8Z27ZASLIPN4DC34Q6RXQQ","A50NVZ6AI91O","3WRBLBQ2GRU63BU2LFOJL1G32T90GO","","431.60000014305115","img/land1.png","75","433.5","2","1","1","2","0.8,0.2,0.2,0.2,0.8,0.2,0.2,0.2,0.8","0.2,0.8,0.2,0.2,0.2,0.8,0.8,0.2,0.2","3","",""
"","html-keyboard-response","159","51360","0.0-159.0","3PM8NZGV8Z27ZASLIPN4DC34Q6RXQQ","A50NVZ6AI91O","3WRBLBQ2GRU63BU2LFOJL1G32T90GO","","null","<img src=""img/land1.png"" style=""width:200px; border:14px solid green;"">","null","","","","","","","","","",""
"","image-keyboard-response","160","51909","0.0-160.0","3PM8NZGV8Z27ZASLIPN4DC34Q6RXQQ","A50NVZ6AI91O","3WRBLBQ2GRU63BU2LFOJL1G32T90GO","","546.6999998092651","img/land1.png","74","548.5","1","0","1","2","0.8,0.2,0.2,0.2,0.8,0.2,0.2,0.2,0.8","0.2,0.8,0.2,0.2,0.2,0.8,0.8,0.2,0.2","3","",""
"","html-keyboard-response","161","52212","0.0-161.0","3PM8NZGV8Z27ZASLIPN4DC34Q6RXQQ","A50NVZ6AI91O","3WRBLBQ2GRU63BU2LFOJL1G32T90GO","","null","<img src=""img/land1.png"" style=""width:200px;border:14px solid red;"">","null","","","","","","","","","",""
"","image-keyboard-response","162","52634","0.0-162.0","3PM8NZGV8Z27ZASLIPN4DC34Q6RXQQ","A50NVZ6AI91O","3WRBLBQ2GRU63BU2LFOJL1G32T90GO","","419.7999999523163","img/land3.png","76","421.40000009536743","3","0","2","2","0.8,0.2,0.2,0.2,0.8,0.2,0.2,0.2,0.8","0.2,0.8,0.2,0.2,0.2,0.8,0.8,0.2,0.2","3","",""
"","html-keyboard-response","163","52936","0.0-163.0","3PM8NZGV8Z27ZASLIPN4DC34Q6RXQQ","A50NVZ6AI91O","3WRBLBQ2GRU63BU2LFOJL1G32T90GO","","null","<img src=""img/land3.png"" style=""width:200px;border:14px solid red;"">","null","","","","","","","","","",""
"","image-keyboard-response","164","53675","0.0-164.0","3PM8NZGV8Z27ZASLIPN4DC34Q6RXQQ","A50NVZ6AI91O","3WRBLBQ2GRU63BU2LFOJL1G32T90GO","","736.2999999523163","img/land1.png","75","738.0999999046326","2","1","1","2","0.8,0.2,0.2,0.2,0.8,0.2,0.2,0.2,0.8","0.2,0.8,0.2,0.2,0.2,0.8,0.8,0.2,0.2","3","",""
"","html-keyboard-response","165","53978","0.0-165.0","3PM8NZGV8Z27ZASLIPN4DC34Q6RXQQ","A50NVZ6AI91O","3WRBLBQ2GRU63BU2LFOJL1G32T90GO","","null","<img src=""img/land1.png"" style=""width:200px; border:14px solid green;"">","null","","","","","","","","","",""
"","image-keyboard-response","166","54647","0.0-166.0","3PM8NZGV8Z27ZASLIPN4DC34Q6RXQQ","A50NVZ6AI91O","3WRBLBQ2GRU63BU2LFOJL1G32T90GO","","668.2999999523163","img/land1.png","74","669.1999998092651","1","0","1","2","0.8,0.2,0.2,0.2,0.8,0.2,0.2,0.2,0.8","0.2,0.8,0.2,0.2,0.2,0.8,0.8,0.2,0.2","3","",""
"","html-keyboard-response","167","54950","0.0-167.0","3PM8NZGV8Z27ZASLIPN4DC34Q6RXQQ","A50NVZ6AI91O","3WRBLBQ2GRU63BU2LFOJL1G32T90GO","","null","<img src=""img/land1.png"" style=""width:200px;border:14px solid red;"">","null","","","","","","","","","",""
"","image-keyboard-response","168","55441","0.0-168.0","3PM8NZGV8Z27ZASLIPN4DC34Q6RXQQ","A50NVZ6AI91O","3WRBLBQ2GRU63BU2LFOJL1G32T90GO","","489.80000019073486","img/land3.png","76","490.90000009536743","3","1","2","2","0.8,0.2,0.2,0.2,0.8,0.2,0.2,0.2,0.8","0.2,0.8,0.2,0.2,0.2,0.8,0.8,0.2,0.2","3","",""
"","html-keyboard-response","169","55744","0.0-169.0","3PM8NZGV8Z27ZASLIPN4DC34Q6RXQQ","A50NVZ6AI91O","3WRBLBQ2GRU63BU2LFOJL1G32T90GO","","null","<img src=""img/land3.png"" style=""width:200px; border:14px solid green;"">","null","","","","","","","","","",""
"","image-keyboard-response","170","56226","0.0-170.0","3PM8NZGV8Z27ZASLIPN4DC34Q6RXQQ","A50NVZ6AI91O","3WRBLBQ2GRU63BU2LFOJL1G32T90GO","","479.7999999523163","img/land1.png","75","481.59999990463257","2","1","1","2","0.8,0.2,0.2,0.2,0.8,0.2,0.2,0.2,0.8","0.2,0.8,0.2,0.2,0.2,0.8,0.8,0.2,0.2","3","",""
"","html-keyboard-response","171","56529","0.0-171.0","3PM8NZGV8Z27ZASLIPN4DC34Q6RXQQ","A50NVZ6AI91O","3WRBLBQ2GRU63BU2LFOJL1G32T90GO","","null","<img src=""img/land1.png"" style=""width:200px; border:14px solid green;"">","null","","","","","","","","","",""
"","image-keyboard-response","172","57149","0.0-172.0","3PM8NZGV8Z27ZASLIPN4DC34Q6RXQQ","A50NVZ6AI91O","3WRBLBQ2GRU63BU2LFOJL1G32T90GO","","617.0999999046326","img/land3.png","74","618.7999999523163","1","1","2","2","0.8,0.2,0.2,0.2,0.8,0.2,0.2,0.2,0.8","0.2,0.8,0.2,0.2,0.2,0.8,0.8,0.2,0.2","3","",""
"","html-keyboard-response","173","57452","0.0-173.0","3PM8NZGV8Z27ZASLIPN4DC34Q6RXQQ","A50NVZ6AI91O","3WRBLBQ2GRU63BU2LFOJL1G32T90GO","","null","<img src=""img/land3.png"" style=""width:200px; border:14px solid green;"">","null","","","","","","","","","",""
"","image-keyboard-response","174","58557","0.0-174.0","3PM8NZGV8Z27ZASLIPN4DC34Q6RXQQ","A50NVZ6AI91O","3WRBLBQ2GRU63BU2LFOJL1G32T90GO","","1102.9000000953674","img/land1.png","76","1104.8999998569489","3","0","1","2","0.8,0.2,0.2,0.2,0.8,0.2,0.2,0.2,0.8","0.2,0.8,0.2,0.2,0.2,0.8,0.8,0.2,0.2","3","",""
"","html-keyboard-response","175","58861","0.0-175.0","3PM8NZGV8Z27ZASLIPN4DC34Q6RXQQ","A50NVZ6AI91O","3WRBLBQ2GRU63BU2LFOJL1G32T90GO","","null","<img src=""img/land1.png"" style=""width:200px;border:14px solid red;"">","null","","","","","","","","","",""
"","image-keyboard-response","176","59370","0.0-176.0","3PM8NZGV8Z27ZASLIPN4DC34Q6RXQQ","A50NVZ6AI91O","3WRBLBQ2GRU63BU2LFOJL1G32T90GO","","506.60000014305115","img/land1.png","75","508.80000019073486","2","1","1","2","0.8,0.2,0.2,0.2,0.8,0.2,0.2,0.2,0.8","0.2,0.8,0.2,0.2,0.2,0.8,0.8,0.2,0.2","3","",""
"","html-keyboard-response","177","59673","0.0-177.0","3PM8NZGV8Z27ZASLIPN4DC34Q6RXQQ","A50NVZ6AI91O","3WRBLBQ2GRU63BU2LFOJL1G32T90GO","","null","<img src=""img/land1.png"" style=""width:200px; border:14px solid green;"">","null","","","","","","","","","",""
"","image-keyboard-response","178","60008","0.0-178.0","3PM8NZGV8Z27ZASLIPN4DC34Q6RXQQ","A50NVZ6AI91O","3WRBLBQ2GRU63BU2LFOJL1G32T90GO","","332.7999999523163","img/land1.png","74","334.7000000476837","1","0","1","2","0.8,0.2,0.2,0.2,0.8,0.2,0.2,0.2,0.8","0.2,0.8,0.2,0.2,0.2,0.8,0.8,0.2,0.2","3","",""
"","html-keyboard-response","179","60312","0.0-179.0","3PM8NZGV8Z27ZASLIPN4DC34Q6RXQQ","A50NVZ6AI91O","3WRBLBQ2GRU63BU2LFOJL1G32T90GO","","null","<img src=""img/land1.png"" style=""width:200px;border:14px solid red;"">","null","","","","","","","","","",""
"","image-keyboard-response","180","60579","0.0-180.0","3PM8NZGV8Z27ZASLIPN4DC34Q6RXQQ","A50NVZ6AI91O","3WRBLBQ2GRU63BU2LFOJL1G32T90GO","","264.60000014305115","img/land3.png","76","266.59999990463257","3","1","2","2","0.8,0.2,0.2,0.2,0.8,0.2,0.2,0.2,0.8","0.2,0.8,0.2,0.2,0.2,0.8,0.8,0.2,0.2","3","",""
"","html-keyboard-response","181","60882","0.0-181.0","3PM8NZGV8Z27ZASLIPN4DC34Q6RXQQ","A50NVZ6AI91O","3WRBLBQ2GRU63BU2LFOJL1G32T90GO","","null","<img src=""img/land3.png"" style=""width:200px; border:14px solid green;"">","null","","","","","","","","","",""
"","image-keyboard-response","182","61143","0.0-182.0","3PM8NZGV8Z27ZASLIPN4DC34Q6RXQQ","A50NVZ6AI91O","3WRBLBQ2GRU63BU2LFOJL1G32T90GO","","258.59999990463257","img/land6.png","75","260.40000009536743","2","0","3","2","0.8,0.2,0.2,0.2,0.8,0.2,0.2,0.2,0.8","0.2,0.8,0.2,0.2,0.2,0.8,0.8,0.2,0.2","3","",""
"","html-keyboard-response","183","61446","0.0-183.0","3PM8NZGV8Z27ZASLIPN4DC34Q6RXQQ","A50NVZ6AI91O","3WRBLBQ2GRU63BU2LFOJL1G32T90GO","","null","<img src=""img/land6.png"" style=""width:200px;border:14px solid red;"">","null","","","","","","","","","",""
"","image-keyboard-response","184","61751","0.0-184.0","3PM8NZGV8Z27ZASLIPN4DC34Q6RXQQ","A50NVZ6AI91O","3WRBLBQ2GRU63BU2LFOJL1G32T90GO","","304.5","img/land3.png","74","305.09999990463257","1","0","2","2","0.8,0.2,0.2,0.2,0.8,0.2,0.2,0.2,0.8","0.2,0.8,0.2,0.2,0.2,0.8,0.8,0.2,0.2","3","",""
"","html-keyboard-response","185","62053","0.0-185.0","3PM8NZGV8Z27ZASLIPN4DC34Q6RXQQ","A50NVZ6AI91O","3WRBLBQ2GRU63BU2LFOJL1G32T90GO","","null","<img src=""img/land3.png"" style=""width:200px;border:14px solid red;"">","null","","","","","","","","","",""
"","image-keyboard-response","186","62464","0.0-186.0","3PM8NZGV8Z27ZASLIPN4DC34Q6RXQQ","A50NVZ6AI91O","3WRBLBQ2GRU63BU2LFOJL1G32T90GO","","409.2999999523163","img/land1.png","76","411","3","1","1","2","0.8,0.2,0.2,0.2,0.8,0.2,0.2,0.2,0.8","0.2,0.8,0.2,0.2,0.2,0.8,0.8,0.2,0.2","3","",""
"","html-keyboard-response","187","62767","0.0-187.0","3PM8NZGV8Z27ZASLIPN4DC34Q6RXQQ","A50NVZ6AI91O","3WRBLBQ2GRU63BU2LFOJL1G32T90GO","","null","<img src=""img/land1.png"" style=""width:200px; border:14px solid green;"">","null","","","","","","","","","",""
"","image-keyboard-response","188","63129","0.0-188.0","3PM8NZGV8Z27ZASLIPN4DC34Q6RXQQ","A50NVZ6AI91O","3WRBLBQ2GRU63BU2LFOJL1G32T90GO","","360","img/land6.png","75","361.7999999523163","2","0","3","2","0.8,0.2,0.2,0.2,0.8,0.2,0.2,0.2,0.8","0.2,0.8,0.2,0.2,0.2,0.8,0.8,0.2,0.2","3","",""
"","html-keyboard-response","189","63433","0.0-189.0","3PM8NZGV8Z27ZASLIPN4DC34Q6RXQQ","A50NVZ6AI91O","3WRBLBQ2GRU63BU2LFOJL1G32T90GO","","null","<img src=""img/land6.png"" style=""width:200px;border:14px solid red;"">","null","","","","","","","","","",""
"","image-keyboard-response","190","63688","0.0-190.0","3PM8NZGV8Z27ZASLIPN4DC34Q6RXQQ","A50NVZ6AI91O","3WRBLBQ2GRU63BU2LFOJL1G32T90GO","","253","img/land1.png","74","254.5","1","0","1","2","0.8,0.2,0.2,0.2,0.8,0.2,0.2,0.2,0.8","0.2,0.8,0.2,0.2,0.2,0.8,0.8,0.2,0.2","3","",""
"","html-keyboard-response","191","63991","0.0-191.0","3PM8NZGV8Z27ZASLIPN4DC34Q6RXQQ","A50NVZ6AI91O","3WRBLBQ2GRU63BU2LFOJL1G32T90GO","","null","<img src=""img/land1.png"" style=""width:200px;border:14px solid red;"">","null","","","","","","","","","",""
"","image-keyboard-response","192","64309","0.0-192.0","3PM8NZGV8Z27ZASLIPN4DC34Q6RXQQ","A50NVZ6AI91O","3WRBLBQ2GRU63BU2LFOJL1G32T90GO","","315.7000000476837","img/land1.png","76","317.2000000476837","3","1","1","2","0.8,0.2,0.2,0.2,0.8,0.2,0.2,0.2,0.8","0.2,0.8,0.2,0.2,0.2,0.8,0.8,0.2,0.2","3","",""
"","html-keyboard-response","193","64612","0.0-193.0","3PM8NZGV8Z27ZASLIPN4DC34Q6RXQQ","A50NVZ6AI91O","3WRBLBQ2GRU63BU2LFOJL1G32T90GO","","null","<img src=""img/land1.png"" style=""width:200px; border:14px solid green;"">","null","","","","","","","","","",""
"","image-keyboard-response","194","64910","0.0-194.0","3PM8NZGV8Z27ZASLIPN4DC34Q6RXQQ","A50NVZ6AI91O","3WRBLBQ2GRU63BU2LFOJL1G32T90GO","","297.39999985694885","img/land1.png","75","298.7000000476837","2","1","1","2","0.8,0.2,0.2,0.2,0.8,0.2,0.2,0.2,0.8","0.2,0.8,0.2,0.2,0.2,0.8,0.8,0.2,0.2","3","",""
"","html-keyboard-response","195","65213","0.0-195.0","3PM8NZGV8Z27ZASLIPN4DC34Q6RXQQ","A50NVZ6AI91O","3WRBLBQ2GRU63BU2LFOJL1G32T90GO","","null","<img src=""img/land1.png"" style=""width:200px; border:14px solid green;"">","null","","","","","","","","","",""
"","image-keyboard-response","196","65746","0.0-196.0","3PM8NZGV8Z27ZASLIPN4DC34Q6RXQQ","A50NVZ6AI91O","3WRBLBQ2GRU63BU2LFOJL1G32T90GO","","530.0999999046326","img/land1.png","74","531.7999999523163","1","0","1","2","0.8,0.2,0.2,0.2,0.8,0.2,0.2,0.2,0.8","0.2,0.8,0.2,0.2,0.2,0.8,0.8,0.2,0.2","3","",""
"","html-keyboard-response","197","66048","0.0-197.0","3PM8NZGV8Z27ZASLIPN4DC34Q6RXQQ","A50NVZ6AI91O","3WRBLBQ2GRU63BU2LFOJL1G32T90GO","","null","<img src=""img/land1.png"" style=""width:200px;border:14px solid red;"">","null","","","","","","","","","",""
"","image-keyboard-response","198","66430","0.0-198.0","3PM8NZGV8Z27ZASLIPN4DC34Q6RXQQ","A50NVZ6AI91O","3WRBLBQ2GRU63BU2LFOJL1G32T90GO","","380.60000014305115","img/land6.png","76","381.30000019073486","3","0","3","2","0.8,0.2,0.2,0.2,0.8,0.2,0.2,0.2,0.8","0.2,0.8,0.2,0.2,0.2,0.8,0.8,0.2,0.2","3","",""
"","html-keyboard-response","199","66732","0.0-199.0","3PM8NZGV8Z27ZASLIPN4DC34Q6RXQQ","A50NVZ6AI91O","3WRBLBQ2GRU63BU2LFOJL1G32T90GO","","null","<img src=""img/land6.png"" style=""width:200px;border:14px solid red;"">","null","","","","","","","","","",""
"","image-keyboard-response","200","66973","0.0-200.0","3PM8NZGV8Z27ZASLIPN4DC34Q6RXQQ","A50NVZ6AI91O","3WRBLBQ2GRU63BU2LFOJL1G32T90GO","","238.19999980926514","img/land1.png","75","240.09999990463257","2","1","1","2","0.8,0.2,0.2,0.2,0.8,0.2,0.2,0.2,0.8","0.2,0.8,0.2,0.2,0.2,0.8,0.8,0.2,0.2","3","",""
"","html-keyboard-response","201","67275","0.0-201.0","3PM8NZGV8Z27ZASLIPN4DC34Q6RXQQ","A50NVZ6AI91O","3WRBLBQ2GRU63BU2LFOJL1G32T90GO","","null","<img src=""img/land1.png"" style=""width:200px; border:14px solid green;"">","null","","","","","","","","","",""
"","image-keyboard-response","202","67612","0.0-202.0","3PM8NZGV8Z27ZASLIPN4DC34Q6RXQQ","A50NVZ6AI91O","3WRBLBQ2GRU63BU2LFOJL1G32T90GO","","333.89999985694885","img/land1.png","74","335.90000009536743","1","0","1","2","0.8,0.2,0.2,0.2,0.8,0.2,0.2,0.2,0.8","0.2,0.8,0.2,0.2,0.2,0.8,0.8,0.2,0.2","3","",""
"","html-keyboard-response","203","67915","0.0-203.0","3PM8NZGV8Z27ZASLIPN4DC34Q6RXQQ","A50NVZ6AI91O","3WRBLBQ2GRU63BU2LFOJL1G32T90GO","","null","<img src=""img/land1.png"" style=""width:200px;border:14px solid red;"">","null","","","","","","","","","",""
"","image-keyboard-response","204","68461","0.0-204.0","3PM8NZGV8Z27ZASLIPN4DC34Q6RXQQ","A50NVZ6AI91O","3WRBLBQ2GRU63BU2LFOJL1G32T90GO","","543.8000001907349","img/land6.png","76","545.7000000476837","3","0","3","2","0.8,0.2,0.2,0.2,0.8,0.2,0.2,0.2,0.8","0.2,0.8,0.2,0.2,0.2,0.8,0.8,0.2,0.2","3","",""
"","html-keyboard-response","205","68764","0.0-205.0","3PM8NZGV8Z27ZASLIPN4DC34Q6RXQQ","A50NVZ6AI91O","3WRBLBQ2GRU63BU2LFOJL1G32T90GO","","null","<img src=""img/land6.png"" style=""width:200px;border:14px solid red;"">","null","","","","","","","","","",""
"","image-keyboard-response","206","69055","0.0-206.0","3PM8NZGV8Z27ZASLIPN4DC34Q6RXQQ","A50NVZ6AI91O","3WRBLBQ2GRU63BU2LFOJL1G32T90GO","","289.5","img/land6.png","75","290.7000000476837","2","0","3","2","0.8,0.2,0.2,0.2,0.8,0.2,0.2,0.2,0.8","0.2,0.8,0.2,0.2,0.2,0.8,0.8,0.2,0.2","3","",""
"","html-keyboard-response","207","69357","0.0-207.0","3PM8NZGV8Z27ZASLIPN4DC34Q6RXQQ","A50NVZ6AI91O","3WRBLBQ2GRU63BU2LFOJL1G32T90GO","","null","<img src=""img/land6.png"" style=""width:200px;border:14px solid red;"">","null","","","","","","","","","",""
"","image-keyboard-response","208","69840","0.0-208.0","3PM8NZGV8Z27ZASLIPN4DC34Q6RXQQ","A50NVZ6AI91O","3WRBLBQ2GRU63BU2LFOJL1G32T90GO","","480.59999990463257","img/land1.png","74","482.39999985694885","1","0","1","2","0.8,0.2,0.2,0.2,0.8,0.2,0.2,0.2,0.8","0.2,0.8,0.2,0.2,0.2,0.8,0.8,0.2,0.2","3","",""
"","html-keyboard-response","209","70142","0.0-209.0","3PM8NZGV8Z27ZASLIPN4DC34Q6RXQQ","A50NVZ6AI91O","3WRBLBQ2GRU63BU2LFOJL1G32T90GO","","null","<img src=""img/land1.png"" style=""width:200px;border:14px solid red;"">","null","","","","","","","","","",""
"","image-keyboard-response","210","71227","0.0-210.0","3PM8NZGV8Z27ZASLIPN4DC34Q6RXQQ","A50NVZ6AI91O","3WRBLBQ2GRU63BU2LFOJL1G32T90GO","","1083","img/land6.png","76","1084","3","0","3","2","0.8,0.2,0.2,0.2,0.8,0.2,0.2,0.2,0.8","0.2,0.8,0.2,0.2,0.2,0.8,0.8,0.2,0.2","3","",""
"","html-keyboard-response","211","71529","0.0-211.0","3PM8NZGV8Z27ZASLIPN4DC34Q6RXQQ","A50NVZ6AI91O","3WRBLBQ2GRU63BU2LFOJL1G32T90GO","","null","<img src=""img/land6.png"" style=""width:200px;border:14px solid red;"">","null","","","","","","","","","",""
"","image-keyboard-response","212","72141","0.0-212.0","3PM8NZGV8Z27ZASLIPN4DC34Q6RXQQ","A50NVZ6AI91O","3WRBLBQ2GRU63BU2LFOJL1G32T90GO","","611.0999999046326","img/land6.png","76","612.2000000476837","3","0","3","2","0.8,0.2,0.2,0.2,0.8,0.2,0.2,0.2,0.8","0.2,0.8,0.2,0.2,0.2,0.8,0.8,0.2,0.2","3","",""
"","html-keyboard-response","213","72451","0.0-213.0","3PM8NZGV8Z27ZASLIPN4DC34Q6RXQQ","A50NVZ6AI91O","3WRBLBQ2GRU63BU2LFOJL1G32T90GO","","null","<img src=""img/land6.png"" style=""width:200px;border:14px solid red;"">","null","","","","","","","","","",""
"","image-keyboard-response","214","72811","0.0-214.0","3PM8NZGV8Z27ZASLIPN4DC34Q6RXQQ","A50NVZ6AI91O","3WRBLBQ2GRU63BU2LFOJL1G32T90GO","","357.5","img/land6.png","75","359.30000019073486","2","0","3","2","0.8,0.2,0.2,0.2,0.8,0.2,0.2,0.2,0.8","0.2,0.8,0.2,0.2,0.2,0.8,0.8,0.2,0.2","3","",""
"","html-keyboard-response","215","73114","0.0-215.0","3PM8NZGV8Z27ZASLIPN4DC34Q6RXQQ","A50NVZ6AI91O","3WRBLBQ2GRU63BU2LFOJL1G32T90GO","","null","<img src=""img/land6.png"" style=""width:200px;border:14px solid red;"">","null","","","","","","","","","",""
"","image-keyboard-response","216","73980","0.0-216.0","3PM8NZGV8Z27ZASLIPN4DC34Q6RXQQ","A50NVZ6AI91O","3WRBLBQ2GRU63BU2LFOJL1G32T90GO","","864.2999999523163","img/land6.png","74","866.1000001430511","1","0","3","2","0.8,0.2,0.2,0.2,0.8,0.2,0.2,0.2,0.8","0.2,0.8,0.2,0.2,0.2,0.8,0.8,0.2,0.2","3","",""
"","html-keyboard-response","217","74283","0.0-217.0","3PM8NZGV8Z27ZASLIPN4DC34Q6RXQQ","A50NVZ6AI91O","3WRBLBQ2GRU63BU2LFOJL1G32T90GO","","null","<img src=""img/land6.png"" style=""width:200px;border:14px solid red;"">","null","","","","","","","","","",""
"","image-keyboard-response","218","74564","0.0-218.0","3PM8NZGV8Z27ZASLIPN4DC34Q6RXQQ","A50NVZ6AI91O","3WRBLBQ2GRU63BU2LFOJL1G32T90GO","","280.2000000476837","img/land3.png","76","280.7999999523163","3","1","2","2","0.8,0.2,0.2,0.2,0.8,0.2,0.2,0.2,0.8","0.2,0.8,0.2,0.2,0.2,0.8,0.8,0.2,0.2","3","",""
"","html-keyboard-response","219","74867","0.0-219.0","3PM8NZGV8Z27ZASLIPN4DC34Q6RXQQ","A50NVZ6AI91O","3WRBLBQ2GRU63BU2LFOJL1G32T90GO","","null","<img src=""img/land3.png"" style=""width:200px; border:14px solid green;"">","null","","","","","","","","","",""
"","image-keyboard-response","220","75116","0.0-220.0","3PM8NZGV8Z27ZASLIPN4DC34Q6RXQQ","A50NVZ6AI91O","3WRBLBQ2GRU63BU2LFOJL1G32T90GO","","247.20000004768372","img/land3.png","75","249.10000014305115","2","0","2","2","0.8,0.2,0.2,0.2,0.8,0.2,0.2,0.2,0.8","0.2,0.8,0.2,0.2,0.2,0.8,0.8,0.2,0.2","3","",""
"","html-keyboard-response","221","75419","0.0-221.0","3PM8NZGV8Z27ZASLIPN4DC34Q6RXQQ","A50NVZ6AI91O","3WRBLBQ2GRU63BU2LFOJL1G32T90GO","","null","<img src=""img/land3.png"" style=""width:200px;border:14px solid red;"">","null","","","","","","","","","",""
"","image-keyboard-response","222","75704","0.0-222.0","3PM8NZGV8Z27ZASLIPN4DC34Q6RXQQ","A50NVZ6AI91O","3WRBLBQ2GRU63BU2LFOJL1G32T90GO","","283","img/land1.png","74","284.7999999523163","1","0","1","2","0.8,0.2,0.2,0.2,0.8,0.2,0.2,0.2,0.8","0.2,0.8,0.2,0.2,0.2,0.8,0.8,0.2,0.2","3","",""
"","html-keyboard-response","223","76007","0.0-223.0","3PM8NZGV8Z27ZASLIPN4DC34Q6RXQQ","A50NVZ6AI91O","3WRBLBQ2GRU63BU2LFOJL1G32T90GO","","null","<img src=""img/land1.png"" style=""width:200px;border:14px solid red;"">","null","","","","","","","","","",""
"","image-keyboard-response","224","76254","0.0-224.0","3PM8NZGV8Z27ZASLIPN4DC34Q6RXQQ","A50NVZ6AI91O","3WRBLBQ2GRU63BU2LFOJL1G32T90GO","","245","img/land1.png","76","246.79999995231628","3","0","1","2","0.8,0.2,0.2,0.2,0.8,0.2,0.2,0.2,0.8","0.2,0.8,0.2,0.2,0.2,0.8,0.8,0.2,0.2","3","",""
"","html-keyboard-response","225","76557","0.0-225.0","3PM8NZGV8Z27ZASLIPN4DC34Q6RXQQ","A50NVZ6AI91O","3WRBLBQ2GRU63BU2LFOJL1G32T90GO","","null","<img src=""img/land1.png"" style=""width:200px;border:14px solid red;"">","null","","","","","","","","","",""
"","image-keyboard-response","226","76727","0.0-226.0","3PM8NZGV8Z27ZASLIPN4DC34Q6RXQQ","A50NVZ6AI91O","3WRBLBQ2GRU63BU2LFOJL1G32T90GO","","167.40000009536743","img/land3.png","75","169.09999990463257","2","0","2","2","0.8,0.2,0.2,0.2,0.8,0.2,0.2,0.2,0.8","0.2,0.8,0.2,0.2,0.2,0.8,0.8,0.2,0.2","3","",""
"","html-keyboard-response","227","77030","0.0-227.0","3PM8NZGV8Z27ZASLIPN4DC34Q6RXQQ","A50NVZ6AI91O","3WRBLBQ2GRU63BU2LFOJL1G32T90GO","","null","<img src=""img/land3.png"" style=""width:200px;border:14px solid red;"">","null","","","","","","","","","",""
"","image-keyboard-response","228","77328","0.0-228.0","3PM8NZGV8Z27ZASLIPN4DC34Q6RXQQ","A50NVZ6AI91O","3WRBLBQ2GRU63BU2LFOJL1G32T90GO","","296","img/land1.png","74","298.19999980926514","1","0","1","2","0.8,0.2,0.2,0.2,0.8,0.2,0.2,0.2,0.8","0.2,0.8,0.2,0.2,0.2,0.8,0.8,0.2,0.2","3","",""
"","html-keyboard-response","229","77630","0.0-229.0","3PM8NZGV8Z27ZASLIPN4DC34Q6RXQQ","A50NVZ6AI91O","3WRBLBQ2GRU63BU2LFOJL1G32T90GO","","null","<img src=""img/land1.png"" style=""width:200px;border:14px solid red;"">","null","","","","","","","","","",""
"","image-keyboard-response","230","77975","0.0-230.0","3PM8NZGV8Z27ZASLIPN4DC34Q6RXQQ","A50NVZ6AI91O","3WRBLBQ2GRU63BU2LFOJL1G32T90GO","","342.40000009536743","img/land3.png","76","344.2999999523163","3","1","2","2","0.8,0.2,0.2,0.2,0.8,0.2,0.2,0.2,0.8","0.2,0.8,0.2,0.2,0.2,0.8,0.8,0.2,0.2","3","",""
"","html-keyboard-response","231","78278","0.0-231.0","3PM8NZGV8Z27ZASLIPN4DC34Q6RXQQ","A50NVZ6AI91O","3WRBLBQ2GRU63BU2LFOJL1G32T90GO","","null","<img src=""img/land3.png"" style=""width:200px; border:14px solid green;"">","null","","","","","","","","","",""
"","image-keyboard-response","232","78481","0.0-232.0","3PM8NZGV8Z27ZASLIPN4DC34Q6RXQQ","A50NVZ6AI91O","3WRBLBQ2GRU63BU2LFOJL1G32T90GO","","201","img/land3.png","75","202.40000009536743","2","0","2","2","0.8,0.2,0.2,0.2,0.8,0.2,0.2,0.2,0.8","0.2,0.8,0.2,0.2,0.2,0.8,0.8,0.2,0.2","3","",""
"","html-keyboard-response","233","78783","0.0-233.0","3PM8NZGV8Z27ZASLIPN4DC34Q6RXQQ","A50NVZ6AI91O","3WRBLBQ2GRU63BU2LFOJL1G32T90GO","","null","<img src=""img/land3.png"" style=""width:200px;border:14px solid red;"">","null","","","","","","","","","",""
"","image-keyboard-response","234","79053","0.0-234.0","3PM8NZGV8Z27ZASLIPN4DC34Q6RXQQ","A50NVZ6AI91O","3WRBLBQ2GRU63BU2LFOJL1G32T90GO","","268.5","img/land3.png","74","270.40000009536743","1","0","2","2","0.8,0.2,0.2,0.2,0.8,0.2,0.2,0.2,0.8","0.2,0.8,0.2,0.2,0.2,0.8,0.8,0.2,0.2","3","",""
"","html-keyboard-response","235","79356","0.0-235.0","3PM8NZGV8Z27ZASLIPN4DC34Q6RXQQ","A50NVZ6AI91O","3WRBLBQ2GRU63BU2LFOJL1G32T90GO","","null","<img src=""img/land3.png"" style=""width:200px;border:14px solid red;"">","null","","","","","","","","","",""
"","image-keyboard-response","236","79982","0.0-236.0","3PM8NZGV8Z27ZASLIPN4DC34Q6RXQQ","A50NVZ6AI91O","3WRBLBQ2GRU63BU2LFOJL1G32T90GO","","623.4000000953674","img/land1.png","76","625.2000000476837","3","0","1","2","0.8,0.2,0.2,0.2,0.8,0.2,0.2,0.2,0.8","0.2,0.8,0.2,0.2,0.2,0.8,0.8,0.2,0.2","3","",""
"","html-keyboard-response","237","80284","0.0-237.0","3PM8NZGV8Z27ZASLIPN4DC34Q6RXQQ","A50NVZ6AI91O","3WRBLBQ2GRU63BU2LFOJL1G32T90GO","","null","<img src=""img/land1.png"" style=""width:200px;border:14px solid red;"">","null","","","","","","","","","",""
"","image-keyboard-response","238","80686","0.0-238.0","3PM8NZGV8Z27ZASLIPN4DC34Q6RXQQ","A50NVZ6AI91O","3WRBLBQ2GRU63BU2LFOJL1G32T90GO","","399.5","img/land1.png","75","401","2","1","1","2","0.8,0.2,0.2,0.2,0.8,0.2,0.2,0.2,0.8","0.2,0.8,0.2,0.2,0.2,0.8,0.8,0.2,0.2","3","",""
"","html-keyboard-response","239","80992","0.0-239.0","3PM8NZGV8Z27ZASLIPN4DC34Q6RXQQ","A50NVZ6AI91O","3WRBLBQ2GRU63BU2LFOJL1G32T90GO","","null","<img src=""img/land1.png"" style=""width:200px; border:14px solid green;"">","null","","","","","","","","","",""
"","image-keyboard-response","240","81407","0.0-240.0","3PM8NZGV8Z27ZASLIPN4DC34Q6RXQQ","A50NVZ6AI91O","3WRBLBQ2GRU63BU2LFOJL1G32T90GO","","413.39999985694885","img/land1.png","74","414.7999999523163","1","0","1","2","0.8,0.2,0.2,0.2,0.8,0.2,0.2,0.2,0.8","0.2,0.8,0.2,0.2,0.2,0.8,0.8,0.2,0.2","3","",""
"","html-keyboard-response","241","81708","0.0-241.0","3PM8NZGV8Z27ZASLIPN4DC34Q6RXQQ","A50NVZ6AI91O","3WRBLBQ2GRU63BU2LFOJL1G32T90GO","","null","<img src=""img/land1.png"" style=""width:200px;border:14px solid red;"">","null","","","","","","","","","",""
"","image-keyboard-response","242","82036","0.0-242.0","3PM8NZGV8Z27ZASLIPN4DC34Q6RXQQ","A50NVZ6AI91O","3WRBLBQ2GRU63BU2LFOJL1G32T90GO","","324.90000009536743","img/land3.png","76","326.7999999523163","3","1","2","2","0.8,0.2,0.2,0.2,0.8,0.2,0.2,0.2,0.8","0.2,0.8,0.2,0.2,0.2,0.8,0.8,0.2,0.2","3","",""
"","html-keyboard-response","243","82338","0.0-243.0","3PM8NZGV8Z27ZASLIPN4DC34Q6RXQQ","A50NVZ6AI91O","3WRBLBQ2GRU63BU2LFOJL1G32T90GO","","null","<img src=""img/land3.png"" style=""width:200px; border:14px solid green;"">","null","","","","","","","","","",""
"","image-keyboard-response","244","82789","0.0-244.0","3PM8NZGV8Z27ZASLIPN4DC34Q6RXQQ","A50NVZ6AI91O","3WRBLBQ2GRU63BU2LFOJL1G32T90GO","","449","img/land1.png","75","450.5","2","1","1","2","0.8,0.2,0.2,0.2,0.8,0.2,0.2,0.2,0.8","0.2,0.8,0.2,0.2,0.2,0.8,0.8,0.2,0.2","3","",""
"","html-keyboard-response","245","83093","0.0-245.0","3PM8NZGV8Z27ZASLIPN4DC34Q6RXQQ","A50NVZ6AI91O","3WRBLBQ2GRU63BU2LFOJL1G32T90GO","","null","<img src=""img/land1.png"" style=""width:200px; border:14px solid green;"">","null","","","","","","","","","",""
"","image-keyboard-response","246","83485","0.0-246.0","3PM8NZGV8Z27ZASLIPN4DC34Q6RXQQ","A50NVZ6AI91O","3WRBLBQ2GRU63BU2LFOJL1G32T90GO","","389.7999999523163","img/land1.png","74","391.59999990463257","1","0","1","2","0.8,0.2,0.2,0.2,0.8,0.2,0.2,0.2,0.8","0.2,0.8,0.2,0.2,0.2,0.8,0.8,0.2,0.2","3","",""
"","html-keyboard-response","247","83788","0.0-247.0","3PM8NZGV8Z27ZASLIPN4DC34Q6RXQQ","A50NVZ6AI91O","3WRBLBQ2GRU63BU2LFOJL1G32T90GO","","null","<img src=""img/land1.png"" style=""width:200px;border:14px solid red;"">","null","","","","","","","","","",""
"","image-keyboard-response","248","84495","0.0-248.0","3PM8NZGV8Z27ZASLIPN4DC34Q6RXQQ","A50NVZ6AI91O","3WRBLBQ2GRU63BU2LFOJL1G32T90GO","","705","img/land3.png","76","707","3","1","2","2","0.8,0.2,0.2,0.2,0.8,0.2,0.2,0.2,0.8","0.2,0.8,0.2,0.2,0.2,0.8,0.8,0.2,0.2","3","",""
"","html-keyboard-response","249","84798","0.0-249.0","3PM8NZGV8Z27ZASLIPN4DC34Q6RXQQ","A50NVZ6AI91O","3WRBLBQ2GRU63BU2LFOJL1G32T90GO","","null","<img src=""img/land3.png"" style=""width:200px; border:14px solid green;"">","null","","","","","","","","","",""
"","image-keyboard-response","250","85298","0.0-250.0","3PM8NZGV8Z27ZASLIPN4DC34Q6RXQQ","A50NVZ6AI91O","3WRBLBQ2GRU63BU2LFOJL1G32T90GO","","497.5","img/land3.png","75","499.5","2","1","2","2","0.8,0.2,0.2,0.2,0.8,0.2,0.2,0.2,0.8","0.2,0.8,0.2,0.2,0.2,0.8,0.8,0.2,0.2","3","",""
"","html-keyboard-response","251","85601","0.0-251.0","3PM8NZGV8Z27ZASLIPN4DC34Q6RXQQ","A50NVZ6AI91O","3WRBLBQ2GRU63BU2LFOJL1G32T90GO","","null","<img src=""img/land3.png"" style=""width:200px; border:14px solid green;"">","null","","","","","","","","","",""
"","image-keyboard-response","252","86087","0.0-252.0","3PM8NZGV8Z27ZASLIPN4DC34Q6RXQQ","A50NVZ6AI91O","3WRBLBQ2GRU63BU2LFOJL1G32T90GO","","484.10000014305115","img/land3.png","74","485.5","1","0","2","2","0.8,0.2,0.2,0.2,0.8,0.2,0.2,0.2,0.8","0.2,0.8,0.2,0.2,0.2,0.8,0.8,0.2,0.2","3","",""
"","html-keyboard-response","253","86389","0.0-253.0","3PM8NZGV8Z27ZASLIPN4DC34Q6RXQQ","A50NVZ6AI91O","3WRBLBQ2GRU63BU2LFOJL1G32T90GO","","null","<img src=""img/land3.png"" style=""width:200px;border:14px solid red;"">","null","","","","","","","","","",""
"","image-keyboard-response","254","87015","0.0-254.0","3PM8NZGV8Z27ZASLIPN4DC34Q6RXQQ","A50NVZ6AI91O","3WRBLBQ2GRU63BU2LFOJL1G32T90GO","","623.2999999523163","img/land1.png","76","625.1000001430511","3","0","1","2","0.8,0.2,0.2,0.2,0.8,0.2,0.2,0.2,0.8","0.2,0.8,0.2,0.2,0.2,0.8,0.8,0.2,0.2","3","",""
"","html-keyboard-response","255","87332","0.0-255.0","3PM8NZGV8Z27ZASLIPN4DC34Q6RXQQ","A50NVZ6AI91O","3WRBLBQ2GRU63BU2LFOJL1G32T90GO","","null","<img src=""img/land1.png"" style=""width:200px;border:14px solid red;"">","null","","","","","","","","","",""
"","image-keyboard-response","256","88231","0.0-256.0","3PM8NZGV8Z27ZASLIPN4DC34Q6RXQQ","A50NVZ6AI91O","3WRBLBQ2GRU63BU2LFOJL1G32T90GO","","897.1000001430511","img/land6.png","75","898.2000000476837","2","0","3","2","0.8,0.2,0.2,0.2,0.8,0.2,0.2,0.2,0.8","0.2,0.8,0.2,0.2,0.2,0.8,0.8,0.2,0.2","3","",""
"","html-keyboard-response","257","88532","0.0-257.0","3PM8NZGV8Z27ZASLIPN4DC34Q6RXQQ","A50NVZ6AI91O","3WRBLBQ2GRU63BU2LFOJL1G32T90GO","","null","<img src=""img/land6.png"" style=""width:200px;border:14px solid red;"">","null","","","","","","","","","",""
"","image-keyboard-response","258","89108","0.0-258.0","3PM8NZGV8Z27ZASLIPN4DC34Q6RXQQ","A50NVZ6AI91O","3WRBLBQ2GRU63BU2LFOJL1G32T90GO","","575.0999999046326","img/land6.png","74","575.7999999523163","1","0","3","2","0.8,0.2,0.2,0.2,0.8,0.2,0.2,0.2,0.8","0.2,0.8,0.2,0.2,0.2,0.8,0.8,0.2,0.2","3","",""
"","html-keyboard-response","259","89410","0.0-259.0","3PM8NZGV8Z27ZASLIPN4DC34Q6RXQQ","A50NVZ6AI91O","3WRBLBQ2GRU63BU2LFOJL1G32T90GO","","null","<img src=""img/land6.png"" style=""width:200px;border:14px solid red;"">","null","","","","","","","","","",""
"","image-keyboard-response","260","90164","0.0-260.0","3PM8NZGV8Z27ZASLIPN4DC34Q6RXQQ","A50NVZ6AI91O","3WRBLBQ2GRU63BU2LFOJL1G32T90GO","","752.0999999046326","img/land1.png","76","753.2999999523163","3","0","1","2","0.8,0.2,0.2,0.2,0.8,0.2,0.2,0.2,0.8","0.2,0.8,0.2,0.2,0.2,0.8,0.8,0.2,0.2","3","",""
"","html-keyboard-response","261","90466","0.0-261.0","3PM8NZGV8Z27ZASLIPN4DC34Q6RXQQ","A50NVZ6AI91O","3WRBLBQ2GRU63BU2LFOJL1G32T90GO","","null","<img src=""img/land1.png"" style=""width:200px;border:14px solid red;"">","null","","","","","","","","","",""
"","image-keyboard-response","262","91406","0.0-262.0","3PM8NZGV8Z27ZASLIPN4DC34Q6RXQQ","A50NVZ6AI91O","3WRBLBQ2GRU63BU2LFOJL1G32T90GO","","937.7999999523163","img/land1.png","75","939","2","1","1","2","0.8,0.2,0.2,0.2,0.8,0.2,0.2,0.2,0.8","0.2,0.8,0.2,0.2,0.2,0.8,0.8,0.2,0.2","3","",""
"","html-keyboard-response","263","91707","0.0-263.0","3PM8NZGV8Z27ZASLIPN4DC34Q6RXQQ","A50NVZ6AI91O","3WRBLBQ2GRU63BU2LFOJL1G32T90GO","","null","<img src=""img/land1.png"" style=""width:200px; border:14px solid green;"">","null","","","","","","","","","",""
"","image-keyboard-response","264","92028","0.0-264.0","3PM8NZGV8Z27ZASLIPN4DC34Q6RXQQ","A50NVZ6AI91O","3WRBLBQ2GRU63BU2LFOJL1G32T90GO","","319.10000014305115","img/land1.png","74","320.5","1","0","1","2","0.8,0.2,0.2,0.2,0.8,0.2,0.2,0.2,0.8","0.2,0.8,0.2,0.2,0.2,0.8,0.8,0.2,0.2","3","",""
"","html-keyboard-response","265","92330","0.0-265.0","3PM8NZGV8Z27ZASLIPN4DC34Q6RXQQ","A50NVZ6AI91O","3WRBLBQ2GRU63BU2LFOJL1G32T90GO","","null","<img src=""img/land1.png"" style=""width:200px;border:14px solid red;"">","null","","","","","","","","","",""
"","image-keyboard-response","266","92733","0.0-266.0","3PM8NZGV8Z27ZASLIPN4DC34Q6RXQQ","A50NVZ6AI91O","3WRBLBQ2GRU63BU2LFOJL1G32T90GO","","401.5","img/land1.png","76","403.39999985694885","3","0","1","2","0.8,0.2,0.2,0.2,0.8,0.2,0.2,0.2,0.8","0.2,0.8,0.2,0.2,0.2,0.8,0.8,0.2,0.2","3","",""
"","html-keyboard-response","267","93037","0.0-267.0","3PM8NZGV8Z27ZASLIPN4DC34Q6RXQQ","A50NVZ6AI91O","3WRBLBQ2GRU63BU2LFOJL1G32T90GO","","null","<img src=""img/land1.png"" style=""width:200px;border:14px solid red;"">","null","","","","","","","","","",""
"","image-keyboard-response","268","93384","0.0-268.0","3PM8NZGV8Z27ZASLIPN4DC34Q6RXQQ","A50NVZ6AI91O","3WRBLBQ2GRU63BU2LFOJL1G32T90GO","","345.10000014305115","img/land1.png","76","347","3","0","1","2","0.8,0.2,0.2,0.2,0.8,0.2,0.2,0.2,0.8","0.2,0.8,0.2,0.2,0.2,0.8,0.8,0.2,0.2","3","",""
"","html-keyboard-response","269","93688","0.0-269.0","3PM8NZGV8Z27ZASLIPN4DC34Q6RXQQ","A50NVZ6AI91O","3WRBLBQ2GRU63BU2LFOJL1G32T90GO","","null","<img src=""img/land1.png"" style=""width:200px;border:14px solid red;"">","null","","","","","","","","","",""
"","image-keyboard-response","270","93972","0.0-270.0","3PM8NZGV8Z27ZASLIPN4DC34Q6RXQQ","A50NVZ6AI91O","3WRBLBQ2GRU63BU2LFOJL1G32T90GO","","281.80000019073486","img/land1.png","75","283.5","2","1","1","2","0.8,0.2,0.2,0.2,0.8,0.2,0.2,0.2,0.8","0.2,0.8,0.2,0.2,0.2,0.8,0.8,0.2,0.2","3","",""
"","html-keyboard-response","271","94274","0.0-271.0","3PM8NZGV8Z27ZASLIPN4DC34Q6RXQQ","A50NVZ6AI91O","3WRBLBQ2GRU63BU2LFOJL1G32T90GO","","null","<img src=""img/land1.png"" style=""width:200px; border:14px solid green;"">","null","","","","","","","","","",""
"","image-keyboard-response","272","94607","0.0-272.0","3PM8NZGV8Z27ZASLIPN4DC34Q6RXQQ","A50NVZ6AI91O","3WRBLBQ2GRU63BU2LFOJL1G32T90GO","","330","img/land1.png","74","331.7000000476837","1","0","1","2","0.8,0.2,0.2,0.2,0.8,0.2,0.2,0.2,0.8","0.2,0.8,0.2,0.2,0.2,0.8,0.8,0.2,0.2","3","",""
"","html-keyboard-response","273","94910","0.0-273.0","3PM8NZGV8Z27ZASLIPN4DC34Q6RXQQ","A50NVZ6AI91O","3WRBLBQ2GRU63BU2LFOJL1G32T90GO","","null","<img src=""img/land1.png"" style=""width:200px;border:14px solid red;"">","null","","","","","","","","","",""
"","image-keyboard-response","274","95484","0.0-274.0","3PM8NZGV8Z27ZASLIPN4DC34Q6RXQQ","A50NVZ6AI91O","3WRBLBQ2GRU63BU2LFOJL1G32T90GO","","572.2999999523163","img/land1.png","76","573.5999999046326","3","0","1","2","0.8,0.2,0.2,0.2,0.8,0.2,0.2,0.2,0.8","0.2,0.8,0.2,0.2,0.2,0.8,0.8,0.2,0.2","3","",""
"","html-keyboard-response","275","95785","0.0-275.0","3PM8NZGV8Z27ZASLIPN4DC34Q6RXQQ","A50NVZ6AI91O","3WRBLBQ2GRU63BU2LFOJL1G32T90GO","","null","<img src=""img/land1.png"" style=""width:200px;border:14px solid red;"">","null","","","","","","","","","",""
"","image-keyboard-response","276","96103","0.0-276.0","3PM8NZGV8Z27ZASLIPN4DC34Q6RXQQ","A50NVZ6AI91O","3WRBLBQ2GRU63BU2LFOJL1G32T90GO","","315.59999990463257","img/land1.png","75","317.2999999523163","2","1","1","2","0.8,0.2,0.2,0.2,0.8,0.2,0.2,0.2,0.8","0.2,0.8,0.2,0.2,0.2,0.8,0.8,0.2,0.2","3","",""
"","html-keyboard-response","277","96406","0.0-277.0","3PM8NZGV8Z27ZASLIPN4DC34Q6RXQQ","A50NVZ6AI91O","3WRBLBQ2GRU63BU2LFOJL1G32T90GO","","null","<img src=""img/land1.png"" style=""width:200px; border:14px solid green;"">","null","","","","","","","","","",""
"","image-keyboard-response","278","96965","0.0-278.0","3PM8NZGV8Z27ZASLIPN4DC34Q6RXQQ","A50NVZ6AI91O","3WRBLBQ2GRU63BU2LFOJL1G32T90GO","","556.7000000476837","img/land1.png","74","558.9000000953674","1","0","1","2","0.8,0.2,0.2,0.2,0.8,0.2,0.2,0.2,0.8","0.2,0.8,0.2,0.2,0.2,0.8,0.8,0.2,0.2","3","",""
"","html-keyboard-response","279","97267","0.0-279.0","3PM8NZGV8Z27ZASLIPN4DC34Q6RXQQ","A50NVZ6AI91O","3WRBLBQ2GRU63BU2LFOJL1G32T90GO","","null","<img src=""img/land1.png"" style=""width:200px;border:14px solid red;"">","null","","","","","","","","","",""
"","image-keyboard-response","280","97564","0.0-280.0","3PM8NZGV8Z27ZASLIPN4DC34Q6RXQQ","A50NVZ6AI91O","3WRBLBQ2GRU63BU2LFOJL1G32T90GO","","295.5","img/land3.png","76","296.7000000476837","3","1","2","2","0.8,0.2,0.2,0.2,0.8,0.2,0.2,0.2,0.8","0.2,0.8,0.2,0.2,0.2,0.8,0.8,0.2,0.2","3","",""
"","html-keyboard-response","281","97867","0.0-281.0","3PM8NZGV8Z27ZASLIPN4DC34Q6RXQQ","A50NVZ6AI91O","3WRBLBQ2GRU63BU2LFOJL1G32T90GO","","null","<img src=""img/land3.png"" style=""width:200px; border:14px solid green;"">","null","","","","","","","","","",""
"","image-keyboard-response","282","98065","0.0-282.0","3PM8NZGV8Z27ZASLIPN4DC34Q6RXQQ","A50NVZ6AI91O","3WRBLBQ2GRU63BU2LFOJL1G32T90GO","","195.69999980926514","img/land6.png","75","197.59999990463257","2","1","3","2","0.8,0.2,0.2,0.2,0.8,0.2,0.2,0.2,0.8","0.2,0.8,0.2,0.2,0.2,0.8,0.8,0.2,0.2","3","",""
"","html-keyboard-response","283","98368","0.0-283.0","3PM8NZGV8Z27ZASLIPN4DC34Q6RXQQ","A50NVZ6AI91O","3WRBLBQ2GRU63BU2LFOJL1G32T90GO","","null","<img src=""img/land6.png"" style=""width:200px; border:14px solid green;"">","null","","","","","","","","","",""
"","image-keyboard-response","284","98620","0.0-284.0","3PM8NZGV8Z27ZASLIPN4DC34Q6RXQQ","A50NVZ6AI91O","3WRBLBQ2GRU63BU2LFOJL1G32T90GO","","250.09999990463257","img/land6.png","74","251.40000009536743","1","1","3","2","0.8,0.2,0.2,0.2,0.8,0.2,0.2,0.2,0.8","0.2,0.8,0.2,0.2,0.2,0.8,0.8,0.2,0.2","3","",""
"","html-keyboard-response","285","98923","0.0-285.0","3PM8NZGV8Z27ZASLIPN4DC34Q6RXQQ","A50NVZ6AI91O","3WRBLBQ2GRU63BU2LFOJL1G32T90GO","","null","<img src=""img/land6.png"" style=""width:200px; border:14px solid green;"">","null","","","","","","","","","",""
"","image-keyboard-response","286","99207","0.0-286.0","3PM8NZGV8Z27ZASLIPN4DC34Q6RXQQ","A50NVZ6AI91O","3WRBLBQ2GRU63BU2LFOJL1G32T90GO","","282.40000009536743","img/land3.png","74","284.2000000476837","1","0","2","2","0.8,0.2,0.2,0.2,0.8,0.2,0.2,0.2,0.8","0.2,0.8,0.2,0.2,0.2,0.8,0.8,0.2,0.2","3","",""
"","html-keyboard-response","287","99510","0.0-287.0","3PM8NZGV8Z27ZASLIPN4DC34Q6RXQQ","A50NVZ6AI91O","3WRBLBQ2GRU63BU2LFOJL1G32T90GO","","null","<img src=""img/land3.png"" style=""width:200px;border:14px solid red;"">","null","","","","","","","","","",""
"","image-keyboard-response","288","99604","0.0-288.0","3PM8NZGV8Z27ZASLIPN4DC34Q6RXQQ","A50NVZ6AI91O","3WRBLBQ2GRU63BU2LFOJL1G32T90GO","","91.40000009536743","img/land1.png","75","93.09999990463257","2","1","1","2","0.8,0.2,0.2,0.2,0.8,0.2,0.2,0.2,0.8","0.2,0.8,0.2,0.2,0.2,0.8,0.8,0.2,0.2","3","",""
"","html-keyboard-response","289","99906","0.0-289.0","3PM8NZGV8Z27ZASLIPN4DC34Q6RXQQ","A50NVZ6AI91O","3WRBLBQ2GRU63BU2LFOJL1G32T90GO","","null","<img src=""img/land1.png"" style=""width:200px; border:14px solid green;"">","null","","","","","","","","","",""
"","image-keyboard-response","290","100205","0.0-290.0","3PM8NZGV8Z27ZASLIPN4DC34Q6RXQQ","A50NVZ6AI91O","3WRBLBQ2GRU63BU2LFOJL1G32T90GO","","296.69999980926514","img/land1.png","76","298.5","3","1","1","2","0.8,0.2,0.2,0.2,0.8,0.2,0.2,0.2,0.8","0.2,0.8,0.2,0.2,0.2,0.8,0.8,0.2,0.2","3","",""
"","html-keyboard-response","291","100508","0.0-291.0","3PM8NZGV8Z27ZASLIPN4DC34Q6RXQQ","A50NVZ6AI91O","3WRBLBQ2GRU63BU2LFOJL1G32T90GO","","null","<img src=""img/land1.png"" style=""width:200px; border:14px solid green;"">","null","","","","","","","","","",""
"","image-keyboard-response","292","100800","0.0-292.0","3PM8NZGV8Z27ZASLIPN4DC34Q6RXQQ","A50NVZ6AI91O","3WRBLBQ2GRU63BU2LFOJL1G32T90GO","","288.7999999523163","img/land1.png","75","290.59999990463257","2","1","1","2","0.8,0.2,0.2,0.2,0.8,0.2,0.2,0.2,0.8","0.2,0.8,0.2,0.2,0.2,0.8,0.8,0.2,0.2","3","",""
"","html-keyboard-response","293","101102","0.0-293.0","3PM8NZGV8Z27ZASLIPN4DC34Q6RXQQ","A50NVZ6AI91O","3WRBLBQ2GRU63BU2LFOJL1G32T90GO","","null","<img src=""img/land1.png"" style=""width:200px; border:14px solid green;"">","null","","","","","","","","","",""
"","image-keyboard-response","294","101227","0.0-294.0","3PM8NZGV8Z27ZASLIPN4DC34Q6RXQQ","A50NVZ6AI91O","3WRBLBQ2GRU63BU2LFOJL1G32T90GO","","123.69999980926514","img/land1.png","74","124.20000004768372","1","1","1","2","0.8,0.2,0.2,0.2,0.8,0.2,0.2,0.2,0.8","0.2,0.8,0.2,0.2,0.2,0.8,0.8,0.2,0.2","3","",""
"","html-keyboard-response","295","101529","0.0-295.0","3PM8NZGV8Z27ZASLIPN4DC34Q6RXQQ","A50NVZ6AI91O","3WRBLBQ2GRU63BU2LFOJL1G32T90GO","","null","<img src=""img/land1.png"" style=""width:200px; border:14px solid green;"">","null","","","","","","","","","",""
"","image-keyboard-response","296","101853","0.0-296.0","3PM8NZGV8Z27ZASLIPN4DC34Q6RXQQ","A50NVZ6AI91O","3WRBLBQ2GRU63BU2LFOJL1G32T90GO","","321.5","img/land1.png","74","323.30000019073486","1","1","1","2","0.8,0.2,0.2,0.2,0.8,0.2,0.2,0.2,0.8","0.2,0.8,0.2,0.2,0.2,0.8,0.8,0.2,0.2","3","",""
"","html-keyboard-response","297","102155","0.0-297.0","3PM8NZGV8Z27ZASLIPN4DC34Q6RXQQ","A50NVZ6AI91O","3WRBLBQ2GRU63BU2LFOJL1G32T90GO","","null","<img src=""img/land1.png"" style=""width:200px; border:14px solid green;"">","null","","","","","","","","","",""
"","image-keyboard-response","298","102351","0.0-298.0","3PM8NZGV8Z27ZASLIPN4DC34Q6RXQQ","A50NVZ6AI91O","3WRBLBQ2GRU63BU2LFOJL1G32T90GO","","193.10000014305115","img/land1.png","76","195.10000014305115","3","0","1","2","0.8,0.2,0.2,0.2,0.8,0.2,0.2,0.2,0.8","0.2,0.8,0.2,0.2,0.2,0.8,0.8,0.2,0.2","3","",""
"","html-keyboard-response","299","102653","0.0-299.0","3PM8NZGV8Z27ZASLIPN4DC34Q6RXQQ","A50NVZ6AI91O","3WRBLBQ2GRU63BU2LFOJL1G32T90GO","","null","<img src=""img/land1.png"" style=""width:200px;border:14px solid red;"">","null","","","","","","","","","",""
"","image-keyboard-response","300","102959","0.0-300.0","3PM8NZGV8Z27ZASLIPN4DC34Q6RXQQ","A50NVZ6AI91O","3WRBLBQ2GRU63BU2LFOJL1G32T90GO","","305","img/land1.png","75","306","2","1","1","2","0.8,0.2,0.2,0.2,0.8,0.2,0.2,0.2,0.8","0.2,0.8,0.2,0.2,0.2,0.8,0.8,0.2,0.2","3","",""
"","html-keyboard-response","301","103262","0.0-301.0","3PM8NZGV8Z27ZASLIPN4DC34Q6RXQQ","A50NVZ6AI91O","3WRBLBQ2GRU63BU2LFOJL1G32T90GO","","null","<img src=""img/land1.png"" style=""width:200px; border:14px solid green;"">","null","","","","","","","","","",""
"","image-keyboard-response","302","103520","0.0-302.0","3PM8NZGV8Z27ZASLIPN4DC34Q6RXQQ","A50NVZ6AI91O","3WRBLBQ2GRU63BU2LFOJL1G32T90GO","","254.79999995231628","img/land4.png","74","256.7000000476837","1","1","1","1","0.8,0.2,0.2,0.2,0.8,0.2,0.2,0.2,0.8","0.8,0.2,0.2,0.2,0.8,0.2,0.2,0.2,0.8","1","",""
"","html-keyboard-response","303","103822","0.0-303.0","3PM8NZGV8Z27ZASLIPN4DC34Q6RXQQ","A50NVZ6AI91O","3WRBLBQ2GRU63BU2LFOJL1G32T90GO","","null","<img src=""img/land4.png"" style=""width:200px; border:14px solid green;"">","null","","","","","","","","","",""
"","image-keyboard-response","304","104022","0.0-304.0","3PM8NZGV8Z27ZASLIPN4DC34Q6RXQQ","A50NVZ6AI91O","3WRBLBQ2GRU63BU2LFOJL1G32T90GO","","198.90000009536743","img/land4.png","75","200","2","0","1","1","0.8,0.2,0.2,0.2,0.8,0.2,0.2,0.2,0.8","0.8,0.2,0.2,0.2,0.8,0.2,0.2,0.2,0.8","1","",""
"","html-keyboard-response","305","104326","0.0-305.0","3PM8NZGV8Z27ZASLIPN4DC34Q6RXQQ","A50NVZ6AI91O","3WRBLBQ2GRU63BU2LFOJL1G32T90GO","","null","<img src=""img/land4.png"" style=""width:200px;border:14px solid red;"">","null","","","","","","","","","",""
"","image-keyboard-response","306","104527","0.0-306.0","3PM8NZGV8Z27ZASLIPN4DC34Q6RXQQ","A50NVZ6AI91O","3WRBLBQ2GRU63BU2LFOJL1G32T90GO","","199","img/land5.png","76","201.10000014305115","3","1","3","1","0.8,0.2,0.2,0.2,0.8,0.2,0.2,0.2,0.8","0.8,0.2,0.2,0.2,0.8,0.2,0.2,0.2,0.8","1","",""
"","html-keyboard-response","307","104829","0.0-307.0","3PM8NZGV8Z27ZASLIPN4DC34Q6RXQQ","A50NVZ6AI91O","3WRBLBQ2GRU63BU2LFOJL1G32T90GO","","null","<img src=""img/land5.png"" style=""width:200px; border:14px solid green;"">","null","","","","","","","","","",""
"","image-keyboard-response","308","105085","0.0-308.0","3PM8NZGV8Z27ZASLIPN4DC34Q6RXQQ","A50NVZ6AI91O","3WRBLBQ2GRU63BU2LFOJL1G32T90GO","","252","img/land2.png","75","254.40000009536743","2","1","2","1","0.8,0.2,0.2,0.2,0.8,0.2,0.2,0.2,0.8","0.8,0.2,0.2,0.2,0.8,0.2,0.2,0.2,0.8","1","",""
"","html-keyboard-response","309","105388","0.0-309.0","3PM8NZGV8Z27ZASLIPN4DC34Q6RXQQ","A50NVZ6AI91O","3WRBLBQ2GRU63BU2LFOJL1G32T90GO","","null","<img src=""img/land2.png"" style=""width:200px; border:14px solid green;"">","null","","","","","","","","","",""
"","image-keyboard-response","310","105784","0.0-310.0","3PM8NZGV8Z27ZASLIPN4DC34Q6RXQQ","A50NVZ6AI91O","3WRBLBQ2GRU63BU2LFOJL1G32T90GO","","393.5","img/land5.png","74","395.5","1","0","3","1","0.8,0.2,0.2,0.2,0.8,0.2,0.2,0.2,0.8","0.8,0.2,0.2,0.2,0.8,0.2,0.2,0.2,0.8","1","",""
"","html-keyboard-response","311","106086","0.0-311.0","3PM8NZGV8Z27ZASLIPN4DC34Q6RXQQ","A50NVZ6AI91O","3WRBLBQ2GRU63BU2LFOJL1G32T90GO","","null","<img src=""img/land5.png"" style=""width:200px;border:14px solid red;"">","null","","","","","","","","","",""
"","image-keyboard-response","312","106697","0.0-312.0","3PM8NZGV8Z27ZASLIPN4DC34Q6RXQQ","A50NVZ6AI91O","3WRBLBQ2GRU63BU2LFOJL1G32T90GO","","609.5999999046326","img/land4.png","74","610.8000001907349","1","1","1","1","0.8,0.2,0.2,0.2,0.8,0.2,0.2,0.2,0.8","0.8,0.2,0.2,0.2,0.8,0.2,0.2,0.2,0.8","1","",""
"","html-keyboard-response","313","107001","0.0-313.0","3PM8NZGV8Z27ZASLIPN4DC34Q6RXQQ","A50NVZ6AI91O","3WRBLBQ2GRU63BU2LFOJL1G32T90GO","","null","<img src=""img/land4.png"" style=""width:200px; border:14px solid green;"">","null","","","","","","","","","",""
"","image-keyboard-response","314","107346","0.0-314.0","3PM8NZGV8Z27ZASLIPN4DC34Q6RXQQ","A50NVZ6AI91O","3WRBLBQ2GRU63BU2LFOJL1G32T90GO","","343.5","img/land5.png","76","345.5","3","0","3","1","0.8,0.2,0.2,0.2,0.8,0.2,0.2,0.2,0.8","0.8,0.2,0.2,0.2,0.8,0.2,0.2,0.2,0.8","1","",""
"","html-keyboard-response","315","107649","0.0-315.0","3PM8NZGV8Z27ZASLIPN4DC34Q6RXQQ","A50NVZ6AI91O","3WRBLBQ2GRU63BU2LFOJL1G32T90GO","","null","<img src=""img/land5.png"" style=""width:200px;border:14px solid red;"">","null","","","","","","","","","",""
"","image-keyboard-response","316","107973","0.0-316.0","3PM8NZGV8Z27ZASLIPN4DC34Q6RXQQ","A50NVZ6AI91O","3WRBLBQ2GRU63BU2LFOJL1G32T90GO","","321.7000000476837","img/land5.png","75","323.5","2","1","3","1","0.8,0.2,0.2,0.2,0.8,0.2,0.2,0.2,0.8","0.8,0.2,0.2,0.2,0.8,0.2,0.2,0.2,0.8","1","",""
"","html-keyboard-response","317","108276","0.0-317.0","3PM8NZGV8Z27ZASLIPN4DC34Q6RXQQ","A50NVZ6AI91O","3WRBLBQ2GRU63BU2LFOJL1G32T90GO","","null","<img src=""img/land5.png"" style=""width:200px; border:14px solid green;"">","null","","","","","","","","","",""
"","image-keyboard-response","318","108979","0.0-318.0","3PM8NZGV8Z27ZASLIPN4DC34Q6RXQQ","A50NVZ6AI91O","3WRBLBQ2GRU63BU2LFOJL1G32T90GO","","700.7000000476837","img/land4.png","75","702.6000001430511","2","0","1","1","0.8,0.2,0.2,0.2,0.8,0.2,0.2,0.2,0.8","0.8,0.2,0.2,0.2,0.8,0.2,0.2,0.2,0.8","1","",""
"","html-keyboard-response","319","109282","0.0-319.0","3PM8NZGV8Z27ZASLIPN4DC34Q6RXQQ","A50NVZ6AI91O","3WRBLBQ2GRU63BU2LFOJL1G32T90GO","","null","<img src=""img/land4.png"" style=""width:200px;border:14px solid red;"">","null","","","","","","","","","",""
"","image-keyboard-response","320","110131","0.0-320.0","3PM8NZGV8Z27ZASLIPN4DC34Q6RXQQ","A50NVZ6AI91O","3WRBLBQ2GRU63BU2LFOJL1G32T90GO","","848.2999999523163","img/land4.png","74","849","1","1","1","1","0.8,0.2,0.2,0.2,0.8,0.2,0.2,0.2,0.8","0.8,0.2,0.2,0.2,0.8,0.2,0.2,0.2,0.8","1","",""
"","html-keyboard-response","321","110433","0.0-321.0","3PM8NZGV8Z27ZASLIPN4DC34Q6RXQQ","A50NVZ6AI91O","3WRBLBQ2GRU63BU2LFOJL1G32T90GO","","null","<img src=""img/land4.png"" style=""width:200px; border:14px solid green;"">","null","","","","","","","","","",""
"","image-keyboard-response","322","110754","0.0-322.0","3PM8NZGV8Z27ZASLIPN4DC34Q6RXQQ","A50NVZ6AI91O","3WRBLBQ2GRU63BU2LFOJL1G32T90GO","","318.2999999523163","img/land4.png","75","320.2000000476837","2","0","1","1","0.8,0.2,0.2,0.2,0.8,0.2,0.2,0.2,0.8","0.8,0.2,0.2,0.2,0.8,0.2,0.2,0.2,0.8","1","",""
"","html-keyboard-response","323","111057","0.0-323.0","3PM8NZGV8Z27ZASLIPN4DC34Q6RXQQ","A50NVZ6AI91O","3WRBLBQ2GRU63BU2LFOJL1G32T90GO","","null","<img src=""img/land4.png"" style=""width:200px;border:14px solid red;"">","null","","","","","","","","","",""
"","image-keyboard-response","324","111649","0.0-324.0","3PM8NZGV8Z27ZASLIPN4DC34Q6RXQQ","A50NVZ6AI91O","3WRBLBQ2GRU63BU2LFOJL1G32T90GO","","589.4000000953674","img/land4.png","76","591.5","3","0","1","1","0.8,0.2,0.2,0.2,0.8,0.2,0.2,0.2,0.8","0.8,0.2,0.2,0.2,0.8,0.2,0.2,0.2,0.8","1","",""
"","html-keyboard-response","325","111952","0.0-325.0","3PM8NZGV8Z27ZASLIPN4DC34Q6RXQQ","A50NVZ6AI91O","3WRBLBQ2GRU63BU2LFOJL1G32T90GO","","null","<img src=""img/land4.png"" style=""width:200px;border:14px solid red;"">","null","","","","","","","","","",""
"","image-keyboard-response","326","112385","0.0-326.0","3PM8NZGV8Z27ZASLIPN4DC34Q6RXQQ","A50NVZ6AI91O","3WRBLBQ2GRU63BU2LFOJL1G32T90GO","","430.5","img/land2.png","76","432.5","3","0","2","1","0.8,0.2,0.2,0.2,0.8,0.2,0.2,0.2,0.8","0.8,0.2,0.2,0.2,0.8,0.2,0.2,0.2,0.8","1","",""
"","html-keyboard-response","327","112687","0.0-327.0","3PM8NZGV8Z27ZASLIPN4DC34Q6RXQQ","A50NVZ6AI91O","3WRBLBQ2GRU63BU2LFOJL1G32T90GO","","null","<img src=""img/land2.png"" style=""width:200px;border:14px solid red;"">","null","","","","","","","","","",""
"","image-keyboard-response","328","113283","0.0-328.0","3PM8NZGV8Z27ZASLIPN4DC34Q6RXQQ","A50NVZ6AI91O","3WRBLBQ2GRU63BU2LFOJL1G32T90GO","","593","img/land2.png","76","595.3000001907349","3","1","2","1","0.8,0.2,0.2,0.2,0.8,0.2,0.2,0.2,0.8","0.8,0.2,0.2,0.2,0.8,0.2,0.2,0.2,0.8","1","",""
"","html-keyboard-response","329","113585","0.0-329.0","3PM8NZGV8Z27ZASLIPN4DC34Q6RXQQ","A50NVZ6AI91O","3WRBLBQ2GRU63BU2LFOJL1G32T90GO","","null","<img src=""img/land2.png"" style=""width:200px; border:14px solid green;"">","null","","","","","","","","","",""
"","image-keyboard-response","330","114034","0.0-330.0","3PM8NZGV8Z27ZASLIPN4DC34Q6RXQQ","A50NVZ6AI91O","3WRBLBQ2GRU63BU2LFOJL1G32T90GO","","446.69999980926514","img/land5.png","75","448.7000000476837","2","0","3","1","0.8,0.2,0.2,0.2,0.8,0.2,0.2,0.2,0.8","0.8,0.2,0.2,0.2,0.8,0.2,0.2,0.2,0.8","1","",""
"","html-keyboard-response","331","114348","0.0-331.0","3PM8NZGV8Z27ZASLIPN4DC34Q6RXQQ","A50NVZ6AI91O","3WRBLBQ2GRU63BU2LFOJL1G32T90GO","","null","<img src=""img/land5.png"" style=""width:200px;border:14px solid red;"">","null","","","","","","","","","",""
"","image-keyboard-response","332","114983","0.0-332.0","3PM8NZGV8Z27ZASLIPN4DC34Q6RXQQ","A50NVZ6AI91O","3WRBLBQ2GRU63BU2LFOJL1G32T90GO","","633.7999999523163","img/land2.png","75","635.0999999046326","2","1","2","1","0.8,0.2,0.2,0.2,0.8,0.2,0.2,0.2,0.8","0.8,0.2,0.2,0.2,0.8,0.2,0.2,0.2,0.8","1","",""
"","html-keyboard-response","333","115285","0.0-333.0","3PM8NZGV8Z27ZASLIPN4DC34Q6RXQQ","A50NVZ6AI91O","3WRBLBQ2GRU63BU2LFOJL1G32T90GO","","null","<img src=""img/land2.png"" style=""width:200px; border:14px solid green;"">","null","","","","","","","","","",""
"","image-keyboard-response","334","115684","0.0-334.0","3PM8NZGV8Z27ZASLIPN4DC34Q6RXQQ","A50NVZ6AI91O","3WRBLBQ2GRU63BU2LFOJL1G32T90GO","","396.90000009536743","img/land2.png","74","398.7999999523163","1","0","2","1","0.8,0.2,0.2,0.2,0.8,0.2,0.2,0.2,0.8","0.8,0.2,0.2,0.2,0.8,0.2,0.2,0.2,0.8","1","",""
"","html-keyboard-response","335","115987","0.0-335.0","3PM8NZGV8Z27ZASLIPN4DC34Q6RXQQ","A50NVZ6AI91O","3WRBLBQ2GRU63BU2LFOJL1G32T90GO","","null","<img src=""img/land2.png"" style=""width:200px;border:14px solid red;"">","null","","","","","","","","","",""
"","image-keyboard-response","336","116505","0.0-336.0","3PM8NZGV8Z27ZASLIPN4DC34Q6RXQQ","A50NVZ6AI91O","3WRBLBQ2GRU63BU2LFOJL1G32T90GO","","516.2999999523163","img/land4.png","75","517.4000000953674","2","0","1","1","0.8,0.2,0.2,0.2,0.8,0.2,0.2,0.2,0.8","0.8,0.2,0.2,0.2,0.8,0.2,0.2,0.2,0.8","1","",""
"","html-keyboard-response","337","116808","0.0-337.0","3PM8NZGV8Z27ZASLIPN4DC34Q6RXQQ","A50NVZ6AI91O","3WRBLBQ2GRU63BU2LFOJL1G32T90GO","","null","<img src=""img/land4.png"" style=""width:200px;border:14px solid red;"">","null","","","","","","","","","",""
"","image-keyboard-response","338","117196","0.0-338.0","3PM8NZGV8Z27ZASLIPN4DC34Q6RXQQ","A50NVZ6AI91O","3WRBLBQ2GRU63BU2LFOJL1G32T90GO","","385.59999990463257","img/land4.png","75","387.59999990463257","2","0","1","1","0.8,0.2,0.2,0.2,0.8,0.2,0.2,0.2,0.8","0.8,0.2,0.2,0.2,0.8,0.2,0.2,0.2,0.8","1","",""
"","html-keyboard-response","339","117499","0.0-339.0","3PM8NZGV8Z27ZASLIPN4DC34Q6RXQQ","A50NVZ6AI91O","3WRBLBQ2GRU63BU2LFOJL1G32T90GO","","null","<img src=""img/land4.png"" style=""width:200px;border:14px solid red;"">","null","","","","","","","","","",""
"","image-keyboard-response","340","117813","0.0-340.0","3PM8NZGV8Z27ZASLIPN4DC34Q6RXQQ","A50NVZ6AI91O","3WRBLBQ2GRU63BU2LFOJL1G32T90GO","","312.90000009536743","img/land4.png","76","314.09999990463257","3","0","1","1","0.8,0.2,0.2,0.2,0.8,0.2,0.2,0.2,0.8","0.8,0.2,0.2,0.2,0.8,0.2,0.2,0.2,0.8","1","",""
"","html-keyboard-response","341","118115","0.0-341.0","3PM8NZGV8Z27ZASLIPN4DC34Q6RXQQ","A50NVZ6AI91O","3WRBLBQ2GRU63BU2LFOJL1G32T90GO","","null","<img src=""img/land4.png"" style=""width:200px;border:14px solid red;"">","null","","","","","","","","","",""
"","image-keyboard-response","342","118318","0.0-342.0","3PM8NZGV8Z27ZASLIPN4DC34Q6RXQQ","A50NVZ6AI91O","3WRBLBQ2GRU63BU2LFOJL1G32T90GO","","201.79999995231628","img/land2.png","74","202.59999990463257","1","1","2","1","0.8,0.2,0.2,0.2,0.8,0.2,0.2,0.2,0.8","0.8,0.2,0.2,0.2,0.8,0.2,0.2,0.2,0.8","1","",""
"","html-keyboard-response","343","118620","0.0-343.0","3PM8NZGV8Z27ZASLIPN4DC34Q6RXQQ","A50NVZ6AI91O","3WRBLBQ2GRU63BU2LFOJL1G32T90GO","","null","<img src=""img/land2.png"" style=""width:200px; border:14px solid green;"">","null","","","","","","","","","",""
"","image-keyboard-response","344","118929","0.0-344.0","3PM8NZGV8Z27ZASLIPN4DC34Q6RXQQ","A50NVZ6AI91O","3WRBLBQ2GRU63BU2LFOJL1G32T90GO","","306.5","img/land2.png","75","308.40000009536743","2","1","2","1","0.8,0.2,0.2,0.2,0.8,0.2,0.2,0.2,0.8","0.8,0.2,0.2,0.2,0.8,0.2,0.2,0.2,0.8","1","",""
"","html-keyboard-response","345","119231","0.0-345.0","3PM8NZGV8Z27ZASLIPN4DC34Q6RXQQ","A50NVZ6AI91O","3WRBLBQ2GRU63BU2LFOJL1G32T90GO","","null","<img src=""img/land2.png"" style=""width:200px; border:14px solid green;"">","null","","","","","","","","","",""
"","image-keyboard-response","346","119403","0.0-346.0","3PM8NZGV8Z27ZASLIPN4DC34Q6RXQQ","A50NVZ6AI91O","3WRBLBQ2GRU63BU2LFOJL1G32T90GO","","169.69999980926514","img/land2.png","76","171.59999990463257","3","0","2","1","0.8,0.2,0.2,0.2,0.8,0.2,0.2,0.2,0.8","0.8,0.2,0.2,0.2,0.8,0.2,0.2,0.2,0.8","1","",""
"","html-keyboard-response","347","119706","0.0-347.0","3PM8NZGV8Z27ZASLIPN4DC34Q6RXQQ","A50NVZ6AI91O","3WRBLBQ2GRU63BU2LFOJL1G32T90GO","","null","<img src=""img/land2.png"" style=""width:200px;border:14px solid red;"">","null","","","","","","","","","",""
"","image-keyboard-response","348","119922","0.0-348.0","3PM8NZGV8Z27ZASLIPN4DC34Q6RXQQ","A50NVZ6AI91O","3WRBLBQ2GRU63BU2LFOJL1G32T90GO","","213.59999990463257","img/land4.png","75","215.70000004768372","2","0","1","1","0.8,0.2,0.2,0.2,0.8,0.2,0.2,0.2,0.8","0.8,0.2,0.2,0.2,0.8,0.2,0.2,0.2,0.8","1","",""
"","html-keyboard-response","349","120225","0.0-349.0","3PM8NZGV8Z27ZASLIPN4DC34Q6RXQQ","A50NVZ6AI91O","3WRBLBQ2GRU63BU2LFOJL1G32T90GO","","null","<img src=""img/land4.png"" style=""width:200px;border:14px solid red;"">","null","","","","","","","","","",""
"","image-keyboard-response","350","120347","0.0-350.0","3PM8NZGV8Z27ZASLIPN4DC34Q6RXQQ","A50NVZ6AI91O","3WRBLBQ2GRU63BU2LFOJL1G32T90GO","","119","img/land2.png","74","120.70000004768372","1","0","2","1","0.8,0.2,0.2,0.2,0.8,0.2,0.2,0.2,0.8","0.8,0.2,0.2,0.2,0.8,0.2,0.2,0.2,0.8","1","",""
"","html-keyboard-response","351","120650","0.0-351.0","3PM8NZGV8Z27ZASLIPN4DC34Q6RXQQ","A50NVZ6AI91O","3WRBLBQ2GRU63BU2LFOJL1G32T90GO","","null","<img src=""img/land2.png"" style=""width:200px;border:14px solid red;"">","null","","","","","","","","","",""
"","image-keyboard-response","352","120808","0.0-352.0","3PM8NZGV8Z27ZASLIPN4DC34Q6RXQQ","A50NVZ6AI91O","3WRBLBQ2GRU63BU2LFOJL1G32T90GO","","155.59999990463257","img/land5.png","75","157.70000004768372","2","0","3","1","0.8,0.2,0.2,0.2,0.8,0.2,0.2,0.2,0.8","0.8,0.2,0.2,0.2,0.8,0.2,0.2,0.2,0.8","1","",""
"","html-keyboard-response","353","121111","0.0-353.0","3PM8NZGV8Z27ZASLIPN4DC34Q6RXQQ","A50NVZ6AI91O","3WRBLBQ2GRU63BU2LFOJL1G32T90GO","","null","<img src=""img/land5.png"" style=""width:200px;border:14px solid red;"">","null","","","","","","","","","",""
"","image-keyboard-response","354","121270","0.0-354.0","3PM8NZGV8Z27ZASLIPN4DC34Q6RXQQ","A50NVZ6AI91O","3WRBLBQ2GRU63BU2LFOJL1G32T90GO","","157.59999990463257","img/land5.png","76","158.79999995231628","3","1","3","1","0.8,0.2,0.2,0.2,0.8,0.2,0.2,0.2,0.8","0.8,0.2,0.2,0.2,0.8,0.2,0.2,0.2,0.8","1","",""
"","html-keyboard-response","355","121572","0.0-355.0","3PM8NZGV8Z27ZASLIPN4DC34Q6RXQQ","A50NVZ6AI91O","3WRBLBQ2GRU63BU2LFOJL1G32T90GO","","null","<img src=""img/land5.png"" style=""width:200px; border:14px solid green;"">","null","","","","","","","","","",""
"","image-keyboard-response","356","121852","0.0-356.0","3PM8NZGV8Z27ZASLIPN4DC34Q6RXQQ","A50NVZ6AI91O","3WRBLBQ2GRU63BU2LFOJL1G32T90GO","","277.7000000476837","img/land5.png","75","279.5","2","0","3","1","0.8,0.2,0.2,0.2,0.8,0.2,0.2,0.2,0.8","0.8,0.2,0.2,0.2,0.8,0.2,0.2,0.2,0.8","1","",""
"","html-keyboard-response","357","122155","0.0-357.0","3PM8NZGV8Z27ZASLIPN4DC34Q6RXQQ","A50NVZ6AI91O","3WRBLBQ2GRU63BU2LFOJL1G32T90GO","","null","<img src=""img/land5.png"" style=""width:200px;border:14px solid red;"">","null","","","","","","","","","",""
"","image-keyboard-response","358","122373","0.0-358.0","3PM8NZGV8Z27ZASLIPN4DC34Q6RXQQ","A50NVZ6AI91O","3WRBLBQ2GRU63BU2LFOJL1G32T90GO","","216.30000019073486","img/land2.png","74","217.79999995231628","1","1","2","1","0.8,0.2,0.2,0.2,0.8,0.2,0.2,0.2,0.8","0.8,0.2,0.2,0.2,0.8,0.2,0.2,0.2,0.8","1","",""
