"success","trial_type","trial_index","time_elapsed","internal_node_id","assignmentID","mturkID","hitID","view_history","rt","stimulus","key_press","reactionTime","a","r","s","cond","reward_cond","reward_cond_actual","reward_matrix_idx","responses","question_order"
"true","fullscreen","0","3978","0.0-0.0","3TAYZSBPLMUIBA41M4RGIMO9VEI2S2","A598UDLZZZAJ3","3PIOQ99R7Y8STPN46QFY0SD7JTFNU0","","","","","","","","","","","","","",""
"","instructions","1","57263","0.0-1.0","3TAYZSBPLMUIBA41M4RGIMO9VEI2S2","A598UDLZZZAJ3","3PIOQ99R7Y8STPN46QFY0SD7JTFNU0","[{""page_index"":0,""viewing_time"":8278.699999988079},{""page_index"":1,""viewing_time"":2593.300000011921},{""page_index"":2,""viewing_time"":1967},{""page_index"":3,""viewing_time"":14570.800000011921},{""page_index"":4,""viewing_time"":13261.799999952316},{""page_index"":5,""viewing_time"":7164.700000047684},{""page_index"":6,""viewing_time"":5445.299999952316}]","53282.09999996424","","","","","","","","","","","",""
"","image-keyboard-response","2","58707","0.0-2.0","3TAYZSBPLMUIBA41M4RGIMO9VEI2S2","A598UDLZZZAJ3","3PIOQ99R7Y8STPN46QFY0SD7JTFNU0","","1441.0999999642372","img/land6.png","74","1443.4000000357628","1","0","2","1","0.8,0.2,0.2,0.2,0.8,0.2,0.2,0.2,0.8","0.8,0.2,0.2,0.2,0.8,0.2,0.2,0.2,0.8","1","",""
"","html-keyboard-response","3","59011","0.0-3.0","3TAYZSBPLMUIBA41M4RGIMO9VEI2S2","A598UDLZZZAJ3","3PIOQ99R7Y8STPN46QFY0SD7JTFNU0","","null","<img src=""img/land6.png"" style=""width:200px;border:14px solid red;"">","null","","","","","","","","","",""
"","image-keyboard-response","4","60091","0.0-4.0","3TAYZSBPLMUIBA41M4RGIMO9VEI2S2","A598UDLZZZAJ3","3PIOQ99R7Y8STPN46QFY0SD7JTFNU0","","1077.5","img/land1.png","74","1080","1","1","1","1","0.8,0.2,0.2,0.2,0.8,0.2,0.2,0.2,0.8","0.8,0.2,0.2,0.2,0.8,0.2,0.2,0.2,0.8","1","",""
"","html-keyboard-response","5","60393","0.0-5.0","3TAYZSBPLMUIBA41M4RGIMO9VEI2S2","A598UDLZZZAJ3","3PIOQ99R7Y8STPN46QFY0SD7JTFNU0","","null","<img src=""img/land1.png"" style=""width:200px; border:14px solid green;"">","null","","","","","","","","","",""
"","image-keyboard-response","6","61382","0.0-6.0","3TAYZSBPLMUIBA41M4RGIMO9VEI2S2","A598UDLZZZAJ3","3PIOQ99R7Y8STPN46QFY0SD7JTFNU0","","988","img/land6.png","75","988.8000000119209","2","1","2","1","0.8,0.2,0.2,0.2,0.8,0.2,0.2,0.2,0.8","0.8,0.2,0.2,0.2,0.8,0.2,0.2,0.2,0.8","1","",""
"","html-keyboard-response","7","61684","0.0-7.0","3TAYZSBPLMUIBA41M4RGIMO9VEI2S2","A598UDLZZZAJ3","3PIOQ99R7Y8STPN46QFY0SD7JTFNU0","","null","<img src=""img/land6.png"" style=""width:200px; border:14px solid green;"">","null","","","","","","","","","",""
"","image-keyboard-response","8","62490","0.0-8.0","3TAYZSBPLMUIBA41M4RGIMO9VEI2S2","A598UDLZZZAJ3","3PIOQ99R7Y8STPN46QFY0SD7JTFNU0","","804.8000000119209","img/land1.png","76","805.8999999761581","3","0","1","1","0.8,0.2,0.2,0.2,0.8,0.2,0.2,0.2,0.8","0.8,0.2,0.2,0.2,0.8,0.2,0.2,0.2,0.8","1","",""
"","html-keyboard-response","9","62792","0.0-9.0","3TAYZSBPLMUIBA41M4RGIMO9VEI2S2","A598UDLZZZAJ3","3PIOQ99R7Y8STPN46QFY0SD7JTFNU0","","null","<img src=""img/land1.png"" style=""width:200px;border:14px solid red;"">","null","","","","","","","","","",""
"","image-keyboard-response","10","63661","0.0-10.0","3TAYZSBPLMUIBA41M4RGIMO9VEI2S2","A598UDLZZZAJ3","3PIOQ99R7Y8STPN46QFY0SD7JTFNU0","","866.6999999880791","img/land1.png","75","868.3000000119209","2","0","1","1","0.8,0.2,0.2,0.2,0.8,0.2,0.2,0.2,0.8","0.8,0.2,0.2,0.2,0.8,0.2,0.2,0.2,0.8","1","",""
"","html-keyboard-response","11","63964","0.0-11.0","3TAYZSBPLMUIBA41M4RGIMO9VEI2S2","A598UDLZZZAJ3","3PIOQ99R7Y8STPN46QFY0SD7JTFNU0","","null","<img src=""img/land1.png"" style=""width:200px;border:14px solid red;"">","null","","","","","","","","","",""
"","image-keyboard-response","12","64890","0.0-12.0","3TAYZSBPLMUIBA41M4RGIMO9VEI2S2","A598UDLZZZAJ3","3PIOQ99R7Y8STPN46QFY0SD7JTFNU0","","924.1000000238419","img/land6.png","74","925.5999999642372","1","0","2","1","0.8,0.2,0.2,0.2,0.8,0.2,0.2,0.2,0.8","0.8,0.2,0.2,0.2,0.8,0.2,0.2,0.2,0.8","1","",""
"","html-keyboard-response","13","65192","0.0-13.0","3TAYZSBPLMUIBA41M4RGIMO9VEI2S2","A598UDLZZZAJ3","3PIOQ99R7Y8STPN46QFY0SD7JTFNU0","","null","<img src=""img/land6.png"" style=""width:200px;border:14px solid red;"">","null","","","","","","","","","",""
"","image-keyboard-response","14","66178","0.0-14.0","3TAYZSBPLMUIBA41M4RGIMO9VEI2S2","A598UDLZZZAJ3","3PIOQ99R7Y8STPN46QFY0SD7JTFNU0","","984.8999999761581","img/land6.png","75","985.9000000357628","2","1","2","1","0.8,0.2,0.2,0.2,0.8,0.2,0.2,0.2,0.8","0.8,0.2,0.2,0.2,0.8,0.2,0.2,0.2,0.8","1","",""
"","html-keyboard-response","15","66480","0.0-15.0","3TAYZSBPLMUIBA41M4RGIMO9VEI2S2","A598UDLZZZAJ3","3PIOQ99R7Y8STPN46QFY0SD7JTFNU0","","null","<img src=""img/land6.png"" style=""width:200px; border:14px solid green;"">","null","","","","","","","","","",""
"","image-keyboard-response","16","67562","0.0-16.0","3TAYZSBPLMUIBA41M4RGIMO9VEI2S2","A598UDLZZZAJ3","3PIOQ99R7Y8STPN46QFY0SD7JTFNU0","","1079.3999999761581","img/land6.png","75","1080.800000011921","2","0","2","1","0.8,0.2,0.2,0.2,0.8,0.2,0.2,0.2,0.8","0.8,0.2,0.2,0.2,0.8,0.2,0.2,0.2,0.8","1","",""
"","html-keyboard-response","17","67864","0.0-17.0","3TAYZSBPLMUIBA41M4RGIMO9VEI2S2","A598UDLZZZAJ3","3PIOQ99R7Y8STPN46QFY0SD7JTFNU0","","null","<img src=""img/land6.png"" style=""width:200px;border:14px solid red;"">","null","","","","","","","","","",""
"","image-keyboard-response","18","68750","0.0-18.0","3TAYZSBPLMUIBA41M4RGIMO9VEI2S2","A598UDLZZZAJ3","3PIOQ99R7Y8STPN46QFY0SD7JTFNU0","","884.8000000119209","img/land1.png","76","885.9000000357628","3","0","1","1","0.8,0.2,0.2,0.2,0.8,0.2,0.2,0.2,0.8","0.8,0.2,0.2,0.2,0.8,0.2,0.2,0.2,0.8","1","",""
"","html-keyboard-response","19","69052","0.0-19.0","3TAYZSBPLMUIBA41M4RGIMO9VEI2S2","A598UDLZZZAJ3","3PIOQ99R7Y8STPN46QFY0SD7JTFNU0","","null","<img src=""img/land1.png"" style=""width:200px;border:14px solid red;"">","null","","","","","","","","","",""
"","image-keyboard-response","20","70300","0.0-20.0","3TAYZSBPLMUIBA41M4RGIMO9VEI2S2","A598UDLZZZAJ3","3PIOQ99R7Y8STPN46QFY0SD7JTFNU0","","1245.3999999761581","img/land5.png","74","1247.199999988079","1","0","3","1","0.8,0.2,0.2,0.2,0.8,0.2,0.2,0.2,0.8","0.8,0.2,0.2,0.2,0.8,0.2,0.2,0.2,0.8","1","",""
"","html-keyboard-response","21","70603","0.0-21.0","3TAYZSBPLMUIBA41M4RGIMO9VEI2S2","A598UDLZZZAJ3","3PIOQ99R7Y8STPN46QFY0SD7JTFNU0","","null","<img src=""img/land5.png"" style=""width:200px;border:14px solid red;"">","null","","","","","","","","","",""
"","image-keyboard-response","22","72020","0.0-22.0","3TAYZSBPLMUIBA41M4RGIMO9VEI2S2","A598UDLZZZAJ3","3PIOQ99R7Y8STPN46QFY0SD7JTFNU0","","1415.800000011921","img/land5.png","74","1417","1","0","3","1","0.8,0.2,0.2,0.2,0.8,0.2,0.2,0.2,0.8","0.8,0.2,0.2,0.2,0.8,0.2,0.2,0.2,0.8","1","",""
"","html-keyboard-response","23","72322","0.0-23.0","3TAYZSBPLMUIBA41M4RGIMO9VEI2S2","A598UDLZZZAJ3","3PIOQ99R7Y8STPN46QFY0SD7JTFNU0","","null","<img src=""img/land5.png"" style=""width:200px;border:14px solid red;"">","null","","","","","","","","","",""
"","image-keyboard-response","24","73781","0.0-24.0","3TAYZSBPLMUIBA41M4RGIMO9VEI2S2","A598UDLZZZAJ3","3PIOQ99R7Y8STPN46QFY0SD7JTFNU0","","1456.699999988079","img/land6.png","76","1458.300000011921","3","1","2","1","0.8,0.2,0.2,0.2,0.8,0.2,0.2,0.2,0.8","0.8,0.2,0.2,0.2,0.8,0.2,0.2,0.2,0.8","1","",""
"","html-keyboard-response","25","74084","0.0-25.0","3TAYZSBPLMUIBA41M4RGIMO9VEI2S2","A598UDLZZZAJ3","3PIOQ99R7Y8STPN46QFY0SD7JTFNU0","","null","<img src=""img/land6.png"" style=""width:200px; border:14px solid green;"">","null","","","","","","","","","",""
"","image-keyboard-response","26","75334","0.0-26.0","3TAYZSBPLMUIBA41M4RGIMO9VEI2S2","A598UDLZZZAJ3","3PIOQ99R7Y8STPN46QFY0SD7JTFNU0","","1249","img/land1.png","75","1250.5","2","0","1","1","0.8,0.2,0.2,0.2,0.8,0.2,0.2,0.2,0.8","0.8,0.2,0.2,0.2,0.8,0.2,0.2,0.2,0.8","1","",""
"","html-keyboard-response","27","75636","0.0-27.0","3TAYZSBPLMUIBA41M4RGIMO9VEI2S2","A598UDLZZZAJ3","3PIOQ99R7Y8STPN46QFY0SD7JTFNU0","","null","<img src=""img/land1.png"" style=""width:200px;border:14px solid red;"">","null","","","","","","","","","",""
"","image-keyboard-response","28","76414","0.0-28.0","3TAYZSBPLMUIBA41M4RGIMO9VEI2S2","A598UDLZZZAJ3","3PIOQ99R7Y8STPN46QFY0SD7JTFNU0","","777","img/land6.png","74","778","1","0","2","1","0.8,0.2,0.2,0.2,0.8,0.2,0.2,0.2,0.8","0.8,0.2,0.2,0.2,0.8,0.2,0.2,0.2,0.8","1","",""
"","html-keyboard-response","29","76716","0.0-29.0","3TAYZSBPLMUIBA41M4RGIMO9VEI2S2","A598UDLZZZAJ3","3PIOQ99R7Y8STPN46QFY0SD7JTFNU0","","null","<img src=""img/land6.png"" style=""width:200px;border:14px solid red;"">","null","","","","","","","","","",""
"","image-keyboard-response","30","77899","0.0-30.0","3TAYZSBPLMUIBA41M4RGIMO9VEI2S2","A598UDLZZZAJ3","3PIOQ99R7Y8STPN46QFY0SD7JTFNU0","","1180.9000000357628","img/land5.png","74","1182.5","1","0","3","1","0.8,0.2,0.2,0.2,0.8,0.2,0.2,0.2,0.8","0.8,0.2,0.2,0.2,0.8,0.2,0.2,0.2,0.8","1","",""
"","html-keyboard-response","31","78201","0.0-31.0","3TAYZSBPLMUIBA41M4RGIMO9VEI2S2","A598UDLZZZAJ3","3PIOQ99R7Y8STPN46QFY0SD7JTFNU0","","null","<img src=""img/land5.png"" style=""width:200px;border:14px solid red;"">","null","","","","","","","","","",""
"","image-keyboard-response","32","79225","0.0-32.0","3TAYZSBPLMUIBA41M4RGIMO9VEI2S2","A598UDLZZZAJ3","3PIOQ99R7Y8STPN46QFY0SD7JTFNU0","","1021.6999999880791","img/land1.png","76","1023.0999999642372","3","1","1","1","0.8,0.2,0.2,0.2,0.8,0.2,0.2,0.2,0.8","0.8,0.2,0.2,0.2,0.8,0.2,0.2,0.2,0.8","1","",""
"","html-keyboard-response","33","79526","0.0-33.0","3TAYZSBPLMUIBA41M4RGIMO9VEI2S2","A598UDLZZZAJ3","3PIOQ99R7Y8STPN46QFY0SD7JTFNU0","","null","<img src=""img/land1.png"" style=""width:200px; border:14px solid green;"">","null","","","","","","","","","",""
"","image-keyboard-response","34","80787","0.0-34.0","3TAYZSBPLMUIBA41M4RGIMO9VEI2S2","A598UDLZZZAJ3","3PIOQ99R7Y8STPN46QFY0SD7JTFNU0","","1259.2000000476837","img/land5.png","75","1260.6000000238419","2","0","3","1","0.8,0.2,0.2,0.2,0.8,0.2,0.2,0.2,0.8","0.8,0.2,0.2,0.2,0.8,0.2,0.2,0.2,0.8","1","",""
"","html-keyboard-response","35","81090","0.0-35.0","3TAYZSBPLMUIBA41M4RGIMO9VEI2S2","A598UDLZZZAJ3","3PIOQ99R7Y8STPN46QFY0SD7JTFNU0","","null","<img src=""img/land5.png"" style=""width:200px;border:14px solid red;"">","null","","","","","","","","","",""
"","image-keyboard-response","36","81745","0.0-36.0","3TAYZSBPLMUIBA41M4RGIMO9VEI2S2","A598UDLZZZAJ3","3PIOQ99R7Y8STPN46QFY0SD7JTFNU0","","653.0999999642372","img/land6.png","74","654.4000000357628","1","0","2","1","0.8,0.2,0.2,0.2,0.8,0.2,0.2,0.2,0.8","0.8,0.2,0.2,0.2,0.8,0.2,0.2,0.2,0.8","1","",""
"","html-keyboard-response","37","82047","0.0-37.0","3TAYZSBPLMUIBA41M4RGIMO9VEI2S2","A598UDLZZZAJ3","3PIOQ99R7Y8STPN46QFY0SD7JTFNU0","","null","<img src=""img/land6.png"" style=""width:200px;border:14px solid red;"">","null","","","","","","","","","",""
"","image-keyboard-response","38","82961","0.0-38.0","3TAYZSBPLMUIBA41M4RGIMO9VEI2S2","A598UDLZZZAJ3","3PIOQ99R7Y8STPN46QFY0SD7JTFNU0","","911.9000000357628","img/land1.png","76","913.1000000238419","3","1","1","1","0.8,0.2,0.2,0.2,0.8,0.2,0.2,0.2,0.8","0.8,0.2,0.2,0.2,0.8,0.2,0.2,0.2,0.8","1","",""
"","html-keyboard-response","39","83263","0.0-39.0","3TAYZSBPLMUIBA41M4RGIMO9VEI2S2","A598UDLZZZAJ3","3PIOQ99R7Y8STPN46QFY0SD7JTFNU0","","null","<img src=""img/land1.png"" style=""width:200px; border:14px solid green;"">","null","","","","","","","","","",""
"","image-keyboard-response","40","84309","0.0-40.0","3TAYZSBPLMUIBA41M4RGIMO9VEI2S2","A598UDLZZZAJ3","3PIOQ99R7Y8STPN46QFY0SD7JTFNU0","","1042.8999999761581","img/land5.png","75","1044.9000000357628","2","0","3","1","0.8,0.2,0.2,0.2,0.8,0.2,0.2,0.2,0.8","0.8,0.2,0.2,0.2,0.8,0.2,0.2,0.2,0.8","1","",""
"","html-keyboard-response","41","84612","0.0-41.0","3TAYZSBPLMUIBA41M4RGIMO9VEI2S2","A598UDLZZZAJ3","3PIOQ99R7Y8STPN46QFY0SD7JTFNU0","","null","<img src=""img/land5.png"" style=""width:200px;border:14px solid red;"">","null","","","","","","","","","",""
"","image-keyboard-response","42","85687","0.0-42.0","3TAYZSBPLMUIBA41M4RGIMO9VEI2S2","A598UDLZZZAJ3","3PIOQ99R7Y8STPN46QFY0SD7JTFNU0","","1073.4000000357628","img/land1.png","76","1074.800000011921","3","0","1","1","0.8,0.2,0.2,0.2,0.8,0.2,0.2,0.2,0.8","0.8,0.2,0.2,0.2,0.8,0.2,0.2,0.2,0.8","1","",""
"","html-keyboard-response","43","85991","0.0-43.0","3TAYZSBPLMUIBA41M4RGIMO9VEI2S2","A598UDLZZZAJ3","3PIOQ99R7Y8STPN46QFY0SD7JTFNU0","","null","<img src=""img/land1.png"" style=""width:200px;border:14px solid red;"">","null","","","","","","","","","",""
"","image-keyboard-response","44","86647","0.0-44.0","3TAYZSBPLMUIBA41M4RGIMO9VEI2S2","A598UDLZZZAJ3","3PIOQ99R7Y8STPN46QFY0SD7JTFNU0","","653.6999999880791","img/land6.png","74","655.1000000238419","1","0","2","1","0.8,0.2,0.2,0.2,0.8,0.2,0.2,0.2,0.8","0.8,0.2,0.2,0.2,0.8,0.2,0.2,0.2,0.8","1","",""
"","html-keyboard-response","45","86950","0.0-45.0","3TAYZSBPLMUIBA41M4RGIMO9VEI2S2","A598UDLZZZAJ3","3PIOQ99R7Y8STPN46QFY0SD7JTFNU0","","null","<img src=""img/land6.png"" style=""width:200px;border:14px solid red;"">","null","","","","","","","","","",""
"","image-keyboard-response","46","88953","0.0-46.0","3TAYZSBPLMUIBA41M4RGIMO9VEI2S2","A598UDLZZZAJ3","3PIOQ99R7Y8STPN46QFY0SD7JTFNU0","","","img/land6.png","","2002.699999988079","-1","0","2","1","0.8,0.2,0.2,0.2,0.8,0.2,0.2,0.2,0.8","0.8,0.2,0.2,0.2,0.8,0.2,0.2,0.2,0.8","1","",""
"","html-keyboard-response","47","89256","0.0-47.0","3TAYZSBPLMUIBA41M4RGIMO9VEI2S2","A598UDLZZZAJ3","3PIOQ99R7Y8STPN46QFY0SD7JTFNU0","","null","<img src=""img/land6.png"" style=""width:200px;border:14px solid red;"">","null","","","","","","","","","",""
"","image-keyboard-response","48","89799","0.0-48.0","3TAYZSBPLMUIBA41M4RGIMO9VEI2S2","A598UDLZZZAJ3","3PIOQ99R7Y8STPN46QFY0SD7JTFNU0","","541.3999999761581","img/land5.png","74","542.8000000119209","1","1","3","1","0.8,0.2,0.2,0.2,0.8,0.2,0.2,0.2,0.8","0.8,0.2,0.2,0.2,0.8,0.2,0.2,0.2,0.8","1","",""
"","html-keyboard-response","49","90101","0.0-49.0","3TAYZSBPLMUIBA41M4RGIMO9VEI2S2","A598UDLZZZAJ3","3PIOQ99R7Y8STPN46QFY0SD7JTFNU0","","null","<img src=""img/land5.png"" style=""width:200px; border:14px solid green;"">","null","","","","","","","","","",""
"","image-keyboard-response","50","90627","0.0-50.0","3TAYZSBPLMUIBA41M4RGIMO9VEI2S2","A598UDLZZZAJ3","3PIOQ99R7Y8STPN46QFY0SD7JTFNU0","","524.8999999761581","img/land5.png","74","526.2999999523163","1","1","3","1","0.8,0.2,0.2,0.2,0.8,0.2,0.2,0.2,0.8","0.8,0.2,0.2,0.2,0.8,0.2,0.2,0.2,0.8","1","",""
"","html-keyboard-response","51","90931","0.0-51.0","3TAYZSBPLMUIBA41M4RGIMO9VEI2S2","A598UDLZZZAJ3","3PIOQ99R7Y8STPN46QFY0SD7JTFNU0","","null","<img src=""img/land5.png"" style=""width:200px; border:14px solid green;"">","null","","","","","","","","","",""
"","image-keyboard-response","52","91589","0.0-52.0","3TAYZSBPLMUIBA41M4RGIMO9VEI2S2","A598UDLZZZAJ3","3PIOQ99R7Y8STPN46QFY0SD7JTFNU0","","656.0999999642372","img/land5.png","74","657.5","1","1","3","1","0.8,0.2,0.2,0.2,0.8,0.2,0.2,0.2,0.8","0.8,0.2,0.2,0.2,0.8,0.2,0.2,0.2,0.8","1","",""
"","html-keyboard-response","53","91891","0.0-53.0","3TAYZSBPLMUIBA41M4RGIMO9VEI2S2","A598UDLZZZAJ3","3PIOQ99R7Y8STPN46QFY0SD7JTFNU0","","null","<img src=""img/land5.png"" style=""width:200px; border:14px solid green;"">","null","","","","","","","","","",""
"","image-keyboard-response","54","92785","0.0-54.0","3TAYZSBPLMUIBA41M4RGIMO9VEI2S2","A598UDLZZZAJ3","3PIOQ99R7Y8STPN46QFY0SD7JTFNU0","","892.1999999880791","img/land5.png","74","893.7000000476837","1","0","3","1","0.8,0.2,0.2,0.2,0.8,0.2,0.2,0.2,0.8","0.8,0.2,0.2,0.2,0.8,0.2,0.2,0.2,0.8","1","",""
"","html-keyboard-response","55","93088","0.0-55.0","3TAYZSBPLMUIBA41M4RGIMO9VEI2S2","A598UDLZZZAJ3","3PIOQ99R7Y8STPN46QFY0SD7JTFNU0","","null","<img src=""img/land5.png"" style=""width:200px;border:14px solid red;"">","null","","","","","","","","","",""
"","image-keyboard-response","56","93832","0.0-56.0","3TAYZSBPLMUIBA41M4RGIMO9VEI2S2","A598UDLZZZAJ3","3PIOQ99R7Y8STPN46QFY0SD7JTFNU0","","743.1000000238419","img/land1.png","75","744.4000000357628","2","0","1","1","0.8,0.2,0.2,0.2,0.8,0.2,0.2,0.2,0.8","0.8,0.2,0.2,0.2,0.8,0.2,0.2,0.2,0.8","1","",""
"","html-keyboard-response","57","94134","0.0-57.0","3TAYZSBPLMUIBA41M4RGIMO9VEI2S2","A598UDLZZZAJ3","3PIOQ99R7Y8STPN46QFY0SD7JTFNU0","","null","<img src=""img/land1.png"" style=""width:200px;border:14px solid red;"">","null","","","","","","","","","",""
"","image-keyboard-response","58","94574","0.0-58.0","3TAYZSBPLMUIBA41M4RGIMO9VEI2S2","A598UDLZZZAJ3","3PIOQ99R7Y8STPN46QFY0SD7JTFNU0","","437.69999998807907","img/land6.png","76","439","3","0","2","1","0.8,0.2,0.2,0.2,0.8,0.2,0.2,0.2,0.8","0.8,0.2,0.2,0.2,0.8,0.2,0.2,0.2,0.8","1","",""
"","html-keyboard-response","59","94876","0.0-59.0","3TAYZSBPLMUIBA41M4RGIMO9VEI2S2","A598UDLZZZAJ3","3PIOQ99R7Y8STPN46QFY0SD7JTFNU0","","null","<img src=""img/land6.png"" style=""width:200px;border:14px solid red;"">","null","","","","","","","","","",""
"","image-keyboard-response","60","95707","0.0-60.0","3TAYZSBPLMUIBA41M4RGIMO9VEI2S2","A598UDLZZZAJ3","3PIOQ99R7Y8STPN46QFY0SD7JTFNU0","","829.1999999880791","img/land1.png","75","830.5","2","0","1","1","0.8,0.2,0.2,0.2,0.8,0.2,0.2,0.2,0.8","0.8,0.2,0.2,0.2,0.8,0.2,0.2,0.2,0.8","1","",""
"","html-keyboard-response","61","96009","0.0-61.0","3TAYZSBPLMUIBA41M4RGIMO9VEI2S2","A598UDLZZZAJ3","3PIOQ99R7Y8STPN46QFY0SD7JTFNU0","","null","<img src=""img/land1.png"" style=""width:200px;border:14px solid red;"">","null","","","","","","","","","",""
"","image-keyboard-response","62","96799","0.0-62.0","3TAYZSBPLMUIBA41M4RGIMO9VEI2S2","A598UDLZZZAJ3","3PIOQ99R7Y8STPN46QFY0SD7JTFNU0","","788","img/land5.png","74","789.3000000119209","1","0","3","1","0.8,0.2,0.2,0.2,0.8,0.2,0.2,0.2,0.8","0.8,0.2,0.2,0.2,0.8,0.2,0.2,0.2,0.8","1","",""
"","html-keyboard-response","63","97101","0.0-63.0","3TAYZSBPLMUIBA41M4RGIMO9VEI2S2","A598UDLZZZAJ3","3PIOQ99R7Y8STPN46QFY0SD7JTFNU0","","null","<img src=""img/land5.png"" style=""width:200px;border:14px solid red;"">","null","","","","","","","","","",""
"","image-keyboard-response","64","97868","0.0-64.0","3TAYZSBPLMUIBA41M4RGIMO9VEI2S2","A598UDLZZZAJ3","3PIOQ99R7Y8STPN46QFY0SD7JTFNU0","","764.6999999880791","img/land1.png","75","766","2","0","1","1","0.8,0.2,0.2,0.2,0.8,0.2,0.2,0.2,0.8","0.8,0.2,0.2,0.2,0.8,0.2,0.2,0.2,0.8","1","",""
"","html-keyboard-response","65","98171","0.0-65.0","3TAYZSBPLMUIBA41M4RGIMO9VEI2S2","A598UDLZZZAJ3","3PIOQ99R7Y8STPN46QFY0SD7JTFNU0","","null","<img src=""img/land1.png"" style=""width:200px;border:14px solid red;"">","null","","","","","","","","","",""
"","image-keyboard-response","66","98791","0.0-66.0","3TAYZSBPLMUIBA41M4RGIMO9VEI2S2","A598UDLZZZAJ3","3PIOQ99R7Y8STPN46QFY0SD7JTFNU0","","618.1999999880791","img/land1.png","76","619.5","3","0","1","1","0.8,0.2,0.2,0.2,0.8,0.2,0.2,0.2,0.8","0.8,0.2,0.2,0.2,0.8,0.2,0.2,0.2,0.8","1","",""
"","html-keyboard-response","67","99093","0.0-67.0","3TAYZSBPLMUIBA41M4RGIMO9VEI2S2","A598UDLZZZAJ3","3PIOQ99R7Y8STPN46QFY0SD7JTFNU0","","null","<img src=""img/land1.png"" style=""width:200px;border:14px solid red;"">","null","","","","","","","","","",""
"","image-keyboard-response","68","99885","0.0-68.0","3TAYZSBPLMUIBA41M4RGIMO9VEI2S2","A598UDLZZZAJ3","3PIOQ99R7Y8STPN46QFY0SD7JTFNU0","","791.0999999642372","img/land1.png","75","792.3999999761581","2","0","1","1","0.8,0.2,0.2,0.2,0.8,0.2,0.2,0.2,0.8","0.8,0.2,0.2,0.2,0.8,0.2,0.2,0.2,0.8","1","",""
"","html-keyboard-response","69","100187","0.0-69.0","3TAYZSBPLMUIBA41M4RGIMO9VEI2S2","A598UDLZZZAJ3","3PIOQ99R7Y8STPN46QFY0SD7JTFNU0","","null","<img src=""img/land1.png"" style=""width:200px;border:14px solid red;"">","null","","","","","","","","","",""
"","image-keyboard-response","70","100653","0.0-70.0","3TAYZSBPLMUIBA41M4RGIMO9VEI2S2","A598UDLZZZAJ3","3PIOQ99R7Y8STPN46QFY0SD7JTFNU0","","464.5","img/land1.png","74","465.89999997615814","1","1","1","1","0.8,0.2,0.2,0.2,0.8,0.2,0.2,0.2,0.8","0.8,0.2,0.2,0.2,0.8,0.2,0.2,0.2,0.8","1","",""
"","html-keyboard-response","71","100956","0.0-71.0","3TAYZSBPLMUIBA41M4RGIMO9VEI2S2","A598UDLZZZAJ3","3PIOQ99R7Y8STPN46QFY0SD7JTFNU0","","null","<img src=""img/land1.png"" style=""width:200px; border:14px solid green;"">","null","","","","","","","","","",""
"","image-keyboard-response","72","101473","0.0-72.0","3TAYZSBPLMUIBA41M4RGIMO9VEI2S2","A598UDLZZZAJ3","3PIOQ99R7Y8STPN46QFY0SD7JTFNU0","","515.5","img/land1.png","74","516.7000000476837","1","1","1","1","0.8,0.2,0.2,0.2,0.8,0.2,0.2,0.2,0.8","0.8,0.2,0.2,0.2,0.8,0.2,0.2,0.2,0.8","1","",""
"","html-keyboard-response","73","101775","0.0-73.0","3TAYZSBPLMUIBA41M4RGIMO9VEI2S2","A598UDLZZZAJ3","3PIOQ99R7Y8STPN46QFY0SD7JTFNU0","","null","<img src=""img/land1.png"" style=""width:200px; border:14px solid green;"">","null","","","","","","","","","",""
"","image-keyboard-response","74","102373","0.0-74.0","3TAYZSBPLMUIBA41M4RGIMO9VEI2S2","A598UDLZZZAJ3","3PIOQ99R7Y8STPN46QFY0SD7JTFNU0","","596.3999999761581","img/land5.png","75","597.7000000476837","2","1","3","1","0.8,0.2,0.2,0.2,0.8,0.2,0.2,0.2,0.8","0.8,0.2,0.2,0.2,0.8,0.2,0.2,0.2,0.8","1","",""
"","html-keyboard-response","75","102674","0.0-75.0","3TAYZSBPLMUIBA41M4RGIMO9VEI2S2","A598UDLZZZAJ3","3PIOQ99R7Y8STPN46QFY0SD7JTFNU0","","null","<img src=""img/land5.png"" style=""width:200px; border:14px solid green;"">","null","","","","","","","","","",""
"","image-keyboard-response","76","103156","0.0-76.0","3TAYZSBPLMUIBA41M4RGIMO9VEI2S2","A598UDLZZZAJ3","3PIOQ99R7Y8STPN46QFY0SD7JTFNU0","","480.2000000476837","img/land5.png","75","481.5","2","0","3","1","0.8,0.2,0.2,0.2,0.8,0.2,0.2,0.2,0.8","0.8,0.2,0.2,0.2,0.8,0.2,0.2,0.2,0.8","1","",""
"","html-keyboard-response","77","103458","0.0-77.0","3TAYZSBPLMUIBA41M4RGIMO9VEI2S2","A598UDLZZZAJ3","3PIOQ99R7Y8STPN46QFY0SD7JTFNU0","","null","<img src=""img/land5.png"" style=""width:200px;border:14px solid red;"">","null","","","","","","","","","",""
"","image-keyboard-response","78","104174","0.0-78.0","3TAYZSBPLMUIBA41M4RGIMO9VEI2S2","A598UDLZZZAJ3","3PIOQ99R7Y8STPN46QFY0SD7JTFNU0","","714.4000000357628","img/land5.png","76","715.3999999761581","3","1","3","1","0.8,0.2,0.2,0.2,0.8,0.2,0.2,0.2,0.8","0.8,0.2,0.2,0.2,0.8,0.2,0.2,0.2,0.8","1","",""
"","html-keyboard-response","79","104477","0.0-79.0","3TAYZSBPLMUIBA41M4RGIMO9VEI2S2","A598UDLZZZAJ3","3PIOQ99R7Y8STPN46QFY0SD7JTFNU0","","null","<img src=""img/land5.png"" style=""width:200px; border:14px solid green;"">","null","","","","","","","","","",""
"","image-keyboard-response","80","105407","0.0-80.0","3TAYZSBPLMUIBA41M4RGIMO9VEI2S2","A598UDLZZZAJ3","3PIOQ99R7Y8STPN46QFY0SD7JTFNU0","","928.5","img/land6.png","76","929.6999999880791","3","0","2","1","0.8,0.2,0.2,0.2,0.8,0.2,0.2,0.2,0.8","0.8,0.2,0.2,0.2,0.8,0.2,0.2,0.2,0.8","1","",""
"","html-keyboard-response","81","105709","0.0-81.0","3TAYZSBPLMUIBA41M4RGIMO9VEI2S2","A598UDLZZZAJ3","3PIOQ99R7Y8STPN46QFY0SD7JTFNU0","","null","<img src=""img/land6.png"" style=""width:200px;border:14px solid red;"">","null","","","","","","","","","",""
"","image-keyboard-response","82","106299","0.0-82.0","3TAYZSBPLMUIBA41M4RGIMO9VEI2S2","A598UDLZZZAJ3","3PIOQ99R7Y8STPN46QFY0SD7JTFNU0","","588.5","img/land1.png","75","589.6999999880791","2","0","1","1","0.8,0.2,0.2,0.2,0.8,0.2,0.2,0.2,0.8","0.8,0.2,0.2,0.2,0.8,0.2,0.2,0.2,0.8","1","",""
"","html-keyboard-response","83","106601","0.0-83.0","3TAYZSBPLMUIBA41M4RGIMO9VEI2S2","A598UDLZZZAJ3","3PIOQ99R7Y8STPN46QFY0SD7JTFNU0","","null","<img src=""img/land1.png"" style=""width:200px;border:14px solid red;"">","null","","","","","","","","","",""
"","image-keyboard-response","84","107346","0.0-84.0","3TAYZSBPLMUIBA41M4RGIMO9VEI2S2","A598UDLZZZAJ3","3PIOQ99R7Y8STPN46QFY0SD7JTFNU0","","743.2000000476837","img/land6.png","74","744.4000000357628","1","1","2","1","0.8,0.2,0.2,0.2,0.8,0.2,0.2,0.2,0.8","0.8,0.2,0.2,0.2,0.8,0.2,0.2,0.2,0.8","1","",""
"","html-keyboard-response","85","107647","0.0-85.0","3TAYZSBPLMUIBA41M4RGIMO9VEI2S2","A598UDLZZZAJ3","3PIOQ99R7Y8STPN46QFY0SD7JTFNU0","","null","<img src=""img/land6.png"" style=""width:200px; border:14px solid green;"">","null","","","","","","","","","",""
"","image-keyboard-response","86","108258","0.0-86.0","3TAYZSBPLMUIBA41M4RGIMO9VEI2S2","A598UDLZZZAJ3","3PIOQ99R7Y8STPN46QFY0SD7JTFNU0","","609.0999999642372","img/land6.png","74","610.2000000476837","1","0","2","1","0.8,0.2,0.2,0.2,0.8,0.2,0.2,0.2,0.8","0.8,0.2,0.2,0.2,0.8,0.2,0.2,0.2,0.8","1","",""
"","html-keyboard-response","87","108561","0.0-87.0","3TAYZSBPLMUIBA41M4RGIMO9VEI2S2","A598UDLZZZAJ3","3PIOQ99R7Y8STPN46QFY0SD7JTFNU0","","null","<img src=""img/land6.png"" style=""width:200px;border:14px solid red;"">","null","","","","","","","","","",""
"","image-keyboard-response","88","109322","0.0-88.0","3TAYZSBPLMUIBA41M4RGIMO9VEI2S2","A598UDLZZZAJ3","3PIOQ99R7Y8STPN46QFY0SD7JTFNU0","","759.3000000119209","img/land5.png","75","760.5999999642372","2","1","3","1","0.8,0.2,0.2,0.2,0.8,0.2,0.2,0.2,0.8","0.8,0.2,0.2,0.2,0.8,0.2,0.2,0.2,0.8","1","",""
"","html-keyboard-response","89","109641","0.0-89.0","3TAYZSBPLMUIBA41M4RGIMO9VEI2S2","A598UDLZZZAJ3","3PIOQ99R7Y8STPN46QFY0SD7JTFNU0","","null","<img src=""img/land5.png"" style=""width:200px; border:14px solid green;"">","null","","","","","","","","","",""
"","image-keyboard-response","90","110710","0.0-90.0","3TAYZSBPLMUIBA41M4RGIMO9VEI2S2","A598UDLZZZAJ3","3PIOQ99R7Y8STPN46QFY0SD7JTFNU0","","1067.7000000476837","img/land5.png","75","1068.4000000357628","2","0","3","1","0.8,0.2,0.2,0.2,0.8,0.2,0.2,0.2,0.8","0.8,0.2,0.2,0.2,0.8,0.2,0.2,0.2,0.8","1","",""
"","html-keyboard-response","91","111013","0.0-91.0","3TAYZSBPLMUIBA41M4RGIMO9VEI2S2","A598UDLZZZAJ3","3PIOQ99R7Y8STPN46QFY0SD7JTFNU0","","null","<img src=""img/land5.png"" style=""width:200px;border:14px solid red;"">","null","","","","","","","","","",""
"","image-keyboard-response","92","111995","0.0-92.0","3TAYZSBPLMUIBA41M4RGIMO9VEI2S2","A598UDLZZZAJ3","3PIOQ99R7Y8STPN46QFY0SD7JTFNU0","","981.1000000238419","img/land5.png","75","982.3000000119209","2","0","3","1","0.8,0.2,0.2,0.2,0.8,0.2,0.2,0.2,0.8","0.8,0.2,0.2,0.2,0.8,0.2,0.2,0.2,0.8","1","",""
"","html-keyboard-response","93","112296","0.0-93.0","3TAYZSBPLMUIBA41M4RGIMO9VEI2S2","A598UDLZZZAJ3","3PIOQ99R7Y8STPN46QFY0SD7JTFNU0","","null","<img src=""img/land5.png"" style=""width:200px;border:14px solid red;"">","null","","","","","","","","","",""
"","image-keyboard-response","94","113001","0.0-94.0","3TAYZSBPLMUIBA41M4RGIMO9VEI2S2","A598UDLZZZAJ3","3PIOQ99R7Y8STPN46QFY0SD7JTFNU0","","703","img/land1.png","76","704.2000000476837","3","0","1","1","0.8,0.2,0.2,0.2,0.8,0.2,0.2,0.2,0.8","0.8,0.2,0.2,0.2,0.8,0.2,0.2,0.2,0.8","1","",""
"","html-keyboard-response","95","113302","0.0-95.0","3TAYZSBPLMUIBA41M4RGIMO9VEI2S2","A598UDLZZZAJ3","3PIOQ99R7Y8STPN46QFY0SD7JTFNU0","","null","<img src=""img/land1.png"" style=""width:200px;border:14px solid red;"">","null","","","","","","","","","",""
"","image-keyboard-response","96","114390","0.0-96.0","3TAYZSBPLMUIBA41M4RGIMO9VEI2S2","A598UDLZZZAJ3","3PIOQ99R7Y8STPN46QFY0SD7JTFNU0","","1086.6000000238419","img/land6.png","75","1087.3999999761581","2","1","2","1","0.8,0.2,0.2,0.2,0.8,0.2,0.2,0.2,0.8","0.8,0.2,0.2,0.2,0.8,0.2,0.2,0.2,0.8","1","",""
"","html-keyboard-response","97","114692","0.0-97.0","3TAYZSBPLMUIBA41M4RGIMO9VEI2S2","A598UDLZZZAJ3","3PIOQ99R7Y8STPN46QFY0SD7JTFNU0","","null","<img src=""img/land6.png"" style=""width:200px; border:14px solid green;"">","null","","","","","","","","","",""
"","image-keyboard-response","98","115480","0.0-98.0","3TAYZSBPLMUIBA41M4RGIMO9VEI2S2","A598UDLZZZAJ3","3PIOQ99R7Y8STPN46QFY0SD7JTFNU0","","786.6999999880791","img/land6.png","75","787.8999999761581","2","1","2","1","0.8,0.2,0.2,0.2,0.8,0.2,0.2,0.2,0.8","0.8,0.2,0.2,0.2,0.8,0.2,0.2,0.2,0.8","1","",""
"","html-keyboard-response","99","115782","0.0-99.0","3TAYZSBPLMUIBA41M4RGIMO9VEI2S2","A598UDLZZZAJ3","3PIOQ99R7Y8STPN46QFY0SD7JTFNU0","","null","<img src=""img/land6.png"" style=""width:200px; border:14px solid green;"">","null","","","","","","","","","",""
"","image-keyboard-response","100","116721","0.0-100.0","3TAYZSBPLMUIBA41M4RGIMO9VEI2S2","A598UDLZZZAJ3","3PIOQ99R7Y8STPN46QFY0SD7JTFNU0","","937.9000000357628","img/land6.png","75","939.0999999642372","2","0","2","1","0.8,0.2,0.2,0.2,0.8,0.2,0.2,0.2,0.8","0.8,0.2,0.2,0.2,0.8,0.2,0.2,0.2,0.8","1","",""
"","html-keyboard-response","101","117024","0.0-101.0","3TAYZSBPLMUIBA41M4RGIMO9VEI2S2","A598UDLZZZAJ3","3PIOQ99R7Y8STPN46QFY0SD7JTFNU0","","null","<img src=""img/land6.png"" style=""width:200px;border:14px solid red;"">","null","","","","","","","","","",""
"","image-keyboard-response","102","117729","0.0-102.0","3TAYZSBPLMUIBA41M4RGIMO9VEI2S2","A598UDLZZZAJ3","3PIOQ99R7Y8STPN46QFY0SD7JTFNU0","","703.8999999761581","img/land6.png","74","705.1999999880791","1","0","2","1","0.8,0.2,0.2,0.2,0.8,0.2,0.2,0.2,0.8","0.8,0.2,0.2,0.2,0.8,0.2,0.2,0.2,0.8","1","",""
"","html-keyboard-response","103","118031","0.0-103.0","3TAYZSBPLMUIBA41M4RGIMO9VEI2S2","A598UDLZZZAJ3","3PIOQ99R7Y8STPN46QFY0SD7JTFNU0","","null","<img src=""img/land6.png"" style=""width:200px;border:14px solid red;"">","null","","","","","","","","","",""
"","image-keyboard-response","104","118909","0.0-104.0","3TAYZSBPLMUIBA41M4RGIMO9VEI2S2","A598UDLZZZAJ3","3PIOQ99R7Y8STPN46QFY0SD7JTFNU0","","875.3999999761581","img/land6.png","76","876.5","3","0","2","1","0.8,0.2,0.2,0.2,0.8,0.2,0.2,0.2,0.8","0.8,0.2,0.2,0.2,0.8,0.2,0.2,0.2,0.8","1","",""
"","html-keyboard-response","105","119211","0.0-105.0","3TAYZSBPLMUIBA41M4RGIMO9VEI2S2","A598UDLZZZAJ3","3PIOQ99R7Y8STPN46QFY0SD7JTFNU0","","null","<img src=""img/land6.png"" style=""width:200px;border:14px solid red;"">","null","","","","","","","","","",""
"","image-keyboard-response","106","120085","0.0-106.0","3TAYZSBPLMUIBA41M4RGIMO9VEI2S2","A598UDLZZZAJ3","3PIOQ99R7Y8STPN46QFY0SD7JTFNU0","","870.9000000357628","img/land5.png","74","872.1999999880791","1","0","3","1","0.8,0.2,0.2,0.2,0.8,0.2,0.2,0.2,0.8","0.8,0.2,0.2,0.2,0.8,0.2,0.2,0.2,0.8","1","",""
"","html-keyboard-response","107","120387","0.0-107.0","3TAYZSBPLMUIBA41M4RGIMO9VEI2S2","A598UDLZZZAJ3","3PIOQ99R7Y8STPN46QFY0SD7JTFNU0","","null","<img src=""img/land5.png"" style=""width:200px;border:14px solid red;"">","null","","","","","","","","","",""
"","image-keyboard-response","108","121332","0.0-108.0","3TAYZSBPLMUIBA41M4RGIMO9VEI2S2","A598UDLZZZAJ3","3PIOQ99R7Y8STPN46QFY0SD7JTFNU0","","943.7999999523163","img/land6.png","75","944.9000000357628","2","1","2","1","0.8,0.2,0.2,0.2,0.8,0.2,0.2,0.2,0.8","0.8,0.2,0.2,0.2,0.8,0.2,0.2,0.2,0.8","1","",""
"","html-keyboard-response","109","121634","0.0-109.0","3TAYZSBPLMUIBA41M4RGIMO9VEI2S2","A598UDLZZZAJ3","3PIOQ99R7Y8STPN46QFY0SD7JTFNU0","","null","<img src=""img/land6.png"" style=""width:200px; border:14px solid green;"">","null","","","","","","","","","",""
"","image-keyboard-response","110","122570","0.0-110.0","3TAYZSBPLMUIBA41M4RGIMO9VEI2S2","A598UDLZZZAJ3","3PIOQ99R7Y8STPN46QFY0SD7JTFNU0","","934","img/land1.png","74","935.1999999880791","1","1","1","1","0.8,0.2,0.2,0.2,0.8,0.2,0.2,0.2,0.8","0.8,0.2,0.2,0.2,0.8,0.2,0.2,0.2,0.8","1","",""
"","html-keyboard-response","111","122873","0.0-111.0","3TAYZSBPLMUIBA41M4RGIMO9VEI2S2","A598UDLZZZAJ3","3PIOQ99R7Y8STPN46QFY0SD7JTFNU0","","null","<img src=""img/land1.png"" style=""width:200px; border:14px solid green;"">","null","","","","","","","","","",""
"","image-keyboard-response","112","123557","0.0-112.0","3TAYZSBPLMUIBA41M4RGIMO9VEI2S2","A598UDLZZZAJ3","3PIOQ99R7Y8STPN46QFY0SD7JTFNU0","","681.5","img/land6.png","75","682.6000000238419","2","0","2","1","0.8,0.2,0.2,0.2,0.8,0.2,0.2,0.2,0.8","0.8,0.2,0.2,0.2,0.8,0.2,0.2,0.2,0.8","1","",""
"","html-keyboard-response","113","123858","0.0-113.0","3TAYZSBPLMUIBA41M4RGIMO9VEI2S2","A598UDLZZZAJ3","3PIOQ99R7Y8STPN46QFY0SD7JTFNU0","","null","<img src=""img/land6.png"" style=""width:200px;border:14px solid red;"">","null","","","","","","","","","",""
"","image-keyboard-response","114","124831","0.0-114.0","3TAYZSBPLMUIBA41M4RGIMO9VEI2S2","A598UDLZZZAJ3","3PIOQ99R7Y8STPN46QFY0SD7JTFNU0","","970.3999999761581","img/land6.png","76","971.9000000357628","3","1","2","1","0.8,0.2,0.2,0.2,0.8,0.2,0.2,0.2,0.8","0.8,0.2,0.2,0.2,0.8,0.2,0.2,0.2,0.8","1","",""
"","html-keyboard-response","115","125133","0.0-115.0","3TAYZSBPLMUIBA41M4RGIMO9VEI2S2","A598UDLZZZAJ3","3PIOQ99R7Y8STPN46QFY0SD7JTFNU0","","null","<img src=""img/land6.png"" style=""width:200px; border:14px solid green;"">","null","","","","","","","","","",""
"","image-keyboard-response","116","125930","0.0-116.0","3TAYZSBPLMUIBA41M4RGIMO9VEI2S2","A598UDLZZZAJ3","3PIOQ99R7Y8STPN46QFY0SD7JTFNU0","","794.3000000119209","img/land6.png","74","795.6000000238419","1","1","2","1","0.8,0.2,0.2,0.2,0.8,0.2,0.2,0.2,0.8","0.8,0.2,0.2,0.2,0.8,0.2,0.2,0.2,0.8","1","",""
"","html-keyboard-response","117","126231","0.0-117.0","3TAYZSBPLMUIBA41M4RGIMO9VEI2S2","A598UDLZZZAJ3","3PIOQ99R7Y8STPN46QFY0SD7JTFNU0","","null","<img src=""img/land6.png"" style=""width:200px; border:14px solid green;"">","null","","","","","","","","","",""
"","image-keyboard-response","118","127113","0.0-118.0","3TAYZSBPLMUIBA41M4RGIMO9VEI2S2","A598UDLZZZAJ3","3PIOQ99R7Y8STPN46QFY0SD7JTFNU0","","880.6999999880791","img/land1.png","74","881.9000000357628","1","1","1","1","0.8,0.2,0.2,0.2,0.8,0.2,0.2,0.2,0.8","0.8,0.2,0.2,0.2,0.8,0.2,0.2,0.2,0.8","1","",""
"","html-keyboard-response","119","127416","0.0-119.0","3TAYZSBPLMUIBA41M4RGIMO9VEI2S2","A598UDLZZZAJ3","3PIOQ99R7Y8STPN46QFY0SD7JTFNU0","","null","<img src=""img/land1.png"" style=""width:200px; border:14px solid green;"">","null","","","","","","","","","",""
"","image-keyboard-response","120","127863","0.0-120.0","3TAYZSBPLMUIBA41M4RGIMO9VEI2S2","A598UDLZZZAJ3","3PIOQ99R7Y8STPN46QFY0SD7JTFNU0","","445.69999998807907","img/land6.png","76","446.69999998807907","3","0","2","1","0.8,0.2,0.2,0.2,0.8,0.2,0.2,0.2,0.8","0.8,0.2,0.2,0.2,0.8,0.2,0.2,0.2,0.8","1","",""
"","html-keyboard-response","121","128164","0.0-121.0","3TAYZSBPLMUIBA41M4RGIMO9VEI2S2","A598UDLZZZAJ3","3PIOQ99R7Y8STPN46QFY0SD7JTFNU0","","null","<img src=""img/land6.png"" style=""width:200px;border:14px solid red;"">","null","","","","","","","","","",""
"","image-keyboard-response","122","129265","0.0-122.0","3TAYZSBPLMUIBA41M4RGIMO9VEI2S2","A598UDLZZZAJ3","3PIOQ99R7Y8STPN46QFY0SD7JTFNU0","","1099.699999988079","img/land5.png","75","1100.800000011921","2","0","3","1","0.8,0.2,0.2,0.2,0.8,0.2,0.2,0.2,0.8","0.8,0.2,0.2,0.2,0.8,0.2,0.2,0.2,0.8","1","",""
"","html-keyboard-response","123","129568","0.0-123.0","3TAYZSBPLMUIBA41M4RGIMO9VEI2S2","A598UDLZZZAJ3","3PIOQ99R7Y8STPN46QFY0SD7JTFNU0","","null","<img src=""img/land5.png"" style=""width:200px;border:14px solid red;"">","null","","","","","","","","","",""
"","image-keyboard-response","124","130397","0.0-124.0","3TAYZSBPLMUIBA41M4RGIMO9VEI2S2","A598UDLZZZAJ3","3PIOQ99R7Y8STPN46QFY0SD7JTFNU0","","827.8999999761581","img/land6.png","74","829.1000000238419","1","0","2","1","0.8,0.2,0.2,0.2,0.8,0.2,0.2,0.2,0.8","0.8,0.2,0.2,0.2,0.8,0.2,0.2,0.2,0.8","1","",""
"","html-keyboard-response","125","130700","0.0-125.0","3TAYZSBPLMUIBA41M4RGIMO9VEI2S2","A598UDLZZZAJ3","3PIOQ99R7Y8STPN46QFY0SD7JTFNU0","","null","<img src=""img/land6.png"" style=""width:200px;border:14px solid red;"">","null","","","","","","","","","",""
"","image-keyboard-response","126","131338","0.0-126.0","3TAYZSBPLMUIBA41M4RGIMO9VEI2S2","A598UDLZZZAJ3","3PIOQ99R7Y8STPN46QFY0SD7JTFNU0","","636.6000000238419","img/land5.png","74","637.8000000119209","1","1","3","1","0.8,0.2,0.2,0.2,0.8,0.2,0.2,0.2,0.8","0.8,0.2,0.2,0.2,0.8,0.2,0.2,0.2,0.8","1","",""
"","html-keyboard-response","127","131640","0.0-127.0","3TAYZSBPLMUIBA41M4RGIMO9VEI2S2","A598UDLZZZAJ3","3PIOQ99R7Y8STPN46QFY0SD7JTFNU0","","null","<img src=""img/land5.png"" style=""width:200px; border:14px solid green;"">","null","","","","","","","","","",""
"","image-keyboard-response","128","132554","0.0-128.0","3TAYZSBPLMUIBA41M4RGIMO9VEI2S2","A598UDLZZZAJ3","3PIOQ99R7Y8STPN46QFY0SD7JTFNU0","","913.1999999880791","img/land1.png","74","914.1000000238419","1","1","1","1","0.8,0.2,0.2,0.2,0.8,0.2,0.2,0.2,0.8","0.8,0.2,0.2,0.2,0.8,0.2,0.2,0.2,0.8","1","",""
"","html-keyboard-response","129","132857","0.0-129.0","3TAYZSBPLMUIBA41M4RGIMO9VEI2S2","A598UDLZZZAJ3","3PIOQ99R7Y8STPN46QFY0SD7JTFNU0","","null","<img src=""img/land1.png"" style=""width:200px; border:14px solid green;"">","null","","","","","","","","","",""
"","image-keyboard-response","130","134218","0.0-130.0","3TAYZSBPLMUIBA41M4RGIMO9VEI2S2","A598UDLZZZAJ3","3PIOQ99R7Y8STPN46QFY0SD7JTFNU0","","1359.9000000357628","img/land1.png","75","1361.8999999761581","2","0","1","1","0.8,0.2,0.2,0.2,0.8,0.2,0.2,0.2,0.8","0.8,0.2,0.2,0.2,0.8,0.2,0.2,0.2,0.8","1","",""
"","html-keyboard-response","131","134520","0.0-131.0","3TAYZSBPLMUIBA41M4RGIMO9VEI2S2","A598UDLZZZAJ3","3PIOQ99R7Y8STPN46QFY0SD7JTFNU0","","null","<img src=""img/land1.png"" style=""width:200px;border:14px solid red;"">","null","","","","","","","","","",""
"","image-keyboard-response","132","135194","0.0-132.0","3TAYZSBPLMUIBA41M4RGIMO9VEI2S2","A598UDLZZZAJ3","3PIOQ99R7Y8STPN46QFY0SD7JTFNU0","","672.8999999761581","img/land1.png","76","673.6999999880791","3","0","1","1","0.8,0.2,0.2,0.2,0.8,0.2,0.2,0.2,0.8","0.8,0.2,0.2,0.2,0.8,0.2,0.2,0.2,0.8","1","",""
"","html-keyboard-response","133","135496","0.0-133.0","3TAYZSBPLMUIBA41M4RGIMO9VEI2S2","A598UDLZZZAJ3","3PIOQ99R7Y8STPN46QFY0SD7JTFNU0","","null","<img src=""img/land1.png"" style=""width:200px;border:14px solid red;"">","null","","","","","","","","","",""
"","image-keyboard-response","134","136402","0.0-134.0","3TAYZSBPLMUIBA41M4RGIMO9VEI2S2","A598UDLZZZAJ3","3PIOQ99R7Y8STPN46QFY0SD7JTFNU0","","904.3000000119209","img/land6.png","75","905.6999999880791","2","1","2","1","0.8,0.2,0.2,0.2,0.8,0.2,0.2,0.2,0.8","0.8,0.2,0.2,0.2,0.8,0.2,0.2,0.2,0.8","1","",""
"","html-keyboard-response","135","136704","0.0-135.0","3TAYZSBPLMUIBA41M4RGIMO9VEI2S2","A598UDLZZZAJ3","3PIOQ99R7Y8STPN46QFY0SD7JTFNU0","","null","<img src=""img/land6.png"" style=""width:200px; border:14px solid green;"">","null","","","","","","","","","",""
"","image-keyboard-response","136","137474","0.0-136.0","3TAYZSBPLMUIBA41M4RGIMO9VEI2S2","A598UDLZZZAJ3","3PIOQ99R7Y8STPN46QFY0SD7JTFNU0","","767.8999999761581","img/land6.png","75","769.1000000238419","2","1","2","1","0.8,0.2,0.2,0.2,0.8,0.2,0.2,0.2,0.8","0.8,0.2,0.2,0.2,0.8,0.2,0.2,0.2,0.8","1","",""
"","html-keyboard-response","137","137777","0.0-137.0","3TAYZSBPLMUIBA41M4RGIMO9VEI2S2","A598UDLZZZAJ3","3PIOQ99R7Y8STPN46QFY0SD7JTFNU0","","null","<img src=""img/land6.png"" style=""width:200px; border:14px solid green;"">","null","","","","","","","","","",""
"","image-keyboard-response","138","138565","0.0-138.0","3TAYZSBPLMUIBA41M4RGIMO9VEI2S2","A598UDLZZZAJ3","3PIOQ99R7Y8STPN46QFY0SD7JTFNU0","","786.8000000119209","img/land1.png","74","788","1","1","1","1","0.8,0.2,0.2,0.2,0.8,0.2,0.2,0.2,0.8","0.8,0.2,0.2,0.2,0.8,0.2,0.2,0.2,0.8","1","",""
"","html-keyboard-response","139","138867","0.0-139.0","3TAYZSBPLMUIBA41M4RGIMO9VEI2S2","A598UDLZZZAJ3","3PIOQ99R7Y8STPN46QFY0SD7JTFNU0","","null","<img src=""img/land1.png"" style=""width:200px; border:14px solid green;"">","null","","","","","","","","","",""
"","image-keyboard-response","140","139800","0.0-140.0","3TAYZSBPLMUIBA41M4RGIMO9VEI2S2","A598UDLZZZAJ3","3PIOQ99R7Y8STPN46QFY0SD7JTFNU0","","931.1999999880791","img/land5.png","75","932.6000000238419","2","0","3","1","0.8,0.2,0.2,0.2,0.8,0.2,0.2,0.2,0.8","0.8,0.2,0.2,0.2,0.8,0.2,0.2,0.2,0.8","1","",""
"","html-keyboard-response","141","140101","0.0-141.0","3TAYZSBPLMUIBA41M4RGIMO9VEI2S2","A598UDLZZZAJ3","3PIOQ99R7Y8STPN46QFY0SD7JTFNU0","","null","<img src=""img/land5.png"" style=""width:200px;border:14px solid red;"">","null","","","","","","","","","",""
"","image-keyboard-response","142","141160","0.0-142.0","3TAYZSBPLMUIBA41M4RGIMO9VEI2S2","A598UDLZZZAJ3","3PIOQ99R7Y8STPN46QFY0SD7JTFNU0","","1056.699999988079","img/land1.png","74","1058.1000000238419","1","1","1","1","0.8,0.2,0.2,0.2,0.8,0.2,0.2,0.2,0.8","0.8,0.2,0.2,0.2,0.8,0.2,0.2,0.2,0.8","1","",""
"","html-keyboard-response","143","141461","0.0-143.0","3TAYZSBPLMUIBA41M4RGIMO9VEI2S2","A598UDLZZZAJ3","3PIOQ99R7Y8STPN46QFY0SD7JTFNU0","","null","<img src=""img/land1.png"" style=""width:200px; border:14px solid green;"">","null","","","","","","","","","",""
"","image-keyboard-response","144","142316","0.0-144.0","3TAYZSBPLMUIBA41M4RGIMO9VEI2S2","A598UDLZZZAJ3","3PIOQ99R7Y8STPN46QFY0SD7JTFNU0","","852.5","img/land5.png","74","854.0999999642372","1","0","3","1","0.8,0.2,0.2,0.2,0.8,0.2,0.2,0.2,0.8","0.8,0.2,0.2,0.2,0.8,0.2,0.2,0.2,0.8","1","",""
"","html-keyboard-response","145","142618","0.0-145.0","3TAYZSBPLMUIBA41M4RGIMO9VEI2S2","A598UDLZZZAJ3","3PIOQ99R7Y8STPN46QFY0SD7JTFNU0","","null","<img src=""img/land5.png"" style=""width:200px;border:14px solid red;"">","null","","","","","","","","","",""
"","image-keyboard-response","146","143537","0.0-146.0","3TAYZSBPLMUIBA41M4RGIMO9VEI2S2","A598UDLZZZAJ3","3PIOQ99R7Y8STPN46QFY0SD7JTFNU0","","917.4000000357628","img/land1.png","74","918.6999999880791","1","1","1","1","0.8,0.2,0.2,0.2,0.8,0.2,0.2,0.2,0.8","0.8,0.2,0.2,0.2,0.8,0.2,0.2,0.2,0.8","1","",""
"","html-keyboard-response","147","143839","0.0-147.0","3TAYZSBPLMUIBA41M4RGIMO9VEI2S2","A598UDLZZZAJ3","3PIOQ99R7Y8STPN46QFY0SD7JTFNU0","","null","<img src=""img/land1.png"" style=""width:200px; border:14px solid green;"">","null","","","","","","","","","",""
"","image-keyboard-response","148","144800","0.0-148.0","3TAYZSBPLMUIBA41M4RGIMO9VEI2S2","A598UDLZZZAJ3","3PIOQ99R7Y8STPN46QFY0SD7JTFNU0","","959.3000000119209","img/land5.png","74","960.8000000119209","1","0","3","1","0.8,0.2,0.2,0.2,0.8,0.2,0.2,0.2,0.8","0.8,0.2,0.2,0.2,0.8,0.2,0.2,0.2,0.8","1","",""
"","html-keyboard-response","149","145103","0.0-149.0","3TAYZSBPLMUIBA41M4RGIMO9VEI2S2","A598UDLZZZAJ3","3PIOQ99R7Y8STPN46QFY0SD7JTFNU0","","null","<img src=""img/land5.png"" style=""width:200px;border:14px solid red;"">","null","","","","","","","","","",""
"","image-keyboard-response","150","145920","0.0-150.0","3TAYZSBPLMUIBA41M4RGIMO9VEI2S2","A598UDLZZZAJ3","3PIOQ99R7Y8STPN46QFY0SD7JTFNU0","","815.3000000119209","img/land5.png","75","816.6000000238419","2","0","3","1","0.8,0.2,0.2,0.2,0.8,0.2,0.2,0.2,0.8","0.8,0.2,0.2,0.2,0.8,0.2,0.2,0.2,0.8","1","",""
"","html-keyboard-response","151","146222","0.0-151.0","3TAYZSBPLMUIBA41M4RGIMO9VEI2S2","A598UDLZZZAJ3","3PIOQ99R7Y8STPN46QFY0SD7JTFNU0","","null","<img src=""img/land5.png"" style=""width:200px;border:14px solid red;"">","null","","","","","","","","","",""
"","image-keyboard-response","152","146935","0.0-152.0","3TAYZSBPLMUIBA41M4RGIMO9VEI2S2","A598UDLZZZAJ3","3PIOQ99R7Y8STPN46QFY0SD7JTFNU0","","711.1000000238419","img/land1.png","76","712.6999999880791","3","0","1","1","0.8,0.2,0.2,0.2,0.8,0.2,0.2,0.2,0.8","0.8,0.2,0.2,0.2,0.8,0.2,0.2,0.2,0.8","1","",""
"","html-keyboard-response","153","147237","0.0-153.0","3TAYZSBPLMUIBA41M4RGIMO9VEI2S2","A598UDLZZZAJ3","3PIOQ99R7Y8STPN46QFY0SD7JTFNU0","","null","<img src=""img/land1.png"" style=""width:200px;border:14px solid red;"">","null","","","","","","","","","",""
"","image-keyboard-response","154","148449","0.0-154.0","3TAYZSBPLMUIBA41M4RGIMO9VEI2S2","A598UDLZZZAJ3","3PIOQ99R7Y8STPN46QFY0SD7JTFNU0","","1209.9000000357628","img/land6.png","75","1211.300000011921","2","1","2","1","0.8,0.2,0.2,0.2,0.8,0.2,0.2,0.2,0.8","0.8,0.2,0.2,0.2,0.8,0.2,0.2,0.2,0.8","1","",""
"","html-keyboard-response","155","148751","0.0-155.0","3TAYZSBPLMUIBA41M4RGIMO9VEI2S2","A598UDLZZZAJ3","3PIOQ99R7Y8STPN46QFY0SD7JTFNU0","","null","<img src=""img/land6.png"" style=""width:200px; border:14px solid green;"">","null","","","","","","","","","",""
"","image-keyboard-response","156","149629","0.0-156.0","3TAYZSBPLMUIBA41M4RGIMO9VEI2S2","A598UDLZZZAJ3","3PIOQ99R7Y8STPN46QFY0SD7JTFNU0","","876.5999999642372","img/land6.png","74","877.6999999880791","1","0","2","1","0.8,0.2,0.2,0.2,0.8,0.2,0.2,0.2,0.8","0.8,0.2,0.2,0.2,0.8,0.2,0.2,0.2,0.8","1","",""
"","html-keyboard-response","157","149932","0.0-157.0","3TAYZSBPLMUIBA41M4RGIMO9VEI2S2","A598UDLZZZAJ3","3PIOQ99R7Y8STPN46QFY0SD7JTFNU0","","null","<img src=""img/land6.png"" style=""width:200px;border:14px solid red;"">","null","","","","","","","","","",""
"","image-keyboard-response","158","151037","0.0-158.0","3TAYZSBPLMUIBA41M4RGIMO9VEI2S2","A598UDLZZZAJ3","3PIOQ99R7Y8STPN46QFY0SD7JTFNU0","","1103.6000000238419","img/land5.png","74","1104.8999999761581","1","0","3","1","0.8,0.2,0.2,0.2,0.8,0.2,0.2,0.2,0.8","0.8,0.2,0.2,0.2,0.8,0.2,0.2,0.2,0.8","1","",""
"","html-keyboard-response","159","151339","0.0-159.0","3TAYZSBPLMUIBA41M4RGIMO9VEI2S2","A598UDLZZZAJ3","3PIOQ99R7Y8STPN46QFY0SD7JTFNU0","","null","<img src=""img/land5.png"" style=""width:200px;border:14px solid red;"">","null","","","","","","","","","",""
"","image-keyboard-response","160","152386","0.0-160.0","3TAYZSBPLMUIBA41M4RGIMO9VEI2S2","A598UDLZZZAJ3","3PIOQ99R7Y8STPN46QFY0SD7JTFNU0","","1044.9000000357628","img/land1.png","75","1046.199999988079","2","0","1","1","0.8,0.2,0.2,0.2,0.8,0.2,0.2,0.2,0.8","0.8,0.2,0.2,0.2,0.8,0.2,0.2,0.2,0.8","1","",""
"","html-keyboard-response","161","152688","0.0-161.0","3TAYZSBPLMUIBA41M4RGIMO9VEI2S2","A598UDLZZZAJ3","3PIOQ99R7Y8STPN46QFY0SD7JTFNU0","","null","<img src=""img/land1.png"" style=""width:200px;border:14px solid red;"">","null","","","","","","","","","",""
"","image-keyboard-response","162","153665","0.0-162.0","3TAYZSBPLMUIBA41M4RGIMO9VEI2S2","A598UDLZZZAJ3","3PIOQ99R7Y8STPN46QFY0SD7JTFNU0","","975.8000000119209","img/land6.png","76","977.4000000357628","3","0","2","1","0.8,0.2,0.2,0.2,0.8,0.2,0.2,0.2,0.8","0.8,0.2,0.2,0.2,0.8,0.2,0.2,0.2,0.8","1","",""
"","html-keyboard-response","163","153967","0.0-163.0","3TAYZSBPLMUIBA41M4RGIMO9VEI2S2","A598UDLZZZAJ3","3PIOQ99R7Y8STPN46QFY0SD7JTFNU0","","null","<img src=""img/land6.png"" style=""width:200px;border:14px solid red;"">","null","","","","","","","","","",""
"","image-keyboard-response","164","155200","0.0-164.0","3TAYZSBPLMUIBA41M4RGIMO9VEI2S2","A598UDLZZZAJ3","3PIOQ99R7Y8STPN46QFY0SD7JTFNU0","","1230.9000000357628","img/land5.png","75","1232.1000000238419","2","0","3","1","0.8,0.2,0.2,0.2,0.8,0.2,0.2,0.2,0.8","0.8,0.2,0.2,0.2,0.8,0.2,0.2,0.2,0.8","1","",""
"","html-keyboard-response","165","155503","0.0-165.0","3TAYZSBPLMUIBA41M4RGIMO9VEI2S2","A598UDLZZZAJ3","3PIOQ99R7Y8STPN46QFY0SD7JTFNU0","","null","<img src=""img/land5.png"" style=""width:200px;border:14px solid red;"">","null","","","","","","","","","",""
"","image-keyboard-response","166","156529","0.0-166.0","3TAYZSBPLMUIBA41M4RGIMO9VEI2S2","A598UDLZZZAJ3","3PIOQ99R7Y8STPN46QFY0SD7JTFNU0","","1025.0999999642372","img/land1.png","74","1026.199999988079","1","1","1","1","0.8,0.2,0.2,0.2,0.8,0.2,0.2,0.2,0.8","0.8,0.2,0.2,0.2,0.8,0.2,0.2,0.2,0.8","1","",""
"","html-keyboard-response","167","156831","0.0-167.0","3TAYZSBPLMUIBA41M4RGIMO9VEI2S2","A598UDLZZZAJ3","3PIOQ99R7Y8STPN46QFY0SD7JTFNU0","","null","<img src=""img/land1.png"" style=""width:200px; border:14px solid green;"">","null","","","","","","","","","",""
"","image-keyboard-response","168","158027","0.0-168.0","3TAYZSBPLMUIBA41M4RGIMO9VEI2S2","A598UDLZZZAJ3","3PIOQ99R7Y8STPN46QFY0SD7JTFNU0","","1194.699999988079","img/land5.png","75","1196","2","0","3","1","0.8,0.2,0.2,0.2,0.8,0.2,0.2,0.2,0.8","0.8,0.2,0.2,0.2,0.8,0.2,0.2,0.2,0.8","1","",""
"","html-keyboard-response","169","158329","0.0-169.0","3TAYZSBPLMUIBA41M4RGIMO9VEI2S2","A598UDLZZZAJ3","3PIOQ99R7Y8STPN46QFY0SD7JTFNU0","","null","<img src=""img/land5.png"" style=""width:200px;border:14px solid red;"">","null","","","","","","","","","",""
"","image-keyboard-response","170","159272","0.0-170.0","3TAYZSBPLMUIBA41M4RGIMO9VEI2S2","A598UDLZZZAJ3","3PIOQ99R7Y8STPN46QFY0SD7JTFNU0","","941","img/land1.png","74","942.1999999880791","1","1","1","1","0.8,0.2,0.2,0.2,0.8,0.2,0.2,0.2,0.8","0.8,0.2,0.2,0.2,0.8,0.2,0.2,0.2,0.8","1","",""
"","html-keyboard-response","171","159573","0.0-171.0","3TAYZSBPLMUIBA41M4RGIMO9VEI2S2","A598UDLZZZAJ3","3PIOQ99R7Y8STPN46QFY0SD7JTFNU0","","null","<img src=""img/land1.png"" style=""width:200px; border:14px solid green;"">","null","","","","","","","","","",""
"","image-keyboard-response","172","160401","0.0-172.0","3TAYZSBPLMUIBA41M4RGIMO9VEI2S2","A598UDLZZZAJ3","3PIOQ99R7Y8STPN46QFY0SD7JTFNU0","","825.4000000357628","img/land1.png","74","826.6999999880791","1","1","1","1","0.8,0.2,0.2,0.2,0.8,0.2,0.2,0.2,0.8","0.8,0.2,0.2,0.2,0.8,0.2,0.2,0.2,0.8","1","",""
"","html-keyboard-response","173","160702","0.0-173.0","3TAYZSBPLMUIBA41M4RGIMO9VEI2S2","A598UDLZZZAJ3","3PIOQ99R7Y8STPN46QFY0SD7JTFNU0","","null","<img src=""img/land1.png"" style=""width:200px; border:14px solid green;"">","null","","","","","","","","","",""
"","image-keyboard-response","174","161738","0.0-174.0","3TAYZSBPLMUIBA41M4RGIMO9VEI2S2","A598UDLZZZAJ3","3PIOQ99R7Y8STPN46QFY0SD7JTFNU0","","1034.5","img/land5.png","74","1035.800000011921","1","0","3","1","0.8,0.2,0.2,0.2,0.8,0.2,0.2,0.2,0.8","0.8,0.2,0.2,0.2,0.8,0.2,0.2,0.2,0.8","1","",""
"","html-keyboard-response","175","162041","0.0-175.0","3TAYZSBPLMUIBA41M4RGIMO9VEI2S2","A598UDLZZZAJ3","3PIOQ99R7Y8STPN46QFY0SD7JTFNU0","","null","<img src=""img/land5.png"" style=""width:200px;border:14px solid red;"">","null","","","","","","","","","",""
"","image-keyboard-response","176","162652","0.0-176.0","3TAYZSBPLMUIBA41M4RGIMO9VEI2S2","A598UDLZZZAJ3","3PIOQ99R7Y8STPN46QFY0SD7JTFNU0","","610","img/land5.png","75","611.1999999880791","2","0","3","1","0.8,0.2,0.2,0.2,0.8,0.2,0.2,0.2,0.8","0.8,0.2,0.2,0.2,0.8,0.2,0.2,0.2,0.8","1","",""
"","html-keyboard-response","177","162955","0.0-177.0","3TAYZSBPLMUIBA41M4RGIMO9VEI2S2","A598UDLZZZAJ3","3PIOQ99R7Y8STPN46QFY0SD7JTFNU0","","null","<img src=""img/land5.png"" style=""width:200px;border:14px solid red;"">","null","","","","","","","","","",""
"","image-keyboard-response","178","163733","0.0-178.0","3TAYZSBPLMUIBA41M4RGIMO9VEI2S2","A598UDLZZZAJ3","3PIOQ99R7Y8STPN46QFY0SD7JTFNU0","","776.8000000119209","img/land5.png","76","777.8999999761581","3","1","3","1","0.8,0.2,0.2,0.2,0.8,0.2,0.2,0.2,0.8","0.8,0.2,0.2,0.2,0.8,0.2,0.2,0.2,0.8","1","",""
"","html-keyboard-response","179","164035","0.0-179.0","3TAYZSBPLMUIBA41M4RGIMO9VEI2S2","A598UDLZZZAJ3","3PIOQ99R7Y8STPN46QFY0SD7JTFNU0","","null","<img src=""img/land5.png"" style=""width:200px; border:14px solid green;"">","null","","","","","","","","","",""
"","image-keyboard-response","180","164967","0.0-180.0","3TAYZSBPLMUIBA41M4RGIMO9VEI2S2","A598UDLZZZAJ3","3PIOQ99R7Y8STPN46QFY0SD7JTFNU0","","930.3000000119209","img/land5.png","76","931.6000000238419","3","1","3","1","0.8,0.2,0.2,0.2,0.8,0.2,0.2,0.2,0.8","0.8,0.2,0.2,0.2,0.8,0.2,0.2,0.2,0.8","1","",""
"","html-keyboard-response","181","165270","0.0-181.0","3TAYZSBPLMUIBA41M4RGIMO9VEI2S2","A598UDLZZZAJ3","3PIOQ99R7Y8STPN46QFY0SD7JTFNU0","","null","<img src=""img/land5.png"" style=""width:200px; border:14px solid green;"">","null","","","","","","","","","",""
"","html-keyboard-response","182","188681","0.0-182.0","3TAYZSBPLMUIBA41M4RGIMO9VEI2S2","A598UDLZZZAJ3","3PIOQ99R7Y8STPN46QFY0SD7JTFNU0","","","","","","","","","","","","","",""
"","image-keyboard-response","183","190310","0.0-183.0","3TAYZSBPLMUIBA41M4RGIMO9VEI2S2","A598UDLZZZAJ3","3PIOQ99R7Y8STPN46QFY0SD7JTFNU0","","1626.2999999523163","img/land3.png","76","1628.199999988079","3","1","1","2","0.8,0.2,0.2,0.2,0.8,0.2,0.2,0.2,0.8","0.8,0.2,0.2,0.2,0.8,0.2,0.2,0.2,0.8","1","",""
"","html-keyboard-response","184","190612","0.0-184.0","3TAYZSBPLMUIBA41M4RGIMO9VEI2S2","A598UDLZZZAJ3","3PIOQ99R7Y8STPN46QFY0SD7JTFNU0","","null","<img src=""img/land3.png"" style=""width:200px; border:14px solid green;"">","null","","","","","","","","","",""
"","image-keyboard-response","185","191795","0.0-185.0","3TAYZSBPLMUIBA41M4RGIMO9VEI2S2","A598UDLZZZAJ3","3PIOQ99R7Y8STPN46QFY0SD7JTFNU0","","1181.3999999761581","img/land4.png","75","1182.8999999761581","2","0","2","2","0.8,0.2,0.2,0.2,0.8,0.2,0.2,0.2,0.8","0.8,0.2,0.2,0.2,0.8,0.2,0.2,0.2,0.8","1","",""
"","html-keyboard-response","186","192104","0.0-186.0","3TAYZSBPLMUIBA41M4RGIMO9VEI2S2","A598UDLZZZAJ3","3PIOQ99R7Y8STPN46QFY0SD7JTFNU0","","null","<img src=""img/land4.png"" style=""width:200px;border:14px solid red;"">","null","","","","","","","","","",""
"","image-keyboard-response","187","192906","0.0-187.0","3TAYZSBPLMUIBA41M4RGIMO9VEI2S2","A598UDLZZZAJ3","3PIOQ99R7Y8STPN46QFY0SD7JTFNU0","","801.1000000238419","img/land3.png","76","802","3","0","1","2","0.8,0.2,0.2,0.2,0.8,0.2,0.2,0.2,0.8","0.8,0.2,0.2,0.2,0.8,0.2,0.2,0.2,0.8","1","",""
"","html-keyboard-response","188","193213","0.0-188.0","3TAYZSBPLMUIBA41M4RGIMO9VEI2S2","A598UDLZZZAJ3","3PIOQ99R7Y8STPN46QFY0SD7JTFNU0","","null","<img src=""img/land3.png"" style=""width:200px;border:14px solid red;"">","null","","","","","","","","","",""
"","image-keyboard-response","189","193986","0.0-189.0","3TAYZSBPLMUIBA41M4RGIMO9VEI2S2","A598UDLZZZAJ3","3PIOQ99R7Y8STPN46QFY0SD7JTFNU0","","771.1000000238419","img/land3.png","76","772.1999999880791","3","0","1","2","0.8,0.2,0.2,0.2,0.8,0.2,0.2,0.2,0.8","0.8,0.2,0.2,0.2,0.8,0.2,0.2,0.2,0.8","1","",""
"","html-keyboard-response","190","194288","0.0-190.0","3TAYZSBPLMUIBA41M4RGIMO9VEI2S2","A598UDLZZZAJ3","3PIOQ99R7Y8STPN46QFY0SD7JTFNU0","","null","<img src=""img/land3.png"" style=""width:200px;border:14px solid red;"">","null","","","","","","","","","",""
"","image-keyboard-response","191","194850","0.0-191.0","3TAYZSBPLMUIBA41M4RGIMO9VEI2S2","A598UDLZZZAJ3","3PIOQ99R7Y8STPN46QFY0SD7JTFNU0","","560.5999999642372","img/land3.png","75","561.6999999880791","2","0","1","2","0.8,0.2,0.2,0.2,0.8,0.2,0.2,0.2,0.8","0.8,0.2,0.2,0.2,0.8,0.2,0.2,0.2,0.8","1","",""
"","html-keyboard-response","192","195152","0.0-192.0","3TAYZSBPLMUIBA41M4RGIMO9VEI2S2","A598UDLZZZAJ3","3PIOQ99R7Y8STPN46QFY0SD7JTFNU0","","null","<img src=""img/land3.png"" style=""width:200px;border:14px solid red;"">","null","","","","","","","","","",""
"","image-keyboard-response","193","197154","0.0-193.0","3TAYZSBPLMUIBA41M4RGIMO9VEI2S2","A598UDLZZZAJ3","3PIOQ99R7Y8STPN46QFY0SD7JTFNU0","","","img/land3.png","","2002.4000000357628","-1","0","1","2","0.8,0.2,0.2,0.2,0.8,0.2,0.2,0.2,0.8","0.8,0.2,0.2,0.2,0.8,0.2,0.2,0.2,0.8","1","",""
"","html-keyboard-response","194","197457","0.0-194.0","3TAYZSBPLMUIBA41M4RGIMO9VEI2S2","A598UDLZZZAJ3","3PIOQ99R7Y8STPN46QFY0SD7JTFNU0","","null","<img src=""img/land3.png"" style=""width:200px;border:14px solid red;"">","null","","","","","","","","","",""
"","image-keyboard-response","195","198469","0.0-195.0","3TAYZSBPLMUIBA41M4RGIMO9VEI2S2","A598UDLZZZAJ3","3PIOQ99R7Y8STPN46QFY0SD7JTFNU0","","1009.0999999642372","img/land3.png","76","1010.5999999642372","3","0","1","2","0.8,0.2,0.2,0.2,0.8,0.2,0.2,0.2,0.8","0.8,0.2,0.2,0.2,0.8,0.2,0.2,0.2,0.8","1","",""
"","html-keyboard-response","196","198771","0.0-196.0","3TAYZSBPLMUIBA41M4RGIMO9VEI2S2","A598UDLZZZAJ3","3PIOQ99R7Y8STPN46QFY0SD7JTFNU0","","null","<img src=""img/land3.png"" style=""width:200px;border:14px solid red;"">","null","","","","","","","","","",""
"","image-keyboard-response","197","199339","0.0-197.0","3TAYZSBPLMUIBA41M4RGIMO9VEI2S2","A598UDLZZZAJ3","3PIOQ99R7Y8STPN46QFY0SD7JTFNU0","","565.7000000476837","img/land3.png","74","567.2999999523163","1","1","1","2","0.8,0.2,0.2,0.2,0.8,0.2,0.2,0.2,0.8","0.8,0.2,0.2,0.2,0.8,0.2,0.2,0.2,0.8","1","",""
"","html-keyboard-response","198","199642","0.0-198.0","3TAYZSBPLMUIBA41M4RGIMO9VEI2S2","A598UDLZZZAJ3","3PIOQ99R7Y8STPN46QFY0SD7JTFNU0","","null","<img src=""img/land3.png"" style=""width:200px; border:14px solid green;"">","null","","","","","","","","","",""
"","image-keyboard-response","199","200355","0.0-199.0","3TAYZSBPLMUIBA41M4RGIMO9VEI2S2","A598UDLZZZAJ3","3PIOQ99R7Y8STPN46QFY0SD7JTFNU0","","711.6000000238419","img/land3.png","74","713","1","1","1","2","0.8,0.2,0.2,0.2,0.8,0.2,0.2,0.2,0.8","0.8,0.2,0.2,0.2,0.8,0.2,0.2,0.2,0.8","1","",""
"","html-keyboard-response","200","200658","0.0-200.0","3TAYZSBPLMUIBA41M4RGIMO9VEI2S2","A598UDLZZZAJ3","3PIOQ99R7Y8STPN46QFY0SD7JTFNU0","","null","<img src=""img/land3.png"" style=""width:200px; border:14px solid green;"">","null","","","","","","","","","",""
"","image-keyboard-response","201","201734","0.0-201.0","3TAYZSBPLMUIBA41M4RGIMO9VEI2S2","A598UDLZZZAJ3","3PIOQ99R7Y8STPN46QFY0SD7JTFNU0","","1074.3999999761581","img/land4.png","76","1075.5","3","0","2","2","0.8,0.2,0.2,0.2,0.8,0.2,0.2,0.2,0.8","0.8,0.2,0.2,0.2,0.8,0.2,0.2,0.2,0.8","1","",""
"","html-keyboard-response","202","202036","0.0-202.0","3TAYZSBPLMUIBA41M4RGIMO9VEI2S2","A598UDLZZZAJ3","3PIOQ99R7Y8STPN46QFY0SD7JTFNU0","","null","<img src=""img/land4.png"" style=""width:200px;border:14px solid red;"">","null","","","","","","","","","",""
"","image-keyboard-response","203","203010","0.0-203.0","3TAYZSBPLMUIBA41M4RGIMO9VEI2S2","A598UDLZZZAJ3","3PIOQ99R7Y8STPN46QFY0SD7JTFNU0","","973.1999999880791","img/land2.png","75","974.4000000357628","2","0","3","2","0.8,0.2,0.2,0.2,0.8,0.2,0.2,0.2,0.8","0.8,0.2,0.2,0.2,0.8,0.2,0.2,0.2,0.8","1","",""
"","html-keyboard-response","204","203312","0.0-204.0","3TAYZSBPLMUIBA41M4RGIMO9VEI2S2","A598UDLZZZAJ3","3PIOQ99R7Y8STPN46QFY0SD7JTFNU0","","null","<img src=""img/land2.png"" style=""width:200px;border:14px solid red;"">","null","","","","","","","","","",""
"","image-keyboard-response","205","204293","0.0-205.0","3TAYZSBPLMUIBA41M4RGIMO9VEI2S2","A598UDLZZZAJ3","3PIOQ99R7Y8STPN46QFY0SD7JTFNU0","","979.3000000119209","img/land2.png","76","980.3000000119209","3","1","3","2","0.8,0.2,0.2,0.2,0.8,0.2,0.2,0.2,0.8","0.8,0.2,0.2,0.2,0.8,0.2,0.2,0.2,0.8","1","",""
"","html-keyboard-response","206","204595","0.0-206.0","3TAYZSBPLMUIBA41M4RGIMO9VEI2S2","A598UDLZZZAJ3","3PIOQ99R7Y8STPN46QFY0SD7JTFNU0","","null","<img src=""img/land2.png"" style=""width:200px; border:14px solid green;"">","null","","","","","","","","","",""
"","image-keyboard-response","207","205487","0.0-207.0","3TAYZSBPLMUIBA41M4RGIMO9VEI2S2","A598UDLZZZAJ3","3PIOQ99R7Y8STPN46QFY0SD7JTFNU0","","891.3000000119209","img/land3.png","74","892.4000000357628","1","0","1","2","0.8,0.2,0.2,0.2,0.8,0.2,0.2,0.2,0.8","0.8,0.2,0.2,0.2,0.8,0.2,0.2,0.2,0.8","1","",""
"","html-keyboard-response","208","205789","0.0-208.0","3TAYZSBPLMUIBA41M4RGIMO9VEI2S2","A598UDLZZZAJ3","3PIOQ99R7Y8STPN46QFY0SD7JTFNU0","","null","<img src=""img/land3.png"" style=""width:200px;border:14px solid red;"">","null","","","","","","","","","",""
"","image-keyboard-response","209","206976","0.0-209.0","3TAYZSBPLMUIBA41M4RGIMO9VEI2S2","A598UDLZZZAJ3","3PIOQ99R7Y8STPN46QFY0SD7JTFNU0","","1185.3999999761581","img/land3.png","74","1186.0999999642372","1","1","1","2","0.8,0.2,0.2,0.2,0.8,0.2,0.2,0.2,0.8","0.8,0.2,0.2,0.2,0.8,0.2,0.2,0.2,0.8","1","",""
"","html-keyboard-response","210","207277","0.0-210.0","3TAYZSBPLMUIBA41M4RGIMO9VEI2S2","A598UDLZZZAJ3","3PIOQ99R7Y8STPN46QFY0SD7JTFNU0","","null","<img src=""img/land3.png"" style=""width:200px; border:14px solid green;"">","null","","","","","","","","","",""
"","image-keyboard-response","211","207922","0.0-211.0","3TAYZSBPLMUIBA41M4RGIMO9VEI2S2","A598UDLZZZAJ3","3PIOQ99R7Y8STPN46QFY0SD7JTFNU0","","642.8999999761581","img/land2.png","76","644.1999999880791","3","1","3","2","0.8,0.2,0.2,0.2,0.8,0.2,0.2,0.2,0.8","0.8,0.2,0.2,0.2,0.8,0.2,0.2,0.2,0.8","1","",""
"","html-keyboard-response","212","208225","0.0-212.0","3TAYZSBPLMUIBA41M4RGIMO9VEI2S2","A598UDLZZZAJ3","3PIOQ99R7Y8STPN46QFY0SD7JTFNU0","","null","<img src=""img/land2.png"" style=""width:200px; border:14px solid green;"">","null","","","","","","","","","",""
"","image-keyboard-response","213","209064","0.0-213.0","3TAYZSBPLMUIBA41M4RGIMO9VEI2S2","A598UDLZZZAJ3","3PIOQ99R7Y8STPN46QFY0SD7JTFNU0","","837.3000000119209","img/land3.png","74","838.4000000357628","1","1","1","2","0.8,0.2,0.2,0.2,0.8,0.2,0.2,0.2,0.8","0.8,0.2,0.2,0.2,0.8,0.2,0.2,0.2,0.8","1","",""
"","html-keyboard-response","214","209367","0.0-214.0","3TAYZSBPLMUIBA41M4RGIMO9VEI2S2","A598UDLZZZAJ3","3PIOQ99R7Y8STPN46QFY0SD7JTFNU0","","null","<img src=""img/land3.png"" style=""width:200px; border:14px solid green;"">","null","","","","","","","","","",""
"","image-keyboard-response","215","209972","0.0-215.0","3TAYZSBPLMUIBA41M4RGIMO9VEI2S2","A598UDLZZZAJ3","3PIOQ99R7Y8STPN46QFY0SD7JTFNU0","","603.1000000238419","img/land3.png","74","604.6000000238419","1","1","1","2","0.8,0.2,0.2,0.2,0.8,0.2,0.2,0.2,0.8","0.8,0.2,0.2,0.2,0.8,0.2,0.2,0.2,0.8","1","",""
"","html-keyboard-response","216","210274","0.0-216.0","3TAYZSBPLMUIBA41M4RGIMO9VEI2S2","A598UDLZZZAJ3","3PIOQ99R7Y8STPN46QFY0SD7JTFNU0","","null","<img src=""img/land3.png"" style=""width:200px; border:14px solid green;"">","null","","","","","","","","","",""
"","image-keyboard-response","217","211053","0.0-217.0","3TAYZSBPLMUIBA41M4RGIMO9VEI2S2","A598UDLZZZAJ3","3PIOQ99R7Y8STPN46QFY0SD7JTFNU0","","776.5","img/land3.png","74","778.1000000238419","1","0","1","2","0.8,0.2,0.2,0.2,0.8,0.2,0.2,0.2,0.8","0.8,0.2,0.2,0.2,0.8,0.2,0.2,0.2,0.8","1","",""
"","html-keyboard-response","218","211356","0.0-218.0","3TAYZSBPLMUIBA41M4RGIMO9VEI2S2","A598UDLZZZAJ3","3PIOQ99R7Y8STPN46QFY0SD7JTFNU0","","null","<img src=""img/land3.png"" style=""width:200px;border:14px solid red;"">","null","","","","","","","","","",""
"","image-keyboard-response","219","211970","0.0-219.0","3TAYZSBPLMUIBA41M4RGIMO9VEI2S2","A598UDLZZZAJ3","3PIOQ99R7Y8STPN46QFY0SD7JTFNU0","","612.3000000119209","img/land3.png","76","613.3999999761581","3","0","1","2","0.8,0.2,0.2,0.2,0.8,0.2,0.2,0.2,0.8","0.8,0.2,0.2,0.2,0.8,0.2,0.2,0.2,0.8","1","",""
"","html-keyboard-response","220","212272","0.0-220.0","3TAYZSBPLMUIBA41M4RGIMO9VEI2S2","A598UDLZZZAJ3","3PIOQ99R7Y8STPN46QFY0SD7JTFNU0","","null","<img src=""img/land3.png"" style=""width:200px;border:14px solid red;"">","null","","","","","","","","","",""
"","image-keyboard-response","221","213036","0.0-221.0","3TAYZSBPLMUIBA41M4RGIMO9VEI2S2","A598UDLZZZAJ3","3PIOQ99R7Y8STPN46QFY0SD7JTFNU0","","762","img/land3.png","74","763.3999999761581","1","1","1","2","0.8,0.2,0.2,0.2,0.8,0.2,0.2,0.2,0.8","0.8,0.2,0.2,0.2,0.8,0.2,0.2,0.2,0.8","1","",""
"","html-keyboard-response","222","213338","0.0-222.0","3TAYZSBPLMUIBA41M4RGIMO9VEI2S2","A598UDLZZZAJ3","3PIOQ99R7Y8STPN46QFY0SD7JTFNU0","","null","<img src=""img/land3.png"" style=""width:200px; border:14px solid green;"">","null","","","","","","","","","",""
"","image-keyboard-response","223","214271","0.0-223.0","3TAYZSBPLMUIBA41M4RGIMO9VEI2S2","A598UDLZZZAJ3","3PIOQ99R7Y8STPN46QFY0SD7JTFNU0","","931.1999999880791","img/land3.png","74","932.1999999880791","1","1","1","2","0.8,0.2,0.2,0.2,0.8,0.2,0.2,0.2,0.8","0.8,0.2,0.2,0.2,0.8,0.2,0.2,0.2,0.8","1","",""
"","html-keyboard-response","224","214574","0.0-224.0","3TAYZSBPLMUIBA41M4RGIMO9VEI2S2","A598UDLZZZAJ3","3PIOQ99R7Y8STPN46QFY0SD7JTFNU0","","null","<img src=""img/land3.png"" style=""width:200px; border:14px solid green;"">","null","","","","","","","","","",""
"","image-keyboard-response","225","215491","0.0-225.0","3TAYZSBPLMUIBA41M4RGIMO9VEI2S2","A598UDLZZZAJ3","3PIOQ99R7Y8STPN46QFY0SD7JTFNU0","","915.6000000238419","img/land2.png","76","916.8999999761581","3","0","3","2","0.8,0.2,0.2,0.2,0.8,0.2,0.2,0.2,0.8","0.8,0.2,0.2,0.2,0.8,0.2,0.2,0.2,0.8","1","",""
"","html-keyboard-response","226","215793","0.0-226.0","3TAYZSBPLMUIBA41M4RGIMO9VEI2S2","A598UDLZZZAJ3","3PIOQ99R7Y8STPN46QFY0SD7JTFNU0","","null","<img src=""img/land2.png"" style=""width:200px;border:14px solid red;"">","null","","","","","","","","","",""
"","image-keyboard-response","227","216736","0.0-227.0","3TAYZSBPLMUIBA41M4RGIMO9VEI2S2","A598UDLZZZAJ3","3PIOQ99R7Y8STPN46QFY0SD7JTFNU0","","942.1999999880791","img/land3.png","74","943.5999999642372","1","1","1","2","0.8,0.2,0.2,0.2,0.8,0.2,0.2,0.2,0.8","0.8,0.2,0.2,0.2,0.8,0.2,0.2,0.2,0.8","1","",""
"","html-keyboard-response","228","217039","0.0-228.0","3TAYZSBPLMUIBA41M4RGIMO9VEI2S2","A598UDLZZZAJ3","3PIOQ99R7Y8STPN46QFY0SD7JTFNU0","","null","<img src=""img/land3.png"" style=""width:200px; border:14px solid green;"">","null","","","","","","","","","",""
"","image-keyboard-response","229","218307","0.0-229.0","3TAYZSBPLMUIBA41M4RGIMO9VEI2S2","A598UDLZZZAJ3","3PIOQ99R7Y8STPN46QFY0SD7JTFNU0","","1266.8999999761581","img/land4.png","76","1268.300000011921","3","0","2","2","0.8,0.2,0.2,0.2,0.8,0.2,0.2,0.2,0.8","0.8,0.2,0.2,0.2,0.8,0.2,0.2,0.2,0.8","1","",""
"","html-keyboard-response","230","218610","0.0-230.0","3TAYZSBPLMUIBA41M4RGIMO9VEI2S2","A598UDLZZZAJ3","3PIOQ99R7Y8STPN46QFY0SD7JTFNU0","","null","<img src=""img/land4.png"" style=""width:200px;border:14px solid red;"">","null","","","","","","","","","",""
"","image-keyboard-response","231","219303","0.0-231.0","3TAYZSBPLMUIBA41M4RGIMO9VEI2S2","A598UDLZZZAJ3","3PIOQ99R7Y8STPN46QFY0SD7JTFNU0","","691.7000000476837","img/land4.png","75","692.8999999761581","2","1","2","2","0.8,0.2,0.2,0.2,0.8,0.2,0.2,0.2,0.8","0.8,0.2,0.2,0.2,0.8,0.2,0.2,0.2,0.8","1","",""
"","html-keyboard-response","232","219605","0.0-232.0","3TAYZSBPLMUIBA41M4RGIMO9VEI2S2","A598UDLZZZAJ3","3PIOQ99R7Y8STPN46QFY0SD7JTFNU0","","null","<img src=""img/land4.png"" style=""width:200px; border:14px solid green;"">","null","","","","","","","","","",""
"","image-keyboard-response","233","220657","0.0-233.0","3TAYZSBPLMUIBA41M4RGIMO9VEI2S2","A598UDLZZZAJ3","3PIOQ99R7Y8STPN46QFY0SD7JTFNU0","","1049.699999988079","img/land4.png","75","1051.2000000476837","2","1","2","2","0.8,0.2,0.2,0.2,0.8,0.2,0.2,0.2,0.8","0.8,0.2,0.2,0.2,0.8,0.2,0.2,0.2,0.8","1","",""
"","html-keyboard-response","234","220958","0.0-234.0","3TAYZSBPLMUIBA41M4RGIMO9VEI2S2","A598UDLZZZAJ3","3PIOQ99R7Y8STPN46QFY0SD7JTFNU0","","null","<img src=""img/land4.png"" style=""width:200px; border:14px solid green;"">","null","","","","","","","","","",""
"","image-keyboard-response","235","221677","0.0-235.0","3TAYZSBPLMUIBA41M4RGIMO9VEI2S2","A598UDLZZZAJ3","3PIOQ99R7Y8STPN46QFY0SD7JTFNU0","","716.1999999880791","img/land3.png","74","717.6999999880791","1","1","1","2","0.8,0.2,0.2,0.2,0.8,0.2,0.2,0.2,0.8","0.8,0.2,0.2,0.2,0.8,0.2,0.2,0.2,0.8","1","",""
"","html-keyboard-response","236","221979","0.0-236.0","3TAYZSBPLMUIBA41M4RGIMO9VEI2S2","A598UDLZZZAJ3","3PIOQ99R7Y8STPN46QFY0SD7JTFNU0","","null","<img src=""img/land3.png"" style=""width:200px; border:14px solid green;"">","null","","","","","","","","","",""
"","image-keyboard-response","237","222616","0.0-237.0","3TAYZSBPLMUIBA41M4RGIMO9VEI2S2","A598UDLZZZAJ3","3PIOQ99R7Y8STPN46QFY0SD7JTFNU0","","635.8000000119209","img/land2.png","75","637.1999999880791","2","0","3","2","0.8,0.2,0.2,0.2,0.8,0.2,0.2,0.2,0.8","0.8,0.2,0.2,0.2,0.8,0.2,0.2,0.2,0.8","1","",""
"","html-keyboard-response","238","222918","0.0-238.0","3TAYZSBPLMUIBA41M4RGIMO9VEI2S2","A598UDLZZZAJ3","3PIOQ99R7Y8STPN46QFY0SD7JTFNU0","","null","<img src=""img/land2.png"" style=""width:200px;border:14px solid red;"">","null","","","","","","","","","",""
"","image-keyboard-response","239","223921","0.0-239.0","3TAYZSBPLMUIBA41M4RGIMO9VEI2S2","A598UDLZZZAJ3","3PIOQ99R7Y8STPN46QFY0SD7JTFNU0","","1001.2000000476837","img/land3.png","74","1002.5999999642372","1","1","1","2","0.8,0.2,0.2,0.2,0.8,0.2,0.2,0.2,0.8","0.8,0.2,0.2,0.2,0.8,0.2,0.2,0.2,0.8","1","",""
"","html-keyboard-response","240","224224","0.0-240.0","3TAYZSBPLMUIBA41M4RGIMO9VEI2S2","A598UDLZZZAJ3","3PIOQ99R7Y8STPN46QFY0SD7JTFNU0","","null","<img src=""img/land3.png"" style=""width:200px; border:14px solid green;"">","null","","","","","","","","","",""
"","image-keyboard-response","241","225381","0.0-241.0","3TAYZSBPLMUIBA41M4RGIMO9VEI2S2","A598UDLZZZAJ3","3PIOQ99R7Y8STPN46QFY0SD7JTFNU0","","1156.1000000238419","img/land4.png","76","1157.5999999642372","3","1","2","2","0.8,0.2,0.2,0.2,0.8,0.2,0.2,0.2,0.8","0.8,0.2,0.2,0.2,0.8,0.2,0.2,0.2,0.8","1","",""
"","html-keyboard-response","242","225684","0.0-242.0","3TAYZSBPLMUIBA41M4RGIMO9VEI2S2","A598UDLZZZAJ3","3PIOQ99R7Y8STPN46QFY0SD7JTFNU0","","null","<img src=""img/land4.png"" style=""width:200px; border:14px solid green;"">","null","","","","","","","","","",""
"","image-keyboard-response","243","226487","0.0-243.0","3TAYZSBPLMUIBA41M4RGIMO9VEI2S2","A598UDLZZZAJ3","3PIOQ99R7Y8STPN46QFY0SD7JTFNU0","","801.5","img/land3.png","74","803","1","0","1","2","0.8,0.2,0.2,0.2,0.8,0.2,0.2,0.2,0.8","0.8,0.2,0.2,0.2,0.8,0.2,0.2,0.2,0.8","1","",""
"","html-keyboard-response","244","226790","0.0-244.0","3TAYZSBPLMUIBA41M4RGIMO9VEI2S2","A598UDLZZZAJ3","3PIOQ99R7Y8STPN46QFY0SD7JTFNU0","","null","<img src=""img/land3.png"" style=""width:200px;border:14px solid red;"">","null","","","","","","","","","",""
"","image-keyboard-response","245","227571","0.0-245.0","3TAYZSBPLMUIBA41M4RGIMO9VEI2S2","A598UDLZZZAJ3","3PIOQ99R7Y8STPN46QFY0SD7JTFNU0","","780.3000000119209","img/land3.png","74","781.3000000119209","1","1","1","2","0.8,0.2,0.2,0.2,0.8,0.2,0.2,0.2,0.8","0.8,0.2,0.2,0.2,0.8,0.2,0.2,0.2,0.8","1","",""
"","html-keyboard-response","246","227873","0.0-246.0","3TAYZSBPLMUIBA41M4RGIMO9VEI2S2","A598UDLZZZAJ3","3PIOQ99R7Y8STPN46QFY0SD7JTFNU0","","null","<img src=""img/land3.png"" style=""width:200px; border:14px solid green;"">","null","","","","","","","","","",""
"","image-keyboard-response","247","228664","0.0-247.0","3TAYZSBPLMUIBA41M4RGIMO9VEI2S2","A598UDLZZZAJ3","3PIOQ99R7Y8STPN46QFY0SD7JTFNU0","","789.5","img/land3.png","74","790.6000000238419","1","1","1","2","0.8,0.2,0.2,0.2,0.8,0.2,0.2,0.2,0.8","0.8,0.2,0.2,0.2,0.8,0.2,0.2,0.2,0.8","1","",""
"","html-keyboard-response","248","228967","0.0-248.0","3TAYZSBPLMUIBA41M4RGIMO9VEI2S2","A598UDLZZZAJ3","3PIOQ99R7Y8STPN46QFY0SD7JTFNU0","","null","<img src=""img/land3.png"" style=""width:200px; border:14px solid green;"">","null","","","","","","","","","",""
"","image-keyboard-response","249","229876","0.0-249.0","3TAYZSBPLMUIBA41M4RGIMO9VEI2S2","A598UDLZZZAJ3","3PIOQ99R7Y8STPN46QFY0SD7JTFNU0","","907.3000000119209","img/land3.png","74","908.9000000357628","1","1","1","2","0.8,0.2,0.2,0.2,0.8,0.2,0.2,0.2,0.8","0.8,0.2,0.2,0.2,0.8,0.2,0.2,0.2,0.8","1","",""
"","html-keyboard-response","250","230179","0.0-250.0","3TAYZSBPLMUIBA41M4RGIMO9VEI2S2","A598UDLZZZAJ3","3PIOQ99R7Y8STPN46QFY0SD7JTFNU0","","null","<img src=""img/land3.png"" style=""width:200px; border:14px solid green;"">","null","","","","","","","","","",""
"","image-keyboard-response","251","231230","0.0-251.0","3TAYZSBPLMUIBA41M4RGIMO9VEI2S2","A598UDLZZZAJ3","3PIOQ99R7Y8STPN46QFY0SD7JTFNU0","","1049.699999988079","img/land2.png","76","1051","3","0","3","2","0.8,0.2,0.2,0.2,0.8,0.2,0.2,0.2,0.8","0.8,0.2,0.2,0.2,0.8,0.2,0.2,0.2,0.8","1","",""
"","html-keyboard-response","252","231533","0.0-252.0","3TAYZSBPLMUIBA41M4RGIMO9VEI2S2","A598UDLZZZAJ3","3PIOQ99R7Y8STPN46QFY0SD7JTFNU0","","null","<img src=""img/land2.png"" style=""width:200px;border:14px solid red;"">","null","","","","","","","","","",""
"","image-keyboard-response","253","232227","0.0-253.0","3TAYZSBPLMUIBA41M4RGIMO9VEI2S2","A598UDLZZZAJ3","3PIOQ99R7Y8STPN46QFY0SD7JTFNU0","","692.0999999642372","img/land3.png","75","693.5","2","0","1","2","0.8,0.2,0.2,0.2,0.8,0.2,0.2,0.2,0.8","0.8,0.2,0.2,0.2,0.8,0.2,0.2,0.2,0.8","1","",""
"","html-keyboard-response","254","232529","0.0-254.0","3TAYZSBPLMUIBA41M4RGIMO9VEI2S2","A598UDLZZZAJ3","3PIOQ99R7Y8STPN46QFY0SD7JTFNU0","","null","<img src=""img/land3.png"" style=""width:200px;border:14px solid red;"">","null","","","","","","","","","",""
"","image-keyboard-response","255","233094","0.0-255.0","3TAYZSBPLMUIBA41M4RGIMO9VEI2S2","A598UDLZZZAJ3","3PIOQ99R7Y8STPN46QFY0SD7JTFNU0","","563.5","img/land3.png","74","564.5","1","1","1","2","0.8,0.2,0.2,0.2,0.8,0.2,0.2,0.2,0.8","0.8,0.2,0.2,0.2,0.8,0.2,0.2,0.2,0.8","1","",""
"","html-keyboard-response","256","233396","0.0-256.0","3TAYZSBPLMUIBA41M4RGIMO9VEI2S2","A598UDLZZZAJ3","3PIOQ99R7Y8STPN46QFY0SD7JTFNU0","","null","<img src=""img/land3.png"" style=""width:200px; border:14px solid green;"">","null","","","","","","","","","",""
"","image-keyboard-response","257","234644","0.0-257.0","3TAYZSBPLMUIBA41M4RGIMO9VEI2S2","A598UDLZZZAJ3","3PIOQ99R7Y8STPN46QFY0SD7JTFNU0","","1245.9000000357628","img/land4.png","76","1247.5","3","1","2","2","0.8,0.2,0.2,0.2,0.8,0.2,0.2,0.2,0.8","0.8,0.2,0.2,0.2,0.8,0.2,0.2,0.2,0.8","1","",""
"","html-keyboard-response","258","234947","0.0-258.0","3TAYZSBPLMUIBA41M4RGIMO9VEI2S2","A598UDLZZZAJ3","3PIOQ99R7Y8STPN46QFY0SD7JTFNU0","","null","<img src=""img/land4.png"" style=""width:200px; border:14px solid green;"">","null","","","","","","","","","",""
"","image-keyboard-response","259","235535","0.0-259.0","3TAYZSBPLMUIBA41M4RGIMO9VEI2S2","A598UDLZZZAJ3","3PIOQ99R7Y8STPN46QFY0SD7JTFNU0","","585.6999999880791","img/land3.png","74","587.1999999880791","1","0","1","2","0.8,0.2,0.2,0.2,0.8,0.2,0.2,0.2,0.8","0.8,0.2,0.2,0.2,0.8,0.2,0.2,0.2,0.8","1","",""
"","html-keyboard-response","260","235837","0.0-260.0","3TAYZSBPLMUIBA41M4RGIMO9VEI2S2","A598UDLZZZAJ3","3PIOQ99R7Y8STPN46QFY0SD7JTFNU0","","null","<img src=""img/land3.png"" style=""width:200px;border:14px solid red;"">","null","","","","","","","","","",""
"","image-keyboard-response","261","237092","0.0-261.0","3TAYZSBPLMUIBA41M4RGIMO9VEI2S2","A598UDLZZZAJ3","3PIOQ99R7Y8STPN46QFY0SD7JTFNU0","","1252.8999999761581","img/land4.png","76","1254.300000011921","3","0","2","2","0.8,0.2,0.2,0.2,0.8,0.2,0.2,0.2,0.8","0.8,0.2,0.2,0.2,0.8,0.2,0.2,0.2,0.8","1","",""
"","html-keyboard-response","262","237394","0.0-262.0","3TAYZSBPLMUIBA41M4RGIMO9VEI2S2","A598UDLZZZAJ3","3PIOQ99R7Y8STPN46QFY0SD7JTFNU0","","null","<img src=""img/land4.png"" style=""width:200px;border:14px solid red;"">","null","","","","","","","","","",""
"","image-keyboard-response","263","238439","0.0-263.0","3TAYZSBPLMUIBA41M4RGIMO9VEI2S2","A598UDLZZZAJ3","3PIOQ99R7Y8STPN46QFY0SD7JTFNU0","","1042.8999999761581","img/land2.png","76","1044.300000011921","3","0","3","2","0.8,0.2,0.2,0.2,0.8,0.2,0.2,0.2,0.8","0.8,0.2,0.2,0.2,0.8,0.2,0.2,0.2,0.8","1","",""
"","html-keyboard-response","264","238742","0.0-264.0","3TAYZSBPLMUIBA41M4RGIMO9VEI2S2","A598UDLZZZAJ3","3PIOQ99R7Y8STPN46QFY0SD7JTFNU0","","null","<img src=""img/land2.png"" style=""width:200px;border:14px solid red;"">","null","","","","","","","","","",""
"","image-keyboard-response","265","240162","0.0-265.0","3TAYZSBPLMUIBA41M4RGIMO9VEI2S2","A598UDLZZZAJ3","3PIOQ99R7Y8STPN46QFY0SD7JTFNU0","","1418.6000000238419","img/land3.png","74","1420","1","1","1","2","0.8,0.2,0.2,0.2,0.8,0.2,0.2,0.2,0.8","0.8,0.2,0.2,0.2,0.8,0.2,0.2,0.2,0.8","1","",""
"","html-keyboard-response","266","240464","0.0-266.0","3TAYZSBPLMUIBA41M4RGIMO9VEI2S2","A598UDLZZZAJ3","3PIOQ99R7Y8STPN46QFY0SD7JTFNU0","","null","<img src=""img/land3.png"" style=""width:200px; border:14px solid green;"">","null","","","","","","","","","",""
"","image-keyboard-response","267","241592","0.0-267.0","3TAYZSBPLMUIBA41M4RGIMO9VEI2S2","A598UDLZZZAJ3","3PIOQ99R7Y8STPN46QFY0SD7JTFNU0","","1125.7000000476837","img/land4.png","76","1127.1000000238419","3","0","2","2","0.8,0.2,0.2,0.2,0.8,0.2,0.2,0.2,0.8","0.8,0.2,0.2,0.2,0.8,0.2,0.2,0.2,0.8","1","",""
"","html-keyboard-response","268","241894","0.0-268.0","3TAYZSBPLMUIBA41M4RGIMO9VEI2S2","A598UDLZZZAJ3","3PIOQ99R7Y8STPN46QFY0SD7JTFNU0","","null","<img src=""img/land4.png"" style=""width:200px;border:14px solid red;"">","null","","","","","","","","","",""
"","image-keyboard-response","269","242496","0.0-269.0","3TAYZSBPLMUIBA41M4RGIMO9VEI2S2","A598UDLZZZAJ3","3PIOQ99R7Y8STPN46QFY0SD7JTFNU0","","600.5999999642372","img/land4.png","74","601.6999999880791","1","1","2","2","0.8,0.2,0.2,0.2,0.8,0.2,0.2,0.2,0.8","0.8,0.2,0.2,0.2,0.8,0.2,0.2,0.2,0.8","1","",""
"","html-keyboard-response","270","242798","0.0-270.0","3TAYZSBPLMUIBA41M4RGIMO9VEI2S2","A598UDLZZZAJ3","3PIOQ99R7Y8STPN46QFY0SD7JTFNU0","","null","<img src=""img/land4.png"" style=""width:200px; border:14px solid green;"">","null","","","","","","","","","",""
"","image-keyboard-response","271","243445","0.0-271.0","3TAYZSBPLMUIBA41M4RGIMO9VEI2S2","A598UDLZZZAJ3","3PIOQ99R7Y8STPN46QFY0SD7JTFNU0","","645.1000000238419","img/land3.png","74","646.5","1","1","1","2","0.8,0.2,0.2,0.2,0.8,0.2,0.2,0.2,0.8","0.8,0.2,0.2,0.2,0.8,0.2,0.2,0.2,0.8","1","",""
"","html-keyboard-response","272","243746","0.0-272.0","3TAYZSBPLMUIBA41M4RGIMO9VEI2S2","A598UDLZZZAJ3","3PIOQ99R7Y8STPN46QFY0SD7JTFNU0","","null","<img src=""img/land3.png"" style=""width:200px; border:14px solid green;"">","null","","","","","","","","","",""
"","image-keyboard-response","273","244247","0.0-273.0","3TAYZSBPLMUIBA41M4RGIMO9VEI2S2","A598UDLZZZAJ3","3PIOQ99R7Y8STPN46QFY0SD7JTFNU0","","499.30000001192093","img/land4.png","75","500.5999999642372","2","1","2","2","0.8,0.2,0.2,0.2,0.8,0.2,0.2,0.2,0.8","0.8,0.2,0.2,0.2,0.8,0.2,0.2,0.2,0.8","1","",""
"","html-keyboard-response","274","244551","0.0-274.0","3TAYZSBPLMUIBA41M4RGIMO9VEI2S2","A598UDLZZZAJ3","3PIOQ99R7Y8STPN46QFY0SD7JTFNU0","","null","<img src=""img/land4.png"" style=""width:200px; border:14px solid green;"">","null","","","","","","","","","",""
"","image-keyboard-response","275","245536","0.0-275.0","3TAYZSBPLMUIBA41M4RGIMO9VEI2S2","A598UDLZZZAJ3","3PIOQ99R7Y8STPN46QFY0SD7JTFNU0","","984.2999999523163","img/land3.png","74","985.5","1","1","1","2","0.8,0.2,0.2,0.2,0.8,0.2,0.2,0.2,0.8","0.8,0.2,0.2,0.2,0.8,0.2,0.2,0.2,0.8","1","",""
"","html-keyboard-response","276","245838","0.0-276.0","3TAYZSBPLMUIBA41M4RGIMO9VEI2S2","A598UDLZZZAJ3","3PIOQ99R7Y8STPN46QFY0SD7JTFNU0","","null","<img src=""img/land3.png"" style=""width:200px; border:14px solid green;"">","null","","","","","","","","","",""
"","image-keyboard-response","277","246365","0.0-277.0","3TAYZSBPLMUIBA41M4RGIMO9VEI2S2","A598UDLZZZAJ3","3PIOQ99R7Y8STPN46QFY0SD7JTFNU0","","525.5","img/land3.png","74","526.6000000238419","1","1","1","2","0.8,0.2,0.2,0.2,0.8,0.2,0.2,0.2,0.8","0.8,0.2,0.2,0.2,0.8,0.2,0.2,0.2,0.8","1","",""
"","html-keyboard-response","278","246668","0.0-278.0","3TAYZSBPLMUIBA41M4RGIMO9VEI2S2","A598UDLZZZAJ3","3PIOQ99R7Y8STPN46QFY0SD7JTFNU0","","null","<img src=""img/land3.png"" style=""width:200px; border:14px solid green;"">","null","","","","","","","","","",""
"","image-keyboard-response","279","247450","0.0-279.0","3TAYZSBPLMUIBA41M4RGIMO9VEI2S2","A598UDLZZZAJ3","3PIOQ99R7Y8STPN46QFY0SD7JTFNU0","","779.9000000357628","img/land3.png","74","781.5","1","1","1","2","0.8,0.2,0.2,0.2,0.8,0.2,0.2,0.2,0.8","0.8,0.2,0.2,0.2,0.8,0.2,0.2,0.2,0.8","1","",""
"","html-keyboard-response","280","247752","0.0-280.0","3TAYZSBPLMUIBA41M4RGIMO9VEI2S2","A598UDLZZZAJ3","3PIOQ99R7Y8STPN46QFY0SD7JTFNU0","","null","<img src=""img/land3.png"" style=""width:200px; border:14px solid green;"">","null","","","","","","","","","",""
"","image-keyboard-response","281","248561","0.0-281.0","3TAYZSBPLMUIBA41M4RGIMO9VEI2S2","A598UDLZZZAJ3","3PIOQ99R7Y8STPN46QFY0SD7JTFNU0","","807.2000000476837","img/land3.png","74","808.6999999880791","1","1","1","2","0.8,0.2,0.2,0.2,0.8,0.2,0.2,0.2,0.8","0.8,0.2,0.2,0.2,0.8,0.2,0.2,0.2,0.8","1","",""
"","html-keyboard-response","282","248864","0.0-282.0","3TAYZSBPLMUIBA41M4RGIMO9VEI2S2","A598UDLZZZAJ3","3PIOQ99R7Y8STPN46QFY0SD7JTFNU0","","null","<img src=""img/land3.png"" style=""width:200px; border:14px solid green;"">","null","","","","","","","","","",""
"","image-keyboard-response","283","249445","0.0-283.0","3TAYZSBPLMUIBA41M4RGIMO9VEI2S2","A598UDLZZZAJ3","3PIOQ99R7Y8STPN46QFY0SD7JTFNU0","","579.1999999880791","img/land2.png","75","580.3000000119209","2","0","3","2","0.8,0.2,0.2,0.2,0.8,0.2,0.2,0.2,0.8","0.8,0.2,0.2,0.2,0.8,0.2,0.2,0.2,0.8","1","",""
"","html-keyboard-response","284","249747","0.0-284.0","3TAYZSBPLMUIBA41M4RGIMO9VEI2S2","A598UDLZZZAJ3","3PIOQ99R7Y8STPN46QFY0SD7JTFNU0","","null","<img src=""img/land2.png"" style=""width:200px;border:14px solid red;"">","null","","","","","","","","","",""
"","image-keyboard-response","285","250481","0.0-285.0","3TAYZSBPLMUIBA41M4RGIMO9VEI2S2","A598UDLZZZAJ3","3PIOQ99R7Y8STPN46QFY0SD7JTFNU0","","731.8999999761581","img/land3.png","74","733.2000000476837","1","1","1","2","0.8,0.2,0.2,0.2,0.8,0.2,0.2,0.2,0.8","0.8,0.2,0.2,0.2,0.8,0.2,0.2,0.2,0.8","1","",""
"","html-keyboard-response","286","250783","0.0-286.0","3TAYZSBPLMUIBA41M4RGIMO9VEI2S2","A598UDLZZZAJ3","3PIOQ99R7Y8STPN46QFY0SD7JTFNU0","","null","<img src=""img/land3.png"" style=""width:200px; border:14px solid green;"">","null","","","","","","","","","",""
"","image-keyboard-response","287","251538","0.0-287.0","3TAYZSBPLMUIBA41M4RGIMO9VEI2S2","A598UDLZZZAJ3","3PIOQ99R7Y8STPN46QFY0SD7JTFNU0","","754.5999999642372","img/land3.png","74","755.6999999880791","1","1","1","2","0.8,0.2,0.2,0.2,0.8,0.2,0.2,0.2,0.8","0.8,0.2,0.2,0.2,0.8,0.2,0.2,0.2,0.8","1","",""
"","html-keyboard-response","288","251840","0.0-288.0","3TAYZSBPLMUIBA41M4RGIMO9VEI2S2","A598UDLZZZAJ3","3PIOQ99R7Y8STPN46QFY0SD7JTFNU0","","null","<img src=""img/land3.png"" style=""width:200px; border:14px solid green;"">","null","","","","","","","","","",""
"","image-keyboard-response","289","252501","0.0-289.0","3TAYZSBPLMUIBA41M4RGIMO9VEI2S2","A598UDLZZZAJ3","3PIOQ99R7Y8STPN46QFY0SD7JTFNU0","","659.4000000357628","img/land3.png","74","660.6999999880791","1","1","1","2","0.8,0.2,0.2,0.2,0.8,0.2,0.2,0.2,0.8","0.8,0.2,0.2,0.2,0.8,0.2,0.2,0.2,0.8","1","",""
"","html-keyboard-response","290","252804","0.0-290.0","3TAYZSBPLMUIBA41M4RGIMO9VEI2S2","A598UDLZZZAJ3","3PIOQ99R7Y8STPN46QFY0SD7JTFNU0","","null","<img src=""img/land3.png"" style=""width:200px; border:14px solid green;"">","null","","","","","","","","","",""
"","image-keyboard-response","291","253273","0.0-291.0","3TAYZSBPLMUIBA41M4RGIMO9VEI2S2","A598UDLZZZAJ3","3PIOQ99R7Y8STPN46QFY0SD7JTFNU0","","467.0999999642372","img/land3.png","74","468.5","1","0","1","2","0.8,0.2,0.2,0.2,0.8,0.2,0.2,0.2,0.8","0.8,0.2,0.2,0.2,0.8,0.2,0.2,0.2,0.8","1","",""
"","html-keyboard-response","292","253575","0.0-292.0","3TAYZSBPLMUIBA41M4RGIMO9VEI2S2","A598UDLZZZAJ3","3PIOQ99R7Y8STPN46QFY0SD7JTFNU0","","null","<img src=""img/land3.png"" style=""width:200px;border:14px solid red;"">","null","","","","","","","","","",""
"","image-keyboard-response","293","254211","0.0-293.0","3TAYZSBPLMUIBA41M4RGIMO9VEI2S2","A598UDLZZZAJ3","3PIOQ99R7Y8STPN46QFY0SD7JTFNU0","","634.3999999761581","img/land2.png","76","635.7999999523163","3","1","3","2","0.8,0.2,0.2,0.2,0.8,0.2,0.2,0.2,0.8","0.8,0.2,0.2,0.2,0.8,0.2,0.2,0.2,0.8","1","",""
"","html-keyboard-response","294","254512","0.0-294.0","3TAYZSBPLMUIBA41M4RGIMO9VEI2S2","A598UDLZZZAJ3","3PIOQ99R7Y8STPN46QFY0SD7JTFNU0","","null","<img src=""img/land2.png"" style=""width:200px; border:14px solid green;"">","null","","","","","","","","","",""
"","image-keyboard-response","295","255558","0.0-295.0","3TAYZSBPLMUIBA41M4RGIMO9VEI2S2","A598UDLZZZAJ3","3PIOQ99R7Y8STPN46QFY0SD7JTFNU0","","1044.699999988079","img/land2.png","76","1045.800000011921","3","1","3","2","0.8,0.2,0.2,0.2,0.8,0.2,0.2,0.2,0.8","0.8,0.2,0.2,0.2,0.8,0.2,0.2,0.2,0.8","1","",""
"","html-keyboard-response","296","255868","0.0-296.0","3TAYZSBPLMUIBA41M4RGIMO9VEI2S2","A598UDLZZZAJ3","3PIOQ99R7Y8STPN46QFY0SD7JTFNU0","","null","<img src=""img/land2.png"" style=""width:200px; border:14px solid green;"">","null","","","","","","","","","",""
"","image-keyboard-response","297","256643","0.0-297.0","3TAYZSBPLMUIBA41M4RGIMO9VEI2S2","A598UDLZZZAJ3","3PIOQ99R7Y8STPN46QFY0SD7JTFNU0","","772.5999999642372","img/land4.png","75","774","2","0","2","2","0.8,0.2,0.2,0.2,0.8,0.2,0.2,0.2,0.8","0.8,0.2,0.2,0.2,0.8,0.2,0.2,0.2,0.8","1","",""
"","html-keyboard-response","298","256946","0.0-298.0","3TAYZSBPLMUIBA41M4RGIMO9VEI2S2","A598UDLZZZAJ3","3PIOQ99R7Y8STPN46QFY0SD7JTFNU0","","null","<img src=""img/land4.png"" style=""width:200px;border:14px solid red;"">","null","","","","","","","","","",""
"","image-keyboard-response","299","257530","0.0-299.0","3TAYZSBPLMUIBA41M4RGIMO9VEI2S2","A598UDLZZZAJ3","3PIOQ99R7Y8STPN46QFY0SD7JTFNU0","","583.2999999523163","img/land3.png","76","584.1000000238419","3","0","1","2","0.8,0.2,0.2,0.2,0.8,0.2,0.2,0.2,0.8","0.8,0.2,0.2,0.2,0.8,0.2,0.2,0.2,0.8","1","",""
"","html-keyboard-response","300","257831","0.0-300.0","3TAYZSBPLMUIBA41M4RGIMO9VEI2S2","A598UDLZZZAJ3","3PIOQ99R7Y8STPN46QFY0SD7JTFNU0","","null","<img src=""img/land3.png"" style=""width:200px;border:14px solid red;"">","null","","","","","","","","","",""
"","image-keyboard-response","301","258545","0.0-301.0","3TAYZSBPLMUIBA41M4RGIMO9VEI2S2","A598UDLZZZAJ3","3PIOQ99R7Y8STPN46QFY0SD7JTFNU0","","712","img/land3.png","74","713.3000000119209","1","1","1","2","0.8,0.2,0.2,0.2,0.8,0.2,0.2,0.2,0.8","0.8,0.2,0.2,0.2,0.8,0.2,0.2,0.2,0.8","1","",""
"","html-keyboard-response","302","258847","0.0-302.0","3TAYZSBPLMUIBA41M4RGIMO9VEI2S2","A598UDLZZZAJ3","3PIOQ99R7Y8STPN46QFY0SD7JTFNU0","","null","<img src=""img/land3.png"" style=""width:200px; border:14px solid green;"">","null","","","","","","","","","",""
"","image-keyboard-response","303","259545","0.0-303.0","3TAYZSBPLMUIBA41M4RGIMO9VEI2S2","A598UDLZZZAJ3","3PIOQ99R7Y8STPN46QFY0SD7JTFNU0","","696.1999999880791","img/land3.png","74","697.6000000238419","1","1","1","2","0.8,0.2,0.2,0.2,0.8,0.2,0.2,0.2,0.8","0.8,0.2,0.2,0.2,0.8,0.2,0.2,0.2,0.8","1","",""
"","html-keyboard-response","304","259847","0.0-304.0","3TAYZSBPLMUIBA41M4RGIMO9VEI2S2","A598UDLZZZAJ3","3PIOQ99R7Y8STPN46QFY0SD7JTFNU0","","null","<img src=""img/land3.png"" style=""width:200px; border:14px solid green;"">","null","","","","","","","","","",""
"","image-keyboard-response","305","260580","0.0-305.0","3TAYZSBPLMUIBA41M4RGIMO9VEI2S2","A598UDLZZZAJ3","3PIOQ99R7Y8STPN46QFY0SD7JTFNU0","","731.3000000119209","img/land3.png","74","732.6999999880791","1","1","1","2","0.8,0.2,0.2,0.2,0.8,0.2,0.2,0.2,0.8","0.8,0.2,0.2,0.2,0.8,0.2,0.2,0.2,0.8","1","",""
"","html-keyboard-response","306","260882","0.0-306.0","3TAYZSBPLMUIBA41M4RGIMO9VEI2S2","A598UDLZZZAJ3","3PIOQ99R7Y8STPN46QFY0SD7JTFNU0","","null","<img src=""img/land3.png"" style=""width:200px; border:14px solid green;"">","null","","","","","","","","","",""
"","image-keyboard-response","307","261666","0.0-307.0","3TAYZSBPLMUIBA41M4RGIMO9VEI2S2","A598UDLZZZAJ3","3PIOQ99R7Y8STPN46QFY0SD7JTFNU0","","782.4000000357628","img/land3.png","74","783.8000000119209","1","0","1","2","0.8,0.2,0.2,0.2,0.8,0.2,0.2,0.2,0.8","0.8,0.2,0.2,0.2,0.8,0.2,0.2,0.2,0.8","1","",""
"","html-keyboard-response","308","261968","0.0-308.0","3TAYZSBPLMUIBA41M4RGIMO9VEI2S2","A598UDLZZZAJ3","3PIOQ99R7Y8STPN46QFY0SD7JTFNU0","","null","<img src=""img/land3.png"" style=""width:200px;border:14px solid red;"">","null","","","","","","","","","",""
"","image-keyboard-response","309","262918","0.0-309.0","3TAYZSBPLMUIBA41M4RGIMO9VEI2S2","A598UDLZZZAJ3","3PIOQ99R7Y8STPN46QFY0SD7JTFNU0","","947.6000000238419","img/land3.png","75","949","2","0","1","2","0.8,0.2,0.2,0.2,0.8,0.2,0.2,0.2,0.8","0.8,0.2,0.2,0.2,0.8,0.2,0.2,0.2,0.8","1","",""
"","html-keyboard-response","310","263221","0.0-310.0","3TAYZSBPLMUIBA41M4RGIMO9VEI2S2","A598UDLZZZAJ3","3PIOQ99R7Y8STPN46QFY0SD7JTFNU0","","null","<img src=""img/land3.png"" style=""width:200px;border:14px solid red;"">","null","","","","","","","","","",""
"","image-keyboard-response","311","263934","0.0-311.0","3TAYZSBPLMUIBA41M4RGIMO9VEI2S2","A598UDLZZZAJ3","3PIOQ99R7Y8STPN46QFY0SD7JTFNU0","","711.6999999880791","img/land4.png","76","713","3","1","2","2","0.8,0.2,0.2,0.2,0.8,0.2,0.2,0.2,0.8","0.8,0.2,0.2,0.2,0.8,0.2,0.2,0.2,0.8","1","",""
"","html-keyboard-response","312","264237","0.0-312.0","3TAYZSBPLMUIBA41M4RGIMO9VEI2S2","A598UDLZZZAJ3","3PIOQ99R7Y8STPN46QFY0SD7JTFNU0","","null","<img src=""img/land4.png"" style=""width:200px; border:14px solid green;"">","null","","","","","","","","","",""
"","image-keyboard-response","313","265075","0.0-313.0","3TAYZSBPLMUIBA41M4RGIMO9VEI2S2","A598UDLZZZAJ3","3PIOQ99R7Y8STPN46QFY0SD7JTFNU0","","837","img/land4.png","76","838.3000000119209","3","0","2","2","0.8,0.2,0.2,0.2,0.8,0.2,0.2,0.2,0.8","0.8,0.2,0.2,0.2,0.8,0.2,0.2,0.2,0.8","1","",""
"","html-keyboard-response","314","265378","0.0-314.0","3TAYZSBPLMUIBA41M4RGIMO9VEI2S2","A598UDLZZZAJ3","3PIOQ99R7Y8STPN46QFY0SD7JTFNU0","","null","<img src=""img/land4.png"" style=""width:200px;border:14px solid red;"">","null","","","","","","","","","",""
"","image-keyboard-response","315","265875","0.0-315.0","3TAYZSBPLMUIBA41M4RGIMO9VEI2S2","A598UDLZZZAJ3","3PIOQ99R7Y8STPN46QFY0SD7JTFNU0","","495.9000000357628","img/land3.png","74","497.19999998807907","1","1","1","2","0.8,0.2,0.2,0.2,0.8,0.2,0.2,0.2,0.8","0.8,0.2,0.2,0.2,0.8,0.2,0.2,0.2,0.8","1","",""
"","html-keyboard-response","316","266178","0.0-316.0","3TAYZSBPLMUIBA41M4RGIMO9VEI2S2","A598UDLZZZAJ3","3PIOQ99R7Y8STPN46QFY0SD7JTFNU0","","null","<img src=""img/land3.png"" style=""width:200px; border:14px solid green;"">","null","","","","","","","","","",""
"","image-keyboard-response","317","267369","0.0-317.0","3TAYZSBPLMUIBA41M4RGIMO9VEI2S2","A598UDLZZZAJ3","3PIOQ99R7Y8STPN46QFY0SD7JTFNU0","","1190.2000000476837","img/land2.png","75","1191","2","1","3","2","0.8,0.2,0.2,0.2,0.8,0.2,0.2,0.2,0.8","0.8,0.2,0.2,0.2,0.8,0.2,0.2,0.2,0.8","1","",""
"","html-keyboard-response","318","267670","0.0-318.0","3TAYZSBPLMUIBA41M4RGIMO9VEI2S2","A598UDLZZZAJ3","3PIOQ99R7Y8STPN46QFY0SD7JTFNU0","","null","<img src=""img/land2.png"" style=""width:200px; border:14px solid green;"">","null","","","","","","","","","",""
"","image-keyboard-response","319","268354","0.0-319.0","3TAYZSBPLMUIBA41M4RGIMO9VEI2S2","A598UDLZZZAJ3","3PIOQ99R7Y8STPN46QFY0SD7JTFNU0","","682.1999999880791","img/land2.png","74","683.3999999761581","1","0","3","2","0.8,0.2,0.2,0.2,0.8,0.2,0.2,0.2,0.8","0.8,0.2,0.2,0.2,0.8,0.2,0.2,0.2,0.8","1","",""
"","html-keyboard-response","320","268656","0.0-320.0","3TAYZSBPLMUIBA41M4RGIMO9VEI2S2","A598UDLZZZAJ3","3PIOQ99R7Y8STPN46QFY0SD7JTFNU0","","null","<img src=""img/land2.png"" style=""width:200px;border:14px solid red;"">","null","","","","","","","","","",""
"","image-keyboard-response","321","269505","0.0-321.0","3TAYZSBPLMUIBA41M4RGIMO9VEI2S2","A598UDLZZZAJ3","3PIOQ99R7Y8STPN46QFY0SD7JTFNU0","","848.0999999642372","img/land3.png","74","849.1000000238419","1","0","1","2","0.8,0.2,0.2,0.2,0.8,0.2,0.2,0.2,0.8","0.8,0.2,0.2,0.2,0.8,0.2,0.2,0.2,0.8","1","",""
"","html-keyboard-response","322","269806","0.0-322.0","3TAYZSBPLMUIBA41M4RGIMO9VEI2S2","A598UDLZZZAJ3","3PIOQ99R7Y8STPN46QFY0SD7JTFNU0","","null","<img src=""img/land3.png"" style=""width:200px;border:14px solid red;"">","null","","","","","","","","","",""
"","image-keyboard-response","323","270655","0.0-323.0","3TAYZSBPLMUIBA41M4RGIMO9VEI2S2","A598UDLZZZAJ3","3PIOQ99R7Y8STPN46QFY0SD7JTFNU0","","847.8000000119209","img/land2.png","75","849.1000000238419","2","1","3","2","0.8,0.2,0.2,0.2,0.8,0.2,0.2,0.2,0.8","0.8,0.2,0.2,0.2,0.8,0.2,0.2,0.2,0.8","1","",""
"","html-keyboard-response","324","270958","0.0-324.0","3TAYZSBPLMUIBA41M4RGIMO9VEI2S2","A598UDLZZZAJ3","3PIOQ99R7Y8STPN46QFY0SD7JTFNU0","","null","<img src=""img/land2.png"" style=""width:200px; border:14px solid green;"">","null","","","","","","","","","",""
"","image-keyboard-response","325","271993","0.0-325.0","3TAYZSBPLMUIBA41M4RGIMO9VEI2S2","A598UDLZZZAJ3","3PIOQ99R7Y8STPN46QFY0SD7JTFNU0","","1033.2999999523163","img/land3.png","74","1034.5999999642372","1","1","1","2","0.8,0.2,0.2,0.2,0.8,0.2,0.2,0.2,0.8","0.8,0.2,0.2,0.2,0.8,0.2,0.2,0.2,0.8","1","",""
"","html-keyboard-response","326","272295","0.0-326.0","3TAYZSBPLMUIBA41M4RGIMO9VEI2S2","A598UDLZZZAJ3","3PIOQ99R7Y8STPN46QFY0SD7JTFNU0","","null","<img src=""img/land3.png"" style=""width:200px; border:14px solid green;"">","null","","","","","","","","","",""
"","image-keyboard-response","327","273026","0.0-327.0","3TAYZSBPLMUIBA41M4RGIMO9VEI2S2","A598UDLZZZAJ3","3PIOQ99R7Y8STPN46QFY0SD7JTFNU0","","729.8000000119209","img/land3.png","74","731.1999999880791","1","1","1","2","0.8,0.2,0.2,0.2,0.8,0.2,0.2,0.2,0.8","0.8,0.2,0.2,0.2,0.8,0.2,0.2,0.2,0.8","1","",""
"","html-keyboard-response","328","273328","0.0-328.0","3TAYZSBPLMUIBA41M4RGIMO9VEI2S2","A598UDLZZZAJ3","3PIOQ99R7Y8STPN46QFY0SD7JTFNU0","","null","<img src=""img/land3.png"" style=""width:200px; border:14px solid green;"">","null","","","","","","","","","",""
"","image-keyboard-response","329","273994","0.0-329.0","3TAYZSBPLMUIBA41M4RGIMO9VEI2S2","A598UDLZZZAJ3","3PIOQ99R7Y8STPN46QFY0SD7JTFNU0","","664","img/land3.png","74","665.0999999642372","1","0","1","2","0.8,0.2,0.2,0.2,0.8,0.2,0.2,0.2,0.8","0.8,0.2,0.2,0.2,0.8,0.2,0.2,0.2,0.8","1","",""
"","html-keyboard-response","330","274296","0.0-330.0","3TAYZSBPLMUIBA41M4RGIMO9VEI2S2","A598UDLZZZAJ3","3PIOQ99R7Y8STPN46QFY0SD7JTFNU0","","null","<img src=""img/land3.png"" style=""width:200px;border:14px solid red;"">","null","","","","","","","","","",""
"","image-keyboard-response","331","275278","0.0-331.0","3TAYZSBPLMUIBA41M4RGIMO9VEI2S2","A598UDLZZZAJ3","3PIOQ99R7Y8STPN46QFY0SD7JTFNU0","","980.4000000357628","img/land2.png","75","981.8999999761581","2","0","3","2","0.8,0.2,0.2,0.2,0.8,0.2,0.2,0.2,0.8","0.8,0.2,0.2,0.2,0.8,0.2,0.2,0.2,0.8","1","",""
"","html-keyboard-response","332","275580","0.0-332.0","3TAYZSBPLMUIBA41M4RGIMO9VEI2S2","A598UDLZZZAJ3","3PIOQ99R7Y8STPN46QFY0SD7JTFNU0","","null","<img src=""img/land2.png"" style=""width:200px;border:14px solid red;"">","null","","","","","","","","","",""
"","image-keyboard-response","333","275960","0.0-333.0","3TAYZSBPLMUIBA41M4RGIMO9VEI2S2","A598UDLZZZAJ3","3PIOQ99R7Y8STPN46QFY0SD7JTFNU0","","377.89999997615814","img/land2.png","76","379.39999997615814","3","1","3","2","0.8,0.2,0.2,0.2,0.8,0.2,0.2,0.2,0.8","0.8,0.2,0.2,0.2,0.8,0.2,0.2,0.2,0.8","1","",""
"","html-keyboard-response","334","276263","0.0-334.0","3TAYZSBPLMUIBA41M4RGIMO9VEI2S2","A598UDLZZZAJ3","3PIOQ99R7Y8STPN46QFY0SD7JTFNU0","","null","<img src=""img/land2.png"" style=""width:200px; border:14px solid green;"">","null","","","","","","","","","",""
"","image-keyboard-response","335","277045","0.0-335.0","3TAYZSBPLMUIBA41M4RGIMO9VEI2S2","A598UDLZZZAJ3","3PIOQ99R7Y8STPN46QFY0SD7JTFNU0","","780.6000000238419","img/land2.png","76","781.9000000357628","3","1","3","2","0.8,0.2,0.2,0.2,0.8,0.2,0.2,0.2,0.8","0.8,0.2,0.2,0.2,0.8,0.2,0.2,0.2,0.8","1","",""
"","html-keyboard-response","336","277348","0.0-336.0","3TAYZSBPLMUIBA41M4RGIMO9VEI2S2","A598UDLZZZAJ3","3PIOQ99R7Y8STPN46QFY0SD7JTFNU0","","null","<img src=""img/land2.png"" style=""width:200px; border:14px solid green;"">","null","","","","","","","","","",""
"","image-keyboard-response","337","278538","0.0-337.0","3TAYZSBPLMUIBA41M4RGIMO9VEI2S2","A598UDLZZZAJ3","3PIOQ99R7Y8STPN46QFY0SD7JTFNU0","","1188.6000000238419","img/land3.png","74","1190.199999988079","1","1","1","2","0.8,0.2,0.2,0.2,0.8,0.2,0.2,0.2,0.8","0.8,0.2,0.2,0.2,0.8,0.2,0.2,0.2,0.8","1","",""
"","html-keyboard-response","338","278840","0.0-338.0","3TAYZSBPLMUIBA41M4RGIMO9VEI2S2","A598UDLZZZAJ3","3PIOQ99R7Y8STPN46QFY0SD7JTFNU0","","null","<img src=""img/land3.png"" style=""width:200px; border:14px solid green;"">","null","","","","","","","","","",""
"","image-keyboard-response","339","279848","0.0-339.0","3TAYZSBPLMUIBA41M4RGIMO9VEI2S2","A598UDLZZZAJ3","3PIOQ99R7Y8STPN46QFY0SD7JTFNU0","","1005.9000000357628","img/land2.png","75","1007.0999999642372","2","0","3","2","0.8,0.2,0.2,0.2,0.8,0.2,0.2,0.2,0.8","0.8,0.2,0.2,0.2,0.8,0.2,0.2,0.2,0.8","1","",""
"","html-keyboard-response","340","280150","0.0-340.0","3TAYZSBPLMUIBA41M4RGIMO9VEI2S2","A598UDLZZZAJ3","3PIOQ99R7Y8STPN46QFY0SD7JTFNU0","","null","<img src=""img/land2.png"" style=""width:200px;border:14px solid red;"">","null","","","","","","","","","",""
"","image-keyboard-response","341","280950","0.0-341.0","3TAYZSBPLMUIBA41M4RGIMO9VEI2S2","A598UDLZZZAJ3","3PIOQ99R7Y8STPN46QFY0SD7JTFNU0","","799.1000000238419","img/land3.png","74","800.3999999761581","1","1","1","2","0.8,0.2,0.2,0.2,0.8,0.2,0.2,0.2,0.8","0.8,0.2,0.2,0.2,0.8,0.2,0.2,0.2,0.8","1","",""
"","html-keyboard-response","342","281253","0.0-342.0","3TAYZSBPLMUIBA41M4RGIMO9VEI2S2","A598UDLZZZAJ3","3PIOQ99R7Y8STPN46QFY0SD7JTFNU0","","null","<img src=""img/land3.png"" style=""width:200px; border:14px solid green;"">","null","","","","","","","","","",""
"","image-keyboard-response","343","282248","0.0-343.0","3TAYZSBPLMUIBA41M4RGIMO9VEI2S2","A598UDLZZZAJ3","3PIOQ99R7Y8STPN46QFY0SD7JTFNU0","","993.0999999642372","img/land4.png","76","994.3999999761581","3","1","2","2","0.8,0.2,0.2,0.2,0.8,0.2,0.2,0.2,0.8","0.8,0.2,0.2,0.2,0.8,0.2,0.2,0.2,0.8","1","",""
"","html-keyboard-response","344","282550","0.0-344.0","3TAYZSBPLMUIBA41M4RGIMO9VEI2S2","A598UDLZZZAJ3","3PIOQ99R7Y8STPN46QFY0SD7JTFNU0","","null","<img src=""img/land4.png"" style=""width:200px; border:14px solid green;"">","null","","","","","","","","","",""
"","image-keyboard-response","345","283775","0.0-345.0","3TAYZSBPLMUIBA41M4RGIMO9VEI2S2","A598UDLZZZAJ3","3PIOQ99R7Y8STPN46QFY0SD7JTFNU0","","1223.9000000357628","img/land2.png","76","1224.7000000476837","3","0","3","2","0.8,0.2,0.2,0.2,0.8,0.2,0.2,0.2,0.8","0.8,0.2,0.2,0.2,0.8,0.2,0.2,0.2,0.8","1","",""
"","html-keyboard-response","346","284077","0.0-346.0","3TAYZSBPLMUIBA41M4RGIMO9VEI2S2","A598UDLZZZAJ3","3PIOQ99R7Y8STPN46QFY0SD7JTFNU0","","null","<img src=""img/land2.png"" style=""width:200px;border:14px solid red;"">","null","","","","","","","","","",""
"","image-keyboard-response","347","284751","0.0-347.0","3TAYZSBPLMUIBA41M4RGIMO9VEI2S2","A598UDLZZZAJ3","3PIOQ99R7Y8STPN46QFY0SD7JTFNU0","","672.3000000119209","img/land3.png","74","673.7999999523163","1","1","1","2","0.8,0.2,0.2,0.2,0.8,0.2,0.2,0.2,0.8","0.8,0.2,0.2,0.2,0.8,0.2,0.2,0.2,0.8","1","",""
"","html-keyboard-response","348","285054","0.0-348.0","3TAYZSBPLMUIBA41M4RGIMO9VEI2S2","A598UDLZZZAJ3","3PIOQ99R7Y8STPN46QFY0SD7JTFNU0","","null","<img src=""img/land3.png"" style=""width:200px; border:14px solid green;"">","null","","","","","","","","","",""
"","image-keyboard-response","349","285813","0.0-349.0","3TAYZSBPLMUIBA41M4RGIMO9VEI2S2","A598UDLZZZAJ3","3PIOQ99R7Y8STPN46QFY0SD7JTFNU0","","758.3000000119209","img/land3.png","74","759.4000000357628","1","1","1","2","0.8,0.2,0.2,0.2,0.8,0.2,0.2,0.2,0.8","0.8,0.2,0.2,0.2,0.8,0.2,0.2,0.2,0.8","1","",""
"","html-keyboard-response","350","286115","0.0-350.0","3TAYZSBPLMUIBA41M4RGIMO9VEI2S2","A598UDLZZZAJ3","3PIOQ99R7Y8STPN46QFY0SD7JTFNU0","","null","<img src=""img/land3.png"" style=""width:200px; border:14px solid green;"">","null","","","","","","","","","",""
"","image-keyboard-response","351","287505","0.0-351.0","3TAYZSBPLMUIBA41M4RGIMO9VEI2S2","A598UDLZZZAJ3","3PIOQ99R7Y8STPN46QFY0SD7JTFNU0","","1388","img/land4.png","75","1389.5","2","1","2","2","0.8,0.2,0.2,0.2,0.8,0.2,0.2,0.2,0.8","0.8,0.2,0.2,0.2,0.8,0.2,0.2,0.2,0.8","1","",""
"","html-keyboard-response","352","287819","0.0-352.0","3TAYZSBPLMUIBA41M4RGIMO9VEI2S2","A598UDLZZZAJ3","3PIOQ99R7Y8STPN46QFY0SD7JTFNU0","","null","<img src=""img/land4.png"" style=""width:200px; border:14px solid green;"">","null","","","","","","","","","",""
"","image-keyboard-response","353","288635","0.0-353.0","3TAYZSBPLMUIBA41M4RGIMO9VEI2S2","A598UDLZZZAJ3","3PIOQ99R7Y8STPN46QFY0SD7JTFNU0","","814.1000000238419","img/land2.png","75","815.5","2","0","3","2","0.8,0.2,0.2,0.2,0.8,0.2,0.2,0.2,0.8","0.8,0.2,0.2,0.2,0.8,0.2,0.2,0.2,0.8","1","",""
"","html-keyboard-response","354","288946","0.0-354.0","3TAYZSBPLMUIBA41M4RGIMO9VEI2S2","A598UDLZZZAJ3","3PIOQ99R7Y8STPN46QFY0SD7JTFNU0","","null","<img src=""img/land2.png"" style=""width:200px;border:14px solid red;"">","null","","","","","","","","","",""
"","image-keyboard-response","355","289146","0.0-355.0","3TAYZSBPLMUIBA41M4RGIMO9VEI2S2","A598UDLZZZAJ3","3PIOQ99R7Y8STPN46QFY0SD7JTFNU0","","197.89999997615814","img/land3.png","74","199.10000002384186","1","1","1","2","0.8,0.2,0.2,0.2,0.8,0.2,0.2,0.2,0.8","0.8,0.2,0.2,0.2,0.8,0.2,0.2,0.2,0.8","1","",""
