"success","trial_type","trial_index","time_elapsed","internal_node_id","assignmentID","mturkID","hitID","view_history","rt","stimulus","key_press","reactionTime","a","r","s","reward_cond","responses","question_order"
"true","fullscreen","0","2830","0.0-0.0","31T4R4OBOT29QUCBVUIBZ81ZJSXC7E","A5NE8TWS8ZV7B","338431Z1FL1IVIVZ3BK6A6QS21HROA","","","","","","","","","","",""
"","instructions","1","21279","0.0-1.0","31T4R4OBOT29QUCBVUIBZ81ZJSXC7E","A5NE8TWS8ZV7B","338431Z1FL1IVIVZ3BK6A6QS21HROA","[{""page_index"":0,""viewing_time"":2888},{""page_index"":1,""viewing_time"":3289},{""page_index"":2,""viewing_time"":1805},{""page_index"":3,""viewing_time"":7173},{""page_index"":4,""viewing_time"":1571},{""page_index"":5,""viewing_time"":918},{""page_index"":6,""viewing_time"":804}]","18448","","","","","","","","",""
"","image-keyboard-response","2","21980","0.0-2.0","31T4R4OBOT29QUCBVUIBZ81ZJSXC7E","A5NE8TWS8ZV7B","338431Z1FL1IVIVZ3BK6A6QS21HROA","","698","img/land1.png","74","699","1","1","1","1,0.7,0.7,0.7,1,0.7,0.7,0.7,1","",""
"","html-keyboard-response","3","22294","0.0-3.0","31T4R4OBOT29QUCBVUIBZ81ZJSXC7E","A5NE8TWS8ZV7B","338431Z1FL1IVIVZ3BK6A6QS21HROA","","null","<img src=""img/land1.png"" style=""width:200px; border:14px solid green;"">","null","","","","","","",""
"","image-keyboard-response","4","22739","0.0-4.0","31T4R4OBOT29QUCBVUIBZ81ZJSXC7E","A5NE8TWS8ZV7B","338431Z1FL1IVIVZ3BK6A6QS21HROA","","442","img/land1.png","74","445","1","1","1","1,0.7,0.7,0.7,1,0.7,0.7,0.7,1","",""
"","html-keyboard-response","5","23056","0.0-5.0","31T4R4OBOT29QUCBVUIBZ81ZJSXC7E","A5NE8TWS8ZV7B","338431Z1FL1IVIVZ3BK6A6QS21HROA","","null","<img src=""img/land1.png"" style=""width:200px; border:14px solid green;"">","null","","","","","","",""
"","image-keyboard-response","6","24139","0.0-6.0","31T4R4OBOT29QUCBVUIBZ81ZJSXC7E","A5NE8TWS8ZV7B","338431Z1FL1IVIVZ3BK6A6QS21HROA","","1083","img/land2.png","75","1084","2","1","2","1,0.7,0.7,0.7,1,0.7,0.7,0.7,1","",""
"","html-keyboard-response","7","24448","0.0-7.0","31T4R4OBOT29QUCBVUIBZ81ZJSXC7E","A5NE8TWS8ZV7B","338431Z1FL1IVIVZ3BK6A6QS21HROA","","null","<img src=""img/land2.png"" style=""width:200px; border:14px solid green;"">","null","","","","","","",""
"","image-keyboard-response","8","24707","0.0-8.0","31T4R4OBOT29QUCBVUIBZ81ZJSXC7E","A5NE8TWS8ZV7B","338431Z1FL1IVIVZ3BK6A6QS21HROA","","257","img/land3.png","75","258","2","1","3","1,0.7,0.7,0.7,1,0.7,0.7,0.7,1","",""
"","html-keyboard-response","9","25011","0.0-9.0","31T4R4OBOT29QUCBVUIBZ81ZJSXC7E","A5NE8TWS8ZV7B","338431Z1FL1IVIVZ3BK6A6QS21HROA","","null","<img src=""img/land3.png"" style=""width:200px; border:14px solid green;"">","null","","","","","","",""
"","image-keyboard-response","10","25588","0.0-10.0","31T4R4OBOT29QUCBVUIBZ81ZJSXC7E","A5NE8TWS8ZV7B","338431Z1FL1IVIVZ3BK6A6QS21HROA","","575","img/land3.png","75","576","2","1","3","1,0.7,0.7,0.7,1,0.7,0.7,0.7,1","",""
"","html-keyboard-response","11","25893","0.0-11.0","31T4R4OBOT29QUCBVUIBZ81ZJSXC7E","A5NE8TWS8ZV7B","338431Z1FL1IVIVZ3BK6A6QS21HROA","","null","<img src=""img/land3.png"" style=""width:200px; border:14px solid green;"">","null","","","","","","",""
"","image-keyboard-response","12","26187","0.0-12.0","31T4R4OBOT29QUCBVUIBZ81ZJSXC7E","A5NE8TWS8ZV7B","338431Z1FL1IVIVZ3BK6A6QS21HROA","","293","img/land3.png","75","294","2","0","3","1,0.7,0.7,0.7,1,0.7,0.7,0.7,1","",""
"","html-keyboard-response","13","26501","0.0-13.0","31T4R4OBOT29QUCBVUIBZ81ZJSXC7E","A5NE8TWS8ZV7B","338431Z1FL1IVIVZ3BK6A6QS21HROA","","null","<img src=""img/land3.png"" style=""width:200px;border:14px solid red;"">","null","","","","","","",""
"","image-keyboard-response","14","27580","0.0-14.0","31T4R4OBOT29QUCBVUIBZ81ZJSXC7E","A5NE8TWS8ZV7B","338431Z1FL1IVIVZ3BK6A6QS21HROA","","1078","img/land2.png","74","1079","1","1","2","1,0.7,0.7,0.7,1,0.7,0.7,0.7,1","",""
"","html-keyboard-response","15","27885","0.0-15.0","31T4R4OBOT29QUCBVUIBZ81ZJSXC7E","A5NE8TWS8ZV7B","338431Z1FL1IVIVZ3BK6A6QS21HROA","","null","<img src=""img/land2.png"" style=""width:200px; border:14px solid green;"">","null","","","","","","",""
"","image-keyboard-response","16","28411","0.0-16.0","31T4R4OBOT29QUCBVUIBZ81ZJSXC7E","A5NE8TWS8ZV7B","338431Z1FL1IVIVZ3BK6A6QS21HROA","","525","img/land3.png","74","525","1","1","3","1,0.7,0.7,0.7,1,0.7,0.7,0.7,1","",""
"","html-keyboard-response","17","28725","0.0-17.0","31T4R4OBOT29QUCBVUIBZ81ZJSXC7E","A5NE8TWS8ZV7B","338431Z1FL1IVIVZ3BK6A6QS21HROA","","null","<img src=""img/land3.png"" style=""width:200px; border:14px solid green;"">","null","","","","","","",""
"","image-keyboard-response","18","28963","0.0-18.0","31T4R4OBOT29QUCBVUIBZ81ZJSXC7E","A5NE8TWS8ZV7B","338431Z1FL1IVIVZ3BK6A6QS21HROA","","235","img/land1.png","74","237","1","1","1","1,0.7,0.7,0.7,1,0.7,0.7,0.7,1","",""
"","html-keyboard-response","19","29268","0.0-19.0","31T4R4OBOT29QUCBVUIBZ81ZJSXC7E","A5NE8TWS8ZV7B","338431Z1FL1IVIVZ3BK6A6QS21HROA","","null","<img src=""img/land1.png"" style=""width:200px; border:14px solid green;"">","null","","","","","","",""
"","image-keyboard-response","20","29538","0.0-20.0","31T4R4OBOT29QUCBVUIBZ81ZJSXC7E","A5NE8TWS8ZV7B","338431Z1FL1IVIVZ3BK6A6QS21HROA","","269","img/land1.png","74","270","1","1","1","1,0.7,0.7,0.7,1,0.7,0.7,0.7,1","",""
"","html-keyboard-response","21","29842","0.0-21.0","31T4R4OBOT29QUCBVUIBZ81ZJSXC7E","A5NE8TWS8ZV7B","338431Z1FL1IVIVZ3BK6A6QS21HROA","","null","<img src=""img/land1.png"" style=""width:200px; border:14px solid green;"">","null","","","","","","",""
"","image-keyboard-response","22","30099","0.0-22.0","31T4R4OBOT29QUCBVUIBZ81ZJSXC7E","A5NE8TWS8ZV7B","338431Z1FL1IVIVZ3BK6A6QS21HROA","","255","img/land3.png","74","256","1","1","3","1,0.7,0.7,0.7,1,0.7,0.7,0.7,1","",""
"","html-keyboard-response","23","30415","0.0-23.0","31T4R4OBOT29QUCBVUIBZ81ZJSXC7E","A5NE8TWS8ZV7B","338431Z1FL1IVIVZ3BK6A6QS21HROA","","null","<img src=""img/land3.png"" style=""width:200px; border:14px solid green;"">","null","","","","","","",""
"","image-keyboard-response","24","30675","0.0-24.0","31T4R4OBOT29QUCBVUIBZ81ZJSXC7E","A5NE8TWS8ZV7B","338431Z1FL1IVIVZ3BK6A6QS21HROA","","260","img/land1.png","74","261","1","1","1","1,0.7,0.7,0.7,1,0.7,0.7,0.7,1","",""
"","html-keyboard-response","25","30987","0.0-25.0","31T4R4OBOT29QUCBVUIBZ81ZJSXC7E","A5NE8TWS8ZV7B","338431Z1FL1IVIVZ3BK6A6QS21HROA","","null","<img src=""img/land1.png"" style=""width:200px; border:14px solid green;"">","null","","","","","","",""
"","image-keyboard-response","26","31259","0.0-26.0","31T4R4OBOT29QUCBVUIBZ81ZJSXC7E","A5NE8TWS8ZV7B","338431Z1FL1IVIVZ3BK6A6QS21HROA","","270","img/land3.png","74","271","1","0","3","1,0.7,0.7,0.7,1,0.7,0.7,0.7,1","",""
"","html-keyboard-response","27","31561","0.0-27.0","31T4R4OBOT29QUCBVUIBZ81ZJSXC7E","A5NE8TWS8ZV7B","338431Z1FL1IVIVZ3BK6A6QS21HROA","","null","<img src=""img/land3.png"" style=""width:200px;border:14px solid red;"">","null","","","","","","",""
"","image-keyboard-response","28","31947","0.0-28.0","31T4R4OBOT29QUCBVUIBZ81ZJSXC7E","A5NE8TWS8ZV7B","338431Z1FL1IVIVZ3BK6A6QS21HROA","","384","img/land2.png","74","385","1","1","2","1,0.7,0.7,0.7,1,0.7,0.7,0.7,1","",""
"","html-keyboard-response","29","32252","0.0-29.0","31T4R4OBOT29QUCBVUIBZ81ZJSXC7E","A5NE8TWS8ZV7B","338431Z1FL1IVIVZ3BK6A6QS21HROA","","null","<img src=""img/land2.png"" style=""width:200px; border:14px solid green;"">","null","","","","","","",""
"","image-keyboard-response","30","32499","0.0-30.0","31T4R4OBOT29QUCBVUIBZ81ZJSXC7E","A5NE8TWS8ZV7B","338431Z1FL1IVIVZ3BK6A6QS21HROA","","246","img/land3.png","74","247","1","1","3","1,0.7,0.7,0.7,1,0.7,0.7,0.7,1","",""
"","html-keyboard-response","31","32811","0.0-31.0","31T4R4OBOT29QUCBVUIBZ81ZJSXC7E","A5NE8TWS8ZV7B","338431Z1FL1IVIVZ3BK6A6QS21HROA","","null","<img src=""img/land3.png"" style=""width:200px; border:14px solid green;"">","null","","","","","","",""
"","image-keyboard-response","32","33050","0.0-32.0","31T4R4OBOT29QUCBVUIBZ81ZJSXC7E","A5NE8TWS8ZV7B","338431Z1FL1IVIVZ3BK6A6QS21HROA","","237","img/land3.png","74","238","1","1","3","1,0.7,0.7,0.7,1,0.7,0.7,0.7,1","",""
"","html-keyboard-response","33","33356","0.0-33.0","31T4R4OBOT29QUCBVUIBZ81ZJSXC7E","A5NE8TWS8ZV7B","338431Z1FL1IVIVZ3BK6A6QS21HROA","","null","<img src=""img/land3.png"" style=""width:200px; border:14px solid green;"">","null","","","","","","",""
"","image-keyboard-response","34","33571","0.0-34.0","31T4R4OBOT29QUCBVUIBZ81ZJSXC7E","A5NE8TWS8ZV7B","338431Z1FL1IVIVZ3BK6A6QS21HROA","","214","img/land1.png","74","215","1","1","1","1,0.7,0.7,0.7,1,0.7,0.7,0.7,1","",""
"","html-keyboard-response","35","33884","0.0-35.0","31T4R4OBOT29QUCBVUIBZ81ZJSXC7E","A5NE8TWS8ZV7B","338431Z1FL1IVIVZ3BK6A6QS21HROA","","null","<img src=""img/land1.png"" style=""width:200px; border:14px solid green;"">","null","","","","","","",""
"","image-keyboard-response","36","34155","0.0-36.0","31T4R4OBOT29QUCBVUIBZ81ZJSXC7E","A5NE8TWS8ZV7B","338431Z1FL1IVIVZ3BK6A6QS21HROA","","268","img/land3.png","74","270","1","0","3","1,0.7,0.7,0.7,1,0.7,0.7,0.7,1","",""
"","html-keyboard-response","37","34459","0.0-37.0","31T4R4OBOT29QUCBVUIBZ81ZJSXC7E","A5NE8TWS8ZV7B","338431Z1FL1IVIVZ3BK6A6QS21HROA","","null","<img src=""img/land3.png"" style=""width:200px;border:14px solid red;"">","null","","","","","","",""
"","image-keyboard-response","38","34763","0.0-38.0","31T4R4OBOT29QUCBVUIBZ81ZJSXC7E","A5NE8TWS8ZV7B","338431Z1FL1IVIVZ3BK6A6QS21HROA","","303","img/land2.png","74","304","1","1","2","1,0.7,0.7,0.7,1,0.7,0.7,0.7,1","",""
"","html-keyboard-response","39","35079","0.0-39.0","31T4R4OBOT29QUCBVUIBZ81ZJSXC7E","A5NE8TWS8ZV7B","338431Z1FL1IVIVZ3BK6A6QS21HROA","","null","<img src=""img/land2.png"" style=""width:200px; border:14px solid green;"">","null","","","","","","",""
"","image-keyboard-response","40","35299","0.0-40.0","31T4R4OBOT29QUCBVUIBZ81ZJSXC7E","A5NE8TWS8ZV7B","338431Z1FL1IVIVZ3BK6A6QS21HROA","","219","img/land3.png","74","220","1","0","3","1,0.7,0.7,0.7,1,0.7,0.7,0.7,1","",""
"","html-keyboard-response","41","35608","0.0-41.0","31T4R4OBOT29QUCBVUIBZ81ZJSXC7E","A5NE8TWS8ZV7B","338431Z1FL1IVIVZ3BK6A6QS21HROA","","null","<img src=""img/land3.png"" style=""width:200px;border:14px solid red;"">","null","","","","","","",""
"","image-keyboard-response","42","35875","0.0-42.0","31T4R4OBOT29QUCBVUIBZ81ZJSXC7E","A5NE8TWS8ZV7B","338431Z1FL1IVIVZ3BK6A6QS21HROA","","266","img/land2.png","74","267","1","1","2","1,0.7,0.7,0.7,1,0.7,0.7,0.7,1","",""
"","html-keyboard-response","43","36187","0.0-43.0","31T4R4OBOT29QUCBVUIBZ81ZJSXC7E","A5NE8TWS8ZV7B","338431Z1FL1IVIVZ3BK6A6QS21HROA","","null","<img src=""img/land2.png"" style=""width:200px; border:14px solid green;"">","null","","","","","","",""
"","image-keyboard-response","44","36659","0.0-44.0","31T4R4OBOT29QUCBVUIBZ81ZJSXC7E","A5NE8TWS8ZV7B","338431Z1FL1IVIVZ3BK6A6QS21HROA","","470","img/land3.png","74","471","1","1","3","1,0.7,0.7,0.7,1,0.7,0.7,0.7,1","",""
"","html-keyboard-response","45","36976","0.0-45.0","31T4R4OBOT29QUCBVUIBZ81ZJSXC7E","A5NE8TWS8ZV7B","338431Z1FL1IVIVZ3BK6A6QS21HROA","","null","<img src=""img/land3.png"" style=""width:200px; border:14px solid green;"">","null","","","","","","",""
"","image-keyboard-response","46","37267","0.0-46.0","31T4R4OBOT29QUCBVUIBZ81ZJSXC7E","A5NE8TWS8ZV7B","338431Z1FL1IVIVZ3BK6A6QS21HROA","","291","img/land3.png","74","291","1","1","3","1,0.7,0.7,0.7,1,0.7,0.7,0.7,1","",""
"","html-keyboard-response","47","37583","0.0-47.0","31T4R4OBOT29QUCBVUIBZ81ZJSXC7E","A5NE8TWS8ZV7B","338431Z1FL1IVIVZ3BK6A6QS21HROA","","null","<img src=""img/land3.png"" style=""width:200px; border:14px solid green;"">","null","","","","","","",""
"","image-keyboard-response","48","37813","0.0-48.0","31T4R4OBOT29QUCBVUIBZ81ZJSXC7E","A5NE8TWS8ZV7B","338431Z1FL1IVIVZ3BK6A6QS21HROA","","227","img/land1.png","74","229","1","1","1","1,0.7,0.7,0.7,1,0.7,0.7,0.7,1","",""
"","html-keyboard-response","49","38125","0.0-49.0","31T4R4OBOT29QUCBVUIBZ81ZJSXC7E","A5NE8TWS8ZV7B","338431Z1FL1IVIVZ3BK6A6QS21HROA","","null","<img src=""img/land1.png"" style=""width:200px; border:14px solid green;"">","null","","","","","","",""
"","image-keyboard-response","50","38387","0.0-50.0","31T4R4OBOT29QUCBVUIBZ81ZJSXC7E","A5NE8TWS8ZV7B","338431Z1FL1IVIVZ3BK6A6QS21HROA","","262","img/land2.png","74","263","1","1","2","1,0.7,0.7,0.7,1,0.7,0.7,0.7,1","",""
"","html-keyboard-response","51","38698","0.0-51.0","31T4R4OBOT29QUCBVUIBZ81ZJSXC7E","A5NE8TWS8ZV7B","338431Z1FL1IVIVZ3BK6A6QS21HROA","","null","<img src=""img/land2.png"" style=""width:200px; border:14px solid green;"">","null","","","","","","",""
"","image-keyboard-response","52","38979","0.0-52.0","31T4R4OBOT29QUCBVUIBZ81ZJSXC7E","A5NE8TWS8ZV7B","338431Z1FL1IVIVZ3BK6A6QS21HROA","","279","img/land3.png","74","280","1","1","3","1,0.7,0.7,0.7,1,0.7,0.7,0.7,1","",""
"","html-keyboard-response","53","39287","0.0-53.0","31T4R4OBOT29QUCBVUIBZ81ZJSXC7E","A5NE8TWS8ZV7B","338431Z1FL1IVIVZ3BK6A6QS21HROA","","null","<img src=""img/land3.png"" style=""width:200px; border:14px solid green;"">","null","","","","","","",""
"","image-keyboard-response","54","39498","0.0-54.0","31T4R4OBOT29QUCBVUIBZ81ZJSXC7E","A5NE8TWS8ZV7B","338431Z1FL1IVIVZ3BK6A6QS21HROA","","210","img/land1.png","74","212","1","1","1","1,0.7,0.7,0.7,1,0.7,0.7,0.7,1","",""
"","html-keyboard-response","55","39800","0.0-55.0","31T4R4OBOT29QUCBVUIBZ81ZJSXC7E","A5NE8TWS8ZV7B","338431Z1FL1IVIVZ3BK6A6QS21HROA","","null","<img src=""img/land1.png"" style=""width:200px; border:14px solid green;"">","null","","","","","","",""
"","image-keyboard-response","56","40027","0.0-56.0","31T4R4OBOT29QUCBVUIBZ81ZJSXC7E","A5NE8TWS8ZV7B","338431Z1FL1IVIVZ3BK6A6QS21HROA","","226","img/land2.png","74","227","1","0","2","1,0.7,0.7,0.7,1,0.7,0.7,0.7,1","",""
"","html-keyboard-response","57","40330","0.0-57.0","31T4R4OBOT29QUCBVUIBZ81ZJSXC7E","A5NE8TWS8ZV7B","338431Z1FL1IVIVZ3BK6A6QS21HROA","","null","<img src=""img/land2.png"" style=""width:200px;border:14px solid red;"">","null","","","","","","",""
"","image-keyboard-response","58","40642","0.0-58.0","31T4R4OBOT29QUCBVUIBZ81ZJSXC7E","A5NE8TWS8ZV7B","338431Z1FL1IVIVZ3BK6A6QS21HROA","","310","img/land1.png","74","312","1","1","1","1,0.7,0.7,0.7,1,0.7,0.7,0.7,1","",""
"","html-keyboard-response","59","40954","0.0-59.0","31T4R4OBOT29QUCBVUIBZ81ZJSXC7E","A5NE8TWS8ZV7B","338431Z1FL1IVIVZ3BK6A6QS21HROA","","null","<img src=""img/land1.png"" style=""width:200px; border:14px solid green;"">","null","","","","","","",""
"","image-keyboard-response","60","41172","0.0-60.0","31T4R4OBOT29QUCBVUIBZ81ZJSXC7E","A5NE8TWS8ZV7B","338431Z1FL1IVIVZ3BK6A6QS21HROA","","216","img/land3.png","74","218","1","0","3","1,0.7,0.7,0.7,1,0.7,0.7,0.7,1","",""
"","html-keyboard-response","61","41481","0.0-61.0","31T4R4OBOT29QUCBVUIBZ81ZJSXC7E","A5NE8TWS8ZV7B","338431Z1FL1IVIVZ3BK6A6QS21HROA","","null","<img src=""img/land3.png"" style=""width:200px;border:14px solid red;"">","null","","","","","","",""
"","image-keyboard-response","62","41754","0.0-62.0","31T4R4OBOT29QUCBVUIBZ81ZJSXC7E","A5NE8TWS8ZV7B","338431Z1FL1IVIVZ3BK6A6QS21HROA","","271","img/land3.png","74","272","1","0","3","1,0.7,0.7,0.7,1,0.7,0.7,0.7,1","",""
"","html-keyboard-response","63","42058","0.0-63.0","31T4R4OBOT29QUCBVUIBZ81ZJSXC7E","A5NE8TWS8ZV7B","338431Z1FL1IVIVZ3BK6A6QS21HROA","","null","<img src=""img/land3.png"" style=""width:200px;border:14px solid red;"">","null","","","","","","",""
"","image-keyboard-response","64","42866","0.0-64.0","31T4R4OBOT29QUCBVUIBZ81ZJSXC7E","A5NE8TWS8ZV7B","338431Z1FL1IVIVZ3BK6A6QS21HROA","","806","img/land2.png","74","807","1","1","2","1,0.7,0.7,0.7,1,0.7,0.7,0.7,1","",""
"","html-keyboard-response","65","43178","0.0-65.0","31T4R4OBOT29QUCBVUIBZ81ZJSXC7E","A5NE8TWS8ZV7B","338431Z1FL1IVIVZ3BK6A6QS21HROA","","null","<img src=""img/land2.png"" style=""width:200px; border:14px solid green;"">","null","","","","","","",""
"","image-keyboard-response","66","43723","0.0-66.0","31T4R4OBOT29QUCBVUIBZ81ZJSXC7E","A5NE8TWS8ZV7B","338431Z1FL1IVIVZ3BK6A6QS21HROA","","544","img/land3.png","75","544","2","1","3","1,0.7,0.7,0.7,1,0.7,0.7,0.7,1","",""
"","html-keyboard-response","67","44037","0.0-67.0","31T4R4OBOT29QUCBVUIBZ81ZJSXC7E","A5NE8TWS8ZV7B","338431Z1FL1IVIVZ3BK6A6QS21HROA","","null","<img src=""img/land3.png"" style=""width:200px; border:14px solid green;"">","null","","","","","","",""
"","image-keyboard-response","68","44436","0.0-68.0","31T4R4OBOT29QUCBVUIBZ81ZJSXC7E","A5NE8TWS8ZV7B","338431Z1FL1IVIVZ3BK6A6QS21HROA","","396","img/land3.png","75","397","2","1","3","1,0.7,0.7,0.7,1,0.7,0.7,0.7,1","",""
"","html-keyboard-response","69","44747","0.0-69.0","31T4R4OBOT29QUCBVUIBZ81ZJSXC7E","A5NE8TWS8ZV7B","338431Z1FL1IVIVZ3BK6A6QS21HROA","","null","<img src=""img/land3.png"" style=""width:200px; border:14px solid green;"">","null","","","","","","",""
"","image-keyboard-response","70","45419","0.0-70.0","31T4R4OBOT29QUCBVUIBZ81ZJSXC7E","A5NE8TWS8ZV7B","338431Z1FL1IVIVZ3BK6A6QS21HROA","","670","img/land2.png","74","671","1","1","2","1,0.7,0.7,0.7,1,0.7,0.7,0.7,1","",""
"","html-keyboard-response","71","45729","0.0-71.0","31T4R4OBOT29QUCBVUIBZ81ZJSXC7E","A5NE8TWS8ZV7B","338431Z1FL1IVIVZ3BK6A6QS21HROA","","null","<img src=""img/land2.png"" style=""width:200px; border:14px solid green;"">","null","","","","","","",""
"","image-keyboard-response","72","46307","0.0-72.0","31T4R4OBOT29QUCBVUIBZ81ZJSXC7E","A5NE8TWS8ZV7B","338431Z1FL1IVIVZ3BK6A6QS21HROA","","576","img/land3.png","75","578","2","1","3","1,0.7,0.7,0.7,1,0.7,0.7,0.7,1","",""
"","html-keyboard-response","73","46613","0.0-73.0","31T4R4OBOT29QUCBVUIBZ81ZJSXC7E","A5NE8TWS8ZV7B","338431Z1FL1IVIVZ3BK6A6QS21HROA","","null","<img src=""img/land3.png"" style=""width:200px; border:14px solid green;"">","null","","","","","","",""
"","image-keyboard-response","74","47091","0.0-74.0","31T4R4OBOT29QUCBVUIBZ81ZJSXC7E","A5NE8TWS8ZV7B","338431Z1FL1IVIVZ3BK6A6QS21HROA","","476","img/land2.png","74","477","1","1","2","1,0.7,0.7,0.7,1,0.7,0.7,0.7,1","",""
"","html-keyboard-response","75","47400","0.0-75.0","31T4R4OBOT29QUCBVUIBZ81ZJSXC7E","A5NE8TWS8ZV7B","338431Z1FL1IVIVZ3BK6A6QS21HROA","","null","<img src=""img/land2.png"" style=""width:200px; border:14px solid green;"">","null","","","","","","",""
"","image-keyboard-response","76","47771","0.0-76.0","31T4R4OBOT29QUCBVUIBZ81ZJSXC7E","A5NE8TWS8ZV7B","338431Z1FL1IVIVZ3BK6A6QS21HROA","","369","img/land2.png","74","371","1","0","2","1,0.7,0.7,0.7,1,0.7,0.7,0.7,1","",""
"","html-keyboard-response","77","48083","0.0-77.0","31T4R4OBOT29QUCBVUIBZ81ZJSXC7E","A5NE8TWS8ZV7B","338431Z1FL1IVIVZ3BK6A6QS21HROA","","null","<img src=""img/land2.png"" style=""width:200px;border:14px solid red;"">","null","","","","","","",""
"","image-keyboard-response","78","49026","0.0-78.0","31T4R4OBOT29QUCBVUIBZ81ZJSXC7E","A5NE8TWS8ZV7B","338431Z1FL1IVIVZ3BK6A6QS21HROA","","942","img/land1.png","74","942","1","1","1","1,0.7,0.7,0.7,1,0.7,0.7,0.7,1","",""
"","html-keyboard-response","79","49341","0.0-79.0","31T4R4OBOT29QUCBVUIBZ81ZJSXC7E","A5NE8TWS8ZV7B","338431Z1FL1IVIVZ3BK6A6QS21HROA","","null","<img src=""img/land1.png"" style=""width:200px; border:14px solid green;"">","null","","","","","","",""
"","image-keyboard-response","80","49643","0.0-80.0","31T4R4OBOT29QUCBVUIBZ81ZJSXC7E","A5NE8TWS8ZV7B","338431Z1FL1IVIVZ3BK6A6QS21HROA","","300","img/land1.png","74","301","1","1","1","1,0.7,0.7,0.7,1,0.7,0.7,0.7,1","",""
"","html-keyboard-response","81","49944","0.0-81.0","31T4R4OBOT29QUCBVUIBZ81ZJSXC7E","A5NE8TWS8ZV7B","338431Z1FL1IVIVZ3BK6A6QS21HROA","","null","<img src=""img/land1.png"" style=""width:200px; border:14px solid green;"">","null","","","","","","",""
"","image-keyboard-response","82","50427","0.0-82.0","31T4R4OBOT29QUCBVUIBZ81ZJSXC7E","A5NE8TWS8ZV7B","338431Z1FL1IVIVZ3BK6A6QS21HROA","","482","img/land2.png","74","482","1","1","2","1,0.7,0.7,0.7,1,0.7,0.7,0.7,1","",""
"","html-keyboard-response","83","50737","0.0-83.0","31T4R4OBOT29QUCBVUIBZ81ZJSXC7E","A5NE8TWS8ZV7B","338431Z1FL1IVIVZ3BK6A6QS21HROA","","null","<img src=""img/land2.png"" style=""width:200px; border:14px solid green;"">","null","","","","","","",""
"","image-keyboard-response","84","51179","0.0-84.0","31T4R4OBOT29QUCBVUIBZ81ZJSXC7E","A5NE8TWS8ZV7B","338431Z1FL1IVIVZ3BK6A6QS21HROA","","440","img/land1.png","74","442","1","1","1","1,0.7,0.7,0.7,1,0.7,0.7,0.7,1","",""
"","html-keyboard-response","85","51482","0.0-85.0","31T4R4OBOT29QUCBVUIBZ81ZJSXC7E","A5NE8TWS8ZV7B","338431Z1FL1IVIVZ3BK6A6QS21HROA","","null","<img src=""img/land1.png"" style=""width:200px; border:14px solid green;"">","null","","","","","","",""
"","image-keyboard-response","86","51883","0.0-86.0","31T4R4OBOT29QUCBVUIBZ81ZJSXC7E","A5NE8TWS8ZV7B","338431Z1FL1IVIVZ3BK6A6QS21HROA","","400","img/land2.png","74","401","1","0","2","1,0.7,0.7,0.7,1,0.7,0.7,0.7,1","",""
"","html-keyboard-response","87","52195","0.0-87.0","31T4R4OBOT29QUCBVUIBZ81ZJSXC7E","A5NE8TWS8ZV7B","338431Z1FL1IVIVZ3BK6A6QS21HROA","","null","<img src=""img/land2.png"" style=""width:200px;border:14px solid red;"">","null","","","","","","",""
"","image-keyboard-response","88","52700","0.0-88.0","31T4R4OBOT29QUCBVUIBZ81ZJSXC7E","A5NE8TWS8ZV7B","338431Z1FL1IVIVZ3BK6A6QS21HROA","","502","img/land3.png","75","506","2","1","3","1,0.7,0.7,0.7,1,0.7,0.7,0.7,1","",""
"","html-keyboard-response","89","53016","0.0-89.0","31T4R4OBOT29QUCBVUIBZ81ZJSXC7E","A5NE8TWS8ZV7B","338431Z1FL1IVIVZ3BK6A6QS21HROA","","null","<img src=""img/land3.png"" style=""width:200px; border:14px solid green;"">","null","","","","","","",""
"","image-keyboard-response","90","53515","0.0-90.0","31T4R4OBOT29QUCBVUIBZ81ZJSXC7E","A5NE8TWS8ZV7B","338431Z1FL1IVIVZ3BK6A6QS21HROA","","498","img/land1.png","74","498","1","1","1","1,0.7,0.7,0.7,1,0.7,0.7,0.7,1","",""
"","html-keyboard-response","91","53822","0.0-91.0","31T4R4OBOT29QUCBVUIBZ81ZJSXC7E","A5NE8TWS8ZV7B","338431Z1FL1IVIVZ3BK6A6QS21HROA","","null","<img src=""img/land1.png"" style=""width:200px; border:14px solid green;"">","null","","","","","","",""
"","image-keyboard-response","92","54258","0.0-92.0","31T4R4OBOT29QUCBVUIBZ81ZJSXC7E","A5NE8TWS8ZV7B","338431Z1FL1IVIVZ3BK6A6QS21HROA","","434","img/land2.png","74","436","1","1","2","1,0.7,0.7,0.7,1,0.7,0.7,0.7,1","",""
"","html-keyboard-response","93","54568","0.0-93.0","31T4R4OBOT29QUCBVUIBZ81ZJSXC7E","A5NE8TWS8ZV7B","338431Z1FL1IVIVZ3BK6A6QS21HROA","","null","<img src=""img/land2.png"" style=""width:200px; border:14px solid green;"">","null","","","","","","",""
"","image-keyboard-response","94","55099","0.0-94.0","31T4R4OBOT29QUCBVUIBZ81ZJSXC7E","A5NE8TWS8ZV7B","338431Z1FL1IVIVZ3BK6A6QS21HROA","","531","img/land3.png","75","531","2","1","3","1,0.7,0.7,0.7,1,0.7,0.7,0.7,1","",""
"","html-keyboard-response","95","55405","0.0-95.0","31T4R4OBOT29QUCBVUIBZ81ZJSXC7E","A5NE8TWS8ZV7B","338431Z1FL1IVIVZ3BK6A6QS21HROA","","null","<img src=""img/land3.png"" style=""width:200px; border:14px solid green;"">","null","","","","","","",""
"","image-keyboard-response","96","55907","0.0-96.0","31T4R4OBOT29QUCBVUIBZ81ZJSXC7E","A5NE8TWS8ZV7B","338431Z1FL1IVIVZ3BK6A6QS21HROA","","502","img/land1.png","74","502","1","1","1","1,0.7,0.7,0.7,1,0.7,0.7,0.7,1","",""
"","html-keyboard-response","97","56212","0.0-97.0","31T4R4OBOT29QUCBVUIBZ81ZJSXC7E","A5NE8TWS8ZV7B","338431Z1FL1IVIVZ3BK6A6QS21HROA","","null","<img src=""img/land1.png"" style=""width:200px; border:14px solid green;"">","null","","","","","","",""
"","image-keyboard-response","98","56579","0.0-98.0","31T4R4OBOT29QUCBVUIBZ81ZJSXC7E","A5NE8TWS8ZV7B","338431Z1FL1IVIVZ3BK6A6QS21HROA","","365","img/land1.png","74","367","1","1","1","1,0.7,0.7,0.7,1,0.7,0.7,0.7,1","",""
"","html-keyboard-response","99","56881","0.0-99.0","31T4R4OBOT29QUCBVUIBZ81ZJSXC7E","A5NE8TWS8ZV7B","338431Z1FL1IVIVZ3BK6A6QS21HROA","","null","<img src=""img/land1.png"" style=""width:200px; border:14px solid green;"">","null","","","","","","",""
"","image-keyboard-response","100","57281","0.0-100.0","31T4R4OBOT29QUCBVUIBZ81ZJSXC7E","A5NE8TWS8ZV7B","338431Z1FL1IVIVZ3BK6A6QS21HROA","","398","img/land1.png","74","400","1","1","1","1,0.7,0.7,0.7,1,0.7,0.7,0.7,1","",""
"","html-keyboard-response","101","57593","0.0-101.0","31T4R4OBOT29QUCBVUIBZ81ZJSXC7E","A5NE8TWS8ZV7B","338431Z1FL1IVIVZ3BK6A6QS21HROA","","null","<img src=""img/land1.png"" style=""width:200px; border:14px solid green;"">","null","","","","","","",""
"","image-keyboard-response","102","58019","0.0-102.0","31T4R4OBOT29QUCBVUIBZ81ZJSXC7E","A5NE8TWS8ZV7B","338431Z1FL1IVIVZ3BK6A6QS21HROA","","426","img/land2.png","74","427","1","1","2","1,0.7,0.7,0.7,1,0.7,0.7,0.7,1","",""
"","html-keyboard-response","103","58322","0.0-103.0","31T4R4OBOT29QUCBVUIBZ81ZJSXC7E","A5NE8TWS8ZV7B","338431Z1FL1IVIVZ3BK6A6QS21HROA","","null","<img src=""img/land2.png"" style=""width:200px; border:14px solid green;"">","null","","","","","","",""
"","image-keyboard-response","104","58739","0.0-104.0","31T4R4OBOT29QUCBVUIBZ81ZJSXC7E","A5NE8TWS8ZV7B","338431Z1FL1IVIVZ3BK6A6QS21HROA","","417","img/land1.png","74","417","1","1","1","1,0.7,0.7,0.7,1,0.7,0.7,0.7,1","",""
"","html-keyboard-response","105","59051","0.0-105.0","31T4R4OBOT29QUCBVUIBZ81ZJSXC7E","A5NE8TWS8ZV7B","338431Z1FL1IVIVZ3BK6A6QS21HROA","","null","<img src=""img/land1.png"" style=""width:200px; border:14px solid green;"">","null","","","","","","",""
"","image-keyboard-response","106","59466","0.0-106.0","31T4R4OBOT29QUCBVUIBZ81ZJSXC7E","A5NE8TWS8ZV7B","338431Z1FL1IVIVZ3BK6A6QS21HROA","","414","img/land2.png","74","415","1","0","2","1,0.7,0.7,0.7,1,0.7,0.7,0.7,1","",""
"","html-keyboard-response","107","59783","0.0-107.0","31T4R4OBOT29QUCBVUIBZ81ZJSXC7E","A5NE8TWS8ZV7B","338431Z1FL1IVIVZ3BK6A6QS21HROA","","null","<img src=""img/land2.png"" style=""width:200px;border:14px solid red;"">","null","","","","","","",""
"","image-keyboard-response","108","60274","0.0-108.0","31T4R4OBOT29QUCBVUIBZ81ZJSXC7E","A5NE8TWS8ZV7B","338431Z1FL1IVIVZ3BK6A6QS21HROA","","490","img/land3.png","75","491","2","0","3","1,0.7,0.7,0.7,1,0.7,0.7,0.7,1","",""
"","html-keyboard-response","109","60590","0.0-109.0","31T4R4OBOT29QUCBVUIBZ81ZJSXC7E","A5NE8TWS8ZV7B","338431Z1FL1IVIVZ3BK6A6QS21HROA","","null","<img src=""img/land3.png"" style=""width:200px;border:14px solid red;"">","null","","","","","","",""
"","image-keyboard-response","110","61187","0.0-110.0","31T4R4OBOT29QUCBVUIBZ81ZJSXC7E","A5NE8TWS8ZV7B","338431Z1FL1IVIVZ3BK6A6QS21HROA","","594","img/land1.png","74","596","1","1","1","1,0.7,0.7,0.7,1,0.7,0.7,0.7,1","",""
"","html-keyboard-response","111","61501","0.0-111.0","31T4R4OBOT29QUCBVUIBZ81ZJSXC7E","A5NE8TWS8ZV7B","338431Z1FL1IVIVZ3BK6A6QS21HROA","","null","<img src=""img/land1.png"" style=""width:200px; border:14px solid green;"">","null","","","","","","",""
"","image-keyboard-response","112","61875","0.0-112.0","31T4R4OBOT29QUCBVUIBZ81ZJSXC7E","A5NE8TWS8ZV7B","338431Z1FL1IVIVZ3BK6A6QS21HROA","","373","img/land1.png","74","374","1","1","1","1,0.7,0.7,0.7,1,0.7,0.7,0.7,1","",""
"","html-keyboard-response","113","62189","0.0-113.0","31T4R4OBOT29QUCBVUIBZ81ZJSXC7E","A5NE8TWS8ZV7B","338431Z1FL1IVIVZ3BK6A6QS21HROA","","null","<img src=""img/land1.png"" style=""width:200px; border:14px solid green;"">","null","","","","","","",""
"","image-keyboard-response","114","62706","0.0-114.0","31T4R4OBOT29QUCBVUIBZ81ZJSXC7E","A5NE8TWS8ZV7B","338431Z1FL1IVIVZ3BK6A6QS21HROA","","516","img/land2.png","74","518","1","1","2","1,0.7,0.7,0.7,1,0.7,0.7,0.7,1","",""
"","html-keyboard-response","115","63008","0.0-115.0","31T4R4OBOT29QUCBVUIBZ81ZJSXC7E","A5NE8TWS8ZV7B","338431Z1FL1IVIVZ3BK6A6QS21HROA","","null","<img src=""img/land2.png"" style=""width:200px; border:14px solid green;"">","null","","","","","","",""
"","image-keyboard-response","116","63554","0.0-116.0","31T4R4OBOT29QUCBVUIBZ81ZJSXC7E","A5NE8TWS8ZV7B","338431Z1FL1IVIVZ3BK6A6QS21HROA","","545","img/land2.png","74","545","1","1","2","1,0.7,0.7,0.7,1,0.7,0.7,0.7,1","",""
"","html-keyboard-response","117","63865","0.0-117.0","31T4R4OBOT29QUCBVUIBZ81ZJSXC7E","A5NE8TWS8ZV7B","338431Z1FL1IVIVZ3BK6A6QS21HROA","","null","<img src=""img/land2.png"" style=""width:200px; border:14px solid green;"">","null","","","","","","",""
"","image-keyboard-response","118","64435","0.0-118.0","31T4R4OBOT29QUCBVUIBZ81ZJSXC7E","A5NE8TWS8ZV7B","338431Z1FL1IVIVZ3BK6A6QS21HROA","","569","img/land3.png","75","571","2","1","3","1,0.7,0.7,0.7,1,0.7,0.7,0.7,1","",""
"","html-keyboard-response","119","64751","0.0-119.0","31T4R4OBOT29QUCBVUIBZ81ZJSXC7E","A5NE8TWS8ZV7B","338431Z1FL1IVIVZ3BK6A6QS21HROA","","null","<img src=""img/land3.png"" style=""width:200px; border:14px solid green;"">","null","","","","","","",""
"","image-keyboard-response","120","65298","0.0-120.0","31T4R4OBOT29QUCBVUIBZ81ZJSXC7E","A5NE8TWS8ZV7B","338431Z1FL1IVIVZ3BK6A6QS21HROA","","547","img/land1.png","74","548","1","1","1","1,0.7,0.7,0.7,1,0.7,0.7,0.7,1","",""
"","html-keyboard-response","121","65601","0.0-121.0","31T4R4OBOT29QUCBVUIBZ81ZJSXC7E","A5NE8TWS8ZV7B","338431Z1FL1IVIVZ3BK6A6QS21HROA","","null","<img src=""img/land1.png"" style=""width:200px; border:14px solid green;"">","null","","","","","","",""
"","image-keyboard-response","122","66090","0.0-122.0","31T4R4OBOT29QUCBVUIBZ81ZJSXC7E","A5NE8TWS8ZV7B","338431Z1FL1IVIVZ3BK6A6QS21HROA","","491","img/land2.png","74","491","1","1","2","1,0.7,0.7,0.7,1,0.7,0.7,0.7,1","",""
"","html-keyboard-response","123","66394","0.0-123.0","31T4R4OBOT29QUCBVUIBZ81ZJSXC7E","A5NE8TWS8ZV7B","338431Z1FL1IVIVZ3BK6A6QS21HROA","","null","<img src=""img/land2.png"" style=""width:200px; border:14px solid green;"">","null","","","","","","",""
"","image-keyboard-response","124","66882","0.0-124.0","31T4R4OBOT29QUCBVUIBZ81ZJSXC7E","A5NE8TWS8ZV7B","338431Z1FL1IVIVZ3BK6A6QS21HROA","","487","img/land1.png","74","488","1","1","1","1,0.7,0.7,0.7,1,0.7,0.7,0.7,1","",""
"","html-keyboard-response","125","67185","0.0-125.0","31T4R4OBOT29QUCBVUIBZ81ZJSXC7E","A5NE8TWS8ZV7B","338431Z1FL1IVIVZ3BK6A6QS21HROA","","null","<img src=""img/land1.png"" style=""width:200px; border:14px solid green;"">","null","","","","","","",""
"","image-keyboard-response","126","67731","0.0-126.0","31T4R4OBOT29QUCBVUIBZ81ZJSXC7E","A5NE8TWS8ZV7B","338431Z1FL1IVIVZ3BK6A6QS21HROA","","543","img/land3.png","75","545","2","0","3","1,0.7,0.7,0.7,1,0.7,0.7,0.7,1","",""
"","html-keyboard-response","127","68041","0.0-127.0","31T4R4OBOT29QUCBVUIBZ81ZJSXC7E","A5NE8TWS8ZV7B","338431Z1FL1IVIVZ3BK6A6QS21HROA","","null","<img src=""img/land3.png"" style=""width:200px;border:14px solid red;"">","null","","","","","","",""
"","image-keyboard-response","128","68507","0.0-128.0","31T4R4OBOT29QUCBVUIBZ81ZJSXC7E","A5NE8TWS8ZV7B","338431Z1FL1IVIVZ3BK6A6QS21HROA","","464","img/land3.png","75","465","2","1","3","1,0.7,0.7,0.7,1,0.7,0.7,0.7,1","",""
"","html-keyboard-response","129","68814","0.0-129.0","31T4R4OBOT29QUCBVUIBZ81ZJSXC7E","A5NE8TWS8ZV7B","338431Z1FL1IVIVZ3BK6A6QS21HROA","","null","<img src=""img/land3.png"" style=""width:200px; border:14px solid green;"">","null","","","","","","",""
"","image-keyboard-response","130","69152","0.0-130.0","31T4R4OBOT29QUCBVUIBZ81ZJSXC7E","A5NE8TWS8ZV7B","338431Z1FL1IVIVZ3BK6A6QS21HROA","","338","img/land3.png","75","338","2","1","3","1,0.7,0.7,0.7,1,0.7,0.7,0.7,1","",""
"","html-keyboard-response","131","69455","0.0-131.0","31T4R4OBOT29QUCBVUIBZ81ZJSXC7E","A5NE8TWS8ZV7B","338431Z1FL1IVIVZ3BK6A6QS21HROA","","null","<img src=""img/land3.png"" style=""width:200px; border:14px solid green;"">","null","","","","","","",""
"","image-keyboard-response","132","70012","0.0-132.0","31T4R4OBOT29QUCBVUIBZ81ZJSXC7E","A5NE8TWS8ZV7B","338431Z1FL1IVIVZ3BK6A6QS21HROA","","556","img/land2.png","74","558","1","1","2","1,0.7,0.7,0.7,1,0.7,0.7,0.7,1","",""
"","html-keyboard-response","133","70315","0.0-133.0","31T4R4OBOT29QUCBVUIBZ81ZJSXC7E","A5NE8TWS8ZV7B","338431Z1FL1IVIVZ3BK6A6QS21HROA","","null","<img src=""img/land2.png"" style=""width:200px; border:14px solid green;"">","null","","","","","","",""
"","image-keyboard-response","134","70817","0.0-134.0","31T4R4OBOT29QUCBVUIBZ81ZJSXC7E","A5NE8TWS8ZV7B","338431Z1FL1IVIVZ3BK6A6QS21HROA","","502","img/land1.png","74","503","1","1","1","1,0.7,0.7,0.7,1,0.7,0.7,0.7,1","",""
"","html-keyboard-response","135","71134","0.0-135.0","31T4R4OBOT29QUCBVUIBZ81ZJSXC7E","A5NE8TWS8ZV7B","338431Z1FL1IVIVZ3BK6A6QS21HROA","","null","<img src=""img/land1.png"" style=""width:200px; border:14px solid green;"">","null","","","","","","",""
"","image-keyboard-response","136","71467","0.0-136.0","31T4R4OBOT29QUCBVUIBZ81ZJSXC7E","A5NE8TWS8ZV7B","338431Z1FL1IVIVZ3BK6A6QS21HROA","","333","img/land1.png","74","334","1","1","1","1,0.7,0.7,0.7,1,0.7,0.7,0.7,1","",""
"","html-keyboard-response","137","71772","0.0-137.0","31T4R4OBOT29QUCBVUIBZ81ZJSXC7E","A5NE8TWS8ZV7B","338431Z1FL1IVIVZ3BK6A6QS21HROA","","null","<img src=""img/land1.png"" style=""width:200px; border:14px solid green;"">","null","","","","","","",""
"","image-keyboard-response","138","72275","0.0-138.0","31T4R4OBOT29QUCBVUIBZ81ZJSXC7E","A5NE8TWS8ZV7B","338431Z1FL1IVIVZ3BK6A6QS21HROA","","502","img/land2.png","74","503","1","0","2","1,0.7,0.7,0.7,1,0.7,0.7,0.7,1","",""
"","html-keyboard-response","139","72580","0.0-139.0","31T4R4OBOT29QUCBVUIBZ81ZJSXC7E","A5NE8TWS8ZV7B","338431Z1FL1IVIVZ3BK6A6QS21HROA","","null","<img src=""img/land2.png"" style=""width:200px;border:14px solid red;"">","null","","","","","","",""
"","image-keyboard-response","140","72906","0.0-140.0","31T4R4OBOT29QUCBVUIBZ81ZJSXC7E","A5NE8TWS8ZV7B","338431Z1FL1IVIVZ3BK6A6QS21HROA","","325","img/land2.png","74","326","1","1","2","1,0.7,0.7,0.7,1,0.7,0.7,0.7,1","",""
"","html-keyboard-response","141","73219","0.0-141.0","31T4R4OBOT29QUCBVUIBZ81ZJSXC7E","A5NE8TWS8ZV7B","338431Z1FL1IVIVZ3BK6A6QS21HROA","","null","<img src=""img/land2.png"" style=""width:200px; border:14px solid green;"">","null","","","","","","",""
"","image-keyboard-response","142","73747","0.0-142.0","31T4R4OBOT29QUCBVUIBZ81ZJSXC7E","A5NE8TWS8ZV7B","338431Z1FL1IVIVZ3BK6A6QS21HROA","","527","img/land1.png","74","527","1","1","1","1,0.7,0.7,0.7,1,0.7,0.7,0.7,1","",""
"","html-keyboard-response","143","74060","0.0-143.0","31T4R4OBOT29QUCBVUIBZ81ZJSXC7E","A5NE8TWS8ZV7B","338431Z1FL1IVIVZ3BK6A6QS21HROA","","null","<img src=""img/land1.png"" style=""width:200px; border:14px solid green;"">","null","","","","","","",""
"","image-keyboard-response","144","74596","0.0-144.0","31T4R4OBOT29QUCBVUIBZ81ZJSXC7E","A5NE8TWS8ZV7B","338431Z1FL1IVIVZ3BK6A6QS21HROA","","534","img/land3.png","75","535","2","1","3","1,0.7,0.7,0.7,1,0.7,0.7,0.7,1","",""
"","html-keyboard-response","145","74903","0.0-145.0","31T4R4OBOT29QUCBVUIBZ81ZJSXC7E","A5NE8TWS8ZV7B","338431Z1FL1IVIVZ3BK6A6QS21HROA","","null","<img src=""img/land3.png"" style=""width:200px; border:14px solid green;"">","null","","","","","","",""
"","image-keyboard-response","146","75419","0.0-146.0","31T4R4OBOT29QUCBVUIBZ81ZJSXC7E","A5NE8TWS8ZV7B","338431Z1FL1IVIVZ3BK6A6QS21HROA","","514","img/land2.png","74","517","1","0","2","1,0.7,0.7,0.7,1,0.7,0.7,0.7,1","",""
"","html-keyboard-response","147","75726","0.0-147.0","31T4R4OBOT29QUCBVUIBZ81ZJSXC7E","A5NE8TWS8ZV7B","338431Z1FL1IVIVZ3BK6A6QS21HROA","","null","<img src=""img/land2.png"" style=""width:200px;border:14px solid red;"">","null","","","","","","",""
"","image-keyboard-response","148","76347","0.0-148.0","31T4R4OBOT29QUCBVUIBZ81ZJSXC7E","A5NE8TWS8ZV7B","338431Z1FL1IVIVZ3BK6A6QS21HROA","","621","img/land3.png","75","621","2","0","3","1,0.7,0.7,0.7,1,0.7,0.7,0.7,1","",""
"","html-keyboard-response","149","76659","0.0-149.0","31T4R4OBOT29QUCBVUIBZ81ZJSXC7E","A5NE8TWS8ZV7B","338431Z1FL1IVIVZ3BK6A6QS21HROA","","null","<img src=""img/land3.png"" style=""width:200px;border:14px solid red;"">","null","","","","","","",""
"","image-keyboard-response","150","77411","0.0-150.0","31T4R4OBOT29QUCBVUIBZ81ZJSXC7E","A5NE8TWS8ZV7B","338431Z1FL1IVIVZ3BK6A6QS21HROA","","751","img/land2.png","74","751","1","1","2","1,0.7,0.7,0.7,1,0.7,0.7,0.7,1","",""
"","html-keyboard-response","151","77713","0.0-151.0","31T4R4OBOT29QUCBVUIBZ81ZJSXC7E","A5NE8TWS8ZV7B","338431Z1FL1IVIVZ3BK6A6QS21HROA","","null","<img src=""img/land2.png"" style=""width:200px; border:14px solid green;"">","null","","","","","","",""
"","image-keyboard-response","152","78074","0.0-152.0","31T4R4OBOT29QUCBVUIBZ81ZJSXC7E","A5NE8TWS8ZV7B","338431Z1FL1IVIVZ3BK6A6QS21HROA","","359","img/land2.png","74","361","1","1","2","1,0.7,0.7,0.7,1,0.7,0.7,0.7,1","",""
"","html-keyboard-response","153","78384","0.0-153.0","31T4R4OBOT29QUCBVUIBZ81ZJSXC7E","A5NE8TWS8ZV7B","338431Z1FL1IVIVZ3BK6A6QS21HROA","","null","<img src=""img/land2.png"" style=""width:200px; border:14px solid green;"">","null","","","","","","",""
"","image-keyboard-response","154","78818","0.0-154.0","31T4R4OBOT29QUCBVUIBZ81ZJSXC7E","A5NE8TWS8ZV7B","338431Z1FL1IVIVZ3BK6A6QS21HROA","","432","img/land2.png","74","433","1","1","2","1,0.7,0.7,0.7,1,0.7,0.7,0.7,1","",""
"","html-keyboard-response","155","79131","0.0-155.0","31T4R4OBOT29QUCBVUIBZ81ZJSXC7E","A5NE8TWS8ZV7B","338431Z1FL1IVIVZ3BK6A6QS21HROA","","null","<img src=""img/land2.png"" style=""width:200px; border:14px solid green;"">","null","","","","","","",""
"","image-keyboard-response","156","79675","0.0-156.0","31T4R4OBOT29QUCBVUIBZ81ZJSXC7E","A5NE8TWS8ZV7B","338431Z1FL1IVIVZ3BK6A6QS21HROA","","542","img/land3.png","75","544","2","1","3","1,0.7,0.7,0.7,1,0.7,0.7,0.7,1","",""
"","html-keyboard-response","157","79981","0.0-157.0","31T4R4OBOT29QUCBVUIBZ81ZJSXC7E","A5NE8TWS8ZV7B","338431Z1FL1IVIVZ3BK6A6QS21HROA","","null","<img src=""img/land3.png"" style=""width:200px; border:14px solid green;"">","null","","","","","","",""
"","image-keyboard-response","158","80659","0.0-158.0","31T4R4OBOT29QUCBVUIBZ81ZJSXC7E","A5NE8TWS8ZV7B","338431Z1FL1IVIVZ3BK6A6QS21HROA","","676","img/land1.png","74","677","1","1","1","1,0.7,0.7,0.7,1,0.7,0.7,0.7,1","",""
"","html-keyboard-response","159","80965","0.0-159.0","31T4R4OBOT29QUCBVUIBZ81ZJSXC7E","A5NE8TWS8ZV7B","338431Z1FL1IVIVZ3BK6A6QS21HROA","","null","<img src=""img/land1.png"" style=""width:200px; border:14px solid green;"">","null","","","","","","",""
"","image-keyboard-response","160","81388","0.0-160.0","31T4R4OBOT29QUCBVUIBZ81ZJSXC7E","A5NE8TWS8ZV7B","338431Z1FL1IVIVZ3BK6A6QS21HROA","","422","img/land2.png","74","423","1","1","2","1,0.7,0.7,0.7,1,0.7,0.7,0.7,1","",""
"","html-keyboard-response","161","81694","0.0-161.0","31T4R4OBOT29QUCBVUIBZ81ZJSXC7E","A5NE8TWS8ZV7B","338431Z1FL1IVIVZ3BK6A6QS21HROA","","null","<img src=""img/land2.png"" style=""width:200px; border:14px solid green;"">","null","","","","","","",""
"","image-keyboard-response","162","82203","0.0-162.0","31T4R4OBOT29QUCBVUIBZ81ZJSXC7E","A5NE8TWS8ZV7B","338431Z1FL1IVIVZ3BK6A6QS21HROA","","507","img/land1.png","74","509","1","1","1","1,0.7,0.7,0.7,1,0.7,0.7,0.7,1","",""
"","html-keyboard-response","163","82516","0.0-163.0","31T4R4OBOT29QUCBVUIBZ81ZJSXC7E","A5NE8TWS8ZV7B","338431Z1FL1IVIVZ3BK6A6QS21HROA","","null","<img src=""img/land1.png"" style=""width:200px; border:14px solid green;"">","null","","","","","","",""
"","image-keyboard-response","164","82979","0.0-164.0","31T4R4OBOT29QUCBVUIBZ81ZJSXC7E","A5NE8TWS8ZV7B","338431Z1FL1IVIVZ3BK6A6QS21HROA","","462","img/land2.png","74","464","1","1","2","1,0.7,0.7,0.7,1,0.7,0.7,0.7,1","",""
"","html-keyboard-response","165","83290","0.0-165.0","31T4R4OBOT29QUCBVUIBZ81ZJSXC7E","A5NE8TWS8ZV7B","338431Z1FL1IVIVZ3BK6A6QS21HROA","","null","<img src=""img/land2.png"" style=""width:200px; border:14px solid green;"">","null","","","","","","",""
"","image-keyboard-response","166","83747","0.0-166.0","31T4R4OBOT29QUCBVUIBZ81ZJSXC7E","A5NE8TWS8ZV7B","338431Z1FL1IVIVZ3BK6A6QS21HROA","","457","img/land1.png","74","457","1","1","1","1,0.7,0.7,0.7,1,0.7,0.7,0.7,1","",""
"","html-keyboard-response","167","84052","0.0-167.0","31T4R4OBOT29QUCBVUIBZ81ZJSXC7E","A5NE8TWS8ZV7B","338431Z1FL1IVIVZ3BK6A6QS21HROA","","null","<img src=""img/land1.png"" style=""width:200px; border:14px solid green;"">","null","","","","","","",""
"","image-keyboard-response","168","84337","0.0-168.0","31T4R4OBOT29QUCBVUIBZ81ZJSXC7E","A5NE8TWS8ZV7B","338431Z1FL1IVIVZ3BK6A6QS21HROA","","284","img/land1.png","74","285","1","1","1","1,0.7,0.7,0.7,1,0.7,0.7,0.7,1","",""
"","html-keyboard-response","169","84642","0.0-169.0","31T4R4OBOT29QUCBVUIBZ81ZJSXC7E","A5NE8TWS8ZV7B","338431Z1FL1IVIVZ3BK6A6QS21HROA","","null","<img src=""img/land1.png"" style=""width:200px; border:14px solid green;"">","null","","","","","","",""
"","html-keyboard-response","170","87789","0.0-170.0","31T4R4OBOT29QUCBVUIBZ81ZJSXC7E","A5NE8TWS8ZV7B","338431Z1FL1IVIVZ3BK6A6QS21HROA","","","","","","","","","","",""
"","image-keyboard-response","171","89480","0.0-171.0","31T4R4OBOT29QUCBVUIBZ81ZJSXC7E","A5NE8TWS8ZV7B","338431Z1FL1IVIVZ3BK6A6QS21HROA","","1690","img/land6.png","74","1690","1","1","3","1,0.7,0.7,0.7,1,0.7,0.7,0.7,1","",""
"","html-keyboard-response","172","89788","0.0-172.0","31T4R4OBOT29QUCBVUIBZ81ZJSXC7E","A5NE8TWS8ZV7B","338431Z1FL1IVIVZ3BK6A6QS21HROA","","null","<img src=""img/land6.png"" style=""width:200px; border:14px solid green;"">","null","","","","","","",""
"","image-keyboard-response","173","90396","0.0-173.0","31T4R4OBOT29QUCBVUIBZ81ZJSXC7E","A5NE8TWS8ZV7B","338431Z1FL1IVIVZ3BK6A6QS21HROA","","607","img/land5.png","74","608","1","1","2","1,0.7,0.7,0.7,1,0.7,0.7,0.7,1","",""
"","html-keyboard-response","174","90716","0.0-174.0","31T4R4OBOT29QUCBVUIBZ81ZJSXC7E","A5NE8TWS8ZV7B","338431Z1FL1IVIVZ3BK6A6QS21HROA","","null","<img src=""img/land5.png"" style=""width:200px; border:14px solid green;"">","null","","","","","","",""
"","image-keyboard-response","175","91100","0.0-175.0","31T4R4OBOT29QUCBVUIBZ81ZJSXC7E","A5NE8TWS8ZV7B","338431Z1FL1IVIVZ3BK6A6QS21HROA","","383","img/land4.png","74","383","1","1","1","1,0.7,0.7,0.7,1,0.7,0.7,0.7,1","",""
"","html-keyboard-response","176","91415","0.0-176.0","31T4R4OBOT29QUCBVUIBZ81ZJSXC7E","A5NE8TWS8ZV7B","338431Z1FL1IVIVZ3BK6A6QS21HROA","","null","<img src=""img/land4.png"" style=""width:200px; border:14px solid green;"">","null","","","","","","",""
"","image-keyboard-response","177","91708","0.0-177.0","31T4R4OBOT29QUCBVUIBZ81ZJSXC7E","A5NE8TWS8ZV7B","338431Z1FL1IVIVZ3BK6A6QS21HROA","","290","img/land4.png","74","292","1","1","1","1,0.7,0.7,0.7,1,0.7,0.7,0.7,1","",""
"","html-keyboard-response","178","92016","0.0-178.0","31T4R4OBOT29QUCBVUIBZ81ZJSXC7E","A5NE8TWS8ZV7B","338431Z1FL1IVIVZ3BK6A6QS21HROA","","null","<img src=""img/land4.png"" style=""width:200px; border:14px solid green;"">","null","","","","","","",""
"","image-keyboard-response","179","92315","0.0-179.0","31T4R4OBOT29QUCBVUIBZ81ZJSXC7E","A5NE8TWS8ZV7B","338431Z1FL1IVIVZ3BK6A6QS21HROA","","299","img/land4.png","74","299","1","1","1","1,0.7,0.7,0.7,1,0.7,0.7,0.7,1","",""
"","html-keyboard-response","180","92625","0.0-180.0","31T4R4OBOT29QUCBVUIBZ81ZJSXC7E","A5NE8TWS8ZV7B","338431Z1FL1IVIVZ3BK6A6QS21HROA","","null","<img src=""img/land4.png"" style=""width:200px; border:14px solid green;"">","null","","","","","","",""
"","image-keyboard-response","181","92940","0.0-181.0","31T4R4OBOT29QUCBVUIBZ81ZJSXC7E","A5NE8TWS8ZV7B","338431Z1FL1IVIVZ3BK6A6QS21HROA","","314","img/land4.png","74","315","1","1","1","1,0.7,0.7,0.7,1,0.7,0.7,0.7,1","",""
"","html-keyboard-response","182","93245","0.0-182.0","31T4R4OBOT29QUCBVUIBZ81ZJSXC7E","A5NE8TWS8ZV7B","338431Z1FL1IVIVZ3BK6A6QS21HROA","","null","<img src=""img/land4.png"" style=""width:200px; border:14px solid green;"">","null","","","","","","",""
"","image-keyboard-response","183","93523","0.0-183.0","31T4R4OBOT29QUCBVUIBZ81ZJSXC7E","A5NE8TWS8ZV7B","338431Z1FL1IVIVZ3BK6A6QS21HROA","","277","img/land4.png","74","277","1","1","1","1,0.7,0.7,0.7,1,0.7,0.7,0.7,1","",""
"","html-keyboard-response","184","93832","0.0-184.0","31T4R4OBOT29QUCBVUIBZ81ZJSXC7E","A5NE8TWS8ZV7B","338431Z1FL1IVIVZ3BK6A6QS21HROA","","null","<img src=""img/land4.png"" style=""width:200px; border:14px solid green;"">","null","","","","","","",""
"","image-keyboard-response","185","94043","0.0-185.0","31T4R4OBOT29QUCBVUIBZ81ZJSXC7E","A5NE8TWS8ZV7B","338431Z1FL1IVIVZ3BK6A6QS21HROA","","209","img/land5.png","74","211","1","1","2","1,0.7,0.7,0.7,1,0.7,0.7,0.7,1","",""
"","html-keyboard-response","186","94346","0.0-186.0","31T4R4OBOT29QUCBVUIBZ81ZJSXC7E","A5NE8TWS8ZV7B","338431Z1FL1IVIVZ3BK6A6QS21HROA","","null","<img src=""img/land5.png"" style=""width:200px; border:14px solid green;"">","null","","","","","","",""
"","image-keyboard-response","187","94570","0.0-187.0","31T4R4OBOT29QUCBVUIBZ81ZJSXC7E","A5NE8TWS8ZV7B","338431Z1FL1IVIVZ3BK6A6QS21HROA","","223","img/land6.png","74","223","1","0","3","1,0.7,0.7,0.7,1,0.7,0.7,0.7,1","",""
"","html-keyboard-response","188","94874","0.0-188.0","31T4R4OBOT29QUCBVUIBZ81ZJSXC7E","A5NE8TWS8ZV7B","338431Z1FL1IVIVZ3BK6A6QS21HROA","","null","<img src=""img/land6.png"" style=""width:200px;border:14px solid red;"">","null","","","","","","",""
"","image-keyboard-response","189","95299","0.0-189.0","31T4R4OBOT29QUCBVUIBZ81ZJSXC7E","A5NE8TWS8ZV7B","338431Z1FL1IVIVZ3BK6A6QS21HROA","","423","img/land6.png","74","425","1","0","3","1,0.7,0.7,0.7,1,0.7,0.7,0.7,1","",""
"","html-keyboard-response","190","95609","0.0-190.0","31T4R4OBOT29QUCBVUIBZ81ZJSXC7E","A5NE8TWS8ZV7B","338431Z1FL1IVIVZ3BK6A6QS21HROA","","null","<img src=""img/land6.png"" style=""width:200px;border:14px solid red;"">","null","","","","","","",""
"","image-keyboard-response","191","96068","0.0-191.0","31T4R4OBOT29QUCBVUIBZ81ZJSXC7E","A5NE8TWS8ZV7B","338431Z1FL1IVIVZ3BK6A6QS21HROA","","457","img/land4.png","74","458","1","1","1","1,0.7,0.7,0.7,1,0.7,0.7,0.7,1","",""
"","html-keyboard-response","192","96375","0.0-192.0","31T4R4OBOT29QUCBVUIBZ81ZJSXC7E","A5NE8TWS8ZV7B","338431Z1FL1IVIVZ3BK6A6QS21HROA","","null","<img src=""img/land4.png"" style=""width:200px; border:14px solid green;"">","null","","","","","","",""
"","image-keyboard-response","193","96635","0.0-193.0","31T4R4OBOT29QUCBVUIBZ81ZJSXC7E","A5NE8TWS8ZV7B","338431Z1FL1IVIVZ3BK6A6QS21HROA","","258","img/land4.png","74","260","1","1","1","1,0.7,0.7,0.7,1,0.7,0.7,0.7,1","",""
"","html-keyboard-response","194","96951","0.0-194.0","31T4R4OBOT29QUCBVUIBZ81ZJSXC7E","A5NE8TWS8ZV7B","338431Z1FL1IVIVZ3BK6A6QS21HROA","","null","<img src=""img/land4.png"" style=""width:200px; border:14px solid green;"">","null","","","","","","",""
"","image-keyboard-response","195","97209","0.0-195.0","31T4R4OBOT29QUCBVUIBZ81ZJSXC7E","A5NE8TWS8ZV7B","338431Z1FL1IVIVZ3BK6A6QS21HROA","","257","img/land4.png","74","259","1","1","1","1,0.7,0.7,0.7,1,0.7,0.7,0.7,1","",""
"","html-keyboard-response","196","97526","0.0-196.0","31T4R4OBOT29QUCBVUIBZ81ZJSXC7E","A5NE8TWS8ZV7B","338431Z1FL1IVIVZ3BK6A6QS21HROA","","null","<img src=""img/land4.png"" style=""width:200px; border:14px solid green;"">","null","","","","","","",""
"","image-keyboard-response","197","97755","0.0-197.0","31T4R4OBOT29QUCBVUIBZ81ZJSXC7E","A5NE8TWS8ZV7B","338431Z1FL1IVIVZ3BK6A6QS21HROA","","227","img/land6.png","74","229","1","1","3","1,0.7,0.7,0.7,1,0.7,0.7,0.7,1","",""
"","html-keyboard-response","198","98071","0.0-198.0","31T4R4OBOT29QUCBVUIBZ81ZJSXC7E","A5NE8TWS8ZV7B","338431Z1FL1IVIVZ3BK6A6QS21HROA","","null","<img src=""img/land6.png"" style=""width:200px; border:14px solid green;"">","null","","","","","","",""
"","image-keyboard-response","199","98313","0.0-199.0","31T4R4OBOT29QUCBVUIBZ81ZJSXC7E","A5NE8TWS8ZV7B","338431Z1FL1IVIVZ3BK6A6QS21HROA","","241","img/land5.png","74","241","1","1","2","1,0.7,0.7,0.7,1,0.7,0.7,0.7,1","",""
"","html-keyboard-response","200","98627","0.0-200.0","31T4R4OBOT29QUCBVUIBZ81ZJSXC7E","A5NE8TWS8ZV7B","338431Z1FL1IVIVZ3BK6A6QS21HROA","","null","<img src=""img/land5.png"" style=""width:200px; border:14px solid green;"">","null","","","","","","",""
"","image-keyboard-response","201","98914","0.0-201.0","31T4R4OBOT29QUCBVUIBZ81ZJSXC7E","A5NE8TWS8ZV7B","338431Z1FL1IVIVZ3BK6A6QS21HROA","","285","img/land5.png","74","287","1","0","2","1,0.7,0.7,0.7,1,0.7,0.7,0.7,1","",""
"","html-keyboard-response","202","99217","0.0-202.0","31T4R4OBOT29QUCBVUIBZ81ZJSXC7E","A5NE8TWS8ZV7B","338431Z1FL1IVIVZ3BK6A6QS21HROA","","null","<img src=""img/land5.png"" style=""width:200px;border:14px solid red;"">","null","","","","","","",""
"","image-keyboard-response","203","99608","0.0-203.0","31T4R4OBOT29QUCBVUIBZ81ZJSXC7E","A5NE8TWS8ZV7B","338431Z1FL1IVIVZ3BK6A6QS21HROA","","390","img/land4.png","74","390","1","1","1","1,0.7,0.7,0.7,1,0.7,0.7,0.7,1","",""
"","html-keyboard-response","204","99918","0.0-204.0","31T4R4OBOT29QUCBVUIBZ81ZJSXC7E","A5NE8TWS8ZV7B","338431Z1FL1IVIVZ3BK6A6QS21HROA","","null","<img src=""img/land4.png"" style=""width:200px; border:14px solid green;"">","null","","","","","","",""
"","image-keyboard-response","205","100139","0.0-205.0","31T4R4OBOT29QUCBVUIBZ81ZJSXC7E","A5NE8TWS8ZV7B","338431Z1FL1IVIVZ3BK6A6QS21HROA","","220","img/land6.png","74","221","1","0","3","1,0.7,0.7,0.7,1,0.7,0.7,0.7,1","",""
"","html-keyboard-response","206","100444","0.0-206.0","31T4R4OBOT29QUCBVUIBZ81ZJSXC7E","A5NE8TWS8ZV7B","338431Z1FL1IVIVZ3BK6A6QS21HROA","","null","<img src=""img/land6.png"" style=""width:200px;border:14px solid red;"">","null","","","","","","",""
"","image-keyboard-response","207","100731","0.0-207.0","31T4R4OBOT29QUCBVUIBZ81ZJSXC7E","A5NE8TWS8ZV7B","338431Z1FL1IVIVZ3BK6A6QS21HROA","","285","img/land5.png","74","286","1","1","2","1,0.7,0.7,0.7,1,0.7,0.7,0.7,1","",""
"","html-keyboard-response","208","101034","0.0-208.0","31T4R4OBOT29QUCBVUIBZ81ZJSXC7E","A5NE8TWS8ZV7B","338431Z1FL1IVIVZ3BK6A6QS21HROA","","null","<img src=""img/land5.png"" style=""width:200px; border:14px solid green;"">","null","","","","","","",""
"","image-keyboard-response","209","101435","0.0-209.0","31T4R4OBOT29QUCBVUIBZ81ZJSXC7E","A5NE8TWS8ZV7B","338431Z1FL1IVIVZ3BK6A6QS21HROA","","399","img/land6.png","74","400","1","1","3","1,0.7,0.7,0.7,1,0.7,0.7,0.7,1","",""
"","html-keyboard-response","210","101747","0.0-210.0","31T4R4OBOT29QUCBVUIBZ81ZJSXC7E","A5NE8TWS8ZV7B","338431Z1FL1IVIVZ3BK6A6QS21HROA","","null","<img src=""img/land6.png"" style=""width:200px; border:14px solid green;"">","null","","","","","","",""
"","image-keyboard-response","211","102050","0.0-211.0","31T4R4OBOT29QUCBVUIBZ81ZJSXC7E","A5NE8TWS8ZV7B","338431Z1FL1IVIVZ3BK6A6QS21HROA","","303","img/land6.png","74","303","1","1","3","1,0.7,0.7,0.7,1,0.7,0.7,0.7,1","",""
"","html-keyboard-response","212","102353","0.0-212.0","31T4R4OBOT29QUCBVUIBZ81ZJSXC7E","A5NE8TWS8ZV7B","338431Z1FL1IVIVZ3BK6A6QS21HROA","","null","<img src=""img/land6.png"" style=""width:200px; border:14px solid green;"">","null","","","","","","",""
"","image-keyboard-response","213","102628","0.0-213.0","31T4R4OBOT29QUCBVUIBZ81ZJSXC7E","A5NE8TWS8ZV7B","338431Z1FL1IVIVZ3BK6A6QS21HROA","","272","img/land4.png","74","274","1","1","1","1,0.7,0.7,0.7,1,0.7,0.7,0.7,1","",""
"","html-keyboard-response","214","102941","0.0-214.0","31T4R4OBOT29QUCBVUIBZ81ZJSXC7E","A5NE8TWS8ZV7B","338431Z1FL1IVIVZ3BK6A6QS21HROA","","null","<img src=""img/land4.png"" style=""width:200px; border:14px solid green;"">","null","","","","","","",""
"","image-keyboard-response","215","103259","0.0-215.0","31T4R4OBOT29QUCBVUIBZ81ZJSXC7E","A5NE8TWS8ZV7B","338431Z1FL1IVIVZ3BK6A6QS21HROA","","316","img/land6.png","74","317","1","1","3","1,0.7,0.7,0.7,1,0.7,0.7,0.7,1","",""
"","html-keyboard-response","216","103561","0.0-216.0","31T4R4OBOT29QUCBVUIBZ81ZJSXC7E","A5NE8TWS8ZV7B","338431Z1FL1IVIVZ3BK6A6QS21HROA","","null","<img src=""img/land6.png"" style=""width:200px; border:14px solid green;"">","null","","","","","","",""
"","image-keyboard-response","217","103803","0.0-217.0","31T4R4OBOT29QUCBVUIBZ81ZJSXC7E","A5NE8TWS8ZV7B","338431Z1FL1IVIVZ3BK6A6QS21HROA","","241","img/land5.png","74","241","1","0","2","1,0.7,0.7,0.7,1,0.7,0.7,0.7,1","",""
"","html-keyboard-response","218","104105","0.0-218.0","31T4R4OBOT29QUCBVUIBZ81ZJSXC7E","A5NE8TWS8ZV7B","338431Z1FL1IVIVZ3BK6A6QS21HROA","","null","<img src=""img/land5.png"" style=""width:200px;border:14px solid red;"">","null","","","","","","",""
"","image-keyboard-response","219","104355","0.0-219.0","31T4R4OBOT29QUCBVUIBZ81ZJSXC7E","A5NE8TWS8ZV7B","338431Z1FL1IVIVZ3BK6A6QS21HROA","","251","img/land4.png","74","252","1","1","1","1,0.7,0.7,0.7,1,0.7,0.7,0.7,1","",""
"","html-keyboard-response","220","104665","0.0-220.0","31T4R4OBOT29QUCBVUIBZ81ZJSXC7E","A5NE8TWS8ZV7B","338431Z1FL1IVIVZ3BK6A6QS21HROA","","null","<img src=""img/land4.png"" style=""width:200px; border:14px solid green;"">","null","","","","","","",""
"","image-keyboard-response","221","104884","0.0-221.0","31T4R4OBOT29QUCBVUIBZ81ZJSXC7E","A5NE8TWS8ZV7B","338431Z1FL1IVIVZ3BK6A6QS21HROA","","216","img/land4.png","74","218","1","1","1","1,0.7,0.7,0.7,1,0.7,0.7,0.7,1","",""
"","html-keyboard-response","222","105191","0.0-222.0","31T4R4OBOT29QUCBVUIBZ81ZJSXC7E","A5NE8TWS8ZV7B","338431Z1FL1IVIVZ3BK6A6QS21HROA","","null","<img src=""img/land4.png"" style=""width:200px; border:14px solid green;"">","null","","","","","","",""
"","image-keyboard-response","223","105419","0.0-223.0","31T4R4OBOT29QUCBVUIBZ81ZJSXC7E","A5NE8TWS8ZV7B","338431Z1FL1IVIVZ3BK6A6QS21HROA","","226","img/land5.png","74","227","1","1","2","1,0.7,0.7,0.7,1,0.7,0.7,0.7,1","",""
"","html-keyboard-response","224","105724","0.0-224.0","31T4R4OBOT29QUCBVUIBZ81ZJSXC7E","A5NE8TWS8ZV7B","338431Z1FL1IVIVZ3BK6A6QS21HROA","","null","<img src=""img/land5.png"" style=""width:200px; border:14px solid green;"">","null","","","","","","",""
"","image-keyboard-response","225","106035","0.0-225.0","31T4R4OBOT29QUCBVUIBZ81ZJSXC7E","A5NE8TWS8ZV7B","338431Z1FL1IVIVZ3BK6A6QS21HROA","","310","img/land4.png","74","311","1","1","1","1,0.7,0.7,0.7,1,0.7,0.7,0.7,1","",""
"","html-keyboard-response","226","106346","0.0-226.0","31T4R4OBOT29QUCBVUIBZ81ZJSXC7E","A5NE8TWS8ZV7B","338431Z1FL1IVIVZ3BK6A6QS21HROA","","null","<img src=""img/land4.png"" style=""width:200px; border:14px solid green;"">","null","","","","","","",""
"","image-keyboard-response","227","106571","0.0-227.0","31T4R4OBOT29QUCBVUIBZ81ZJSXC7E","A5NE8TWS8ZV7B","338431Z1FL1IVIVZ3BK6A6QS21HROA","","224","img/land4.png","74","224","1","1","1","1,0.7,0.7,0.7,1,0.7,0.7,0.7,1","",""
"","html-keyboard-response","228","106876","0.0-228.0","31T4R4OBOT29QUCBVUIBZ81ZJSXC7E","A5NE8TWS8ZV7B","338431Z1FL1IVIVZ3BK6A6QS21HROA","","null","<img src=""img/land4.png"" style=""width:200px; border:14px solid green;"">","null","","","","","","",""
"","image-keyboard-response","229","107123","0.0-229.0","31T4R4OBOT29QUCBVUIBZ81ZJSXC7E","A5NE8TWS8ZV7B","338431Z1FL1IVIVZ3BK6A6QS21HROA","","245","img/land6.png","74","246","1","1","3","1,0.7,0.7,0.7,1,0.7,0.7,0.7,1","",""
"","html-keyboard-response","230","107434","0.0-230.0","31T4R4OBOT29QUCBVUIBZ81ZJSXC7E","A5NE8TWS8ZV7B","338431Z1FL1IVIVZ3BK6A6QS21HROA","","null","<img src=""img/land6.png"" style=""width:200px; border:14px solid green;"">","null","","","","","","",""
"","image-keyboard-response","231","107636","0.0-231.0","31T4R4OBOT29QUCBVUIBZ81ZJSXC7E","A5NE8TWS8ZV7B","338431Z1FL1IVIVZ3BK6A6QS21HROA","","201","img/land6.png","74","202","1","1","3","1,0.7,0.7,0.7,1,0.7,0.7,0.7,1","",""
"","html-keyboard-response","232","107945","0.0-232.0","31T4R4OBOT29QUCBVUIBZ81ZJSXC7E","A5NE8TWS8ZV7B","338431Z1FL1IVIVZ3BK6A6QS21HROA","","null","<img src=""img/land6.png"" style=""width:200px; border:14px solid green;"">","null","","","","","","",""
"","image-keyboard-response","233","108202","0.0-233.0","31T4R4OBOT29QUCBVUIBZ81ZJSXC7E","A5NE8TWS8ZV7B","338431Z1FL1IVIVZ3BK6A6QS21HROA","","254","img/land4.png","74","255","1","1","1","1,0.7,0.7,0.7,1,0.7,0.7,0.7,1","",""
"","html-keyboard-response","234","108505","0.0-234.0","31T4R4OBOT29QUCBVUIBZ81ZJSXC7E","A5NE8TWS8ZV7B","338431Z1FL1IVIVZ3BK6A6QS21HROA","","null","<img src=""img/land4.png"" style=""width:200px; border:14px solid green;"">","null","","","","","","",""
"","image-keyboard-response","235","108675","0.0-235.0","31T4R4OBOT29QUCBVUIBZ81ZJSXC7E","A5NE8TWS8ZV7B","338431Z1FL1IVIVZ3BK6A6QS21HROA","","168","img/land5.png","74","170","1","1","2","1,0.7,0.7,0.7,1,0.7,0.7,0.7,1","",""
"","html-keyboard-response","236","108986","0.0-236.0","31T4R4OBOT29QUCBVUIBZ81ZJSXC7E","A5NE8TWS8ZV7B","338431Z1FL1IVIVZ3BK6A6QS21HROA","","null","<img src=""img/land5.png"" style=""width:200px; border:14px solid green;"">","null","","","","","","",""
"","image-keyboard-response","237","109258","0.0-237.0","31T4R4OBOT29QUCBVUIBZ81ZJSXC7E","A5NE8TWS8ZV7B","338431Z1FL1IVIVZ3BK6A6QS21HROA","","270","img/land5.png","74","271","1","1","2","1,0.7,0.7,0.7,1,0.7,0.7,0.7,1","",""
"","html-keyboard-response","238","109563","0.0-238.0","31T4R4OBOT29QUCBVUIBZ81ZJSXC7E","A5NE8TWS8ZV7B","338431Z1FL1IVIVZ3BK6A6QS21HROA","","null","<img src=""img/land5.png"" style=""width:200px; border:14px solid green;"">","null","","","","","","",""
"","image-keyboard-response","239","109763","0.0-239.0","31T4R4OBOT29QUCBVUIBZ81ZJSXC7E","A5NE8TWS8ZV7B","338431Z1FL1IVIVZ3BK6A6QS21HROA","","199","img/land4.png","74","201","1","1","1","1,0.7,0.7,0.7,1,0.7,0.7,0.7,1","",""
"","html-keyboard-response","240","110075","0.0-240.0","31T4R4OBOT29QUCBVUIBZ81ZJSXC7E","A5NE8TWS8ZV7B","338431Z1FL1IVIVZ3BK6A6QS21HROA","","null","<img src=""img/land4.png"" style=""width:200px; border:14px solid green;"">","null","","","","","","",""
"","image-keyboard-response","241","110273","0.0-241.0","31T4R4OBOT29QUCBVUIBZ81ZJSXC7E","A5NE8TWS8ZV7B","338431Z1FL1IVIVZ3BK6A6QS21HROA","","198","img/land4.png","74","199","1","1","1","1,0.7,0.7,0.7,1,0.7,0.7,0.7,1","",""
"","html-keyboard-response","242","110589","0.0-242.0","31T4R4OBOT29QUCBVUIBZ81ZJSXC7E","A5NE8TWS8ZV7B","338431Z1FL1IVIVZ3BK6A6QS21HROA","","null","<img src=""img/land4.png"" style=""width:200px; border:14px solid green;"">","null","","","","","","",""
"","image-keyboard-response","243","110850","0.0-243.0","31T4R4OBOT29QUCBVUIBZ81ZJSXC7E","A5NE8TWS8ZV7B","338431Z1FL1IVIVZ3BK6A6QS21HROA","","260","img/land6.png","74","262","1","1","3","1,0.7,0.7,0.7,1,0.7,0.7,0.7,1","",""
"","html-keyboard-response","244","111166","0.0-244.0","31T4R4OBOT29QUCBVUIBZ81ZJSXC7E","A5NE8TWS8ZV7B","338431Z1FL1IVIVZ3BK6A6QS21HROA","","null","<img src=""img/land6.png"" style=""width:200px; border:14px solid green;"">","null","","","","","","",""
"","image-keyboard-response","245","111385","0.0-245.0","31T4R4OBOT29QUCBVUIBZ81ZJSXC7E","A5NE8TWS8ZV7B","338431Z1FL1IVIVZ3BK6A6QS21HROA","","219","img/land6.png","74","220","1","1","3","1,0.7,0.7,0.7,1,0.7,0.7,0.7,1","",""
"","html-keyboard-response","246","111693","0.0-246.0","31T4R4OBOT29QUCBVUIBZ81ZJSXC7E","A5NE8TWS8ZV7B","338431Z1FL1IVIVZ3BK6A6QS21HROA","","null","<img src=""img/land6.png"" style=""width:200px; border:14px solid green;"">","null","","","","","","",""
"","image-keyboard-response","247","111899","0.0-247.0","31T4R4OBOT29QUCBVUIBZ81ZJSXC7E","A5NE8TWS8ZV7B","338431Z1FL1IVIVZ3BK6A6QS21HROA","","206","img/land4.png","74","207","1","1","1","1,0.7,0.7,0.7,1,0.7,0.7,0.7,1","",""
"","html-keyboard-response","248","112206","0.0-248.0","31T4R4OBOT29QUCBVUIBZ81ZJSXC7E","A5NE8TWS8ZV7B","338431Z1FL1IVIVZ3BK6A6QS21HROA","","null","<img src=""img/land4.png"" style=""width:200px; border:14px solid green;"">","null","","","","","","",""
"","image-keyboard-response","249","112354","0.0-249.0","31T4R4OBOT29QUCBVUIBZ81ZJSXC7E","A5NE8TWS8ZV7B","338431Z1FL1IVIVZ3BK6A6QS21HROA","","146","img/land5.png","74","147","1","0","2","1,0.7,0.7,0.7,1,0.7,0.7,0.7,1","",""
"","html-keyboard-response","250","112659","0.0-250.0","31T4R4OBOT29QUCBVUIBZ81ZJSXC7E","A5NE8TWS8ZV7B","338431Z1FL1IVIVZ3BK6A6QS21HROA","","null","<img src=""img/land5.png"" style=""width:200px;border:14px solid red;"">","null","","","","","","",""
"","image-keyboard-response","251","112899","0.0-251.0","31T4R4OBOT29QUCBVUIBZ81ZJSXC7E","A5NE8TWS8ZV7B","338431Z1FL1IVIVZ3BK6A6QS21HROA","","240","img/land5.png","74","241","1","1","2","1,0.7,0.7,0.7,1,0.7,0.7,0.7,1","",""
"","html-keyboard-response","252","113201","0.0-252.0","31T4R4OBOT29QUCBVUIBZ81ZJSXC7E","A5NE8TWS8ZV7B","338431Z1FL1IVIVZ3BK6A6QS21HROA","","null","<img src=""img/land5.png"" style=""width:200px; border:14px solid green;"">","null","","","","","","",""
"","image-keyboard-response","253","113347","0.0-253.0","31T4R4OBOT29QUCBVUIBZ81ZJSXC7E","A5NE8TWS8ZV7B","338431Z1FL1IVIVZ3BK6A6QS21HROA","","145","img/land4.png","74","146","1","1","1","1,0.7,0.7,0.7,1,0.7,0.7,0.7,1","",""
"","html-keyboard-response","254","113653","0.0-254.0","31T4R4OBOT29QUCBVUIBZ81ZJSXC7E","A5NE8TWS8ZV7B","338431Z1FL1IVIVZ3BK6A6QS21HROA","","null","<img src=""img/land4.png"" style=""width:200px; border:14px solid green;"">","null","","","","","","",""
"","image-keyboard-response","255","113780","0.0-255.0","31T4R4OBOT29QUCBVUIBZ81ZJSXC7E","A5NE8TWS8ZV7B","338431Z1FL1IVIVZ3BK6A6QS21HROA","","128","img/land6.png","74","128","1","1","3","1,0.7,0.7,0.7,1,0.7,0.7,0.7,1","",""
"","html-keyboard-response","256","114088","0.0-256.0","31T4R4OBOT29QUCBVUIBZ81ZJSXC7E","A5NE8TWS8ZV7B","338431Z1FL1IVIVZ3BK6A6QS21HROA","","null","<img src=""img/land6.png"" style=""width:200px; border:14px solid green;"">","null","","","","","","",""
"","image-keyboard-response","257","114203","0.0-257.0","31T4R4OBOT29QUCBVUIBZ81ZJSXC7E","A5NE8TWS8ZV7B","338431Z1FL1IVIVZ3BK6A6QS21HROA","","114","img/land4.png","74","115","1","1","1","1,0.7,0.7,0.7,1,0.7,0.7,0.7,1","",""
"","html-keyboard-response","258","114507","0.0-258.0","31T4R4OBOT29QUCBVUIBZ81ZJSXC7E","A5NE8TWS8ZV7B","338431Z1FL1IVIVZ3BK6A6QS21HROA","","null","<img src=""img/land4.png"" style=""width:200px; border:14px solid green;"">","null","","","","","","",""
"","image-keyboard-response","259","114603","0.0-259.0","31T4R4OBOT29QUCBVUIBZ81ZJSXC7E","A5NE8TWS8ZV7B","338431Z1FL1IVIVZ3BK6A6QS21HROA","","94","img/land5.png","74","95","1","0","2","1,0.7,0.7,0.7,1,0.7,0.7,0.7,1","",""
"","html-keyboard-response","260","114911","0.0-260.0","31T4R4OBOT29QUCBVUIBZ81ZJSXC7E","A5NE8TWS8ZV7B","338431Z1FL1IVIVZ3BK6A6QS21HROA","","null","<img src=""img/land5.png"" style=""width:200px;border:14px solid red;"">","null","","","","","","",""
"","image-keyboard-response","261","115051","0.0-261.0","31T4R4OBOT29QUCBVUIBZ81ZJSXC7E","A5NE8TWS8ZV7B","338431Z1FL1IVIVZ3BK6A6QS21HROA","","139","img/land6.png","74","140","1","1","3","1,0.7,0.7,0.7,1,0.7,0.7,0.7,1","",""
"","html-keyboard-response","262","115358","0.0-262.0","31T4R4OBOT29QUCBVUIBZ81ZJSXC7E","A5NE8TWS8ZV7B","338431Z1FL1IVIVZ3BK6A6QS21HROA","","null","<img src=""img/land6.png"" style=""width:200px; border:14px solid green;"">","null","","","","","","",""
"","image-keyboard-response","263","115458","0.0-263.0","31T4R4OBOT29QUCBVUIBZ81ZJSXC7E","A5NE8TWS8ZV7B","338431Z1FL1IVIVZ3BK6A6QS21HROA","","98","img/land4.png","74","99","1","1","1","1,0.7,0.7,0.7,1,0.7,0.7,0.7,1","",""
"","html-keyboard-response","264","115765","0.0-264.0","31T4R4OBOT29QUCBVUIBZ81ZJSXC7E","A5NE8TWS8ZV7B","338431Z1FL1IVIVZ3BK6A6QS21HROA","","null","<img src=""img/land4.png"" style=""width:200px; border:14px solid green;"">","null","","","","","","",""
"","image-keyboard-response","265","115835","0.0-265.0","31T4R4OBOT29QUCBVUIBZ81ZJSXC7E","A5NE8TWS8ZV7B","338431Z1FL1IVIVZ3BK6A6QS21HROA","","70","img/land4.png","74","71","1","1","1","1,0.7,0.7,0.7,1,0.7,0.7,0.7,1","",""
"","html-keyboard-response","266","116139","0.0-266.0","31T4R4OBOT29QUCBVUIBZ81ZJSXC7E","A5NE8TWS8ZV7B","338431Z1FL1IVIVZ3BK6A6QS21HROA","","null","<img src=""img/land4.png"" style=""width:200px; border:14px solid green;"">","null","","","","","","",""
"","image-keyboard-response","267","116227","0.0-267.0","31T4R4OBOT29QUCBVUIBZ81ZJSXC7E","A5NE8TWS8ZV7B","338431Z1FL1IVIVZ3BK6A6QS21HROA","","87","img/land5.png","74","87","1","1","2","1,0.7,0.7,0.7,1,0.7,0.7,0.7,1","",""
"","html-keyboard-response","268","116542","0.0-268.0","31T4R4OBOT29QUCBVUIBZ81ZJSXC7E","A5NE8TWS8ZV7B","338431Z1FL1IVIVZ3BK6A6QS21HROA","","null","<img src=""img/land5.png"" style=""width:200px; border:14px solid green;"">","null","","","","","","",""
"","image-keyboard-response","269","116627","0.0-269.0","31T4R4OBOT29QUCBVUIBZ81ZJSXC7E","A5NE8TWS8ZV7B","338431Z1FL1IVIVZ3BK6A6QS21HROA","","86","img/land4.png","74","86","1","1","1","1,0.7,0.7,0.7,1,0.7,0.7,0.7,1","",""
"","html-keyboard-response","270","116944","0.0-270.0","31T4R4OBOT29QUCBVUIBZ81ZJSXC7E","A5NE8TWS8ZV7B","338431Z1FL1IVIVZ3BK6A6QS21HROA","","null","<img src=""img/land4.png"" style=""width:200px; border:14px solid green;"">","null","","","","","","",""
"","image-keyboard-response","271","117019","0.0-271.0","31T4R4OBOT29QUCBVUIBZ81ZJSXC7E","A5NE8TWS8ZV7B","338431Z1FL1IVIVZ3BK6A6QS21HROA","","74","img/land6.png","74","74","1","0","3","1,0.7,0.7,0.7,1,0.7,0.7,0.7,1","",""
"","html-keyboard-response","272","117329","0.0-272.0","31T4R4OBOT29QUCBVUIBZ81ZJSXC7E","A5NE8TWS8ZV7B","338431Z1FL1IVIVZ3BK6A6QS21HROA","","null","<img src=""img/land6.png"" style=""width:200px;border:14px solid red;"">","null","","","","","","",""
"","image-keyboard-response","273","117411","0.0-273.0","31T4R4OBOT29QUCBVUIBZ81ZJSXC7E","A5NE8TWS8ZV7B","338431Z1FL1IVIVZ3BK6A6QS21HROA","","81","img/land4.png","74","83","1","1","1","1,0.7,0.7,0.7,1,0.7,0.7,0.7,1","",""
"","html-keyboard-response","274","117717","0.0-274.0","31T4R4OBOT29QUCBVUIBZ81ZJSXC7E","A5NE8TWS8ZV7B","338431Z1FL1IVIVZ3BK6A6QS21HROA","","null","<img src=""img/land4.png"" style=""width:200px; border:14px solid green;"">","null","","","","","","",""
"","image-keyboard-response","275","117843","0.0-275.0","31T4R4OBOT29QUCBVUIBZ81ZJSXC7E","A5NE8TWS8ZV7B","338431Z1FL1IVIVZ3BK6A6QS21HROA","","123","img/land6.png","74","125","1","0","3","1,0.7,0.7,0.7,1,0.7,0.7,0.7,1","",""
"","html-keyboard-response","276","118154","0.0-276.0","31T4R4OBOT29QUCBVUIBZ81ZJSXC7E","A5NE8TWS8ZV7B","338431Z1FL1IVIVZ3BK6A6QS21HROA","","null","<img src=""img/land6.png"" style=""width:200px;border:14px solid red;"">","null","","","","","","",""
"","image-keyboard-response","277","118315","0.0-277.0","31T4R4OBOT29QUCBVUIBZ81ZJSXC7E","A5NE8TWS8ZV7B","338431Z1FL1IVIVZ3BK6A6QS21HROA","","161","img/land4.png","74","161","1","1","1","1,0.7,0.7,0.7,1,0.7,0.7,0.7,1","",""
"","html-keyboard-response","278","118617","0.0-278.0","31T4R4OBOT29QUCBVUIBZ81ZJSXC7E","A5NE8TWS8ZV7B","338431Z1FL1IVIVZ3BK6A6QS21HROA","","null","<img src=""img/land4.png"" style=""width:200px; border:14px solid green;"">","null","","","","","","",""
"","image-keyboard-response","279","118763","0.0-279.0","31T4R4OBOT29QUCBVUIBZ81ZJSXC7E","A5NE8TWS8ZV7B","338431Z1FL1IVIVZ3BK6A6QS21HROA","","145","img/land5.png","74","146","1","1","2","1,0.7,0.7,0.7,1,0.7,0.7,0.7,1","",""
"","html-keyboard-response","280","119067","0.0-280.0","31T4R4OBOT29QUCBVUIBZ81ZJSXC7E","A5NE8TWS8ZV7B","338431Z1FL1IVIVZ3BK6A6QS21HROA","","null","<img src=""img/land5.png"" style=""width:200px; border:14px solid green;"">","null","","","","","","",""
"","image-keyboard-response","281","119164","0.0-281.0","31T4R4OBOT29QUCBVUIBZ81ZJSXC7E","A5NE8TWS8ZV7B","338431Z1FL1IVIVZ3BK6A6QS21HROA","","96","img/land4.png","74","96","1","1","1","1,0.7,0.7,0.7,1,0.7,0.7,0.7,1","",""
"","html-keyboard-response","282","119470","0.0-282.0","31T4R4OBOT29QUCBVUIBZ81ZJSXC7E","A5NE8TWS8ZV7B","338431Z1FL1IVIVZ3BK6A6QS21HROA","","null","<img src=""img/land4.png"" style=""width:200px; border:14px solid green;"">","null","","","","","","",""
"","image-keyboard-response","283","119555","0.0-283.0","31T4R4OBOT29QUCBVUIBZ81ZJSXC7E","A5NE8TWS8ZV7B","338431Z1FL1IVIVZ3BK6A6QS21HROA","","83","img/land4.png","74","85","1","1","1","1,0.7,0.7,0.7,1,0.7,0.7,0.7,1","",""
"","html-keyboard-response","284","119857","0.0-284.0","31T4R4OBOT29QUCBVUIBZ81ZJSXC7E","A5NE8TWS8ZV7B","338431Z1FL1IVIVZ3BK6A6QS21HROA","","null","<img src=""img/land4.png"" style=""width:200px; border:14px solid green;"">","null","","","","","","",""
"","image-keyboard-response","285","119956","0.0-285.0","31T4R4OBOT29QUCBVUIBZ81ZJSXC7E","A5NE8TWS8ZV7B","338431Z1FL1IVIVZ3BK6A6QS21HROA","","96","img/land4.png","74","97","1","1","1","1,0.7,0.7,0.7,1,0.7,0.7,0.7,1","",""
"","html-keyboard-response","286","120261","0.0-286.0","31T4R4OBOT29QUCBVUIBZ81ZJSXC7E","A5NE8TWS8ZV7B","338431Z1FL1IVIVZ3BK6A6QS21HROA","","null","<img src=""img/land4.png"" style=""width:200px; border:14px solid green;"">","null","","","","","","",""
"","image-keyboard-response","287","120338","0.0-287.0","31T4R4OBOT29QUCBVUIBZ81ZJSXC7E","A5NE8TWS8ZV7B","338431Z1FL1IVIVZ3BK6A6QS21HROA","","76","img/land4.png","74","77","1","1","1","1,0.7,0.7,0.7,1,0.7,0.7,0.7,1","",""
"","html-keyboard-response","288","120650","0.0-288.0","31T4R4OBOT29QUCBVUIBZ81ZJSXC7E","A5NE8TWS8ZV7B","338431Z1FL1IVIVZ3BK6A6QS21HROA","","null","<img src=""img/land4.png"" style=""width:200px; border:14px solid green;"">","null","","","","","","",""
"","image-keyboard-response","289","120883","0.0-289.0","31T4R4OBOT29QUCBVUIBZ81ZJSXC7E","A5NE8TWS8ZV7B","338431Z1FL1IVIVZ3BK6A6QS21HROA","","233","img/land5.png","74","233","1","1","2","1,0.7,0.7,0.7,1,0.7,0.7,0.7,1","",""
"","html-keyboard-response","290","121195","0.0-290.0","31T4R4OBOT29QUCBVUIBZ81ZJSXC7E","A5NE8TWS8ZV7B","338431Z1FL1IVIVZ3BK6A6QS21HROA","","null","<img src=""img/land5.png"" style=""width:200px; border:14px solid green;"">","null","","","","","","",""
"","image-keyboard-response","291","121404","0.0-291.0","31T4R4OBOT29QUCBVUIBZ81ZJSXC7E","A5NE8TWS8ZV7B","338431Z1FL1IVIVZ3BK6A6QS21HROA","","208","img/land4.png","74","208","1","1","1","1,0.7,0.7,0.7,1,0.7,0.7,0.7,1","",""
"","html-keyboard-response","292","121708","0.0-292.0","31T4R4OBOT29QUCBVUIBZ81ZJSXC7E","A5NE8TWS8ZV7B","338431Z1FL1IVIVZ3BK6A6QS21HROA","","null","<img src=""img/land4.png"" style=""width:200px; border:14px solid green;"">","null","","","","","","",""
"","image-keyboard-response","293","121849","0.0-293.0","31T4R4OBOT29QUCBVUIBZ81ZJSXC7E","A5NE8TWS8ZV7B","338431Z1FL1IVIVZ3BK6A6QS21HROA","","142","img/land4.png","74","143","1","1","1","1,0.7,0.7,0.7,1,0.7,0.7,0.7,1","",""
"","html-keyboard-response","294","122157","0.0-294.0","31T4R4OBOT29QUCBVUIBZ81ZJSXC7E","A5NE8TWS8ZV7B","338431Z1FL1IVIVZ3BK6A6QS21HROA","","null","<img src=""img/land4.png"" style=""width:200px; border:14px solid green;"">","null","","","","","","",""
"","image-keyboard-response","295","122234","0.0-295.0","31T4R4OBOT29QUCBVUIBZ81ZJSXC7E","A5NE8TWS8ZV7B","338431Z1FL1IVIVZ3BK6A6QS21HROA","","75","img/land4.png","74","77","1","1","1","1,0.7,0.7,0.7,1,0.7,0.7,0.7,1","",""
"","html-keyboard-response","296","122544","0.0-296.0","31T4R4OBOT29QUCBVUIBZ81ZJSXC7E","A5NE8TWS8ZV7B","338431Z1FL1IVIVZ3BK6A6QS21HROA","","null","<img src=""img/land4.png"" style=""width:200px; border:14px solid green;"">","null","","","","","","",""
"","image-keyboard-response","297","122588","0.0-297.0","31T4R4OBOT29QUCBVUIBZ81ZJSXC7E","A5NE8TWS8ZV7B","338431Z1FL1IVIVZ3BK6A6QS21HROA","","43","img/land5.png","74","43","1","1","2","1,0.7,0.7,0.7,1,0.7,0.7,0.7,1","",""
"","html-keyboard-response","298","122898","0.0-298.0","31T4R4OBOT29QUCBVUIBZ81ZJSXC7E","A5NE8TWS8ZV7B","338431Z1FL1IVIVZ3BK6A6QS21HROA","","null","<img src=""img/land5.png"" style=""width:200px; border:14px solid green;"">","null","","","","","","",""
"","image-keyboard-response","299","123212","0.0-299.0","31T4R4OBOT29QUCBVUIBZ81ZJSXC7E","A5NE8TWS8ZV7B","338431Z1FL1IVIVZ3BK6A6QS21HROA","","313","img/land5.png","74","313","1","1","2","1,0.7,0.7,0.7,1,0.7,0.7,0.7,1","",""
"","html-keyboard-response","300","123522","0.0-300.0","31T4R4OBOT29QUCBVUIBZ81ZJSXC7E","A5NE8TWS8ZV7B","338431Z1FL1IVIVZ3BK6A6QS21HROA","","null","<img src=""img/land5.png"" style=""width:200px; border:14px solid green;"">","null","","","","","","",""
"","image-keyboard-response","301","123530","0.0-301.0","31T4R4OBOT29QUCBVUIBZ81ZJSXC7E","A5NE8TWS8ZV7B","338431Z1FL1IVIVZ3BK6A6QS21HROA","","6","img/land6.png","74","6","1","1","3","1,0.7,0.7,0.7,1,0.7,0.7,0.7,1","",""
"","html-keyboard-response","302","123832","0.0-302.0","31T4R4OBOT29QUCBVUIBZ81ZJSXC7E","A5NE8TWS8ZV7B","338431Z1FL1IVIVZ3BK6A6QS21HROA","","null","<img src=""img/land6.png"" style=""width:200px; border:14px solid green;"">","null","","","","","","",""
"","image-keyboard-response","303","123898","0.0-303.0","31T4R4OBOT29QUCBVUIBZ81ZJSXC7E","A5NE8TWS8ZV7B","338431Z1FL1IVIVZ3BK6A6QS21HROA","","65","img/land5.png","74","67","1","1","2","1,0.7,0.7,0.7,1,0.7,0.7,0.7,1","",""
"","html-keyboard-response","304","124205","0.0-304.0","31T4R4OBOT29QUCBVUIBZ81ZJSXC7E","A5NE8TWS8ZV7B","338431Z1FL1IVIVZ3BK6A6QS21HROA","","null","<img src=""img/land5.png"" style=""width:200px; border:14px solid green;"">","null","","","","","","",""
"","image-keyboard-response","305","124315","0.0-305.0","31T4R4OBOT29QUCBVUIBZ81ZJSXC7E","A5NE8TWS8ZV7B","338431Z1FL1IVIVZ3BK6A6QS21HROA","","109","img/land4.png","74","110","1","1","1","1,0.7,0.7,0.7,1,0.7,0.7,0.7,1","",""
"","html-keyboard-response","306","124624","0.0-306.0","31T4R4OBOT29QUCBVUIBZ81ZJSXC7E","A5NE8TWS8ZV7B","338431Z1FL1IVIVZ3BK6A6QS21HROA","","null","<img src=""img/land4.png"" style=""width:200px; border:14px solid green;"">","null","","","","","","",""
"","image-keyboard-response","307","124707","0.0-307.0","31T4R4OBOT29QUCBVUIBZ81ZJSXC7E","A5NE8TWS8ZV7B","338431Z1FL1IVIVZ3BK6A6QS21HROA","","81","img/land6.png","74","82","1","1","3","1,0.7,0.7,0.7,1,0.7,0.7,0.7,1","",""
"","html-keyboard-response","308","125012","0.0-308.0","31T4R4OBOT29QUCBVUIBZ81ZJSXC7E","A5NE8TWS8ZV7B","338431Z1FL1IVIVZ3BK6A6QS21HROA","","null","<img src=""img/land6.png"" style=""width:200px; border:14px solid green;"">","null","","","","","","",""
"","image-keyboard-response","309","125132","0.0-309.0","31T4R4OBOT29QUCBVUIBZ81ZJSXC7E","A5NE8TWS8ZV7B","338431Z1FL1IVIVZ3BK6A6QS21HROA","","119","img/land4.png","74","119","1","1","1","1,0.7,0.7,0.7,1,0.7,0.7,0.7,1","",""
"","html-keyboard-response","310","125444","0.0-310.0","31T4R4OBOT29QUCBVUIBZ81ZJSXC7E","A5NE8TWS8ZV7B","338431Z1FL1IVIVZ3BK6A6QS21HROA","","null","<img src=""img/land4.png"" style=""width:200px; border:14px solid green;"">","null","","","","","","",""
"","image-keyboard-response","311","125491","0.0-311.0","31T4R4OBOT29QUCBVUIBZ81ZJSXC7E","A5NE8TWS8ZV7B","338431Z1FL1IVIVZ3BK6A6QS21HROA","","45","img/land5.png","74","46","1","1","2","1,0.7,0.7,0.7,1,0.7,0.7,0.7,1","",""
"","html-keyboard-response","312","125799","0.0-312.0","31T4R4OBOT29QUCBVUIBZ81ZJSXC7E","A5NE8TWS8ZV7B","338431Z1FL1IVIVZ3BK6A6QS21HROA","","null","<img src=""img/land5.png"" style=""width:200px; border:14px solid green;"">","null","","","","","","",""
"","image-keyboard-response","313","125857","0.0-313.0","31T4R4OBOT29QUCBVUIBZ81ZJSXC7E","A5NE8TWS8ZV7B","338431Z1FL1IVIVZ3BK6A6QS21HROA","","57","img/land6.png","74","57","1","0","3","1,0.7,0.7,0.7,1,0.7,0.7,0.7,1","",""
"","html-keyboard-response","314","126172","0.0-314.0","31T4R4OBOT29QUCBVUIBZ81ZJSXC7E","A5NE8TWS8ZV7B","338431Z1FL1IVIVZ3BK6A6QS21HROA","","null","<img src=""img/land6.png"" style=""width:200px;border:14px solid red;"">","null","","","","","","",""
"","image-keyboard-response","315","126219","0.0-315.0","31T4R4OBOT29QUCBVUIBZ81ZJSXC7E","A5NE8TWS8ZV7B","338431Z1FL1IVIVZ3BK6A6QS21HROA","","46","img/land4.png","74","46","1","1","1","1,0.7,0.7,0.7,1,0.7,0.7,0.7,1","",""
"","html-keyboard-response","316","126530","0.0-316.0","31T4R4OBOT29QUCBVUIBZ81ZJSXC7E","A5NE8TWS8ZV7B","338431Z1FL1IVIVZ3BK6A6QS21HROA","","null","<img src=""img/land4.png"" style=""width:200px; border:14px solid green;"">","null","","","","","","",""
"","image-keyboard-response","317","126555","0.0-317.0","31T4R4OBOT29QUCBVUIBZ81ZJSXC7E","A5NE8TWS8ZV7B","338431Z1FL1IVIVZ3BK6A6QS21HROA","","24","img/land6.png","74","25","1","1","3","1,0.7,0.7,0.7,1,0.7,0.7,0.7,1","",""
"","html-keyboard-response","318","126858","0.0-318.0","31T4R4OBOT29QUCBVUIBZ81ZJSXC7E","A5NE8TWS8ZV7B","338431Z1FL1IVIVZ3BK6A6QS21HROA","","null","<img src=""img/land6.png"" style=""width:200px; border:14px solid green;"">","null","","","","","","",""
"","image-keyboard-response","319","126882","0.0-319.0","31T4R4OBOT29QUCBVUIBZ81ZJSXC7E","A5NE8TWS8ZV7B","338431Z1FL1IVIVZ3BK6A6QS21HROA","","23","img/land6.png","74","24","1","1","3","1,0.7,0.7,0.7,1,0.7,0.7,0.7,1","",""
"","html-keyboard-response","320","127187","0.0-320.0","31T4R4OBOT29QUCBVUIBZ81ZJSXC7E","A5NE8TWS8ZV7B","338431Z1FL1IVIVZ3BK6A6QS21HROA","","null","<img src=""img/land6.png"" style=""width:200px; border:14px solid green;"">","null","","","","","","",""
"","image-keyboard-response","321","127258","0.0-321.0","31T4R4OBOT29QUCBVUIBZ81ZJSXC7E","A5NE8TWS8ZV7B","338431Z1FL1IVIVZ3BK6A6QS21HROA","","69","img/land4.png","74","70","1","1","1","1,0.7,0.7,0.7,1,0.7,0.7,0.7,1","",""
"","html-keyboard-response","322","127562","0.0-322.0","31T4R4OBOT29QUCBVUIBZ81ZJSXC7E","A5NE8TWS8ZV7B","338431Z1FL1IVIVZ3BK6A6QS21HROA","","null","<img src=""img/land4.png"" style=""width:200px; border:14px solid green;"">","null","","","","","","",""
"","image-keyboard-response","323","127570","0.0-323.0","31T4R4OBOT29QUCBVUIBZ81ZJSXC7E","A5NE8TWS8ZV7B","338431Z1FL1IVIVZ3BK6A6QS21HROA","","7","img/land4.png","74","9","1","1","1","1,0.7,0.7,0.7,1,0.7,0.7,0.7,1","",""
"","html-keyboard-response","324","127885","0.0-324.0","31T4R4OBOT29QUCBVUIBZ81ZJSXC7E","A5NE8TWS8ZV7B","338431Z1FL1IVIVZ3BK6A6QS21HROA","","null","<img src=""img/land4.png"" style=""width:200px; border:14px solid green;"">","null","","","","","","",""
"","image-keyboard-response","325","128195","0.0-325.0","31T4R4OBOT29QUCBVUIBZ81ZJSXC7E","A5NE8TWS8ZV7B","338431Z1FL1IVIVZ3BK6A6QS21HROA","","309","img/land5.png","74","309","1","1","2","1,0.7,0.7,0.7,1,0.7,0.7,0.7,1","",""
"","html-keyboard-response","326","128509","0.0-326.0","31T4R4OBOT29QUCBVUIBZ81ZJSXC7E","A5NE8TWS8ZV7B","338431Z1FL1IVIVZ3BK6A6QS21HROA","","null","<img src=""img/land5.png"" style=""width:200px; border:14px solid green;"">","null","","","","","","",""
"","image-keyboard-response","327","128522","0.0-327.0","31T4R4OBOT29QUCBVUIBZ81ZJSXC7E","A5NE8TWS8ZV7B","338431Z1FL1IVIVZ3BK6A6QS21HROA","","10","img/land4.png","74","11","1","1","1","1,0.7,0.7,0.7,1,0.7,0.7,0.7,1","",""
"","html-keyboard-response","328","128836","0.0-328.0","31T4R4OBOT29QUCBVUIBZ81ZJSXC7E","A5NE8TWS8ZV7B","338431Z1FL1IVIVZ3BK6A6QS21HROA","","null","<img src=""img/land4.png"" style=""width:200px; border:14px solid green;"">","null","","","","","","",""
"","image-keyboard-response","329","129145","0.0-329.0","31T4R4OBOT29QUCBVUIBZ81ZJSXC7E","A5NE8TWS8ZV7B","338431Z1FL1IVIVZ3BK6A6QS21HROA","","308","img/land5.png","74","308","1","1","2","1,0.7,0.7,0.7,1,0.7,0.7,0.7,1","",""
"","html-keyboard-response","330","129455","0.0-330.0","31T4R4OBOT29QUCBVUIBZ81ZJSXC7E","A5NE8TWS8ZV7B","338431Z1FL1IVIVZ3BK6A6QS21HROA","","null","<img src=""img/land5.png"" style=""width:200px; border:14px solid green;"">","null","","","","","","",""
"","image-keyboard-response","331","129796","0.0-331.0","31T4R4OBOT29QUCBVUIBZ81ZJSXC7E","A5NE8TWS8ZV7B","338431Z1FL1IVIVZ3BK6A6QS21HROA","","338","img/land4.png","74","340","1","1","1","1,0.7,0.7,0.7,1,0.7,0.7,0.7,1","",""
"","html-keyboard-response","332","130106","0.0-332.0","31T4R4OBOT29QUCBVUIBZ81ZJSXC7E","A5NE8TWS8ZV7B","338431Z1FL1IVIVZ3BK6A6QS21HROA","","null","<img src=""img/land4.png"" style=""width:200px; border:14px solid green;"">","null","","","","","","",""
"","image-keyboard-response","333","130393","0.0-333.0","31T4R4OBOT29QUCBVUIBZ81ZJSXC7E","A5NE8TWS8ZV7B","338431Z1FL1IVIVZ3BK6A6QS21HROA","","286","img/land4.png","74","286","1","1","1","1,0.7,0.7,0.7,1,0.7,0.7,0.7,1","",""
"","html-keyboard-response","334","130697","0.0-334.0","31T4R4OBOT29QUCBVUIBZ81ZJSXC7E","A5NE8TWS8ZV7B","338431Z1FL1IVIVZ3BK6A6QS21HROA","","null","<img src=""img/land4.png"" style=""width:200px; border:14px solid green;"">","null","","","","","","",""
"","image-keyboard-response","335","130731","0.0-335.0","31T4R4OBOT29QUCBVUIBZ81ZJSXC7E","A5NE8TWS8ZV7B","338431Z1FL1IVIVZ3BK6A6QS21HROA","","32","img/land4.png","74","33","1","1","1","1,0.7,0.7,0.7,1,0.7,0.7,0.7,1","",""
"","html-keyboard-response","336","131038","0.0-336.0","31T4R4OBOT29QUCBVUIBZ81ZJSXC7E","A5NE8TWS8ZV7B","338431Z1FL1IVIVZ3BK6A6QS21HROA","","null","<img src=""img/land4.png"" style=""width:200px; border:14px solid green;"">","null","","","","","","",""
"","image-keyboard-response","337","131041","0.0-337.0","31T4R4OBOT29QUCBVUIBZ81ZJSXC7E","A5NE8TWS8ZV7B","338431Z1FL1IVIVZ3BK6A6QS21HROA","","3","img/land4.png","74","3","1","1","1","1,0.7,0.7,0.7,1,0.7,0.7,0.7,1","",""
"","html-keyboard-response","338","131351","0.0-338.0","31T4R4OBOT29QUCBVUIBZ81ZJSXC7E","A5NE8TWS8ZV7B","338431Z1FL1IVIVZ3BK6A6QS21HROA","","null","<img src=""img/land4.png"" style=""width:200px; border:14px solid green;"">","null","","","","","","",""
"","instructions","339","134453","0.0-339.0","31T4R4OBOT29QUCBVUIBZ81ZJSXC7E","A5NE8TWS8ZV7B","338431Z1FL1IVIVZ3BK6A6QS21HROA","[{""page_index"":0,""viewing_time"":3102}]","3102","","","","","","","","",""
"","survey-text","340","137293","0.0-340.0-0.0","31T4R4OBOT29QUCBVUIBZ81ZJSXC7E","A5NE8TWS8ZV7B","338431Z1FL1IVIVZ3BK6A6QS21HROA","","2838","","","","","","","","{""Q0"":""41""}",""
"","survey-multi-choice","341","139271","0.0-340.0-1.0","31T4R4OBOT29QUCBVUIBZ81ZJSXC7E","A5NE8TWS8ZV7B","338431Z1FL1IVIVZ3BK6A6QS21HROA","","1979","","","","","","","","{""gender"":""F""}","[0]"
"","survey-text","342","143458","0.0-341.0","31T4R4OBOT29QUCBVUIBZ81ZJSXC7E","A5NE8TWS8ZV7B","338431Z1FL1IVIVZ3BK6A6QS21HROA","","4182","","","","","","","","{""Q0"":""A5NE8TWS8ZV7B""}",""
