"success","trial_type","trial_index","time_elapsed","internal_node_id","assignmentID","mturkID","hitID","view_history","rt","stimulus","key_press","reactionTime","a","r","s","cond","reward_cond","reward_cond_actual","reward_matrix_idx","responses","question_order"
"true","fullscreen","0","2304","0.0-0.0","3LOTDFNYA8LVJLXMU4GOZULJ93BFWL","A6THOSGKI6HQC","3THR0FZ95PF7SK0MYRNAOUHTWA4OLV","","","","","","","","","","","","","",""
"","instructions","1","21615","0.0-1.0","3LOTDFNYA8LVJLXMU4GOZULJ93BFWL","A6THOSGKI6HQC","3THR0FZ95PF7SK0MYRNAOUHTWA4OLV","[{""page_index"":0,""viewing_time"":1220.5},{""page_index"":1,""viewing_time"":1215.7000002861023},{""page_index"":2,""viewing_time"":1232.5},{""page_index"":3,""viewing_time"":2287.8999996185303},{""page_index"":4,""viewing_time"":3511.6000003814697},{""page_index"":5,""viewing_time"":8231.599999904633},{""page_index"":6,""viewing_time"":1608.5}]","19309.300000190735","","","","","","","","","","","",""
"","image-keyboard-response","2","24844","0.0-2.0","3LOTDFNYA8LVJLXMU4GOZULJ93BFWL","A6THOSGKI6HQC","3THR0FZ95PF7SK0MYRNAOUHTWA4OLV","","3227.199999809265","img/land1.png","76","3229","3","0","1","2","1,0.7,0.7,0.7,1,0.7,0.7,0.7,1","1,0.7,0.7,0.7,1,0.7,0.7,0.7,1","","",""
"","html-keyboard-response","3","25148","0.0-3.0","3LOTDFNYA8LVJLXMU4GOZULJ93BFWL","A6THOSGKI6HQC","3THR0FZ95PF7SK0MYRNAOUHTWA4OLV","","null","<img src=""img/land1.png"" style=""width:200px;border:14px solid red;"">","null","","","","","","","","","",""
"","image-keyboard-response","4","26492","0.0-4.0","3LOTDFNYA8LVJLXMU4GOZULJ93BFWL","A6THOSGKI6HQC","3THR0FZ95PF7SK0MYRNAOUHTWA4OLV","","1343","img/land3.png","74","1343.8000001907349","1","0","3","2","1,0.7,0.7,0.7,1,0.7,0.7,0.7,1","1,0.7,0.7,0.7,1,0.7,0.7,0.7,1","","",""
"","html-keyboard-response","5","26795","0.0-5.0","3LOTDFNYA8LVJLXMU4GOZULJ93BFWL","A6THOSGKI6HQC","3THR0FZ95PF7SK0MYRNAOUHTWA4OLV","","null","<img src=""img/land3.png"" style=""width:200px;border:14px solid red;"">","null","","","","","","","","","",""
"","image-keyboard-response","6","27075","0.0-6.0","3LOTDFNYA8LVJLXMU4GOZULJ93BFWL","A6THOSGKI6HQC","3THR0FZ95PF7SK0MYRNAOUHTWA4OLV","","279.5","img/land2.png","75","280.3999996185303","2","1","2","2","1,0.7,0.7,0.7,1,0.7,0.7,0.7,1","1,0.7,0.7,0.7,1,0.7,0.7,0.7,1","","",""
"","html-keyboard-response","7","27377","0.0-7.0","3LOTDFNYA8LVJLXMU4GOZULJ93BFWL","A6THOSGKI6HQC","3THR0FZ95PF7SK0MYRNAOUHTWA4OLV","","null","<img src=""img/land2.png"" style=""width:200px; border:14px solid green;"">","null","","","","","","","","","",""
"","image-keyboard-response","8","27620","0.0-8.0","3LOTDFNYA8LVJLXMU4GOZULJ93BFWL","A6THOSGKI6HQC","3THR0FZ95PF7SK0MYRNAOUHTWA4OLV","","241.80000019073486","img/land3.png","74","242.69999980926514","1","0","3","2","1,0.7,0.7,0.7,1,0.7,0.7,0.7,1","1,0.7,0.7,0.7,1,0.7,0.7,0.7,1","","",""
"","html-keyboard-response","9","27923","0.0-9.0","3LOTDFNYA8LVJLXMU4GOZULJ93BFWL","A6THOSGKI6HQC","3THR0FZ95PF7SK0MYRNAOUHTWA4OLV","","null","<img src=""img/land3.png"" style=""width:200px;border:14px solid red;"">","null","","","","","","","","","",""
"","image-keyboard-response","10","28092","0.0-10.0","3LOTDFNYA8LVJLXMU4GOZULJ93BFWL","A6THOSGKI6HQC","3THR0FZ95PF7SK0MYRNAOUHTWA4OLV","","167.80000019073486","img/land1.png","76","168.7999997138977","3","1","1","2","1,0.7,0.7,0.7,1,0.7,0.7,0.7,1","1,0.7,0.7,0.7,1,0.7,0.7,0.7,1","","",""
"","html-keyboard-response","11","28395","0.0-11.0","3LOTDFNYA8LVJLXMU4GOZULJ93BFWL","A6THOSGKI6HQC","3THR0FZ95PF7SK0MYRNAOUHTWA4OLV","","null","<img src=""img/land1.png"" style=""width:200px; border:14px solid green;"">","null","","","","","","","","","",""
"","image-keyboard-response","12","28396","0.0-12.0","3LOTDFNYA8LVJLXMU4GOZULJ93BFWL","A6THOSGKI6HQC","3THR0FZ95PF7SK0MYRNAOUHTWA4OLV","","0.09999990463256836","img/land2.png","75","0.9000000953674316","2","1","2","2","1,0.7,0.7,0.7,1,0.7,0.7,0.7,1","1,0.7,0.7,0.7,1,0.7,0.7,0.7,1","","",""
"","html-keyboard-response","13","28698","0.0-13.0","3LOTDFNYA8LVJLXMU4GOZULJ93BFWL","A6THOSGKI6HQC","3THR0FZ95PF7SK0MYRNAOUHTWA4OLV","","null","<img src=""img/land2.png"" style=""width:200px; border:14px solid green;"">","null","","","","","","","","","",""
"","image-keyboard-response","14","28876","0.0-14.0","3LOTDFNYA8LVJLXMU4GOZULJ93BFWL","A6THOSGKI6HQC","3THR0FZ95PF7SK0MYRNAOUHTWA4OLV","","177.59999990463257","img/land1.png","74","178.40000009536743","1","1","1","2","1,0.7,0.7,0.7,1,0.7,0.7,0.7,1","1,0.7,0.7,0.7,1,0.7,0.7,0.7,1","","",""
"","html-keyboard-response","15","29178","0.0-15.0","3LOTDFNYA8LVJLXMU4GOZULJ93BFWL","A6THOSGKI6HQC","3THR0FZ95PF7SK0MYRNAOUHTWA4OLV","","null","<img src=""img/land1.png"" style=""width:200px; border:14px solid green;"">","null","","","","","","","","","",""
"","image-keyboard-response","16","30068","0.0-16.0","3LOTDFNYA8LVJLXMU4GOZULJ93BFWL","A6THOSGKI6HQC","3THR0FZ95PF7SK0MYRNAOUHTWA4OLV","","888.3000001907349","img/land3.png","74","889.0999999046326","1","0","3","2","1,0.7,0.7,0.7,1,0.7,0.7,0.7,1","1,0.7,0.7,0.7,1,0.7,0.7,0.7,1","","",""
"","html-keyboard-response","17","30371","0.0-17.0","3LOTDFNYA8LVJLXMU4GOZULJ93BFWL","A6THOSGKI6HQC","3THR0FZ95PF7SK0MYRNAOUHTWA4OLV","","null","<img src=""img/land3.png"" style=""width:200px;border:14px solid red;"">","null","","","","","","","","","",""
"","image-keyboard-response","18","30412","0.0-18.0","3LOTDFNYA8LVJLXMU4GOZULJ93BFWL","A6THOSGKI6HQC","3THR0FZ95PF7SK0MYRNAOUHTWA4OLV","","40","img/land1.png","75","41","2","1","1","2","1,0.7,0.7,0.7,1,0.7,0.7,0.7,1","1,0.7,0.7,0.7,1,0.7,0.7,0.7,1","","",""
"","html-keyboard-response","19","30714","0.0-19.0","3LOTDFNYA8LVJLXMU4GOZULJ93BFWL","A6THOSGKI6HQC","3THR0FZ95PF7SK0MYRNAOUHTWA4OLV","","null","<img src=""img/land1.png"" style=""width:200px; border:14px solid green;"">","null","","","","","","","","","",""
"","image-keyboard-response","20","30756","0.0-20.0","3LOTDFNYA8LVJLXMU4GOZULJ93BFWL","A6THOSGKI6HQC","3THR0FZ95PF7SK0MYRNAOUHTWA4OLV","","40.5","img/land3.png","76","41.5","3","1","3","2","1,0.7,0.7,0.7,1,0.7,0.7,0.7,1","1,0.7,0.7,0.7,1,0.7,0.7,0.7,1","","",""
"","html-keyboard-response","21","31058","0.0-21.0","3LOTDFNYA8LVJLXMU4GOZULJ93BFWL","A6THOSGKI6HQC","3THR0FZ95PF7SK0MYRNAOUHTWA4OLV","","null","<img src=""img/land3.png"" style=""width:200px; border:14px solid green;"">","null","","","","","","","","","",""
"","image-keyboard-response","22","31083","0.0-22.0","3LOTDFNYA8LVJLXMU4GOZULJ93BFWL","A6THOSGKI6HQC","3THR0FZ95PF7SK0MYRNAOUHTWA4OLV","","24","img/land2.png","74","24.799999713897705","1","1","2","2","1,0.7,0.7,0.7,1,0.7,0.7,0.7,1","1,0.7,0.7,0.7,1,0.7,0.7,0.7,1","","",""
"","html-keyboard-response","23","31385","0.0-23.0","3LOTDFNYA8LVJLXMU4GOZULJ93BFWL","A6THOSGKI6HQC","3THR0FZ95PF7SK0MYRNAOUHTWA4OLV","","null","<img src=""img/land2.png"" style=""width:200px; border:14px solid green;"">","null","","","","","","","","","",""
"","image-keyboard-response","24","31491","0.0-24.0","3LOTDFNYA8LVJLXMU4GOZULJ93BFWL","A6THOSGKI6HQC","3THR0FZ95PF7SK0MYRNAOUHTWA4OLV","","105.2000002861023","img/land1.png","75","105.90000009536743","2","1","1","2","1,0.7,0.7,0.7,1,0.7,0.7,0.7,1","1,0.7,0.7,0.7,1,0.7,0.7,0.7,1","","",""
"","html-keyboard-response","25","31793","0.0-25.0","3LOTDFNYA8LVJLXMU4GOZULJ93BFWL","A6THOSGKI6HQC","3THR0FZ95PF7SK0MYRNAOUHTWA4OLV","","null","<img src=""img/land1.png"" style=""width:200px; border:14px solid green;"">","null","","","","","","","","","",""
"","image-keyboard-response","26","31836","0.0-26.0","3LOTDFNYA8LVJLXMU4GOZULJ93BFWL","A6THOSGKI6HQC","3THR0FZ95PF7SK0MYRNAOUHTWA4OLV","","41.60000038146973","img/land1.png","76","42.40000009536743","3","1","1","2","1,0.7,0.7,0.7,1,0.7,0.7,0.7,1","1,0.7,0.7,0.7,1,0.7,0.7,0.7,1","","",""
"","html-keyboard-response","27","32138","0.0-27.0","3LOTDFNYA8LVJLXMU4GOZULJ93BFWL","A6THOSGKI6HQC","3THR0FZ95PF7SK0MYRNAOUHTWA4OLV","","null","<img src=""img/land1.png"" style=""width:200px; border:14px solid green;"">","null","","","","","","","","","",""
"","image-keyboard-response","28","32155","0.0-28.0","3LOTDFNYA8LVJLXMU4GOZULJ93BFWL","A6THOSGKI6HQC","3THR0FZ95PF7SK0MYRNAOUHTWA4OLV","","16.59999990463257","img/land1.png","74","17.299999713897705","1","1","1","2","1,0.7,0.7,0.7,1,0.7,0.7,0.7,1","1,0.7,0.7,0.7,1,0.7,0.7,0.7,1","","",""
"","html-keyboard-response","29","32458","0.0-29.0","3LOTDFNYA8LVJLXMU4GOZULJ93BFWL","A6THOSGKI6HQC","3THR0FZ95PF7SK0MYRNAOUHTWA4OLV","","null","<img src=""img/land1.png"" style=""width:200px; border:14px solid green;"">","null","","","","","","","","","",""
"","image-keyboard-response","30","32572","0.0-30.0","3LOTDFNYA8LVJLXMU4GOZULJ93BFWL","A6THOSGKI6HQC","3THR0FZ95PF7SK0MYRNAOUHTWA4OLV","","113.2999997138977","img/land3.png","75","114","2","0","3","2","1,0.7,0.7,0.7,1,0.7,0.7,0.7,1","1,0.7,0.7,0.7,1,0.7,0.7,0.7,1","","",""
"","html-keyboard-response","31","32875","0.0-31.0","3LOTDFNYA8LVJLXMU4GOZULJ93BFWL","A6THOSGKI6HQC","3THR0FZ95PF7SK0MYRNAOUHTWA4OLV","","null","<img src=""img/land3.png"" style=""width:200px;border:14px solid red;"">","null","","","","","","","","","",""
"","image-keyboard-response","32","32923","0.0-32.0","3LOTDFNYA8LVJLXMU4GOZULJ93BFWL","A6THOSGKI6HQC","3THR0FZ95PF7SK0MYRNAOUHTWA4OLV","","47.69999980926514","img/land2.png","76","48.5","3","1","2","2","1,0.7,0.7,0.7,1,0.7,0.7,0.7,1","1,0.7,0.7,0.7,1,0.7,0.7,0.7,1","","",""
"","html-keyboard-response","33","33226","0.0-33.0","3LOTDFNYA8LVJLXMU4GOZULJ93BFWL","A6THOSGKI6HQC","3THR0FZ95PF7SK0MYRNAOUHTWA4OLV","","null","<img src=""img/land2.png"" style=""width:200px; border:14px solid green;"">","null","","","","","","","","","",""
"","image-keyboard-response","34","33276","0.0-34.0","3LOTDFNYA8LVJLXMU4GOZULJ93BFWL","A6THOSGKI6HQC","3THR0FZ95PF7SK0MYRNAOUHTWA4OLV","","49.700000286102295","img/land1.png","74","50.40000009536743","1","1","1","2","1,0.7,0.7,0.7,1,0.7,0.7,0.7,1","1,0.7,0.7,0.7,1,0.7,0.7,0.7,1","","",""
"","html-keyboard-response","35","33578","0.0-35.0","3LOTDFNYA8LVJLXMU4GOZULJ93BFWL","A6THOSGKI6HQC","3THR0FZ95PF7SK0MYRNAOUHTWA4OLV","","null","<img src=""img/land1.png"" style=""width:200px; border:14px solid green;"">","null","","","","","","","","","",""
"","image-keyboard-response","36","33676","0.0-36.0","3LOTDFNYA8LVJLXMU4GOZULJ93BFWL","A6THOSGKI6HQC","3THR0FZ95PF7SK0MYRNAOUHTWA4OLV","","96.19999980926514","img/land1.png","75","97.09999990463257","2","1","1","2","1,0.7,0.7,0.7,1,0.7,0.7,0.7,1","1,0.7,0.7,0.7,1,0.7,0.7,0.7,1","","",""
"","html-keyboard-response","37","33977","0.0-37.0","3LOTDFNYA8LVJLXMU4GOZULJ93BFWL","A6THOSGKI6HQC","3THR0FZ95PF7SK0MYRNAOUHTWA4OLV","","null","<img src=""img/land1.png"" style=""width:200px; border:14px solid green;"">","null","","","","","","","","","",""
"","image-keyboard-response","38","34011","0.0-38.0","3LOTDFNYA8LVJLXMU4GOZULJ93BFWL","A6THOSGKI6HQC","3THR0FZ95PF7SK0MYRNAOUHTWA4OLV","","32.90000009536743","img/land1.png","76","33.69999980926514","3","0","1","2","1,0.7,0.7,0.7,1,0.7,0.7,0.7,1","1,0.7,0.7,0.7,1,0.7,0.7,0.7,1","","",""
"","html-keyboard-response","39","34313","0.0-39.0","3LOTDFNYA8LVJLXMU4GOZULJ93BFWL","A6THOSGKI6HQC","3THR0FZ95PF7SK0MYRNAOUHTWA4OLV","","null","<img src=""img/land1.png"" style=""width:200px;border:14px solid red;"">","null","","","","","","","","","",""
"","image-keyboard-response","40","34772","0.0-40.0","3LOTDFNYA8LVJLXMU4GOZULJ93BFWL","A6THOSGKI6HQC","3THR0FZ95PF7SK0MYRNAOUHTWA4OLV","","457.7999997138977","img/land2.png","75","458.59999990463257","2","1","2","2","1,0.7,0.7,0.7,1,0.7,0.7,0.7,1","1,0.7,0.7,0.7,1,0.7,0.7,0.7,1","","",""
"","html-keyboard-response","41","35073","0.0-41.0","3LOTDFNYA8LVJLXMU4GOZULJ93BFWL","A6THOSGKI6HQC","3THR0FZ95PF7SK0MYRNAOUHTWA4OLV","","null","<img src=""img/land2.png"" style=""width:200px; border:14px solid green;"">","null","","","","","","","","","",""
"","image-keyboard-response","42","35123","0.0-42.0","3LOTDFNYA8LVJLXMU4GOZULJ93BFWL","A6THOSGKI6HQC","3THR0FZ95PF7SK0MYRNAOUHTWA4OLV","","49.40000009536743","img/land1.png","76","50.30000019073486","3","1","1","2","1,0.7,0.7,0.7,1,0.7,0.7,0.7,1","1,0.7,0.7,0.7,1,0.7,0.7,0.7,1","","",""
"","html-keyboard-response","43","35425","0.0-43.0","3LOTDFNYA8LVJLXMU4GOZULJ93BFWL","A6THOSGKI6HQC","3THR0FZ95PF7SK0MYRNAOUHTWA4OLV","","null","<img src=""img/land1.png"" style=""width:200px; border:14px solid green;"">","null","","","","","","","","","",""
"","image-keyboard-response","44","35867","0.0-44.0","3LOTDFNYA8LVJLXMU4GOZULJ93BFWL","A6THOSGKI6HQC","3THR0FZ95PF7SK0MYRNAOUHTWA4OLV","","441.30000019073486","img/land1.png","75","442.19999980926514","2","1","1","2","1,0.7,0.7,0.7,1,0.7,0.7,0.7,1","1,0.7,0.7,0.7,1,0.7,0.7,0.7,1","","",""
"","html-keyboard-response","45","36170","0.0-45.0","3LOTDFNYA8LVJLXMU4GOZULJ93BFWL","A6THOSGKI6HQC","3THR0FZ95PF7SK0MYRNAOUHTWA4OLV","","null","<img src=""img/land1.png"" style=""width:200px; border:14px solid green;"">","null","","","","","","","","","",""
"","image-keyboard-response","46","36196","0.0-46.0","3LOTDFNYA8LVJLXMU4GOZULJ93BFWL","A6THOSGKI6HQC","3THR0FZ95PF7SK0MYRNAOUHTWA4OLV","","25","img/land1.png","76","25.700000286102295","3","0","1","2","1,0.7,0.7,0.7,1,0.7,0.7,0.7,1","1,0.7,0.7,0.7,1,0.7,0.7,0.7,1","","",""
"","html-keyboard-response","47","36498","0.0-47.0","3LOTDFNYA8LVJLXMU4GOZULJ93BFWL","A6THOSGKI6HQC","3THR0FZ95PF7SK0MYRNAOUHTWA4OLV","","null","<img src=""img/land1.png"" style=""width:200px;border:14px solid red;"">","null","","","","","","","","","",""
"","image-keyboard-response","48","36931","0.0-48.0","3LOTDFNYA8LVJLXMU4GOZULJ93BFWL","A6THOSGKI6HQC","3THR0FZ95PF7SK0MYRNAOUHTWA4OLV","","432.5","img/land2.png","75","433.40000009536743","2","1","2","2","1,0.7,0.7,0.7,1,0.7,0.7,0.7,1","1,0.7,0.7,0.7,1,0.7,0.7,0.7,1","","",""
"","html-keyboard-response","49","37233","0.0-49.0","3LOTDFNYA8LVJLXMU4GOZULJ93BFWL","A6THOSGKI6HQC","3THR0FZ95PF7SK0MYRNAOUHTWA4OLV","","null","<img src=""img/land2.png"" style=""width:200px; border:14px solid green;"">","null","","","","","","","","","",""
"","image-keyboard-response","50","37267","0.0-50.0","3LOTDFNYA8LVJLXMU4GOZULJ93BFWL","A6THOSGKI6HQC","3THR0FZ95PF7SK0MYRNAOUHTWA4OLV","","33","img/land2.png","76","33.799999713897705","3","1","2","2","1,0.7,0.7,0.7,1,0.7,0.7,0.7,1","1,0.7,0.7,0.7,1,0.7,0.7,0.7,1","","",""
"","html-keyboard-response","51","37570","0.0-51.0","3LOTDFNYA8LVJLXMU4GOZULJ93BFWL","A6THOSGKI6HQC","3THR0FZ95PF7SK0MYRNAOUHTWA4OLV","","null","<img src=""img/land2.png"" style=""width:200px; border:14px solid green;"">","null","","","","","","","","","",""
"","image-keyboard-response","52","38036","0.0-52.0","3LOTDFNYA8LVJLXMU4GOZULJ93BFWL","A6THOSGKI6HQC","3THR0FZ95PF7SK0MYRNAOUHTWA4OLV","","464.19999980926514","img/land1.png","75","465.19999980926514","2","1","1","2","1,0.7,0.7,0.7,1,0.7,0.7,0.7,1","1,0.7,0.7,0.7,1,0.7,0.7,0.7,1","","",""
"","html-keyboard-response","53","38337","0.0-53.0","3LOTDFNYA8LVJLXMU4GOZULJ93BFWL","A6THOSGKI6HQC","3THR0FZ95PF7SK0MYRNAOUHTWA4OLV","","null","<img src=""img/land1.png"" style=""width:200px; border:14px solid green;"">","null","","","","","","","","","",""
"","image-keyboard-response","54","38627","0.0-54.0","3LOTDFNYA8LVJLXMU4GOZULJ93BFWL","A6THOSGKI6HQC","3THR0FZ95PF7SK0MYRNAOUHTWA4OLV","","289.2000002861023","img/land3.png","74","290.09999990463257","1","1","3","2","1,0.7,0.7,0.7,1,0.7,0.7,0.7,1","1,0.7,0.7,0.7,1,0.7,0.7,0.7,1","","",""
"","html-keyboard-response","55","38930","0.0-55.0","3LOTDFNYA8LVJLXMU4GOZULJ93BFWL","A6THOSGKI6HQC","3THR0FZ95PF7SK0MYRNAOUHTWA4OLV","","null","<img src=""img/land3.png"" style=""width:200px; border:14px solid green;"">","null","","","","","","","","","",""
"","image-keyboard-response","56","39083","0.0-56.0","3LOTDFNYA8LVJLXMU4GOZULJ93BFWL","A6THOSGKI6HQC","3THR0FZ95PF7SK0MYRNAOUHTWA4OLV","","152.2999997138977","img/land2.png","75","153.2000002861023","2","1","2","2","1,0.7,0.7,0.7,1,0.7,0.7,0.7,1","1,0.7,0.7,0.7,1,0.7,0.7,0.7,1","","",""
"","html-keyboard-response","57","39385","0.0-57.0","3LOTDFNYA8LVJLXMU4GOZULJ93BFWL","A6THOSGKI6HQC","3THR0FZ95PF7SK0MYRNAOUHTWA4OLV","","null","<img src=""img/land2.png"" style=""width:200px; border:14px solid green;"">","null","","","","","","","","","",""
"","image-keyboard-response","58","39707","0.0-58.0","3LOTDFNYA8LVJLXMU4GOZULJ93BFWL","A6THOSGKI6HQC","3THR0FZ95PF7SK0MYRNAOUHTWA4OLV","","321.5","img/land3.png","74","322.40000009536743","1","1","3","2","1,0.7,0.7,0.7,1,0.7,0.7,0.7,1","1,0.7,0.7,0.7,1,0.7,0.7,0.7,1","","",""
"","html-keyboard-response","59","40009","0.0-59.0","3LOTDFNYA8LVJLXMU4GOZULJ93BFWL","A6THOSGKI6HQC","3THR0FZ95PF7SK0MYRNAOUHTWA4OLV","","null","<img src=""img/land3.png"" style=""width:200px; border:14px solid green;"">","null","","","","","","","","","",""
"","image-keyboard-response","60","40100","0.0-60.0","3LOTDFNYA8LVJLXMU4GOZULJ93BFWL","A6THOSGKI6HQC","3THR0FZ95PF7SK0MYRNAOUHTWA4OLV","","89.5","img/land3.png","75","90.19999980926514","2","1","3","2","1,0.7,0.7,0.7,1,0.7,0.7,0.7,1","1,0.7,0.7,0.7,1,0.7,0.7,0.7,1","","",""
"","html-keyboard-response","61","40402","0.0-61.0","3LOTDFNYA8LVJLXMU4GOZULJ93BFWL","A6THOSGKI6HQC","3THR0FZ95PF7SK0MYRNAOUHTWA4OLV","","null","<img src=""img/land3.png"" style=""width:200px; border:14px solid green;"">","null","","","","","","","","","",""
"","image-keyboard-response","62","40427","0.0-62.0","3LOTDFNYA8LVJLXMU4GOZULJ93BFWL","A6THOSGKI6HQC","3THR0FZ95PF7SK0MYRNAOUHTWA4OLV","","23.799999713897705","img/land1.png","76","24.59999990463257","3","1","1","2","1,0.7,0.7,0.7,1,0.7,0.7,0.7,1","1,0.7,0.7,0.7,1,0.7,0.7,0.7,1","","",""
"","html-keyboard-response","63","40729","0.0-63.0","3LOTDFNYA8LVJLXMU4GOZULJ93BFWL","A6THOSGKI6HQC","3THR0FZ95PF7SK0MYRNAOUHTWA4OLV","","null","<img src=""img/land1.png"" style=""width:200px; border:14px solid green;"">","null","","","","","","","","","",""
"","image-keyboard-response","64","41195","0.0-64.0","3LOTDFNYA8LVJLXMU4GOZULJ93BFWL","A6THOSGKI6HQC","3THR0FZ95PF7SK0MYRNAOUHTWA4OLV","","464.7999997138977","img/land2.png","76","465.80000019073486","3","0","2","2","1,0.7,0.7,0.7,1,0.7,0.7,0.7,1","1,0.7,0.7,0.7,1,0.7,0.7,0.7,1","","",""
"","html-keyboard-response","65","41498","0.0-65.0","3LOTDFNYA8LVJLXMU4GOZULJ93BFWL","A6THOSGKI6HQC","3THR0FZ95PF7SK0MYRNAOUHTWA4OLV","","null","<img src=""img/land2.png"" style=""width:200px;border:14px solid red;"">","null","","","","","","","","","",""
"","image-keyboard-response","66","41596","0.0-66.0","3LOTDFNYA8LVJLXMU4GOZULJ93BFWL","A6THOSGKI6HQC","3THR0FZ95PF7SK0MYRNAOUHTWA4OLV","","97.19999980926514","img/land1.png","75","98","2","1","1","2","1,0.7,0.7,0.7,1,0.7,0.7,0.7,1","1,0.7,0.7,0.7,1,0.7,0.7,0.7,1","","",""
"","html-keyboard-response","67","41899","0.0-67.0","3LOTDFNYA8LVJLXMU4GOZULJ93BFWL","A6THOSGKI6HQC","3THR0FZ95PF7SK0MYRNAOUHTWA4OLV","","null","<img src=""img/land1.png"" style=""width:200px; border:14px solid green;"">","null","","","","","","","","","",""
"","image-keyboard-response","68","41972","0.0-68.0","3LOTDFNYA8LVJLXMU4GOZULJ93BFWL","A6THOSGKI6HQC","3THR0FZ95PF7SK0MYRNAOUHTWA4OLV","","71.7000002861023","img/land1.png","74","72.59999990463257","1","1","1","2","1,0.7,0.7,0.7,1,0.7,0.7,0.7,1","1,0.7,0.7,0.7,1,0.7,0.7,0.7,1","","",""
"","html-keyboard-response","69","42274","0.0-69.0","3LOTDFNYA8LVJLXMU4GOZULJ93BFWL","A6THOSGKI6HQC","3THR0FZ95PF7SK0MYRNAOUHTWA4OLV","","null","<img src=""img/land1.png"" style=""width:200px; border:14px solid green;"">","null","","","","","","","","","",""
"","image-keyboard-response","70","42347","0.0-70.0","3LOTDFNYA8LVJLXMU4GOZULJ93BFWL","A6THOSGKI6HQC","3THR0FZ95PF7SK0MYRNAOUHTWA4OLV","","72.5","img/land3.png","76","73.2000002861023","3","1","3","2","1,0.7,0.7,0.7,1,0.7,0.7,0.7,1","1,0.7,0.7,0.7,1,0.7,0.7,0.7,1","","",""
"","html-keyboard-response","71","42650","0.0-71.0","3LOTDFNYA8LVJLXMU4GOZULJ93BFWL","A6THOSGKI6HQC","3THR0FZ95PF7SK0MYRNAOUHTWA4OLV","","null","<img src=""img/land3.png"" style=""width:200px; border:14px solid green;"">","null","","","","","","","","","",""
"","image-keyboard-response","72","42684","0.0-72.0","3LOTDFNYA8LVJLXMU4GOZULJ93BFWL","A6THOSGKI6HQC","3THR0FZ95PF7SK0MYRNAOUHTWA4OLV","","33.30000019073486","img/land1.png","74","34.09999990463257","1","1","1","2","1,0.7,0.7,0.7,1,0.7,0.7,0.7,1","1,0.7,0.7,0.7,1,0.7,0.7,0.7,1","","",""
"","html-keyboard-response","73","42985","0.0-73.0","3LOTDFNYA8LVJLXMU4GOZULJ93BFWL","A6THOSGKI6HQC","3THR0FZ95PF7SK0MYRNAOUHTWA4OLV","","null","<img src=""img/land1.png"" style=""width:200px; border:14px solid green;"">","null","","","","","","","","","",""
"","image-keyboard-response","74","43108","0.0-74.0","3LOTDFNYA8LVJLXMU4GOZULJ93BFWL","A6THOSGKI6HQC","3THR0FZ95PF7SK0MYRNAOUHTWA4OLV","","121.40000009536743","img/land1.png","75","122.09999990463257","2","1","1","2","1,0.7,0.7,0.7,1,0.7,0.7,0.7,1","1,0.7,0.7,0.7,1,0.7,0.7,0.7,1","","",""
"","html-keyboard-response","75","43409","0.0-75.0","3LOTDFNYA8LVJLXMU4GOZULJ93BFWL","A6THOSGKI6HQC","3THR0FZ95PF7SK0MYRNAOUHTWA4OLV","","null","<img src=""img/land1.png"" style=""width:200px; border:14px solid green;"">","null","","","","","","","","","",""
"","image-keyboard-response","76","43675","0.0-76.0","3LOTDFNYA8LVJLXMU4GOZULJ93BFWL","A6THOSGKI6HQC","3THR0FZ95PF7SK0MYRNAOUHTWA4OLV","","265.09999990463257","img/land2.png","74","265.69999980926514","1","0","2","2","1,0.7,0.7,0.7,1,0.7,0.7,0.7,1","1,0.7,0.7,0.7,1,0.7,0.7,0.7,1","","",""
"","html-keyboard-response","77","43977","0.0-77.0","3LOTDFNYA8LVJLXMU4GOZULJ93BFWL","A6THOSGKI6HQC","3THR0FZ95PF7SK0MYRNAOUHTWA4OLV","","null","<img src=""img/land2.png"" style=""width:200px;border:14px solid red;"">","null","","","","","","","","","",""
"","image-keyboard-response","78","44123","0.0-78.0","3LOTDFNYA8LVJLXMU4GOZULJ93BFWL","A6THOSGKI6HQC","3THR0FZ95PF7SK0MYRNAOUHTWA4OLV","","145","img/land1.png","75","146.10000038146973","2","1","1","2","1,0.7,0.7,0.7,1,0.7,0.7,0.7,1","1,0.7,0.7,0.7,1,0.7,0.7,0.7,1","","",""
"","html-keyboard-response","79","44426","0.0-79.0","3LOTDFNYA8LVJLXMU4GOZULJ93BFWL","A6THOSGKI6HQC","3THR0FZ95PF7SK0MYRNAOUHTWA4OLV","","null","<img src=""img/land1.png"" style=""width:200px; border:14px solid green;"">","null","","","","","","","","","",""
"","image-keyboard-response","80","44460","0.0-80.0","3LOTDFNYA8LVJLXMU4GOZULJ93BFWL","A6THOSGKI6HQC","3THR0FZ95PF7SK0MYRNAOUHTWA4OLV","","32.59999990463257","img/land1.png","76","33.69999980926514","3","0","1","2","1,0.7,0.7,0.7,1,0.7,0.7,0.7,1","1,0.7,0.7,0.7,1,0.7,0.7,0.7,1","","",""
"","html-keyboard-response","81","44763","0.0-81.0","3LOTDFNYA8LVJLXMU4GOZULJ93BFWL","A6THOSGKI6HQC","3THR0FZ95PF7SK0MYRNAOUHTWA4OLV","","null","<img src=""img/land1.png"" style=""width:200px;border:14px solid red;"">","null","","","","","","","","","",""
"","image-keyboard-response","82","45252","0.0-82.0","3LOTDFNYA8LVJLXMU4GOZULJ93BFWL","A6THOSGKI6HQC","3THR0FZ95PF7SK0MYRNAOUHTWA4OLV","","488.09999990463257","img/land1.png","75","488.90000009536743","2","0","1","2","1,0.7,0.7,0.7,1,0.7,0.7,0.7,1","1,0.7,0.7,0.7,1,0.7,0.7,0.7,1","","",""
"","html-keyboard-response","83","45555","0.0-83.0","3LOTDFNYA8LVJLXMU4GOZULJ93BFWL","A6THOSGKI6HQC","3THR0FZ95PF7SK0MYRNAOUHTWA4OLV","","null","<img src=""img/land1.png"" style=""width:200px;border:14px solid red;"">","null","","","","","","","","","",""
"","image-keyboard-response","84","45611","0.0-84.0","3LOTDFNYA8LVJLXMU4GOZULJ93BFWL","A6THOSGKI6HQC","3THR0FZ95PF7SK0MYRNAOUHTWA4OLV","","55.59999990463257","img/land1.png","76","56.5","3","0","1","2","1,0.7,0.7,0.7,1,0.7,0.7,0.7,1","1,0.7,0.7,0.7,1,0.7,0.7,0.7,1","","",""
"","html-keyboard-response","85","45913","0.0-85.0","3LOTDFNYA8LVJLXMU4GOZULJ93BFWL","A6THOSGKI6HQC","3THR0FZ95PF7SK0MYRNAOUHTWA4OLV","","null","<img src=""img/land1.png"" style=""width:200px;border:14px solid red;"">","null","","","","","","","","","",""
"","image-keyboard-response","86","45963","0.0-86.0","3LOTDFNYA8LVJLXMU4GOZULJ93BFWL","A6THOSGKI6HQC","3THR0FZ95PF7SK0MYRNAOUHTWA4OLV","","48.69999980926514","img/land1.png","74","49.5","1","1","1","2","1,0.7,0.7,0.7,1,0.7,0.7,0.7,1","1,0.7,0.7,0.7,1,0.7,0.7,0.7,1","","",""
"","html-keyboard-response","87","46265","0.0-87.0","3LOTDFNYA8LVJLXMU4GOZULJ93BFWL","A6THOSGKI6HQC","3THR0FZ95PF7SK0MYRNAOUHTWA4OLV","","null","<img src=""img/land1.png"" style=""width:200px; border:14px solid green;"">","null","","","","","","","","","",""
"","image-keyboard-response","88","46387","0.0-88.0","3LOTDFNYA8LVJLXMU4GOZULJ93BFWL","A6THOSGKI6HQC","3THR0FZ95PF7SK0MYRNAOUHTWA4OLV","","120.5","img/land2.png","75","121.5","2","1","2","2","1,0.7,0.7,0.7,1,0.7,0.7,0.7,1","1,0.7,0.7,0.7,1,0.7,0.7,0.7,1","","",""
"","html-keyboard-response","89","46689","0.0-89.0","3LOTDFNYA8LVJLXMU4GOZULJ93BFWL","A6THOSGKI6HQC","3THR0FZ95PF7SK0MYRNAOUHTWA4OLV","","null","<img src=""img/land2.png"" style=""width:200px; border:14px solid green;"">","null","","","","","","","","","",""
"","image-keyboard-response","90","46883","0.0-90.0","3LOTDFNYA8LVJLXMU4GOZULJ93BFWL","A6THOSGKI6HQC","3THR0FZ95PF7SK0MYRNAOUHTWA4OLV","","193.19999980926514","img/land3.png","76","194","3","1","3","2","1,0.7,0.7,0.7,1,0.7,0.7,0.7,1","1,0.7,0.7,0.7,1,0.7,0.7,0.7,1","","",""
"","html-keyboard-response","91","47186","0.0-91.0","3LOTDFNYA8LVJLXMU4GOZULJ93BFWL","A6THOSGKI6HQC","3THR0FZ95PF7SK0MYRNAOUHTWA4OLV","","null","<img src=""img/land3.png"" style=""width:200px; border:14px solid green;"">","null","","","","","","","","","",""
"","image-keyboard-response","92","48691","0.0-92.0","3LOTDFNYA8LVJLXMU4GOZULJ93BFWL","A6THOSGKI6HQC","3THR0FZ95PF7SK0MYRNAOUHTWA4OLV","","1503.9000000953674","img/land1.png","74","1504.8000001907349","1","1","1","2","1,0.7,0.7,0.7,1,0.7,0.7,0.7,1","1,0.7,0.7,0.7,1,0.7,0.7,0.7,1","","",""
"","html-keyboard-response","93","48993","0.0-93.0","3LOTDFNYA8LVJLXMU4GOZULJ93BFWL","A6THOSGKI6HQC","3THR0FZ95PF7SK0MYRNAOUHTWA4OLV","","null","<img src=""img/land1.png"" style=""width:200px; border:14px solid green;"">","null","","","","","","","","","",""
"","image-keyboard-response","94","49027","0.0-94.0","3LOTDFNYA8LVJLXMU4GOZULJ93BFWL","A6THOSGKI6HQC","3THR0FZ95PF7SK0MYRNAOUHTWA4OLV","","32.80000019073486","img/land2.png","76","33.59999990463257","3","1","2","2","1,0.7,0.7,0.7,1,0.7,0.7,0.7,1","1,0.7,0.7,0.7,1,0.7,0.7,0.7,1","","",""
"","html-keyboard-response","95","49330","0.0-95.0","3LOTDFNYA8LVJLXMU4GOZULJ93BFWL","A6THOSGKI6HQC","3THR0FZ95PF7SK0MYRNAOUHTWA4OLV","","null","<img src=""img/land2.png"" style=""width:200px; border:14px solid green;"">","null","","","","","","","","","",""
"","image-keyboard-response","96","49390","0.0-96.0","3LOTDFNYA8LVJLXMU4GOZULJ93BFWL","A6THOSGKI6HQC","3THR0FZ95PF7SK0MYRNAOUHTWA4OLV","","58.700000286102295","img/land2.png","75","59.59999990463257","2","1","2","2","1,0.7,0.7,0.7,1,0.7,0.7,0.7,1","1,0.7,0.7,0.7,1,0.7,0.7,0.7,1","","",""
"","html-keyboard-response","97","49692","0.0-97.0","3LOTDFNYA8LVJLXMU4GOZULJ93BFWL","A6THOSGKI6HQC","3THR0FZ95PF7SK0MYRNAOUHTWA4OLV","","null","<img src=""img/land2.png"" style=""width:200px; border:14px solid green;"">","null","","","","","","","","","",""
"","image-keyboard-response","98","49867","0.0-98.0","3LOTDFNYA8LVJLXMU4GOZULJ93BFWL","A6THOSGKI6HQC","3THR0FZ95PF7SK0MYRNAOUHTWA4OLV","","174.09999990463257","img/land2.png","76","174.89999961853027","3","0","2","2","1,0.7,0.7,0.7,1,0.7,0.7,0.7,1","1,0.7,0.7,0.7,1,0.7,0.7,0.7,1","","",""
"","html-keyboard-response","99","50169","0.0-99.0","3LOTDFNYA8LVJLXMU4GOZULJ93BFWL","A6THOSGKI6HQC","3THR0FZ95PF7SK0MYRNAOUHTWA4OLV","","null","<img src=""img/land2.png"" style=""width:200px;border:14px solid red;"">","null","","","","","","","","","",""
"","image-keyboard-response","100","50236","0.0-100.0","3LOTDFNYA8LVJLXMU4GOZULJ93BFWL","A6THOSGKI6HQC","3THR0FZ95PF7SK0MYRNAOUHTWA4OLV","","65.7000002861023","img/land1.png","74","66.40000009536743","1","1","1","2","1,0.7,0.7,0.7,1,0.7,0.7,0.7,1","1,0.7,0.7,0.7,1,0.7,0.7,0.7,1","","",""
"","html-keyboard-response","101","50538","0.0-101.0","3LOTDFNYA8LVJLXMU4GOZULJ93BFWL","A6THOSGKI6HQC","3THR0FZ95PF7SK0MYRNAOUHTWA4OLV","","null","<img src=""img/land1.png"" style=""width:200px; border:14px solid green;"">","null","","","","","","","","","",""
"","image-keyboard-response","102","50707","0.0-102.0","3LOTDFNYA8LVJLXMU4GOZULJ93BFWL","A6THOSGKI6HQC","3THR0FZ95PF7SK0MYRNAOUHTWA4OLV","","168.10000038146973","img/land3.png","75","169","2","1","3","2","1,0.7,0.7,0.7,1,0.7,0.7,0.7,1","1,0.7,0.7,0.7,1,0.7,0.7,0.7,1","","",""
"","html-keyboard-response","103","51010","0.0-103.0","3LOTDFNYA8LVJLXMU4GOZULJ93BFWL","A6THOSGKI6HQC","3THR0FZ95PF7SK0MYRNAOUHTWA4OLV","","null","<img src=""img/land3.png"" style=""width:200px; border:14px solid green;"">","null","","","","","","","","","",""
"","image-keyboard-response","104","51076","0.0-104.0","3LOTDFNYA8LVJLXMU4GOZULJ93BFWL","A6THOSGKI6HQC","3THR0FZ95PF7SK0MYRNAOUHTWA4OLV","","64.7999997138977","img/land1.png","76","65.5","3","1","1","2","1,0.7,0.7,0.7,1,0.7,0.7,0.7,1","1,0.7,0.7,0.7,1,0.7,0.7,0.7,1","","",""
"","html-keyboard-response","105","51378","0.0-105.0","3LOTDFNYA8LVJLXMU4GOZULJ93BFWL","A6THOSGKI6HQC","3THR0FZ95PF7SK0MYRNAOUHTWA4OLV","","null","<img src=""img/land1.png"" style=""width:200px; border:14px solid green;"">","null","","","","","","","","","",""
"","image-keyboard-response","106","51459","0.0-106.0","3LOTDFNYA8LVJLXMU4GOZULJ93BFWL","A6THOSGKI6HQC","3THR0FZ95PF7SK0MYRNAOUHTWA4OLV","","80.7999997138977","img/land2.png","74","81.60000038146973","1","1","2","2","1,0.7,0.7,0.7,1,0.7,0.7,0.7,1","1,0.7,0.7,0.7,1,0.7,0.7,0.7,1","","",""
"","html-keyboard-response","107","51762","0.0-107.0","3LOTDFNYA8LVJLXMU4GOZULJ93BFWL","A6THOSGKI6HQC","3THR0FZ95PF7SK0MYRNAOUHTWA4OLV","","null","<img src=""img/land2.png"" style=""width:200px; border:14px solid green;"">","null","","","","","","","","","",""
"","image-keyboard-response","108","51836","0.0-108.0","3LOTDFNYA8LVJLXMU4GOZULJ93BFWL","A6THOSGKI6HQC","3THR0FZ95PF7SK0MYRNAOUHTWA4OLV","","73.30000019073486","img/land3.png","75","74.09999990463257","2","1","3","2","1,0.7,0.7,0.7,1,0.7,0.7,0.7,1","1,0.7,0.7,0.7,1,0.7,0.7,0.7,1","","",""
"","html-keyboard-response","109","52138","0.0-109.0","3LOTDFNYA8LVJLXMU4GOZULJ93BFWL","A6THOSGKI6HQC","3THR0FZ95PF7SK0MYRNAOUHTWA4OLV","","null","<img src=""img/land3.png"" style=""width:200px; border:14px solid green;"">","null","","","","","","","","","",""
"","image-keyboard-response","110","52156","0.0-110.0","3LOTDFNYA8LVJLXMU4GOZULJ93BFWL","A6THOSGKI6HQC","3THR0FZ95PF7SK0MYRNAOUHTWA4OLV","","16.300000190734863","img/land3.png","76","17.09999990463257","3","1","3","2","1,0.7,0.7,0.7,1,0.7,0.7,0.7,1","1,0.7,0.7,0.7,1,0.7,0.7,0.7,1","","",""
"","html-keyboard-response","111","52458","0.0-111.0","3LOTDFNYA8LVJLXMU4GOZULJ93BFWL","A6THOSGKI6HQC","3THR0FZ95PF7SK0MYRNAOUHTWA4OLV","","null","<img src=""img/land3.png"" style=""width:200px; border:14px solid green;"">","null","","","","","","","","","",""
"","image-keyboard-response","112","52603","0.0-112.0","3LOTDFNYA8LVJLXMU4GOZULJ93BFWL","A6THOSGKI6HQC","3THR0FZ95PF7SK0MYRNAOUHTWA4OLV","","144.19999980926514","img/land3.png","75","145","2","1","3","2","1,0.7,0.7,0.7,1,0.7,0.7,0.7,1","1,0.7,0.7,0.7,1,0.7,0.7,0.7,1","","",""
"","html-keyboard-response","113","52906","0.0-113.0","3LOTDFNYA8LVJLXMU4GOZULJ93BFWL","A6THOSGKI6HQC","3THR0FZ95PF7SK0MYRNAOUHTWA4OLV","","null","<img src=""img/land3.png"" style=""width:200px; border:14px solid green;"">","null","","","","","","","","","",""
"","image-keyboard-response","114","53003","0.0-114.0","3LOTDFNYA8LVJLXMU4GOZULJ93BFWL","A6THOSGKI6HQC","3THR0FZ95PF7SK0MYRNAOUHTWA4OLV","","96","img/land3.png","76","96.90000009536743","3","1","3","2","1,0.7,0.7,0.7,1,0.7,0.7,0.7,1","1,0.7,0.7,0.7,1,0.7,0.7,0.7,1","","",""
"","html-keyboard-response","115","53306","0.0-115.0","3LOTDFNYA8LVJLXMU4GOZULJ93BFWL","A6THOSGKI6HQC","3THR0FZ95PF7SK0MYRNAOUHTWA4OLV","","null","<img src=""img/land3.png"" style=""width:200px; border:14px solid green;"">","null","","","","","","","","","",""
"","image-keyboard-response","116","53675","0.0-116.0","3LOTDFNYA8LVJLXMU4GOZULJ93BFWL","A6THOSGKI6HQC","3THR0FZ95PF7SK0MYRNAOUHTWA4OLV","","367.69999980926514","img/land1.png","76","368.7000002861023","3","1","1","2","1,0.7,0.7,0.7,1,0.7,0.7,0.7,1","1,0.7,0.7,0.7,1,0.7,0.7,0.7,1","","",""
"","html-keyboard-response","117","53977","0.0-117.0","3LOTDFNYA8LVJLXMU4GOZULJ93BFWL","A6THOSGKI6HQC","3THR0FZ95PF7SK0MYRNAOUHTWA4OLV","","null","<img src=""img/land1.png"" style=""width:200px; border:14px solid green;"">","null","","","","","","","","","",""
"","image-keyboard-response","118","54027","0.0-118.0","3LOTDFNYA8LVJLXMU4GOZULJ93BFWL","A6THOSGKI6HQC","3THR0FZ95PF7SK0MYRNAOUHTWA4OLV","","49","img/land1.png","74","49.90000009536743","1","1","1","2","1,0.7,0.7,0.7,1,0.7,0.7,0.7,1","1,0.7,0.7,0.7,1,0.7,0.7,0.7,1","","",""
"","html-keyboard-response","119","54330","0.0-119.0","3LOTDFNYA8LVJLXMU4GOZULJ93BFWL","A6THOSGKI6HQC","3THR0FZ95PF7SK0MYRNAOUHTWA4OLV","","null","<img src=""img/land1.png"" style=""width:200px; border:14px solid green;"">","null","","","","","","","","","",""
"","image-keyboard-response","120","54379","0.0-120.0","3LOTDFNYA8LVJLXMU4GOZULJ93BFWL","A6THOSGKI6HQC","3THR0FZ95PF7SK0MYRNAOUHTWA4OLV","","47.90000009536743","img/land2.png","75","48.69999980926514","2","1","2","2","1,0.7,0.7,0.7,1,0.7,0.7,0.7,1","1,0.7,0.7,0.7,1,0.7,0.7,0.7,1","","",""
"","html-keyboard-response","121","54681","0.0-121.0","3LOTDFNYA8LVJLXMU4GOZULJ93BFWL","A6THOSGKI6HQC","3THR0FZ95PF7SK0MYRNAOUHTWA4OLV","","null","<img src=""img/land2.png"" style=""width:200px; border:14px solid green;"">","null","","","","","","","","","",""
"","image-keyboard-response","122","54691","0.0-122.0","3LOTDFNYA8LVJLXMU4GOZULJ93BFWL","A6THOSGKI6HQC","3THR0FZ95PF7SK0MYRNAOUHTWA4OLV","","9.599999904632568","img/land1.png","76","10.5","3","1","1","2","1,0.7,0.7,0.7,1,0.7,0.7,0.7,1","1,0.7,0.7,0.7,1,0.7,0.7,0.7,1","","",""
"","html-keyboard-response","123","54994","0.0-123.0","3LOTDFNYA8LVJLXMU4GOZULJ93BFWL","A6THOSGKI6HQC","3THR0FZ95PF7SK0MYRNAOUHTWA4OLV","","null","<img src=""img/land1.png"" style=""width:200px; border:14px solid green;"">","null","","","","","","","","","",""
"","image-keyboard-response","124","55115","0.0-124.0","3LOTDFNYA8LVJLXMU4GOZULJ93BFWL","A6THOSGKI6HQC","3THR0FZ95PF7SK0MYRNAOUHTWA4OLV","","120.5","img/land1.png","75","121.40000009536743","2","1","1","2","1,0.7,0.7,0.7,1,0.7,0.7,0.7,1","1,0.7,0.7,0.7,1,0.7,0.7,0.7,1","","",""
"","html-keyboard-response","125","55417","0.0-125.0","3LOTDFNYA8LVJLXMU4GOZULJ93BFWL","A6THOSGKI6HQC","3THR0FZ95PF7SK0MYRNAOUHTWA4OLV","","null","<img src=""img/land1.png"" style=""width:200px; border:14px solid green;"">","null","","","","","","","","","",""
"","image-keyboard-response","126","55539","0.0-126.0","3LOTDFNYA8LVJLXMU4GOZULJ93BFWL","A6THOSGKI6HQC","3THR0FZ95PF7SK0MYRNAOUHTWA4OLV","","120.5","img/land3.png","76","121.2999997138977","3","1","3","2","1,0.7,0.7,0.7,1,0.7,0.7,0.7,1","1,0.7,0.7,0.7,1,0.7,0.7,0.7,1","","",""
"","html-keyboard-response","127","55841","0.0-127.0","3LOTDFNYA8LVJLXMU4GOZULJ93BFWL","A6THOSGKI6HQC","3THR0FZ95PF7SK0MYRNAOUHTWA4OLV","","null","<img src=""img/land3.png"" style=""width:200px; border:14px solid green;"">","null","","","","","","","","","",""
"","image-keyboard-response","128","55843","0.0-128.0","3LOTDFNYA8LVJLXMU4GOZULJ93BFWL","A6THOSGKI6HQC","3THR0FZ95PF7SK0MYRNAOUHTWA4OLV","","1","img/land3.png","74","1.5999999046325684","1","1","3","2","1,0.7,0.7,0.7,1,0.7,0.7,0.7,1","1,0.7,0.7,0.7,1,0.7,0.7,0.7,1","","",""
"","html-keyboard-response","129","56145","0.0-129.0","3LOTDFNYA8LVJLXMU4GOZULJ93BFWL","A6THOSGKI6HQC","3THR0FZ95PF7SK0MYRNAOUHTWA4OLV","","null","<img src=""img/land3.png"" style=""width:200px; border:14px solid green;"">","null","","","","","","","","","",""
"","image-keyboard-response","130","56259","0.0-130.0","3LOTDFNYA8LVJLXMU4GOZULJ93BFWL","A6THOSGKI6HQC","3THR0FZ95PF7SK0MYRNAOUHTWA4OLV","","112.59999990463257","img/land2.png","76","113.2999997138977","3","0","2","2","1,0.7,0.7,0.7,1,0.7,0.7,0.7,1","1,0.7,0.7,0.7,1,0.7,0.7,0.7,1","","",""
"","html-keyboard-response","131","56561","0.0-131.0","3LOTDFNYA8LVJLXMU4GOZULJ93BFWL","A6THOSGKI6HQC","3THR0FZ95PF7SK0MYRNAOUHTWA4OLV","","null","<img src=""img/land2.png"" style=""width:200px;border:14px solid red;"">","null","","","","","","","","","",""
"","image-keyboard-response","132","56563","0.0-132.0","3LOTDFNYA8LVJLXMU4GOZULJ93BFWL","A6THOSGKI6HQC","3THR0FZ95PF7SK0MYRNAOUHTWA4OLV","","1","img/land2.png","75","1.8000001907348633","2","1","2","2","1,0.7,0.7,0.7,1,0.7,0.7,0.7,1","1,0.7,0.7,0.7,1,0.7,0.7,0.7,1","","",""
"","html-keyboard-response","133","56865","0.0-133.0","3LOTDFNYA8LVJLXMU4GOZULJ93BFWL","A6THOSGKI6HQC","3THR0FZ95PF7SK0MYRNAOUHTWA4OLV","","null","<img src=""img/land2.png"" style=""width:200px; border:14px solid green;"">","null","","","","","","","","","",""
"","image-keyboard-response","134","57019","0.0-134.0","3LOTDFNYA8LVJLXMU4GOZULJ93BFWL","A6THOSGKI6HQC","3THR0FZ95PF7SK0MYRNAOUHTWA4OLV","","153.30000019073486","img/land1.png","76","154.19999980926514","3","1","1","2","1,0.7,0.7,0.7,1,0.7,0.7,0.7,1","1,0.7,0.7,0.7,1,0.7,0.7,0.7,1","","",""
"","html-keyboard-response","135","57322","0.0-135.0","3LOTDFNYA8LVJLXMU4GOZULJ93BFWL","A6THOSGKI6HQC","3THR0FZ95PF7SK0MYRNAOUHTWA4OLV","","null","<img src=""img/land1.png"" style=""width:200px; border:14px solid green;"">","null","","","","","","","","","",""
"","image-keyboard-response","136","57676","0.0-136.0","3LOTDFNYA8LVJLXMU4GOZULJ93BFWL","A6THOSGKI6HQC","3THR0FZ95PF7SK0MYRNAOUHTWA4OLV","","352.19999980926514","img/land1.png","75","353.09999990463257","2","0","1","2","1,0.7,0.7,0.7,1,0.7,0.7,0.7,1","1,0.7,0.7,0.7,1,0.7,0.7,0.7,1","","",""
"","html-keyboard-response","137","57978","0.0-137.0","3LOTDFNYA8LVJLXMU4GOZULJ93BFWL","A6THOSGKI6HQC","3THR0FZ95PF7SK0MYRNAOUHTWA4OLV","","null","<img src=""img/land1.png"" style=""width:200px;border:14px solid red;"">","null","","","","","","","","","",""
"","image-keyboard-response","138","57980","0.0-138.0","3LOTDFNYA8LVJLXMU4GOZULJ93BFWL","A6THOSGKI6HQC","3THR0FZ95PF7SK0MYRNAOUHTWA4OLV","","0.9000000953674316","img/land1.png","76","1.5","3","0","1","2","1,0.7,0.7,0.7,1,0.7,0.7,0.7,1","1,0.7,0.7,0.7,1,0.7,0.7,0.7,1","","",""
"","html-keyboard-response","139","58281","0.0-139.0","3LOTDFNYA8LVJLXMU4GOZULJ93BFWL","A6THOSGKI6HQC","3THR0FZ95PF7SK0MYRNAOUHTWA4OLV","","null","<img src=""img/land1.png"" style=""width:200px;border:14px solid red;"">","null","","","","","","","","","",""
"","image-keyboard-response","140","58307","0.0-140.0","3LOTDFNYA8LVJLXMU4GOZULJ93BFWL","A6THOSGKI6HQC","3THR0FZ95PF7SK0MYRNAOUHTWA4OLV","","25.200000286102295","img/land2.png","74","26","1","0","2","2","1,0.7,0.7,0.7,1,0.7,0.7,0.7,1","1,0.7,0.7,0.7,1,0.7,0.7,0.7,1","","",""
"","html-keyboard-response","141","58610","0.0-141.0","3LOTDFNYA8LVJLXMU4GOZULJ93BFWL","A6THOSGKI6HQC","3THR0FZ95PF7SK0MYRNAOUHTWA4OLV","","null","<img src=""img/land2.png"" style=""width:200px;border:14px solid red;"">","null","","","","","","","","","",""
"","image-keyboard-response","142","58651","0.0-142.0","3LOTDFNYA8LVJLXMU4GOZULJ93BFWL","A6THOSGKI6HQC","3THR0FZ95PF7SK0MYRNAOUHTWA4OLV","","40.5","img/land3.png","76","41.40000009536743","3","1","3","2","1,0.7,0.7,0.7,1,0.7,0.7,0.7,1","1,0.7,0.7,0.7,1,0.7,0.7,0.7,1","","",""
"","html-keyboard-response","143","58954","0.0-143.0","3LOTDFNYA8LVJLXMU4GOZULJ93BFWL","A6THOSGKI6HQC","3THR0FZ95PF7SK0MYRNAOUHTWA4OLV","","null","<img src=""img/land3.png"" style=""width:200px; border:14px solid green;"">","null","","","","","","","","","",""
"","image-keyboard-response","144","59019","0.0-144.0","3LOTDFNYA8LVJLXMU4GOZULJ93BFWL","A6THOSGKI6HQC","3THR0FZ95PF7SK0MYRNAOUHTWA4OLV","","64.2999997138977","img/land2.png","75","65.30000019073486","2","1","2","2","1,0.7,0.7,0.7,1,0.7,0.7,0.7,1","1,0.7,0.7,0.7,1,0.7,0.7,0.7,1","","",""
"","html-keyboard-response","145","59322","0.0-145.0","3LOTDFNYA8LVJLXMU4GOZULJ93BFWL","A6THOSGKI6HQC","3THR0FZ95PF7SK0MYRNAOUHTWA4OLV","","null","<img src=""img/land2.png"" style=""width:200px; border:14px solid green;"">","null","","","","","","","","","",""
"","image-keyboard-response","146","59355","0.0-146.0","3LOTDFNYA8LVJLXMU4GOZULJ93BFWL","A6THOSGKI6HQC","3THR0FZ95PF7SK0MYRNAOUHTWA4OLV","","32.5","img/land2.png","76","33.30000019073486","3","1","2","2","1,0.7,0.7,0.7,1,0.7,0.7,0.7,1","1,0.7,0.7,0.7,1,0.7,0.7,0.7,1","","",""
"","html-keyboard-response","147","59657","0.0-147.0","3LOTDFNYA8LVJLXMU4GOZULJ93BFWL","A6THOSGKI6HQC","3THR0FZ95PF7SK0MYRNAOUHTWA4OLV","","null","<img src=""img/land2.png"" style=""width:200px; border:14px solid green;"">","null","","","","","","","","","",""
"","image-keyboard-response","148","59972","0.0-148.0","3LOTDFNYA8LVJLXMU4GOZULJ93BFWL","A6THOSGKI6HQC","3THR0FZ95PF7SK0MYRNAOUHTWA4OLV","","314.40000009536743","img/land1.png","76","315.2000002861023","3","1","1","2","1,0.7,0.7,0.7,1,0.7,0.7,0.7,1","1,0.7,0.7,0.7,1,0.7,0.7,0.7,1","","",""
"","html-keyboard-response","149","60274","0.0-149.0","3LOTDFNYA8LVJLXMU4GOZULJ93BFWL","A6THOSGKI6HQC","3THR0FZ95PF7SK0MYRNAOUHTWA4OLV","","null","<img src=""img/land1.png"" style=""width:200px; border:14px solid green;"">","null","","","","","","","","","",""
"","image-keyboard-response","150","60475","0.0-150.0","3LOTDFNYA8LVJLXMU4GOZULJ93BFWL","A6THOSGKI6HQC","3THR0FZ95PF7SK0MYRNAOUHTWA4OLV","","199.80000019073486","img/land1.png","75","200.90000009536743","2","1","1","2","1,0.7,0.7,0.7,1,0.7,0.7,0.7,1","1,0.7,0.7,0.7,1,0.7,0.7,0.7,1","","",""
"","html-keyboard-response","151","60778","0.0-151.0","3LOTDFNYA8LVJLXMU4GOZULJ93BFWL","A6THOSGKI6HQC","3THR0FZ95PF7SK0MYRNAOUHTWA4OLV","","null","<img src=""img/land1.png"" style=""width:200px; border:14px solid green;"">","null","","","","","","","","","",""
"","image-keyboard-response","152","60795","0.0-152.0","3LOTDFNYA8LVJLXMU4GOZULJ93BFWL","A6THOSGKI6HQC","3THR0FZ95PF7SK0MYRNAOUHTWA4OLV","","16.199999809265137","img/land3.png","76","17","3","1","3","2","1,0.7,0.7,0.7,1,0.7,0.7,0.7,1","1,0.7,0.7,0.7,1,0.7,0.7,0.7,1","","",""
"","html-keyboard-response","153","61097","0.0-153.0","3LOTDFNYA8LVJLXMU4GOZULJ93BFWL","A6THOSGKI6HQC","3THR0FZ95PF7SK0MYRNAOUHTWA4OLV","","null","<img src=""img/land3.png"" style=""width:200px; border:14px solid green;"">","null","","","","","","","","","",""
"","image-keyboard-response","154","62612","0.0-154.0","3LOTDFNYA8LVJLXMU4GOZULJ93BFWL","A6THOSGKI6HQC","3THR0FZ95PF7SK0MYRNAOUHTWA4OLV","","1513.8000001907349","img/land3.png","74","1514.5","1","1","3","2","1,0.7,0.7,0.7,1,0.7,0.7,0.7,1","1,0.7,0.7,0.7,1,0.7,0.7,0.7,1","","",""
"","html-keyboard-response","155","62914","0.0-155.0","3LOTDFNYA8LVJLXMU4GOZULJ93BFWL","A6THOSGKI6HQC","3THR0FZ95PF7SK0MYRNAOUHTWA4OLV","","null","<img src=""img/land3.png"" style=""width:200px; border:14px solid green;"">","null","","","","","","","","","",""
"","image-keyboard-response","156","63123","0.0-156.0","3LOTDFNYA8LVJLXMU4GOZULJ93BFWL","A6THOSGKI6HQC","3THR0FZ95PF7SK0MYRNAOUHTWA4OLV","","208.30000019073486","img/land1.png","75","209.09999990463257","2","0","1","2","1,0.7,0.7,0.7,1,0.7,0.7,0.7,1","1,0.7,0.7,0.7,1,0.7,0.7,0.7,1","","",""
"","html-keyboard-response","157","63425","0.0-157.0","3LOTDFNYA8LVJLXMU4GOZULJ93BFWL","A6THOSGKI6HQC","3THR0FZ95PF7SK0MYRNAOUHTWA4OLV","","null","<img src=""img/land1.png"" style=""width:200px;border:14px solid red;"">","null","","","","","","","","","",""
"","image-keyboard-response","158","63763","0.0-158.0","3LOTDFNYA8LVJLXMU4GOZULJ93BFWL","A6THOSGKI6HQC","3THR0FZ95PF7SK0MYRNAOUHTWA4OLV","","337.09999990463257","img/land1.png","74","337.90000009536743","1","1","1","2","1,0.7,0.7,0.7,1,0.7,0.7,0.7,1","1,0.7,0.7,0.7,1,0.7,0.7,0.7,1","","",""
"","html-keyboard-response","159","64066","0.0-159.0","3LOTDFNYA8LVJLXMU4GOZULJ93BFWL","A6THOSGKI6HQC","3THR0FZ95PF7SK0MYRNAOUHTWA4OLV","","null","<img src=""img/land1.png"" style=""width:200px; border:14px solid green;"">","null","","","","","","","","","",""
"","image-keyboard-response","160","64588","0.0-160.0","3LOTDFNYA8LVJLXMU4GOZULJ93BFWL","A6THOSGKI6HQC","3THR0FZ95PF7SK0MYRNAOUHTWA4OLV","","520.2999997138977","img/land1.png","76","521.0999999046326","3","0","1","2","1,0.7,0.7,0.7,1,0.7,0.7,0.7,1","1,0.7,0.7,0.7,1,0.7,0.7,0.7,1","","",""
"","html-keyboard-response","161","64890","0.0-161.0","3LOTDFNYA8LVJLXMU4GOZULJ93BFWL","A6THOSGKI6HQC","3THR0FZ95PF7SK0MYRNAOUHTWA4OLV","","null","<img src=""img/land1.png"" style=""width:200px;border:14px solid red;"">","null","","","","","","","","","",""
"","image-keyboard-response","162","64916","0.0-162.0","3LOTDFNYA8LVJLXMU4GOZULJ93BFWL","A6THOSGKI6HQC","3THR0FZ95PF7SK0MYRNAOUHTWA4OLV","","25","img/land1.png","75","25.800000190734863","2","0","1","2","1,0.7,0.7,0.7,1,0.7,0.7,0.7,1","1,0.7,0.7,0.7,1,0.7,0.7,0.7,1","","",""
"","html-keyboard-response","163","65218","0.0-163.0","3LOTDFNYA8LVJLXMU4GOZULJ93BFWL","A6THOSGKI6HQC","3THR0FZ95PF7SK0MYRNAOUHTWA4OLV","","null","<img src=""img/land1.png"" style=""width:200px;border:14px solid red;"">","null","","","","","","","","","",""
"","image-keyboard-response","164","65340","0.0-164.0","3LOTDFNYA8LVJLXMU4GOZULJ93BFWL","A6THOSGKI6HQC","3THR0FZ95PF7SK0MYRNAOUHTWA4OLV","","120.2999997138977","img/land1.png","76","121","3","0","1","2","1,0.7,0.7,0.7,1,0.7,0.7,0.7,1","1,0.7,0.7,0.7,1,0.7,0.7,0.7,1","","",""
"","html-keyboard-response","165","65642","0.0-165.0","3LOTDFNYA8LVJLXMU4GOZULJ93BFWL","A6THOSGKI6HQC","3THR0FZ95PF7SK0MYRNAOUHTWA4OLV","","null","<img src=""img/land1.png"" style=""width:200px;border:14px solid red;"">","null","","","","","","","","","",""
"","image-keyboard-response","166","66148","0.0-166.0","3LOTDFNYA8LVJLXMU4GOZULJ93BFWL","A6THOSGKI6HQC","3THR0FZ95PF7SK0MYRNAOUHTWA4OLV","","504.90000009536743","img/land3.png","76","505.7999997138977","3","1","3","2","1,0.7,0.7,0.7,1,0.7,0.7,0.7,1","1,0.7,0.7,0.7,1,0.7,0.7,0.7,1","","",""
"","html-keyboard-response","167","66451","0.0-167.0","3LOTDFNYA8LVJLXMU4GOZULJ93BFWL","A6THOSGKI6HQC","3THR0FZ95PF7SK0MYRNAOUHTWA4OLV","","null","<img src=""img/land3.png"" style=""width:200px; border:14px solid green;"">","null","","","","","","","","","",""
"","image-keyboard-response","168","66548","0.0-168.0","3LOTDFNYA8LVJLXMU4GOZULJ93BFWL","A6THOSGKI6HQC","3THR0FZ95PF7SK0MYRNAOUHTWA4OLV","","95.80000019073486","img/land1.png","74","96.5","1","1","1","2","1,0.7,0.7,0.7,1,0.7,0.7,0.7,1","1,0.7,0.7,0.7,1,0.7,0.7,0.7,1","","",""
"","html-keyboard-response","169","66849","0.0-169.0","3LOTDFNYA8LVJLXMU4GOZULJ93BFWL","A6THOSGKI6HQC","3THR0FZ95PF7SK0MYRNAOUHTWA4OLV","","null","<img src=""img/land1.png"" style=""width:200px; border:14px solid green;"">","null","","","","","","","","","",""
"","html-keyboard-response","170","69326","0.0-170.0","3LOTDFNYA8LVJLXMU4GOZULJ93BFWL","A6THOSGKI6HQC","3THR0FZ95PF7SK0MYRNAOUHTWA4OLV","","","","","","","","","","","","","",""
"","image-keyboard-response","171","70907","0.0-171.0","3LOTDFNYA8LVJLXMU4GOZULJ93BFWL","A6THOSGKI6HQC","3THR0FZ95PF7SK0MYRNAOUHTWA4OLV","","1580.0999999046326","img/land5.png","76","1581.3000001907349","3","1","2","2","1,0.7,0.7,0.7,1,0.7,0.7,0.7,1","1,0.7,0.7,0.7,1,0.7,0.7,0.7,1","","",""
"","html-keyboard-response","172","71210","0.0-172.0","3LOTDFNYA8LVJLXMU4GOZULJ93BFWL","A6THOSGKI6HQC","3THR0FZ95PF7SK0MYRNAOUHTWA4OLV","","null","<img src=""img/land5.png"" style=""width:200px; border:14px solid green;"">","null","","","","","","","","","",""
"","image-keyboard-response","173","71540","0.0-173.0","3LOTDFNYA8LVJLXMU4GOZULJ93BFWL","A6THOSGKI6HQC","3THR0FZ95PF7SK0MYRNAOUHTWA4OLV","","328.7000002861023","img/land6.png","74","329.7000002861023","1","0","3","2","1,0.7,0.7,0.7,1,0.7,0.7,0.7,1","1,0.7,0.7,0.7,1,0.7,0.7,0.7,1","","",""
"","html-keyboard-response","174","71843","0.0-174.0","3LOTDFNYA8LVJLXMU4GOZULJ93BFWL","A6THOSGKI6HQC","3THR0FZ95PF7SK0MYRNAOUHTWA4OLV","","null","<img src=""img/land6.png"" style=""width:200px;border:14px solid red;"">","null","","","","","","","","","",""
"","image-keyboard-response","175","71923","0.0-175.0","3LOTDFNYA8LVJLXMU4GOZULJ93BFWL","A6THOSGKI6HQC","3THR0FZ95PF7SK0MYRNAOUHTWA4OLV","","78.90000009536743","img/land6.png","76","79.69999980926514","3","1","3","2","1,0.7,0.7,0.7,1,0.7,0.7,0.7,1","1,0.7,0.7,0.7,1,0.7,0.7,0.7,1","","",""
"","html-keyboard-response","176","72224","0.0-176.0","3LOTDFNYA8LVJLXMU4GOZULJ93BFWL","A6THOSGKI6HQC","3THR0FZ95PF7SK0MYRNAOUHTWA4OLV","","null","<img src=""img/land6.png"" style=""width:200px; border:14px solid green;"">","null","","","","","","","","","",""
"","image-keyboard-response","177","72605","0.0-177.0","3LOTDFNYA8LVJLXMU4GOZULJ93BFWL","A6THOSGKI6HQC","3THR0FZ95PF7SK0MYRNAOUHTWA4OLV","","379.59999990463257","img/land5.png","75","380.5","2","1","2","2","1,0.7,0.7,0.7,1,0.7,0.7,0.7,1","1,0.7,0.7,0.7,1,0.7,0.7,0.7,1","","",""
"","html-keyboard-response","178","72907","0.0-178.0","3LOTDFNYA8LVJLXMU4GOZULJ93BFWL","A6THOSGKI6HQC","3THR0FZ95PF7SK0MYRNAOUHTWA4OLV","","null","<img src=""img/land5.png"" style=""width:200px; border:14px solid green;"">","null","","","","","","","","","",""
"","image-keyboard-response","179","73163","0.0-179.0","3LOTDFNYA8LVJLXMU4GOZULJ93BFWL","A6THOSGKI6HQC","3THR0FZ95PF7SK0MYRNAOUHTWA4OLV","","254.80000019073486","img/land5.png","74","255.7000002861023","1","1","2","2","1,0.7,0.7,0.7,1,0.7,0.7,0.7,1","1,0.7,0.7,0.7,1,0.7,0.7,0.7,1","","",""
"","html-keyboard-response","180","73465","0.0-180.0","3LOTDFNYA8LVJLXMU4GOZULJ93BFWL","A6THOSGKI6HQC","3THR0FZ95PF7SK0MYRNAOUHTWA4OLV","","null","<img src=""img/land5.png"" style=""width:200px; border:14px solid green;"">","null","","","","","","","","","",""
"","image-keyboard-response","181","73476","0.0-181.0","3LOTDFNYA8LVJLXMU4GOZULJ93BFWL","A6THOSGKI6HQC","3THR0FZ95PF7SK0MYRNAOUHTWA4OLV","","9.599999904632568","img/land4.png","76","10.599999904632568","3","0","1","2","1,0.7,0.7,0.7,1,0.7,0.7,0.7,1","1,0.7,0.7,0.7,1,0.7,0.7,0.7,1","","",""
"","html-keyboard-response","182","73778","0.0-182.0","3LOTDFNYA8LVJLXMU4GOZULJ93BFWL","A6THOSGKI6HQC","3THR0FZ95PF7SK0MYRNAOUHTWA4OLV","","null","<img src=""img/land4.png"" style=""width:200px;border:14px solid red;"">","null","","","","","","","","","",""
"","image-keyboard-response","183","74067","0.0-183.0","3LOTDFNYA8LVJLXMU4GOZULJ93BFWL","A6THOSGKI6HQC","3THR0FZ95PF7SK0MYRNAOUHTWA4OLV","","288.5","img/land6.png","76","289.40000009536743","3","1","3","2","1,0.7,0.7,0.7,1,0.7,0.7,0.7,1","1,0.7,0.7,0.7,1,0.7,0.7,0.7,1","","",""
"","html-keyboard-response","184","74370","0.0-184.0","3LOTDFNYA8LVJLXMU4GOZULJ93BFWL","A6THOSGKI6HQC","3THR0FZ95PF7SK0MYRNAOUHTWA4OLV","","null","<img src=""img/land6.png"" style=""width:200px; border:14px solid green;"">","null","","","","","","","","","",""
"","image-keyboard-response","185","74396","0.0-185.0","3LOTDFNYA8LVJLXMU4GOZULJ93BFWL","A6THOSGKI6HQC","3THR0FZ95PF7SK0MYRNAOUHTWA4OLV","","25.100000381469727","img/land4.png","74","25.90000009536743","1","1","1","2","1,0.7,0.7,0.7,1,0.7,0.7,0.7,1","1,0.7,0.7,0.7,1,0.7,0.7,0.7,1","","",""
"","html-keyboard-response","186","74698","0.0-186.0","3LOTDFNYA8LVJLXMU4GOZULJ93BFWL","A6THOSGKI6HQC","3THR0FZ95PF7SK0MYRNAOUHTWA4OLV","","null","<img src=""img/land4.png"" style=""width:200px; border:14px solid green;"">","null","","","","","","","","","",""
"","image-keyboard-response","187","74771","0.0-187.0","3LOTDFNYA8LVJLXMU4GOZULJ93BFWL","A6THOSGKI6HQC","3THR0FZ95PF7SK0MYRNAOUHTWA4OLV","","72.59999990463257","img/land5.png","76","73.40000009536743","3","1","2","2","1,0.7,0.7,0.7,1,0.7,0.7,0.7,1","1,0.7,0.7,0.7,1,0.7,0.7,0.7,1","","",""
"","html-keyboard-response","188","75074","0.0-188.0","3LOTDFNYA8LVJLXMU4GOZULJ93BFWL","A6THOSGKI6HQC","3THR0FZ95PF7SK0MYRNAOUHTWA4OLV","","null","<img src=""img/land5.png"" style=""width:200px; border:14px solid green;"">","null","","","","","","","","","",""
"","image-keyboard-response","189","75140","0.0-189.0","3LOTDFNYA8LVJLXMU4GOZULJ93BFWL","A6THOSGKI6HQC","3THR0FZ95PF7SK0MYRNAOUHTWA4OLV","","64.80000019073486","img/land4.png","75","65.69999980926514","2","0","1","2","1,0.7,0.7,0.7,1,0.7,0.7,0.7,1","1,0.7,0.7,0.7,1,0.7,0.7,0.7,1","","",""
"","html-keyboard-response","190","75442","0.0-190.0","3LOTDFNYA8LVJLXMU4GOZULJ93BFWL","A6THOSGKI6HQC","3THR0FZ95PF7SK0MYRNAOUHTWA4OLV","","null","<img src=""img/land4.png"" style=""width:200px;border:14px solid red;"">","null","","","","","","","","","",""
"","image-keyboard-response","191","75548","0.0-191.0","3LOTDFNYA8LVJLXMU4GOZULJ93BFWL","A6THOSGKI6HQC","3THR0FZ95PF7SK0MYRNAOUHTWA4OLV","","105","img/land4.png","76","106","3","1","1","2","1,0.7,0.7,0.7,1,0.7,0.7,0.7,1","1,0.7,0.7,0.7,1,0.7,0.7,0.7,1","","",""
"","html-keyboard-response","192","75851","0.0-192.0","3LOTDFNYA8LVJLXMU4GOZULJ93BFWL","A6THOSGKI6HQC","3THR0FZ95PF7SK0MYRNAOUHTWA4OLV","","null","<img src=""img/land4.png"" style=""width:200px; border:14px solid green;"">","null","","","","","","","","","",""
"","image-keyboard-response","193","76180","0.0-193.0","3LOTDFNYA8LVJLXMU4GOZULJ93BFWL","A6THOSGKI6HQC","3THR0FZ95PF7SK0MYRNAOUHTWA4OLV","","328","img/land5.png","75","328.7000002861023","2","1","2","2","1,0.7,0.7,0.7,1,0.7,0.7,0.7,1","1,0.7,0.7,0.7,1,0.7,0.7,0.7,1","","",""
"","html-keyboard-response","194","76481","0.0-194.0","3LOTDFNYA8LVJLXMU4GOZULJ93BFWL","A6THOSGKI6HQC","3THR0FZ95PF7SK0MYRNAOUHTWA4OLV","","null","<img src=""img/land5.png"" style=""width:200px; border:14px solid green;"">","null","","","","","","","","","",""
"","image-keyboard-response","195","76731","0.0-195.0","3LOTDFNYA8LVJLXMU4GOZULJ93BFWL","A6THOSGKI6HQC","3THR0FZ95PF7SK0MYRNAOUHTWA4OLV","","248.80000019073486","img/land4.png","74","249.59999990463257","1","1","1","2","1,0.7,0.7,0.7,1,0.7,0.7,0.7,1","1,0.7,0.7,0.7,1,0.7,0.7,0.7,1","","",""
"","html-keyboard-response","196","77033","0.0-196.0","3LOTDFNYA8LVJLXMU4GOZULJ93BFWL","A6THOSGKI6HQC","3THR0FZ95PF7SK0MYRNAOUHTWA4OLV","","null","<img src=""img/land4.png"" style=""width:200px; border:14px solid green;"">","null","","","","","","","","","",""
"","image-keyboard-response","197","77132","0.0-197.0","3LOTDFNYA8LVJLXMU4GOZULJ93BFWL","A6THOSGKI6HQC","3THR0FZ95PF7SK0MYRNAOUHTWA4OLV","","97.59999990463257","img/land4.png","75","98.2999997138977","2","1","1","2","1,0.7,0.7,0.7,1,0.7,0.7,0.7,1","1,0.7,0.7,0.7,1,0.7,0.7,0.7,1","","",""
"","html-keyboard-response","198","77434","0.0-198.0","3LOTDFNYA8LVJLXMU4GOZULJ93BFWL","A6THOSGKI6HQC","3THR0FZ95PF7SK0MYRNAOUHTWA4OLV","","null","<img src=""img/land4.png"" style=""width:200px; border:14px solid green;"">","null","","","","","","","","","",""
"","image-keyboard-response","199","77691","0.0-199.0","3LOTDFNYA8LVJLXMU4GOZULJ93BFWL","A6THOSGKI6HQC","3THR0FZ95PF7SK0MYRNAOUHTWA4OLV","","256.09999990463257","img/land4.png","74","257","1","1","1","2","1,0.7,0.7,0.7,1,0.7,0.7,0.7,1","1,0.7,0.7,0.7,1,0.7,0.7,0.7,1","","",""
"","html-keyboard-response","200","77994","0.0-200.0","3LOTDFNYA8LVJLXMU4GOZULJ93BFWL","A6THOSGKI6HQC","3THR0FZ95PF7SK0MYRNAOUHTWA4OLV","","null","<img src=""img/land4.png"" style=""width:200px; border:14px solid green;"">","null","","","","","","","","","",""
"","image-keyboard-response","201","78380","0.0-201.0","3LOTDFNYA8LVJLXMU4GOZULJ93BFWL","A6THOSGKI6HQC","3THR0FZ95PF7SK0MYRNAOUHTWA4OLV","","384.40000009536743","img/land6.png","75","385.40000009536743","2","0","3","2","1,0.7,0.7,0.7,1,0.7,0.7,0.7,1","1,0.7,0.7,0.7,1,0.7,0.7,0.7,1","","",""
"","html-keyboard-response","202","78682","0.0-202.0","3LOTDFNYA8LVJLXMU4GOZULJ93BFWL","A6THOSGKI6HQC","3THR0FZ95PF7SK0MYRNAOUHTWA4OLV","","null","<img src=""img/land6.png"" style=""width:200px;border:14px solid red;"">","null","","","","","","","","","",""
"","image-keyboard-response","203","78939","0.0-203.0","3LOTDFNYA8LVJLXMU4GOZULJ93BFWL","A6THOSGKI6HQC","3THR0FZ95PF7SK0MYRNAOUHTWA4OLV","","256.69999980926514","img/land5.png","74","257.6000003814697","1","1","2","2","1,0.7,0.7,0.7,1,0.7,0.7,0.7,1","1,0.7,0.7,0.7,1,0.7,0.7,0.7,1","","",""
"","html-keyboard-response","204","79242","0.0-204.0","3LOTDFNYA8LVJLXMU4GOZULJ93BFWL","A6THOSGKI6HQC","3THR0FZ95PF7SK0MYRNAOUHTWA4OLV","","null","<img src=""img/land5.png"" style=""width:200px; border:14px solid green;"">","null","","","","","","","","","",""
"","image-keyboard-response","205","79267","0.0-205.0","3LOTDFNYA8LVJLXMU4GOZULJ93BFWL","A6THOSGKI6HQC","3THR0FZ95PF7SK0MYRNAOUHTWA4OLV","","24","img/land4.png","75","24.90000009536743","2","1","1","2","1,0.7,0.7,0.7,1,0.7,0.7,0.7,1","1,0.7,0.7,0.7,1,0.7,0.7,0.7,1","","",""
"","html-keyboard-response","206","79568","0.0-206.0","3LOTDFNYA8LVJLXMU4GOZULJ93BFWL","A6THOSGKI6HQC","3THR0FZ95PF7SK0MYRNAOUHTWA4OLV","","null","<img src=""img/land4.png"" style=""width:200px; border:14px solid green;"">","null","","","","","","","","","",""
"","image-keyboard-response","207","79867","0.0-207.0","3LOTDFNYA8LVJLXMU4GOZULJ93BFWL","A6THOSGKI6HQC","3THR0FZ95PF7SK0MYRNAOUHTWA4OLV","","297.2000002861023","img/land6.png","75","298.09999990463257","2","1","3","2","1,0.7,0.7,0.7,1,0.7,0.7,0.7,1","1,0.7,0.7,0.7,1,0.7,0.7,0.7,1","","",""
"","html-keyboard-response","208","80169","0.0-208.0","3LOTDFNYA8LVJLXMU4GOZULJ93BFWL","A6THOSGKI6HQC","3THR0FZ95PF7SK0MYRNAOUHTWA4OLV","","null","<img src=""img/land6.png"" style=""width:200px; border:14px solid green;"">","null","","","","","","","","","",""
"","image-keyboard-response","209","80211","0.0-209.0","3LOTDFNYA8LVJLXMU4GOZULJ93BFWL","A6THOSGKI6HQC","3THR0FZ95PF7SK0MYRNAOUHTWA4OLV","","40.89999961853027","img/land4.png","74","41.59999990463257","1","1","1","2","1,0.7,0.7,0.7,1,0.7,0.7,0.7,1","1,0.7,0.7,0.7,1,0.7,0.7,0.7,1","","",""
"","html-keyboard-response","210","80513","0.0-210.0","3LOTDFNYA8LVJLXMU4GOZULJ93BFWL","A6THOSGKI6HQC","3THR0FZ95PF7SK0MYRNAOUHTWA4OLV","","null","<img src=""img/land4.png"" style=""width:200px; border:14px solid green;"">","null","","","","","","","","","",""
"","image-keyboard-response","211","80516","0.0-211.0","3LOTDFNYA8LVJLXMU4GOZULJ93BFWL","A6THOSGKI6HQC","3THR0FZ95PF7SK0MYRNAOUHTWA4OLV","","1.1999998092651367","img/land4.png","76","2.1999998092651367","3","1","1","2","1,0.7,0.7,0.7,1,0.7,0.7,0.7,1","1,0.7,0.7,0.7,1,0.7,0.7,0.7,1","","",""
"","html-keyboard-response","212","80818","0.0-212.0","3LOTDFNYA8LVJLXMU4GOZULJ93BFWL","A6THOSGKI6HQC","3THR0FZ95PF7SK0MYRNAOUHTWA4OLV","","null","<img src=""img/land4.png"" style=""width:200px; border:14px solid green;"">","null","","","","","","","","","",""
"","image-keyboard-response","213","81131","0.0-213.0","3LOTDFNYA8LVJLXMU4GOZULJ93BFWL","A6THOSGKI6HQC","3THR0FZ95PF7SK0MYRNAOUHTWA4OLV","","311.90000009536743","img/land6.png","75","312.90000009536743","2","0","3","2","1,0.7,0.7,0.7,1,0.7,0.7,0.7,1","1,0.7,0.7,0.7,1,0.7,0.7,0.7,1","","",""
"","html-keyboard-response","214","81434","0.0-214.0","3LOTDFNYA8LVJLXMU4GOZULJ93BFWL","A6THOSGKI6HQC","3THR0FZ95PF7SK0MYRNAOUHTWA4OLV","","null","<img src=""img/land6.png"" style=""width:200px;border:14px solid red;"">","null","","","","","","","","","",""
"","image-keyboard-response","215","81436","0.0-215.0","3LOTDFNYA8LVJLXMU4GOZULJ93BFWL","A6THOSGKI6HQC","3THR0FZ95PF7SK0MYRNAOUHTWA4OLV","","0.19999980926513672","img/land6.png","76","0.9000000953674316","3","1","3","2","1,0.7,0.7,0.7,1,0.7,0.7,0.7,1","1,0.7,0.7,0.7,1,0.7,0.7,0.7,1","","",""
"","html-keyboard-response","216","81738","0.0-216.0","3LOTDFNYA8LVJLXMU4GOZULJ93BFWL","A6THOSGKI6HQC","3THR0FZ95PF7SK0MYRNAOUHTWA4OLV","","null","<img src=""img/land6.png"" style=""width:200px; border:14px solid green;"">","null","","","","","","","","","",""
"","image-keyboard-response","217","81787","0.0-217.0","3LOTDFNYA8LVJLXMU4GOZULJ93BFWL","A6THOSGKI6HQC","3THR0FZ95PF7SK0MYRNAOUHTWA4OLV","","48.299999713897705","img/land5.png","74","49.200000286102295","1","1","2","2","1,0.7,0.7,0.7,1,0.7,0.7,0.7,1","1,0.7,0.7,0.7,1,0.7,0.7,0.7,1","","",""
"","html-keyboard-response","218","82089","0.0-218.0","3LOTDFNYA8LVJLXMU4GOZULJ93BFWL","A6THOSGKI6HQC","3THR0FZ95PF7SK0MYRNAOUHTWA4OLV","","null","<img src=""img/land5.png"" style=""width:200px; border:14px solid green;"">","null","","","","","","","","","",""
"","image-keyboard-response","219","82244","0.0-219.0","3LOTDFNYA8LVJLXMU4GOZULJ93BFWL","A6THOSGKI6HQC","3THR0FZ95PF7SK0MYRNAOUHTWA4OLV","","154","img/land5.png","76","154.80000019073486","3","1","2","2","1,0.7,0.7,0.7,1,0.7,0.7,0.7,1","1,0.7,0.7,0.7,1,0.7,0.7,0.7,1","","",""
"","html-keyboard-response","220","82546","0.0-220.0","3LOTDFNYA8LVJLXMU4GOZULJ93BFWL","A6THOSGKI6HQC","3THR0FZ95PF7SK0MYRNAOUHTWA4OLV","","null","<img src=""img/land5.png"" style=""width:200px; border:14px solid green;"">","null","","","","","","","","","",""
"","image-keyboard-response","221","82603","0.0-221.0","3LOTDFNYA8LVJLXMU4GOZULJ93BFWL","A6THOSGKI6HQC","3THR0FZ95PF7SK0MYRNAOUHTWA4OLV","","55.5","img/land5.png","75","56.40000009536743","2","1","2","2","1,0.7,0.7,0.7,1,0.7,0.7,0.7,1","1,0.7,0.7,0.7,1,0.7,0.7,0.7,1","","",""
"","html-keyboard-response","222","82905","0.0-222.0","3LOTDFNYA8LVJLXMU4GOZULJ93BFWL","A6THOSGKI6HQC","3THR0FZ95PF7SK0MYRNAOUHTWA4OLV","","null","<img src=""img/land5.png"" style=""width:200px; border:14px solid green;"">","null","","","","","","","","","",""
"","image-keyboard-response","223","82931","0.0-223.0","3LOTDFNYA8LVJLXMU4GOZULJ93BFWL","A6THOSGKI6HQC","3THR0FZ95PF7SK0MYRNAOUHTWA4OLV","","24.40000009536743","img/land5.png","74","25.399999618530273","1","1","2","2","1,0.7,0.7,0.7,1,0.7,0.7,0.7,1","1,0.7,0.7,0.7,1,0.7,0.7,0.7,1","","",""
"","html-keyboard-response","224","83233","0.0-224.0","3LOTDFNYA8LVJLXMU4GOZULJ93BFWL","A6THOSGKI6HQC","3THR0FZ95PF7SK0MYRNAOUHTWA4OLV","","null","<img src=""img/land5.png"" style=""width:200px; border:14px solid green;"">","null","","","","","","","","","",""
"","image-keyboard-response","225","83579","0.0-225.0","3LOTDFNYA8LVJLXMU4GOZULJ93BFWL","A6THOSGKI6HQC","3THR0FZ95PF7SK0MYRNAOUHTWA4OLV","","344.69999980926514","img/land6.png","74","345.3999996185303","1","1","3","2","1,0.7,0.7,0.7,1,0.7,0.7,0.7,1","1,0.7,0.7,0.7,1,0.7,0.7,0.7,1","","",""
"","html-keyboard-response","226","83881","0.0-226.0","3LOTDFNYA8LVJLXMU4GOZULJ93BFWL","A6THOSGKI6HQC","3THR0FZ95PF7SK0MYRNAOUHTWA4OLV","","null","<img src=""img/land6.png"" style=""width:200px; border:14px solid green;"">","null","","","","","","","","","",""
"","image-keyboard-response","227","83899","0.0-227.0","3LOTDFNYA8LVJLXMU4GOZULJ93BFWL","A6THOSGKI6HQC","3THR0FZ95PF7SK0MYRNAOUHTWA4OLV","","16.800000190734863","img/land5.png","76","17.59999990463257","3","1","2","2","1,0.7,0.7,0.7,1,0.7,0.7,0.7,1","1,0.7,0.7,0.7,1,0.7,0.7,0.7,1","","",""
"","html-keyboard-response","228","84201","0.0-228.0","3LOTDFNYA8LVJLXMU4GOZULJ93BFWL","A6THOSGKI6HQC","3THR0FZ95PF7SK0MYRNAOUHTWA4OLV","","null","<img src=""img/land5.png"" style=""width:200px; border:14px solid green;"">","null","","","","","","","","","",""
"","image-keyboard-response","229","84299","0.0-229.0","3LOTDFNYA8LVJLXMU4GOZULJ93BFWL","A6THOSGKI6HQC","3THR0FZ95PF7SK0MYRNAOUHTWA4OLV","","96.59999990463257","img/land4.png","75","97.40000009536743","2","0","1","2","1,0.7,0.7,0.7,1,0.7,0.7,0.7,1","1,0.7,0.7,0.7,1,0.7,0.7,0.7,1","","",""
"","html-keyboard-response","230","84601","0.0-230.0","3LOTDFNYA8LVJLXMU4GOZULJ93BFWL","A6THOSGKI6HQC","3THR0FZ95PF7SK0MYRNAOUHTWA4OLV","","null","<img src=""img/land4.png"" style=""width:200px;border:14px solid red;"">","null","","","","","","","","","",""
"","image-keyboard-response","231","84691","0.0-231.0","3LOTDFNYA8LVJLXMU4GOZULJ93BFWL","A6THOSGKI6HQC","3THR0FZ95PF7SK0MYRNAOUHTWA4OLV","","89.09999990463257","img/land4.png","76","89.90000009536743","3","1","1","2","1,0.7,0.7,0.7,1,0.7,0.7,0.7,1","1,0.7,0.7,0.7,1,0.7,0.7,0.7,1","","",""
"","html-keyboard-response","232","84994","0.0-232.0","3LOTDFNYA8LVJLXMU4GOZULJ93BFWL","A6THOSGKI6HQC","3THR0FZ95PF7SK0MYRNAOUHTWA4OLV","","null","<img src=""img/land4.png"" style=""width:200px; border:14px solid green;"">","null","","","","","","","","","",""
"","image-keyboard-response","233","85307","0.0-233.0","3LOTDFNYA8LVJLXMU4GOZULJ93BFWL","A6THOSGKI6HQC","3THR0FZ95PF7SK0MYRNAOUHTWA4OLV","","312.2999997138977","img/land6.png","75","313.1000003814697","2","1","3","2","1,0.7,0.7,0.7,1,0.7,0.7,0.7,1","1,0.7,0.7,0.7,1,0.7,0.7,0.7,1","","",""
"","html-keyboard-response","234","85610","0.0-234.0","3LOTDFNYA8LVJLXMU4GOZULJ93BFWL","A6THOSGKI6HQC","3THR0FZ95PF7SK0MYRNAOUHTWA4OLV","","null","<img src=""img/land6.png"" style=""width:200px; border:14px solid green;"">","null","","","","","","","","","",""
"","image-keyboard-response","235","85875","0.0-235.0","3LOTDFNYA8LVJLXMU4GOZULJ93BFWL","A6THOSGKI6HQC","3THR0FZ95PF7SK0MYRNAOUHTWA4OLV","","264.90000009536743","img/land6.png","74","266","1","0","3","2","1,0.7,0.7,0.7,1,0.7,0.7,0.7,1","1,0.7,0.7,0.7,1,0.7,0.7,0.7,1","","",""
"","html-keyboard-response","236","86178","0.0-236.0","3LOTDFNYA8LVJLXMU4GOZULJ93BFWL","A6THOSGKI6HQC","3THR0FZ95PF7SK0MYRNAOUHTWA4OLV","","null","<img src=""img/land6.png"" style=""width:200px;border:14px solid red;"">","null","","","","","","","","","",""
"","image-keyboard-response","237","86267","0.0-237.0","3LOTDFNYA8LVJLXMU4GOZULJ93BFWL","A6THOSGKI6HQC","3THR0FZ95PF7SK0MYRNAOUHTWA4OLV","","87.19999980926514","img/land6.png","75","88.09999990463257","2","1","3","2","1,0.7,0.7,0.7,1,0.7,0.7,0.7,1","1,0.7,0.7,0.7,1,0.7,0.7,0.7,1","","",""
"","html-keyboard-response","238","86569","0.0-238.0","3LOTDFNYA8LVJLXMU4GOZULJ93BFWL","A6THOSGKI6HQC","3THR0FZ95PF7SK0MYRNAOUHTWA4OLV","","null","<img src=""img/land6.png"" style=""width:200px; border:14px solid green;"">","null","","","","","","","","","",""
"","image-keyboard-response","239","86867","0.0-239.0","3LOTDFNYA8LVJLXMU4GOZULJ93BFWL","A6THOSGKI6HQC","3THR0FZ95PF7SK0MYRNAOUHTWA4OLV","","296.5","img/land4.png","75","297.30000019073486","2","0","1","2","1,0.7,0.7,0.7,1,0.7,0.7,0.7,1","1,0.7,0.7,0.7,1,0.7,0.7,0.7,1","","",""
"","html-keyboard-response","240","87169","0.0-240.0","3LOTDFNYA8LVJLXMU4GOZULJ93BFWL","A6THOSGKI6HQC","3THR0FZ95PF7SK0MYRNAOUHTWA4OLV","","null","<img src=""img/land4.png"" style=""width:200px;border:14px solid red;"">","null","","","","","","","","","",""
"","image-keyboard-response","241","87524","0.0-241.0","3LOTDFNYA8LVJLXMU4GOZULJ93BFWL","A6THOSGKI6HQC","3THR0FZ95PF7SK0MYRNAOUHTWA4OLV","","353.40000009536743","img/land5.png","74","354.5","1","1","2","2","1,0.7,0.7,0.7,1,0.7,0.7,0.7,1","1,0.7,0.7,0.7,1,0.7,0.7,0.7,1","","",""
"","html-keyboard-response","242","87826","0.0-242.0","3LOTDFNYA8LVJLXMU4GOZULJ93BFWL","A6THOSGKI6HQC","3THR0FZ95PF7SK0MYRNAOUHTWA4OLV","","null","<img src=""img/land5.png"" style=""width:200px; border:14px solid green;"">","null","","","","","","","","","",""
"","image-keyboard-response","243","87835","0.0-243.0","3LOTDFNYA8LVJLXMU4GOZULJ93BFWL","A6THOSGKI6HQC","3THR0FZ95PF7SK0MYRNAOUHTWA4OLV","","8.199999809265137","img/land6.png","76","9","3","1","3","2","1,0.7,0.7,0.7,1,0.7,0.7,0.7,1","1,0.7,0.7,0.7,1,0.7,0.7,0.7,1","","",""
"","html-keyboard-response","244","88137","0.0-244.0","3LOTDFNYA8LVJLXMU4GOZULJ93BFWL","A6THOSGKI6HQC","3THR0FZ95PF7SK0MYRNAOUHTWA4OLV","","null","<img src=""img/land6.png"" style=""width:200px; border:14px solid green;"">","null","","","","","","","","","",""
"","image-keyboard-response","245","88491","0.0-245.0","3LOTDFNYA8LVJLXMU4GOZULJ93BFWL","A6THOSGKI6HQC","3THR0FZ95PF7SK0MYRNAOUHTWA4OLV","","353.3999996185303","img/land6.png","76","354.30000019073486","3","1","3","2","1,0.7,0.7,0.7,1,0.7,0.7,0.7,1","1,0.7,0.7,0.7,1,0.7,0.7,0.7,1","","",""
"","html-keyboard-response","246","88793","0.0-246.0","3LOTDFNYA8LVJLXMU4GOZULJ93BFWL","A6THOSGKI6HQC","3THR0FZ95PF7SK0MYRNAOUHTWA4OLV","","null","<img src=""img/land6.png"" style=""width:200px; border:14px solid green;"">","null","","","","","","","","","",""
"","image-keyboard-response","247","88931","0.0-247.0","3LOTDFNYA8LVJLXMU4GOZULJ93BFWL","A6THOSGKI6HQC","3THR0FZ95PF7SK0MYRNAOUHTWA4OLV","","136.59999990463257","img/land6.png","74","137.40000009536743","1","1","3","2","1,0.7,0.7,0.7,1,0.7,0.7,0.7,1","1,0.7,0.7,0.7,1,0.7,0.7,0.7,1","","",""
"","html-keyboard-response","248","89233","0.0-248.0","3LOTDFNYA8LVJLXMU4GOZULJ93BFWL","A6THOSGKI6HQC","3THR0FZ95PF7SK0MYRNAOUHTWA4OLV","","null","<img src=""img/land6.png"" style=""width:200px; border:14px solid green;"">","null","","","","","","","","","",""
"","image-keyboard-response","249","89235","0.0-249.0","3LOTDFNYA8LVJLXMU4GOZULJ93BFWL","A6THOSGKI6HQC","3THR0FZ95PF7SK0MYRNAOUHTWA4OLV","","1.0999999046325684","img/land6.png","75","1.8999996185302734","2","1","3","2","1,0.7,0.7,0.7,1,0.7,0.7,0.7,1","1,0.7,0.7,0.7,1,0.7,0.7,0.7,1","","",""
"","html-keyboard-response","250","89538","0.0-250.0","3LOTDFNYA8LVJLXMU4GOZULJ93BFWL","A6THOSGKI6HQC","3THR0FZ95PF7SK0MYRNAOUHTWA4OLV","","null","<img src=""img/land6.png"" style=""width:200px; border:14px solid green;"">","null","","","","","","","","","",""
"","image-keyboard-response","251","89547","0.0-251.0","3LOTDFNYA8LVJLXMU4GOZULJ93BFWL","A6THOSGKI6HQC","3THR0FZ95PF7SK0MYRNAOUHTWA4OLV","","7.199999809265137","img/land5.png","76","8.099999904632568","3","1","2","2","1,0.7,0.7,0.7,1,0.7,0.7,0.7,1","1,0.7,0.7,0.7,1,0.7,0.7,0.7,1","","",""
"","html-keyboard-response","252","89849","0.0-252.0","3LOTDFNYA8LVJLXMU4GOZULJ93BFWL","A6THOSGKI6HQC","3THR0FZ95PF7SK0MYRNAOUHTWA4OLV","","null","<img src=""img/land5.png"" style=""width:200px; border:14px solid green;"">","null","","","","","","","","","",""
"","image-keyboard-response","253","89860","0.0-253.0","3LOTDFNYA8LVJLXMU4GOZULJ93BFWL","A6THOSGKI6HQC","3THR0FZ95PF7SK0MYRNAOUHTWA4OLV","","9.399999618530273","img/land5.png","74","10.400000095367432","1","1","2","2","1,0.7,0.7,0.7,1,0.7,0.7,0.7,1","1,0.7,0.7,0.7,1,0.7,0.7,0.7,1","","",""
"","html-keyboard-response","254","90161","0.0-254.0","3LOTDFNYA8LVJLXMU4GOZULJ93BFWL","A6THOSGKI6HQC","3THR0FZ95PF7SK0MYRNAOUHTWA4OLV","","null","<img src=""img/land5.png"" style=""width:200px; border:14px solid green;"">","null","","","","","","","","","",""
"","image-keyboard-response","255","90379","0.0-255.0","3LOTDFNYA8LVJLXMU4GOZULJ93BFWL","A6THOSGKI6HQC","3THR0FZ95PF7SK0MYRNAOUHTWA4OLV","","216.60000038146973","img/land6.png","76","217.59999990463257","3","1","3","2","1,0.7,0.7,0.7,1,0.7,0.7,0.7,1","1,0.7,0.7,0.7,1,0.7,0.7,0.7,1","","",""
"","html-keyboard-response","256","90681","0.0-256.0","3LOTDFNYA8LVJLXMU4GOZULJ93BFWL","A6THOSGKI6HQC","3THR0FZ95PF7SK0MYRNAOUHTWA4OLV","","null","<img src=""img/land6.png"" style=""width:200px; border:14px solid green;"">","null","","","","","","","","","",""
"","image-keyboard-response","257","90771","0.0-257.0","3LOTDFNYA8LVJLXMU4GOZULJ93BFWL","A6THOSGKI6HQC","3THR0FZ95PF7SK0MYRNAOUHTWA4OLV","","89.5","img/land5.png","75","90.40000009536743","2","1","2","2","1,0.7,0.7,0.7,1,0.7,0.7,0.7,1","1,0.7,0.7,0.7,1,0.7,0.7,0.7,1","","",""
"","html-keyboard-response","258","91074","0.0-258.0","3LOTDFNYA8LVJLXMU4GOZULJ93BFWL","A6THOSGKI6HQC","3THR0FZ95PF7SK0MYRNAOUHTWA4OLV","","null","<img src=""img/land5.png"" style=""width:200px; border:14px solid green;"">","null","","","","","","","","","",""
"","image-keyboard-response","259","91107","0.0-259.0","3LOTDFNYA8LVJLXMU4GOZULJ93BFWL","A6THOSGKI6HQC","3THR0FZ95PF7SK0MYRNAOUHTWA4OLV","","31.799999713897705","img/land4.png","74","32.59999990463257","1","1","1","2","1,0.7,0.7,0.7,1,0.7,0.7,0.7,1","1,0.7,0.7,0.7,1,0.7,0.7,0.7,1","","",""
"","html-keyboard-response","260","91409","0.0-260.0","3LOTDFNYA8LVJLXMU4GOZULJ93BFWL","A6THOSGKI6HQC","3THR0FZ95PF7SK0MYRNAOUHTWA4OLV","","null","<img src=""img/land4.png"" style=""width:200px; border:14px solid green;"">","null","","","","","","","","","",""
"","image-keyboard-response","261","91459","0.0-261.0","3LOTDFNYA8LVJLXMU4GOZULJ93BFWL","A6THOSGKI6HQC","3THR0FZ95PF7SK0MYRNAOUHTWA4OLV","","49.30000019073486","img/land5.png","76","50.10000038146973","3","0","2","2","1,0.7,0.7,0.7,1,0.7,0.7,0.7,1","1,0.7,0.7,0.7,1,0.7,0.7,0.7,1","","",""
"","html-keyboard-response","262","91762","0.0-262.0","3LOTDFNYA8LVJLXMU4GOZULJ93BFWL","A6THOSGKI6HQC","3THR0FZ95PF7SK0MYRNAOUHTWA4OLV","","null","<img src=""img/land5.png"" style=""width:200px;border:14px solid red;"">","null","","","","","","","","","",""
"","image-keyboard-response","263","91795","0.0-263.0","3LOTDFNYA8LVJLXMU4GOZULJ93BFWL","A6THOSGKI6HQC","3THR0FZ95PF7SK0MYRNAOUHTWA4OLV","","32.200000286102295","img/land4.png","74","33.09999990463257","1","1","1","2","1,0.7,0.7,0.7,1,0.7,0.7,0.7,1","1,0.7,0.7,0.7,1,0.7,0.7,0.7,1","","",""
"","html-keyboard-response","264","92097","0.0-264.0","3LOTDFNYA8LVJLXMU4GOZULJ93BFWL","A6THOSGKI6HQC","3THR0FZ95PF7SK0MYRNAOUHTWA4OLV","","null","<img src=""img/land4.png"" style=""width:200px; border:14px solid green;"">","null","","","","","","","","","",""
"","image-keyboard-response","265","92139","0.0-265.0","3LOTDFNYA8LVJLXMU4GOZULJ93BFWL","A6THOSGKI6HQC","3THR0FZ95PF7SK0MYRNAOUHTWA4OLV","","40.40000009536743","img/land5.png","75","41.299999713897705","2","1","2","2","1,0.7,0.7,0.7,1,0.7,0.7,0.7,1","1,0.7,0.7,0.7,1,0.7,0.7,0.7,1","","",""
"","html-keyboard-response","266","92441","0.0-266.0","3LOTDFNYA8LVJLXMU4GOZULJ93BFWL","A6THOSGKI6HQC","3THR0FZ95PF7SK0MYRNAOUHTWA4OLV","","null","<img src=""img/land5.png"" style=""width:200px; border:14px solid green;"">","null","","","","","","","","","",""
"","image-keyboard-response","267","92475","0.0-267.0","3LOTDFNYA8LVJLXMU4GOZULJ93BFWL","A6THOSGKI6HQC","3THR0FZ95PF7SK0MYRNAOUHTWA4OLV","","32.299999713897705","img/land4.png","76","33.09999990463257","3","1","1","2","1,0.7,0.7,0.7,1,0.7,0.7,0.7,1","1,0.7,0.7,0.7,1,0.7,0.7,0.7,1","","",""
"","html-keyboard-response","268","92777","0.0-268.0","3LOTDFNYA8LVJLXMU4GOZULJ93BFWL","A6THOSGKI6HQC","3THR0FZ95PF7SK0MYRNAOUHTWA4OLV","","null","<img src=""img/land4.png"" style=""width:200px; border:14px solid green;"">","null","","","","","","","","","",""
"","image-keyboard-response","269","93163","0.0-269.0","3LOTDFNYA8LVJLXMU4GOZULJ93BFWL","A6THOSGKI6HQC","3THR0FZ95PF7SK0MYRNAOUHTWA4OLV","","384.8999996185303","img/land5.png","75","385.7000002861023","2","1","2","2","1,0.7,0.7,0.7,1,0.7,0.7,0.7,1","1,0.7,0.7,0.7,1,0.7,0.7,0.7,1","","",""
"","html-keyboard-response","270","93465","0.0-270.0","3LOTDFNYA8LVJLXMU4GOZULJ93BFWL","A6THOSGKI6HQC","3THR0FZ95PF7SK0MYRNAOUHTWA4OLV","","null","<img src=""img/land5.png"" style=""width:200px; border:14px solid green;"">","null","","","","","","","","","",""
"","image-keyboard-response","271","93763","0.0-271.0","3LOTDFNYA8LVJLXMU4GOZULJ93BFWL","A6THOSGKI6HQC","3THR0FZ95PF7SK0MYRNAOUHTWA4OLV","","296.90000009536743","img/land4.png","74","297.80000019073486","1","1","1","2","1,0.7,0.7,0.7,1,0.7,0.7,0.7,1","1,0.7,0.7,0.7,1,0.7,0.7,0.7,1","","",""
"","html-keyboard-response","272","94066","0.0-272.0","3LOTDFNYA8LVJLXMU4GOZULJ93BFWL","A6THOSGKI6HQC","3THR0FZ95PF7SK0MYRNAOUHTWA4OLV","","null","<img src=""img/land4.png"" style=""width:200px; border:14px solid green;"">","null","","","","","","","","","",""
"","image-keyboard-response","273","94291","0.0-273.0","3LOTDFNYA8LVJLXMU4GOZULJ93BFWL","A6THOSGKI6HQC","3THR0FZ95PF7SK0MYRNAOUHTWA4OLV","","223.7999997138977","img/land4.png","76","224.5","3","1","1","2","1,0.7,0.7,0.7,1,0.7,0.7,0.7,1","1,0.7,0.7,0.7,1,0.7,0.7,0.7,1","","",""
"","html-keyboard-response","274","94593","0.0-274.0","3LOTDFNYA8LVJLXMU4GOZULJ93BFWL","A6THOSGKI6HQC","3THR0FZ95PF7SK0MYRNAOUHTWA4OLV","","null","<img src=""img/land4.png"" style=""width:200px; border:14px solid green;"">","null","","","","","","","","","",""
"","image-keyboard-response","275","94595","0.0-275.0","3LOTDFNYA8LVJLXMU4GOZULJ93BFWL","A6THOSGKI6HQC","3THR0FZ95PF7SK0MYRNAOUHTWA4OLV","","1.1999998092651367","img/land6.png","75","2","2","1","3","2","1,0.7,0.7,0.7,1,0.7,0.7,0.7,1","1,0.7,0.7,0.7,1,0.7,0.7,0.7,1","","",""
"","html-keyboard-response","276","94897","0.0-276.0","3LOTDFNYA8LVJLXMU4GOZULJ93BFWL","A6THOSGKI6HQC","3THR0FZ95PF7SK0MYRNAOUHTWA4OLV","","null","<img src=""img/land6.png"" style=""width:200px; border:14px solid green;"">","null","","","","","","","","","",""
"","image-keyboard-response","277","94970","0.0-277.0","3LOTDFNYA8LVJLXMU4GOZULJ93BFWL","A6THOSGKI6HQC","3THR0FZ95PF7SK0MYRNAOUHTWA4OLV","","73.09999990463257","img/land4.png","74","73.80000019073486","1","1","1","2","1,0.7,0.7,0.7,1,0.7,0.7,0.7,1","1,0.7,0.7,0.7,1,0.7,0.7,0.7,1","","",""
"","html-keyboard-response","278","95273","0.0-278.0","3LOTDFNYA8LVJLXMU4GOZULJ93BFWL","A6THOSGKI6HQC","3THR0FZ95PF7SK0MYRNAOUHTWA4OLV","","null","<img src=""img/land4.png"" style=""width:200px; border:14px solid green;"">","null","","","","","","","","","",""
"","image-keyboard-response","279","95276","0.0-279.0","3LOTDFNYA8LVJLXMU4GOZULJ93BFWL","A6THOSGKI6HQC","3THR0FZ95PF7SK0MYRNAOUHTWA4OLV","","1.0999999046325684","img/land6.png","76","2","3","1","3","2","1,0.7,0.7,0.7,1,0.7,0.7,0.7,1","1,0.7,0.7,0.7,1,0.7,0.7,0.7,1","","",""
"","html-keyboard-response","280","95578","0.0-280.0","3LOTDFNYA8LVJLXMU4GOZULJ93BFWL","A6THOSGKI6HQC","3THR0FZ95PF7SK0MYRNAOUHTWA4OLV","","null","<img src=""img/land6.png"" style=""width:200px; border:14px solid green;"">","null","","","","","","","","","",""
"","image-keyboard-response","281","95674","0.0-281.0","3LOTDFNYA8LVJLXMU4GOZULJ93BFWL","A6THOSGKI6HQC","3THR0FZ95PF7SK0MYRNAOUHTWA4OLV","","95.19999980926514","img/land4.png","75","95.90000009536743","2","1","1","2","1,0.7,0.7,0.7,1,0.7,0.7,0.7,1","1,0.7,0.7,0.7,1,0.7,0.7,0.7,1","","",""
"","html-keyboard-response","282","95977","0.0-282.0","3LOTDFNYA8LVJLXMU4GOZULJ93BFWL","A6THOSGKI6HQC","3THR0FZ95PF7SK0MYRNAOUHTWA4OLV","","null","<img src=""img/land4.png"" style=""width:200px; border:14px solid green;"">","null","","","","","","","","","",""
"","image-keyboard-response","283","96083","0.0-283.0","3LOTDFNYA8LVJLXMU4GOZULJ93BFWL","A6THOSGKI6HQC","3THR0FZ95PF7SK0MYRNAOUHTWA4OLV","","104.59999990463257","img/land5.png","76","105.40000009536743","3","0","2","2","1,0.7,0.7,0.7,1,0.7,0.7,0.7,1","1,0.7,0.7,0.7,1,0.7,0.7,0.7,1","","",""
"","html-keyboard-response","284","96385","0.0-284.0","3LOTDFNYA8LVJLXMU4GOZULJ93BFWL","A6THOSGKI6HQC","3THR0FZ95PF7SK0MYRNAOUHTWA4OLV","","null","<img src=""img/land5.png"" style=""width:200px;border:14px solid red;"">","null","","","","","","","","","",""
"","image-keyboard-response","285","96403","0.0-285.0","3LOTDFNYA8LVJLXMU4GOZULJ93BFWL","A6THOSGKI6HQC","3THR0FZ95PF7SK0MYRNAOUHTWA4OLV","","16.600000381469727","img/land4.png","74","17.40000009536743","1","1","1","2","1,0.7,0.7,0.7,1,0.7,0.7,0.7,1","1,0.7,0.7,0.7,1,0.7,0.7,0.7,1","","",""
"","html-keyboard-response","286","96704","0.0-286.0","3LOTDFNYA8LVJLXMU4GOZULJ93BFWL","A6THOSGKI6HQC","3THR0FZ95PF7SK0MYRNAOUHTWA4OLV","","null","<img src=""img/land4.png"" style=""width:200px; border:14px solid green;"">","null","","","","","","","","","",""
"","image-keyboard-response","287","96859","0.0-287.0","3LOTDFNYA8LVJLXMU4GOZULJ93BFWL","A6THOSGKI6HQC","3THR0FZ95PF7SK0MYRNAOUHTWA4OLV","","153.69999980926514","img/land5.png","75","154.7000002861023","2","1","2","2","1,0.7,0.7,0.7,1,0.7,0.7,0.7,1","1,0.7,0.7,0.7,1,0.7,0.7,0.7,1","","",""
"","html-keyboard-response","288","97162","0.0-288.0","3LOTDFNYA8LVJLXMU4GOZULJ93BFWL","A6THOSGKI6HQC","3THR0FZ95PF7SK0MYRNAOUHTWA4OLV","","null","<img src=""img/land5.png"" style=""width:200px; border:14px solid green;"">","null","","","","","","","","","",""
"","image-keyboard-response","289","97210","0.0-289.0","3LOTDFNYA8LVJLXMU4GOZULJ93BFWL","A6THOSGKI6HQC","3THR0FZ95PF7SK0MYRNAOUHTWA4OLV","","47.799999713897705","img/land5.png","76","48.69999980926514","3","1","2","2","1,0.7,0.7,0.7,1,0.7,0.7,0.7,1","1,0.7,0.7,0.7,1,0.7,0.7,0.7,1","","",""
"","html-keyboard-response","290","97513","0.0-290.0","3LOTDFNYA8LVJLXMU4GOZULJ93BFWL","A6THOSGKI6HQC","3THR0FZ95PF7SK0MYRNAOUHTWA4OLV","","null","<img src=""img/land5.png"" style=""width:200px; border:14px solid green;"">","null","","","","","","","","","",""
"","image-keyboard-response","291","97867","0.0-291.0","3LOTDFNYA8LVJLXMU4GOZULJ93BFWL","A6THOSGKI6HQC","3THR0FZ95PF7SK0MYRNAOUHTWA4OLV","","352.7999997138977","img/land6.png","75","353.80000019073486","2","0","3","2","1,0.7,0.7,0.7,1,0.7,0.7,0.7,1","1,0.7,0.7,0.7,1,0.7,0.7,0.7,1","","",""
"","html-keyboard-response","292","98169","0.0-292.0","3LOTDFNYA8LVJLXMU4GOZULJ93BFWL","A6THOSGKI6HQC","3THR0FZ95PF7SK0MYRNAOUHTWA4OLV","","null","<img src=""img/land6.png"" style=""width:200px;border:14px solid red;"">","null","","","","","","","","","",""
"","image-keyboard-response","293","98171","0.0-293.0","3LOTDFNYA8LVJLXMU4GOZULJ93BFWL","A6THOSGKI6HQC","3THR0FZ95PF7SK0MYRNAOUHTWA4OLV","","1.0999999046325684","img/land6.png","76","1.8000001907348633","3","1","3","2","1,0.7,0.7,0.7,1,0.7,0.7,0.7,1","1,0.7,0.7,0.7,1,0.7,0.7,0.7,1","","",""
"","html-keyboard-response","294","98473","0.0-294.0","3LOTDFNYA8LVJLXMU4GOZULJ93BFWL","A6THOSGKI6HQC","3THR0FZ95PF7SK0MYRNAOUHTWA4OLV","","null","<img src=""img/land6.png"" style=""width:200px; border:14px solid green;"">","null","","","","","","","","","",""
"","image-keyboard-response","295","98947","0.0-295.0","3LOTDFNYA8LVJLXMU4GOZULJ93BFWL","A6THOSGKI6HQC","3THR0FZ95PF7SK0MYRNAOUHTWA4OLV","","472.59999990463257","img/land6.png","76","473.2999997138977","3","1","3","2","1,0.7,0.7,0.7,1,0.7,0.7,0.7,1","1,0.7,0.7,0.7,1,0.7,0.7,0.7,1","","",""
"","html-keyboard-response","296","99248","0.0-296.0","3LOTDFNYA8LVJLXMU4GOZULJ93BFWL","A6THOSGKI6HQC","3THR0FZ95PF7SK0MYRNAOUHTWA4OLV","","null","<img src=""img/land6.png"" style=""width:200px; border:14px solid green;"">","null","","","","","","","","","",""
"","image-keyboard-response","297","99595","0.0-297.0","3LOTDFNYA8LVJLXMU4GOZULJ93BFWL","A6THOSGKI6HQC","3THR0FZ95PF7SK0MYRNAOUHTWA4OLV","","345.7999997138977","img/land4.png","75","346.6000003814697","2","1","1","2","1,0.7,0.7,0.7,1,0.7,0.7,0.7,1","1,0.7,0.7,0.7,1,0.7,0.7,0.7,1","","",""
"","html-keyboard-response","298","99897","0.0-298.0","3LOTDFNYA8LVJLXMU4GOZULJ93BFWL","A6THOSGKI6HQC","3THR0FZ95PF7SK0MYRNAOUHTWA4OLV","","null","<img src=""img/land4.png"" style=""width:200px; border:14px solid green;"">","null","","","","","","","","","",""
"","image-keyboard-response","299","99939","0.0-299.0","3LOTDFNYA8LVJLXMU4GOZULJ93BFWL","A6THOSGKI6HQC","3THR0FZ95PF7SK0MYRNAOUHTWA4OLV","","41.30000019073486","img/land6.png","76","42.09999990463257","3","1","3","2","1,0.7,0.7,0.7,1,0.7,0.7,0.7,1","1,0.7,0.7,0.7,1,0.7,0.7,0.7,1","","",""
"","html-keyboard-response","300","100241","0.0-300.0","3LOTDFNYA8LVJLXMU4GOZULJ93BFWL","A6THOSGKI6HQC","3THR0FZ95PF7SK0MYRNAOUHTWA4OLV","","null","<img src=""img/land6.png"" style=""width:200px; border:14px solid green;"">","null","","","","","","","","","",""
"","image-keyboard-response","301","100515","0.0-301.0","3LOTDFNYA8LVJLXMU4GOZULJ93BFWL","A6THOSGKI6HQC","3THR0FZ95PF7SK0MYRNAOUHTWA4OLV","","272.90000009536743","img/land4.png","76","273.90000009536743","3","1","1","2","1,0.7,0.7,0.7,1,0.7,0.7,0.7,1","1,0.7,0.7,0.7,1,0.7,0.7,0.7,1","","",""
"","html-keyboard-response","302","100818","0.0-302.0","3LOTDFNYA8LVJLXMU4GOZULJ93BFWL","A6THOSGKI6HQC","3THR0FZ95PF7SK0MYRNAOUHTWA4OLV","","null","<img src=""img/land4.png"" style=""width:200px; border:14px solid green;"">","null","","","","","","","","","",""
"","image-keyboard-response","303","100843","0.0-303.0","3LOTDFNYA8LVJLXMU4GOZULJ93BFWL","A6THOSGKI6HQC","3THR0FZ95PF7SK0MYRNAOUHTWA4OLV","","23.5","img/land6.png","75","24.200000286102295","2","1","3","2","1,0.7,0.7,0.7,1,0.7,0.7,0.7,1","1,0.7,0.7,0.7,1,0.7,0.7,0.7,1","","",""
"","html-keyboard-response","304","101145","0.0-304.0","3LOTDFNYA8LVJLXMU4GOZULJ93BFWL","A6THOSGKI6HQC","3THR0FZ95PF7SK0MYRNAOUHTWA4OLV","","null","<img src=""img/land6.png"" style=""width:200px; border:14px solid green;"">","null","","","","","","","","","",""
"","image-keyboard-response","305","101219","0.0-305.0","3LOTDFNYA8LVJLXMU4GOZULJ93BFWL","A6THOSGKI6HQC","3THR0FZ95PF7SK0MYRNAOUHTWA4OLV","","73.10000038146973","img/land4.png","76","74","3","1","1","2","1,0.7,0.7,0.7,1,0.7,0.7,0.7,1","1,0.7,0.7,0.7,1,0.7,0.7,0.7,1","","",""
"","html-keyboard-response","306","101522","0.0-306.0","3LOTDFNYA8LVJLXMU4GOZULJ93BFWL","A6THOSGKI6HQC","3THR0FZ95PF7SK0MYRNAOUHTWA4OLV","","null","<img src=""img/land4.png"" style=""width:200px; border:14px solid green;"">","null","","","","","","","","","",""
"","image-keyboard-response","307","101859","0.0-307.0","3LOTDFNYA8LVJLXMU4GOZULJ93BFWL","A6THOSGKI6HQC","3THR0FZ95PF7SK0MYRNAOUHTWA4OLV","","336.30000019073486","img/land5.png","75","337.19999980926514","2","1","2","2","1,0.7,0.7,0.7,1,0.7,0.7,0.7,1","1,0.7,0.7,0.7,1,0.7,0.7,0.7,1","","",""
"","html-keyboard-response","308","102162","0.0-308.0","3LOTDFNYA8LVJLXMU4GOZULJ93BFWL","A6THOSGKI6HQC","3THR0FZ95PF7SK0MYRNAOUHTWA4OLV","","null","<img src=""img/land5.png"" style=""width:200px; border:14px solid green;"">","null","","","","","","","","","",""
"","image-keyboard-response","309","102163","0.0-309.0","3LOTDFNYA8LVJLXMU4GOZULJ93BFWL","A6THOSGKI6HQC","3THR0FZ95PF7SK0MYRNAOUHTWA4OLV","","0.09999990463256836","img/land5.png","76","0.9000000953674316","3","0","2","2","1,0.7,0.7,0.7,1,0.7,0.7,0.7,1","1,0.7,0.7,0.7,1,0.7,0.7,0.7,1","","",""
"","html-keyboard-response","310","102464","0.0-310.0","3LOTDFNYA8LVJLXMU4GOZULJ93BFWL","A6THOSGKI6HQC","3THR0FZ95PF7SK0MYRNAOUHTWA4OLV","","null","<img src=""img/land5.png"" style=""width:200px;border:14px solid red;"">","null","","","","","","","","","",""
"","image-keyboard-response","311","102891","0.0-311.0","3LOTDFNYA8LVJLXMU4GOZULJ93BFWL","A6THOSGKI6HQC","3THR0FZ95PF7SK0MYRNAOUHTWA4OLV","","425.2999997138977","img/land6.png","76","426.30000019073486","3","1","3","2","1,0.7,0.7,0.7,1,0.7,0.7,0.7,1","1,0.7,0.7,0.7,1,0.7,0.7,0.7,1","","",""
"","html-keyboard-response","312","103193","0.0-312.0","3LOTDFNYA8LVJLXMU4GOZULJ93BFWL","A6THOSGKI6HQC","3THR0FZ95PF7SK0MYRNAOUHTWA4OLV","","null","<img src=""img/land6.png"" style=""width:200px; border:14px solid green;"">","null","","","","","","","","","",""
"","image-keyboard-response","313","103339","0.0-313.0","3LOTDFNYA8LVJLXMU4GOZULJ93BFWL","A6THOSGKI6HQC","3THR0FZ95PF7SK0MYRNAOUHTWA4OLV","","145.09999990463257","img/land4.png","74","146","1","1","1","2","1,0.7,0.7,0.7,1,0.7,0.7,0.7,1","1,0.7,0.7,0.7,1,0.7,0.7,0.7,1","","",""
"","html-keyboard-response","314","103642","0.0-314.0","3LOTDFNYA8LVJLXMU4GOZULJ93BFWL","A6THOSGKI6HQC","3THR0FZ95PF7SK0MYRNAOUHTWA4OLV","","null","<img src=""img/land4.png"" style=""width:200px; border:14px solid green;"">","null","","","","","","","","","",""
"","image-keyboard-response","315","103746","0.0-315.0","3LOTDFNYA8LVJLXMU4GOZULJ93BFWL","A6THOSGKI6HQC","3THR0FZ95PF7SK0MYRNAOUHTWA4OLV","","103.5","img/land6.png","74","104.39999961853027","1","0","3","2","1,0.7,0.7,0.7,1,0.7,0.7,0.7,1","1,0.7,0.7,0.7,1,0.7,0.7,0.7,1","","",""
"","html-keyboard-response","316","104049","0.0-316.0","3LOTDFNYA8LVJLXMU4GOZULJ93BFWL","A6THOSGKI6HQC","3THR0FZ95PF7SK0MYRNAOUHTWA4OLV","","null","<img src=""img/land6.png"" style=""width:200px;border:14px solid red;"">","null","","","","","","","","","",""
"","image-keyboard-response","317","104066","0.0-317.0","3LOTDFNYA8LVJLXMU4GOZULJ93BFWL","A6THOSGKI6HQC","3THR0FZ95PF7SK0MYRNAOUHTWA4OLV","","16.5","img/land5.png","75","17.399999618530273","2","1","2","2","1,0.7,0.7,0.7,1,0.7,0.7,0.7,1","1,0.7,0.7,0.7,1,0.7,0.7,0.7,1","","",""
"","html-keyboard-response","318","104369","0.0-318.0","3LOTDFNYA8LVJLXMU4GOZULJ93BFWL","A6THOSGKI6HQC","3THR0FZ95PF7SK0MYRNAOUHTWA4OLV","","null","<img src=""img/land5.png"" style=""width:200px; border:14px solid green;"">","null","","","","","","","","","",""
"","image-keyboard-response","319","104403","0.0-319.0","3LOTDFNYA8LVJLXMU4GOZULJ93BFWL","A6THOSGKI6HQC","3THR0FZ95PF7SK0MYRNAOUHTWA4OLV","","33.5","img/land5.png","76","34.40000009536743","3","1","2","2","1,0.7,0.7,0.7,1,0.7,0.7,0.7,1","1,0.7,0.7,0.7,1,0.7,0.7,0.7,1","","",""
"","html-keyboard-response","320","104704","0.0-320.0","3LOTDFNYA8LVJLXMU4GOZULJ93BFWL","A6THOSGKI6HQC","3THR0FZ95PF7SK0MYRNAOUHTWA4OLV","","null","<img src=""img/land5.png"" style=""width:200px; border:14px solid green;"">","null","","","","","","","","","",""
"","image-keyboard-response","321","104962","0.0-321.0","3LOTDFNYA8LVJLXMU4GOZULJ93BFWL","A6THOSGKI6HQC","3THR0FZ95PF7SK0MYRNAOUHTWA4OLV","","256.90000009536743","img/land6.png","76","257.7999997138977","3","1","3","2","1,0.7,0.7,0.7,1,0.7,0.7,0.7,1","1,0.7,0.7,0.7,1,0.7,0.7,0.7,1","","",""
"","html-keyboard-response","322","105265","0.0-322.0","3LOTDFNYA8LVJLXMU4GOZULJ93BFWL","A6THOSGKI6HQC","3THR0FZ95PF7SK0MYRNAOUHTWA4OLV","","null","<img src=""img/land6.png"" style=""width:200px; border:14px solid green;"">","null","","","","","","","","","",""
"","image-keyboard-response","323","105618","0.0-323.0","3LOTDFNYA8LVJLXMU4GOZULJ93BFWL","A6THOSGKI6HQC","3THR0FZ95PF7SK0MYRNAOUHTWA4OLV","","352.40000009536743","img/land6.png","74","353.3999996185303","1","0","3","2","1,0.7,0.7,0.7,1,0.7,0.7,0.7,1","1,0.7,0.7,0.7,1,0.7,0.7,0.7,1","","",""
"","html-keyboard-response","324","105920","0.0-324.0","3LOTDFNYA8LVJLXMU4GOZULJ93BFWL","A6THOSGKI6HQC","3THR0FZ95PF7SK0MYRNAOUHTWA4OLV","","null","<img src=""img/land6.png"" style=""width:200px;border:14px solid red;"">","null","","","","","","","","","",""
"","image-keyboard-response","325","106194","0.0-325.0","3LOTDFNYA8LVJLXMU4GOZULJ93BFWL","A6THOSGKI6HQC","3THR0FZ95PF7SK0MYRNAOUHTWA4OLV","","272.7000002861023","img/land5.png","75","273.59999990463257","2","1","2","2","1,0.7,0.7,0.7,1,0.7,0.7,0.7,1","1,0.7,0.7,0.7,1,0.7,0.7,0.7,1","","",""
"","html-keyboard-response","326","106496","0.0-326.0","3LOTDFNYA8LVJLXMU4GOZULJ93BFWL","A6THOSGKI6HQC","3THR0FZ95PF7SK0MYRNAOUHTWA4OLV","","null","<img src=""img/land5.png"" style=""width:200px; border:14px solid green;"">","null","","","","","","","","","",""
"","image-keyboard-response","327","106899","0.0-327.0","3LOTDFNYA8LVJLXMU4GOZULJ93BFWL","A6THOSGKI6HQC","3THR0FZ95PF7SK0MYRNAOUHTWA4OLV","","401.7999997138977","img/land4.png","76","402.69999980926514","3","1","1","2","1,0.7,0.7,0.7,1,0.7,0.7,0.7,1","1,0.7,0.7,0.7,1,0.7,0.7,0.7,1","","",""
"","html-keyboard-response","328","107201","0.0-328.0","3LOTDFNYA8LVJLXMU4GOZULJ93BFWL","A6THOSGKI6HQC","3THR0FZ95PF7SK0MYRNAOUHTWA4OLV","","null","<img src=""img/land4.png"" style=""width:200px; border:14px solid green;"">","null","","","","","","","","","",""
"","image-keyboard-response","329","107211","0.0-329.0","3LOTDFNYA8LVJLXMU4GOZULJ93BFWL","A6THOSGKI6HQC","3THR0FZ95PF7SK0MYRNAOUHTWA4OLV","","8.5","img/land5.png","75","9.300000190734863","2","1","2","2","1,0.7,0.7,0.7,1,0.7,0.7,0.7,1","1,0.7,0.7,0.7,1,0.7,0.7,0.7,1","","",""
"","html-keyboard-response","330","107513","0.0-330.0","3LOTDFNYA8LVJLXMU4GOZULJ93BFWL","A6THOSGKI6HQC","3THR0FZ95PF7SK0MYRNAOUHTWA4OLV","","null","<img src=""img/land5.png"" style=""width:200px; border:14px solid green;"">","null","","","","","","","","","",""
"","image-keyboard-response","331","107635","0.0-331.0","3LOTDFNYA8LVJLXMU4GOZULJ93BFWL","A6THOSGKI6HQC","3THR0FZ95PF7SK0MYRNAOUHTWA4OLV","","120.7000002861023","img/land4.png","74","121.40000009536743","1","1","1","2","1,0.7,0.7,0.7,1,0.7,0.7,0.7,1","1,0.7,0.7,0.7,1,0.7,0.7,0.7,1","","",""
"","html-keyboard-response","332","107937","0.0-332.0","3LOTDFNYA8LVJLXMU4GOZULJ93BFWL","A6THOSGKI6HQC","3THR0FZ95PF7SK0MYRNAOUHTWA4OLV","","null","<img src=""img/land4.png"" style=""width:200px; border:14px solid green;"">","null","","","","","","","","","",""
"","image-keyboard-response","333","107986","0.0-333.0","3LOTDFNYA8LVJLXMU4GOZULJ93BFWL","A6THOSGKI6HQC","3THR0FZ95PF7SK0MYRNAOUHTWA4OLV","","48","img/land5.png","75","49","2","1","2","2","1,0.7,0.7,0.7,1,0.7,0.7,0.7,1","1,0.7,0.7,0.7,1,0.7,0.7,0.7,1","","",""
"","html-keyboard-response","334","108288","0.0-334.0","3LOTDFNYA8LVJLXMU4GOZULJ93BFWL","A6THOSGKI6HQC","3THR0FZ95PF7SK0MYRNAOUHTWA4OLV","","null","<img src=""img/land5.png"" style=""width:200px; border:14px solid green;"">","null","","","","","","","","","",""
"","image-keyboard-response","335","108315","0.0-335.0","3LOTDFNYA8LVJLXMU4GOZULJ93BFWL","A6THOSGKI6HQC","3THR0FZ95PF7SK0MYRNAOUHTWA4OLV","","25.40000009536743","img/land6.png","76","26.299999713897705","3","1","3","2","1,0.7,0.7,0.7,1,0.7,0.7,0.7,1","1,0.7,0.7,0.7,1,0.7,0.7,0.7,1","","",""
"","html-keyboard-response","336","108617","0.0-336.0","3LOTDFNYA8LVJLXMU4GOZULJ93BFWL","A6THOSGKI6HQC","3THR0FZ95PF7SK0MYRNAOUHTWA4OLV","","null","<img src=""img/land6.png"" style=""width:200px; border:14px solid green;"">","null","","","","","","","","","",""
"","image-keyboard-response","337","108683","0.0-337.0","3LOTDFNYA8LVJLXMU4GOZULJ93BFWL","A6THOSGKI6HQC","3THR0FZ95PF7SK0MYRNAOUHTWA4OLV","","64.40000009536743","img/land4.png","75","65.2999997138977","2","0","1","2","1,0.7,0.7,0.7,1,0.7,0.7,0.7,1","1,0.7,0.7,0.7,1,0.7,0.7,0.7,1","","",""
"","html-keyboard-response","338","108985","0.0-338.0","3LOTDFNYA8LVJLXMU4GOZULJ93BFWL","A6THOSGKI6HQC","3THR0FZ95PF7SK0MYRNAOUHTWA4OLV","","null","<img src=""img/land4.png"" style=""width:200px;border:14px solid red;"">","null","","","","","","","","","",""
"","instructions","339","116821","0.0-339.0","3LOTDFNYA8LVJLXMU4GOZULJ93BFWL","A6THOSGKI6HQC","3THR0FZ95PF7SK0MYRNAOUHTWA4OLV","[{""page_index"":0,""viewing_time"":7834.900000095367}]","7835.300000190735","","","","","","","","","","","",""
"","survey-text","340","124709","0.0-340.0-0.0","3LOTDFNYA8LVJLXMU4GOZULJ93BFWL","A6THOSGKI6HQC","3THR0FZ95PF7SK0MYRNAOUHTWA4OLV","","7884.200000286102","","","","","","","","","","","{""Q0"":""25""}",""
"","survey-multi-choice","341","129132","0.0-340.0-1.0","3LOTDFNYA8LVJLXMU4GOZULJ93BFWL","A6THOSGKI6HQC","3THR0FZ95PF7SK0MYRNAOUHTWA4OLV","","4422.300000190735","","","","","","","","","","","{""gender"":""M""}","[0]"
"","survey-text","342","144348","0.0-341.0","3LOTDFNYA8LVJLXMU4GOZULJ93BFWL","A6THOSGKI6HQC","3THR0FZ95PF7SK0MYRNAOUHTWA4OLV","","15213.5","","","","","","","","","","","{""Q0"":""A6THOSGKI6HQC""}",""
