"success","trial_type","trial_index","time_elapsed","internal_node_id","assignmentID","mturkID","hitID","view_history","rt","stimulus","key_press","reactionTime","a","r","warning","s","reward_cond","responses","question_order"
"true","fullscreen","0","2579","0.0-0.0","3FPRZHYEPZTNOKHOKZAQCJD8X2M3V2","A7TI4X4LRGQA0","3UAU495MIIEABANG75FBFHDC9WUUOI","","","","","","","","","","","",""
"","instructions","1","24957","0.0-1.0","3FPRZHYEPZTNOKHOKZAQCJD8X2M3V2","A7TI4X4LRGQA0","3UAU495MIIEABANG75FBFHDC9WUUOI","[{""page_index"":0,""viewing_time"":10584},{""page_index"":1,""viewing_time"":804},{""page_index"":2,""viewing_time"":1004},{""page_index"":3,""viewing_time"":1329},{""page_index"":4,""viewing_time"":1036},{""page_index"":5,""viewing_time"":1812},{""page_index"":6,""viewing_time"":1537},{""page_index"":7,""viewing_time"":4272}]","22378","","","","","","","","","",""
"","image-keyboard-response","2","25675","0.0-2.0","3FPRZHYEPZTNOKHOKZAQCJD8X2M3V2","A7TI4X4LRGQA0","3UAU495MIIEABANG75FBFHDC9WUUOI","","715","img/land4.png","76","715","3","1","false","3","1,1,0,0,1,1,1,0,1","",""
"","html-keyboard-response","3","25985","0.0-3.0","3FPRZHYEPZTNOKHOKZAQCJD8X2M3V2","A7TI4X4LRGQA0","3UAU495MIIEABANG75FBFHDC9WUUOI","","null","<img src=""img/land4.png"" style=""width:200px; border:14px solid green;"">","null","","","","","","","",""
"","image-keyboard-response","4","26563","0.0-5.0","3FPRZHYEPZTNOKHOKZAQCJD8X2M3V2","A7TI4X4LRGQA0","3UAU495MIIEABANG75FBFHDC9WUUOI","","576","img/land3.png","74","577","1","1","false","1","1,1,0,0,1,1,1,0,1","",""
"","html-keyboard-response","5","26872","0.0-6.0","3FPRZHYEPZTNOKHOKZAQCJD8X2M3V2","A7TI4X4LRGQA0","3UAU495MIIEABANG75FBFHDC9WUUOI","","null","<img src=""img/land3.png"" style=""width:200px; border:14px solid green;"">","null","","","","","","","",""
"","image-keyboard-response","6","27303","0.0-8.0","3FPRZHYEPZTNOKHOKZAQCJD8X2M3V2","A7TI4X4LRGQA0","3UAU495MIIEABANG75FBFHDC9WUUOI","","430","img/land4.png","76","431","3","1","false","3","1,1,0,0,1,1,1,0,1","",""
"","html-keyboard-response","7","27605","0.0-9.0","3FPRZHYEPZTNOKHOKZAQCJD8X2M3V2","A7TI4X4LRGQA0","3UAU495MIIEABANG75FBFHDC9WUUOI","","null","<img src=""img/land4.png"" style=""width:200px; border:14px solid green;"">","null","","","","","","","",""
"","image-keyboard-response","8","27986","0.0-11.0","3FPRZHYEPZTNOKHOKZAQCJD8X2M3V2","A7TI4X4LRGQA0","3UAU495MIIEABANG75FBFHDC9WUUOI","","381","img/land4.png","76","381","3","1","false","3","1,1,0,0,1,1,1,0,1","",""
"","html-keyboard-response","9","28295","0.0-12.0","3FPRZHYEPZTNOKHOKZAQCJD8X2M3V2","A7TI4X4LRGQA0","3UAU495MIIEABANG75FBFHDC9WUUOI","","null","<img src=""img/land4.png"" style=""width:200px; border:14px solid green;"">","null","","","","","","","",""
"","image-keyboard-response","10","28829","0.0-14.0","3FPRZHYEPZTNOKHOKZAQCJD8X2M3V2","A7TI4X4LRGQA0","3UAU495MIIEABANG75FBFHDC9WUUOI","","534","img/land3.png","74","534","1","1","false","1","1,1,0,0,1,1,1,0,1","",""
"","html-keyboard-response","11","29137","0.0-15.0","3FPRZHYEPZTNOKHOKZAQCJD8X2M3V2","A7TI4X4LRGQA0","3UAU495MIIEABANG75FBFHDC9WUUOI","","null","<img src=""img/land3.png"" style=""width:200px; border:14px solid green;"">","null","","","","","","","",""
"","image-keyboard-response","12","29418","0.0-17.0","3FPRZHYEPZTNOKHOKZAQCJD8X2M3V2","A7TI4X4LRGQA0","3UAU495MIIEABANG75FBFHDC9WUUOI","","280","img/land3.png","74","281","1","1","false","1","1,1,0,0,1,1,1,0,1","",""
"","html-keyboard-response","13","29721","0.0-18.0","3FPRZHYEPZTNOKHOKZAQCJD8X2M3V2","A7TI4X4LRGQA0","3UAU495MIIEABANG75FBFHDC9WUUOI","","null","<img src=""img/land3.png"" style=""width:200px; border:14px solid green;"">","null","","","","","","","",""
"","image-keyboard-response","14","30333","0.0-20.0","3FPRZHYEPZTNOKHOKZAQCJD8X2M3V2","A7TI4X4LRGQA0","3UAU495MIIEABANG75FBFHDC9WUUOI","","613","img/land6.png","75","613","2","1","false","2","1,1,0,0,1,1,1,0,1","",""
"","html-keyboard-response","15","30641","0.0-21.0","3FPRZHYEPZTNOKHOKZAQCJD8X2M3V2","A7TI4X4LRGQA0","3UAU495MIIEABANG75FBFHDC9WUUOI","","null","<img src=""img/land6.png"" style=""width:200px; border:14px solid green;"">","null","","","","","","","",""
"","image-keyboard-response","16","31130","0.0-23.0","3FPRZHYEPZTNOKHOKZAQCJD8X2M3V2","A7TI4X4LRGQA0","3UAU495MIIEABANG75FBFHDC9WUUOI","","488","img/land4.png","76","489","3","1","false","3","1,1,0,0,1,1,1,0,1","",""
"","html-keyboard-response","17","31442","0.0-24.0","3FPRZHYEPZTNOKHOKZAQCJD8X2M3V2","A7TI4X4LRGQA0","3UAU495MIIEABANG75FBFHDC9WUUOI","","null","<img src=""img/land4.png"" style=""width:200px; border:14px solid green;"">","null","","","","","","","",""
"","image-keyboard-response","18","31933","0.0-26.0","3FPRZHYEPZTNOKHOKZAQCJD8X2M3V2","A7TI4X4LRGQA0","3UAU495MIIEABANG75FBFHDC9WUUOI","","490","img/land6.png","74","490","1","0","false","2","1,1,0,0,1,1,1,0,1","",""
"","html-keyboard-response","19","32245","0.0-27.0","3FPRZHYEPZTNOKHOKZAQCJD8X2M3V2","A7TI4X4LRGQA0","3UAU495MIIEABANG75FBFHDC9WUUOI","","null","<img src=""img/land6.png"" style=""width:200px;border:14px solid red;"">","null","","","","","","","",""
"","image-keyboard-response","20","32349","0.0-29.0","3FPRZHYEPZTNOKHOKZAQCJD8X2M3V2","A7TI4X4LRGQA0","3UAU495MIIEABANG75FBFHDC9WUUOI","","105","img/land4.png","75","105","2","0","false","3","1,1,0,0,1,1,1,0,1","",""
"","html-keyboard-response","21","32655","0.0-30.0","3FPRZHYEPZTNOKHOKZAQCJD8X2M3V2","A7TI4X4LRGQA0","3UAU495MIIEABANG75FBFHDC9WUUOI","","null","<img src=""img/land4.png"" style=""width:200px;border:14px solid red;"">","null","","","","","","","",""
"","image-keyboard-response","22","33357","0.0-32.0","3FPRZHYEPZTNOKHOKZAQCJD8X2M3V2","A7TI4X4LRGQA0","3UAU495MIIEABANG75FBFHDC9WUUOI","","700","img/land6.png","75","702","2","1","false","2","1,1,0,0,1,1,1,0,1","",""
"","html-keyboard-response","23","33660","0.0-33.0","3FPRZHYEPZTNOKHOKZAQCJD8X2M3V2","A7TI4X4LRGQA0","3UAU495MIIEABANG75FBFHDC9WUUOI","","null","<img src=""img/land6.png"" style=""width:200px; border:14px solid green;"">","null","","","","","","","",""
"","image-keyboard-response","24","34475","0.0-35.0","3FPRZHYEPZTNOKHOKZAQCJD8X2M3V2","A7TI4X4LRGQA0","3UAU495MIIEABANG75FBFHDC9WUUOI","","815","img/land4.png","76","815","3","1","false","3","1,1,0,0,1,1,1,0,1","",""
"","html-keyboard-response","25","34781","0.0-36.0","3FPRZHYEPZTNOKHOKZAQCJD8X2M3V2","A7TI4X4LRGQA0","3UAU495MIIEABANG75FBFHDC9WUUOI","","null","<img src=""img/land4.png"" style=""width:200px; border:14px solid green;"">","null","","","","","","","",""
"","image-keyboard-response","26","35480","0.0-38.0","3FPRZHYEPZTNOKHOKZAQCJD8X2M3V2","A7TI4X4LRGQA0","3UAU495MIIEABANG75FBFHDC9WUUOI","","699","img/land3.png","74","700","1","1","false","1","1,1,0,0,1,1,1,0,1","",""
"","html-keyboard-response","27","35793","0.0-39.0","3FPRZHYEPZTNOKHOKZAQCJD8X2M3V2","A7TI4X4LRGQA0","3UAU495MIIEABANG75FBFHDC9WUUOI","","null","<img src=""img/land3.png"" style=""width:200px; border:14px solid green;"">","null","","","","","","","",""
"","image-keyboard-response","28","36301","0.0-41.0","3FPRZHYEPZTNOKHOKZAQCJD8X2M3V2","A7TI4X4LRGQA0","3UAU495MIIEABANG75FBFHDC9WUUOI","","507","img/land4.png","76","507","3","1","false","3","1,1,0,0,1,1,1,0,1","",""
"","html-keyboard-response","29","36607","0.0-42.0","3FPRZHYEPZTNOKHOKZAQCJD8X2M3V2","A7TI4X4LRGQA0","3UAU495MIIEABANG75FBFHDC9WUUOI","","null","<img src=""img/land4.png"" style=""width:200px; border:14px solid green;"">","null","","","","","","","",""
"","image-keyboard-response","30","37206","0.0-44.0","3FPRZHYEPZTNOKHOKZAQCJD8X2M3V2","A7TI4X4LRGQA0","3UAU495MIIEABANG75FBFHDC9WUUOI","","597","img/land6.png","75","597","2","1","false","2","1,1,0,0,1,1,1,0,1","",""
"","html-keyboard-response","31","37522","0.0-45.0","3FPRZHYEPZTNOKHOKZAQCJD8X2M3V2","A7TI4X4LRGQA0","3UAU495MIIEABANG75FBFHDC9WUUOI","","null","<img src=""img/land6.png"" style=""width:200px; border:14px solid green;"">","null","","","","","","","",""
"","image-keyboard-response","32","38102","0.0-47.0","3FPRZHYEPZTNOKHOKZAQCJD8X2M3V2","A7TI4X4LRGQA0","3UAU495MIIEABANG75FBFHDC9WUUOI","","579","img/land3.png","76","579","3","0","false","1","1,1,0,0,1,1,1,0,1","",""
"","html-keyboard-response","33","38415","0.0-48.0","3FPRZHYEPZTNOKHOKZAQCJD8X2M3V2","A7TI4X4LRGQA0","3UAU495MIIEABANG75FBFHDC9WUUOI","","null","<img src=""img/land3.png"" style=""width:200px;border:14px solid red;"">","null","","","","","","","",""
"","image-keyboard-response","34","38838","0.0-50.0","3FPRZHYEPZTNOKHOKZAQCJD8X2M3V2","A7TI4X4LRGQA0","3UAU495MIIEABANG75FBFHDC9WUUOI","","422","img/land3.png","74","422","1","1","false","1","1,1,0,0,1,1,1,0,1","",""
"","html-keyboard-response","35","39154","0.0-51.0","3FPRZHYEPZTNOKHOKZAQCJD8X2M3V2","A7TI4X4LRGQA0","3UAU495MIIEABANG75FBFHDC9WUUOI","","null","<img src=""img/land3.png"" style=""width:200px; border:14px solid green;"">","null","","","","","","","",""
"","image-keyboard-response","36","39500","0.0-53.0","3FPRZHYEPZTNOKHOKZAQCJD8X2M3V2","A7TI4X4LRGQA0","3UAU495MIIEABANG75FBFHDC9WUUOI","","344","img/land3.png","74","345","1","1","false","1","1,1,0,0,1,1,1,0,1","",""
"","html-keyboard-response","37","39809","0.0-54.0","3FPRZHYEPZTNOKHOKZAQCJD8X2M3V2","A7TI4X4LRGQA0","3UAU495MIIEABANG75FBFHDC9WUUOI","","null","<img src=""img/land3.png"" style=""width:200px; border:14px solid green;"">","null","","","","","","","",""
"","image-keyboard-response","38","40535","0.0-56.0","3FPRZHYEPZTNOKHOKZAQCJD8X2M3V2","A7TI4X4LRGQA0","3UAU495MIIEABANG75FBFHDC9WUUOI","","726","img/land6.png","75","726","2","1","false","2","1,1,0,0,1,1,1,0,1","",""
"","html-keyboard-response","39","40846","0.0-57.0","3FPRZHYEPZTNOKHOKZAQCJD8X2M3V2","A7TI4X4LRGQA0","3UAU495MIIEABANG75FBFHDC9WUUOI","","null","<img src=""img/land6.png"" style=""width:200px; border:14px solid green;"">","null","","","","","","","",""
"","image-keyboard-response","40","41412","0.0-59.0","3FPRZHYEPZTNOKHOKZAQCJD8X2M3V2","A7TI4X4LRGQA0","3UAU495MIIEABANG75FBFHDC9WUUOI","","565","img/land4.png","76","566","3","1","false","3","1,1,0,0,1,1,1,0,1","",""
"","html-keyboard-response","41","41716","0.0-60.0","3FPRZHYEPZTNOKHOKZAQCJD8X2M3V2","A7TI4X4LRGQA0","3UAU495MIIEABANG75FBFHDC9WUUOI","","null","<img src=""img/land4.png"" style=""width:200px; border:14px solid green;"">","null","","","","","","","",""
"","image-keyboard-response","42","42387","0.0-62.0","3FPRZHYEPZTNOKHOKZAQCJD8X2M3V2","A7TI4X4LRGQA0","3UAU495MIIEABANG75FBFHDC9WUUOI","","670","img/land6.png","75","671","2","1","false","2","1,1,0,0,1,1,1,0,1","",""
"","html-keyboard-response","43","42717","0.0-63.0","3FPRZHYEPZTNOKHOKZAQCJD8X2M3V2","A7TI4X4LRGQA0","3UAU495MIIEABANG75FBFHDC9WUUOI","","null","<img src=""img/land6.png"" style=""width:200px; border:14px solid green;"">","null","","","","","","","",""
"","image-keyboard-response","44","43036","0.0-65.0","3FPRZHYEPZTNOKHOKZAQCJD8X2M3V2","A7TI4X4LRGQA0","3UAU495MIIEABANG75FBFHDC9WUUOI","","318","img/land6.png","75","318","2","1","false","2","1,1,0,0,1,1,1,0,1","",""
"","html-keyboard-response","45","43343","0.0-66.0","3FPRZHYEPZTNOKHOKZAQCJD8X2M3V2","A7TI4X4LRGQA0","3UAU495MIIEABANG75FBFHDC9WUUOI","","null","<img src=""img/land6.png"" style=""width:200px; border:14px solid green;"">","null","","","","","","","",""
"","image-keyboard-response","46","43980","0.0-68.0","3FPRZHYEPZTNOKHOKZAQCJD8X2M3V2","A7TI4X4LRGQA0","3UAU495MIIEABANG75FBFHDC9WUUOI","","637","img/land3.png","74","637","1","1","false","1","1,1,0,0,1,1,1,0,1","",""
"","html-keyboard-response","47","44291","0.0-69.0","3FPRZHYEPZTNOKHOKZAQCJD8X2M3V2","A7TI4X4LRGQA0","3UAU495MIIEABANG75FBFHDC9WUUOI","","null","<img src=""img/land3.png"" style=""width:200px; border:14px solid green;"">","null","","","","","","","",""
"","image-keyboard-response","48","44847","0.0-71.0","3FPRZHYEPZTNOKHOKZAQCJD8X2M3V2","A7TI4X4LRGQA0","3UAU495MIIEABANG75FBFHDC9WUUOI","","554","img/land4.png","76","556","3","1","false","3","1,1,0,0,1,1,1,0,1","",""
"","html-keyboard-response","49","45153","0.0-72.0","3FPRZHYEPZTNOKHOKZAQCJD8X2M3V2","A7TI4X4LRGQA0","3UAU495MIIEABANG75FBFHDC9WUUOI","","null","<img src=""img/land4.png"" style=""width:200px; border:14px solid green;"">","null","","","","","","","",""
"","image-keyboard-response","50","45719","0.0-74.0","3FPRZHYEPZTNOKHOKZAQCJD8X2M3V2","A7TI4X4LRGQA0","3UAU495MIIEABANG75FBFHDC9WUUOI","","566","img/land6.png","75","566","2","1","false","2","1,1,0,0,1,1,1,0,1","",""
"","html-keyboard-response","51","46022","0.0-75.0","3FPRZHYEPZTNOKHOKZAQCJD8X2M3V2","A7TI4X4LRGQA0","3UAU495MIIEABANG75FBFHDC9WUUOI","","null","<img src=""img/land6.png"" style=""width:200px; border:14px solid green;"">","null","","","","","","","",""
"","image-keyboard-response","52","46327","0.0-77.0","3FPRZHYEPZTNOKHOKZAQCJD8X2M3V2","A7TI4X4LRGQA0","3UAU495MIIEABANG75FBFHDC9WUUOI","","305","img/land6.png","75","305","2","1","false","2","1,1,0,0,1,1,1,0,1","",""
"","html-keyboard-response","53","46639","0.0-78.0","3FPRZHYEPZTNOKHOKZAQCJD8X2M3V2","A7TI4X4LRGQA0","3UAU495MIIEABANG75FBFHDC9WUUOI","","null","<img src=""img/land6.png"" style=""width:200px; border:14px solid green;"">","null","","","","","","","",""
"","image-keyboard-response","54","47177","0.0-80.0","3FPRZHYEPZTNOKHOKZAQCJD8X2M3V2","A7TI4X4LRGQA0","3UAU495MIIEABANG75FBFHDC9WUUOI","","537","img/land4.png","76","538","3","1","false","3","1,1,0,0,1,1,1,0,1","",""
"","html-keyboard-response","55","47487","0.0-81.0","3FPRZHYEPZTNOKHOKZAQCJD8X2M3V2","A7TI4X4LRGQA0","3UAU495MIIEABANG75FBFHDC9WUUOI","","null","<img src=""img/land4.png"" style=""width:200px; border:14px solid green;"">","null","","","","","","","",""
"","image-keyboard-response","56","47857","0.0-83.0","3FPRZHYEPZTNOKHOKZAQCJD8X2M3V2","A7TI4X4LRGQA0","3UAU495MIIEABANG75FBFHDC9WUUOI","","370","img/land4.png","76","371","3","1","false","3","1,1,0,0,1,1,1,0,1","",""
"","html-keyboard-response","57","48171","0.0-84.0","3FPRZHYEPZTNOKHOKZAQCJD8X2M3V2","A7TI4X4LRGQA0","3UAU495MIIEABANG75FBFHDC9WUUOI","","null","<img src=""img/land4.png"" style=""width:200px; border:14px solid green;"">","null","","","","","","","",""
"","image-keyboard-response","58","48772","0.0-86.0","3FPRZHYEPZTNOKHOKZAQCJD8X2M3V2","A7TI4X4LRGQA0","3UAU495MIIEABANG75FBFHDC9WUUOI","","601","img/land3.png","74","601","1","1","false","1","1,1,0,0,1,1,1,0,1","",""
"","html-keyboard-response","59","49087","0.0-87.0","3FPRZHYEPZTNOKHOKZAQCJD8X2M3V2","A7TI4X4LRGQA0","3UAU495MIIEABANG75FBFHDC9WUUOI","","null","<img src=""img/land3.png"" style=""width:200px; border:14px solid green;"">","null","","","","","","","",""
"","image-keyboard-response","60","49458","0.0-89.0","3FPRZHYEPZTNOKHOKZAQCJD8X2M3V2","A7TI4X4LRGQA0","3UAU495MIIEABANG75FBFHDC9WUUOI","","370","img/land3.png","74","370","1","1","false","1","1,1,0,0,1,1,1,0,1","",""
"","html-keyboard-response","61","49759","0.0-90.0","3FPRZHYEPZTNOKHOKZAQCJD8X2M3V2","A7TI4X4LRGQA0","3UAU495MIIEABANG75FBFHDC9WUUOI","","null","<img src=""img/land3.png"" style=""width:200px; border:14px solid green;"">","null","","","","","","","",""
"","image-keyboard-response","62","50034","0.0-92.0","3FPRZHYEPZTNOKHOKZAQCJD8X2M3V2","A7TI4X4LRGQA0","3UAU495MIIEABANG75FBFHDC9WUUOI","","275","img/land3.png","74","275","1","1","false","1","1,1,0,0,1,1,1,0,1","",""
"","html-keyboard-response","63","50340","0.0-93.0","3FPRZHYEPZTNOKHOKZAQCJD8X2M3V2","A7TI4X4LRGQA0","3UAU495MIIEABANG75FBFHDC9WUUOI","","null","<img src=""img/land3.png"" style=""width:200px; border:14px solid green;"">","null","","","","","","","",""
"","image-keyboard-response","64","50823","0.0-95.0","3FPRZHYEPZTNOKHOKZAQCJD8X2M3V2","A7TI4X4LRGQA0","3UAU495MIIEABANG75FBFHDC9WUUOI","","482","img/land4.png","75","482","2","0","false","3","1,1,0,0,1,1,1,0,1","",""
"","html-keyboard-response","65","51125","0.0-96.0","3FPRZHYEPZTNOKHOKZAQCJD8X2M3V2","A7TI4X4LRGQA0","3UAU495MIIEABANG75FBFHDC9WUUOI","","null","<img src=""img/land4.png"" style=""width:200px;border:14px solid red;"">","null","","","","","","","",""
"","image-keyboard-response","66","51240","0.0-98.0","3FPRZHYEPZTNOKHOKZAQCJD8X2M3V2","A7TI4X4LRGQA0","3UAU495MIIEABANG75FBFHDC9WUUOI","","114","img/land3.png","76","115","3","0","false","1","1,1,0,0,1,1,1,0,1","",""
"","html-keyboard-response","67","51545","0.0-99.0","3FPRZHYEPZTNOKHOKZAQCJD8X2M3V2","A7TI4X4LRGQA0","3UAU495MIIEABANG75FBFHDC9WUUOI","","null","<img src=""img/land3.png"" style=""width:200px;border:14px solid red;"">","null","","","","","","","",""
"","image-keyboard-response","68","51983","0.0-101.0","3FPRZHYEPZTNOKHOKZAQCJD8X2M3V2","A7TI4X4LRGQA0","3UAU495MIIEABANG75FBFHDC9WUUOI","","438","img/land3.png","75","439","2","1","false","1","1,1,0,0,1,1,1,0,1","",""
"","html-keyboard-response","69","52290","0.0-102.0","3FPRZHYEPZTNOKHOKZAQCJD8X2M3V2","A7TI4X4LRGQA0","3UAU495MIIEABANG75FBFHDC9WUUOI","","null","<img src=""img/land3.png"" style=""width:200px; border:14px solid green;"">","null","","","","","","","",""
"","image-keyboard-response","70","52990","0.0-104.0","3FPRZHYEPZTNOKHOKZAQCJD8X2M3V2","A7TI4X4LRGQA0","3UAU495MIIEABANG75FBFHDC9WUUOI","","700","img/land4.png","76","701","3","1","false","3","1,1,0,0,1,1,1,0,1","",""
"","html-keyboard-response","71","53303","0.0-105.0","3FPRZHYEPZTNOKHOKZAQCJD8X2M3V2","A7TI4X4LRGQA0","3UAU495MIIEABANG75FBFHDC9WUUOI","","null","<img src=""img/land4.png"" style=""width:200px; border:14px solid green;"">","null","","","","","","","",""
"","image-keyboard-response","72","53945","0.0-107.0","3FPRZHYEPZTNOKHOKZAQCJD8X2M3V2","A7TI4X4LRGQA0","3UAU495MIIEABANG75FBFHDC9WUUOI","","639","img/land6.png","74","642","1","0","false","2","1,1,0,0,1,1,1,0,1","",""
"","html-keyboard-response","73","54247","0.0-108.0","3FPRZHYEPZTNOKHOKZAQCJD8X2M3V2","A7TI4X4LRGQA0","3UAU495MIIEABANG75FBFHDC9WUUOI","","null","<img src=""img/land6.png"" style=""width:200px;border:14px solid red;"">","null","","","","","","","",""
"","image-keyboard-response","74","54692","0.0-110.0","3FPRZHYEPZTNOKHOKZAQCJD8X2M3V2","A7TI4X4LRGQA0","3UAU495MIIEABANG75FBFHDC9WUUOI","","444","img/land6.png","75","446","2","1","false","2","1,1,0,0,1,1,1,0,1","",""
"","html-keyboard-response","75","55002","0.0-111.0","3FPRZHYEPZTNOKHOKZAQCJD8X2M3V2","A7TI4X4LRGQA0","3UAU495MIIEABANG75FBFHDC9WUUOI","","null","<img src=""img/land6.png"" style=""width:200px; border:14px solid green;"">","null","","","","","","","",""
"","image-keyboard-response","76","55561","0.0-113.0","3FPRZHYEPZTNOKHOKZAQCJD8X2M3V2","A7TI4X4LRGQA0","3UAU495MIIEABANG75FBFHDC9WUUOI","","559","img/land4.png","76","560","3","1","false","3","1,1,0,0,1,1,1,0,1","",""
"","html-keyboard-response","77","55868","0.0-114.0","3FPRZHYEPZTNOKHOKZAQCJD8X2M3V2","A7TI4X4LRGQA0","3UAU495MIIEABANG75FBFHDC9WUUOI","","null","<img src=""img/land4.png"" style=""width:200px; border:14px solid green;"">","null","","","","","","","",""
"","image-keyboard-response","78","56201","0.0-116.0","3FPRZHYEPZTNOKHOKZAQCJD8X2M3V2","A7TI4X4LRGQA0","3UAU495MIIEABANG75FBFHDC9WUUOI","","333","img/land4.png","76","333","3","1","false","3","1,1,0,0,1,1,1,0,1","",""
"","html-keyboard-response","79","56505","0.0-117.0","3FPRZHYEPZTNOKHOKZAQCJD8X2M3V2","A7TI4X4LRGQA0","3UAU495MIIEABANG75FBFHDC9WUUOI","","null","<img src=""img/land4.png"" style=""width:200px; border:14px solid green;"">","null","","","","","","","",""
"","image-keyboard-response","80","56834","0.0-119.0","3FPRZHYEPZTNOKHOKZAQCJD8X2M3V2","A7TI4X4LRGQA0","3UAU495MIIEABANG75FBFHDC9WUUOI","","328","img/land4.png","76","329","3","1","false","3","1,1,0,0,1,1,1,0,1","",""
"","html-keyboard-response","81","57136","0.0-120.0","3FPRZHYEPZTNOKHOKZAQCJD8X2M3V2","A7TI4X4LRGQA0","3UAU495MIIEABANG75FBFHDC9WUUOI","","null","<img src=""img/land4.png"" style=""width:200px; border:14px solid green;"">","null","","","","","","","",""
"","image-keyboard-response","82","57528","0.0-122.0","3FPRZHYEPZTNOKHOKZAQCJD8X2M3V2","A7TI4X4LRGQA0","3UAU495MIIEABANG75FBFHDC9WUUOI","","392","img/land6.png","75","392","2","1","false","2","1,1,0,0,1,1,1,0,1","",""
"","html-keyboard-response","83","57843","0.0-123.0","3FPRZHYEPZTNOKHOKZAQCJD8X2M3V2","A7TI4X4LRGQA0","3UAU495MIIEABANG75FBFHDC9WUUOI","","null","<img src=""img/land6.png"" style=""width:200px; border:14px solid green;"">","null","","","","","","","",""
"","image-keyboard-response","84","58195","0.0-125.0","3FPRZHYEPZTNOKHOKZAQCJD8X2M3V2","A7TI4X4LRGQA0","3UAU495MIIEABANG75FBFHDC9WUUOI","","351","img/land6.png","75","351","2","1","false","2","1,1,0,0,1,1,1,0,1","",""
"","html-keyboard-response","85","58503","0.0-126.0","3FPRZHYEPZTNOKHOKZAQCJD8X2M3V2","A7TI4X4LRGQA0","3UAU495MIIEABANG75FBFHDC9WUUOI","","null","<img src=""img/land6.png"" style=""width:200px; border:14px solid green;"">","null","","","","","","","",""
"","image-keyboard-response","86","59184","0.0-128.0","3FPRZHYEPZTNOKHOKZAQCJD8X2M3V2","A7TI4X4LRGQA0","3UAU495MIIEABANG75FBFHDC9WUUOI","","679","img/land4.png","76","680","3","1","false","3","1,1,0,0,1,1,1,0,1","",""
"","html-keyboard-response","87","59505","0.0-129.0","3FPRZHYEPZTNOKHOKZAQCJD8X2M3V2","A7TI4X4LRGQA0","3UAU495MIIEABANG75FBFHDC9WUUOI","","null","<img src=""img/land4.png"" style=""width:200px; border:14px solid green;"">","null","","","","","","","",""
"","image-keyboard-response","88","59786","0.0-131.0","3FPRZHYEPZTNOKHOKZAQCJD8X2M3V2","A7TI4X4LRGQA0","3UAU495MIIEABANG75FBFHDC9WUUOI","","281","img/land3.png","76","281","3","0","false","1","1,1,0,0,1,1,1,0,1","",""
"","html-keyboard-response","89","60096","0.0-132.0","3FPRZHYEPZTNOKHOKZAQCJD8X2M3V2","A7TI4X4LRGQA0","3UAU495MIIEABANG75FBFHDC9WUUOI","","null","<img src=""img/land3.png"" style=""width:200px;border:14px solid red;"">","null","","","","","","","",""
"","image-keyboard-response","90","60815","0.0-134.0","3FPRZHYEPZTNOKHOKZAQCJD8X2M3V2","A7TI4X4LRGQA0","3UAU495MIIEABANG75FBFHDC9WUUOI","","719","img/land6.png","75","719","2","1","false","2","1,1,0,0,1,1,1,0,1","",""
"","html-keyboard-response","91","61123","0.0-135.0","3FPRZHYEPZTNOKHOKZAQCJD8X2M3V2","A7TI4X4LRGQA0","3UAU495MIIEABANG75FBFHDC9WUUOI","","null","<img src=""img/land6.png"" style=""width:200px; border:14px solid green;"">","null","","","","","","","",""
"","image-keyboard-response","92","61730","0.0-137.0","3FPRZHYEPZTNOKHOKZAQCJD8X2M3V2","A7TI4X4LRGQA0","3UAU495MIIEABANG75FBFHDC9WUUOI","","607","img/land4.png","76","608","3","1","false","3","1,1,0,0,1,1,1,0,1","",""
"","html-keyboard-response","93","62034","0.0-138.0","3FPRZHYEPZTNOKHOKZAQCJD8X2M3V2","A7TI4X4LRGQA0","3UAU495MIIEABANG75FBFHDC9WUUOI","","null","<img src=""img/land4.png"" style=""width:200px; border:14px solid green;"">","null","","","","","","","",""
"","image-keyboard-response","94","62472","0.0-140.0","3FPRZHYEPZTNOKHOKZAQCJD8X2M3V2","A7TI4X4LRGQA0","3UAU495MIIEABANG75FBFHDC9WUUOI","","437","img/land6.png","74","437","1","0","false","2","1,1,0,0,1,1,1,0,1","",""
"","html-keyboard-response","95","62785","0.0-141.0","3FPRZHYEPZTNOKHOKZAQCJD8X2M3V2","A7TI4X4LRGQA0","3UAU495MIIEABANG75FBFHDC9WUUOI","","null","<img src=""img/land6.png"" style=""width:200px;border:14px solid red;"">","null","","","","","","","",""
"","image-keyboard-response","96","63532","0.0-143.0","3FPRZHYEPZTNOKHOKZAQCJD8X2M3V2","A7TI4X4LRGQA0","3UAU495MIIEABANG75FBFHDC9WUUOI","","745","img/land3.png","74","746","1","1","false","1","1,1,0,0,1,1,1,0,1","",""
"","html-keyboard-response","97","63835","0.0-144.0","3FPRZHYEPZTNOKHOKZAQCJD8X2M3V2","A7TI4X4LRGQA0","3UAU495MIIEABANG75FBFHDC9WUUOI","","null","<img src=""img/land3.png"" style=""width:200px; border:14px solid green;"">","null","","","","","","","",""
"","image-keyboard-response","98","64438","0.0-146.0","3FPRZHYEPZTNOKHOKZAQCJD8X2M3V2","A7TI4X4LRGQA0","3UAU495MIIEABANG75FBFHDC9WUUOI","","602","img/land4.png","76","602","3","1","false","3","1,1,0,0,1,1,1,0,1","",""
"","html-keyboard-response","99","64744","0.0-147.0","3FPRZHYEPZTNOKHOKZAQCJD8X2M3V2","A7TI4X4LRGQA0","3UAU495MIIEABANG75FBFHDC9WUUOI","","null","<img src=""img/land4.png"" style=""width:200px; border:14px solid green;"">","null","","","","","","","",""
"","image-keyboard-response","100","65601","0.0-149.0","3FPRZHYEPZTNOKHOKZAQCJD8X2M3V2","A7TI4X4LRGQA0","3UAU495MIIEABANG75FBFHDC9WUUOI","","856","img/land3.png","74","857","1","1","false","1","1,1,0,0,1,1,1,0,1","",""
"","html-keyboard-response","101","65906","0.0-150.0","3FPRZHYEPZTNOKHOKZAQCJD8X2M3V2","A7TI4X4LRGQA0","3UAU495MIIEABANG75FBFHDC9WUUOI","","null","<img src=""img/land3.png"" style=""width:200px; border:14px solid green;"">","null","","","","","","","",""
"","image-keyboard-response","102","66285","0.0-152.0","3FPRZHYEPZTNOKHOKZAQCJD8X2M3V2","A7TI4X4LRGQA0","3UAU495MIIEABANG75FBFHDC9WUUOI","","378","img/land3.png","75","378","2","1","false","1","1,1,0,0,1,1,1,0,1","",""
"","html-keyboard-response","103","66586","0.0-153.0","3FPRZHYEPZTNOKHOKZAQCJD8X2M3V2","A7TI4X4LRGQA0","3UAU495MIIEABANG75FBFHDC9WUUOI","","null","<img src=""img/land3.png"" style=""width:200px; border:14px solid green;"">","null","","","","","","","",""
"","image-keyboard-response","104","66979","0.0-155.0","3FPRZHYEPZTNOKHOKZAQCJD8X2M3V2","A7TI4X4LRGQA0","3UAU495MIIEABANG75FBFHDC9WUUOI","","392","img/land3.png","74","393","1","1","false","1","1,1,0,0,1,1,1,0,1","",""
"","html-keyboard-response","105","67289","0.0-156.0","3FPRZHYEPZTNOKHOKZAQCJD8X2M3V2","A7TI4X4LRGQA0","3UAU495MIIEABANG75FBFHDC9WUUOI","","null","<img src=""img/land3.png"" style=""width:200px; border:14px solid green;"">","null","","","","","","","",""
"","image-keyboard-response","106","67888","0.0-158.0","3FPRZHYEPZTNOKHOKZAQCJD8X2M3V2","A7TI4X4LRGQA0","3UAU495MIIEABANG75FBFHDC9WUUOI","","598","img/land6.png","75","599","2","1","false","2","1,1,0,0,1,1,1,0,1","",""
"","html-keyboard-response","107","68197","0.0-159.0","3FPRZHYEPZTNOKHOKZAQCJD8X2M3V2","A7TI4X4LRGQA0","3UAU495MIIEABANG75FBFHDC9WUUOI","","null","<img src=""img/land6.png"" style=""width:200px; border:14px solid green;"">","null","","","","","","","",""
"","image-keyboard-response","108","69012","0.0-161.0","3FPRZHYEPZTNOKHOKZAQCJD8X2M3V2","A7TI4X4LRGQA0","3UAU495MIIEABANG75FBFHDC9WUUOI","","814","img/land3.png","74","816","1","1","false","1","1,1,0,0,1,1,1,0,1","",""
"","html-keyboard-response","109","69326","0.0-162.0","3FPRZHYEPZTNOKHOKZAQCJD8X2M3V2","A7TI4X4LRGQA0","3UAU495MIIEABANG75FBFHDC9WUUOI","","null","<img src=""img/land3.png"" style=""width:200px; border:14px solid green;"">","null","","","","","","","",""
"","image-keyboard-response","110","70017","0.0-164.0","3FPRZHYEPZTNOKHOKZAQCJD8X2M3V2","A7TI4X4LRGQA0","3UAU495MIIEABANG75FBFHDC9WUUOI","","688","img/land4.png","76","690","3","1","false","3","1,1,0,0,1,1,1,0,1","",""
"","html-keyboard-response","111","70339","0.0-165.0","3FPRZHYEPZTNOKHOKZAQCJD8X2M3V2","A7TI4X4LRGQA0","3UAU495MIIEABANG75FBFHDC9WUUOI","","null","<img src=""img/land4.png"" style=""width:200px; border:14px solid green;"">","null","","","","","","","",""
"","image-keyboard-response","112","70859","0.0-167.0","3FPRZHYEPZTNOKHOKZAQCJD8X2M3V2","A7TI4X4LRGQA0","3UAU495MIIEABANG75FBFHDC9WUUOI","","519","img/land6.png","75","519","2","1","false","2","1,1,0,0,1,1,1,0,1","",""
"","html-keyboard-response","113","71159","0.0-168.0","3FPRZHYEPZTNOKHOKZAQCJD8X2M3V2","A7TI4X4LRGQA0","3UAU495MIIEABANG75FBFHDC9WUUOI","","null","<img src=""img/land6.png"" style=""width:200px; border:14px solid green;"">","null","","","","","","","",""
"","image-keyboard-response","114","71527","0.0-170.0","3FPRZHYEPZTNOKHOKZAQCJD8X2M3V2","A7TI4X4LRGQA0","3UAU495MIIEABANG75FBFHDC9WUUOI","","367","img/land6.png","75","368","2","1","false","2","1,1,0,0,1,1,1,0,1","",""
"","html-keyboard-response","115","71831","0.0-171.0","3FPRZHYEPZTNOKHOKZAQCJD8X2M3V2","A7TI4X4LRGQA0","3UAU495MIIEABANG75FBFHDC9WUUOI","","null","<img src=""img/land6.png"" style=""width:200px; border:14px solid green;"">","null","","","","","","","",""
"","image-keyboard-response","116","72386","0.0-173.0","3FPRZHYEPZTNOKHOKZAQCJD8X2M3V2","A7TI4X4LRGQA0","3UAU495MIIEABANG75FBFHDC9WUUOI","","554","img/land3.png","74","554","1","1","false","1","1,1,0,0,1,1,1,0,1","",""
"","html-keyboard-response","117","72699","0.0-174.0","3FPRZHYEPZTNOKHOKZAQCJD8X2M3V2","A7TI4X4LRGQA0","3UAU495MIIEABANG75FBFHDC9WUUOI","","null","<img src=""img/land3.png"" style=""width:200px; border:14px solid green;"">","null","","","","","","","",""
"","image-keyboard-response","118","73210","0.0-176.0","3FPRZHYEPZTNOKHOKZAQCJD8X2M3V2","A7TI4X4LRGQA0","3UAU495MIIEABANG75FBFHDC9WUUOI","","509","img/land6.png","76","510","3","1","false","2","1,1,0,0,1,1,1,0,1","",""
"","html-keyboard-response","119","73522","0.0-177.0","3FPRZHYEPZTNOKHOKZAQCJD8X2M3V2","A7TI4X4LRGQA0","3UAU495MIIEABANG75FBFHDC9WUUOI","","null","<img src=""img/land6.png"" style=""width:200px; border:14px solid green;"">","null","","","","","","","",""
"","image-keyboard-response","120","74524","0.0-179.0","3FPRZHYEPZTNOKHOKZAQCJD8X2M3V2","A7TI4X4LRGQA0","3UAU495MIIEABANG75FBFHDC9WUUOI","","","img/land3.png","","1002","-1","0","true","1","1,1,0,0,1,1,1,0,1","",""
"","html-keyboard-response","121","74827","0.0-180.0","3FPRZHYEPZTNOKHOKZAQCJD8X2M3V2","A7TI4X4LRGQA0","3UAU495MIIEABANG75FBFHDC9WUUOI","","null","<img src=""img/land3.png"" style=""width:200px;border:14px solid red;"">","null","","","","","","","",""
"","html-keyboard-response","122","78845","0.0-181.0-0.0","3FPRZHYEPZTNOKHOKZAQCJD8X2M3V2","A7TI4X4LRGQA0","3UAU495MIIEABANG75FBFHDC9WUUOI","","","","","","","","","","","",""
"","image-keyboard-response","123","79345","0.0-182.0","3FPRZHYEPZTNOKHOKZAQCJD8X2M3V2","A7TI4X4LRGQA0","3UAU495MIIEABANG75FBFHDC9WUUOI","","500","img/land3.png","74","501","1","1","false","1","1,1,0,0,1,1,1,0,1","",""
"","html-keyboard-response","124","79657","0.0-183.0","3FPRZHYEPZTNOKHOKZAQCJD8X2M3V2","A7TI4X4LRGQA0","3UAU495MIIEABANG75FBFHDC9WUUOI","","null","<img src=""img/land3.png"" style=""width:200px; border:14px solid green;"">","null","","","","","","","",""
"","image-keyboard-response","125","80113","0.0-185.0","3FPRZHYEPZTNOKHOKZAQCJD8X2M3V2","A7TI4X4LRGQA0","3UAU495MIIEABANG75FBFHDC9WUUOI","","454","img/land4.png","76","454","3","1","false","3","1,1,0,0,1,1,1,0,1","",""
"","html-keyboard-response","126","80423","0.0-186.0","3FPRZHYEPZTNOKHOKZAQCJD8X2M3V2","A7TI4X4LRGQA0","3UAU495MIIEABANG75FBFHDC9WUUOI","","null","<img src=""img/land4.png"" style=""width:200px; border:14px solid green;"">","null","","","","","","","",""
"","image-keyboard-response","127","80790","0.0-188.0","3FPRZHYEPZTNOKHOKZAQCJD8X2M3V2","A7TI4X4LRGQA0","3UAU495MIIEABANG75FBFHDC9WUUOI","","366","img/land6.png","75","366","2","1","false","2","1,1,0,0,1,1,1,0,1","",""
"","html-keyboard-response","128","81095","0.0-189.0","3FPRZHYEPZTNOKHOKZAQCJD8X2M3V2","A7TI4X4LRGQA0","3UAU495MIIEABANG75FBFHDC9WUUOI","","null","<img src=""img/land6.png"" style=""width:200px; border:14px solid green;"">","null","","","","","","","",""
"","image-keyboard-response","129","81540","0.0-191.0","3FPRZHYEPZTNOKHOKZAQCJD8X2M3V2","A7TI4X4LRGQA0","3UAU495MIIEABANG75FBFHDC9WUUOI","","444","img/land6.png","75","445","2","1","false","2","1,1,0,0,1,1,1,0,1","",""
"","html-keyboard-response","130","81856","0.0-192.0","3FPRZHYEPZTNOKHOKZAQCJD8X2M3V2","A7TI4X4LRGQA0","3UAU495MIIEABANG75FBFHDC9WUUOI","","null","<img src=""img/land6.png"" style=""width:200px; border:14px solid green;"">","null","","","","","","","",""
"","image-keyboard-response","131","82288","0.0-194.0","3FPRZHYEPZTNOKHOKZAQCJD8X2M3V2","A7TI4X4LRGQA0","3UAU495MIIEABANG75FBFHDC9WUUOI","","432","img/land4.png","76","432","3","1","false","3","1,1,0,0,1,1,1,0,1","",""
"","html-keyboard-response","132","82598","0.0-195.0","3FPRZHYEPZTNOKHOKZAQCJD8X2M3V2","A7TI4X4LRGQA0","3UAU495MIIEABANG75FBFHDC9WUUOI","","null","<img src=""img/land4.png"" style=""width:200px; border:14px solid green;"">","null","","","","","","","",""
"","image-keyboard-response","133","83075","0.0-197.0","3FPRZHYEPZTNOKHOKZAQCJD8X2M3V2","A7TI4X4LRGQA0","3UAU495MIIEABANG75FBFHDC9WUUOI","","477","img/land6.png","74","477","1","0","false","2","1,1,0,0,1,1,1,0,1","",""
"","html-keyboard-response","134","83385","0.0-198.0","3FPRZHYEPZTNOKHOKZAQCJD8X2M3V2","A7TI4X4LRGQA0","3UAU495MIIEABANG75FBFHDC9WUUOI","","null","<img src=""img/land6.png"" style=""width:200px;border:14px solid red;"">","null","","","","","","","",""
"","image-keyboard-response","135","83701","0.0-200.0","3FPRZHYEPZTNOKHOKZAQCJD8X2M3V2","A7TI4X4LRGQA0","3UAU495MIIEABANG75FBFHDC9WUUOI","","316","img/land4.png","75","317","2","0","false","3","1,1,0,0,1,1,1,0,1","",""
"","html-keyboard-response","136","84011","0.0-201.0","3FPRZHYEPZTNOKHOKZAQCJD8X2M3V2","A7TI4X4LRGQA0","3UAU495MIIEABANG75FBFHDC9WUUOI","","null","<img src=""img/land4.png"" style=""width:200px;border:14px solid red;"">","null","","","","","","","",""
"","image-keyboard-response","137","84571","0.0-203.0","3FPRZHYEPZTNOKHOKZAQCJD8X2M3V2","A7TI4X4LRGQA0","3UAU495MIIEABANG75FBFHDC9WUUOI","","561","img/land3.png","74","561","1","1","false","1","1,1,0,0,1,1,1,0,1","",""
"","html-keyboard-response","138","84881","0.0-204.0","3FPRZHYEPZTNOKHOKZAQCJD8X2M3V2","A7TI4X4LRGQA0","3UAU495MIIEABANG75FBFHDC9WUUOI","","null","<img src=""img/land3.png"" style=""width:200px; border:14px solid green;"">","null","","","","","","","",""
"","image-keyboard-response","139","85237","0.0-206.0","3FPRZHYEPZTNOKHOKZAQCJD8X2M3V2","A7TI4X4LRGQA0","3UAU495MIIEABANG75FBFHDC9WUUOI","","355","img/land3.png","75","356","2","1","false","1","1,1,0,0,1,1,1,0,1","",""
"","html-keyboard-response","140","85538","0.0-207.0","3FPRZHYEPZTNOKHOKZAQCJD8X2M3V2","A7TI4X4LRGQA0","3UAU495MIIEABANG75FBFHDC9WUUOI","","null","<img src=""img/land3.png"" style=""width:200px; border:14px solid green;"">","null","","","","","","","",""
"","image-keyboard-response","141","86069","0.0-209.0","3FPRZHYEPZTNOKHOKZAQCJD8X2M3V2","A7TI4X4LRGQA0","3UAU495MIIEABANG75FBFHDC9WUUOI","","530","img/land6.png","75","531","2","1","false","2","1,1,0,0,1,1,1,0,1","",""
"","html-keyboard-response","142","86374","0.0-210.0","3FPRZHYEPZTNOKHOKZAQCJD8X2M3V2","A7TI4X4LRGQA0","3UAU495MIIEABANG75FBFHDC9WUUOI","","null","<img src=""img/land6.png"" style=""width:200px; border:14px solid green;"">","null","","","","","","","",""
"","image-keyboard-response","143","86860","0.0-212.0","3FPRZHYEPZTNOKHOKZAQCJD8X2M3V2","A7TI4X4LRGQA0","3UAU495MIIEABANG75FBFHDC9WUUOI","","485","img/land3.png","74","486","1","1","false","1","1,1,0,0,1,1,1,0,1","",""
"","html-keyboard-response","144","87161","0.0-213.0","3FPRZHYEPZTNOKHOKZAQCJD8X2M3V2","A7TI4X4LRGQA0","3UAU495MIIEABANG75FBFHDC9WUUOI","","null","<img src=""img/land3.png"" style=""width:200px; border:14px solid green;"">","null","","","","","","","",""
"","image-keyboard-response","145","87567","0.0-215.0","3FPRZHYEPZTNOKHOKZAQCJD8X2M3V2","A7TI4X4LRGQA0","3UAU495MIIEABANG75FBFHDC9WUUOI","","405","img/land3.png","75","406","2","1","false","1","1,1,0,0,1,1,1,0,1","",""
"","html-keyboard-response","146","87875","0.0-216.0","3FPRZHYEPZTNOKHOKZAQCJD8X2M3V2","A7TI4X4LRGQA0","3UAU495MIIEABANG75FBFHDC9WUUOI","","null","<img src=""img/land3.png"" style=""width:200px; border:14px solid green;"">","null","","","","","","","",""
"","image-keyboard-response","147","88382","0.0-218.0","3FPRZHYEPZTNOKHOKZAQCJD8X2M3V2","A7TI4X4LRGQA0","3UAU495MIIEABANG75FBFHDC9WUUOI","","506","img/land6.png","75","506","2","1","false","2","1,1,0,0,1,1,1,0,1","",""
"","html-keyboard-response","148","88691","0.0-219.0","3FPRZHYEPZTNOKHOKZAQCJD8X2M3V2","A7TI4X4LRGQA0","3UAU495MIIEABANG75FBFHDC9WUUOI","","null","<img src=""img/land6.png"" style=""width:200px; border:14px solid green;"">","null","","","","","","","",""
"","image-keyboard-response","149","89102","0.0-221.0","3FPRZHYEPZTNOKHOKZAQCJD8X2M3V2","A7TI4X4LRGQA0","3UAU495MIIEABANG75FBFHDC9WUUOI","","410","img/land4.png","76","411","3","1","false","3","1,1,0,0,1,1,1,0,1","",""
"","html-keyboard-response","150","89414","0.0-222.0","3FPRZHYEPZTNOKHOKZAQCJD8X2M3V2","A7TI4X4LRGQA0","3UAU495MIIEABANG75FBFHDC9WUUOI","","null","<img src=""img/land4.png"" style=""width:200px; border:14px solid green;"">","null","","","","","","","",""
"","image-keyboard-response","151","89916","0.0-224.0","3FPRZHYEPZTNOKHOKZAQCJD8X2M3V2","A7TI4X4LRGQA0","3UAU495MIIEABANG75FBFHDC9WUUOI","","502","img/land6.png","75","502","2","1","false","2","1,1,0,0,1,1,1,0,1","",""
"","html-keyboard-response","152","90225","0.0-225.0","3FPRZHYEPZTNOKHOKZAQCJD8X2M3V2","A7TI4X4LRGQA0","3UAU495MIIEABANG75FBFHDC9WUUOI","","null","<img src=""img/land6.png"" style=""width:200px; border:14px solid green;"">","null","","","","","","","",""
"","image-keyboard-response","153","90768","0.0-227.0","3FPRZHYEPZTNOKHOKZAQCJD8X2M3V2","A7TI4X4LRGQA0","3UAU495MIIEABANG75FBFHDC9WUUOI","","544","img/land4.png","76","544","3","1","false","3","1,1,0,0,1,1,1,0,1","",""
"","html-keyboard-response","154","91072","0.0-228.0","3FPRZHYEPZTNOKHOKZAQCJD8X2M3V2","A7TI4X4LRGQA0","3UAU495MIIEABANG75FBFHDC9WUUOI","","null","<img src=""img/land4.png"" style=""width:200px; border:14px solid green;"">","null","","","","","","","",""
"","image-keyboard-response","155","91391","0.0-230.0","3FPRZHYEPZTNOKHOKZAQCJD8X2M3V2","A7TI4X4LRGQA0","3UAU495MIIEABANG75FBFHDC9WUUOI","","319","img/land3.png","75","319","2","1","false","1","1,1,0,0,1,1,1,0,1","",""
"","html-keyboard-response","156","91699","0.0-231.0","3FPRZHYEPZTNOKHOKZAQCJD8X2M3V2","A7TI4X4LRGQA0","3UAU495MIIEABANG75FBFHDC9WUUOI","","null","<img src=""img/land3.png"" style=""width:200px; border:14px solid green;"">","null","","","","","","","",""
"","image-keyboard-response","157","92034","0.0-233.0","3FPRZHYEPZTNOKHOKZAQCJD8X2M3V2","A7TI4X4LRGQA0","3UAU495MIIEABANG75FBFHDC9WUUOI","","334","img/land4.png","74","334","1","1","false","3","1,1,0,0,1,1,1,0,1","",""
"","html-keyboard-response","158","92335","0.0-234.0","3FPRZHYEPZTNOKHOKZAQCJD8X2M3V2","A7TI4X4LRGQA0","3UAU495MIIEABANG75FBFHDC9WUUOI","","null","<img src=""img/land4.png"" style=""width:200px; border:14px solid green;"">","null","","","","","","","",""
"","image-keyboard-response","159","92997","0.0-236.0","3FPRZHYEPZTNOKHOKZAQCJD8X2M3V2","A7TI4X4LRGQA0","3UAU495MIIEABANG75FBFHDC9WUUOI","","660","img/land3.png","74","660","1","1","false","1","1,1,0,0,1,1,1,0,1","",""
"","html-keyboard-response","160","93300","0.0-237.0","3FPRZHYEPZTNOKHOKZAQCJD8X2M3V2","A7TI4X4LRGQA0","3UAU495MIIEABANG75FBFHDC9WUUOI","","null","<img src=""img/land3.png"" style=""width:200px; border:14px solid green;"">","null","","","","","","","",""
"","image-keyboard-response","161","93763","0.0-239.0","3FPRZHYEPZTNOKHOKZAQCJD8X2M3V2","A7TI4X4LRGQA0","3UAU495MIIEABANG75FBFHDC9WUUOI","","462","img/land4.png","76","463","3","1","false","3","1,1,0,0,1,1,1,0,1","",""
"","html-keyboard-response","162","94067","0.0-240.0","3FPRZHYEPZTNOKHOKZAQCJD8X2M3V2","A7TI4X4LRGQA0","3UAU495MIIEABANG75FBFHDC9WUUOI","","null","<img src=""img/land4.png"" style=""width:200px; border:14px solid green;"">","null","","","","","","","",""
"","image-keyboard-response","163","94628","0.0-242.0","3FPRZHYEPZTNOKHOKZAQCJD8X2M3V2","A7TI4X4LRGQA0","3UAU495MIIEABANG75FBFHDC9WUUOI","","559","img/land3.png","74","559","1","1","false","1","1,1,0,0,1,1,1,0,1","",""
"","html-keyboard-response","164","94930","0.0-243.0","3FPRZHYEPZTNOKHOKZAQCJD8X2M3V2","A7TI4X4LRGQA0","3UAU495MIIEABANG75FBFHDC9WUUOI","","null","<img src=""img/land3.png"" style=""width:200px; border:14px solid green;"">","null","","","","","","","",""
"","image-keyboard-response","165","95404","0.0-245.0","3FPRZHYEPZTNOKHOKZAQCJD8X2M3V2","A7TI4X4LRGQA0","3UAU495MIIEABANG75FBFHDC9WUUOI","","473","img/land6.png","75","473","2","1","false","2","1,1,0,0,1,1,1,0,1","",""
"","html-keyboard-response","166","95708","0.0-246.0","3FPRZHYEPZTNOKHOKZAQCJD8X2M3V2","A7TI4X4LRGQA0","3UAU495MIIEABANG75FBFHDC9WUUOI","","null","<img src=""img/land6.png"" style=""width:200px; border:14px solid green;"">","null","","","","","","","",""
"","image-keyboard-response","167","96221","0.0-248.0","3FPRZHYEPZTNOKHOKZAQCJD8X2M3V2","A7TI4X4LRGQA0","3UAU495MIIEABANG75FBFHDC9WUUOI","","512","img/land6.png","75","513","2","1","false","2","1,1,0,0,1,1,1,0,1","",""
"","html-keyboard-response","168","96533","0.0-249.0","3FPRZHYEPZTNOKHOKZAQCJD8X2M3V2","A7TI4X4LRGQA0","3UAU495MIIEABANG75FBFHDC9WUUOI","","null","<img src=""img/land6.png"" style=""width:200px; border:14px solid green;"">","null","","","","","","","",""
"","image-keyboard-response","169","96831","0.0-251.0","3FPRZHYEPZTNOKHOKZAQCJD8X2M3V2","A7TI4X4LRGQA0","3UAU495MIIEABANG75FBFHDC9WUUOI","","297","img/land6.png","75","297","2","1","false","2","1,1,0,0,1,1,1,0,1","",""
"","html-keyboard-response","170","97135","0.0-252.0","3FPRZHYEPZTNOKHOKZAQCJD8X2M3V2","A7TI4X4LRGQA0","3UAU495MIIEABANG75FBFHDC9WUUOI","","null","<img src=""img/land6.png"" style=""width:200px; border:14px solid green;"">","null","","","","","","","",""
"","image-keyboard-response","171","97629","0.0-254.0","3FPRZHYEPZTNOKHOKZAQCJD8X2M3V2","A7TI4X4LRGQA0","3UAU495MIIEABANG75FBFHDC9WUUOI","","495","img/land4.png","76","496","3","1","false","3","1,1,0,0,1,1,1,0,1","",""
"","html-keyboard-response","172","97936","0.0-255.0","3FPRZHYEPZTNOKHOKZAQCJD8X2M3V2","A7TI4X4LRGQA0","3UAU495MIIEABANG75FBFHDC9WUUOI","","null","<img src=""img/land4.png"" style=""width:200px; border:14px solid green;"">","null","","","","","","","",""
"","image-keyboard-response","173","98483","0.0-257.0","3FPRZHYEPZTNOKHOKZAQCJD8X2M3V2","A7TI4X4LRGQA0","3UAU495MIIEABANG75FBFHDC9WUUOI","","547","img/land3.png","74","548","1","1","false","1","1,1,0,0,1,1,1,0,1","",""
"","html-keyboard-response","174","98784","0.0-258.0","3FPRZHYEPZTNOKHOKZAQCJD8X2M3V2","A7TI4X4LRGQA0","3UAU495MIIEABANG75FBFHDC9WUUOI","","null","<img src=""img/land3.png"" style=""width:200px; border:14px solid green;"">","null","","","","","","","",""
"","image-keyboard-response","175","99033","0.0-260.0","3FPRZHYEPZTNOKHOKZAQCJD8X2M3V2","A7TI4X4LRGQA0","3UAU495MIIEABANG75FBFHDC9WUUOI","","247","img/land6.png","74","247","1","0","false","2","1,1,0,0,1,1,1,0,1","",""
"","html-keyboard-response","176","99333","0.0-261.0","3FPRZHYEPZTNOKHOKZAQCJD8X2M3V2","A7TI4X4LRGQA0","3UAU495MIIEABANG75FBFHDC9WUUOI","","null","<img src=""img/land6.png"" style=""width:200px;border:14px solid red;"">","null","","","","","","","",""
"","image-keyboard-response","177","99638","0.0-263.0","3FPRZHYEPZTNOKHOKZAQCJD8X2M3V2","A7TI4X4LRGQA0","3UAU495MIIEABANG75FBFHDC9WUUOI","","304","img/land6.png","75","304","2","1","false","2","1,1,0,0,1,1,1,0,1","",""
"","html-keyboard-response","178","99947","0.0-264.0","3FPRZHYEPZTNOKHOKZAQCJD8X2M3V2","A7TI4X4LRGQA0","3UAU495MIIEABANG75FBFHDC9WUUOI","","null","<img src=""img/land6.png"" style=""width:200px; border:14px solid green;"">","null","","","","","","","",""
"","image-keyboard-response","179","100456","0.0-266.0","3FPRZHYEPZTNOKHOKZAQCJD8X2M3V2","A7TI4X4LRGQA0","3UAU495MIIEABANG75FBFHDC9WUUOI","","509","img/land4.png","76","509","3","1","false","3","1,1,0,0,1,1,1,0,1","",""
"","html-keyboard-response","180","100763","0.0-267.0","3FPRZHYEPZTNOKHOKZAQCJD8X2M3V2","A7TI4X4LRGQA0","3UAU495MIIEABANG75FBFHDC9WUUOI","","null","<img src=""img/land4.png"" style=""width:200px; border:14px solid green;"">","null","","","","","","","",""
"","image-keyboard-response","181","101085","0.0-269.0","3FPRZHYEPZTNOKHOKZAQCJD8X2M3V2","A7TI4X4LRGQA0","3UAU495MIIEABANG75FBFHDC9WUUOI","","321","img/land4.png","76","322","3","1","false","3","1,1,0,0,1,1,1,0,1","",""
"","html-keyboard-response","182","101392","0.0-270.0","3FPRZHYEPZTNOKHOKZAQCJD8X2M3V2","A7TI4X4LRGQA0","3UAU495MIIEABANG75FBFHDC9WUUOI","","null","<img src=""img/land4.png"" style=""width:200px; border:14px solid green;"">","null","","","","","","","",""
"","html-keyboard-response","183","114504","0.0-272.0","3FPRZHYEPZTNOKHOKZAQCJD8X2M3V2","A7TI4X4LRGQA0","3UAU495MIIEABANG75FBFHDC9WUUOI","","","","","","","","","","","",""
"","image-keyboard-response","184","115248","0.0-273.0","3FPRZHYEPZTNOKHOKZAQCJD8X2M3V2","A7TI4X4LRGQA0","3UAU495MIIEABANG75FBFHDC9WUUOI","","743","img/land2.png","76","744","3","1","false","2","1,0.5,0.5,0.5,1,0.5,0.5,0.5,1","",""
"","html-keyboard-response","185","115549","0.0-274.0","3FPRZHYEPZTNOKHOKZAQCJD8X2M3V2","A7TI4X4LRGQA0","3UAU495MIIEABANG75FBFHDC9WUUOI","","null","<img src=""img/land2.png"" style=""width:200px; border:14px solid green;"">","null","","","","","","","",""
"","image-keyboard-response","186","116093","0.0-276.0","3FPRZHYEPZTNOKHOKZAQCJD8X2M3V2","A7TI4X4LRGQA0","3UAU495MIIEABANG75FBFHDC9WUUOI","","544","img/land1.png","74","544","1","1","false","1","1,0.5,0.5,0.5,1,0.5,0.5,0.5,1","",""
"","html-keyboard-response","187","116395","0.0-277.0","3FPRZHYEPZTNOKHOKZAQCJD8X2M3V2","A7TI4X4LRGQA0","3UAU495MIIEABANG75FBFHDC9WUUOI","","null","<img src=""img/land1.png"" style=""width:200px; border:14px solid green;"">","null","","","","","","","",""
"","image-keyboard-response","188","116874","0.0-279.0","3FPRZHYEPZTNOKHOKZAQCJD8X2M3V2","A7TI4X4LRGQA0","3UAU495MIIEABANG75FBFHDC9WUUOI","","479","img/land2.png","76","480","3","0","false","2","1,0.5,0.5,0.5,1,0.5,0.5,0.5,1","",""
"","html-keyboard-response","189","117189","0.0-280.0","3FPRZHYEPZTNOKHOKZAQCJD8X2M3V2","A7TI4X4LRGQA0","3UAU495MIIEABANG75FBFHDC9WUUOI","","null","<img src=""img/land2.png"" style=""width:200px;border:14px solid red;"">","null","","","","","","","",""
"","image-keyboard-response","190","117984","0.0-282.0","3FPRZHYEPZTNOKHOKZAQCJD8X2M3V2","A7TI4X4LRGQA0","3UAU495MIIEABANG75FBFHDC9WUUOI","","793","img/land1.png","74","793","1","1","false","1","1,0.5,0.5,0.5,1,0.5,0.5,0.5,1","",""
"","html-keyboard-response","191","118291","0.0-283.0","3FPRZHYEPZTNOKHOKZAQCJD8X2M3V2","A7TI4X4LRGQA0","3UAU495MIIEABANG75FBFHDC9WUUOI","","null","<img src=""img/land1.png"" style=""width:200px; border:14px solid green;"">","null","","","","","","","",""
"","image-keyboard-response","192","118756","0.0-285.0","3FPRZHYEPZTNOKHOKZAQCJD8X2M3V2","A7TI4X4LRGQA0","3UAU495MIIEABANG75FBFHDC9WUUOI","","464","img/land2.png","75","464","2","1","false","2","1,0.5,0.5,0.5,1,0.5,0.5,0.5,1","",""
"","html-keyboard-response","193","119067","0.0-286.0","3FPRZHYEPZTNOKHOKZAQCJD8X2M3V2","A7TI4X4LRGQA0","3UAU495MIIEABANG75FBFHDC9WUUOI","","null","<img src=""img/land2.png"" style=""width:200px; border:14px solid green;"">","null","","","","","","","",""
"","image-keyboard-response","194","119463","0.0-288.0","3FPRZHYEPZTNOKHOKZAQCJD8X2M3V2","A7TI4X4LRGQA0","3UAU495MIIEABANG75FBFHDC9WUUOI","","394","img/land2.png","75","395","2","1","false","2","1,0.5,0.5,0.5,1,0.5,0.5,0.5,1","",""
"","html-keyboard-response","195","119768","0.0-289.0","3FPRZHYEPZTNOKHOKZAQCJD8X2M3V2","A7TI4X4LRGQA0","3UAU495MIIEABANG75FBFHDC9WUUOI","","null","<img src=""img/land2.png"" style=""width:200px; border:14px solid green;"">","null","","","","","","","",""
"","image-keyboard-response","196","120381","0.0-291.0","3FPRZHYEPZTNOKHOKZAQCJD8X2M3V2","A7TI4X4LRGQA0","3UAU495MIIEABANG75FBFHDC9WUUOI","","612","img/land1.png","74","612","1","1","false","1","1,0.5,0.5,0.5,1,0.5,0.5,0.5,1","",""
"","html-keyboard-response","197","120693","0.0-292.0","3FPRZHYEPZTNOKHOKZAQCJD8X2M3V2","A7TI4X4LRGQA0","3UAU495MIIEABANG75FBFHDC9WUUOI","","null","<img src=""img/land1.png"" style=""width:200px; border:14px solid green;"">","null","","","","","","","",""
"","image-keyboard-response","198","121087","0.0-294.0","3FPRZHYEPZTNOKHOKZAQCJD8X2M3V2","A7TI4X4LRGQA0","3UAU495MIIEABANG75FBFHDC9WUUOI","","394","img/land2.png","75","394","2","1","false","2","1,0.5,0.5,0.5,1,0.5,0.5,0.5,1","",""
"","html-keyboard-response","199","121389","0.0-295.0","3FPRZHYEPZTNOKHOKZAQCJD8X2M3V2","A7TI4X4LRGQA0","3UAU495MIIEABANG75FBFHDC9WUUOI","","null","<img src=""img/land2.png"" style=""width:200px; border:14px solid green;"">","null","","","","","","","",""
"","image-keyboard-response","200","121707","0.0-297.0","3FPRZHYEPZTNOKHOKZAQCJD8X2M3V2","A7TI4X4LRGQA0","3UAU495MIIEABANG75FBFHDC9WUUOI","","317","img/land2.png","75","318","2","1","false","2","1,0.5,0.5,0.5,1,0.5,0.5,0.5,1","",""
"","html-keyboard-response","201","122009","0.0-298.0","3FPRZHYEPZTNOKHOKZAQCJD8X2M3V2","A7TI4X4LRGQA0","3UAU495MIIEABANG75FBFHDC9WUUOI","","null","<img src=""img/land2.png"" style=""width:200px; border:14px solid green;"">","null","","","","","","","",""
"","image-keyboard-response","202","122319","0.0-300.0","3FPRZHYEPZTNOKHOKZAQCJD8X2M3V2","A7TI4X4LRGQA0","3UAU495MIIEABANG75FBFHDC9WUUOI","","311","img/land2.png","75","311","2","1","false","2","1,0.5,0.5,0.5,1,0.5,0.5,0.5,1","",""
"","html-keyboard-response","203","122625","0.0-301.0","3FPRZHYEPZTNOKHOKZAQCJD8X2M3V2","A7TI4X4LRGQA0","3UAU495MIIEABANG75FBFHDC9WUUOI","","null","<img src=""img/land2.png"" style=""width:200px; border:14px solid green;"">","null","","","","","","","",""
"","image-keyboard-response","204","123139","0.0-303.0","3FPRZHYEPZTNOKHOKZAQCJD8X2M3V2","A7TI4X4LRGQA0","3UAU495MIIEABANG75FBFHDC9WUUOI","","513","img/land5.png","76","514","3","1","false","3","1,0.5,0.5,0.5,1,0.5,0.5,0.5,1","",""
"","html-keyboard-response","205","123446","0.0-304.0","3FPRZHYEPZTNOKHOKZAQCJD8X2M3V2","A7TI4X4LRGQA0","3UAU495MIIEABANG75FBFHDC9WUUOI","","null","<img src=""img/land5.png"" style=""width:200px; border:14px solid green;"">","null","","","","","","","",""
"","image-keyboard-response","206","123801","0.0-306.0","3FPRZHYEPZTNOKHOKZAQCJD8X2M3V2","A7TI4X4LRGQA0","3UAU495MIIEABANG75FBFHDC9WUUOI","","354","img/land5.png","76","355","3","1","false","3","1,0.5,0.5,0.5,1,0.5,0.5,0.5,1","",""
"","html-keyboard-response","207","124107","0.0-307.0","3FPRZHYEPZTNOKHOKZAQCJD8X2M3V2","A7TI4X4LRGQA0","3UAU495MIIEABANG75FBFHDC9WUUOI","","null","<img src=""img/land5.png"" style=""width:200px; border:14px solid green;"">","null","","","","","","","",""
"","image-keyboard-response","208","124629","0.0-309.0","3FPRZHYEPZTNOKHOKZAQCJD8X2M3V2","A7TI4X4LRGQA0","3UAU495MIIEABANG75FBFHDC9WUUOI","","521","img/land2.png","75","522","2","1","false","2","1,0.5,0.5,0.5,1,0.5,0.5,0.5,1","",""
"","html-keyboard-response","209","124938","0.0-310.0","3FPRZHYEPZTNOKHOKZAQCJD8X2M3V2","A7TI4X4LRGQA0","3UAU495MIIEABANG75FBFHDC9WUUOI","","null","<img src=""img/land2.png"" style=""width:200px; border:14px solid green;"">","null","","","","","","","",""
"","image-keyboard-response","210","125196","0.0-312.0","3FPRZHYEPZTNOKHOKZAQCJD8X2M3V2","A7TI4X4LRGQA0","3UAU495MIIEABANG75FBFHDC9WUUOI","","258","img/land5.png","75","258","2","1","false","3","1,0.5,0.5,0.5,1,0.5,0.5,0.5,1","",""
"","html-keyboard-response","211","125499","0.0-313.0","3FPRZHYEPZTNOKHOKZAQCJD8X2M3V2","A7TI4X4LRGQA0","3UAU495MIIEABANG75FBFHDC9WUUOI","","null","<img src=""img/land5.png"" style=""width:200px; border:14px solid green;"">","null","","","","","","","",""
"","image-keyboard-response","212","125961","0.0-315.0","3FPRZHYEPZTNOKHOKZAQCJD8X2M3V2","A7TI4X4LRGQA0","3UAU495MIIEABANG75FBFHDC9WUUOI","","462","img/land5.png","76","462","3","1","false","3","1,0.5,0.5,0.5,1,0.5,0.5,0.5,1","",""
"","html-keyboard-response","213","126273","0.0-316.0","3FPRZHYEPZTNOKHOKZAQCJD8X2M3V2","A7TI4X4LRGQA0","3UAU495MIIEABANG75FBFHDC9WUUOI","","null","<img src=""img/land5.png"" style=""width:200px; border:14px solid green;"">","null","","","","","","","",""
"","image-keyboard-response","214","126834","0.0-318.0","3FPRZHYEPZTNOKHOKZAQCJD8X2M3V2","A7TI4X4LRGQA0","3UAU495MIIEABANG75FBFHDC9WUUOI","","562","img/land2.png","74","562","1","1","false","2","1,0.5,0.5,0.5,1,0.5,0.5,0.5,1","",""
"","html-keyboard-response","215","127148","0.0-319.0","3FPRZHYEPZTNOKHOKZAQCJD8X2M3V2","A7TI4X4LRGQA0","3UAU495MIIEABANG75FBFHDC9WUUOI","","null","<img src=""img/land2.png"" style=""width:200px; border:14px solid green;"">","null","","","","","","","",""
"","image-keyboard-response","216","128153","0.0-321.0","3FPRZHYEPZTNOKHOKZAQCJD8X2M3V2","A7TI4X4LRGQA0","3UAU495MIIEABANG75FBFHDC9WUUOI","","","img/land2.png","","1005","-1","0","true","2","1,0.5,0.5,0.5,1,0.5,0.5,0.5,1","",""
"","html-keyboard-response","217","128459","0.0-322.0","3FPRZHYEPZTNOKHOKZAQCJD8X2M3V2","A7TI4X4LRGQA0","3UAU495MIIEABANG75FBFHDC9WUUOI","","null","<img src=""img/land2.png"" style=""width:200px;border:14px solid red;"">","null","","","","","","","",""
"","html-keyboard-response","218","130515","0.0-323.0-0.0","3FPRZHYEPZTNOKHOKZAQCJD8X2M3V2","A7TI4X4LRGQA0","3UAU495MIIEABANG75FBFHDC9WUUOI","","","","","","","","","","","",""
"","image-keyboard-response","219","130898","0.0-324.0","3FPRZHYEPZTNOKHOKZAQCJD8X2M3V2","A7TI4X4LRGQA0","3UAU495MIIEABANG75FBFHDC9WUUOI","","384","img/land1.png","75","384","2","1","false","1","1,0.5,0.5,0.5,1,0.5,0.5,0.5,1","",""
"","html-keyboard-response","220","131207","0.0-325.0","3FPRZHYEPZTNOKHOKZAQCJD8X2M3V2","A7TI4X4LRGQA0","3UAU495MIIEABANG75FBFHDC9WUUOI","","null","<img src=""img/land1.png"" style=""width:200px; border:14px solid green;"">","null","","","","","","","",""
"","image-keyboard-response","221","131737","0.0-327.0","3FPRZHYEPZTNOKHOKZAQCJD8X2M3V2","A7TI4X4LRGQA0","3UAU495MIIEABANG75FBFHDC9WUUOI","","530","img/land2.png","76","531","3","1","false","2","1,0.5,0.5,0.5,1,0.5,0.5,0.5,1","",""
"","html-keyboard-response","222","132044","0.0-328.0","3FPRZHYEPZTNOKHOKZAQCJD8X2M3V2","A7TI4X4LRGQA0","3UAU495MIIEABANG75FBFHDC9WUUOI","","null","<img src=""img/land2.png"" style=""width:200px; border:14px solid green;"">","null","","","","","","","",""
"","image-keyboard-response","223","132406","0.0-330.0","3FPRZHYEPZTNOKHOKZAQCJD8X2M3V2","A7TI4X4LRGQA0","3UAU495MIIEABANG75FBFHDC9WUUOI","","361","img/land2.png","76","362","3","1","false","2","1,0.5,0.5,0.5,1,0.5,0.5,0.5,1","",""
"","html-keyboard-response","224","132715","0.0-331.0","3FPRZHYEPZTNOKHOKZAQCJD8X2M3V2","A7TI4X4LRGQA0","3UAU495MIIEABANG75FBFHDC9WUUOI","","null","<img src=""img/land2.png"" style=""width:200px; border:14px solid green;"">","null","","","","","","","",""
"","image-keyboard-response","225","133149","0.0-333.0","3FPRZHYEPZTNOKHOKZAQCJD8X2M3V2","A7TI4X4LRGQA0","3UAU495MIIEABANG75FBFHDC9WUUOI","","432","img/land1.png","75","432","2","1","false","1","1,0.5,0.5,0.5,1,0.5,0.5,0.5,1","",""
"","html-keyboard-response","226","133452","0.0-334.0","3FPRZHYEPZTNOKHOKZAQCJD8X2M3V2","A7TI4X4LRGQA0","3UAU495MIIEABANG75FBFHDC9WUUOI","","null","<img src=""img/land1.png"" style=""width:200px; border:14px solid green;"">","null","","","","","","","",""
"","image-keyboard-response","227","133741","0.0-336.0","3FPRZHYEPZTNOKHOKZAQCJD8X2M3V2","A7TI4X4LRGQA0","3UAU495MIIEABANG75FBFHDC9WUUOI","","287","img/land1.png","75","289","2","1","false","1","1,0.5,0.5,0.5,1,0.5,0.5,0.5,1","",""
"","html-keyboard-response","228","134046","0.0-337.0","3FPRZHYEPZTNOKHOKZAQCJD8X2M3V2","A7TI4X4LRGQA0","3UAU495MIIEABANG75FBFHDC9WUUOI","","null","<img src=""img/land1.png"" style=""width:200px; border:14px solid green;"">","null","","","","","","","",""
"","image-keyboard-response","229","134582","0.0-339.0","3FPRZHYEPZTNOKHOKZAQCJD8X2M3V2","A7TI4X4LRGQA0","3UAU495MIIEABANG75FBFHDC9WUUOI","","534","img/land5.png","74","535","1","0","false","3","1,0.5,0.5,0.5,1,0.5,0.5,0.5,1","",""
"","html-keyboard-response","230","134884","0.0-340.0","3FPRZHYEPZTNOKHOKZAQCJD8X2M3V2","A7TI4X4LRGQA0","3UAU495MIIEABANG75FBFHDC9WUUOI","","null","<img src=""img/land5.png"" style=""width:200px;border:14px solid red;"">","null","","","","","","","",""
"","image-keyboard-response","231","135154","0.0-342.0","3FPRZHYEPZTNOKHOKZAQCJD8X2M3V2","A7TI4X4LRGQA0","3UAU495MIIEABANG75FBFHDC9WUUOI","","269","img/land5.png","75","270","2","0","false","3","1,0.5,0.5,0.5,1,0.5,0.5,0.5,1","",""
"","html-keyboard-response","232","135465","0.0-343.0","3FPRZHYEPZTNOKHOKZAQCJD8X2M3V2","A7TI4X4LRGQA0","3UAU495MIIEABANG75FBFHDC9WUUOI","","null","<img src=""img/land5.png"" style=""width:200px;border:14px solid red;"">","null","","","","","","","",""
"","image-keyboard-response","233","135557","0.0-345.0","3FPRZHYEPZTNOKHOKZAQCJD8X2M3V2","A7TI4X4LRGQA0","3UAU495MIIEABANG75FBFHDC9WUUOI","","90","img/land1.png","76","92","3","0","false","1","1,0.5,0.5,0.5,1,0.5,0.5,0.5,1","",""
"","html-keyboard-response","234","135858","0.0-346.0","3FPRZHYEPZTNOKHOKZAQCJD8X2M3V2","A7TI4X4LRGQA0","3UAU495MIIEABANG75FBFHDC9WUUOI","","null","<img src=""img/land1.png"" style=""width:200px;border:14px solid red;"">","null","","","","","","","",""
"","image-keyboard-response","235","136474","0.0-348.0","3FPRZHYEPZTNOKHOKZAQCJD8X2M3V2","A7TI4X4LRGQA0","3UAU495MIIEABANG75FBFHDC9WUUOI","","615","img/land5.png","76","615","3","1","false","3","1,0.5,0.5,0.5,1,0.5,0.5,0.5,1","",""
"","html-keyboard-response","236","136780","0.0-349.0","3FPRZHYEPZTNOKHOKZAQCJD8X2M3V2","A7TI4X4LRGQA0","3UAU495MIIEABANG75FBFHDC9WUUOI","","null","<img src=""img/land5.png"" style=""width:200px; border:14px solid green;"">","null","","","","","","","",""
"","image-keyboard-response","237","137415","0.0-351.0","3FPRZHYEPZTNOKHOKZAQCJD8X2M3V2","A7TI4X4LRGQA0","3UAU495MIIEABANG75FBFHDC9WUUOI","","634","img/land1.png","75","635","2","1","false","1","1,0.5,0.5,0.5,1,0.5,0.5,0.5,1","",""
"","html-keyboard-response","238","137721","0.0-352.0","3FPRZHYEPZTNOKHOKZAQCJD8X2M3V2","A7TI4X4LRGQA0","3UAU495MIIEABANG75FBFHDC9WUUOI","","null","<img src=""img/land1.png"" style=""width:200px; border:14px solid green;"">","null","","","","","","","",""
"","image-keyboard-response","239","138029","0.0-354.0","3FPRZHYEPZTNOKHOKZAQCJD8X2M3V2","A7TI4X4LRGQA0","3UAU495MIIEABANG75FBFHDC9WUUOI","","306","img/land1.png","75","308","2","0","false","1","1,0.5,0.5,0.5,1,0.5,0.5,0.5,1","",""
"","html-keyboard-response","240","138338","0.0-355.0","3FPRZHYEPZTNOKHOKZAQCJD8X2M3V2","A7TI4X4LRGQA0","3UAU495MIIEABANG75FBFHDC9WUUOI","","null","<img src=""img/land1.png"" style=""width:200px;border:14px solid red;"">","null","","","","","","","",""
"","image-keyboard-response","241","138919","0.0-357.0","3FPRZHYEPZTNOKHOKZAQCJD8X2M3V2","A7TI4X4LRGQA0","3UAU495MIIEABANG75FBFHDC9WUUOI","","579","img/land5.png","76","580","3","1","false","3","1,0.5,0.5,0.5,1,0.5,0.5,0.5,1","",""
"","html-keyboard-response","242","139223","0.0-358.0","3FPRZHYEPZTNOKHOKZAQCJD8X2M3V2","A7TI4X4LRGQA0","3UAU495MIIEABANG75FBFHDC9WUUOI","","null","<img src=""img/land5.png"" style=""width:200px; border:14px solid green;"">","null","","","","","","","",""
"","image-keyboard-response","243","139635","0.0-360.0","3FPRZHYEPZTNOKHOKZAQCJD8X2M3V2","A7TI4X4LRGQA0","3UAU495MIIEABANG75FBFHDC9WUUOI","","412","img/land1.png","74","412","1","1","false","1","1,0.5,0.5,0.5,1,0.5,0.5,0.5,1","",""
"","html-keyboard-response","244","139940","0.0-361.0","3FPRZHYEPZTNOKHOKZAQCJD8X2M3V2","A7TI4X4LRGQA0","3UAU495MIIEABANG75FBFHDC9WUUOI","","null","<img src=""img/land1.png"" style=""width:200px; border:14px solid green;"">","null","","","","","","","",""
"","image-keyboard-response","245","140678","0.0-363.0","3FPRZHYEPZTNOKHOKZAQCJD8X2M3V2","A7TI4X4LRGQA0","3UAU495MIIEABANG75FBFHDC9WUUOI","","738","img/land5.png","76","738","3","1","false","3","1,0.5,0.5,0.5,1,0.5,0.5,0.5,1","",""
"","html-keyboard-response","246","140993","0.0-364.0","3FPRZHYEPZTNOKHOKZAQCJD8X2M3V2","A7TI4X4LRGQA0","3UAU495MIIEABANG75FBFHDC9WUUOI","","null","<img src=""img/land5.png"" style=""width:200px; border:14px solid green;"">","null","","","","","","","",""
"","image-keyboard-response","247","141720","0.0-366.0","3FPRZHYEPZTNOKHOKZAQCJD8X2M3V2","A7TI4X4LRGQA0","3UAU495MIIEABANG75FBFHDC9WUUOI","","726","img/land2.png","75","727","2","1","false","2","1,0.5,0.5,0.5,1,0.5,0.5,0.5,1","",""
"","html-keyboard-response","248","142025","0.0-367.0","3FPRZHYEPZTNOKHOKZAQCJD8X2M3V2","A7TI4X4LRGQA0","3UAU495MIIEABANG75FBFHDC9WUUOI","","null","<img src=""img/land2.png"" style=""width:200px; border:14px solid green;"">","null","","","","","","","",""
"","image-keyboard-response","249","142420","0.0-369.0","3FPRZHYEPZTNOKHOKZAQCJD8X2M3V2","A7TI4X4LRGQA0","3UAU495MIIEABANG75FBFHDC9WUUOI","","393","img/land1.png","74","393","1","1","false","1","1,0.5,0.5,0.5,1,0.5,0.5,0.5,1","",""
"","html-keyboard-response","250","142722","0.0-370.0","3FPRZHYEPZTNOKHOKZAQCJD8X2M3V2","A7TI4X4LRGQA0","3UAU495MIIEABANG75FBFHDC9WUUOI","","null","<img src=""img/land1.png"" style=""width:200px; border:14px solid green;"">","null","","","","","","","",""
"","image-keyboard-response","251","143171","0.0-372.0","3FPRZHYEPZTNOKHOKZAQCJD8X2M3V2","A7TI4X4LRGQA0","3UAU495MIIEABANG75FBFHDC9WUUOI","","448","img/land2.png","76","448","3","0","false","2","1,0.5,0.5,0.5,1,0.5,0.5,0.5,1","",""
"","html-keyboard-response","252","143480","0.0-373.0","3FPRZHYEPZTNOKHOKZAQCJD8X2M3V2","A7TI4X4LRGQA0","3UAU495MIIEABANG75FBFHDC9WUUOI","","null","<img src=""img/land2.png"" style=""width:200px;border:14px solid red;"">","null","","","","","","","",""
"","image-keyboard-response","253","143702","0.0-375.0","3FPRZHYEPZTNOKHOKZAQCJD8X2M3V2","A7TI4X4LRGQA0","3UAU495MIIEABANG75FBFHDC9WUUOI","","221","img/land5.png","75","221","2","0","false","3","1,0.5,0.5,0.5,1,0.5,0.5,0.5,1","",""
"","html-keyboard-response","254","144008","0.0-376.0","3FPRZHYEPZTNOKHOKZAQCJD8X2M3V2","A7TI4X4LRGQA0","3UAU495MIIEABANG75FBFHDC9WUUOI","","null","<img src=""img/land5.png"" style=""width:200px;border:14px solid red;"">","null","","","","","","","",""
"","image-keyboard-response","255","144260","0.0-378.0","3FPRZHYEPZTNOKHOKZAQCJD8X2M3V2","A7TI4X4LRGQA0","3UAU495MIIEABANG75FBFHDC9WUUOI","","252","img/land2.png","74","252","1","0","false","2","1,0.5,0.5,0.5,1,0.5,0.5,0.5,1","",""
"","html-keyboard-response","256","144572","0.0-379.0","3FPRZHYEPZTNOKHOKZAQCJD8X2M3V2","A7TI4X4LRGQA0","3UAU495MIIEABANG75FBFHDC9WUUOI","","null","<img src=""img/land2.png"" style=""width:200px;border:14px solid red;"">","null","","","","","","","",""
"","image-keyboard-response","257","145273","0.0-381.0","3FPRZHYEPZTNOKHOKZAQCJD8X2M3V2","A7TI4X4LRGQA0","3UAU495MIIEABANG75FBFHDC9WUUOI","","700","img/land5.png","76","701","3","1","false","3","1,0.5,0.5,0.5,1,0.5,0.5,0.5,1","",""
"","html-keyboard-response","258","145580","0.0-382.0","3FPRZHYEPZTNOKHOKZAQCJD8X2M3V2","A7TI4X4LRGQA0","3UAU495MIIEABANG75FBFHDC9WUUOI","","null","<img src=""img/land5.png"" style=""width:200px; border:14px solid green;"">","null","","","","","","","",""
"","image-keyboard-response","259","146087","0.0-384.0","3FPRZHYEPZTNOKHOKZAQCJD8X2M3V2","A7TI4X4LRGQA0","3UAU495MIIEABANG75FBFHDC9WUUOI","","507","img/land1.png","75","507","2","1","false","1","1,0.5,0.5,0.5,1,0.5,0.5,0.5,1","",""
"","html-keyboard-response","260","146395","0.0-385.0","3FPRZHYEPZTNOKHOKZAQCJD8X2M3V2","A7TI4X4LRGQA0","3UAU495MIIEABANG75FBFHDC9WUUOI","","null","<img src=""img/land1.png"" style=""width:200px; border:14px solid green;"">","null","","","","","","","",""
"","image-keyboard-response","261","146803","0.0-387.0","3FPRZHYEPZTNOKHOKZAQCJD8X2M3V2","A7TI4X4LRGQA0","3UAU495MIIEABANG75FBFHDC9WUUOI","","408","img/land5.png","76","408","3","1","false","3","1,0.5,0.5,0.5,1,0.5,0.5,0.5,1","",""
"","html-keyboard-response","262","147107","0.0-388.0","3FPRZHYEPZTNOKHOKZAQCJD8X2M3V2","A7TI4X4LRGQA0","3UAU495MIIEABANG75FBFHDC9WUUOI","","null","<img src=""img/land5.png"" style=""width:200px; border:14px solid green;"">","null","","","","","","","",""
"","image-keyboard-response","263","147480","0.0-390.0","3FPRZHYEPZTNOKHOKZAQCJD8X2M3V2","A7TI4X4LRGQA0","3UAU495MIIEABANG75FBFHDC9WUUOI","","372","img/land1.png","75","372","2","1","false","1","1,0.5,0.5,0.5,1,0.5,0.5,0.5,1","",""
"","html-keyboard-response","264","147783","0.0-391.0","3FPRZHYEPZTNOKHOKZAQCJD8X2M3V2","A7TI4X4LRGQA0","3UAU495MIIEABANG75FBFHDC9WUUOI","","null","<img src=""img/land1.png"" style=""width:200px; border:14px solid green;"">","null","","","","","","","",""
"","image-keyboard-response","265","148192","0.0-393.0","3FPRZHYEPZTNOKHOKZAQCJD8X2M3V2","A7TI4X4LRGQA0","3UAU495MIIEABANG75FBFHDC9WUUOI","","409","img/land1.png","76","410","3","0","false","1","1,0.5,0.5,0.5,1,0.5,0.5,0.5,1","",""
"","html-keyboard-response","266","148503","0.0-394.0","3FPRZHYEPZTNOKHOKZAQCJD8X2M3V2","A7TI4X4LRGQA0","3UAU495MIIEABANG75FBFHDC9WUUOI","","null","<img src=""img/land1.png"" style=""width:200px;border:14px solid red;"">","null","","","","","","","",""
"","image-keyboard-response","267","148911","0.0-396.0","3FPRZHYEPZTNOKHOKZAQCJD8X2M3V2","A7TI4X4LRGQA0","3UAU495MIIEABANG75FBFHDC9WUUOI","","407","img/land1.png","75","408","2","0","false","1","1,0.5,0.5,0.5,1,0.5,0.5,0.5,1","",""
"","html-keyboard-response","268","149218","0.0-397.0","3FPRZHYEPZTNOKHOKZAQCJD8X2M3V2","A7TI4X4LRGQA0","3UAU495MIIEABANG75FBFHDC9WUUOI","","null","<img src=""img/land1.png"" style=""width:200px;border:14px solid red;"">","null","","","","","","","",""
"","image-keyboard-response","269","150044","0.0-399.0","3FPRZHYEPZTNOKHOKZAQCJD8X2M3V2","A7TI4X4LRGQA0","3UAU495MIIEABANG75FBFHDC9WUUOI","","826","img/land5.png","76","826","3","1","false","3","1,0.5,0.5,0.5,1,0.5,0.5,0.5,1","",""
"","html-keyboard-response","270","150351","0.0-400.0","3FPRZHYEPZTNOKHOKZAQCJD8X2M3V2","A7TI4X4LRGQA0","3UAU495MIIEABANG75FBFHDC9WUUOI","","null","<img src=""img/land5.png"" style=""width:200px; border:14px solid green;"">","null","","","","","","","",""
"","image-keyboard-response","271","150711","0.0-402.0","3FPRZHYEPZTNOKHOKZAQCJD8X2M3V2","A7TI4X4LRGQA0","3UAU495MIIEABANG75FBFHDC9WUUOI","","360","img/land1.png","74","360","1","1","false","1","1,0.5,0.5,0.5,1,0.5,0.5,0.5,1","",""
"","html-keyboard-response","272","151015","0.0-403.0","3FPRZHYEPZTNOKHOKZAQCJD8X2M3V2","A7TI4X4LRGQA0","3UAU495MIIEABANG75FBFHDC9WUUOI","","null","<img src=""img/land1.png"" style=""width:200px; border:14px solid green;"">","null","","","","","","","",""
"","image-keyboard-response","273","151503","0.0-405.0","3FPRZHYEPZTNOKHOKZAQCJD8X2M3V2","A7TI4X4LRGQA0","3UAU495MIIEABANG75FBFHDC9WUUOI","","488","img/land5.png","76","488","3","1","false","3","1,0.5,0.5,0.5,1,0.5,0.5,0.5,1","",""
"","html-keyboard-response","274","151809","0.0-406.0","3FPRZHYEPZTNOKHOKZAQCJD8X2M3V2","A7TI4X4LRGQA0","3UAU495MIIEABANG75FBFHDC9WUUOI","","null","<img src=""img/land5.png"" style=""width:200px; border:14px solid green;"">","null","","","","","","","",""
"","image-keyboard-response","275","152168","0.0-408.0","3FPRZHYEPZTNOKHOKZAQCJD8X2M3V2","A7TI4X4LRGQA0","3UAU495MIIEABANG75FBFHDC9WUUOI","","358","img/land1.png","74","359","1","1","false","1","1,0.5,0.5,0.5,1,0.5,0.5,0.5,1","",""
"","html-keyboard-response","276","152473","0.0-409.0","3FPRZHYEPZTNOKHOKZAQCJD8X2M3V2","A7TI4X4LRGQA0","3UAU495MIIEABANG75FBFHDC9WUUOI","","null","<img src=""img/land1.png"" style=""width:200px; border:14px solid green;"">","null","","","","","","","",""
"","image-keyboard-response","277","152798","0.0-411.0","3FPRZHYEPZTNOKHOKZAQCJD8X2M3V2","A7TI4X4LRGQA0","3UAU495MIIEABANG75FBFHDC9WUUOI","","324","img/land1.png","74","324","1","1","false","1","1,0.5,0.5,0.5,1,0.5,0.5,0.5,1","",""
"","html-keyboard-response","278","153100","0.0-412.0","3FPRZHYEPZTNOKHOKZAQCJD8X2M3V2","A7TI4X4LRGQA0","3UAU495MIIEABANG75FBFHDC9WUUOI","","null","<img src=""img/land1.png"" style=""width:200px; border:14px solid green;"">","null","","","","","","","",""
"","image-keyboard-response","279","153370","0.0-414.0","3FPRZHYEPZTNOKHOKZAQCJD8X2M3V2","A7TI4X4LRGQA0","3UAU495MIIEABANG75FBFHDC9WUUOI","","269","img/land1.png","74","271","1","1","false","1","1,0.5,0.5,0.5,1,0.5,0.5,0.5,1","",""
"","html-keyboard-response","280","153678","0.0-415.0","3FPRZHYEPZTNOKHOKZAQCJD8X2M3V2","A7TI4X4LRGQA0","3UAU495MIIEABANG75FBFHDC9WUUOI","","null","<img src=""img/land1.png"" style=""width:200px; border:14px solid green;"">","null","","","","","","","",""
"","image-keyboard-response","281","154196","0.0-417.0","3FPRZHYEPZTNOKHOKZAQCJD8X2M3V2","A7TI4X4LRGQA0","3UAU495MIIEABANG75FBFHDC9WUUOI","","518","img/land2.png","75","518","2","1","false","2","1,0.5,0.5,0.5,1,0.5,0.5,0.5,1","",""
"","html-keyboard-response","282","154504","0.0-418.0","3FPRZHYEPZTNOKHOKZAQCJD8X2M3V2","A7TI4X4LRGQA0","3UAU495MIIEABANG75FBFHDC9WUUOI","","null","<img src=""img/land2.png"" style=""width:200px; border:14px solid green;"">","null","","","","","","","",""
"","image-keyboard-response","283","154846","0.0-420.0","3FPRZHYEPZTNOKHOKZAQCJD8X2M3V2","A7TI4X4LRGQA0","3UAU495MIIEABANG75FBFHDC9WUUOI","","341","img/land2.png","75","342","2","1","false","2","1,0.5,0.5,0.5,1,0.5,0.5,0.5,1","",""
"","html-keyboard-response","284","155160","0.0-421.0","3FPRZHYEPZTNOKHOKZAQCJD8X2M3V2","A7TI4X4LRGQA0","3UAU495MIIEABANG75FBFHDC9WUUOI","","null","<img src=""img/land2.png"" style=""width:200px; border:14px solid green;"">","null","","","","","","","",""
"","image-keyboard-response","285","155607","0.0-423.0","3FPRZHYEPZTNOKHOKZAQCJD8X2M3V2","A7TI4X4LRGQA0","3UAU495MIIEABANG75FBFHDC9WUUOI","","446","img/land5.png","76","447","3","1","false","3","1,0.5,0.5,0.5,1,0.5,0.5,0.5,1","",""
"","html-keyboard-response","286","155915","0.0-424.0","3FPRZHYEPZTNOKHOKZAQCJD8X2M3V2","A7TI4X4LRGQA0","3UAU495MIIEABANG75FBFHDC9WUUOI","","null","<img src=""img/land5.png"" style=""width:200px; border:14px solid green;"">","null","","","","","","","",""
"","image-keyboard-response","287","156204","0.0-426.0","3FPRZHYEPZTNOKHOKZAQCJD8X2M3V2","A7TI4X4LRGQA0","3UAU495MIIEABANG75FBFHDC9WUUOI","","289","img/land5.png","76","289","3","1","false","3","1,0.5,0.5,0.5,1,0.5,0.5,0.5,1","",""
"","html-keyboard-response","288","156515","0.0-427.0","3FPRZHYEPZTNOKHOKZAQCJD8X2M3V2","A7TI4X4LRGQA0","3UAU495MIIEABANG75FBFHDC9WUUOI","","null","<img src=""img/land5.png"" style=""width:200px; border:14px solid green;"">","null","","","","","","","",""
"","image-keyboard-response","289","156894","0.0-429.0","3FPRZHYEPZTNOKHOKZAQCJD8X2M3V2","A7TI4X4LRGQA0","3UAU495MIIEABANG75FBFHDC9WUUOI","","376","img/land1.png","75","377","2","0","false","1","1,0.5,0.5,0.5,1,0.5,0.5,0.5,1","",""
"","html-keyboard-response","290","157203","0.0-430.0","3FPRZHYEPZTNOKHOKZAQCJD8X2M3V2","A7TI4X4LRGQA0","3UAU495MIIEABANG75FBFHDC9WUUOI","","null","<img src=""img/land1.png"" style=""width:200px;border:14px solid red;"">","null","","","","","","","",""
"","image-keyboard-response","291","157276","0.0-432.0","3FPRZHYEPZTNOKHOKZAQCJD8X2M3V2","A7TI4X4LRGQA0","3UAU495MIIEABANG75FBFHDC9WUUOI","","73","img/land2.png","74","73","1","1","false","2","1,0.5,0.5,0.5,1,0.5,0.5,0.5,1","",""
"","html-keyboard-response","292","157610","0.0-433.0","3FPRZHYEPZTNOKHOKZAQCJD8X2M3V2","A7TI4X4LRGQA0","3UAU495MIIEABANG75FBFHDC9WUUOI","","null","<img src=""img/land2.png"" style=""width:200px; border:14px solid green;"">","null","","","","","","","",""
"","image-keyboard-response","293","158064","0.0-435.0","3FPRZHYEPZTNOKHOKZAQCJD8X2M3V2","A7TI4X4LRGQA0","3UAU495MIIEABANG75FBFHDC9WUUOI","","453","img/land2.png","75","453","2","1","false","2","1,0.5,0.5,0.5,1,0.5,0.5,0.5,1","",""
"","html-keyboard-response","294","158364","0.0-436.0","3FPRZHYEPZTNOKHOKZAQCJD8X2M3V2","A7TI4X4LRGQA0","3UAU495MIIEABANG75FBFHDC9WUUOI","","null","<img src=""img/land2.png"" style=""width:200px; border:14px solid green;"">","null","","","","","","","",""
"","image-keyboard-response","295","158816","0.0-438.0","3FPRZHYEPZTNOKHOKZAQCJD8X2M3V2","A7TI4X4LRGQA0","3UAU495MIIEABANG75FBFHDC9WUUOI","","450","img/land5.png","76","452","3","1","false","3","1,0.5,0.5,0.5,1,0.5,0.5,0.5,1","",""
"","html-keyboard-response","296","159123","0.0-439.0","3FPRZHYEPZTNOKHOKZAQCJD8X2M3V2","A7TI4X4LRGQA0","3UAU495MIIEABANG75FBFHDC9WUUOI","","null","<img src=""img/land5.png"" style=""width:200px; border:14px solid green;"">","null","","","","","","","",""
"","image-keyboard-response","297","159410","0.0-441.0","3FPRZHYEPZTNOKHOKZAQCJD8X2M3V2","A7TI4X4LRGQA0","3UAU495MIIEABANG75FBFHDC9WUUOI","","285","img/land5.png","76","287","3","1","false","3","1,0.5,0.5,0.5,1,0.5,0.5,0.5,1","",""
"","html-keyboard-response","298","159715","0.0-442.0","3FPRZHYEPZTNOKHOKZAQCJD8X2M3V2","A7TI4X4LRGQA0","3UAU495MIIEABANG75FBFHDC9WUUOI","","null","<img src=""img/land5.png"" style=""width:200px; border:14px solid green;"">","null","","","","","","","",""
"","image-keyboard-response","299","160211","0.0-444.0","3FPRZHYEPZTNOKHOKZAQCJD8X2M3V2","A7TI4X4LRGQA0","3UAU495MIIEABANG75FBFHDC9WUUOI","","496","img/land1.png","74","496","1","1","false","1","1,0.5,0.5,0.5,1,0.5,0.5,0.5,1","",""
"","html-keyboard-response","300","160514","0.0-445.0","3FPRZHYEPZTNOKHOKZAQCJD8X2M3V2","A7TI4X4LRGQA0","3UAU495MIIEABANG75FBFHDC9WUUOI","","null","<img src=""img/land1.png"" style=""width:200px; border:14px solid green;"">","null","","","","","","","",""
"","image-keyboard-response","301","160832","0.0-447.0","3FPRZHYEPZTNOKHOKZAQCJD8X2M3V2","A7TI4X4LRGQA0","3UAU495MIIEABANG75FBFHDC9WUUOI","","318","img/land1.png","74","318","1","1","false","1","1,0.5,0.5,0.5,1,0.5,0.5,0.5,1","",""
"","html-keyboard-response","302","161143","0.0-448.0","3FPRZHYEPZTNOKHOKZAQCJD8X2M3V2","A7TI4X4LRGQA0","3UAU495MIIEABANG75FBFHDC9WUUOI","","null","<img src=""img/land1.png"" style=""width:200px; border:14px solid green;"">","null","","","","","","","",""
"","image-keyboard-response","303","161552","0.0-450.0","3FPRZHYEPZTNOKHOKZAQCJD8X2M3V2","A7TI4X4LRGQA0","3UAU495MIIEABANG75FBFHDC9WUUOI","","409","img/land5.png","75","409","2","0","false","3","1,0.5,0.5,0.5,1,0.5,0.5,0.5,1","",""
"","html-keyboard-response","304","161854","0.0-451.0","3FPRZHYEPZTNOKHOKZAQCJD8X2M3V2","A7TI4X4LRGQA0","3UAU495MIIEABANG75FBFHDC9WUUOI","","null","<img src=""img/land5.png"" style=""width:200px;border:14px solid red;"">","null","","","","","","","",""
"","image-keyboard-response","305","161964","0.0-453.0","3FPRZHYEPZTNOKHOKZAQCJD8X2M3V2","A7TI4X4LRGQA0","3UAU495MIIEABANG75FBFHDC9WUUOI","","110","img/land5.png","76","110","3","1","false","3","1,0.5,0.5,0.5,1,0.5,0.5,0.5,1","",""
"","html-keyboard-response","306","162268","0.0-454.0","3FPRZHYEPZTNOKHOKZAQCJD8X2M3V2","A7TI4X4LRGQA0","3UAU495MIIEABANG75FBFHDC9WUUOI","","null","<img src=""img/land5.png"" style=""width:200px; border:14px solid green;"">","null","","","","","","","",""
"","image-keyboard-response","307","162943","0.0-456.0","3FPRZHYEPZTNOKHOKZAQCJD8X2M3V2","A7TI4X4LRGQA0","3UAU495MIIEABANG75FBFHDC9WUUOI","","675","img/land1.png","74","675","1","1","false","1","1,0.5,0.5,0.5,1,0.5,0.5,0.5,1","",""
"","html-keyboard-response","308","163280","0.0-457.0","3FPRZHYEPZTNOKHOKZAQCJD8X2M3V2","A7TI4X4LRGQA0","3UAU495MIIEABANG75FBFHDC9WUUOI","","null","<img src=""img/land1.png"" style=""width:200px; border:14px solid green;"">","null","","","","","","","",""
"","image-keyboard-response","309","163665","0.0-459.0","3FPRZHYEPZTNOKHOKZAQCJD8X2M3V2","A7TI4X4LRGQA0","3UAU495MIIEABANG75FBFHDC9WUUOI","","384","img/land5.png","76","384","3","1","false","3","1,0.5,0.5,0.5,1,0.5,0.5,0.5,1","",""
"","html-keyboard-response","310","163977","0.0-460.0","3FPRZHYEPZTNOKHOKZAQCJD8X2M3V2","A7TI4X4LRGQA0","3UAU495MIIEABANG75FBFHDC9WUUOI","","null","<img src=""img/land5.png"" style=""width:200px; border:14px solid green;"">","null","","","","","","","",""
"","image-keyboard-response","311","164506","0.0-462.0","3FPRZHYEPZTNOKHOKZAQCJD8X2M3V2","A7TI4X4LRGQA0","3UAU495MIIEABANG75FBFHDC9WUUOI","","528","img/land2.png","75","528","2","1","false","2","1,0.5,0.5,0.5,1,0.5,0.5,0.5,1","",""
"","html-keyboard-response","312","164818","0.0-463.0","3FPRZHYEPZTNOKHOKZAQCJD8X2M3V2","A7TI4X4LRGQA0","3UAU495MIIEABANG75FBFHDC9WUUOI","","null","<img src=""img/land2.png"" style=""width:200px; border:14px solid green;"">","null","","","","","","","",""
"","image-keyboard-response","313","165173","0.0-465.0","3FPRZHYEPZTNOKHOKZAQCJD8X2M3V2","A7TI4X4LRGQA0","3UAU495MIIEABANG75FBFHDC9WUUOI","","353","img/land1.png","76","354","3","0","false","1","1,0.5,0.5,0.5,1,0.5,0.5,0.5,1","",""
"","html-keyboard-response","314","165487","0.0-466.0","3FPRZHYEPZTNOKHOKZAQCJD8X2M3V2","A7TI4X4LRGQA0","3UAU495MIIEABANG75FBFHDC9WUUOI","","null","<img src=""img/land1.png"" style=""width:200px;border:14px solid red;"">","null","","","","","","","",""
"","image-keyboard-response","315","165846","0.0-468.0","3FPRZHYEPZTNOKHOKZAQCJD8X2M3V2","A7TI4X4LRGQA0","3UAU495MIIEABANG75FBFHDC9WUUOI","","358","img/land5.png","74","359","1","1","false","3","1,0.5,0.5,0.5,1,0.5,0.5,0.5,1","",""
"","html-keyboard-response","316","166152","0.0-469.0","3FPRZHYEPZTNOKHOKZAQCJD8X2M3V2","A7TI4X4LRGQA0","3UAU495MIIEABANG75FBFHDC9WUUOI","","null","<img src=""img/land5.png"" style=""width:200px; border:14px solid green;"">","null","","","","","","","",""
"","image-keyboard-response","317","167049","0.0-471.0","3FPRZHYEPZTNOKHOKZAQCJD8X2M3V2","A7TI4X4LRGQA0","3UAU495MIIEABANG75FBFHDC9WUUOI","","897","img/land2.png","76","898","3","1","false","2","1,0.5,0.5,0.5,1,0.5,0.5,0.5,1","",""
"","html-keyboard-response","318","167363","0.0-472.0","3FPRZHYEPZTNOKHOKZAQCJD8X2M3V2","A7TI4X4LRGQA0","3UAU495MIIEABANG75FBFHDC9WUUOI","","null","<img src=""img/land2.png"" style=""width:200px; border:14px solid green;"">","null","","","","","","","",""
"","image-keyboard-response","319","167656","0.0-474.0","3FPRZHYEPZTNOKHOKZAQCJD8X2M3V2","A7TI4X4LRGQA0","3UAU495MIIEABANG75FBFHDC9WUUOI","","292","img/land1.png","75","293","2","1","false","1","1,0.5,0.5,0.5,1,0.5,0.5,0.5,1","",""
"","html-keyboard-response","320","167965","0.0-475.0","3FPRZHYEPZTNOKHOKZAQCJD8X2M3V2","A7TI4X4LRGQA0","3UAU495MIIEABANG75FBFHDC9WUUOI","","null","<img src=""img/land1.png"" style=""width:200px; border:14px solid green;"">","null","","","","","","","",""
"","image-keyboard-response","321","168223","0.0-477.0","3FPRZHYEPZTNOKHOKZAQCJD8X2M3V2","A7TI4X4LRGQA0","3UAU495MIIEABANG75FBFHDC9WUUOI","","257","img/land2.png","74","258","1","1","false","2","1,0.5,0.5,0.5,1,0.5,0.5,0.5,1","",""
"","html-keyboard-response","322","168534","0.0-478.0","3FPRZHYEPZTNOKHOKZAQCJD8X2M3V2","A7TI4X4LRGQA0","3UAU495MIIEABANG75FBFHDC9WUUOI","","null","<img src=""img/land2.png"" style=""width:200px; border:14px solid green;"">","null","","","","","","","",""
"","image-keyboard-response","323","169120","0.0-480.0","3FPRZHYEPZTNOKHOKZAQCJD8X2M3V2","A7TI4X4LRGQA0","3UAU495MIIEABANG75FBFHDC9WUUOI","","585","img/land1.png","74","585","1","1","false","1","1,0.5,0.5,0.5,1,0.5,0.5,0.5,1","",""
"","html-keyboard-response","324","169432","0.0-481.0","3FPRZHYEPZTNOKHOKZAQCJD8X2M3V2","A7TI4X4LRGQA0","3UAU495MIIEABANG75FBFHDC9WUUOI","","null","<img src=""img/land1.png"" style=""width:200px; border:14px solid green;"">","null","","","","","","","",""
"","image-keyboard-response","325","169869","0.0-483.0","3FPRZHYEPZTNOKHOKZAQCJD8X2M3V2","A7TI4X4LRGQA0","3UAU495MIIEABANG75FBFHDC9WUUOI","","436","img/land2.png","76","436","3","0","false","2","1,0.5,0.5,0.5,1,0.5,0.5,0.5,1","",""
"","html-keyboard-response","326","170178","0.0-484.0","3FPRZHYEPZTNOKHOKZAQCJD8X2M3V2","A7TI4X4LRGQA0","3UAU495MIIEABANG75FBFHDC9WUUOI","","null","<img src=""img/land2.png"" style=""width:200px;border:14px solid red;"">","null","","","","","","","",""
"","image-keyboard-response","327","170804","0.0-486.0","3FPRZHYEPZTNOKHOKZAQCJD8X2M3V2","A7TI4X4LRGQA0","3UAU495MIIEABANG75FBFHDC9WUUOI","","626","img/land1.png","74","626","1","1","false","1","1,0.5,0.5,0.5,1,0.5,0.5,0.5,1","",""
"","html-keyboard-response","328","171116","0.0-487.0","3FPRZHYEPZTNOKHOKZAQCJD8X2M3V2","A7TI4X4LRGQA0","3UAU495MIIEABANG75FBFHDC9WUUOI","","null","<img src=""img/land1.png"" style=""width:200px; border:14px solid green;"">","null","","","","","","","",""
"","image-keyboard-response","329","171637","0.0-489.0","3FPRZHYEPZTNOKHOKZAQCJD8X2M3V2","A7TI4X4LRGQA0","3UAU495MIIEABANG75FBFHDC9WUUOI","","521","img/land5.png","76","521","3","1","false","3","1,0.5,0.5,0.5,1,0.5,0.5,0.5,1","",""
"","html-keyboard-response","330","171946","0.0-490.0","3FPRZHYEPZTNOKHOKZAQCJD8X2M3V2","A7TI4X4LRGQA0","3UAU495MIIEABANG75FBFHDC9WUUOI","","null","<img src=""img/land5.png"" style=""width:200px; border:14px solid green;"">","null","","","","","","","",""
"","image-keyboard-response","331","172418","0.0-492.0","3FPRZHYEPZTNOKHOKZAQCJD8X2M3V2","A7TI4X4LRGQA0","3UAU495MIIEABANG75FBFHDC9WUUOI","","471","img/land2.png","75","471","2","1","false","2","1,0.5,0.5,0.5,1,0.5,0.5,0.5,1","",""
"","html-keyboard-response","332","172720","0.0-493.0","3FPRZHYEPZTNOKHOKZAQCJD8X2M3V2","A7TI4X4LRGQA0","3UAU495MIIEABANG75FBFHDC9WUUOI","","null","<img src=""img/land2.png"" style=""width:200px; border:14px solid green;"">","null","","","","","","","",""
"","image-keyboard-response","333","173141","0.0-495.0","3FPRZHYEPZTNOKHOKZAQCJD8X2M3V2","A7TI4X4LRGQA0","3UAU495MIIEABANG75FBFHDC9WUUOI","","421","img/land1.png","74","421","1","1","false","1","1,0.5,0.5,0.5,1,0.5,0.5,0.5,1","",""
"","html-keyboard-response","334","173447","0.0-496.0","3FPRZHYEPZTNOKHOKZAQCJD8X2M3V2","A7TI4X4LRGQA0","3UAU495MIIEABANG75FBFHDC9WUUOI","","null","<img src=""img/land1.png"" style=""width:200px; border:14px solid green;"">","null","","","","","","","",""
"","image-keyboard-response","335","173965","0.0-498.0","3FPRZHYEPZTNOKHOKZAQCJD8X2M3V2","A7TI4X4LRGQA0","3UAU495MIIEABANG75FBFHDC9WUUOI","","517","img/land1.png","74","517","1","1","false","1","1,0.5,0.5,0.5,1,0.5,0.5,0.5,1","",""
"","html-keyboard-response","336","174277","0.0-499.0","3FPRZHYEPZTNOKHOKZAQCJD8X2M3V2","A7TI4X4LRGQA0","3UAU495MIIEABANG75FBFHDC9WUUOI","","null","<img src=""img/land1.png"" style=""width:200px; border:14px solid green;"">","null","","","","","","","",""
"","image-keyboard-response","337","174699","0.0-501.0","3FPRZHYEPZTNOKHOKZAQCJD8X2M3V2","A7TI4X4LRGQA0","3UAU495MIIEABANG75FBFHDC9WUUOI","","422","img/land2.png","75","422","2","1","false","2","1,0.5,0.5,0.5,1,0.5,0.5,0.5,1","",""
"","html-keyboard-response","338","175001","0.0-502.0","3FPRZHYEPZTNOKHOKZAQCJD8X2M3V2","A7TI4X4LRGQA0","3UAU495MIIEABANG75FBFHDC9WUUOI","","null","<img src=""img/land2.png"" style=""width:200px; border:14px solid green;"">","null","","","","","","","",""
"","image-keyboard-response","339","175302","0.0-504.0","3FPRZHYEPZTNOKHOKZAQCJD8X2M3V2","A7TI4X4LRGQA0","3UAU495MIIEABANG75FBFHDC9WUUOI","","299","img/land1.png","74","299","1","1","false","1","1,0.5,0.5,0.5,1,0.5,0.5,0.5,1","",""
"","html-keyboard-response","340","175616","0.0-505.0","3FPRZHYEPZTNOKHOKZAQCJD8X2M3V2","A7TI4X4LRGQA0","3UAU495MIIEABANG75FBFHDC9WUUOI","","null","<img src=""img/land1.png"" style=""width:200px; border:14px solid green;"">","null","","","","","","","",""
"","image-keyboard-response","341","175860","0.0-507.0","3FPRZHYEPZTNOKHOKZAQCJD8X2M3V2","A7TI4X4LRGQA0","3UAU495MIIEABANG75FBFHDC9WUUOI","","243","img/land5.png","75","243","2","1","false","3","1,0.5,0.5,0.5,1,0.5,0.5,0.5,1","",""
"","html-keyboard-response","342","176168","0.0-508.0","3FPRZHYEPZTNOKHOKZAQCJD8X2M3V2","A7TI4X4LRGQA0","3UAU495MIIEABANG75FBFHDC9WUUOI","","null","<img src=""img/land5.png"" style=""width:200px; border:14px solid green;"">","null","","","","","","","",""
"","image-keyboard-response","343","176500","0.0-510.0","3FPRZHYEPZTNOKHOKZAQCJD8X2M3V2","A7TI4X4LRGQA0","3UAU495MIIEABANG75FBFHDC9WUUOI","","331","img/land2.png","76","331","3","0","false","2","1,0.5,0.5,0.5,1,0.5,0.5,0.5,1","",""
"","html-keyboard-response","344","176807","0.0-511.0","3FPRZHYEPZTNOKHOKZAQCJD8X2M3V2","A7TI4X4LRGQA0","3UAU495MIIEABANG75FBFHDC9WUUOI","","null","<img src=""img/land2.png"" style=""width:200px;border:14px solid red;"">","null","","","","","","","",""
"","image-keyboard-response","345","177528","0.0-513.0","3FPRZHYEPZTNOKHOKZAQCJD8X2M3V2","A7TI4X4LRGQA0","3UAU495MIIEABANG75FBFHDC9WUUOI","","721","img/land5.png","76","721","3","1","false","3","1,0.5,0.5,0.5,1,0.5,0.5,0.5,1","",""
"","html-keyboard-response","346","177841","0.0-514.0","3FPRZHYEPZTNOKHOKZAQCJD8X2M3V2","A7TI4X4LRGQA0","3UAU495MIIEABANG75FBFHDC9WUUOI","","null","<img src=""img/land5.png"" style=""width:200px; border:14px solid green;"">","null","","","","","","","",""
"","image-keyboard-response","347","178268","0.0-516.0","3FPRZHYEPZTNOKHOKZAQCJD8X2M3V2","A7TI4X4LRGQA0","3UAU495MIIEABANG75FBFHDC9WUUOI","","426","img/land2.png","75","426","2","1","false","2","1,0.5,0.5,0.5,1,0.5,0.5,0.5,1","",""
"","html-keyboard-response","348","178577","0.0-517.0","3FPRZHYEPZTNOKHOKZAQCJD8X2M3V2","A7TI4X4LRGQA0","3UAU495MIIEABANG75FBFHDC9WUUOI","","null","<img src=""img/land2.png"" style=""width:200px; border:14px solid green;"">","null","","","","","","","",""
"","image-keyboard-response","349","179060","0.0-519.0","3FPRZHYEPZTNOKHOKZAQCJD8X2M3V2","A7TI4X4LRGQA0","3UAU495MIIEABANG75FBFHDC9WUUOI","","482","img/land5.png","76","483","3","1","false","3","1,0.5,0.5,0.5,1,0.5,0.5,0.5,1","",""
"","html-keyboard-response","350","179374","0.0-520.0","3FPRZHYEPZTNOKHOKZAQCJD8X2M3V2","A7TI4X4LRGQA0","3UAU495MIIEABANG75FBFHDC9WUUOI","","null","<img src=""img/land5.png"" style=""width:200px; border:14px solid green;"">","null","","","","","","","",""
"","image-keyboard-response","351","179730","0.0-522.0","3FPRZHYEPZTNOKHOKZAQCJD8X2M3V2","A7TI4X4LRGQA0","3UAU495MIIEABANG75FBFHDC9WUUOI","","355","img/land5.png","76","355","3","1","false","3","1,0.5,0.5,0.5,1,0.5,0.5,0.5,1","",""
"","html-keyboard-response","352","180043","0.0-523.0","3FPRZHYEPZTNOKHOKZAQCJD8X2M3V2","A7TI4X4LRGQA0","3UAU495MIIEABANG75FBFHDC9WUUOI","","null","<img src=""img/land5.png"" style=""width:200px; border:14px solid green;"">","null","","","","","","","",""
"","image-keyboard-response","353","180658","0.0-525.0","3FPRZHYEPZTNOKHOKZAQCJD8X2M3V2","A7TI4X4LRGQA0","3UAU495MIIEABANG75FBFHDC9WUUOI","","614","img/land2.png","75","616","2","1","false","2","1,0.5,0.5,0.5,1,0.5,0.5,0.5,1","",""
"","html-keyboard-response","354","180963","0.0-526.0","3FPRZHYEPZTNOKHOKZAQCJD8X2M3V2","A7TI4X4LRGQA0","3UAU495MIIEABANG75FBFHDC9WUUOI","","null","<img src=""img/land2.png"" style=""width:200px; border:14px solid green;"">","null","","","","","","","",""
"","image-keyboard-response","355","181302","0.0-528.0","3FPRZHYEPZTNOKHOKZAQCJD8X2M3V2","A7TI4X4LRGQA0","3UAU495MIIEABANG75FBFHDC9WUUOI","","338","img/land5.png","75","339","2","1","false","3","1,0.5,0.5,0.5,1,0.5,0.5,0.5,1","",""
"","html-keyboard-response","356","181608","0.0-529.0","3FPRZHYEPZTNOKHOKZAQCJD8X2M3V2","A7TI4X4LRGQA0","3UAU495MIIEABANG75FBFHDC9WUUOI","","null","<img src=""img/land5.png"" style=""width:200px; border:14px solid green;"">","null","","","","","","","",""
"","image-keyboard-response","357","182356","0.0-531.0","3FPRZHYEPZTNOKHOKZAQCJD8X2M3V2","A7TI4X4LRGQA0","3UAU495MIIEABANG75FBFHDC9WUUOI","","747","img/land2.png","76","747","3","0","false","2","1,0.5,0.5,0.5,1,0.5,0.5,0.5,1","",""
"","html-keyboard-response","358","182662","0.0-532.0","3FPRZHYEPZTNOKHOKZAQCJD8X2M3V2","A7TI4X4LRGQA0","3UAU495MIIEABANG75FBFHDC9WUUOI","","null","<img src=""img/land2.png"" style=""width:200px;border:14px solid red;"">","null","","","","","","","",""
"","image-keyboard-response","359","183005","0.0-534.0","3FPRZHYEPZTNOKHOKZAQCJD8X2M3V2","A7TI4X4LRGQA0","3UAU495MIIEABANG75FBFHDC9WUUOI","","343","img/land2.png","75","344","2","1","false","2","1,0.5,0.5,0.5,1,0.5,0.5,0.5,1","",""
"","html-keyboard-response","360","183307","0.0-535.0","3FPRZHYEPZTNOKHOKZAQCJD8X2M3V2","A7TI4X4LRGQA0","3UAU495MIIEABANG75FBFHDC9WUUOI","","null","<img src=""img/land2.png"" style=""width:200px; border:14px solid green;"">","null","","","","","","","",""
"","image-keyboard-response","361","183930","0.0-537.0","3FPRZHYEPZTNOKHOKZAQCJD8X2M3V2","A7TI4X4LRGQA0","3UAU495MIIEABANG75FBFHDC9WUUOI","","622","img/land5.png","76","622","3","1","false","3","1,0.5,0.5,0.5,1,0.5,0.5,0.5,1","",""
"","html-keyboard-response","362","184245","0.0-538.0","3FPRZHYEPZTNOKHOKZAQCJD8X2M3V2","A7TI4X4LRGQA0","3UAU495MIIEABANG75FBFHDC9WUUOI","","null","<img src=""img/land5.png"" style=""width:200px; border:14px solid green;"">","null","","","","","","","",""
"","image-keyboard-response","363","184589","0.0-540.0","3FPRZHYEPZTNOKHOKZAQCJD8X2M3V2","A7TI4X4LRGQA0","3UAU495MIIEABANG75FBFHDC9WUUOI","","343","img/land5.png","76","343","3","1","false","3","1,0.5,0.5,0.5,1,0.5,0.5,0.5,1","",""
"","html-keyboard-response","364","184902","0.0-541.0","3FPRZHYEPZTNOKHOKZAQCJD8X2M3V2","A7TI4X4LRGQA0","3UAU495MIIEABANG75FBFHDC9WUUOI","","null","<img src=""img/land5.png"" style=""width:200px; border:14px solid green;"">","null","","","","","","","",""
"","instructions","365","188166","0.0-543.0","3FPRZHYEPZTNOKHOKZAQCJD8X2M3V2","A7TI4X4LRGQA0","3UAU495MIIEABANG75FBFHDC9WUUOI","[{""page_index"":0,""viewing_time"":3263}]","3263","","","","","","","","","",""
"","survey-text","366","191266","0.0-544.0-0.0","3FPRZHYEPZTNOKHOKZAQCJD8X2M3V2","A7TI4X4LRGQA0","3UAU495MIIEABANG75FBFHDC9WUUOI","","3099","","","","","","","","","{""Q0"":""44""}",""
"","survey-multi-choice","367","193176","0.0-544.0-1.0","3FPRZHYEPZTNOKHOKZAQCJD8X2M3V2","A7TI4X4LRGQA0","3UAU495MIIEABANG75FBFHDC9WUUOI","","1907","","","","","","","","","{""gender"":""M""}","[0]"
"","survey-text","368","199870","0.0-545.0","3FPRZHYEPZTNOKHOKZAQCJD8X2M3V2","A7TI4X4LRGQA0","3UAU495MIIEABANG75FBFHDC9WUUOI","","6692","","","","","","","","","{""Q0"":""A7TI4X4LRGQA0""}",""
