"success","trial_type","trial_index","time_elapsed","internal_node_id","assignmentID","mturkID","hitID","view_history","rt","stimulus","key_press","reactionTime","a","r","s","cond","reward_cond","reward_cond_actual","reward_matrix_idx","responses","question_order"
"true","fullscreen","0","3712","0.0-0.0","3U088ZLJVLF4MHIWRMX3WNYF4W30WA","A7VA2Y4H6U31O","3EHVO81VN57KAWAV14A1K6BEMLH1HG","","","","","","","","","","","","","",""
"","instructions","1","15393","0.0-1.0","3U088ZLJVLF4MHIWRMX3WNYF4W30WA","A7VA2Y4H6U31O","3EHVO81VN57KAWAV14A1K6BEMLH1HG","[{""page_index"":0,""viewing_time"":2591},{""page_index"":1,""viewing_time"":1350.2000000476837},{""page_index"":2,""viewing_time"":563.2999999523163},{""page_index"":3,""viewing_time"":1821.9000000953674},{""page_index"":4,""viewing_time"":1459.2999999523163},{""page_index"":5,""viewing_time"":1936.2000000476837},{""page_index"":6,""viewing_time"":1955.2999999523163}]","11677.5","","","","","","","","","","","",""
"","image-keyboard-response","2","16561","0.0-2.0","3U088ZLJVLF4MHIWRMX3WNYF4W30WA","A7VA2Y4H6U31O","3EHVO81VN57KAWAV14A1K6BEMLH1HG","","1166.1999999284744","img/land5.png","74","1168","1","1","1","2","0.8,0.2,0.2,0.2,0.8,0.2,0.2,0.2,0.8","0.8,0.2,0.2,0.2,0.8,0.2,0.2,0.2,0.8","1","",""
"","html-keyboard-response","3","16867","0.0-3.0","3U088ZLJVLF4MHIWRMX3WNYF4W30WA","A7VA2Y4H6U31O","3EHVO81VN57KAWAV14A1K6BEMLH1HG","","null","<img src=""img/land5.png"" style=""width:200px; border:14px solid green;"">","null","","","","","","","","","",""
"","image-keyboard-response","4","17527","0.0-4.0","3U088ZLJVLF4MHIWRMX3WNYF4W30WA","A7VA2Y4H6U31O","3EHVO81VN57KAWAV14A1K6BEMLH1HG","","657.5","img/land2.png","74","659.1000000238419","1","1","3","2","0.8,0.2,0.2,0.2,0.8,0.2,0.2,0.2,0.8","0.8,0.2,0.2,0.2,0.8,0.2,0.2,0.2,0.8","1","",""
"","html-keyboard-response","5","17833","0.0-5.0","3U088ZLJVLF4MHIWRMX3WNYF4W30WA","A7VA2Y4H6U31O","3EHVO81VN57KAWAV14A1K6BEMLH1HG","","null","<img src=""img/land2.png"" style=""width:200px; border:14px solid green;"">","null","","","","","","","","","",""
"","image-keyboard-response","6","18171","0.0-6.0","3U088ZLJVLF4MHIWRMX3WNYF4W30WA","A7VA2Y4H6U31O","3EHVO81VN57KAWAV14A1K6BEMLH1HG","","336.3000000715256","img/land5.png","74","337.5","1","1","1","2","0.8,0.2,0.2,0.2,0.8,0.2,0.2,0.2,0.8","0.8,0.2,0.2,0.2,0.8,0.2,0.2,0.2,0.8","1","",""
"","html-keyboard-response","7","18480","0.0-7.0","3U088ZLJVLF4MHIWRMX3WNYF4W30WA","A7VA2Y4H6U31O","3EHVO81VN57KAWAV14A1K6BEMLH1HG","","null","<img src=""img/land5.png"" style=""width:200px; border:14px solid green;"">","null","","","","","","","","","",""
"","image-keyboard-response","8","18699","0.0-8.0","3U088ZLJVLF4MHIWRMX3WNYF4W30WA","A7VA2Y4H6U31O","3EHVO81VN57KAWAV14A1K6BEMLH1HG","","217.10000002384186","img/land2.png","75","218.29999995231628","2","0","3","2","0.8,0.2,0.2,0.2,0.8,0.2,0.2,0.2,0.8","0.8,0.2,0.2,0.2,0.8,0.2,0.2,0.2,0.8","1","",""
"","html-keyboard-response","9","19013","0.0-9.0","3U088ZLJVLF4MHIWRMX3WNYF4W30WA","A7VA2Y4H6U31O","3EHVO81VN57KAWAV14A1K6BEMLH1HG","","null","<img src=""img/land2.png"" style=""width:200px;border:14px solid red;"">","null","","","","","","","","","",""
"","image-keyboard-response","10","19452","0.0-10.0","3U088ZLJVLF4MHIWRMX3WNYF4W30WA","A7VA2Y4H6U31O","3EHVO81VN57KAWAV14A1K6BEMLH1HG","","436.5","img/land5.png","74","437.7999999523163","1","1","1","2","0.8,0.2,0.2,0.2,0.8,0.2,0.2,0.2,0.8","0.8,0.2,0.2,0.2,0.8,0.2,0.2,0.2,0.8","1","",""
"","html-keyboard-response","11","19763","0.0-11.0","3U088ZLJVLF4MHIWRMX3WNYF4W30WA","A7VA2Y4H6U31O","3EHVO81VN57KAWAV14A1K6BEMLH1HG","","null","<img src=""img/land5.png"" style=""width:200px; border:14px solid green;"">","null","","","","","","","","","",""
"","image-keyboard-response","12","20062","0.0-12.0","3U088ZLJVLF4MHIWRMX3WNYF4W30WA","A7VA2Y4H6U31O","3EHVO81VN57KAWAV14A1K6BEMLH1HG","","298","img/land5.png","74","298.89999997615814","1","1","1","2","0.8,0.2,0.2,0.2,0.8,0.2,0.2,0.2,0.8","0.8,0.2,0.2,0.2,0.8,0.2,0.2,0.2,0.8","1","",""
"","html-keyboard-response","13","20366","0.0-13.0","3U088ZLJVLF4MHIWRMX3WNYF4W30WA","A7VA2Y4H6U31O","3EHVO81VN57KAWAV14A1K6BEMLH1HG","","null","<img src=""img/land5.png"" style=""width:200px; border:14px solid green;"">","null","","","","","","","","","",""
"","image-keyboard-response","14","20541","0.0-14.0","3U088ZLJVLF4MHIWRMX3WNYF4W30WA","A7VA2Y4H6U31O","3EHVO81VN57KAWAV14A1K6BEMLH1HG","","174.19999992847443","img/land5.png","74","175.19999992847443","1","1","1","2","0.8,0.2,0.2,0.2,0.8,0.2,0.2,0.2,0.8","0.8,0.2,0.2,0.2,0.8,0.2,0.2,0.2,0.8","1","",""
"","html-keyboard-response","15","20849","0.0-15.0","3U088ZLJVLF4MHIWRMX3WNYF4W30WA","A7VA2Y4H6U31O","3EHVO81VN57KAWAV14A1K6BEMLH1HG","","null","<img src=""img/land5.png"" style=""width:200px; border:14px solid green;"">","null","","","","","","","","","",""
"","image-keyboard-response","16","20905","0.0-16.0","3U088ZLJVLF4MHIWRMX3WNYF4W30WA","A7VA2Y4H6U31O","3EHVO81VN57KAWAV14A1K6BEMLH1HG","","54.799999952316284","img/land5.png","74","56.200000047683716","1","1","1","2","0.8,0.2,0.2,0.2,0.8,0.2,0.2,0.2,0.8","0.8,0.2,0.2,0.2,0.8,0.2,0.2,0.2,0.8","1","",""
"","html-keyboard-response","17","21215","0.0-17.0","3U088ZLJVLF4MHIWRMX3WNYF4W30WA","A7VA2Y4H6U31O","3EHVO81VN57KAWAV14A1K6BEMLH1HG","","null","<img src=""img/land5.png"" style=""width:200px; border:14px solid green;"">","null","","","","","","","","","",""
"","image-keyboard-response","18","21217","0.0-18.0","3U088ZLJVLF4MHIWRMX3WNYF4W30WA","A7VA2Y4H6U31O","3EHVO81VN57KAWAV14A1K6BEMLH1HG","","1.899999976158142","img/land5.png","74","2.5","1","1","1","2","0.8,0.2,0.2,0.2,0.8,0.2,0.2,0.2,0.8","0.8,0.2,0.2,0.2,0.8,0.2,0.2,0.2,0.8","1","",""
"","html-keyboard-response","19","21533","0.0-19.0","3U088ZLJVLF4MHIWRMX3WNYF4W30WA","A7VA2Y4H6U31O","3EHVO81VN57KAWAV14A1K6BEMLH1HG","","null","<img src=""img/land5.png"" style=""width:200px; border:14px solid green;"">","null","","","","","","","","","",""
"","image-keyboard-response","20","21810","0.0-20.0","3U088ZLJVLF4MHIWRMX3WNYF4W30WA","A7VA2Y4H6U31O","3EHVO81VN57KAWAV14A1K6BEMLH1HG","","276.2000000476837","img/land4.png","74","277","1","0","2","2","0.8,0.2,0.2,0.2,0.8,0.2,0.2,0.2,0.8","0.8,0.2,0.2,0.2,0.8,0.2,0.2,0.2,0.8","1","",""
"","html-keyboard-response","21","22115","0.0-21.0","3U088ZLJVLF4MHIWRMX3WNYF4W30WA","A7VA2Y4H6U31O","3EHVO81VN57KAWAV14A1K6BEMLH1HG","","null","<img src=""img/land4.png"" style=""width:200px;border:14px solid red;"">","null","","","","","","","","","",""
"","image-keyboard-response","22","22669","0.0-22.0","3U088ZLJVLF4MHIWRMX3WNYF4W30WA","A7VA2Y4H6U31O","3EHVO81VN57KAWAV14A1K6BEMLH1HG","","552.7000000476837","img/land2.png","74","553.3999999761581","1","0","3","2","0.8,0.2,0.2,0.2,0.8,0.2,0.2,0.2,0.8","0.8,0.2,0.2,0.2,0.8,0.2,0.2,0.2,0.8","1","",""
"","html-keyboard-response","23","22979","0.0-23.0","3U088ZLJVLF4MHIWRMX3WNYF4W30WA","A7VA2Y4H6U31O","3EHVO81VN57KAWAV14A1K6BEMLH1HG","","null","<img src=""img/land2.png"" style=""width:200px;border:14px solid red;"">","null","","","","","","","","","",""
"","image-keyboard-response","24","23625","0.0-24.0","3U088ZLJVLF4MHIWRMX3WNYF4W30WA","A7VA2Y4H6U31O","3EHVO81VN57KAWAV14A1K6BEMLH1HG","","645.4000000953674","img/land5.png","74","646.1000000238419","1","1","1","2","0.8,0.2,0.2,0.2,0.8,0.2,0.2,0.2,0.8","0.8,0.2,0.2,0.2,0.8,0.2,0.2,0.2,0.8","1","",""
"","html-keyboard-response","25","23932","0.0-25.0","3U088ZLJVLF4MHIWRMX3WNYF4W30WA","A7VA2Y4H6U31O","3EHVO81VN57KAWAV14A1K6BEMLH1HG","","null","<img src=""img/land5.png"" style=""width:200px; border:14px solid green;"">","null","","","","","","","","","",""
"","image-keyboard-response","26","24279","0.0-26.0","3U088ZLJVLF4MHIWRMX3WNYF4W30WA","A7VA2Y4H6U31O","3EHVO81VN57KAWAV14A1K6BEMLH1HG","","345.3000000715256","img/land5.png","74","346.39999997615814","1","1","1","2","0.8,0.2,0.2,0.2,0.8,0.2,0.2,0.2,0.8","0.8,0.2,0.2,0.2,0.8,0.2,0.2,0.2,0.8","1","",""
"","html-keyboard-response","27","24583","0.0-27.0","3U088ZLJVLF4MHIWRMX3WNYF4W30WA","A7VA2Y4H6U31O","3EHVO81VN57KAWAV14A1K6BEMLH1HG","","null","<img src=""img/land5.png"" style=""width:200px; border:14px solid green;"">","null","","","","","","","","","",""
"","image-keyboard-response","28","25533","0.0-28.0","3U088ZLJVLF4MHIWRMX3WNYF4W30WA","A7VA2Y4H6U31O","3EHVO81VN57KAWAV14A1K6BEMLH1HG","","950.1000000238419","img/land2.png","74","950.6000000238419","1","0","3","2","0.8,0.2,0.2,0.2,0.8,0.2,0.2,0.2,0.8","0.8,0.2,0.2,0.2,0.8,0.2,0.2,0.2,0.8","1","",""
"","html-keyboard-response","29","25847","0.0-29.0","3U088ZLJVLF4MHIWRMX3WNYF4W30WA","A7VA2Y4H6U31O","3EHVO81VN57KAWAV14A1K6BEMLH1HG","","null","<img src=""img/land2.png"" style=""width:200px;border:14px solid red;"">","null","","","","","","","","","",""
"","image-keyboard-response","30","26335","0.0-30.0","3U088ZLJVLF4MHIWRMX3WNYF4W30WA","A7VA2Y4H6U31O","3EHVO81VN57KAWAV14A1K6BEMLH1HG","","487.8000000715256","img/land4.png","74","488.40000009536743","1","0","2","2","0.8,0.2,0.2,0.2,0.8,0.2,0.2,0.2,0.8","0.8,0.2,0.2,0.2,0.8,0.2,0.2,0.2,0.8","1","",""
"","html-keyboard-response","31","26649","0.0-31.0","3U088ZLJVLF4MHIWRMX3WNYF4W30WA","A7VA2Y4H6U31O","3EHVO81VN57KAWAV14A1K6BEMLH1HG","","null","<img src=""img/land4.png"" style=""width:200px;border:14px solid red;"">","null","","","","","","","","","",""
"","image-keyboard-response","32","27059","0.0-32.0","3U088ZLJVLF4MHIWRMX3WNYF4W30WA","A7VA2Y4H6U31O","3EHVO81VN57KAWAV14A1K6BEMLH1HG","","408.60000002384186","img/land5.png","74","409.5","1","1","1","2","0.8,0.2,0.2,0.2,0.8,0.2,0.2,0.2,0.8","0.8,0.2,0.2,0.2,0.8,0.2,0.2,0.2,0.8","1","",""
"","html-keyboard-response","33","27365","0.0-33.0","3U088ZLJVLF4MHIWRMX3WNYF4W30WA","A7VA2Y4H6U31O","3EHVO81VN57KAWAV14A1K6BEMLH1HG","","null","<img src=""img/land5.png"" style=""width:200px; border:14px solid green;"">","null","","","","","","","","","",""
"","image-keyboard-response","34","27648","0.0-34.0","3U088ZLJVLF4MHIWRMX3WNYF4W30WA","A7VA2Y4H6U31O","3EHVO81VN57KAWAV14A1K6BEMLH1HG","","281.7000000476837","img/land5.png","74","282.89999997615814","1","0","1","2","0.8,0.2,0.2,0.2,0.8,0.2,0.2,0.2,0.8","0.8,0.2,0.2,0.2,0.8,0.2,0.2,0.2,0.8","1","",""
"","html-keyboard-response","35","27965","0.0-35.0","3U088ZLJVLF4MHIWRMX3WNYF4W30WA","A7VA2Y4H6U31O","3EHVO81VN57KAWAV14A1K6BEMLH1HG","","null","<img src=""img/land5.png"" style=""width:200px;border:14px solid red;"">","null","","","","","","","","","",""
"","image-keyboard-response","36","28549","0.0-36.0","3U088ZLJVLF4MHIWRMX3WNYF4W30WA","A7VA2Y4H6U31O","3EHVO81VN57KAWAV14A1K6BEMLH1HG","","583.3999999761581","img/land5.png","74","584.2999999523163","1","1","1","2","0.8,0.2,0.2,0.2,0.8,0.2,0.2,0.2,0.8","0.8,0.2,0.2,0.2,0.8,0.2,0.2,0.2,0.8","1","",""
"","html-keyboard-response","37","28865","0.0-37.0","3U088ZLJVLF4MHIWRMX3WNYF4W30WA","A7VA2Y4H6U31O","3EHVO81VN57KAWAV14A1K6BEMLH1HG","","null","<img src=""img/land5.png"" style=""width:200px; border:14px solid green;"">","null","","","","","","","","","",""
"","image-keyboard-response","38","29562","0.0-38.0","3U088ZLJVLF4MHIWRMX3WNYF4W30WA","A7VA2Y4H6U31O","3EHVO81VN57KAWAV14A1K6BEMLH1HG","","695.8000000715256","img/land4.png","75","696.9000000953674","2","1","2","2","0.8,0.2,0.2,0.2,0.8,0.2,0.2,0.2,0.8","0.8,0.2,0.2,0.2,0.8,0.2,0.2,0.2,0.8","1","",""
"","html-keyboard-response","39","29864","0.0-39.0","3U088ZLJVLF4MHIWRMX3WNYF4W30WA","A7VA2Y4H6U31O","3EHVO81VN57KAWAV14A1K6BEMLH1HG","","null","<img src=""img/land4.png"" style=""width:200px; border:14px solid green;"">","null","","","","","","","","","",""
"","image-keyboard-response","40","30749","0.0-40.0","3U088ZLJVLF4MHIWRMX3WNYF4W30WA","A7VA2Y4H6U31O","3EHVO81VN57KAWAV14A1K6BEMLH1HG","","883.5","img/land5.png","74","884.7000000476837","1","1","1","2","0.8,0.2,0.2,0.2,0.8,0.2,0.2,0.2,0.8","0.8,0.2,0.2,0.2,0.8,0.2,0.2,0.2,0.8","1","",""
"","html-keyboard-response","41","31052","0.0-41.0","3U088ZLJVLF4MHIWRMX3WNYF4W30WA","A7VA2Y4H6U31O","3EHVO81VN57KAWAV14A1K6BEMLH1HG","","null","<img src=""img/land5.png"" style=""width:200px; border:14px solid green;"">","null","","","","","","","","","",""
"","image-keyboard-response","42","31514","0.0-42.0","3U088ZLJVLF4MHIWRMX3WNYF4W30WA","A7VA2Y4H6U31O","3EHVO81VN57KAWAV14A1K6BEMLH1HG","","461.39999997615814","img/land4.png","75","462.10000002384186","2","1","2","2","0.8,0.2,0.2,0.2,0.8,0.2,0.2,0.2,0.8","0.8,0.2,0.2,0.2,0.8,0.2,0.2,0.2,0.8","1","",""
"","html-keyboard-response","43","31815","0.0-43.0","3U088ZLJVLF4MHIWRMX3WNYF4W30WA","A7VA2Y4H6U31O","3EHVO81VN57KAWAV14A1K6BEMLH1HG","","null","<img src=""img/land4.png"" style=""width:200px; border:14px solid green;"">","null","","","","","","","","","",""
"","image-keyboard-response","44","32428","0.0-44.0","3U088ZLJVLF4MHIWRMX3WNYF4W30WA","A7VA2Y4H6U31O","3EHVO81VN57KAWAV14A1K6BEMLH1HG","","611.4000000953674","img/land4.png","75","612","2","1","2","2","0.8,0.2,0.2,0.2,0.8,0.2,0.2,0.2,0.8","0.8,0.2,0.2,0.2,0.8,0.2,0.2,0.2,0.8","1","",""
"","html-keyboard-response","45","32730","0.0-45.0","3U088ZLJVLF4MHIWRMX3WNYF4W30WA","A7VA2Y4H6U31O","3EHVO81VN57KAWAV14A1K6BEMLH1HG","","null","<img src=""img/land4.png"" style=""width:200px; border:14px solid green;"">","null","","","","","","","","","",""
"","image-keyboard-response","46","33344","0.0-46.0","3U088ZLJVLF4MHIWRMX3WNYF4W30WA","A7VA2Y4H6U31O","3EHVO81VN57KAWAV14A1K6BEMLH1HG","","612.3999999761581","img/land5.png","74","613.8999999761581","1","0","1","2","0.8,0.2,0.2,0.2,0.8,0.2,0.2,0.2,0.8","0.8,0.2,0.2,0.2,0.8,0.2,0.2,0.2,0.8","1","",""
"","html-keyboard-response","47","33646","0.0-47.0","3U088ZLJVLF4MHIWRMX3WNYF4W30WA","A7VA2Y4H6U31O","3EHVO81VN57KAWAV14A1K6BEMLH1HG","","null","<img src=""img/land5.png"" style=""width:200px;border:14px solid red;"">","null","","","","","","","","","",""
"","image-keyboard-response","48","34139","0.0-48.0","3U088ZLJVLF4MHIWRMX3WNYF4W30WA","A7VA2Y4H6U31O","3EHVO81VN57KAWAV14A1K6BEMLH1HG","","491.90000009536743","img/land5.png","74","492.5","1","1","1","2","0.8,0.2,0.2,0.2,0.8,0.2,0.2,0.2,0.8","0.8,0.2,0.2,0.2,0.8,0.2,0.2,0.2,0.8","1","",""
"","html-keyboard-response","49","34439","0.0-49.0","3U088ZLJVLF4MHIWRMX3WNYF4W30WA","A7VA2Y4H6U31O","3EHVO81VN57KAWAV14A1K6BEMLH1HG","","null","<img src=""img/land5.png"" style=""width:200px; border:14px solid green;"">","null","","","","","","","","","",""
"","image-keyboard-response","50","34907","0.0-50.0","3U088ZLJVLF4MHIWRMX3WNYF4W30WA","A7VA2Y4H6U31O","3EHVO81VN57KAWAV14A1K6BEMLH1HG","","466.5","img/land5.png","74","467.2999999523163","1","1","1","2","0.8,0.2,0.2,0.2,0.8,0.2,0.2,0.2,0.8","0.8,0.2,0.2,0.2,0.8,0.2,0.2,0.2,0.8","1","",""
"","html-keyboard-response","51","35208","0.0-51.0","3U088ZLJVLF4MHIWRMX3WNYF4W30WA","A7VA2Y4H6U31O","3EHVO81VN57KAWAV14A1K6BEMLH1HG","","null","<img src=""img/land5.png"" style=""width:200px; border:14px solid green;"">","null","","","","","","","","","",""
"","image-keyboard-response","52","35572","0.0-52.0","3U088ZLJVLF4MHIWRMX3WNYF4W30WA","A7VA2Y4H6U31O","3EHVO81VN57KAWAV14A1K6BEMLH1HG","","363.10000002384186","img/land5.png","74","363.60000002384186","1","1","1","2","0.8,0.2,0.2,0.2,0.8,0.2,0.2,0.2,0.8","0.8,0.2,0.2,0.2,0.8,0.2,0.2,0.2,0.8","1","",""
"","html-keyboard-response","53","35873","0.0-53.0","3U088ZLJVLF4MHIWRMX3WNYF4W30WA","A7VA2Y4H6U31O","3EHVO81VN57KAWAV14A1K6BEMLH1HG","","null","<img src=""img/land5.png"" style=""width:200px; border:14px solid green;"">","null","","","","","","","","","",""
"","image-keyboard-response","54","36182","0.0-54.0","3U088ZLJVLF4MHIWRMX3WNYF4W30WA","A7VA2Y4H6U31O","3EHVO81VN57KAWAV14A1K6BEMLH1HG","","308.60000002384186","img/land5.png","74","309","1","1","1","2","0.8,0.2,0.2,0.2,0.8,0.2,0.2,0.2,0.8","0.8,0.2,0.2,0.2,0.8,0.2,0.2,0.2,0.8","1","",""
"","html-keyboard-response","55","36483","0.0-55.0","3U088ZLJVLF4MHIWRMX3WNYF4W30WA","A7VA2Y4H6U31O","3EHVO81VN57KAWAV14A1K6BEMLH1HG","","null","<img src=""img/land5.png"" style=""width:200px; border:14px solid green;"">","null","","","","","","","","","",""
"","image-keyboard-response","56","37051","0.0-56.0","3U088ZLJVLF4MHIWRMX3WNYF4W30WA","A7VA2Y4H6U31O","3EHVO81VN57KAWAV14A1K6BEMLH1HG","","566.1000000238419","img/land4.png","75","567.6000000238419","2","0","2","2","0.8,0.2,0.2,0.2,0.8,0.2,0.2,0.2,0.8","0.8,0.2,0.2,0.2,0.8,0.2,0.2,0.2,0.8","1","",""
"","html-keyboard-response","57","37353","0.0-57.0","3U088ZLJVLF4MHIWRMX3WNYF4W30WA","A7VA2Y4H6U31O","3EHVO81VN57KAWAV14A1K6BEMLH1HG","","null","<img src=""img/land4.png"" style=""width:200px;border:14px solid red;"">","null","","","","","","","","","",""
"","image-keyboard-response","58","38208","0.0-58.0","3U088ZLJVLF4MHIWRMX3WNYF4W30WA","A7VA2Y4H6U31O","3EHVO81VN57KAWAV14A1K6BEMLH1HG","","854.2000000476837","img/land5.png","74","854.8000000715256","1","1","1","2","0.8,0.2,0.2,0.2,0.8,0.2,0.2,0.2,0.8","0.8,0.2,0.2,0.2,0.8,0.2,0.2,0.2,0.8","1","",""
"","html-keyboard-response","59","38509","0.0-59.0","3U088ZLJVLF4MHIWRMX3WNYF4W30WA","A7VA2Y4H6U31O","3EHVO81VN57KAWAV14A1K6BEMLH1HG","","null","<img src=""img/land5.png"" style=""width:200px; border:14px solid green;"">","null","","","","","","","","","",""
"","image-keyboard-response","60","39040","0.0-60.0","3U088ZLJVLF4MHIWRMX3WNYF4W30WA","A7VA2Y4H6U31O","3EHVO81VN57KAWAV14A1K6BEMLH1HG","","529.1000000238419","img/land5.png","74","530.2999999523163","1","0","1","2","0.8,0.2,0.2,0.2,0.8,0.2,0.2,0.2,0.8","0.8,0.2,0.2,0.2,0.8,0.2,0.2,0.2,0.8","1","",""
"","html-keyboard-response","61","39342","0.0-61.0","3U088ZLJVLF4MHIWRMX3WNYF4W30WA","A7VA2Y4H6U31O","3EHVO81VN57KAWAV14A1K6BEMLH1HG","","null","<img src=""img/land5.png"" style=""width:200px;border:14px solid red;"">","null","","","","","","","","","",""
"","image-keyboard-response","62","40687","0.0-62.0","3U088ZLJVLF4MHIWRMX3WNYF4W30WA","A7VA2Y4H6U31O","3EHVO81VN57KAWAV14A1K6BEMLH1HG","","1343.9000000953674","img/land5.png","74","1344.8999999761581","1","0","1","2","0.8,0.2,0.2,0.2,0.8,0.2,0.2,0.2,0.8","0.8,0.2,0.2,0.2,0.8,0.2,0.2,0.2,0.8","1","",""
"","html-keyboard-response","63","40988","0.0-63.0","3U088ZLJVLF4MHIWRMX3WNYF4W30WA","A7VA2Y4H6U31O","3EHVO81VN57KAWAV14A1K6BEMLH1HG","","null","<img src=""img/land5.png"" style=""width:200px;border:14px solid red;"">","null","","","","","","","","","",""
"","image-keyboard-response","64","42539","0.0-64.0","3U088ZLJVLF4MHIWRMX3WNYF4W30WA","A7VA2Y4H6U31O","3EHVO81VN57KAWAV14A1K6BEMLH1HG","","1549.6000000238419","img/land5.png","75","1550.6999999284744","2","0","1","2","0.8,0.2,0.2,0.2,0.8,0.2,0.2,0.2,0.8","0.8,0.2,0.2,0.2,0.8,0.2,0.2,0.2,0.8","1","",""
"","html-keyboard-response","65","42841","0.0-65.0","3U088ZLJVLF4MHIWRMX3WNYF4W30WA","A7VA2Y4H6U31O","3EHVO81VN57KAWAV14A1K6BEMLH1HG","","null","<img src=""img/land5.png"" style=""width:200px;border:14px solid red;"">","null","","","","","","","","","",""
"","image-keyboard-response","66","43490","0.0-66.0","3U088ZLJVLF4MHIWRMX3WNYF4W30WA","A7VA2Y4H6U31O","3EHVO81VN57KAWAV14A1K6BEMLH1HG","","646.5","img/land5.png","76","647.7999999523163","3","0","1","2","0.8,0.2,0.2,0.2,0.8,0.2,0.2,0.2,0.8","0.8,0.2,0.2,0.2,0.8,0.2,0.2,0.2,0.8","1","",""
"","html-keyboard-response","67","43791","0.0-67.0","3U088ZLJVLF4MHIWRMX3WNYF4W30WA","A7VA2Y4H6U31O","3EHVO81VN57KAWAV14A1K6BEMLH1HG","","null","<img src=""img/land5.png"" style=""width:200px;border:14px solid red;"">","null","","","","","","","","","",""
"","image-keyboard-response","68","44254","0.0-68.0","3U088ZLJVLF4MHIWRMX3WNYF4W30WA","A7VA2Y4H6U31O","3EHVO81VN57KAWAV14A1K6BEMLH1HG","","460.8000000715256","img/land5.png","74","462","1","1","1","2","0.8,0.2,0.2,0.2,0.8,0.2,0.2,0.2,0.8","0.8,0.2,0.2,0.2,0.8,0.2,0.2,0.2,0.8","1","",""
"","html-keyboard-response","69","44555","0.0-69.0","3U088ZLJVLF4MHIWRMX3WNYF4W30WA","A7VA2Y4H6U31O","3EHVO81VN57KAWAV14A1K6BEMLH1HG","","null","<img src=""img/land5.png"" style=""width:200px; border:14px solid green;"">","null","","","","","","","","","",""
"","image-keyboard-response","70","45551","0.0-70.0","3U088ZLJVLF4MHIWRMX3WNYF4W30WA","A7VA2Y4H6U31O","3EHVO81VN57KAWAV14A1K6BEMLH1HG","","993.6999999284744","img/land2.png","75","995.1999999284744","2","0","3","2","0.8,0.2,0.2,0.2,0.8,0.2,0.2,0.2,0.8","0.8,0.2,0.2,0.2,0.8,0.2,0.2,0.2,0.8","1","",""
"","html-keyboard-response","71","45852","0.0-71.0","3U088ZLJVLF4MHIWRMX3WNYF4W30WA","A7VA2Y4H6U31O","3EHVO81VN57KAWAV14A1K6BEMLH1HG","","null","<img src=""img/land2.png"" style=""width:200px;border:14px solid red;"">","null","","","","","","","","","",""
"","image-keyboard-response","72","46518","0.0-72.0","3U088ZLJVLF4MHIWRMX3WNYF4W30WA","A7VA2Y4H6U31O","3EHVO81VN57KAWAV14A1K6BEMLH1HG","","665.5","img/land5.png","74","665.8999999761581","1","1","1","2","0.8,0.2,0.2,0.2,0.8,0.2,0.2,0.2,0.8","0.8,0.2,0.2,0.2,0.8,0.2,0.2,0.2,0.8","1","",""
"","html-keyboard-response","73","46820","0.0-73.0","3U088ZLJVLF4MHIWRMX3WNYF4W30WA","A7VA2Y4H6U31O","3EHVO81VN57KAWAV14A1K6BEMLH1HG","","null","<img src=""img/land5.png"" style=""width:200px; border:14px solid green;"">","null","","","","","","","","","",""
"","image-keyboard-response","74","47922","0.0-74.0","3U088ZLJVLF4MHIWRMX3WNYF4W30WA","A7VA2Y4H6U31O","3EHVO81VN57KAWAV14A1K6BEMLH1HG","","1100.3999999761581","img/land4.png","75","1101.8999999761581","2","0","2","2","0.8,0.2,0.2,0.2,0.8,0.2,0.2,0.2,0.8","0.8,0.2,0.2,0.2,0.8,0.2,0.2,0.2,0.8","1","",""
"","html-keyboard-response","75","48224","0.0-75.0","3U088ZLJVLF4MHIWRMX3WNYF4W30WA","A7VA2Y4H6U31O","3EHVO81VN57KAWAV14A1K6BEMLH1HG","","null","<img src=""img/land4.png"" style=""width:200px;border:14px solid red;"">","null","","","","","","","","","",""
"","image-keyboard-response","76","48608","0.0-76.0","3U088ZLJVLF4MHIWRMX3WNYF4W30WA","A7VA2Y4H6U31O","3EHVO81VN57KAWAV14A1K6BEMLH1HG","","383.39999997615814","img/land2.png","74","384","1","0","3","2","0.8,0.2,0.2,0.2,0.8,0.2,0.2,0.2,0.8","0.8,0.2,0.2,0.2,0.8,0.2,0.2,0.2,0.8","1","",""
"","html-keyboard-response","77","48910","0.0-77.0","3U088ZLJVLF4MHIWRMX3WNYF4W30WA","A7VA2Y4H6U31O","3EHVO81VN57KAWAV14A1K6BEMLH1HG","","null","<img src=""img/land2.png"" style=""width:200px;border:14px solid red;"">","null","","","","","","","","","",""
"","image-keyboard-response","78","49908","0.0-78.0","3U088ZLJVLF4MHIWRMX3WNYF4W30WA","A7VA2Y4H6U31O","3EHVO81VN57KAWAV14A1K6BEMLH1HG","","996.4000000953674","img/land4.png","75","997.6000000238419","2","1","2","2","0.8,0.2,0.2,0.2,0.8,0.2,0.2,0.2,0.8","0.8,0.2,0.2,0.2,0.8,0.2,0.2,0.2,0.8","1","",""
"","html-keyboard-response","79","50210","0.0-79.0","3U088ZLJVLF4MHIWRMX3WNYF4W30WA","A7VA2Y4H6U31O","3EHVO81VN57KAWAV14A1K6BEMLH1HG","","null","<img src=""img/land4.png"" style=""width:200px; border:14px solid green;"">","null","","","","","","","","","",""
"","image-keyboard-response","80","50600","0.0-80.0","3U088ZLJVLF4MHIWRMX3WNYF4W30WA","A7VA2Y4H6U31O","3EHVO81VN57KAWAV14A1K6BEMLH1HG","","390","img/land4.png","75","390.7999999523163","2","0","2","2","0.8,0.2,0.2,0.2,0.8,0.2,0.2,0.2,0.8","0.8,0.2,0.2,0.2,0.8,0.2,0.2,0.2,0.8","1","",""
"","html-keyboard-response","81","50903","0.0-81.0","3U088ZLJVLF4MHIWRMX3WNYF4W30WA","A7VA2Y4H6U31O","3EHVO81VN57KAWAV14A1K6BEMLH1HG","","null","<img src=""img/land4.png"" style=""width:200px;border:14px solid red;"">","null","","","","","","","","","",""
"","image-keyboard-response","82","51473","0.0-82.0","3U088ZLJVLF4MHIWRMX3WNYF4W30WA","A7VA2Y4H6U31O","3EHVO81VN57KAWAV14A1K6BEMLH1HG","","569.5","img/land5.png","76","570.2000000476837","3","1","1","2","0.8,0.2,0.2,0.2,0.8,0.2,0.2,0.2,0.8","0.8,0.2,0.2,0.2,0.8,0.2,0.2,0.2,0.8","1","",""
"","html-keyboard-response","83","51775","0.0-83.0","3U088ZLJVLF4MHIWRMX3WNYF4W30WA","A7VA2Y4H6U31O","3EHVO81VN57KAWAV14A1K6BEMLH1HG","","null","<img src=""img/land5.png"" style=""width:200px; border:14px solid green;"">","null","","","","","","","","","",""
"","image-keyboard-response","84","52091","0.0-84.0","3U088ZLJVLF4MHIWRMX3WNYF4W30WA","A7VA2Y4H6U31O","3EHVO81VN57KAWAV14A1K6BEMLH1HG","","315.39999997615814","img/land5.png","76","316.39999997615814","3","0","1","2","0.8,0.2,0.2,0.2,0.8,0.2,0.2,0.2,0.8","0.8,0.2,0.2,0.2,0.8,0.2,0.2,0.2,0.8","1","",""
"","html-keyboard-response","85","52393","0.0-85.0","3U088ZLJVLF4MHIWRMX3WNYF4W30WA","A7VA2Y4H6U31O","3EHVO81VN57KAWAV14A1K6BEMLH1HG","","null","<img src=""img/land5.png"" style=""width:200px;border:14px solid red;"">","null","","","","","","","","","",""
"","image-keyboard-response","86","53492","0.0-86.0","3U088ZLJVLF4MHIWRMX3WNYF4W30WA","A7VA2Y4H6U31O","3EHVO81VN57KAWAV14A1K6BEMLH1HG","","1097.2999999523163","img/land5.png","74","1098.3999999761581","1","1","1","2","0.8,0.2,0.2,0.2,0.8,0.2,0.2,0.2,0.8","0.8,0.2,0.2,0.2,0.8,0.2,0.2,0.2,0.8","1","",""
"","html-keyboard-response","87","53802","0.0-87.0","3U088ZLJVLF4MHIWRMX3WNYF4W30WA","A7VA2Y4H6U31O","3EHVO81VN57KAWAV14A1K6BEMLH1HG","","null","<img src=""img/land5.png"" style=""width:200px; border:14px solid green;"">","null","","","","","","","","","",""
"","image-keyboard-response","88","54117","0.0-88.0","3U088ZLJVLF4MHIWRMX3WNYF4W30WA","A7VA2Y4H6U31O","3EHVO81VN57KAWAV14A1K6BEMLH1HG","","313.2000000476837","img/land5.png","74","314.39999997615814","1","1","1","2","0.8,0.2,0.2,0.2,0.8,0.2,0.2,0.2,0.8","0.8,0.2,0.2,0.2,0.8,0.2,0.2,0.2,0.8","1","",""
"","html-keyboard-response","89","54418","0.0-89.0","3U088ZLJVLF4MHIWRMX3WNYF4W30WA","A7VA2Y4H6U31O","3EHVO81VN57KAWAV14A1K6BEMLH1HG","","null","<img src=""img/land5.png"" style=""width:200px; border:14px solid green;"">","null","","","","","","","","","",""
"","image-keyboard-response","90","54690","0.0-90.0","3U088ZLJVLF4MHIWRMX3WNYF4W30WA","A7VA2Y4H6U31O","3EHVO81VN57KAWAV14A1K6BEMLH1HG","","270.60000002384186","img/land4.png","74","272.2999999523163","1","1","2","2","0.8,0.2,0.2,0.2,0.8,0.2,0.2,0.2,0.8","0.8,0.2,0.2,0.2,0.8,0.2,0.2,0.2,0.8","1","",""
"","html-keyboard-response","91","54992","0.0-91.0","3U088ZLJVLF4MHIWRMX3WNYF4W30WA","A7VA2Y4H6U31O","3EHVO81VN57KAWAV14A1K6BEMLH1HG","","null","<img src=""img/land4.png"" style=""width:200px; border:14px solid green;"">","null","","","","","","","","","",""
"","image-keyboard-response","92","56187","0.0-92.0","3U088ZLJVLF4MHIWRMX3WNYF4W30WA","A7VA2Y4H6U31O","3EHVO81VN57KAWAV14A1K6BEMLH1HG","","1192.8999999761581","img/land2.png","74","1194.1000000238419","1","0","3","2","0.8,0.2,0.2,0.2,0.8,0.2,0.2,0.2,0.8","0.8,0.2,0.2,0.2,0.8,0.2,0.2,0.2,0.8","1","",""
"","html-keyboard-response","93","56488","0.0-93.0","3U088ZLJVLF4MHIWRMX3WNYF4W30WA","A7VA2Y4H6U31O","3EHVO81VN57KAWAV14A1K6BEMLH1HG","","null","<img src=""img/land2.png"" style=""width:200px;border:14px solid red;"">","null","","","","","","","","","",""
"","image-keyboard-response","94","57183","0.0-94.0","3U088ZLJVLF4MHIWRMX3WNYF4W30WA","A7VA2Y4H6U31O","3EHVO81VN57KAWAV14A1K6BEMLH1HG","","692.7000000476837","img/land2.png","76","694.2000000476837","3","1","3","2","0.8,0.2,0.2,0.2,0.8,0.2,0.2,0.2,0.8","0.8,0.2,0.2,0.2,0.8,0.2,0.2,0.2,0.8","1","",""
"","html-keyboard-response","95","57484","0.0-95.0","3U088ZLJVLF4MHIWRMX3WNYF4W30WA","A7VA2Y4H6U31O","3EHVO81VN57KAWAV14A1K6BEMLH1HG","","null","<img src=""img/land2.png"" style=""width:200px; border:14px solid green;"">","null","","","","","","","","","",""
"","image-keyboard-response","96","58543","0.0-96.0","3U088ZLJVLF4MHIWRMX3WNYF4W30WA","A7VA2Y4H6U31O","3EHVO81VN57KAWAV14A1K6BEMLH1HG","","1057.5","img/land5.png","74","1058.3999999761581","1","1","1","2","0.8,0.2,0.2,0.2,0.8,0.2,0.2,0.2,0.8","0.8,0.2,0.2,0.2,0.8,0.2,0.2,0.2,0.8","1","",""
"","html-keyboard-response","97","58845","0.0-97.0","3U088ZLJVLF4MHIWRMX3WNYF4W30WA","A7VA2Y4H6U31O","3EHVO81VN57KAWAV14A1K6BEMLH1HG","","null","<img src=""img/land5.png"" style=""width:200px; border:14px solid green;"">","null","","","","","","","","","",""
"","image-keyboard-response","98","59711","0.0-98.0","3U088ZLJVLF4MHIWRMX3WNYF4W30WA","A7VA2Y4H6U31O","3EHVO81VN57KAWAV14A1K6BEMLH1HG","","864.1000000238419","img/land4.png","76","865.3999999761581","3","0","2","2","0.8,0.2,0.2,0.2,0.8,0.2,0.2,0.2,0.8","0.8,0.2,0.2,0.2,0.8,0.2,0.2,0.2,0.8","1","",""
"","html-keyboard-response","99","60013","0.0-99.0","3U088ZLJVLF4MHIWRMX3WNYF4W30WA","A7VA2Y4H6U31O","3EHVO81VN57KAWAV14A1K6BEMLH1HG","","null","<img src=""img/land4.png"" style=""width:200px;border:14px solid red;"">","null","","","","","","","","","",""
"","image-keyboard-response","100","60497","0.0-100.0","3U088ZLJVLF4MHIWRMX3WNYF4W30WA","A7VA2Y4H6U31O","3EHVO81VN57KAWAV14A1K6BEMLH1HG","","482.09999990463257","img/land2.png","75","483.6999999284744","2","0","3","2","0.8,0.2,0.2,0.2,0.8,0.2,0.2,0.2,0.8","0.8,0.2,0.2,0.2,0.8,0.2,0.2,0.2,0.8","1","",""
"","html-keyboard-response","101","60801","0.0-101.0","3U088ZLJVLF4MHIWRMX3WNYF4W30WA","A7VA2Y4H6U31O","3EHVO81VN57KAWAV14A1K6BEMLH1HG","","null","<img src=""img/land2.png"" style=""width:200px;border:14px solid red;"">","null","","","","","","","","","",""
"","image-keyboard-response","102","61399","0.0-102.0","3U088ZLJVLF4MHIWRMX3WNYF4W30WA","A7VA2Y4H6U31O","3EHVO81VN57KAWAV14A1K6BEMLH1HG","","596.3999999761581","img/land5.png","74","597.6000000238419","1","1","1","2","0.8,0.2,0.2,0.2,0.8,0.2,0.2,0.2,0.8","0.8,0.2,0.2,0.2,0.8,0.2,0.2,0.2,0.8","1","",""
"","html-keyboard-response","103","61700","0.0-103.0","3U088ZLJVLF4MHIWRMX3WNYF4W30WA","A7VA2Y4H6U31O","3EHVO81VN57KAWAV14A1K6BEMLH1HG","","null","<img src=""img/land5.png"" style=""width:200px; border:14px solid green;"">","null","","","","","","","","","",""
"","image-keyboard-response","104","62425","0.0-104.0","3U088ZLJVLF4MHIWRMX3WNYF4W30WA","A7VA2Y4H6U31O","3EHVO81VN57KAWAV14A1K6BEMLH1HG","","723.7000000476837","img/land5.png","74","724.7999999523163","1","1","1","2","0.8,0.2,0.2,0.2,0.8,0.2,0.2,0.2,0.8","0.8,0.2,0.2,0.2,0.8,0.2,0.2,0.2,0.8","1","",""
"","html-keyboard-response","105","62741","0.0-105.0","3U088ZLJVLF4MHIWRMX3WNYF4W30WA","A7VA2Y4H6U31O","3EHVO81VN57KAWAV14A1K6BEMLH1HG","","null","<img src=""img/land5.png"" style=""width:200px; border:14px solid green;"">","null","","","","","","","","","",""
"","image-keyboard-response","106","63792","0.0-106.0","3U088ZLJVLF4MHIWRMX3WNYF4W30WA","A7VA2Y4H6U31O","3EHVO81VN57KAWAV14A1K6BEMLH1HG","","1048.7999999523163","img/land4.png","76","1050.2000000476837","3","0","2","2","0.8,0.2,0.2,0.2,0.8,0.2,0.2,0.2,0.8","0.8,0.2,0.2,0.2,0.8,0.2,0.2,0.2,0.8","1","",""
"","html-keyboard-response","107","64094","0.0-107.0","3U088ZLJVLF4MHIWRMX3WNYF4W30WA","A7VA2Y4H6U31O","3EHVO81VN57KAWAV14A1K6BEMLH1HG","","null","<img src=""img/land4.png"" style=""width:200px;border:14px solid red;"">","null","","","","","","","","","",""
"","image-keyboard-response","108","65297","0.0-108.0","3U088ZLJVLF4MHIWRMX3WNYF4W30WA","A7VA2Y4H6U31O","3EHVO81VN57KAWAV14A1K6BEMLH1HG","","1202","img/land2.png","76","1203.1999999284744","3","1","3","2","0.8,0.2,0.2,0.2,0.8,0.2,0.2,0.2,0.8","0.8,0.2,0.2,0.2,0.8,0.2,0.2,0.2,0.8","1","",""
"","html-keyboard-response","109","65598","0.0-109.0","3U088ZLJVLF4MHIWRMX3WNYF4W30WA","A7VA2Y4H6U31O","3EHVO81VN57KAWAV14A1K6BEMLH1HG","","null","<img src=""img/land2.png"" style=""width:200px; border:14px solid green;"">","null","","","","","","","","","",""
"","image-keyboard-response","110","66287","0.0-110.0","3U088ZLJVLF4MHIWRMX3WNYF4W30WA","A7VA2Y4H6U31O","3EHVO81VN57KAWAV14A1K6BEMLH1HG","","687.1000000238419","img/land5.png","74","688.1999999284744","1","1","1","2","0.8,0.2,0.2,0.2,0.8,0.2,0.2,0.2,0.8","0.8,0.2,0.2,0.2,0.8,0.2,0.2,0.2,0.8","1","",""
"","html-keyboard-response","111","66588","0.0-111.0","3U088ZLJVLF4MHIWRMX3WNYF4W30WA","A7VA2Y4H6U31O","3EHVO81VN57KAWAV14A1K6BEMLH1HG","","null","<img src=""img/land5.png"" style=""width:200px; border:14px solid green;"">","null","","","","","","","","","",""
"","image-keyboard-response","112","67687","0.0-112.0","3U088ZLJVLF4MHIWRMX3WNYF4W30WA","A7VA2Y4H6U31O","3EHVO81VN57KAWAV14A1K6BEMLH1HG","","1098.3999999761581","img/land4.png","75","1099.2999999523163","2","1","2","2","0.8,0.2,0.2,0.2,0.8,0.2,0.2,0.2,0.8","0.8,0.2,0.2,0.2,0.8,0.2,0.2,0.2,0.8","1","",""
"","html-keyboard-response","113","67989","0.0-113.0","3U088ZLJVLF4MHIWRMX3WNYF4W30WA","A7VA2Y4H6U31O","3EHVO81VN57KAWAV14A1K6BEMLH1HG","","null","<img src=""img/land4.png"" style=""width:200px; border:14px solid green;"">","null","","","","","","","","","",""
"","image-keyboard-response","114","68353","0.0-114.0","3U088ZLJVLF4MHIWRMX3WNYF4W30WA","A7VA2Y4H6U31O","3EHVO81VN57KAWAV14A1K6BEMLH1HG","","364.10000002384186","img/land4.png","75","364.89999997615814","2","1","2","2","0.8,0.2,0.2,0.2,0.8,0.2,0.2,0.2,0.8","0.8,0.2,0.2,0.2,0.8,0.2,0.2,0.2,0.8","1","",""
"","html-keyboard-response","115","68655","0.0-115.0","3U088ZLJVLF4MHIWRMX3WNYF4W30WA","A7VA2Y4H6U31O","3EHVO81VN57KAWAV14A1K6BEMLH1HG","","null","<img src=""img/land4.png"" style=""width:200px; border:14px solid green;"">","null","","","","","","","","","",""
"","image-keyboard-response","116","68968","0.0-116.0","3U088ZLJVLF4MHIWRMX3WNYF4W30WA","A7VA2Y4H6U31O","3EHVO81VN57KAWAV14A1K6BEMLH1HG","","312.6999999284744","img/land4.png","75","313.1999999284744","2","1","2","2","0.8,0.2,0.2,0.2,0.8,0.2,0.2,0.2,0.8","0.8,0.2,0.2,0.2,0.8,0.2,0.2,0.2,0.8","1","",""
"","html-keyboard-response","117","69270","0.0-117.0","3U088ZLJVLF4MHIWRMX3WNYF4W30WA","A7VA2Y4H6U31O","3EHVO81VN57KAWAV14A1K6BEMLH1HG","","null","<img src=""img/land4.png"" style=""width:200px; border:14px solid green;"">","null","","","","","","","","","",""
"","image-keyboard-response","118","69554","0.0-118.0","3U088ZLJVLF4MHIWRMX3WNYF4W30WA","A7VA2Y4H6U31O","3EHVO81VN57KAWAV14A1K6BEMLH1HG","","283.39999997615814","img/land4.png","75","283.8000000715256","2","1","2","2","0.8,0.2,0.2,0.2,0.8,0.2,0.2,0.2,0.8","0.8,0.2,0.2,0.2,0.8,0.2,0.2,0.2,0.8","1","",""
"","html-keyboard-response","119","69856","0.0-119.0","3U088ZLJVLF4MHIWRMX3WNYF4W30WA","A7VA2Y4H6U31O","3EHVO81VN57KAWAV14A1K6BEMLH1HG","","null","<img src=""img/land4.png"" style=""width:200px; border:14px solid green;"">","null","","","","","","","","","",""
"","image-keyboard-response","120","70107","0.0-120.0","3U088ZLJVLF4MHIWRMX3WNYF4W30WA","A7VA2Y4H6U31O","3EHVO81VN57KAWAV14A1K6BEMLH1HG","","248.79999995231628","img/land4.png","75","250.29999995231628","2","0","2","2","0.8,0.2,0.2,0.2,0.8,0.2,0.2,0.2,0.8","0.8,0.2,0.2,0.2,0.8,0.2,0.2,0.2,0.8","1","",""
"","html-keyboard-response","121","70409","0.0-121.0","3U088ZLJVLF4MHIWRMX3WNYF4W30WA","A7VA2Y4H6U31O","3EHVO81VN57KAWAV14A1K6BEMLH1HG","","null","<img src=""img/land4.png"" style=""width:200px;border:14px solid red;"">","null","","","","","","","","","",""
"","image-keyboard-response","122","71053","0.0-122.0","3U088ZLJVLF4MHIWRMX3WNYF4W30WA","A7VA2Y4H6U31O","3EHVO81VN57KAWAV14A1K6BEMLH1HG","","642.6000000238419","img/land5.png","74","643.7999999523163","1","1","1","2","0.8,0.2,0.2,0.2,0.8,0.2,0.2,0.2,0.8","0.8,0.2,0.2,0.2,0.8,0.2,0.2,0.2,0.8","1","",""
"","html-keyboard-response","123","71355","0.0-123.0","3U088ZLJVLF4MHIWRMX3WNYF4W30WA","A7VA2Y4H6U31O","3EHVO81VN57KAWAV14A1K6BEMLH1HG","","null","<img src=""img/land5.png"" style=""width:200px; border:14px solid green;"">","null","","","","","","","","","",""
"","image-keyboard-response","124","72923","0.0-124.0","3U088ZLJVLF4MHIWRMX3WNYF4W30WA","A7VA2Y4H6U31O","3EHVO81VN57KAWAV14A1K6BEMLH1HG","","1566.7999999523163","img/land2.png","75","1568","2","0","3","2","0.8,0.2,0.2,0.2,0.8,0.2,0.2,0.2,0.8","0.8,0.2,0.2,0.2,0.8,0.2,0.2,0.2,0.8","1","",""
"","html-keyboard-response","125","73225","0.0-125.0","3U088ZLJVLF4MHIWRMX3WNYF4W30WA","A7VA2Y4H6U31O","3EHVO81VN57KAWAV14A1K6BEMLH1HG","","null","<img src=""img/land2.png"" style=""width:200px;border:14px solid red;"">","null","","","","","","","","","",""
"","image-keyboard-response","126","73803","0.0-126.0","3U088ZLJVLF4MHIWRMX3WNYF4W30WA","A7VA2Y4H6U31O","3EHVO81VN57KAWAV14A1K6BEMLH1HG","","577.5","img/land5.png","74","578.6000000238419","1","1","1","2","0.8,0.2,0.2,0.2,0.8,0.2,0.2,0.2,0.8","0.8,0.2,0.2,0.2,0.8,0.2,0.2,0.2,0.8","1","",""
"","html-keyboard-response","127","74106","0.0-127.0","3U088ZLJVLF4MHIWRMX3WNYF4W30WA","A7VA2Y4H6U31O","3EHVO81VN57KAWAV14A1K6BEMLH1HG","","null","<img src=""img/land5.png"" style=""width:200px; border:14px solid green;"">","null","","","","","","","","","",""
"","image-keyboard-response","128","74804","0.0-128.0","3U088ZLJVLF4MHIWRMX3WNYF4W30WA","A7VA2Y4H6U31O","3EHVO81VN57KAWAV14A1K6BEMLH1HG","","696.2999999523163","img/land2.png","76","697.6999999284744","3","0","3","2","0.8,0.2,0.2,0.2,0.8,0.2,0.2,0.2,0.8","0.8,0.2,0.2,0.2,0.8,0.2,0.2,0.2,0.8","1","",""
"","html-keyboard-response","129","75106","0.0-129.0","3U088ZLJVLF4MHIWRMX3WNYF4W30WA","A7VA2Y4H6U31O","3EHVO81VN57KAWAV14A1K6BEMLH1HG","","null","<img src=""img/land2.png"" style=""width:200px;border:14px solid red;"">","null","","","","","","","","","",""
"","image-keyboard-response","130","75666","0.0-130.0","3U088ZLJVLF4MHIWRMX3WNYF4W30WA","A7VA2Y4H6U31O","3EHVO81VN57KAWAV14A1K6BEMLH1HG","","558.6000000238419","img/land2.png","74","560.2000000476837","1","0","3","2","0.8,0.2,0.2,0.2,0.8,0.2,0.2,0.2,0.8","0.8,0.2,0.2,0.2,0.8,0.2,0.2,0.2,0.8","1","",""
"","html-keyboard-response","131","75969","0.0-131.0","3U088ZLJVLF4MHIWRMX3WNYF4W30WA","A7VA2Y4H6U31O","3EHVO81VN57KAWAV14A1K6BEMLH1HG","","null","<img src=""img/land2.png"" style=""width:200px;border:14px solid red;"">","null","","","","","","","","","",""
"","image-keyboard-response","132","76756","0.0-132.0","3U088ZLJVLF4MHIWRMX3WNYF4W30WA","A7VA2Y4H6U31O","3EHVO81VN57KAWAV14A1K6BEMLH1HG","","786.4000000953674","img/land5.png","74","786.7999999523163","1","1","1","2","0.8,0.2,0.2,0.2,0.8,0.2,0.2,0.2,0.8","0.8,0.2,0.2,0.2,0.8,0.2,0.2,0.2,0.8","1","",""
"","html-keyboard-response","133","77057","0.0-133.0","3U088ZLJVLF4MHIWRMX3WNYF4W30WA","A7VA2Y4H6U31O","3EHVO81VN57KAWAV14A1K6BEMLH1HG","","null","<img src=""img/land5.png"" style=""width:200px; border:14px solid green;"">","null","","","","","","","","","",""
"","image-keyboard-response","134","77442","0.0-134.0","3U088ZLJVLF4MHIWRMX3WNYF4W30WA","A7VA2Y4H6U31O","3EHVO81VN57KAWAV14A1K6BEMLH1HG","","384","img/land5.png","74","384.7999999523163","1","0","1","2","0.8,0.2,0.2,0.2,0.8,0.2,0.2,0.2,0.8","0.8,0.2,0.2,0.2,0.8,0.2,0.2,0.2,0.8","1","",""
"","html-keyboard-response","135","77745","0.0-135.0","3U088ZLJVLF4MHIWRMX3WNYF4W30WA","A7VA2Y4H6U31O","3EHVO81VN57KAWAV14A1K6BEMLH1HG","","null","<img src=""img/land5.png"" style=""width:200px;border:14px solid red;"">","null","","","","","","","","","",""
"","image-keyboard-response","136","78816","0.0-136.0","3U088ZLJVLF4MHIWRMX3WNYF4W30WA","A7VA2Y4H6U31O","3EHVO81VN57KAWAV14A1K6BEMLH1HG","","1070.7000000476837","img/land4.png","75","1071.3000000715256","2","1","2","2","0.8,0.2,0.2,0.2,0.8,0.2,0.2,0.2,0.8","0.8,0.2,0.2,0.2,0.8,0.2,0.2,0.2,0.8","1","",""
"","html-keyboard-response","137","79118","0.0-137.0","3U088ZLJVLF4MHIWRMX3WNYF4W30WA","A7VA2Y4H6U31O","3EHVO81VN57KAWAV14A1K6BEMLH1HG","","null","<img src=""img/land4.png"" style=""width:200px; border:14px solid green;"">","null","","","","","","","","","",""
"","image-keyboard-response","138","79702","0.0-138.0","3U088ZLJVLF4MHIWRMX3WNYF4W30WA","A7VA2Y4H6U31O","3EHVO81VN57KAWAV14A1K6BEMLH1HG","","582.1999999284744","img/land5.png","74","583.5999999046326","1","1","1","2","0.8,0.2,0.2,0.2,0.8,0.2,0.2,0.2,0.8","0.8,0.2,0.2,0.2,0.8,0.2,0.2,0.2,0.8","1","",""
"","html-keyboard-response","139","80004","0.0-139.0","3U088ZLJVLF4MHIWRMX3WNYF4W30WA","A7VA2Y4H6U31O","3EHVO81VN57KAWAV14A1K6BEMLH1HG","","null","<img src=""img/land5.png"" style=""width:200px; border:14px solid green;"">","null","","","","","","","","","",""
"","image-keyboard-response","140","81358","0.0-140.0","3U088ZLJVLF4MHIWRMX3WNYF4W30WA","A7VA2Y4H6U31O","3EHVO81VN57KAWAV14A1K6BEMLH1HG","","1352.8000000715256","img/land2.png","76","1353.3999999761581","3","1","3","2","0.8,0.2,0.2,0.2,0.8,0.2,0.2,0.2,0.8","0.8,0.2,0.2,0.2,0.8,0.2,0.2,0.2,0.8","1","",""
"","html-keyboard-response","141","81659","0.0-141.0","3U088ZLJVLF4MHIWRMX3WNYF4W30WA","A7VA2Y4H6U31O","3EHVO81VN57KAWAV14A1K6BEMLH1HG","","null","<img src=""img/land2.png"" style=""width:200px; border:14px solid green;"">","null","","","","","","","","","",""
"","image-keyboard-response","142","82253","0.0-142.0","3U088ZLJVLF4MHIWRMX3WNYF4W30WA","A7VA2Y4H6U31O","3EHVO81VN57KAWAV14A1K6BEMLH1HG","","593.2999999523163","img/land5.png","74","594.0999999046326","1","0","1","2","0.8,0.2,0.2,0.2,0.8,0.2,0.2,0.2,0.8","0.8,0.2,0.2,0.2,0.8,0.2,0.2,0.2,0.8","1","",""
"","html-keyboard-response","143","82555","0.0-143.0","3U088ZLJVLF4MHIWRMX3WNYF4W30WA","A7VA2Y4H6U31O","3EHVO81VN57KAWAV14A1K6BEMLH1HG","","null","<img src=""img/land5.png"" style=""width:200px;border:14px solid red;"">","null","","","","","","","","","",""
"","image-keyboard-response","144","83699","0.0-144.0","3U088ZLJVLF4MHIWRMX3WNYF4W30WA","A7VA2Y4H6U31O","3EHVO81VN57KAWAV14A1K6BEMLH1HG","","1142.2999999523163","img/land4.png","75","1143.5","2","1","2","2","0.8,0.2,0.2,0.2,0.8,0.2,0.2,0.2,0.8","0.8,0.2,0.2,0.2,0.8,0.2,0.2,0.2,0.8","1","",""
"","html-keyboard-response","145","84000","0.0-145.0","3U088ZLJVLF4MHIWRMX3WNYF4W30WA","A7VA2Y4H6U31O","3EHVO81VN57KAWAV14A1K6BEMLH1HG","","null","<img src=""img/land4.png"" style=""width:200px; border:14px solid green;"">","null","","","","","","","","","",""
"","image-keyboard-response","146","84643","0.0-146.0","3U088ZLJVLF4MHIWRMX3WNYF4W30WA","A7VA2Y4H6U31O","3EHVO81VN57KAWAV14A1K6BEMLH1HG","","641.3999999761581","img/land5.png","74","642","1","1","1","2","0.8,0.2,0.2,0.2,0.8,0.2,0.2,0.2,0.8","0.8,0.2,0.2,0.2,0.8,0.2,0.2,0.2,0.8","1","",""
"","html-keyboard-response","147","84944","0.0-147.0","3U088ZLJVLF4MHIWRMX3WNYF4W30WA","A7VA2Y4H6U31O","3EHVO81VN57KAWAV14A1K6BEMLH1HG","","null","<img src=""img/land5.png"" style=""width:200px; border:14px solid green;"">","null","","","","","","","","","",""
"","image-keyboard-response","148","85890","0.0-148.0","3U088ZLJVLF4MHIWRMX3WNYF4W30WA","A7VA2Y4H6U31O","3EHVO81VN57KAWAV14A1K6BEMLH1HG","","944.2000000476837","img/land2.png","76","945.3000000715256","3","1","3","2","0.8,0.2,0.2,0.2,0.8,0.2,0.2,0.2,0.8","0.8,0.2,0.2,0.2,0.8,0.2,0.2,0.2,0.8","1","",""
"","html-keyboard-response","149","86192","0.0-149.0","3U088ZLJVLF4MHIWRMX3WNYF4W30WA","A7VA2Y4H6U31O","3EHVO81VN57KAWAV14A1K6BEMLH1HG","","null","<img src=""img/land2.png"" style=""width:200px; border:14px solid green;"">","null","","","","","","","","","",""
"","image-keyboard-response","150","86990","0.0-150.0","3U088ZLJVLF4MHIWRMX3WNYF4W30WA","A7VA2Y4H6U31O","3EHVO81VN57KAWAV14A1K6BEMLH1HG","","797.2999999523163","img/land4.png","75","798.2999999523163","2","0","2","2","0.8,0.2,0.2,0.2,0.8,0.2,0.2,0.2,0.8","0.8,0.2,0.2,0.2,0.8,0.2,0.2,0.2,0.8","1","",""
"","html-keyboard-response","151","87292","0.0-151.0","3U088ZLJVLF4MHIWRMX3WNYF4W30WA","A7VA2Y4H6U31O","3EHVO81VN57KAWAV14A1K6BEMLH1HG","","null","<img src=""img/land4.png"" style=""width:200px;border:14px solid red;"">","null","","","","","","","","","",""
"","image-keyboard-response","152","87977","0.0-152.0","3U088ZLJVLF4MHIWRMX3WNYF4W30WA","A7VA2Y4H6U31O","3EHVO81VN57KAWAV14A1K6BEMLH1HG","","683.5","img/land5.png","74","684.7999999523163","1","0","1","2","0.8,0.2,0.2,0.2,0.8,0.2,0.2,0.2,0.8","0.8,0.2,0.2,0.2,0.8,0.2,0.2,0.2,0.8","1","",""
"","html-keyboard-response","153","88280","0.0-153.0","3U088ZLJVLF4MHIWRMX3WNYF4W30WA","A7VA2Y4H6U31O","3EHVO81VN57KAWAV14A1K6BEMLH1HG","","null","<img src=""img/land5.png"" style=""width:200px;border:14px solid red;"">","null","","","","","","","","","",""
"","image-keyboard-response","154","88762","0.0-154.0","3U088ZLJVLF4MHIWRMX3WNYF4W30WA","A7VA2Y4H6U31O","3EHVO81VN57KAWAV14A1K6BEMLH1HG","","481.8000000715256","img/land5.png","74","482.39999997615814","1","1","1","2","0.8,0.2,0.2,0.2,0.8,0.2,0.2,0.2,0.8","0.8,0.2,0.2,0.2,0.8,0.2,0.2,0.2,0.8","1","",""
"","html-keyboard-response","155","89064","0.0-155.0","3U088ZLJVLF4MHIWRMX3WNYF4W30WA","A7VA2Y4H6U31O","3EHVO81VN57KAWAV14A1K6BEMLH1HG","","null","<img src=""img/land5.png"" style=""width:200px; border:14px solid green;"">","null","","","","","","","","","",""
"","image-keyboard-response","156","89934","0.0-156.0","3U088ZLJVLF4MHIWRMX3WNYF4W30WA","A7VA2Y4H6U31O","3EHVO81VN57KAWAV14A1K6BEMLH1HG","","869.7000000476837","img/land5.png","74","870.5","1","1","1","2","0.8,0.2,0.2,0.2,0.8,0.2,0.2,0.2,0.8","0.8,0.2,0.2,0.2,0.8,0.2,0.2,0.2,0.8","1","",""
"","html-keyboard-response","157","90236","0.0-157.0","3U088ZLJVLF4MHIWRMX3WNYF4W30WA","A7VA2Y4H6U31O","3EHVO81VN57KAWAV14A1K6BEMLH1HG","","null","<img src=""img/land5.png"" style=""width:200px; border:14px solid green;"">","null","","","","","","","","","",""
"","image-keyboard-response","158","90826","0.0-158.0","3U088ZLJVLF4MHIWRMX3WNYF4W30WA","A7VA2Y4H6U31O","3EHVO81VN57KAWAV14A1K6BEMLH1HG","","588.8000000715256","img/land5.png","74","590.0999999046326","1","1","1","2","0.8,0.2,0.2,0.2,0.8,0.2,0.2,0.2,0.8","0.8,0.2,0.2,0.2,0.8,0.2,0.2,0.2,0.8","1","",""
"","html-keyboard-response","159","91128","0.0-159.0","3U088ZLJVLF4MHIWRMX3WNYF4W30WA","A7VA2Y4H6U31O","3EHVO81VN57KAWAV14A1K6BEMLH1HG","","null","<img src=""img/land5.png"" style=""width:200px; border:14px solid green;"">","null","","","","","","","","","",""
"","image-keyboard-response","160","92228","0.0-160.0","3U088ZLJVLF4MHIWRMX3WNYF4W30WA","A7VA2Y4H6U31O","3EHVO81VN57KAWAV14A1K6BEMLH1HG","","1098.7000000476837","img/land4.png","75","1099.9000000953674","2","0","2","2","0.8,0.2,0.2,0.2,0.8,0.2,0.2,0.2,0.8","0.8,0.2,0.2,0.2,0.8,0.2,0.2,0.2,0.8","1","",""
"","html-keyboard-response","161","92530","0.0-161.0","3U088ZLJVLF4MHIWRMX3WNYF4W30WA","A7VA2Y4H6U31O","3EHVO81VN57KAWAV14A1K6BEMLH1HG","","null","<img src=""img/land4.png"" style=""width:200px;border:14px solid red;"">","null","","","","","","","","","",""
"","image-keyboard-response","162","93174","0.0-162.0","3U088ZLJVLF4MHIWRMX3WNYF4W30WA","A7VA2Y4H6U31O","3EHVO81VN57KAWAV14A1K6BEMLH1HG","","642.5","img/land2.png","74","643.6000000238419","1","0","3","2","0.8,0.2,0.2,0.2,0.8,0.2,0.2,0.2,0.8","0.8,0.2,0.2,0.2,0.8,0.2,0.2,0.2,0.8","1","",""
"","html-keyboard-response","163","93476","0.0-163.0","3U088ZLJVLF4MHIWRMX3WNYF4W30WA","A7VA2Y4H6U31O","3EHVO81VN57KAWAV14A1K6BEMLH1HG","","null","<img src=""img/land2.png"" style=""width:200px;border:14px solid red;"">","null","","","","","","","","","",""
"","image-keyboard-response","164","94129","0.0-164.0","3U088ZLJVLF4MHIWRMX3WNYF4W30WA","A7VA2Y4H6U31O","3EHVO81VN57KAWAV14A1K6BEMLH1HG","","652.1000000238419","img/land5.png","74","652.7999999523163","1","1","1","2","0.8,0.2,0.2,0.2,0.8,0.2,0.2,0.2,0.8","0.8,0.2,0.2,0.2,0.8,0.2,0.2,0.2,0.8","1","",""
"","html-keyboard-response","165","94430","0.0-165.0","3U088ZLJVLF4MHIWRMX3WNYF4W30WA","A7VA2Y4H6U31O","3EHVO81VN57KAWAV14A1K6BEMLH1HG","","null","<img src=""img/land5.png"" style=""width:200px; border:14px solid green;"">","null","","","","","","","","","",""
"","image-keyboard-response","166","95194","0.0-166.0","3U088ZLJVLF4MHIWRMX3WNYF4W30WA","A7VA2Y4H6U31O","3EHVO81VN57KAWAV14A1K6BEMLH1HG","","761.3999999761581","img/land4.png","76","762.8000000715256","3","0","2","2","0.8,0.2,0.2,0.2,0.8,0.2,0.2,0.2,0.8","0.8,0.2,0.2,0.2,0.8,0.2,0.2,0.2,0.8","1","",""
"","html-keyboard-response","167","95496","0.0-167.0","3U088ZLJVLF4MHIWRMX3WNYF4W30WA","A7VA2Y4H6U31O","3EHVO81VN57KAWAV14A1K6BEMLH1HG","","null","<img src=""img/land4.png"" style=""width:200px;border:14px solid red;"">","null","","","","","","","","","",""
"","image-keyboard-response","168","96227","0.0-168.0","3U088ZLJVLF4MHIWRMX3WNYF4W30WA","A7VA2Y4H6U31O","3EHVO81VN57KAWAV14A1K6BEMLH1HG","","729.1000000238419","img/land5.png","75","730.4000000953674","2","0","1","2","0.8,0.2,0.2,0.2,0.8,0.2,0.2,0.2,0.8","0.8,0.2,0.2,0.2,0.8,0.2,0.2,0.2,0.8","1","",""
"","html-keyboard-response","169","96530","0.0-169.0","3U088ZLJVLF4MHIWRMX3WNYF4W30WA","A7VA2Y4H6U31O","3EHVO81VN57KAWAV14A1K6BEMLH1HG","","null","<img src=""img/land5.png"" style=""width:200px;border:14px solid red;"">","null","","","","","","","","","",""
"","image-keyboard-response","170","96929","0.0-170.0","3U088ZLJVLF4MHIWRMX3WNYF4W30WA","A7VA2Y4H6U31O","3EHVO81VN57KAWAV14A1K6BEMLH1HG","","398.3000000715256","img/land4.png","74","399.39999997615814","1","0","2","2","0.8,0.2,0.2,0.2,0.8,0.2,0.2,0.2,0.8","0.8,0.2,0.2,0.2,0.8,0.2,0.2,0.2,0.8","1","",""
"","html-keyboard-response","171","97231","0.0-171.0","3U088ZLJVLF4MHIWRMX3WNYF4W30WA","A7VA2Y4H6U31O","3EHVO81VN57KAWAV14A1K6BEMLH1HG","","null","<img src=""img/land4.png"" style=""width:200px;border:14px solid red;"">","null","","","","","","","","","",""
"","image-keyboard-response","172","97770","0.0-172.0","3U088ZLJVLF4MHIWRMX3WNYF4W30WA","A7VA2Y4H6U31O","3EHVO81VN57KAWAV14A1K6BEMLH1HG","","536.2999999523163","img/land5.png","76","538.1000000238419","3","1","1","2","0.8,0.2,0.2,0.2,0.8,0.2,0.2,0.2,0.8","0.8,0.2,0.2,0.2,0.8,0.2,0.2,0.2,0.8","1","",""
"","html-keyboard-response","173","98073","0.0-173.0","3U088ZLJVLF4MHIWRMX3WNYF4W30WA","A7VA2Y4H6U31O","3EHVO81VN57KAWAV14A1K6BEMLH1HG","","null","<img src=""img/land5.png"" style=""width:200px; border:14px solid green;"">","null","","","","","","","","","",""
"","image-keyboard-response","174","98800","0.0-174.0","3U088ZLJVLF4MHIWRMX3WNYF4W30WA","A7VA2Y4H6U31O","3EHVO81VN57KAWAV14A1K6BEMLH1HG","","725.3999999761581","img/land2.png","74","726.5","1","0","3","2","0.8,0.2,0.2,0.2,0.8,0.2,0.2,0.2,0.8","0.8,0.2,0.2,0.2,0.8,0.2,0.2,0.2,0.8","1","",""
"","html-keyboard-response","175","99101","0.0-175.0","3U088ZLJVLF4MHIWRMX3WNYF4W30WA","A7VA2Y4H6U31O","3EHVO81VN57KAWAV14A1K6BEMLH1HG","","null","<img src=""img/land2.png"" style=""width:200px;border:14px solid red;"">","null","","","","","","","","","",""
"","image-keyboard-response","176","99656","0.0-176.0","3U088ZLJVLF4MHIWRMX3WNYF4W30WA","A7VA2Y4H6U31O","3EHVO81VN57KAWAV14A1K6BEMLH1HG","","554","img/land2.png","75","555","2","0","3","2","0.8,0.2,0.2,0.2,0.8,0.2,0.2,0.2,0.8","0.8,0.2,0.2,0.2,0.8,0.2,0.2,0.2,0.8","1","",""
"","html-keyboard-response","177","99957","0.0-177.0","3U088ZLJVLF4MHIWRMX3WNYF4W30WA","A7VA2Y4H6U31O","3EHVO81VN57KAWAV14A1K6BEMLH1HG","","null","<img src=""img/land2.png"" style=""width:200px;border:14px solid red;"">","null","","","","","","","","","",""
"","image-keyboard-response","178","100684","0.0-178.0","3U088ZLJVLF4MHIWRMX3WNYF4W30WA","A7VA2Y4H6U31O","3EHVO81VN57KAWAV14A1K6BEMLH1HG","","725.5","img/land5.png","74","726.6999999284744","1","1","1","2","0.8,0.2,0.2,0.2,0.8,0.2,0.2,0.2,0.8","0.8,0.2,0.2,0.2,0.8,0.2,0.2,0.2,0.8","1","",""
"","html-keyboard-response","179","100986","0.0-179.0","3U088ZLJVLF4MHIWRMX3WNYF4W30WA","A7VA2Y4H6U31O","3EHVO81VN57KAWAV14A1K6BEMLH1HG","","null","<img src=""img/land5.png"" style=""width:200px; border:14px solid green;"">","null","","","","","","","","","",""
"","image-keyboard-response","180","101353","0.0-180.0","3U088ZLJVLF4MHIWRMX3WNYF4W30WA","A7VA2Y4H6U31O","3EHVO81VN57KAWAV14A1K6BEMLH1HG","","365.7999999523163","img/land5.png","74","366.5","1","1","1","2","0.8,0.2,0.2,0.2,0.8,0.2,0.2,0.2,0.8","0.8,0.2,0.2,0.2,0.8,0.2,0.2,0.2,0.8","1","",""
"","html-keyboard-response","181","101655","0.0-181.0","3U088ZLJVLF4MHIWRMX3WNYF4W30WA","A7VA2Y4H6U31O","3EHVO81VN57KAWAV14A1K6BEMLH1HG","","null","<img src=""img/land5.png"" style=""width:200px; border:14px solid green;"">","null","","","","","","","","","",""
"","image-keyboard-response","182","101918","0.0-182.0","3U088ZLJVLF4MHIWRMX3WNYF4W30WA","A7VA2Y4H6U31O","3EHVO81VN57KAWAV14A1K6BEMLH1HG","","260.89999997615814","img/land5.png","74","262.09999990463257","1","0","1","2","0.8,0.2,0.2,0.2,0.8,0.2,0.2,0.2,0.8","0.8,0.2,0.2,0.2,0.8,0.2,0.2,0.2,0.8","1","",""
"","html-keyboard-response","183","102221","0.0-183.0","3U088ZLJVLF4MHIWRMX3WNYF4W30WA","A7VA2Y4H6U31O","3EHVO81VN57KAWAV14A1K6BEMLH1HG","","null","<img src=""img/land5.png"" style=""width:200px;border:14px solid red;"">","null","","","","","","","","","",""
"","image-keyboard-response","184","102625","0.0-184.0","3U088ZLJVLF4MHIWRMX3WNYF4W30WA","A7VA2Y4H6U31O","3EHVO81VN57KAWAV14A1K6BEMLH1HG","","402.5","img/land5.png","74","403.89999997615814","1","1","1","2","0.8,0.2,0.2,0.2,0.8,0.2,0.2,0.2,0.8","0.8,0.2,0.2,0.2,0.8,0.2,0.2,0.2,0.8","1","",""
"","html-keyboard-response","185","102943","0.0-185.0","3U088ZLJVLF4MHIWRMX3WNYF4W30WA","A7VA2Y4H6U31O","3EHVO81VN57KAWAV14A1K6BEMLH1HG","","null","<img src=""img/land5.png"" style=""width:200px; border:14px solid green;"">","null","","","","","","","","","",""
"","image-keyboard-response","186","103696","0.0-186.0","3U088ZLJVLF4MHIWRMX3WNYF4W30WA","A7VA2Y4H6U31O","3EHVO81VN57KAWAV14A1K6BEMLH1HG","","751.5","img/land2.png","75","753.1000000238419","2","0","3","2","0.8,0.2,0.2,0.2,0.8,0.2,0.2,0.2,0.8","0.8,0.2,0.2,0.2,0.8,0.2,0.2,0.2,0.8","1","",""
"","html-keyboard-response","187","103999","0.0-187.0","3U088ZLJVLF4MHIWRMX3WNYF4W30WA","A7VA2Y4H6U31O","3EHVO81VN57KAWAV14A1K6BEMLH1HG","","null","<img src=""img/land2.png"" style=""width:200px;border:14px solid red;"">","null","","","","","","","","","",""
"","image-keyboard-response","188","104519","0.0-188.0","3U088ZLJVLF4MHIWRMX3WNYF4W30WA","A7VA2Y4H6U31O","3EHVO81VN57KAWAV14A1K6BEMLH1HG","","518.8000000715256","img/land5.png","74","520","1","0","1","2","0.8,0.2,0.2,0.2,0.8,0.2,0.2,0.2,0.8","0.8,0.2,0.2,0.2,0.8,0.2,0.2,0.2,0.8","1","",""
"","html-keyboard-response","189","104821","0.0-189.0","3U088ZLJVLF4MHIWRMX3WNYF4W30WA","A7VA2Y4H6U31O","3EHVO81VN57KAWAV14A1K6BEMLH1HG","","null","<img src=""img/land5.png"" style=""width:200px;border:14px solid red;"">","null","","","","","","","","","",""
"","image-keyboard-response","190","105482","0.0-190.0","3U088ZLJVLF4MHIWRMX3WNYF4W30WA","A7VA2Y4H6U31O","3EHVO81VN57KAWAV14A1K6BEMLH1HG","","659.8999999761581","img/land2.png","75","660.7000000476837","2","0","3","2","0.8,0.2,0.2,0.2,0.8,0.2,0.2,0.2,0.8","0.8,0.2,0.2,0.2,0.8,0.2,0.2,0.2,0.8","1","",""
"","html-keyboard-response","191","105787","0.0-191.0","3U088ZLJVLF4MHIWRMX3WNYF4W30WA","A7VA2Y4H6U31O","3EHVO81VN57KAWAV14A1K6BEMLH1HG","","null","<img src=""img/land2.png"" style=""width:200px;border:14px solid red;"">","null","","","","","","","","","",""
"","image-keyboard-response","192","107788","0.0-192.0","3U088ZLJVLF4MHIWRMX3WNYF4W30WA","A7VA2Y4H6U31O","3EHVO81VN57KAWAV14A1K6BEMLH1HG","","","img/land4.png","","2001.7999999523163","-1","0","2","2","0.8,0.2,0.2,0.2,0.8,0.2,0.2,0.2,0.8","0.8,0.2,0.2,0.2,0.8,0.2,0.2,0.2,0.8","1","",""
"","html-keyboard-response","193","108091","0.0-193.0","3U088ZLJVLF4MHIWRMX3WNYF4W30WA","A7VA2Y4H6U31O","3EHVO81VN57KAWAV14A1K6BEMLH1HG","","null","<img src=""img/land4.png"" style=""width:200px;border:14px solid red;"">","null","","","","","","","","","",""
"","image-keyboard-response","194","110093","0.0-194.0","3U088ZLJVLF4MHIWRMX3WNYF4W30WA","A7VA2Y4H6U31O","3EHVO81VN57KAWAV14A1K6BEMLH1HG","","","img/land5.png","","2002.3000000715256","-1","0","1","2","0.8,0.2,0.2,0.2,0.8,0.2,0.2,0.2,0.8","0.8,0.2,0.2,0.2,0.8,0.2,0.2,0.2,0.8","1","",""
"","html-keyboard-response","195","110396","0.0-195.0","3U088ZLJVLF4MHIWRMX3WNYF4W30WA","A7VA2Y4H6U31O","3EHVO81VN57KAWAV14A1K6BEMLH1HG","","null","<img src=""img/land5.png"" style=""width:200px;border:14px solid red;"">","null","","","","","","","","","",""
"","image-keyboard-response","196","110730","0.0-196.0","3U088ZLJVLF4MHIWRMX3WNYF4W30WA","A7VA2Y4H6U31O","3EHVO81VN57KAWAV14A1K6BEMLH1HG","","332.60000002384186","img/land5.png","74","333.7999999523163","1","1","1","2","0.8,0.2,0.2,0.2,0.8,0.2,0.2,0.2,0.8","0.8,0.2,0.2,0.2,0.8,0.2,0.2,0.2,0.8","1","",""
"","html-keyboard-response","197","111031","0.0-197.0","3U088ZLJVLF4MHIWRMX3WNYF4W30WA","A7VA2Y4H6U31O","3EHVO81VN57KAWAV14A1K6BEMLH1HG","","null","<img src=""img/land5.png"" style=""width:200px; border:14px solid green;"">","null","","","","","","","","","",""
"","image-keyboard-response","198","111379","0.0-198.0","3U088ZLJVLF4MHIWRMX3WNYF4W30WA","A7VA2Y4H6U31O","3EHVO81VN57KAWAV14A1K6BEMLH1HG","","346.60000002384186","img/land5.png","74","347.5","1","1","1","2","0.8,0.2,0.2,0.2,0.8,0.2,0.2,0.2,0.8","0.8,0.2,0.2,0.2,0.8,0.2,0.2,0.2,0.8","1","",""
"","html-keyboard-response","199","111681","0.0-199.0","3U088ZLJVLF4MHIWRMX3WNYF4W30WA","A7VA2Y4H6U31O","3EHVO81VN57KAWAV14A1K6BEMLH1HG","","null","<img src=""img/land5.png"" style=""width:200px; border:14px solid green;"">","null","","","","","","","","","",""
"","image-keyboard-response","200","111987","0.0-200.0","3U088ZLJVLF4MHIWRMX3WNYF4W30WA","A7VA2Y4H6U31O","3EHVO81VN57KAWAV14A1K6BEMLH1HG","","304.5","img/land5.png","74","305.8000000715256","1","1","1","2","0.8,0.2,0.2,0.2,0.8,0.2,0.2,0.2,0.8","0.8,0.2,0.2,0.2,0.8,0.2,0.2,0.2,0.8","1","",""
"","html-keyboard-response","201","112290","0.0-201.0","3U088ZLJVLF4MHIWRMX3WNYF4W30WA","A7VA2Y4H6U31O","3EHVO81VN57KAWAV14A1K6BEMLH1HG","","null","<img src=""img/land5.png"" style=""width:200px; border:14px solid green;"">","null","","","","","","","","","",""
"","image-keyboard-response","202","113089","0.0-202.0","3U088ZLJVLF4MHIWRMX3WNYF4W30WA","A7VA2Y4H6U31O","3EHVO81VN57KAWAV14A1K6BEMLH1HG","","798.2999999523163","img/land4.png","75","799.2999999523163","2","1","2","2","0.8,0.2,0.2,0.2,0.8,0.2,0.2,0.2,0.8","0.8,0.2,0.2,0.2,0.8,0.2,0.2,0.2,0.8","1","",""
"","html-keyboard-response","203","113391","0.0-203.0","3U088ZLJVLF4MHIWRMX3WNYF4W30WA","A7VA2Y4H6U31O","3EHVO81VN57KAWAV14A1K6BEMLH1HG","","null","<img src=""img/land4.png"" style=""width:200px; border:14px solid green;"">","null","","","","","","","","","",""
"","image-keyboard-response","204","114718","0.0-204.0","3U088ZLJVLF4MHIWRMX3WNYF4W30WA","A7VA2Y4H6U31O","3EHVO81VN57KAWAV14A1K6BEMLH1HG","","1326.7000000476837","img/land2.png","74","1327.2999999523163","1","1","3","2","0.8,0.2,0.2,0.2,0.8,0.2,0.2,0.2,0.8","0.8,0.2,0.2,0.2,0.8,0.2,0.2,0.2,0.8","1","",""
"","html-keyboard-response","205","115020","0.0-205.0","3U088ZLJVLF4MHIWRMX3WNYF4W30WA","A7VA2Y4H6U31O","3EHVO81VN57KAWAV14A1K6BEMLH1HG","","null","<img src=""img/land2.png"" style=""width:200px; border:14px solid green;"">","null","","","","","","","","","",""
"","image-keyboard-response","206","115915","0.0-206.0","3U088ZLJVLF4MHIWRMX3WNYF4W30WA","A7VA2Y4H6U31O","3EHVO81VN57KAWAV14A1K6BEMLH1HG","","892.7000000476837","img/land5.png","74","894.2000000476837","1","1","1","2","0.8,0.2,0.2,0.2,0.8,0.2,0.2,0.2,0.8","0.8,0.2,0.2,0.2,0.8,0.2,0.2,0.2,0.8","1","",""
"","html-keyboard-response","207","116216","0.0-207.0","3U088ZLJVLF4MHIWRMX3WNYF4W30WA","A7VA2Y4H6U31O","3EHVO81VN57KAWAV14A1K6BEMLH1HG","","null","<img src=""img/land5.png"" style=""width:200px; border:14px solid green;"">","null","","","","","","","","","",""
"","image-keyboard-response","208","116603","0.0-208.0","3U088ZLJVLF4MHIWRMX3WNYF4W30WA","A7VA2Y4H6U31O","3EHVO81VN57KAWAV14A1K6BEMLH1HG","","385.89999997615814","img/land5.png","74","386.7000000476837","1","0","1","2","0.8,0.2,0.2,0.2,0.8,0.2,0.2,0.2,0.8","0.8,0.2,0.2,0.2,0.8,0.2,0.2,0.2,0.8","1","",""
"","html-keyboard-response","209","116904","0.0-209.0","3U088ZLJVLF4MHIWRMX3WNYF4W30WA","A7VA2Y4H6U31O","3EHVO81VN57KAWAV14A1K6BEMLH1HG","","null","<img src=""img/land5.png"" style=""width:200px;border:14px solid red;"">","null","","","","","","","","","",""
"","image-keyboard-response","210","117274","0.0-210.0","3U088ZLJVLF4MHIWRMX3WNYF4W30WA","A7VA2Y4H6U31O","3EHVO81VN57KAWAV14A1K6BEMLH1HG","","369.89999997615814","img/land5.png","74","370.2999999523163","1","1","1","2","0.8,0.2,0.2,0.2,0.8,0.2,0.2,0.2,0.8","0.8,0.2,0.2,0.2,0.8,0.2,0.2,0.2,0.8","1","",""
"","html-keyboard-response","211","117576","0.0-211.0","3U088ZLJVLF4MHIWRMX3WNYF4W30WA","A7VA2Y4H6U31O","3EHVO81VN57KAWAV14A1K6BEMLH1HG","","null","<img src=""img/land5.png"" style=""width:200px; border:14px solid green;"">","null","","","","","","","","","",""
"","image-keyboard-response","212","118001","0.0-212.0","3U088ZLJVLF4MHIWRMX3WNYF4W30WA","A7VA2Y4H6U31O","3EHVO81VN57KAWAV14A1K6BEMLH1HG","","424.89999997615814","img/land5.png","74","425.39999997615814","1","1","1","2","0.8,0.2,0.2,0.2,0.8,0.2,0.2,0.2,0.8","0.8,0.2,0.2,0.2,0.8,0.2,0.2,0.2,0.8","1","",""
"","html-keyboard-response","213","118302","0.0-213.0","3U088ZLJVLF4MHIWRMX3WNYF4W30WA","A7VA2Y4H6U31O","3EHVO81VN57KAWAV14A1K6BEMLH1HG","","null","<img src=""img/land5.png"" style=""width:200px; border:14px solid green;"">","null","","","","","","","","","",""
"","image-keyboard-response","214","118669","0.0-214.0","3U088ZLJVLF4MHIWRMX3WNYF4W30WA","A7VA2Y4H6U31O","3EHVO81VN57KAWAV14A1K6BEMLH1HG","","365.7999999523163","img/land5.png","74","366.60000002384186","1","1","1","2","0.8,0.2,0.2,0.2,0.8,0.2,0.2,0.2,0.8","0.8,0.2,0.2,0.2,0.8,0.2,0.2,0.2,0.8","1","",""
"","html-keyboard-response","215","118971","0.0-215.0","3U088ZLJVLF4MHIWRMX3WNYF4W30WA","A7VA2Y4H6U31O","3EHVO81VN57KAWAV14A1K6BEMLH1HG","","null","<img src=""img/land5.png"" style=""width:200px; border:14px solid green;"">","null","","","","","","","","","",""
"","image-keyboard-response","216","119343","0.0-216.0","3U088ZLJVLF4MHIWRMX3WNYF4W30WA","A7VA2Y4H6U31O","3EHVO81VN57KAWAV14A1K6BEMLH1HG","","371.60000002384186","img/land5.png","74","372.2000000476837","1","1","1","2","0.8,0.2,0.2,0.2,0.8,0.2,0.2,0.2,0.8","0.8,0.2,0.2,0.2,0.8,0.2,0.2,0.2,0.8","1","",""
"","html-keyboard-response","217","119645","0.0-217.0","3U088ZLJVLF4MHIWRMX3WNYF4W30WA","A7VA2Y4H6U31O","3EHVO81VN57KAWAV14A1K6BEMLH1HG","","null","<img src=""img/land5.png"" style=""width:200px; border:14px solid green;"">","null","","","","","","","","","",""
"","image-keyboard-response","218","120743","0.0-218.0","3U088ZLJVLF4MHIWRMX3WNYF4W30WA","A7VA2Y4H6U31O","3EHVO81VN57KAWAV14A1K6BEMLH1HG","","1095.8999999761581","img/land2.png","74","1097.3999999761581","1","1","3","2","0.8,0.2,0.2,0.2,0.8,0.2,0.2,0.2,0.8","0.8,0.2,0.2,0.2,0.8,0.2,0.2,0.2,0.8","1","",""
"","html-keyboard-response","219","121046","0.0-219.0","3U088ZLJVLF4MHIWRMX3WNYF4W30WA","A7VA2Y4H6U31O","3EHVO81VN57KAWAV14A1K6BEMLH1HG","","null","<img src=""img/land2.png"" style=""width:200px; border:14px solid green;"">","null","","","","","","","","","",""
"","image-keyboard-response","220","121396","0.0-220.0","3U088ZLJVLF4MHIWRMX3WNYF4W30WA","A7VA2Y4H6U31O","3EHVO81VN57KAWAV14A1K6BEMLH1HG","","348.5","img/land2.png","74","349.89999997615814","1","1","3","2","0.8,0.2,0.2,0.2,0.8,0.2,0.2,0.2,0.8","0.8,0.2,0.2,0.2,0.8,0.2,0.2,0.2,0.8","1","",""
"","html-keyboard-response","221","121698","0.0-221.0","3U088ZLJVLF4MHIWRMX3WNYF4W30WA","A7VA2Y4H6U31O","3EHVO81VN57KAWAV14A1K6BEMLH1HG","","null","<img src=""img/land2.png"" style=""width:200px; border:14px solid green;"">","null","","","","","","","","","",""
"","image-keyboard-response","222","122810","0.0-222.0","3U088ZLJVLF4MHIWRMX3WNYF4W30WA","A7VA2Y4H6U31O","3EHVO81VN57KAWAV14A1K6BEMLH1HG","","1110.3999999761581","img/land5.png","75","1111.5999999046326","2","0","1","2","0.8,0.2,0.2,0.2,0.8,0.2,0.2,0.2,0.8","0.8,0.2,0.2,0.2,0.8,0.2,0.2,0.2,0.8","1","",""
"","html-keyboard-response","223","123111","0.0-223.0","3U088ZLJVLF4MHIWRMX3WNYF4W30WA","A7VA2Y4H6U31O","3EHVO81VN57KAWAV14A1K6BEMLH1HG","","null","<img src=""img/land5.png"" style=""width:200px;border:14px solid red;"">","null","","","","","","","","","",""
"","image-keyboard-response","224","123522","0.0-224.0","3U088ZLJVLF4MHIWRMX3WNYF4W30WA","A7VA2Y4H6U31O","3EHVO81VN57KAWAV14A1K6BEMLH1HG","","409.89999997615814","img/land2.png","74","410.6999999284744","1","0","3","2","0.8,0.2,0.2,0.2,0.8,0.2,0.2,0.2,0.8","0.8,0.2,0.2,0.2,0.8,0.2,0.2,0.2,0.8","1","",""
"","html-keyboard-response","225","123824","0.0-225.0","3U088ZLJVLF4MHIWRMX3WNYF4W30WA","A7VA2Y4H6U31O","3EHVO81VN57KAWAV14A1K6BEMLH1HG","","null","<img src=""img/land2.png"" style=""width:200px;border:14px solid red;"">","null","","","","","","","","","",""
"","image-keyboard-response","226","124473","0.0-226.0","3U088ZLJVLF4MHIWRMX3WNYF4W30WA","A7VA2Y4H6U31O","3EHVO81VN57KAWAV14A1K6BEMLH1HG","","646.6000000238419","img/land5.png","74","647.7999999523163","1","1","1","2","0.8,0.2,0.2,0.2,0.8,0.2,0.2,0.2,0.8","0.8,0.2,0.2,0.2,0.8,0.2,0.2,0.2,0.8","1","",""
"","html-keyboard-response","227","124774","0.0-227.0","3U088ZLJVLF4MHIWRMX3WNYF4W30WA","A7VA2Y4H6U31O","3EHVO81VN57KAWAV14A1K6BEMLH1HG","","null","<img src=""img/land5.png"" style=""width:200px; border:14px solid green;"">","null","","","","","","","","","",""
"","image-keyboard-response","228","125674","0.0-228.0","3U088ZLJVLF4MHIWRMX3WNYF4W30WA","A7VA2Y4H6U31O","3EHVO81VN57KAWAV14A1K6BEMLH1HG","","898.4000000953674","img/land4.png","74","899.5","1","0","2","2","0.8,0.2,0.2,0.2,0.8,0.2,0.2,0.2,0.8","0.8,0.2,0.2,0.2,0.8,0.2,0.2,0.2,0.8","1","",""
"","html-keyboard-response","229","125975","0.0-229.0","3U088ZLJVLF4MHIWRMX3WNYF4W30WA","A7VA2Y4H6U31O","3EHVO81VN57KAWAV14A1K6BEMLH1HG","","null","<img src=""img/land4.png"" style=""width:200px;border:14px solid red;"">","null","","","","","","","","","",""
"","image-keyboard-response","230","126369","0.0-230.0","3U088ZLJVLF4MHIWRMX3WNYF4W30WA","A7VA2Y4H6U31O","3EHVO81VN57KAWAV14A1K6BEMLH1HG","","392.7999999523163","img/land5.png","74","393.8000000715256","1","0","1","2","0.8,0.2,0.2,0.2,0.8,0.2,0.2,0.2,0.8","0.8,0.2,0.2,0.2,0.8,0.2,0.2,0.2,0.8","1","",""
"","html-keyboard-response","231","126671","0.0-231.0","3U088ZLJVLF4MHIWRMX3WNYF4W30WA","A7VA2Y4H6U31O","3EHVO81VN57KAWAV14A1K6BEMLH1HG","","null","<img src=""img/land5.png"" style=""width:200px;border:14px solid red;"">","null","","","","","","","","","",""
"","image-keyboard-response","232","127035","0.0-232.0","3U088ZLJVLF4MHIWRMX3WNYF4W30WA","A7VA2Y4H6U31O","3EHVO81VN57KAWAV14A1K6BEMLH1HG","","363.10000002384186","img/land5.png","74","364.1999999284744","1","1","1","2","0.8,0.2,0.2,0.2,0.8,0.2,0.2,0.2,0.8","0.8,0.2,0.2,0.2,0.8,0.2,0.2,0.2,0.8","1","",""
"","html-keyboard-response","233","127336","0.0-233.0","3U088ZLJVLF4MHIWRMX3WNYF4W30WA","A7VA2Y4H6U31O","3EHVO81VN57KAWAV14A1K6BEMLH1HG","","null","<img src=""img/land5.png"" style=""width:200px; border:14px solid green;"">","null","","","","","","","","","",""
"","image-keyboard-response","234","127931","0.0-234.0","3U088ZLJVLF4MHIWRMX3WNYF4W30WA","A7VA2Y4H6U31O","3EHVO81VN57KAWAV14A1K6BEMLH1HG","","592.7000000476837","img/land4.png","74","594.1000000238419","1","0","2","2","0.8,0.2,0.2,0.2,0.8,0.2,0.2,0.2,0.8","0.8,0.2,0.2,0.2,0.8,0.2,0.2,0.2,0.8","1","",""
"","html-keyboard-response","235","128233","0.0-235.0","3U088ZLJVLF4MHIWRMX3WNYF4W30WA","A7VA2Y4H6U31O","3EHVO81VN57KAWAV14A1K6BEMLH1HG","","null","<img src=""img/land4.png"" style=""width:200px;border:14px solid red;"">","null","","","","","","","","","",""
"","image-keyboard-response","236","128633","0.0-236.0","3U088ZLJVLF4MHIWRMX3WNYF4W30WA","A7VA2Y4H6U31O","3EHVO81VN57KAWAV14A1K6BEMLH1HG","","398.7999999523163","img/land5.png","74","399.6999999284744","1","1","1","2","0.8,0.2,0.2,0.2,0.8,0.2,0.2,0.2,0.8","0.8,0.2,0.2,0.2,0.8,0.2,0.2,0.2,0.8","1","",""
"","html-keyboard-response","237","128935","0.0-237.0","3U088ZLJVLF4MHIWRMX3WNYF4W30WA","A7VA2Y4H6U31O","3EHVO81VN57KAWAV14A1K6BEMLH1HG","","null","<img src=""img/land5.png"" style=""width:200px; border:14px solid green;"">","null","","","","","","","","","",""
"","image-keyboard-response","238","129307","0.0-238.0","3U088ZLJVLF4MHIWRMX3WNYF4W30WA","A7VA2Y4H6U31O","3EHVO81VN57KAWAV14A1K6BEMLH1HG","","371.60000002384186","img/land5.png","74","372","1","1","1","2","0.8,0.2,0.2,0.2,0.8,0.2,0.2,0.2,0.8","0.8,0.2,0.2,0.2,0.8,0.2,0.2,0.2,0.8","1","",""
"","html-keyboard-response","239","129607","0.0-239.0","3U088ZLJVLF4MHIWRMX3WNYF4W30WA","A7VA2Y4H6U31O","3EHVO81VN57KAWAV14A1K6BEMLH1HG","","null","<img src=""img/land5.png"" style=""width:200px; border:14px solid green;"">","null","","","","","","","","","",""
"","image-keyboard-response","240","130278","0.0-240.0","3U088ZLJVLF4MHIWRMX3WNYF4W30WA","A7VA2Y4H6U31O","3EHVO81VN57KAWAV14A1K6BEMLH1HG","","669.1999999284744","img/land2.png","75","670.1000000238419","2","0","3","2","0.8,0.2,0.2,0.2,0.8,0.2,0.2,0.2,0.8","0.8,0.2,0.2,0.2,0.8,0.2,0.2,0.2,0.8","1","",""
"","html-keyboard-response","241","130580","0.0-241.0","3U088ZLJVLF4MHIWRMX3WNYF4W30WA","A7VA2Y4H6U31O","3EHVO81VN57KAWAV14A1K6BEMLH1HG","","null","<img src=""img/land2.png"" style=""width:200px;border:14px solid red;"">","null","","","","","","","","","",""
"","image-keyboard-response","242","130917","0.0-242.0","3U088ZLJVLF4MHIWRMX3WNYF4W30WA","A7VA2Y4H6U31O","3EHVO81VN57KAWAV14A1K6BEMLH1HG","","336.60000002384186","img/land5.png","74","337.60000002384186","1","1","1","2","0.8,0.2,0.2,0.2,0.8,0.2,0.2,0.2,0.8","0.8,0.2,0.2,0.2,0.8,0.2,0.2,0.2,0.8","1","",""
"","html-keyboard-response","243","131224","0.0-243.0","3U088ZLJVLF4MHIWRMX3WNYF4W30WA","A7VA2Y4H6U31O","3EHVO81VN57KAWAV14A1K6BEMLH1HG","","null","<img src=""img/land5.png"" style=""width:200px; border:14px solid green;"">","null","","","","","","","","","",""
"","image-keyboard-response","244","131670","0.0-244.0","3U088ZLJVLF4MHIWRMX3WNYF4W30WA","A7VA2Y4H6U31O","3EHVO81VN57KAWAV14A1K6BEMLH1HG","","444.09999990463257","img/land5.png","74","445.59999990463257","1","1","1","2","0.8,0.2,0.2,0.2,0.8,0.2,0.2,0.2,0.8","0.8,0.2,0.2,0.2,0.8,0.2,0.2,0.2,0.8","1","",""
"","html-keyboard-response","245","131971","0.0-245.0","3U088ZLJVLF4MHIWRMX3WNYF4W30WA","A7VA2Y4H6U31O","3EHVO81VN57KAWAV14A1K6BEMLH1HG","","null","<img src=""img/land5.png"" style=""width:200px; border:14px solid green;"">","null","","","","","","","","","",""
"","image-keyboard-response","246","133973","0.0-246.0","3U088ZLJVLF4MHIWRMX3WNYF4W30WA","A7VA2Y4H6U31O","3EHVO81VN57KAWAV14A1K6BEMLH1HG","","","img/land5.png","","2001.8999999761581","-1","0","1","2","0.8,0.2,0.2,0.2,0.8,0.2,0.2,0.2,0.8","0.8,0.2,0.2,0.2,0.8,0.2,0.2,0.2,0.8","1","",""
"","html-keyboard-response","247","134276","0.0-247.0","3U088ZLJVLF4MHIWRMX3WNYF4W30WA","A7VA2Y4H6U31O","3EHVO81VN57KAWAV14A1K6BEMLH1HG","","null","<img src=""img/land5.png"" style=""width:200px;border:14px solid red;"">","null","","","","","","","","","",""
"","image-keyboard-response","248","134797","0.0-248.0","3U088ZLJVLF4MHIWRMX3WNYF4W30WA","A7VA2Y4H6U31O","3EHVO81VN57KAWAV14A1K6BEMLH1HG","","520.5999999046326","img/land5.png","74","521","1","1","1","2","0.8,0.2,0.2,0.2,0.8,0.2,0.2,0.2,0.8","0.8,0.2,0.2,0.2,0.8,0.2,0.2,0.2,0.8","1","",""
"","html-keyboard-response","249","135099","0.0-249.0","3U088ZLJVLF4MHIWRMX3WNYF4W30WA","A7VA2Y4H6U31O","3EHVO81VN57KAWAV14A1K6BEMLH1HG","","null","<img src=""img/land5.png"" style=""width:200px; border:14px solid green;"">","null","","","","","","","","","",""
"","image-keyboard-response","250","135478","0.0-250.0","3U088ZLJVLF4MHIWRMX3WNYF4W30WA","A7VA2Y4H6U31O","3EHVO81VN57KAWAV14A1K6BEMLH1HG","","377.7000000476837","img/land5.png","74","379","1","0","1","2","0.8,0.2,0.2,0.2,0.8,0.2,0.2,0.2,0.8","0.8,0.2,0.2,0.2,0.8,0.2,0.2,0.2,0.8","1","",""
"","html-keyboard-response","251","135780","0.0-251.0","3U088ZLJVLF4MHIWRMX3WNYF4W30WA","A7VA2Y4H6U31O","3EHVO81VN57KAWAV14A1K6BEMLH1HG","","null","<img src=""img/land5.png"" style=""width:200px;border:14px solid red;"">","null","","","","","","","","","",""
"","image-keyboard-response","252","136188","0.0-252.0","3U088ZLJVLF4MHIWRMX3WNYF4W30WA","A7VA2Y4H6U31O","3EHVO81VN57KAWAV14A1K6BEMLH1HG","","406.2000000476837","img/land5.png","74","407.40000009536743","1","0","1","2","0.8,0.2,0.2,0.2,0.8,0.2,0.2,0.2,0.8","0.8,0.2,0.2,0.2,0.8,0.2,0.2,0.2,0.8","1","",""
"","html-keyboard-response","253","136490","0.0-253.0","3U088ZLJVLF4MHIWRMX3WNYF4W30WA","A7VA2Y4H6U31O","3EHVO81VN57KAWAV14A1K6BEMLH1HG","","null","<img src=""img/land5.png"" style=""width:200px;border:14px solid red;"">","null","","","","","","","","","",""
"","image-keyboard-response","254","137100","0.0-254.0","3U088ZLJVLF4MHIWRMX3WNYF4W30WA","A7VA2Y4H6U31O","3EHVO81VN57KAWAV14A1K6BEMLH1HG","","609.1000000238419","img/land4.png","74","610","1","0","2","2","0.8,0.2,0.2,0.2,0.8,0.2,0.2,0.2,0.8","0.8,0.2,0.2,0.2,0.8,0.2,0.2,0.2,0.8","1","",""
"","html-keyboard-response","255","137413","0.0-255.0","3U088ZLJVLF4MHIWRMX3WNYF4W30WA","A7VA2Y4H6U31O","3EHVO81VN57KAWAV14A1K6BEMLH1HG","","null","<img src=""img/land4.png"" style=""width:200px;border:14px solid red;"">","null","","","","","","","","","",""
"","image-keyboard-response","256","137974","0.0-256.0","3U088ZLJVLF4MHIWRMX3WNYF4W30WA","A7VA2Y4H6U31O","3EHVO81VN57KAWAV14A1K6BEMLH1HG","","558.7000000476837","img/land4.png","74","560.1000000238419","1","0","2","2","0.8,0.2,0.2,0.2,0.8,0.2,0.2,0.2,0.8","0.8,0.2,0.2,0.2,0.8,0.2,0.2,0.2,0.8","1","",""
"","html-keyboard-response","257","138276","0.0-257.0","3U088ZLJVLF4MHIWRMX3WNYF4W30WA","A7VA2Y4H6U31O","3EHVO81VN57KAWAV14A1K6BEMLH1HG","","null","<img src=""img/land4.png"" style=""width:200px;border:14px solid red;"">","null","","","","","","","","","",""
"","image-keyboard-response","258","138919","0.0-258.0","3U088ZLJVLF4MHIWRMX3WNYF4W30WA","A7VA2Y4H6U31O","3EHVO81VN57KAWAV14A1K6BEMLH1HG","","641.2999999523163","img/land5.png","74","642.5","1","1","1","2","0.8,0.2,0.2,0.2,0.8,0.2,0.2,0.2,0.8","0.8,0.2,0.2,0.2,0.8,0.2,0.2,0.2,0.8","1","",""
"","html-keyboard-response","259","139221","0.0-259.0","3U088ZLJVLF4MHIWRMX3WNYF4W30WA","A7VA2Y4H6U31O","3EHVO81VN57KAWAV14A1K6BEMLH1HG","","null","<img src=""img/land5.png"" style=""width:200px; border:14px solid green;"">","null","","","","","","","","","",""
"","image-keyboard-response","260","139669","0.0-260.0","3U088ZLJVLF4MHIWRMX3WNYF4W30WA","A7VA2Y4H6U31O","3EHVO81VN57KAWAV14A1K6BEMLH1HG","","447","img/land5.png","74","448.5","1","1","1","2","0.8,0.2,0.2,0.2,0.8,0.2,0.2,0.2,0.8","0.8,0.2,0.2,0.2,0.8,0.2,0.2,0.2,0.8","1","",""
"","html-keyboard-response","261","139973","0.0-261.0","3U088ZLJVLF4MHIWRMX3WNYF4W30WA","A7VA2Y4H6U31O","3EHVO81VN57KAWAV14A1K6BEMLH1HG","","null","<img src=""img/land5.png"" style=""width:200px; border:14px solid green;"">","null","","","","","","","","","",""
"","image-keyboard-response","262","140487","0.0-262.0","3U088ZLJVLF4MHIWRMX3WNYF4W30WA","A7VA2Y4H6U31O","3EHVO81VN57KAWAV14A1K6BEMLH1HG","","512.1999999284744","img/land5.png","74","513.6999999284744","1","1","1","2","0.8,0.2,0.2,0.2,0.8,0.2,0.2,0.2,0.8","0.8,0.2,0.2,0.2,0.8,0.2,0.2,0.2,0.8","1","",""
"","html-keyboard-response","263","140799","0.0-263.0","3U088ZLJVLF4MHIWRMX3WNYF4W30WA","A7VA2Y4H6U31O","3EHVO81VN57KAWAV14A1K6BEMLH1HG","","null","<img src=""img/land5.png"" style=""width:200px; border:14px solid green;"">","null","","","","","","","","","",""
"","image-keyboard-response","264","141162","0.0-264.0","3U088ZLJVLF4MHIWRMX3WNYF4W30WA","A7VA2Y4H6U31O","3EHVO81VN57KAWAV14A1K6BEMLH1HG","","360.2999999523163","img/land5.png","74","361.89999997615814","1","1","1","2","0.8,0.2,0.2,0.2,0.8,0.2,0.2,0.2,0.8","0.8,0.2,0.2,0.2,0.8,0.2,0.2,0.2,0.8","1","",""
"","html-keyboard-response","265","141464","0.0-265.0","3U088ZLJVLF4MHIWRMX3WNYF4W30WA","A7VA2Y4H6U31O","3EHVO81VN57KAWAV14A1K6BEMLH1HG","","null","<img src=""img/land5.png"" style=""width:200px; border:14px solid green;"">","null","","","","","","","","","",""
"","image-keyboard-response","266","142371","0.0-266.0","3U088ZLJVLF4MHIWRMX3WNYF4W30WA","A7VA2Y4H6U31O","3EHVO81VN57KAWAV14A1K6BEMLH1HG","","904.8999999761581","img/land2.png","75","906.3999999761581","2","0","3","2","0.8,0.2,0.2,0.2,0.8,0.2,0.2,0.2,0.8","0.8,0.2,0.2,0.2,0.8,0.2,0.2,0.2,0.8","1","",""
"","html-keyboard-response","267","142672","0.0-267.0","3U088ZLJVLF4MHIWRMX3WNYF4W30WA","A7VA2Y4H6U31O","3EHVO81VN57KAWAV14A1K6BEMLH1HG","","null","<img src=""img/land2.png"" style=""width:200px;border:14px solid red;"">","null","","","","","","","","","",""
"","image-keyboard-response","268","143025","0.0-268.0","3U088ZLJVLF4MHIWRMX3WNYF4W30WA","A7VA2Y4H6U31O","3EHVO81VN57KAWAV14A1K6BEMLH1HG","","351","img/land2.png","74","352.2999999523163","1","0","3","2","0.8,0.2,0.2,0.2,0.8,0.2,0.2,0.2,0.8","0.8,0.2,0.2,0.2,0.8,0.2,0.2,0.2,0.8","1","",""
"","html-keyboard-response","269","143327","0.0-269.0","3U088ZLJVLF4MHIWRMX3WNYF4W30WA","A7VA2Y4H6U31O","3EHVO81VN57KAWAV14A1K6BEMLH1HG","","null","<img src=""img/land2.png"" style=""width:200px;border:14px solid red;"">","null","","","","","","","","","",""
"","image-keyboard-response","270","143952","0.0-270.0","3U088ZLJVLF4MHIWRMX3WNYF4W30WA","A7VA2Y4H6U31O","3EHVO81VN57KAWAV14A1K6BEMLH1HG","","623.3999999761581","img/land5.png","74","624.8000000715256","1","1","1","2","0.8,0.2,0.2,0.2,0.8,0.2,0.2,0.2,0.8","0.8,0.2,0.2,0.2,0.8,0.2,0.2,0.2,0.8","1","",""
"","html-keyboard-response","271","144255","0.0-271.0","3U088ZLJVLF4MHIWRMX3WNYF4W30WA","A7VA2Y4H6U31O","3EHVO81VN57KAWAV14A1K6BEMLH1HG","","null","<img src=""img/land5.png"" style=""width:200px; border:14px solid green;"">","null","","","","","","","","","",""
"","image-keyboard-response","272","145238","0.0-272.0","3U088ZLJVLF4MHIWRMX3WNYF4W30WA","A7VA2Y4H6U31O","3EHVO81VN57KAWAV14A1K6BEMLH1HG","","981.2999999523163","img/land2.png","75","982.5","2","0","3","2","0.8,0.2,0.2,0.2,0.8,0.2,0.2,0.2,0.8","0.8,0.2,0.2,0.2,0.8,0.2,0.2,0.2,0.8","1","",""
"","html-keyboard-response","273","145540","0.0-273.0","3U088ZLJVLF4MHIWRMX3WNYF4W30WA","A7VA2Y4H6U31O","3EHVO81VN57KAWAV14A1K6BEMLH1HG","","null","<img src=""img/land2.png"" style=""width:200px;border:14px solid red;"">","null","","","","","","","","","",""
"","image-keyboard-response","274","145998","0.0-274.0","3U088ZLJVLF4MHIWRMX3WNYF4W30WA","A7VA2Y4H6U31O","3EHVO81VN57KAWAV14A1K6BEMLH1HG","","456.6999999284744","img/land5.png","74","457.2999999523163","1","1","1","2","0.8,0.2,0.2,0.2,0.8,0.2,0.2,0.2,0.8","0.8,0.2,0.2,0.2,0.8,0.2,0.2,0.2,0.8","1","",""
"","html-keyboard-response","275","146300","0.0-275.0","3U088ZLJVLF4MHIWRMX3WNYF4W30WA","A7VA2Y4H6U31O","3EHVO81VN57KAWAV14A1K6BEMLH1HG","","null","<img src=""img/land5.png"" style=""width:200px; border:14px solid green;"">","null","","","","","","","","","",""
"","image-keyboard-response","276","146666","0.0-276.0","3U088ZLJVLF4MHIWRMX3WNYF4W30WA","A7VA2Y4H6U31O","3EHVO81VN57KAWAV14A1K6BEMLH1HG","","365.1999999284744","img/land5.png","74","366.10000002384186","1","1","1","2","0.8,0.2,0.2,0.2,0.8,0.2,0.2,0.2,0.8","0.8,0.2,0.2,0.2,0.8,0.2,0.2,0.2,0.8","1","",""
"","html-keyboard-response","277","146968","0.0-277.0","3U088ZLJVLF4MHIWRMX3WNYF4W30WA","A7VA2Y4H6U31O","3EHVO81VN57KAWAV14A1K6BEMLH1HG","","null","<img src=""img/land5.png"" style=""width:200px; border:14px solid green;"">","null","","","","","","","","","",""
"","image-keyboard-response","278","147688","0.0-278.0","3U088ZLJVLF4MHIWRMX3WNYF4W30WA","A7VA2Y4H6U31O","3EHVO81VN57KAWAV14A1K6BEMLH1HG","","717.7000000476837","img/land2.png","74","718.9000000953674","1","0","3","2","0.8,0.2,0.2,0.2,0.8,0.2,0.2,0.2,0.8","0.8,0.2,0.2,0.2,0.8,0.2,0.2,0.2,0.8","1","",""
"","html-keyboard-response","279","147989","0.0-279.0","3U088ZLJVLF4MHIWRMX3WNYF4W30WA","A7VA2Y4H6U31O","3EHVO81VN57KAWAV14A1K6BEMLH1HG","","null","<img src=""img/land2.png"" style=""width:200px;border:14px solid red;"">","null","","","","","","","","","",""
"","image-keyboard-response","280","148398","0.0-280.0","3U088ZLJVLF4MHIWRMX3WNYF4W30WA","A7VA2Y4H6U31O","3EHVO81VN57KAWAV14A1K6BEMLH1HG","","406.5","img/land5.png","74","407.7999999523163","1","1","1","2","0.8,0.2,0.2,0.2,0.8,0.2,0.2,0.2,0.8","0.8,0.2,0.2,0.2,0.8,0.2,0.2,0.2,0.8","1","",""
"","html-keyboard-response","281","148699","0.0-281.0","3U088ZLJVLF4MHIWRMX3WNYF4W30WA","A7VA2Y4H6U31O","3EHVO81VN57KAWAV14A1K6BEMLH1HG","","null","<img src=""img/land5.png"" style=""width:200px; border:14px solid green;"">","null","","","","","","","","","",""
"","image-keyboard-response","282","149067","0.0-282.0","3U088ZLJVLF4MHIWRMX3WNYF4W30WA","A7VA2Y4H6U31O","3EHVO81VN57KAWAV14A1K6BEMLH1HG","","366.2000000476837","img/land5.png","74","367.2999999523163","1","1","1","2","0.8,0.2,0.2,0.2,0.8,0.2,0.2,0.2,0.8","0.8,0.2,0.2,0.2,0.8,0.2,0.2,0.2,0.8","1","",""
"","html-keyboard-response","283","149371","0.0-283.0","3U088ZLJVLF4MHIWRMX3WNYF4W30WA","A7VA2Y4H6U31O","3EHVO81VN57KAWAV14A1K6BEMLH1HG","","null","<img src=""img/land5.png"" style=""width:200px; border:14px solid green;"">","null","","","","","","","","","",""
"","image-keyboard-response","284","149717","0.0-284.0","3U088ZLJVLF4MHIWRMX3WNYF4W30WA","A7VA2Y4H6U31O","3EHVO81VN57KAWAV14A1K6BEMLH1HG","","344.5","img/land5.png","74","345.2000000476837","1","0","1","2","0.8,0.2,0.2,0.2,0.8,0.2,0.2,0.2,0.8","0.8,0.2,0.2,0.2,0.8,0.2,0.2,0.2,0.8","1","",""
"","html-keyboard-response","285","150018","0.0-285.0","3U088ZLJVLF4MHIWRMX3WNYF4W30WA","A7VA2Y4H6U31O","3EHVO81VN57KAWAV14A1K6BEMLH1HG","","null","<img src=""img/land5.png"" style=""width:200px;border:14px solid red;"">","null","","","","","","","","","",""
"","image-keyboard-response","286","150390","0.0-286.0","3U088ZLJVLF4MHIWRMX3WNYF4W30WA","A7VA2Y4H6U31O","3EHVO81VN57KAWAV14A1K6BEMLH1HG","","369.6999999284744","img/land5.png","74","371.1999999284744","1","1","1","2","0.8,0.2,0.2,0.2,0.8,0.2,0.2,0.2,0.8","0.8,0.2,0.2,0.2,0.8,0.2,0.2,0.2,0.8","1","",""
"","html-keyboard-response","287","150692","0.0-287.0","3U088ZLJVLF4MHIWRMX3WNYF4W30WA","A7VA2Y4H6U31O","3EHVO81VN57KAWAV14A1K6BEMLH1HG","","null","<img src=""img/land5.png"" style=""width:200px; border:14px solid green;"">","null","","","","","","","","","",""
"","image-keyboard-response","288","151151","0.0-288.0","3U088ZLJVLF4MHIWRMX3WNYF4W30WA","A7VA2Y4H6U31O","3EHVO81VN57KAWAV14A1K6BEMLH1HG","","457.7000000476837","img/land5.png","75","458.6999999284744","2","0","1","2","0.8,0.2,0.2,0.2,0.8,0.2,0.2,0.2,0.8","0.8,0.2,0.2,0.2,0.8,0.2,0.2,0.2,0.8","1","",""
"","html-keyboard-response","289","151452","0.0-289.0","3U088ZLJVLF4MHIWRMX3WNYF4W30WA","A7VA2Y4H6U31O","3EHVO81VN57KAWAV14A1K6BEMLH1HG","","null","<img src=""img/land5.png"" style=""width:200px;border:14px solid red;"">","null","","","","","","","","","",""
"","image-keyboard-response","290","152269","0.0-290.0","3U088ZLJVLF4MHIWRMX3WNYF4W30WA","A7VA2Y4H6U31O","3EHVO81VN57KAWAV14A1K6BEMLH1HG","","815.6999999284744","img/land2.png","76","817.1999999284744","3","1","3","2","0.8,0.2,0.2,0.2,0.8,0.2,0.2,0.2,0.8","0.8,0.2,0.2,0.2,0.8,0.2,0.2,0.2,0.8","1","",""
"","html-keyboard-response","291","152571","0.0-291.0","3U088ZLJVLF4MHIWRMX3WNYF4W30WA","A7VA2Y4H6U31O","3EHVO81VN57KAWAV14A1K6BEMLH1HG","","null","<img src=""img/land2.png"" style=""width:200px; border:14px solid green;"">","null","","","","","","","","","",""
"","image-keyboard-response","292","153149","0.0-292.0","3U088ZLJVLF4MHIWRMX3WNYF4W30WA","A7VA2Y4H6U31O","3EHVO81VN57KAWAV14A1K6BEMLH1HG","","576.1000000238419","img/land5.png","74","577.3999999761581","1","1","1","2","0.8,0.2,0.2,0.2,0.8,0.2,0.2,0.2,0.8","0.8,0.2,0.2,0.2,0.8,0.2,0.2,0.2,0.8","1","",""
"","html-keyboard-response","293","153451","0.0-293.0","3U088ZLJVLF4MHIWRMX3WNYF4W30WA","A7VA2Y4H6U31O","3EHVO81VN57KAWAV14A1K6BEMLH1HG","","null","<img src=""img/land5.png"" style=""width:200px; border:14px solid green;"">","null","","","","","","","","","",""
"","image-keyboard-response","294","154295","0.0-294.0","3U088ZLJVLF4MHIWRMX3WNYF4W30WA","A7VA2Y4H6U31O","3EHVO81VN57KAWAV14A1K6BEMLH1HG","","842.3999999761581","img/land4.png","75","843.8000000715256","2","0","2","2","0.8,0.2,0.2,0.2,0.8,0.2,0.2,0.2,0.8","0.8,0.2,0.2,0.2,0.8,0.2,0.2,0.2,0.8","1","",""
"","html-keyboard-response","295","154597","0.0-295.0","3U088ZLJVLF4MHIWRMX3WNYF4W30WA","A7VA2Y4H6U31O","3EHVO81VN57KAWAV14A1K6BEMLH1HG","","null","<img src=""img/land4.png"" style=""width:200px;border:14px solid red;"">","null","","","","","","","","","",""
"","image-keyboard-response","296","155098","0.0-296.0","3U088ZLJVLF4MHIWRMX3WNYF4W30WA","A7VA2Y4H6U31O","3EHVO81VN57KAWAV14A1K6BEMLH1HG","","499.1999999284744","img/land5.png","74","500.2000000476837","1","1","1","2","0.8,0.2,0.2,0.2,0.8,0.2,0.2,0.2,0.8","0.8,0.2,0.2,0.2,0.8,0.2,0.2,0.2,0.8","1","",""
"","html-keyboard-response","297","155400","0.0-297.0","3U088ZLJVLF4MHIWRMX3WNYF4W30WA","A7VA2Y4H6U31O","3EHVO81VN57KAWAV14A1K6BEMLH1HG","","null","<img src=""img/land5.png"" style=""width:200px; border:14px solid green;"">","null","","","","","","","","","",""
"","image-keyboard-response","298","155730","0.0-298.0","3U088ZLJVLF4MHIWRMX3WNYF4W30WA","A7VA2Y4H6U31O","3EHVO81VN57KAWAV14A1K6BEMLH1HG","","329.89999997615814","img/land5.png","74","330.2999999523163","1","1","1","2","0.8,0.2,0.2,0.2,0.8,0.2,0.2,0.2,0.8","0.8,0.2,0.2,0.2,0.8,0.2,0.2,0.2,0.8","1","",""
"","html-keyboard-response","299","156034","0.0-299.0","3U088ZLJVLF4MHIWRMX3WNYF4W30WA","A7VA2Y4H6U31O","3EHVO81VN57KAWAV14A1K6BEMLH1HG","","null","<img src=""img/land5.png"" style=""width:200px; border:14px solid green;"">","null","","","","","","","","","",""
"","image-keyboard-response","300","156318","0.0-300.0","3U088ZLJVLF4MHIWRMX3WNYF4W30WA","A7VA2Y4H6U31O","3EHVO81VN57KAWAV14A1K6BEMLH1HG","","282.6999999284744","img/land5.png","74","283.3000000715256","1","1","1","2","0.8,0.2,0.2,0.2,0.8,0.2,0.2,0.2,0.8","0.8,0.2,0.2,0.2,0.8,0.2,0.2,0.2,0.8","1","",""
"","html-keyboard-response","301","156619","0.0-301.0","3U088ZLJVLF4MHIWRMX3WNYF4W30WA","A7VA2Y4H6U31O","3EHVO81VN57KAWAV14A1K6BEMLH1HG","","null","<img src=""img/land5.png"" style=""width:200px; border:14px solid green;"">","null","","","","","","","","","",""
"","image-keyboard-response","302","156860","0.0-302.0","3U088ZLJVLF4MHIWRMX3WNYF4W30WA","A7VA2Y4H6U31O","3EHVO81VN57KAWAV14A1K6BEMLH1HG","","240.60000002384186","img/land6.png","74","241.20000004768372","1","0","2","1","0.8,0.2,0.2,0.2,0.8,0.2,0.2,0.2,0.8","0.8,0.2,0.2,0.2,0.8,0.2,0.2,0.2,0.8","1","",""
"","html-keyboard-response","303","157162","0.0-303.0","3U088ZLJVLF4MHIWRMX3WNYF4W30WA","A7VA2Y4H6U31O","3EHVO81VN57KAWAV14A1K6BEMLH1HG","","null","<img src=""img/land6.png"" style=""width:200px;border:14px solid red;"">","null","","","","","","","","","",""
"","image-keyboard-response","304","158019","0.0-304.0","3U088ZLJVLF4MHIWRMX3WNYF4W30WA","A7VA2Y4H6U31O","3EHVO81VN57KAWAV14A1K6BEMLH1HG","","856.7000000476837","img/land6.png","75","857.3000000715256","2","0","2","1","0.8,0.2,0.2,0.2,0.8,0.2,0.2,0.2,0.8","0.8,0.2,0.2,0.2,0.8,0.2,0.2,0.2,0.8","1","",""
"","html-keyboard-response","305","158321","0.0-305.0","3U088ZLJVLF4MHIWRMX3WNYF4W30WA","A7VA2Y4H6U31O","3EHVO81VN57KAWAV14A1K6BEMLH1HG","","null","<img src=""img/land6.png"" style=""width:200px;border:14px solid red;"">","null","","","","","","","","","",""
"","image-keyboard-response","306","158695","0.0-306.0","3U088ZLJVLF4MHIWRMX3WNYF4W30WA","A7VA2Y4H6U31O","3EHVO81VN57KAWAV14A1K6BEMLH1HG","","373.40000009536743","img/land6.png","76","374.10000002384186","3","1","2","1","0.8,0.2,0.2,0.2,0.8,0.2,0.2,0.2,0.8","0.8,0.2,0.2,0.2,0.8,0.2,0.2,0.2,0.8","1","",""
"","html-keyboard-response","307","158997","0.0-307.0","3U088ZLJVLF4MHIWRMX3WNYF4W30WA","A7VA2Y4H6U31O","3EHVO81VN57KAWAV14A1K6BEMLH1HG","","null","<img src=""img/land6.png"" style=""width:200px; border:14px solid green;"">","null","","","","","","","","","",""
"","image-keyboard-response","308","160359","0.0-308.0","3U088ZLJVLF4MHIWRMX3WNYF4W30WA","A7VA2Y4H6U31O","3EHVO81VN57KAWAV14A1K6BEMLH1HG","","1360.7999999523163","img/land1.png","74","1361.5","1","1","3","1","0.8,0.2,0.2,0.2,0.8,0.2,0.2,0.2,0.8","0.8,0.2,0.2,0.2,0.8,0.2,0.2,0.2,0.8","1","",""
"","html-keyboard-response","309","160661","0.0-309.0","3U088ZLJVLF4MHIWRMX3WNYF4W30WA","A7VA2Y4H6U31O","3EHVO81VN57KAWAV14A1K6BEMLH1HG","","null","<img src=""img/land1.png"" style=""width:200px; border:14px solid green;"">","null","","","","","","","","","",""
"","image-keyboard-response","310","162268","0.0-310.0","3U088ZLJVLF4MHIWRMX3WNYF4W30WA","A7VA2Y4H6U31O","3EHVO81VN57KAWAV14A1K6BEMLH1HG","","1605.2999999523163","img/land3.png","74","1606.5","1","1","1","1","0.8,0.2,0.2,0.2,0.8,0.2,0.2,0.2,0.8","0.8,0.2,0.2,0.2,0.8,0.2,0.2,0.2,0.8","1","",""
"","html-keyboard-response","311","162569","0.0-311.0","3U088ZLJVLF4MHIWRMX3WNYF4W30WA","A7VA2Y4H6U31O","3EHVO81VN57KAWAV14A1K6BEMLH1HG","","null","<img src=""img/land3.png"" style=""width:200px; border:14px solid green;"">","null","","","","","","","","","",""
"","image-keyboard-response","312","163196","0.0-312.0","3U088ZLJVLF4MHIWRMX3WNYF4W30WA","A7VA2Y4H6U31O","3EHVO81VN57KAWAV14A1K6BEMLH1HG","","626.1000000238419","img/land6.png","74","627.1000000238419","1","0","2","1","0.8,0.2,0.2,0.2,0.8,0.2,0.2,0.2,0.8","0.8,0.2,0.2,0.2,0.8,0.2,0.2,0.2,0.8","1","",""
"","html-keyboard-response","313","163499","0.0-313.0","3U088ZLJVLF4MHIWRMX3WNYF4W30WA","A7VA2Y4H6U31O","3EHVO81VN57KAWAV14A1K6BEMLH1HG","","null","<img src=""img/land6.png"" style=""width:200px;border:14px solid red;"">","null","","","","","","","","","",""
"","image-keyboard-response","314","164113","0.0-314.0","3U088ZLJVLF4MHIWRMX3WNYF4W30WA","A7VA2Y4H6U31O","3EHVO81VN57KAWAV14A1K6BEMLH1HG","","613","img/land6.png","75","613.6000000238419","2","0","2","1","0.8,0.2,0.2,0.2,0.8,0.2,0.2,0.2,0.8","0.8,0.2,0.2,0.2,0.8,0.2,0.2,0.2,0.8","1","",""
"","html-keyboard-response","315","164414","0.0-315.0","3U088ZLJVLF4MHIWRMX3WNYF4W30WA","A7VA2Y4H6U31O","3EHVO81VN57KAWAV14A1K6BEMLH1HG","","null","<img src=""img/land6.png"" style=""width:200px;border:14px solid red;"">","null","","","","","","","","","",""
"","image-keyboard-response","316","164725","0.0-316.0","3U088ZLJVLF4MHIWRMX3WNYF4W30WA","A7VA2Y4H6U31O","3EHVO81VN57KAWAV14A1K6BEMLH1HG","","309.5","img/land6.png","76","310.60000002384186","3","1","2","1","0.8,0.2,0.2,0.2,0.8,0.2,0.2,0.2,0.8","0.8,0.2,0.2,0.2,0.8,0.2,0.2,0.2,0.8","1","",""
"","html-keyboard-response","317","165027","0.0-317.0","3U088ZLJVLF4MHIWRMX3WNYF4W30WA","A7VA2Y4H6U31O","3EHVO81VN57KAWAV14A1K6BEMLH1HG","","null","<img src=""img/land6.png"" style=""width:200px; border:14px solid green;"">","null","","","","","","","","","",""
"","image-keyboard-response","318","165759","0.0-318.0","3U088ZLJVLF4MHIWRMX3WNYF4W30WA","A7VA2Y4H6U31O","3EHVO81VN57KAWAV14A1K6BEMLH1HG","","731.2999999523163","img/land1.png","74","732.1000000238419","1","0","3","1","0.8,0.2,0.2,0.2,0.8,0.2,0.2,0.2,0.8","0.8,0.2,0.2,0.2,0.8,0.2,0.2,0.2,0.8","1","",""
"","html-keyboard-response","319","166072","0.0-319.0","3U088ZLJVLF4MHIWRMX3WNYF4W30WA","A7VA2Y4H6U31O","3EHVO81VN57KAWAV14A1K6BEMLH1HG","","null","<img src=""img/land1.png"" style=""width:200px;border:14px solid red;"">","null","","","","","","","","","",""
"","image-keyboard-response","320","166990","0.0-320.0","3U088ZLJVLF4MHIWRMX3WNYF4W30WA","A7VA2Y4H6U31O","3EHVO81VN57KAWAV14A1K6BEMLH1HG","","916.7999999523163","img/land3.png","74","917.7999999523163","1","1","1","1","0.8,0.2,0.2,0.2,0.8,0.2,0.2,0.2,0.8","0.8,0.2,0.2,0.2,0.8,0.2,0.2,0.2,0.8","1","",""
"","html-keyboard-response","321","167291","0.0-321.0","3U088ZLJVLF4MHIWRMX3WNYF4W30WA","A7VA2Y4H6U31O","3EHVO81VN57KAWAV14A1K6BEMLH1HG","","null","<img src=""img/land3.png"" style=""width:200px; border:14px solid green;"">","null","","","","","","","","","",""
"","image-keyboard-response","322","168080","0.0-322.0","3U088ZLJVLF4MHIWRMX3WNYF4W30WA","A7VA2Y4H6U31O","3EHVO81VN57KAWAV14A1K6BEMLH1HG","","787.1999999284744","img/land6.png","76","788.7000000476837","3","1","2","1","0.8,0.2,0.2,0.2,0.8,0.2,0.2,0.2,0.8","0.8,0.2,0.2,0.2,0.8,0.2,0.2,0.2,0.8","1","",""
"","html-keyboard-response","323","168382","0.0-323.0","3U088ZLJVLF4MHIWRMX3WNYF4W30WA","A7VA2Y4H6U31O","3EHVO81VN57KAWAV14A1K6BEMLH1HG","","null","<img src=""img/land6.png"" style=""width:200px; border:14px solid green;"">","null","","","","","","","","","",""
"","image-keyboard-response","324","168974","0.0-324.0","3U088ZLJVLF4MHIWRMX3WNYF4W30WA","A7VA2Y4H6U31O","3EHVO81VN57KAWAV14A1K6BEMLH1HG","","590.2999999523163","img/land3.png","74","591.5","1","1","1","1","0.8,0.2,0.2,0.2,0.8,0.2,0.2,0.2,0.8","0.8,0.2,0.2,0.2,0.8,0.2,0.2,0.2,0.8","1","",""
"","html-keyboard-response","325","169277","0.0-325.0","3U088ZLJVLF4MHIWRMX3WNYF4W30WA","A7VA2Y4H6U31O","3EHVO81VN57KAWAV14A1K6BEMLH1HG","","null","<img src=""img/land3.png"" style=""width:200px; border:14px solid green;"">","null","","","","","","","","","",""
"","image-keyboard-response","326","169844","0.0-326.0","3U088ZLJVLF4MHIWRMX3WNYF4W30WA","A7VA2Y4H6U31O","3EHVO81VN57KAWAV14A1K6BEMLH1HG","","565","img/land6.png","76","566.3000000715256","3","0","2","1","0.8,0.2,0.2,0.2,0.8,0.2,0.2,0.2,0.8","0.8,0.2,0.2,0.2,0.8,0.2,0.2,0.2,0.8","1","",""
"","html-keyboard-response","327","170145","0.0-327.0","3U088ZLJVLF4MHIWRMX3WNYF4W30WA","A7VA2Y4H6U31O","3EHVO81VN57KAWAV14A1K6BEMLH1HG","","null","<img src=""img/land6.png"" style=""width:200px;border:14px solid red;"">","null","","","","","","","","","",""
"","image-keyboard-response","328","171354","0.0-328.0","3U088ZLJVLF4MHIWRMX3WNYF4W30WA","A7VA2Y4H6U31O","3EHVO81VN57KAWAV14A1K6BEMLH1HG","","1206.6000000238419","img/land1.png","75","1207.8000000715256","2","0","3","1","0.8,0.2,0.2,0.2,0.8,0.2,0.2,0.2,0.8","0.8,0.2,0.2,0.2,0.8,0.2,0.2,0.2,0.8","1","",""
"","html-keyboard-response","329","171655","0.0-329.0","3U088ZLJVLF4MHIWRMX3WNYF4W30WA","A7VA2Y4H6U31O","3EHVO81VN57KAWAV14A1K6BEMLH1HG","","null","<img src=""img/land1.png"" style=""width:200px;border:14px solid red;"">","null","","","","","","","","","",""
"","image-keyboard-response","330","172438","0.0-330.0","3U088ZLJVLF4MHIWRMX3WNYF4W30WA","A7VA2Y4H6U31O","3EHVO81VN57KAWAV14A1K6BEMLH1HG","","781.6999999284744","img/land6.png","74","783.1000000238419","1","0","2","1","0.8,0.2,0.2,0.2,0.8,0.2,0.2,0.2,0.8","0.8,0.2,0.2,0.2,0.8,0.2,0.2,0.2,0.8","1","",""
"","html-keyboard-response","331","172741","0.0-331.0","3U088ZLJVLF4MHIWRMX3WNYF4W30WA","A7VA2Y4H6U31O","3EHVO81VN57KAWAV14A1K6BEMLH1HG","","null","<img src=""img/land6.png"" style=""width:200px;border:14px solid red;"">","null","","","","","","","","","",""
"","image-keyboard-response","332","173357","0.0-332.0","3U088ZLJVLF4MHIWRMX3WNYF4W30WA","A7VA2Y4H6U31O","3EHVO81VN57KAWAV14A1K6BEMLH1HG","","615.6000000238419","img/land3.png","74","616.1000000238419","1","1","1","1","0.8,0.2,0.2,0.2,0.8,0.2,0.2,0.2,0.8","0.8,0.2,0.2,0.2,0.8,0.2,0.2,0.2,0.8","1","",""
"","html-keyboard-response","333","173659","0.0-333.0","3U088ZLJVLF4MHIWRMX3WNYF4W30WA","A7VA2Y4H6U31O","3EHVO81VN57KAWAV14A1K6BEMLH1HG","","null","<img src=""img/land3.png"" style=""width:200px; border:14px solid green;"">","null","","","","","","","","","",""
"","image-keyboard-response","334","174447","0.0-334.0","3U088ZLJVLF4MHIWRMX3WNYF4W30WA","A7VA2Y4H6U31O","3EHVO81VN57KAWAV14A1K6BEMLH1HG","","787.1000000238419","img/land1.png","76","788.1999999284744","3","1","3","1","0.8,0.2,0.2,0.2,0.8,0.2,0.2,0.2,0.8","0.8,0.2,0.2,0.2,0.8,0.2,0.2,0.2,0.8","1","",""
"","html-keyboard-response","335","174748","0.0-335.0","3U088ZLJVLF4MHIWRMX3WNYF4W30WA","A7VA2Y4H6U31O","3EHVO81VN57KAWAV14A1K6BEMLH1HG","","null","<img src=""img/land1.png"" style=""width:200px; border:14px solid green;"">","null","","","","","","","","","",""
"","image-keyboard-response","336","175475","0.0-336.0","3U088ZLJVLF4MHIWRMX3WNYF4W30WA","A7VA2Y4H6U31O","3EHVO81VN57KAWAV14A1K6BEMLH1HG","","725.5","img/land3.png","74","726.3000000715256","1","1","1","1","0.8,0.2,0.2,0.2,0.8,0.2,0.2,0.2,0.8","0.8,0.2,0.2,0.2,0.8,0.2,0.2,0.2,0.8","1","",""
"","html-keyboard-response","337","175776","0.0-337.0","3U088ZLJVLF4MHIWRMX3WNYF4W30WA","A7VA2Y4H6U31O","3EHVO81VN57KAWAV14A1K6BEMLH1HG","","null","<img src=""img/land3.png"" style=""width:200px; border:14px solid green;"">","null","","","","","","","","","",""
"","image-keyboard-response","338","176338","0.0-338.0","3U088ZLJVLF4MHIWRMX3WNYF4W30WA","A7VA2Y4H6U31O","3EHVO81VN57KAWAV14A1K6BEMLH1HG","","560.9000000953674","img/land6.png","76","561.2999999523163","3","0","2","1","0.8,0.2,0.2,0.2,0.8,0.2,0.2,0.2,0.8","0.8,0.2,0.2,0.2,0.8,0.2,0.2,0.2,0.8","1","",""
"","html-keyboard-response","339","176639","0.0-339.0","3U088ZLJVLF4MHIWRMX3WNYF4W30WA","A7VA2Y4H6U31O","3EHVO81VN57KAWAV14A1K6BEMLH1HG","","null","<img src=""img/land6.png"" style=""width:200px;border:14px solid red;"">","null","","","","","","","","","",""
"","image-keyboard-response","340","177011","0.0-340.0","3U088ZLJVLF4MHIWRMX3WNYF4W30WA","A7VA2Y4H6U31O","3EHVO81VN57KAWAV14A1K6BEMLH1HG","","371.3000000715256","img/land6.png","74","372.10000002384186","1","1","2","1","0.8,0.2,0.2,0.2,0.8,0.2,0.2,0.2,0.8","0.8,0.2,0.2,0.2,0.8,0.2,0.2,0.2,0.8","1","",""
"","html-keyboard-response","341","177313","0.0-341.0","3U088ZLJVLF4MHIWRMX3WNYF4W30WA","A7VA2Y4H6U31O","3EHVO81VN57KAWAV14A1K6BEMLH1HG","","null","<img src=""img/land6.png"" style=""width:200px; border:14px solid green;"">","null","","","","","","","","","",""
"","image-keyboard-response","342","178666","0.0-342.0","3U088ZLJVLF4MHIWRMX3WNYF4W30WA","A7VA2Y4H6U31O","3EHVO81VN57KAWAV14A1K6BEMLH1HG","","1351.8000000715256","img/land3.png","74","1352.8000000715256","1","1","1","1","0.8,0.2,0.2,0.2,0.8,0.2,0.2,0.2,0.8","0.8,0.2,0.2,0.2,0.8,0.2,0.2,0.2,0.8","1","",""
"","html-keyboard-response","343","178968","0.0-343.0","3U088ZLJVLF4MHIWRMX3WNYF4W30WA","A7VA2Y4H6U31O","3EHVO81VN57KAWAV14A1K6BEMLH1HG","","null","<img src=""img/land3.png"" style=""width:200px; border:14px solid green;"">","null","","","","","","","","","",""
"","image-keyboard-response","344","179911","0.0-344.0","3U088ZLJVLF4MHIWRMX3WNYF4W30WA","A7VA2Y4H6U31O","3EHVO81VN57KAWAV14A1K6BEMLH1HG","","942","img/land6.png","74","943.0999999046326","1","0","2","1","0.8,0.2,0.2,0.2,0.8,0.2,0.2,0.2,0.8","0.8,0.2,0.2,0.2,0.8,0.2,0.2,0.2,0.8","1","",""
"","html-keyboard-response","345","180212","0.0-345.0","3U088ZLJVLF4MHIWRMX3WNYF4W30WA","A7VA2Y4H6U31O","3EHVO81VN57KAWAV14A1K6BEMLH1HG","","null","<img src=""img/land6.png"" style=""width:200px;border:14px solid red;"">","null","","","","","","","","","",""
"","image-keyboard-response","346","182145","0.0-346.0","3U088ZLJVLF4MHIWRMX3WNYF4W30WA","A7VA2Y4H6U31O","3EHVO81VN57KAWAV14A1K6BEMLH1HG","","1931.1999999284744","img/land1.png","75","1932.2999999523163","2","0","3","1","0.8,0.2,0.2,0.2,0.8,0.2,0.2,0.2,0.8","0.8,0.2,0.2,0.2,0.8,0.2,0.2,0.2,0.8","1","",""
"","html-keyboard-response","347","182446","0.0-347.0","3U088ZLJVLF4MHIWRMX3WNYF4W30WA","A7VA2Y4H6U31O","3EHVO81VN57KAWAV14A1K6BEMLH1HG","","null","<img src=""img/land1.png"" style=""width:200px;border:14px solid red;"">","null","","","","","","","","","",""
"","image-keyboard-response","348","182992","0.0-348.0","3U088ZLJVLF4MHIWRMX3WNYF4W30WA","A7VA2Y4H6U31O","3EHVO81VN57KAWAV14A1K6BEMLH1HG","","544","img/land3.png","74","545","1","1","1","1","0.8,0.2,0.2,0.2,0.8,0.2,0.2,0.2,0.8","0.8,0.2,0.2,0.2,0.8,0.2,0.2,0.2,0.8","1","",""
"","html-keyboard-response","349","183293","0.0-349.0","3U088ZLJVLF4MHIWRMX3WNYF4W30WA","A7VA2Y4H6U31O","3EHVO81VN57KAWAV14A1K6BEMLH1HG","","null","<img src=""img/land3.png"" style=""width:200px; border:14px solid green;"">","null","","","","","","","","","",""
"","image-keyboard-response","350","183977","0.0-350.0","3U088ZLJVLF4MHIWRMX3WNYF4W30WA","A7VA2Y4H6U31O","3EHVO81VN57KAWAV14A1K6BEMLH1HG","","681.8000000715256","img/land6.png","76","683.2000000476837","3","0","2","1","0.8,0.2,0.2,0.2,0.8,0.2,0.2,0.2,0.8","0.8,0.2,0.2,0.2,0.8,0.2,0.2,0.2,0.8","1","",""
"","html-keyboard-response","351","184279","0.0-351.0","3U088ZLJVLF4MHIWRMX3WNYF4W30WA","A7VA2Y4H6U31O","3EHVO81VN57KAWAV14A1K6BEMLH1HG","","null","<img src=""img/land6.png"" style=""width:200px;border:14px solid red;"">","null","","","","","","","","","",""
"","image-keyboard-response","352","184705","0.0-352.0","3U088ZLJVLF4MHIWRMX3WNYF4W30WA","A7VA2Y4H6U31O","3EHVO81VN57KAWAV14A1K6BEMLH1HG","","425","img/land1.png","74","425.7000000476837","1","0","3","1","0.8,0.2,0.2,0.2,0.8,0.2,0.2,0.2,0.8","0.8,0.2,0.2,0.2,0.8,0.2,0.2,0.2,0.8","1","",""
"","html-keyboard-response","353","185007","0.0-353.0","3U088ZLJVLF4MHIWRMX3WNYF4W30WA","A7VA2Y4H6U31O","3EHVO81VN57KAWAV14A1K6BEMLH1HG","","null","<img src=""img/land1.png"" style=""width:200px;border:14px solid red;"">","null","","","","","","","","","",""
"","image-keyboard-response","354","185388","0.0-354.0","3U088ZLJVLF4MHIWRMX3WNYF4W30WA","A7VA2Y4H6U31O","3EHVO81VN57KAWAV14A1K6BEMLH1HG","","379.7000000476837","img/land6.png","75","380.89999997615814","2","0","2","1","0.8,0.2,0.2,0.2,0.8,0.2,0.2,0.2,0.8","0.8,0.2,0.2,0.2,0.8,0.2,0.2,0.2,0.8","1","",""
"","html-keyboard-response","355","185690","0.0-355.0","3U088ZLJVLF4MHIWRMX3WNYF4W30WA","A7VA2Y4H6U31O","3EHVO81VN57KAWAV14A1K6BEMLH1HG","","null","<img src=""img/land6.png"" style=""width:200px;border:14px solid red;"">","null","","","","","","","","","",""
