"success","trial_type","trial_index","time_elapsed","internal_node_id","assignmentID","mturkID","hitID","view_history","rt","stimulus","key_press","reactionTime","a","r","s","cond","reward_cond","reward_cond_actual","reward_matrix_idx","responses","question_order"
"true","fullscreen","0","3722","0.0-0.0","3FE7TXL1LJ96YUPOU02BNM98DWCQ2S","A8KX1HFH8NE2Q","382GHPVPHSDM8N0F9141EAH7F0K34Z","","","","","","","","","","","","","",""
"","instructions","1","28394","0.0-1.0","3FE7TXL1LJ96YUPOU02BNM98DWCQ2S","A8KX1HFH8NE2Q","382GHPVPHSDM8N0F9141EAH7F0K34Z","[{""page_index"":0,""viewing_time"":2817.2000000476837},{""page_index"":1,""viewing_time"":1889.699999988079},{""page_index"":2,""viewing_time"":1795.8999999761581},{""page_index"":3,""viewing_time"":8036.400000035763},{""page_index"":4,""viewing_time"":4633.599999964237},{""page_index"":5,""viewing_time"":2972.199999988079},{""page_index"":6,""viewing_time"":2524.100000023842}]","24669.5","","","","","","","","","","","",""
"","image-keyboard-response","2","29199","0.0-2.0","3FE7TXL1LJ96YUPOU02BNM98DWCQ2S","A8KX1HFH8NE2Q","382GHPVPHSDM8N0F9141EAH7F0K34Z","","803.5999999642372","img/land1.png","74","804.6000000238419","1","0","2","1","0.8,0.2,0.2,0.2,0.8,0.2,0.2,0.2,0.8","0.8,0.2,0.2,0.2,0.8,0.2,0.2,0.2,0.8","1","",""
"","html-keyboard-response","3","29502","0.0-3.0","3FE7TXL1LJ96YUPOU02BNM98DWCQ2S","A8KX1HFH8NE2Q","382GHPVPHSDM8N0F9141EAH7F0K34Z","","null","<img src=""img/land1.png"" style=""width:200px;border:14px solid red;"">","null","","","","","","","","","",""
"","image-keyboard-response","4","30176","0.0-4.0","3FE7TXL1LJ96YUPOU02BNM98DWCQ2S","A8KX1HFH8NE2Q","382GHPVPHSDM8N0F9141EAH7F0K34Z","","672.3000000119209","img/land2.png","75","673.3999999761581","2","0","1","1","0.8,0.2,0.2,0.2,0.8,0.2,0.2,0.2,0.8","0.8,0.2,0.2,0.2,0.8,0.2,0.2,0.2,0.8","1","",""
"","html-keyboard-response","5","30478","0.0-5.0","3FE7TXL1LJ96YUPOU02BNM98DWCQ2S","A8KX1HFH8NE2Q","382GHPVPHSDM8N0F9141EAH7F0K34Z","","null","<img src=""img/land2.png"" style=""width:200px;border:14px solid red;"">","null","","","","","","","","","",""
"","image-keyboard-response","6","31012","0.0-6.0","3FE7TXL1LJ96YUPOU02BNM98DWCQ2S","A8KX1HFH8NE2Q","382GHPVPHSDM8N0F9141EAH7F0K34Z","","532","img/land2.png","75","533.5","2","0","1","1","0.8,0.2,0.2,0.2,0.8,0.2,0.2,0.2,0.8","0.8,0.2,0.2,0.2,0.8,0.2,0.2,0.2,0.8","1","",""
"","html-keyboard-response","7","31315","0.0-7.0","3FE7TXL1LJ96YUPOU02BNM98DWCQ2S","A8KX1HFH8NE2Q","382GHPVPHSDM8N0F9141EAH7F0K34Z","","null","<img src=""img/land2.png"" style=""width:200px;border:14px solid red;"">","null","","","","","","","","","",""
"","image-keyboard-response","8","31874","0.0-8.0","3FE7TXL1LJ96YUPOU02BNM98DWCQ2S","A8KX1HFH8NE2Q","382GHPVPHSDM8N0F9141EAH7F0K34Z","","557.4000000357628","img/land6.png","76","559.3999999761581","3","1","3","1","0.8,0.2,0.2,0.2,0.8,0.2,0.2,0.2,0.8","0.8,0.2,0.2,0.2,0.8,0.2,0.2,0.2,0.8","1","",""
"","html-keyboard-response","9","32178","0.0-9.0","3FE7TXL1LJ96YUPOU02BNM98DWCQ2S","A8KX1HFH8NE2Q","382GHPVPHSDM8N0F9141EAH7F0K34Z","","null","<img src=""img/land6.png"" style=""width:200px; border:14px solid green;"">","null","","","","","","","","","",""
"","image-keyboard-response","10","32862","0.0-10.0","3FE7TXL1LJ96YUPOU02BNM98DWCQ2S","A8KX1HFH8NE2Q","382GHPVPHSDM8N0F9141EAH7F0K34Z","","673.6999999880791","img/land2.png","74","681.6000000238419","1","0","1","1","0.8,0.2,0.2,0.2,0.8,0.2,0.2,0.2,0.8","0.8,0.2,0.2,0.2,0.8,0.2,0.2,0.2,0.8","1","",""
"","html-keyboard-response","11","33164","0.0-11.0","3FE7TXL1LJ96YUPOU02BNM98DWCQ2S","A8KX1HFH8NE2Q","382GHPVPHSDM8N0F9141EAH7F0K34Z","","null","<img src=""img/land2.png"" style=""width:200px;border:14px solid red;"">","null","","","","","","","","","",""
"","image-keyboard-response","12","33593","0.0-12.0","3FE7TXL1LJ96YUPOU02BNM98DWCQ2S","A8KX1HFH8NE2Q","382GHPVPHSDM8N0F9141EAH7F0K34Z","","427.10000002384186","img/land1.png","75","428.19999998807907","2","1","2","1","0.8,0.2,0.2,0.2,0.8,0.2,0.2,0.2,0.8","0.8,0.2,0.2,0.2,0.8,0.2,0.2,0.2,0.8","1","",""
"","html-keyboard-response","13","33895","0.0-13.0","3FE7TXL1LJ96YUPOU02BNM98DWCQ2S","A8KX1HFH8NE2Q","382GHPVPHSDM8N0F9141EAH7F0K34Z","","null","<img src=""img/land1.png"" style=""width:200px; border:14px solid green;"">","null","","","","","","","","","",""
"","image-keyboard-response","14","34345","0.0-14.0","3FE7TXL1LJ96YUPOU02BNM98DWCQ2S","A8KX1HFH8NE2Q","382GHPVPHSDM8N0F9141EAH7F0K34Z","","447.5","img/land1.png","75","448.89999997615814","2","1","2","1","0.8,0.2,0.2,0.2,0.8,0.2,0.2,0.2,0.8","0.8,0.2,0.2,0.2,0.8,0.2,0.2,0.2,0.8","1","",""
"","html-keyboard-response","15","34646","0.0-15.0","3FE7TXL1LJ96YUPOU02BNM98DWCQ2S","A8KX1HFH8NE2Q","382GHPVPHSDM8N0F9141EAH7F0K34Z","","null","<img src=""img/land1.png"" style=""width:200px; border:14px solid green;"">","null","","","","","","","","","",""
"","image-keyboard-response","16","35031","0.0-16.0","3FE7TXL1LJ96YUPOU02BNM98DWCQ2S","A8KX1HFH8NE2Q","382GHPVPHSDM8N0F9141EAH7F0K34Z","","383.4000000357628","img/land6.png","75","385","2","0","3","1","0.8,0.2,0.2,0.2,0.8,0.2,0.2,0.2,0.8","0.8,0.2,0.2,0.2,0.8,0.2,0.2,0.2,0.8","1","",""
"","html-keyboard-response","17","35335","0.0-17.0","3FE7TXL1LJ96YUPOU02BNM98DWCQ2S","A8KX1HFH8NE2Q","382GHPVPHSDM8N0F9141EAH7F0K34Z","","null","<img src=""img/land6.png"" style=""width:200px;border:14px solid red;"">","null","","","","","","","","","",""
"","image-keyboard-response","18","35939","0.0-18.0","3FE7TXL1LJ96YUPOU02BNM98DWCQ2S","A8KX1HFH8NE2Q","382GHPVPHSDM8N0F9141EAH7F0K34Z","","602.0999999642372","img/land1.png","75","603.5","2","1","2","1","0.8,0.2,0.2,0.2,0.8,0.2,0.2,0.2,0.8","0.8,0.2,0.2,0.2,0.8,0.2,0.2,0.2,0.8","1","",""
"","html-keyboard-response","19","36240","0.0-19.0","3FE7TXL1LJ96YUPOU02BNM98DWCQ2S","A8KX1HFH8NE2Q","382GHPVPHSDM8N0F9141EAH7F0K34Z","","null","<img src=""img/land1.png"" style=""width:200px; border:14px solid green;"">","null","","","","","","","","","",""
"","image-keyboard-response","20","36596","0.0-20.0","3FE7TXL1LJ96YUPOU02BNM98DWCQ2S","A8KX1HFH8NE2Q","382GHPVPHSDM8N0F9141EAH7F0K34Z","","353.89999997615814","img/land6.png","76","355.0999999642372","3","1","3","1","0.8,0.2,0.2,0.2,0.8,0.2,0.2,0.2,0.8","0.8,0.2,0.2,0.2,0.8,0.2,0.2,0.2,0.8","1","",""
"","html-keyboard-response","21","36907","0.0-21.0","3FE7TXL1LJ96YUPOU02BNM98DWCQ2S","A8KX1HFH8NE2Q","382GHPVPHSDM8N0F9141EAH7F0K34Z","","null","<img src=""img/land6.png"" style=""width:200px; border:14px solid green;"">","null","","","","","","","","","",""
"","image-keyboard-response","22","37603","0.0-22.0","3FE7TXL1LJ96YUPOU02BNM98DWCQ2S","A8KX1HFH8NE2Q","382GHPVPHSDM8N0F9141EAH7F0K34Z","","693.4000000357628","img/land2.png","74","695","1","1","1","1","0.8,0.2,0.2,0.2,0.8,0.2,0.2,0.2,0.8","0.8,0.2,0.2,0.2,0.8,0.2,0.2,0.2,0.8","1","",""
"","html-keyboard-response","23","37905","0.0-23.0","3FE7TXL1LJ96YUPOU02BNM98DWCQ2S","A8KX1HFH8NE2Q","382GHPVPHSDM8N0F9141EAH7F0K34Z","","null","<img src=""img/land2.png"" style=""width:200px; border:14px solid green;"">","null","","","","","","","","","",""
"","image-keyboard-response","24","38624","0.0-24.0","3FE7TXL1LJ96YUPOU02BNM98DWCQ2S","A8KX1HFH8NE2Q","382GHPVPHSDM8N0F9141EAH7F0K34Z","","717","img/land1.png","75","718.6999999880791","2","1","2","1","0.8,0.2,0.2,0.2,0.8,0.2,0.2,0.2,0.8","0.8,0.2,0.2,0.2,0.8,0.2,0.2,0.2,0.8","1","",""
"","html-keyboard-response","25","38927","0.0-25.0","3FE7TXL1LJ96YUPOU02BNM98DWCQ2S","A8KX1HFH8NE2Q","382GHPVPHSDM8N0F9141EAH7F0K34Z","","null","<img src=""img/land1.png"" style=""width:200px; border:14px solid green;"">","null","","","","","","","","","",""
"","image-keyboard-response","26","39459","0.0-26.0","3FE7TXL1LJ96YUPOU02BNM98DWCQ2S","A8KX1HFH8NE2Q","382GHPVPHSDM8N0F9141EAH7F0K34Z","","529.5999999642372","img/land2.png","74","531.3000000119209","1","0","1","1","0.8,0.2,0.2,0.2,0.8,0.2,0.2,0.2,0.8","0.8,0.2,0.2,0.2,0.8,0.2,0.2,0.2,0.8","1","",""
"","html-keyboard-response","27","39760","0.0-27.0","3FE7TXL1LJ96YUPOU02BNM98DWCQ2S","A8KX1HFH8NE2Q","382GHPVPHSDM8N0F9141EAH7F0K34Z","","null","<img src=""img/land2.png"" style=""width:200px;border:14px solid red;"">","null","","","","","","","","","",""
"","image-keyboard-response","28","40203","0.0-28.0","3FE7TXL1LJ96YUPOU02BNM98DWCQ2S","A8KX1HFH8NE2Q","382GHPVPHSDM8N0F9141EAH7F0K34Z","","441.4000000357628","img/land2.png","75","442.69999998807907","2","0","1","1","0.8,0.2,0.2,0.2,0.8,0.2,0.2,0.2,0.8","0.8,0.2,0.2,0.2,0.8,0.2,0.2,0.2,0.8","1","",""
"","html-keyboard-response","29","40513","0.0-29.0","3FE7TXL1LJ96YUPOU02BNM98DWCQ2S","A8KX1HFH8NE2Q","382GHPVPHSDM8N0F9141EAH7F0K34Z","","null","<img src=""img/land2.png"" style=""width:200px;border:14px solid red;"">","null","","","","","","","","","",""
"","image-keyboard-response","30","41394","0.0-30.0","3FE7TXL1LJ96YUPOU02BNM98DWCQ2S","A8KX1HFH8NE2Q","382GHPVPHSDM8N0F9141EAH7F0K34Z","","879","img/land6.png","76","880.1000000238419","3","1","3","1","0.8,0.2,0.2,0.2,0.8,0.2,0.2,0.2,0.8","0.8,0.2,0.2,0.2,0.8,0.2,0.2,0.2,0.8","1","",""
"","html-keyboard-response","31","41696","0.0-31.0","3FE7TXL1LJ96YUPOU02BNM98DWCQ2S","A8KX1HFH8NE2Q","382GHPVPHSDM8N0F9141EAH7F0K34Z","","null","<img src=""img/land6.png"" style=""width:200px; border:14px solid green;"">","null","","","","","","","","","",""
"","image-keyboard-response","32","42425","0.0-32.0","3FE7TXL1LJ96YUPOU02BNM98DWCQ2S","A8KX1HFH8NE2Q","382GHPVPHSDM8N0F9141EAH7F0K34Z","","727.3000000119209","img/land2.png","74","728.5999999642372","1","0","1","1","0.8,0.2,0.2,0.2,0.8,0.2,0.2,0.2,0.8","0.8,0.2,0.2,0.2,0.8,0.2,0.2,0.2,0.8","1","",""
"","html-keyboard-response","33","42727","0.0-33.0","3FE7TXL1LJ96YUPOU02BNM98DWCQ2S","A8KX1HFH8NE2Q","382GHPVPHSDM8N0F9141EAH7F0K34Z","","null","<img src=""img/land2.png"" style=""width:200px;border:14px solid red;"">","null","","","","","","","","","",""
"","image-keyboard-response","34","43245","0.0-34.0","3FE7TXL1LJ96YUPOU02BNM98DWCQ2S","A8KX1HFH8NE2Q","382GHPVPHSDM8N0F9141EAH7F0K34Z","","516","img/land6.png","75","517.1999999880791","2","0","3","1","0.8,0.2,0.2,0.2,0.8,0.2,0.2,0.2,0.8","0.8,0.2,0.2,0.2,0.8,0.2,0.2,0.2,0.8","1","",""
"","html-keyboard-response","35","43547","0.0-35.0","3FE7TXL1LJ96YUPOU02BNM98DWCQ2S","A8KX1HFH8NE2Q","382GHPVPHSDM8N0F9141EAH7F0K34Z","","null","<img src=""img/land6.png"" style=""width:200px;border:14px solid red;"">","null","","","","","","","","","",""
"","image-keyboard-response","36","44176","0.0-36.0","3FE7TXL1LJ96YUPOU02BNM98DWCQ2S","A8KX1HFH8NE2Q","382GHPVPHSDM8N0F9141EAH7F0K34Z","","626.8000000119209","img/land1.png","76","628.0999999642372","3","0","2","1","0.8,0.2,0.2,0.2,0.8,0.2,0.2,0.2,0.8","0.8,0.2,0.2,0.2,0.8,0.2,0.2,0.2,0.8","1","",""
"","html-keyboard-response","37","44477","0.0-37.0","3FE7TXL1LJ96YUPOU02BNM98DWCQ2S","A8KX1HFH8NE2Q","382GHPVPHSDM8N0F9141EAH7F0K34Z","","null","<img src=""img/land1.png"" style=""width:200px;border:14px solid red;"">","null","","","","","","","","","",""
"","image-keyboard-response","38","45552","0.0-38.0","3FE7TXL1LJ96YUPOU02BNM98DWCQ2S","A8KX1HFH8NE2Q","382GHPVPHSDM8N0F9141EAH7F0K34Z","","1071.800000011921","img/land2.png","74","1073.9000000357628","1","1","1","1","0.8,0.2,0.2,0.2,0.8,0.2,0.2,0.2,0.8","0.8,0.2,0.2,0.2,0.8,0.2,0.2,0.2,0.8","1","",""
"","html-keyboard-response","39","45857","0.0-39.0","3FE7TXL1LJ96YUPOU02BNM98DWCQ2S","A8KX1HFH8NE2Q","382GHPVPHSDM8N0F9141EAH7F0K34Z","","null","<img src=""img/land2.png"" style=""width:200px; border:14px solid green;"">","null","","","","","","","","","",""
"","image-keyboard-response","40","46482","0.0-40.0","3FE7TXL1LJ96YUPOU02BNM98DWCQ2S","A8KX1HFH8NE2Q","382GHPVPHSDM8N0F9141EAH7F0K34Z","","622.2999999523163","img/land1.png","75","623.8000000119209","2","1","2","1","0.8,0.2,0.2,0.2,0.8,0.2,0.2,0.2,0.8","0.8,0.2,0.2,0.2,0.8,0.2,0.2,0.2,0.8","1","",""
"","html-keyboard-response","41","46784","0.0-41.0","3FE7TXL1LJ96YUPOU02BNM98DWCQ2S","A8KX1HFH8NE2Q","382GHPVPHSDM8N0F9141EAH7F0K34Z","","null","<img src=""img/land1.png"" style=""width:200px; border:14px solid green;"">","null","","","","","","","","","",""
"","image-keyboard-response","42","47347","0.0-42.0","3FE7TXL1LJ96YUPOU02BNM98DWCQ2S","A8KX1HFH8NE2Q","382GHPVPHSDM8N0F9141EAH7F0K34Z","","561.2000000476837","img/land2.png","74","562.8000000119209","1","1","1","1","0.8,0.2,0.2,0.2,0.8,0.2,0.2,0.2,0.8","0.8,0.2,0.2,0.2,0.8,0.2,0.2,0.2,0.8","1","",""
"","html-keyboard-response","43","47650","0.0-43.0","3FE7TXL1LJ96YUPOU02BNM98DWCQ2S","A8KX1HFH8NE2Q","382GHPVPHSDM8N0F9141EAH7F0K34Z","","null","<img src=""img/land2.png"" style=""width:200px; border:14px solid green;"">","null","","","","","","","","","",""
"","image-keyboard-response","44","48142","0.0-44.0","3FE7TXL1LJ96YUPOU02BNM98DWCQ2S","A8KX1HFH8NE2Q","382GHPVPHSDM8N0F9141EAH7F0K34Z","","490.39999997615814","img/land1.png","75","491.69999998807907","2","1","2","1","0.8,0.2,0.2,0.2,0.8,0.2,0.2,0.2,0.8","0.8,0.2,0.2,0.2,0.8,0.2,0.2,0.2,0.8","1","",""
"","html-keyboard-response","45","48444","0.0-45.0","3FE7TXL1LJ96YUPOU02BNM98DWCQ2S","A8KX1HFH8NE2Q","382GHPVPHSDM8N0F9141EAH7F0K34Z","","null","<img src=""img/land1.png"" style=""width:200px; border:14px solid green;"">","null","","","","","","","","","",""
"","image-keyboard-response","46","48997","0.0-46.0","3FE7TXL1LJ96YUPOU02BNM98DWCQ2S","A8KX1HFH8NE2Q","382GHPVPHSDM8N0F9141EAH7F0K34Z","","550.8000000119209","img/land1.png","75","552.3999999761581","2","0","2","1","0.8,0.2,0.2,0.2,0.8,0.2,0.2,0.2,0.8","0.8,0.2,0.2,0.2,0.8,0.2,0.2,0.2,0.8","1","",""
"","html-keyboard-response","47","49299","0.0-47.0","3FE7TXL1LJ96YUPOU02BNM98DWCQ2S","A8KX1HFH8NE2Q","382GHPVPHSDM8N0F9141EAH7F0K34Z","","null","<img src=""img/land1.png"" style=""width:200px;border:14px solid red;"">","null","","","","","","","","","",""
"","image-keyboard-response","48","49786","0.0-48.0","3FE7TXL1LJ96YUPOU02BNM98DWCQ2S","A8KX1HFH8NE2Q","382GHPVPHSDM8N0F9141EAH7F0K34Z","","484.89999997615814","img/land2.png","75","486.19999998807907","2","0","1","1","0.8,0.2,0.2,0.2,0.8,0.2,0.2,0.2,0.8","0.8,0.2,0.2,0.2,0.8,0.2,0.2,0.2,0.8","1","",""
"","html-keyboard-response","49","50088","0.0-49.0","3FE7TXL1LJ96YUPOU02BNM98DWCQ2S","A8KX1HFH8NE2Q","382GHPVPHSDM8N0F9141EAH7F0K34Z","","null","<img src=""img/land2.png"" style=""width:200px;border:14px solid red;"">","null","","","","","","","","","",""
"","image-keyboard-response","50","50889","0.0-50.0","3FE7TXL1LJ96YUPOU02BNM98DWCQ2S","A8KX1HFH8NE2Q","382GHPVPHSDM8N0F9141EAH7F0K34Z","","799.3000000119209","img/land2.png","75","801","2","0","1","1","0.8,0.2,0.2,0.2,0.8,0.2,0.2,0.2,0.8","0.8,0.2,0.2,0.2,0.8,0.2,0.2,0.2,0.8","1","",""
"","html-keyboard-response","51","51192","0.0-51.0","3FE7TXL1LJ96YUPOU02BNM98DWCQ2S","A8KX1HFH8NE2Q","382GHPVPHSDM8N0F9141EAH7F0K34Z","","null","<img src=""img/land2.png"" style=""width:200px;border:14px solid red;"">","null","","","","","","","","","",""
"","image-keyboard-response","52","51894","0.0-52.0","3FE7TXL1LJ96YUPOU02BNM98DWCQ2S","A8KX1HFH8NE2Q","382GHPVPHSDM8N0F9141EAH7F0K34Z","","700.5","img/land1.png","75","702","2","0","2","1","0.8,0.2,0.2,0.2,0.8,0.2,0.2,0.2,0.8","0.8,0.2,0.2,0.2,0.8,0.2,0.2,0.2,0.8","1","",""
"","html-keyboard-response","53","52197","0.0-53.0","3FE7TXL1LJ96YUPOU02BNM98DWCQ2S","A8KX1HFH8NE2Q","382GHPVPHSDM8N0F9141EAH7F0K34Z","","null","<img src=""img/land1.png"" style=""width:200px;border:14px solid red;"">","null","","","","","","","","","",""
"","image-keyboard-response","54","52690","0.0-54.0","3FE7TXL1LJ96YUPOU02BNM98DWCQ2S","A8KX1HFH8NE2Q","382GHPVPHSDM8N0F9141EAH7F0K34Z","","491.80000001192093","img/land2.png","74","492.4000000357628","1","1","1","1","0.8,0.2,0.2,0.2,0.8,0.2,0.2,0.2,0.8","0.8,0.2,0.2,0.2,0.8,0.2,0.2,0.2,0.8","1","",""
"","html-keyboard-response","55","52999","0.0-55.0","3FE7TXL1LJ96YUPOU02BNM98DWCQ2S","A8KX1HFH8NE2Q","382GHPVPHSDM8N0F9141EAH7F0K34Z","","null","<img src=""img/land2.png"" style=""width:200px; border:14px solid green;"">","null","","","","","","","","","",""
"","image-keyboard-response","56","53718","0.0-56.0","3FE7TXL1LJ96YUPOU02BNM98DWCQ2S","A8KX1HFH8NE2Q","382GHPVPHSDM8N0F9141EAH7F0K34Z","","717.3999999761581","img/land6.png","76","718.5","3","1","3","1","0.8,0.2,0.2,0.2,0.8,0.2,0.2,0.2,0.8","0.8,0.2,0.2,0.2,0.8,0.2,0.2,0.2,0.8","1","",""
"","html-keyboard-response","57","54021","0.0-57.0","3FE7TXL1LJ96YUPOU02BNM98DWCQ2S","A8KX1HFH8NE2Q","382GHPVPHSDM8N0F9141EAH7F0K34Z","","null","<img src=""img/land6.png"" style=""width:200px; border:14px solid green;"">","null","","","","","","","","","",""
"","image-keyboard-response","58","54571","0.0-58.0","3FE7TXL1LJ96YUPOU02BNM98DWCQ2S","A8KX1HFH8NE2Q","382GHPVPHSDM8N0F9141EAH7F0K34Z","","546.8000000119209","img/land2.png","74","548.8000000119209","1","1","1","1","0.8,0.2,0.2,0.2,0.8,0.2,0.2,0.2,0.8","0.8,0.2,0.2,0.2,0.8,0.2,0.2,0.2,0.8","1","",""
"","html-keyboard-response","59","54873","0.0-59.0","3FE7TXL1LJ96YUPOU02BNM98DWCQ2S","A8KX1HFH8NE2Q","382GHPVPHSDM8N0F9141EAH7F0K34Z","","null","<img src=""img/land2.png"" style=""width:200px; border:14px solid green;"">","null","","","","","","","","","",""
"","image-keyboard-response","60","55371","0.0-60.0","3FE7TXL1LJ96YUPOU02BNM98DWCQ2S","A8KX1HFH8NE2Q","382GHPVPHSDM8N0F9141EAH7F0K34Z","","495.80000001192093","img/land6.png","76","497","3","1","3","1","0.8,0.2,0.2,0.2,0.8,0.2,0.2,0.2,0.8","0.8,0.2,0.2,0.2,0.8,0.2,0.2,0.2,0.8","1","",""
"","html-keyboard-response","61","55672","0.0-61.0","3FE7TXL1LJ96YUPOU02BNM98DWCQ2S","A8KX1HFH8NE2Q","382GHPVPHSDM8N0F9141EAH7F0K34Z","","null","<img src=""img/land6.png"" style=""width:200px; border:14px solid green;"">","null","","","","","","","","","",""
"","image-keyboard-response","62","56228","0.0-62.0","3FE7TXL1LJ96YUPOU02BNM98DWCQ2S","A8KX1HFH8NE2Q","382GHPVPHSDM8N0F9141EAH7F0K34Z","","555.1000000238419","img/land6.png","76","555.7999999523163","3","0","3","1","0.8,0.2,0.2,0.2,0.8,0.2,0.2,0.2,0.8","0.8,0.2,0.2,0.2,0.8,0.2,0.2,0.2,0.8","1","",""
"","html-keyboard-response","63","56529","0.0-63.0","3FE7TXL1LJ96YUPOU02BNM98DWCQ2S","A8KX1HFH8NE2Q","382GHPVPHSDM8N0F9141EAH7F0K34Z","","null","<img src=""img/land6.png"" style=""width:200px;border:14px solid red;"">","null","","","","","","","","","",""
"","image-keyboard-response","64","57113","0.0-64.0","3FE7TXL1LJ96YUPOU02BNM98DWCQ2S","A8KX1HFH8NE2Q","382GHPVPHSDM8N0F9141EAH7F0K34Z","","582.5","img/land6.png","76","583.1000000238419","3","0","3","1","0.8,0.2,0.2,0.2,0.8,0.2,0.2,0.2,0.8","0.8,0.2,0.2,0.2,0.8,0.2,0.2,0.2,0.8","1","",""
"","html-keyboard-response","65","57415","0.0-65.0","3FE7TXL1LJ96YUPOU02BNM98DWCQ2S","A8KX1HFH8NE2Q","382GHPVPHSDM8N0F9141EAH7F0K34Z","","null","<img src=""img/land6.png"" style=""width:200px;border:14px solid red;"">","null","","","","","","","","","",""
"","image-keyboard-response","66","57925","0.0-66.0","3FE7TXL1LJ96YUPOU02BNM98DWCQ2S","A8KX1HFH8NE2Q","382GHPVPHSDM8N0F9141EAH7F0K34Z","","509.4000000357628","img/land2.png","74","510","1","0","1","1","0.8,0.2,0.2,0.2,0.8,0.2,0.2,0.2,0.8","0.8,0.2,0.2,0.2,0.8,0.2,0.2,0.2,0.8","1","",""
"","html-keyboard-response","67","58227","0.0-67.0","3FE7TXL1LJ96YUPOU02BNM98DWCQ2S","A8KX1HFH8NE2Q","382GHPVPHSDM8N0F9141EAH7F0K34Z","","null","<img src=""img/land2.png"" style=""width:200px;border:14px solid red;"">","null","","","","","","","","","",""
"","image-keyboard-response","68","59030","0.0-68.0","3FE7TXL1LJ96YUPOU02BNM98DWCQ2S","A8KX1HFH8NE2Q","382GHPVPHSDM8N0F9141EAH7F0K34Z","","801.6999999880791","img/land2.png","74","802.3000000119209","1","1","1","1","0.8,0.2,0.2,0.2,0.8,0.2,0.2,0.2,0.8","0.8,0.2,0.2,0.2,0.8,0.2,0.2,0.2,0.8","1","",""
"","html-keyboard-response","69","59332","0.0-69.0","3FE7TXL1LJ96YUPOU02BNM98DWCQ2S","A8KX1HFH8NE2Q","382GHPVPHSDM8N0F9141EAH7F0K34Z","","null","<img src=""img/land2.png"" style=""width:200px; border:14px solid green;"">","null","","","","","","","","","",""
"","image-keyboard-response","70","59983","0.0-70.0","3FE7TXL1LJ96YUPOU02BNM98DWCQ2S","A8KX1HFH8NE2Q","382GHPVPHSDM8N0F9141EAH7F0K34Z","","646.8000000119209","img/land2.png","74","649.4000000357628","1","1","1","1","0.8,0.2,0.2,0.2,0.8,0.2,0.2,0.2,0.8","0.8,0.2,0.2,0.2,0.8,0.2,0.2,0.2,0.8","1","",""
"","html-keyboard-response","71","60284","0.0-71.0","3FE7TXL1LJ96YUPOU02BNM98DWCQ2S","A8KX1HFH8NE2Q","382GHPVPHSDM8N0F9141EAH7F0K34Z","","null","<img src=""img/land2.png"" style=""width:200px; border:14px solid green;"">","null","","","","","","","","","",""
"","image-keyboard-response","72","60659","0.0-72.0","3FE7TXL1LJ96YUPOU02BNM98DWCQ2S","A8KX1HFH8NE2Q","382GHPVPHSDM8N0F9141EAH7F0K34Z","","374.4000000357628","img/land2.png","74","375.10000002384186","1","1","1","1","0.8,0.2,0.2,0.2,0.8,0.2,0.2,0.2,0.8","0.8,0.2,0.2,0.2,0.8,0.2,0.2,0.2,0.8","1","",""
"","html-keyboard-response","73","60961","0.0-73.0","3FE7TXL1LJ96YUPOU02BNM98DWCQ2S","A8KX1HFH8NE2Q","382GHPVPHSDM8N0F9141EAH7F0K34Z","","null","<img src=""img/land2.png"" style=""width:200px; border:14px solid green;"">","null","","","","","","","","","",""
"","image-keyboard-response","74","61292","0.0-74.0","3FE7TXL1LJ96YUPOU02BNM98DWCQ2S","A8KX1HFH8NE2Q","382GHPVPHSDM8N0F9141EAH7F0K34Z","","330.19999998807907","img/land2.png","74","330.7000000476837","1","0","1","1","0.8,0.2,0.2,0.2,0.8,0.2,0.2,0.2,0.8","0.8,0.2,0.2,0.2,0.8,0.2,0.2,0.2,0.8","1","",""
"","html-keyboard-response","75","61593","0.0-75.0","3FE7TXL1LJ96YUPOU02BNM98DWCQ2S","A8KX1HFH8NE2Q","382GHPVPHSDM8N0F9141EAH7F0K34Z","","null","<img src=""img/land2.png"" style=""width:200px;border:14px solid red;"">","null","","","","","","","","","",""
"","image-keyboard-response","76","62112","0.0-76.0","3FE7TXL1LJ96YUPOU02BNM98DWCQ2S","A8KX1HFH8NE2Q","382GHPVPHSDM8N0F9141EAH7F0K34Z","","517.9000000357628","img/land1.png","75","518.5","2","1","2","1","0.8,0.2,0.2,0.2,0.8,0.2,0.2,0.2,0.8","0.8,0.2,0.2,0.2,0.8,0.2,0.2,0.2,0.8","1","",""
"","html-keyboard-response","77","62413","0.0-77.0","3FE7TXL1LJ96YUPOU02BNM98DWCQ2S","A8KX1HFH8NE2Q","382GHPVPHSDM8N0F9141EAH7F0K34Z","","null","<img src=""img/land1.png"" style=""width:200px; border:14px solid green;"">","null","","","","","","","","","",""
"","image-keyboard-response","78","63164","0.0-78.0","3FE7TXL1LJ96YUPOU02BNM98DWCQ2S","A8KX1HFH8NE2Q","382GHPVPHSDM8N0F9141EAH7F0K34Z","","749.5999999642372","img/land2.png","74","750.1999999880791","1","1","1","1","0.8,0.2,0.2,0.2,0.8,0.2,0.2,0.2,0.8","0.8,0.2,0.2,0.2,0.8,0.2,0.2,0.2,0.8","1","",""
"","html-keyboard-response","79","63465","0.0-79.0","3FE7TXL1LJ96YUPOU02BNM98DWCQ2S","A8KX1HFH8NE2Q","382GHPVPHSDM8N0F9141EAH7F0K34Z","","null","<img src=""img/land2.png"" style=""width:200px; border:14px solid green;"">","null","","","","","","","","","",""
"","image-keyboard-response","80","64262","0.0-80.0","3FE7TXL1LJ96YUPOU02BNM98DWCQ2S","A8KX1HFH8NE2Q","382GHPVPHSDM8N0F9141EAH7F0K34Z","","796","img/land6.png","76","796.4000000357628","3","1","3","1","0.8,0.2,0.2,0.2,0.8,0.2,0.2,0.2,0.8","0.8,0.2,0.2,0.2,0.8,0.2,0.2,0.2,0.8","1","",""
"","html-keyboard-response","81","64564","0.0-81.0","3FE7TXL1LJ96YUPOU02BNM98DWCQ2S","A8KX1HFH8NE2Q","382GHPVPHSDM8N0F9141EAH7F0K34Z","","null","<img src=""img/land6.png"" style=""width:200px; border:14px solid green;"">","null","","","","","","","","","",""
"","image-keyboard-response","82","65033","0.0-82.0","3FE7TXL1LJ96YUPOU02BNM98DWCQ2S","A8KX1HFH8NE2Q","382GHPVPHSDM8N0F9141EAH7F0K34Z","","466.69999998807907","img/land6.png","76","467.89999997615814","3","1","3","1","0.8,0.2,0.2,0.2,0.8,0.2,0.2,0.2,0.8","0.8,0.2,0.2,0.2,0.8,0.2,0.2,0.2,0.8","1","",""
"","html-keyboard-response","83","65334","0.0-83.0","3FE7TXL1LJ96YUPOU02BNM98DWCQ2S","A8KX1HFH8NE2Q","382GHPVPHSDM8N0F9141EAH7F0K34Z","","null","<img src=""img/land6.png"" style=""width:200px; border:14px solid green;"">","null","","","","","","","","","",""
"","image-keyboard-response","84","65668","0.0-84.0","3FE7TXL1LJ96YUPOU02BNM98DWCQ2S","A8KX1HFH8NE2Q","382GHPVPHSDM8N0F9141EAH7F0K34Z","","333.2999999523163","img/land6.png","76","333.80000001192093","3","0","3","1","0.8,0.2,0.2,0.2,0.8,0.2,0.2,0.2,0.8","0.8,0.2,0.2,0.2,0.8,0.2,0.2,0.2,0.8","1","",""
"","html-keyboard-response","85","65969","0.0-85.0","3FE7TXL1LJ96YUPOU02BNM98DWCQ2S","A8KX1HFH8NE2Q","382GHPVPHSDM8N0F9141EAH7F0K34Z","","null","<img src=""img/land6.png"" style=""width:200px;border:14px solid red;"">","null","","","","","","","","","",""
"","image-keyboard-response","86","66609","0.0-86.0","3FE7TXL1LJ96YUPOU02BNM98DWCQ2S","A8KX1HFH8NE2Q","382GHPVPHSDM8N0F9141EAH7F0K34Z","","639.1999999880791","img/land2.png","74","639.8999999761581","1","1","1","1","0.8,0.2,0.2,0.2,0.8,0.2,0.2,0.2,0.8","0.8,0.2,0.2,0.2,0.8,0.2,0.2,0.2,0.8","1","",""
"","html-keyboard-response","87","66911","0.0-87.0","3FE7TXL1LJ96YUPOU02BNM98DWCQ2S","A8KX1HFH8NE2Q","382GHPVPHSDM8N0F9141EAH7F0K34Z","","null","<img src=""img/land2.png"" style=""width:200px; border:14px solid green;"">","null","","","","","","","","","",""
"","image-keyboard-response","88","67408","0.0-88.0","3FE7TXL1LJ96YUPOU02BNM98DWCQ2S","A8KX1HFH8NE2Q","382GHPVPHSDM8N0F9141EAH7F0K34Z","","496.39999997615814","img/land2.png","74","497","1","0","1","1","0.8,0.2,0.2,0.2,0.8,0.2,0.2,0.2,0.8","0.8,0.2,0.2,0.2,0.8,0.2,0.2,0.2,0.8","1","",""
"","html-keyboard-response","89","67710","0.0-89.0","3FE7TXL1LJ96YUPOU02BNM98DWCQ2S","A8KX1HFH8NE2Q","382GHPVPHSDM8N0F9141EAH7F0K34Z","","null","<img src=""img/land2.png"" style=""width:200px;border:14px solid red;"">","null","","","","","","","","","",""
"","image-keyboard-response","90","68361","0.0-90.0","3FE7TXL1LJ96YUPOU02BNM98DWCQ2S","A8KX1HFH8NE2Q","382GHPVPHSDM8N0F9141EAH7F0K34Z","","650.3999999761581","img/land6.png","75","651.1000000238419","2","1","3","1","0.8,0.2,0.2,0.2,0.8,0.2,0.2,0.2,0.8","0.8,0.2,0.2,0.2,0.8,0.2,0.2,0.2,0.8","1","",""
"","html-keyboard-response","91","68662","0.0-91.0","3FE7TXL1LJ96YUPOU02BNM98DWCQ2S","A8KX1HFH8NE2Q","382GHPVPHSDM8N0F9141EAH7F0K34Z","","null","<img src=""img/land6.png"" style=""width:200px; border:14px solid green;"">","null","","","","","","","","","",""
"","image-keyboard-response","92","69458","0.0-92.0","3FE7TXL1LJ96YUPOU02BNM98DWCQ2S","A8KX1HFH8NE2Q","382GHPVPHSDM8N0F9141EAH7F0K34Z","","794.8999999761581","img/land1.png","75","795.9000000357628","2","1","2","1","0.8,0.2,0.2,0.2,0.8,0.2,0.2,0.2,0.8","0.8,0.2,0.2,0.2,0.8,0.2,0.2,0.2,0.8","1","",""
"","html-keyboard-response","93","69771","0.0-93.0","3FE7TXL1LJ96YUPOU02BNM98DWCQ2S","A8KX1HFH8NE2Q","382GHPVPHSDM8N0F9141EAH7F0K34Z","","null","<img src=""img/land1.png"" style=""width:200px; border:14px solid green;"">","null","","","","","","","","","",""
"","image-keyboard-response","94","70497","0.0-94.0","3FE7TXL1LJ96YUPOU02BNM98DWCQ2S","A8KX1HFH8NE2Q","382GHPVPHSDM8N0F9141EAH7F0K34Z","","724.8000000119209","img/land6.png","76","726.1999999880791","3","1","3","1","0.8,0.2,0.2,0.2,0.8,0.2,0.2,0.2,0.8","0.8,0.2,0.2,0.2,0.8,0.2,0.2,0.2,0.8","1","",""
"","html-keyboard-response","95","70799","0.0-95.0","3FE7TXL1LJ96YUPOU02BNM98DWCQ2S","A8KX1HFH8NE2Q","382GHPVPHSDM8N0F9141EAH7F0K34Z","","null","<img src=""img/land6.png"" style=""width:200px; border:14px solid green;"">","null","","","","","","","","","",""
"","image-keyboard-response","96","71492","0.0-96.0","3FE7TXL1LJ96YUPOU02BNM98DWCQ2S","A8KX1HFH8NE2Q","382GHPVPHSDM8N0F9141EAH7F0K34Z","","690.8999999761581","img/land2.png","74","692.6000000238419","1","1","1","1","0.8,0.2,0.2,0.2,0.8,0.2,0.2,0.2,0.8","0.8,0.2,0.2,0.2,0.8,0.2,0.2,0.2,0.8","1","",""
"","html-keyboard-response","97","71795","0.0-97.0","3FE7TXL1LJ96YUPOU02BNM98DWCQ2S","A8KX1HFH8NE2Q","382GHPVPHSDM8N0F9141EAH7F0K34Z","","null","<img src=""img/land2.png"" style=""width:200px; border:14px solid green;"">","null","","","","","","","","","",""
"","image-keyboard-response","98","72336","0.0-98.0","3FE7TXL1LJ96YUPOU02BNM98DWCQ2S","A8KX1HFH8NE2Q","382GHPVPHSDM8N0F9141EAH7F0K34Z","","539.5","img/land2.png","74","541","1","1","1","1","0.8,0.2,0.2,0.2,0.8,0.2,0.2,0.2,0.8","0.8,0.2,0.2,0.2,0.8,0.2,0.2,0.2,0.8","1","",""
"","html-keyboard-response","99","72639","0.0-99.0","3FE7TXL1LJ96YUPOU02BNM98DWCQ2S","A8KX1HFH8NE2Q","382GHPVPHSDM8N0F9141EAH7F0K34Z","","null","<img src=""img/land2.png"" style=""width:200px; border:14px solid green;"">","null","","","","","","","","","",""
"","image-keyboard-response","100","73238","0.0-100.0","3FE7TXL1LJ96YUPOU02BNM98DWCQ2S","A8KX1HFH8NE2Q","382GHPVPHSDM8N0F9141EAH7F0K34Z","","598","img/land1.png","75","599.2999999523163","2","0","2","1","0.8,0.2,0.2,0.2,0.8,0.2,0.2,0.2,0.8","0.8,0.2,0.2,0.2,0.8,0.2,0.2,0.2,0.8","1","",""
"","html-keyboard-response","101","73540","0.0-101.0","3FE7TXL1LJ96YUPOU02BNM98DWCQ2S","A8KX1HFH8NE2Q","382GHPVPHSDM8N0F9141EAH7F0K34Z","","null","<img src=""img/land1.png"" style=""width:200px;border:14px solid red;"">","null","","","","","","","","","",""
"","image-keyboard-response","102","74352","0.0-102.0","3FE7TXL1LJ96YUPOU02BNM98DWCQ2S","A8KX1HFH8NE2Q","382GHPVPHSDM8N0F9141EAH7F0K34Z","","810.5","img/land6.png","76","811.3999999761581","3","1","3","1","0.8,0.2,0.2,0.2,0.8,0.2,0.2,0.2,0.8","0.8,0.2,0.2,0.2,0.8,0.2,0.2,0.2,0.8","1","",""
"","html-keyboard-response","103","74654","0.0-103.0","3FE7TXL1LJ96YUPOU02BNM98DWCQ2S","A8KX1HFH8NE2Q","382GHPVPHSDM8N0F9141EAH7F0K34Z","","null","<img src=""img/land6.png"" style=""width:200px; border:14px solid green;"">","null","","","","","","","","","",""
"","image-keyboard-response","104","75091","0.0-104.0","3FE7TXL1LJ96YUPOU02BNM98DWCQ2S","A8KX1HFH8NE2Q","382GHPVPHSDM8N0F9141EAH7F0K34Z","","434.80000001192093","img/land6.png","76","436.5","3","1","3","1","0.8,0.2,0.2,0.2,0.8,0.2,0.2,0.2,0.8","0.8,0.2,0.2,0.2,0.8,0.2,0.2,0.2,0.8","1","",""
"","html-keyboard-response","105","75394","0.0-105.0","3FE7TXL1LJ96YUPOU02BNM98DWCQ2S","A8KX1HFH8NE2Q","382GHPVPHSDM8N0F9141EAH7F0K34Z","","null","<img src=""img/land6.png"" style=""width:200px; border:14px solid green;"">","null","","","","","","","","","",""
"","image-keyboard-response","106","76018","0.0-106.0","3FE7TXL1LJ96YUPOU02BNM98DWCQ2S","A8KX1HFH8NE2Q","382GHPVPHSDM8N0F9141EAH7F0K34Z","","621.5999999642372","img/land1.png","75","623.3000000119209","2","0","2","1","0.8,0.2,0.2,0.2,0.8,0.2,0.2,0.2,0.8","0.8,0.2,0.2,0.2,0.8,0.2,0.2,0.2,0.8","1","",""
"","html-keyboard-response","107","76320","0.0-107.0","3FE7TXL1LJ96YUPOU02BNM98DWCQ2S","A8KX1HFH8NE2Q","382GHPVPHSDM8N0F9141EAH7F0K34Z","","null","<img src=""img/land1.png"" style=""width:200px;border:14px solid red;"">","null","","","","","","","","","",""
"","image-keyboard-response","108","76745","0.0-108.0","3FE7TXL1LJ96YUPOU02BNM98DWCQ2S","A8KX1HFH8NE2Q","382GHPVPHSDM8N0F9141EAH7F0K34Z","","423.19999998807907","img/land1.png","75","424.69999998807907","2","1","2","1","0.8,0.2,0.2,0.2,0.8,0.2,0.2,0.2,0.8","0.8,0.2,0.2,0.2,0.8,0.2,0.2,0.2,0.8","1","",""
"","html-keyboard-response","109","77048","0.0-109.0","3FE7TXL1LJ96YUPOU02BNM98DWCQ2S","A8KX1HFH8NE2Q","382GHPVPHSDM8N0F9141EAH7F0K34Z","","null","<img src=""img/land1.png"" style=""width:200px; border:14px solid green;"">","null","","","","","","","","","",""
"","image-keyboard-response","110","77581","0.0-110.0","3FE7TXL1LJ96YUPOU02BNM98DWCQ2S","A8KX1HFH8NE2Q","382GHPVPHSDM8N0F9141EAH7F0K34Z","","530.3000000119209","img/land1.png","75","531.8999999761581","2","1","2","1","0.8,0.2,0.2,0.2,0.8,0.2,0.2,0.2,0.8","0.8,0.2,0.2,0.2,0.8,0.2,0.2,0.2,0.8","1","",""
"","html-keyboard-response","111","77883","0.0-111.0","3FE7TXL1LJ96YUPOU02BNM98DWCQ2S","A8KX1HFH8NE2Q","382GHPVPHSDM8N0F9141EAH7F0K34Z","","null","<img src=""img/land1.png"" style=""width:200px; border:14px solid green;"">","null","","","","","","","","","",""
"","image-keyboard-response","112","78663","0.0-112.0","3FE7TXL1LJ96YUPOU02BNM98DWCQ2S","A8KX1HFH8NE2Q","382GHPVPHSDM8N0F9141EAH7F0K34Z","","777.7999999523163","img/land6.png","76","779.1999999880791","3","0","3","1","0.8,0.2,0.2,0.2,0.8,0.2,0.2,0.2,0.8","0.8,0.2,0.2,0.2,0.8,0.2,0.2,0.2,0.8","1","",""
"","html-keyboard-response","113","78967","0.0-113.0","3FE7TXL1LJ96YUPOU02BNM98DWCQ2S","A8KX1HFH8NE2Q","382GHPVPHSDM8N0F9141EAH7F0K34Z","","null","<img src=""img/land6.png"" style=""width:200px;border:14px solid red;"">","null","","","","","","","","","",""
"","image-keyboard-response","114","79302","0.0-114.0","3FE7TXL1LJ96YUPOU02BNM98DWCQ2S","A8KX1HFH8NE2Q","382GHPVPHSDM8N0F9141EAH7F0K34Z","","333.69999998807907","img/land6.png","76","335","3","1","3","1","0.8,0.2,0.2,0.2,0.8,0.2,0.2,0.2,0.8","0.8,0.2,0.2,0.2,0.8,0.2,0.2,0.2,0.8","1","",""
"","html-keyboard-response","115","79606","0.0-115.0","3FE7TXL1LJ96YUPOU02BNM98DWCQ2S","A8KX1HFH8NE2Q","382GHPVPHSDM8N0F9141EAH7F0K34Z","","null","<img src=""img/land6.png"" style=""width:200px; border:14px solid green;"">","null","","","","","","","","","",""
"","image-keyboard-response","116","80069","0.0-116.0","3FE7TXL1LJ96YUPOU02BNM98DWCQ2S","A8KX1HFH8NE2Q","382GHPVPHSDM8N0F9141EAH7F0K34Z","","460.89999997615814","img/land6.png","76","462.5999999642372","3","0","3","1","0.8,0.2,0.2,0.2,0.8,0.2,0.2,0.2,0.8","0.8,0.2,0.2,0.2,0.8,0.2,0.2,0.2,0.8","1","",""
"","html-keyboard-response","117","80371","0.0-117.0","3FE7TXL1LJ96YUPOU02BNM98DWCQ2S","A8KX1HFH8NE2Q","382GHPVPHSDM8N0F9141EAH7F0K34Z","","null","<img src=""img/land6.png"" style=""width:200px;border:14px solid red;"">","null","","","","","","","","","",""
"","image-keyboard-response","118","80969","0.0-118.0","3FE7TXL1LJ96YUPOU02BNM98DWCQ2S","A8KX1HFH8NE2Q","382GHPVPHSDM8N0F9141EAH7F0K34Z","","597","img/land6.png","76","598.1000000238419","3","1","3","1","0.8,0.2,0.2,0.2,0.8,0.2,0.2,0.2,0.8","0.8,0.2,0.2,0.2,0.8,0.2,0.2,0.2,0.8","1","",""
"","html-keyboard-response","119","81271","0.0-119.0","3FE7TXL1LJ96YUPOU02BNM98DWCQ2S","A8KX1HFH8NE2Q","382GHPVPHSDM8N0F9141EAH7F0K34Z","","null","<img src=""img/land6.png"" style=""width:200px; border:14px solid green;"">","null","","","","","","","","","",""
"","image-keyboard-response","120","81746","0.0-120.0","3FE7TXL1LJ96YUPOU02BNM98DWCQ2S","A8KX1HFH8NE2Q","382GHPVPHSDM8N0F9141EAH7F0K34Z","","472.9000000357628","img/land6.png","76","474.4000000357628","3","1","3","1","0.8,0.2,0.2,0.2,0.8,0.2,0.2,0.2,0.8","0.8,0.2,0.2,0.2,0.8,0.2,0.2,0.2,0.8","1","",""
"","html-keyboard-response","121","82048","0.0-121.0","3FE7TXL1LJ96YUPOU02BNM98DWCQ2S","A8KX1HFH8NE2Q","382GHPVPHSDM8N0F9141EAH7F0K34Z","","null","<img src=""img/land6.png"" style=""width:200px; border:14px solid green;"">","null","","","","","","","","","",""
"","image-keyboard-response","122","82764","0.0-122.0","3FE7TXL1LJ96YUPOU02BNM98DWCQ2S","A8KX1HFH8NE2Q","382GHPVPHSDM8N0F9141EAH7F0K34Z","","714.1999999880791","img/land1.png","75","715.8999999761581","2","1","2","1","0.8,0.2,0.2,0.2,0.8,0.2,0.2,0.2,0.8","0.8,0.2,0.2,0.2,0.8,0.2,0.2,0.2,0.8","1","",""
"","html-keyboard-response","123","83067","0.0-123.0","3FE7TXL1LJ96YUPOU02BNM98DWCQ2S","A8KX1HFH8NE2Q","382GHPVPHSDM8N0F9141EAH7F0K34Z","","null","<img src=""img/land1.png"" style=""width:200px; border:14px solid green;"">","null","","","","","","","","","",""
"","image-keyboard-response","124","83400","0.0-124.0","3FE7TXL1LJ96YUPOU02BNM98DWCQ2S","A8KX1HFH8NE2Q","382GHPVPHSDM8N0F9141EAH7F0K34Z","","331.5999999642372","img/land1.png","75","332.7999999523163","2","1","2","1","0.8,0.2,0.2,0.2,0.8,0.2,0.2,0.2,0.8","0.8,0.2,0.2,0.2,0.8,0.2,0.2,0.2,0.8","1","",""
"","html-keyboard-response","125","83701","0.0-125.0","3FE7TXL1LJ96YUPOU02BNM98DWCQ2S","A8KX1HFH8NE2Q","382GHPVPHSDM8N0F9141EAH7F0K34Z","","null","<img src=""img/land1.png"" style=""width:200px; border:14px solid green;"">","null","","","","","","","","","",""
"","image-keyboard-response","126","84577","0.0-126.0","3FE7TXL1LJ96YUPOU02BNM98DWCQ2S","A8KX1HFH8NE2Q","382GHPVPHSDM8N0F9141EAH7F0K34Z","","873.1000000238419","img/land6.png","76","874.6000000238419","3","1","3","1","0.8,0.2,0.2,0.2,0.8,0.2,0.2,0.2,0.8","0.8,0.2,0.2,0.2,0.8,0.2,0.2,0.2,0.8","1","",""
"","html-keyboard-response","127","84879","0.0-127.0","3FE7TXL1LJ96YUPOU02BNM98DWCQ2S","A8KX1HFH8NE2Q","382GHPVPHSDM8N0F9141EAH7F0K34Z","","null","<img src=""img/land6.png"" style=""width:200px; border:14px solid green;"">","null","","","","","","","","","",""
"","image-keyboard-response","128","85383","0.0-128.0","3FE7TXL1LJ96YUPOU02BNM98DWCQ2S","A8KX1HFH8NE2Q","382GHPVPHSDM8N0F9141EAH7F0K34Z","","503.60000002384186","img/land6.png","76","504.30000001192093","3","1","3","1","0.8,0.2,0.2,0.2,0.8,0.2,0.2,0.2,0.8","0.8,0.2,0.2,0.2,0.8,0.2,0.2,0.2,0.8","1","",""
"","html-keyboard-response","129","85684","0.0-129.0","3FE7TXL1LJ96YUPOU02BNM98DWCQ2S","A8KX1HFH8NE2Q","382GHPVPHSDM8N0F9141EAH7F0K34Z","","null","<img src=""img/land6.png"" style=""width:200px; border:14px solid green;"">","null","","","","","","","","","",""
"","image-keyboard-response","130","86158","0.0-130.0","3FE7TXL1LJ96YUPOU02BNM98DWCQ2S","A8KX1HFH8NE2Q","382GHPVPHSDM8N0F9141EAH7F0K34Z","","471.7000000476837","img/land6.png","76","473","3","0","3","1","0.8,0.2,0.2,0.2,0.8,0.2,0.2,0.2,0.8","0.8,0.2,0.2,0.2,0.8,0.2,0.2,0.2,0.8","1","",""
"","html-keyboard-response","131","86460","0.0-131.0","3FE7TXL1LJ96YUPOU02BNM98DWCQ2S","A8KX1HFH8NE2Q","382GHPVPHSDM8N0F9141EAH7F0K34Z","","null","<img src=""img/land6.png"" style=""width:200px;border:14px solid red;"">","null","","","","","","","","","",""
"","image-keyboard-response","132","87108","0.0-132.0","3FE7TXL1LJ96YUPOU02BNM98DWCQ2S","A8KX1HFH8NE2Q","382GHPVPHSDM8N0F9141EAH7F0K34Z","","646.3000000119209","img/land1.png","75","647.8000000119209","2","1","2","1","0.8,0.2,0.2,0.2,0.8,0.2,0.2,0.2,0.8","0.8,0.2,0.2,0.2,0.8,0.2,0.2,0.2,0.8","1","",""
"","html-keyboard-response","133","87417","0.0-133.0","3FE7TXL1LJ96YUPOU02BNM98DWCQ2S","A8KX1HFH8NE2Q","382GHPVPHSDM8N0F9141EAH7F0K34Z","","null","<img src=""img/land1.png"" style=""width:200px; border:14px solid green;"">","null","","","","","","","","","",""
"","image-keyboard-response","134","88100","0.0-134.0","3FE7TXL1LJ96YUPOU02BNM98DWCQ2S","A8KX1HFH8NE2Q","382GHPVPHSDM8N0F9141EAH7F0K34Z","","680.8000000119209","img/land2.png","74","689.4000000357628","1","1","1","1","0.8,0.2,0.2,0.2,0.8,0.2,0.2,0.2,0.8","0.8,0.2,0.2,0.2,0.8,0.2,0.2,0.2,0.8","1","",""
"","html-keyboard-response","135","88410","0.0-135.0","3FE7TXL1LJ96YUPOU02BNM98DWCQ2S","A8KX1HFH8NE2Q","382GHPVPHSDM8N0F9141EAH7F0K34Z","","null","<img src=""img/land2.png"" style=""width:200px; border:14px solid green;"">","null","","","","","","","","","",""
"","image-keyboard-response","136","89150","0.0-136.0","3FE7TXL1LJ96YUPOU02BNM98DWCQ2S","A8KX1HFH8NE2Q","382GHPVPHSDM8N0F9141EAH7F0K34Z","","738.3000000119209","img/land6.png","76","739.1999999880791","3","0","3","1","0.8,0.2,0.2,0.2,0.8,0.2,0.2,0.2,0.8","0.8,0.2,0.2,0.2,0.8,0.2,0.2,0.2,0.8","1","",""
"","html-keyboard-response","137","89451","0.0-137.0","3FE7TXL1LJ96YUPOU02BNM98DWCQ2S","A8KX1HFH8NE2Q","382GHPVPHSDM8N0F9141EAH7F0K34Z","","null","<img src=""img/land6.png"" style=""width:200px;border:14px solid red;"">","null","","","","","","","","","",""
"","image-keyboard-response","138","90090","0.0-138.0","3FE7TXL1LJ96YUPOU02BNM98DWCQ2S","A8KX1HFH8NE2Q","382GHPVPHSDM8N0F9141EAH7F0K34Z","","636.6000000238419","img/land1.png","75","638.1000000238419","2","1","2","1","0.8,0.2,0.2,0.2,0.8,0.2,0.2,0.2,0.8","0.8,0.2,0.2,0.2,0.8,0.2,0.2,0.2,0.8","1","",""
"","html-keyboard-response","139","90392","0.0-139.0","3FE7TXL1LJ96YUPOU02BNM98DWCQ2S","A8KX1HFH8NE2Q","382GHPVPHSDM8N0F9141EAH7F0K34Z","","null","<img src=""img/land1.png"" style=""width:200px; border:14px solid green;"">","null","","","","","","","","","",""
"","image-keyboard-response","140","91023","0.0-140.0","3FE7TXL1LJ96YUPOU02BNM98DWCQ2S","A8KX1HFH8NE2Q","382GHPVPHSDM8N0F9141EAH7F0K34Z","","629.1999999880791","img/land2.png","74","630.6999999880791","1","1","1","1","0.8,0.2,0.2,0.2,0.8,0.2,0.2,0.2,0.8","0.8,0.2,0.2,0.2,0.8,0.2,0.2,0.2,0.8","1","",""
"","html-keyboard-response","141","91325","0.0-141.0","3FE7TXL1LJ96YUPOU02BNM98DWCQ2S","A8KX1HFH8NE2Q","382GHPVPHSDM8N0F9141EAH7F0K34Z","","null","<img src=""img/land2.png"" style=""width:200px; border:14px solid green;"">","null","","","","","","","","","",""
"","image-keyboard-response","142","91856","0.0-142.0","3FE7TXL1LJ96YUPOU02BNM98DWCQ2S","A8KX1HFH8NE2Q","382GHPVPHSDM8N0F9141EAH7F0K34Z","","529.1000000238419","img/land1.png","75","530.5","2","1","2","1","0.8,0.2,0.2,0.2,0.8,0.2,0.2,0.2,0.8","0.8,0.2,0.2,0.2,0.8,0.2,0.2,0.2,0.8","1","",""
"","html-keyboard-response","143","92158","0.0-143.0","3FE7TXL1LJ96YUPOU02BNM98DWCQ2S","A8KX1HFH8NE2Q","382GHPVPHSDM8N0F9141EAH7F0K34Z","","null","<img src=""img/land1.png"" style=""width:200px; border:14px solid green;"">","null","","","","","","","","","",""
"","image-keyboard-response","144","92611","0.0-144.0","3FE7TXL1LJ96YUPOU02BNM98DWCQ2S","A8KX1HFH8NE2Q","382GHPVPHSDM8N0F9141EAH7F0K34Z","","452","img/land1.png","75","452.80000001192093","2","1","2","1","0.8,0.2,0.2,0.2,0.8,0.2,0.2,0.2,0.8","0.8,0.2,0.2,0.2,0.8,0.2,0.2,0.2,0.8","1","",""
"","html-keyboard-response","145","92913","0.0-145.0","3FE7TXL1LJ96YUPOU02BNM98DWCQ2S","A8KX1HFH8NE2Q","382GHPVPHSDM8N0F9141EAH7F0K34Z","","null","<img src=""img/land1.png"" style=""width:200px; border:14px solid green;"">","null","","","","","","","","","",""
"","image-keyboard-response","146","93269","0.0-146.0","3FE7TXL1LJ96YUPOU02BNM98DWCQ2S","A8KX1HFH8NE2Q","382GHPVPHSDM8N0F9141EAH7F0K34Z","","355.30000001192093","img/land1.png","75","355.80000001192093","2","0","2","1","0.8,0.2,0.2,0.2,0.8,0.2,0.2,0.2,0.8","0.8,0.2,0.2,0.2,0.8,0.2,0.2,0.2,0.8","1","",""
"","html-keyboard-response","147","93570","0.0-147.0","3FE7TXL1LJ96YUPOU02BNM98DWCQ2S","A8KX1HFH8NE2Q","382GHPVPHSDM8N0F9141EAH7F0K34Z","","null","<img src=""img/land1.png"" style=""width:200px;border:14px solid red;"">","null","","","","","","","","","",""
"","image-keyboard-response","148","94028","0.0-148.0","3FE7TXL1LJ96YUPOU02BNM98DWCQ2S","A8KX1HFH8NE2Q","382GHPVPHSDM8N0F9141EAH7F0K34Z","","456.69999998807907","img/land1.png","75","457.5","2","1","2","1","0.8,0.2,0.2,0.2,0.8,0.2,0.2,0.2,0.8","0.8,0.2,0.2,0.2,0.8,0.2,0.2,0.2,0.8","1","",""
"","html-keyboard-response","149","94330","0.0-149.0","3FE7TXL1LJ96YUPOU02BNM98DWCQ2S","A8KX1HFH8NE2Q","382GHPVPHSDM8N0F9141EAH7F0K34Z","","null","<img src=""img/land1.png"" style=""width:200px; border:14px solid green;"">","null","","","","","","","","","",""
"","image-keyboard-response","150","94797","0.0-150.0","3FE7TXL1LJ96YUPOU02BNM98DWCQ2S","A8KX1HFH8NE2Q","382GHPVPHSDM8N0F9141EAH7F0K34Z","","466.4000000357628","img/land1.png","75","467.5999999642372","2","0","2","1","0.8,0.2,0.2,0.2,0.8,0.2,0.2,0.2,0.8","0.8,0.2,0.2,0.2,0.8,0.2,0.2,0.2,0.8","1","",""
"","html-keyboard-response","151","95104","0.0-151.0","3FE7TXL1LJ96YUPOU02BNM98DWCQ2S","A8KX1HFH8NE2Q","382GHPVPHSDM8N0F9141EAH7F0K34Z","","null","<img src=""img/land1.png"" style=""width:200px;border:14px solid red;"">","null","","","","","","","","","",""
"","image-keyboard-response","152","95829","0.0-152.0","3FE7TXL1LJ96YUPOU02BNM98DWCQ2S","A8KX1HFH8NE2Q","382GHPVPHSDM8N0F9141EAH7F0K34Z","","715.5","img/land2.png","74","723.4000000357628","1","0","1","1","0.8,0.2,0.2,0.2,0.8,0.2,0.2,0.2,0.8","0.8,0.2,0.2,0.2,0.8,0.2,0.2,0.2,0.8","1","",""
"","html-keyboard-response","153","96132","0.0-153.0","3FE7TXL1LJ96YUPOU02BNM98DWCQ2S","A8KX1HFH8NE2Q","382GHPVPHSDM8N0F9141EAH7F0K34Z","","null","<img src=""img/land2.png"" style=""width:200px;border:14px solid red;"">","null","","","","","","","","","",""
"","image-keyboard-response","154","97088","0.0-154.0","3FE7TXL1LJ96YUPOU02BNM98DWCQ2S","A8KX1HFH8NE2Q","382GHPVPHSDM8N0F9141EAH7F0K34Z","","955.3999999761581","img/land1.png","75","956.5","2","1","2","1","0.8,0.2,0.2,0.2,0.8,0.2,0.2,0.2,0.8","0.8,0.2,0.2,0.2,0.8,0.2,0.2,0.2,0.8","1","",""
"","html-keyboard-response","155","97390","0.0-155.0","3FE7TXL1LJ96YUPOU02BNM98DWCQ2S","A8KX1HFH8NE2Q","382GHPVPHSDM8N0F9141EAH7F0K34Z","","null","<img src=""img/land1.png"" style=""width:200px; border:14px solid green;"">","null","","","","","","","","","",""
"","image-keyboard-response","156","97969","0.0-156.0","3FE7TXL1LJ96YUPOU02BNM98DWCQ2S","A8KX1HFH8NE2Q","382GHPVPHSDM8N0F9141EAH7F0K34Z","","578","img/land6.png","76","578.6999999880791","3","1","3","1","0.8,0.2,0.2,0.2,0.8,0.2,0.2,0.2,0.8","0.8,0.2,0.2,0.2,0.8,0.2,0.2,0.2,0.8","1","",""
"","html-keyboard-response","157","98271","0.0-157.0","3FE7TXL1LJ96YUPOU02BNM98DWCQ2S","A8KX1HFH8NE2Q","382GHPVPHSDM8N0F9141EAH7F0K34Z","","null","<img src=""img/land6.png"" style=""width:200px; border:14px solid green;"">","null","","","","","","","","","",""
"","image-keyboard-response","158","99016","0.0-158.0","3FE7TXL1LJ96YUPOU02BNM98DWCQ2S","A8KX1HFH8NE2Q","382GHPVPHSDM8N0F9141EAH7F0K34Z","","745","img/land2.png","74","745.5999999642372","1","0","1","1","0.8,0.2,0.2,0.2,0.8,0.2,0.2,0.2,0.8","0.8,0.2,0.2,0.2,0.8,0.2,0.2,0.2,0.8","1","",""
"","html-keyboard-response","159","99318","0.0-159.0","3FE7TXL1LJ96YUPOU02BNM98DWCQ2S","A8KX1HFH8NE2Q","382GHPVPHSDM8N0F9141EAH7F0K34Z","","null","<img src=""img/land2.png"" style=""width:200px;border:14px solid red;"">","null","","","","","","","","","",""
"","image-keyboard-response","160","99855","0.0-160.0","3FE7TXL1LJ96YUPOU02BNM98DWCQ2S","A8KX1HFH8NE2Q","382GHPVPHSDM8N0F9141EAH7F0K34Z","","534.8000000119209","img/land1.png","75","536.5","2","1","2","1","0.8,0.2,0.2,0.2,0.8,0.2,0.2,0.2,0.8","0.8,0.2,0.2,0.2,0.8,0.2,0.2,0.2,0.8","1","",""
"","html-keyboard-response","161","100157","0.0-161.0","3FE7TXL1LJ96YUPOU02BNM98DWCQ2S","A8KX1HFH8NE2Q","382GHPVPHSDM8N0F9141EAH7F0K34Z","","null","<img src=""img/land1.png"" style=""width:200px; border:14px solid green;"">","null","","","","","","","","","",""
"","image-keyboard-response","162","100620","0.0-162.0","3FE7TXL1LJ96YUPOU02BNM98DWCQ2S","A8KX1HFH8NE2Q","382GHPVPHSDM8N0F9141EAH7F0K34Z","","461","img/land1.png","75","461.80000001192093","2","1","2","1","0.8,0.2,0.2,0.2,0.8,0.2,0.2,0.2,0.8","0.8,0.2,0.2,0.2,0.8,0.2,0.2,0.2,0.8","1","",""
"","html-keyboard-response","163","100923","0.0-163.0","3FE7TXL1LJ96YUPOU02BNM98DWCQ2S","A8KX1HFH8NE2Q","382GHPVPHSDM8N0F9141EAH7F0K34Z","","null","<img src=""img/land1.png"" style=""width:200px; border:14px solid green;"">","null","","","","","","","","","",""
"","image-keyboard-response","164","101649","0.0-164.0","3FE7TXL1LJ96YUPOU02BNM98DWCQ2S","A8KX1HFH8NE2Q","382GHPVPHSDM8N0F9141EAH7F0K34Z","","723.9000000357628","img/land1.png","75","725.5999999642372","2","1","2","1","0.8,0.2,0.2,0.2,0.8,0.2,0.2,0.2,0.8","0.8,0.2,0.2,0.2,0.8,0.2,0.2,0.2,0.8","1","",""
"","html-keyboard-response","165","101951","0.0-165.0","3FE7TXL1LJ96YUPOU02BNM98DWCQ2S","A8KX1HFH8NE2Q","382GHPVPHSDM8N0F9141EAH7F0K34Z","","null","<img src=""img/land1.png"" style=""width:200px; border:14px solid green;"">","null","","","","","","","","","",""
"","image-keyboard-response","166","102659","0.0-166.0","3FE7TXL1LJ96YUPOU02BNM98DWCQ2S","A8KX1HFH8NE2Q","382GHPVPHSDM8N0F9141EAH7F0K34Z","","705.5999999642372","img/land2.png","74","707.5","1","1","1","1","0.8,0.2,0.2,0.2,0.8,0.2,0.2,0.2,0.8","0.8,0.2,0.2,0.2,0.8,0.2,0.2,0.2,0.8","1","",""
"","html-keyboard-response","167","102963","0.0-167.0","3FE7TXL1LJ96YUPOU02BNM98DWCQ2S","A8KX1HFH8NE2Q","382GHPVPHSDM8N0F9141EAH7F0K34Z","","null","<img src=""img/land2.png"" style=""width:200px; border:14px solid green;"">","null","","","","","","","","","",""
"","image-keyboard-response","168","103688","0.0-168.0","3FE7TXL1LJ96YUPOU02BNM98DWCQ2S","A8KX1HFH8NE2Q","382GHPVPHSDM8N0F9141EAH7F0K34Z","","723.6999999880791","img/land6.png","76","725.3000000119209","3","0","3","1","0.8,0.2,0.2,0.2,0.8,0.2,0.2,0.2,0.8","0.8,0.2,0.2,0.2,0.8,0.2,0.2,0.2,0.8","1","",""
"","html-keyboard-response","169","103992","0.0-169.0","3FE7TXL1LJ96YUPOU02BNM98DWCQ2S","A8KX1HFH8NE2Q","382GHPVPHSDM8N0F9141EAH7F0K34Z","","null","<img src=""img/land6.png"" style=""width:200px;border:14px solid red;"">","null","","","","","","","","","",""
"","image-keyboard-response","170","104732","0.0-170.0","3FE7TXL1LJ96YUPOU02BNM98DWCQ2S","A8KX1HFH8NE2Q","382GHPVPHSDM8N0F9141EAH7F0K34Z","","737.8999999761581","img/land6.png","76","739.5","3","1","3","1","0.8,0.2,0.2,0.2,0.8,0.2,0.2,0.2,0.8","0.8,0.2,0.2,0.2,0.8,0.2,0.2,0.2,0.8","1","",""
"","html-keyboard-response","171","105047","0.0-171.0","3FE7TXL1LJ96YUPOU02BNM98DWCQ2S","A8KX1HFH8NE2Q","382GHPVPHSDM8N0F9141EAH7F0K34Z","","null","<img src=""img/land6.png"" style=""width:200px; border:14px solid green;"">","null","","","","","","","","","",""
"","image-keyboard-response","172","105658","0.0-172.0","3FE7TXL1LJ96YUPOU02BNM98DWCQ2S","A8KX1HFH8NE2Q","382GHPVPHSDM8N0F9141EAH7F0K34Z","","608.8000000119209","img/land1.png","75","610.3000000119209","2","1","2","1","0.8,0.2,0.2,0.2,0.8,0.2,0.2,0.2,0.8","0.8,0.2,0.2,0.2,0.8,0.2,0.2,0.2,0.8","1","",""
"","html-keyboard-response","173","105962","0.0-173.0","3FE7TXL1LJ96YUPOU02BNM98DWCQ2S","A8KX1HFH8NE2Q","382GHPVPHSDM8N0F9141EAH7F0K34Z","","null","<img src=""img/land1.png"" style=""width:200px; border:14px solid green;"">","null","","","","","","","","","",""
"","image-keyboard-response","174","106638","0.0-174.0","3FE7TXL1LJ96YUPOU02BNM98DWCQ2S","A8KX1HFH8NE2Q","382GHPVPHSDM8N0F9141EAH7F0K34Z","","673.1999999880791","img/land6.png","76","675.3000000119209","3","1","3","1","0.8,0.2,0.2,0.2,0.8,0.2,0.2,0.2,0.8","0.8,0.2,0.2,0.2,0.8,0.2,0.2,0.2,0.8","1","",""
"","html-keyboard-response","175","106940","0.0-175.0","3FE7TXL1LJ96YUPOU02BNM98DWCQ2S","A8KX1HFH8NE2Q","382GHPVPHSDM8N0F9141EAH7F0K34Z","","null","<img src=""img/land6.png"" style=""width:200px; border:14px solid green;"">","null","","","","","","","","","",""
"","image-keyboard-response","176","107293","0.0-176.0","3FE7TXL1LJ96YUPOU02BNM98DWCQ2S","A8KX1HFH8NE2Q","382GHPVPHSDM8N0F9141EAH7F0K34Z","","351.69999998807907","img/land6.png","76","353.10000002384186","3","0","3","1","0.8,0.2,0.2,0.2,0.8,0.2,0.2,0.2,0.8","0.8,0.2,0.2,0.2,0.8,0.2,0.2,0.2,0.8","1","",""
"","html-keyboard-response","177","107605","0.0-177.0","3FE7TXL1LJ96YUPOU02BNM98DWCQ2S","A8KX1HFH8NE2Q","382GHPVPHSDM8N0F9141EAH7F0K34Z","","null","<img src=""img/land6.png"" style=""width:200px;border:14px solid red;"">","null","","","","","","","","","",""
"","image-keyboard-response","178","108080","0.0-178.0","3FE7TXL1LJ96YUPOU02BNM98DWCQ2S","A8KX1HFH8NE2Q","382GHPVPHSDM8N0F9141EAH7F0K34Z","","472.89999997615814","img/land2.png","75","474.39999997615814","2","0","1","1","0.8,0.2,0.2,0.2,0.8,0.2,0.2,0.2,0.8","0.8,0.2,0.2,0.2,0.8,0.2,0.2,0.2,0.8","1","",""
"","html-keyboard-response","179","108382","0.0-179.0","3FE7TXL1LJ96YUPOU02BNM98DWCQ2S","A8KX1HFH8NE2Q","382GHPVPHSDM8N0F9141EAH7F0K34Z","","null","<img src=""img/land2.png"" style=""width:200px;border:14px solid red;"">","null","","","","","","","","","",""
"","image-keyboard-response","180","108969","0.0-180.0","3FE7TXL1LJ96YUPOU02BNM98DWCQ2S","A8KX1HFH8NE2Q","382GHPVPHSDM8N0F9141EAH7F0K34Z","","584.3999999761581","img/land2.png","74","586.6000000238419","1","1","1","1","0.8,0.2,0.2,0.2,0.8,0.2,0.2,0.2,0.8","0.8,0.2,0.2,0.2,0.8,0.2,0.2,0.2,0.8","1","",""
"","html-keyboard-response","181","109271","0.0-181.0","3FE7TXL1LJ96YUPOU02BNM98DWCQ2S","A8KX1HFH8NE2Q","382GHPVPHSDM8N0F9141EAH7F0K34Z","","null","<img src=""img/land2.png"" style=""width:200px; border:14px solid green;"">","null","","","","","","","","","",""
"","html-keyboard-response","182","112325","0.0-182.0","3FE7TXL1LJ96YUPOU02BNM98DWCQ2S","A8KX1HFH8NE2Q","382GHPVPHSDM8N0F9141EAH7F0K34Z","","","","","","","","","","","","","",""
"","image-keyboard-response","183","113953","0.0-183.0","3FE7TXL1LJ96YUPOU02BNM98DWCQ2S","A8KX1HFH8NE2Q","382GHPVPHSDM8N0F9141EAH7F0K34Z","","1626.7999999523163","img/land3.png","74","1628.300000011921","1","0","3","2","0.8,0.2,0.2,0.2,0.8,0.2,0.2,0.2,0.8","0.8,0.2,0.2,0.2,0.8,0.2,0.2,0.2,0.8","1","",""
"","html-keyboard-response","184","114264","0.0-184.0","3FE7TXL1LJ96YUPOU02BNM98DWCQ2S","A8KX1HFH8NE2Q","382GHPVPHSDM8N0F9141EAH7F0K34Z","","null","<img src=""img/land3.png"" style=""width:200px;border:14px solid red;"">","null","","","","","","","","","",""
"","image-keyboard-response","185","115080","0.0-185.0","3FE7TXL1LJ96YUPOU02BNM98DWCQ2S","A8KX1HFH8NE2Q","382GHPVPHSDM8N0F9141EAH7F0K34Z","","814.1999999880791","img/land3.png","75","815.5","2","1","3","2","0.8,0.2,0.2,0.2,0.8,0.2,0.2,0.2,0.8","0.8,0.2,0.2,0.2,0.8,0.2,0.2,0.2,0.8","1","",""
"","html-keyboard-response","186","115383","0.0-186.0","3FE7TXL1LJ96YUPOU02BNM98DWCQ2S","A8KX1HFH8NE2Q","382GHPVPHSDM8N0F9141EAH7F0K34Z","","null","<img src=""img/land3.png"" style=""width:200px; border:14px solid green;"">","null","","","","","","","","","",""
"","image-keyboard-response","187","115937","0.0-187.0","3FE7TXL1LJ96YUPOU02BNM98DWCQ2S","A8KX1HFH8NE2Q","382GHPVPHSDM8N0F9141EAH7F0K34Z","","552.2000000476837","img/land3.png","75","554.0999999642372","2","0","3","2","0.8,0.2,0.2,0.2,0.8,0.2,0.2,0.2,0.8","0.8,0.2,0.2,0.2,0.8,0.2,0.2,0.2,0.8","1","",""
"","html-keyboard-response","188","116240","0.0-188.0","3FE7TXL1LJ96YUPOU02BNM98DWCQ2S","A8KX1HFH8NE2Q","382GHPVPHSDM8N0F9141EAH7F0K34Z","","null","<img src=""img/land3.png"" style=""width:200px;border:14px solid red;"">","null","","","","","","","","","",""
"","image-keyboard-response","189","117041","0.0-189.0","3FE7TXL1LJ96YUPOU02BNM98DWCQ2S","A8KX1HFH8NE2Q","382GHPVPHSDM8N0F9141EAH7F0K34Z","","799","img/land4.png","76","800.6999999880791","3","1","2","2","0.8,0.2,0.2,0.2,0.8,0.2,0.2,0.2,0.8","0.8,0.2,0.2,0.2,0.8,0.2,0.2,0.2,0.8","1","",""
"","html-keyboard-response","190","117344","0.0-190.0","3FE7TXL1LJ96YUPOU02BNM98DWCQ2S","A8KX1HFH8NE2Q","382GHPVPHSDM8N0F9141EAH7F0K34Z","","null","<img src=""img/land4.png"" style=""width:200px; border:14px solid green;"">","null","","","","","","","","","",""
"","image-keyboard-response","191","117737","0.0-191.0","3FE7TXL1LJ96YUPOU02BNM98DWCQ2S","A8KX1HFH8NE2Q","382GHPVPHSDM8N0F9141EAH7F0K34Z","","391.4000000357628","img/land4.png","76","392.9000000357628","3","0","2","2","0.8,0.2,0.2,0.2,0.8,0.2,0.2,0.2,0.8","0.8,0.2,0.2,0.2,0.8,0.2,0.2,0.2,0.8","1","",""
"","html-keyboard-response","192","118042","0.0-192.0","3FE7TXL1LJ96YUPOU02BNM98DWCQ2S","A8KX1HFH8NE2Q","382GHPVPHSDM8N0F9141EAH7F0K34Z","","null","<img src=""img/land4.png"" style=""width:200px;border:14px solid red;"">","null","","","","","","","","","",""
"","image-keyboard-response","193","118552","0.0-193.0","3FE7TXL1LJ96YUPOU02BNM98DWCQ2S","A8KX1HFH8NE2Q","382GHPVPHSDM8N0F9141EAH7F0K34Z","","508.5","img/land4.png","76","509.69999998807907","3","0","2","2","0.8,0.2,0.2,0.2,0.8,0.2,0.2,0.2,0.8","0.8,0.2,0.2,0.2,0.8,0.2,0.2,0.2,0.8","1","",""
"","html-keyboard-response","194","118854","0.0-194.0","3FE7TXL1LJ96YUPOU02BNM98DWCQ2S","A8KX1HFH8NE2Q","382GHPVPHSDM8N0F9141EAH7F0K34Z","","null","<img src=""img/land4.png"" style=""width:200px;border:14px solid red;"">","null","","","","","","","","","",""
"","image-keyboard-response","195","119438","0.0-195.0","3FE7TXL1LJ96YUPOU02BNM98DWCQ2S","A8KX1HFH8NE2Q","382GHPVPHSDM8N0F9141EAH7F0K34Z","","581.7000000476837","img/land5.png","75","583.1999999880791","2","1","1","2","0.8,0.2,0.2,0.2,0.8,0.2,0.2,0.2,0.8","0.8,0.2,0.2,0.2,0.8,0.2,0.2,0.2,0.8","1","",""
"","html-keyboard-response","196","119741","0.0-196.0","3FE7TXL1LJ96YUPOU02BNM98DWCQ2S","A8KX1HFH8NE2Q","382GHPVPHSDM8N0F9141EAH7F0K34Z","","null","<img src=""img/land5.png"" style=""width:200px; border:14px solid green;"">","null","","","","","","","","","",""
"","image-keyboard-response","197","120136","0.0-197.0","3FE7TXL1LJ96YUPOU02BNM98DWCQ2S","A8KX1HFH8NE2Q","382GHPVPHSDM8N0F9141EAH7F0K34Z","","394.19999998807907","img/land5.png","75","395","2","0","1","2","0.8,0.2,0.2,0.2,0.8,0.2,0.2,0.2,0.8","0.8,0.2,0.2,0.2,0.8,0.2,0.2,0.2,0.8","1","",""
"","html-keyboard-response","198","120438","0.0-198.0","3FE7TXL1LJ96YUPOU02BNM98DWCQ2S","A8KX1HFH8NE2Q","382GHPVPHSDM8N0F9141EAH7F0K34Z","","null","<img src=""img/land5.png"" style=""width:200px;border:14px solid red;"">","null","","","","","","","","","",""
"","image-keyboard-response","199","121291","0.0-199.0","3FE7TXL1LJ96YUPOU02BNM98DWCQ2S","A8KX1HFH8NE2Q","382GHPVPHSDM8N0F9141EAH7F0K34Z","","851.8999999761581","img/land4.png","74","853.0999999642372","1","0","2","2","0.8,0.2,0.2,0.2,0.8,0.2,0.2,0.2,0.8","0.8,0.2,0.2,0.2,0.8,0.2,0.2,0.2,0.8","1","",""
"","html-keyboard-response","200","121595","0.0-200.0","3FE7TXL1LJ96YUPOU02BNM98DWCQ2S","A8KX1HFH8NE2Q","382GHPVPHSDM8N0F9141EAH7F0K34Z","","null","<img src=""img/land4.png"" style=""width:200px;border:14px solid red;"">","null","","","","","","","","","",""
"","image-keyboard-response","201","122121","0.0-201.0","3FE7TXL1LJ96YUPOU02BNM98DWCQ2S","A8KX1HFH8NE2Q","382GHPVPHSDM8N0F9141EAH7F0K34Z","","525.6999999880791","img/land4.png","75","526.6000000238419","2","1","2","2","0.8,0.2,0.2,0.2,0.8,0.2,0.2,0.2,0.8","0.8,0.2,0.2,0.2,0.8,0.2,0.2,0.2,0.8","1","",""
"","html-keyboard-response","202","122424","0.0-202.0","3FE7TXL1LJ96YUPOU02BNM98DWCQ2S","A8KX1HFH8NE2Q","382GHPVPHSDM8N0F9141EAH7F0K34Z","","null","<img src=""img/land4.png"" style=""width:200px; border:14px solid green;"">","null","","","","","","","","","",""
"","image-keyboard-response","203","123377","0.0-203.0","3FE7TXL1LJ96YUPOU02BNM98DWCQ2S","A8KX1HFH8NE2Q","382GHPVPHSDM8N0F9141EAH7F0K34Z","","952","img/land5.png","76","953.1999999880791","3","0","1","2","0.8,0.2,0.2,0.2,0.8,0.2,0.2,0.2,0.8","0.8,0.2,0.2,0.2,0.8,0.2,0.2,0.2,0.8","1","",""
"","html-keyboard-response","204","123679","0.0-204.0","3FE7TXL1LJ96YUPOU02BNM98DWCQ2S","A8KX1HFH8NE2Q","382GHPVPHSDM8N0F9141EAH7F0K34Z","","null","<img src=""img/land5.png"" style=""width:200px;border:14px solid red;"">","null","","","","","","","","","",""
"","image-keyboard-response","205","124293","0.0-205.0","3FE7TXL1LJ96YUPOU02BNM98DWCQ2S","A8KX1HFH8NE2Q","382GHPVPHSDM8N0F9141EAH7F0K34Z","","611.0999999642372","img/land5.png","76","612.4000000357628","3","0","1","2","0.8,0.2,0.2,0.2,0.8,0.2,0.2,0.2,0.8","0.8,0.2,0.2,0.2,0.8,0.2,0.2,0.2,0.8","1","",""
"","html-keyboard-response","206","124601","0.0-206.0","3FE7TXL1LJ96YUPOU02BNM98DWCQ2S","A8KX1HFH8NE2Q","382GHPVPHSDM8N0F9141EAH7F0K34Z","","null","<img src=""img/land5.png"" style=""width:200px;border:14px solid red;"">","null","","","","","","","","","",""
"","image-keyboard-response","207","125776","0.0-207.0","3FE7TXL1LJ96YUPOU02BNM98DWCQ2S","A8KX1HFH8NE2Q","382GHPVPHSDM8N0F9141EAH7F0K34Z","","1173.5","img/land4.png","75","1175","2","1","2","2","0.8,0.2,0.2,0.2,0.8,0.2,0.2,0.2,0.8","0.8,0.2,0.2,0.2,0.8,0.2,0.2,0.2,0.8","1","",""
"","html-keyboard-response","208","126079","0.0-208.0","3FE7TXL1LJ96YUPOU02BNM98DWCQ2S","A8KX1HFH8NE2Q","382GHPVPHSDM8N0F9141EAH7F0K34Z","","null","<img src=""img/land4.png"" style=""width:200px; border:14px solid green;"">","null","","","","","","","","","",""
"","image-keyboard-response","209","126515","0.0-209.0","3FE7TXL1LJ96YUPOU02BNM98DWCQ2S","A8KX1HFH8NE2Q","382GHPVPHSDM8N0F9141EAH7F0K34Z","","433.30000001192093","img/land3.png","75","435.30000001192093","2","0","3","2","0.8,0.2,0.2,0.2,0.8,0.2,0.2,0.2,0.8","0.8,0.2,0.2,0.2,0.8,0.2,0.2,0.2,0.8","1","",""
"","html-keyboard-response","210","126818","0.0-210.0","3FE7TXL1LJ96YUPOU02BNM98DWCQ2S","A8KX1HFH8NE2Q","382GHPVPHSDM8N0F9141EAH7F0K34Z","","null","<img src=""img/land3.png"" style=""width:200px;border:14px solid red;"">","null","","","","","","","","","",""
"","image-keyboard-response","211","127870","0.0-211.0","3FE7TXL1LJ96YUPOU02BNM98DWCQ2S","A8KX1HFH8NE2Q","382GHPVPHSDM8N0F9141EAH7F0K34Z","","1049.7000000476837","img/land4.png","75","1051.3999999761581","2","1","2","2","0.8,0.2,0.2,0.2,0.8,0.2,0.2,0.2,0.8","0.8,0.2,0.2,0.2,0.8,0.2,0.2,0.2,0.8","1","",""
"","html-keyboard-response","212","128186","0.0-212.0","3FE7TXL1LJ96YUPOU02BNM98DWCQ2S","A8KX1HFH8NE2Q","382GHPVPHSDM8N0F9141EAH7F0K34Z","","null","<img src=""img/land4.png"" style=""width:200px; border:14px solid green;"">","null","","","","","","","","","",""
"","image-keyboard-response","213","128725","0.0-213.0","3FE7TXL1LJ96YUPOU02BNM98DWCQ2S","A8KX1HFH8NE2Q","382GHPVPHSDM8N0F9141EAH7F0K34Z","","536.8000000119209","img/land5.png","75","538.0999999642372","2","0","1","2","0.8,0.2,0.2,0.2,0.8,0.2,0.2,0.2,0.8","0.8,0.2,0.2,0.2,0.8,0.2,0.2,0.2,0.8","1","",""
"","html-keyboard-response","214","129027","0.0-214.0","3FE7TXL1LJ96YUPOU02BNM98DWCQ2S","A8KX1HFH8NE2Q","382GHPVPHSDM8N0F9141EAH7F0K34Z","","null","<img src=""img/land5.png"" style=""width:200px;border:14px solid red;"">","null","","","","","","","","","",""
"","image-keyboard-response","215","129599","0.0-215.0","3FE7TXL1LJ96YUPOU02BNM98DWCQ2S","A8KX1HFH8NE2Q","382GHPVPHSDM8N0F9141EAH7F0K34Z","","569.6999999880791","img/land5.png","76","571.3999999761581","3","1","1","2","0.8,0.2,0.2,0.2,0.8,0.2,0.2,0.2,0.8","0.8,0.2,0.2,0.2,0.8,0.2,0.2,0.2,0.8","1","",""
"","html-keyboard-response","216","129902","0.0-216.0","3FE7TXL1LJ96YUPOU02BNM98DWCQ2S","A8KX1HFH8NE2Q","382GHPVPHSDM8N0F9141EAH7F0K34Z","","null","<img src=""img/land5.png"" style=""width:200px; border:14px solid green;"">","null","","","","","","","","","",""
"","image-keyboard-response","217","130392","0.0-217.0","3FE7TXL1LJ96YUPOU02BNM98DWCQ2S","A8KX1HFH8NE2Q","382GHPVPHSDM8N0F9141EAH7F0K34Z","","487.69999998807907","img/land5.png","76","489","3","1","1","2","0.8,0.2,0.2,0.2,0.8,0.2,0.2,0.2,0.8","0.8,0.2,0.2,0.2,0.8,0.2,0.2,0.2,0.8","1","",""
"","html-keyboard-response","218","130693","0.0-218.0","3FE7TXL1LJ96YUPOU02BNM98DWCQ2S","A8KX1HFH8NE2Q","382GHPVPHSDM8N0F9141EAH7F0K34Z","","null","<img src=""img/land5.png"" style=""width:200px; border:14px solid green;"">","null","","","","","","","","","",""
"","image-keyboard-response","219","131744","0.0-219.0","3FE7TXL1LJ96YUPOU02BNM98DWCQ2S","A8KX1HFH8NE2Q","382GHPVPHSDM8N0F9141EAH7F0K34Z","","1048.199999988079","img/land3.png","75","1049.7999999523163","2","0","3","2","0.8,0.2,0.2,0.2,0.8,0.2,0.2,0.2,0.8","0.8,0.2,0.2,0.2,0.8,0.2,0.2,0.2,0.8","1","",""
"","html-keyboard-response","220","132048","0.0-220.0","3FE7TXL1LJ96YUPOU02BNM98DWCQ2S","A8KX1HFH8NE2Q","382GHPVPHSDM8N0F9141EAH7F0K34Z","","null","<img src=""img/land3.png"" style=""width:200px;border:14px solid red;"">","null","","","","","","","","","",""
"","image-keyboard-response","221","133017","0.0-221.0","3FE7TXL1LJ96YUPOU02BNM98DWCQ2S","A8KX1HFH8NE2Q","382GHPVPHSDM8N0F9141EAH7F0K34Z","","967.3999999761581","img/land4.png","76","969","3","1","2","2","0.8,0.2,0.2,0.2,0.8,0.2,0.2,0.2,0.8","0.8,0.2,0.2,0.2,0.8,0.2,0.2,0.2,0.8","1","",""
"","html-keyboard-response","222","133320","0.0-222.0","3FE7TXL1LJ96YUPOU02BNM98DWCQ2S","A8KX1HFH8NE2Q","382GHPVPHSDM8N0F9141EAH7F0K34Z","","null","<img src=""img/land4.png"" style=""width:200px; border:14px solid green;"">","null","","","","","","","","","",""
"","image-keyboard-response","223","133901","0.0-223.0","3FE7TXL1LJ96YUPOU02BNM98DWCQ2S","A8KX1HFH8NE2Q","382GHPVPHSDM8N0F9141EAH7F0K34Z","","579.1999999880791","img/land5.png","76","580.6999999880791","3","0","1","2","0.8,0.2,0.2,0.2,0.8,0.2,0.2,0.2,0.8","0.8,0.2,0.2,0.2,0.8,0.2,0.2,0.2,0.8","1","",""
"","html-keyboard-response","224","134204","0.0-224.0","3FE7TXL1LJ96YUPOU02BNM98DWCQ2S","A8KX1HFH8NE2Q","382GHPVPHSDM8N0F9141EAH7F0K34Z","","null","<img src=""img/land5.png"" style=""width:200px;border:14px solid red;"">","null","","","","","","","","","",""
"","image-keyboard-response","225","134690","0.0-225.0","3FE7TXL1LJ96YUPOU02BNM98DWCQ2S","A8KX1HFH8NE2Q","382GHPVPHSDM8N0F9141EAH7F0K34Z","","484","img/land5.png","76","485.80000001192093","3","0","1","2","0.8,0.2,0.2,0.2,0.8,0.2,0.2,0.2,0.8","0.8,0.2,0.2,0.2,0.8,0.2,0.2,0.2,0.8","1","",""
"","html-keyboard-response","226","134993","0.0-226.0","3FE7TXL1LJ96YUPOU02BNM98DWCQ2S","A8KX1HFH8NE2Q","382GHPVPHSDM8N0F9141EAH7F0K34Z","","null","<img src=""img/land5.png"" style=""width:200px;border:14px solid red;"">","null","","","","","","","","","",""
"","image-keyboard-response","227","135846","0.0-227.0","3FE7TXL1LJ96YUPOU02BNM98DWCQ2S","A8KX1HFH8NE2Q","382GHPVPHSDM8N0F9141EAH7F0K34Z","","852.1000000238419","img/land5.png","76","853.4000000357628","3","0","1","2","0.8,0.2,0.2,0.2,0.8,0.2,0.2,0.2,0.8","0.8,0.2,0.2,0.2,0.8,0.2,0.2,0.2,0.8","1","",""
"","html-keyboard-response","228","136149","0.0-228.0","3FE7TXL1LJ96YUPOU02BNM98DWCQ2S","A8KX1HFH8NE2Q","382GHPVPHSDM8N0F9141EAH7F0K34Z","","null","<img src=""img/land5.png"" style=""width:200px;border:14px solid red;"">","null","","","","","","","","","",""
"","image-keyboard-response","229","136706","0.0-229.0","3FE7TXL1LJ96YUPOU02BNM98DWCQ2S","A8KX1HFH8NE2Q","382GHPVPHSDM8N0F9141EAH7F0K34Z","","554.6999999880791","img/land5.png","76","556.0999999642372","3","0","1","2","0.8,0.2,0.2,0.2,0.8,0.2,0.2,0.2,0.8","0.8,0.2,0.2,0.2,0.8,0.2,0.2,0.2,0.8","1","",""
"","html-keyboard-response","230","137008","0.0-230.0","3FE7TXL1LJ96YUPOU02BNM98DWCQ2S","A8KX1HFH8NE2Q","382GHPVPHSDM8N0F9141EAH7F0K34Z","","null","<img src=""img/land5.png"" style=""width:200px;border:14px solid red;"">","null","","","","","","","","","",""
"","image-keyboard-response","231","137409","0.0-231.0","3FE7TXL1LJ96YUPOU02BNM98DWCQ2S","A8KX1HFH8NE2Q","382GHPVPHSDM8N0F9141EAH7F0K34Z","","399","img/land5.png","75","400.30000001192093","2","1","1","2","0.8,0.2,0.2,0.2,0.8,0.2,0.2,0.2,0.8","0.8,0.2,0.2,0.2,0.8,0.2,0.2,0.2,0.8","1","",""
"","html-keyboard-response","232","137714","0.0-232.0","3FE7TXL1LJ96YUPOU02BNM98DWCQ2S","A8KX1HFH8NE2Q","382GHPVPHSDM8N0F9141EAH7F0K34Z","","null","<img src=""img/land5.png"" style=""width:200px; border:14px solid green;"">","null","","","","","","","","","",""
"","image-keyboard-response","233","138326","0.0-233.0","3FE7TXL1LJ96YUPOU02BNM98DWCQ2S","A8KX1HFH8NE2Q","382GHPVPHSDM8N0F9141EAH7F0K34Z","","610.1999999880791","img/land5.png","75","611.5","2","0","1","2","0.8,0.2,0.2,0.2,0.8,0.2,0.2,0.2,0.8","0.8,0.2,0.2,0.2,0.8,0.2,0.2,0.2,0.8","1","",""
"","html-keyboard-response","234","138628","0.0-234.0","3FE7TXL1LJ96YUPOU02BNM98DWCQ2S","A8KX1HFH8NE2Q","382GHPVPHSDM8N0F9141EAH7F0K34Z","","null","<img src=""img/land5.png"" style=""width:200px;border:14px solid red;"">","null","","","","","","","","","",""
"","image-keyboard-response","235","139125","0.0-235.0","3FE7TXL1LJ96YUPOU02BNM98DWCQ2S","A8KX1HFH8NE2Q","382GHPVPHSDM8N0F9141EAH7F0K34Z","","495.0999999642372","img/land5.png","75","496.4000000357628","2","0","1","2","0.8,0.2,0.2,0.2,0.8,0.2,0.2,0.2,0.8","0.8,0.2,0.2,0.2,0.8,0.2,0.2,0.2,0.8","1","",""
"","html-keyboard-response","236","139427","0.0-236.0","3FE7TXL1LJ96YUPOU02BNM98DWCQ2S","A8KX1HFH8NE2Q","382GHPVPHSDM8N0F9141EAH7F0K34Z","","null","<img src=""img/land5.png"" style=""width:200px;border:14px solid red;"">","null","","","","","","","","","",""
"","image-keyboard-response","237","140370","0.0-237.0","3FE7TXL1LJ96YUPOU02BNM98DWCQ2S","A8KX1HFH8NE2Q","382GHPVPHSDM8N0F9141EAH7F0K34Z","","941.1999999880791","img/land3.png","74","942.1000000238419","1","1","3","2","0.8,0.2,0.2,0.2,0.8,0.2,0.2,0.2,0.8","0.8,0.2,0.2,0.2,0.8,0.2,0.2,0.2,0.8","1","",""
"","html-keyboard-response","238","140671","0.0-238.0","3FE7TXL1LJ96YUPOU02BNM98DWCQ2S","A8KX1HFH8NE2Q","382GHPVPHSDM8N0F9141EAH7F0K34Z","","null","<img src=""img/land3.png"" style=""width:200px; border:14px solid green;"">","null","","","","","","","","","",""
"","image-keyboard-response","239","141169","0.0-239.0","3FE7TXL1LJ96YUPOU02BNM98DWCQ2S","A8KX1HFH8NE2Q","382GHPVPHSDM8N0F9141EAH7F0K34Z","","496.60000002384186","img/land3.png","74","497.89999997615814","1","0","3","2","0.8,0.2,0.2,0.2,0.8,0.2,0.2,0.2,0.8","0.8,0.2,0.2,0.2,0.8,0.2,0.2,0.2,0.8","1","",""
"","html-keyboard-response","240","141472","0.0-240.0","3FE7TXL1LJ96YUPOU02BNM98DWCQ2S","A8KX1HFH8NE2Q","382GHPVPHSDM8N0F9141EAH7F0K34Z","","null","<img src=""img/land3.png"" style=""width:200px;border:14px solid red;"">","null","","","","","","","","","",""
"","image-keyboard-response","241","142001","0.0-241.0","3FE7TXL1LJ96YUPOU02BNM98DWCQ2S","A8KX1HFH8NE2Q","382GHPVPHSDM8N0F9141EAH7F0K34Z","","526.5","img/land5.png","74","528.4000000357628","1","1","1","2","0.8,0.2,0.2,0.2,0.8,0.2,0.2,0.2,0.8","0.8,0.2,0.2,0.2,0.8,0.2,0.2,0.2,0.8","1","",""
"","html-keyboard-response","242","142302","0.0-242.0","3FE7TXL1LJ96YUPOU02BNM98DWCQ2S","A8KX1HFH8NE2Q","382GHPVPHSDM8N0F9141EAH7F0K34Z","","null","<img src=""img/land5.png"" style=""width:200px; border:14px solid green;"">","null","","","","","","","","","",""
"","image-keyboard-response","243","143021","0.0-243.0","3FE7TXL1LJ96YUPOU02BNM98DWCQ2S","A8KX1HFH8NE2Q","382GHPVPHSDM8N0F9141EAH7F0K34Z","","716.5999999642372","img/land5.png","74","718","1","1","1","2","0.8,0.2,0.2,0.2,0.8,0.2,0.2,0.2,0.8","0.8,0.2,0.2,0.2,0.8,0.2,0.2,0.2,0.8","1","",""
"","html-keyboard-response","244","143324","0.0-244.0","3FE7TXL1LJ96YUPOU02BNM98DWCQ2S","A8KX1HFH8NE2Q","382GHPVPHSDM8N0F9141EAH7F0K34Z","","null","<img src=""img/land5.png"" style=""width:200px; border:14px solid green;"">","null","","","","","","","","","",""
"","image-keyboard-response","245","144046","0.0-245.0","3FE7TXL1LJ96YUPOU02BNM98DWCQ2S","A8KX1HFH8NE2Q","382GHPVPHSDM8N0F9141EAH7F0K34Z","","720.1999999880791","img/land3.png","74","721.6000000238419","1","0","3","2","0.8,0.2,0.2,0.2,0.8,0.2,0.2,0.2,0.8","0.8,0.2,0.2,0.2,0.8,0.2,0.2,0.2,0.8","1","",""
"","html-keyboard-response","246","144348","0.0-246.0","3FE7TXL1LJ96YUPOU02BNM98DWCQ2S","A8KX1HFH8NE2Q","382GHPVPHSDM8N0F9141EAH7F0K34Z","","null","<img src=""img/land3.png"" style=""width:200px;border:14px solid red;"">","null","","","","","","","","","",""
"","image-keyboard-response","247","145209","0.0-247.0","3FE7TXL1LJ96YUPOU02BNM98DWCQ2S","A8KX1HFH8NE2Q","382GHPVPHSDM8N0F9141EAH7F0K34Z","","860.0999999642372","img/land4.png","76","860.9000000357628","3","0","2","2","0.8,0.2,0.2,0.2,0.8,0.2,0.2,0.2,0.8","0.8,0.2,0.2,0.2,0.8,0.2,0.2,0.2,0.8","1","",""
"","html-keyboard-response","248","145512","0.0-248.0","3FE7TXL1LJ96YUPOU02BNM98DWCQ2S","A8KX1HFH8NE2Q","382GHPVPHSDM8N0F9141EAH7F0K34Z","","null","<img src=""img/land4.png"" style=""width:200px;border:14px solid red;"">","null","","","","","","","","","",""
"","image-keyboard-response","249","145901","0.0-249.0","3FE7TXL1LJ96YUPOU02BNM98DWCQ2S","A8KX1HFH8NE2Q","382GHPVPHSDM8N0F9141EAH7F0K34Z","","386.60000002384186","img/land4.png","76","388.5","3","0","2","2","0.8,0.2,0.2,0.2,0.8,0.2,0.2,0.2,0.8","0.8,0.2,0.2,0.2,0.8,0.2,0.2,0.2,0.8","1","",""
"","html-keyboard-response","250","146204","0.0-250.0","3FE7TXL1LJ96YUPOU02BNM98DWCQ2S","A8KX1HFH8NE2Q","382GHPVPHSDM8N0F9141EAH7F0K34Z","","null","<img src=""img/land4.png"" style=""width:200px;border:14px solid red;"">","null","","","","","","","","","",""
"","image-keyboard-response","251","146789","0.0-251.0","3FE7TXL1LJ96YUPOU02BNM98DWCQ2S","A8KX1HFH8NE2Q","382GHPVPHSDM8N0F9141EAH7F0K34Z","","583.7000000476837","img/land5.png","74","585.1999999880791","1","1","1","2","0.8,0.2,0.2,0.2,0.8,0.2,0.2,0.2,0.8","0.8,0.2,0.2,0.2,0.8,0.2,0.2,0.2,0.8","1","",""
"","html-keyboard-response","252","147092","0.0-252.0","3FE7TXL1LJ96YUPOU02BNM98DWCQ2S","A8KX1HFH8NE2Q","382GHPVPHSDM8N0F9141EAH7F0K34Z","","null","<img src=""img/land5.png"" style=""width:200px; border:14px solid green;"">","null","","","","","","","","","",""
"","image-keyboard-response","253","147490","0.0-253.0","3FE7TXL1LJ96YUPOU02BNM98DWCQ2S","A8KX1HFH8NE2Q","382GHPVPHSDM8N0F9141EAH7F0K34Z","","395.5","img/land5.png","74","397.2000000476837","1","1","1","2","0.8,0.2,0.2,0.2,0.8,0.2,0.2,0.2,0.8","0.8,0.2,0.2,0.2,0.8,0.2,0.2,0.2,0.8","1","",""
"","html-keyboard-response","254","147793","0.0-254.0","3FE7TXL1LJ96YUPOU02BNM98DWCQ2S","A8KX1HFH8NE2Q","382GHPVPHSDM8N0F9141EAH7F0K34Z","","null","<img src=""img/land5.png"" style=""width:200px; border:14px solid green;"">","null","","","","","","","","","",""
"","image-keyboard-response","255","148178","0.0-255.0","3FE7TXL1LJ96YUPOU02BNM98DWCQ2S","A8KX1HFH8NE2Q","382GHPVPHSDM8N0F9141EAH7F0K34Z","","382.30000001192093","img/land5.png","74","383.69999998807907","1","1","1","2","0.8,0.2,0.2,0.2,0.8,0.2,0.2,0.2,0.8","0.8,0.2,0.2,0.2,0.8,0.2,0.2,0.2,0.8","1","",""
"","html-keyboard-response","256","148479","0.0-256.0","3FE7TXL1LJ96YUPOU02BNM98DWCQ2S","A8KX1HFH8NE2Q","382GHPVPHSDM8N0F9141EAH7F0K34Z","","null","<img src=""img/land5.png"" style=""width:200px; border:14px solid green;"">","null","","","","","","","","","",""
"","image-keyboard-response","257","148851","0.0-257.0","3FE7TXL1LJ96YUPOU02BNM98DWCQ2S","A8KX1HFH8NE2Q","382GHPVPHSDM8N0F9141EAH7F0K34Z","","370.30000001192093","img/land5.png","74","371.30000001192093","1","1","1","2","0.8,0.2,0.2,0.2,0.8,0.2,0.2,0.2,0.8","0.8,0.2,0.2,0.2,0.8,0.2,0.2,0.2,0.8","1","",""
"","html-keyboard-response","258","149154","0.0-258.0","3FE7TXL1LJ96YUPOU02BNM98DWCQ2S","A8KX1HFH8NE2Q","382GHPVPHSDM8N0F9141EAH7F0K34Z","","null","<img src=""img/land5.png"" style=""width:200px; border:14px solid green;"">","null","","","","","","","","","",""
"","image-keyboard-response","259","149549","0.0-259.0","3FE7TXL1LJ96YUPOU02BNM98DWCQ2S","A8KX1HFH8NE2Q","382GHPVPHSDM8N0F9141EAH7F0K34Z","","393.19999998807907","img/land5.png","74","394.5","1","1","1","2","0.8,0.2,0.2,0.2,0.8,0.2,0.2,0.2,0.8","0.8,0.2,0.2,0.2,0.8,0.2,0.2,0.2,0.8","1","",""
"","html-keyboard-response","260","149852","0.0-260.0","3FE7TXL1LJ96YUPOU02BNM98DWCQ2S","A8KX1HFH8NE2Q","382GHPVPHSDM8N0F9141EAH7F0K34Z","","null","<img src=""img/land5.png"" style=""width:200px; border:14px solid green;"">","null","","","","","","","","","",""
"","image-keyboard-response","261","150833","0.0-261.0","3FE7TXL1LJ96YUPOU02BNM98DWCQ2S","A8KX1HFH8NE2Q","382GHPVPHSDM8N0F9141EAH7F0K34Z","","980","img/land4.png","76","981.1999999880791","3","0","2","2","0.8,0.2,0.2,0.2,0.8,0.2,0.2,0.2,0.8","0.8,0.2,0.2,0.2,0.8,0.2,0.2,0.2,0.8","1","",""
"","html-keyboard-response","262","151135","0.0-262.0","3FE7TXL1LJ96YUPOU02BNM98DWCQ2S","A8KX1HFH8NE2Q","382GHPVPHSDM8N0F9141EAH7F0K34Z","","null","<img src=""img/land4.png"" style=""width:200px;border:14px solid red;"">","null","","","","","","","","","",""
"","image-keyboard-response","263","152075","0.0-263.0","3FE7TXL1LJ96YUPOU02BNM98DWCQ2S","A8KX1HFH8NE2Q","382GHPVPHSDM8N0F9141EAH7F0K34Z","","938.5999999642372","img/land5.png","74","940","1","1","1","2","0.8,0.2,0.2,0.2,0.8,0.2,0.2,0.2,0.8","0.8,0.2,0.2,0.2,0.8,0.2,0.2,0.2,0.8","1","",""
"","html-keyboard-response","264","152379","0.0-264.0","3FE7TXL1LJ96YUPOU02BNM98DWCQ2S","A8KX1HFH8NE2Q","382GHPVPHSDM8N0F9141EAH7F0K34Z","","null","<img src=""img/land5.png"" style=""width:200px; border:14px solid green;"">","null","","","","","","","","","",""
"","image-keyboard-response","265","152878","0.0-265.0","3FE7TXL1LJ96YUPOU02BNM98DWCQ2S","A8KX1HFH8NE2Q","382GHPVPHSDM8N0F9141EAH7F0K34Z","","496.69999998807907","img/land4.png","75","498.5","2","1","2","2","0.8,0.2,0.2,0.2,0.8,0.2,0.2,0.2,0.8","0.8,0.2,0.2,0.2,0.8,0.2,0.2,0.2,0.8","1","",""
"","html-keyboard-response","266","153182","0.0-266.0","3FE7TXL1LJ96YUPOU02BNM98DWCQ2S","A8KX1HFH8NE2Q","382GHPVPHSDM8N0F9141EAH7F0K34Z","","null","<img src=""img/land4.png"" style=""width:200px; border:14px solid green;"">","null","","","","","","","","","",""
"","image-keyboard-response","267","153529","0.0-267.0","3FE7TXL1LJ96YUPOU02BNM98DWCQ2S","A8KX1HFH8NE2Q","382GHPVPHSDM8N0F9141EAH7F0K34Z","","344.60000002384186","img/land4.png","75","346.89999997615814","2","0","2","2","0.8,0.2,0.2,0.2,0.8,0.2,0.2,0.2,0.8","0.8,0.2,0.2,0.2,0.8,0.2,0.2,0.2,0.8","1","",""
"","html-keyboard-response","268","153832","0.0-268.0","3FE7TXL1LJ96YUPOU02BNM98DWCQ2S","A8KX1HFH8NE2Q","382GHPVPHSDM8N0F9141EAH7F0K34Z","","null","<img src=""img/land4.png"" style=""width:200px;border:14px solid red;"">","null","","","","","","","","","",""
"","image-keyboard-response","269","154609","0.0-269.0","3FE7TXL1LJ96YUPOU02BNM98DWCQ2S","A8KX1HFH8NE2Q","382GHPVPHSDM8N0F9141EAH7F0K34Z","","774.2000000476837","img/land5.png","74","775.8999999761581","1","1","1","2","0.8,0.2,0.2,0.2,0.8,0.2,0.2,0.2,0.8","0.8,0.2,0.2,0.2,0.8,0.2,0.2,0.2,0.8","1","",""
"","html-keyboard-response","270","154911","0.0-270.0","3FE7TXL1LJ96YUPOU02BNM98DWCQ2S","A8KX1HFH8NE2Q","382GHPVPHSDM8N0F9141EAH7F0K34Z","","null","<img src=""img/land5.png"" style=""width:200px; border:14px solid green;"">","null","","","","","","","","","",""
"","image-keyboard-response","271","155282","0.0-271.0","3FE7TXL1LJ96YUPOU02BNM98DWCQ2S","A8KX1HFH8NE2Q","382GHPVPHSDM8N0F9141EAH7F0K34Z","","370.10000002384186","img/land5.png","74","370.9000000357628","1","1","1","2","0.8,0.2,0.2,0.2,0.8,0.2,0.2,0.2,0.8","0.8,0.2,0.2,0.2,0.8,0.2,0.2,0.2,0.8","1","",""
"","html-keyboard-response","272","155584","0.0-272.0","3FE7TXL1LJ96YUPOU02BNM98DWCQ2S","A8KX1HFH8NE2Q","382GHPVPHSDM8N0F9141EAH7F0K34Z","","null","<img src=""img/land5.png"" style=""width:200px; border:14px solid green;"">","null","","","","","","","","","",""
"","image-keyboard-response","273","155996","0.0-273.0","3FE7TXL1LJ96YUPOU02BNM98DWCQ2S","A8KX1HFH8NE2Q","382GHPVPHSDM8N0F9141EAH7F0K34Z","","409.69999998807907","img/land5.png","74","411.5999999642372","1","1","1","2","0.8,0.2,0.2,0.2,0.8,0.2,0.2,0.2,0.8","0.8,0.2,0.2,0.2,0.8,0.2,0.2,0.2,0.8","1","",""
"","html-keyboard-response","274","156298","0.0-274.0","3FE7TXL1LJ96YUPOU02BNM98DWCQ2S","A8KX1HFH8NE2Q","382GHPVPHSDM8N0F9141EAH7F0K34Z","","null","<img src=""img/land5.png"" style=""width:200px; border:14px solid green;"">","null","","","","","","","","","",""
"","image-keyboard-response","275","156762","0.0-275.0","3FE7TXL1LJ96YUPOU02BNM98DWCQ2S","A8KX1HFH8NE2Q","382GHPVPHSDM8N0F9141EAH7F0K34Z","","462.5","img/land4.png","75","463.5","2","1","2","2","0.8,0.2,0.2,0.2,0.8,0.2,0.2,0.2,0.8","0.8,0.2,0.2,0.2,0.8,0.2,0.2,0.2,0.8","1","",""
"","html-keyboard-response","276","157065","0.0-276.0","3FE7TXL1LJ96YUPOU02BNM98DWCQ2S","A8KX1HFH8NE2Q","382GHPVPHSDM8N0F9141EAH7F0K34Z","","null","<img src=""img/land4.png"" style=""width:200px; border:14px solid green;"">","null","","","","","","","","","",""
"","image-keyboard-response","277","157842","0.0-277.0","3FE7TXL1LJ96YUPOU02BNM98DWCQ2S","A8KX1HFH8NE2Q","382GHPVPHSDM8N0F9141EAH7F0K34Z","","774.3000000119209","img/land3.png","74","776","1","0","3","2","0.8,0.2,0.2,0.2,0.8,0.2,0.2,0.2,0.8","0.8,0.2,0.2,0.2,0.8,0.2,0.2,0.2,0.8","1","",""
"","html-keyboard-response","278","158144","0.0-278.0","3FE7TXL1LJ96YUPOU02BNM98DWCQ2S","A8KX1HFH8NE2Q","382GHPVPHSDM8N0F9141EAH7F0K34Z","","null","<img src=""img/land3.png"" style=""width:200px;border:14px solid red;"">","null","","","","","","","","","",""
"","image-keyboard-response","279","158941","0.0-279.0","3FE7TXL1LJ96YUPOU02BNM98DWCQ2S","A8KX1HFH8NE2Q","382GHPVPHSDM8N0F9141EAH7F0K34Z","","796","img/land5.png","74","797","1","1","1","2","0.8,0.2,0.2,0.2,0.8,0.2,0.2,0.2,0.8","0.8,0.2,0.2,0.2,0.8,0.2,0.2,0.2,0.8","1","",""
"","html-keyboard-response","280","159243","0.0-280.0","3FE7TXL1LJ96YUPOU02BNM98DWCQ2S","A8KX1HFH8NE2Q","382GHPVPHSDM8N0F9141EAH7F0K34Z","","null","<img src=""img/land5.png"" style=""width:200px; border:14px solid green;"">","null","","","","","","","","","",""
"","image-keyboard-response","281","159662","0.0-281.0","3FE7TXL1LJ96YUPOU02BNM98DWCQ2S","A8KX1HFH8NE2Q","382GHPVPHSDM8N0F9141EAH7F0K34Z","","418.2999999523163","img/land5.png","74","419.5","1","1","1","2","0.8,0.2,0.2,0.2,0.8,0.2,0.2,0.2,0.8","0.8,0.2,0.2,0.2,0.8,0.2,0.2,0.2,0.8","1","",""
"","html-keyboard-response","282","159965","0.0-282.0","3FE7TXL1LJ96YUPOU02BNM98DWCQ2S","A8KX1HFH8NE2Q","382GHPVPHSDM8N0F9141EAH7F0K34Z","","null","<img src=""img/land5.png"" style=""width:200px; border:14px solid green;"">","null","","","","","","","","","",""
"","image-keyboard-response","283","160320","0.0-283.0","3FE7TXL1LJ96YUPOU02BNM98DWCQ2S","A8KX1HFH8NE2Q","382GHPVPHSDM8N0F9141EAH7F0K34Z","","353.80000001192093","img/land5.png","74","354.69999998807907","1","0","1","2","0.8,0.2,0.2,0.2,0.8,0.2,0.2,0.2,0.8","0.8,0.2,0.2,0.2,0.8,0.2,0.2,0.2,0.8","1","",""
"","html-keyboard-response","284","160622","0.0-284.0","3FE7TXL1LJ96YUPOU02BNM98DWCQ2S","A8KX1HFH8NE2Q","382GHPVPHSDM8N0F9141EAH7F0K34Z","","null","<img src=""img/land5.png"" style=""width:200px;border:14px solid red;"">","null","","","","","","","","","",""
"","image-keyboard-response","285","161016","0.0-285.0","3FE7TXL1LJ96YUPOU02BNM98DWCQ2S","A8KX1HFH8NE2Q","382GHPVPHSDM8N0F9141EAH7F0K34Z","","394.0999999642372","img/land5.png","74","394.9000000357628","1","1","1","2","0.8,0.2,0.2,0.2,0.8,0.2,0.2,0.2,0.8","0.8,0.2,0.2,0.2,0.8,0.2,0.2,0.2,0.8","1","",""
"","html-keyboard-response","286","161318","0.0-286.0","3FE7TXL1LJ96YUPOU02BNM98DWCQ2S","A8KX1HFH8NE2Q","382GHPVPHSDM8N0F9141EAH7F0K34Z","","null","<img src=""img/land5.png"" style=""width:200px; border:14px solid green;"">","null","","","","","","","","","",""
"","image-keyboard-response","287","162013","0.0-287.0","3FE7TXL1LJ96YUPOU02BNM98DWCQ2S","A8KX1HFH8NE2Q","382GHPVPHSDM8N0F9141EAH7F0K34Z","","694","img/land4.png","75","694.8000000119209","2","1","2","2","0.8,0.2,0.2,0.2,0.8,0.2,0.2,0.2,0.8","0.8,0.2,0.2,0.2,0.8,0.2,0.2,0.2,0.8","1","",""
"","html-keyboard-response","288","162315","0.0-288.0","3FE7TXL1LJ96YUPOU02BNM98DWCQ2S","A8KX1HFH8NE2Q","382GHPVPHSDM8N0F9141EAH7F0K34Z","","null","<img src=""img/land4.png"" style=""width:200px; border:14px solid green;"">","null","","","","","","","","","",""
"","image-keyboard-response","289","163306","0.0-289.0","3FE7TXL1LJ96YUPOU02BNM98DWCQ2S","A8KX1HFH8NE2Q","382GHPVPHSDM8N0F9141EAH7F0K34Z","","988.5999999642372","img/land5.png","74","990.3000000119209","1","1","1","2","0.8,0.2,0.2,0.2,0.8,0.2,0.2,0.2,0.8","0.8,0.2,0.2,0.2,0.8,0.2,0.2,0.2,0.8","1","",""
"","html-keyboard-response","290","163608","0.0-290.0","3FE7TXL1LJ96YUPOU02BNM98DWCQ2S","A8KX1HFH8NE2Q","382GHPVPHSDM8N0F9141EAH7F0K34Z","","null","<img src=""img/land5.png"" style=""width:200px; border:14px solid green;"">","null","","","","","","","","","",""
"","image-keyboard-response","291","163896","0.0-291.0","3FE7TXL1LJ96YUPOU02BNM98DWCQ2S","A8KX1HFH8NE2Q","382GHPVPHSDM8N0F9141EAH7F0K34Z","","285.5","img/land5.png","74","287.2000000476837","1","1","1","2","0.8,0.2,0.2,0.2,0.8,0.2,0.2,0.2,0.8","0.8,0.2,0.2,0.2,0.8,0.2,0.2,0.2,0.8","1","",""
"","html-keyboard-response","292","164198","0.0-292.0","3FE7TXL1LJ96YUPOU02BNM98DWCQ2S","A8KX1HFH8NE2Q","382GHPVPHSDM8N0F9141EAH7F0K34Z","","null","<img src=""img/land5.png"" style=""width:200px; border:14px solid green;"">","null","","","","","","","","","",""
"","image-keyboard-response","293","164504","0.0-293.0","3FE7TXL1LJ96YUPOU02BNM98DWCQ2S","A8KX1HFH8NE2Q","382GHPVPHSDM8N0F9141EAH7F0K34Z","","304.4000000357628","img/land5.png","74","305.5","1","1","1","2","0.8,0.2,0.2,0.2,0.8,0.2,0.2,0.2,0.8","0.8,0.2,0.2,0.2,0.8,0.2,0.2,0.2,0.8","1","",""
"","html-keyboard-response","294","164806","0.0-294.0","3FE7TXL1LJ96YUPOU02BNM98DWCQ2S","A8KX1HFH8NE2Q","382GHPVPHSDM8N0F9141EAH7F0K34Z","","null","<img src=""img/land5.png"" style=""width:200px; border:14px solid green;"">","null","","","","","","","","","",""
"","image-keyboard-response","295","165516","0.0-295.0","3FE7TXL1LJ96YUPOU02BNM98DWCQ2S","A8KX1HFH8NE2Q","382GHPVPHSDM8N0F9141EAH7F0K34Z","","708.1999999880791","img/land4.png","75","709.5","2","1","2","2","0.8,0.2,0.2,0.2,0.8,0.2,0.2,0.2,0.8","0.8,0.2,0.2,0.2,0.8,0.2,0.2,0.2,0.8","1","",""
"","html-keyboard-response","296","165820","0.0-296.0","3FE7TXL1LJ96YUPOU02BNM98DWCQ2S","A8KX1HFH8NE2Q","382GHPVPHSDM8N0F9141EAH7F0K34Z","","null","<img src=""img/land4.png"" style=""width:200px; border:14px solid green;"">","null","","","","","","","","","",""
"","image-keyboard-response","297","166487","0.0-297.0","3FE7TXL1LJ96YUPOU02BNM98DWCQ2S","A8KX1HFH8NE2Q","382GHPVPHSDM8N0F9141EAH7F0K34Z","","666.1999999880791","img/land5.png","74","667.2000000476837","1","1","1","2","0.8,0.2,0.2,0.2,0.8,0.2,0.2,0.2,0.8","0.8,0.2,0.2,0.2,0.8,0.2,0.2,0.2,0.8","1","",""
"","html-keyboard-response","298","166789","0.0-298.0","3FE7TXL1LJ96YUPOU02BNM98DWCQ2S","A8KX1HFH8NE2Q","382GHPVPHSDM8N0F9141EAH7F0K34Z","","null","<img src=""img/land5.png"" style=""width:200px; border:14px solid green;"">","null","","","","","","","","","",""
"","image-keyboard-response","299","167380","0.0-299.0","3FE7TXL1LJ96YUPOU02BNM98DWCQ2S","A8KX1HFH8NE2Q","382GHPVPHSDM8N0F9141EAH7F0K34Z","","590.1999999880791","img/land4.png","75","590.8999999761581","2","1","2","2","0.8,0.2,0.2,0.2,0.8,0.2,0.2,0.2,0.8","0.8,0.2,0.2,0.2,0.8,0.2,0.2,0.2,0.8","1","",""
"","html-keyboard-response","300","167682","0.0-300.0","3FE7TXL1LJ96YUPOU02BNM98DWCQ2S","A8KX1HFH8NE2Q","382GHPVPHSDM8N0F9141EAH7F0K34Z","","null","<img src=""img/land4.png"" style=""width:200px; border:14px solid green;"">","null","","","","","","","","","",""
"","image-keyboard-response","301","168218","0.0-301.0","3FE7TXL1LJ96YUPOU02BNM98DWCQ2S","A8KX1HFH8NE2Q","382GHPVPHSDM8N0F9141EAH7F0K34Z","","534.8999999761581","img/land5.png","74","536.3000000119209","1","1","1","2","0.8,0.2,0.2,0.2,0.8,0.2,0.2,0.2,0.8","0.8,0.2,0.2,0.2,0.8,0.2,0.2,0.2,0.8","1","",""
"","html-keyboard-response","302","168522","0.0-302.0","3FE7TXL1LJ96YUPOU02BNM98DWCQ2S","A8KX1HFH8NE2Q","382GHPVPHSDM8N0F9141EAH7F0K34Z","","null","<img src=""img/land5.png"" style=""width:200px; border:14px solid green;"">","null","","","","","","","","","",""
"","image-keyboard-response","303","169091","0.0-303.0","3FE7TXL1LJ96YUPOU02BNM98DWCQ2S","A8KX1HFH8NE2Q","382GHPVPHSDM8N0F9141EAH7F0K34Z","","566.8999999761581","img/land5.png","74","568.5","1","1","1","2","0.8,0.2,0.2,0.2,0.8,0.2,0.2,0.2,0.8","0.8,0.2,0.2,0.2,0.8,0.2,0.2,0.2,0.8","1","",""
"","html-keyboard-response","304","169398","0.0-304.0","3FE7TXL1LJ96YUPOU02BNM98DWCQ2S","A8KX1HFH8NE2Q","382GHPVPHSDM8N0F9141EAH7F0K34Z","","null","<img src=""img/land5.png"" style=""width:200px; border:14px solid green;"">","null","","","","","","","","","",""
"","image-keyboard-response","305","169745","0.0-305.0","3FE7TXL1LJ96YUPOU02BNM98DWCQ2S","A8KX1HFH8NE2Q","382GHPVPHSDM8N0F9141EAH7F0K34Z","","345.5999999642372","img/land5.png","74","347","1","0","1","2","0.8,0.2,0.2,0.2,0.8,0.2,0.2,0.2,0.8","0.8,0.2,0.2,0.2,0.8,0.2,0.2,0.2,0.8","1","",""
"","html-keyboard-response","306","170048","0.0-306.0","3FE7TXL1LJ96YUPOU02BNM98DWCQ2S","A8KX1HFH8NE2Q","382GHPVPHSDM8N0F9141EAH7F0K34Z","","null","<img src=""img/land5.png"" style=""width:200px;border:14px solid red;"">","null","","","","","","","","","",""
"","image-keyboard-response","307","170524","0.0-307.0","3FE7TXL1LJ96YUPOU02BNM98DWCQ2S","A8KX1HFH8NE2Q","382GHPVPHSDM8N0F9141EAH7F0K34Z","","473.39999997615814","img/land5.png","74","475","1","1","1","2","0.8,0.2,0.2,0.2,0.8,0.2,0.2,0.2,0.8","0.8,0.2,0.2,0.2,0.8,0.2,0.2,0.2,0.8","1","",""
"","html-keyboard-response","308","170826","0.0-308.0","3FE7TXL1LJ96YUPOU02BNM98DWCQ2S","A8KX1HFH8NE2Q","382GHPVPHSDM8N0F9141EAH7F0K34Z","","null","<img src=""img/land5.png"" style=""width:200px; border:14px solid green;"">","null","","","","","","","","","",""
"","image-keyboard-response","309","171186","0.0-309.0","3FE7TXL1LJ96YUPOU02BNM98DWCQ2S","A8KX1HFH8NE2Q","382GHPVPHSDM8N0F9141EAH7F0K34Z","","356.5","img/land5.png","74","364.7999999523163","1","1","1","2","0.8,0.2,0.2,0.2,0.8,0.2,0.2,0.2,0.8","0.8,0.2,0.2,0.2,0.8,0.2,0.2,0.2,0.8","1","",""
"","html-keyboard-response","310","171494","0.0-310.0","3FE7TXL1LJ96YUPOU02BNM98DWCQ2S","A8KX1HFH8NE2Q","382GHPVPHSDM8N0F9141EAH7F0K34Z","","null","<img src=""img/land5.png"" style=""width:200px; border:14px solid green;"">","null","","","","","","","","","",""
"","image-keyboard-response","311","171832","0.0-311.0","3FE7TXL1LJ96YUPOU02BNM98DWCQ2S","A8KX1HFH8NE2Q","382GHPVPHSDM8N0F9141EAH7F0K34Z","","337.30000001192093","img/land5.png","74","338.5","1","1","1","2","0.8,0.2,0.2,0.2,0.8,0.2,0.2,0.2,0.8","0.8,0.2,0.2,0.2,0.8,0.2,0.2,0.2,0.8","1","",""
"","html-keyboard-response","312","172135","0.0-312.0","3FE7TXL1LJ96YUPOU02BNM98DWCQ2S","A8KX1HFH8NE2Q","382GHPVPHSDM8N0F9141EAH7F0K34Z","","null","<img src=""img/land5.png"" style=""width:200px; border:14px solid green;"">","null","","","","","","","","","",""
"","image-keyboard-response","313","172735","0.0-313.0","3FE7TXL1LJ96YUPOU02BNM98DWCQ2S","A8KX1HFH8NE2Q","382GHPVPHSDM8N0F9141EAH7F0K34Z","","599.1000000238419","img/land3.png","74","600.1000000238419","1","0","3","2","0.8,0.2,0.2,0.2,0.8,0.2,0.2,0.2,0.8","0.8,0.2,0.2,0.2,0.8,0.2,0.2,0.2,0.8","1","",""
"","html-keyboard-response","314","173038","0.0-314.0","3FE7TXL1LJ96YUPOU02BNM98DWCQ2S","A8KX1HFH8NE2Q","382GHPVPHSDM8N0F9141EAH7F0K34Z","","null","<img src=""img/land3.png"" style=""width:200px;border:14px solid red;"">","null","","","","","","","","","",""
"","image-keyboard-response","315","173393","0.0-315.0","3FE7TXL1LJ96YUPOU02BNM98DWCQ2S","A8KX1HFH8NE2Q","382GHPVPHSDM8N0F9141EAH7F0K34Z","","352.0999999642372","img/land3.png","74","354","1","0","3","2","0.8,0.2,0.2,0.2,0.8,0.2,0.2,0.2,0.8","0.8,0.2,0.2,0.2,0.8,0.2,0.2,0.2,0.8","1","",""
"","html-keyboard-response","316","173695","0.0-316.0","3FE7TXL1LJ96YUPOU02BNM98DWCQ2S","A8KX1HFH8NE2Q","382GHPVPHSDM8N0F9141EAH7F0K34Z","","null","<img src=""img/land3.png"" style=""width:200px;border:14px solid red;"">","null","","","","","","","","","",""
"","image-keyboard-response","317","174919","0.0-317.0","3FE7TXL1LJ96YUPOU02BNM98DWCQ2S","A8KX1HFH8NE2Q","382GHPVPHSDM8N0F9141EAH7F0K34Z","","1221.199999988079","img/land5.png","74","1223","1","1","1","2","0.8,0.2,0.2,0.2,0.8,0.2,0.2,0.2,0.8","0.8,0.2,0.2,0.2,0.8,0.2,0.2,0.2,0.8","1","",""
"","html-keyboard-response","318","175221","0.0-318.0","3FE7TXL1LJ96YUPOU02BNM98DWCQ2S","A8KX1HFH8NE2Q","382GHPVPHSDM8N0F9141EAH7F0K34Z","","null","<img src=""img/land5.png"" style=""width:200px; border:14px solid green;"">","null","","","","","","","","","",""
"","image-keyboard-response","319","175923","0.0-319.0","3FE7TXL1LJ96YUPOU02BNM98DWCQ2S","A8KX1HFH8NE2Q","382GHPVPHSDM8N0F9141EAH7F0K34Z","","700.2999999523163","img/land3.png","74","701.1999999880791","1","0","3","2","0.8,0.2,0.2,0.2,0.8,0.2,0.2,0.2,0.8","0.8,0.2,0.2,0.2,0.8,0.2,0.2,0.2,0.8","1","",""
"","html-keyboard-response","320","176224","0.0-320.0","3FE7TXL1LJ96YUPOU02BNM98DWCQ2S","A8KX1HFH8NE2Q","382GHPVPHSDM8N0F9141EAH7F0K34Z","","null","<img src=""img/land3.png"" style=""width:200px;border:14px solid red;"">","null","","","","","","","","","",""
"","image-keyboard-response","321","177185","0.0-321.0","3FE7TXL1LJ96YUPOU02BNM98DWCQ2S","A8KX1HFH8NE2Q","382GHPVPHSDM8N0F9141EAH7F0K34Z","","960.3000000119209","img/land5.png","74","961.1000000238419","1","0","1","2","0.8,0.2,0.2,0.2,0.8,0.2,0.2,0.2,0.8","0.8,0.2,0.2,0.2,0.8,0.2,0.2,0.2,0.8","1","",""
"","html-keyboard-response","322","177486","0.0-322.0","3FE7TXL1LJ96YUPOU02BNM98DWCQ2S","A8KX1HFH8NE2Q","382GHPVPHSDM8N0F9141EAH7F0K34Z","","null","<img src=""img/land5.png"" style=""width:200px;border:14px solid red;"">","null","","","","","","","","","",""
"","image-keyboard-response","323","178680","0.0-323.0","3FE7TXL1LJ96YUPOU02BNM98DWCQ2S","A8KX1HFH8NE2Q","382GHPVPHSDM8N0F9141EAH7F0K34Z","","1192.6000000238419","img/land3.png","74","1193.800000011921","1","0","3","2","0.8,0.2,0.2,0.2,0.8,0.2,0.2,0.2,0.8","0.8,0.2,0.2,0.2,0.8,0.2,0.2,0.2,0.8","1","",""
"","html-keyboard-response","324","178983","0.0-324.0","3FE7TXL1LJ96YUPOU02BNM98DWCQ2S","A8KX1HFH8NE2Q","382GHPVPHSDM8N0F9141EAH7F0K34Z","","null","<img src=""img/land3.png"" style=""width:200px;border:14px solid red;"">","null","","","","","","","","","",""
"","image-keyboard-response","325","179468","0.0-325.0","3FE7TXL1LJ96YUPOU02BNM98DWCQ2S","A8KX1HFH8NE2Q","382GHPVPHSDM8N0F9141EAH7F0K34Z","","481.89999997615814","img/land3.png","74","483.5999999642372","1","0","3","2","0.8,0.2,0.2,0.2,0.8,0.2,0.2,0.2,0.8","0.8,0.2,0.2,0.2,0.8,0.2,0.2,0.2,0.8","1","",""
"","html-keyboard-response","326","179771","0.0-326.0","3FE7TXL1LJ96YUPOU02BNM98DWCQ2S","A8KX1HFH8NE2Q","382GHPVPHSDM8N0F9141EAH7F0K34Z","","null","<img src=""img/land3.png"" style=""width:200px;border:14px solid red;"">","null","","","","","","","","","",""
"","image-keyboard-response","327","180813","0.0-327.0","3FE7TXL1LJ96YUPOU02BNM98DWCQ2S","A8KX1HFH8NE2Q","382GHPVPHSDM8N0F9141EAH7F0K34Z","","1040.5","img/land5.png","74","1042.199999988079","1","0","1","2","0.8,0.2,0.2,0.2,0.8,0.2,0.2,0.2,0.8","0.8,0.2,0.2,0.2,0.8,0.2,0.2,0.2,0.8","1","",""
"","html-keyboard-response","328","181118","0.0-328.0","3FE7TXL1LJ96YUPOU02BNM98DWCQ2S","A8KX1HFH8NE2Q","382GHPVPHSDM8N0F9141EAH7F0K34Z","","null","<img src=""img/land5.png"" style=""width:200px;border:14px solid red;"">","null","","","","","","","","","",""
"","image-keyboard-response","329","182004","0.0-329.0","3FE7TXL1LJ96YUPOU02BNM98DWCQ2S","A8KX1HFH8NE2Q","382GHPVPHSDM8N0F9141EAH7F0K34Z","","879.5","img/land3.png","75","883.8999999761581","2","0","3","2","0.8,0.2,0.2,0.2,0.8,0.2,0.2,0.2,0.8","0.8,0.2,0.2,0.2,0.8,0.2,0.2,0.2,0.8","1","",""
"","html-keyboard-response","330","182307","0.0-330.0","3FE7TXL1LJ96YUPOU02BNM98DWCQ2S","A8KX1HFH8NE2Q","382GHPVPHSDM8N0F9141EAH7F0K34Z","","null","<img src=""img/land3.png"" style=""width:200px;border:14px solid red;"">","null","","","","","","","","","",""
"","image-keyboard-response","331","183490","0.0-331.0","3FE7TXL1LJ96YUPOU02BNM98DWCQ2S","A8KX1HFH8NE2Q","382GHPVPHSDM8N0F9141EAH7F0K34Z","","1181.3999999761581","img/land5.png","74","1182.6000000238419","1","1","1","2","0.8,0.2,0.2,0.2,0.8,0.2,0.2,0.2,0.8","0.8,0.2,0.2,0.2,0.8,0.2,0.2,0.2,0.8","1","",""
"","html-keyboard-response","332","183792","0.0-332.0","3FE7TXL1LJ96YUPOU02BNM98DWCQ2S","A8KX1HFH8NE2Q","382GHPVPHSDM8N0F9141EAH7F0K34Z","","null","<img src=""img/land5.png"" style=""width:200px; border:14px solid green;"">","null","","","","","","","","","",""
"","image-keyboard-response","333","184231","0.0-333.0","3FE7TXL1LJ96YUPOU02BNM98DWCQ2S","A8KX1HFH8NE2Q","382GHPVPHSDM8N0F9141EAH7F0K34Z","","437.89999997615814","img/land5.png","74","439.10000002384186","1","1","1","2","0.8,0.2,0.2,0.2,0.8,0.2,0.2,0.2,0.8","0.8,0.2,0.2,0.2,0.8,0.2,0.2,0.2,0.8","1","",""
"","html-keyboard-response","334","184534","0.0-334.0","3FE7TXL1LJ96YUPOU02BNM98DWCQ2S","A8KX1HFH8NE2Q","382GHPVPHSDM8N0F9141EAH7F0K34Z","","null","<img src=""img/land5.png"" style=""width:200px; border:14px solid green;"">","null","","","","","","","","","",""
"","image-keyboard-response","335","184933","0.0-335.0","3FE7TXL1LJ96YUPOU02BNM98DWCQ2S","A8KX1HFH8NE2Q","382GHPVPHSDM8N0F9141EAH7F0K34Z","","397.30000001192093","img/land5.png","74","399","1","0","1","2","0.8,0.2,0.2,0.2,0.8,0.2,0.2,0.2,0.8","0.8,0.2,0.2,0.2,0.8,0.2,0.2,0.2,0.8","1","",""
"","html-keyboard-response","336","185237","0.0-336.0","3FE7TXL1LJ96YUPOU02BNM98DWCQ2S","A8KX1HFH8NE2Q","382GHPVPHSDM8N0F9141EAH7F0K34Z","","null","<img src=""img/land5.png"" style=""width:200px;border:14px solid red;"">","null","","","","","","","","","",""
"","image-keyboard-response","337","185841","0.0-337.0","3FE7TXL1LJ96YUPOU02BNM98DWCQ2S","A8KX1HFH8NE2Q","382GHPVPHSDM8N0F9141EAH7F0K34Z","","603.3000000119209","img/land5.png","74","604.5","1","1","1","2","0.8,0.2,0.2,0.2,0.8,0.2,0.2,0.2,0.8","0.8,0.2,0.2,0.2,0.8,0.2,0.2,0.2,0.8","1","",""
"","html-keyboard-response","338","186144","0.0-338.0","3FE7TXL1LJ96YUPOU02BNM98DWCQ2S","A8KX1HFH8NE2Q","382GHPVPHSDM8N0F9141EAH7F0K34Z","","null","<img src=""img/land5.png"" style=""width:200px; border:14px solid green;"">","null","","","","","","","","","",""
"","image-keyboard-response","339","186968","0.0-339.0","3FE7TXL1LJ96YUPOU02BNM98DWCQ2S","A8KX1HFH8NE2Q","382GHPVPHSDM8N0F9141EAH7F0K34Z","","822.3999999761581","img/land4.png","75","823.8999999761581","2","1","2","2","0.8,0.2,0.2,0.2,0.8,0.2,0.2,0.2,0.8","0.8,0.2,0.2,0.2,0.8,0.2,0.2,0.2,0.8","1","",""
"","html-keyboard-response","340","187271","0.0-340.0","3FE7TXL1LJ96YUPOU02BNM98DWCQ2S","A8KX1HFH8NE2Q","382GHPVPHSDM8N0F9141EAH7F0K34Z","","null","<img src=""img/land4.png"" style=""width:200px; border:14px solid green;"">","null","","","","","","","","","",""
"","image-keyboard-response","341","188038","0.0-341.0","3FE7TXL1LJ96YUPOU02BNM98DWCQ2S","A8KX1HFH8NE2Q","382GHPVPHSDM8N0F9141EAH7F0K34Z","","764.7999999523163","img/land5.png","74","766.8999999761581","1","1","1","2","0.8,0.2,0.2,0.2,0.8,0.2,0.2,0.2,0.8","0.8,0.2,0.2,0.2,0.8,0.2,0.2,0.2,0.8","1","",""
"","html-keyboard-response","342","188342","0.0-342.0","3FE7TXL1LJ96YUPOU02BNM98DWCQ2S","A8KX1HFH8NE2Q","382GHPVPHSDM8N0F9141EAH7F0K34Z","","null","<img src=""img/land5.png"" style=""width:200px; border:14px solid green;"">","null","","","","","","","","","",""
"","image-keyboard-response","343","188669","0.0-343.0","3FE7TXL1LJ96YUPOU02BNM98DWCQ2S","A8KX1HFH8NE2Q","382GHPVPHSDM8N0F9141EAH7F0K34Z","","325.5","img/land5.png","74","327.10000002384186","1","1","1","2","0.8,0.2,0.2,0.2,0.8,0.2,0.2,0.2,0.8","0.8,0.2,0.2,0.2,0.8,0.2,0.2,0.2,0.8","1","",""
"","html-keyboard-response","344","188972","0.0-344.0","3FE7TXL1LJ96YUPOU02BNM98DWCQ2S","A8KX1HFH8NE2Q","382GHPVPHSDM8N0F9141EAH7F0K34Z","","null","<img src=""img/land5.png"" style=""width:200px; border:14px solid green;"">","null","","","","","","","","","",""
"","image-keyboard-response","345","189437","0.0-345.0","3FE7TXL1LJ96YUPOU02BNM98DWCQ2S","A8KX1HFH8NE2Q","382GHPVPHSDM8N0F9141EAH7F0K34Z","","463.19999998807907","img/land5.png","74","465","1","1","1","2","0.8,0.2,0.2,0.2,0.8,0.2,0.2,0.2,0.8","0.8,0.2,0.2,0.2,0.8,0.2,0.2,0.2,0.8","1","",""
"","html-keyboard-response","346","189740","0.0-346.0","3FE7TXL1LJ96YUPOU02BNM98DWCQ2S","A8KX1HFH8NE2Q","382GHPVPHSDM8N0F9141EAH7F0K34Z","","null","<img src=""img/land5.png"" style=""width:200px; border:14px solid green;"">","null","","","","","","","","","",""
"","image-keyboard-response","347","190194","0.0-347.0","3FE7TXL1LJ96YUPOU02BNM98DWCQ2S","A8KX1HFH8NE2Q","382GHPVPHSDM8N0F9141EAH7F0K34Z","","452","img/land5.png","74","453.39999997615814","1","0","1","2","0.8,0.2,0.2,0.2,0.8,0.2,0.2,0.2,0.8","0.8,0.2,0.2,0.2,0.8,0.2,0.2,0.2,0.8","1","",""
"","html-keyboard-response","348","190497","0.0-348.0","3FE7TXL1LJ96YUPOU02BNM98DWCQ2S","A8KX1HFH8NE2Q","382GHPVPHSDM8N0F9141EAH7F0K34Z","","null","<img src=""img/land5.png"" style=""width:200px;border:14px solid red;"">","null","","","","","","","","","",""
"","image-keyboard-response","349","190921","0.0-349.0","3FE7TXL1LJ96YUPOU02BNM98DWCQ2S","A8KX1HFH8NE2Q","382GHPVPHSDM8N0F9141EAH7F0K34Z","","422.5","img/land5.png","75","423.89999997615814","2","0","1","2","0.8,0.2,0.2,0.2,0.8,0.2,0.2,0.2,0.8","0.8,0.2,0.2,0.2,0.8,0.2,0.2,0.2,0.8","1","",""
"","html-keyboard-response","350","191231","0.0-350.0","3FE7TXL1LJ96YUPOU02BNM98DWCQ2S","A8KX1HFH8NE2Q","382GHPVPHSDM8N0F9141EAH7F0K34Z","","null","<img src=""img/land5.png"" style=""width:200px;border:14px solid red;"">","null","","","","","","","","","",""
"","image-keyboard-response","351","191596","0.0-351.0","3FE7TXL1LJ96YUPOU02BNM98DWCQ2S","A8KX1HFH8NE2Q","382GHPVPHSDM8N0F9141EAH7F0K34Z","","363.60000002384186","img/land5.png","74","364.89999997615814","1","1","1","2","0.8,0.2,0.2,0.2,0.8,0.2,0.2,0.2,0.8","0.8,0.2,0.2,0.2,0.8,0.2,0.2,0.2,0.8","1","",""
"","html-keyboard-response","352","191900","0.0-352.0","3FE7TXL1LJ96YUPOU02BNM98DWCQ2S","A8KX1HFH8NE2Q","382GHPVPHSDM8N0F9141EAH7F0K34Z","","null","<img src=""img/land5.png"" style=""width:200px; border:14px solid green;"">","null","","","","","","","","","",""
"","image-keyboard-response","353","192158","0.0-353.0","3FE7TXL1LJ96YUPOU02BNM98DWCQ2S","A8KX1HFH8NE2Q","382GHPVPHSDM8N0F9141EAH7F0K34Z","","256.69999998807907","img/land5.png","74","259.4000000357628","1","1","1","2","0.8,0.2,0.2,0.2,0.8,0.2,0.2,0.2,0.8","0.8,0.2,0.2,0.2,0.8,0.2,0.2,0.2,0.8","1","",""
"","html-keyboard-response","354","192462","0.0-354.0","3FE7TXL1LJ96YUPOU02BNM98DWCQ2S","A8KX1HFH8NE2Q","382GHPVPHSDM8N0F9141EAH7F0K34Z","","null","<img src=""img/land5.png"" style=""width:200px; border:14px solid green;"">","null","","","","","","","","","",""
"","image-keyboard-response","355","192861","0.0-355.0","3FE7TXL1LJ96YUPOU02BNM98DWCQ2S","A8KX1HFH8NE2Q","382GHPVPHSDM8N0F9141EAH7F0K34Z","","396.5","img/land5.png","74","398.39999997615814","1","1","1","2","0.8,0.2,0.2,0.2,0.8,0.2,0.2,0.2,0.8","0.8,0.2,0.2,0.2,0.8,0.2,0.2,0.2,0.8","1","",""
"","html-keyboard-response","356","193164","0.0-356.0","3FE7TXL1LJ96YUPOU02BNM98DWCQ2S","A8KX1HFH8NE2Q","382GHPVPHSDM8N0F9141EAH7F0K34Z","","null","<img src=""img/land5.png"" style=""width:200px; border:14px solid green;"">","null","","","","","","","","","",""
