"success","trial_type","trial_index","time_elapsed","internal_node_id","assignmentID","mturkID","hitID","view_history","rt","stimulus","key_press","reactionTime","a","r","s","cond","reward_cond","reward_cond_actual","reward_matrix_idx","responses","question_order"
"true","fullscreen","0","29346","0.0-0.0","3LBXNTKX0SH17BBZ1NCIRHDFG479XW","A8V0L2YF8U6OX","3566S7OX5D5NH74JOVOPTTMK8IR17K","","","","","","","","","","","","","",""
"","instructions","1","43642","0.0-1.0","3LBXNTKX0SH17BBZ1NCIRHDFG479XW","A8V0L2YF8U6OX","3566S7OX5D5NH74JOVOPTTMK8IR17K","[{""page_index"":0,""viewing_time"":1634.4000000003725},{""page_index"":1,""viewing_time"":889.9000000003725},{""page_index"":2,""viewing_time"":507.69999999925494},{""page_index"":3,""viewing_time"":4506.300000000745},{""page_index"":4,""viewing_time"":2148.199999999255},{""page_index"":5,""viewing_time"":2997.7000000011176},{""page_index"":6,""viewing_time"":1608.2999999988824}]","14293.5","","","","","","","","","","","",""
"","image-keyboard-response","2","45011","0.0-2.0","3LBXNTKX0SH17BBZ1NCIRHDFG479XW","A8V0L2YF8U6OX","3566S7OX5D5NH74JOVOPTTMK8IR17K","","1363.7000000011176","img/land6.png","74","1368.3999999985099","1","1","1","1","0.8,0.2,0.2,0.2,0.8,0.2,0.2,0.2,0.8","0.8,0.2,0.2,0.2,0.8,0.2,0.2,0.2,0.8","1","",""
"","html-keyboard-response","3","45314","0.0-3.0","3LBXNTKX0SH17BBZ1NCIRHDFG479XW","A8V0L2YF8U6OX","3566S7OX5D5NH74JOVOPTTMK8IR17K","","null","<img src=""img/land6.png"" style=""width:200px; border:14px solid green;"">","null","","","","","","","","","",""
"","image-keyboard-response","4","46048","0.0-4.0","3LBXNTKX0SH17BBZ1NCIRHDFG479XW","A8V0L2YF8U6OX","3566S7OX5D5NH74JOVOPTTMK8IR17K","","731.5","img/land4.png","75","732.9000000003725","2","1","2","1","0.8,0.2,0.2,0.2,0.8,0.2,0.2,0.2,0.8","0.8,0.2,0.2,0.2,0.8,0.2,0.2,0.2,0.8","1","",""
"","html-keyboard-response","5","46350","0.0-5.0","3LBXNTKX0SH17BBZ1NCIRHDFG479XW","A8V0L2YF8U6OX","3566S7OX5D5NH74JOVOPTTMK8IR17K","","null","<img src=""img/land4.png"" style=""width:200px; border:14px solid green;"">","null","","","","","","","","","",""
"","image-keyboard-response","6","46794","0.0-6.0","3LBXNTKX0SH17BBZ1NCIRHDFG479XW","A8V0L2YF8U6OX","3566S7OX5D5NH74JOVOPTTMK8IR17K","","442.2000000011176","img/land1.png","76","443.5","3","0","3","1","0.8,0.2,0.2,0.2,0.8,0.2,0.2,0.2,0.8","0.8,0.2,0.2,0.2,0.8,0.2,0.2,0.2,0.8","1","",""
"","html-keyboard-response","7","47096","0.0-7.0","3LBXNTKX0SH17BBZ1NCIRHDFG479XW","A8V0L2YF8U6OX","3566S7OX5D5NH74JOVOPTTMK8IR17K","","null","<img src=""img/land1.png"" style=""width:200px;border:14px solid red;"">","null","","","","","","","","","",""
"","image-keyboard-response","8","47820","0.0-8.0","3LBXNTKX0SH17BBZ1NCIRHDFG479XW","A8V0L2YF8U6OX","3566S7OX5D5NH74JOVOPTTMK8IR17K","","721.8000000007451","img/land6.png","75","723.2999999988824","2","0","1","1","0.8,0.2,0.2,0.2,0.8,0.2,0.2,0.2,0.8","0.8,0.2,0.2,0.2,0.8,0.2,0.2,0.2,0.8","1","",""
"","html-keyboard-response","9","48122","0.0-9.0","3LBXNTKX0SH17BBZ1NCIRHDFG479XW","A8V0L2YF8U6OX","3566S7OX5D5NH74JOVOPTTMK8IR17K","","null","<img src=""img/land6.png"" style=""width:200px;border:14px solid red;"">","null","","","","","","","","","",""
"","image-keyboard-response","10","48882","0.0-10.0","3LBXNTKX0SH17BBZ1NCIRHDFG479XW","A8V0L2YF8U6OX","3566S7OX5D5NH74JOVOPTTMK8IR17K","","757.9000000003725","img/land1.png","74","759.5999999996275","1","0","3","1","0.8,0.2,0.2,0.2,0.8,0.2,0.2,0.2,0.8","0.8,0.2,0.2,0.2,0.8,0.2,0.2,0.2,0.8","1","",""
"","html-keyboard-response","11","49183","0.0-11.0","3LBXNTKX0SH17BBZ1NCIRHDFG479XW","A8V0L2YF8U6OX","3566S7OX5D5NH74JOVOPTTMK8IR17K","","null","<img src=""img/land1.png"" style=""width:200px;border:14px solid red;"">","null","","","","","","","","","",""
"","image-keyboard-response","12","50092","0.0-12.0","3LBXNTKX0SH17BBZ1NCIRHDFG479XW","A8V0L2YF8U6OX","3566S7OX5D5NH74JOVOPTTMK8IR17K","","906.5","img/land4.png","76","908","3","0","2","1","0.8,0.2,0.2,0.2,0.8,0.2,0.2,0.2,0.8","0.8,0.2,0.2,0.2,0.8,0.2,0.2,0.2,0.8","1","",""
"","html-keyboard-response","13","50394","0.0-13.0","3LBXNTKX0SH17BBZ1NCIRHDFG479XW","A8V0L2YF8U6OX","3566S7OX5D5NH74JOVOPTTMK8IR17K","","null","<img src=""img/land4.png"" style=""width:200px;border:14px solid red;"">","null","","","","","","","","","",""
"","image-keyboard-response","14","51139","0.0-14.0","3LBXNTKX0SH17BBZ1NCIRHDFG479XW","A8V0L2YF8U6OX","3566S7OX5D5NH74JOVOPTTMK8IR17K","","743.5","img/land6.png","76","744.7000000011176","3","0","1","1","0.8,0.2,0.2,0.2,0.8,0.2,0.2,0.2,0.8","0.8,0.2,0.2,0.2,0.8,0.2,0.2,0.2,0.8","1","",""
"","html-keyboard-response","15","51441","0.0-15.0","3LBXNTKX0SH17BBZ1NCIRHDFG479XW","A8V0L2YF8U6OX","3566S7OX5D5NH74JOVOPTTMK8IR17K","","null","<img src=""img/land6.png"" style=""width:200px;border:14px solid red;"">","null","","","","","","","","","",""
"","image-keyboard-response","16","52158","0.0-16.0","3LBXNTKX0SH17BBZ1NCIRHDFG479XW","A8V0L2YF8U6OX","3566S7OX5D5NH74JOVOPTTMK8IR17K","","715.3000000007451","img/land1.png","74","716.9000000003725","1","0","3","1","0.8,0.2,0.2,0.2,0.8,0.2,0.2,0.2,0.8","0.8,0.2,0.2,0.2,0.8,0.2,0.2,0.2,0.8","1","",""
"","html-keyboard-response","17","52460","0.0-17.0","3LBXNTKX0SH17BBZ1NCIRHDFG479XW","A8V0L2YF8U6OX","3566S7OX5D5NH74JOVOPTTMK8IR17K","","null","<img src=""img/land1.png"" style=""width:200px;border:14px solid red;"">","null","","","","","","","","","",""
"","image-keyboard-response","18","52875","0.0-18.0","3LBXNTKX0SH17BBZ1NCIRHDFG479XW","A8V0L2YF8U6OX","3566S7OX5D5NH74JOVOPTTMK8IR17K","","412.5","img/land4.png","74","414","1","0","2","1","0.8,0.2,0.2,0.2,0.8,0.2,0.2,0.2,0.8","0.8,0.2,0.2,0.2,0.8,0.2,0.2,0.2,0.8","1","",""
"","html-keyboard-response","19","53177","0.0-19.0","3LBXNTKX0SH17BBZ1NCIRHDFG479XW","A8V0L2YF8U6OX","3566S7OX5D5NH74JOVOPTTMK8IR17K","","null","<img src=""img/land4.png"" style=""width:200px;border:14px solid red;"">","null","","","","","","","","","",""
"","image-keyboard-response","20","53688","0.0-20.0","3LBXNTKX0SH17BBZ1NCIRHDFG479XW","A8V0L2YF8U6OX","3566S7OX5D5NH74JOVOPTTMK8IR17K","","509.2000000011176","img/land1.png","74","510.59999999962747","1","0","3","1","0.8,0.2,0.2,0.2,0.8,0.2,0.2,0.2,0.8","0.8,0.2,0.2,0.2,0.8,0.2,0.2,0.2,0.8","1","",""
"","html-keyboard-response","21","53990","0.0-21.0","3LBXNTKX0SH17BBZ1NCIRHDFG479XW","A8V0L2YF8U6OX","3566S7OX5D5NH74JOVOPTTMK8IR17K","","null","<img src=""img/land1.png"" style=""width:200px;border:14px solid red;"">","null","","","","","","","","","",""
"","image-keyboard-response","22","54463","0.0-22.0","3LBXNTKX0SH17BBZ1NCIRHDFG479XW","A8V0L2YF8U6OX","3566S7OX5D5NH74JOVOPTTMK8IR17K","","471.5","img/land4.png","75","473.09999999962747","2","1","2","1","0.8,0.2,0.2,0.2,0.8,0.2,0.2,0.2,0.8","0.8,0.2,0.2,0.2,0.8,0.2,0.2,0.2,0.8","1","",""
"","html-keyboard-response","23","54765","0.0-23.0","3LBXNTKX0SH17BBZ1NCIRHDFG479XW","A8V0L2YF8U6OX","3566S7OX5D5NH74JOVOPTTMK8IR17K","","null","<img src=""img/land4.png"" style=""width:200px; border:14px solid green;"">","null","","","","","","","","","",""
"","image-keyboard-response","24","55552","0.0-24.0","3LBXNTKX0SH17BBZ1NCIRHDFG479XW","A8V0L2YF8U6OX","3566S7OX5D5NH74JOVOPTTMK8IR17K","","785.4000000003725","img/land6.png","76","786.5","3","0","1","1","0.8,0.2,0.2,0.2,0.8,0.2,0.2,0.2,0.8","0.8,0.2,0.2,0.2,0.8,0.2,0.2,0.2,0.8","1","",""
"","html-keyboard-response","25","55854","0.0-25.0","3LBXNTKX0SH17BBZ1NCIRHDFG479XW","A8V0L2YF8U6OX","3566S7OX5D5NH74JOVOPTTMK8IR17K","","null","<img src=""img/land6.png"" style=""width:200px;border:14px solid red;"">","null","","","","","","","","","",""
"","image-keyboard-response","26","56595","0.0-26.0","3LBXNTKX0SH17BBZ1NCIRHDFG479XW","A8V0L2YF8U6OX","3566S7OX5D5NH74JOVOPTTMK8IR17K","","739.0999999996275","img/land4.png","75","740.4000000003725","2","1","2","1","0.8,0.2,0.2,0.2,0.8,0.2,0.2,0.2,0.8","0.8,0.2,0.2,0.2,0.8,0.2,0.2,0.2,0.8","1","",""
"","html-keyboard-response","27","56897","0.0-27.0","3LBXNTKX0SH17BBZ1NCIRHDFG479XW","A8V0L2YF8U6OX","3566S7OX5D5NH74JOVOPTTMK8IR17K","","null","<img src=""img/land4.png"" style=""width:200px; border:14px solid green;"">","null","","","","","","","","","",""
"","image-keyboard-response","28","57419","0.0-28.0","3LBXNTKX0SH17BBZ1NCIRHDFG479XW","A8V0L2YF8U6OX","3566S7OX5D5NH74JOVOPTTMK8IR17K","","520.3000000007451","img/land4.png","75","521.5999999996275","2","0","2","1","0.8,0.2,0.2,0.2,0.8,0.2,0.2,0.2,0.8","0.8,0.2,0.2,0.2,0.8,0.2,0.2,0.2,0.8","1","",""
"","html-keyboard-response","29","57721","0.0-29.0","3LBXNTKX0SH17BBZ1NCIRHDFG479XW","A8V0L2YF8U6OX","3566S7OX5D5NH74JOVOPTTMK8IR17K","","null","<img src=""img/land4.png"" style=""width:200px;border:14px solid red;"">","null","","","","","","","","","",""
"","image-keyboard-response","30","58404","0.0-30.0","3LBXNTKX0SH17BBZ1NCIRHDFG479XW","A8V0L2YF8U6OX","3566S7OX5D5NH74JOVOPTTMK8IR17K","","681.3000000007451","img/land4.png","74","682.5","1","0","2","1","0.8,0.2,0.2,0.2,0.8,0.2,0.2,0.2,0.8","0.8,0.2,0.2,0.2,0.8,0.2,0.2,0.2,0.8","1","",""
"","html-keyboard-response","31","58706","0.0-31.0","3LBXNTKX0SH17BBZ1NCIRHDFG479XW","A8V0L2YF8U6OX","3566S7OX5D5NH74JOVOPTTMK8IR17K","","null","<img src=""img/land4.png"" style=""width:200px;border:14px solid red;"">","null","","","","","","","","","",""
"","image-keyboard-response","32","58836","0.0-32.0","3LBXNTKX0SH17BBZ1NCIRHDFG479XW","A8V0L2YF8U6OX","3566S7OX5D5NH74JOVOPTTMK8IR17K","","128.5","img/land6.png","75","129.59999999962747","2","0","1","1","0.8,0.2,0.2,0.2,0.8,0.2,0.2,0.2,0.8","0.8,0.2,0.2,0.2,0.8,0.2,0.2,0.2,0.8","1","",""
"","html-keyboard-response","33","59138","0.0-33.0","3LBXNTKX0SH17BBZ1NCIRHDFG479XW","A8V0L2YF8U6OX","3566S7OX5D5NH74JOVOPTTMK8IR17K","","null","<img src=""img/land6.png"" style=""width:200px;border:14px solid red;"">","null","","","","","","","","","",""
"","image-keyboard-response","34","59648","0.0-34.0","3LBXNTKX0SH17BBZ1NCIRHDFG479XW","A8V0L2YF8U6OX","3566S7OX5D5NH74JOVOPTTMK8IR17K","","508.40000000037253","img/land4.png","76","509.59999999962747","3","0","2","1","0.8,0.2,0.2,0.2,0.8,0.2,0.2,0.2,0.8","0.8,0.2,0.2,0.2,0.8,0.2,0.2,0.2,0.8","1","",""
"","html-keyboard-response","35","59950","0.0-35.0","3LBXNTKX0SH17BBZ1NCIRHDFG479XW","A8V0L2YF8U6OX","3566S7OX5D5NH74JOVOPTTMK8IR17K","","null","<img src=""img/land4.png"" style=""width:200px;border:14px solid red;"">","null","","","","","","","","","",""
"","image-keyboard-response","36","60300","0.0-36.0","3LBXNTKX0SH17BBZ1NCIRHDFG479XW","A8V0L2YF8U6OX","3566S7OX5D5NH74JOVOPTTMK8IR17K","","348","img/land4.png","74","349.40000000037253","1","0","2","1","0.8,0.2,0.2,0.2,0.8,0.2,0.2,0.2,0.8","0.8,0.2,0.2,0.2,0.8,0.2,0.2,0.2,0.8","1","",""
"","html-keyboard-response","37","60601","0.0-37.0","3LBXNTKX0SH17BBZ1NCIRHDFG479XW","A8V0L2YF8U6OX","3566S7OX5D5NH74JOVOPTTMK8IR17K","","null","<img src=""img/land4.png"" style=""width:200px;border:14px solid red;"">","null","","","","","","","","","",""
"","image-keyboard-response","38","60747","0.0-38.0","3LBXNTKX0SH17BBZ1NCIRHDFG479XW","A8V0L2YF8U6OX","3566S7OX5D5NH74JOVOPTTMK8IR17K","","144.59999999962747","img/land4.png","75","145.80000000074506","2","0","2","1","0.8,0.2,0.2,0.2,0.8,0.2,0.2,0.2,0.8","0.8,0.2,0.2,0.2,0.8,0.2,0.2,0.2,0.8","1","",""
"","html-keyboard-response","39","61049","0.0-39.0","3LBXNTKX0SH17BBZ1NCIRHDFG479XW","A8V0L2YF8U6OX","3566S7OX5D5NH74JOVOPTTMK8IR17K","","null","<img src=""img/land4.png"" style=""width:200px;border:14px solid red;"">","null","","","","","","","","","",""
"","image-keyboard-response","40","61102","0.0-40.0","3LBXNTKX0SH17BBZ1NCIRHDFG479XW","A8V0L2YF8U6OX","3566S7OX5D5NH74JOVOPTTMK8IR17K","","51","img/land1.png","76","52.40000000037253","3","1","3","1","0.8,0.2,0.2,0.2,0.8,0.2,0.2,0.2,0.8","0.8,0.2,0.2,0.2,0.8,0.2,0.2,0.2,0.8","1","",""
"","html-keyboard-response","41","61404","0.0-41.0","3LBXNTKX0SH17BBZ1NCIRHDFG479XW","A8V0L2YF8U6OX","3566S7OX5D5NH74JOVOPTTMK8IR17K","","null","<img src=""img/land1.png"" style=""width:200px; border:14px solid green;"">","null","","","","","","","","","",""
"","image-keyboard-response","42","61708","0.0-42.0","3LBXNTKX0SH17BBZ1NCIRHDFG479XW","A8V0L2YF8U6OX","3566S7OX5D5NH74JOVOPTTMK8IR17K","","302","img/land6.png","74","303.2999999988824","1","1","1","1","0.8,0.2,0.2,0.2,0.8,0.2,0.2,0.2,0.8","0.8,0.2,0.2,0.2,0.8,0.2,0.2,0.2,0.8","1","",""
"","html-keyboard-response","43","62010","0.0-43.0","3LBXNTKX0SH17BBZ1NCIRHDFG479XW","A8V0L2YF8U6OX","3566S7OX5D5NH74JOVOPTTMK8IR17K","","null","<img src=""img/land6.png"" style=""width:200px; border:14px solid green;"">","null","","","","","","","","","",""
"","image-keyboard-response","44","62023","0.0-44.0","3LBXNTKX0SH17BBZ1NCIRHDFG479XW","A8V0L2YF8U6OX","3566S7OX5D5NH74JOVOPTTMK8IR17K","","11.5","img/land1.png","75","13","2","1","3","1","0.8,0.2,0.2,0.2,0.8,0.2,0.2,0.2,0.8","0.8,0.2,0.2,0.2,0.8,0.2,0.2,0.2,0.8","1","",""
"","html-keyboard-response","45","62326","0.0-45.0","3LBXNTKX0SH17BBZ1NCIRHDFG479XW","A8V0L2YF8U6OX","3566S7OX5D5NH74JOVOPTTMK8IR17K","","null","<img src=""img/land1.png"" style=""width:200px; border:14px solid green;"">","null","","","","","","","","","",""
"","image-keyboard-response","46","62367","0.0-46.0","3LBXNTKX0SH17BBZ1NCIRHDFG479XW","A8V0L2YF8U6OX","3566S7OX5D5NH74JOVOPTTMK8IR17K","","39.20000000111759","img/land6.png","76","40.79999999888241","3","1","1","1","0.8,0.2,0.2,0.2,0.8,0.2,0.2,0.2,0.8","0.8,0.2,0.2,0.2,0.8,0.2,0.2,0.2,0.8","1","",""
"","html-keyboard-response","47","62668","0.0-47.0","3LBXNTKX0SH17BBZ1NCIRHDFG479XW","A8V0L2YF8U6OX","3566S7OX5D5NH74JOVOPTTMK8IR17K","","null","<img src=""img/land6.png"" style=""width:200px; border:14px solid green;"">","null","","","","","","","","","",""
"","image-keyboard-response","48","62724","0.0-48.0","3LBXNTKX0SH17BBZ1NCIRHDFG479XW","A8V0L2YF8U6OX","3566S7OX5D5NH74JOVOPTTMK8IR17K","","54.09999999962747","img/land4.png","74","55.5","1","0","2","1","0.8,0.2,0.2,0.2,0.8,0.2,0.2,0.2,0.8","0.8,0.2,0.2,0.2,0.8,0.2,0.2,0.2,0.8","1","",""
"","html-keyboard-response","49","63026","0.0-49.0","3LBXNTKX0SH17BBZ1NCIRHDFG479XW","A8V0L2YF8U6OX","3566S7OX5D5NH74JOVOPTTMK8IR17K","","null","<img src=""img/land4.png"" style=""width:200px;border:14px solid red;"">","null","","","","","","","","","",""
"","image-keyboard-response","50","63051","0.0-50.0","3LBXNTKX0SH17BBZ1NCIRHDFG479XW","A8V0L2YF8U6OX","3566S7OX5D5NH74JOVOPTTMK8IR17K","","22.59999999962747","img/land1.png","75","23.800000000745058","2","1","3","1","0.8,0.2,0.2,0.2,0.8,0.2,0.2,0.2,0.8","0.8,0.2,0.2,0.2,0.8,0.2,0.2,0.2,0.8","1","",""
"","html-keyboard-response","51","63353","0.0-51.0","3LBXNTKX0SH17BBZ1NCIRHDFG479XW","A8V0L2YF8U6OX","3566S7OX5D5NH74JOVOPTTMK8IR17K","","null","<img src=""img/land1.png"" style=""width:200px; border:14px solid green;"">","null","","","","","","","","","",""
"","image-keyboard-response","52","63367","0.0-52.0","3LBXNTKX0SH17BBZ1NCIRHDFG479XW","A8V0L2YF8U6OX","3566S7OX5D5NH74JOVOPTTMK8IR17K","","12.899999998509884","img/land6.png","76","14.199999999254942","3","0","1","1","0.8,0.2,0.2,0.2,0.8,0.2,0.2,0.2,0.8","0.8,0.2,0.2,0.2,0.8,0.2,0.2,0.2,0.8","1","",""
"","html-keyboard-response","53","63670","0.0-53.0","3LBXNTKX0SH17BBZ1NCIRHDFG479XW","A8V0L2YF8U6OX","3566S7OX5D5NH74JOVOPTTMK8IR17K","","null","<img src=""img/land6.png"" style=""width:200px;border:14px solid red;"">","null","","","","","","","","","",""
"","image-keyboard-response","54","63700","0.0-54.0","3LBXNTKX0SH17BBZ1NCIRHDFG479XW","A8V0L2YF8U6OX","3566S7OX5D5NH74JOVOPTTMK8IR17K","","28","img/land1.png","74","29.40000000037253","1","0","3","1","0.8,0.2,0.2,0.2,0.8,0.2,0.2,0.2,0.8","0.8,0.2,0.2,0.2,0.8,0.2,0.2,0.2,0.8","1","",""
"","html-keyboard-response","55","64003","0.0-55.0","3LBXNTKX0SH17BBZ1NCIRHDFG479XW","A8V0L2YF8U6OX","3566S7OX5D5NH74JOVOPTTMK8IR17K","","null","<img src=""img/land1.png"" style=""width:200px;border:14px solid red;"">","null","","","","","","","","","",""
"","image-keyboard-response","56","64289","0.0-56.0","3LBXNTKX0SH17BBZ1NCIRHDFG479XW","A8V0L2YF8U6OX","3566S7OX5D5NH74JOVOPTTMK8IR17K","","284.59999999962747","img/land1.png","76","286","3","0","3","1","0.8,0.2,0.2,0.2,0.8,0.2,0.2,0.2,0.8","0.8,0.2,0.2,0.2,0.8,0.2,0.2,0.2,0.8","1","",""
"","html-keyboard-response","57","64591","0.0-57.0","3LBXNTKX0SH17BBZ1NCIRHDFG479XW","A8V0L2YF8U6OX","3566S7OX5D5NH74JOVOPTTMK8IR17K","","null","<img src=""img/land1.png"" style=""width:200px;border:14px solid red;"">","null","","","","","","","","","",""
"","image-keyboard-response","58","64706","0.0-58.0","3LBXNTKX0SH17BBZ1NCIRHDFG479XW","A8V0L2YF8U6OX","3566S7OX5D5NH74JOVOPTTMK8IR17K","","113","img/land1.png","74","114.40000000037253","1","0","3","1","0.8,0.2,0.2,0.2,0.8,0.2,0.2,0.2,0.8","0.8,0.2,0.2,0.2,0.8,0.2,0.2,0.2,0.8","1","",""
"","html-keyboard-response","59","65008","0.0-59.0","3LBXNTKX0SH17BBZ1NCIRHDFG479XW","A8V0L2YF8U6OX","3566S7OX5D5NH74JOVOPTTMK8IR17K","","null","<img src=""img/land1.png"" style=""width:200px;border:14px solid red;"">","null","","","","","","","","","",""
"","image-keyboard-response","60","65309","0.0-60.0","3LBXNTKX0SH17BBZ1NCIRHDFG479XW","A8V0L2YF8U6OX","3566S7OX5D5NH74JOVOPTTMK8IR17K","","298.40000000037253","img/land6.png","76","299.80000000074506","3","0","1","1","0.8,0.2,0.2,0.2,0.8,0.2,0.2,0.2,0.8","0.8,0.2,0.2,0.2,0.8,0.2,0.2,0.2,0.8","1","",""
"","html-keyboard-response","61","65610","0.0-61.0","3LBXNTKX0SH17BBZ1NCIRHDFG479XW","A8V0L2YF8U6OX","3566S7OX5D5NH74JOVOPTTMK8IR17K","","null","<img src=""img/land6.png"" style=""width:200px;border:14px solid red;"">","null","","","","","","","","","",""
"","image-keyboard-response","62","65640","0.0-62.0","3LBXNTKX0SH17BBZ1NCIRHDFG479XW","A8V0L2YF8U6OX","3566S7OX5D5NH74JOVOPTTMK8IR17K","","27.699999999254942","img/land1.png","74","29.09999999962747","1","0","3","1","0.8,0.2,0.2,0.2,0.8,0.2,0.2,0.2,0.8","0.8,0.2,0.2,0.2,0.8,0.2,0.2,0.2,0.8","1","",""
"","html-keyboard-response","63","65942","0.0-63.0","3LBXNTKX0SH17BBZ1NCIRHDFG479XW","A8V0L2YF8U6OX","3566S7OX5D5NH74JOVOPTTMK8IR17K","","null","<img src=""img/land1.png"" style=""width:200px;border:14px solid red;"">","null","","","","","","","","","",""
"","image-keyboard-response","64","65946","0.0-64.0","3LBXNTKX0SH17BBZ1NCIRHDFG479XW","A8V0L2YF8U6OX","3566S7OX5D5NH74JOVOPTTMK8IR17K","","0.19999999925494194","img/land1.png","75","2.699999999254942","2","1","3","1","0.8,0.2,0.2,0.2,0.8,0.2,0.2,0.2,0.8","0.8,0.2,0.2,0.2,0.8,0.2,0.2,0.2,0.8","1","",""
"","html-keyboard-response","65","66248","0.0-65.0","3LBXNTKX0SH17BBZ1NCIRHDFG479XW","A8V0L2YF8U6OX","3566S7OX5D5NH74JOVOPTTMK8IR17K","","null","<img src=""img/land1.png"" style=""width:200px; border:14px solid green;"">","null","","","","","","","","","",""
"","image-keyboard-response","66","66252","0.0-66.0","3LBXNTKX0SH17BBZ1NCIRHDFG479XW","A8V0L2YF8U6OX","3566S7OX5D5NH74JOVOPTTMK8IR17K","","1.599999999627471","img/land1.png","76","3","3","1","3","1","0.8,0.2,0.2,0.2,0.8,0.2,0.2,0.2,0.8","0.8,0.2,0.2,0.2,0.8,0.2,0.2,0.2,0.8","1","",""
"","html-keyboard-response","67","66554","0.0-67.0","3LBXNTKX0SH17BBZ1NCIRHDFG479XW","A8V0L2YF8U6OX","3566S7OX5D5NH74JOVOPTTMK8IR17K","","null","<img src=""img/land1.png"" style=""width:200px; border:14px solid green;"">","null","","","","","","","","","",""
"","image-keyboard-response","68","66853","0.0-68.0","3LBXNTKX0SH17BBZ1NCIRHDFG479XW","A8V0L2YF8U6OX","3566S7OX5D5NH74JOVOPTTMK8IR17K","","297.7000000011176","img/land1.png","74","298.7999999988824","1","0","3","1","0.8,0.2,0.2,0.2,0.8,0.2,0.2,0.2,0.8","0.8,0.2,0.2,0.2,0.8,0.2,0.2,0.2,0.8","1","",""
"","html-keyboard-response","69","67155","0.0-69.0","3LBXNTKX0SH17BBZ1NCIRHDFG479XW","A8V0L2YF8U6OX","3566S7OX5D5NH74JOVOPTTMK8IR17K","","null","<img src=""img/land1.png"" style=""width:200px;border:14px solid red;"">","null","","","","","","","","","",""
"","image-keyboard-response","70","67203","0.0-70.0","3LBXNTKX0SH17BBZ1NCIRHDFG479XW","A8V0L2YF8U6OX","3566S7OX5D5NH74JOVOPTTMK8IR17K","","46.600000001490116","img/land1.png","75","47.90000000037253","2","0","3","1","0.8,0.2,0.2,0.2,0.8,0.2,0.2,0.2,0.8","0.8,0.2,0.2,0.2,0.8,0.2,0.2,0.2,0.8","1","",""
"","html-keyboard-response","71","67505","0.0-71.0","3LBXNTKX0SH17BBZ1NCIRHDFG479XW","A8V0L2YF8U6OX","3566S7OX5D5NH74JOVOPTTMK8IR17K","","null","<img src=""img/land1.png"" style=""width:200px;border:14px solid red;"">","null","","","","","","","","","",""
"","image-keyboard-response","72","67805","0.0-72.0","3LBXNTKX0SH17BBZ1NCIRHDFG479XW","A8V0L2YF8U6OX","3566S7OX5D5NH74JOVOPTTMK8IR17K","","297.5","img/land6.png","74","298.69999999925494","1","1","1","1","0.8,0.2,0.2,0.2,0.8,0.2,0.2,0.2,0.8","0.8,0.2,0.2,0.2,0.8,0.2,0.2,0.2,0.8","1","",""
"","html-keyboard-response","73","68106","0.0-73.0","3LBXNTKX0SH17BBZ1NCIRHDFG479XW","A8V0L2YF8U6OX","3566S7OX5D5NH74JOVOPTTMK8IR17K","","null","<img src=""img/land6.png"" style=""width:200px; border:14px solid green;"">","null","","","","","","","","","",""
"","image-keyboard-response","74","68391","0.0-74.0","3LBXNTKX0SH17BBZ1NCIRHDFG479XW","A8V0L2YF8U6OX","3566S7OX5D5NH74JOVOPTTMK8IR17K","","283.5","img/land1.png","76","284.59999999962747","3","1","3","1","0.8,0.2,0.2,0.2,0.8,0.2,0.2,0.2,0.8","0.8,0.2,0.2,0.2,0.8,0.2,0.2,0.2,0.8","1","",""
"","html-keyboard-response","75","68693","0.0-75.0","3LBXNTKX0SH17BBZ1NCIRHDFG479XW","A8V0L2YF8U6OX","3566S7OX5D5NH74JOVOPTTMK8IR17K","","null","<img src=""img/land1.png"" style=""width:200px; border:14px solid green;"">","null","","","","","","","","","",""
"","image-keyboard-response","76","68965","0.0-76.0","3LBXNTKX0SH17BBZ1NCIRHDFG479XW","A8V0L2YF8U6OX","3566S7OX5D5NH74JOVOPTTMK8IR17K","","270.5","img/land4.png","75","271.80000000074506","2","1","2","1","0.8,0.2,0.2,0.2,0.8,0.2,0.2,0.2,0.8","0.8,0.2,0.2,0.2,0.8,0.2,0.2,0.2,0.8","1","",""
"","html-keyboard-response","77","69267","0.0-77.0","3LBXNTKX0SH17BBZ1NCIRHDFG479XW","A8V0L2YF8U6OX","3566S7OX5D5NH74JOVOPTTMK8IR17K","","null","<img src=""img/land4.png"" style=""width:200px; border:14px solid green;"">","null","","","","","","","","","",""
"","image-keyboard-response","78","69563","0.0-78.0","3LBXNTKX0SH17BBZ1NCIRHDFG479XW","A8V0L2YF8U6OX","3566S7OX5D5NH74JOVOPTTMK8IR17K","","294.59999999962747","img/land6.png","74","296","1","1","1","1","0.8,0.2,0.2,0.2,0.8,0.2,0.2,0.2,0.8","0.8,0.2,0.2,0.2,0.8,0.2,0.2,0.2,0.8","1","",""
"","html-keyboard-response","79","69865","0.0-79.0","3LBXNTKX0SH17BBZ1NCIRHDFG479XW","A8V0L2YF8U6OX","3566S7OX5D5NH74JOVOPTTMK8IR17K","","null","<img src=""img/land6.png"" style=""width:200px; border:14px solid green;"">","null","","","","","","","","","",""
"","image-keyboard-response","80","70089","0.0-80.0","3LBXNTKX0SH17BBZ1NCIRHDFG479XW","A8V0L2YF8U6OX","3566S7OX5D5NH74JOVOPTTMK8IR17K","","222.59999999962747","img/land1.png","76","223.69999999925494","3","1","3","1","0.8,0.2,0.2,0.2,0.8,0.2,0.2,0.2,0.8","0.8,0.2,0.2,0.2,0.8,0.2,0.2,0.2,0.8","1","",""
"","html-keyboard-response","81","70391","0.0-81.0","3LBXNTKX0SH17BBZ1NCIRHDFG479XW","A8V0L2YF8U6OX","3566S7OX5D5NH74JOVOPTTMK8IR17K","","null","<img src=""img/land1.png"" style=""width:200px; border:14px solid green;"">","null","","","","","","","","","",""
"","image-keyboard-response","82","70402","0.0-82.0","3LBXNTKX0SH17BBZ1NCIRHDFG479XW","A8V0L2YF8U6OX","3566S7OX5D5NH74JOVOPTTMK8IR17K","","8.599999999627471","img/land1.png","74","9.800000000745058","1","0","3","1","0.8,0.2,0.2,0.2,0.8,0.2,0.2,0.2,0.8","0.8,0.2,0.2,0.2,0.8,0.2,0.2,0.2,0.8","1","",""
"","html-keyboard-response","83","70703","0.0-83.0","3LBXNTKX0SH17BBZ1NCIRHDFG479XW","A8V0L2YF8U6OX","3566S7OX5D5NH74JOVOPTTMK8IR17K","","null","<img src=""img/land1.png"" style=""width:200px;border:14px solid red;"">","null","","","","","","","","","",""
"","image-keyboard-response","84","70902","0.0-84.0","3LBXNTKX0SH17BBZ1NCIRHDFG479XW","A8V0L2YF8U6OX","3566S7OX5D5NH74JOVOPTTMK8IR17K","","196.90000000037253","img/land4.png","76","198.2000000011176","3","0","2","1","0.8,0.2,0.2,0.2,0.8,0.2,0.2,0.2,0.8","0.8,0.2,0.2,0.2,0.8,0.2,0.2,0.2,0.8","1","",""
"","html-keyboard-response","85","71204","0.0-85.0","3LBXNTKX0SH17BBZ1NCIRHDFG479XW","A8V0L2YF8U6OX","3566S7OX5D5NH74JOVOPTTMK8IR17K","","null","<img src=""img/land4.png"" style=""width:200px;border:14px solid red;"">","null","","","","","","","","","",""
"","image-keyboard-response","86","71471","0.0-86.0","3LBXNTKX0SH17BBZ1NCIRHDFG479XW","A8V0L2YF8U6OX","3566S7OX5D5NH74JOVOPTTMK8IR17K","","265.2999999988824","img/land6.png","75","266.5","2","0","1","1","0.8,0.2,0.2,0.2,0.8,0.2,0.2,0.2,0.8","0.8,0.2,0.2,0.2,0.8,0.2,0.2,0.2,0.8","1","",""
"","html-keyboard-response","87","71772","0.0-87.0","3LBXNTKX0SH17BBZ1NCIRHDFG479XW","A8V0L2YF8U6OX","3566S7OX5D5NH74JOVOPTTMK8IR17K","","null","<img src=""img/land6.png"" style=""width:200px;border:14px solid red;"">","null","","","","","","","","","",""
"","image-keyboard-response","88","72021","0.0-88.0","3LBXNTKX0SH17BBZ1NCIRHDFG479XW","A8V0L2YF8U6OX","3566S7OX5D5NH74JOVOPTTMK8IR17K","","247","img/land4.png","74","248.40000000037253","1","1","2","1","0.8,0.2,0.2,0.2,0.8,0.2,0.2,0.2,0.8","0.8,0.2,0.2,0.2,0.8,0.2,0.2,0.2,0.8","1","",""
"","html-keyboard-response","89","72323","0.0-89.0","3LBXNTKX0SH17BBZ1NCIRHDFG479XW","A8V0L2YF8U6OX","3566S7OX5D5NH74JOVOPTTMK8IR17K","","null","<img src=""img/land4.png"" style=""width:200px; border:14px solid green;"">","null","","","","","","","","","",""
"","image-keyboard-response","90","72550","0.0-90.0","3LBXNTKX0SH17BBZ1NCIRHDFG479XW","A8V0L2YF8U6OX","3566S7OX5D5NH74JOVOPTTMK8IR17K","","224.7000000011176","img/land1.png","76","226.39999999850988","3","1","3","1","0.8,0.2,0.2,0.2,0.8,0.2,0.2,0.2,0.8","0.8,0.2,0.2,0.2,0.8,0.2,0.2,0.2,0.8","1","",""
"","html-keyboard-response","91","72851","0.0-91.0","3LBXNTKX0SH17BBZ1NCIRHDFG479XW","A8V0L2YF8U6OX","3566S7OX5D5NH74JOVOPTTMK8IR17K","","null","<img src=""img/land1.png"" style=""width:200px; border:14px solid green;"">","null","","","","","","","","","",""
"","image-keyboard-response","92","72885","0.0-92.0","3LBXNTKX0SH17BBZ1NCIRHDFG479XW","A8V0L2YF8U6OX","3566S7OX5D5NH74JOVOPTTMK8IR17K","","31.600000001490116","img/land6.png","74","33.19999999925494","1","1","1","1","0.8,0.2,0.2,0.2,0.8,0.2,0.2,0.2,0.8","0.8,0.2,0.2,0.2,0.8,0.2,0.2,0.2,0.8","1","",""
"","html-keyboard-response","93","73188","0.0-93.0","3LBXNTKX0SH17BBZ1NCIRHDFG479XW","A8V0L2YF8U6OX","3566S7OX5D5NH74JOVOPTTMK8IR17K","","null","<img src=""img/land6.png"" style=""width:200px; border:14px solid green;"">","null","","","","","","","","","",""
"","image-keyboard-response","94","73367","0.0-94.0","3LBXNTKX0SH17BBZ1NCIRHDFG479XW","A8V0L2YF8U6OX","3566S7OX5D5NH74JOVOPTTMK8IR17K","","177.2000000011176","img/land4.png","76","178.89999999850988","3","0","2","1","0.8,0.2,0.2,0.2,0.8,0.2,0.2,0.2,0.8","0.8,0.2,0.2,0.2,0.8,0.2,0.2,0.2,0.8","1","",""
"","html-keyboard-response","95","73669","0.0-95.0","3LBXNTKX0SH17BBZ1NCIRHDFG479XW","A8V0L2YF8U6OX","3566S7OX5D5NH74JOVOPTTMK8IR17K","","null","<img src=""img/land4.png"" style=""width:200px;border:14px solid red;"">","null","","","","","","","","","",""
"","image-keyboard-response","96","73712","0.0-96.0","3LBXNTKX0SH17BBZ1NCIRHDFG479XW","A8V0L2YF8U6OX","3566S7OX5D5NH74JOVOPTTMK8IR17K","","41.40000000037253","img/land6.png","74","42.80000000074506","1","1","1","1","0.8,0.2,0.2,0.2,0.8,0.2,0.2,0.2,0.8","0.8,0.2,0.2,0.2,0.8,0.2,0.2,0.2,0.8","1","",""
"","html-keyboard-response","97","74014","0.0-97.0","3LBXNTKX0SH17BBZ1NCIRHDFG479XW","A8V0L2YF8U6OX","3566S7OX5D5NH74JOVOPTTMK8IR17K","","null","<img src=""img/land6.png"" style=""width:200px; border:14px solid green;"">","null","","","","","","","","","",""
"","image-keyboard-response","98","74209","0.0-98.0","3LBXNTKX0SH17BBZ1NCIRHDFG479XW","A8V0L2YF8U6OX","3566S7OX5D5NH74JOVOPTTMK8IR17K","","192.30000000074506","img/land4.png","76","193.60000000149012","3","0","2","1","0.8,0.2,0.2,0.2,0.8,0.2,0.2,0.2,0.8","0.8,0.2,0.2,0.2,0.8,0.2,0.2,0.2,0.8","1","",""
"","html-keyboard-response","99","74511","0.0-99.0","3LBXNTKX0SH17BBZ1NCIRHDFG479XW","A8V0L2YF8U6OX","3566S7OX5D5NH74JOVOPTTMK8IR17K","","null","<img src=""img/land4.png"" style=""width:200px;border:14px solid red;"">","null","","","","","","","","","",""
"","image-keyboard-response","100","74521","0.0-100.0","3LBXNTKX0SH17BBZ1NCIRHDFG479XW","A8V0L2YF8U6OX","3566S7OX5D5NH74JOVOPTTMK8IR17K","","8","img/land4.png","74","9.400000000372529","1","0","2","1","0.8,0.2,0.2,0.2,0.8,0.2,0.2,0.2,0.8","0.8,0.2,0.2,0.2,0.8,0.2,0.2,0.2,0.8","1","",""
"","html-keyboard-response","101","74824","0.0-101.0","3LBXNTKX0SH17BBZ1NCIRHDFG479XW","A8V0L2YF8U6OX","3566S7OX5D5NH74JOVOPTTMK8IR17K","","null","<img src=""img/land4.png"" style=""width:200px;border:14px solid red;"">","null","","","","","","","","","",""
"","image-keyboard-response","102","74989","0.0-102.0","3LBXNTKX0SH17BBZ1NCIRHDFG479XW","A8V0L2YF8U6OX","3566S7OX5D5NH74JOVOPTTMK8IR17K","","163.69999999925494","img/land4.png","76","164.90000000037253","3","1","2","1","0.8,0.2,0.2,0.2,0.8,0.2,0.2,0.2,0.8","0.8,0.2,0.2,0.2,0.8,0.2,0.2,0.2,0.8","1","",""
"","html-keyboard-response","103","75291","0.0-103.0","3LBXNTKX0SH17BBZ1NCIRHDFG479XW","A8V0L2YF8U6OX","3566S7OX5D5NH74JOVOPTTMK8IR17K","","null","<img src=""img/land4.png"" style=""width:200px; border:14px solid green;"">","null","","","","","","","","","",""
"","image-keyboard-response","104","75331","0.0-104.0","3LBXNTKX0SH17BBZ1NCIRHDFG479XW","A8V0L2YF8U6OX","3566S7OX5D5NH74JOVOPTTMK8IR17K","","38","img/land6.png","74","39.29999999888241","1","1","1","1","0.8,0.2,0.2,0.2,0.8,0.2,0.2,0.2,0.8","0.8,0.2,0.2,0.2,0.8,0.2,0.2,0.2,0.8","1","",""
"","html-keyboard-response","105","75633","0.0-105.0","3LBXNTKX0SH17BBZ1NCIRHDFG479XW","A8V0L2YF8U6OX","3566S7OX5D5NH74JOVOPTTMK8IR17K","","null","<img src=""img/land6.png"" style=""width:200px; border:14px solid green;"">","null","","","","","","","","","",""
"","image-keyboard-response","106","75807","0.0-106.0","3LBXNTKX0SH17BBZ1NCIRHDFG479XW","A8V0L2YF8U6OX","3566S7OX5D5NH74JOVOPTTMK8IR17K","","172.59999999962747","img/land1.png","76","173.90000000037253","3","0","3","1","0.8,0.2,0.2,0.2,0.8,0.2,0.2,0.2,0.8","0.8,0.2,0.2,0.2,0.8,0.2,0.2,0.2,0.8","1","",""
"","html-keyboard-response","107","76109","0.0-107.0","3LBXNTKX0SH17BBZ1NCIRHDFG479XW","A8V0L2YF8U6OX","3566S7OX5D5NH74JOVOPTTMK8IR17K","","null","<img src=""img/land1.png"" style=""width:200px;border:14px solid red;"">","null","","","","","","","","","",""
"","image-keyboard-response","108","76321","0.0-108.0","3LBXNTKX0SH17BBZ1NCIRHDFG479XW","A8V0L2YF8U6OX","3566S7OX5D5NH74JOVOPTTMK8IR17K","","210.60000000149012","img/land6.png","75","211.90000000037253","2","0","1","1","0.8,0.2,0.2,0.2,0.8,0.2,0.2,0.2,0.8","0.8,0.2,0.2,0.2,0.8,0.2,0.2,0.2,0.8","1","",""
"","html-keyboard-response","109","76623","0.0-109.0","3LBXNTKX0SH17BBZ1NCIRHDFG479XW","A8V0L2YF8U6OX","3566S7OX5D5NH74JOVOPTTMK8IR17K","","null","<img src=""img/land6.png"" style=""width:200px;border:14px solid red;"">","null","","","","","","","","","",""
"","image-keyboard-response","110","76856","0.0-110.0","3LBXNTKX0SH17BBZ1NCIRHDFG479XW","A8V0L2YF8U6OX","3566S7OX5D5NH74JOVOPTTMK8IR17K","","231.40000000037253","img/land6.png","74","233","1","1","1","1","0.8,0.2,0.2,0.2,0.8,0.2,0.2,0.2,0.8","0.8,0.2,0.2,0.2,0.8,0.2,0.2,0.2,0.8","1","",""
"","html-keyboard-response","111","77158","0.0-111.0","3LBXNTKX0SH17BBZ1NCIRHDFG479XW","A8V0L2YF8U6OX","3566S7OX5D5NH74JOVOPTTMK8IR17K","","null","<img src=""img/land6.png"" style=""width:200px; border:14px solid green;"">","null","","","","","","","","","",""
"","image-keyboard-response","112","77349","0.0-112.0","3LBXNTKX0SH17BBZ1NCIRHDFG479XW","A8V0L2YF8U6OX","3566S7OX5D5NH74JOVOPTTMK8IR17K","","190.09999999962747","img/land1.png","76","191.40000000037253","3","1","3","1","0.8,0.2,0.2,0.2,0.8,0.2,0.2,0.2,0.8","0.8,0.2,0.2,0.2,0.8,0.2,0.2,0.2,0.8","1","",""
"","html-keyboard-response","113","77652","0.0-113.0","3LBXNTKX0SH17BBZ1NCIRHDFG479XW","A8V0L2YF8U6OX","3566S7OX5D5NH74JOVOPTTMK8IR17K","","null","<img src=""img/land1.png"" style=""width:200px; border:14px solid green;"">","null","","","","","","","","","",""
"","image-keyboard-response","114","77890","0.0-114.0","3LBXNTKX0SH17BBZ1NCIRHDFG479XW","A8V0L2YF8U6OX","3566S7OX5D5NH74JOVOPTTMK8IR17K","","236.5","img/land6.png","75","238","2","0","1","1","0.8,0.2,0.2,0.2,0.8,0.2,0.2,0.2,0.8","0.8,0.2,0.2,0.2,0.8,0.2,0.2,0.2,0.8","1","",""
"","html-keyboard-response","115","78192","0.0-115.0","3LBXNTKX0SH17BBZ1NCIRHDFG479XW","A8V0L2YF8U6OX","3566S7OX5D5NH74JOVOPTTMK8IR17K","","null","<img src=""img/land6.png"" style=""width:200px;border:14px solid red;"">","null","","","","","","","","","",""
"","image-keyboard-response","116","78397","0.0-116.0","3LBXNTKX0SH17BBZ1NCIRHDFG479XW","A8V0L2YF8U6OX","3566S7OX5D5NH74JOVOPTTMK8IR17K","","203.59999999962747","img/land1.png","74","204.90000000037253","1","1","3","1","0.8,0.2,0.2,0.2,0.8,0.2,0.2,0.2,0.8","0.8,0.2,0.2,0.2,0.8,0.2,0.2,0.2,0.8","1","",""
"","html-keyboard-response","117","78700","0.0-117.0","3LBXNTKX0SH17BBZ1NCIRHDFG479XW","A8V0L2YF8U6OX","3566S7OX5D5NH74JOVOPTTMK8IR17K","","null","<img src=""img/land1.png"" style=""width:200px; border:14px solid green;"">","null","","","","","","","","","",""
"","image-keyboard-response","118","78886","0.0-118.0","3LBXNTKX0SH17BBZ1NCIRHDFG479XW","A8V0L2YF8U6OX","3566S7OX5D5NH74JOVOPTTMK8IR17K","","185","img/land6.png","76","186.19999999925494","3","0","1","1","0.8,0.2,0.2,0.2,0.8,0.2,0.2,0.2,0.8","0.8,0.2,0.2,0.2,0.8,0.2,0.2,0.2,0.8","1","",""
"","html-keyboard-response","119","79188","0.0-119.0","3LBXNTKX0SH17BBZ1NCIRHDFG479XW","A8V0L2YF8U6OX","3566S7OX5D5NH74JOVOPTTMK8IR17K","","null","<img src=""img/land6.png"" style=""width:200px;border:14px solid red;"">","null","","","","","","","","","",""
"","image-keyboard-response","120","79265","0.0-120.0","3LBXNTKX0SH17BBZ1NCIRHDFG479XW","A8V0L2YF8U6OX","3566S7OX5D5NH74JOVOPTTMK8IR17K","","74","img/land4.png","74","75.59999999962747","1","0","2","1","0.8,0.2,0.2,0.2,0.8,0.2,0.2,0.2,0.8","0.8,0.2,0.2,0.2,0.8,0.2,0.2,0.2,0.8","1","",""
"","html-keyboard-response","121","79567","0.0-121.0","3LBXNTKX0SH17BBZ1NCIRHDFG479XW","A8V0L2YF8U6OX","3566S7OX5D5NH74JOVOPTTMK8IR17K","","null","<img src=""img/land4.png"" style=""width:200px;border:14px solid red;"">","null","","","","","","","","","",""
"","image-keyboard-response","122","79800","0.0-122.0","3LBXNTKX0SH17BBZ1NCIRHDFG479XW","A8V0L2YF8U6OX","3566S7OX5D5NH74JOVOPTTMK8IR17K","","231.40000000037253","img/land6.png","76","232.59999999962747","3","0","1","1","0.8,0.2,0.2,0.2,0.8,0.2,0.2,0.2,0.8","0.8,0.2,0.2,0.2,0.8,0.2,0.2,0.2,0.8","1","",""
"","html-keyboard-response","123","80101","0.0-123.0","3LBXNTKX0SH17BBZ1NCIRHDFG479XW","A8V0L2YF8U6OX","3566S7OX5D5NH74JOVOPTTMK8IR17K","","null","<img src=""img/land6.png"" style=""width:200px;border:14px solid red;"">","null","","","","","","","","","",""
"","image-keyboard-response","124","80113","0.0-124.0","3LBXNTKX0SH17BBZ1NCIRHDFG479XW","A8V0L2YF8U6OX","3566S7OX5D5NH74JOVOPTTMK8IR17K","","10.099999999627471","img/land4.png","74","11.300000000745058","1","0","2","1","0.8,0.2,0.2,0.2,0.8,0.2,0.2,0.2,0.8","0.8,0.2,0.2,0.2,0.8,0.2,0.2,0.2,0.8","1","",""
"","html-keyboard-response","125","80415","0.0-125.0","3LBXNTKX0SH17BBZ1NCIRHDFG479XW","A8V0L2YF8U6OX","3566S7OX5D5NH74JOVOPTTMK8IR17K","","null","<img src=""img/land4.png"" style=""width:200px;border:14px solid red;"">","null","","","","","","","","","",""
"","image-keyboard-response","126","80892","0.0-126.0","3LBXNTKX0SH17BBZ1NCIRHDFG479XW","A8V0L2YF8U6OX","3566S7OX5D5NH74JOVOPTTMK8IR17K","","475.40000000037253","img/land4.png","76","476.7000000011176","3","1","2","1","0.8,0.2,0.2,0.2,0.8,0.2,0.2,0.2,0.8","0.8,0.2,0.2,0.2,0.8,0.2,0.2,0.2,0.8","1","",""
"","html-keyboard-response","127","81194","0.0-127.0","3LBXNTKX0SH17BBZ1NCIRHDFG479XW","A8V0L2YF8U6OX","3566S7OX5D5NH74JOVOPTTMK8IR17K","","null","<img src=""img/land4.png"" style=""width:200px; border:14px solid green;"">","null","","","","","","","","","",""
"","image-keyboard-response","128","82012","0.0-128.0","3LBXNTKX0SH17BBZ1NCIRHDFG479XW","A8V0L2YF8U6OX","3566S7OX5D5NH74JOVOPTTMK8IR17K","","816.6999999992549","img/land6.png","75","818.2000000011176","2","1","1","1","0.8,0.2,0.2,0.2,0.8,0.2,0.2,0.2,0.8","0.8,0.2,0.2,0.2,0.8,0.2,0.2,0.2,0.8","1","",""
"","html-keyboard-response","129","82314","0.0-129.0","3LBXNTKX0SH17BBZ1NCIRHDFG479XW","A8V0L2YF8U6OX","3566S7OX5D5NH74JOVOPTTMK8IR17K","","null","<img src=""img/land6.png"" style=""width:200px; border:14px solid green;"">","null","","","","","","","","","",""
"","image-keyboard-response","130","82922","0.0-130.0","3LBXNTKX0SH17BBZ1NCIRHDFG479XW","A8V0L2YF8U6OX","3566S7OX5D5NH74JOVOPTTMK8IR17K","","605.8000000007451","img/land6.png","75","607.1000000014901","2","0","1","1","0.8,0.2,0.2,0.2,0.8,0.2,0.2,0.2,0.8","0.8,0.2,0.2,0.2,0.8,0.2,0.2,0.2,0.8","1","",""
"","html-keyboard-response","131","83224","0.0-131.0","3LBXNTKX0SH17BBZ1NCIRHDFG479XW","A8V0L2YF8U6OX","3566S7OX5D5NH74JOVOPTTMK8IR17K","","null","<img src=""img/land6.png"" style=""width:200px;border:14px solid red;"">","null","","","","","","","","","",""
"","image-keyboard-response","132","83817","0.0-132.0","3LBXNTKX0SH17BBZ1NCIRHDFG479XW","A8V0L2YF8U6OX","3566S7OX5D5NH74JOVOPTTMK8IR17K","","591.4000000003725","img/land1.png","76","592.5999999996275","3","0","3","1","0.8,0.2,0.2,0.2,0.8,0.2,0.2,0.2,0.8","0.8,0.2,0.2,0.2,0.8,0.2,0.2,0.2,0.8","1","",""
"","html-keyboard-response","133","84119","0.0-133.0","3LBXNTKX0SH17BBZ1NCIRHDFG479XW","A8V0L2YF8U6OX","3566S7OX5D5NH74JOVOPTTMK8IR17K","","null","<img src=""img/land1.png"" style=""width:200px;border:14px solid red;"">","null","","","","","","","","","",""
"","image-keyboard-response","134","84740","0.0-134.0","3LBXNTKX0SH17BBZ1NCIRHDFG479XW","A8V0L2YF8U6OX","3566S7OX5D5NH74JOVOPTTMK8IR17K","","619.5999999996275","img/land1.png","76","621","3","0","3","1","0.8,0.2,0.2,0.2,0.8,0.2,0.2,0.2,0.8","0.8,0.2,0.2,0.2,0.8,0.2,0.2,0.2,0.8","1","",""
"","html-keyboard-response","135","85042","0.0-135.0","3LBXNTKX0SH17BBZ1NCIRHDFG479XW","A8V0L2YF8U6OX","3566S7OX5D5NH74JOVOPTTMK8IR17K","","null","<img src=""img/land1.png"" style=""width:200px;border:14px solid red;"">","null","","","","","","","","","",""
"","image-keyboard-response","136","85383","0.0-136.0","3LBXNTKX0SH17BBZ1NCIRHDFG479XW","A8V0L2YF8U6OX","3566S7OX5D5NH74JOVOPTTMK8IR17K","","339","img/land1.png","74","340.3999999985099","1","0","3","1","0.8,0.2,0.2,0.2,0.8,0.2,0.2,0.2,0.8","0.8,0.2,0.2,0.2,0.8,0.2,0.2,0.2,0.8","1","",""
"","html-keyboard-response","137","85685","0.0-137.0","3LBXNTKX0SH17BBZ1NCIRHDFG479XW","A8V0L2YF8U6OX","3566S7OX5D5NH74JOVOPTTMK8IR17K","","null","<img src=""img/land1.png"" style=""width:200px;border:14px solid red;"">","null","","","","","","","","","",""
"","image-keyboard-response","138","86200","0.0-138.0","3LBXNTKX0SH17BBZ1NCIRHDFG479XW","A8V0L2YF8U6OX","3566S7OX5D5NH74JOVOPTTMK8IR17K","","513.5","img/land4.png","75","514.8000000007451","2","1","2","1","0.8,0.2,0.2,0.2,0.8,0.2,0.2,0.2,0.8","0.8,0.2,0.2,0.2,0.8,0.2,0.2,0.2,0.8","1","",""
"","html-keyboard-response","139","86502","0.0-139.0","3LBXNTKX0SH17BBZ1NCIRHDFG479XW","A8V0L2YF8U6OX","3566S7OX5D5NH74JOVOPTTMK8IR17K","","null","<img src=""img/land4.png"" style=""width:200px; border:14px solid green;"">","null","","","","","","","","","",""
"","image-keyboard-response","140","87005","0.0-140.0","3LBXNTKX0SH17BBZ1NCIRHDFG479XW","A8V0L2YF8U6OX","3566S7OX5D5NH74JOVOPTTMK8IR17K","","500.90000000037253","img/land4.png","75","502.2999999988824","2","1","2","1","0.8,0.2,0.2,0.2,0.8,0.2,0.2,0.2,0.8","0.8,0.2,0.2,0.2,0.8,0.2,0.2,0.2,0.8","1","",""
"","html-keyboard-response","141","87307","0.0-141.0","3LBXNTKX0SH17BBZ1NCIRHDFG479XW","A8V0L2YF8U6OX","3566S7OX5D5NH74JOVOPTTMK8IR17K","","null","<img src=""img/land4.png"" style=""width:200px; border:14px solid green;"">","null","","","","","","","","","",""
"","image-keyboard-response","142","87544","0.0-142.0","3LBXNTKX0SH17BBZ1NCIRHDFG479XW","A8V0L2YF8U6OX","3566S7OX5D5NH74JOVOPTTMK8IR17K","","235.2999999988824","img/land4.png","75","236.7999999988824","2","1","2","1","0.8,0.2,0.2,0.2,0.8,0.2,0.2,0.2,0.8","0.8,0.2,0.2,0.2,0.8,0.2,0.2,0.2,0.8","1","",""
"","html-keyboard-response","143","87846","0.0-143.0","3LBXNTKX0SH17BBZ1NCIRHDFG479XW","A8V0L2YF8U6OX","3566S7OX5D5NH74JOVOPTTMK8IR17K","","null","<img src=""img/land4.png"" style=""width:200px; border:14px solid green;"">","null","","","","","","","","","",""
"","image-keyboard-response","144","87998","0.0-144.0","3LBXNTKX0SH17BBZ1NCIRHDFG479XW","A8V0L2YF8U6OX","3566S7OX5D5NH74JOVOPTTMK8IR17K","","150.5","img/land6.png","75","151.69999999925494","2","0","1","1","0.8,0.2,0.2,0.2,0.8,0.2,0.2,0.2,0.8","0.8,0.2,0.2,0.2,0.8,0.2,0.2,0.2,0.8","1","",""
"","html-keyboard-response","145","88300","0.0-145.0","3LBXNTKX0SH17BBZ1NCIRHDFG479XW","A8V0L2YF8U6OX","3566S7OX5D5NH74JOVOPTTMK8IR17K","","null","<img src=""img/land6.png"" style=""width:200px;border:14px solid red;"">","null","","","","","","","","","",""
"","image-keyboard-response","146","88535","0.0-146.0","3LBXNTKX0SH17BBZ1NCIRHDFG479XW","A8V0L2YF8U6OX","3566S7OX5D5NH74JOVOPTTMK8IR17K","","233.40000000037253","img/land6.png","75","234.7000000011176","2","1","1","1","0.8,0.2,0.2,0.2,0.8,0.2,0.2,0.2,0.8","0.8,0.2,0.2,0.2,0.8,0.2,0.2,0.2,0.8","1","",""
"","html-keyboard-response","147","88837","0.0-147.0","3LBXNTKX0SH17BBZ1NCIRHDFG479XW","A8V0L2YF8U6OX","3566S7OX5D5NH74JOVOPTTMK8IR17K","","null","<img src=""img/land6.png"" style=""width:200px; border:14px solid green;"">","null","","","","","","","","","",""
"","image-keyboard-response","148","88921","0.0-148.0","3LBXNTKX0SH17BBZ1NCIRHDFG479XW","A8V0L2YF8U6OX","3566S7OX5D5NH74JOVOPTTMK8IR17K","","82.39999999850988","img/land6.png","75","83.79999999888241","2","0","1","1","0.8,0.2,0.2,0.2,0.8,0.2,0.2,0.2,0.8","0.8,0.2,0.2,0.2,0.8,0.2,0.2,0.2,0.8","1","",""
"","html-keyboard-response","149","89223","0.0-149.0","3LBXNTKX0SH17BBZ1NCIRHDFG479XW","A8V0L2YF8U6OX","3566S7OX5D5NH74JOVOPTTMK8IR17K","","null","<img src=""img/land6.png"" style=""width:200px;border:14px solid red;"">","null","","","","","","","","","",""
"","image-keyboard-response","150","89334","0.0-150.0","3LBXNTKX0SH17BBZ1NCIRHDFG479XW","A8V0L2YF8U6OX","3566S7OX5D5NH74JOVOPTTMK8IR17K","","109.09999999962747","img/land1.png","75","110.69999999925494","2","0","3","1","0.8,0.2,0.2,0.2,0.8,0.2,0.2,0.2,0.8","0.8,0.2,0.2,0.2,0.8,0.2,0.2,0.2,0.8","1","",""
"","html-keyboard-response","151","89636","0.0-151.0","3LBXNTKX0SH17BBZ1NCIRHDFG479XW","A8V0L2YF8U6OX","3566S7OX5D5NH74JOVOPTTMK8IR17K","","null","<img src=""img/land1.png"" style=""width:200px;border:14px solid red;"">","null","","","","","","","","","",""
"","image-keyboard-response","152","89743","0.0-152.0","3LBXNTKX0SH17BBZ1NCIRHDFG479XW","A8V0L2YF8U6OX","3566S7OX5D5NH74JOVOPTTMK8IR17K","","105.70000000111759","img/land4.png","75","106.89999999850988","2","1","2","1","0.8,0.2,0.2,0.2,0.8,0.2,0.2,0.2,0.8","0.8,0.2,0.2,0.2,0.8,0.2,0.2,0.2,0.8","1","",""
"","html-keyboard-response","153","90045","0.0-153.0","3LBXNTKX0SH17BBZ1NCIRHDFG479XW","A8V0L2YF8U6OX","3566S7OX5D5NH74JOVOPTTMK8IR17K","","null","<img src=""img/land4.png"" style=""width:200px; border:14px solid green;"">","null","","","","","","","","","",""
"","image-keyboard-response","154","90139","0.0-154.0","3LBXNTKX0SH17BBZ1NCIRHDFG479XW","A8V0L2YF8U6OX","3566S7OX5D5NH74JOVOPTTMK8IR17K","","92","img/land1.png","75","93.5","2","0","3","1","0.8,0.2,0.2,0.2,0.8,0.2,0.2,0.2,0.8","0.8,0.2,0.2,0.2,0.8,0.2,0.2,0.2,0.8","1","",""
"","html-keyboard-response","155","90440","0.0-155.0","3LBXNTKX0SH17BBZ1NCIRHDFG479XW","A8V0L2YF8U6OX","3566S7OX5D5NH74JOVOPTTMK8IR17K","","null","<img src=""img/land1.png"" style=""width:200px;border:14px solid red;"">","null","","","","","","","","","",""
"","image-keyboard-response","156","90530","0.0-156.0","3LBXNTKX0SH17BBZ1NCIRHDFG479XW","A8V0L2YF8U6OX","3566S7OX5D5NH74JOVOPTTMK8IR17K","","87.90000000037253","img/land6.png","75","89.29999999888241","2","1","1","1","0.8,0.2,0.2,0.2,0.8,0.2,0.2,0.2,0.8","0.8,0.2,0.2,0.2,0.8,0.2,0.2,0.2,0.8","1","",""
"","html-keyboard-response","157","90832","0.0-157.0","3LBXNTKX0SH17BBZ1NCIRHDFG479XW","A8V0L2YF8U6OX","3566S7OX5D5NH74JOVOPTTMK8IR17K","","null","<img src=""img/land6.png"" style=""width:200px; border:14px solid green;"">","null","","","","","","","","","",""
"","image-keyboard-response","158","90918","0.0-158.0","3LBXNTKX0SH17BBZ1NCIRHDFG479XW","A8V0L2YF8U6OX","3566S7OX5D5NH74JOVOPTTMK8IR17K","","84","img/land4.png","75","85.39999999850988","2","1","2","1","0.8,0.2,0.2,0.2,0.8,0.2,0.2,0.2,0.8","0.8,0.2,0.2,0.2,0.8,0.2,0.2,0.2,0.8","1","",""
"","html-keyboard-response","159","91220","0.0-159.0","3LBXNTKX0SH17BBZ1NCIRHDFG479XW","A8V0L2YF8U6OX","3566S7OX5D5NH74JOVOPTTMK8IR17K","","null","<img src=""img/land4.png"" style=""width:200px; border:14px solid green;"">","null","","","","","","","","","",""
"","image-keyboard-response","160","91283","0.0-160.0","3LBXNTKX0SH17BBZ1NCIRHDFG479XW","A8V0L2YF8U6OX","3566S7OX5D5NH74JOVOPTTMK8IR17K","","61.600000001490116","img/land4.png","75","62.899999998509884","2","0","2","1","0.8,0.2,0.2,0.2,0.8,0.2,0.2,0.2,0.8","0.8,0.2,0.2,0.2,0.8,0.2,0.2,0.2,0.8","1","",""
"","html-keyboard-response","161","91585","0.0-161.0","3LBXNTKX0SH17BBZ1NCIRHDFG479XW","A8V0L2YF8U6OX","3566S7OX5D5NH74JOVOPTTMK8IR17K","","null","<img src=""img/land4.png"" style=""width:200px;border:14px solid red;"">","null","","","","","","","","","",""
"","image-keyboard-response","162","91657","0.0-162.0","3LBXNTKX0SH17BBZ1NCIRHDFG479XW","A8V0L2YF8U6OX","3566S7OX5D5NH74JOVOPTTMK8IR17K","","70.40000000037253","img/land6.png","75","71.70000000111759","2","0","1","1","0.8,0.2,0.2,0.2,0.8,0.2,0.2,0.2,0.8","0.8,0.2,0.2,0.2,0.8,0.2,0.2,0.2,0.8","1","",""
"","html-keyboard-response","163","91959","0.0-163.0","3LBXNTKX0SH17BBZ1NCIRHDFG479XW","A8V0L2YF8U6OX","3566S7OX5D5NH74JOVOPTTMK8IR17K","","null","<img src=""img/land6.png"" style=""width:200px;border:14px solid red;"">","null","","","","","","","","","",""
"","image-keyboard-response","164","92017","0.0-164.0","3LBXNTKX0SH17BBZ1NCIRHDFG479XW","A8V0L2YF8U6OX","3566S7OX5D5NH74JOVOPTTMK8IR17K","","56.5","img/land1.png","75","57.80000000074506","2","0","3","1","0.8,0.2,0.2,0.2,0.8,0.2,0.2,0.2,0.8","0.8,0.2,0.2,0.2,0.8,0.2,0.2,0.2,0.8","1","",""
"","html-keyboard-response","165","92319","0.0-165.0","3LBXNTKX0SH17BBZ1NCIRHDFG479XW","A8V0L2YF8U6OX","3566S7OX5D5NH74JOVOPTTMK8IR17K","","null","<img src=""img/land1.png"" style=""width:200px;border:14px solid red;"">","null","","","","","","","","","",""
"","image-keyboard-response","166","92407","0.0-166.0","3LBXNTKX0SH17BBZ1NCIRHDFG479XW","A8V0L2YF8U6OX","3566S7OX5D5NH74JOVOPTTMK8IR17K","","86.30000000074506","img/land4.png","75","87.69999999925494","2","0","2","1","0.8,0.2,0.2,0.2,0.8,0.2,0.2,0.2,0.8","0.8,0.2,0.2,0.2,0.8,0.2,0.2,0.2,0.8","1","",""
"","html-keyboard-response","167","92709","0.0-167.0","3LBXNTKX0SH17BBZ1NCIRHDFG479XW","A8V0L2YF8U6OX","3566S7OX5D5NH74JOVOPTTMK8IR17K","","null","<img src=""img/land4.png"" style=""width:200px;border:14px solid red;"">","null","","","","","","","","","",""
"","image-keyboard-response","168","92797","0.0-168.0","3LBXNTKX0SH17BBZ1NCIRHDFG479XW","A8V0L2YF8U6OX","3566S7OX5D5NH74JOVOPTTMK8IR17K","","85.59999999962747","img/land6.png","75","87.30000000074506","2","1","1","1","0.8,0.2,0.2,0.2,0.8,0.2,0.2,0.2,0.8","0.8,0.2,0.2,0.2,0.8,0.2,0.2,0.2,0.8","1","",""
"","html-keyboard-response","169","93099","0.0-169.0","3LBXNTKX0SH17BBZ1NCIRHDFG479XW","A8V0L2YF8U6OX","3566S7OX5D5NH74JOVOPTTMK8IR17K","","null","<img src=""img/land6.png"" style=""width:200px; border:14px solid green;"">","null","","","","","","","","","",""
"","image-keyboard-response","170","93149","0.0-170.0","3LBXNTKX0SH17BBZ1NCIRHDFG479XW","A8V0L2YF8U6OX","3566S7OX5D5NH74JOVOPTTMK8IR17K","","47.79999999888241","img/land4.png","75","49.29999999888241","2","1","2","1","0.8,0.2,0.2,0.2,0.8,0.2,0.2,0.2,0.8","0.8,0.2,0.2,0.2,0.8,0.2,0.2,0.2,0.8","1","",""
"","html-keyboard-response","171","93451","0.0-171.0","3LBXNTKX0SH17BBZ1NCIRHDFG479XW","A8V0L2YF8U6OX","3566S7OX5D5NH74JOVOPTTMK8IR17K","","null","<img src=""img/land4.png"" style=""width:200px; border:14px solid green;"">","null","","","","","","","","","",""
"","image-keyboard-response","172","93533","0.0-172.0","3LBXNTKX0SH17BBZ1NCIRHDFG479XW","A8V0L2YF8U6OX","3566S7OX5D5NH74JOVOPTTMK8IR17K","","80.80000000074506","img/land4.png","75","82","2","0","2","1","0.8,0.2,0.2,0.2,0.8,0.2,0.2,0.2,0.8","0.8,0.2,0.2,0.2,0.8,0.2,0.2,0.2,0.8","1","",""
"","html-keyboard-response","173","93835","0.0-173.0","3LBXNTKX0SH17BBZ1NCIRHDFG479XW","A8V0L2YF8U6OX","3566S7OX5D5NH74JOVOPTTMK8IR17K","","null","<img src=""img/land4.png"" style=""width:200px;border:14px solid red;"">","null","","","","","","","","","",""
"","image-keyboard-response","174","93949","0.0-174.0","3LBXNTKX0SH17BBZ1NCIRHDFG479XW","A8V0L2YF8U6OX","3566S7OX5D5NH74JOVOPTTMK8IR17K","","112.30000000074506","img/land1.png","75","113.40000000037253","2","0","3","1","0.8,0.2,0.2,0.2,0.8,0.2,0.2,0.2,0.8","0.8,0.2,0.2,0.2,0.8,0.2,0.2,0.2,0.8","1","",""
"","html-keyboard-response","175","94252","0.0-175.0","3LBXNTKX0SH17BBZ1NCIRHDFG479XW","A8V0L2YF8U6OX","3566S7OX5D5NH74JOVOPTTMK8IR17K","","null","<img src=""img/land1.png"" style=""width:200px;border:14px solid red;"">","null","","","","","","","","","",""
"","image-keyboard-response","176","94302","0.0-176.0","3LBXNTKX0SH17BBZ1NCIRHDFG479XW","A8V0L2YF8U6OX","3566S7OX5D5NH74JOVOPTTMK8IR17K","","48","img/land6.png","75","49.5","2","0","1","1","0.8,0.2,0.2,0.2,0.8,0.2,0.2,0.2,0.8","0.8,0.2,0.2,0.2,0.8,0.2,0.2,0.2,0.8","1","",""
"","html-keyboard-response","177","94604","0.0-177.0","3LBXNTKX0SH17BBZ1NCIRHDFG479XW","A8V0L2YF8U6OX","3566S7OX5D5NH74JOVOPTTMK8IR17K","","null","<img src=""img/land6.png"" style=""width:200px;border:14px solid red;"">","null","","","","","","","","","",""
"","image-keyboard-response","178","94658","0.0-178.0","3LBXNTKX0SH17BBZ1NCIRHDFG479XW","A8V0L2YF8U6OX","3566S7OX5D5NH74JOVOPTTMK8IR17K","","52.70000000111759","img/land1.png","75","53.90000000037253","2","0","3","1","0.8,0.2,0.2,0.2,0.8,0.2,0.2,0.2,0.8","0.8,0.2,0.2,0.2,0.8,0.2,0.2,0.2,0.8","1","",""
"","html-keyboard-response","179","94960","0.0-179.0","3LBXNTKX0SH17BBZ1NCIRHDFG479XW","A8V0L2YF8U6OX","3566S7OX5D5NH74JOVOPTTMK8IR17K","","null","<img src=""img/land1.png"" style=""width:200px;border:14px solid red;"">","null","","","","","","","","","",""
"","image-keyboard-response","180","95003","0.0-180.0","3LBXNTKX0SH17BBZ1NCIRHDFG479XW","A8V0L2YF8U6OX","3566S7OX5D5NH74JOVOPTTMK8IR17K","","40.80000000074506","img/land6.png","75","42.59999999962747","2","0","1","1","0.8,0.2,0.2,0.2,0.8,0.2,0.2,0.2,0.8","0.8,0.2,0.2,0.2,0.8,0.2,0.2,0.2,0.8","1","",""
"","html-keyboard-response","181","95305","0.0-181.0","3LBXNTKX0SH17BBZ1NCIRHDFG479XW","A8V0L2YF8U6OX","3566S7OX5D5NH74JOVOPTTMK8IR17K","","null","<img src=""img/land6.png"" style=""width:200px;border:14px solid red;"">","null","","","","","","","","","",""
"","html-keyboard-response","182","97872","0.0-182.0","3LBXNTKX0SH17BBZ1NCIRHDFG479XW","A8V0L2YF8U6OX","3566S7OX5D5NH74JOVOPTTMK8IR17K","","","","","","","","","","","","","",""
"","image-keyboard-response","183","98986","0.0-183.0","3LBXNTKX0SH17BBZ1NCIRHDFG479XW","A8V0L2YF8U6OX","3566S7OX5D5NH74JOVOPTTMK8IR17K","","1111.4000000003725","img/land5.png","76","1113.4000000003725","3","0","1","2","0.8,0.2,0.2,0.2,0.8,0.2,0.2,0.2,0.8","0.2,0.8,0.2,0.2,0.2,0.8,0.8,0.2,0.2","3","",""
"","html-keyboard-response","184","99288","0.0-184.0","3LBXNTKX0SH17BBZ1NCIRHDFG479XW","A8V0L2YF8U6OX","3566S7OX5D5NH74JOVOPTTMK8IR17K","","null","<img src=""img/land5.png"" style=""width:200px;border:14px solid red;"">","null","","","","","","","","","",""
"","image-keyboard-response","185","99475","0.0-185.0","3LBXNTKX0SH17BBZ1NCIRHDFG479XW","A8V0L2YF8U6OX","3566S7OX5D5NH74JOVOPTTMK8IR17K","","185.2000000011176","img/land5.png","75","186.80000000074506","2","1","1","2","0.8,0.2,0.2,0.2,0.8,0.2,0.2,0.2,0.8","0.2,0.8,0.2,0.2,0.2,0.8,0.8,0.2,0.2","3","",""
"","html-keyboard-response","186","99778","0.0-186.0","3LBXNTKX0SH17BBZ1NCIRHDFG479XW","A8V0L2YF8U6OX","3566S7OX5D5NH74JOVOPTTMK8IR17K","","null","<img src=""img/land5.png"" style=""width:200px; border:14px solid green;"">","null","","","","","","","","","",""
"","image-keyboard-response","187","99924","0.0-187.0","3LBXNTKX0SH17BBZ1NCIRHDFG479XW","A8V0L2YF8U6OX","3566S7OX5D5NH74JOVOPTTMK8IR17K","","144.59999999962747","img/land5.png","74","146","1","1","1","2","0.8,0.2,0.2,0.2,0.8,0.2,0.2,0.2,0.8","0.2,0.8,0.2,0.2,0.2,0.8,0.8,0.2,0.2","3","",""
"","html-keyboard-response","188","100226","0.0-188.0","3LBXNTKX0SH17BBZ1NCIRHDFG479XW","A8V0L2YF8U6OX","3566S7OX5D5NH74JOVOPTTMK8IR17K","","null","<img src=""img/land5.png"" style=""width:200px; border:14px solid green;"">","null","","","","","","","","","",""
"","image-keyboard-response","189","100749","0.0-189.0","3LBXNTKX0SH17BBZ1NCIRHDFG479XW","A8V0L2YF8U6OX","3566S7OX5D5NH74JOVOPTTMK8IR17K","","521","img/land5.png","74","522.4000000003725","1","0","1","2","0.8,0.2,0.2,0.2,0.8,0.2,0.2,0.2,0.8","0.2,0.8,0.2,0.2,0.2,0.8,0.8,0.2,0.2","3","",""
"","html-keyboard-response","190","101052","0.0-190.0","3LBXNTKX0SH17BBZ1NCIRHDFG479XW","A8V0L2YF8U6OX","3566S7OX5D5NH74JOVOPTTMK8IR17K","","null","<img src=""img/land5.png"" style=""width:200px;border:14px solid red;"">","null","","","","","","","","","",""
"","image-keyboard-response","191","101176","0.0-191.0","3LBXNTKX0SH17BBZ1NCIRHDFG479XW","A8V0L2YF8U6OX","3566S7OX5D5NH74JOVOPTTMK8IR17K","","122.19999999925494","img/land2.png","74","123.80000000074506","1","1","3","2","0.8,0.2,0.2,0.2,0.8,0.2,0.2,0.2,0.8","0.2,0.8,0.2,0.2,0.2,0.8,0.8,0.2,0.2","3","",""
"","html-keyboard-response","192","101478","0.0-192.0","3LBXNTKX0SH17BBZ1NCIRHDFG479XW","A8V0L2YF8U6OX","3566S7OX5D5NH74JOVOPTTMK8IR17K","","null","<img src=""img/land2.png"" style=""width:200px; border:14px solid green;"">","null","","","","","","","","","",""
"","image-keyboard-response","193","101681","0.0-193.0","3LBXNTKX0SH17BBZ1NCIRHDFG479XW","A8V0L2YF8U6OX","3566S7OX5D5NH74JOVOPTTMK8IR17K","","200.80000000074506","img/land5.png","74","202.2999999988824","1","0","1","2","0.8,0.2,0.2,0.2,0.8,0.2,0.2,0.2,0.8","0.2,0.8,0.2,0.2,0.2,0.8,0.8,0.2,0.2","3","",""
"","html-keyboard-response","194","101983","0.0-194.0","3LBXNTKX0SH17BBZ1NCIRHDFG479XW","A8V0L2YF8U6OX","3566S7OX5D5NH74JOVOPTTMK8IR17K","","null","<img src=""img/land5.png"" style=""width:200px;border:14px solid red;"">","null","","","","","","","","","",""
"","image-keyboard-response","195","102527","0.0-195.0","3LBXNTKX0SH17BBZ1NCIRHDFG479XW","A8V0L2YF8U6OX","3566S7OX5D5NH74JOVOPTTMK8IR17K","","541.5","img/land5.png","74","542.9000000003725","1","0","1","2","0.8,0.2,0.2,0.2,0.8,0.2,0.2,0.2,0.8","0.2,0.8,0.2,0.2,0.2,0.8,0.8,0.2,0.2","3","",""
"","html-keyboard-response","196","102829","0.0-196.0","3LBXNTKX0SH17BBZ1NCIRHDFG479XW","A8V0L2YF8U6OX","3566S7OX5D5NH74JOVOPTTMK8IR17K","","null","<img src=""img/land5.png"" style=""width:200px;border:14px solid red;"">","null","","","","","","","","","",""
"","image-keyboard-response","197","103009","0.0-197.0","3LBXNTKX0SH17BBZ1NCIRHDFG479XW","A8V0L2YF8U6OX","3566S7OX5D5NH74JOVOPTTMK8IR17K","","178.39999999850988","img/land5.png","74","179.7999999988824","1","0","1","2","0.8,0.2,0.2,0.2,0.8,0.2,0.2,0.2,0.8","0.2,0.8,0.2,0.2,0.2,0.8,0.8,0.2,0.2","3","",""
"","html-keyboard-response","198","103311","0.0-198.0","3LBXNTKX0SH17BBZ1NCIRHDFG479XW","A8V0L2YF8U6OX","3566S7OX5D5NH74JOVOPTTMK8IR17K","","null","<img src=""img/land5.png"" style=""width:200px;border:14px solid red;"">","null","","","","","","","","","",""
"","image-keyboard-response","199","103505","0.0-199.0","3LBXNTKX0SH17BBZ1NCIRHDFG479XW","A8V0L2YF8U6OX","3566S7OX5D5NH74JOVOPTTMK8IR17K","","192.5","img/land5.png","75","194","2","1","1","2","0.8,0.2,0.2,0.2,0.8,0.2,0.2,0.2,0.8","0.2,0.8,0.2,0.2,0.2,0.8,0.8,0.2,0.2","3","",""
"","html-keyboard-response","200","103807","0.0-200.0","3LBXNTKX0SH17BBZ1NCIRHDFG479XW","A8V0L2YF8U6OX","3566S7OX5D5NH74JOVOPTTMK8IR17K","","null","<img src=""img/land5.png"" style=""width:200px; border:14px solid green;"">","null","","","","","","","","","",""
"","image-keyboard-response","201","104026","0.0-201.0","3LBXNTKX0SH17BBZ1NCIRHDFG479XW","A8V0L2YF8U6OX","3566S7OX5D5NH74JOVOPTTMK8IR17K","","217.09999999962747","img/land5.png","75","218.7000000011176","2","1","1","2","0.8,0.2,0.2,0.2,0.8,0.2,0.2,0.2,0.8","0.2,0.8,0.2,0.2,0.2,0.8,0.8,0.2,0.2","3","",""
"","html-keyboard-response","202","104329","0.0-202.0","3LBXNTKX0SH17BBZ1NCIRHDFG479XW","A8V0L2YF8U6OX","3566S7OX5D5NH74JOVOPTTMK8IR17K","","null","<img src=""img/land5.png"" style=""width:200px; border:14px solid green;"">","null","","","","","","","","","",""
"","image-keyboard-response","203","104575","0.0-203.0","3LBXNTKX0SH17BBZ1NCIRHDFG479XW","A8V0L2YF8U6OX","3566S7OX5D5NH74JOVOPTTMK8IR17K","","244.19999999925494","img/land5.png","75","245.90000000037253","2","1","1","2","0.8,0.2,0.2,0.2,0.8,0.2,0.2,0.2,0.8","0.2,0.8,0.2,0.2,0.2,0.8,0.8,0.2,0.2","3","",""
"","html-keyboard-response","204","104877","0.0-204.0","3LBXNTKX0SH17BBZ1NCIRHDFG479XW","A8V0L2YF8U6OX","3566S7OX5D5NH74JOVOPTTMK8IR17K","","null","<img src=""img/land5.png"" style=""width:200px; border:14px solid green;"">","null","","","","","","","","","",""
"","image-keyboard-response","205","105234","0.0-205.0","3LBXNTKX0SH17BBZ1NCIRHDFG479XW","A8V0L2YF8U6OX","3566S7OX5D5NH74JOVOPTTMK8IR17K","","353.80000000074506","img/land5.png","75","357","2","0","1","2","0.8,0.2,0.2,0.2,0.8,0.2,0.2,0.2,0.8","0.2,0.8,0.2,0.2,0.2,0.8,0.8,0.2,0.2","3","",""
"","html-keyboard-response","206","105536","0.0-206.0","3LBXNTKX0SH17BBZ1NCIRHDFG479XW","A8V0L2YF8U6OX","3566S7OX5D5NH74JOVOPTTMK8IR17K","","null","<img src=""img/land5.png"" style=""width:200px;border:14px solid red;"">","null","","","","","","","","","",""
"","image-keyboard-response","207","105805","0.0-207.0","3LBXNTKX0SH17BBZ1NCIRHDFG479XW","A8V0L2YF8U6OX","3566S7OX5D5NH74JOVOPTTMK8IR17K","","267.09999999962747","img/land5.png","74","268.2999999988824","1","0","1","2","0.8,0.2,0.2,0.2,0.8,0.2,0.2,0.2,0.8","0.2,0.8,0.2,0.2,0.2,0.8,0.8,0.2,0.2","3","",""
"","html-keyboard-response","208","106107","0.0-208.0","3LBXNTKX0SH17BBZ1NCIRHDFG479XW","A8V0L2YF8U6OX","3566S7OX5D5NH74JOVOPTTMK8IR17K","","null","<img src=""img/land5.png"" style=""width:200px;border:14px solid red;"">","null","","","","","","","","","",""
"","image-keyboard-response","209","106264","0.0-209.0","3LBXNTKX0SH17BBZ1NCIRHDFG479XW","A8V0L2YF8U6OX","3566S7OX5D5NH74JOVOPTTMK8IR17K","","154.5","img/land2.png","75","155.80000000074506","2","0","3","2","0.8,0.2,0.2,0.2,0.8,0.2,0.2,0.2,0.8","0.2,0.8,0.2,0.2,0.2,0.8,0.8,0.2,0.2","3","",""
"","html-keyboard-response","210","106566","0.0-210.0","3LBXNTKX0SH17BBZ1NCIRHDFG479XW","A8V0L2YF8U6OX","3566S7OX5D5NH74JOVOPTTMK8IR17K","","null","<img src=""img/land2.png"" style=""width:200px;border:14px solid red;"">","null","","","","","","","","","",""
"","image-keyboard-response","211","106816","0.0-211.0","3LBXNTKX0SH17BBZ1NCIRHDFG479XW","A8V0L2YF8U6OX","3566S7OX5D5NH74JOVOPTTMK8IR17K","","248.19999999925494","img/land3.png","75","249.7000000011176","2","0","2","2","0.8,0.2,0.2,0.2,0.8,0.2,0.2,0.2,0.8","0.2,0.8,0.2,0.2,0.2,0.8,0.8,0.2,0.2","3","",""
"","html-keyboard-response","212","107119","0.0-212.0","3LBXNTKX0SH17BBZ1NCIRHDFG479XW","A8V0L2YF8U6OX","3566S7OX5D5NH74JOVOPTTMK8IR17K","","null","<img src=""img/land3.png"" style=""width:200px;border:14px solid red;"">","null","","","","","","","","","",""
"","image-keyboard-response","213","107207","0.0-213.0","3LBXNTKX0SH17BBZ1NCIRHDFG479XW","A8V0L2YF8U6OX","3566S7OX5D5NH74JOVOPTTMK8IR17K","","86.5","img/land5.png","76","87.90000000037253","3","0","1","2","0.8,0.2,0.2,0.2,0.8,0.2,0.2,0.2,0.8","0.2,0.8,0.2,0.2,0.2,0.8,0.8,0.2,0.2","3","",""
"","html-keyboard-response","214","107509","0.0-214.0","3LBXNTKX0SH17BBZ1NCIRHDFG479XW","A8V0L2YF8U6OX","3566S7OX5D5NH74JOVOPTTMK8IR17K","","null","<img src=""img/land5.png"" style=""width:200px;border:14px solid red;"">","null","","","","","","","","","",""
"","image-keyboard-response","215","107776","0.0-215.0","3LBXNTKX0SH17BBZ1NCIRHDFG479XW","A8V0L2YF8U6OX","3566S7OX5D5NH74JOVOPTTMK8IR17K","","265.40000000037253","img/land2.png","74","267","1","1","3","2","0.8,0.2,0.2,0.2,0.8,0.2,0.2,0.2,0.8","0.2,0.8,0.2,0.2,0.2,0.8,0.8,0.2,0.2","3","",""
"","html-keyboard-response","216","108078","0.0-216.0","3LBXNTKX0SH17BBZ1NCIRHDFG479XW","A8V0L2YF8U6OX","3566S7OX5D5NH74JOVOPTTMK8IR17K","","null","<img src=""img/land2.png"" style=""width:200px; border:14px solid green;"">","null","","","","","","","","","",""
"","image-keyboard-response","217","108372","0.0-217.0","3LBXNTKX0SH17BBZ1NCIRHDFG479XW","A8V0L2YF8U6OX","3566S7OX5D5NH74JOVOPTTMK8IR17K","","290.80000000074506","img/land2.png","75","292.40000000037253","2","1","3","2","0.8,0.2,0.2,0.2,0.8,0.2,0.2,0.2,0.8","0.2,0.8,0.2,0.2,0.2,0.8,0.8,0.2,0.2","3","",""
"","html-keyboard-response","218","108674","0.0-218.0","3LBXNTKX0SH17BBZ1NCIRHDFG479XW","A8V0L2YF8U6OX","3566S7OX5D5NH74JOVOPTTMK8IR17K","","null","<img src=""img/land2.png"" style=""width:200px; border:14px solid green;"">","null","","","","","","","","","",""
"","image-keyboard-response","219","108889","0.0-219.0","3LBXNTKX0SH17BBZ1NCIRHDFG479XW","A8V0L2YF8U6OX","3566S7OX5D5NH74JOVOPTTMK8IR17K","","213.2999999988824","img/land5.png","74","214.69999999925494","1","0","1","2","0.8,0.2,0.2,0.2,0.8,0.2,0.2,0.2,0.8","0.2,0.8,0.2,0.2,0.2,0.8,0.8,0.2,0.2","3","",""
"","html-keyboard-response","220","109191","0.0-220.0","3LBXNTKX0SH17BBZ1NCIRHDFG479XW","A8V0L2YF8U6OX","3566S7OX5D5NH74JOVOPTTMK8IR17K","","null","<img src=""img/land5.png"" style=""width:200px;border:14px solid red;"">","null","","","","","","","","","",""
"","image-keyboard-response","221","109346","0.0-221.0","3LBXNTKX0SH17BBZ1NCIRHDFG479XW","A8V0L2YF8U6OX","3566S7OX5D5NH74JOVOPTTMK8IR17K","","153.69999999925494","img/land5.png","75","155.09999999962747","2","0","1","2","0.8,0.2,0.2,0.2,0.8,0.2,0.2,0.2,0.8","0.2,0.8,0.2,0.2,0.2,0.8,0.8,0.2,0.2","3","",""
"","html-keyboard-response","222","109649","0.0-222.0","3LBXNTKX0SH17BBZ1NCIRHDFG479XW","A8V0L2YF8U6OX","3566S7OX5D5NH74JOVOPTTMK8IR17K","","null","<img src=""img/land5.png"" style=""width:200px;border:14px solid red;"">","null","","","","","","","","","",""
"","image-keyboard-response","223","109809","0.0-223.0","3LBXNTKX0SH17BBZ1NCIRHDFG479XW","A8V0L2YF8U6OX","3566S7OX5D5NH74JOVOPTTMK8IR17K","","158.59999999962747","img/land3.png","75","159.90000000037253","2","1","2","2","0.8,0.2,0.2,0.2,0.8,0.2,0.2,0.2,0.8","0.2,0.8,0.2,0.2,0.2,0.8,0.8,0.2,0.2","3","",""
"","html-keyboard-response","224","110111","0.0-224.0","3LBXNTKX0SH17BBZ1NCIRHDFG479XW","A8V0L2YF8U6OX","3566S7OX5D5NH74JOVOPTTMK8IR17K","","null","<img src=""img/land3.png"" style=""width:200px; border:14px solid green;"">","null","","","","","","","","","",""
"","image-keyboard-response","225","110227","0.0-225.0","3LBXNTKX0SH17BBZ1NCIRHDFG479XW","A8V0L2YF8U6OX","3566S7OX5D5NH74JOVOPTTMK8IR17K","","114.60000000149012","img/land2.png","74","116","1","0","3","2","0.8,0.2,0.2,0.2,0.8,0.2,0.2,0.2,0.8","0.2,0.8,0.2,0.2,0.2,0.8,0.8,0.2,0.2","3","",""
"","html-keyboard-response","226","110529","0.0-226.0","3LBXNTKX0SH17BBZ1NCIRHDFG479XW","A8V0L2YF8U6OX","3566S7OX5D5NH74JOVOPTTMK8IR17K","","null","<img src=""img/land2.png"" style=""width:200px;border:14px solid red;"">","null","","","","","","","","","",""
"","image-keyboard-response","227","110686","0.0-227.0","3LBXNTKX0SH17BBZ1NCIRHDFG479XW","A8V0L2YF8U6OX","3566S7OX5D5NH74JOVOPTTMK8IR17K","","154.2000000011176","img/land3.png","75","155.59999999962747","2","0","2","2","0.8,0.2,0.2,0.2,0.8,0.2,0.2,0.2,0.8","0.2,0.8,0.2,0.2,0.2,0.8,0.8,0.2,0.2","3","",""
"","html-keyboard-response","228","110988","0.0-228.0","3LBXNTKX0SH17BBZ1NCIRHDFG479XW","A8V0L2YF8U6OX","3566S7OX5D5NH74JOVOPTTMK8IR17K","","null","<img src=""img/land3.png"" style=""width:200px;border:14px solid red;"">","null","","","","","","","","","",""
"","image-keyboard-response","229","111151","0.0-229.0","3LBXNTKX0SH17BBZ1NCIRHDFG479XW","A8V0L2YF8U6OX","3566S7OX5D5NH74JOVOPTTMK8IR17K","","161.89999999850988","img/land5.png","74","163.40000000037253","1","0","1","2","0.8,0.2,0.2,0.2,0.8,0.2,0.2,0.2,0.8","0.2,0.8,0.2,0.2,0.2,0.8,0.8,0.2,0.2","3","",""
"","html-keyboard-response","230","111453","0.0-230.0","3LBXNTKX0SH17BBZ1NCIRHDFG479XW","A8V0L2YF8U6OX","3566S7OX5D5NH74JOVOPTTMK8IR17K","","null","<img src=""img/land5.png"" style=""width:200px;border:14px solid red;"">","null","","","","","","","","","",""
"","image-keyboard-response","231","111554","0.0-231.0","3LBXNTKX0SH17BBZ1NCIRHDFG479XW","A8V0L2YF8U6OX","3566S7OX5D5NH74JOVOPTTMK8IR17K","","98.20000000111759","img/land3.png","75","99.90000000037253","2","0","2","2","0.8,0.2,0.2,0.2,0.8,0.2,0.2,0.2,0.8","0.2,0.8,0.2,0.2,0.2,0.8,0.8,0.2,0.2","3","",""
"","html-keyboard-response","232","111856","0.0-232.0","3LBXNTKX0SH17BBZ1NCIRHDFG479XW","A8V0L2YF8U6OX","3566S7OX5D5NH74JOVOPTTMK8IR17K","","null","<img src=""img/land3.png"" style=""width:200px;border:14px solid red;"">","null","","","","","","","","","",""
"","image-keyboard-response","233","111909","0.0-233.0","3LBXNTKX0SH17BBZ1NCIRHDFG479XW","A8V0L2YF8U6OX","3566S7OX5D5NH74JOVOPTTMK8IR17K","","51.5","img/land5.png","75","53.20000000111759","2","1","1","2","0.8,0.2,0.2,0.2,0.8,0.2,0.2,0.2,0.8","0.2,0.8,0.2,0.2,0.2,0.8,0.8,0.2,0.2","3","",""
"","html-keyboard-response","234","112212","0.0-234.0","3LBXNTKX0SH17BBZ1NCIRHDFG479XW","A8V0L2YF8U6OX","3566S7OX5D5NH74JOVOPTTMK8IR17K","","null","<img src=""img/land5.png"" style=""width:200px; border:14px solid green;"">","null","","","","","","","","","",""
"","image-keyboard-response","235","112375","0.0-235.0","3LBXNTKX0SH17BBZ1NCIRHDFG479XW","A8V0L2YF8U6OX","3566S7OX5D5NH74JOVOPTTMK8IR17K","","160.30000000074506","img/land2.png","75","161.90000000037253","2","0","3","2","0.8,0.2,0.2,0.2,0.8,0.2,0.2,0.2,0.8","0.2,0.8,0.2,0.2,0.2,0.8,0.8,0.2,0.2","3","",""
"","html-keyboard-response","236","112677","0.0-236.0","3LBXNTKX0SH17BBZ1NCIRHDFG479XW","A8V0L2YF8U6OX","3566S7OX5D5NH74JOVOPTTMK8IR17K","","null","<img src=""img/land2.png"" style=""width:200px;border:14px solid red;"">","null","","","","","","","","","",""
"","image-keyboard-response","237","112819","0.0-237.0","3LBXNTKX0SH17BBZ1NCIRHDFG479XW","A8V0L2YF8U6OX","3566S7OX5D5NH74JOVOPTTMK8IR17K","","139.60000000149012","img/land5.png","76","141.09999999962747","3","0","1","2","0.8,0.2,0.2,0.2,0.8,0.2,0.2,0.2,0.8","0.2,0.8,0.2,0.2,0.2,0.8,0.8,0.2,0.2","3","",""
"","html-keyboard-response","238","113121","0.0-238.0","3LBXNTKX0SH17BBZ1NCIRHDFG479XW","A8V0L2YF8U6OX","3566S7OX5D5NH74JOVOPTTMK8IR17K","","null","<img src=""img/land5.png"" style=""width:200px;border:14px solid red;"">","null","","","","","","","","","",""
"","image-keyboard-response","239","113344","0.0-239.0","3LBXNTKX0SH17BBZ1NCIRHDFG479XW","A8V0L2YF8U6OX","3566S7OX5D5NH74JOVOPTTMK8IR17K","","221.7999999988824","img/land5.png","75","223.40000000037253","2","1","1","2","0.8,0.2,0.2,0.2,0.8,0.2,0.2,0.2,0.8","0.2,0.8,0.2,0.2,0.2,0.8,0.8,0.2,0.2","3","",""
"","html-keyboard-response","240","113647","0.0-240.0","3LBXNTKX0SH17BBZ1NCIRHDFG479XW","A8V0L2YF8U6OX","3566S7OX5D5NH74JOVOPTTMK8IR17K","","null","<img src=""img/land5.png"" style=""width:200px; border:14px solid green;"">","null","","","","","","","","","",""
"","image-keyboard-response","241","113719","0.0-241.0","3LBXNTKX0SH17BBZ1NCIRHDFG479XW","A8V0L2YF8U6OX","3566S7OX5D5NH74JOVOPTTMK8IR17K","","70.30000000074506","img/land5.png","75","71.69999999925494","2","1","1","2","0.8,0.2,0.2,0.2,0.8,0.2,0.2,0.2,0.8","0.2,0.8,0.2,0.2,0.2,0.8,0.8,0.2,0.2","3","",""
"","html-keyboard-response","242","114021","0.0-242.0","3LBXNTKX0SH17BBZ1NCIRHDFG479XW","A8V0L2YF8U6OX","3566S7OX5D5NH74JOVOPTTMK8IR17K","","null","<img src=""img/land5.png"" style=""width:200px; border:14px solid green;"">","null","","","","","","","","","",""
"","image-keyboard-response","243","114076","0.0-243.0","3LBXNTKX0SH17BBZ1NCIRHDFG479XW","A8V0L2YF8U6OX","3566S7OX5D5NH74JOVOPTTMK8IR17K","","52.5","img/land3.png","75","54.20000000111759","2","0","2","2","0.8,0.2,0.2,0.2,0.8,0.2,0.2,0.2,0.8","0.2,0.8,0.2,0.2,0.2,0.8,0.8,0.2,0.2","3","",""
"","html-keyboard-response","244","114379","0.0-244.0","3LBXNTKX0SH17BBZ1NCIRHDFG479XW","A8V0L2YF8U6OX","3566S7OX5D5NH74JOVOPTTMK8IR17K","","null","<img src=""img/land3.png"" style=""width:200px;border:14px solid red;"">","null","","","","","","","","","",""
"","image-keyboard-response","245","114680","0.0-245.0","3LBXNTKX0SH17BBZ1NCIRHDFG479XW","A8V0L2YF8U6OX","3566S7OX5D5NH74JOVOPTTMK8IR17K","","299.30000000074506","img/land5.png","75","300.5","2","1","1","2","0.8,0.2,0.2,0.2,0.8,0.2,0.2,0.2,0.8","0.2,0.8,0.2,0.2,0.2,0.8,0.8,0.2,0.2","3","",""
"","html-keyboard-response","246","114982","0.0-246.0","3LBXNTKX0SH17BBZ1NCIRHDFG479XW","A8V0L2YF8U6OX","3566S7OX5D5NH74JOVOPTTMK8IR17K","","null","<img src=""img/land5.png"" style=""width:200px; border:14px solid green;"">","null","","","","","","","","","",""
"","image-keyboard-response","247","115223","0.0-247.0","3LBXNTKX0SH17BBZ1NCIRHDFG479XW","A8V0L2YF8U6OX","3566S7OX5D5NH74JOVOPTTMK8IR17K","","239.7999999988824","img/land5.png","75","241.19999999925494","2","1","1","2","0.8,0.2,0.2,0.2,0.8,0.2,0.2,0.2,0.8","0.2,0.8,0.2,0.2,0.2,0.8,0.8,0.2,0.2","3","",""
"","html-keyboard-response","248","115525","0.0-248.0","3LBXNTKX0SH17BBZ1NCIRHDFG479XW","A8V0L2YF8U6OX","3566S7OX5D5NH74JOVOPTTMK8IR17K","","null","<img src=""img/land5.png"" style=""width:200px; border:14px solid green;"">","null","","","","","","","","","",""
"","image-keyboard-response","249","115705","0.0-249.0","3LBXNTKX0SH17BBZ1NCIRHDFG479XW","A8V0L2YF8U6OX","3566S7OX5D5NH74JOVOPTTMK8IR17K","","178.19999999925494","img/land5.png","75","179.40000000037253","2","1","1","2","0.8,0.2,0.2,0.2,0.8,0.2,0.2,0.2,0.8","0.2,0.8,0.2,0.2,0.2,0.8,0.8,0.2,0.2","3","",""
"","html-keyboard-response","250","116007","0.0-250.0","3LBXNTKX0SH17BBZ1NCIRHDFG479XW","A8V0L2YF8U6OX","3566S7OX5D5NH74JOVOPTTMK8IR17K","","null","<img src=""img/land5.png"" style=""width:200px; border:14px solid green;"">","null","","","","","","","","","",""
"","image-keyboard-response","251","116199","0.0-251.0","3LBXNTKX0SH17BBZ1NCIRHDFG479XW","A8V0L2YF8U6OX","3566S7OX5D5NH74JOVOPTTMK8IR17K","","189.80000000074506","img/land5.png","75","191.69999999925494","2","1","1","2","0.8,0.2,0.2,0.2,0.8,0.2,0.2,0.2,0.8","0.2,0.8,0.2,0.2,0.2,0.8,0.8,0.2,0.2","3","",""
"","html-keyboard-response","252","116502","0.0-252.0","3LBXNTKX0SH17BBZ1NCIRHDFG479XW","A8V0L2YF8U6OX","3566S7OX5D5NH74JOVOPTTMK8IR17K","","null","<img src=""img/land5.png"" style=""width:200px; border:14px solid green;"">","null","","","","","","","","","",""
"","image-keyboard-response","253","116656","0.0-253.0","3LBXNTKX0SH17BBZ1NCIRHDFG479XW","A8V0L2YF8U6OX","3566S7OX5D5NH74JOVOPTTMK8IR17K","","152.2999999988824","img/land5.png","75","153.59999999962747","2","1","1","2","0.8,0.2,0.2,0.2,0.8,0.2,0.2,0.2,0.8","0.2,0.8,0.2,0.2,0.2,0.8,0.8,0.2,0.2","3","",""
"","html-keyboard-response","254","116958","0.0-254.0","3LBXNTKX0SH17BBZ1NCIRHDFG479XW","A8V0L2YF8U6OX","3566S7OX5D5NH74JOVOPTTMK8IR17K","","null","<img src=""img/land5.png"" style=""width:200px; border:14px solid green;"">","null","","","","","","","","","",""
"","image-keyboard-response","255","117080","0.0-255.0","3LBXNTKX0SH17BBZ1NCIRHDFG479XW","A8V0L2YF8U6OX","3566S7OX5D5NH74JOVOPTTMK8IR17K","","120.29999999888241","img/land5.png","75","121.59999999962747","2","1","1","2","0.8,0.2,0.2,0.2,0.8,0.2,0.2,0.2,0.8","0.2,0.8,0.2,0.2,0.2,0.8,0.8,0.2,0.2","3","",""
"","html-keyboard-response","256","117383","0.0-256.0","3LBXNTKX0SH17BBZ1NCIRHDFG479XW","A8V0L2YF8U6OX","3566S7OX5D5NH74JOVOPTTMK8IR17K","","null","<img src=""img/land5.png"" style=""width:200px; border:14px solid green;"">","null","","","","","","","","","",""
"","image-keyboard-response","257","117474","0.0-257.0","3LBXNTKX0SH17BBZ1NCIRHDFG479XW","A8V0L2YF8U6OX","3566S7OX5D5NH74JOVOPTTMK8IR17K","","90.09999999962747","img/land3.png","75","91.30000000074506","2","0","2","2","0.8,0.2,0.2,0.2,0.8,0.2,0.2,0.2,0.8","0.2,0.8,0.2,0.2,0.2,0.8,0.8,0.2,0.2","3","",""
"","html-keyboard-response","258","117776","0.0-258.0","3LBXNTKX0SH17BBZ1NCIRHDFG479XW","A8V0L2YF8U6OX","3566S7OX5D5NH74JOVOPTTMK8IR17K","","null","<img src=""img/land3.png"" style=""width:200px;border:14px solid red;"">","null","","","","","","","","","",""
"","image-keyboard-response","259","117887","0.0-259.0","3LBXNTKX0SH17BBZ1NCIRHDFG479XW","A8V0L2YF8U6OX","3566S7OX5D5NH74JOVOPTTMK8IR17K","","108.90000000037253","img/land2.png","75","110.40000000037253","2","0","3","2","0.8,0.2,0.2,0.2,0.8,0.2,0.2,0.2,0.8","0.2,0.8,0.2,0.2,0.2,0.8,0.8,0.2,0.2","3","",""
"","html-keyboard-response","260","118189","0.0-260.0","3LBXNTKX0SH17BBZ1NCIRHDFG479XW","A8V0L2YF8U6OX","3566S7OX5D5NH74JOVOPTTMK8IR17K","","null","<img src=""img/land2.png"" style=""width:200px;border:14px solid red;"">","null","","","","","","","","","",""
"","image-keyboard-response","261","118270","0.0-261.0","3LBXNTKX0SH17BBZ1NCIRHDFG479XW","A8V0L2YF8U6OX","3566S7OX5D5NH74JOVOPTTMK8IR17K","","78.79999999888241","img/land3.png","75","80.20000000111759","2","0","2","2","0.8,0.2,0.2,0.2,0.8,0.2,0.2,0.2,0.8","0.2,0.8,0.2,0.2,0.2,0.8,0.8,0.2,0.2","3","",""
"","html-keyboard-response","262","118572","0.0-262.0","3LBXNTKX0SH17BBZ1NCIRHDFG479XW","A8V0L2YF8U6OX","3566S7OX5D5NH74JOVOPTTMK8IR17K","","null","<img src=""img/land3.png"" style=""width:200px;border:14px solid red;"">","null","","","","","","","","","",""
"","image-keyboard-response","263","118638","0.0-263.0","3LBXNTKX0SH17BBZ1NCIRHDFG479XW","A8V0L2YF8U6OX","3566S7OX5D5NH74JOVOPTTMK8IR17K","","64.40000000037253","img/land5.png","75","65.5","2","1","1","2","0.8,0.2,0.2,0.2,0.8,0.2,0.2,0.2,0.8","0.2,0.8,0.2,0.2,0.2,0.8,0.8,0.2,0.2","3","",""
"","html-keyboard-response","264","118941","0.0-264.0","3LBXNTKX0SH17BBZ1NCIRHDFG479XW","A8V0L2YF8U6OX","3566S7OX5D5NH74JOVOPTTMK8IR17K","","null","<img src=""img/land5.png"" style=""width:200px; border:14px solid green;"">","null","","","","","","","","","",""
"","image-keyboard-response","265","118997","0.0-265.0","3LBXNTKX0SH17BBZ1NCIRHDFG479XW","A8V0L2YF8U6OX","3566S7OX5D5NH74JOVOPTTMK8IR17K","","55","img/land5.png","75","56.5","2","1","1","2","0.8,0.2,0.2,0.2,0.8,0.2,0.2,0.2,0.8","0.2,0.8,0.2,0.2,0.2,0.8,0.8,0.2,0.2","3","",""
"","html-keyboard-response","266","119300","0.0-266.0","3LBXNTKX0SH17BBZ1NCIRHDFG479XW","A8V0L2YF8U6OX","3566S7OX5D5NH74JOVOPTTMK8IR17K","","null","<img src=""img/land5.png"" style=""width:200px; border:14px solid green;"">","null","","","","","","","","","",""
"","image-keyboard-response","267","119387","0.0-267.0","3LBXNTKX0SH17BBZ1NCIRHDFG479XW","A8V0L2YF8U6OX","3566S7OX5D5NH74JOVOPTTMK8IR17K","","85.5","img/land2.png","75","87","2","0","3","2","0.8,0.2,0.2,0.2,0.8,0.2,0.2,0.2,0.8","0.2,0.8,0.2,0.2,0.2,0.8,0.8,0.2,0.2","3","",""
"","html-keyboard-response","268","119689","0.0-268.0","3LBXNTKX0SH17BBZ1NCIRHDFG479XW","A8V0L2YF8U6OX","3566S7OX5D5NH74JOVOPTTMK8IR17K","","null","<img src=""img/land2.png"" style=""width:200px;border:14px solid red;"">","null","","","","","","","","","",""
"","image-keyboard-response","269","119758","0.0-269.0","3LBXNTKX0SH17BBZ1NCIRHDFG479XW","A8V0L2YF8U6OX","3566S7OX5D5NH74JOVOPTTMK8IR17K","","67.60000000149012","img/land2.png","75","69.09999999962747","2","0","3","2","0.8,0.2,0.2,0.2,0.8,0.2,0.2,0.2,0.8","0.2,0.8,0.2,0.2,0.2,0.8,0.8,0.2,0.2","3","",""
"","html-keyboard-response","270","120061","0.0-270.0","3LBXNTKX0SH17BBZ1NCIRHDFG479XW","A8V0L2YF8U6OX","3566S7OX5D5NH74JOVOPTTMK8IR17K","","null","<img src=""img/land2.png"" style=""width:200px;border:14px solid red;"">","null","","","","","","","","","",""
"","image-keyboard-response","271","120138","0.0-271.0","3LBXNTKX0SH17BBZ1NCIRHDFG479XW","A8V0L2YF8U6OX","3566S7OX5D5NH74JOVOPTTMK8IR17K","","75.59999999962747","img/land3.png","75","77.09999999962747","2","1","2","2","0.8,0.2,0.2,0.2,0.8,0.2,0.2,0.2,0.8","0.2,0.8,0.2,0.2,0.2,0.8,0.8,0.2,0.2","3","",""
"","html-keyboard-response","272","120440","0.0-272.0","3LBXNTKX0SH17BBZ1NCIRHDFG479XW","A8V0L2YF8U6OX","3566S7OX5D5NH74JOVOPTTMK8IR17K","","null","<img src=""img/land3.png"" style=""width:200px; border:14px solid green;"">","null","","","","","","","","","",""
"","image-keyboard-response","273","120519","0.0-273.0","3LBXNTKX0SH17BBZ1NCIRHDFG479XW","A8V0L2YF8U6OX","3566S7OX5D5NH74JOVOPTTMK8IR17K","","77.19999999925494","img/land3.png","75","78.80000000074506","2","0","2","2","0.8,0.2,0.2,0.2,0.8,0.2,0.2,0.2,0.8","0.2,0.8,0.2,0.2,0.2,0.8,0.8,0.2,0.2","3","",""
"","html-keyboard-response","274","120822","0.0-274.0","3LBXNTKX0SH17BBZ1NCIRHDFG479XW","A8V0L2YF8U6OX","3566S7OX5D5NH74JOVOPTTMK8IR17K","","null","<img src=""img/land3.png"" style=""width:200px;border:14px solid red;"">","null","","","","","","","","","",""
"","image-keyboard-response","275","120905","0.0-275.0","3LBXNTKX0SH17BBZ1NCIRHDFG479XW","A8V0L2YF8U6OX","3566S7OX5D5NH74JOVOPTTMK8IR17K","","82.09999999962747","img/land5.png","75","83.30000000074506","2","1","1","2","0.8,0.2,0.2,0.2,0.8,0.2,0.2,0.2,0.8","0.2,0.8,0.2,0.2,0.2,0.8,0.8,0.2,0.2","3","",""
"","html-keyboard-response","276","121207","0.0-276.0","3LBXNTKX0SH17BBZ1NCIRHDFG479XW","A8V0L2YF8U6OX","3566S7OX5D5NH74JOVOPTTMK8IR17K","","null","<img src=""img/land5.png"" style=""width:200px; border:14px solid green;"">","null","","","","","","","","","",""
"","image-keyboard-response","277","121298","0.0-277.0","3LBXNTKX0SH17BBZ1NCIRHDFG479XW","A8V0L2YF8U6OX","3566S7OX5D5NH74JOVOPTTMK8IR17K","","88.30000000074506","img/land5.png","75","89.89999999850988","2","1","1","2","0.8,0.2,0.2,0.2,0.8,0.2,0.2,0.2,0.8","0.2,0.8,0.2,0.2,0.2,0.8,0.8,0.2,0.2","3","",""
"","html-keyboard-response","278","121600","0.0-278.0","3LBXNTKX0SH17BBZ1NCIRHDFG479XW","A8V0L2YF8U6OX","3566S7OX5D5NH74JOVOPTTMK8IR17K","","null","<img src=""img/land5.png"" style=""width:200px; border:14px solid green;"">","null","","","","","","","","","",""
"","image-keyboard-response","279","121645","0.0-279.0","3LBXNTKX0SH17BBZ1NCIRHDFG479XW","A8V0L2YF8U6OX","3566S7OX5D5NH74JOVOPTTMK8IR17K","","42.69999999925494","img/land5.png","75","44.70000000111759","2","1","1","2","0.8,0.2,0.2,0.2,0.8,0.2,0.2,0.2,0.8","0.2,0.8,0.2,0.2,0.2,0.8,0.8,0.2,0.2","3","",""
"","html-keyboard-response","280","121947","0.0-280.0","3LBXNTKX0SH17BBZ1NCIRHDFG479XW","A8V0L2YF8U6OX","3566S7OX5D5NH74JOVOPTTMK8IR17K","","null","<img src=""img/land5.png"" style=""width:200px; border:14px solid green;"">","null","","","","","","","","","",""
"","image-keyboard-response","281","122020","0.0-281.0","3LBXNTKX0SH17BBZ1NCIRHDFG479XW","A8V0L2YF8U6OX","3566S7OX5D5NH74JOVOPTTMK8IR17K","","70.79999999888241","img/land3.png","75","72.30000000074506","2","0","2","2","0.8,0.2,0.2,0.2,0.8,0.2,0.2,0.2,0.8","0.2,0.8,0.2,0.2,0.2,0.8,0.8,0.2,0.2","3","",""
"","html-keyboard-response","282","122322","0.0-282.0","3LBXNTKX0SH17BBZ1NCIRHDFG479XW","A8V0L2YF8U6OX","3566S7OX5D5NH74JOVOPTTMK8IR17K","","null","<img src=""img/land3.png"" style=""width:200px;border:14px solid red;"">","null","","","","","","","","","",""
"","image-keyboard-response","283","122395","0.0-283.0","3LBXNTKX0SH17BBZ1NCIRHDFG479XW","A8V0L2YF8U6OX","3566S7OX5D5NH74JOVOPTTMK8IR17K","","70.90000000037253","img/land5.png","75","72.40000000037253","2","1","1","2","0.8,0.2,0.2,0.2,0.8,0.2,0.2,0.2,0.8","0.2,0.8,0.2,0.2,0.2,0.8,0.8,0.2,0.2","3","",""
"","html-keyboard-response","284","122697","0.0-284.0","3LBXNTKX0SH17BBZ1NCIRHDFG479XW","A8V0L2YF8U6OX","3566S7OX5D5NH74JOVOPTTMK8IR17K","","null","<img src=""img/land5.png"" style=""width:200px; border:14px solid green;"">","null","","","","","","","","","",""
"","image-keyboard-response","285","122780","0.0-285.0","3LBXNTKX0SH17BBZ1NCIRHDFG479XW","A8V0L2YF8U6OX","3566S7OX5D5NH74JOVOPTTMK8IR17K","","81.19999999925494","img/land5.png","75","82.60000000149012","2","1","1","2","0.8,0.2,0.2,0.2,0.8,0.2,0.2,0.2,0.8","0.2,0.8,0.2,0.2,0.2,0.8,0.8,0.2,0.2","3","",""
"","html-keyboard-response","286","123082","0.0-286.0","3LBXNTKX0SH17BBZ1NCIRHDFG479XW","A8V0L2YF8U6OX","3566S7OX5D5NH74JOVOPTTMK8IR17K","","null","<img src=""img/land5.png"" style=""width:200px; border:14px solid green;"">","null","","","","","","","","","",""
"","image-keyboard-response","287","123149","0.0-287.0","3LBXNTKX0SH17BBZ1NCIRHDFG479XW","A8V0L2YF8U6OX","3566S7OX5D5NH74JOVOPTTMK8IR17K","","65.40000000037253","img/land5.png","75","66.80000000074506","2","1","1","2","0.8,0.2,0.2,0.2,0.8,0.2,0.2,0.2,0.8","0.2,0.8,0.2,0.2,0.2,0.8,0.8,0.2,0.2","3","",""
"","html-keyboard-response","288","123451","0.0-288.0","3LBXNTKX0SH17BBZ1NCIRHDFG479XW","A8V0L2YF8U6OX","3566S7OX5D5NH74JOVOPTTMK8IR17K","","null","<img src=""img/land5.png"" style=""width:200px; border:14px solid green;"">","null","","","","","","","","","",""
"","image-keyboard-response","289","123526","0.0-289.0","3LBXNTKX0SH17BBZ1NCIRHDFG479XW","A8V0L2YF8U6OX","3566S7OX5D5NH74JOVOPTTMK8IR17K","","72.59999999962747","img/land5.png","75","73.90000000037253","2","1","1","2","0.8,0.2,0.2,0.2,0.8,0.2,0.2,0.2,0.8","0.2,0.8,0.2,0.2,0.2,0.8,0.8,0.2,0.2","3","",""
"","html-keyboard-response","290","123828","0.0-290.0","3LBXNTKX0SH17BBZ1NCIRHDFG479XW","A8V0L2YF8U6OX","3566S7OX5D5NH74JOVOPTTMK8IR17K","","null","<img src=""img/land5.png"" style=""width:200px; border:14px solid green;"">","null","","","","","","","","","",""
"","image-keyboard-response","291","123897","0.0-291.0","3LBXNTKX0SH17BBZ1NCIRHDFG479XW","A8V0L2YF8U6OX","3566S7OX5D5NH74JOVOPTTMK8IR17K","","67.19999999925494","img/land3.png","75","68.70000000111759","2","0","2","2","0.8,0.2,0.2,0.2,0.8,0.2,0.2,0.2,0.8","0.2,0.8,0.2,0.2,0.2,0.8,0.8,0.2,0.2","3","",""
"","html-keyboard-response","292","124200","0.0-292.0","3LBXNTKX0SH17BBZ1NCIRHDFG479XW","A8V0L2YF8U6OX","3566S7OX5D5NH74JOVOPTTMK8IR17K","","null","<img src=""img/land3.png"" style=""width:200px;border:14px solid red;"">","null","","","","","","","","","",""
"","image-keyboard-response","293","124267","0.0-293.0","3LBXNTKX0SH17BBZ1NCIRHDFG479XW","A8V0L2YF8U6OX","3566S7OX5D5NH74JOVOPTTMK8IR17K","","65","img/land5.png","75","66.19999999925494","2","0","1","2","0.8,0.2,0.2,0.2,0.8,0.2,0.2,0.2,0.8","0.2,0.8,0.2,0.2,0.2,0.8,0.8,0.2,0.2","3","",""
"","html-keyboard-response","294","124568","0.0-294.0","3LBXNTKX0SH17BBZ1NCIRHDFG479XW","A8V0L2YF8U6OX","3566S7OX5D5NH74JOVOPTTMK8IR17K","","null","<img src=""img/land5.png"" style=""width:200px;border:14px solid red;"">","null","","","","","","","","","",""
"","image-keyboard-response","295","124634","0.0-295.0","3LBXNTKX0SH17BBZ1NCIRHDFG479XW","A8V0L2YF8U6OX","3566S7OX5D5NH74JOVOPTTMK8IR17K","","64.30000000074506","img/land5.png","75","65.60000000149012","2","1","1","2","0.8,0.2,0.2,0.2,0.8,0.2,0.2,0.2,0.8","0.2,0.8,0.2,0.2,0.2,0.8,0.8,0.2,0.2","3","",""
"","html-keyboard-response","296","124937","0.0-296.0","3LBXNTKX0SH17BBZ1NCIRHDFG479XW","A8V0L2YF8U6OX","3566S7OX5D5NH74JOVOPTTMK8IR17K","","null","<img src=""img/land5.png"" style=""width:200px; border:14px solid green;"">","null","","","","","","","","","",""
"","image-keyboard-response","297","124989","0.0-297.0","3LBXNTKX0SH17BBZ1NCIRHDFG479XW","A8V0L2YF8U6OX","3566S7OX5D5NH74JOVOPTTMK8IR17K","","50.80000000074506","img/land5.png","75","52","2","1","1","2","0.8,0.2,0.2,0.2,0.8,0.2,0.2,0.2,0.8","0.2,0.8,0.2,0.2,0.2,0.8,0.8,0.2,0.2","3","",""
"","html-keyboard-response","298","125291","0.0-298.0","3LBXNTKX0SH17BBZ1NCIRHDFG479XW","A8V0L2YF8U6OX","3566S7OX5D5NH74JOVOPTTMK8IR17K","","null","<img src=""img/land5.png"" style=""width:200px; border:14px solid green;"">","null","","","","","","","","","",""
"","image-keyboard-response","299","125342","0.0-299.0","3LBXNTKX0SH17BBZ1NCIRHDFG479XW","A8V0L2YF8U6OX","3566S7OX5D5NH74JOVOPTTMK8IR17K","","49.100000001490116","img/land5.png","75","50.29999999888241","2","0","1","2","0.8,0.2,0.2,0.2,0.8,0.2,0.2,0.2,0.8","0.2,0.8,0.2,0.2,0.2,0.8,0.8,0.2,0.2","3","",""
"","html-keyboard-response","300","125644","0.0-300.0","3LBXNTKX0SH17BBZ1NCIRHDFG479XW","A8V0L2YF8U6OX","3566S7OX5D5NH74JOVOPTTMK8IR17K","","null","<img src=""img/land5.png"" style=""width:200px;border:14px solid red;"">","null","","","","","","","","","",""
"","image-keyboard-response","301","125714","0.0-301.0","3LBXNTKX0SH17BBZ1NCIRHDFG479XW","A8V0L2YF8U6OX","3566S7OX5D5NH74JOVOPTTMK8IR17K","","68","img/land3.png","75","69.29999999888241","2","1","2","2","0.8,0.2,0.2,0.2,0.8,0.2,0.2,0.2,0.8","0.2,0.8,0.2,0.2,0.2,0.8,0.8,0.2,0.2","3","",""
"","html-keyboard-response","302","126016","0.0-302.0","3LBXNTKX0SH17BBZ1NCIRHDFG479XW","A8V0L2YF8U6OX","3566S7OX5D5NH74JOVOPTTMK8IR17K","","null","<img src=""img/land3.png"" style=""width:200px; border:14px solid green;"">","null","","","","","","","","","",""
"","image-keyboard-response","303","126088","0.0-303.0","3LBXNTKX0SH17BBZ1NCIRHDFG479XW","A8V0L2YF8U6OX","3566S7OX5D5NH74JOVOPTTMK8IR17K","","70.90000000037253","img/land3.png","75","72.39999999850988","2","0","2","2","0.8,0.2,0.2,0.2,0.8,0.2,0.2,0.2,0.8","0.2,0.8,0.2,0.2,0.2,0.8,0.8,0.2,0.2","3","",""
"","html-keyboard-response","304","126390","0.0-304.0","3LBXNTKX0SH17BBZ1NCIRHDFG479XW","A8V0L2YF8U6OX","3566S7OX5D5NH74JOVOPTTMK8IR17K","","null","<img src=""img/land3.png"" style=""width:200px;border:14px solid red;"">","null","","","","","","","","","",""
"","image-keyboard-response","305","126426","0.0-305.0","3LBXNTKX0SH17BBZ1NCIRHDFG479XW","A8V0L2YF8U6OX","3566S7OX5D5NH74JOVOPTTMK8IR17K","","34.29999999888241","img/land5.png","75","35.59999999962747","2","1","1","2","0.8,0.2,0.2,0.2,0.8,0.2,0.2,0.2,0.8","0.2,0.8,0.2,0.2,0.2,0.8,0.8,0.2,0.2","3","",""
"","html-keyboard-response","306","126728","0.0-306.0","3LBXNTKX0SH17BBZ1NCIRHDFG479XW","A8V0L2YF8U6OX","3566S7OX5D5NH74JOVOPTTMK8IR17K","","null","<img src=""img/land5.png"" style=""width:200px; border:14px solid green;"">","null","","","","","","","","","",""
"","image-keyboard-response","307","127003","0.0-307.0","3LBXNTKX0SH17BBZ1NCIRHDFG479XW","A8V0L2YF8U6OX","3566S7OX5D5NH74JOVOPTTMK8IR17K","","273.19999999925494","img/land3.png","75","274.40000000037253","2","1","2","2","0.8,0.2,0.2,0.2,0.8,0.2,0.2,0.2,0.8","0.2,0.8,0.2,0.2,0.2,0.8,0.8,0.2,0.2","3","",""
"","html-keyboard-response","308","127305","0.0-308.0","3LBXNTKX0SH17BBZ1NCIRHDFG479XW","A8V0L2YF8U6OX","3566S7OX5D5NH74JOVOPTTMK8IR17K","","null","<img src=""img/land3.png"" style=""width:200px; border:14px solid green;"">","null","","","","","","","","","",""
"","image-keyboard-response","309","127431","0.0-309.0","3LBXNTKX0SH17BBZ1NCIRHDFG479XW","A8V0L2YF8U6OX","3566S7OX5D5NH74JOVOPTTMK8IR17K","","124.40000000037253","img/land5.png","75","125.90000000037253","2","1","1","2","0.8,0.2,0.2,0.2,0.8,0.2,0.2,0.2,0.8","0.2,0.8,0.2,0.2,0.2,0.8,0.8,0.2,0.2","3","",""
"","html-keyboard-response","310","127734","0.0-310.0","3LBXNTKX0SH17BBZ1NCIRHDFG479XW","A8V0L2YF8U6OX","3566S7OX5D5NH74JOVOPTTMK8IR17K","","null","<img src=""img/land5.png"" style=""width:200px; border:14px solid green;"">","null","","","","","","","","","",""
"","image-keyboard-response","311","127849","0.0-311.0","3LBXNTKX0SH17BBZ1NCIRHDFG479XW","A8V0L2YF8U6OX","3566S7OX5D5NH74JOVOPTTMK8IR17K","","113.5","img/land2.png","75","114.69999999925494","2","0","3","2","0.8,0.2,0.2,0.2,0.8,0.2,0.2,0.2,0.8","0.2,0.8,0.2,0.2,0.2,0.8,0.8,0.2,0.2","3","",""
"","html-keyboard-response","312","128151","0.0-312.0","3LBXNTKX0SH17BBZ1NCIRHDFG479XW","A8V0L2YF8U6OX","3566S7OX5D5NH74JOVOPTTMK8IR17K","","null","<img src=""img/land2.png"" style=""width:200px;border:14px solid red;"">","null","","","","","","","","","",""
"","image-keyboard-response","313","128252","0.0-313.0","3LBXNTKX0SH17BBZ1NCIRHDFG479XW","A8V0L2YF8U6OX","3566S7OX5D5NH74JOVOPTTMK8IR17K","","99.59999999962747","img/land5.png","75","101","2","0","1","2","0.8,0.2,0.2,0.2,0.8,0.2,0.2,0.2,0.8","0.2,0.8,0.2,0.2,0.2,0.8,0.8,0.2,0.2","3","",""
"","html-keyboard-response","314","128554","0.0-314.0","3LBXNTKX0SH17BBZ1NCIRHDFG479XW","A8V0L2YF8U6OX","3566S7OX5D5NH74JOVOPTTMK8IR17K","","null","<img src=""img/land5.png"" style=""width:200px;border:14px solid red;"">","null","","","","","","","","","",""
"","image-keyboard-response","315","128620","0.0-315.0","3LBXNTKX0SH17BBZ1NCIRHDFG479XW","A8V0L2YF8U6OX","3566S7OX5D5NH74JOVOPTTMK8IR17K","","63.80000000074506","img/land5.png","75","65","2","1","1","2","0.8,0.2,0.2,0.2,0.8,0.2,0.2,0.2,0.8","0.2,0.8,0.2,0.2,0.2,0.8,0.8,0.2,0.2","3","",""
"","html-keyboard-response","316","128922","0.0-316.0","3LBXNTKX0SH17BBZ1NCIRHDFG479XW","A8V0L2YF8U6OX","3566S7OX5D5NH74JOVOPTTMK8IR17K","","null","<img src=""img/land5.png"" style=""width:200px; border:14px solid green;"">","null","","","","","","","","","",""
"","image-keyboard-response","317","129047","0.0-317.0","3LBXNTKX0SH17BBZ1NCIRHDFG479XW","A8V0L2YF8U6OX","3566S7OX5D5NH74JOVOPTTMK8IR17K","","123.80000000074506","img/land3.png","75","125.30000000074506","2","1","2","2","0.8,0.2,0.2,0.2,0.8,0.2,0.2,0.2,0.8","0.2,0.8,0.2,0.2,0.2,0.8,0.8,0.2,0.2","3","",""
"","html-keyboard-response","318","129350","0.0-318.0","3LBXNTKX0SH17BBZ1NCIRHDFG479XW","A8V0L2YF8U6OX","3566S7OX5D5NH74JOVOPTTMK8IR17K","","null","<img src=""img/land3.png"" style=""width:200px; border:14px solid green;"">","null","","","","","","","","","",""
"","image-keyboard-response","319","129474","0.0-319.0","3LBXNTKX0SH17BBZ1NCIRHDFG479XW","A8V0L2YF8U6OX","3566S7OX5D5NH74JOVOPTTMK8IR17K","","122.39999999850988","img/land5.png","75","123.69999999925494","2","1","1","2","0.8,0.2,0.2,0.2,0.8,0.2,0.2,0.2,0.8","0.2,0.8,0.2,0.2,0.2,0.8,0.8,0.2,0.2","3","",""
"","html-keyboard-response","320","129776","0.0-320.0","3LBXNTKX0SH17BBZ1NCIRHDFG479XW","A8V0L2YF8U6OX","3566S7OX5D5NH74JOVOPTTMK8IR17K","","null","<img src=""img/land5.png"" style=""width:200px; border:14px solid green;"">","null","","","","","","","","","",""
"","image-keyboard-response","321","129916","0.0-321.0","3LBXNTKX0SH17BBZ1NCIRHDFG479XW","A8V0L2YF8U6OX","3566S7OX5D5NH74JOVOPTTMK8IR17K","","138.39999999850988","img/land2.png","75","140","2","0","3","2","0.8,0.2,0.2,0.2,0.8,0.2,0.2,0.2,0.8","0.2,0.8,0.2,0.2,0.2,0.8,0.8,0.2,0.2","3","",""
"","html-keyboard-response","322","130218","0.0-322.0","3LBXNTKX0SH17BBZ1NCIRHDFG479XW","A8V0L2YF8U6OX","3566S7OX5D5NH74JOVOPTTMK8IR17K","","null","<img src=""img/land2.png"" style=""width:200px;border:14px solid red;"">","null","","","","","","","","","",""
"","image-keyboard-response","323","130388","0.0-323.0","3LBXNTKX0SH17BBZ1NCIRHDFG479XW","A8V0L2YF8U6OX","3566S7OX5D5NH74JOVOPTTMK8IR17K","","168.09999999962747","img/land3.png","75","169.5","2","0","2","2","0.8,0.2,0.2,0.2,0.8,0.2,0.2,0.2,0.8","0.2,0.8,0.2,0.2,0.2,0.8,0.8,0.2,0.2","3","",""
"","html-keyboard-response","324","130689","0.0-324.0","3LBXNTKX0SH17BBZ1NCIRHDFG479XW","A8V0L2YF8U6OX","3566S7OX5D5NH74JOVOPTTMK8IR17K","","null","<img src=""img/land3.png"" style=""width:200px;border:14px solid red;"">","null","","","","","","","","","",""
"","image-keyboard-response","325","130790","0.0-325.0","3LBXNTKX0SH17BBZ1NCIRHDFG479XW","A8V0L2YF8U6OX","3566S7OX5D5NH74JOVOPTTMK8IR17K","","98.69999999925494","img/land3.png","75","100.09999999962747","2","0","2","2","0.8,0.2,0.2,0.2,0.8,0.2,0.2,0.2,0.8","0.2,0.8,0.2,0.2,0.2,0.8,0.8,0.2,0.2","3","",""
"","html-keyboard-response","326","131092","0.0-326.0","3LBXNTKX0SH17BBZ1NCIRHDFG479XW","A8V0L2YF8U6OX","3566S7OX5D5NH74JOVOPTTMK8IR17K","","null","<img src=""img/land3.png"" style=""width:200px;border:14px solid red;"">","null","","","","","","","","","",""
"","image-keyboard-response","327","131168","0.0-327.0","3LBXNTKX0SH17BBZ1NCIRHDFG479XW","A8V0L2YF8U6OX","3566S7OX5D5NH74JOVOPTTMK8IR17K","","74.5","img/land3.png","75","76","2","0","2","2","0.8,0.2,0.2,0.2,0.8,0.2,0.2,0.2,0.8","0.2,0.8,0.2,0.2,0.2,0.8,0.8,0.2,0.2","3","",""
"","html-keyboard-response","328","131470","0.0-328.0","3LBXNTKX0SH17BBZ1NCIRHDFG479XW","A8V0L2YF8U6OX","3566S7OX5D5NH74JOVOPTTMK8IR17K","","null","<img src=""img/land3.png"" style=""width:200px;border:14px solid red;"">","null","","","","","","","","","",""
"","image-keyboard-response","329","131661","0.0-329.0","3LBXNTKX0SH17BBZ1NCIRHDFG479XW","A8V0L2YF8U6OX","3566S7OX5D5NH74JOVOPTTMK8IR17K","","189.60000000149012","img/land2.png","74","190.90000000037253","1","0","3","2","0.8,0.2,0.2,0.2,0.8,0.2,0.2,0.2,0.8","0.2,0.8,0.2,0.2,0.2,0.8,0.8,0.2,0.2","3","",""
"","html-keyboard-response","330","131964","0.0-330.0","3LBXNTKX0SH17BBZ1NCIRHDFG479XW","A8V0L2YF8U6OX","3566S7OX5D5NH74JOVOPTTMK8IR17K","","null","<img src=""img/land2.png"" style=""width:200px;border:14px solid red;"">","null","","","","","","","","","",""
"","image-keyboard-response","331","132159","0.0-331.0","3LBXNTKX0SH17BBZ1NCIRHDFG479XW","A8V0L2YF8U6OX","3566S7OX5D5NH74JOVOPTTMK8IR17K","","193.7000000011176","img/land5.png","76","195.40000000037253","3","0","1","2","0.8,0.2,0.2,0.2,0.8,0.2,0.2,0.2,0.8","0.2,0.8,0.2,0.2,0.2,0.8,0.8,0.2,0.2","3","",""
"","html-keyboard-response","332","132461","0.0-332.0","3LBXNTKX0SH17BBZ1NCIRHDFG479XW","A8V0L2YF8U6OX","3566S7OX5D5NH74JOVOPTTMK8IR17K","","null","<img src=""img/land5.png"" style=""width:200px;border:14px solid red;"">","null","","","","","","","","","",""
"","image-keyboard-response","333","132658","0.0-333.0","3LBXNTKX0SH17BBZ1NCIRHDFG479XW","A8V0L2YF8U6OX","3566S7OX5D5NH74JOVOPTTMK8IR17K","","195.10000000149012","img/land5.png","75","196.40000000037253","2","1","1","2","0.8,0.2,0.2,0.2,0.8,0.2,0.2,0.2,0.8","0.2,0.8,0.2,0.2,0.2,0.8,0.8,0.2,0.2","3","",""
"","html-keyboard-response","334","132960","0.0-334.0","3LBXNTKX0SH17BBZ1NCIRHDFG479XW","A8V0L2YF8U6OX","3566S7OX5D5NH74JOVOPTTMK8IR17K","","null","<img src=""img/land5.png"" style=""width:200px; border:14px solid green;"">","null","","","","","","","","","",""
"","image-keyboard-response","335","133103","0.0-335.0","3LBXNTKX0SH17BBZ1NCIRHDFG479XW","A8V0L2YF8U6OX","3566S7OX5D5NH74JOVOPTTMK8IR17K","","140.90000000037253","img/land5.png","74","142.2999999988824","1","0","1","2","0.8,0.2,0.2,0.2,0.8,0.2,0.2,0.2,0.8","0.2,0.8,0.2,0.2,0.2,0.8,0.8,0.2,0.2","3","",""
"","html-keyboard-response","336","133406","0.0-336.0","3LBXNTKX0SH17BBZ1NCIRHDFG479XW","A8V0L2YF8U6OX","3566S7OX5D5NH74JOVOPTTMK8IR17K","","null","<img src=""img/land5.png"" style=""width:200px;border:14px solid red;"">","null","","","","","","","","","",""
"","image-keyboard-response","337","133593","0.0-337.0","3LBXNTKX0SH17BBZ1NCIRHDFG479XW","A8V0L2YF8U6OX","3566S7OX5D5NH74JOVOPTTMK8IR17K","","185","img/land2.png","76","186.80000000074506","3","0","3","2","0.8,0.2,0.2,0.2,0.8,0.2,0.2,0.2,0.8","0.2,0.8,0.2,0.2,0.2,0.8,0.8,0.2,0.2","3","",""
"","html-keyboard-response","338","133895","0.0-338.0","3LBXNTKX0SH17BBZ1NCIRHDFG479XW","A8V0L2YF8U6OX","3566S7OX5D5NH74JOVOPTTMK8IR17K","","null","<img src=""img/land2.png"" style=""width:200px;border:14px solid red;"">","null","","","","","","","","","",""
"","image-keyboard-response","339","134084","0.0-339.0","3LBXNTKX0SH17BBZ1NCIRHDFG479XW","A8V0L2YF8U6OX","3566S7OX5D5NH74JOVOPTTMK8IR17K","","186.40000000037253","img/land3.png","75","187.69999999925494","2","1","2","2","0.8,0.2,0.2,0.2,0.8,0.2,0.2,0.2,0.8","0.2,0.8,0.2,0.2,0.2,0.8,0.8,0.2,0.2","3","",""
"","html-keyboard-response","340","134385","0.0-340.0","3LBXNTKX0SH17BBZ1NCIRHDFG479XW","A8V0L2YF8U6OX","3566S7OX5D5NH74JOVOPTTMK8IR17K","","null","<img src=""img/land3.png"" style=""width:200px; border:14px solid green;"">","null","","","","","","","","","",""
"","image-keyboard-response","341","134587","0.0-341.0","3LBXNTKX0SH17BBZ1NCIRHDFG479XW","A8V0L2YF8U6OX","3566S7OX5D5NH74JOVOPTTMK8IR17K","","199.30000000074506","img/land2.png","74","200.7999999988824","1","1","3","2","0.8,0.2,0.2,0.2,0.8,0.2,0.2,0.2,0.8","0.2,0.8,0.2,0.2,0.2,0.8,0.8,0.2,0.2","3","",""
"","html-keyboard-response","342","134889","0.0-342.0","3LBXNTKX0SH17BBZ1NCIRHDFG479XW","A8V0L2YF8U6OX","3566S7OX5D5NH74JOVOPTTMK8IR17K","","null","<img src=""img/land2.png"" style=""width:200px; border:14px solid green;"">","null","","","","","","","","","",""
"","image-keyboard-response","343","135017","0.0-343.0","3LBXNTKX0SH17BBZ1NCIRHDFG479XW","A8V0L2YF8U6OX","3566S7OX5D5NH74JOVOPTTMK8IR17K","","125.69999999925494","img/land2.png","76","127.10000000149012","3","0","3","2","0.8,0.2,0.2,0.2,0.8,0.2,0.2,0.2,0.8","0.2,0.8,0.2,0.2,0.2,0.8,0.8,0.2,0.2","3","",""
"","html-keyboard-response","344","135319","0.0-344.0","3LBXNTKX0SH17BBZ1NCIRHDFG479XW","A8V0L2YF8U6OX","3566S7OX5D5NH74JOVOPTTMK8IR17K","","null","<img src=""img/land2.png"" style=""width:200px;border:14px solid red;"">","null","","","","","","","","","",""
"","image-keyboard-response","345","135328","0.0-345.0","3LBXNTKX0SH17BBZ1NCIRHDFG479XW","A8V0L2YF8U6OX","3566S7OX5D5NH74JOVOPTTMK8IR17K","","7.099999999627471","img/land5.png","74","8.700000001117587","1","1","1","2","0.8,0.2,0.2,0.2,0.8,0.2,0.2,0.2,0.8","0.2,0.8,0.2,0.2,0.2,0.8,0.8,0.2,0.2","3","",""
"","html-keyboard-response","346","135631","0.0-346.0","3LBXNTKX0SH17BBZ1NCIRHDFG479XW","A8V0L2YF8U6OX","3566S7OX5D5NH74JOVOPTTMK8IR17K","","null","<img src=""img/land5.png"" style=""width:200px; border:14px solid green;"">","null","","","","","","","","","",""
"","image-keyboard-response","347","135750","0.0-347.0","3LBXNTKX0SH17BBZ1NCIRHDFG479XW","A8V0L2YF8U6OX","3566S7OX5D5NH74JOVOPTTMK8IR17K","","117.69999999925494","img/land3.png","76","119.29999999888241","3","1","2","2","0.8,0.2,0.2,0.2,0.8,0.2,0.2,0.2,0.8","0.2,0.8,0.2,0.2,0.2,0.8,0.8,0.2,0.2","3","",""
"","html-keyboard-response","348","136052","0.0-348.0","3LBXNTKX0SH17BBZ1NCIRHDFG479XW","A8V0L2YF8U6OX","3566S7OX5D5NH74JOVOPTTMK8IR17K","","null","<img src=""img/land3.png"" style=""width:200px; border:14px solid green;"">","null","","","","","","","","","",""
"","image-keyboard-response","349","136198","0.0-349.0","3LBXNTKX0SH17BBZ1NCIRHDFG479XW","A8V0L2YF8U6OX","3566S7OX5D5NH74JOVOPTTMK8IR17K","","143.30000000074506","img/land5.png","75","145.09999999962747","2","1","1","2","0.8,0.2,0.2,0.2,0.8,0.2,0.2,0.2,0.8","0.2,0.8,0.2,0.2,0.2,0.8,0.8,0.2,0.2","3","",""
"","html-keyboard-response","350","136500","0.0-350.0","3LBXNTKX0SH17BBZ1NCIRHDFG479XW","A8V0L2YF8U6OX","3566S7OX5D5NH74JOVOPTTMK8IR17K","","null","<img src=""img/land5.png"" style=""width:200px; border:14px solid green;"">","null","","","","","","","","","",""
"","image-keyboard-response","351","136804","0.0-351.0","3LBXNTKX0SH17BBZ1NCIRHDFG479XW","A8V0L2YF8U6OX","3566S7OX5D5NH74JOVOPTTMK8IR17K","","302.09999999962747","img/land5.png","74","303.59999999962747","1","0","1","2","0.8,0.2,0.2,0.2,0.8,0.2,0.2,0.2,0.8","0.2,0.8,0.2,0.2,0.2,0.8,0.8,0.2,0.2","3","",""
"","html-keyboard-response","352","137106","0.0-352.0","3LBXNTKX0SH17BBZ1NCIRHDFG479XW","A8V0L2YF8U6OX","3566S7OX5D5NH74JOVOPTTMK8IR17K","","null","<img src=""img/land5.png"" style=""width:200px;border:14px solid red;"">","null","","","","","","","","","",""
"","image-keyboard-response","353","137258","0.0-353.0","3LBXNTKX0SH17BBZ1NCIRHDFG479XW","A8V0L2YF8U6OX","3566S7OX5D5NH74JOVOPTTMK8IR17K","","149.5","img/land3.png","76","150.80000000074506","3","1","2","2","0.8,0.2,0.2,0.2,0.8,0.2,0.2,0.2,0.8","0.2,0.8,0.2,0.2,0.2,0.8,0.8,0.2,0.2","3","",""
"","html-keyboard-response","354","137561","0.0-354.0","3LBXNTKX0SH17BBZ1NCIRHDFG479XW","A8V0L2YF8U6OX","3566S7OX5D5NH74JOVOPTTMK8IR17K","","null","<img src=""img/land3.png"" style=""width:200px; border:14px solid green;"">","null","","","","","","","","","",""
"","image-keyboard-response","355","137569","0.0-355.0","3LBXNTKX0SH17BBZ1NCIRHDFG479XW","A8V0L2YF8U6OX","3566S7OX5D5NH74JOVOPTTMK8IR17K","","5.5","img/land2.png","74","6.900000000372529","1","1","3","2","0.8,0.2,0.2,0.2,0.8,0.2,0.2,0.2,0.8","0.2,0.8,0.2,0.2,0.2,0.8,0.8,0.2,0.2","3","",""
"","html-keyboard-response","356","137870","0.0-356.0","3LBXNTKX0SH17BBZ1NCIRHDFG479XW","A8V0L2YF8U6OX","3566S7OX5D5NH74JOVOPTTMK8IR17K","","null","<img src=""img/land2.png"" style=""width:200px; border:14px solid green;"">","null","","","","","","","","","",""
