"success","trial_type","trial_index","time_elapsed","internal_node_id","assignmentID","mturkID","hitID","view_history","rt","stimulus","key_press","reactionTime","a","r","s","cond","reward_cond","reward_cond_actual","reward_matrix_idx","responses","question_order"
"true","fullscreen","0","9027","0.0-0.0","34J10VATJGKA9F3QJ3N3A2GP1EMIQF","A9LYIVFG3ZU4Z","3BDORL6HKKZHMTYWD6BFF6WBDQ9CRF","","","","","","","","","","","","","",""
"","instructions","1","31392","0.0-1.0","34J10VATJGKA9F3QJ3N3A2GP1EMIQF","A9LYIVFG3ZU4Z","3BDORL6HKKZHMTYWD6BFF6WBDQ9CRF","[{""page_index"":0,""viewing_time"":4155},{""page_index"":1,""viewing_time"":5342},{""page_index"":2,""viewing_time"":1220},{""page_index"":3,""viewing_time"":4100},{""page_index"":4,""viewing_time"":2480},{""page_index"":5,""viewing_time"":2580},{""page_index"":6,""viewing_time"":2485}]","22363","","","","","","","","","","","",""
"","image-keyboard-response","2","33394","0.0-2.0","34J10VATJGKA9F3QJ3N3A2GP1EMIQF","A9LYIVFG3ZU4Z","3BDORL6HKKZHMTYWD6BFF6WBDQ9CRF","","","img/land3.png","","2002","-1","0","2","1","1,0.5,0.5,0.5,1,0.5,0.5,0.5,1","1,0.5,0.5,0.5,1,0.5,0.5,0.5,1","1","",""
"","html-keyboard-response","3","33701","0.0-3.0","34J10VATJGKA9F3QJ3N3A2GP1EMIQF","A9LYIVFG3ZU4Z","3BDORL6HKKZHMTYWD6BFF6WBDQ9CRF","","null","<img src=""img/land3.png"" style=""width:200px;border:14px solid red;"">","null","","","","","","","","","",""
"","image-keyboard-response","4","33938","0.0-4.0","34J10VATJGKA9F3QJ3N3A2GP1EMIQF","A9LYIVFG3ZU4Z","3BDORL6HKKZHMTYWD6BFF6WBDQ9CRF","","236","img/land5.png","74","236","1","1","3","1","1,0.5,0.5,0.5,1,0.5,0.5,0.5,1","1,0.5,0.5,0.5,1,0.5,0.5,0.5,1","1","",""
"","html-keyboard-response","5","34240","0.0-5.0","34J10VATJGKA9F3QJ3N3A2GP1EMIQF","A9LYIVFG3ZU4Z","3BDORL6HKKZHMTYWD6BFF6WBDQ9CRF","","null","<img src=""img/land5.png"" style=""width:200px; border:14px solid green;"">","null","","","","","","","","","",""
"","image-keyboard-response","6","34287","0.0-6.0","34J10VATJGKA9F3QJ3N3A2GP1EMIQF","A9LYIVFG3ZU4Z","3BDORL6HKKZHMTYWD6BFF6WBDQ9CRF","","45","img/land3.png","75","46","2","1","2","1","1,0.5,0.5,0.5,1,0.5,0.5,0.5,1","1,0.5,0.5,0.5,1,0.5,0.5,0.5,1","1","",""
"","html-keyboard-response","7","34601","0.0-7.0","34J10VATJGKA9F3QJ3N3A2GP1EMIQF","A9LYIVFG3ZU4Z","3BDORL6HKKZHMTYWD6BFF6WBDQ9CRF","","null","<img src=""img/land3.png"" style=""width:200px; border:14px solid green;"">","null","","","","","","","","","",""
"","image-keyboard-response","8","34746","0.0-8.0","34J10VATJGKA9F3QJ3N3A2GP1EMIQF","A9LYIVFG3ZU4Z","3BDORL6HKKZHMTYWD6BFF6WBDQ9CRF","","125","img/land6.png","76","145","3","0","1","1","1,0.5,0.5,0.5,1,0.5,0.5,0.5,1","1,0.5,0.5,0.5,1,0.5,0.5,0.5,1","1","",""
"","html-keyboard-response","9","35048","0.0-9.0","34J10VATJGKA9F3QJ3N3A2GP1EMIQF","A9LYIVFG3ZU4Z","3BDORL6HKKZHMTYWD6BFF6WBDQ9CRF","","null","<img src=""img/land6.png"" style=""width:200px;border:14px solid red;"">","null","","","","","","","","","",""
"","image-keyboard-response","10","36577","0.0-10.0","34J10VATJGKA9F3QJ3N3A2GP1EMIQF","A9LYIVFG3ZU4Z","3BDORL6HKKZHMTYWD6BFF6WBDQ9CRF","","1529","img/land3.png","74","1529","1","1","2","1","1,0.5,0.5,0.5,1,0.5,0.5,0.5,1","1,0.5,0.5,0.5,1,0.5,0.5,0.5,1","1","",""
"","html-keyboard-response","11","36879","0.0-11.0","34J10VATJGKA9F3QJ3N3A2GP1EMIQF","A9LYIVFG3ZU4Z","3BDORL6HKKZHMTYWD6BFF6WBDQ9CRF","","null","<img src=""img/land3.png"" style=""width:200px; border:14px solid green;"">","null","","","","","","","","","",""
"","image-keyboard-response","12","37176","0.0-12.0","34J10VATJGKA9F3QJ3N3A2GP1EMIQF","A9LYIVFG3ZU4Z","3BDORL6HKKZHMTYWD6BFF6WBDQ9CRF","","296","img/land3.png","76","298","3","1","2","1","1,0.5,0.5,0.5,1,0.5,0.5,0.5,1","1,0.5,0.5,0.5,1,0.5,0.5,0.5,1","1","",""
"","html-keyboard-response","13","37479","0.0-13.0","34J10VATJGKA9F3QJ3N3A2GP1EMIQF","A9LYIVFG3ZU4Z","3BDORL6HKKZHMTYWD6BFF6WBDQ9CRF","","null","<img src=""img/land3.png"" style=""width:200px; border:14px solid green;"">","null","","","","","","","","","",""
"","image-keyboard-response","14","38387","0.0-14.0","34J10VATJGKA9F3QJ3N3A2GP1EMIQF","A9LYIVFG3ZU4Z","3BDORL6HKKZHMTYWD6BFF6WBDQ9CRF","","908","img/land6.png","75","908","2","1","1","1","1,0.5,0.5,0.5,1,0.5,0.5,0.5,1","1,0.5,0.5,0.5,1,0.5,0.5,0.5,1","1","",""
"","html-keyboard-response","15","38688","0.0-15.0","34J10VATJGKA9F3QJ3N3A2GP1EMIQF","A9LYIVFG3ZU4Z","3BDORL6HKKZHMTYWD6BFF6WBDQ9CRF","","null","<img src=""img/land6.png"" style=""width:200px; border:14px solid green;"">","null","","","","","","","","","",""
"","image-keyboard-response","16","40689","0.0-16.0","34J10VATJGKA9F3QJ3N3A2GP1EMIQF","A9LYIVFG3ZU4Z","3BDORL6HKKZHMTYWD6BFF6WBDQ9CRF","","","img/land6.png","","2001","-1","0","1","1","1,0.5,0.5,0.5,1,0.5,0.5,0.5,1","1,0.5,0.5,0.5,1,0.5,0.5,0.5,1","1","",""
"","html-keyboard-response","17","40990","0.0-17.0","34J10VATJGKA9F3QJ3N3A2GP1EMIQF","A9LYIVFG3ZU4Z","3BDORL6HKKZHMTYWD6BFF6WBDQ9CRF","","null","<img src=""img/land6.png"" style=""width:200px;border:14px solid red;"">","null","","","","","","","","","",""
"","image-keyboard-response","18","42991","0.0-18.0","34J10VATJGKA9F3QJ3N3A2GP1EMIQF","A9LYIVFG3ZU4Z","3BDORL6HKKZHMTYWD6BFF6WBDQ9CRF","","","img/land6.png","","2001","-1","0","1","1","1,0.5,0.5,0.5,1,0.5,0.5,0.5,1","1,0.5,0.5,0.5,1,0.5,0.5,0.5,1","1","",""
"","html-keyboard-response","19","43292","0.0-19.0","34J10VATJGKA9F3QJ3N3A2GP1EMIQF","A9LYIVFG3ZU4Z","3BDORL6HKKZHMTYWD6BFF6WBDQ9CRF","","null","<img src=""img/land6.png"" style=""width:200px;border:14px solid red;"">","null","","","","","","","","","",""
"","image-keyboard-response","20","44446","0.0-20.0","34J10VATJGKA9F3QJ3N3A2GP1EMIQF","A9LYIVFG3ZU4Z","3BDORL6HKKZHMTYWD6BFF6WBDQ9CRF","","1153","img/land5.png","76","1155","3","1","3","1","1,0.5,0.5,0.5,1,0.5,0.5,0.5,1","1,0.5,0.5,0.5,1,0.5,0.5,0.5,1","1","",""
"","html-keyboard-response","21","44749","0.0-21.0","34J10VATJGKA9F3QJ3N3A2GP1EMIQF","A9LYIVFG3ZU4Z","3BDORL6HKKZHMTYWD6BFF6WBDQ9CRF","","null","<img src=""img/land5.png"" style=""width:200px; border:14px solid green;"">","null","","","","","","","","","",""
"","image-keyboard-response","22","46137","0.0-22.0","34J10VATJGKA9F3QJ3N3A2GP1EMIQF","A9LYIVFG3ZU4Z","3BDORL6HKKZHMTYWD6BFF6WBDQ9CRF","","1384","img/land6.png","75","1386","2","0","1","1","1,0.5,0.5,0.5,1,0.5,0.5,0.5,1","1,0.5,0.5,0.5,1,0.5,0.5,0.5,1","1","",""
"","html-keyboard-response","23","46438","0.0-23.0","34J10VATJGKA9F3QJ3N3A2GP1EMIQF","A9LYIVFG3ZU4Z","3BDORL6HKKZHMTYWD6BFF6WBDQ9CRF","","null","<img src=""img/land6.png"" style=""width:200px;border:14px solid red;"">","null","","","","","","","","","",""
"","image-keyboard-response","24","47958","0.0-24.0","34J10VATJGKA9F3QJ3N3A2GP1EMIQF","A9LYIVFG3ZU4Z","3BDORL6HKKZHMTYWD6BFF6WBDQ9CRF","","1519","img/land5.png","76","1520","3","1","3","1","1,0.5,0.5,0.5,1,0.5,0.5,0.5,1","1,0.5,0.5,0.5,1,0.5,0.5,0.5,1","1","",""
"","html-keyboard-response","25","48268","0.0-25.0","34J10VATJGKA9F3QJ3N3A2GP1EMIQF","A9LYIVFG3ZU4Z","3BDORL6HKKZHMTYWD6BFF6WBDQ9CRF","","null","<img src=""img/land5.png"" style=""width:200px; border:14px solid green;"">","null","","","","","","","","","",""
"","image-keyboard-response","26","49625","0.0-26.0","34J10VATJGKA9F3QJ3N3A2GP1EMIQF","A9LYIVFG3ZU4Z","3BDORL6HKKZHMTYWD6BFF6WBDQ9CRF","","1356","img/land6.png","75","1357","2","0","1","1","1,0.5,0.5,0.5,1,0.5,0.5,0.5,1","1,0.5,0.5,0.5,1,0.5,0.5,0.5,1","1","",""
"","html-keyboard-response","27","49926","0.0-27.0","34J10VATJGKA9F3QJ3N3A2GP1EMIQF","A9LYIVFG3ZU4Z","3BDORL6HKKZHMTYWD6BFF6WBDQ9CRF","","null","<img src=""img/land6.png"" style=""width:200px;border:14px solid red;"">","null","","","","","","","","","",""
"","image-keyboard-response","28","51296","0.0-28.0","34J10VATJGKA9F3QJ3N3A2GP1EMIQF","A9LYIVFG3ZU4Z","3BDORL6HKKZHMTYWD6BFF6WBDQ9CRF","","1369","img/land3.png","74","1370","1","0","2","1","1,0.5,0.5,0.5,1,0.5,0.5,0.5,1","1,0.5,0.5,0.5,1,0.5,0.5,0.5,1","1","",""
"","html-keyboard-response","29","51597","0.0-29.0","34J10VATJGKA9F3QJ3N3A2GP1EMIQF","A9LYIVFG3ZU4Z","3BDORL6HKKZHMTYWD6BFF6WBDQ9CRF","","null","<img src=""img/land3.png"" style=""width:200px;border:14px solid red;"">","null","","","","","","","","","",""
"","image-keyboard-response","30","53597","0.0-30.0","34J10VATJGKA9F3QJ3N3A2GP1EMIQF","A9LYIVFG3ZU4Z","3BDORL6HKKZHMTYWD6BFF6WBDQ9CRF","","","img/land5.png","","2000","-1","0","3","1","1,0.5,0.5,0.5,1,0.5,0.5,0.5,1","1,0.5,0.5,0.5,1,0.5,0.5,0.5,1","1","",""
"","html-keyboard-response","31","53925","0.0-31.0","34J10VATJGKA9F3QJ3N3A2GP1EMIQF","A9LYIVFG3ZU4Z","3BDORL6HKKZHMTYWD6BFF6WBDQ9CRF","","null","<img src=""img/land5.png"" style=""width:200px;border:14px solid red;"">","null","","","","","","","","","",""
"","image-keyboard-response","32","55874","0.0-32.0","34J10VATJGKA9F3QJ3N3A2GP1EMIQF","A9LYIVFG3ZU4Z","3BDORL6HKKZHMTYWD6BFF6WBDQ9CRF","","1945","img/land6.png","76","1948","3","0","1","1","1,0.5,0.5,0.5,1,0.5,0.5,0.5,1","1,0.5,0.5,0.5,1,0.5,0.5,0.5,1","1","",""
"","html-keyboard-response","33","56175","0.0-33.0","34J10VATJGKA9F3QJ3N3A2GP1EMIQF","A9LYIVFG3ZU4Z","3BDORL6HKKZHMTYWD6BFF6WBDQ9CRF","","null","<img src=""img/land6.png"" style=""width:200px;border:14px solid red;"">","null","","","","","","","","","",""
"","image-keyboard-response","34","58175","0.0-34.0","34J10VATJGKA9F3QJ3N3A2GP1EMIQF","A9LYIVFG3ZU4Z","3BDORL6HKKZHMTYWD6BFF6WBDQ9CRF","","","img/land5.png","","2000","-1","0","3","1","1,0.5,0.5,0.5,1,0.5,0.5,0.5,1","1,0.5,0.5,0.5,1,0.5,0.5,0.5,1","1","",""
"","html-keyboard-response","35","58475","0.0-35.0","34J10VATJGKA9F3QJ3N3A2GP1EMIQF","A9LYIVFG3ZU4Z","3BDORL6HKKZHMTYWD6BFF6WBDQ9CRF","","null","<img src=""img/land5.png"" style=""width:200px;border:14px solid red;"">","null","","","","","","","","","",""
"","image-keyboard-response","36","58544","0.0-36.0","34J10VATJGKA9F3QJ3N3A2GP1EMIQF","A9LYIVFG3ZU4Z","3BDORL6HKKZHMTYWD6BFF6WBDQ9CRF","","68","img/land3.png","74","69","1","0","2","1","1,0.5,0.5,0.5,1,0.5,0.5,0.5,1","1,0.5,0.5,0.5,1,0.5,0.5,0.5,1","1","",""
"","html-keyboard-response","37","58845","0.0-37.0","34J10VATJGKA9F3QJ3N3A2GP1EMIQF","A9LYIVFG3ZU4Z","3BDORL6HKKZHMTYWD6BFF6WBDQ9CRF","","null","<img src=""img/land3.png"" style=""width:200px;border:14px solid red;"">","null","","","","","","","","","",""
"","image-keyboard-response","38","60847","0.0-38.0","34J10VATJGKA9F3QJ3N3A2GP1EMIQF","A9LYIVFG3ZU4Z","3BDORL6HKKZHMTYWD6BFF6WBDQ9CRF","","","img/land3.png","","2002","-1","0","2","1","1,0.5,0.5,0.5,1,0.5,0.5,0.5,1","1,0.5,0.5,0.5,1,0.5,0.5,0.5,1","1","",""
"","html-keyboard-response","39","61148","0.0-39.0","34J10VATJGKA9F3QJ3N3A2GP1EMIQF","A9LYIVFG3ZU4Z","3BDORL6HKKZHMTYWD6BFF6WBDQ9CRF","","null","<img src=""img/land3.png"" style=""width:200px;border:14px solid red;"">","null","","","","","","","","","",""
"","image-keyboard-response","40","62261","0.0-40.0","34J10VATJGKA9F3QJ3N3A2GP1EMIQF","A9LYIVFG3ZU4Z","3BDORL6HKKZHMTYWD6BFF6WBDQ9CRF","","1113","img/land5.png","76","1114","3","1","3","1","1,0.5,0.5,0.5,1,0.5,0.5,0.5,1","1,0.5,0.5,0.5,1,0.5,0.5,0.5,1","1","",""
"","html-keyboard-response","41","62564","0.0-41.0","34J10VATJGKA9F3QJ3N3A2GP1EMIQF","A9LYIVFG3ZU4Z","3BDORL6HKKZHMTYWD6BFF6WBDQ9CRF","","null","<img src=""img/land5.png"" style=""width:200px; border:14px solid green;"">","null","","","","","","","","","",""
"","image-keyboard-response","42","64138","0.0-42.0","34J10VATJGKA9F3QJ3N3A2GP1EMIQF","A9LYIVFG3ZU4Z","3BDORL6HKKZHMTYWD6BFF6WBDQ9CRF","","1574","img/land3.png","75","1574","2","1","2","1","1,0.5,0.5,0.5,1,0.5,0.5,0.5,1","1,0.5,0.5,0.5,1,0.5,0.5,0.5,1","1","",""
"","html-keyboard-response","43","64440","0.0-43.0","34J10VATJGKA9F3QJ3N3A2GP1EMIQF","A9LYIVFG3ZU4Z","3BDORL6HKKZHMTYWD6BFF6WBDQ9CRF","","null","<img src=""img/land3.png"" style=""width:200px; border:14px solid green;"">","null","","","","","","","","","",""
"","image-keyboard-response","44","65763","0.0-44.0","34J10VATJGKA9F3QJ3N3A2GP1EMIQF","A9LYIVFG3ZU4Z","3BDORL6HKKZHMTYWD6BFF6WBDQ9CRF","","1322","img/land5.png","76","1323","3","1","3","1","1,0.5,0.5,0.5,1,0.5,0.5,0.5,1","1,0.5,0.5,0.5,1,0.5,0.5,0.5,1","1","",""
"","html-keyboard-response","45","66065","0.0-45.0","34J10VATJGKA9F3QJ3N3A2GP1EMIQF","A9LYIVFG3ZU4Z","3BDORL6HKKZHMTYWD6BFF6WBDQ9CRF","","null","<img src=""img/land5.png"" style=""width:200px; border:14px solid green;"">","null","","","","","","","","","",""
"","image-keyboard-response","46","67847","0.0-46.0","34J10VATJGKA9F3QJ3N3A2GP1EMIQF","A9LYIVFG3ZU4Z","3BDORL6HKKZHMTYWD6BFF6WBDQ9CRF","","1781","img/land5.png","76","1782","3","1","3","1","1,0.5,0.5,0.5,1,0.5,0.5,0.5,1","1,0.5,0.5,0.5,1,0.5,0.5,0.5,1","1","",""
"","html-keyboard-response","47","68147","0.0-47.0","34J10VATJGKA9F3QJ3N3A2GP1EMIQF","A9LYIVFG3ZU4Z","3BDORL6HKKZHMTYWD6BFF6WBDQ9CRF","","null","<img src=""img/land5.png"" style=""width:200px; border:14px solid green;"">","null","","","","","","","","","",""
"","image-keyboard-response","48","69874","0.0-48.0","34J10VATJGKA9F3QJ3N3A2GP1EMIQF","A9LYIVFG3ZU4Z","3BDORL6HKKZHMTYWD6BFF6WBDQ9CRF","","1727","img/land5.png","76","1727","3","1","3","1","1,0.5,0.5,0.5,1,0.5,0.5,0.5,1","1,0.5,0.5,0.5,1,0.5,0.5,0.5,1","1","",""
"","html-keyboard-response","49","70176","0.0-49.0","34J10VATJGKA9F3QJ3N3A2GP1EMIQF","A9LYIVFG3ZU4Z","3BDORL6HKKZHMTYWD6BFF6WBDQ9CRF","","null","<img src=""img/land5.png"" style=""width:200px; border:14px solid green;"">","null","","","","","","","","","",""
"","image-keyboard-response","50","71736","0.0-50.0","34J10VATJGKA9F3QJ3N3A2GP1EMIQF","A9LYIVFG3ZU4Z","3BDORL6HKKZHMTYWD6BFF6WBDQ9CRF","","1560","img/land5.png","76","1560","3","1","3","1","1,0.5,0.5,0.5,1,0.5,0.5,0.5,1","1,0.5,0.5,0.5,1,0.5,0.5,0.5,1","1","",""
"","html-keyboard-response","51","72065","0.0-51.0","34J10VATJGKA9F3QJ3N3A2GP1EMIQF","A9LYIVFG3ZU4Z","3BDORL6HKKZHMTYWD6BFF6WBDQ9CRF","","null","<img src=""img/land5.png"" style=""width:200px; border:14px solid green;"">","null","","","","","","","","","",""
"","image-keyboard-response","52","73987","0.0-52.0","34J10VATJGKA9F3QJ3N3A2GP1EMIQF","A9LYIVFG3ZU4Z","3BDORL6HKKZHMTYWD6BFF6WBDQ9CRF","","1917","img/land3.png","75","1922","2","1","2","1","1,0.5,0.5,0.5,1,0.5,0.5,0.5,1","1,0.5,0.5,0.5,1,0.5,0.5,0.5,1","1","",""
"","html-keyboard-response","53","74294","0.0-53.0","34J10VATJGKA9F3QJ3N3A2GP1EMIQF","A9LYIVFG3ZU4Z","3BDORL6HKKZHMTYWD6BFF6WBDQ9CRF","","null","<img src=""img/land3.png"" style=""width:200px; border:14px solid green;"">","null","","","","","","","","","",""
"","image-keyboard-response","54","75476","0.0-54.0","34J10VATJGKA9F3QJ3N3A2GP1EMIQF","A9LYIVFG3ZU4Z","3BDORL6HKKZHMTYWD6BFF6WBDQ9CRF","","1181","img/land6.png","74","1183","1","1","1","1","1,0.5,0.5,0.5,1,0.5,0.5,0.5,1","1,0.5,0.5,0.5,1,0.5,0.5,0.5,1","1","",""
"","html-keyboard-response","55","75777","0.0-55.0","34J10VATJGKA9F3QJ3N3A2GP1EMIQF","A9LYIVFG3ZU4Z","3BDORL6HKKZHMTYWD6BFF6WBDQ9CRF","","null","<img src=""img/land6.png"" style=""width:200px; border:14px solid green;"">","null","","","","","","","","","",""
"","image-keyboard-response","56","77347","0.0-56.0","34J10VATJGKA9F3QJ3N3A2GP1EMIQF","A9LYIVFG3ZU4Z","3BDORL6HKKZHMTYWD6BFF6WBDQ9CRF","","1569","img/land3.png","75","1570","2","1","2","1","1,0.5,0.5,0.5,1,0.5,0.5,0.5,1","1,0.5,0.5,0.5,1,0.5,0.5,0.5,1","1","",""
"","html-keyboard-response","57","77653","0.0-57.0","34J10VATJGKA9F3QJ3N3A2GP1EMIQF","A9LYIVFG3ZU4Z","3BDORL6HKKZHMTYWD6BFF6WBDQ9CRF","","null","<img src=""img/land3.png"" style=""width:200px; border:14px solid green;"">","null","","","","","","","","","",""
"","image-keyboard-response","58","79129","0.0-58.0","34J10VATJGKA9F3QJ3N3A2GP1EMIQF","A9LYIVFG3ZU4Z","3BDORL6HKKZHMTYWD6BFF6WBDQ9CRF","","1457","img/land6.png","74","1475","1","1","1","1","1,0.5,0.5,0.5,1,0.5,0.5,0.5,1","1,0.5,0.5,0.5,1,0.5,0.5,0.5,1","1","",""
"","html-keyboard-response","59","79430","0.0-59.0","34J10VATJGKA9F3QJ3N3A2GP1EMIQF","A9LYIVFG3ZU4Z","3BDORL6HKKZHMTYWD6BFF6WBDQ9CRF","","null","<img src=""img/land6.png"" style=""width:200px; border:14px solid green;"">","null","","","","","","","","","",""
"","image-keyboard-response","60","80608","0.0-60.0","34J10VATJGKA9F3QJ3N3A2GP1EMIQF","A9LYIVFG3ZU4Z","3BDORL6HKKZHMTYWD6BFF6WBDQ9CRF","","1177","img/land3.png","75","1178","2","1","2","1","1,0.5,0.5,0.5,1,0.5,0.5,0.5,1","1,0.5,0.5,0.5,1,0.5,0.5,0.5,1","1","",""
"","html-keyboard-response","61","80910","0.0-61.0","34J10VATJGKA9F3QJ3N3A2GP1EMIQF","A9LYIVFG3ZU4Z","3BDORL6HKKZHMTYWD6BFF6WBDQ9CRF","","null","<img src=""img/land3.png"" style=""width:200px; border:14px solid green;"">","null","","","","","","","","","",""
"","image-keyboard-response","62","82356","0.0-62.0","34J10VATJGKA9F3QJ3N3A2GP1EMIQF","A9LYIVFG3ZU4Z","3BDORL6HKKZHMTYWD6BFF6WBDQ9CRF","","1446","img/land6.png","74","1446","1","1","1","1","1,0.5,0.5,0.5,1,0.5,0.5,0.5,1","1,0.5,0.5,0.5,1,0.5,0.5,0.5,1","1","",""
"","html-keyboard-response","63","82658","0.0-63.0","34J10VATJGKA9F3QJ3N3A2GP1EMIQF","A9LYIVFG3ZU4Z","3BDORL6HKKZHMTYWD6BFF6WBDQ9CRF","","null","<img src=""img/land6.png"" style=""width:200px; border:14px solid green;"">","null","","","","","","","","","",""
"","image-keyboard-response","64","84660","0.0-64.0","34J10VATJGKA9F3QJ3N3A2GP1EMIQF","A9LYIVFG3ZU4Z","3BDORL6HKKZHMTYWD6BFF6WBDQ9CRF","","","img/land6.png","","2002","-1","0","1","1","1,0.5,0.5,0.5,1,0.5,0.5,0.5,1","1,0.5,0.5,0.5,1,0.5,0.5,0.5,1","1","",""
"","html-keyboard-response","65","84962","0.0-65.0","34J10VATJGKA9F3QJ3N3A2GP1EMIQF","A9LYIVFG3ZU4Z","3BDORL6HKKZHMTYWD6BFF6WBDQ9CRF","","null","<img src=""img/land6.png"" style=""width:200px;border:14px solid red;"">","null","","","","","","","","","",""
"","image-keyboard-response","66","85218","0.0-66.0","34J10VATJGKA9F3QJ3N3A2GP1EMIQF","A9LYIVFG3ZU4Z","3BDORL6HKKZHMTYWD6BFF6WBDQ9CRF","","253","img/land3.png","74","255","1","0","2","1","1,0.5,0.5,0.5,1,0.5,0.5,0.5,1","1,0.5,0.5,0.5,1,0.5,0.5,0.5,1","1","",""
"","html-keyboard-response","67","85522","0.0-67.0","34J10VATJGKA9F3QJ3N3A2GP1EMIQF","A9LYIVFG3ZU4Z","3BDORL6HKKZHMTYWD6BFF6WBDQ9CRF","","null","<img src=""img/land3.png"" style=""width:200px;border:14px solid red;"">","null","","","","","","","","","",""
"","image-keyboard-response","68","86587","0.0-68.0","34J10VATJGKA9F3QJ3N3A2GP1EMIQF","A9LYIVFG3ZU4Z","3BDORL6HKKZHMTYWD6BFF6WBDQ9CRF","","1064","img/land6.png","74","1065","1","1","1","1","1,0.5,0.5,0.5,1,0.5,0.5,0.5,1","1,0.5,0.5,0.5,1,0.5,0.5,0.5,1","1","",""
"","html-keyboard-response","69","86904","0.0-69.0","34J10VATJGKA9F3QJ3N3A2GP1EMIQF","A9LYIVFG3ZU4Z","3BDORL6HKKZHMTYWD6BFF6WBDQ9CRF","","null","<img src=""img/land6.png"" style=""width:200px; border:14px solid green;"">","null","","","","","","","","","",""
"","image-keyboard-response","70","87947","0.0-70.0","34J10VATJGKA9F3QJ3N3A2GP1EMIQF","A9LYIVFG3ZU4Z","3BDORL6HKKZHMTYWD6BFF6WBDQ9CRF","","1039","img/land5.png","76","1042","3","1","3","1","1,0.5,0.5,0.5,1,0.5,0.5,0.5,1","1,0.5,0.5,0.5,1,0.5,0.5,0.5,1","1","",""
"","html-keyboard-response","71","88248","0.0-71.0","34J10VATJGKA9F3QJ3N3A2GP1EMIQF","A9LYIVFG3ZU4Z","3BDORL6HKKZHMTYWD6BFF6WBDQ9CRF","","null","<img src=""img/land5.png"" style=""width:200px; border:14px solid green;"">","null","","","","","","","","","",""
"","image-keyboard-response","72","89477","0.0-72.0","34J10VATJGKA9F3QJ3N3A2GP1EMIQF","A9LYIVFG3ZU4Z","3BDORL6HKKZHMTYWD6BFF6WBDQ9CRF","","1228","img/land6.png","74","1229","1","1","1","1","1,0.5,0.5,0.5,1,0.5,0.5,0.5,1","1,0.5,0.5,0.5,1,0.5,0.5,0.5,1","1","",""
"","html-keyboard-response","73","89777","0.0-73.0","34J10VATJGKA9F3QJ3N3A2GP1EMIQF","A9LYIVFG3ZU4Z","3BDORL6HKKZHMTYWD6BFF6WBDQ9CRF","","null","<img src=""img/land6.png"" style=""width:200px; border:14px solid green;"">","null","","","","","","","","","",""
"","image-keyboard-response","74","91186","0.0-74.0","34J10VATJGKA9F3QJ3N3A2GP1EMIQF","A9LYIVFG3ZU4Z","3BDORL6HKKZHMTYWD6BFF6WBDQ9CRF","","1409","img/land6.png","74","1409","1","1","1","1","1,0.5,0.5,0.5,1,0.5,0.5,0.5,1","1,0.5,0.5,0.5,1,0.5,0.5,0.5,1","1","",""
"","html-keyboard-response","75","91487","0.0-75.0","34J10VATJGKA9F3QJ3N3A2GP1EMIQF","A9LYIVFG3ZU4Z","3BDORL6HKKZHMTYWD6BFF6WBDQ9CRF","","null","<img src=""img/land6.png"" style=""width:200px; border:14px solid green;"">","null","","","","","","","","","",""
"","image-keyboard-response","76","92867","0.0-76.0","34J10VATJGKA9F3QJ3N3A2GP1EMIQF","A9LYIVFG3ZU4Z","3BDORL6HKKZHMTYWD6BFF6WBDQ9CRF","","1378","img/land6.png","74","1380","1","1","1","1","1,0.5,0.5,0.5,1,0.5,0.5,0.5,1","1,0.5,0.5,0.5,1,0.5,0.5,0.5,1","1","",""
"","html-keyboard-response","77","93167","0.0-77.0","34J10VATJGKA9F3QJ3N3A2GP1EMIQF","A9LYIVFG3ZU4Z","3BDORL6HKKZHMTYWD6BFF6WBDQ9CRF","","null","<img src=""img/land6.png"" style=""width:200px; border:14px solid green;"">","null","","","","","","","","","",""
"","image-keyboard-response","78","94317","0.0-78.0","34J10VATJGKA9F3QJ3N3A2GP1EMIQF","A9LYIVFG3ZU4Z","3BDORL6HKKZHMTYWD6BFF6WBDQ9CRF","","1150","img/land3.png","75","1150","2","1","2","1","1,0.5,0.5,0.5,1,0.5,0.5,0.5,1","1,0.5,0.5,0.5,1,0.5,0.5,0.5,1","1","",""
"","html-keyboard-response","79","94618","0.0-79.0","34J10VATJGKA9F3QJ3N3A2GP1EMIQF","A9LYIVFG3ZU4Z","3BDORL6HKKZHMTYWD6BFF6WBDQ9CRF","","null","<img src=""img/land3.png"" style=""width:200px; border:14px solid green;"">","null","","","","","","","","","",""
"","image-keyboard-response","80","95757","0.0-80.0","34J10VATJGKA9F3QJ3N3A2GP1EMIQF","A9LYIVFG3ZU4Z","3BDORL6HKKZHMTYWD6BFF6WBDQ9CRF","","1138","img/land6.png","74","1139","1","1","1","1","1,0.5,0.5,0.5,1,0.5,0.5,0.5,1","1,0.5,0.5,0.5,1,0.5,0.5,0.5,1","1","",""
"","html-keyboard-response","81","96058","0.0-81.0","34J10VATJGKA9F3QJ3N3A2GP1EMIQF","A9LYIVFG3ZU4Z","3BDORL6HKKZHMTYWD6BFF6WBDQ9CRF","","null","<img src=""img/land6.png"" style=""width:200px; border:14px solid green;"">","null","","","","","","","","","",""
"","image-keyboard-response","82","97217","0.0-82.0","34J10VATJGKA9F3QJ3N3A2GP1EMIQF","A9LYIVFG3ZU4Z","3BDORL6HKKZHMTYWD6BFF6WBDQ9CRF","","1157","img/land5.png","76","1159","3","1","3","1","1,0.5,0.5,0.5,1,0.5,0.5,0.5,1","1,0.5,0.5,0.5,1,0.5,0.5,0.5,1","1","",""
"","html-keyboard-response","83","97520","0.0-83.0","34J10VATJGKA9F3QJ3N3A2GP1EMIQF","A9LYIVFG3ZU4Z","3BDORL6HKKZHMTYWD6BFF6WBDQ9CRF","","null","<img src=""img/land5.png"" style=""width:200px; border:14px solid green;"">","null","","","","","","","","","",""
"","image-keyboard-response","84","98567","0.0-84.0","34J10VATJGKA9F3QJ3N3A2GP1EMIQF","A9LYIVFG3ZU4Z","3BDORL6HKKZHMTYWD6BFF6WBDQ9CRF","","1046","img/land3.png","74","1047","1","0","2","1","1,0.5,0.5,0.5,1,0.5,0.5,0.5,1","1,0.5,0.5,0.5,1,0.5,0.5,0.5,1","1","",""
"","html-keyboard-response","85","98867","0.0-85.0","34J10VATJGKA9F3QJ3N3A2GP1EMIQF","A9LYIVFG3ZU4Z","3BDORL6HKKZHMTYWD6BFF6WBDQ9CRF","","null","<img src=""img/land3.png"" style=""width:200px;border:14px solid red;"">","null","","","","","","","","","",""
"","image-keyboard-response","86","100156","0.0-86.0","34J10VATJGKA9F3QJ3N3A2GP1EMIQF","A9LYIVFG3ZU4Z","3BDORL6HKKZHMTYWD6BFF6WBDQ9CRF","","1288","img/land5.png","76","1289","3","1","3","1","1,0.5,0.5,0.5,1,0.5,0.5,0.5,1","1,0.5,0.5,0.5,1,0.5,0.5,0.5,1","1","",""
"","html-keyboard-response","87","100458","0.0-87.0","34J10VATJGKA9F3QJ3N3A2GP1EMIQF","A9LYIVFG3ZU4Z","3BDORL6HKKZHMTYWD6BFF6WBDQ9CRF","","null","<img src=""img/land5.png"" style=""width:200px; border:14px solid green;"">","null","","","","","","","","","",""
"","image-keyboard-response","88","101668","0.0-88.0","34J10VATJGKA9F3QJ3N3A2GP1EMIQF","A9LYIVFG3ZU4Z","3BDORL6HKKZHMTYWD6BFF6WBDQ9CRF","","1209","img/land6.png","74","1210","1","1","1","1","1,0.5,0.5,0.5,1,0.5,0.5,0.5,1","1,0.5,0.5,0.5,1,0.5,0.5,0.5,1","1","",""
"","html-keyboard-response","89","101968","0.0-89.0","34J10VATJGKA9F3QJ3N3A2GP1EMIQF","A9LYIVFG3ZU4Z","3BDORL6HKKZHMTYWD6BFF6WBDQ9CRF","","null","<img src=""img/land6.png"" style=""width:200px; border:14px solid green;"">","null","","","","","","","","","",""
"","image-keyboard-response","90","103378","0.0-90.0","34J10VATJGKA9F3QJ3N3A2GP1EMIQF","A9LYIVFG3ZU4Z","3BDORL6HKKZHMTYWD6BFF6WBDQ9CRF","","1408","img/land6.png","74","1410","1","1","1","1","1,0.5,0.5,0.5,1,0.5,0.5,0.5,1","1,0.5,0.5,0.5,1,0.5,0.5,0.5,1","1","",""
"","html-keyboard-response","91","103678","0.0-91.0","34J10VATJGKA9F3QJ3N3A2GP1EMIQF","A9LYIVFG3ZU4Z","3BDORL6HKKZHMTYWD6BFF6WBDQ9CRF","","null","<img src=""img/land6.png"" style=""width:200px; border:14px solid green;"">","null","","","","","","","","","",""
"","image-keyboard-response","92","104837","0.0-92.0","34J10VATJGKA9F3QJ3N3A2GP1EMIQF","A9LYIVFG3ZU4Z","3BDORL6HKKZHMTYWD6BFF6WBDQ9CRF","","1158","img/land5.png","76","1159","3","1","3","1","1,0.5,0.5,0.5,1,0.5,0.5,0.5,1","1,0.5,0.5,0.5,1,0.5,0.5,0.5,1","1","",""
"","html-keyboard-response","93","105138","0.0-93.0","34J10VATJGKA9F3QJ3N3A2GP1EMIQF","A9LYIVFG3ZU4Z","3BDORL6HKKZHMTYWD6BFF6WBDQ9CRF","","null","<img src=""img/land5.png"" style=""width:200px; border:14px solid green;"">","null","","","","","","","","","",""
"","image-keyboard-response","94","106167","0.0-94.0","34J10VATJGKA9F3QJ3N3A2GP1EMIQF","A9LYIVFG3ZU4Z","3BDORL6HKKZHMTYWD6BFF6WBDQ9CRF","","1028","img/land3.png","75","1029","2","1","2","1","1,0.5,0.5,0.5,1,0.5,0.5,0.5,1","1,0.5,0.5,0.5,1,0.5,0.5,0.5,1","1","",""
"","html-keyboard-response","95","106488","0.0-95.0","34J10VATJGKA9F3QJ3N3A2GP1EMIQF","A9LYIVFG3ZU4Z","3BDORL6HKKZHMTYWD6BFF6WBDQ9CRF","","null","<img src=""img/land3.png"" style=""width:200px; border:14px solid green;"">","null","","","","","","","","","",""
"","image-keyboard-response","96","107686","0.0-96.0","34J10VATJGKA9F3QJ3N3A2GP1EMIQF","A9LYIVFG3ZU4Z","3BDORL6HKKZHMTYWD6BFF6WBDQ9CRF","","1196","img/land5.png","76","1196","3","1","3","1","1,0.5,0.5,0.5,1,0.5,0.5,0.5,1","1,0.5,0.5,0.5,1,0.5,0.5,0.5,1","1","",""
"","html-keyboard-response","97","107988","0.0-97.0","34J10VATJGKA9F3QJ3N3A2GP1EMIQF","A9LYIVFG3ZU4Z","3BDORL6HKKZHMTYWD6BFF6WBDQ9CRF","","null","<img src=""img/land5.png"" style=""width:200px; border:14px solid green;"">","null","","","","","","","","","",""
"","image-keyboard-response","98","109217","0.0-98.0","34J10VATJGKA9F3QJ3N3A2GP1EMIQF","A9LYIVFG3ZU4Z","3BDORL6HKKZHMTYWD6BFF6WBDQ9CRF","","1228","img/land6.png","74","1229","1","1","1","1","1,0.5,0.5,0.5,1,0.5,0.5,0.5,1","1,0.5,0.5,0.5,1,0.5,0.5,0.5,1","1","",""
"","html-keyboard-response","99","109518","0.0-99.0","34J10VATJGKA9F3QJ3N3A2GP1EMIQF","A9LYIVFG3ZU4Z","3BDORL6HKKZHMTYWD6BFF6WBDQ9CRF","","null","<img src=""img/land6.png"" style=""width:200px; border:14px solid green;"">","null","","","","","","","","","",""
"","image-keyboard-response","100","110758","0.0-100.0","34J10VATJGKA9F3QJ3N3A2GP1EMIQF","A9LYIVFG3ZU4Z","3BDORL6HKKZHMTYWD6BFF6WBDQ9CRF","","1240","img/land6.png","74","1240","1","1","1","1","1,0.5,0.5,0.5,1,0.5,0.5,0.5,1","1,0.5,0.5,0.5,1,0.5,0.5,0.5,1","1","",""
"","html-keyboard-response","101","111059","0.0-101.0","34J10VATJGKA9F3QJ3N3A2GP1EMIQF","A9LYIVFG3ZU4Z","3BDORL6HKKZHMTYWD6BFF6WBDQ9CRF","","null","<img src=""img/land6.png"" style=""width:200px; border:14px solid green;"">","null","","","","","","","","","",""
"","image-keyboard-response","102","112104","0.0-102.0","34J10VATJGKA9F3QJ3N3A2GP1EMIQF","A9LYIVFG3ZU4Z","3BDORL6HKKZHMTYWD6BFF6WBDQ9CRF","","1045","img/land3.png","75","1046","2","1","2","1","1,0.5,0.5,0.5,1,0.5,0.5,0.5,1","1,0.5,0.5,0.5,1,0.5,0.5,0.5,1","1","",""
"","html-keyboard-response","103","112412","0.0-103.0","34J10VATJGKA9F3QJ3N3A2GP1EMIQF","A9LYIVFG3ZU4Z","3BDORL6HKKZHMTYWD6BFF6WBDQ9CRF","","null","<img src=""img/land3.png"" style=""width:200px; border:14px solid green;"">","null","","","","","","","","","",""
"","image-keyboard-response","104","113957","0.0-104.0","34J10VATJGKA9F3QJ3N3A2GP1EMIQF","A9LYIVFG3ZU4Z","3BDORL6HKKZHMTYWD6BFF6WBDQ9CRF","","1541","img/land5.png","76","1544","3","1","3","1","1,0.5,0.5,0.5,1,0.5,0.5,0.5,1","1,0.5,0.5,0.5,1,0.5,0.5,0.5,1","1","",""
"","html-keyboard-response","105","114257","0.0-105.0","34J10VATJGKA9F3QJ3N3A2GP1EMIQF","A9LYIVFG3ZU4Z","3BDORL6HKKZHMTYWD6BFF6WBDQ9CRF","","null","<img src=""img/land5.png"" style=""width:200px; border:14px solid green;"">","null","","","","","","","","","",""
"","image-keyboard-response","106","116096","0.0-106.0","34J10VATJGKA9F3QJ3N3A2GP1EMIQF","A9LYIVFG3ZU4Z","3BDORL6HKKZHMTYWD6BFF6WBDQ9CRF","","1838","img/land5.png","76","1839","3","1","3","1","1,0.5,0.5,0.5,1,0.5,0.5,0.5,1","1,0.5,0.5,0.5,1,0.5,0.5,0.5,1","1","",""
"","html-keyboard-response","107","116397","0.0-107.0","34J10VATJGKA9F3QJ3N3A2GP1EMIQF","A9LYIVFG3ZU4Z","3BDORL6HKKZHMTYWD6BFF6WBDQ9CRF","","null","<img src=""img/land5.png"" style=""width:200px; border:14px solid green;"">","null","","","","","","","","","",""
"","image-keyboard-response","108","117783","0.0-108.0","34J10VATJGKA9F3QJ3N3A2GP1EMIQF","A9LYIVFG3ZU4Z","3BDORL6HKKZHMTYWD6BFF6WBDQ9CRF","","1384","img/land5.png","76","1386","3","1","3","1","1,0.5,0.5,0.5,1,0.5,0.5,0.5,1","1,0.5,0.5,0.5,1,0.5,0.5,0.5,1","1","",""
"","html-keyboard-response","109","118085","0.0-109.0","34J10VATJGKA9F3QJ3N3A2GP1EMIQF","A9LYIVFG3ZU4Z","3BDORL6HKKZHMTYWD6BFF6WBDQ9CRF","","null","<img src=""img/land5.png"" style=""width:200px; border:14px solid green;"">","null","","","","","","","","","",""
"","image-keyboard-response","110","120086","0.0-110.0","34J10VATJGKA9F3QJ3N3A2GP1EMIQF","A9LYIVFG3ZU4Z","3BDORL6HKKZHMTYWD6BFF6WBDQ9CRF","","","img/land3.png","","2001","-1","0","2","1","1,0.5,0.5,0.5,1,0.5,0.5,0.5,1","1,0.5,0.5,0.5,1,0.5,0.5,0.5,1","1","",""
"","html-keyboard-response","111","120388","0.0-111.0","34J10VATJGKA9F3QJ3N3A2GP1EMIQF","A9LYIVFG3ZU4Z","3BDORL6HKKZHMTYWD6BFF6WBDQ9CRF","","null","<img src=""img/land3.png"" style=""width:200px;border:14px solid red;"">","null","","","","","","","","","",""
"","image-keyboard-response","112","122037","0.0-112.0","34J10VATJGKA9F3QJ3N3A2GP1EMIQF","A9LYIVFG3ZU4Z","3BDORL6HKKZHMTYWD6BFF6WBDQ9CRF","","1649","img/land3.png","74","1649","1","1","2","1","1,0.5,0.5,0.5,1,0.5,0.5,0.5,1","1,0.5,0.5,0.5,1,0.5,0.5,0.5,1","1","",""
"","html-keyboard-response","113","122337","0.0-113.0","34J10VATJGKA9F3QJ3N3A2GP1EMIQF","A9LYIVFG3ZU4Z","3BDORL6HKKZHMTYWD6BFF6WBDQ9CRF","","null","<img src=""img/land3.png"" style=""width:200px; border:14px solid green;"">","null","","","","","","","","","",""
"","image-keyboard-response","114","123596","0.0-114.0","34J10VATJGKA9F3QJ3N3A2GP1EMIQF","A9LYIVFG3ZU4Z","3BDORL6HKKZHMTYWD6BFF6WBDQ9CRF","","1258","img/land5.png","76","1259","3","1","3","1","1,0.5,0.5,0.5,1,0.5,0.5,0.5,1","1,0.5,0.5,0.5,1,0.5,0.5,0.5,1","1","",""
"","html-keyboard-response","115","123898","0.0-115.0","34J10VATJGKA9F3QJ3N3A2GP1EMIQF","A9LYIVFG3ZU4Z","3BDORL6HKKZHMTYWD6BFF6WBDQ9CRF","","null","<img src=""img/land5.png"" style=""width:200px; border:14px solid green;"">","null","","","","","","","","","",""
"","image-keyboard-response","116","125059","0.0-116.0","34J10VATJGKA9F3QJ3N3A2GP1EMIQF","A9LYIVFG3ZU4Z","3BDORL6HKKZHMTYWD6BFF6WBDQ9CRF","","1159","img/land5.png","76","1161","3","1","3","1","1,0.5,0.5,0.5,1,0.5,0.5,0.5,1","1,0.5,0.5,0.5,1,0.5,0.5,0.5,1","1","",""
"","html-keyboard-response","117","125360","0.0-117.0","34J10VATJGKA9F3QJ3N3A2GP1EMIQF","A9LYIVFG3ZU4Z","3BDORL6HKKZHMTYWD6BFF6WBDQ9CRF","","null","<img src=""img/land5.png"" style=""width:200px; border:14px solid green;"">","null","","","","","","","","","",""
"","image-keyboard-response","118","126646","0.0-118.0","34J10VATJGKA9F3QJ3N3A2GP1EMIQF","A9LYIVFG3ZU4Z","3BDORL6HKKZHMTYWD6BFF6WBDQ9CRF","","1285","img/land3.png","75","1286","2","1","2","1","1,0.5,0.5,0.5,1,0.5,0.5,0.5,1","1,0.5,0.5,0.5,1,0.5,0.5,0.5,1","1","",""
"","html-keyboard-response","119","126948","0.0-119.0","34J10VATJGKA9F3QJ3N3A2GP1EMIQF","A9LYIVFG3ZU4Z","3BDORL6HKKZHMTYWD6BFF6WBDQ9CRF","","null","<img src=""img/land3.png"" style=""width:200px; border:14px solid green;"">","null","","","","","","","","","",""
"","image-keyboard-response","120","128007","0.0-120.0","34J10VATJGKA9F3QJ3N3A2GP1EMIQF","A9LYIVFG3ZU4Z","3BDORL6HKKZHMTYWD6BFF6WBDQ9CRF","","1058","img/land5.png","76","1059","3","1","3","1","1,0.5,0.5,0.5,1,0.5,0.5,0.5,1","1,0.5,0.5,0.5,1,0.5,0.5,0.5,1","1","",""
"","html-keyboard-response","121","128308","0.0-121.0","34J10VATJGKA9F3QJ3N3A2GP1EMIQF","A9LYIVFG3ZU4Z","3BDORL6HKKZHMTYWD6BFF6WBDQ9CRF","","null","<img src=""img/land5.png"" style=""width:200px; border:14px solid green;"">","null","","","","","","","","","",""
"","image-keyboard-response","122","129836","0.0-122.0","34J10VATJGKA9F3QJ3N3A2GP1EMIQF","A9LYIVFG3ZU4Z","3BDORL6HKKZHMTYWD6BFF6WBDQ9CRF","","1527","img/land5.png","76","1528","3","1","3","1","1,0.5,0.5,0.5,1,0.5,0.5,0.5,1","1,0.5,0.5,0.5,1,0.5,0.5,0.5,1","1","",""
"","html-keyboard-response","123","130138","0.0-123.0","34J10VATJGKA9F3QJ3N3A2GP1EMIQF","A9LYIVFG3ZU4Z","3BDORL6HKKZHMTYWD6BFF6WBDQ9CRF","","null","<img src=""img/land5.png"" style=""width:200px; border:14px solid green;"">","null","","","","","","","","","",""
"","image-keyboard-response","124","131317","0.0-124.0","34J10VATJGKA9F3QJ3N3A2GP1EMIQF","A9LYIVFG3ZU4Z","3BDORL6HKKZHMTYWD6BFF6WBDQ9CRF","","1179","img/land5.png","76","1179","3","1","3","1","1,0.5,0.5,0.5,1,0.5,0.5,0.5,1","1,0.5,0.5,0.5,1,0.5,0.5,0.5,1","1","",""
"","html-keyboard-response","125","131618","0.0-125.0","34J10VATJGKA9F3QJ3N3A2GP1EMIQF","A9LYIVFG3ZU4Z","3BDORL6HKKZHMTYWD6BFF6WBDQ9CRF","","null","<img src=""img/land5.png"" style=""width:200px; border:14px solid green;"">","null","","","","","","","","","",""
"","image-keyboard-response","126","132906","0.0-126.0","34J10VATJGKA9F3QJ3N3A2GP1EMIQF","A9LYIVFG3ZU4Z","3BDORL6HKKZHMTYWD6BFF6WBDQ9CRF","","1287","img/land5.png","76","1288","3","1","3","1","1,0.5,0.5,0.5,1,0.5,0.5,0.5,1","1,0.5,0.5,0.5,1,0.5,0.5,0.5,1","1","",""
"","html-keyboard-response","127","133207","0.0-127.0","34J10VATJGKA9F3QJ3N3A2GP1EMIQF","A9LYIVFG3ZU4Z","3BDORL6HKKZHMTYWD6BFF6WBDQ9CRF","","null","<img src=""img/land5.png"" style=""width:200px; border:14px solid green;"">","null","","","","","","","","","",""
"","image-keyboard-response","128","134372","0.0-128.0","34J10VATJGKA9F3QJ3N3A2GP1EMIQF","A9LYIVFG3ZU4Z","3BDORL6HKKZHMTYWD6BFF6WBDQ9CRF","","1163","img/land3.png","75","1165","2","1","2","1","1,0.5,0.5,0.5,1,0.5,0.5,0.5,1","1,0.5,0.5,0.5,1,0.5,0.5,0.5,1","1","",""
"","html-keyboard-response","129","134672","0.0-129.0","34J10VATJGKA9F3QJ3N3A2GP1EMIQF","A9LYIVFG3ZU4Z","3BDORL6HKKZHMTYWD6BFF6WBDQ9CRF","","null","<img src=""img/land3.png"" style=""width:200px; border:14px solid green;"">","null","","","","","","","","","",""
"","image-keyboard-response","130","135826","0.0-130.0","34J10VATJGKA9F3QJ3N3A2GP1EMIQF","A9LYIVFG3ZU4Z","3BDORL6HKKZHMTYWD6BFF6WBDQ9CRF","","1153","img/land3.png","75","1154","2","1","2","1","1,0.5,0.5,0.5,1,0.5,0.5,0.5,1","1,0.5,0.5,0.5,1,0.5,0.5,0.5,1","1","",""
"","html-keyboard-response","131","136128","0.0-131.0","34J10VATJGKA9F3QJ3N3A2GP1EMIQF","A9LYIVFG3ZU4Z","3BDORL6HKKZHMTYWD6BFF6WBDQ9CRF","","null","<img src=""img/land3.png"" style=""width:200px; border:14px solid green;"">","null","","","","","","","","","",""
"","image-keyboard-response","132","137136","0.0-132.0","34J10VATJGKA9F3QJ3N3A2GP1EMIQF","A9LYIVFG3ZU4Z","3BDORL6HKKZHMTYWD6BFF6WBDQ9CRF","","1007","img/land6.png","74","1008","1","1","1","1","1,0.5,0.5,0.5,1,0.5,0.5,0.5,1","1,0.5,0.5,0.5,1,0.5,0.5,0.5,1","1","",""
"","html-keyboard-response","133","137437","0.0-133.0","34J10VATJGKA9F3QJ3N3A2GP1EMIQF","A9LYIVFG3ZU4Z","3BDORL6HKKZHMTYWD6BFF6WBDQ9CRF","","null","<img src=""img/land6.png"" style=""width:200px; border:14px solid green;"">","null","","","","","","","","","",""
"","image-keyboard-response","134","138297","0.0-134.0","34J10VATJGKA9F3QJ3N3A2GP1EMIQF","A9LYIVFG3ZU4Z","3BDORL6HKKZHMTYWD6BFF6WBDQ9CRF","","857","img/land6.png","74","858","1","1","1","1","1,0.5,0.5,0.5,1,0.5,0.5,0.5,1","1,0.5,0.5,0.5,1,0.5,0.5,0.5,1","1","",""
"","html-keyboard-response","135","138597","0.0-135.0","34J10VATJGKA9F3QJ3N3A2GP1EMIQF","A9LYIVFG3ZU4Z","3BDORL6HKKZHMTYWD6BFF6WBDQ9CRF","","null","<img src=""img/land6.png"" style=""width:200px; border:14px solid green;"">","null","","","","","","","","","",""
"","image-keyboard-response","136","139686","0.0-136.0","34J10VATJGKA9F3QJ3N3A2GP1EMIQF","A9LYIVFG3ZU4Z","3BDORL6HKKZHMTYWD6BFF6WBDQ9CRF","","1088","img/land3.png","75","1089","2","1","2","1","1,0.5,0.5,0.5,1,0.5,0.5,0.5,1","1,0.5,0.5,0.5,1,0.5,0.5,0.5,1","1","",""
"","html-keyboard-response","137","139988","0.0-137.0","34J10VATJGKA9F3QJ3N3A2GP1EMIQF","A9LYIVFG3ZU4Z","3BDORL6HKKZHMTYWD6BFF6WBDQ9CRF","","null","<img src=""img/land3.png"" style=""width:200px; border:14px solid green;"">","null","","","","","","","","","",""
"","image-keyboard-response","138","141048","0.0-138.0","34J10VATJGKA9F3QJ3N3A2GP1EMIQF","A9LYIVFG3ZU4Z","3BDORL6HKKZHMTYWD6BFF6WBDQ9CRF","","1058","img/land5.png","76","1060","3","1","3","1","1,0.5,0.5,0.5,1,0.5,0.5,0.5,1","1,0.5,0.5,0.5,1,0.5,0.5,0.5,1","1","",""
"","html-keyboard-response","139","141350","0.0-139.0","34J10VATJGKA9F3QJ3N3A2GP1EMIQF","A9LYIVFG3ZU4Z","3BDORL6HKKZHMTYWD6BFF6WBDQ9CRF","","null","<img src=""img/land5.png"" style=""width:200px; border:14px solid green;"">","null","","","","","","","","","",""
"","image-keyboard-response","140","142752","0.0-140.0","34J10VATJGKA9F3QJ3N3A2GP1EMIQF","A9LYIVFG3ZU4Z","3BDORL6HKKZHMTYWD6BFF6WBDQ9CRF","","1402","img/land3.png","75","1402","2","1","2","1","1,0.5,0.5,0.5,1,0.5,0.5,0.5,1","1,0.5,0.5,0.5,1,0.5,0.5,0.5,1","1","",""
"","html-keyboard-response","141","143053","0.0-141.0","34J10VATJGKA9F3QJ3N3A2GP1EMIQF","A9LYIVFG3ZU4Z","3BDORL6HKKZHMTYWD6BFF6WBDQ9CRF","","null","<img src=""img/land3.png"" style=""width:200px; border:14px solid green;"">","null","","","","","","","","","",""
"","image-keyboard-response","142","144208","0.0-142.0","34J10VATJGKA9F3QJ3N3A2GP1EMIQF","A9LYIVFG3ZU4Z","3BDORL6HKKZHMTYWD6BFF6WBDQ9CRF","","1153","img/land5.png","75","1155","2","0","3","1","1,0.5,0.5,0.5,1,0.5,0.5,0.5,1","1,0.5,0.5,0.5,1,0.5,0.5,0.5,1","1","",""
"","html-keyboard-response","143","144509","0.0-143.0","34J10VATJGKA9F3QJ3N3A2GP1EMIQF","A9LYIVFG3ZU4Z","3BDORL6HKKZHMTYWD6BFF6WBDQ9CRF","","null","<img src=""img/land5.png"" style=""width:200px;border:14px solid red;"">","null","","","","","","","","","",""
"","image-keyboard-response","144","145616","0.0-144.0","34J10VATJGKA9F3QJ3N3A2GP1EMIQF","A9LYIVFG3ZU4Z","3BDORL6HKKZHMTYWD6BFF6WBDQ9CRF","","1106","img/land3.png","75","1107","2","1","2","1","1,0.5,0.5,0.5,1,0.5,0.5,0.5,1","1,0.5,0.5,0.5,1,0.5,0.5,0.5,1","1","",""
"","html-keyboard-response","145","145918","0.0-145.0","34J10VATJGKA9F3QJ3N3A2GP1EMIQF","A9LYIVFG3ZU4Z","3BDORL6HKKZHMTYWD6BFF6WBDQ9CRF","","null","<img src=""img/land3.png"" style=""width:200px; border:14px solid green;"">","null","","","","","","","","","",""
"","image-keyboard-response","146","147830","0.0-146.0","34J10VATJGKA9F3QJ3N3A2GP1EMIQF","A9LYIVFG3ZU4Z","3BDORL6HKKZHMTYWD6BFF6WBDQ9CRF","","1912","img/land3.png","75","1912","2","1","2","1","1,0.5,0.5,0.5,1,0.5,0.5,0.5,1","1,0.5,0.5,0.5,1,0.5,0.5,0.5,1","1","",""
"","html-keyboard-response","147","148131","0.0-147.0","34J10VATJGKA9F3QJ3N3A2GP1EMIQF","A9LYIVFG3ZU4Z","3BDORL6HKKZHMTYWD6BFF6WBDQ9CRF","","null","<img src=""img/land3.png"" style=""width:200px; border:14px solid green;"">","null","","","","","","","","","",""
"","image-keyboard-response","148","149487","0.0-148.0","34J10VATJGKA9F3QJ3N3A2GP1EMIQF","A9LYIVFG3ZU4Z","3BDORL6HKKZHMTYWD6BFF6WBDQ9CRF","","1355","img/land6.png","74","1356","1","1","1","1","1,0.5,0.5,0.5,1,0.5,0.5,0.5,1","1,0.5,0.5,0.5,1,0.5,0.5,0.5,1","1","",""
"","html-keyboard-response","149","149788","0.0-149.0","34J10VATJGKA9F3QJ3N3A2GP1EMIQF","A9LYIVFG3ZU4Z","3BDORL6HKKZHMTYWD6BFF6WBDQ9CRF","","null","<img src=""img/land6.png"" style=""width:200px; border:14px solid green;"">","null","","","","","","","","","",""
"","image-keyboard-response","150","150887","0.0-150.0","34J10VATJGKA9F3QJ3N3A2GP1EMIQF","A9LYIVFG3ZU4Z","3BDORL6HKKZHMTYWD6BFF6WBDQ9CRF","","1099","img/land5.png","76","1099","3","1","3","1","1,0.5,0.5,0.5,1,0.5,0.5,0.5,1","1,0.5,0.5,0.5,1,0.5,0.5,0.5,1","1","",""
"","html-keyboard-response","151","151187","0.0-151.0","34J10VATJGKA9F3QJ3N3A2GP1EMIQF","A9LYIVFG3ZU4Z","3BDORL6HKKZHMTYWD6BFF6WBDQ9CRF","","null","<img src=""img/land5.png"" style=""width:200px; border:14px solid green;"">","null","","","","","","","","","",""
"","image-keyboard-response","152","152656","0.0-152.0","34J10VATJGKA9F3QJ3N3A2GP1EMIQF","A9LYIVFG3ZU4Z","3BDORL6HKKZHMTYWD6BFF6WBDQ9CRF","","1468","img/land6.png","74","1469","1","1","1","1","1,0.5,0.5,0.5,1,0.5,0.5,0.5,1","1,0.5,0.5,0.5,1,0.5,0.5,0.5,1","1","",""
"","html-keyboard-response","153","152968","0.0-153.0","34J10VATJGKA9F3QJ3N3A2GP1EMIQF","A9LYIVFG3ZU4Z","3BDORL6HKKZHMTYWD6BFF6WBDQ9CRF","","null","<img src=""img/land6.png"" style=""width:200px; border:14px solid green;"">","null","","","","","","","","","",""
"","image-keyboard-response","154","154217","0.0-154.0","34J10VATJGKA9F3QJ3N3A2GP1EMIQF","A9LYIVFG3ZU4Z","3BDORL6HKKZHMTYWD6BFF6WBDQ9CRF","","1247","img/land5.png","76","1249","3","1","3","1","1,0.5,0.5,0.5,1,0.5,0.5,0.5,1","1,0.5,0.5,0.5,1,0.5,0.5,0.5,1","1","",""
"","html-keyboard-response","155","154518","0.0-155.0","34J10VATJGKA9F3QJ3N3A2GP1EMIQF","A9LYIVFG3ZU4Z","3BDORL6HKKZHMTYWD6BFF6WBDQ9CRF","","null","<img src=""img/land5.png"" style=""width:200px; border:14px solid green;"">","null","","","","","","","","","",""
"","image-keyboard-response","156","155716","0.0-156.0","34J10VATJGKA9F3QJ3N3A2GP1EMIQF","A9LYIVFG3ZU4Z","3BDORL6HKKZHMTYWD6BFF6WBDQ9CRF","","1197","img/land3.png","75","1198","2","1","2","1","1,0.5,0.5,0.5,1,0.5,0.5,0.5,1","1,0.5,0.5,0.5,1,0.5,0.5,0.5,1","1","",""
"","html-keyboard-response","157","156018","0.0-157.0","34J10VATJGKA9F3QJ3N3A2GP1EMIQF","A9LYIVFG3ZU4Z","3BDORL6HKKZHMTYWD6BFF6WBDQ9CRF","","null","<img src=""img/land3.png"" style=""width:200px; border:14px solid green;"">","null","","","","","","","","","",""
"","image-keyboard-response","158","157806","0.0-158.0","34J10VATJGKA9F3QJ3N3A2GP1EMIQF","A9LYIVFG3ZU4Z","3BDORL6HKKZHMTYWD6BFF6WBDQ9CRF","","1788","img/land6.png","74","1788","1","1","1","1","1,0.5,0.5,0.5,1,0.5,0.5,0.5,1","1,0.5,0.5,0.5,1,0.5,0.5,0.5,1","1","",""
"","html-keyboard-response","159","158107","0.0-159.0","34J10VATJGKA9F3QJ3N3A2GP1EMIQF","A9LYIVFG3ZU4Z","3BDORL6HKKZHMTYWD6BFF6WBDQ9CRF","","null","<img src=""img/land6.png"" style=""width:200px; border:14px solid green;"">","null","","","","","","","","","",""
"","image-keyboard-response","160","159686","0.0-160.0","34J10VATJGKA9F3QJ3N3A2GP1EMIQF","A9LYIVFG3ZU4Z","3BDORL6HKKZHMTYWD6BFF6WBDQ9CRF","","1579","img/land5.png","76","1579","3","1","3","1","1,0.5,0.5,0.5,1,0.5,0.5,0.5,1","1,0.5,0.5,0.5,1,0.5,0.5,0.5,1","1","",""
"","html-keyboard-response","161","159987","0.0-161.0","34J10VATJGKA9F3QJ3N3A2GP1EMIQF","A9LYIVFG3ZU4Z","3BDORL6HKKZHMTYWD6BFF6WBDQ9CRF","","null","<img src=""img/land5.png"" style=""width:200px; border:14px solid green;"">","null","","","","","","","","","",""
"","image-keyboard-response","162","161247","0.0-162.0","34J10VATJGKA9F3QJ3N3A2GP1EMIQF","A9LYIVFG3ZU4Z","3BDORL6HKKZHMTYWD6BFF6WBDQ9CRF","","1259","img/land3.png","75","1260","2","1","2","1","1,0.5,0.5,0.5,1,0.5,0.5,0.5,1","1,0.5,0.5,0.5,1,0.5,0.5,0.5,1","1","",""
"","html-keyboard-response","163","161547","0.0-163.0","34J10VATJGKA9F3QJ3N3A2GP1EMIQF","A9LYIVFG3ZU4Z","3BDORL6HKKZHMTYWD6BFF6WBDQ9CRF","","null","<img src=""img/land3.png"" style=""width:200px; border:14px solid green;"">","null","","","","","","","","","",""
"","image-keyboard-response","164","162757","0.0-164.0","34J10VATJGKA9F3QJ3N3A2GP1EMIQF","A9LYIVFG3ZU4Z","3BDORL6HKKZHMTYWD6BFF6WBDQ9CRF","","1209","img/land6.png","74","1210","1","1","1","1","1,0.5,0.5,0.5,1,0.5,0.5,0.5,1","1,0.5,0.5,0.5,1,0.5,0.5,0.5,1","1","",""
"","html-keyboard-response","165","163059","0.0-165.0","34J10VATJGKA9F3QJ3N3A2GP1EMIQF","A9LYIVFG3ZU4Z","3BDORL6HKKZHMTYWD6BFF6WBDQ9CRF","","null","<img src=""img/land6.png"" style=""width:200px; border:14px solid green;"">","null","","","","","","","","","",""
"","image-keyboard-response","166","164487","0.0-166.0","34J10VATJGKA9F3QJ3N3A2GP1EMIQF","A9LYIVFG3ZU4Z","3BDORL6HKKZHMTYWD6BFF6WBDQ9CRF","","1427","img/land6.png","74","1428","1","1","1","1","1,0.5,0.5,0.5,1,0.5,0.5,0.5,1","1,0.5,0.5,0.5,1,0.5,0.5,0.5,1","1","",""
"","html-keyboard-response","167","164788","0.0-167.0","34J10VATJGKA9F3QJ3N3A2GP1EMIQF","A9LYIVFG3ZU4Z","3BDORL6HKKZHMTYWD6BFF6WBDQ9CRF","","null","<img src=""img/land6.png"" style=""width:200px; border:14px solid green;"">","null","","","","","","","","","",""
"","image-keyboard-response","168","166066","0.0-168.0","34J10VATJGKA9F3QJ3N3A2GP1EMIQF","A9LYIVFG3ZU4Z","3BDORL6HKKZHMTYWD6BFF6WBDQ9CRF","","1277","img/land3.png","75","1278","2","1","2","1","1,0.5,0.5,0.5,1,0.5,0.5,0.5,1","1,0.5,0.5,0.5,1,0.5,0.5,0.5,1","1","",""
"","html-keyboard-response","169","166367","0.0-169.0","34J10VATJGKA9F3QJ3N3A2GP1EMIQF","A9LYIVFG3ZU4Z","3BDORL6HKKZHMTYWD6BFF6WBDQ9CRF","","null","<img src=""img/land3.png"" style=""width:200px; border:14px solid green;"">","null","","","","","","","","","",""
"","image-keyboard-response","170","167578","0.0-170.0","34J10VATJGKA9F3QJ3N3A2GP1EMIQF","A9LYIVFG3ZU4Z","3BDORL6HKKZHMTYWD6BFF6WBDQ9CRF","","1210","img/land6.png","74","1211","1","1","1","1","1,0.5,0.5,0.5,1,0.5,0.5,0.5,1","1,0.5,0.5,0.5,1,0.5,0.5,0.5,1","1","",""
"","html-keyboard-response","171","167878","0.0-171.0","34J10VATJGKA9F3QJ3N3A2GP1EMIQF","A9LYIVFG3ZU4Z","3BDORL6HKKZHMTYWD6BFF6WBDQ9CRF","","null","<img src=""img/land6.png"" style=""width:200px; border:14px solid green;"">","null","","","","","","","","","",""
"","image-keyboard-response","172","169246","0.0-172.0","34J10VATJGKA9F3QJ3N3A2GP1EMIQF","A9LYIVFG3ZU4Z","3BDORL6HKKZHMTYWD6BFF6WBDQ9CRF","","1367","img/land6.png","74","1368","1","1","1","1","1,0.5,0.5,0.5,1,0.5,0.5,0.5,1","1,0.5,0.5,0.5,1,0.5,0.5,0.5,1","1","",""
"","html-keyboard-response","173","169548","0.0-173.0","34J10VATJGKA9F3QJ3N3A2GP1EMIQF","A9LYIVFG3ZU4Z","3BDORL6HKKZHMTYWD6BFF6WBDQ9CRF","","null","<img src=""img/land6.png"" style=""width:200px; border:14px solid green;"">","null","","","","","","","","","",""
"","image-keyboard-response","174","170387","0.0-174.0","34J10VATJGKA9F3QJ3N3A2GP1EMIQF","A9LYIVFG3ZU4Z","3BDORL6HKKZHMTYWD6BFF6WBDQ9CRF","","837","img/land6.png","74","839","1","1","1","1","1,0.5,0.5,0.5,1,0.5,0.5,0.5,1","1,0.5,0.5,0.5,1,0.5,0.5,0.5,1","1","",""
"","html-keyboard-response","175","170687","0.0-175.0","34J10VATJGKA9F3QJ3N3A2GP1EMIQF","A9LYIVFG3ZU4Z","3BDORL6HKKZHMTYWD6BFF6WBDQ9CRF","","null","<img src=""img/land6.png"" style=""width:200px; border:14px solid green;"">","null","","","","","","","","","",""
"","image-keyboard-response","176","171966","0.0-176.0","34J10VATJGKA9F3QJ3N3A2GP1EMIQF","A9LYIVFG3ZU4Z","3BDORL6HKKZHMTYWD6BFF6WBDQ9CRF","","1278","img/land3.png","75","1279","2","1","2","1","1,0.5,0.5,0.5,1,0.5,0.5,0.5,1","1,0.5,0.5,0.5,1,0.5,0.5,0.5,1","1","",""
"","html-keyboard-response","177","172268","0.0-177.0","34J10VATJGKA9F3QJ3N3A2GP1EMIQF","A9LYIVFG3ZU4Z","3BDORL6HKKZHMTYWD6BFF6WBDQ9CRF","","null","<img src=""img/land3.png"" style=""width:200px; border:14px solid green;"">","null","","","","","","","","","",""
"","image-keyboard-response","178","173507","0.0-178.0","34J10VATJGKA9F3QJ3N3A2GP1EMIQF","A9LYIVFG3ZU4Z","3BDORL6HKKZHMTYWD6BFF6WBDQ9CRF","","1237","img/land5.png","76","1239","3","1","3","1","1,0.5,0.5,0.5,1,0.5,0.5,0.5,1","1,0.5,0.5,0.5,1,0.5,0.5,0.5,1","1","",""
"","html-keyboard-response","179","173807","0.0-179.0","34J10VATJGKA9F3QJ3N3A2GP1EMIQF","A9LYIVFG3ZU4Z","3BDORL6HKKZHMTYWD6BFF6WBDQ9CRF","","null","<img src=""img/land5.png"" style=""width:200px; border:14px solid green;"">","null","","","","","","","","","",""
"","image-keyboard-response","180","174737","0.0-180.0","34J10VATJGKA9F3QJ3N3A2GP1EMIQF","A9LYIVFG3ZU4Z","3BDORL6HKKZHMTYWD6BFF6WBDQ9CRF","","928","img/land3.png","74","930","1","0","2","1","1,0.5,0.5,0.5,1,0.5,0.5,0.5,1","1,0.5,0.5,0.5,1,0.5,0.5,0.5,1","1","",""
"","html-keyboard-response","181","175037","0.0-181.0","34J10VATJGKA9F3QJ3N3A2GP1EMIQF","A9LYIVFG3ZU4Z","3BDORL6HKKZHMTYWD6BFF6WBDQ9CRF","","null","<img src=""img/land3.png"" style=""width:200px;border:14px solid red;"">","null","","","","","","","","","",""
"","html-keyboard-response","182","180117","0.0-182.0","34J10VATJGKA9F3QJ3N3A2GP1EMIQF","A9LYIVFG3ZU4Z","3BDORL6HKKZHMTYWD6BFF6WBDQ9CRF","","","","","","","","","","","","","",""
"","image-keyboard-response","183","182119","0.0-183.0","34J10VATJGKA9F3QJ3N3A2GP1EMIQF","A9LYIVFG3ZU4Z","3BDORL6HKKZHMTYWD6BFF6WBDQ9CRF","","","img/land1.png","","2002","-1","0","1","2","1,0.5,0.5,0.5,1,0.5,0.5,0.5,1","0.5,0.5,1,1,0.5,0.5,0.5,1,0.5","2","",""
"","html-keyboard-response","184","182420","0.0-184.0","34J10VATJGKA9F3QJ3N3A2GP1EMIQF","A9LYIVFG3ZU4Z","3BDORL6HKKZHMTYWD6BFF6WBDQ9CRF","","null","<img src=""img/land1.png"" style=""width:200px;border:14px solid red;"">","null","","","","","","","","","",""
"","image-keyboard-response","185","184127","0.0-185.0","34J10VATJGKA9F3QJ3N3A2GP1EMIQF","A9LYIVFG3ZU4Z","3BDORL6HKKZHMTYWD6BFF6WBDQ9CRF","","1706","img/land1.png","74","1707","1","1","1","2","1,0.5,0.5,0.5,1,0.5,0.5,0.5,1","0.5,0.5,1,1,0.5,0.5,0.5,1,0.5","2","",""
"","html-keyboard-response","186","184429","0.0-186.0","34J10VATJGKA9F3QJ3N3A2GP1EMIQF","A9LYIVFG3ZU4Z","3BDORL6HKKZHMTYWD6BFF6WBDQ9CRF","","null","<img src=""img/land1.png"" style=""width:200px; border:14px solid green;"">","null","","","","","","","","","",""
"","image-keyboard-response","187","185507","0.0-187.0","34J10VATJGKA9F3QJ3N3A2GP1EMIQF","A9LYIVFG3ZU4Z","3BDORL6HKKZHMTYWD6BFF6WBDQ9CRF","","1077","img/land2.png","75","1078","2","1","3","2","1,0.5,0.5,0.5,1,0.5,0.5,0.5,1","0.5,0.5,1,1,0.5,0.5,0.5,1,0.5","2","",""
"","html-keyboard-response","188","185807","0.0-188.0","34J10VATJGKA9F3QJ3N3A2GP1EMIQF","A9LYIVFG3ZU4Z","3BDORL6HKKZHMTYWD6BFF6WBDQ9CRF","","null","<img src=""img/land2.png"" style=""width:200px; border:14px solid green;"">","null","","","","","","","","","",""
"","image-keyboard-response","189","187267","0.0-189.0","34J10VATJGKA9F3QJ3N3A2GP1EMIQF","A9LYIVFG3ZU4Z","3BDORL6HKKZHMTYWD6BFF6WBDQ9CRF","","1460","img/land1.png","74","1460","1","1","1","2","1,0.5,0.5,0.5,1,0.5,0.5,0.5,1","0.5,0.5,1,1,0.5,0.5,0.5,1,0.5","2","",""
"","html-keyboard-response","190","187567","0.0-190.0","34J10VATJGKA9F3QJ3N3A2GP1EMIQF","A9LYIVFG3ZU4Z","3BDORL6HKKZHMTYWD6BFF6WBDQ9CRF","","null","<img src=""img/land1.png"" style=""width:200px; border:14px solid green;"">","null","","","","","","","","","",""
"","image-keyboard-response","191","188784","0.0-191.0","34J10VATJGKA9F3QJ3N3A2GP1EMIQF","A9LYIVFG3ZU4Z","3BDORL6HKKZHMTYWD6BFF6WBDQ9CRF","","1216","img/land4.png","76","1217","3","1","2","2","1,0.5,0.5,0.5,1,0.5,0.5,0.5,1","0.5,0.5,1,1,0.5,0.5,0.5,1,0.5","2","",""
"","html-keyboard-response","192","189086","0.0-192.0","34J10VATJGKA9F3QJ3N3A2GP1EMIQF","A9LYIVFG3ZU4Z","3BDORL6HKKZHMTYWD6BFF6WBDQ9CRF","","null","<img src=""img/land4.png"" style=""width:200px; border:14px solid green;"">","null","","","","","","","","","",""
"","image-keyboard-response","193","190944","0.0-193.0","34J10VATJGKA9F3QJ3N3A2GP1EMIQF","A9LYIVFG3ZU4Z","3BDORL6HKKZHMTYWD6BFF6WBDQ9CRF","","1857","img/land2.png","75","1858","2","1","3","2","1,0.5,0.5,0.5,1,0.5,0.5,0.5,1","0.5,0.5,1,1,0.5,0.5,0.5,1,0.5","2","",""
"","html-keyboard-response","194","191245","0.0-194.0","34J10VATJGKA9F3QJ3N3A2GP1EMIQF","A9LYIVFG3ZU4Z","3BDORL6HKKZHMTYWD6BFF6WBDQ9CRF","","null","<img src=""img/land2.png"" style=""width:200px; border:14px solid green;"">","null","","","","","","","","","",""
"","image-keyboard-response","195","192757","0.0-195.0","34J10VATJGKA9F3QJ3N3A2GP1EMIQF","A9LYIVFG3ZU4Z","3BDORL6HKKZHMTYWD6BFF6WBDQ9CRF","","1497","img/land4.png","76","1498","3","1","2","2","1,0.5,0.5,0.5,1,0.5,0.5,0.5,1","0.5,0.5,1,1,0.5,0.5,0.5,1,0.5","2","",""
"","html-keyboard-response","196","193057","0.0-196.0","34J10VATJGKA9F3QJ3N3A2GP1EMIQF","A9LYIVFG3ZU4Z","3BDORL6HKKZHMTYWD6BFF6WBDQ9CRF","","null","<img src=""img/land4.png"" style=""width:200px; border:14px solid green;"">","null","","","","","","","","","",""
"","image-keyboard-response","197","194665","0.0-197.0","34J10VATJGKA9F3QJ3N3A2GP1EMIQF","A9LYIVFG3ZU4Z","3BDORL6HKKZHMTYWD6BFF6WBDQ9CRF","","1607","img/land1.png","74","1609","1","0","1","2","1,0.5,0.5,0.5,1,0.5,0.5,0.5,1","0.5,0.5,1,1,0.5,0.5,0.5,1,0.5","2","",""
"","html-keyboard-response","198","194966","0.0-198.0","34J10VATJGKA9F3QJ3N3A2GP1EMIQF","A9LYIVFG3ZU4Z","3BDORL6HKKZHMTYWD6BFF6WBDQ9CRF","","null","<img src=""img/land1.png"" style=""width:200px;border:14px solid red;"">","null","","","","","","","","","",""
"","image-keyboard-response","199","196256","0.0-199.0","34J10VATJGKA9F3QJ3N3A2GP1EMIQF","A9LYIVFG3ZU4Z","3BDORL6HKKZHMTYWD6BFF6WBDQ9CRF","","1290","img/land2.png","75","1290","2","1","3","2","1,0.5,0.5,0.5,1,0.5,0.5,0.5,1","0.5,0.5,1,1,0.5,0.5,0.5,1,0.5","2","",""
"","html-keyboard-response","200","196558","0.0-200.0","34J10VATJGKA9F3QJ3N3A2GP1EMIQF","A9LYIVFG3ZU4Z","3BDORL6HKKZHMTYWD6BFF6WBDQ9CRF","","null","<img src=""img/land2.png"" style=""width:200px; border:14px solid green;"">","null","","","","","","","","","",""
"","image-keyboard-response","201","198453","0.0-201.0","34J10VATJGKA9F3QJ3N3A2GP1EMIQF","A9LYIVFG3ZU4Z","3BDORL6HKKZHMTYWD6BFF6WBDQ9CRF","","1894","img/land1.png","74","1896","1","0","1","2","1,0.5,0.5,0.5,1,0.5,0.5,0.5,1","0.5,0.5,1,1,0.5,0.5,0.5,1,0.5","2","",""
"","html-keyboard-response","202","198754","0.0-202.0","34J10VATJGKA9F3QJ3N3A2GP1EMIQF","A9LYIVFG3ZU4Z","3BDORL6HKKZHMTYWD6BFF6WBDQ9CRF","","null","<img src=""img/land1.png"" style=""width:200px;border:14px solid red;"">","null","","","","","","","","","",""
"","image-keyboard-response","203","200194","0.0-203.0","34J10VATJGKA9F3QJ3N3A2GP1EMIQF","A9LYIVFG3ZU4Z","3BDORL6HKKZHMTYWD6BFF6WBDQ9CRF","","1439","img/land4.png","76","1440","3","0","2","2","1,0.5,0.5,0.5,1,0.5,0.5,0.5,1","0.5,0.5,1,1,0.5,0.5,0.5,1,0.5","2","",""
"","html-keyboard-response","204","200494","0.0-204.0","34J10VATJGKA9F3QJ3N3A2GP1EMIQF","A9LYIVFG3ZU4Z","3BDORL6HKKZHMTYWD6BFF6WBDQ9CRF","","null","<img src=""img/land4.png"" style=""width:200px;border:14px solid red;"">","null","","","","","","","","","",""
"","image-keyboard-response","205","201739","0.0-205.0","34J10VATJGKA9F3QJ3N3A2GP1EMIQF","A9LYIVFG3ZU4Z","3BDORL6HKKZHMTYWD6BFF6WBDQ9CRF","","1244","img/land2.png","76","1245","3","1","3","2","1,0.5,0.5,0.5,1,0.5,0.5,0.5,1","0.5,0.5,1,1,0.5,0.5,0.5,1,0.5","2","",""
"","html-keyboard-response","206","202041","0.0-206.0","34J10VATJGKA9F3QJ3N3A2GP1EMIQF","A9LYIVFG3ZU4Z","3BDORL6HKKZHMTYWD6BFF6WBDQ9CRF","","null","<img src=""img/land2.png"" style=""width:200px; border:14px solid green;"">","null","","","","","","","","","",""
"","image-keyboard-response","207","203407","0.0-207.0","34J10VATJGKA9F3QJ3N3A2GP1EMIQF","A9LYIVFG3ZU4Z","3BDORL6HKKZHMTYWD6BFF6WBDQ9CRF","","1365","img/land1.png","75","1366","2","0","1","2","1,0.5,0.5,0.5,1,0.5,0.5,0.5,1","0.5,0.5,1,1,0.5,0.5,0.5,1,0.5","2","",""
"","html-keyboard-response","208","203709","0.0-208.0","34J10VATJGKA9F3QJ3N3A2GP1EMIQF","A9LYIVFG3ZU4Z","3BDORL6HKKZHMTYWD6BFF6WBDQ9CRF","","null","<img src=""img/land1.png"" style=""width:200px;border:14px solid red;"">","null","","","","","","","","","",""
"","image-keyboard-response","209","204445","0.0-209.0","34J10VATJGKA9F3QJ3N3A2GP1EMIQF","A9LYIVFG3ZU4Z","3BDORL6HKKZHMTYWD6BFF6WBDQ9CRF","","735","img/land4.png","76","736","3","0","2","2","1,0.5,0.5,0.5,1,0.5,0.5,0.5,1","0.5,0.5,1,1,0.5,0.5,0.5,1,0.5","2","",""
"","html-keyboard-response","210","204745","0.0-210.0","34J10VATJGKA9F3QJ3N3A2GP1EMIQF","A9LYIVFG3ZU4Z","3BDORL6HKKZHMTYWD6BFF6WBDQ9CRF","","null","<img src=""img/land4.png"" style=""width:200px;border:14px solid red;"">","null","","","","","","","","","",""
"","image-keyboard-response","211","205587","0.0-211.0","34J10VATJGKA9F3QJ3N3A2GP1EMIQF","A9LYIVFG3ZU4Z","3BDORL6HKKZHMTYWD6BFF6WBDQ9CRF","","841","img/land1.png","74","842","1","1","1","2","1,0.5,0.5,0.5,1,0.5,0.5,0.5,1","0.5,0.5,1,1,0.5,0.5,0.5,1,0.5","2","",""
"","html-keyboard-response","212","205888","0.0-212.0","34J10VATJGKA9F3QJ3N3A2GP1EMIQF","A9LYIVFG3ZU4Z","3BDORL6HKKZHMTYWD6BFF6WBDQ9CRF","","null","<img src=""img/land1.png"" style=""width:200px; border:14px solid green;"">","null","","","","","","","","","",""
"","image-keyboard-response","213","206086","0.0-213.0","34J10VATJGKA9F3QJ3N3A2GP1EMIQF","A9LYIVFG3ZU4Z","3BDORL6HKKZHMTYWD6BFF6WBDQ9CRF","","195","img/land1.png","76","198","3","1","1","2","1,0.5,0.5,0.5,1,0.5,0.5,0.5,1","0.5,0.5,1,1,0.5,0.5,0.5,1,0.5","2","",""
"","html-keyboard-response","214","206388","0.0-214.0","34J10VATJGKA9F3QJ3N3A2GP1EMIQF","A9LYIVFG3ZU4Z","3BDORL6HKKZHMTYWD6BFF6WBDQ9CRF","","null","<img src=""img/land1.png"" style=""width:200px; border:14px solid green;"">","null","","","","","","","","","",""
"","image-keyboard-response","215","206669","0.0-215.0","34J10VATJGKA9F3QJ3N3A2GP1EMIQF","A9LYIVFG3ZU4Z","3BDORL6HKKZHMTYWD6BFF6WBDQ9CRF","","279","img/land4.png","75","281","2","0","2","2","1,0.5,0.5,0.5,1,0.5,0.5,0.5,1","0.5,0.5,1,1,0.5,0.5,0.5,1,0.5","2","",""
"","html-keyboard-response","216","206970","0.0-216.0","34J10VATJGKA9F3QJ3N3A2GP1EMIQF","A9LYIVFG3ZU4Z","3BDORL6HKKZHMTYWD6BFF6WBDQ9CRF","","null","<img src=""img/land4.png"" style=""width:200px;border:14px solid red;"">","null","","","","","","","","","",""
"","image-keyboard-response","217","207187","0.0-217.0","34J10VATJGKA9F3QJ3N3A2GP1EMIQF","A9LYIVFG3ZU4Z","3BDORL6HKKZHMTYWD6BFF6WBDQ9CRF","","215","img/land1.png","76","217","3","1","1","2","1,0.5,0.5,0.5,1,0.5,0.5,0.5,1","0.5,0.5,1,1,0.5,0.5,0.5,1,0.5","2","",""
"","html-keyboard-response","218","207489","0.0-218.0","34J10VATJGKA9F3QJ3N3A2GP1EMIQF","A9LYIVFG3ZU4Z","3BDORL6HKKZHMTYWD6BFF6WBDQ9CRF","","null","<img src=""img/land1.png"" style=""width:200px; border:14px solid green;"">","null","","","","","","","","","",""
"","image-keyboard-response","219","207589","0.0-219.0","34J10VATJGKA9F3QJ3N3A2GP1EMIQF","A9LYIVFG3ZU4Z","3BDORL6HKKZHMTYWD6BFF6WBDQ9CRF","","99","img/land2.png","74","100","1","1","3","2","1,0.5,0.5,0.5,1,0.5,0.5,0.5,1","0.5,0.5,1,1,0.5,0.5,0.5,1,0.5","2","",""
"","html-keyboard-response","220","207889","0.0-220.0","34J10VATJGKA9F3QJ3N3A2GP1EMIQF","A9LYIVFG3ZU4Z","3BDORL6HKKZHMTYWD6BFF6WBDQ9CRF","","null","<img src=""img/land2.png"" style=""width:200px; border:14px solid green;"">","null","","","","","","","","","",""
"","image-keyboard-response","221","207936","0.0-221.0","34J10VATJGKA9F3QJ3N3A2GP1EMIQF","A9LYIVFG3ZU4Z","3BDORL6HKKZHMTYWD6BFF6WBDQ9CRF","","45","img/land1.png","75","47","2","0","1","2","1,0.5,0.5,0.5,1,0.5,0.5,0.5,1","0.5,0.5,1,1,0.5,0.5,0.5,1,0.5","2","",""
"","html-keyboard-response","222","208236","0.0-222.0","34J10VATJGKA9F3QJ3N3A2GP1EMIQF","A9LYIVFG3ZU4Z","3BDORL6HKKZHMTYWD6BFF6WBDQ9CRF","","null","<img src=""img/land1.png"" style=""width:200px;border:14px solid red;"">","null","","","","","","","","","",""
"","image-keyboard-response","223","208447","0.0-223.0","34J10VATJGKA9F3QJ3N3A2GP1EMIQF","A9LYIVFG3ZU4Z","3BDORL6HKKZHMTYWD6BFF6WBDQ9CRF","","210","img/land1.png","75","212","2","0","1","2","1,0.5,0.5,0.5,1,0.5,0.5,0.5,1","0.5,0.5,1,1,0.5,0.5,0.5,1,0.5","2","",""
"","html-keyboard-response","224","208749","0.0-224.0","34J10VATJGKA9F3QJ3N3A2GP1EMIQF","A9LYIVFG3ZU4Z","3BDORL6HKKZHMTYWD6BFF6WBDQ9CRF","","null","<img src=""img/land1.png"" style=""width:200px;border:14px solid red;"">","null","","","","","","","","","",""
"","image-keyboard-response","225","208807","0.0-225.0","34J10VATJGKA9F3QJ3N3A2GP1EMIQF","A9LYIVFG3ZU4Z","3BDORL6HKKZHMTYWD6BFF6WBDQ9CRF","","56","img/land1.png","74","58","1","1","1","2","1,0.5,0.5,0.5,1,0.5,0.5,0.5,1","0.5,0.5,1,1,0.5,0.5,0.5,1,0.5","2","",""
"","html-keyboard-response","226","209108","0.0-226.0","34J10VATJGKA9F3QJ3N3A2GP1EMIQF","A9LYIVFG3ZU4Z","3BDORL6HKKZHMTYWD6BFF6WBDQ9CRF","","null","<img src=""img/land1.png"" style=""width:200px; border:14px solid green;"">","null","","","","","","","","","",""
"","image-keyboard-response","227","209257","0.0-227.0","34J10VATJGKA9F3QJ3N3A2GP1EMIQF","A9LYIVFG3ZU4Z","3BDORL6HKKZHMTYWD6BFF6WBDQ9CRF","","148","img/land4.png","76","149","3","1","2","2","1,0.5,0.5,0.5,1,0.5,0.5,0.5,1","0.5,0.5,1,1,0.5,0.5,0.5,1,0.5","2","",""
"","html-keyboard-response","228","209558","0.0-228.0","34J10VATJGKA9F3QJ3N3A2GP1EMIQF","A9LYIVFG3ZU4Z","3BDORL6HKKZHMTYWD6BFF6WBDQ9CRF","","null","<img src=""img/land4.png"" style=""width:200px; border:14px solid green;"">","null","","","","","","","","","",""
"","image-keyboard-response","229","209585","0.0-229.0","34J10VATJGKA9F3QJ3N3A2GP1EMIQF","A9LYIVFG3ZU4Z","3BDORL6HKKZHMTYWD6BFF6WBDQ9CRF","","26","img/land1.png","74","27","1","1","1","2","1,0.5,0.5,0.5,1,0.5,0.5,0.5,1","0.5,0.5,1,1,0.5,0.5,0.5,1,0.5","2","",""
"","html-keyboard-response","230","209887","0.0-230.0","34J10VATJGKA9F3QJ3N3A2GP1EMIQF","A9LYIVFG3ZU4Z","3BDORL6HKKZHMTYWD6BFF6WBDQ9CRF","","null","<img src=""img/land1.png"" style=""width:200px; border:14px solid green;"">","null","","","","","","","","","",""
"","image-keyboard-response","231","210077","0.0-231.0","34J10VATJGKA9F3QJ3N3A2GP1EMIQF","A9LYIVFG3ZU4Z","3BDORL6HKKZHMTYWD6BFF6WBDQ9CRF","","189","img/land2.png","76","189","3","0","3","2","1,0.5,0.5,0.5,1,0.5,0.5,0.5,1","0.5,0.5,1,1,0.5,0.5,0.5,1,0.5","2","",""
"","html-keyboard-response","232","210378","0.0-232.0","34J10VATJGKA9F3QJ3N3A2GP1EMIQF","A9LYIVFG3ZU4Z","3BDORL6HKKZHMTYWD6BFF6WBDQ9CRF","","null","<img src=""img/land2.png"" style=""width:200px;border:14px solid red;"">","null","","","","","","","","","",""
"","image-keyboard-response","233","210618","0.0-233.0","34J10VATJGKA9F3QJ3N3A2GP1EMIQF","A9LYIVFG3ZU4Z","3BDORL6HKKZHMTYWD6BFF6WBDQ9CRF","","238","img/land1.png","74","240","1","1","1","2","1,0.5,0.5,0.5,1,0.5,0.5,0.5,1","0.5,0.5,1,1,0.5,0.5,0.5,1,0.5","2","",""
"","html-keyboard-response","234","210919","0.0-234.0","34J10VATJGKA9F3QJ3N3A2GP1EMIQF","A9LYIVFG3ZU4Z","3BDORL6HKKZHMTYWD6BFF6WBDQ9CRF","","null","<img src=""img/land1.png"" style=""width:200px; border:14px solid green;"">","null","","","","","","","","","",""
"","image-keyboard-response","235","210986","0.0-235.0","34J10VATJGKA9F3QJ3N3A2GP1EMIQF","A9LYIVFG3ZU4Z","3BDORL6HKKZHMTYWD6BFF6WBDQ9CRF","","66","img/land4.png","75","68","2","0","2","2","1,0.5,0.5,0.5,1,0.5,0.5,0.5,1","0.5,0.5,1,1,0.5,0.5,0.5,1,0.5","2","",""
"","html-keyboard-response","236","211287","0.0-236.0","34J10VATJGKA9F3QJ3N3A2GP1EMIQF","A9LYIVFG3ZU4Z","3BDORL6HKKZHMTYWD6BFF6WBDQ9CRF","","null","<img src=""img/land4.png"" style=""width:200px;border:14px solid red;"">","null","","","","","","","","","",""
"","image-keyboard-response","237","211568","0.0-237.0","34J10VATJGKA9F3QJ3N3A2GP1EMIQF","A9LYIVFG3ZU4Z","3BDORL6HKKZHMTYWD6BFF6WBDQ9CRF","","279","img/land1.png","75","281","2","0","1","2","1,0.5,0.5,0.5,1,0.5,0.5,0.5,1","0.5,0.5,1,1,0.5,0.5,0.5,1,0.5","2","",""
"","html-keyboard-response","238","211869","0.0-238.0","34J10VATJGKA9F3QJ3N3A2GP1EMIQF","A9LYIVFG3ZU4Z","3BDORL6HKKZHMTYWD6BFF6WBDQ9CRF","","null","<img src=""img/land1.png"" style=""width:200px;border:14px solid red;"">","null","","","","","","","","","",""
"","image-keyboard-response","239","211947","0.0-239.0","34J10VATJGKA9F3QJ3N3A2GP1EMIQF","A9LYIVFG3ZU4Z","3BDORL6HKKZHMTYWD6BFF6WBDQ9CRF","","76","img/land4.png","74","78","1","1","2","2","1,0.5,0.5,0.5,1,0.5,0.5,0.5,1","0.5,0.5,1,1,0.5,0.5,0.5,1,0.5","2","",""
"","html-keyboard-response","240","212247","0.0-240.0","34J10VATJGKA9F3QJ3N3A2GP1EMIQF","A9LYIVFG3ZU4Z","3BDORL6HKKZHMTYWD6BFF6WBDQ9CRF","","null","<img src=""img/land4.png"" style=""width:200px; border:14px solid green;"">","null","","","","","","","","","",""
"","image-keyboard-response","241","213647","0.0-241.0","34J10VATJGKA9F3QJ3N3A2GP1EMIQF","A9LYIVFG3ZU4Z","3BDORL6HKKZHMTYWD6BFF6WBDQ9CRF","","1399","img/land1.png","75","1400","2","1","1","2","1,0.5,0.5,0.5,1,0.5,0.5,0.5,1","0.5,0.5,1,1,0.5,0.5,0.5,1,0.5","2","",""
"","html-keyboard-response","242","213947","0.0-242.0","34J10VATJGKA9F3QJ3N3A2GP1EMIQF","A9LYIVFG3ZU4Z","3BDORL6HKKZHMTYWD6BFF6WBDQ9CRF","","null","<img src=""img/land1.png"" style=""width:200px; border:14px solid green;"">","null","","","","","","","","","",""
"","image-keyboard-response","243","214911","0.0-243.0","34J10VATJGKA9F3QJ3N3A2GP1EMIQF","A9LYIVFG3ZU4Z","3BDORL6HKKZHMTYWD6BFF6WBDQ9CRF","","962","img/land2.png","76","964","3","1","3","2","1,0.5,0.5,0.5,1,0.5,0.5,0.5,1","0.5,0.5,1,1,0.5,0.5,0.5,1,0.5","2","",""
"","html-keyboard-response","244","215212","0.0-244.0","34J10VATJGKA9F3QJ3N3A2GP1EMIQF","A9LYIVFG3ZU4Z","3BDORL6HKKZHMTYWD6BFF6WBDQ9CRF","","null","<img src=""img/land2.png"" style=""width:200px; border:14px solid green;"">","null","","","","","","","","","",""
"","image-keyboard-response","245","216387","0.0-245.0","34J10VATJGKA9F3QJ3N3A2GP1EMIQF","A9LYIVFG3ZU4Z","3BDORL6HKKZHMTYWD6BFF6WBDQ9CRF","","1174","img/land1.png","75","1177","2","0","1","2","1,0.5,0.5,0.5,1,0.5,0.5,0.5,1","0.5,0.5,1,1,0.5,0.5,0.5,1,0.5","2","",""
"","html-keyboard-response","246","216690","0.0-246.0","34J10VATJGKA9F3QJ3N3A2GP1EMIQF","A9LYIVFG3ZU4Z","3BDORL6HKKZHMTYWD6BFF6WBDQ9CRF","","null","<img src=""img/land1.png"" style=""width:200px;border:14px solid red;"">","null","","","","","","","","","",""
"","image-keyboard-response","247","217437","0.0-247.0","34J10VATJGKA9F3QJ3N3A2GP1EMIQF","A9LYIVFG3ZU4Z","3BDORL6HKKZHMTYWD6BFF6WBDQ9CRF","","745","img/land1.png","76","747","3","1","1","2","1,0.5,0.5,0.5,1,0.5,0.5,0.5,1","0.5,0.5,1,1,0.5,0.5,0.5,1,0.5","2","",""
"","html-keyboard-response","248","217737","0.0-248.0","34J10VATJGKA9F3QJ3N3A2GP1EMIQF","A9LYIVFG3ZU4Z","3BDORL6HKKZHMTYWD6BFF6WBDQ9CRF","","null","<img src=""img/land1.png"" style=""width:200px; border:14px solid green;"">","null","","","","","","","","","",""
"","image-keyboard-response","249","217787","0.0-249.0","34J10VATJGKA9F3QJ3N3A2GP1EMIQF","A9LYIVFG3ZU4Z","3BDORL6HKKZHMTYWD6BFF6WBDQ9CRF","","46","img/land1.png","76","50","3","1","1","2","1,0.5,0.5,0.5,1,0.5,0.5,0.5,1","0.5,0.5,1,1,0.5,0.5,0.5,1,0.5","2","",""
"","html-keyboard-response","250","218088","0.0-250.0","34J10VATJGKA9F3QJ3N3A2GP1EMIQF","A9LYIVFG3ZU4Z","3BDORL6HKKZHMTYWD6BFF6WBDQ9CRF","","null","<img src=""img/land1.png"" style=""width:200px; border:14px solid green;"">","null","","","","","","","","","",""
"","image-keyboard-response","251","218175","0.0-251.0","34J10VATJGKA9F3QJ3N3A2GP1EMIQF","A9LYIVFG3ZU4Z","3BDORL6HKKZHMTYWD6BFF6WBDQ9CRF","","86","img/land1.png","74","87","1","0","1","2","1,0.5,0.5,0.5,1,0.5,0.5,0.5,1","0.5,0.5,1,1,0.5,0.5,0.5,1,0.5","2","",""
"","html-keyboard-response","252","218476","0.0-252.0","34J10VATJGKA9F3QJ3N3A2GP1EMIQF","A9LYIVFG3ZU4Z","3BDORL6HKKZHMTYWD6BFF6WBDQ9CRF","","null","<img src=""img/land1.png"" style=""width:200px;border:14px solid red;"">","null","","","","","","","","","",""
"","image-keyboard-response","253","218586","0.0-253.0","34J10VATJGKA9F3QJ3N3A2GP1EMIQF","A9LYIVFG3ZU4Z","3BDORL6HKKZHMTYWD6BFF6WBDQ9CRF","","109","img/land4.png","74","110","1","1","2","2","1,0.5,0.5,0.5,1,0.5,0.5,0.5,1","0.5,0.5,1,1,0.5,0.5,0.5,1,0.5","2","",""
"","html-keyboard-response","254","218888","0.0-254.0","34J10VATJGKA9F3QJ3N3A2GP1EMIQF","A9LYIVFG3ZU4Z","3BDORL6HKKZHMTYWD6BFF6WBDQ9CRF","","null","<img src=""img/land4.png"" style=""width:200px; border:14px solid green;"">","null","","","","","","","","","",""
"","image-keyboard-response","255","219058","0.0-255.0","34J10VATJGKA9F3QJ3N3A2GP1EMIQF","A9LYIVFG3ZU4Z","3BDORL6HKKZHMTYWD6BFF6WBDQ9CRF","","168","img/land4.png","74","170","1","1","2","2","1,0.5,0.5,0.5,1,0.5,0.5,0.5,1","0.5,0.5,1,1,0.5,0.5,0.5,1,0.5","2","",""
"","html-keyboard-response","256","219360","0.0-256.0","34J10VATJGKA9F3QJ3N3A2GP1EMIQF","A9LYIVFG3ZU4Z","3BDORL6HKKZHMTYWD6BFF6WBDQ9CRF","","null","<img src=""img/land4.png"" style=""width:200px; border:14px solid green;"">","null","","","","","","","","","",""
"","image-keyboard-response","257","219486","0.0-257.0","34J10VATJGKA9F3QJ3N3A2GP1EMIQF","A9LYIVFG3ZU4Z","3BDORL6HKKZHMTYWD6BFF6WBDQ9CRF","","126","img/land4.png","74","127","1","1","2","2","1,0.5,0.5,0.5,1,0.5,0.5,0.5,1","0.5,0.5,1,1,0.5,0.5,0.5,1,0.5","2","",""
"","html-keyboard-response","258","219788","0.0-258.0","34J10VATJGKA9F3QJ3N3A2GP1EMIQF","A9LYIVFG3ZU4Z","3BDORL6HKKZHMTYWD6BFF6WBDQ9CRF","","null","<img src=""img/land4.png"" style=""width:200px; border:14px solid green;"">","null","","","","","","","","","",""
"","image-keyboard-response","259","219844","0.0-259.0","34J10VATJGKA9F3QJ3N3A2GP1EMIQF","A9LYIVFG3ZU4Z","3BDORL6HKKZHMTYWD6BFF6WBDQ9CRF","","55","img/land1.png","74","56","1","0","1","2","1,0.5,0.5,0.5,1,0.5,0.5,0.5,1","0.5,0.5,1,1,0.5,0.5,0.5,1,0.5","2","",""
"","html-keyboard-response","260","220144","0.0-260.0","34J10VATJGKA9F3QJ3N3A2GP1EMIQF","A9LYIVFG3ZU4Z","3BDORL6HKKZHMTYWD6BFF6WBDQ9CRF","","null","<img src=""img/land1.png"" style=""width:200px;border:14px solid red;"">","null","","","","","","","","","",""
"","image-keyboard-response","261","220187","0.0-261.0","34J10VATJGKA9F3QJ3N3A2GP1EMIQF","A9LYIVFG3ZU4Z","3BDORL6HKKZHMTYWD6BFF6WBDQ9CRF","","42","img/land2.png","74","43","1","1","3","2","1,0.5,0.5,0.5,1,0.5,0.5,0.5,1","0.5,0.5,1,1,0.5,0.5,0.5,1,0.5","2","",""
"","html-keyboard-response","262","220488","0.0-262.0","34J10VATJGKA9F3QJ3N3A2GP1EMIQF","A9LYIVFG3ZU4Z","3BDORL6HKKZHMTYWD6BFF6WBDQ9CRF","","null","<img src=""img/land2.png"" style=""width:200px; border:14px solid green;"">","null","","","","","","","","","",""
"","image-keyboard-response","263","220827","0.0-263.0","34J10VATJGKA9F3QJ3N3A2GP1EMIQF","A9LYIVFG3ZU4Z","3BDORL6HKKZHMTYWD6BFF6WBDQ9CRF","","338","img/land1.png","76","339","3","1","1","2","1,0.5,0.5,0.5,1,0.5,0.5,0.5,1","0.5,0.5,1,1,0.5,0.5,0.5,1,0.5","2","",""
"","html-keyboard-response","264","221128","0.0-264.0","34J10VATJGKA9F3QJ3N3A2GP1EMIQF","A9LYIVFG3ZU4Z","3BDORL6HKKZHMTYWD6BFF6WBDQ9CRF","","null","<img src=""img/land1.png"" style=""width:200px; border:14px solid green;"">","null","","","","","","","","","",""
"","image-keyboard-response","265","221186","0.0-265.0","34J10VATJGKA9F3QJ3N3A2GP1EMIQF","A9LYIVFG3ZU4Z","3BDORL6HKKZHMTYWD6BFF6WBDQ9CRF","","57","img/land1.png","76","58","3","1","1","2","1,0.5,0.5,0.5,1,0.5,0.5,0.5,1","0.5,0.5,1,1,0.5,0.5,0.5,1,0.5","2","",""
"","html-keyboard-response","266","221489","0.0-266.0","34J10VATJGKA9F3QJ3N3A2GP1EMIQF","A9LYIVFG3ZU4Z","3BDORL6HKKZHMTYWD6BFF6WBDQ9CRF","","null","<img src=""img/land1.png"" style=""width:200px; border:14px solid green;"">","null","","","","","","","","","",""
"","image-keyboard-response","267","221567","0.0-267.0","34J10VATJGKA9F3QJ3N3A2GP1EMIQF","A9LYIVFG3ZU4Z","3BDORL6HKKZHMTYWD6BFF6WBDQ9CRF","","78","img/land1.png","74","78","1","0","1","2","1,0.5,0.5,0.5,1,0.5,0.5,0.5,1","0.5,0.5,1,1,0.5,0.5,0.5,1,0.5","2","",""
"","html-keyboard-response","268","221869","0.0-268.0","34J10VATJGKA9F3QJ3N3A2GP1EMIQF","A9LYIVFG3ZU4Z","3BDORL6HKKZHMTYWD6BFF6WBDQ9CRF","","null","<img src=""img/land1.png"" style=""width:200px;border:14px solid red;"">","null","","","","","","","","","",""
"","image-keyboard-response","269","221915","0.0-269.0","34J10VATJGKA9F3QJ3N3A2GP1EMIQF","A9LYIVFG3ZU4Z","3BDORL6HKKZHMTYWD6BFF6WBDQ9CRF","","44","img/land2.png","75","46","2","1","3","2","1,0.5,0.5,0.5,1,0.5,0.5,0.5,1","0.5,0.5,1,1,0.5,0.5,0.5,1,0.5","2","",""
"","html-keyboard-response","270","222215","0.0-270.0","34J10VATJGKA9F3QJ3N3A2GP1EMIQF","A9LYIVFG3ZU4Z","3BDORL6HKKZHMTYWD6BFF6WBDQ9CRF","","null","<img src=""img/land2.png"" style=""width:200px; border:14px solid green;"">","null","","","","","","","","","",""
"","image-keyboard-response","271","222376","0.0-271.0","34J10VATJGKA9F3QJ3N3A2GP1EMIQF","A9LYIVFG3ZU4Z","3BDORL6HKKZHMTYWD6BFF6WBDQ9CRF","","161","img/land4.png","74","161","1","1","2","2","1,0.5,0.5,0.5,1,0.5,0.5,0.5,1","0.5,0.5,1,1,0.5,0.5,0.5,1,0.5","2","",""
"","html-keyboard-response","272","222677","0.0-272.0","34J10VATJGKA9F3QJ3N3A2GP1EMIQF","A9LYIVFG3ZU4Z","3BDORL6HKKZHMTYWD6BFF6WBDQ9CRF","","null","<img src=""img/land4.png"" style=""width:200px; border:14px solid green;"">","null","","","","","","","","","",""
"","image-keyboard-response","273","222747","0.0-273.0","34J10VATJGKA9F3QJ3N3A2GP1EMIQF","A9LYIVFG3ZU4Z","3BDORL6HKKZHMTYWD6BFF6WBDQ9CRF","","69","img/land1.png","74","70","1","1","1","2","1,0.5,0.5,0.5,1,0.5,0.5,0.5,1","0.5,0.5,1,1,0.5,0.5,0.5,1,0.5","2","",""
"","html-keyboard-response","274","223047","0.0-274.0","34J10VATJGKA9F3QJ3N3A2GP1EMIQF","A9LYIVFG3ZU4Z","3BDORL6HKKZHMTYWD6BFF6WBDQ9CRF","","null","<img src=""img/land1.png"" style=""width:200px; border:14px solid green;"">","null","","","","","","","","","",""
"","image-keyboard-response","275","223066","0.0-275.0","34J10VATJGKA9F3QJ3N3A2GP1EMIQF","A9LYIVFG3ZU4Z","3BDORL6HKKZHMTYWD6BFF6WBDQ9CRF","","18","img/land4.png","76","19","3","1","2","2","1,0.5,0.5,0.5,1,0.5,0.5,0.5,1","0.5,0.5,1,1,0.5,0.5,0.5,1,0.5","2","",""
"","html-keyboard-response","276","223368","0.0-276.0","34J10VATJGKA9F3QJ3N3A2GP1EMIQF","A9LYIVFG3ZU4Z","3BDORL6HKKZHMTYWD6BFF6WBDQ9CRF","","null","<img src=""img/land4.png"" style=""width:200px; border:14px solid green;"">","null","","","","","","","","","",""
"","image-keyboard-response","277","223466","0.0-277.0","34J10VATJGKA9F3QJ3N3A2GP1EMIQF","A9LYIVFG3ZU4Z","3BDORL6HKKZHMTYWD6BFF6WBDQ9CRF","","97","img/land1.png","76","98","3","1","1","2","1,0.5,0.5,0.5,1,0.5,0.5,0.5,1","0.5,0.5,1,1,0.5,0.5,0.5,1,0.5","2","",""
"","html-keyboard-response","278","223767","0.0-278.0","34J10VATJGKA9F3QJ3N3A2GP1EMIQF","A9LYIVFG3ZU4Z","3BDORL6HKKZHMTYWD6BFF6WBDQ9CRF","","null","<img src=""img/land1.png"" style=""width:200px; border:14px solid green;"">","null","","","","","","","","","",""
"","image-keyboard-response","279","223877","0.0-279.0","34J10VATJGKA9F3QJ3N3A2GP1EMIQF","A9LYIVFG3ZU4Z","3BDORL6HKKZHMTYWD6BFF6WBDQ9CRF","","109","img/land1.png","74","110","1","0","1","2","1,0.5,0.5,0.5,1,0.5,0.5,0.5,1","0.5,0.5,1,1,0.5,0.5,0.5,1,0.5","2","",""
"","html-keyboard-response","280","224178","0.0-280.0","34J10VATJGKA9F3QJ3N3A2GP1EMIQF","A9LYIVFG3ZU4Z","3BDORL6HKKZHMTYWD6BFF6WBDQ9CRF","","null","<img src=""img/land1.png"" style=""width:200px;border:14px solid red;"">","null","","","","","","","","","",""
"","image-keyboard-response","281","224467","0.0-281.0","34J10VATJGKA9F3QJ3N3A2GP1EMIQF","A9LYIVFG3ZU4Z","3BDORL6HKKZHMTYWD6BFF6WBDQ9CRF","","288","img/land1.png","74","289","1","0","1","2","1,0.5,0.5,0.5,1,0.5,0.5,0.5,1","0.5,0.5,1,1,0.5,0.5,0.5,1,0.5","2","",""
"","html-keyboard-response","282","224767","0.0-282.0","34J10VATJGKA9F3QJ3N3A2GP1EMIQF","A9LYIVFG3ZU4Z","3BDORL6HKKZHMTYWD6BFF6WBDQ9CRF","","null","<img src=""img/land1.png"" style=""width:200px;border:14px solid red;"">","null","","","","","","","","","",""
"","image-keyboard-response","283","224975","0.0-283.0","34J10VATJGKA9F3QJ3N3A2GP1EMIQF","A9LYIVFG3ZU4Z","3BDORL6HKKZHMTYWD6BFF6WBDQ9CRF","","208","img/land4.png","76","208","3","0","2","2","1,0.5,0.5,0.5,1,0.5,0.5,0.5,1","0.5,0.5,1,1,0.5,0.5,0.5,1,0.5","2","",""
"","html-keyboard-response","284","225277","0.0-284.0","34J10VATJGKA9F3QJ3N3A2GP1EMIQF","A9LYIVFG3ZU4Z","3BDORL6HKKZHMTYWD6BFF6WBDQ9CRF","","null","<img src=""img/land4.png"" style=""width:200px;border:14px solid red;"">","null","","","","","","","","","",""
"","image-keyboard-response","285","225309","0.0-285.0","34J10VATJGKA9F3QJ3N3A2GP1EMIQF","A9LYIVFG3ZU4Z","3BDORL6HKKZHMTYWD6BFF6WBDQ9CRF","","30","img/land2.png","74","32","1","0","3","2","1,0.5,0.5,0.5,1,0.5,0.5,0.5,1","0.5,0.5,1,1,0.5,0.5,0.5,1,0.5","2","",""
"","html-keyboard-response","286","225609","0.0-286.0","34J10VATJGKA9F3QJ3N3A2GP1EMIQF","A9LYIVFG3ZU4Z","3BDORL6HKKZHMTYWD6BFF6WBDQ9CRF","","null","<img src=""img/land2.png"" style=""width:200px;border:14px solid red;"">","null","","","","","","","","","",""
"","image-keyboard-response","287","225651","0.0-287.0","34J10VATJGKA9F3QJ3N3A2GP1EMIQF","A9LYIVFG3ZU4Z","3BDORL6HKKZHMTYWD6BFF6WBDQ9CRF","","41","img/land1.png","75","42","2","1","1","2","1,0.5,0.5,0.5,1,0.5,0.5,0.5,1","0.5,0.5,1,1,0.5,0.5,0.5,1,0.5","2","",""
"","html-keyboard-response","288","225964","0.0-288.0","34J10VATJGKA9F3QJ3N3A2GP1EMIQF","A9LYIVFG3ZU4Z","3BDORL6HKKZHMTYWD6BFF6WBDQ9CRF","","null","<img src=""img/land1.png"" style=""width:200px; border:14px solid green;"">","null","","","","","","","","","",""
"","image-keyboard-response","289","225984","0.0-289.0","34J10VATJGKA9F3QJ3N3A2GP1EMIQF","A9LYIVFG3ZU4Z","3BDORL6HKKZHMTYWD6BFF6WBDQ9CRF","","19","img/land4.png","74","19","1","1","2","2","1,0.5,0.5,0.5,1,0.5,0.5,0.5,1","0.5,0.5,1,1,0.5,0.5,0.5,1,0.5","2","",""
"","html-keyboard-response","290","226285","0.0-290.0","34J10VATJGKA9F3QJ3N3A2GP1EMIQF","A9LYIVFG3ZU4Z","3BDORL6HKKZHMTYWD6BFF6WBDQ9CRF","","null","<img src=""img/land4.png"" style=""width:200px; border:14px solid green;"">","null","","","","","","","","","",""
"","image-keyboard-response","291","226323","0.0-291.0","34J10VATJGKA9F3QJ3N3A2GP1EMIQF","A9LYIVFG3ZU4Z","3BDORL6HKKZHMTYWD6BFF6WBDQ9CRF","","38","img/land2.png","76","38","3","0","3","2","1,0.5,0.5,0.5,1,0.5,0.5,0.5,1","0.5,0.5,1,1,0.5,0.5,0.5,1,0.5","2","",""
"","html-keyboard-response","292","226625","0.0-292.0","34J10VATJGKA9F3QJ3N3A2GP1EMIQF","A9LYIVFG3ZU4Z","3BDORL6HKKZHMTYWD6BFF6WBDQ9CRF","","null","<img src=""img/land2.png"" style=""width:200px;border:14px solid red;"">","null","","","","","","","","","",""
"","image-keyboard-response","293","226629","0.0-293.0","34J10VATJGKA9F3QJ3N3A2GP1EMIQF","A9LYIVFG3ZU4Z","3BDORL6HKKZHMTYWD6BFF6WBDQ9CRF","","3","img/land1.png","75","4","2","0","1","2","1,0.5,0.5,0.5,1,0.5,0.5,0.5,1","0.5,0.5,1,1,0.5,0.5,0.5,1,0.5","2","",""
"","html-keyboard-response","294","226931","0.0-294.0","34J10VATJGKA9F3QJ3N3A2GP1EMIQF","A9LYIVFG3ZU4Z","3BDORL6HKKZHMTYWD6BFF6WBDQ9CRF","","null","<img src=""img/land1.png"" style=""width:200px;border:14px solid red;"">","null","","","","","","","","","",""
"","image-keyboard-response","295","226953","0.0-295.0","34J10VATJGKA9F3QJ3N3A2GP1EMIQF","A9LYIVFG3ZU4Z","3BDORL6HKKZHMTYWD6BFF6WBDQ9CRF","","22","img/land1.png","74","22","1","0","1","2","1,0.5,0.5,0.5,1,0.5,0.5,0.5,1","0.5,0.5,1,1,0.5,0.5,0.5,1,0.5","2","",""
"","html-keyboard-response","296","227253","0.0-296.0","34J10VATJGKA9F3QJ3N3A2GP1EMIQF","A9LYIVFG3ZU4Z","3BDORL6HKKZHMTYWD6BFF6WBDQ9CRF","","null","<img src=""img/land1.png"" style=""width:200px;border:14px solid red;"">","null","","","","","","","","","",""
"","image-keyboard-response","297","227307","0.0-297.0","34J10VATJGKA9F3QJ3N3A2GP1EMIQF","A9LYIVFG3ZU4Z","3BDORL6HKKZHMTYWD6BFF6WBDQ9CRF","","53","img/land4.png","74","54","1","1","2","2","1,0.5,0.5,0.5,1,0.5,0.5,0.5,1","0.5,0.5,1,1,0.5,0.5,0.5,1,0.5","2","",""
"","html-keyboard-response","298","227607","0.0-298.0","34J10VATJGKA9F3QJ3N3A2GP1EMIQF","A9LYIVFG3ZU4Z","3BDORL6HKKZHMTYWD6BFF6WBDQ9CRF","","null","<img src=""img/land4.png"" style=""width:200px; border:14px solid green;"">","null","","","","","","","","","",""
"","image-keyboard-response","299","227677","0.0-299.0","34J10VATJGKA9F3QJ3N3A2GP1EMIQF","A9LYIVFG3ZU4Z","3BDORL6HKKZHMTYWD6BFF6WBDQ9CRF","","68","img/land1.png","74","70","1","0","1","2","1,0.5,0.5,0.5,1,0.5,0.5,0.5,1","0.5,0.5,1,1,0.5,0.5,0.5,1,0.5","2","",""
"","html-keyboard-response","300","227993","0.0-300.0","34J10VATJGKA9F3QJ3N3A2GP1EMIQF","A9LYIVFG3ZU4Z","3BDORL6HKKZHMTYWD6BFF6WBDQ9CRF","","null","<img src=""img/land1.png"" style=""width:200px;border:14px solid red;"">","null","","","","","","","","","",""
"","image-keyboard-response","301","228008","0.0-301.0","34J10VATJGKA9F3QJ3N3A2GP1EMIQF","A9LYIVFG3ZU4Z","3BDORL6HKKZHMTYWD6BFF6WBDQ9CRF","","13","img/land1.png","75","14","2","0","1","2","1,0.5,0.5,0.5,1,0.5,0.5,0.5,1","0.5,0.5,1,1,0.5,0.5,0.5,1,0.5","2","",""
"","html-keyboard-response","302","228310","0.0-302.0","34J10VATJGKA9F3QJ3N3A2GP1EMIQF","A9LYIVFG3ZU4Z","3BDORL6HKKZHMTYWD6BFF6WBDQ9CRF","","null","<img src=""img/land1.png"" style=""width:200px;border:14px solid red;"">","null","","","","","","","","","",""
"","image-keyboard-response","303","228496","0.0-303.0","34J10VATJGKA9F3QJ3N3A2GP1EMIQF","A9LYIVFG3ZU4Z","3BDORL6HKKZHMTYWD6BFF6WBDQ9CRF","","185","img/land1.png","74","186","1","1","1","2","1,0.5,0.5,0.5,1,0.5,0.5,0.5,1","0.5,0.5,1,1,0.5,0.5,0.5,1,0.5","2","",""
"","html-keyboard-response","304","228797","0.0-304.0","34J10VATJGKA9F3QJ3N3A2GP1EMIQF","A9LYIVFG3ZU4Z","3BDORL6HKKZHMTYWD6BFF6WBDQ9CRF","","null","<img src=""img/land1.png"" style=""width:200px; border:14px solid green;"">","null","","","","","","","","","",""
"","image-keyboard-response","305","228826","0.0-305.0","34J10VATJGKA9F3QJ3N3A2GP1EMIQF","A9LYIVFG3ZU4Z","3BDORL6HKKZHMTYWD6BFF6WBDQ9CRF","","28","img/land1.png","75","30","2","0","1","2","1,0.5,0.5,0.5,1,0.5,0.5,0.5,1","0.5,0.5,1,1,0.5,0.5,0.5,1,0.5","2","",""
"","html-keyboard-response","306","229127","0.0-306.0","34J10VATJGKA9F3QJ3N3A2GP1EMIQF","A9LYIVFG3ZU4Z","3BDORL6HKKZHMTYWD6BFF6WBDQ9CRF","","null","<img src=""img/land1.png"" style=""width:200px;border:14px solid red;"">","null","","","","","","","","","",""
"","image-keyboard-response","307","229167","0.0-307.0","34J10VATJGKA9F3QJ3N3A2GP1EMIQF","A9LYIVFG3ZU4Z","3BDORL6HKKZHMTYWD6BFF6WBDQ9CRF","","39","img/land1.png","74","40","1","1","1","2","1,0.5,0.5,0.5,1,0.5,0.5,0.5,1","0.5,0.5,1,1,0.5,0.5,0.5,1,0.5","2","",""
"","html-keyboard-response","308","229469","0.0-308.0","34J10VATJGKA9F3QJ3N3A2GP1EMIQF","A9LYIVFG3ZU4Z","3BDORL6HKKZHMTYWD6BFF6WBDQ9CRF","","null","<img src=""img/land1.png"" style=""width:200px; border:14px solid green;"">","null","","","","","","","","","",""
"","image-keyboard-response","309","229497","0.0-309.0","34J10VATJGKA9F3QJ3N3A2GP1EMIQF","A9LYIVFG3ZU4Z","3BDORL6HKKZHMTYWD6BFF6WBDQ9CRF","","27","img/land2.png","75","27","2","1","3","2","1,0.5,0.5,0.5,1,0.5,0.5,0.5,1","0.5,0.5,1,1,0.5,0.5,0.5,1,0.5","2","",""
"","html-keyboard-response","310","229809","0.0-310.0","34J10VATJGKA9F3QJ3N3A2GP1EMIQF","A9LYIVFG3ZU4Z","3BDORL6HKKZHMTYWD6BFF6WBDQ9CRF","","null","<img src=""img/land2.png"" style=""width:200px; border:14px solid green;"">","null","","","","","","","","","",""
"","image-keyboard-response","311","229887","0.0-311.0","34J10VATJGKA9F3QJ3N3A2GP1EMIQF","A9LYIVFG3ZU4Z","3BDORL6HKKZHMTYWD6BFF6WBDQ9CRF","","76","img/land1.png","76","78","3","1","1","2","1,0.5,0.5,0.5,1,0.5,0.5,0.5,1","0.5,0.5,1,1,0.5,0.5,0.5,1,0.5","2","",""
"","html-keyboard-response","312","230187","0.0-312.0","34J10VATJGKA9F3QJ3N3A2GP1EMIQF","A9LYIVFG3ZU4Z","3BDORL6HKKZHMTYWD6BFF6WBDQ9CRF","","null","<img src=""img/land1.png"" style=""width:200px; border:14px solid green;"">","null","","","","","","","","","",""
"","image-keyboard-response","313","230307","0.0-313.0","34J10VATJGKA9F3QJ3N3A2GP1EMIQF","A9LYIVFG3ZU4Z","3BDORL6HKKZHMTYWD6BFF6WBDQ9CRF","","120","img/land1.png","74","120","1","1","1","2","1,0.5,0.5,0.5,1,0.5,0.5,0.5,1","0.5,0.5,1,1,0.5,0.5,0.5,1,0.5","2","",""
"","html-keyboard-response","314","230607","0.0-314.0","34J10VATJGKA9F3QJ3N3A2GP1EMIQF","A9LYIVFG3ZU4Z","3BDORL6HKKZHMTYWD6BFF6WBDQ9CRF","","null","<img src=""img/land1.png"" style=""width:200px; border:14px solid green;"">","null","","","","","","","","","",""
"","image-keyboard-response","315","230654","0.0-315.0","34J10VATJGKA9F3QJ3N3A2GP1EMIQF","A9LYIVFG3ZU4Z","3BDORL6HKKZHMTYWD6BFF6WBDQ9CRF","","47","img/land4.png","76","47","3","0","2","2","1,0.5,0.5,0.5,1,0.5,0.5,0.5,1","0.5,0.5,1,1,0.5,0.5,0.5,1,0.5","2","",""
"","html-keyboard-response","316","230960","0.0-316.0","34J10VATJGKA9F3QJ3N3A2GP1EMIQF","A9LYIVFG3ZU4Z","3BDORL6HKKZHMTYWD6BFF6WBDQ9CRF","","null","<img src=""img/land4.png"" style=""width:200px;border:14px solid red;"">","null","","","","","","","","","",""
"","image-keyboard-response","317","231124","0.0-317.0","34J10VATJGKA9F3QJ3N3A2GP1EMIQF","A9LYIVFG3ZU4Z","3BDORL6HKKZHMTYWD6BFF6WBDQ9CRF","","164","img/land1.png","75","164","2","0","1","2","1,0.5,0.5,0.5,1,0.5,0.5,0.5,1","0.5,0.5,1,1,0.5,0.5,0.5,1,0.5","2","",""
"","html-keyboard-response","318","231426","0.0-318.0","34J10VATJGKA9F3QJ3N3A2GP1EMIQF","A9LYIVFG3ZU4Z","3BDORL6HKKZHMTYWD6BFF6WBDQ9CRF","","null","<img src=""img/land1.png"" style=""width:200px;border:14px solid red;"">","null","","","","","","","","","",""
"","image-keyboard-response","319","231536","0.0-319.0","34J10VATJGKA9F3QJ3N3A2GP1EMIQF","A9LYIVFG3ZU4Z","3BDORL6HKKZHMTYWD6BFF6WBDQ9CRF","","110","img/land1.png","74","110","1","0","1","2","1,0.5,0.5,0.5,1,0.5,0.5,0.5,1","0.5,0.5,1,1,0.5,0.5,0.5,1,0.5","2","",""
"","html-keyboard-response","320","231837","0.0-320.0","34J10VATJGKA9F3QJ3N3A2GP1EMIQF","A9LYIVFG3ZU4Z","3BDORL6HKKZHMTYWD6BFF6WBDQ9CRF","","null","<img src=""img/land1.png"" style=""width:200px;border:14px solid red;"">","null","","","","","","","","","",""
"","image-keyboard-response","321","231977","0.0-321.0","34J10VATJGKA9F3QJ3N3A2GP1EMIQF","A9LYIVFG3ZU4Z","3BDORL6HKKZHMTYWD6BFF6WBDQ9CRF","","139","img/land2.png","74","140","1","1","3","2","1,0.5,0.5,0.5,1,0.5,0.5,0.5,1","0.5,0.5,1,1,0.5,0.5,0.5,1,0.5","2","",""
"","html-keyboard-response","322","232280","0.0-322.0","34J10VATJGKA9F3QJ3N3A2GP1EMIQF","A9LYIVFG3ZU4Z","3BDORL6HKKZHMTYWD6BFF6WBDQ9CRF","","null","<img src=""img/land2.png"" style=""width:200px; border:14px solid green;"">","null","","","","","","","","","",""
"","image-keyboard-response","323","232467","0.0-323.0","34J10VATJGKA9F3QJ3N3A2GP1EMIQF","A9LYIVFG3ZU4Z","3BDORL6HKKZHMTYWD6BFF6WBDQ9CRF","","186","img/land2.png","76","187","3","0","3","2","1,0.5,0.5,0.5,1,0.5,0.5,0.5,1","0.5,0.5,1,1,0.5,0.5,0.5,1,0.5","2","",""
"","html-keyboard-response","324","232880","0.0-324.0","34J10VATJGKA9F3QJ3N3A2GP1EMIQF","A9LYIVFG3ZU4Z","3BDORL6HKKZHMTYWD6BFF6WBDQ9CRF","","null","<img src=""img/land2.png"" style=""width:200px;border:14px solid red;"">","null","","","","","","","","","",""
"","image-keyboard-response","325","232882","0.0-325.0","34J10VATJGKA9F3QJ3N3A2GP1EMIQF","A9LYIVFG3ZU4Z","3BDORL6HKKZHMTYWD6BFF6WBDQ9CRF","","1","img/land1.png","74","2","1","0","1","2","1,0.5,0.5,0.5,1,0.5,0.5,0.5,1","0.5,0.5,1,1,0.5,0.5,0.5,1,0.5","2","",""
"","html-keyboard-response","326","233184","0.0-326.0","34J10VATJGKA9F3QJ3N3A2GP1EMIQF","A9LYIVFG3ZU4Z","3BDORL6HKKZHMTYWD6BFF6WBDQ9CRF","","null","<img src=""img/land1.png"" style=""width:200px;border:14px solid red;"">","null","","","","","","","","","",""
"","image-keyboard-response","327","234276","0.0-327.0","34J10VATJGKA9F3QJ3N3A2GP1EMIQF","A9LYIVFG3ZU4Z","3BDORL6HKKZHMTYWD6BFF6WBDQ9CRF","","1090","img/land2.png","76","1092","3","1","3","2","1,0.5,0.5,0.5,1,0.5,0.5,0.5,1","0.5,0.5,1,1,0.5,0.5,0.5,1,0.5","2","",""
"","html-keyboard-response","328","234576","0.0-328.0","34J10VATJGKA9F3QJ3N3A2GP1EMIQF","A9LYIVFG3ZU4Z","3BDORL6HKKZHMTYWD6BFF6WBDQ9CRF","","null","<img src=""img/land2.png"" style=""width:200px; border:14px solid green;"">","null","","","","","","","","","",""
"","image-keyboard-response","329","236187","0.0-329.0","34J10VATJGKA9F3QJ3N3A2GP1EMIQF","A9LYIVFG3ZU4Z","3BDORL6HKKZHMTYWD6BFF6WBDQ9CRF","","1610","img/land2.png","74","1611","1","1","3","2","1,0.5,0.5,0.5,1,0.5,0.5,0.5,1","0.5,0.5,1,1,0.5,0.5,0.5,1,0.5","2","",""
"","html-keyboard-response","330","236487","0.0-330.0","34J10VATJGKA9F3QJ3N3A2GP1EMIQF","A9LYIVFG3ZU4Z","3BDORL6HKKZHMTYWD6BFF6WBDQ9CRF","","null","<img src=""img/land2.png"" style=""width:200px; border:14px solid green;"">","null","","","","","","","","","",""
"","image-keyboard-response","331","236737","0.0-331.0","34J10VATJGKA9F3QJ3N3A2GP1EMIQF","A9LYIVFG3ZU4Z","3BDORL6HKKZHMTYWD6BFF6WBDQ9CRF","","248","img/land1.png","74","250","1","0","1","2","1,0.5,0.5,0.5,1,0.5,0.5,0.5,1","0.5,0.5,1,1,0.5,0.5,0.5,1,0.5","2","",""
"","html-keyboard-response","332","237037","0.0-332.0","34J10VATJGKA9F3QJ3N3A2GP1EMIQF","A9LYIVFG3ZU4Z","3BDORL6HKKZHMTYWD6BFF6WBDQ9CRF","","null","<img src=""img/land1.png"" style=""width:200px;border:14px solid red;"">","null","","","","","","","","","",""
"","image-keyboard-response","333","237249","0.0-333.0","34J10VATJGKA9F3QJ3N3A2GP1EMIQF","A9LYIVFG3ZU4Z","3BDORL6HKKZHMTYWD6BFF6WBDQ9CRF","","210","img/land1.png","75","212","2","0","1","2","1,0.5,0.5,0.5,1,0.5,0.5,0.5,1","0.5,0.5,1,1,0.5,0.5,0.5,1,0.5","2","",""
"","html-keyboard-response","334","237602","0.0-334.0","34J10VATJGKA9F3QJ3N3A2GP1EMIQF","A9LYIVFG3ZU4Z","3BDORL6HKKZHMTYWD6BFF6WBDQ9CRF","","null","<img src=""img/land1.png"" style=""width:200px;border:14px solid red;"">","null","","","","","","","","","",""
"","image-keyboard-response","335","237947","0.0-335.0","34J10VATJGKA9F3QJ3N3A2GP1EMIQF","A9LYIVFG3ZU4Z","3BDORL6HKKZHMTYWD6BFF6WBDQ9CRF","","341","img/land2.png","74","344","1","0","3","2","1,0.5,0.5,0.5,1,0.5,0.5,0.5,1","0.5,0.5,1,1,0.5,0.5,0.5,1,0.5","2","",""
"","html-keyboard-response","336","238248","0.0-336.0","34J10VATJGKA9F3QJ3N3A2GP1EMIQF","A9LYIVFG3ZU4Z","3BDORL6HKKZHMTYWD6BFF6WBDQ9CRF","","null","<img src=""img/land2.png"" style=""width:200px;border:14px solid red;"">","null","","","","","","","","","",""
"","image-keyboard-response","337","238377","0.0-337.0","34J10VATJGKA9F3QJ3N3A2GP1EMIQF","A9LYIVFG3ZU4Z","3BDORL6HKKZHMTYWD6BFF6WBDQ9CRF","","128","img/land2.png","74","129","1","1","3","2","1,0.5,0.5,0.5,1,0.5,0.5,0.5,1","0.5,0.5,1,1,0.5,0.5,0.5,1,0.5","2","",""
"","html-keyboard-response","338","238746","0.0-338.0","34J10VATJGKA9F3QJ3N3A2GP1EMIQF","A9LYIVFG3ZU4Z","3BDORL6HKKZHMTYWD6BFF6WBDQ9CRF","","null","<img src=""img/land2.png"" style=""width:200px; border:14px solid green;"">","null","","","","","","","","","",""
"","image-keyboard-response","339","238749","0.0-339.0","34J10VATJGKA9F3QJ3N3A2GP1EMIQF","A9LYIVFG3ZU4Z","3BDORL6HKKZHMTYWD6BFF6WBDQ9CRF","","1","img/land1.png","74","3","1","0","1","2","1,0.5,0.5,0.5,1,0.5,0.5,0.5,1","0.5,0.5,1,1,0.5,0.5,0.5,1,0.5","2","",""
"","html-keyboard-response","340","239051","0.0-340.0","34J10VATJGKA9F3QJ3N3A2GP1EMIQF","A9LYIVFG3ZU4Z","3BDORL6HKKZHMTYWD6BFF6WBDQ9CRF","","null","<img src=""img/land1.png"" style=""width:200px;border:14px solid red;"">","null","","","","","","","","","",""
"","image-keyboard-response","341","239077","0.0-341.0","34J10VATJGKA9F3QJ3N3A2GP1EMIQF","A9LYIVFG3ZU4Z","3BDORL6HKKZHMTYWD6BFF6WBDQ9CRF","","25","img/land1.png","74","26","1","0","1","2","1,0.5,0.5,0.5,1,0.5,0.5,0.5,1","0.5,0.5,1,1,0.5,0.5,0.5,1,0.5","2","",""
"","html-keyboard-response","342","239378","0.0-342.0","34J10VATJGKA9F3QJ3N3A2GP1EMIQF","A9LYIVFG3ZU4Z","3BDORL6HKKZHMTYWD6BFF6WBDQ9CRF","","null","<img src=""img/land1.png"" style=""width:200px;border:14px solid red;"">","null","","","","","","","","","",""
"","image-keyboard-response","343","239548","0.0-343.0","34J10VATJGKA9F3QJ3N3A2GP1EMIQF","A9LYIVFG3ZU4Z","3BDORL6HKKZHMTYWD6BFF6WBDQ9CRF","","168","img/land1.png","76","170","3","1","1","2","1,0.5,0.5,0.5,1,0.5,0.5,0.5,1","0.5,0.5,1,1,0.5,0.5,0.5,1,0.5","2","",""
"","html-keyboard-response","344","239849","0.0-344.0","34J10VATJGKA9F3QJ3N3A2GP1EMIQF","A9LYIVFG3ZU4Z","3BDORL6HKKZHMTYWD6BFF6WBDQ9CRF","","null","<img src=""img/land1.png"" style=""width:200px; border:14px solid green;"">","null","","","","","","","","","",""
"","image-keyboard-response","345","240018","0.0-345.0","34J10VATJGKA9F3QJ3N3A2GP1EMIQF","A9LYIVFG3ZU4Z","3BDORL6HKKZHMTYWD6BFF6WBDQ9CRF","","167","img/land2.png","74","169","1","1","3","2","1,0.5,0.5,0.5,1,0.5,0.5,0.5,1","0.5,0.5,1,1,0.5,0.5,0.5,1,0.5","2","",""
"","html-keyboard-response","346","240319","0.0-346.0","34J10VATJGKA9F3QJ3N3A2GP1EMIQF","A9LYIVFG3ZU4Z","3BDORL6HKKZHMTYWD6BFF6WBDQ9CRF","","null","<img src=""img/land2.png"" style=""width:200px; border:14px solid green;"">","null","","","","","","","","","",""
"","image-keyboard-response","347","240426","0.0-347.0","34J10VATJGKA9F3QJ3N3A2GP1EMIQF","A9LYIVFG3ZU4Z","3BDORL6HKKZHMTYWD6BFF6WBDQ9CRF","","106","img/land1.png","74","107","1","0","1","2","1,0.5,0.5,0.5,1,0.5,0.5,0.5,1","0.5,0.5,1,1,0.5,0.5,0.5,1,0.5","2","",""
"","html-keyboard-response","348","240728","0.0-348.0","34J10VATJGKA9F3QJ3N3A2GP1EMIQF","A9LYIVFG3ZU4Z","3BDORL6HKKZHMTYWD6BFF6WBDQ9CRF","","null","<img src=""img/land1.png"" style=""width:200px;border:14px solid red;"">","null","","","","","","","","","",""
"","image-keyboard-response","349","240826","0.0-349.0","34J10VATJGKA9F3QJ3N3A2GP1EMIQF","A9LYIVFG3ZU4Z","3BDORL6HKKZHMTYWD6BFF6WBDQ9CRF","","97","img/land4.png","75","98","2","0","2","2","1,0.5,0.5,0.5,1,0.5,0.5,0.5,1","0.5,0.5,1,1,0.5,0.5,0.5,1,0.5","2","",""
"","html-keyboard-response","350","241127","0.0-350.0","34J10VATJGKA9F3QJ3N3A2GP1EMIQF","A9LYIVFG3ZU4Z","3BDORL6HKKZHMTYWD6BFF6WBDQ9CRF","","null","<img src=""img/land4.png"" style=""width:200px;border:14px solid red;"">","null","","","","","","","","","",""
"","image-keyboard-response","351","241147","0.0-351.0","34J10VATJGKA9F3QJ3N3A2GP1EMIQF","A9LYIVFG3ZU4Z","3BDORL6HKKZHMTYWD6BFF6WBDQ9CRF","","19","img/land2.png","74","20","1","1","3","2","1,0.5,0.5,0.5,1,0.5,0.5,0.5,1","0.5,0.5,1,1,0.5,0.5,0.5,1,0.5","2","",""
"","html-keyboard-response","352","241449","0.0-352.0","34J10VATJGKA9F3QJ3N3A2GP1EMIQF","A9LYIVFG3ZU4Z","3BDORL6HKKZHMTYWD6BFF6WBDQ9CRF","","null","<img src=""img/land2.png"" style=""width:200px; border:14px solid green;"">","null","","","","","","","","","",""
"","image-keyboard-response","353","241516","0.0-353.0","34J10VATJGKA9F3QJ3N3A2GP1EMIQF","A9LYIVFG3ZU4Z","3BDORL6HKKZHMTYWD6BFF6WBDQ9CRF","","66","img/land1.png","75","67","2","1","1","2","1,0.5,0.5,0.5,1,0.5,0.5,0.5,1","0.5,0.5,1,1,0.5,0.5,0.5,1,0.5","2","",""
"","html-keyboard-response","354","241818","0.0-354.0","34J10VATJGKA9F3QJ3N3A2GP1EMIQF","A9LYIVFG3ZU4Z","3BDORL6HKKZHMTYWD6BFF6WBDQ9CRF","","null","<img src=""img/land1.png"" style=""width:200px; border:14px solid green;"">","null","","","","","","","","","",""
"","image-keyboard-response","355","241906","0.0-355.0","34J10VATJGKA9F3QJ3N3A2GP1EMIQF","A9LYIVFG3ZU4Z","3BDORL6HKKZHMTYWD6BFF6WBDQ9CRF","","87","img/land1.png","74","89","1","0","1","2","1,0.5,0.5,0.5,1,0.5,0.5,0.5,1","0.5,0.5,1,1,0.5,0.5,0.5,1,0.5","2","",""
"","html-keyboard-response","356","242208","0.0-356.0","34J10VATJGKA9F3QJ3N3A2GP1EMIQF","A9LYIVFG3ZU4Z","3BDORL6HKKZHMTYWD6BFF6WBDQ9CRF","","null","<img src=""img/land1.png"" style=""width:200px;border:14px solid red;"">","null","","","","","","","","","",""
"","image-keyboard-response","357","242306","0.0-357.0","34J10VATJGKA9F3QJ3N3A2GP1EMIQF","A9LYIVFG3ZU4Z","3BDORL6HKKZHMTYWD6BFF6WBDQ9CRF","","97","img/land4.png","74","98","1","1","2","2","1,0.5,0.5,0.5,1,0.5,0.5,0.5,1","0.5,0.5,1,1,0.5,0.5,0.5,1,0.5","2","",""
"","html-keyboard-response","358","242607","0.0-358.0","34J10VATJGKA9F3QJ3N3A2GP1EMIQF","A9LYIVFG3ZU4Z","3BDORL6HKKZHMTYWD6BFF6WBDQ9CRF","","null","<img src=""img/land4.png"" style=""width:200px; border:14px solid green;"">","null","","","","","","","","","",""
"","image-keyboard-response","359","243458","0.0-359.0","34J10VATJGKA9F3QJ3N3A2GP1EMIQF","A9LYIVFG3ZU4Z","3BDORL6HKKZHMTYWD6BFF6WBDQ9CRF","","849","img/land1.png","75","851","2","1","1","2","1,0.5,0.5,0.5,1,0.5,0.5,0.5,1","0.5,0.5,1,1,0.5,0.5,0.5,1,0.5","2","",""
"","html-keyboard-response","360","243759","0.0-360.0","34J10VATJGKA9F3QJ3N3A2GP1EMIQF","A9LYIVFG3ZU4Z","3BDORL6HKKZHMTYWD6BFF6WBDQ9CRF","","null","<img src=""img/land1.png"" style=""width:200px; border:14px solid green;"">","null","","","","","","","","","",""
"","image-keyboard-response","361","243877","0.0-361.0","34J10VATJGKA9F3QJ3N3A2GP1EMIQF","A9LYIVFG3ZU4Z","3BDORL6HKKZHMTYWD6BFF6WBDQ9CRF","","116","img/land4.png","75","118","2","0","2","2","1,0.5,0.5,0.5,1,0.5,0.5,0.5,1","0.5,0.5,1,1,0.5,0.5,0.5,1,0.5","2","",""
"","html-keyboard-response","362","244177","0.0-362.0","34J10VATJGKA9F3QJ3N3A2GP1EMIQF","A9LYIVFG3ZU4Z","3BDORL6HKKZHMTYWD6BFF6WBDQ9CRF","","null","<img src=""img/land4.png"" style=""width:200px;border:14px solid red;"">","null","","","","","","","","","",""
"","image-keyboard-response","363","244407","0.0-363.0","34J10VATJGKA9F3QJ3N3A2GP1EMIQF","A9LYIVFG3ZU4Z","3BDORL6HKKZHMTYWD6BFF6WBDQ9CRF","","228","img/land4.png","75","230","2","0","2","2","1,0.5,0.5,0.5,1,0.5,0.5,0.5,1","0.5,0.5,1,1,0.5,0.5,0.5,1,0.5","2","",""
"","html-keyboard-response","364","244709","0.0-364.0","34J10VATJGKA9F3QJ3N3A2GP1EMIQF","A9LYIVFG3ZU4Z","3BDORL6HKKZHMTYWD6BFF6WBDQ9CRF","","null","<img src=""img/land4.png"" style=""width:200px;border:14px solid red;"">","null","","","","","","","","","",""
"","image-keyboard-response","365","244817","0.0-365.0","34J10VATJGKA9F3QJ3N3A2GP1EMIQF","A9LYIVFG3ZU4Z","3BDORL6HKKZHMTYWD6BFF6WBDQ9CRF","","108","img/land2.png","75","108","2","1","3","2","1,0.5,0.5,0.5,1,0.5,0.5,0.5,1","0.5,0.5,1,1,0.5,0.5,0.5,1,0.5","2","",""
"","html-keyboard-response","366","245120","0.0-366.0","34J10VATJGKA9F3QJ3N3A2GP1EMIQF","A9LYIVFG3ZU4Z","3BDORL6HKKZHMTYWD6BFF6WBDQ9CRF","","null","<img src=""img/land2.png"" style=""width:200px; border:14px solid green;"">","null","","","","","","","","","",""
"","image-keyboard-response","367","245331","0.0-367.0","34J10VATJGKA9F3QJ3N3A2GP1EMIQF","A9LYIVFG3ZU4Z","3BDORL6HKKZHMTYWD6BFF6WBDQ9CRF","","210","img/land1.png","75","211","2","1","1","2","1,0.5,0.5,0.5,1,0.5,0.5,0.5,1","0.5,0.5,1,1,0.5,0.5,0.5,1,0.5","2","",""
"","html-keyboard-response","368","245632","0.0-368.0","34J10VATJGKA9F3QJ3N3A2GP1EMIQF","A9LYIVFG3ZU4Z","3BDORL6HKKZHMTYWD6BFF6WBDQ9CRF","","null","<img src=""img/land1.png"" style=""width:200px; border:14px solid green;"">","null","","","","","","","","","",""
"","image-keyboard-response","369","245776","0.0-369.0","34J10VATJGKA9F3QJ3N3A2GP1EMIQF","A9LYIVFG3ZU4Z","3BDORL6HKKZHMTYWD6BFF6WBDQ9CRF","","143","img/land2.png","74","143","1","0","3","2","1,0.5,0.5,0.5,1,0.5,0.5,0.5,1","0.5,0.5,1,1,0.5,0.5,0.5,1,0.5","2","",""
"","html-keyboard-response","370","246078","0.0-370.0","34J10VATJGKA9F3QJ3N3A2GP1EMIQF","A9LYIVFG3ZU4Z","3BDORL6HKKZHMTYWD6BFF6WBDQ9CRF","","null","<img src=""img/land2.png"" style=""width:200px;border:14px solid red;"">","null","","","","","","","","","",""
"","image-keyboard-response","371","246106","0.0-371.0","34J10VATJGKA9F3QJ3N3A2GP1EMIQF","A9LYIVFG3ZU4Z","3BDORL6HKKZHMTYWD6BFF6WBDQ9CRF","","27","img/land1.png","76","28","3","1","1","2","1,0.5,0.5,0.5,1,0.5,0.5,0.5,1","0.5,0.5,1,1,0.5,0.5,0.5,1,0.5","2","",""
"","html-keyboard-response","372","246408","0.0-372.0","34J10VATJGKA9F3QJ3N3A2GP1EMIQF","A9LYIVFG3ZU4Z","3BDORL6HKKZHMTYWD6BFF6WBDQ9CRF","","null","<img src=""img/land1.png"" style=""width:200px; border:14px solid green;"">","null","","","","","","","","","",""
"","image-keyboard-response","373","246416","0.0-373.0","34J10VATJGKA9F3QJ3N3A2GP1EMIQF","A9LYIVFG3ZU4Z","3BDORL6HKKZHMTYWD6BFF6WBDQ9CRF","","8","img/land1.png","75","8","2","0","1","2","1,0.5,0.5,0.5,1,0.5,0.5,0.5,1","0.5,0.5,1,1,0.5,0.5,0.5,1,0.5","2","",""
"","html-keyboard-response","374","246718","0.0-374.0","34J10VATJGKA9F3QJ3N3A2GP1EMIQF","A9LYIVFG3ZU4Z","3BDORL6HKKZHMTYWD6BFF6WBDQ9CRF","","null","<img src=""img/land1.png"" style=""width:200px;border:14px solid red;"">","null","","","","","","","","","",""
"","image-keyboard-response","375","246896","0.0-375.0","34J10VATJGKA9F3QJ3N3A2GP1EMIQF","A9LYIVFG3ZU4Z","3BDORL6HKKZHMTYWD6BFF6WBDQ9CRF","","177","img/land1.png","75","177","2","1","1","2","1,0.5,0.5,0.5,1,0.5,0.5,0.5,1","0.5,0.5,1,1,0.5,0.5,0.5,1,0.5","2","",""
"","html-keyboard-response","376","247198","0.0-376.0","34J10VATJGKA9F3QJ3N3A2GP1EMIQF","A9LYIVFG3ZU4Z","3BDORL6HKKZHMTYWD6BFF6WBDQ9CRF","","null","<img src=""img/land1.png"" style=""width:200px; border:14px solid green;"">","null","","","","","","","","","",""
"","image-keyboard-response","377","247207","0.0-377.0","34J10VATJGKA9F3QJ3N3A2GP1EMIQF","A9LYIVFG3ZU4Z","3BDORL6HKKZHMTYWD6BFF6WBDQ9CRF","","8","img/land1.png","75","9","2","1","1","2","1,0.5,0.5,0.5,1,0.5,0.5,0.5,1","0.5,0.5,1,1,0.5,0.5,0.5,1,0.5","2","",""
"","html-keyboard-response","378","247508","0.0-378.0","34J10VATJGKA9F3QJ3N3A2GP1EMIQF","A9LYIVFG3ZU4Z","3BDORL6HKKZHMTYWD6BFF6WBDQ9CRF","","null","<img src=""img/land1.png"" style=""width:200px; border:14px solid green;"">","null","","","","","","","","","",""
"","image-keyboard-response","379","247537","0.0-379.0","34J10VATJGKA9F3QJ3N3A2GP1EMIQF","A9LYIVFG3ZU4Z","3BDORL6HKKZHMTYWD6BFF6WBDQ9CRF","","27","img/land1.png","76","29","3","1","1","2","1,0.5,0.5,0.5,1,0.5,0.5,0.5,1","0.5,0.5,1,1,0.5,0.5,0.5,1,0.5","2","",""
