"success","trial_type","trial_index","time_elapsed","internal_node_id","assignmentID","mturkID","hitID","view_history","rt","stimulus","key_press","reactionTime","a","r","s","cond","reward_cond","reward_cond_actual","reward_matrix_idx","responses","question_order"
"true","fullscreen","0","3019","0.0-0.0","3907X2AHF1RLYIO9UNNMNHJY8S4P2Y","AA1IM0SAQ3XFM","356TQKY9XFJ5S7O4NGX4839SMNB87N","","","","","","","","","","","","","",""
"","instructions","1","38145","0.0-1.0","3907X2AHF1RLYIO9UNNMNHJY8S4P2Y","AA1IM0SAQ3XFM","356TQKY9XFJ5S7O4NGX4839SMNB87N","[{""page_index"":0,""viewing_time"":5610.29999999702},{""page_index"":1,""viewing_time"":3462.1000000089407},{""page_index"":2,""viewing_time"":3385.5},{""page_index"":3,""viewing_time"":6865.5},{""page_index"":4,""viewing_time"":3402},{""page_index"":5,""viewing_time"":7217.70000000298},{""page_index"":6,""viewing_time"":5179.899999991059}]","35123.29999999702","","","","","","","","","","","",""
"","image-keyboard-response","2","38831","0.0-2.0","3907X2AHF1RLYIO9UNNMNHJY8S4P2Y","AA1IM0SAQ3XFM","356TQKY9XFJ5S7O4NGX4839SMNB87N","","684.5999999940395","img/land1.png","75","685.7999999970198","2","1","3","2","0.8,0.2,0.2,0.2,0.8,0.2,0.2,0.2,0.8","0.8,0.2,0.2,0.2,0.8,0.2,0.2,0.2,0.8","1","",""
"","html-keyboard-response","3","39138","0.0-3.0","3907X2AHF1RLYIO9UNNMNHJY8S4P2Y","AA1IM0SAQ3XFM","356TQKY9XFJ5S7O4NGX4839SMNB87N","","null","<img src=""img/land1.png"" style=""width:200px; border:14px solid green;"">","null","","","","","","","","","",""
"","image-keyboard-response","4","39910","0.0-4.0","3907X2AHF1RLYIO9UNNMNHJY8S4P2Y","AA1IM0SAQ3XFM","356TQKY9XFJ5S7O4NGX4839SMNB87N","","771.8000000119209","img/land6.png","74","772.7000000029802","1","1","1","2","0.8,0.2,0.2,0.2,0.8,0.2,0.2,0.2,0.8","0.8,0.2,0.2,0.2,0.8,0.2,0.2,0.2,0.8","1","",""
"","html-keyboard-response","5","40213","0.0-5.0","3907X2AHF1RLYIO9UNNMNHJY8S4P2Y","AA1IM0SAQ3XFM","356TQKY9XFJ5S7O4NGX4839SMNB87N","","null","<img src=""img/land6.png"" style=""width:200px; border:14px solid green;"">","null","","","","","","","","","",""
"","image-keyboard-response","6","41094","0.0-6.0","3907X2AHF1RLYIO9UNNMNHJY8S4P2Y","AA1IM0SAQ3XFM","356TQKY9XFJ5S7O4NGX4839SMNB87N","","879.7000000029802","img/land1.png","76","880.2999999970198","3","1","3","2","0.8,0.2,0.2,0.2,0.8,0.2,0.2,0.2,0.8","0.8,0.2,0.2,0.2,0.8,0.2,0.2,0.2,0.8","1","",""
"","html-keyboard-response","7","41398","0.0-7.0","3907X2AHF1RLYIO9UNNMNHJY8S4P2Y","AA1IM0SAQ3XFM","356TQKY9XFJ5S7O4NGX4839SMNB87N","","null","<img src=""img/land1.png"" style=""width:200px; border:14px solid green;"">","null","","","","","","","","","",""
"","image-keyboard-response","8","42374","0.0-8.0","3907X2AHF1RLYIO9UNNMNHJY8S4P2Y","AA1IM0SAQ3XFM","356TQKY9XFJ5S7O4NGX4839SMNB87N","","975.5","img/land6.png","74","976.1000000089407","1","1","1","2","0.8,0.2,0.2,0.2,0.8,0.2,0.2,0.2,0.8","0.8,0.2,0.2,0.2,0.8,0.2,0.2,0.2,0.8","1","",""
"","html-keyboard-response","9","42679","0.0-9.0","3907X2AHF1RLYIO9UNNMNHJY8S4P2Y","AA1IM0SAQ3XFM","356TQKY9XFJ5S7O4NGX4839SMNB87N","","null","<img src=""img/land6.png"" style=""width:200px; border:14px solid green;"">","null","","","","","","","","","",""
"","image-keyboard-response","10","43503","0.0-10.0","3907X2AHF1RLYIO9UNNMNHJY8S4P2Y","AA1IM0SAQ3XFM","356TQKY9XFJ5S7O4NGX4839SMNB87N","","823.2999999970198","img/land6.png","74","824","1","1","1","2","0.8,0.2,0.2,0.2,0.8,0.2,0.2,0.2,0.8","0.8,0.2,0.2,0.2,0.8,0.2,0.2,0.2,0.8","1","",""
"","html-keyboard-response","11","43809","0.0-11.0","3907X2AHF1RLYIO9UNNMNHJY8S4P2Y","AA1IM0SAQ3XFM","356TQKY9XFJ5S7O4NGX4839SMNB87N","","null","<img src=""img/land6.png"" style=""width:200px; border:14px solid green;"">","null","","","","","","","","","",""
"","image-keyboard-response","12","44494","0.0-12.0","3907X2AHF1RLYIO9UNNMNHJY8S4P2Y","AA1IM0SAQ3XFM","356TQKY9XFJ5S7O4NGX4839SMNB87N","","684.2999999970198","img/land6.png","74","684.9000000059605","1","1","1","2","0.8,0.2,0.2,0.2,0.8,0.2,0.2,0.2,0.8","0.8,0.2,0.2,0.2,0.8,0.2,0.2,0.2,0.8","1","",""
"","html-keyboard-response","13","44795","0.0-13.0","3907X2AHF1RLYIO9UNNMNHJY8S4P2Y","AA1IM0SAQ3XFM","356TQKY9XFJ5S7O4NGX4839SMNB87N","","null","<img src=""img/land6.png"" style=""width:200px; border:14px solid green;"">","null","","","","","","","","","",""
"","image-keyboard-response","14","45678","0.0-14.0","3907X2AHF1RLYIO9UNNMNHJY8S4P2Y","AA1IM0SAQ3XFM","356TQKY9XFJ5S7O4NGX4839SMNB87N","","882.7999999970198","img/land5.png","75","883.4000000059605","2","1","2","2","0.8,0.2,0.2,0.2,0.8,0.2,0.2,0.2,0.8","0.8,0.2,0.2,0.2,0.8,0.2,0.2,0.2,0.8","1","",""
"","html-keyboard-response","15","45982","0.0-15.0","3907X2AHF1RLYIO9UNNMNHJY8S4P2Y","AA1IM0SAQ3XFM","356TQKY9XFJ5S7O4NGX4839SMNB87N","","null","<img src=""img/land5.png"" style=""width:200px; border:14px solid green;"">","null","","","","","","","","","",""
"","image-keyboard-response","16","46670","0.0-16.0","3907X2AHF1RLYIO9UNNMNHJY8S4P2Y","AA1IM0SAQ3XFM","356TQKY9XFJ5S7O4NGX4839SMNB87N","","687.1999999880791","img/land5.png","75","687.7000000029802","2","0","2","2","0.8,0.2,0.2,0.2,0.8,0.2,0.2,0.2,0.8","0.8,0.2,0.2,0.2,0.8,0.2,0.2,0.2,0.8","1","",""
"","html-keyboard-response","17","46974","0.0-17.0","3907X2AHF1RLYIO9UNNMNHJY8S4P2Y","AA1IM0SAQ3XFM","356TQKY9XFJ5S7O4NGX4839SMNB87N","","null","<img src=""img/land5.png"" style=""width:200px;border:14px solid red;"">","null","","","","","","","","","",""
"","image-keyboard-response","18","47815","0.0-18.0","3907X2AHF1RLYIO9UNNMNHJY8S4P2Y","AA1IM0SAQ3XFM","356TQKY9XFJ5S7O4NGX4839SMNB87N","","839.2000000029802","img/land1.png","76","840","3","1","3","2","0.8,0.2,0.2,0.2,0.8,0.2,0.2,0.2,0.8","0.8,0.2,0.2,0.2,0.8,0.2,0.2,0.2,0.8","1","",""
"","html-keyboard-response","19","48120","0.0-19.0","3907X2AHF1RLYIO9UNNMNHJY8S4P2Y","AA1IM0SAQ3XFM","356TQKY9XFJ5S7O4NGX4839SMNB87N","","null","<img src=""img/land1.png"" style=""width:200px; border:14px solid green;"">","null","","","","","","","","","",""
"","image-keyboard-response","20","49062","0.0-20.0","3907X2AHF1RLYIO9UNNMNHJY8S4P2Y","AA1IM0SAQ3XFM","356TQKY9XFJ5S7O4NGX4839SMNB87N","","941.4000000059605","img/land6.png","74","942.2000000029802","1","1","1","2","0.8,0.2,0.2,0.2,0.8,0.2,0.2,0.2,0.8","0.8,0.2,0.2,0.2,0.8,0.2,0.2,0.2,0.8","1","",""
"","html-keyboard-response","21","49366","0.0-21.0","3907X2AHF1RLYIO9UNNMNHJY8S4P2Y","AA1IM0SAQ3XFM","356TQKY9XFJ5S7O4NGX4839SMNB87N","","null","<img src=""img/land6.png"" style=""width:200px; border:14px solid green;"">","null","","","","","","","","","",""
"","image-keyboard-response","22","49854","0.0-22.0","3907X2AHF1RLYIO9UNNMNHJY8S4P2Y","AA1IM0SAQ3XFM","356TQKY9XFJ5S7O4NGX4839SMNB87N","","487.29999999701977","img/land6.png","74","487.90000000596046","1","1","1","2","0.8,0.2,0.2,0.2,0.8,0.2,0.2,0.2,0.8","0.8,0.2,0.2,0.2,0.8,0.2,0.2,0.2,0.8","1","",""
"","html-keyboard-response","23","50159","0.0-23.0","3907X2AHF1RLYIO9UNNMNHJY8S4P2Y","AA1IM0SAQ3XFM","356TQKY9XFJ5S7O4NGX4839SMNB87N","","null","<img src=""img/land6.png"" style=""width:200px; border:14px solid green;"">","null","","","","","","","","","",""
"","image-keyboard-response","24","50646","0.0-24.0","3907X2AHF1RLYIO9UNNMNHJY8S4P2Y","AA1IM0SAQ3XFM","356TQKY9XFJ5S7O4NGX4839SMNB87N","","486.79999999701977","img/land6.png","74","487.40000000596046","1","1","1","2","0.8,0.2,0.2,0.2,0.8,0.2,0.2,0.2,0.8","0.8,0.2,0.2,0.2,0.8,0.2,0.2,0.2,0.8","1","",""
"","html-keyboard-response","25","50951","0.0-25.0","3907X2AHF1RLYIO9UNNMNHJY8S4P2Y","AA1IM0SAQ3XFM","356TQKY9XFJ5S7O4NGX4839SMNB87N","","null","<img src=""img/land6.png"" style=""width:200px; border:14px solid green;"">","null","","","","","","","","","",""
"","image-keyboard-response","26","51679","0.0-26.0","3907X2AHF1RLYIO9UNNMNHJY8S4P2Y","AA1IM0SAQ3XFM","356TQKY9XFJ5S7O4NGX4839SMNB87N","","727.3999999910593","img/land1.png","76","728","3","1","3","2","0.8,0.2,0.2,0.2,0.8,0.2,0.2,0.2,0.8","0.8,0.2,0.2,0.2,0.8,0.2,0.2,0.2,0.8","1","",""
"","html-keyboard-response","27","51984","0.0-27.0","3907X2AHF1RLYIO9UNNMNHJY8S4P2Y","AA1IM0SAQ3XFM","356TQKY9XFJ5S7O4NGX4839SMNB87N","","null","<img src=""img/land1.png"" style=""width:200px; border:14px solid green;"">","null","","","","","","","","","",""
"","image-keyboard-response","28","52622","0.0-28.0","3907X2AHF1RLYIO9UNNMNHJY8S4P2Y","AA1IM0SAQ3XFM","356TQKY9XFJ5S7O4NGX4839SMNB87N","","637.2999999970198","img/land6.png","74","637.8999999910593","1","0","1","2","0.8,0.2,0.2,0.2,0.8,0.2,0.2,0.2,0.8","0.8,0.2,0.2,0.2,0.8,0.2,0.2,0.2,0.8","1","",""
"","html-keyboard-response","29","52926","0.0-29.0","3907X2AHF1RLYIO9UNNMNHJY8S4P2Y","AA1IM0SAQ3XFM","356TQKY9XFJ5S7O4NGX4839SMNB87N","","null","<img src=""img/land6.png"" style=""width:200px;border:14px solid red;"">","null","","","","","","","","","",""
"","image-keyboard-response","30","53839","0.0-30.0","3907X2AHF1RLYIO9UNNMNHJY8S4P2Y","AA1IM0SAQ3XFM","356TQKY9XFJ5S7O4NGX4839SMNB87N","","913","img/land1.png","75","913.5999999940395","2","0","3","2","0.8,0.2,0.2,0.2,0.8,0.2,0.2,0.2,0.8","0.8,0.2,0.2,0.2,0.8,0.2,0.2,0.2,0.8","1","",""
"","html-keyboard-response","31","54144","0.0-31.0","3907X2AHF1RLYIO9UNNMNHJY8S4P2Y","AA1IM0SAQ3XFM","356TQKY9XFJ5S7O4NGX4839SMNB87N","","null","<img src=""img/land1.png"" style=""width:200px;border:14px solid red;"">","null","","","","","","","","","",""
"","image-keyboard-response","32","54982","0.0-32.0","3907X2AHF1RLYIO9UNNMNHJY8S4P2Y","AA1IM0SAQ3XFM","356TQKY9XFJ5S7O4NGX4839SMNB87N","","837.8999999910593","img/land5.png","75","838.6000000089407","2","1","2","2","0.8,0.2,0.2,0.2,0.8,0.2,0.2,0.2,0.8","0.8,0.2,0.2,0.2,0.8,0.2,0.2,0.2,0.8","1","",""
"","html-keyboard-response","33","55288","0.0-33.0","3907X2AHF1RLYIO9UNNMNHJY8S4P2Y","AA1IM0SAQ3XFM","356TQKY9XFJ5S7O4NGX4839SMNB87N","","null","<img src=""img/land5.png"" style=""width:200px; border:14px solid green;"">","null","","","","","","","","","",""
"","image-keyboard-response","34","56295","0.0-34.0","3907X2AHF1RLYIO9UNNMNHJY8S4P2Y","AA1IM0SAQ3XFM","356TQKY9XFJ5S7O4NGX4839SMNB87N","","1006.3000000119209","img/land1.png","75","1007","2","1","3","2","0.8,0.2,0.2,0.2,0.8,0.2,0.2,0.2,0.8","0.8,0.2,0.2,0.2,0.8,0.2,0.2,0.2,0.8","1","",""
"","html-keyboard-response","35","56599","0.0-35.0","3907X2AHF1RLYIO9UNNMNHJY8S4P2Y","AA1IM0SAQ3XFM","356TQKY9XFJ5S7O4NGX4839SMNB87N","","null","<img src=""img/land1.png"" style=""width:200px; border:14px solid green;"">","null","","","","","","","","","",""
"","image-keyboard-response","36","57312","0.0-36.0","3907X2AHF1RLYIO9UNNMNHJY8S4P2Y","AA1IM0SAQ3XFM","356TQKY9XFJ5S7O4NGX4839SMNB87N","","711.9000000059605","img/land6.png","74","712.5999999940395","1","1","1","2","0.8,0.2,0.2,0.2,0.8,0.2,0.2,0.2,0.8","0.8,0.2,0.2,0.2,0.8,0.2,0.2,0.2,0.8","1","",""
"","html-keyboard-response","37","57618","0.0-37.0","3907X2AHF1RLYIO9UNNMNHJY8S4P2Y","AA1IM0SAQ3XFM","356TQKY9XFJ5S7O4NGX4839SMNB87N","","null","<img src=""img/land6.png"" style=""width:200px; border:14px solid green;"">","null","","","","","","","","","",""
"","image-keyboard-response","38","58248","0.0-38.0","3907X2AHF1RLYIO9UNNMNHJY8S4P2Y","AA1IM0SAQ3XFM","356TQKY9XFJ5S7O4NGX4839SMNB87N","","629.5","img/land1.png","75","630.2000000029802","2","1","3","2","0.8,0.2,0.2,0.2,0.8,0.2,0.2,0.2,0.8","0.8,0.2,0.2,0.2,0.8,0.2,0.2,0.2,0.8","1","",""
"","html-keyboard-response","39","58552","0.0-39.0","3907X2AHF1RLYIO9UNNMNHJY8S4P2Y","AA1IM0SAQ3XFM","356TQKY9XFJ5S7O4NGX4839SMNB87N","","null","<img src=""img/land1.png"" style=""width:200px; border:14px solid green;"">","null","","","","","","","","","",""
"","image-keyboard-response","40","59200","0.0-40.0","3907X2AHF1RLYIO9UNNMNHJY8S4P2Y","AA1IM0SAQ3XFM","356TQKY9XFJ5S7O4NGX4839SMNB87N","","647.5","img/land6.png","74","648.1000000089407","1","1","1","2","0.8,0.2,0.2,0.2,0.8,0.2,0.2,0.2,0.8","0.8,0.2,0.2,0.2,0.8,0.2,0.2,0.2,0.8","1","",""
"","html-keyboard-response","41","59504","0.0-41.0","3907X2AHF1RLYIO9UNNMNHJY8S4P2Y","AA1IM0SAQ3XFM","356TQKY9XFJ5S7O4NGX4839SMNB87N","","null","<img src=""img/land6.png"" style=""width:200px; border:14px solid green;"">","null","","","","","","","","","",""
"","image-keyboard-response","42","60104","0.0-42.0","3907X2AHF1RLYIO9UNNMNHJY8S4P2Y","AA1IM0SAQ3XFM","356TQKY9XFJ5S7O4NGX4839SMNB87N","","599.4000000059605","img/land1.png","75","600.1000000089407","2","0","3","2","0.8,0.2,0.2,0.2,0.8,0.2,0.2,0.2,0.8","0.8,0.2,0.2,0.2,0.8,0.2,0.2,0.2,0.8","1","",""
"","html-keyboard-response","43","60409","0.0-43.0","3907X2AHF1RLYIO9UNNMNHJY8S4P2Y","AA1IM0SAQ3XFM","356TQKY9XFJ5S7O4NGX4839SMNB87N","","null","<img src=""img/land1.png"" style=""width:200px;border:14px solid red;"">","null","","","","","","","","","",""
"","image-keyboard-response","44","61080","0.0-44.0","3907X2AHF1RLYIO9UNNMNHJY8S4P2Y","AA1IM0SAQ3XFM","356TQKY9XFJ5S7O4NGX4839SMNB87N","","669.9000000059605","img/land6.png","74","670.6000000089407","1","1","1","2","0.8,0.2,0.2,0.2,0.8,0.2,0.2,0.2,0.8","0.8,0.2,0.2,0.2,0.8,0.2,0.2,0.2,0.8","1","",""
"","html-keyboard-response","45","61382","0.0-45.0","3907X2AHF1RLYIO9UNNMNHJY8S4P2Y","AA1IM0SAQ3XFM","356TQKY9XFJ5S7O4NGX4839SMNB87N","","null","<img src=""img/land6.png"" style=""width:200px; border:14px solid green;"">","null","","","","","","","","","",""
"","image-keyboard-response","46","62024","0.0-46.0","3907X2AHF1RLYIO9UNNMNHJY8S4P2Y","AA1IM0SAQ3XFM","356TQKY9XFJ5S7O4NGX4839SMNB87N","","641.5","img/land5.png","76","642.1000000089407","3","0","2","2","0.8,0.2,0.2,0.2,0.8,0.2,0.2,0.2,0.8","0.8,0.2,0.2,0.2,0.8,0.2,0.2,0.2,0.8","1","",""
"","html-keyboard-response","47","62329","0.0-47.0","3907X2AHF1RLYIO9UNNMNHJY8S4P2Y","AA1IM0SAQ3XFM","356TQKY9XFJ5S7O4NGX4839SMNB87N","","null","<img src=""img/land5.png"" style=""width:200px;border:14px solid red;"">","null","","","","","","","","","",""
"","image-keyboard-response","48","63056","0.0-48.0","3907X2AHF1RLYIO9UNNMNHJY8S4P2Y","AA1IM0SAQ3XFM","356TQKY9XFJ5S7O4NGX4839SMNB87N","","725.9000000059605","img/land6.png","74","726.7000000029802","1","1","1","2","0.8,0.2,0.2,0.2,0.8,0.2,0.2,0.2,0.8","0.8,0.2,0.2,0.2,0.8,0.2,0.2,0.2,0.8","1","",""
"","html-keyboard-response","49","63360","0.0-49.0","3907X2AHF1RLYIO9UNNMNHJY8S4P2Y","AA1IM0SAQ3XFM","356TQKY9XFJ5S7O4NGX4839SMNB87N","","null","<img src=""img/land6.png"" style=""width:200px; border:14px solid green;"">","null","","","","","","","","","",""
"","image-keyboard-response","50","63937","0.0-50.0","3907X2AHF1RLYIO9UNNMNHJY8S4P2Y","AA1IM0SAQ3XFM","356TQKY9XFJ5S7O4NGX4839SMNB87N","","576.0999999940395","img/land5.png","75","576.6000000089407","2","1","2","2","0.8,0.2,0.2,0.2,0.8,0.2,0.2,0.2,0.8","0.8,0.2,0.2,0.2,0.8,0.2,0.2,0.2,0.8","1","",""
"","html-keyboard-response","51","64242","0.0-51.0","3907X2AHF1RLYIO9UNNMNHJY8S4P2Y","AA1IM0SAQ3XFM","356TQKY9XFJ5S7O4NGX4839SMNB87N","","null","<img src=""img/land5.png"" style=""width:200px; border:14px solid green;"">","null","","","","","","","","","",""
"","image-keyboard-response","52","64791","0.0-52.0","3907X2AHF1RLYIO9UNNMNHJY8S4P2Y","AA1IM0SAQ3XFM","356TQKY9XFJ5S7O4NGX4839SMNB87N","","548.5999999940395","img/land5.png","75","549.2000000029802","2","1","2","2","0.8,0.2,0.2,0.2,0.8,0.2,0.2,0.2,0.8","0.8,0.2,0.2,0.2,0.8,0.2,0.2,0.2,0.8","1","",""
"","html-keyboard-response","53","65094","0.0-53.0","3907X2AHF1RLYIO9UNNMNHJY8S4P2Y","AA1IM0SAQ3XFM","356TQKY9XFJ5S7O4NGX4839SMNB87N","","null","<img src=""img/land5.png"" style=""width:200px; border:14px solid green;"">","null","","","","","","","","","",""
"","image-keyboard-response","54","65704","0.0-54.0","3907X2AHF1RLYIO9UNNMNHJY8S4P2Y","AA1IM0SAQ3XFM","356TQKY9XFJ5S7O4NGX4839SMNB87N","","608.6000000089407","img/land6.png","74","609.2999999970198","1","1","1","2","0.8,0.2,0.2,0.2,0.8,0.2,0.2,0.2,0.8","0.8,0.2,0.2,0.2,0.8,0.2,0.2,0.2,0.8","1","",""
"","html-keyboard-response","55","66009","0.0-55.0","3907X2AHF1RLYIO9UNNMNHJY8S4P2Y","AA1IM0SAQ3XFM","356TQKY9XFJ5S7O4NGX4839SMNB87N","","null","<img src=""img/land6.png"" style=""width:200px; border:14px solid green;"">","null","","","","","","","","","",""
"","image-keyboard-response","56","66592","0.0-56.0","3907X2AHF1RLYIO9UNNMNHJY8S4P2Y","AA1IM0SAQ3XFM","356TQKY9XFJ5S7O4NGX4839SMNB87N","","582.5","img/land5.png","75","583.2000000029802","2","1","2","2","0.8,0.2,0.2,0.2,0.8,0.2,0.2,0.2,0.8","0.8,0.2,0.2,0.2,0.8,0.2,0.2,0.2,0.8","1","",""
"","html-keyboard-response","57","66898","0.0-57.0","3907X2AHF1RLYIO9UNNMNHJY8S4P2Y","AA1IM0SAQ3XFM","356TQKY9XFJ5S7O4NGX4839SMNB87N","","null","<img src=""img/land5.png"" style=""width:200px; border:14px solid green;"">","null","","","","","","","","","",""
"","image-keyboard-response","58","67536","0.0-58.0","3907X2AHF1RLYIO9UNNMNHJY8S4P2Y","AA1IM0SAQ3XFM","356TQKY9XFJ5S7O4NGX4839SMNB87N","","637.5","img/land6.png","74","638.2000000029802","1","1","1","2","0.8,0.2,0.2,0.2,0.8,0.2,0.2,0.2,0.8","0.8,0.2,0.2,0.2,0.8,0.2,0.2,0.2,0.8","1","",""
"","html-keyboard-response","59","67842","0.0-59.0","3907X2AHF1RLYIO9UNNMNHJY8S4P2Y","AA1IM0SAQ3XFM","356TQKY9XFJ5S7O4NGX4839SMNB87N","","null","<img src=""img/land6.png"" style=""width:200px; border:14px solid green;"">","null","","","","","","","","","",""
"","image-keyboard-response","60","68336","0.0-60.0","3907X2AHF1RLYIO9UNNMNHJY8S4P2Y","AA1IM0SAQ3XFM","356TQKY9XFJ5S7O4NGX4839SMNB87N","","493.1000000089407","img/land6.png","74","493.80000001192093","1","1","1","2","0.8,0.2,0.2,0.2,0.8,0.2,0.2,0.2,0.8","0.8,0.2,0.2,0.2,0.8,0.2,0.2,0.2,0.8","1","",""
"","html-keyboard-response","61","68641","0.0-61.0","3907X2AHF1RLYIO9UNNMNHJY8S4P2Y","AA1IM0SAQ3XFM","356TQKY9XFJ5S7O4NGX4839SMNB87N","","null","<img src=""img/land6.png"" style=""width:200px; border:14px solid green;"">","null","","","","","","","","","",""
"","image-keyboard-response","62","69168","0.0-62.0","3907X2AHF1RLYIO9UNNMNHJY8S4P2Y","AA1IM0SAQ3XFM","356TQKY9XFJ5S7O4NGX4839SMNB87N","","526.0999999940395","img/land6.png","74","526.6999999880791","1","0","1","2","0.8,0.2,0.2,0.2,0.8,0.2,0.2,0.2,0.8","0.8,0.2,0.2,0.2,0.8,0.2,0.2,0.2,0.8","1","",""
"","html-keyboard-response","63","69471","0.0-63.0","3907X2AHF1RLYIO9UNNMNHJY8S4P2Y","AA1IM0SAQ3XFM","356TQKY9XFJ5S7O4NGX4839SMNB87N","","null","<img src=""img/land6.png"" style=""width:200px;border:14px solid red;"">","null","","","","","","","","","",""
"","image-keyboard-response","64","69992","0.0-64.0","3907X2AHF1RLYIO9UNNMNHJY8S4P2Y","AA1IM0SAQ3XFM","356TQKY9XFJ5S7O4NGX4839SMNB87N","","519.9000000059605","img/land6.png","74","520.6000000089407","1","1","1","2","0.8,0.2,0.2,0.2,0.8,0.2,0.2,0.2,0.8","0.8,0.2,0.2,0.2,0.8,0.2,0.2,0.2,0.8","1","",""
"","html-keyboard-response","65","70296","0.0-65.0","3907X2AHF1RLYIO9UNNMNHJY8S4P2Y","AA1IM0SAQ3XFM","356TQKY9XFJ5S7O4NGX4839SMNB87N","","null","<img src=""img/land6.png"" style=""width:200px; border:14px solid green;"">","null","","","","","","","","","",""
"","image-keyboard-response","66","70800","0.0-66.0","3907X2AHF1RLYIO9UNNMNHJY8S4P2Y","AA1IM0SAQ3XFM","356TQKY9XFJ5S7O4NGX4839SMNB87N","","503.8999999910593","img/land6.png","74","504.5","1","1","1","2","0.8,0.2,0.2,0.2,0.8,0.2,0.2,0.2,0.8","0.8,0.2,0.2,0.2,0.8,0.2,0.2,0.2,0.8","1","",""
"","html-keyboard-response","67","71103","0.0-67.0","3907X2AHF1RLYIO9UNNMNHJY8S4P2Y","AA1IM0SAQ3XFM","356TQKY9XFJ5S7O4NGX4839SMNB87N","","null","<img src=""img/land6.png"" style=""width:200px; border:14px solid green;"">","null","","","","","","","","","",""
"","image-keyboard-response","68","71632","0.0-68.0","3907X2AHF1RLYIO9UNNMNHJY8S4P2Y","AA1IM0SAQ3XFM","356TQKY9XFJ5S7O4NGX4839SMNB87N","","528.9000000059605","img/land6.png","74","529.5","1","0","1","2","0.8,0.2,0.2,0.2,0.8,0.2,0.2,0.2,0.8","0.8,0.2,0.2,0.2,0.8,0.2,0.2,0.2,0.8","1","",""
"","html-keyboard-response","69","71939","0.0-69.0","3907X2AHF1RLYIO9UNNMNHJY8S4P2Y","AA1IM0SAQ3XFM","356TQKY9XFJ5S7O4NGX4839SMNB87N","","null","<img src=""img/land6.png"" style=""width:200px;border:14px solid red;"">","null","","","","","","","","","",""
"","image-keyboard-response","70","72496","0.0-70.0","3907X2AHF1RLYIO9UNNMNHJY8S4P2Y","AA1IM0SAQ3XFM","356TQKY9XFJ5S7O4NGX4839SMNB87N","","556.8000000119209","img/land6.png","74","557.4000000059605","1","0","1","2","0.8,0.2,0.2,0.2,0.8,0.2,0.2,0.2,0.8","0.8,0.2,0.2,0.2,0.8,0.2,0.2,0.2,0.8","1","",""
"","html-keyboard-response","71","72802","0.0-71.0","3907X2AHF1RLYIO9UNNMNHJY8S4P2Y","AA1IM0SAQ3XFM","356TQKY9XFJ5S7O4NGX4839SMNB87N","","null","<img src=""img/land6.png"" style=""width:200px;border:14px solid red;"">","null","","","","","","","","","",""
"","image-keyboard-response","72","73376","0.0-72.0","3907X2AHF1RLYIO9UNNMNHJY8S4P2Y","AA1IM0SAQ3XFM","356TQKY9XFJ5S7O4NGX4839SMNB87N","","573.7999999970198","img/land6.png","74","574.2999999970198","1","1","1","2","0.8,0.2,0.2,0.2,0.8,0.2,0.2,0.2,0.8","0.8,0.2,0.2,0.2,0.8,0.2,0.2,0.2,0.8","1","",""
"","html-keyboard-response","73","73680","0.0-73.0","3907X2AHF1RLYIO9UNNMNHJY8S4P2Y","AA1IM0SAQ3XFM","356TQKY9XFJ5S7O4NGX4839SMNB87N","","null","<img src=""img/land6.png"" style=""width:200px; border:14px solid green;"">","null","","","","","","","","","",""
"","image-keyboard-response","74","74241","0.0-74.0","3907X2AHF1RLYIO9UNNMNHJY8S4P2Y","AA1IM0SAQ3XFM","356TQKY9XFJ5S7O4NGX4839SMNB87N","","560","img/land1.png","75","560.6999999880791","2","0","3","2","0.8,0.2,0.2,0.2,0.8,0.2,0.2,0.2,0.8","0.8,0.2,0.2,0.2,0.8,0.2,0.2,0.2,0.8","1","",""
"","html-keyboard-response","75","74545","0.0-75.0","3907X2AHF1RLYIO9UNNMNHJY8S4P2Y","AA1IM0SAQ3XFM","356TQKY9XFJ5S7O4NGX4839SMNB87N","","null","<img src=""img/land1.png"" style=""width:200px;border:14px solid red;"">","null","","","","","","","","","",""
"","image-keyboard-response","76","75064","0.0-76.0","3907X2AHF1RLYIO9UNNMNHJY8S4P2Y","AA1IM0SAQ3XFM","356TQKY9XFJ5S7O4NGX4839SMNB87N","","517.5","img/land1.png","76","518.2000000029802","3","0","3","2","0.8,0.2,0.2,0.2,0.8,0.2,0.2,0.2,0.8","0.8,0.2,0.2,0.2,0.8,0.2,0.2,0.2,0.8","1","",""
"","html-keyboard-response","77","75370","0.0-77.0","3907X2AHF1RLYIO9UNNMNHJY8S4P2Y","AA1IM0SAQ3XFM","356TQKY9XFJ5S7O4NGX4839SMNB87N","","null","<img src=""img/land1.png"" style=""width:200px;border:14px solid red;"">","null","","","","","","","","","",""
"","image-keyboard-response","78","76176","0.0-78.0","3907X2AHF1RLYIO9UNNMNHJY8S4P2Y","AA1IM0SAQ3XFM","356TQKY9XFJ5S7O4NGX4839SMNB87N","","805.5","img/land6.png","74","806.2000000029802","1","0","1","2","0.8,0.2,0.2,0.2,0.8,0.2,0.2,0.2,0.8","0.8,0.2,0.2,0.2,0.8,0.2,0.2,0.2,0.8","1","",""
"","html-keyboard-response","79","76482","0.0-79.0","3907X2AHF1RLYIO9UNNMNHJY8S4P2Y","AA1IM0SAQ3XFM","356TQKY9XFJ5S7O4NGX4839SMNB87N","","null","<img src=""img/land6.png"" style=""width:200px;border:14px solid red;"">","null","","","","","","","","","",""
"","image-keyboard-response","80","77105","0.0-80.0","3907X2AHF1RLYIO9UNNMNHJY8S4P2Y","AA1IM0SAQ3XFM","356TQKY9XFJ5S7O4NGX4839SMNB87N","","621.4000000059605","img/land6.png","74","622.3000000119209","1","1","1","2","0.8,0.2,0.2,0.2,0.8,0.2,0.2,0.2,0.8","0.8,0.2,0.2,0.2,0.8,0.2,0.2,0.2,0.8","1","",""
"","html-keyboard-response","81","77411","0.0-81.0","3907X2AHF1RLYIO9UNNMNHJY8S4P2Y","AA1IM0SAQ3XFM","356TQKY9XFJ5S7O4NGX4839SMNB87N","","null","<img src=""img/land6.png"" style=""width:200px; border:14px solid green;"">","null","","","","","","","","","",""
"","image-keyboard-response","82","77968","0.0-82.0","3907X2AHF1RLYIO9UNNMNHJY8S4P2Y","AA1IM0SAQ3XFM","356TQKY9XFJ5S7O4NGX4839SMNB87N","","556.5","img/land6.png","74","557.2000000029802","1","0","1","2","0.8,0.2,0.2,0.2,0.8,0.2,0.2,0.2,0.8","0.8,0.2,0.2,0.2,0.8,0.2,0.2,0.2,0.8","1","",""
"","html-keyboard-response","83","78272","0.0-83.0","3907X2AHF1RLYIO9UNNMNHJY8S4P2Y","AA1IM0SAQ3XFM","356TQKY9XFJ5S7O4NGX4839SMNB87N","","null","<img src=""img/land6.png"" style=""width:200px;border:14px solid red;"">","null","","","","","","","","","",""
"","image-keyboard-response","84","78825","0.0-84.0","3907X2AHF1RLYIO9UNNMNHJY8S4P2Y","AA1IM0SAQ3XFM","356TQKY9XFJ5S7O4NGX4839SMNB87N","","551.8999999910593","img/land6.png","74","552.5999999940395","1","1","1","2","0.8,0.2,0.2,0.2,0.8,0.2,0.2,0.2,0.8","0.8,0.2,0.2,0.2,0.8,0.2,0.2,0.2,0.8","1","",""
"","html-keyboard-response","85","79129","0.0-85.0","3907X2AHF1RLYIO9UNNMNHJY8S4P2Y","AA1IM0SAQ3XFM","356TQKY9XFJ5S7O4NGX4839SMNB87N","","null","<img src=""img/land6.png"" style=""width:200px; border:14px solid green;"">","null","","","","","","","","","",""
"","image-keyboard-response","86","79744","0.0-86.0","3907X2AHF1RLYIO9UNNMNHJY8S4P2Y","AA1IM0SAQ3XFM","356TQKY9XFJ5S7O4NGX4839SMNB87N","","614","img/land6.png","74","614.7999999970198","1","1","1","2","0.8,0.2,0.2,0.2,0.8,0.2,0.2,0.2,0.8","0.8,0.2,0.2,0.2,0.8,0.2,0.2,0.2,0.8","1","",""
"","html-keyboard-response","87","80048","0.0-87.0","3907X2AHF1RLYIO9UNNMNHJY8S4P2Y","AA1IM0SAQ3XFM","356TQKY9XFJ5S7O4NGX4839SMNB87N","","null","<img src=""img/land6.png"" style=""width:200px; border:14px solid green;"">","null","","","","","","","","","",""
"","image-keyboard-response","88","80952","0.0-88.0","3907X2AHF1RLYIO9UNNMNHJY8S4P2Y","AA1IM0SAQ3XFM","356TQKY9XFJ5S7O4NGX4839SMNB87N","","903.1000000089407","img/land5.png","75","903.9000000059605","2","0","2","2","0.8,0.2,0.2,0.2,0.8,0.2,0.2,0.2,0.8","0.8,0.2,0.2,0.2,0.8,0.2,0.2,0.2,0.8","1","",""
"","html-keyboard-response","89","81256","0.0-89.0","3907X2AHF1RLYIO9UNNMNHJY8S4P2Y","AA1IM0SAQ3XFM","356TQKY9XFJ5S7O4NGX4839SMNB87N","","null","<img src=""img/land5.png"" style=""width:200px;border:14px solid red;"">","null","","","","","","","","","",""
"","image-keyboard-response","90","81768","0.0-90.0","3907X2AHF1RLYIO9UNNMNHJY8S4P2Y","AA1IM0SAQ3XFM","356TQKY9XFJ5S7O4NGX4839SMNB87N","","511.70000000298023","img/land5.png","75","512.5","2","1","2","2","0.8,0.2,0.2,0.2,0.8,0.2,0.2,0.2,0.8","0.8,0.2,0.2,0.2,0.8,0.2,0.2,0.2,0.8","1","",""
"","html-keyboard-response","91","82073","0.0-91.0","3907X2AHF1RLYIO9UNNMNHJY8S4P2Y","AA1IM0SAQ3XFM","356TQKY9XFJ5S7O4NGX4839SMNB87N","","null","<img src=""img/land5.png"" style=""width:200px; border:14px solid green;"">","null","","","","","","","","","",""
"","image-keyboard-response","92","82585","0.0-92.0","3907X2AHF1RLYIO9UNNMNHJY8S4P2Y","AA1IM0SAQ3XFM","356TQKY9XFJ5S7O4NGX4839SMNB87N","","511.09999999403954","img/land5.png","75","511.79999999701977","2","1","2","2","0.8,0.2,0.2,0.2,0.8,0.2,0.2,0.2,0.8","0.8,0.2,0.2,0.2,0.8,0.2,0.2,0.2,0.8","1","",""
"","html-keyboard-response","93","82887","0.0-93.0","3907X2AHF1RLYIO9UNNMNHJY8S4P2Y","AA1IM0SAQ3XFM","356TQKY9XFJ5S7O4NGX4839SMNB87N","","null","<img src=""img/land5.png"" style=""width:200px; border:14px solid green;"">","null","","","","","","","","","",""
"","image-keyboard-response","94","83425","0.0-94.0","3907X2AHF1RLYIO9UNNMNHJY8S4P2Y","AA1IM0SAQ3XFM","356TQKY9XFJ5S7O4NGX4839SMNB87N","","536.7999999970198","img/land5.png","75","537.5","2","1","2","2","0.8,0.2,0.2,0.2,0.8,0.2,0.2,0.2,0.8","0.8,0.2,0.2,0.2,0.8,0.2,0.2,0.2,0.8","1","",""
"","html-keyboard-response","95","83729","0.0-95.0","3907X2AHF1RLYIO9UNNMNHJY8S4P2Y","AA1IM0SAQ3XFM","356TQKY9XFJ5S7O4NGX4839SMNB87N","","null","<img src=""img/land5.png"" style=""width:200px; border:14px solid green;"">","null","","","","","","","","","",""
"","image-keyboard-response","96","84377","0.0-96.0","3907X2AHF1RLYIO9UNNMNHJY8S4P2Y","AA1IM0SAQ3XFM","356TQKY9XFJ5S7O4NGX4839SMNB87N","","647.8000000119209","img/land6.png","74","648.5","1","0","1","2","0.8,0.2,0.2,0.2,0.8,0.2,0.2,0.2,0.8","0.8,0.2,0.2,0.2,0.8,0.2,0.2,0.2,0.8","1","",""
"","html-keyboard-response","97","84681","0.0-97.0","3907X2AHF1RLYIO9UNNMNHJY8S4P2Y","AA1IM0SAQ3XFM","356TQKY9XFJ5S7O4NGX4839SMNB87N","","null","<img src=""img/land6.png"" style=""width:200px;border:14px solid red;"">","null","","","","","","","","","",""
"","image-keyboard-response","98","85337","0.0-98.0","3907X2AHF1RLYIO9UNNMNHJY8S4P2Y","AA1IM0SAQ3XFM","356TQKY9XFJ5S7O4NGX4839SMNB87N","","655","img/land1.png","76","655.7000000029802","3","1","3","2","0.8,0.2,0.2,0.2,0.8,0.2,0.2,0.2,0.8","0.8,0.2,0.2,0.2,0.8,0.2,0.2,0.2,0.8","1","",""
"","html-keyboard-response","99","85642","0.0-99.0","3907X2AHF1RLYIO9UNNMNHJY8S4P2Y","AA1IM0SAQ3XFM","356TQKY9XFJ5S7O4NGX4839SMNB87N","","null","<img src=""img/land1.png"" style=""width:200px; border:14px solid green;"">","null","","","","","","","","","",""
"","image-keyboard-response","100","86521","0.0-100.0","3907X2AHF1RLYIO9UNNMNHJY8S4P2Y","AA1IM0SAQ3XFM","356TQKY9XFJ5S7O4NGX4839SMNB87N","","877.5999999940395","img/land6.png","74","878.4000000059605","1","1","1","2","0.8,0.2,0.2,0.2,0.8,0.2,0.2,0.2,0.8","0.8,0.2,0.2,0.2,0.8,0.2,0.2,0.2,0.8","1","",""
"","html-keyboard-response","101","86827","0.0-101.0","3907X2AHF1RLYIO9UNNMNHJY8S4P2Y","AA1IM0SAQ3XFM","356TQKY9XFJ5S7O4NGX4839SMNB87N","","null","<img src=""img/land6.png"" style=""width:200px; border:14px solid green;"">","null","","","","","","","","","",""
"","image-keyboard-response","102","87225","0.0-102.0","3907X2AHF1RLYIO9UNNMNHJY8S4P2Y","AA1IM0SAQ3XFM","356TQKY9XFJ5S7O4NGX4839SMNB87N","","397.40000000596046","img/land6.png","74","398.20000000298023","1","1","1","2","0.8,0.2,0.2,0.2,0.8,0.2,0.2,0.2,0.8","0.8,0.2,0.2,0.2,0.8,0.2,0.2,0.2,0.8","1","",""
"","html-keyboard-response","103","87531","0.0-103.0","3907X2AHF1RLYIO9UNNMNHJY8S4P2Y","AA1IM0SAQ3XFM","356TQKY9XFJ5S7O4NGX4839SMNB87N","","null","<img src=""img/land6.png"" style=""width:200px; border:14px solid green;"">","null","","","","","","","","","",""
"","image-keyboard-response","104","88017","0.0-104.0","3907X2AHF1RLYIO9UNNMNHJY8S4P2Y","AA1IM0SAQ3XFM","356TQKY9XFJ5S7O4NGX4839SMNB87N","","484.40000000596046","img/land6.png","74","485.19999998807907","1","0","1","2","0.8,0.2,0.2,0.2,0.8,0.2,0.2,0.2,0.8","0.8,0.2,0.2,0.2,0.8,0.2,0.2,0.2,0.8","1","",""
"","html-keyboard-response","105","88321","0.0-105.0","3907X2AHF1RLYIO9UNNMNHJY8S4P2Y","AA1IM0SAQ3XFM","356TQKY9XFJ5S7O4NGX4839SMNB87N","","null","<img src=""img/land6.png"" style=""width:200px;border:14px solid red;"">","null","","","","","","","","","",""
"","image-keyboard-response","106","88833","0.0-106.0","3907X2AHF1RLYIO9UNNMNHJY8S4P2Y","AA1IM0SAQ3XFM","356TQKY9XFJ5S7O4NGX4839SMNB87N","","511.40000000596046","img/land6.png","74","512.1000000089407","1","1","1","2","0.8,0.2,0.2,0.2,0.8,0.2,0.2,0.2,0.8","0.8,0.2,0.2,0.2,0.8,0.2,0.2,0.2,0.8","1","",""
"","html-keyboard-response","107","89137","0.0-107.0","3907X2AHF1RLYIO9UNNMNHJY8S4P2Y","AA1IM0SAQ3XFM","356TQKY9XFJ5S7O4NGX4839SMNB87N","","null","<img src=""img/land6.png"" style=""width:200px; border:14px solid green;"">","null","","","","","","","","","",""
"","image-keyboard-response","108","89769","0.0-108.0","3907X2AHF1RLYIO9UNNMNHJY8S4P2Y","AA1IM0SAQ3XFM","356TQKY9XFJ5S7O4NGX4839SMNB87N","","630.7999999970198","img/land5.png","75","631.4000000059605","2","0","2","2","0.8,0.2,0.2,0.2,0.8,0.2,0.2,0.2,0.8","0.8,0.2,0.2,0.2,0.8,0.2,0.2,0.2,0.8","1","",""
"","html-keyboard-response","109","90074","0.0-109.0","3907X2AHF1RLYIO9UNNMNHJY8S4P2Y","AA1IM0SAQ3XFM","356TQKY9XFJ5S7O4NGX4839SMNB87N","","null","<img src=""img/land5.png"" style=""width:200px;border:14px solid red;"">","null","","","","","","","","","",""
"","image-keyboard-response","110","90577","0.0-110.0","3907X2AHF1RLYIO9UNNMNHJY8S4P2Y","AA1IM0SAQ3XFM","356TQKY9XFJ5S7O4NGX4839SMNB87N","","502.20000000298023","img/land5.png","75","502.79999999701977","2","1","2","2","0.8,0.2,0.2,0.2,0.8,0.2,0.2,0.2,0.8","0.8,0.2,0.2,0.2,0.8,0.2,0.2,0.2,0.8","1","",""
"","html-keyboard-response","111","90879","0.0-111.0","3907X2AHF1RLYIO9UNNMNHJY8S4P2Y","AA1IM0SAQ3XFM","356TQKY9XFJ5S7O4NGX4839SMNB87N","","null","<img src=""img/land5.png"" style=""width:200px; border:14px solid green;"">","null","","","","","","","","","",""
"","image-keyboard-response","112","91473","0.0-112.0","3907X2AHF1RLYIO9UNNMNHJY8S4P2Y","AA1IM0SAQ3XFM","356TQKY9XFJ5S7O4NGX4839SMNB87N","","592.6000000089407","img/land6.png","74","593.3999999910593","1","1","1","2","0.8,0.2,0.2,0.2,0.8,0.2,0.2,0.2,0.8","0.8,0.2,0.2,0.2,0.8,0.2,0.2,0.2,0.8","1","",""
"","html-keyboard-response","113","91775","0.0-113.0","3907X2AHF1RLYIO9UNNMNHJY8S4P2Y","AA1IM0SAQ3XFM","356TQKY9XFJ5S7O4NGX4839SMNB87N","","null","<img src=""img/land6.png"" style=""width:200px; border:14px solid green;"">","null","","","","","","","","","",""
"","image-keyboard-response","114","92281","0.0-114.0","3907X2AHF1RLYIO9UNNMNHJY8S4P2Y","AA1IM0SAQ3XFM","356TQKY9XFJ5S7O4NGX4839SMNB87N","","505.40000000596046","img/land6.png","74","506.1000000089407","1","1","1","2","0.8,0.2,0.2,0.2,0.8,0.2,0.2,0.2,0.8","0.8,0.2,0.2,0.2,0.8,0.2,0.2,0.2,0.8","1","",""
"","html-keyboard-response","115","92586","0.0-115.0","3907X2AHF1RLYIO9UNNMNHJY8S4P2Y","AA1IM0SAQ3XFM","356TQKY9XFJ5S7O4NGX4839SMNB87N","","null","<img src=""img/land6.png"" style=""width:200px; border:14px solid green;"">","null","","","","","","","","","",""
"","image-keyboard-response","116","93289","0.0-116.0","3907X2AHF1RLYIO9UNNMNHJY8S4P2Y","AA1IM0SAQ3XFM","356TQKY9XFJ5S7O4NGX4839SMNB87N","","702.3999999910593","img/land1.png","76","703.0999999940395","3","1","3","2","0.8,0.2,0.2,0.2,0.8,0.2,0.2,0.2,0.8","0.8,0.2,0.2,0.2,0.8,0.2,0.2,0.2,0.8","1","",""
"","html-keyboard-response","117","93593","0.0-117.0","3907X2AHF1RLYIO9UNNMNHJY8S4P2Y","AA1IM0SAQ3XFM","356TQKY9XFJ5S7O4NGX4839SMNB87N","","null","<img src=""img/land1.png"" style=""width:200px; border:14px solid green;"">","null","","","","","","","","","",""
"","image-keyboard-response","118","94057","0.0-118.0","3907X2AHF1RLYIO9UNNMNHJY8S4P2Y","AA1IM0SAQ3XFM","356TQKY9XFJ5S7O4NGX4839SMNB87N","","463.40000000596046","img/land1.png","76","464.20000000298023","3","1","3","2","0.8,0.2,0.2,0.2,0.8,0.2,0.2,0.2,0.8","0.8,0.2,0.2,0.2,0.8,0.2,0.2,0.2,0.8","1","",""
"","html-keyboard-response","119","94362","0.0-119.0","3907X2AHF1RLYIO9UNNMNHJY8S4P2Y","AA1IM0SAQ3XFM","356TQKY9XFJ5S7O4NGX4839SMNB87N","","null","<img src=""img/land1.png"" style=""width:200px; border:14px solid green;"">","null","","","","","","","","","",""
"","image-keyboard-response","120","94970","0.0-120.0","3907X2AHF1RLYIO9UNNMNHJY8S4P2Y","AA1IM0SAQ3XFM","356TQKY9XFJ5S7O4NGX4839SMNB87N","","607.0999999940395","img/land6.png","74","607.7000000029802","1","0","1","2","0.8,0.2,0.2,0.2,0.8,0.2,0.2,0.2,0.8","0.8,0.2,0.2,0.2,0.8,0.2,0.2,0.2,0.8","1","",""
"","html-keyboard-response","121","95275","0.0-121.0","3907X2AHF1RLYIO9UNNMNHJY8S4P2Y","AA1IM0SAQ3XFM","356TQKY9XFJ5S7O4NGX4839SMNB87N","","null","<img src=""img/land6.png"" style=""width:200px;border:14px solid red;"">","null","","","","","","","","","",""
"","image-keyboard-response","122","95849","0.0-122.0","3907X2AHF1RLYIO9UNNMNHJY8S4P2Y","AA1IM0SAQ3XFM","356TQKY9XFJ5S7O4NGX4839SMNB87N","","572.5999999940395","img/land6.png","74","573.2999999970198","1","0","1","2","0.8,0.2,0.2,0.2,0.8,0.2,0.2,0.2,0.8","0.8,0.2,0.2,0.2,0.8,0.2,0.2,0.2,0.8","1","",""
"","html-keyboard-response","123","96152","0.0-123.0","3907X2AHF1RLYIO9UNNMNHJY8S4P2Y","AA1IM0SAQ3XFM","356TQKY9XFJ5S7O4NGX4839SMNB87N","","null","<img src=""img/land6.png"" style=""width:200px;border:14px solid red;"">","null","","","","","","","","","",""
"","image-keyboard-response","124","96657","0.0-124.0","3907X2AHF1RLYIO9UNNMNHJY8S4P2Y","AA1IM0SAQ3XFM","356TQKY9XFJ5S7O4NGX4839SMNB87N","","503.90000000596046","img/land6.png","74","504.5","1","1","1","2","0.8,0.2,0.2,0.2,0.8,0.2,0.2,0.2,0.8","0.8,0.2,0.2,0.2,0.8,0.2,0.2,0.2,0.8","1","",""
"","html-keyboard-response","125","96963","0.0-125.0","3907X2AHF1RLYIO9UNNMNHJY8S4P2Y","AA1IM0SAQ3XFM","356TQKY9XFJ5S7O4NGX4839SMNB87N","","null","<img src=""img/land6.png"" style=""width:200px; border:14px solid green;"">","null","","","","","","","","","",""
"","image-keyboard-response","126","97457","0.0-126.0","3907X2AHF1RLYIO9UNNMNHJY8S4P2Y","AA1IM0SAQ3XFM","356TQKY9XFJ5S7O4NGX4839SMNB87N","","493.40000000596046","img/land6.png","74","494.09999999403954","1","0","1","2","0.8,0.2,0.2,0.2,0.8,0.2,0.2,0.2,0.8","0.8,0.2,0.2,0.2,0.8,0.2,0.2,0.2,0.8","1","",""
"","html-keyboard-response","127","97759","0.0-127.0","3907X2AHF1RLYIO9UNNMNHJY8S4P2Y","AA1IM0SAQ3XFM","356TQKY9XFJ5S7O4NGX4839SMNB87N","","null","<img src=""img/land6.png"" style=""width:200px;border:14px solid red;"">","null","","","","","","","","","",""
"","image-keyboard-response","128","98201","0.0-128.0","3907X2AHF1RLYIO9UNNMNHJY8S4P2Y","AA1IM0SAQ3XFM","356TQKY9XFJ5S7O4NGX4839SMNB87N","","441.5","img/land6.png","74","442.09999999403954","1","1","1","2","0.8,0.2,0.2,0.2,0.8,0.2,0.2,0.2,0.8","0.8,0.2,0.2,0.2,0.8,0.2,0.2,0.2,0.8","1","",""
"","html-keyboard-response","129","98503","0.0-129.0","3907X2AHF1RLYIO9UNNMNHJY8S4P2Y","AA1IM0SAQ3XFM","356TQKY9XFJ5S7O4NGX4839SMNB87N","","null","<img src=""img/land6.png"" style=""width:200px; border:14px solid green;"">","null","","","","","","","","","",""
"","image-keyboard-response","130","99312","0.0-130.0","3907X2AHF1RLYIO9UNNMNHJY8S4P2Y","AA1IM0SAQ3XFM","356TQKY9XFJ5S7O4NGX4839SMNB87N","","808.6000000089407","img/land1.png","76","809.0999999940395","3","1","3","2","0.8,0.2,0.2,0.2,0.8,0.2,0.2,0.2,0.8","0.8,0.2,0.2,0.2,0.8,0.2,0.2,0.2,0.8","1","",""
"","html-keyboard-response","131","99617","0.0-131.0","3907X2AHF1RLYIO9UNNMNHJY8S4P2Y","AA1IM0SAQ3XFM","356TQKY9XFJ5S7O4NGX4839SMNB87N","","null","<img src=""img/land1.png"" style=""width:200px; border:14px solid green;"">","null","","","","","","","","","",""
"","image-keyboard-response","132","100257","0.0-132.0","3907X2AHF1RLYIO9UNNMNHJY8S4P2Y","AA1IM0SAQ3XFM","356TQKY9XFJ5S7O4NGX4839SMNB87N","","638.6000000089407","img/land5.png","75","639.4000000059605","2","1","2","2","0.8,0.2,0.2,0.2,0.8,0.2,0.2,0.2,0.8","0.8,0.2,0.2,0.2,0.8,0.2,0.2,0.2,0.8","1","",""
"","html-keyboard-response","133","100562","0.0-133.0","3907X2AHF1RLYIO9UNNMNHJY8S4P2Y","AA1IM0SAQ3XFM","356TQKY9XFJ5S7O4NGX4839SMNB87N","","null","<img src=""img/land5.png"" style=""width:200px; border:14px solid green;"">","null","","","","","","","","","",""
"","image-keyboard-response","134","101321","0.0-134.0","3907X2AHF1RLYIO9UNNMNHJY8S4P2Y","AA1IM0SAQ3XFM","356TQKY9XFJ5S7O4NGX4839SMNB87N","","758.5999999940395","img/land6.png","74","759.2000000029802","1","1","1","2","0.8,0.2,0.2,0.2,0.8,0.2,0.2,0.2,0.8","0.8,0.2,0.2,0.2,0.8,0.2,0.2,0.2,0.8","1","",""
"","html-keyboard-response","135","101624","0.0-135.0","3907X2AHF1RLYIO9UNNMNHJY8S4P2Y","AA1IM0SAQ3XFM","356TQKY9XFJ5S7O4NGX4839SMNB87N","","null","<img src=""img/land6.png"" style=""width:200px; border:14px solid green;"">","null","","","","","","","","","",""
"","image-keyboard-response","136","102177","0.0-136.0","3907X2AHF1RLYIO9UNNMNHJY8S4P2Y","AA1IM0SAQ3XFM","356TQKY9XFJ5S7O4NGX4839SMNB87N","","551.9000000059605","img/land6.png","74","552.7000000029802","1","0","1","2","0.8,0.2,0.2,0.2,0.8,0.2,0.2,0.2,0.8","0.8,0.2,0.2,0.2,0.8,0.2,0.2,0.2,0.8","1","",""
"","html-keyboard-response","137","102483","0.0-137.0","3907X2AHF1RLYIO9UNNMNHJY8S4P2Y","AA1IM0SAQ3XFM","356TQKY9XFJ5S7O4NGX4839SMNB87N","","null","<img src=""img/land6.png"" style=""width:200px;border:14px solid red;"">","null","","","","","","","","","",""
"","image-keyboard-response","138","102977","0.0-138.0","3907X2AHF1RLYIO9UNNMNHJY8S4P2Y","AA1IM0SAQ3XFM","356TQKY9XFJ5S7O4NGX4839SMNB87N","","492.59999999403954","img/land6.png","74","493.20000000298023","1","1","1","2","0.8,0.2,0.2,0.2,0.8,0.2,0.2,0.2,0.8","0.8,0.2,0.2,0.2,0.8,0.2,0.2,0.2,0.8","1","",""
"","html-keyboard-response","139","103281","0.0-139.0","3907X2AHF1RLYIO9UNNMNHJY8S4P2Y","AA1IM0SAQ3XFM","356TQKY9XFJ5S7O4NGX4839SMNB87N","","null","<img src=""img/land6.png"" style=""width:200px; border:14px solid green;"">","null","","","","","","","","","",""
"","image-keyboard-response","140","103801","0.0-140.0","3907X2AHF1RLYIO9UNNMNHJY8S4P2Y","AA1IM0SAQ3XFM","356TQKY9XFJ5S7O4NGX4839SMNB87N","","519.7999999970198","img/land6.png","74","520.7000000029802","1","1","1","2","0.8,0.2,0.2,0.2,0.8,0.2,0.2,0.2,0.8","0.8,0.2,0.2,0.2,0.8,0.2,0.2,0.2,0.8","1","",""
"","html-keyboard-response","141","104108","0.0-141.0","3907X2AHF1RLYIO9UNNMNHJY8S4P2Y","AA1IM0SAQ3XFM","356TQKY9XFJ5S7O4NGX4839SMNB87N","","null","<img src=""img/land6.png"" style=""width:200px; border:14px solid green;"">","null","","","","","","","","","",""
"","image-keyboard-response","142","104553","0.0-142.0","3907X2AHF1RLYIO9UNNMNHJY8S4P2Y","AA1IM0SAQ3XFM","356TQKY9XFJ5S7O4NGX4839SMNB87N","","444.40000000596046","img/land6.png","74","445.1000000089407","1","0","1","2","0.8,0.2,0.2,0.2,0.8,0.2,0.2,0.2,0.8","0.8,0.2,0.2,0.2,0.8,0.2,0.2,0.2,0.8","1","",""
"","html-keyboard-response","143","104860","0.0-143.0","3907X2AHF1RLYIO9UNNMNHJY8S4P2Y","AA1IM0SAQ3XFM","356TQKY9XFJ5S7O4NGX4839SMNB87N","","null","<img src=""img/land6.png"" style=""width:200px;border:14px solid red;"">","null","","","","","","","","","",""
"","image-keyboard-response","144","105506","0.0-144.0","3907X2AHF1RLYIO9UNNMNHJY8S4P2Y","AA1IM0SAQ3XFM","356TQKY9XFJ5S7O4NGX4839SMNB87N","","645.7000000029802","img/land5.png","75","646.5","2","1","2","2","0.8,0.2,0.2,0.2,0.8,0.2,0.2,0.2,0.8","0.8,0.2,0.2,0.2,0.8,0.2,0.2,0.2,0.8","1","",""
"","html-keyboard-response","145","105811","0.0-145.0","3907X2AHF1RLYIO9UNNMNHJY8S4P2Y","AA1IM0SAQ3XFM","356TQKY9XFJ5S7O4NGX4839SMNB87N","","null","<img src=""img/land5.png"" style=""width:200px; border:14px solid green;"">","null","","","","","","","","","",""
"","image-keyboard-response","146","106513","0.0-146.0","3907X2AHF1RLYIO9UNNMNHJY8S4P2Y","AA1IM0SAQ3XFM","356TQKY9XFJ5S7O4NGX4839SMNB87N","","701.1000000089407","img/land1.png","76","701.8000000119209","3","1","3","2","0.8,0.2,0.2,0.2,0.8,0.2,0.2,0.2,0.8","0.8,0.2,0.2,0.2,0.8,0.2,0.2,0.2,0.8","1","",""
"","html-keyboard-response","147","106816","0.0-147.0","3907X2AHF1RLYIO9UNNMNHJY8S4P2Y","AA1IM0SAQ3XFM","356TQKY9XFJ5S7O4NGX4839SMNB87N","","null","<img src=""img/land1.png"" style=""width:200px; border:14px solid green;"">","null","","","","","","","","","",""
"","image-keyboard-response","148","107425","0.0-148.0","3907X2AHF1RLYIO9UNNMNHJY8S4P2Y","AA1IM0SAQ3XFM","356TQKY9XFJ5S7O4NGX4839SMNB87N","","608.6000000089407","img/land6.png","74","609.3000000119209","1","1","1","2","0.8,0.2,0.2,0.2,0.8,0.2,0.2,0.2,0.8","0.8,0.2,0.2,0.2,0.8,0.2,0.2,0.2,0.8","1","",""
"","html-keyboard-response","149","107727","0.0-149.0","3907X2AHF1RLYIO9UNNMNHJY8S4P2Y","AA1IM0SAQ3XFM","356TQKY9XFJ5S7O4NGX4839SMNB87N","","null","<img src=""img/land6.png"" style=""width:200px; border:14px solid green;"">","null","","","","","","","","","",""
"","image-keyboard-response","150","108345","0.0-150.0","3907X2AHF1RLYIO9UNNMNHJY8S4P2Y","AA1IM0SAQ3XFM","356TQKY9XFJ5S7O4NGX4839SMNB87N","","616.8999999910593","img/land5.png","75","617.6999999880791","2","0","2","2","0.8,0.2,0.2,0.2,0.8,0.2,0.2,0.2,0.8","0.8,0.2,0.2,0.2,0.8,0.2,0.2,0.2,0.8","1","",""
"","html-keyboard-response","151","108649","0.0-151.0","3907X2AHF1RLYIO9UNNMNHJY8S4P2Y","AA1IM0SAQ3XFM","356TQKY9XFJ5S7O4NGX4839SMNB87N","","null","<img src=""img/land5.png"" style=""width:200px;border:14px solid red;"">","null","","","","","","","","","",""
"","image-keyboard-response","152","109281","0.0-152.0","3907X2AHF1RLYIO9UNNMNHJY8S4P2Y","AA1IM0SAQ3XFM","356TQKY9XFJ5S7O4NGX4839SMNB87N","","631.7000000029802","img/land6.png","74","632.5","1","1","1","2","0.8,0.2,0.2,0.2,0.8,0.2,0.2,0.2,0.8","0.8,0.2,0.2,0.2,0.8,0.2,0.2,0.2,0.8","1","",""
"","html-keyboard-response","153","109583","0.0-153.0","3907X2AHF1RLYIO9UNNMNHJY8S4P2Y","AA1IM0SAQ3XFM","356TQKY9XFJ5S7O4NGX4839SMNB87N","","null","<img src=""img/land6.png"" style=""width:200px; border:14px solid green;"">","null","","","","","","","","","",""
"","image-keyboard-response","154","110065","0.0-154.0","3907X2AHF1RLYIO9UNNMNHJY8S4P2Y","AA1IM0SAQ3XFM","356TQKY9XFJ5S7O4NGX4839SMNB87N","","481.29999999701977","img/land6.png","74","482","1","0","1","2","0.8,0.2,0.2,0.2,0.8,0.2,0.2,0.2,0.8","0.8,0.2,0.2,0.2,0.8,0.2,0.2,0.2,0.8","1","",""
"","html-keyboard-response","155","110369","0.0-155.0","3907X2AHF1RLYIO9UNNMNHJY8S4P2Y","AA1IM0SAQ3XFM","356TQKY9XFJ5S7O4NGX4839SMNB87N","","null","<img src=""img/land6.png"" style=""width:200px;border:14px solid red;"">","null","","","","","","","","","",""
"","image-keyboard-response","156","111115","0.0-156.0","3907X2AHF1RLYIO9UNNMNHJY8S4P2Y","AA1IM0SAQ3XFM","356TQKY9XFJ5S7O4NGX4839SMNB87N","","745.8999999910593","img/land1.png","76","746.7000000029802","3","1","3","2","0.8,0.2,0.2,0.2,0.8,0.2,0.2,0.2,0.8","0.8,0.2,0.2,0.2,0.8,0.2,0.2,0.2,0.8","1","",""
"","html-keyboard-response","157","111421","0.0-157.0","3907X2AHF1RLYIO9UNNMNHJY8S4P2Y","AA1IM0SAQ3XFM","356TQKY9XFJ5S7O4NGX4839SMNB87N","","null","<img src=""img/land1.png"" style=""width:200px; border:14px solid green;"">","null","","","","","","","","","",""
"","image-keyboard-response","158","111985","0.0-158.0","3907X2AHF1RLYIO9UNNMNHJY8S4P2Y","AA1IM0SAQ3XFM","356TQKY9XFJ5S7O4NGX4839SMNB87N","","563.2000000029802","img/land6.png","74","563.7999999970198","1","1","1","2","0.8,0.2,0.2,0.2,0.8,0.2,0.2,0.2,0.8","0.8,0.2,0.2,0.2,0.8,0.2,0.2,0.2,0.8","1","",""
"","html-keyboard-response","159","112290","0.0-159.0","3907X2AHF1RLYIO9UNNMNHJY8S4P2Y","AA1IM0SAQ3XFM","356TQKY9XFJ5S7O4NGX4839SMNB87N","","null","<img src=""img/land6.png"" style=""width:200px; border:14px solid green;"">","null","","","","","","","","","",""
"","image-keyboard-response","160","112802","0.0-160.0","3907X2AHF1RLYIO9UNNMNHJY8S4P2Y","AA1IM0SAQ3XFM","356TQKY9XFJ5S7O4NGX4839SMNB87N","","510.5","img/land6.png","74","511.30000001192093","1","1","1","2","0.8,0.2,0.2,0.2,0.8,0.2,0.2,0.2,0.8","0.8,0.2,0.2,0.2,0.8,0.2,0.2,0.2,0.8","1","",""
"","html-keyboard-response","161","113107","0.0-161.0","3907X2AHF1RLYIO9UNNMNHJY8S4P2Y","AA1IM0SAQ3XFM","356TQKY9XFJ5S7O4NGX4839SMNB87N","","null","<img src=""img/land6.png"" style=""width:200px; border:14px solid green;"">","null","","","","","","","","","",""
"","image-keyboard-response","162","113658","0.0-162.0","3907X2AHF1RLYIO9UNNMNHJY8S4P2Y","AA1IM0SAQ3XFM","356TQKY9XFJ5S7O4NGX4839SMNB87N","","549.9000000059605","img/land6.png","74","550.7000000029802","1","1","1","2","0.8,0.2,0.2,0.2,0.8,0.2,0.2,0.2,0.8","0.8,0.2,0.2,0.2,0.8,0.2,0.2,0.2,0.8","1","",""
"","html-keyboard-response","163","113962","0.0-163.0","3907X2AHF1RLYIO9UNNMNHJY8S4P2Y","AA1IM0SAQ3XFM","356TQKY9XFJ5S7O4NGX4839SMNB87N","","null","<img src=""img/land6.png"" style=""width:200px; border:14px solid green;"">","null","","","","","","","","","",""
"","image-keyboard-response","164","114474","0.0-164.0","3907X2AHF1RLYIO9UNNMNHJY8S4P2Y","AA1IM0SAQ3XFM","356TQKY9XFJ5S7O4NGX4839SMNB87N","","511","img/land6.png","74","511.90000000596046","1","1","1","2","0.8,0.2,0.2,0.2,0.8,0.2,0.2,0.2,0.8","0.8,0.2,0.2,0.2,0.8,0.2,0.2,0.2,0.8","1","",""
"","html-keyboard-response","165","114779","0.0-165.0","3907X2AHF1RLYIO9UNNMNHJY8S4P2Y","AA1IM0SAQ3XFM","356TQKY9XFJ5S7O4NGX4839SMNB87N","","null","<img src=""img/land6.png"" style=""width:200px; border:14px solid green;"">","null","","","","","","","","","",""
"","image-keyboard-response","166","115329","0.0-166.0","3907X2AHF1RLYIO9UNNMNHJY8S4P2Y","AA1IM0SAQ3XFM","356TQKY9XFJ5S7O4NGX4839SMNB87N","","549.9000000059605","img/land6.png","74","550.5999999940395","1","1","1","2","0.8,0.2,0.2,0.2,0.8,0.2,0.2,0.2,0.8","0.8,0.2,0.2,0.2,0.8,0.2,0.2,0.2,0.8","1","",""
"","html-keyboard-response","167","115634","0.0-167.0","3907X2AHF1RLYIO9UNNMNHJY8S4P2Y","AA1IM0SAQ3XFM","356TQKY9XFJ5S7O4NGX4839SMNB87N","","null","<img src=""img/land6.png"" style=""width:200px; border:14px solid green;"">","null","","","","","","","","","",""
"","image-keyboard-response","168","116146","0.0-168.0","3907X2AHF1RLYIO9UNNMNHJY8S4P2Y","AA1IM0SAQ3XFM","356TQKY9XFJ5S7O4NGX4839SMNB87N","","511.6000000089407","img/land6.png","74","512.2999999970198","1","1","1","2","0.8,0.2,0.2,0.2,0.8,0.2,0.2,0.2,0.8","0.8,0.2,0.2,0.2,0.8,0.2,0.2,0.2,0.8","1","",""
"","html-keyboard-response","169","116452","0.0-169.0","3907X2AHF1RLYIO9UNNMNHJY8S4P2Y","AA1IM0SAQ3XFM","356TQKY9XFJ5S7O4NGX4839SMNB87N","","null","<img src=""img/land6.png"" style=""width:200px; border:14px solid green;"">","null","","","","","","","","","",""
"","image-keyboard-response","170","116978","0.0-170.0","3907X2AHF1RLYIO9UNNMNHJY8S4P2Y","AA1IM0SAQ3XFM","356TQKY9XFJ5S7O4NGX4839SMNB87N","","524.2999999970198","img/land6.png","74","525","1","1","1","2","0.8,0.2,0.2,0.2,0.8,0.2,0.2,0.2,0.8","0.8,0.2,0.2,0.2,0.8,0.2,0.2,0.2,0.8","1","",""
"","html-keyboard-response","171","117281","0.0-171.0","3907X2AHF1RLYIO9UNNMNHJY8S4P2Y","AA1IM0SAQ3XFM","356TQKY9XFJ5S7O4NGX4839SMNB87N","","null","<img src=""img/land6.png"" style=""width:200px; border:14px solid green;"">","null","","","","","","","","","",""
"","image-keyboard-response","172","117697","0.0-172.0","3907X2AHF1RLYIO9UNNMNHJY8S4P2Y","AA1IM0SAQ3XFM","356TQKY9XFJ5S7O4NGX4839SMNB87N","","415.90000000596046","img/land6.png","74","416.5","1","1","1","2","0.8,0.2,0.2,0.2,0.8,0.2,0.2,0.2,0.8","0.8,0.2,0.2,0.2,0.8,0.2,0.2,0.2,0.8","1","",""
"","html-keyboard-response","173","118002","0.0-173.0","3907X2AHF1RLYIO9UNNMNHJY8S4P2Y","AA1IM0SAQ3XFM","356TQKY9XFJ5S7O4NGX4839SMNB87N","","null","<img src=""img/land6.png"" style=""width:200px; border:14px solid green;"">","null","","","","","","","","","",""
"","image-keyboard-response","174","118626","0.0-174.0","3907X2AHF1RLYIO9UNNMNHJY8S4P2Y","AA1IM0SAQ3XFM","356TQKY9XFJ5S7O4NGX4839SMNB87N","","622.2999999970198","img/land1.png","76","623","3","0","3","2","0.8,0.2,0.2,0.2,0.8,0.2,0.2,0.2,0.8","0.8,0.2,0.2,0.2,0.8,0.2,0.2,0.2,0.8","1","",""
"","html-keyboard-response","175","118931","0.0-175.0","3907X2AHF1RLYIO9UNNMNHJY8S4P2Y","AA1IM0SAQ3XFM","356TQKY9XFJ5S7O4NGX4839SMNB87N","","null","<img src=""img/land1.png"" style=""width:200px;border:14px solid red;"">","null","","","","","","","","","",""
"","image-keyboard-response","176","119450","0.0-176.0","3907X2AHF1RLYIO9UNNMNHJY8S4P2Y","AA1IM0SAQ3XFM","356TQKY9XFJ5S7O4NGX4839SMNB87N","","517.7999999970198","img/land5.png","75","518.5","2","1","2","2","0.8,0.2,0.2,0.2,0.8,0.2,0.2,0.2,0.8","0.8,0.2,0.2,0.2,0.8,0.2,0.2,0.2,0.8","1","",""
"","html-keyboard-response","177","119755","0.0-177.0","3907X2AHF1RLYIO9UNNMNHJY8S4P2Y","AA1IM0SAQ3XFM","356TQKY9XFJ5S7O4NGX4839SMNB87N","","null","<img src=""img/land5.png"" style=""width:200px; border:14px solid green;"">","null","","","","","","","","","",""
"","image-keyboard-response","178","120417","0.0-178.0","3907X2AHF1RLYIO9UNNMNHJY8S4P2Y","AA1IM0SAQ3XFM","356TQKY9XFJ5S7O4NGX4839SMNB87N","","661.2000000029802","img/land6.png","74","661.7000000029802","1","1","1","2","0.8,0.2,0.2,0.2,0.8,0.2,0.2,0.2,0.8","0.8,0.2,0.2,0.2,0.8,0.2,0.2,0.2,0.8","1","",""
"","html-keyboard-response","179","120723","0.0-179.0","3907X2AHF1RLYIO9UNNMNHJY8S4P2Y","AA1IM0SAQ3XFM","356TQKY9XFJ5S7O4NGX4839SMNB87N","","null","<img src=""img/land6.png"" style=""width:200px; border:14px solid green;"">","null","","","","","","","","","",""
"","image-keyboard-response","180","121194","0.0-180.0","3907X2AHF1RLYIO9UNNMNHJY8S4P2Y","AA1IM0SAQ3XFM","356TQKY9XFJ5S7O4NGX4839SMNB87N","","469.29999999701977","img/land6.png","74","470.09999999403954","1","1","1","2","0.8,0.2,0.2,0.2,0.8,0.2,0.2,0.2,0.8","0.8,0.2,0.2,0.2,0.8,0.2,0.2,0.2,0.8","1","",""
"","html-keyboard-response","181","121497","0.0-181.0","3907X2AHF1RLYIO9UNNMNHJY8S4P2Y","AA1IM0SAQ3XFM","356TQKY9XFJ5S7O4NGX4839SMNB87N","","null","<img src=""img/land6.png"" style=""width:200px; border:14px solid green;"">","null","","","","","","","","","",""
"","image-keyboard-response","182","121978","0.0-182.0","3907X2AHF1RLYIO9UNNMNHJY8S4P2Y","AA1IM0SAQ3XFM","356TQKY9XFJ5S7O4NGX4839SMNB87N","","479.40000000596046","img/land6.png","74","480.1000000089407","1","1","1","2","0.8,0.2,0.2,0.2,0.8,0.2,0.2,0.2,0.8","0.8,0.2,0.2,0.2,0.8,0.2,0.2,0.2,0.8","1","",""
"","html-keyboard-response","183","122281","0.0-183.0","3907X2AHF1RLYIO9UNNMNHJY8S4P2Y","AA1IM0SAQ3XFM","356TQKY9XFJ5S7O4NGX4839SMNB87N","","null","<img src=""img/land6.png"" style=""width:200px; border:14px solid green;"">","null","","","","","","","","","",""
"","image-keyboard-response","184","122914","0.0-184.0","3907X2AHF1RLYIO9UNNMNHJY8S4P2Y","AA1IM0SAQ3XFM","356TQKY9XFJ5S7O4NGX4839SMNB87N","","632.2999999970198","img/land5.png","75","633","2","1","2","2","0.8,0.2,0.2,0.2,0.8,0.2,0.2,0.2,0.8","0.8,0.2,0.2,0.2,0.8,0.2,0.2,0.2,0.8","1","",""
"","html-keyboard-response","185","123219","0.0-185.0","3907X2AHF1RLYIO9UNNMNHJY8S4P2Y","AA1IM0SAQ3XFM","356TQKY9XFJ5S7O4NGX4839SMNB87N","","null","<img src=""img/land5.png"" style=""width:200px; border:14px solid green;"">","null","","","","","","","","","",""
"","image-keyboard-response","186","123905","0.0-186.0","3907X2AHF1RLYIO9UNNMNHJY8S4P2Y","AA1IM0SAQ3XFM","356TQKY9XFJ5S7O4NGX4839SMNB87N","","685.2000000029802","img/land1.png","76","685.9000000059605","3","1","3","2","0.8,0.2,0.2,0.2,0.8,0.2,0.2,0.2,0.8","0.8,0.2,0.2,0.2,0.8,0.2,0.2,0.2,0.8","1","",""
"","html-keyboard-response","187","124208","0.0-187.0","3907X2AHF1RLYIO9UNNMNHJY8S4P2Y","AA1IM0SAQ3XFM","356TQKY9XFJ5S7O4NGX4839SMNB87N","","null","<img src=""img/land1.png"" style=""width:200px; border:14px solid green;"">","null","","","","","","","","","",""
"","image-keyboard-response","188","124825","0.0-188.0","3907X2AHF1RLYIO9UNNMNHJY8S4P2Y","AA1IM0SAQ3XFM","356TQKY9XFJ5S7O4NGX4839SMNB87N","","616.3999999910593","img/land5.png","75","617.0999999940395","2","1","2","2","0.8,0.2,0.2,0.2,0.8,0.2,0.2,0.2,0.8","0.8,0.2,0.2,0.2,0.8,0.2,0.2,0.2,0.8","1","",""
"","html-keyboard-response","189","125131","0.0-189.0","3907X2AHF1RLYIO9UNNMNHJY8S4P2Y","AA1IM0SAQ3XFM","356TQKY9XFJ5S7O4NGX4839SMNB87N","","null","<img src=""img/land5.png"" style=""width:200px; border:14px solid green;"">","null","","","","","","","","","",""
"","image-keyboard-response","190","125793","0.0-190.0","3907X2AHF1RLYIO9UNNMNHJY8S4P2Y","AA1IM0SAQ3XFM","356TQKY9XFJ5S7O4NGX4839SMNB87N","","660.4000000059605","img/land6.png","74","661.2999999970198","1","1","1","2","0.8,0.2,0.2,0.2,0.8,0.2,0.2,0.2,0.8","0.8,0.2,0.2,0.2,0.8,0.2,0.2,0.2,0.8","1","",""
"","html-keyboard-response","191","126099","0.0-191.0","3907X2AHF1RLYIO9UNNMNHJY8S4P2Y","AA1IM0SAQ3XFM","356TQKY9XFJ5S7O4NGX4839SMNB87N","","null","<img src=""img/land6.png"" style=""width:200px; border:14px solid green;"">","null","","","","","","","","","",""
"","image-keyboard-response","192","126531","0.0-192.0","3907X2AHF1RLYIO9UNNMNHJY8S4P2Y","AA1IM0SAQ3XFM","356TQKY9XFJ5S7O4NGX4839SMNB87N","","431.29999999701977","img/land6.png","74","431.8999999910593","1","1","1","2","0.8,0.2,0.2,0.2,0.8,0.2,0.2,0.2,0.8","0.8,0.2,0.2,0.2,0.8,0.2,0.2,0.2,0.8","1","",""
"","html-keyboard-response","193","126836","0.0-193.0","3907X2AHF1RLYIO9UNNMNHJY8S4P2Y","AA1IM0SAQ3XFM","356TQKY9XFJ5S7O4NGX4839SMNB87N","","null","<img src=""img/land6.png"" style=""width:200px; border:14px solid green;"">","null","","","","","","","","","",""
"","image-keyboard-response","194","127282","0.0-194.0","3907X2AHF1RLYIO9UNNMNHJY8S4P2Y","AA1IM0SAQ3XFM","356TQKY9XFJ5S7O4NGX4839SMNB87N","","444.6000000089407","img/land6.png","74","445.40000000596046","1","0","1","2","0.8,0.2,0.2,0.2,0.8,0.2,0.2,0.2,0.8","0.8,0.2,0.2,0.2,0.8,0.2,0.2,0.2,0.8","1","",""
"","html-keyboard-response","195","127587","0.0-195.0","3907X2AHF1RLYIO9UNNMNHJY8S4P2Y","AA1IM0SAQ3XFM","356TQKY9XFJ5S7O4NGX4839SMNB87N","","null","<img src=""img/land6.png"" style=""width:200px;border:14px solid red;"">","null","","","","","","","","","",""
"","image-keyboard-response","196","128362","0.0-196.0","3907X2AHF1RLYIO9UNNMNHJY8S4P2Y","AA1IM0SAQ3XFM","356TQKY9XFJ5S7O4NGX4839SMNB87N","","774.4000000059605","img/land5.png","75","775.1000000089407","2","1","2","2","0.8,0.2,0.2,0.2,0.8,0.2,0.2,0.2,0.8","0.8,0.2,0.2,0.2,0.8,0.2,0.2,0.2,0.8","1","",""
"","html-keyboard-response","197","128666","0.0-197.0","3907X2AHF1RLYIO9UNNMNHJY8S4P2Y","AA1IM0SAQ3XFM","356TQKY9XFJ5S7O4NGX4839SMNB87N","","null","<img src=""img/land5.png"" style=""width:200px; border:14px solid green;"">","null","","","","","","","","","",""
"","image-keyboard-response","198","129274","0.0-198.0","3907X2AHF1RLYIO9UNNMNHJY8S4P2Y","AA1IM0SAQ3XFM","356TQKY9XFJ5S7O4NGX4839SMNB87N","","606.5","img/land6.png","74","607.2000000029802","1","0","1","2","0.8,0.2,0.2,0.2,0.8,0.2,0.2,0.2,0.8","0.8,0.2,0.2,0.2,0.8,0.2,0.2,0.2,0.8","1","",""
"","html-keyboard-response","199","129577","0.0-199.0","3907X2AHF1RLYIO9UNNMNHJY8S4P2Y","AA1IM0SAQ3XFM","356TQKY9XFJ5S7O4NGX4839SMNB87N","","null","<img src=""img/land6.png"" style=""width:200px;border:14px solid red;"">","null","","","","","","","","","",""
"","image-keyboard-response","200","130059","0.0-200.0","3907X2AHF1RLYIO9UNNMNHJY8S4P2Y","AA1IM0SAQ3XFM","356TQKY9XFJ5S7O4NGX4839SMNB87N","","481.29999999701977","img/land6.png","74","482.09999999403954","1","1","1","2","0.8,0.2,0.2,0.2,0.8,0.2,0.2,0.2,0.8","0.8,0.2,0.2,0.2,0.8,0.2,0.2,0.2,0.8","1","",""
"","html-keyboard-response","201","130366","0.0-201.0","3907X2AHF1RLYIO9UNNMNHJY8S4P2Y","AA1IM0SAQ3XFM","356TQKY9XFJ5S7O4NGX4839SMNB87N","","null","<img src=""img/land6.png"" style=""width:200px; border:14px solid green;"">","null","","","","","","","","","",""
"","image-keyboard-response","202","130810","0.0-202.0","3907X2AHF1RLYIO9UNNMNHJY8S4P2Y","AA1IM0SAQ3XFM","356TQKY9XFJ5S7O4NGX4839SMNB87N","","443.80000001192093","img/land6.png","74","444.59999999403954","1","1","1","2","0.8,0.2,0.2,0.2,0.8,0.2,0.2,0.2,0.8","0.8,0.2,0.2,0.2,0.8,0.2,0.2,0.2,0.8","1","",""
"","html-keyboard-response","203","131116","0.0-203.0","3907X2AHF1RLYIO9UNNMNHJY8S4P2Y","AA1IM0SAQ3XFM","356TQKY9XFJ5S7O4NGX4839SMNB87N","","null","<img src=""img/land6.png"" style=""width:200px; border:14px solid green;"">","null","","","","","","","","","",""
"","image-keyboard-response","204","131618","0.0-204.0","3907X2AHF1RLYIO9UNNMNHJY8S4P2Y","AA1IM0SAQ3XFM","356TQKY9XFJ5S7O4NGX4839SMNB87N","","501.1000000089407","img/land6.png","74","501.79999999701977","1","1","1","2","0.8,0.2,0.2,0.2,0.8,0.2,0.2,0.2,0.8","0.8,0.2,0.2,0.2,0.8,0.2,0.2,0.2,0.8","1","",""
"","html-keyboard-response","205","131923","0.0-205.0","3907X2AHF1RLYIO9UNNMNHJY8S4P2Y","AA1IM0SAQ3XFM","356TQKY9XFJ5S7O4NGX4839SMNB87N","","null","<img src=""img/land6.png"" style=""width:200px; border:14px solid green;"">","null","","","","","","","","","",""
"","image-keyboard-response","206","132330","0.0-206.0","3907X2AHF1RLYIO9UNNMNHJY8S4P2Y","AA1IM0SAQ3XFM","356TQKY9XFJ5S7O4NGX4839SMNB87N","","406.1000000089407","img/land6.png","74","406.80000001192093","1","1","1","2","0.8,0.2,0.2,0.2,0.8,0.2,0.2,0.2,0.8","0.8,0.2,0.2,0.2,0.8,0.2,0.2,0.2,0.8","1","",""
"","html-keyboard-response","207","132634","0.0-207.0","3907X2AHF1RLYIO9UNNMNHJY8S4P2Y","AA1IM0SAQ3XFM","356TQKY9XFJ5S7O4NGX4839SMNB87N","","null","<img src=""img/land6.png"" style=""width:200px; border:14px solid green;"">","null","","","","","","","","","",""
"","image-keyboard-response","208","133050","0.0-208.0","3907X2AHF1RLYIO9UNNMNHJY8S4P2Y","AA1IM0SAQ3XFM","356TQKY9XFJ5S7O4NGX4839SMNB87N","","414.69999998807907","img/land6.png","74","415.29999999701977","1","1","1","2","0.8,0.2,0.2,0.2,0.8,0.2,0.2,0.2,0.8","0.8,0.2,0.2,0.2,0.8,0.2,0.2,0.2,0.8","1","",""
"","html-keyboard-response","209","133355","0.0-209.0","3907X2AHF1RLYIO9UNNMNHJY8S4P2Y","AA1IM0SAQ3XFM","356TQKY9XFJ5S7O4NGX4839SMNB87N","","null","<img src=""img/land6.png"" style=""width:200px; border:14px solid green;"">","null","","","","","","","","","",""
"","image-keyboard-response","210","133778","0.0-210.0","3907X2AHF1RLYIO9UNNMNHJY8S4P2Y","AA1IM0SAQ3XFM","356TQKY9XFJ5S7O4NGX4839SMNB87N","","422.09999999403954","img/land6.png","74","422.80000001192093","1","1","1","2","0.8,0.2,0.2,0.2,0.8,0.2,0.2,0.2,0.8","0.8,0.2,0.2,0.2,0.8,0.2,0.2,0.2,0.8","1","",""
"","html-keyboard-response","211","134083","0.0-211.0","3907X2AHF1RLYIO9UNNMNHJY8S4P2Y","AA1IM0SAQ3XFM","356TQKY9XFJ5S7O4NGX4839SMNB87N","","null","<img src=""img/land6.png"" style=""width:200px; border:14px solid green;"">","null","","","","","","","","","",""
"","image-keyboard-response","212","134538","0.0-212.0","3907X2AHF1RLYIO9UNNMNHJY8S4P2Y","AA1IM0SAQ3XFM","356TQKY9XFJ5S7O4NGX4839SMNB87N","","454.40000000596046","img/land6.png","74","455","1","1","1","2","0.8,0.2,0.2,0.2,0.8,0.2,0.2,0.2,0.8","0.8,0.2,0.2,0.2,0.8,0.2,0.2,0.2,0.8","1","",""
"","html-keyboard-response","213","134844","0.0-213.0","3907X2AHF1RLYIO9UNNMNHJY8S4P2Y","AA1IM0SAQ3XFM","356TQKY9XFJ5S7O4NGX4839SMNB87N","","null","<img src=""img/land6.png"" style=""width:200px; border:14px solid green;"">","null","","","","","","","","","",""
"","image-keyboard-response","214","135298","0.0-214.0","3907X2AHF1RLYIO9UNNMNHJY8S4P2Y","AA1IM0SAQ3XFM","356TQKY9XFJ5S7O4NGX4839SMNB87N","","453.20000000298023","img/land6.png","74","453.80000001192093","1","1","1","2","0.8,0.2,0.2,0.2,0.8,0.2,0.2,0.2,0.8","0.8,0.2,0.2,0.2,0.8,0.2,0.2,0.2,0.8","1","",""
"","html-keyboard-response","215","135604","0.0-215.0","3907X2AHF1RLYIO9UNNMNHJY8S4P2Y","AA1IM0SAQ3XFM","356TQKY9XFJ5S7O4NGX4839SMNB87N","","null","<img src=""img/land6.png"" style=""width:200px; border:14px solid green;"">","null","","","","","","","","","",""
"","image-keyboard-response","216","136090","0.0-216.0","3907X2AHF1RLYIO9UNNMNHJY8S4P2Y","AA1IM0SAQ3XFM","356TQKY9XFJ5S7O4NGX4839SMNB87N","","485.59999999403954","img/land6.png","74","486.20000000298023","1","1","1","2","0.8,0.2,0.2,0.2,0.8,0.2,0.2,0.2,0.8","0.8,0.2,0.2,0.2,0.8,0.2,0.2,0.2,0.8","1","",""
"","html-keyboard-response","217","136394","0.0-217.0","3907X2AHF1RLYIO9UNNMNHJY8S4P2Y","AA1IM0SAQ3XFM","356TQKY9XFJ5S7O4NGX4839SMNB87N","","null","<img src=""img/land6.png"" style=""width:200px; border:14px solid green;"">","null","","","","","","","","","",""
"","image-keyboard-response","218","137148","0.0-218.0","3907X2AHF1RLYIO9UNNMNHJY8S4P2Y","AA1IM0SAQ3XFM","356TQKY9XFJ5S7O4NGX4839SMNB87N","","752.9000000059605","img/land5.png","75","753.6000000089407","2","0","2","2","0.8,0.2,0.2,0.2,0.8,0.2,0.2,0.2,0.8","0.8,0.2,0.2,0.2,0.8,0.2,0.2,0.2,0.8","1","",""
"","html-keyboard-response","219","137454","0.0-219.0","3907X2AHF1RLYIO9UNNMNHJY8S4P2Y","AA1IM0SAQ3XFM","356TQKY9XFJ5S7O4NGX4839SMNB87N","","null","<img src=""img/land5.png"" style=""width:200px;border:14px solid red;"">","null","","","","","","","","","",""
"","image-keyboard-response","220","138106","0.0-220.0","3907X2AHF1RLYIO9UNNMNHJY8S4P2Y","AA1IM0SAQ3XFM","356TQKY9XFJ5S7O4NGX4839SMNB87N","","651.4000000059605","img/land1.png","76","652.1999999880791","3","1","3","2","0.8,0.2,0.2,0.2,0.8,0.2,0.2,0.2,0.8","0.8,0.2,0.2,0.2,0.8,0.2,0.2,0.2,0.8","1","",""
"","html-keyboard-response","221","138411","0.0-221.0","3907X2AHF1RLYIO9UNNMNHJY8S4P2Y","AA1IM0SAQ3XFM","356TQKY9XFJ5S7O4NGX4839SMNB87N","","null","<img src=""img/land1.png"" style=""width:200px; border:14px solid green;"">","null","","","","","","","","","",""
"","image-keyboard-response","222","138946","0.0-222.0","3907X2AHF1RLYIO9UNNMNHJY8S4P2Y","AA1IM0SAQ3XFM","356TQKY9XFJ5S7O4NGX4839SMNB87N","","534.2000000029802","img/land1.png","76","534.8000000119209","3","1","3","2","0.8,0.2,0.2,0.2,0.8,0.2,0.2,0.2,0.8","0.8,0.2,0.2,0.2,0.8,0.2,0.2,0.2,0.8","1","",""
"","html-keyboard-response","223","139249","0.0-223.0","3907X2AHF1RLYIO9UNNMNHJY8S4P2Y","AA1IM0SAQ3XFM","356TQKY9XFJ5S7O4NGX4839SMNB87N","","null","<img src=""img/land1.png"" style=""width:200px; border:14px solid green;"">","null","","","","","","","","","",""
"","image-keyboard-response","224","139826","0.0-224.0","3907X2AHF1RLYIO9UNNMNHJY8S4P2Y","AA1IM0SAQ3XFM","356TQKY9XFJ5S7O4NGX4839SMNB87N","","576.0999999940395","img/land6.png","75","576.7000000029802","2","0","1","2","0.8,0.2,0.2,0.2,0.8,0.2,0.2,0.2,0.8","0.8,0.2,0.2,0.2,0.8,0.2,0.2,0.2,0.8","1","",""
"","html-keyboard-response","225","140132","0.0-225.0","3907X2AHF1RLYIO9UNNMNHJY8S4P2Y","AA1IM0SAQ3XFM","356TQKY9XFJ5S7O4NGX4839SMNB87N","","null","<img src=""img/land6.png"" style=""width:200px;border:14px solid red;"">","null","","","","","","","","","",""
"","image-keyboard-response","226","140658","0.0-226.0","3907X2AHF1RLYIO9UNNMNHJY8S4P2Y","AA1IM0SAQ3XFM","356TQKY9XFJ5S7O4NGX4839SMNB87N","","525.5","img/land6.png","74","526.1999999880791","1","1","1","2","0.8,0.2,0.2,0.2,0.8,0.2,0.2,0.2,0.8","0.8,0.2,0.2,0.2,0.8,0.2,0.2,0.2,0.8","1","",""
"","html-keyboard-response","227","140962","0.0-227.0","3907X2AHF1RLYIO9UNNMNHJY8S4P2Y","AA1IM0SAQ3XFM","356TQKY9XFJ5S7O4NGX4839SMNB87N","","null","<img src=""img/land6.png"" style=""width:200px; border:14px solid green;"">","null","","","","","","","","","",""
"","image-keyboard-response","228","141522","0.0-228.0","3907X2AHF1RLYIO9UNNMNHJY8S4P2Y","AA1IM0SAQ3XFM","356TQKY9XFJ5S7O4NGX4839SMNB87N","","559.4000000059605","img/land6.png","74","560.7000000029802","1","1","1","2","0.8,0.2,0.2,0.2,0.8,0.2,0.2,0.2,0.8","0.8,0.2,0.2,0.2,0.8,0.2,0.2,0.2,0.8","1","",""
"","html-keyboard-response","229","141827","0.0-229.0","3907X2AHF1RLYIO9UNNMNHJY8S4P2Y","AA1IM0SAQ3XFM","356TQKY9XFJ5S7O4NGX4839SMNB87N","","null","<img src=""img/land6.png"" style=""width:200px; border:14px solid green;"">","null","","","","","","","","","",""
"","image-keyboard-response","230","142330","0.0-230.0","3907X2AHF1RLYIO9UNNMNHJY8S4P2Y","AA1IM0SAQ3XFM","356TQKY9XFJ5S7O4NGX4839SMNB87N","","502.69999998807907","img/land6.png","74","503.20000000298023","1","1","1","2","0.8,0.2,0.2,0.2,0.8,0.2,0.2,0.2,0.8","0.8,0.2,0.2,0.2,0.8,0.2,0.2,0.2,0.8","1","",""
"","html-keyboard-response","231","142633","0.0-231.0","3907X2AHF1RLYIO9UNNMNHJY8S4P2Y","AA1IM0SAQ3XFM","356TQKY9XFJ5S7O4NGX4839SMNB87N","","null","<img src=""img/land6.png"" style=""width:200px; border:14px solid green;"">","null","","","","","","","","","",""
"","image-keyboard-response","232","143291","0.0-232.0","3907X2AHF1RLYIO9UNNMNHJY8S4P2Y","AA1IM0SAQ3XFM","356TQKY9XFJ5S7O4NGX4839SMNB87N","","656.5999999940395","img/land1.png","76","657.2999999970198","3","1","3","2","0.8,0.2,0.2,0.2,0.8,0.2,0.2,0.2,0.8","0.8,0.2,0.2,0.2,0.8,0.2,0.2,0.2,0.8","1","",""
"","html-keyboard-response","233","143595","0.0-233.0","3907X2AHF1RLYIO9UNNMNHJY8S4P2Y","AA1IM0SAQ3XFM","356TQKY9XFJ5S7O4NGX4839SMNB87N","","null","<img src=""img/land1.png"" style=""width:200px; border:14px solid green;"">","null","","","","","","","","","",""
"","image-keyboard-response","234","144210","0.0-234.0","3907X2AHF1RLYIO9UNNMNHJY8S4P2Y","AA1IM0SAQ3XFM","356TQKY9XFJ5S7O4NGX4839SMNB87N","","613.8000000119209","img/land6.png","74","614.5","1","0","1","2","0.8,0.2,0.2,0.2,0.8,0.2,0.2,0.2,0.8","0.8,0.2,0.2,0.2,0.8,0.2,0.2,0.2,0.8","1","",""
"","html-keyboard-response","235","144515","0.0-235.0","3907X2AHF1RLYIO9UNNMNHJY8S4P2Y","AA1IM0SAQ3XFM","356TQKY9XFJ5S7O4NGX4839SMNB87N","","null","<img src=""img/land6.png"" style=""width:200px;border:14px solid red;"">","null","","","","","","","","","",""
"","image-keyboard-response","236","145018","0.0-236.0","3907X2AHF1RLYIO9UNNMNHJY8S4P2Y","AA1IM0SAQ3XFM","356TQKY9XFJ5S7O4NGX4839SMNB87N","","503","img/land6.png","74","503.70000000298023","1","1","1","2","0.8,0.2,0.2,0.2,0.8,0.2,0.2,0.2,0.8","0.8,0.2,0.2,0.2,0.8,0.2,0.2,0.2,0.8","1","",""
"","html-keyboard-response","237","145321","0.0-237.0","3907X2AHF1RLYIO9UNNMNHJY8S4P2Y","AA1IM0SAQ3XFM","356TQKY9XFJ5S7O4NGX4839SMNB87N","","null","<img src=""img/land6.png"" style=""width:200px; border:14px solid green;"">","null","","","","","","","","","",""
"","image-keyboard-response","238","145914","0.0-238.0","3907X2AHF1RLYIO9UNNMNHJY8S4P2Y","AA1IM0SAQ3XFM","356TQKY9XFJ5S7O4NGX4839SMNB87N","","592","img/land1.png","76","592.6000000089407","3","1","3","2","0.8,0.2,0.2,0.2,0.8,0.2,0.2,0.2,0.8","0.8,0.2,0.2,0.2,0.8,0.2,0.2,0.2,0.8","1","",""
"","html-keyboard-response","239","146217","0.0-239.0","3907X2AHF1RLYIO9UNNMNHJY8S4P2Y","AA1IM0SAQ3XFM","356TQKY9XFJ5S7O4NGX4839SMNB87N","","null","<img src=""img/land1.png"" style=""width:200px; border:14px solid green;"">","null","","","","","","","","","",""
"","image-keyboard-response","240","146754","0.0-240.0","3907X2AHF1RLYIO9UNNMNHJY8S4P2Y","AA1IM0SAQ3XFM","356TQKY9XFJ5S7O4NGX4839SMNB87N","","536.5","img/land5.png","75","537","2","1","2","2","0.8,0.2,0.2,0.2,0.8,0.2,0.2,0.2,0.8","0.8,0.2,0.2,0.2,0.8,0.2,0.2,0.2,0.8","1","",""
"","html-keyboard-response","241","147057","0.0-241.0","3907X2AHF1RLYIO9UNNMNHJY8S4P2Y","AA1IM0SAQ3XFM","356TQKY9XFJ5S7O4NGX4839SMNB87N","","null","<img src=""img/land5.png"" style=""width:200px; border:14px solid green;"">","null","","","","","","","","","",""
"","image-keyboard-response","242","147555","0.0-242.0","3907X2AHF1RLYIO9UNNMNHJY8S4P2Y","AA1IM0SAQ3XFM","356TQKY9XFJ5S7O4NGX4839SMNB87N","","497","img/land5.png","75","497.79999999701977","2","1","2","2","0.8,0.2,0.2,0.2,0.8,0.2,0.2,0.2,0.8","0.8,0.2,0.2,0.2,0.8,0.2,0.2,0.2,0.8","1","",""
"","html-keyboard-response","243","147858","0.0-243.0","3907X2AHF1RLYIO9UNNMNHJY8S4P2Y","AA1IM0SAQ3XFM","356TQKY9XFJ5S7O4NGX4839SMNB87N","","null","<img src=""img/land5.png"" style=""width:200px; border:14px solid green;"">","null","","","","","","","","","",""
"","image-keyboard-response","244","148442","0.0-244.0","3907X2AHF1RLYIO9UNNMNHJY8S4P2Y","AA1IM0SAQ3XFM","356TQKY9XFJ5S7O4NGX4839SMNB87N","","582.2000000029802","img/land1.png","74","583.1000000089407","1","0","3","2","0.8,0.2,0.2,0.2,0.8,0.2,0.2,0.2,0.8","0.8,0.2,0.2,0.2,0.8,0.2,0.2,0.2,0.8","1","",""
"","html-keyboard-response","245","148746","0.0-245.0","3907X2AHF1RLYIO9UNNMNHJY8S4P2Y","AA1IM0SAQ3XFM","356TQKY9XFJ5S7O4NGX4839SMNB87N","","null","<img src=""img/land1.png"" style=""width:200px;border:14px solid red;"">","null","","","","","","","","","",""
"","image-keyboard-response","246","149493","0.0-246.0","3907X2AHF1RLYIO9UNNMNHJY8S4P2Y","AA1IM0SAQ3XFM","356TQKY9XFJ5S7O4NGX4839SMNB87N","","746.0999999940395","img/land5.png","75","746.5999999940395","2","1","2","2","0.8,0.2,0.2,0.2,0.8,0.2,0.2,0.2,0.8","0.8,0.2,0.2,0.2,0.8,0.2,0.2,0.2,0.8","1","",""
"","html-keyboard-response","247","149797","0.0-247.0","3907X2AHF1RLYIO9UNNMNHJY8S4P2Y","AA1IM0SAQ3XFM","356TQKY9XFJ5S7O4NGX4839SMNB87N","","null","<img src=""img/land5.png"" style=""width:200px; border:14px solid green;"">","null","","","","","","","","","",""
"","image-keyboard-response","248","150467","0.0-248.0","3907X2AHF1RLYIO9UNNMNHJY8S4P2Y","AA1IM0SAQ3XFM","356TQKY9XFJ5S7O4NGX4839SMNB87N","","668.5","img/land6.png","74","669.0999999940395","1","1","1","2","0.8,0.2,0.2,0.2,0.8,0.2,0.2,0.2,0.8","0.8,0.2,0.2,0.2,0.8,0.2,0.2,0.2,0.8","1","",""
"","html-keyboard-response","249","150772","0.0-249.0","3907X2AHF1RLYIO9UNNMNHJY8S4P2Y","AA1IM0SAQ3XFM","356TQKY9XFJ5S7O4NGX4839SMNB87N","","null","<img src=""img/land6.png"" style=""width:200px; border:14px solid green;"">","null","","","","","","","","","",""
"","image-keyboard-response","250","151290","0.0-250.0","3907X2AHF1RLYIO9UNNMNHJY8S4P2Y","AA1IM0SAQ3XFM","356TQKY9XFJ5S7O4NGX4839SMNB87N","","516.1999999880791","img/land6.png","74","516.8999999910593","1","1","1","2","0.8,0.2,0.2,0.2,0.8,0.2,0.2,0.2,0.8","0.8,0.2,0.2,0.2,0.8,0.2,0.2,0.2,0.8","1","",""
"","html-keyboard-response","251","151595","0.0-251.0","3907X2AHF1RLYIO9UNNMNHJY8S4P2Y","AA1IM0SAQ3XFM","356TQKY9XFJ5S7O4NGX4839SMNB87N","","null","<img src=""img/land6.png"" style=""width:200px; border:14px solid green;"">","null","","","","","","","","","",""
"","image-keyboard-response","252","152195","0.0-252.0","3907X2AHF1RLYIO9UNNMNHJY8S4P2Y","AA1IM0SAQ3XFM","356TQKY9XFJ5S7O4NGX4839SMNB87N","","598.7999999970198","img/land6.png","74","599.2999999970198","1","0","1","2","0.8,0.2,0.2,0.2,0.8,0.2,0.2,0.2,0.8","0.8,0.2,0.2,0.2,0.8,0.2,0.2,0.2,0.8","1","",""
"","html-keyboard-response","253","152501","0.0-253.0","3907X2AHF1RLYIO9UNNMNHJY8S4P2Y","AA1IM0SAQ3XFM","356TQKY9XFJ5S7O4NGX4839SMNB87N","","null","<img src=""img/land6.png"" style=""width:200px;border:14px solid red;"">","null","","","","","","","","","",""
"","image-keyboard-response","254","153058","0.0-254.0","3907X2AHF1RLYIO9UNNMNHJY8S4P2Y","AA1IM0SAQ3XFM","356TQKY9XFJ5S7O4NGX4839SMNB87N","","557","img/land6.png","74","557.7000000029802","1","1","1","2","0.8,0.2,0.2,0.2,0.8,0.2,0.2,0.2,0.8","0.8,0.2,0.2,0.2,0.8,0.2,0.2,0.2,0.8","1","",""
"","html-keyboard-response","255","153363","0.0-255.0","3907X2AHF1RLYIO9UNNMNHJY8S4P2Y","AA1IM0SAQ3XFM","356TQKY9XFJ5S7O4NGX4839SMNB87N","","null","<img src=""img/land6.png"" style=""width:200px; border:14px solid green;"">","null","","","","","","","","","",""
"","image-keyboard-response","256","153890","0.0-256.0","3907X2AHF1RLYIO9UNNMNHJY8S4P2Y","AA1IM0SAQ3XFM","356TQKY9XFJ5S7O4NGX4839SMNB87N","","526.8000000119209","img/land6.png","74","527.5","1","1","1","2","0.8,0.2,0.2,0.2,0.8,0.2,0.2,0.2,0.8","0.8,0.2,0.2,0.2,0.8,0.2,0.2,0.2,0.8","1","",""
"","html-keyboard-response","257","154196","0.0-257.0","3907X2AHF1RLYIO9UNNMNHJY8S4P2Y","AA1IM0SAQ3XFM","356TQKY9XFJ5S7O4NGX4839SMNB87N","","null","<img src=""img/land6.png"" style=""width:200px; border:14px solid green;"">","null","","","","","","","","","",""
"","image-keyboard-response","258","154763","0.0-258.0","3907X2AHF1RLYIO9UNNMNHJY8S4P2Y","AA1IM0SAQ3XFM","356TQKY9XFJ5S7O4NGX4839SMNB87N","","566.1000000089407","img/land1.png","76","566.9000000059605","3","1","3","2","0.8,0.2,0.2,0.2,0.8,0.2,0.2,0.2,0.8","0.8,0.2,0.2,0.2,0.8,0.2,0.2,0.2,0.8","1","",""
"","html-keyboard-response","259","155064","0.0-259.0","3907X2AHF1RLYIO9UNNMNHJY8S4P2Y","AA1IM0SAQ3XFM","356TQKY9XFJ5S7O4NGX4839SMNB87N","","null","<img src=""img/land1.png"" style=""width:200px; border:14px solid green;"">","null","","","","","","","","","",""
"","image-keyboard-response","260","155683","0.0-260.0","3907X2AHF1RLYIO9UNNMNHJY8S4P2Y","AA1IM0SAQ3XFM","356TQKY9XFJ5S7O4NGX4839SMNB87N","","617.5999999940395","img/land6.png","74","618.4000000059605","1","1","1","2","0.8,0.2,0.2,0.2,0.8,0.2,0.2,0.2,0.8","0.8,0.2,0.2,0.2,0.8,0.2,0.2,0.2,0.8","1","",""
"","html-keyboard-response","261","155985","0.0-261.0","3907X2AHF1RLYIO9UNNMNHJY8S4P2Y","AA1IM0SAQ3XFM","356TQKY9XFJ5S7O4NGX4839SMNB87N","","null","<img src=""img/land6.png"" style=""width:200px; border:14px solid green;"">","null","","","","","","","","","",""
"","image-keyboard-response","262","156497","0.0-262.0","3907X2AHF1RLYIO9UNNMNHJY8S4P2Y","AA1IM0SAQ3XFM","356TQKY9XFJ5S7O4NGX4839SMNB87N","","511.09999999403954","img/land6.png","74","511.79999999701977","1","1","1","2","0.8,0.2,0.2,0.2,0.8,0.2,0.2,0.2,0.8","0.8,0.2,0.2,0.2,0.8,0.2,0.2,0.2,0.8","1","",""
"","html-keyboard-response","263","156802","0.0-263.0","3907X2AHF1RLYIO9UNNMNHJY8S4P2Y","AA1IM0SAQ3XFM","356TQKY9XFJ5S7O4NGX4839SMNB87N","","null","<img src=""img/land6.png"" style=""width:200px; border:14px solid green;"">","null","","","","","","","","","",""
"","image-keyboard-response","264","157387","0.0-264.0","3907X2AHF1RLYIO9UNNMNHJY8S4P2Y","AA1IM0SAQ3XFM","356TQKY9XFJ5S7O4NGX4839SMNB87N","","583.4000000059605","img/land1.png","76","584.5","3","1","3","2","0.8,0.2,0.2,0.2,0.8,0.2,0.2,0.2,0.8","0.8,0.2,0.2,0.2,0.8,0.2,0.2,0.2,0.8","1","",""
"","html-keyboard-response","265","157692","0.0-265.0","3907X2AHF1RLYIO9UNNMNHJY8S4P2Y","AA1IM0SAQ3XFM","356TQKY9XFJ5S7O4NGX4839SMNB87N","","null","<img src=""img/land1.png"" style=""width:200px; border:14px solid green;"">","null","","","","","","","","","",""
"","image-keyboard-response","266","158212","0.0-266.0","3907X2AHF1RLYIO9UNNMNHJY8S4P2Y","AA1IM0SAQ3XFM","356TQKY9XFJ5S7O4NGX4839SMNB87N","","518.6000000089407","img/land1.png","76","519.3000000119209","3","1","3","2","0.8,0.2,0.2,0.2,0.8,0.2,0.2,0.2,0.8","0.8,0.2,0.2,0.2,0.8,0.2,0.2,0.2,0.8","1","",""
"","html-keyboard-response","267","158517","0.0-267.0","3907X2AHF1RLYIO9UNNMNHJY8S4P2Y","AA1IM0SAQ3XFM","356TQKY9XFJ5S7O4NGX4839SMNB87N","","null","<img src=""img/land1.png"" style=""width:200px; border:14px solid green;"">","null","","","","","","","","","",""
"","image-keyboard-response","268","159050","0.0-268.0","3907X2AHF1RLYIO9UNNMNHJY8S4P2Y","AA1IM0SAQ3XFM","356TQKY9XFJ5S7O4NGX4839SMNB87N","","532.2000000029802","img/land1.png","76","532.9000000059605","3","1","3","2","0.8,0.2,0.2,0.2,0.8,0.2,0.2,0.2,0.8","0.8,0.2,0.2,0.2,0.8,0.2,0.2,0.2,0.8","1","",""
"","html-keyboard-response","269","159352","0.0-269.0","3907X2AHF1RLYIO9UNNMNHJY8S4P2Y","AA1IM0SAQ3XFM","356TQKY9XFJ5S7O4NGX4839SMNB87N","","null","<img src=""img/land1.png"" style=""width:200px; border:14px solid green;"">","null","","","","","","","","","",""
"","image-keyboard-response","270","159875","0.0-270.0","3907X2AHF1RLYIO9UNNMNHJY8S4P2Y","AA1IM0SAQ3XFM","356TQKY9XFJ5S7O4NGX4839SMNB87N","","521.2999999970198","img/land1.png","76","522","3","1","3","2","0.8,0.2,0.2,0.2,0.8,0.2,0.2,0.2,0.8","0.8,0.2,0.2,0.2,0.8,0.2,0.2,0.2,0.8","1","",""
"","html-keyboard-response","271","160181","0.0-271.0","3907X2AHF1RLYIO9UNNMNHJY8S4P2Y","AA1IM0SAQ3XFM","356TQKY9XFJ5S7O4NGX4839SMNB87N","","null","<img src=""img/land1.png"" style=""width:200px; border:14px solid green;"">","null","","","","","","","","","",""
"","image-keyboard-response","272","160803","0.0-272.0","3907X2AHF1RLYIO9UNNMNHJY8S4P2Y","AA1IM0SAQ3XFM","356TQKY9XFJ5S7O4NGX4839SMNB87N","","621.1999999880791","img/land6.png","74","621.9000000059605","1","1","1","2","0.8,0.2,0.2,0.2,0.8,0.2,0.2,0.2,0.8","0.8,0.2,0.2,0.2,0.8,0.2,0.2,0.2,0.8","1","",""
"","html-keyboard-response","273","161109","0.0-273.0","3907X2AHF1RLYIO9UNNMNHJY8S4P2Y","AA1IM0SAQ3XFM","356TQKY9XFJ5S7O4NGX4839SMNB87N","","null","<img src=""img/land6.png"" style=""width:200px; border:14px solid green;"">","null","","","","","","","","","",""
"","image-keyboard-response","274","161683","0.0-274.0","3907X2AHF1RLYIO9UNNMNHJY8S4P2Y","AA1IM0SAQ3XFM","356TQKY9XFJ5S7O4NGX4839SMNB87N","","573","img/land5.png","75","573.5999999940395","2","1","2","2","0.8,0.2,0.2,0.2,0.8,0.2,0.2,0.2,0.8","0.8,0.2,0.2,0.2,0.8,0.2,0.2,0.2,0.8","1","",""
"","html-keyboard-response","275","161988","0.0-275.0","3907X2AHF1RLYIO9UNNMNHJY8S4P2Y","AA1IM0SAQ3XFM","356TQKY9XFJ5S7O4NGX4839SMNB87N","","null","<img src=""img/land5.png"" style=""width:200px; border:14px solid green;"">","null","","","","","","","","","",""
"","image-keyboard-response","276","162547","0.0-276.0","3907X2AHF1RLYIO9UNNMNHJY8S4P2Y","AA1IM0SAQ3XFM","356TQKY9XFJ5S7O4NGX4839SMNB87N","","557.9000000059605","img/land6.png","74","558.7000000029802","1","0","1","2","0.8,0.2,0.2,0.2,0.8,0.2,0.2,0.2,0.8","0.8,0.2,0.2,0.2,0.8,0.2,0.2,0.2,0.8","1","",""
"","html-keyboard-response","277","162851","0.0-277.0","3907X2AHF1RLYIO9UNNMNHJY8S4P2Y","AA1IM0SAQ3XFM","356TQKY9XFJ5S7O4NGX4839SMNB87N","","null","<img src=""img/land6.png"" style=""width:200px;border:14px solid red;"">","null","","","","","","","","","",""
"","image-keyboard-response","278","163331","0.0-278.0","3907X2AHF1RLYIO9UNNMNHJY8S4P2Y","AA1IM0SAQ3XFM","356TQKY9XFJ5S7O4NGX4839SMNB87N","","478.79999999701977","img/land6.png","74","479.29999999701977","1","1","1","2","0.8,0.2,0.2,0.2,0.8,0.2,0.2,0.2,0.8","0.8,0.2,0.2,0.2,0.8,0.2,0.2,0.2,0.8","1","",""
"","html-keyboard-response","279","163635","0.0-279.0","3907X2AHF1RLYIO9UNNMNHJY8S4P2Y","AA1IM0SAQ3XFM","356TQKY9XFJ5S7O4NGX4839SMNB87N","","null","<img src=""img/land6.png"" style=""width:200px; border:14px solid green;"">","null","","","","","","","","","",""
"","image-keyboard-response","280","164251","0.0-280.0","3907X2AHF1RLYIO9UNNMNHJY8S4P2Y","AA1IM0SAQ3XFM","356TQKY9XFJ5S7O4NGX4839SMNB87N","","615.0999999940395","img/land5.png","75","615.7999999970198","2","1","2","2","0.8,0.2,0.2,0.2,0.8,0.2,0.2,0.2,0.8","0.8,0.2,0.2,0.2,0.8,0.2,0.2,0.2,0.8","1","",""
"","html-keyboard-response","281","164554","0.0-281.0","3907X2AHF1RLYIO9UNNMNHJY8S4P2Y","AA1IM0SAQ3XFM","356TQKY9XFJ5S7O4NGX4839SMNB87N","","null","<img src=""img/land5.png"" style=""width:200px; border:14px solid green;"">","null","","","","","","","","","",""
"","image-keyboard-response","282","165107","0.0-282.0","3907X2AHF1RLYIO9UNNMNHJY8S4P2Y","AA1IM0SAQ3XFM","356TQKY9XFJ5S7O4NGX4839SMNB87N","","552.1999999880791","img/land6.png","74","552.9000000059605","1","1","1","2","0.8,0.2,0.2,0.2,0.8,0.2,0.2,0.2,0.8","0.8,0.2,0.2,0.2,0.8,0.2,0.2,0.2,0.8","1","",""
"","html-keyboard-response","283","165413","0.0-283.0","3907X2AHF1RLYIO9UNNMNHJY8S4P2Y","AA1IM0SAQ3XFM","356TQKY9XFJ5S7O4NGX4839SMNB87N","","null","<img src=""img/land6.png"" style=""width:200px; border:14px solid green;"">","null","","","","","","","","","",""
"","image-keyboard-response","284","165939","0.0-284.0","3907X2AHF1RLYIO9UNNMNHJY8S4P2Y","AA1IM0SAQ3XFM","356TQKY9XFJ5S7O4NGX4839SMNB87N","","524.7999999970198","img/land6.png","74","525.5","1","0","1","2","0.8,0.2,0.2,0.2,0.8,0.2,0.2,0.2,0.8","0.8,0.2,0.2,0.2,0.8,0.2,0.2,0.2,0.8","1","",""
"","html-keyboard-response","285","166243","0.0-285.0","3907X2AHF1RLYIO9UNNMNHJY8S4P2Y","AA1IM0SAQ3XFM","356TQKY9XFJ5S7O4NGX4839SMNB87N","","null","<img src=""img/land6.png"" style=""width:200px;border:14px solid red;"">","null","","","","","","","","","",""
"","image-keyboard-response","286","166899","0.0-286.0","3907X2AHF1RLYIO9UNNMNHJY8S4P2Y","AA1IM0SAQ3XFM","356TQKY9XFJ5S7O4NGX4839SMNB87N","","654.6000000089407","img/land1.png","76","655.0999999940395","3","1","3","2","0.8,0.2,0.2,0.2,0.8,0.2,0.2,0.2,0.8","0.8,0.2,0.2,0.2,0.8,0.2,0.2,0.2,0.8","1","",""
"","html-keyboard-response","287","167205","0.0-287.0","3907X2AHF1RLYIO9UNNMNHJY8S4P2Y","AA1IM0SAQ3XFM","356TQKY9XFJ5S7O4NGX4839SMNB87N","","null","<img src=""img/land1.png"" style=""width:200px; border:14px solid green;"">","null","","","","","","","","","",""
"","image-keyboard-response","288","167771","0.0-288.0","3907X2AHF1RLYIO9UNNMNHJY8S4P2Y","AA1IM0SAQ3XFM","356TQKY9XFJ5S7O4NGX4839SMNB87N","","565","img/land6.png","74","565.7000000029802","1","1","1","2","0.8,0.2,0.2,0.2,0.8,0.2,0.2,0.2,0.8","0.8,0.2,0.2,0.2,0.8,0.2,0.2,0.2,0.8","1","",""
"","html-keyboard-response","289","168076","0.0-289.0","3907X2AHF1RLYIO9UNNMNHJY8S4P2Y","AA1IM0SAQ3XFM","356TQKY9XFJ5S7O4NGX4839SMNB87N","","null","<img src=""img/land6.png"" style=""width:200px; border:14px solid green;"">","null","","","","","","","","","",""
"","image-keyboard-response","290","168652","0.0-290.0","3907X2AHF1RLYIO9UNNMNHJY8S4P2Y","AA1IM0SAQ3XFM","356TQKY9XFJ5S7O4NGX4839SMNB87N","","575.2999999970198","img/land6.png","74","576","1","1","1","2","0.8,0.2,0.2,0.2,0.8,0.2,0.2,0.2,0.8","0.8,0.2,0.2,0.2,0.8,0.2,0.2,0.2,0.8","1","",""
"","html-keyboard-response","291","168954","0.0-291.0","3907X2AHF1RLYIO9UNNMNHJY8S4P2Y","AA1IM0SAQ3XFM","356TQKY9XFJ5S7O4NGX4839SMNB87N","","null","<img src=""img/land6.png"" style=""width:200px; border:14px solid green;"">","null","","","","","","","","","",""
"","image-keyboard-response","292","169523","0.0-292.0","3907X2AHF1RLYIO9UNNMNHJY8S4P2Y","AA1IM0SAQ3XFM","356TQKY9XFJ5S7O4NGX4839SMNB87N","","567.9000000059605","img/land5.png","75","568.5999999940395","2","0","2","2","0.8,0.2,0.2,0.2,0.8,0.2,0.2,0.2,0.8","0.8,0.2,0.2,0.2,0.8,0.2,0.2,0.2,0.8","1","",""
"","html-keyboard-response","293","169829","0.0-293.0","3907X2AHF1RLYIO9UNNMNHJY8S4P2Y","AA1IM0SAQ3XFM","356TQKY9XFJ5S7O4NGX4839SMNB87N","","null","<img src=""img/land5.png"" style=""width:200px;border:14px solid red;"">","null","","","","","","","","","",""
"","image-keyboard-response","294","170331","0.0-294.0","3907X2AHF1RLYIO9UNNMNHJY8S4P2Y","AA1IM0SAQ3XFM","356TQKY9XFJ5S7O4NGX4839SMNB87N","","501.1000000089407","img/land5.png","75","501.79999999701977","2","0","2","2","0.8,0.2,0.2,0.2,0.8,0.2,0.2,0.2,0.8","0.8,0.2,0.2,0.2,0.8,0.2,0.2,0.2,0.8","1","",""
"","html-keyboard-response","295","170636","0.0-295.0","3907X2AHF1RLYIO9UNNMNHJY8S4P2Y","AA1IM0SAQ3XFM","356TQKY9XFJ5S7O4NGX4839SMNB87N","","null","<img src=""img/land5.png"" style=""width:200px;border:14px solid red;"">","null","","","","","","","","","",""
"","image-keyboard-response","296","171283","0.0-296.0","3907X2AHF1RLYIO9UNNMNHJY8S4P2Y","AA1IM0SAQ3XFM","356TQKY9XFJ5S7O4NGX4839SMNB87N","","646.1000000089407","img/land1.png","76","647.2999999970198","3","1","3","2","0.8,0.2,0.2,0.2,0.8,0.2,0.2,0.2,0.8","0.8,0.2,0.2,0.2,0.8,0.2,0.2,0.2,0.8","1","",""
"","html-keyboard-response","297","171590","0.0-297.0","3907X2AHF1RLYIO9UNNMNHJY8S4P2Y","AA1IM0SAQ3XFM","356TQKY9XFJ5S7O4NGX4839SMNB87N","","null","<img src=""img/land1.png"" style=""width:200px; border:14px solid green;"">","null","","","","","","","","","",""
"","image-keyboard-response","298","172331","0.0-298.0","3907X2AHF1RLYIO9UNNMNHJY8S4P2Y","AA1IM0SAQ3XFM","356TQKY9XFJ5S7O4NGX4839SMNB87N","","740.7000000029802","img/land5.png","75","741.3000000119209","2","1","2","2","0.8,0.2,0.2,0.2,0.8,0.2,0.2,0.2,0.8","0.8,0.2,0.2,0.2,0.8,0.2,0.2,0.2,0.8","1","",""
"","html-keyboard-response","299","172633","0.0-299.0","3907X2AHF1RLYIO9UNNMNHJY8S4P2Y","AA1IM0SAQ3XFM","356TQKY9XFJ5S7O4NGX4839SMNB87N","","null","<img src=""img/land5.png"" style=""width:200px; border:14px solid green;"">","null","","","","","","","","","",""
"","image-keyboard-response","300","173131","0.0-300.0","3907X2AHF1RLYIO9UNNMNHJY8S4P2Y","AA1IM0SAQ3XFM","356TQKY9XFJ5S7O4NGX4839SMNB87N","","497.29999999701977","img/land5.png","75","497.90000000596046","2","1","2","2","0.8,0.2,0.2,0.2,0.8,0.2,0.2,0.2,0.8","0.8,0.2,0.2,0.2,0.8,0.2,0.2,0.2,0.8","1","",""
"","html-keyboard-response","301","173435","0.0-301.0","3907X2AHF1RLYIO9UNNMNHJY8S4P2Y","AA1IM0SAQ3XFM","356TQKY9XFJ5S7O4NGX4839SMNB87N","","null","<img src=""img/land5.png"" style=""width:200px; border:14px solid green;"">","null","","","","","","","","","",""
"","image-keyboard-response","302","174275","0.0-302.0","3907X2AHF1RLYIO9UNNMNHJY8S4P2Y","AA1IM0SAQ3XFM","356TQKY9XFJ5S7O4NGX4839SMNB87N","","839.1000000089407","img/land4.png","75","839.7000000029802","2","1","2","1","0.8,0.2,0.2,0.2,0.8,0.2,0.2,0.2,0.8","0.8,0.2,0.2,0.2,0.8,0.2,0.2,0.2,0.8","1","",""
"","html-keyboard-response","303","174579","0.0-303.0","3907X2AHF1RLYIO9UNNMNHJY8S4P2Y","AA1IM0SAQ3XFM","356TQKY9XFJ5S7O4NGX4839SMNB87N","","null","<img src=""img/land4.png"" style=""width:200px; border:14px solid green;"">","null","","","","","","","","","",""
"","image-keyboard-response","304","175090","0.0-304.0","3907X2AHF1RLYIO9UNNMNHJY8S4P2Y","AA1IM0SAQ3XFM","356TQKY9XFJ5S7O4NGX4839SMNB87N","","509.90000000596046","img/land4.png","75","510.3999999910593","2","1","2","1","0.8,0.2,0.2,0.2,0.8,0.2,0.2,0.2,0.8","0.8,0.2,0.2,0.2,0.8,0.2,0.2,0.2,0.8","1","",""
"","html-keyboard-response","305","175396","0.0-305.0","3907X2AHF1RLYIO9UNNMNHJY8S4P2Y","AA1IM0SAQ3XFM","356TQKY9XFJ5S7O4NGX4839SMNB87N","","null","<img src=""img/land4.png"" style=""width:200px; border:14px solid green;"">","null","","","","","","","","","",""
"","image-keyboard-response","306","175907","0.0-306.0","3907X2AHF1RLYIO9UNNMNHJY8S4P2Y","AA1IM0SAQ3XFM","356TQKY9XFJ5S7O4NGX4839SMNB87N","","510.29999999701977","img/land4.png","75","510.79999999701977","2","0","2","1","0.8,0.2,0.2,0.2,0.8,0.2,0.2,0.2,0.8","0.8,0.2,0.2,0.2,0.8,0.2,0.2,0.2,0.8","1","",""
"","html-keyboard-response","307","176211","0.0-307.0","3907X2AHF1RLYIO9UNNMNHJY8S4P2Y","AA1IM0SAQ3XFM","356TQKY9XFJ5S7O4NGX4839SMNB87N","","null","<img src=""img/land4.png"" style=""width:200px;border:14px solid red;"">","null","","","","","","","","","",""
"","image-keyboard-response","308","176979","0.0-308.0","3907X2AHF1RLYIO9UNNMNHJY8S4P2Y","AA1IM0SAQ3XFM","356TQKY9XFJ5S7O4NGX4839SMNB87N","","767.6999999880791","img/land3.png","76","768.4000000059605","3","0","1","1","0.8,0.2,0.2,0.2,0.8,0.2,0.2,0.2,0.8","0.8,0.2,0.2,0.2,0.8,0.2,0.2,0.2,0.8","1","",""
"","html-keyboard-response","309","177283","0.0-309.0","3907X2AHF1RLYIO9UNNMNHJY8S4P2Y","AA1IM0SAQ3XFM","356TQKY9XFJ5S7O4NGX4839SMNB87N","","null","<img src=""img/land3.png"" style=""width:200px;border:14px solid red;"">","null","","","","","","","","","",""
"","image-keyboard-response","310","177779","0.0-310.0","3907X2AHF1RLYIO9UNNMNHJY8S4P2Y","AA1IM0SAQ3XFM","356TQKY9XFJ5S7O4NGX4839SMNB87N","","495.59999999403954","img/land3.png","74","496.20000000298023","1","1","1","1","0.8,0.2,0.2,0.2,0.8,0.2,0.2,0.2,0.8","0.8,0.2,0.2,0.2,0.8,0.2,0.2,0.2,0.8","1","",""
"","html-keyboard-response","311","178085","0.0-311.0","3907X2AHF1RLYIO9UNNMNHJY8S4P2Y","AA1IM0SAQ3XFM","356TQKY9XFJ5S7O4NGX4839SMNB87N","","null","<img src=""img/land3.png"" style=""width:200px; border:14px solid green;"">","null","","","","","","","","","",""
"","image-keyboard-response","312","179131","0.0-312.0","3907X2AHF1RLYIO9UNNMNHJY8S4P2Y","AA1IM0SAQ3XFM","356TQKY9XFJ5S7O4NGX4839SMNB87N","","1045.9000000059605","img/land4.png","76","1046.2999999970198","3","0","2","1","0.8,0.2,0.2,0.2,0.8,0.2,0.2,0.2,0.8","0.8,0.2,0.2,0.2,0.8,0.2,0.2,0.2,0.8","1","",""
"","html-keyboard-response","313","179433","0.0-313.0","3907X2AHF1RLYIO9UNNMNHJY8S4P2Y","AA1IM0SAQ3XFM","356TQKY9XFJ5S7O4NGX4839SMNB87N","","null","<img src=""img/land4.png"" style=""width:200px;border:14px solid red;"">","null","","","","","","","","","",""
"","image-keyboard-response","314","180037","0.0-314.0","3907X2AHF1RLYIO9UNNMNHJY8S4P2Y","AA1IM0SAQ3XFM","356TQKY9XFJ5S7O4NGX4839SMNB87N","","602.2000000029802","img/land4.png","75","603.2999999970198","2","1","2","1","0.8,0.2,0.2,0.2,0.8,0.2,0.2,0.2,0.8","0.8,0.2,0.2,0.2,0.8,0.2,0.2,0.2,0.8","1","",""
"","html-keyboard-response","315","180344","0.0-315.0","3907X2AHF1RLYIO9UNNMNHJY8S4P2Y","AA1IM0SAQ3XFM","356TQKY9XFJ5S7O4NGX4839SMNB87N","","null","<img src=""img/land4.png"" style=""width:200px; border:14px solid green;"">","null","","","","","","","","","",""
"","image-keyboard-response","316","181204","0.0-316.0","3907X2AHF1RLYIO9UNNMNHJY8S4P2Y","AA1IM0SAQ3XFM","356TQKY9XFJ5S7O4NGX4839SMNB87N","","858.7999999970198","img/land3.png","74","859.5999999940395","1","0","1","1","0.8,0.2,0.2,0.2,0.8,0.2,0.2,0.2,0.8","0.8,0.2,0.2,0.2,0.8,0.2,0.2,0.2,0.8","1","",""
"","html-keyboard-response","317","181509","0.0-317.0","3907X2AHF1RLYIO9UNNMNHJY8S4P2Y","AA1IM0SAQ3XFM","356TQKY9XFJ5S7O4NGX4839SMNB87N","","null","<img src=""img/land3.png"" style=""width:200px;border:14px solid red;"">","null","","","","","","","","","",""
"","image-keyboard-response","318","182475","0.0-318.0","3907X2AHF1RLYIO9UNNMNHJY8S4P2Y","AA1IM0SAQ3XFM","356TQKY9XFJ5S7O4NGX4839SMNB87N","","965.5999999940395","img/land4.png","75","966.1000000089407","2","1","2","1","0.8,0.2,0.2,0.2,0.8,0.2,0.2,0.2,0.8","0.8,0.2,0.2,0.2,0.8,0.2,0.2,0.2,0.8","1","",""
"","html-keyboard-response","319","182780","0.0-319.0","3907X2AHF1RLYIO9UNNMNHJY8S4P2Y","AA1IM0SAQ3XFM","356TQKY9XFJ5S7O4NGX4839SMNB87N","","null","<img src=""img/land4.png"" style=""width:200px; border:14px solid green;"">","null","","","","","","","","","",""
"","image-keyboard-response","320","183363","0.0-320.0","3907X2AHF1RLYIO9UNNMNHJY8S4P2Y","AA1IM0SAQ3XFM","356TQKY9XFJ5S7O4NGX4839SMNB87N","","582.2000000029802","img/land3.png","74","582.7999999970198","1","1","1","1","0.8,0.2,0.2,0.2,0.8,0.2,0.2,0.2,0.8","0.8,0.2,0.2,0.2,0.8,0.2,0.2,0.2,0.8","1","",""
"","html-keyboard-response","321","183668","0.0-321.0","3907X2AHF1RLYIO9UNNMNHJY8S4P2Y","AA1IM0SAQ3XFM","356TQKY9XFJ5S7O4NGX4839SMNB87N","","null","<img src=""img/land3.png"" style=""width:200px; border:14px solid green;"">","null","","","","","","","","","",""
"","image-keyboard-response","322","184404","0.0-322.0","3907X2AHF1RLYIO9UNNMNHJY8S4P2Y","AA1IM0SAQ3XFM","356TQKY9XFJ5S7O4NGX4839SMNB87N","","734.2999999970198","img/land2.png","76","734.9000000059605","3","1","3","1","0.8,0.2,0.2,0.2,0.8,0.2,0.2,0.2,0.8","0.8,0.2,0.2,0.2,0.8,0.2,0.2,0.2,0.8","1","",""
"","html-keyboard-response","323","184709","0.0-323.0","3907X2AHF1RLYIO9UNNMNHJY8S4P2Y","AA1IM0SAQ3XFM","356TQKY9XFJ5S7O4NGX4839SMNB87N","","null","<img src=""img/land2.png"" style=""width:200px; border:14px solid green;"">","null","","","","","","","","","",""
"","image-keyboard-response","324","185547","0.0-324.0","3907X2AHF1RLYIO9UNNMNHJY8S4P2Y","AA1IM0SAQ3XFM","356TQKY9XFJ5S7O4NGX4839SMNB87N","","837.2999999970198","img/land3.png","74","838","1","1","1","1","0.8,0.2,0.2,0.2,0.8,0.2,0.2,0.2,0.8","0.8,0.2,0.2,0.2,0.8,0.2,0.2,0.2,0.8","1","",""
"","html-keyboard-response","325","185853","0.0-325.0","3907X2AHF1RLYIO9UNNMNHJY8S4P2Y","AA1IM0SAQ3XFM","356TQKY9XFJ5S7O4NGX4839SMNB87N","","null","<img src=""img/land3.png"" style=""width:200px; border:14px solid green;"">","null","","","","","","","","","",""
"","image-keyboard-response","326","186540","0.0-326.0","3907X2AHF1RLYIO9UNNMNHJY8S4P2Y","AA1IM0SAQ3XFM","356TQKY9XFJ5S7O4NGX4839SMNB87N","","686.0999999940395","img/land2.png","76","687","3","1","3","1","0.8,0.2,0.2,0.2,0.8,0.2,0.2,0.2,0.8","0.8,0.2,0.2,0.2,0.8,0.2,0.2,0.2,0.8","1","",""
"","html-keyboard-response","327","186846","0.0-327.0","3907X2AHF1RLYIO9UNNMNHJY8S4P2Y","AA1IM0SAQ3XFM","356TQKY9XFJ5S7O4NGX4839SMNB87N","","null","<img src=""img/land2.png"" style=""width:200px; border:14px solid green;"">","null","","","","","","","","","",""
"","image-keyboard-response","328","187524","0.0-328.0","3907X2AHF1RLYIO9UNNMNHJY8S4P2Y","AA1IM0SAQ3XFM","356TQKY9XFJ5S7O4NGX4839SMNB87N","","677.2000000029802","img/land4.png","75","678","2","1","2","1","0.8,0.2,0.2,0.2,0.8,0.2,0.2,0.2,0.8","0.8,0.2,0.2,0.2,0.8,0.2,0.2,0.2,0.8","1","",""
"","html-keyboard-response","329","187827","0.0-329.0","3907X2AHF1RLYIO9UNNMNHJY8S4P2Y","AA1IM0SAQ3XFM","356TQKY9XFJ5S7O4NGX4839SMNB87N","","null","<img src=""img/land4.png"" style=""width:200px; border:14px solid green;"">","null","","","","","","","","","",""
"","image-keyboard-response","330","188859","0.0-330.0","3907X2AHF1RLYIO9UNNMNHJY8S4P2Y","AA1IM0SAQ3XFM","356TQKY9XFJ5S7O4NGX4839SMNB87N","","1031.7000000029802","img/land2.png","75","1032.6000000089407","2","0","3","1","0.8,0.2,0.2,0.2,0.8,0.2,0.2,0.2,0.8","0.8,0.2,0.2,0.2,0.8,0.2,0.2,0.2,0.8","1","",""
"","html-keyboard-response","331","189162","0.0-331.0","3907X2AHF1RLYIO9UNNMNHJY8S4P2Y","AA1IM0SAQ3XFM","356TQKY9XFJ5S7O4NGX4839SMNB87N","","null","<img src=""img/land2.png"" style=""width:200px;border:14px solid red;"">","null","","","","","","","","","",""
"","image-keyboard-response","332","189821","0.0-332.0","3907X2AHF1RLYIO9UNNMNHJY8S4P2Y","AA1IM0SAQ3XFM","356TQKY9XFJ5S7O4NGX4839SMNB87N","","657.7999999970198","img/land2.png","76","658.4000000059605","3","1","3","1","0.8,0.2,0.2,0.2,0.8,0.2,0.2,0.2,0.8","0.8,0.2,0.2,0.2,0.8,0.2,0.2,0.2,0.8","1","",""
"","html-keyboard-response","333","190122","0.0-333.0","3907X2AHF1RLYIO9UNNMNHJY8S4P2Y","AA1IM0SAQ3XFM","356TQKY9XFJ5S7O4NGX4839SMNB87N","","null","<img src=""img/land2.png"" style=""width:200px; border:14px solid green;"">","null","","","","","","","","","",""
"","image-keyboard-response","334","190852","0.0-334.0","3907X2AHF1RLYIO9UNNMNHJY8S4P2Y","AA1IM0SAQ3XFM","356TQKY9XFJ5S7O4NGX4839SMNB87N","","729.2000000029802","img/land4.png","74","729.7999999970198","1","1","2","1","0.8,0.2,0.2,0.2,0.8,0.2,0.2,0.2,0.8","0.8,0.2,0.2,0.2,0.8,0.2,0.2,0.2,0.8","1","",""
"","html-keyboard-response","335","191157","0.0-335.0","3907X2AHF1RLYIO9UNNMNHJY8S4P2Y","AA1IM0SAQ3XFM","356TQKY9XFJ5S7O4NGX4839SMNB87N","","null","<img src=""img/land4.png"" style=""width:200px; border:14px solid green;"">","null","","","","","","","","","",""
"","image-keyboard-response","336","191835","0.0-336.0","3907X2AHF1RLYIO9UNNMNHJY8S4P2Y","AA1IM0SAQ3XFM","356TQKY9XFJ5S7O4NGX4839SMNB87N","","676.8999999910593","img/land2.png","76","677.7000000029802","3","1","3","1","0.8,0.2,0.2,0.2,0.8,0.2,0.2,0.2,0.8","0.8,0.2,0.2,0.2,0.8,0.2,0.2,0.2,0.8","1","",""
"","html-keyboard-response","337","192140","0.0-337.0","3907X2AHF1RLYIO9UNNMNHJY8S4P2Y","AA1IM0SAQ3XFM","356TQKY9XFJ5S7O4NGX4839SMNB87N","","null","<img src=""img/land2.png"" style=""width:200px; border:14px solid green;"">","null","","","","","","","","","",""
"","image-keyboard-response","338","192668","0.0-338.0","3907X2AHF1RLYIO9UNNMNHJY8S4P2Y","AA1IM0SAQ3XFM","356TQKY9XFJ5S7O4NGX4839SMNB87N","","527.0999999940395","img/land2.png","76","527.7999999970198","3","0","3","1","0.8,0.2,0.2,0.2,0.8,0.2,0.2,0.2,0.8","0.8,0.2,0.2,0.2,0.8,0.2,0.2,0.2,0.8","1","",""
"","html-keyboard-response","339","192974","0.0-339.0","3907X2AHF1RLYIO9UNNMNHJY8S4P2Y","AA1IM0SAQ3XFM","356TQKY9XFJ5S7O4NGX4839SMNB87N","","null","<img src=""img/land2.png"" style=""width:200px;border:14px solid red;"">","null","","","","","","","","","",""
"","image-keyboard-response","340","193707","0.0-340.0","3907X2AHF1RLYIO9UNNMNHJY8S4P2Y","AA1IM0SAQ3XFM","356TQKY9XFJ5S7O4NGX4839SMNB87N","","732.2999999970198","img/land3.png","74","733.2000000029802","1","1","1","1","0.8,0.2,0.2,0.2,0.8,0.2,0.2,0.2,0.8","0.8,0.2,0.2,0.2,0.8,0.2,0.2,0.2,0.8","1","",""
"","html-keyboard-response","341","194013","0.0-341.0","3907X2AHF1RLYIO9UNNMNHJY8S4P2Y","AA1IM0SAQ3XFM","356TQKY9XFJ5S7O4NGX4839SMNB87N","","null","<img src=""img/land3.png"" style=""width:200px; border:14px solid green;"">","null","","","","","","","","","",""
"","image-keyboard-response","342","194580","0.0-342.0","3907X2AHF1RLYIO9UNNMNHJY8S4P2Y","AA1IM0SAQ3XFM","356TQKY9XFJ5S7O4NGX4839SMNB87N","","565.7000000029802","img/land3.png","74","566.5","1","1","1","1","0.8,0.2,0.2,0.2,0.8,0.2,0.2,0.2,0.8","0.8,0.2,0.2,0.2,0.8,0.2,0.2,0.2,0.8","1","",""
"","html-keyboard-response","343","194884","0.0-343.0","3907X2AHF1RLYIO9UNNMNHJY8S4P2Y","AA1IM0SAQ3XFM","356TQKY9XFJ5S7O4NGX4839SMNB87N","","null","<img src=""img/land3.png"" style=""width:200px; border:14px solid green;"">","null","","","","","","","","","",""
"","image-keyboard-response","344","195548","0.0-344.0","3907X2AHF1RLYIO9UNNMNHJY8S4P2Y","AA1IM0SAQ3XFM","356TQKY9XFJ5S7O4NGX4839SMNB87N","","663","img/land4.png","75","663.6000000089407","2","1","2","1","0.8,0.2,0.2,0.2,0.8,0.2,0.2,0.2,0.8","0.8,0.2,0.2,0.2,0.8,0.2,0.2,0.2,0.8","1","",""
"","html-keyboard-response","345","195853","0.0-345.0","3907X2AHF1RLYIO9UNNMNHJY8S4P2Y","AA1IM0SAQ3XFM","356TQKY9XFJ5S7O4NGX4839SMNB87N","","null","<img src=""img/land4.png"" style=""width:200px; border:14px solid green;"">","null","","","","","","","","","",""
"","image-keyboard-response","346","196427","0.0-346.0","3907X2AHF1RLYIO9UNNMNHJY8S4P2Y","AA1IM0SAQ3XFM","356TQKY9XFJ5S7O4NGX4839SMNB87N","","573.2000000029802","img/land3.png","74","573.9000000059605","1","1","1","1","0.8,0.2,0.2,0.2,0.8,0.2,0.2,0.2,0.8","0.8,0.2,0.2,0.2,0.8,0.2,0.2,0.2,0.8","1","",""
"","html-keyboard-response","347","196732","0.0-347.0","3907X2AHF1RLYIO9UNNMNHJY8S4P2Y","AA1IM0SAQ3XFM","356TQKY9XFJ5S7O4NGX4839SMNB87N","","null","<img src=""img/land3.png"" style=""width:200px; border:14px solid green;"">","null","","","","","","","","","",""
"","image-keyboard-response","348","197292","0.0-348.0","3907X2AHF1RLYIO9UNNMNHJY8S4P2Y","AA1IM0SAQ3XFM","356TQKY9XFJ5S7O4NGX4839SMNB87N","","559.0999999940395","img/land3.png","74","559.7999999970198","1","1","1","1","0.8,0.2,0.2,0.2,0.8,0.2,0.2,0.2,0.8","0.8,0.2,0.2,0.2,0.8,0.2,0.2,0.2,0.8","1","",""
"","html-keyboard-response","349","197595","0.0-349.0","3907X2AHF1RLYIO9UNNMNHJY8S4P2Y","AA1IM0SAQ3XFM","356TQKY9XFJ5S7O4NGX4839SMNB87N","","null","<img src=""img/land3.png"" style=""width:200px; border:14px solid green;"">","null","","","","","","","","","",""
"","image-keyboard-response","350","198092","0.0-350.0","3907X2AHF1RLYIO9UNNMNHJY8S4P2Y","AA1IM0SAQ3XFM","356TQKY9XFJ5S7O4NGX4839SMNB87N","","496.40000000596046","img/land3.png","74","497","1","1","1","1","0.8,0.2,0.2,0.2,0.8,0.2,0.2,0.2,0.8","0.8,0.2,0.2,0.2,0.8,0.2,0.2,0.2,0.8","1","",""
"","html-keyboard-response","351","198398","0.0-351.0","3907X2AHF1RLYIO9UNNMNHJY8S4P2Y","AA1IM0SAQ3XFM","356TQKY9XFJ5S7O4NGX4839SMNB87N","","null","<img src=""img/land3.png"" style=""width:200px; border:14px solid green;"">","null","","","","","","","","","",""
"","image-keyboard-response","352","199012","0.0-352.0","3907X2AHF1RLYIO9UNNMNHJY8S4P2Y","AA1IM0SAQ3XFM","356TQKY9XFJ5S7O4NGX4839SMNB87N","","613","img/land3.png","74","613.7000000029802","1","1","1","1","0.8,0.2,0.2,0.2,0.8,0.2,0.2,0.2,0.8","0.8,0.2,0.2,0.2,0.8,0.2,0.2,0.2,0.8","1","",""
"","html-keyboard-response","353","199315","0.0-353.0","3907X2AHF1RLYIO9UNNMNHJY8S4P2Y","AA1IM0SAQ3XFM","356TQKY9XFJ5S7O4NGX4839SMNB87N","","null","<img src=""img/land3.png"" style=""width:200px; border:14px solid green;"">","null","","","","","","","","","",""
"","image-keyboard-response","354","199877","0.0-354.0","3907X2AHF1RLYIO9UNNMNHJY8S4P2Y","AA1IM0SAQ3XFM","356TQKY9XFJ5S7O4NGX4839SMNB87N","","560.9000000059605","img/land3.png","74","561.3999999910593","1","0","1","1","0.8,0.2,0.2,0.2,0.8,0.2,0.2,0.2,0.8","0.8,0.2,0.2,0.2,0.8,0.2,0.2,0.2,0.8","1","",""
"","html-keyboard-response","355","200178","0.0-355.0","3907X2AHF1RLYIO9UNNMNHJY8S4P2Y","AA1IM0SAQ3XFM","356TQKY9XFJ5S7O4NGX4839SMNB87N","","null","<img src=""img/land3.png"" style=""width:200px;border:14px solid red;"">","null","","","","","","","","","",""
