"success","trial_type","trial_index","time_elapsed","internal_node_id","assignmentID","mturkID","hitID","view_history","rt","stimulus","key_press","reactionTime","a","r","s","cond","reward_cond","reward_cond_actual","reward_matrix_idx","responses","question_order"
"true","fullscreen","0","10500","0.0-0.0","32SVAV9L3GV3WWEQ94JUGWZVFRB3AS","AAY54HW9N8U5K","3P7RGTLO6EZ76AO3386R8ZK9IWWKAW","","","","","","","","","","","","","",""
"","instructions","1","25737","0.0-1.0","32SVAV9L3GV3WWEQ94JUGWZVFRB3AS","AAY54HW9N8U5K","3P7RGTLO6EZ76AO3386R8ZK9IWWKAW","[{""page_index"":0,""viewing_time"":2326.4000000953674},{""page_index"":1,""viewing_time"":2195},{""page_index"":2,""viewing_time"":1483.9000000953674},{""page_index"":3,""viewing_time"":4055.2999999523163},{""page_index"":4,""viewing_time"":1175.7999999523163},{""page_index"":5,""viewing_time"":2670.2000000476837},{""page_index"":6,""viewing_time"":1328.5}]","15235.400000095367","","","","","","","","","","","",""
"","image-keyboard-response","2","26874","0.0-2.0","32SVAV9L3GV3WWEQ94JUGWZVFRB3AS","AAY54HW9N8U5K","3P7RGTLO6EZ76AO3386R8ZK9IWWKAW","","1136.0999999046326","img/land4.png","76","1136.9000000953674","3","0","2","1","0.8,0.2,0.2,0.2,0.8,0.2,0.2,0.2,0.8","0.8,0.2,0.2,0.2,0.8,0.2,0.2,0.2,0.8","1","",""
"","html-keyboard-response","3","27180","0.0-3.0","32SVAV9L3GV3WWEQ94JUGWZVFRB3AS","AAY54HW9N8U5K","3P7RGTLO6EZ76AO3386R8ZK9IWWKAW","","null","<img src=""img/land4.png"" style=""width:200px;border:14px solid red;"">","null","","","","","","","","","",""
"","image-keyboard-response","4","27515","0.0-4.0","32SVAV9L3GV3WWEQ94JUGWZVFRB3AS","AAY54HW9N8U5K","3P7RGTLO6EZ76AO3386R8ZK9IWWKAW","","333.5","img/land2.png","75","334.2000000476837","2","0","3","1","0.8,0.2,0.2,0.2,0.8,0.2,0.2,0.2,0.8","0.8,0.2,0.2,0.2,0.8,0.2,0.2,0.2,0.8","1","",""
"","html-keyboard-response","5","27817","0.0-5.0","32SVAV9L3GV3WWEQ94JUGWZVFRB3AS","AAY54HW9N8U5K","3P7RGTLO6EZ76AO3386R8ZK9IWWKAW","","null","<img src=""img/land2.png"" style=""width:200px;border:14px solid red;"">","null","","","","","","","","","",""
"","image-keyboard-response","6","28622","0.0-6.0","32SVAV9L3GV3WWEQ94JUGWZVFRB3AS","AAY54HW9N8U5K","3P7RGTLO6EZ76AO3386R8ZK9IWWKAW","","803.5999999046326","img/land6.png","75","804.8999998569489","2","0","1","1","0.8,0.2,0.2,0.2,0.8,0.2,0.2,0.2,0.8","0.8,0.2,0.2,0.2,0.8,0.2,0.2,0.2,0.8","1","",""
"","html-keyboard-response","7","28931","0.0-7.0","32SVAV9L3GV3WWEQ94JUGWZVFRB3AS","AAY54HW9N8U5K","3P7RGTLO6EZ76AO3386R8ZK9IWWKAW","","null","<img src=""img/land6.png"" style=""width:200px;border:14px solid red;"">","null","","","","","","","","","",""
"","image-keyboard-response","8","28975","0.0-8.0","32SVAV9L3GV3WWEQ94JUGWZVFRB3AS","AAY54HW9N8U5K","3P7RGTLO6EZ76AO3386R8ZK9IWWKAW","","42.89999985694885","img/land2.png","76","44","3","1","3","1","0.8,0.2,0.2,0.2,0.8,0.2,0.2,0.2,0.8","0.8,0.2,0.2,0.2,0.8,0.2,0.2,0.2,0.8","1","",""
"","html-keyboard-response","9","29286","0.0-9.0","32SVAV9L3GV3WWEQ94JUGWZVFRB3AS","AAY54HW9N8U5K","3P7RGTLO6EZ76AO3386R8ZK9IWWKAW","","null","<img src=""img/land2.png"" style=""width:200px; border:14px solid green;"">","null","","","","","","","","","",""
"","image-keyboard-response","10","29739","0.0-10.0","32SVAV9L3GV3WWEQ94JUGWZVFRB3AS","AAY54HW9N8U5K","3P7RGTLO6EZ76AO3386R8ZK9IWWKAW","","452.10000014305115","img/land6.png","76","452.89999985694885","3","0","1","1","0.8,0.2,0.2,0.2,0.8,0.2,0.2,0.2,0.8","0.8,0.2,0.2,0.2,0.8,0.2,0.2,0.2,0.8","1","",""
"","html-keyboard-response","11","30042","0.0-11.0","32SVAV9L3GV3WWEQ94JUGWZVFRB3AS","AAY54HW9N8U5K","3P7RGTLO6EZ76AO3386R8ZK9IWWKAW","","null","<img src=""img/land6.png"" style=""width:200px;border:14px solid red;"">","null","","","","","","","","","",""
"","image-keyboard-response","12","30117","0.0-12.0","32SVAV9L3GV3WWEQ94JUGWZVFRB3AS","AAY54HW9N8U5K","3P7RGTLO6EZ76AO3386R8ZK9IWWKAW","","74.20000004768372","img/land2.png","75","75","2","1","3","1","0.8,0.2,0.2,0.2,0.8,0.2,0.2,0.2,0.8","0.8,0.2,0.2,0.2,0.8,0.2,0.2,0.2,0.8","1","",""
"","html-keyboard-response","13","30418","0.0-13.0","32SVAV9L3GV3WWEQ94JUGWZVFRB3AS","AAY54HW9N8U5K","3P7RGTLO6EZ76AO3386R8ZK9IWWKAW","","null","<img src=""img/land2.png"" style=""width:200px; border:14px solid green;"">","null","","","","","","","","","",""
"","image-keyboard-response","14","30737","0.0-14.0","32SVAV9L3GV3WWEQ94JUGWZVFRB3AS","AAY54HW9N8U5K","3P7RGTLO6EZ76AO3386R8ZK9IWWKAW","","317.7000000476837","img/land6.png","75","318.40000009536743","2","1","1","1","0.8,0.2,0.2,0.2,0.8,0.2,0.2,0.2,0.8","0.8,0.2,0.2,0.2,0.8,0.2,0.2,0.2,0.8","1","",""
"","html-keyboard-response","15","31038","0.0-15.0","32SVAV9L3GV3WWEQ94JUGWZVFRB3AS","AAY54HW9N8U5K","3P7RGTLO6EZ76AO3386R8ZK9IWWKAW","","null","<img src=""img/land6.png"" style=""width:200px; border:14px solid green;"">","null","","","","","","","","","",""
"","image-keyboard-response","16","31350","0.0-16.0","32SVAV9L3GV3WWEQ94JUGWZVFRB3AS","AAY54HW9N8U5K","3P7RGTLO6EZ76AO3386R8ZK9IWWKAW","","310.7000000476837","img/land2.png","75","311.7000000476837","2","0","3","1","0.8,0.2,0.2,0.2,0.8,0.2,0.2,0.2,0.8","0.8,0.2,0.2,0.2,0.8,0.2,0.2,0.2,0.8","1","",""
"","html-keyboard-response","17","31652","0.0-17.0","32SVAV9L3GV3WWEQ94JUGWZVFRB3AS","AAY54HW9N8U5K","3P7RGTLO6EZ76AO3386R8ZK9IWWKAW","","null","<img src=""img/land2.png"" style=""width:200px;border:14px solid red;"">","null","","","","","","","","","",""
"","image-keyboard-response","18","31768","0.0-18.0","32SVAV9L3GV3WWEQ94JUGWZVFRB3AS","AAY54HW9N8U5K","3P7RGTLO6EZ76AO3386R8ZK9IWWKAW","","114.79999995231628","img/land2.png","76","115.79999995231628","3","1","3","1","0.8,0.2,0.2,0.2,0.8,0.2,0.2,0.2,0.8","0.8,0.2,0.2,0.2,0.8,0.2,0.2,0.2,0.8","1","",""
"","html-keyboard-response","19","32069","0.0-19.0","32SVAV9L3GV3WWEQ94JUGWZVFRB3AS","AAY54HW9N8U5K","3P7RGTLO6EZ76AO3386R8ZK9IWWKAW","","null","<img src=""img/land2.png"" style=""width:200px; border:14px solid green;"">","null","","","","","","","","","",""
"","image-keyboard-response","20","32305","0.0-20.0","32SVAV9L3GV3WWEQ94JUGWZVFRB3AS","AAY54HW9N8U5K","3P7RGTLO6EZ76AO3386R8ZK9IWWKAW","","234.70000004768372","img/land2.png","76","235.70000004768372","3","1","3","1","0.8,0.2,0.2,0.2,0.8,0.2,0.2,0.2,0.8","0.8,0.2,0.2,0.2,0.8,0.2,0.2,0.2,0.8","1","",""
"","html-keyboard-response","21","32608","0.0-21.0","32SVAV9L3GV3WWEQ94JUGWZVFRB3AS","AAY54HW9N8U5K","3P7RGTLO6EZ76AO3386R8ZK9IWWKAW","","null","<img src=""img/land2.png"" style=""width:200px; border:14px solid green;"">","null","","","","","","","","","",""
"","image-keyboard-response","22","32722","0.0-22.0","32SVAV9L3GV3WWEQ94JUGWZVFRB3AS","AAY54HW9N8U5K","3P7RGTLO6EZ76AO3386R8ZK9IWWKAW","","113.09999990463257","img/land2.png","76","113.90000009536743","3","0","3","1","0.8,0.2,0.2,0.2,0.8,0.2,0.2,0.2,0.8","0.8,0.2,0.2,0.2,0.8,0.2,0.2,0.2,0.8","1","",""
"","html-keyboard-response","23","33024","0.0-23.0","32SVAV9L3GV3WWEQ94JUGWZVFRB3AS","AAY54HW9N8U5K","3P7RGTLO6EZ76AO3386R8ZK9IWWKAW","","null","<img src=""img/land2.png"" style=""width:200px;border:14px solid red;"">","null","","","","","","","","","",""
"","image-keyboard-response","24","33266","0.0-24.0","32SVAV9L3GV3WWEQ94JUGWZVFRB3AS","AAY54HW9N8U5K","3P7RGTLO6EZ76AO3386R8ZK9IWWKAW","","240.70000004768372","img/land2.png","75","241.60000014305115","2","0","3","1","0.8,0.2,0.2,0.2,0.8,0.2,0.2,0.2,0.8","0.8,0.2,0.2,0.2,0.8,0.2,0.2,0.2,0.8","1","",""
"","html-keyboard-response","25","33567","0.0-25.0","32SVAV9L3GV3WWEQ94JUGWZVFRB3AS","AAY54HW9N8U5K","3P7RGTLO6EZ76AO3386R8ZK9IWWKAW","","null","<img src=""img/land2.png"" style=""width:200px;border:14px solid red;"">","null","","","","","","","","","",""
"","image-keyboard-response","26","33685","0.0-26.0","32SVAV9L3GV3WWEQ94JUGWZVFRB3AS","AAY54HW9N8U5K","3P7RGTLO6EZ76AO3386R8ZK9IWWKAW","","117.29999995231628","img/land4.png","75","118","2","1","2","1","0.8,0.2,0.2,0.2,0.8,0.2,0.2,0.2,0.8","0.8,0.2,0.2,0.2,0.8,0.2,0.2,0.2,0.8","1","",""
"","html-keyboard-response","27","33987","0.0-27.0","32SVAV9L3GV3WWEQ94JUGWZVFRB3AS","AAY54HW9N8U5K","3P7RGTLO6EZ76AO3386R8ZK9IWWKAW","","null","<img src=""img/land4.png"" style=""width:200px; border:14px solid green;"">","null","","","","","","","","","",""
"","image-keyboard-response","28","34261","0.0-28.0","32SVAV9L3GV3WWEQ94JUGWZVFRB3AS","AAY54HW9N8U5K","3P7RGTLO6EZ76AO3386R8ZK9IWWKAW","","273.10000014305115","img/land6.png","76","273.90000009536743","3","0","1","1","0.8,0.2,0.2,0.2,0.8,0.2,0.2,0.2,0.8","0.8,0.2,0.2,0.2,0.8,0.2,0.2,0.2,0.8","1","",""
"","html-keyboard-response","29","34563","0.0-29.0","32SVAV9L3GV3WWEQ94JUGWZVFRB3AS","AAY54HW9N8U5K","3P7RGTLO6EZ76AO3386R8ZK9IWWKAW","","null","<img src=""img/land6.png"" style=""width:200px;border:14px solid red;"">","null","","","","","","","","","",""
"","image-keyboard-response","30","34639","0.0-30.0","32SVAV9L3GV3WWEQ94JUGWZVFRB3AS","AAY54HW9N8U5K","3P7RGTLO6EZ76AO3386R8ZK9IWWKAW","","75.70000004768372","img/land4.png","75","76.40000009536743","2","1","2","1","0.8,0.2,0.2,0.2,0.8,0.2,0.2,0.2,0.8","0.8,0.2,0.2,0.2,0.8,0.2,0.2,0.2,0.8","1","",""
"","html-keyboard-response","31","34942","0.0-31.0","32SVAV9L3GV3WWEQ94JUGWZVFRB3AS","AAY54HW9N8U5K","3P7RGTLO6EZ76AO3386R8ZK9IWWKAW","","null","<img src=""img/land4.png"" style=""width:200px; border:14px solid green;"">","null","","","","","","","","","",""
"","image-keyboard-response","32","35343","0.0-32.0","32SVAV9L3GV3WWEQ94JUGWZVFRB3AS","AAY54HW9N8U5K","3P7RGTLO6EZ76AO3386R8ZK9IWWKAW","","400.39999985694885","img/land6.png","75","401.2000000476837","2","0","1","1","0.8,0.2,0.2,0.2,0.8,0.2,0.2,0.2,0.8","0.8,0.2,0.2,0.2,0.8,0.2,0.2,0.2,0.8","1","",""
"","html-keyboard-response","33","35644","0.0-33.0","32SVAV9L3GV3WWEQ94JUGWZVFRB3AS","AAY54HW9N8U5K","3P7RGTLO6EZ76AO3386R8ZK9IWWKAW","","null","<img src=""img/land6.png"" style=""width:200px;border:14px solid red;"">","null","","","","","","","","","",""
"","image-keyboard-response","34","35753","0.0-34.0","32SVAV9L3GV3WWEQ94JUGWZVFRB3AS","AAY54HW9N8U5K","3P7RGTLO6EZ76AO3386R8ZK9IWWKAW","","108.09999990463257","img/land6.png","76","108.90000009536743","3","0","1","1","0.8,0.2,0.2,0.2,0.8,0.2,0.2,0.2,0.8","0.8,0.2,0.2,0.2,0.8,0.2,0.2,0.2,0.8","1","",""
"","html-keyboard-response","35","36055","0.0-35.0","32SVAV9L3GV3WWEQ94JUGWZVFRB3AS","AAY54HW9N8U5K","3P7RGTLO6EZ76AO3386R8ZK9IWWKAW","","null","<img src=""img/land6.png"" style=""width:200px;border:14px solid red;"">","null","","","","","","","","","",""
"","image-keyboard-response","36","36336","0.0-36.0","32SVAV9L3GV3WWEQ94JUGWZVFRB3AS","AAY54HW9N8U5K","3P7RGTLO6EZ76AO3386R8ZK9IWWKAW","","280.09999990463257","img/land6.png","75","281","2","1","1","1","0.8,0.2,0.2,0.2,0.8,0.2,0.2,0.2,0.8","0.8,0.2,0.2,0.2,0.8,0.2,0.2,0.2,0.8","1","",""
"","html-keyboard-response","37","36638","0.0-37.0","32SVAV9L3GV3WWEQ94JUGWZVFRB3AS","AAY54HW9N8U5K","3P7RGTLO6EZ76AO3386R8ZK9IWWKAW","","null","<img src=""img/land6.png"" style=""width:200px; border:14px solid green;"">","null","","","","","","","","","",""
"","image-keyboard-response","38","36941","0.0-38.0","32SVAV9L3GV3WWEQ94JUGWZVFRB3AS","AAY54HW9N8U5K","3P7RGTLO6EZ76AO3386R8ZK9IWWKAW","","301.2999999523163","img/land4.png","75","302.2000000476837","2","0","2","1","0.8,0.2,0.2,0.2,0.8,0.2,0.2,0.2,0.8","0.8,0.2,0.2,0.2,0.8,0.2,0.2,0.2,0.8","1","",""
"","html-keyboard-response","39","37242","0.0-39.0","32SVAV9L3GV3WWEQ94JUGWZVFRB3AS","AAY54HW9N8U5K","3P7RGTLO6EZ76AO3386R8ZK9IWWKAW","","null","<img src=""img/land4.png"" style=""width:200px;border:14px solid red;"">","null","","","","","","","","","",""
"","image-keyboard-response","40","37289","0.0-40.0","32SVAV9L3GV3WWEQ94JUGWZVFRB3AS","AAY54HW9N8U5K","3P7RGTLO6EZ76AO3386R8ZK9IWWKAW","","45.59999990463257","img/land2.png","76","46.39999985694885","3","1","3","1","0.8,0.2,0.2,0.2,0.8,0.2,0.2,0.2,0.8","0.8,0.2,0.2,0.2,0.8,0.2,0.2,0.2,0.8","1","",""
"","html-keyboard-response","41","37590","0.0-41.0","32SVAV9L3GV3WWEQ94JUGWZVFRB3AS","AAY54HW9N8U5K","3P7RGTLO6EZ76AO3386R8ZK9IWWKAW","","null","<img src=""img/land2.png"" style=""width:200px; border:14px solid green;"">","null","","","","","","","","","",""
"","image-keyboard-response","42","37915","0.0-42.0","32SVAV9L3GV3WWEQ94JUGWZVFRB3AS","AAY54HW9N8U5K","3P7RGTLO6EZ76AO3386R8ZK9IWWKAW","","323.7999999523163","img/land6.png","75","324.59999990463257","2","0","1","1","0.8,0.2,0.2,0.2,0.8,0.2,0.2,0.2,0.8","0.8,0.2,0.2,0.2,0.8,0.2,0.2,0.2,0.8","1","",""
"","html-keyboard-response","43","38217","0.0-43.0","32SVAV9L3GV3WWEQ94JUGWZVFRB3AS","AAY54HW9N8U5K","3P7RGTLO6EZ76AO3386R8ZK9IWWKAW","","null","<img src=""img/land6.png"" style=""width:200px;border:14px solid red;"">","null","","","","","","","","","",""
"","image-keyboard-response","44","38234","0.0-44.0","32SVAV9L3GV3WWEQ94JUGWZVFRB3AS","AAY54HW9N8U5K","3P7RGTLO6EZ76AO3386R8ZK9IWWKAW","","16.5","img/land6.png","76","17.399999856948853","3","0","1","1","0.8,0.2,0.2,0.2,0.8,0.2,0.2,0.2,0.8","0.8,0.2,0.2,0.2,0.8,0.2,0.2,0.2,0.8","1","",""
"","html-keyboard-response","45","38536","0.0-45.0","32SVAV9L3GV3WWEQ94JUGWZVFRB3AS","AAY54HW9N8U5K","3P7RGTLO6EZ76AO3386R8ZK9IWWKAW","","null","<img src=""img/land6.png"" style=""width:200px;border:14px solid red;"">","null","","","","","","","","","",""
"","image-keyboard-response","46","38771","0.0-46.0","32SVAV9L3GV3WWEQ94JUGWZVFRB3AS","AAY54HW9N8U5K","3P7RGTLO6EZ76AO3386R8ZK9IWWKAW","","234.29999995231628","img/land2.png","75","235","2","0","3","1","0.8,0.2,0.2,0.2,0.8,0.2,0.2,0.2,0.8","0.8,0.2,0.2,0.2,0.8,0.2,0.2,0.2,0.8","1","",""
"","html-keyboard-response","47","39073","0.0-47.0","32SVAV9L3GV3WWEQ94JUGWZVFRB3AS","AAY54HW9N8U5K","3P7RGTLO6EZ76AO3386R8ZK9IWWKAW","","null","<img src=""img/land2.png"" style=""width:200px;border:14px solid red;"">","null","","","","","","","","","",""
"","image-keyboard-response","48","39435","0.0-48.0","32SVAV9L3GV3WWEQ94JUGWZVFRB3AS","AAY54HW9N8U5K","3P7RGTLO6EZ76AO3386R8ZK9IWWKAW","","360.90000009536743","img/land4.png","76","361.7000000476837","3","0","2","1","0.8,0.2,0.2,0.2,0.8,0.2,0.2,0.2,0.8","0.8,0.2,0.2,0.2,0.8,0.2,0.2,0.2,0.8","1","",""
"","html-keyboard-response","49","39737","0.0-49.0","32SVAV9L3GV3WWEQ94JUGWZVFRB3AS","AAY54HW9N8U5K","3P7RGTLO6EZ76AO3386R8ZK9IWWKAW","","null","<img src=""img/land4.png"" style=""width:200px;border:14px solid red;"">","null","","","","","","","","","",""
"","image-keyboard-response","50","39880","0.0-50.0","32SVAV9L3GV3WWEQ94JUGWZVFRB3AS","AAY54HW9N8U5K","3P7RGTLO6EZ76AO3386R8ZK9IWWKAW","","142.60000014305115","img/land2.png","75","143.39999985694885","2","0","3","1","0.8,0.2,0.2,0.2,0.8,0.2,0.2,0.2,0.8","0.8,0.2,0.2,0.2,0.8,0.2,0.2,0.2,0.8","1","",""
"","html-keyboard-response","51","40196","0.0-51.0","32SVAV9L3GV3WWEQ94JUGWZVFRB3AS","AAY54HW9N8U5K","3P7RGTLO6EZ76AO3386R8ZK9IWWKAW","","null","<img src=""img/land2.png"" style=""width:200px;border:14px solid red;"">","null","","","","","","","","","",""
"","image-keyboard-response","52","41126","0.0-52.0","32SVAV9L3GV3WWEQ94JUGWZVFRB3AS","AAY54HW9N8U5K","3P7RGTLO6EZ76AO3386R8ZK9IWWKAW","","928.8999998569489","img/land4.png","75","929.7000000476837","2","1","2","1","0.8,0.2,0.2,0.2,0.8,0.2,0.2,0.2,0.8","0.8,0.2,0.2,0.2,0.8,0.2,0.2,0.2,0.8","1","",""
"","html-keyboard-response","53","41427","0.0-53.0","32SVAV9L3GV3WWEQ94JUGWZVFRB3AS","AAY54HW9N8U5K","3P7RGTLO6EZ76AO3386R8ZK9IWWKAW","","null","<img src=""img/land4.png"" style=""width:200px; border:14px solid green;"">","null","","","","","","","","","",""
"","image-keyboard-response","54","41761","0.0-54.0","32SVAV9L3GV3WWEQ94JUGWZVFRB3AS","AAY54HW9N8U5K","3P7RGTLO6EZ76AO3386R8ZK9IWWKAW","","332.89999985694885","img/land2.png","75","333.7999999523163","2","1","3","1","0.8,0.2,0.2,0.2,0.8,0.2,0.2,0.2,0.8","0.8,0.2,0.2,0.2,0.8,0.2,0.2,0.2,0.8","1","",""
"","html-keyboard-response","55","42063","0.0-55.0","32SVAV9L3GV3WWEQ94JUGWZVFRB3AS","AAY54HW9N8U5K","3P7RGTLO6EZ76AO3386R8ZK9IWWKAW","","null","<img src=""img/land2.png"" style=""width:200px; border:14px solid green;"">","null","","","","","","","","","",""
"","image-keyboard-response","56","42348","0.0-56.0","32SVAV9L3GV3WWEQ94JUGWZVFRB3AS","AAY54HW9N8U5K","3P7RGTLO6EZ76AO3386R8ZK9IWWKAW","","284.30000019073486","img/land4.png","75","285.09999990463257","2","1","2","1","0.8,0.2,0.2,0.2,0.8,0.2,0.2,0.2,0.8","0.8,0.2,0.2,0.2,0.8,0.2,0.2,0.2,0.8","1","",""
"","html-keyboard-response","57","42650","0.0-57.0","32SVAV9L3GV3WWEQ94JUGWZVFRB3AS","AAY54HW9N8U5K","3P7RGTLO6EZ76AO3386R8ZK9IWWKAW","","null","<img src=""img/land4.png"" style=""width:200px; border:14px solid green;"">","null","","","","","","","","","",""
"","image-keyboard-response","58","42950","0.0-58.0","32SVAV9L3GV3WWEQ94JUGWZVFRB3AS","AAY54HW9N8U5K","3P7RGTLO6EZ76AO3386R8ZK9IWWKAW","","298.69999980926514","img/land2.png","75","299.5","2","0","3","1","0.8,0.2,0.2,0.2,0.8,0.2,0.2,0.2,0.8","0.8,0.2,0.2,0.2,0.8,0.2,0.2,0.2,0.8","1","",""
"","html-keyboard-response","59","43253","0.0-59.0","32SVAV9L3GV3WWEQ94JUGWZVFRB3AS","AAY54HW9N8U5K","3P7RGTLO6EZ76AO3386R8ZK9IWWKAW","","null","<img src=""img/land2.png"" style=""width:200px;border:14px solid red;"">","null","","","","","","","","","",""
"","image-keyboard-response","60","43488","0.0-60.0","32SVAV9L3GV3WWEQ94JUGWZVFRB3AS","AAY54HW9N8U5K","3P7RGTLO6EZ76AO3386R8ZK9IWWKAW","","234","img/land2.png","76","235","3","1","3","1","0.8,0.2,0.2,0.2,0.8,0.2,0.2,0.2,0.8","0.8,0.2,0.2,0.2,0.8,0.2,0.2,0.2,0.8","1","",""
"","html-keyboard-response","61","43789","0.0-61.0","32SVAV9L3GV3WWEQ94JUGWZVFRB3AS","AAY54HW9N8U5K","3P7RGTLO6EZ76AO3386R8ZK9IWWKAW","","null","<img src=""img/land2.png"" style=""width:200px; border:14px solid green;"">","null","","","","","","","","","",""
"","image-keyboard-response","62","44211","0.0-62.0","32SVAV9L3GV3WWEQ94JUGWZVFRB3AS","AAY54HW9N8U5K","3P7RGTLO6EZ76AO3386R8ZK9IWWKAW","","420.89999985694885","img/land6.png","76","421.7000000476837","3","1","1","1","0.8,0.2,0.2,0.2,0.8,0.2,0.2,0.2,0.8","0.8,0.2,0.2,0.2,0.8,0.2,0.2,0.2,0.8","1","",""
"","html-keyboard-response","63","44513","0.0-63.0","32SVAV9L3GV3WWEQ94JUGWZVFRB3AS","AAY54HW9N8U5K","3P7RGTLO6EZ76AO3386R8ZK9IWWKAW","","null","<img src=""img/land6.png"" style=""width:200px; border:14px solid green;"">","null","","","","","","","","","",""
"","image-keyboard-response","64","44772","0.0-64.0","32SVAV9L3GV3WWEQ94JUGWZVFRB3AS","AAY54HW9N8U5K","3P7RGTLO6EZ76AO3386R8ZK9IWWKAW","","258","img/land4.png","76","258.7999999523163","3","0","2","1","0.8,0.2,0.2,0.2,0.8,0.2,0.2,0.2,0.8","0.8,0.2,0.2,0.2,0.8,0.2,0.2,0.2,0.8","1","",""
"","html-keyboard-response","65","45074","0.0-65.0","32SVAV9L3GV3WWEQ94JUGWZVFRB3AS","AAY54HW9N8U5K","3P7RGTLO6EZ76AO3386R8ZK9IWWKAW","","null","<img src=""img/land4.png"" style=""width:200px;border:14px solid red;"">","null","","","","","","","","","",""
"","image-keyboard-response","66","45246","0.0-66.0","32SVAV9L3GV3WWEQ94JUGWZVFRB3AS","AAY54HW9N8U5K","3P7RGTLO6EZ76AO3386R8ZK9IWWKAW","","170.60000014305115","img/land6.png","75","171.5","2","0","1","1","0.8,0.2,0.2,0.2,0.8,0.2,0.2,0.2,0.8","0.8,0.2,0.2,0.2,0.8,0.2,0.2,0.2,0.8","1","",""
"","html-keyboard-response","67","45547","0.0-67.0","32SVAV9L3GV3WWEQ94JUGWZVFRB3AS","AAY54HW9N8U5K","3P7RGTLO6EZ76AO3386R8ZK9IWWKAW","","null","<img src=""img/land6.png"" style=""width:200px;border:14px solid red;"">","null","","","","","","","","","",""
"","image-keyboard-response","68","45706","0.0-68.0","32SVAV9L3GV3WWEQ94JUGWZVFRB3AS","AAY54HW9N8U5K","3P7RGTLO6EZ76AO3386R8ZK9IWWKAW","","157.60000014305115","img/land6.png","76","158.5","3","0","1","1","0.8,0.2,0.2,0.2,0.8,0.2,0.2,0.2,0.8","0.8,0.2,0.2,0.2,0.8,0.2,0.2,0.2,0.8","1","",""
"","html-keyboard-response","69","46009","0.0-69.0","32SVAV9L3GV3WWEQ94JUGWZVFRB3AS","AAY54HW9N8U5K","3P7RGTLO6EZ76AO3386R8ZK9IWWKAW","","null","<img src=""img/land6.png"" style=""width:200px;border:14px solid red;"">","null","","","","","","","","","",""
"","image-keyboard-response","70","46221","0.0-70.0","32SVAV9L3GV3WWEQ94JUGWZVFRB3AS","AAY54HW9N8U5K","3P7RGTLO6EZ76AO3386R8ZK9IWWKAW","","211.40000009536743","img/land6.png","76","212.20000004768372","3","1","1","1","0.8,0.2,0.2,0.2,0.8,0.2,0.2,0.2,0.8","0.8,0.2,0.2,0.2,0.8,0.2,0.2,0.2,0.8","1","",""
"","html-keyboard-response","71","46523","0.0-71.0","32SVAV9L3GV3WWEQ94JUGWZVFRB3AS","AAY54HW9N8U5K","3P7RGTLO6EZ76AO3386R8ZK9IWWKAW","","null","<img src=""img/land6.png"" style=""width:200px; border:14px solid green;"">","null","","","","","","","","","",""
"","image-keyboard-response","72","46930","0.0-72.0","32SVAV9L3GV3WWEQ94JUGWZVFRB3AS","AAY54HW9N8U5K","3P7RGTLO6EZ76AO3386R8ZK9IWWKAW","","405.7999999523163","img/land2.png","76","406.90000009536743","3","1","3","1","0.8,0.2,0.2,0.2,0.8,0.2,0.2,0.2,0.8","0.8,0.2,0.2,0.2,0.8,0.2,0.2,0.2,0.8","1","",""
"","html-keyboard-response","73","47241","0.0-73.0","32SVAV9L3GV3WWEQ94JUGWZVFRB3AS","AAY54HW9N8U5K","3P7RGTLO6EZ76AO3386R8ZK9IWWKAW","","null","<img src=""img/land2.png"" style=""width:200px; border:14px solid green;"">","null","","","","","","","","","",""
"","image-keyboard-response","74","47439","0.0-74.0","32SVAV9L3GV3WWEQ94JUGWZVFRB3AS","AAY54HW9N8U5K","3P7RGTLO6EZ76AO3386R8ZK9IWWKAW","","197.40000009536743","img/land4.png","76","198.5","3","1","2","1","0.8,0.2,0.2,0.2,0.8,0.2,0.2,0.2,0.8","0.8,0.2,0.2,0.2,0.8,0.2,0.2,0.2,0.8","1","",""
"","html-keyboard-response","75","47741","0.0-75.0","32SVAV9L3GV3WWEQ94JUGWZVFRB3AS","AAY54HW9N8U5K","3P7RGTLO6EZ76AO3386R8ZK9IWWKAW","","null","<img src=""img/land4.png"" style=""width:200px; border:14px solid green;"">","null","","","","","","","","","",""
"","image-keyboard-response","76","48009","0.0-76.0","32SVAV9L3GV3WWEQ94JUGWZVFRB3AS","AAY54HW9N8U5K","3P7RGTLO6EZ76AO3386R8ZK9IWWKAW","","267.40000009536743","img/land2.png","76","268.5","3","0","3","1","0.8,0.2,0.2,0.2,0.8,0.2,0.2,0.2,0.8","0.8,0.2,0.2,0.2,0.8,0.2,0.2,0.2,0.8","1","",""
"","html-keyboard-response","77","48312","0.0-77.0","32SVAV9L3GV3WWEQ94JUGWZVFRB3AS","AAY54HW9N8U5K","3P7RGTLO6EZ76AO3386R8ZK9IWWKAW","","null","<img src=""img/land2.png"" style=""width:200px;border:14px solid red;"">","null","","","","","","","","","",""
"","image-keyboard-response","78","48678","0.0-78.0","32SVAV9L3GV3WWEQ94JUGWZVFRB3AS","AAY54HW9N8U5K","3P7RGTLO6EZ76AO3386R8ZK9IWWKAW","","365.39999985694885","img/land2.png","75","366.40000009536743","2","0","3","1","0.8,0.2,0.2,0.2,0.8,0.2,0.2,0.2,0.8","0.8,0.2,0.2,0.2,0.8,0.2,0.2,0.2,0.8","1","",""
"","html-keyboard-response","79","48980","0.0-79.0","32SVAV9L3GV3WWEQ94JUGWZVFRB3AS","AAY54HW9N8U5K","3P7RGTLO6EZ76AO3386R8ZK9IWWKAW","","null","<img src=""img/land2.png"" style=""width:200px;border:14px solid red;"">","null","","","","","","","","","",""
"","image-keyboard-response","80","49148","0.0-80.0","32SVAV9L3GV3WWEQ94JUGWZVFRB3AS","AAY54HW9N8U5K","3P7RGTLO6EZ76AO3386R8ZK9IWWKAW","","166.90000009536743","img/land4.png","76","167.59999990463257","3","0","2","1","0.8,0.2,0.2,0.2,0.8,0.2,0.2,0.2,0.8","0.8,0.2,0.2,0.2,0.8,0.2,0.2,0.2,0.8","1","",""
"","html-keyboard-response","81","49449","0.0-81.0","32SVAV9L3GV3WWEQ94JUGWZVFRB3AS","AAY54HW9N8U5K","3P7RGTLO6EZ76AO3386R8ZK9IWWKAW","","null","<img src=""img/land4.png"" style=""width:200px;border:14px solid red;"">","null","","","","","","","","","",""
"","image-keyboard-response","82","50214","0.0-82.0","32SVAV9L3GV3WWEQ94JUGWZVFRB3AS","AAY54HW9N8U5K","3P7RGTLO6EZ76AO3386R8ZK9IWWKAW","","763.6000001430511","img/land4.png","76","764.5","3","0","2","1","0.8,0.2,0.2,0.2,0.8,0.2,0.2,0.2,0.8","0.8,0.2,0.2,0.2,0.8,0.2,0.2,0.2,0.8","1","",""
"","html-keyboard-response","83","50515","0.0-83.0","32SVAV9L3GV3WWEQ94JUGWZVFRB3AS","AAY54HW9N8U5K","3P7RGTLO6EZ76AO3386R8ZK9IWWKAW","","null","<img src=""img/land4.png"" style=""width:200px;border:14px solid red;"">","null","","","","","","","","","",""
"","image-keyboard-response","84","50644","0.0-84.0","32SVAV9L3GV3WWEQ94JUGWZVFRB3AS","AAY54HW9N8U5K","3P7RGTLO6EZ76AO3386R8ZK9IWWKAW","","128","img/land4.png","76","129","3","0","2","1","0.8,0.2,0.2,0.2,0.8,0.2,0.2,0.2,0.8","0.8,0.2,0.2,0.2,0.8,0.2,0.2,0.2,0.8","1","",""
"","html-keyboard-response","85","50946","0.0-85.0","32SVAV9L3GV3WWEQ94JUGWZVFRB3AS","AAY54HW9N8U5K","3P7RGTLO6EZ76AO3386R8ZK9IWWKAW","","null","<img src=""img/land4.png"" style=""width:200px;border:14px solid red;"">","null","","","","","","","","","",""
"","image-keyboard-response","86","51422","0.0-86.0","32SVAV9L3GV3WWEQ94JUGWZVFRB3AS","AAY54HW9N8U5K","3P7RGTLO6EZ76AO3386R8ZK9IWWKAW","","475.2000000476837","img/land4.png","75","476","2","1","2","1","0.8,0.2,0.2,0.2,0.8,0.2,0.2,0.2,0.8","0.8,0.2,0.2,0.2,0.8,0.2,0.2,0.2,0.8","1","",""
"","html-keyboard-response","87","51727","0.0-87.0","32SVAV9L3GV3WWEQ94JUGWZVFRB3AS","AAY54HW9N8U5K","3P7RGTLO6EZ76AO3386R8ZK9IWWKAW","","null","<img src=""img/land4.png"" style=""width:200px; border:14px solid green;"">","null","","","","","","","","","",""
"","image-keyboard-response","88","52027","0.0-88.0","32SVAV9L3GV3WWEQ94JUGWZVFRB3AS","AAY54HW9N8U5K","3P7RGTLO6EZ76AO3386R8ZK9IWWKAW","","299.2000000476837","img/land4.png","75","300","2","1","2","1","0.8,0.2,0.2,0.2,0.8,0.2,0.2,0.2,0.8","0.8,0.2,0.2,0.2,0.8,0.2,0.2,0.2,0.8","1","",""
"","html-keyboard-response","89","52329","0.0-89.0","32SVAV9L3GV3WWEQ94JUGWZVFRB3AS","AAY54HW9N8U5K","3P7RGTLO6EZ76AO3386R8ZK9IWWKAW","","null","<img src=""img/land4.png"" style=""width:200px; border:14px solid green;"">","null","","","","","","","","","",""
"","image-keyboard-response","90","52578","0.0-90.0","32SVAV9L3GV3WWEQ94JUGWZVFRB3AS","AAY54HW9N8U5K","3P7RGTLO6EZ76AO3386R8ZK9IWWKAW","","248","img/land4.png","75","248.79999995231628","2","1","2","1","0.8,0.2,0.2,0.2,0.8,0.2,0.2,0.2,0.8","0.8,0.2,0.2,0.2,0.8,0.2,0.2,0.2,0.8","1","",""
"","html-keyboard-response","91","52880","0.0-91.0","32SVAV9L3GV3WWEQ94JUGWZVFRB3AS","AAY54HW9N8U5K","3P7RGTLO6EZ76AO3386R8ZK9IWWKAW","","null","<img src=""img/land4.png"" style=""width:200px; border:14px solid green;"">","null","","","","","","","","","",""
"","image-keyboard-response","92","53156","0.0-92.0","32SVAV9L3GV3WWEQ94JUGWZVFRB3AS","AAY54HW9N8U5K","3P7RGTLO6EZ76AO3386R8ZK9IWWKAW","","274.5","img/land6.png","75","275.5","2","0","1","1","0.8,0.2,0.2,0.2,0.8,0.2,0.2,0.2,0.8","0.8,0.2,0.2,0.2,0.8,0.2,0.2,0.2,0.8","1","",""
"","html-keyboard-response","93","53457","0.0-93.0","32SVAV9L3GV3WWEQ94JUGWZVFRB3AS","AAY54HW9N8U5K","3P7RGTLO6EZ76AO3386R8ZK9IWWKAW","","null","<img src=""img/land6.png"" style=""width:200px;border:14px solid red;"">","null","","","","","","","","","",""
"","image-keyboard-response","94","53515","0.0-94.0","32SVAV9L3GV3WWEQ94JUGWZVFRB3AS","AAY54HW9N8U5K","3P7RGTLO6EZ76AO3386R8ZK9IWWKAW","","56.39999985694885","img/land6.png","76","57.09999990463257","3","0","1","1","0.8,0.2,0.2,0.2,0.8,0.2,0.2,0.2,0.8","0.8,0.2,0.2,0.2,0.8,0.2,0.2,0.2,0.8","1","",""
"","html-keyboard-response","95","53816","0.0-95.0","32SVAV9L3GV3WWEQ94JUGWZVFRB3AS","AAY54HW9N8U5K","3P7RGTLO6EZ76AO3386R8ZK9IWWKAW","","null","<img src=""img/land6.png"" style=""width:200px;border:14px solid red;"">","null","","","","","","","","","",""
"","image-keyboard-response","96","53949","0.0-96.0","32SVAV9L3GV3WWEQ94JUGWZVFRB3AS","AAY54HW9N8U5K","3P7RGTLO6EZ76AO3386R8ZK9IWWKAW","","131.59999990463257","img/land4.png","75","132.09999990463257","2","0","2","1","0.8,0.2,0.2,0.2,0.8,0.2,0.2,0.2,0.8","0.8,0.2,0.2,0.2,0.8,0.2,0.2,0.2,0.8","1","",""
"","html-keyboard-response","97","54251","0.0-97.0","32SVAV9L3GV3WWEQ94JUGWZVFRB3AS","AAY54HW9N8U5K","3P7RGTLO6EZ76AO3386R8ZK9IWWKAW","","null","<img src=""img/land4.png"" style=""width:200px;border:14px solid red;"">","null","","","","","","","","","",""
"","image-keyboard-response","98","54525","0.0-98.0","32SVAV9L3GV3WWEQ94JUGWZVFRB3AS","AAY54HW9N8U5K","3P7RGTLO6EZ76AO3386R8ZK9IWWKAW","","272.7000000476837","img/land6.png","75","273.40000009536743","2","0","1","1","0.8,0.2,0.2,0.2,0.8,0.2,0.2,0.2,0.8","0.8,0.2,0.2,0.2,0.8,0.2,0.2,0.2,0.8","1","",""
"","html-keyboard-response","99","54826","0.0-99.0","32SVAV9L3GV3WWEQ94JUGWZVFRB3AS","AAY54HW9N8U5K","3P7RGTLO6EZ76AO3386R8ZK9IWWKAW","","null","<img src=""img/land6.png"" style=""width:200px;border:14px solid red;"">","null","","","","","","","","","",""
"","image-keyboard-response","100","54918","0.0-100.0","32SVAV9L3GV3WWEQ94JUGWZVFRB3AS","AAY54HW9N8U5K","3P7RGTLO6EZ76AO3386R8ZK9IWWKAW","","90.09999990463257","img/land6.png","76","91","3","0","1","1","0.8,0.2,0.2,0.2,0.8,0.2,0.2,0.2,0.8","0.8,0.2,0.2,0.2,0.8,0.2,0.2,0.2,0.8","1","",""
"","html-keyboard-response","101","55219","0.0-101.0","32SVAV9L3GV3WWEQ94JUGWZVFRB3AS","AAY54HW9N8U5K","3P7RGTLO6EZ76AO3386R8ZK9IWWKAW","","null","<img src=""img/land6.png"" style=""width:200px;border:14px solid red;"">","null","","","","","","","","","",""
"","image-keyboard-response","102","55801","0.0-102.0","32SVAV9L3GV3WWEQ94JUGWZVFRB3AS","AAY54HW9N8U5K","3P7RGTLO6EZ76AO3386R8ZK9IWWKAW","","581","img/land6.png","75","581.7000000476837","2","1","1","1","0.8,0.2,0.2,0.2,0.8,0.2,0.2,0.2,0.8","0.8,0.2,0.2,0.2,0.8,0.2,0.2,0.2,0.8","1","",""
"","html-keyboard-response","103","56102","0.0-103.0","32SVAV9L3GV3WWEQ94JUGWZVFRB3AS","AAY54HW9N8U5K","3P7RGTLO6EZ76AO3386R8ZK9IWWKAW","","null","<img src=""img/land6.png"" style=""width:200px; border:14px solid green;"">","null","","","","","","","","","",""
"","image-keyboard-response","104","56458","0.0-104.0","32SVAV9L3GV3WWEQ94JUGWZVFRB3AS","AAY54HW9N8U5K","3P7RGTLO6EZ76AO3386R8ZK9IWWKAW","","355.19999980926514","img/land4.png","75","355.7999999523163","2","1","2","1","0.8,0.2,0.2,0.2,0.8,0.2,0.2,0.2,0.8","0.8,0.2,0.2,0.2,0.8,0.2,0.2,0.2,0.8","1","",""
"","html-keyboard-response","105","56760","0.0-105.0","32SVAV9L3GV3WWEQ94JUGWZVFRB3AS","AAY54HW9N8U5K","3P7RGTLO6EZ76AO3386R8ZK9IWWKAW","","null","<img src=""img/land4.png"" style=""width:200px; border:14px solid green;"">","null","","","","","","","","","",""
"","image-keyboard-response","106","56898","0.0-106.0","32SVAV9L3GV3WWEQ94JUGWZVFRB3AS","AAY54HW9N8U5K","3P7RGTLO6EZ76AO3386R8ZK9IWWKAW","","137.29999995231628","img/land2.png","75","138.10000014305115","2","0","3","1","0.8,0.2,0.2,0.2,0.8,0.2,0.2,0.2,0.8","0.8,0.2,0.2,0.2,0.8,0.2,0.2,0.2,0.8","1","",""
"","html-keyboard-response","107","57199","0.0-107.0","32SVAV9L3GV3WWEQ94JUGWZVFRB3AS","AAY54HW9N8U5K","3P7RGTLO6EZ76AO3386R8ZK9IWWKAW","","null","<img src=""img/land2.png"" style=""width:200px;border:14px solid red;"">","null","","","","","","","","","",""
"","image-keyboard-response","108","57558","0.0-108.0","32SVAV9L3GV3WWEQ94JUGWZVFRB3AS","AAY54HW9N8U5K","3P7RGTLO6EZ76AO3386R8ZK9IWWKAW","","357.2999999523163","img/land4.png","76","358.10000014305115","3","0","2","1","0.8,0.2,0.2,0.2,0.8,0.2,0.2,0.2,0.8","0.8,0.2,0.2,0.2,0.8,0.2,0.2,0.2,0.8","1","",""
"","html-keyboard-response","109","57859","0.0-109.0","32SVAV9L3GV3WWEQ94JUGWZVFRB3AS","AAY54HW9N8U5K","3P7RGTLO6EZ76AO3386R8ZK9IWWKAW","","null","<img src=""img/land4.png"" style=""width:200px;border:14px solid red;"">","null","","","","","","","","","",""
"","image-keyboard-response","110","58032","0.0-110.0","32SVAV9L3GV3WWEQ94JUGWZVFRB3AS","AAY54HW9N8U5K","3P7RGTLO6EZ76AO3386R8ZK9IWWKAW","","171.69999980926514","img/land6.png","76","172.5","3","1","1","1","0.8,0.2,0.2,0.2,0.8,0.2,0.2,0.2,0.8","0.8,0.2,0.2,0.2,0.8,0.2,0.2,0.2,0.8","1","",""
"","html-keyboard-response","111","58335","0.0-111.0","32SVAV9L3GV3WWEQ94JUGWZVFRB3AS","AAY54HW9N8U5K","3P7RGTLO6EZ76AO3386R8ZK9IWWKAW","","null","<img src=""img/land6.png"" style=""width:200px; border:14px solid green;"">","null","","","","","","","","","",""
"","image-keyboard-response","112","58584","0.0-112.0","32SVAV9L3GV3WWEQ94JUGWZVFRB3AS","AAY54HW9N8U5K","3P7RGTLO6EZ76AO3386R8ZK9IWWKAW","","248.79999995231628","img/land6.png","76","249.40000009536743","3","0","1","1","0.8,0.2,0.2,0.2,0.8,0.2,0.2,0.2,0.8","0.8,0.2,0.2,0.2,0.8,0.2,0.2,0.2,0.8","1","",""
"","html-keyboard-response","113","58886","0.0-113.0","32SVAV9L3GV3WWEQ94JUGWZVFRB3AS","AAY54HW9N8U5K","3P7RGTLO6EZ76AO3386R8ZK9IWWKAW","","null","<img src=""img/land6.png"" style=""width:200px;border:14px solid red;"">","null","","","","","","","","","",""
"","image-keyboard-response","114","59029","0.0-114.0","32SVAV9L3GV3WWEQ94JUGWZVFRB3AS","AAY54HW9N8U5K","3P7RGTLO6EZ76AO3386R8ZK9IWWKAW","","141.39999985694885","img/land6.png","75","142.19999980926514","2","0","1","1","0.8,0.2,0.2,0.2,0.8,0.2,0.2,0.2,0.8","0.8,0.2,0.2,0.2,0.8,0.2,0.2,0.2,0.8","1","",""
"","html-keyboard-response","115","59330","0.0-115.0","32SVAV9L3GV3WWEQ94JUGWZVFRB3AS","AAY54HW9N8U5K","3P7RGTLO6EZ76AO3386R8ZK9IWWKAW","","null","<img src=""img/land6.png"" style=""width:200px;border:14px solid red;"">","null","","","","","","","","","",""
"","image-keyboard-response","116","59609","0.0-116.0","32SVAV9L3GV3WWEQ94JUGWZVFRB3AS","AAY54HW9N8U5K","3P7RGTLO6EZ76AO3386R8ZK9IWWKAW","","277.2999999523163","img/land4.png","76","278.2000000476837","3","0","2","1","0.8,0.2,0.2,0.2,0.8,0.2,0.2,0.2,0.8","0.8,0.2,0.2,0.2,0.8,0.2,0.2,0.2,0.8","1","",""
"","html-keyboard-response","117","59910","0.0-117.0","32SVAV9L3GV3WWEQ94JUGWZVFRB3AS","AAY54HW9N8U5K","3P7RGTLO6EZ76AO3386R8ZK9IWWKAW","","null","<img src=""img/land4.png"" style=""width:200px;border:14px solid red;"">","null","","","","","","","","","",""
"","image-keyboard-response","118","59989","0.0-118.0","32SVAV9L3GV3WWEQ94JUGWZVFRB3AS","AAY54HW9N8U5K","3P7RGTLO6EZ76AO3386R8ZK9IWWKAW","","77.5","img/land4.png","75","78.40000009536743","2","1","2","1","0.8,0.2,0.2,0.2,0.8,0.2,0.2,0.2,0.8","0.8,0.2,0.2,0.2,0.8,0.2,0.2,0.2,0.8","1","",""
"","html-keyboard-response","119","60291","0.0-119.0","32SVAV9L3GV3WWEQ94JUGWZVFRB3AS","AAY54HW9N8U5K","3P7RGTLO6EZ76AO3386R8ZK9IWWKAW","","null","<img src=""img/land4.png"" style=""width:200px; border:14px solid green;"">","null","","","","","","","","","",""
"","image-keyboard-response","120","60591","0.0-120.0","32SVAV9L3GV3WWEQ94JUGWZVFRB3AS","AAY54HW9N8U5K","3P7RGTLO6EZ76AO3386R8ZK9IWWKAW","","299.2999999523163","img/land4.png","75","300.2000000476837","2","1","2","1","0.8,0.2,0.2,0.2,0.8,0.2,0.2,0.2,0.8","0.8,0.2,0.2,0.2,0.8,0.2,0.2,0.2,0.8","1","",""
"","html-keyboard-response","121","60901","0.0-121.0","32SVAV9L3GV3WWEQ94JUGWZVFRB3AS","AAY54HW9N8U5K","3P7RGTLO6EZ76AO3386R8ZK9IWWKAW","","null","<img src=""img/land4.png"" style=""width:200px; border:14px solid green;"">","null","","","","","","","","","",""
"","image-keyboard-response","122","61154","0.0-122.0","32SVAV9L3GV3WWEQ94JUGWZVFRB3AS","AAY54HW9N8U5K","3P7RGTLO6EZ76AO3386R8ZK9IWWKAW","","252.20000004768372","img/land4.png","75","253.09999990463257","2","1","2","1","0.8,0.2,0.2,0.2,0.8,0.2,0.2,0.2,0.8","0.8,0.2,0.2,0.2,0.8,0.2,0.2,0.2,0.8","1","",""
"","html-keyboard-response","123","61455","0.0-123.0","32SVAV9L3GV3WWEQ94JUGWZVFRB3AS","AAY54HW9N8U5K","3P7RGTLO6EZ76AO3386R8ZK9IWWKAW","","null","<img src=""img/land4.png"" style=""width:200px; border:14px solid green;"">","null","","","","","","","","","",""
"","image-keyboard-response","124","61806","0.0-124.0","32SVAV9L3GV3WWEQ94JUGWZVFRB3AS","AAY54HW9N8U5K","3P7RGTLO6EZ76AO3386R8ZK9IWWKAW","","349.7000000476837","img/land6.png","75","350.69999980926514","2","0","1","1","0.8,0.2,0.2,0.2,0.8,0.2,0.2,0.2,0.8","0.8,0.2,0.2,0.2,0.8,0.2,0.2,0.2,0.8","1","",""
"","html-keyboard-response","125","62108","0.0-125.0","32SVAV9L3GV3WWEQ94JUGWZVFRB3AS","AAY54HW9N8U5K","3P7RGTLO6EZ76AO3386R8ZK9IWWKAW","","null","<img src=""img/land6.png"" style=""width:200px;border:14px solid red;"">","null","","","","","","","","","",""
"","image-keyboard-response","126","62216","0.0-126.0","32SVAV9L3GV3WWEQ94JUGWZVFRB3AS","AAY54HW9N8U5K","3P7RGTLO6EZ76AO3386R8ZK9IWWKAW","","107.40000009536743","img/land4.png","76","108.39999985694885","3","0","2","1","0.8,0.2,0.2,0.2,0.8,0.2,0.2,0.2,0.8","0.8,0.2,0.2,0.2,0.8,0.2,0.2,0.2,0.8","1","",""
"","html-keyboard-response","127","62519","0.0-127.0","32SVAV9L3GV3WWEQ94JUGWZVFRB3AS","AAY54HW9N8U5K","3P7RGTLO6EZ76AO3386R8ZK9IWWKAW","","null","<img src=""img/land4.png"" style=""width:200px;border:14px solid red;"">","null","","","","","","","","","",""
"","image-keyboard-response","128","62608","0.0-128.0","32SVAV9L3GV3WWEQ94JUGWZVFRB3AS","AAY54HW9N8U5K","3P7RGTLO6EZ76AO3386R8ZK9IWWKAW","","88.20000004768372","img/land2.png","76","88.89999985694885","3","0","3","1","0.8,0.2,0.2,0.2,0.8,0.2,0.2,0.2,0.8","0.8,0.2,0.2,0.2,0.8,0.2,0.2,0.2,0.8","1","",""
"","html-keyboard-response","129","62909","0.0-129.0","32SVAV9L3GV3WWEQ94JUGWZVFRB3AS","AAY54HW9N8U5K","3P7RGTLO6EZ76AO3386R8ZK9IWWKAW","","null","<img src=""img/land2.png"" style=""width:200px;border:14px solid red;"">","null","","","","","","","","","",""
"","image-keyboard-response","130","63036","0.0-130.0","32SVAV9L3GV3WWEQ94JUGWZVFRB3AS","AAY54HW9N8U5K","3P7RGTLO6EZ76AO3386R8ZK9IWWKAW","","125.90000009536743","img/land2.png","76","126.79999995231628","3","1","3","1","0.8,0.2,0.2,0.2,0.8,0.2,0.2,0.2,0.8","0.8,0.2,0.2,0.2,0.8,0.2,0.2,0.2,0.8","1","",""
"","html-keyboard-response","131","63338","0.0-131.0","32SVAV9L3GV3WWEQ94JUGWZVFRB3AS","AAY54HW9N8U5K","3P7RGTLO6EZ76AO3386R8ZK9IWWKAW","","null","<img src=""img/land2.png"" style=""width:200px; border:14px solid green;"">","null","","","","","","","","","",""
"","image-keyboard-response","132","63542","0.0-132.0","32SVAV9L3GV3WWEQ94JUGWZVFRB3AS","AAY54HW9N8U5K","3P7RGTLO6EZ76AO3386R8ZK9IWWKAW","","202.79999995231628","img/land4.png","76","203.70000004768372","3","0","2","1","0.8,0.2,0.2,0.2,0.8,0.2,0.2,0.2,0.8","0.8,0.2,0.2,0.2,0.8,0.2,0.2,0.2,0.8","1","",""
"","html-keyboard-response","133","63843","0.0-133.0","32SVAV9L3GV3WWEQ94JUGWZVFRB3AS","AAY54HW9N8U5K","3P7RGTLO6EZ76AO3386R8ZK9IWWKAW","","null","<img src=""img/land4.png"" style=""width:200px;border:14px solid red;"">","null","","","","","","","","","",""
"","image-keyboard-response","134","64177","0.0-134.0","32SVAV9L3GV3WWEQ94JUGWZVFRB3AS","AAY54HW9N8U5K","3P7RGTLO6EZ76AO3386R8ZK9IWWKAW","","332.80000019073486","img/land2.png","75","333.69999980926514","2","0","3","1","0.8,0.2,0.2,0.2,0.8,0.2,0.2,0.2,0.8","0.8,0.2,0.2,0.2,0.8,0.2,0.2,0.2,0.8","1","",""
"","html-keyboard-response","135","64479","0.0-135.0","32SVAV9L3GV3WWEQ94JUGWZVFRB3AS","AAY54HW9N8U5K","3P7RGTLO6EZ76AO3386R8ZK9IWWKAW","","null","<img src=""img/land2.png"" style=""width:200px;border:14px solid red;"">","null","","","","","","","","","",""
"","image-keyboard-response","136","64519","0.0-136.0","32SVAV9L3GV3WWEQ94JUGWZVFRB3AS","AAY54HW9N8U5K","3P7RGTLO6EZ76AO3386R8ZK9IWWKAW","","39.200000047683716","img/land6.png","76","39.799999952316284","3","1","1","1","0.8,0.2,0.2,0.2,0.8,0.2,0.2,0.2,0.8","0.8,0.2,0.2,0.2,0.8,0.2,0.2,0.2,0.8","1","",""
"","html-keyboard-response","137","64821","0.0-137.0","32SVAV9L3GV3WWEQ94JUGWZVFRB3AS","AAY54HW9N8U5K","3P7RGTLO6EZ76AO3386R8ZK9IWWKAW","","null","<img src=""img/land6.png"" style=""width:200px; border:14px solid green;"">","null","","","","","","","","","",""
"","image-keyboard-response","138","65027","0.0-138.0","32SVAV9L3GV3WWEQ94JUGWZVFRB3AS","AAY54HW9N8U5K","3P7RGTLO6EZ76AO3386R8ZK9IWWKAW","","205.40000009536743","img/land2.png","76","206.29999995231628","3","1","3","1","0.8,0.2,0.2,0.2,0.8,0.2,0.2,0.2,0.8","0.8,0.2,0.2,0.2,0.8,0.2,0.2,0.2,0.8","1","",""
"","html-keyboard-response","139","65329","0.0-139.0","32SVAV9L3GV3WWEQ94JUGWZVFRB3AS","AAY54HW9N8U5K","3P7RGTLO6EZ76AO3386R8ZK9IWWKAW","","null","<img src=""img/land2.png"" style=""width:200px; border:14px solid green;"">","null","","","","","","","","","",""
"","image-keyboard-response","140","65451","0.0-140.0","32SVAV9L3GV3WWEQ94JUGWZVFRB3AS","AAY54HW9N8U5K","3P7RGTLO6EZ76AO3386R8ZK9IWWKAW","","119.60000014305115","img/land2.png","76","120.29999995231628","3","1","3","1","0.8,0.2,0.2,0.2,0.8,0.2,0.2,0.2,0.8","0.8,0.2,0.2,0.2,0.8,0.2,0.2,0.2,0.8","1","",""
"","html-keyboard-response","141","65753","0.0-141.0","32SVAV9L3GV3WWEQ94JUGWZVFRB3AS","AAY54HW9N8U5K","3P7RGTLO6EZ76AO3386R8ZK9IWWKAW","","null","<img src=""img/land2.png"" style=""width:200px; border:14px solid green;"">","null","","","","","","","","","",""
"","image-keyboard-response","142","65952","0.0-142.0","32SVAV9L3GV3WWEQ94JUGWZVFRB3AS","AAY54HW9N8U5K","3P7RGTLO6EZ76AO3386R8ZK9IWWKAW","","197.80000019073486","img/land6.png","76","198.79999995231628","3","0","1","1","0.8,0.2,0.2,0.2,0.8,0.2,0.2,0.2,0.8","0.8,0.2,0.2,0.2,0.8,0.2,0.2,0.2,0.8","1","",""
"","html-keyboard-response","143","66254","0.0-143.0","32SVAV9L3GV3WWEQ94JUGWZVFRB3AS","AAY54HW9N8U5K","3P7RGTLO6EZ76AO3386R8ZK9IWWKAW","","null","<img src=""img/land6.png"" style=""width:200px;border:14px solid red;"">","null","","","","","","","","","",""
"","image-keyboard-response","144","66334","0.0-144.0","32SVAV9L3GV3WWEQ94JUGWZVFRB3AS","AAY54HW9N8U5K","3P7RGTLO6EZ76AO3386R8ZK9IWWKAW","","79.70000004768372","img/land2.png","75","80.40000009536743","2","0","3","1","0.8,0.2,0.2,0.2,0.8,0.2,0.2,0.2,0.8","0.8,0.2,0.2,0.2,0.8,0.2,0.2,0.2,0.8","1","",""
"","html-keyboard-response","145","66636","0.0-145.0","32SVAV9L3GV3WWEQ94JUGWZVFRB3AS","AAY54HW9N8U5K","3P7RGTLO6EZ76AO3386R8ZK9IWWKAW","","null","<img src=""img/land2.png"" style=""width:200px;border:14px solid red;"">","null","","","","","","","","","",""
"","image-keyboard-response","146","67022","0.0-146.0","32SVAV9L3GV3WWEQ94JUGWZVFRB3AS","AAY54HW9N8U5K","3P7RGTLO6EZ76AO3386R8ZK9IWWKAW","","384.5","img/land2.png","75","385.5","2","0","3","1","0.8,0.2,0.2,0.2,0.8,0.2,0.2,0.2,0.8","0.8,0.2,0.2,0.2,0.8,0.2,0.2,0.2,0.8","1","",""
"","html-keyboard-response","147","67324","0.0-147.0","32SVAV9L3GV3WWEQ94JUGWZVFRB3AS","AAY54HW9N8U5K","3P7RGTLO6EZ76AO3386R8ZK9IWWKAW","","null","<img src=""img/land2.png"" style=""width:200px;border:14px solid red;"">","null","","","","","","","","","",""
"","image-keyboard-response","148","67327","0.0-148.0","32SVAV9L3GV3WWEQ94JUGWZVFRB3AS","AAY54HW9N8U5K","3P7RGTLO6EZ76AO3386R8ZK9IWWKAW","","1.7999999523162842","img/land4.png","76","2.8000001907348633","3","0","2","1","0.8,0.2,0.2,0.2,0.8,0.2,0.2,0.2,0.8","0.8,0.2,0.2,0.2,0.8,0.2,0.2,0.2,0.8","1","",""
"","html-keyboard-response","149","67628","0.0-149.0","32SVAV9L3GV3WWEQ94JUGWZVFRB3AS","AAY54HW9N8U5K","3P7RGTLO6EZ76AO3386R8ZK9IWWKAW","","null","<img src=""img/land4.png"" style=""width:200px;border:14px solid red;"">","null","","","","","","","","","",""
"","image-keyboard-response","150","68056","0.0-150.0","32SVAV9L3GV3WWEQ94JUGWZVFRB3AS","AAY54HW9N8U5K","3P7RGTLO6EZ76AO3386R8ZK9IWWKAW","","426.60000014305115","img/land6.png","75","427.39999985694885","2","0","1","1","0.8,0.2,0.2,0.2,0.8,0.2,0.2,0.2,0.8","0.8,0.2,0.2,0.2,0.8,0.2,0.2,0.2,0.8","1","",""
"","html-keyboard-response","151","68357","0.0-151.0","32SVAV9L3GV3WWEQ94JUGWZVFRB3AS","AAY54HW9N8U5K","3P7RGTLO6EZ76AO3386R8ZK9IWWKAW","","null","<img src=""img/land6.png"" style=""width:200px;border:14px solid red;"">","null","","","","","","","","","",""
"","image-keyboard-response","152","68451","0.0-152.0","32SVAV9L3GV3WWEQ94JUGWZVFRB3AS","AAY54HW9N8U5K","3P7RGTLO6EZ76AO3386R8ZK9IWWKAW","","92.89999985694885","img/land6.png","75","93.70000004768372","2","0","1","1","0.8,0.2,0.2,0.2,0.8,0.2,0.2,0.2,0.8","0.8,0.2,0.2,0.2,0.8,0.2,0.2,0.2,0.8","1","",""
"","html-keyboard-response","153","68753","0.0-153.0","32SVAV9L3GV3WWEQ94JUGWZVFRB3AS","AAY54HW9N8U5K","3P7RGTLO6EZ76AO3386R8ZK9IWWKAW","","null","<img src=""img/land6.png"" style=""width:200px;border:14px solid red;"">","null","","","","","","","","","",""
"","image-keyboard-response","154","68869","0.0-154.0","32SVAV9L3GV3WWEQ94JUGWZVFRB3AS","AAY54HW9N8U5K","3P7RGTLO6EZ76AO3386R8ZK9IWWKAW","","115.90000009536743","img/land2.png","75","116.70000004768372","2","0","3","1","0.8,0.2,0.2,0.2,0.8,0.2,0.2,0.2,0.8","0.8,0.2,0.2,0.2,0.8,0.2,0.2,0.2,0.8","1","",""
"","html-keyboard-response","155","69171","0.0-155.0","32SVAV9L3GV3WWEQ94JUGWZVFRB3AS","AAY54HW9N8U5K","3P7RGTLO6EZ76AO3386R8ZK9IWWKAW","","null","<img src=""img/land2.png"" style=""width:200px;border:14px solid red;"">","null","","","","","","","","","",""
"","image-keyboard-response","156","69222","0.0-156.0","32SVAV9L3GV3WWEQ94JUGWZVFRB3AS","AAY54HW9N8U5K","3P7RGTLO6EZ76AO3386R8ZK9IWWKAW","","50.10000014305115","img/land4.png","76","51","3","0","2","1","0.8,0.2,0.2,0.2,0.8,0.2,0.2,0.2,0.8","0.8,0.2,0.2,0.2,0.8,0.2,0.2,0.2,0.8","1","",""
"","html-keyboard-response","157","69534","0.0-157.0","32SVAV9L3GV3WWEQ94JUGWZVFRB3AS","AAY54HW9N8U5K","3P7RGTLO6EZ76AO3386R8ZK9IWWKAW","","null","<img src=""img/land4.png"" style=""width:200px;border:14px solid red;"">","null","","","","","","","","","",""
"","image-keyboard-response","158","69670","0.0-158.0","32SVAV9L3GV3WWEQ94JUGWZVFRB3AS","AAY54HW9N8U5K","3P7RGTLO6EZ76AO3386R8ZK9IWWKAW","","134.59999990463257","img/land4.png","76","135.59999990463257","3","1","2","1","0.8,0.2,0.2,0.2,0.8,0.2,0.2,0.2,0.8","0.8,0.2,0.2,0.2,0.8,0.2,0.2,0.2,0.8","1","",""
"","html-keyboard-response","159","69972","0.0-159.0","32SVAV9L3GV3WWEQ94JUGWZVFRB3AS","AAY54HW9N8U5K","3P7RGTLO6EZ76AO3386R8ZK9IWWKAW","","null","<img src=""img/land4.png"" style=""width:200px; border:14px solid green;"">","null","","","","","","","","","",""
"","image-keyboard-response","160","70174","0.0-160.0","32SVAV9L3GV3WWEQ94JUGWZVFRB3AS","AAY54HW9N8U5K","3P7RGTLO6EZ76AO3386R8ZK9IWWKAW","","200.79999995231628","img/land6.png","76","201.60000014305115","3","1","1","1","0.8,0.2,0.2,0.2,0.8,0.2,0.2,0.2,0.8","0.8,0.2,0.2,0.2,0.8,0.2,0.2,0.2,0.8","1","",""
"","html-keyboard-response","161","70476","0.0-161.0","32SVAV9L3GV3WWEQ94JUGWZVFRB3AS","AAY54HW9N8U5K","3P7RGTLO6EZ76AO3386R8ZK9IWWKAW","","null","<img src=""img/land6.png"" style=""width:200px; border:14px solid green;"">","null","","","","","","","","","",""
"","image-keyboard-response","162","70627","0.0-162.0","32SVAV9L3GV3WWEQ94JUGWZVFRB3AS","AAY54HW9N8U5K","3P7RGTLO6EZ76AO3386R8ZK9IWWKAW","","149.89999985694885","img/land2.png","76","150.79999995231628","3","1","3","1","0.8,0.2,0.2,0.2,0.8,0.2,0.2,0.2,0.8","0.8,0.2,0.2,0.2,0.8,0.2,0.2,0.2,0.8","1","",""
"","html-keyboard-response","163","70929","0.0-163.0","32SVAV9L3GV3WWEQ94JUGWZVFRB3AS","AAY54HW9N8U5K","3P7RGTLO6EZ76AO3386R8ZK9IWWKAW","","null","<img src=""img/land2.png"" style=""width:200px; border:14px solid green;"">","null","","","","","","","","","",""
"","image-keyboard-response","164","70984","0.0-164.0","32SVAV9L3GV3WWEQ94JUGWZVFRB3AS","AAY54HW9N8U5K","3P7RGTLO6EZ76AO3386R8ZK9IWWKAW","","54.09999990463257","img/land4.png","76","55","3","1","2","1","0.8,0.2,0.2,0.2,0.8,0.2,0.2,0.2,0.8","0.8,0.2,0.2,0.2,0.8,0.2,0.2,0.2,0.8","1","",""
"","html-keyboard-response","165","71285","0.0-165.0","32SVAV9L3GV3WWEQ94JUGWZVFRB3AS","AAY54HW9N8U5K","3P7RGTLO6EZ76AO3386R8ZK9IWWKAW","","null","<img src=""img/land4.png"" style=""width:200px; border:14px solid green;"">","null","","","","","","","","","",""
"","image-keyboard-response","166","71413","0.0-166.0","32SVAV9L3GV3WWEQ94JUGWZVFRB3AS","AAY54HW9N8U5K","3P7RGTLO6EZ76AO3386R8ZK9IWWKAW","","127","img/land2.png","76","127.90000009536743","3","0","3","1","0.8,0.2,0.2,0.2,0.8,0.2,0.2,0.2,0.8","0.8,0.2,0.2,0.2,0.8,0.2,0.2,0.2,0.8","1","",""
"","html-keyboard-response","167","71716","0.0-167.0","32SVAV9L3GV3WWEQ94JUGWZVFRB3AS","AAY54HW9N8U5K","3P7RGTLO6EZ76AO3386R8ZK9IWWKAW","","null","<img src=""img/land2.png"" style=""width:200px;border:14px solid red;"">","null","","","","","","","","","",""
"","image-keyboard-response","168","71846","0.0-168.0","32SVAV9L3GV3WWEQ94JUGWZVFRB3AS","AAY54HW9N8U5K","3P7RGTLO6EZ76AO3386R8ZK9IWWKAW","","128.89999985694885","img/land6.png","75","129.89999985694885","2","0","1","1","0.8,0.2,0.2,0.2,0.8,0.2,0.2,0.2,0.8","0.8,0.2,0.2,0.2,0.8,0.2,0.2,0.2,0.8","1","",""
"","html-keyboard-response","169","72148","0.0-169.0","32SVAV9L3GV3WWEQ94JUGWZVFRB3AS","AAY54HW9N8U5K","3P7RGTLO6EZ76AO3386R8ZK9IWWKAW","","null","<img src=""img/land6.png"" style=""width:200px;border:14px solid red;"">","null","","","","","","","","","",""
"","image-keyboard-response","170","72379","0.0-170.0","32SVAV9L3GV3WWEQ94JUGWZVFRB3AS","AAY54HW9N8U5K","3P7RGTLO6EZ76AO3386R8ZK9IWWKAW","","230.20000004768372","img/land6.png","75","231.09999990463257","2","0","1","1","0.8,0.2,0.2,0.2,0.8,0.2,0.2,0.2,0.8","0.8,0.2,0.2,0.2,0.8,0.2,0.2,0.2,0.8","1","",""
"","html-keyboard-response","171","72680","0.0-171.0","32SVAV9L3GV3WWEQ94JUGWZVFRB3AS","AAY54HW9N8U5K","3P7RGTLO6EZ76AO3386R8ZK9IWWKAW","","null","<img src=""img/land6.png"" style=""width:200px;border:14px solid red;"">","null","","","","","","","","","",""
"","image-keyboard-response","172","73049","0.0-172.0","32SVAV9L3GV3WWEQ94JUGWZVFRB3AS","AAY54HW9N8U5K","3P7RGTLO6EZ76AO3386R8ZK9IWWKAW","","367.90000009536743","img/land4.png","76","369","3","0","2","1","0.8,0.2,0.2,0.2,0.8,0.2,0.2,0.2,0.8","0.8,0.2,0.2,0.2,0.8,0.2,0.2,0.2,0.8","1","",""
"","html-keyboard-response","173","73351","0.0-173.0","32SVAV9L3GV3WWEQ94JUGWZVFRB3AS","AAY54HW9N8U5K","3P7RGTLO6EZ76AO3386R8ZK9IWWKAW","","null","<img src=""img/land4.png"" style=""width:200px;border:14px solid red;"">","null","","","","","","","","","",""
"","image-keyboard-response","174","73469","0.0-174.0","32SVAV9L3GV3WWEQ94JUGWZVFRB3AS","AAY54HW9N8U5K","3P7RGTLO6EZ76AO3386R8ZK9IWWKAW","","117.5","img/land4.png","76","118.59999990463257","3","0","2","1","0.8,0.2,0.2,0.2,0.8,0.2,0.2,0.2,0.8","0.8,0.2,0.2,0.2,0.8,0.2,0.2,0.2,0.8","1","",""
"","html-keyboard-response","175","73771","0.0-175.0","32SVAV9L3GV3WWEQ94JUGWZVFRB3AS","AAY54HW9N8U5K","3P7RGTLO6EZ76AO3386R8ZK9IWWKAW","","null","<img src=""img/land4.png"" style=""width:200px;border:14px solid red;"">","null","","","","","","","","","",""
"","image-keyboard-response","176","73833","0.0-176.0","32SVAV9L3GV3WWEQ94JUGWZVFRB3AS","AAY54HW9N8U5K","3P7RGTLO6EZ76AO3386R8ZK9IWWKAW","","61.19999980926514","img/land2.png","75","61.90000009536743","2","0","3","1","0.8,0.2,0.2,0.2,0.8,0.2,0.2,0.2,0.8","0.8,0.2,0.2,0.2,0.8,0.2,0.2,0.2,0.8","1","",""
"","html-keyboard-response","177","74135","0.0-177.0","32SVAV9L3GV3WWEQ94JUGWZVFRB3AS","AAY54HW9N8U5K","3P7RGTLO6EZ76AO3386R8ZK9IWWKAW","","null","<img src=""img/land2.png"" style=""width:200px;border:14px solid red;"">","null","","","","","","","","","",""
"","image-keyboard-response","178","74294","0.0-178.0","32SVAV9L3GV3WWEQ94JUGWZVFRB3AS","AAY54HW9N8U5K","3P7RGTLO6EZ76AO3386R8ZK9IWWKAW","","158.5","img/land6.png","76","159.20000004768372","3","0","1","1","0.8,0.2,0.2,0.2,0.8,0.2,0.2,0.2,0.8","0.8,0.2,0.2,0.2,0.8,0.2,0.2,0.2,0.8","1","",""
"","html-keyboard-response","179","74596","0.0-179.0","32SVAV9L3GV3WWEQ94JUGWZVFRB3AS","AAY54HW9N8U5K","3P7RGTLO6EZ76AO3386R8ZK9IWWKAW","","null","<img src=""img/land6.png"" style=""width:200px;border:14px solid red;"">","null","","","","","","","","","",""
"","image-keyboard-response","180","74792","0.0-180.0","32SVAV9L3GV3WWEQ94JUGWZVFRB3AS","AAY54HW9N8U5K","3P7RGTLO6EZ76AO3386R8ZK9IWWKAW","","194.60000014305115","img/land2.png","75","195.40000009536743","2","0","3","1","0.8,0.2,0.2,0.2,0.8,0.2,0.2,0.2,0.8","0.8,0.2,0.2,0.2,0.8,0.2,0.2,0.2,0.8","1","",""
"","html-keyboard-response","181","75093","0.0-181.0","32SVAV9L3GV3WWEQ94JUGWZVFRB3AS","AAY54HW9N8U5K","3P7RGTLO6EZ76AO3386R8ZK9IWWKAW","","null","<img src=""img/land2.png"" style=""width:200px;border:14px solid red;"">","null","","","","","","","","","",""
"","html-keyboard-response","182","77459","0.0-182.0","32SVAV9L3GV3WWEQ94JUGWZVFRB3AS","AAY54HW9N8U5K","3P7RGTLO6EZ76AO3386R8ZK9IWWKAW","","","","","","","","","","","","","",""
"","image-keyboard-response","183","78898","0.0-183.0","32SVAV9L3GV3WWEQ94JUGWZVFRB3AS","AAY54HW9N8U5K","3P7RGTLO6EZ76AO3386R8ZK9IWWKAW","","1437.1999998092651","img/land5.png","76","1438.1000001430511","3","0","3","2","0.8,0.2,0.2,0.2,0.8,0.2,0.2,0.2,0.8","0.2,0.2,0.8,0.8,0.2,0.2,0.2,0.8,0.2","2","",""
"","html-keyboard-response","184","79199","0.0-184.0","32SVAV9L3GV3WWEQ94JUGWZVFRB3AS","AAY54HW9N8U5K","3P7RGTLO6EZ76AO3386R8ZK9IWWKAW","","null","<img src=""img/land5.png"" style=""width:200px;border:14px solid red;"">","null","","","","","","","","","",""
"","image-keyboard-response","185","79348","0.0-185.0","32SVAV9L3GV3WWEQ94JUGWZVFRB3AS","AAY54HW9N8U5K","3P7RGTLO6EZ76AO3386R8ZK9IWWKAW","","148","img/land3.png","75","149","2","0","1","2","0.8,0.2,0.2,0.2,0.8,0.2,0.2,0.2,0.8","0.2,0.2,0.8,0.8,0.2,0.2,0.2,0.8,0.2","2","",""
"","html-keyboard-response","186","79650","0.0-186.0","32SVAV9L3GV3WWEQ94JUGWZVFRB3AS","AAY54HW9N8U5K","3P7RGTLO6EZ76AO3386R8ZK9IWWKAW","","null","<img src=""img/land3.png"" style=""width:200px;border:14px solid red;"">","null","","","","","","","","","",""
"","image-keyboard-response","187","79823","0.0-187.0","32SVAV9L3GV3WWEQ94JUGWZVFRB3AS","AAY54HW9N8U5K","3P7RGTLO6EZ76AO3386R8ZK9IWWKAW","","172.09999990463257","img/land3.png","74","172.70000004768372","1","0","1","2","0.8,0.2,0.2,0.2,0.8,0.2,0.2,0.2,0.8","0.2,0.2,0.8,0.8,0.2,0.2,0.2,0.8,0.2","2","",""
"","html-keyboard-response","188","80125","0.0-188.0","32SVAV9L3GV3WWEQ94JUGWZVFRB3AS","AAY54HW9N8U5K","3P7RGTLO6EZ76AO3386R8ZK9IWWKAW","","null","<img src=""img/land3.png"" style=""width:200px;border:14px solid red;"">","null","","","","","","","","","",""
"","image-keyboard-response","189","80261","0.0-189.0","32SVAV9L3GV3WWEQ94JUGWZVFRB3AS","AAY54HW9N8U5K","3P7RGTLO6EZ76AO3386R8ZK9IWWKAW","","135.29999995231628","img/land5.png","75","136.20000004768372","2","0","3","2","0.8,0.2,0.2,0.2,0.8,0.2,0.2,0.2,0.8","0.2,0.2,0.8,0.8,0.2,0.2,0.2,0.8,0.2","2","",""
"","html-keyboard-response","190","80576","0.0-190.0","32SVAV9L3GV3WWEQ94JUGWZVFRB3AS","AAY54HW9N8U5K","3P7RGTLO6EZ76AO3386R8ZK9IWWKAW","","null","<img src=""img/land5.png"" style=""width:200px;border:14px solid red;"">","null","","","","","","","","","",""
"","image-keyboard-response","191","80966","0.0-191.0","32SVAV9L3GV3WWEQ94JUGWZVFRB3AS","AAY54HW9N8U5K","3P7RGTLO6EZ76AO3386R8ZK9IWWKAW","","388.59999990463257","img/land3.png","76","389.5","3","1","1","2","0.8,0.2,0.2,0.2,0.8,0.2,0.2,0.2,0.8","0.2,0.2,0.8,0.8,0.2,0.2,0.2,0.8,0.2","2","",""
"","html-keyboard-response","192","81267","0.0-192.0","32SVAV9L3GV3WWEQ94JUGWZVFRB3AS","AAY54HW9N8U5K","3P7RGTLO6EZ76AO3386R8ZK9IWWKAW","","null","<img src=""img/land3.png"" style=""width:200px; border:14px solid green;"">","null","","","","","","","","","",""
"","image-keyboard-response","193","81674","0.0-193.0","32SVAV9L3GV3WWEQ94JUGWZVFRB3AS","AAY54HW9N8U5K","3P7RGTLO6EZ76AO3386R8ZK9IWWKAW","","406.10000014305115","img/land5.png","76","406.89999985694885","3","0","3","2","0.8,0.2,0.2,0.2,0.8,0.2,0.2,0.2,0.8","0.2,0.2,0.8,0.8,0.2,0.2,0.2,0.8,0.2","2","",""
"","html-keyboard-response","194","81976","0.0-194.0","32SVAV9L3GV3WWEQ94JUGWZVFRB3AS","AAY54HW9N8U5K","3P7RGTLO6EZ76AO3386R8ZK9IWWKAW","","null","<img src=""img/land5.png"" style=""width:200px;border:14px solid red;"">","null","","","","","","","","","",""
"","image-keyboard-response","195","82165","0.0-195.0","32SVAV9L3GV3WWEQ94JUGWZVFRB3AS","AAY54HW9N8U5K","3P7RGTLO6EZ76AO3386R8ZK9IWWKAW","","188.19999980926514","img/land1.png","75","189.10000014305115","2","0","2","2","0.8,0.2,0.2,0.2,0.8,0.2,0.2,0.2,0.8","0.2,0.2,0.8,0.8,0.2,0.2,0.2,0.8,0.2","2","",""
"","html-keyboard-response","196","82467","0.0-196.0","32SVAV9L3GV3WWEQ94JUGWZVFRB3AS","AAY54HW9N8U5K","3P7RGTLO6EZ76AO3386R8ZK9IWWKAW","","null","<img src=""img/land1.png"" style=""width:200px;border:14px solid red;"">","null","","","","","","","","","",""
"","image-keyboard-response","197","82653","0.0-197.0","32SVAV9L3GV3WWEQ94JUGWZVFRB3AS","AAY54HW9N8U5K","3P7RGTLO6EZ76AO3386R8ZK9IWWKAW","","184.79999995231628","img/land1.png","75","185.90000009536743","2","1","2","2","0.8,0.2,0.2,0.2,0.8,0.2,0.2,0.2,0.8","0.2,0.2,0.8,0.8,0.2,0.2,0.2,0.8,0.2","2","",""
"","html-keyboard-response","198","82955","0.0-198.0","32SVAV9L3GV3WWEQ94JUGWZVFRB3AS","AAY54HW9N8U5K","3P7RGTLO6EZ76AO3386R8ZK9IWWKAW","","null","<img src=""img/land1.png"" style=""width:200px; border:14px solid green;"">","null","","","","","","","","","",""
"","image-keyboard-response","199","83328","0.0-199.0","32SVAV9L3GV3WWEQ94JUGWZVFRB3AS","AAY54HW9N8U5K","3P7RGTLO6EZ76AO3386R8ZK9IWWKAW","","372.09999990463257","img/land3.png","75","373.19999980926514","2","1","1","2","0.8,0.2,0.2,0.2,0.8,0.2,0.2,0.2,0.8","0.2,0.2,0.8,0.8,0.2,0.2,0.2,0.8,0.2","2","",""
"","html-keyboard-response","200","83631","0.0-200.0","32SVAV9L3GV3WWEQ94JUGWZVFRB3AS","AAY54HW9N8U5K","3P7RGTLO6EZ76AO3386R8ZK9IWWKAW","","null","<img src=""img/land3.png"" style=""width:200px; border:14px solid green;"">","null","","","","","","","","","",""
"","image-keyboard-response","201","83865","0.0-201.0","32SVAV9L3GV3WWEQ94JUGWZVFRB3AS","AAY54HW9N8U5K","3P7RGTLO6EZ76AO3386R8ZK9IWWKAW","","233.70000004768372","img/land3.png","75","234.70000004768372","2","0","1","2","0.8,0.2,0.2,0.2,0.8,0.2,0.2,0.2,0.8","0.2,0.2,0.8,0.8,0.2,0.2,0.2,0.8,0.2","2","",""
"","html-keyboard-response","202","84167","0.0-202.0","32SVAV9L3GV3WWEQ94JUGWZVFRB3AS","AAY54HW9N8U5K","3P7RGTLO6EZ76AO3386R8ZK9IWWKAW","","null","<img src=""img/land3.png"" style=""width:200px;border:14px solid red;"">","null","","","","","","","","","",""
"","image-keyboard-response","203","84640","0.0-203.0","32SVAV9L3GV3WWEQ94JUGWZVFRB3AS","AAY54HW9N8U5K","3P7RGTLO6EZ76AO3386R8ZK9IWWKAW","","472.2000000476837","img/land5.png","75","473.09999990463257","2","1","3","2","0.8,0.2,0.2,0.2,0.8,0.2,0.2,0.2,0.8","0.2,0.2,0.8,0.8,0.2,0.2,0.2,0.8,0.2","2","",""
"","html-keyboard-response","204","84942","0.0-204.0","32SVAV9L3GV3WWEQ94JUGWZVFRB3AS","AAY54HW9N8U5K","3P7RGTLO6EZ76AO3386R8ZK9IWWKAW","","null","<img src=""img/land5.png"" style=""width:200px; border:14px solid green;"">","null","","","","","","","","","",""
"","image-keyboard-response","205","84995","0.0-205.0","32SVAV9L3GV3WWEQ94JUGWZVFRB3AS","AAY54HW9N8U5K","3P7RGTLO6EZ76AO3386R8ZK9IWWKAW","","51.5","img/land1.png","76","52.10000014305115","3","0","2","2","0.8,0.2,0.2,0.2,0.8,0.2,0.2,0.2,0.8","0.2,0.2,0.8,0.8,0.2,0.2,0.2,0.8,0.2","2","",""
"","html-keyboard-response","206","85297","0.0-206.0","32SVAV9L3GV3WWEQ94JUGWZVFRB3AS","AAY54HW9N8U5K","3P7RGTLO6EZ76AO3386R8ZK9IWWKAW","","null","<img src=""img/land1.png"" style=""width:200px;border:14px solid red;"">","null","","","","","","","","","",""
"","image-keyboard-response","207","85707","0.0-207.0","32SVAV9L3GV3WWEQ94JUGWZVFRB3AS","AAY54HW9N8U5K","3P7RGTLO6EZ76AO3386R8ZK9IWWKAW","","408.90000009536743","img/land3.png","75","409.7000000476837","2","0","1","2","0.8,0.2,0.2,0.2,0.8,0.2,0.2,0.2,0.8","0.2,0.2,0.8,0.8,0.2,0.2,0.2,0.8,0.2","2","",""
"","html-keyboard-response","208","86009","0.0-208.0","32SVAV9L3GV3WWEQ94JUGWZVFRB3AS","AAY54HW9N8U5K","3P7RGTLO6EZ76AO3386R8ZK9IWWKAW","","null","<img src=""img/land3.png"" style=""width:200px;border:14px solid red;"">","null","","","","","","","","","",""
"","image-keyboard-response","209","86235","0.0-209.0","32SVAV9L3GV3WWEQ94JUGWZVFRB3AS","AAY54HW9N8U5K","3P7RGTLO6EZ76AO3386R8ZK9IWWKAW","","225.40000009536743","img/land1.png","76","226.40000009536743","3","0","2","2","0.8,0.2,0.2,0.2,0.8,0.2,0.2,0.2,0.8","0.2,0.2,0.8,0.8,0.2,0.2,0.2,0.8,0.2","2","",""
"","html-keyboard-response","210","86536","0.0-210.0","32SVAV9L3GV3WWEQ94JUGWZVFRB3AS","AAY54HW9N8U5K","3P7RGTLO6EZ76AO3386R8ZK9IWWKAW","","null","<img src=""img/land1.png"" style=""width:200px;border:14px solid red;"">","null","","","","","","","","","",""
"","image-keyboard-response","211","86694","0.0-211.0","32SVAV9L3GV3WWEQ94JUGWZVFRB3AS","AAY54HW9N8U5K","3P7RGTLO6EZ76AO3386R8ZK9IWWKAW","","156.5","img/land3.png","75","157.5","2","1","1","2","0.8,0.2,0.2,0.2,0.8,0.2,0.2,0.2,0.8","0.2,0.2,0.8,0.8,0.2,0.2,0.2,0.8,0.2","2","",""
"","html-keyboard-response","212","86996","0.0-212.0","32SVAV9L3GV3WWEQ94JUGWZVFRB3AS","AAY54HW9N8U5K","3P7RGTLO6EZ76AO3386R8ZK9IWWKAW","","null","<img src=""img/land3.png"" style=""width:200px; border:14px solid green;"">","null","","","","","","","","","",""
"","image-keyboard-response","213","87313","0.0-213.0","32SVAV9L3GV3WWEQ94JUGWZVFRB3AS","AAY54HW9N8U5K","3P7RGTLO6EZ76AO3386R8ZK9IWWKAW","","316.5","img/land1.png","75","317.5","2","1","2","2","0.8,0.2,0.2,0.2,0.8,0.2,0.2,0.2,0.8","0.2,0.2,0.8,0.8,0.2,0.2,0.2,0.8,0.2","2","",""
"","html-keyboard-response","214","87615","0.0-214.0","32SVAV9L3GV3WWEQ94JUGWZVFRB3AS","AAY54HW9N8U5K","3P7RGTLO6EZ76AO3386R8ZK9IWWKAW","","null","<img src=""img/land1.png"" style=""width:200px; border:14px solid green;"">","null","","","","","","","","","",""
"","image-keyboard-response","215","87725","0.0-215.0","32SVAV9L3GV3WWEQ94JUGWZVFRB3AS","AAY54HW9N8U5K","3P7RGTLO6EZ76AO3386R8ZK9IWWKAW","","109","img/land3.png","76","109.79999995231628","3","1","1","2","0.8,0.2,0.2,0.2,0.8,0.2,0.2,0.2,0.8","0.2,0.2,0.8,0.8,0.2,0.2,0.2,0.8,0.2","2","",""
"","html-keyboard-response","216","88027","0.0-216.0","32SVAV9L3GV3WWEQ94JUGWZVFRB3AS","AAY54HW9N8U5K","3P7RGTLO6EZ76AO3386R8ZK9IWWKAW","","null","<img src=""img/land3.png"" style=""width:200px; border:14px solid green;"">","null","","","","","","","","","",""
"","image-keyboard-response","217","88230","0.0-217.0","32SVAV9L3GV3WWEQ94JUGWZVFRB3AS","AAY54HW9N8U5K","3P7RGTLO6EZ76AO3386R8ZK9IWWKAW","","201.5","img/land3.png","76","202.30000019073486","3","0","1","2","0.8,0.2,0.2,0.2,0.8,0.2,0.2,0.2,0.8","0.2,0.2,0.8,0.8,0.2,0.2,0.2,0.8,0.2","2","",""
"","html-keyboard-response","218","88532","0.0-218.0","32SVAV9L3GV3WWEQ94JUGWZVFRB3AS","AAY54HW9N8U5K","3P7RGTLO6EZ76AO3386R8ZK9IWWKAW","","null","<img src=""img/land3.png"" style=""width:200px;border:14px solid red;"">","null","","","","","","","","","",""
"","image-keyboard-response","219","88592","0.0-219.0","32SVAV9L3GV3WWEQ94JUGWZVFRB3AS","AAY54HW9N8U5K","3P7RGTLO6EZ76AO3386R8ZK9IWWKAW","","59","img/land1.png","75","60","2","0","2","2","0.8,0.2,0.2,0.2,0.8,0.2,0.2,0.2,0.8","0.2,0.2,0.8,0.8,0.2,0.2,0.2,0.8,0.2","2","",""
"","html-keyboard-response","220","88894","0.0-220.0","32SVAV9L3GV3WWEQ94JUGWZVFRB3AS","AAY54HW9N8U5K","3P7RGTLO6EZ76AO3386R8ZK9IWWKAW","","null","<img src=""img/land1.png"" style=""width:200px;border:14px solid red;"">","null","","","","","","","","","",""
"","image-keyboard-response","221","89061","0.0-221.0","32SVAV9L3GV3WWEQ94JUGWZVFRB3AS","AAY54HW9N8U5K","3P7RGTLO6EZ76AO3386R8ZK9IWWKAW","","166.39999985694885","img/land3.png","75","167.09999990463257","2","0","1","2","0.8,0.2,0.2,0.2,0.8,0.2,0.2,0.2,0.8","0.2,0.2,0.8,0.8,0.2,0.2,0.2,0.8,0.2","2","",""
"","html-keyboard-response","222","89362","0.0-222.0","32SVAV9L3GV3WWEQ94JUGWZVFRB3AS","AAY54HW9N8U5K","3P7RGTLO6EZ76AO3386R8ZK9IWWKAW","","null","<img src=""img/land3.png"" style=""width:200px;border:14px solid red;"">","null","","","","","","","","","",""
"","image-keyboard-response","223","89391","0.0-223.0","32SVAV9L3GV3WWEQ94JUGWZVFRB3AS","AAY54HW9N8U5K","3P7RGTLO6EZ76AO3386R8ZK9IWWKAW","","27.200000047683716","img/land3.png","76","28","3","1","1","2","0.8,0.2,0.2,0.2,0.8,0.2,0.2,0.2,0.8","0.2,0.2,0.8,0.8,0.2,0.2,0.2,0.8,0.2","2","",""
"","html-keyboard-response","224","89693","0.0-224.0","32SVAV9L3GV3WWEQ94JUGWZVFRB3AS","AAY54HW9N8U5K","3P7RGTLO6EZ76AO3386R8ZK9IWWKAW","","null","<img src=""img/land3.png"" style=""width:200px; border:14px solid green;"">","null","","","","","","","","","",""
"","image-keyboard-response","225","89897","0.0-225.0","32SVAV9L3GV3WWEQ94JUGWZVFRB3AS","AAY54HW9N8U5K","3P7RGTLO6EZ76AO3386R8ZK9IWWKAW","","202.5","img/land3.png","76","203.5","3","1","1","2","0.8,0.2,0.2,0.2,0.8,0.2,0.2,0.2,0.8","0.2,0.2,0.8,0.8,0.2,0.2,0.2,0.8,0.2","2","",""
"","html-keyboard-response","226","90199","0.0-226.0","32SVAV9L3GV3WWEQ94JUGWZVFRB3AS","AAY54HW9N8U5K","3P7RGTLO6EZ76AO3386R8ZK9IWWKAW","","null","<img src=""img/land3.png"" style=""width:200px; border:14px solid green;"">","null","","","","","","","","","",""
"","image-keyboard-response","227","90334","0.0-227.0","32SVAV9L3GV3WWEQ94JUGWZVFRB3AS","AAY54HW9N8U5K","3P7RGTLO6EZ76AO3386R8ZK9IWWKAW","","133.90000009536743","img/land5.png","76","134.79999995231628","3","0","3","2","0.8,0.2,0.2,0.2,0.8,0.2,0.2,0.2,0.8","0.2,0.2,0.8,0.8,0.2,0.2,0.2,0.8,0.2","2","",""
"","html-keyboard-response","228","90636","0.0-228.0","32SVAV9L3GV3WWEQ94JUGWZVFRB3AS","AAY54HW9N8U5K","3P7RGTLO6EZ76AO3386R8ZK9IWWKAW","","null","<img src=""img/land5.png"" style=""width:200px;border:14px solid red;"">","null","","","","","","","","","",""
"","image-keyboard-response","229","90696","0.0-229.0","32SVAV9L3GV3WWEQ94JUGWZVFRB3AS","AAY54HW9N8U5K","3P7RGTLO6EZ76AO3386R8ZK9IWWKAW","","58.90000009536743","img/land3.png","75","59.89999985694885","2","0","1","2","0.8,0.2,0.2,0.2,0.8,0.2,0.2,0.2,0.8","0.2,0.2,0.8,0.8,0.2,0.2,0.2,0.8,0.2","2","",""
"","html-keyboard-response","230","90998","0.0-230.0","32SVAV9L3GV3WWEQ94JUGWZVFRB3AS","AAY54HW9N8U5K","3P7RGTLO6EZ76AO3386R8ZK9IWWKAW","","null","<img src=""img/land3.png"" style=""width:200px;border:14px solid red;"">","null","","","","","","","","","",""
"","image-keyboard-response","231","91152","0.0-231.0","32SVAV9L3GV3WWEQ94JUGWZVFRB3AS","AAY54HW9N8U5K","3P7RGTLO6EZ76AO3386R8ZK9IWWKAW","","153.09999990463257","img/land3.png","75","154.09999990463257","2","0","1","2","0.8,0.2,0.2,0.2,0.8,0.2,0.2,0.2,0.8","0.2,0.2,0.8,0.8,0.2,0.2,0.2,0.8,0.2","2","",""
"","html-keyboard-response","232","91454","0.0-232.0","32SVAV9L3GV3WWEQ94JUGWZVFRB3AS","AAY54HW9N8U5K","3P7RGTLO6EZ76AO3386R8ZK9IWWKAW","","null","<img src=""img/land3.png"" style=""width:200px;border:14px solid red;"">","null","","","","","","","","","",""
"","image-keyboard-response","233","91475","0.0-233.0","32SVAV9L3GV3WWEQ94JUGWZVFRB3AS","AAY54HW9N8U5K","3P7RGTLO6EZ76AO3386R8ZK9IWWKAW","","19.699999809265137","img/land1.png","76","20.5","3","1","2","2","0.8,0.2,0.2,0.2,0.8,0.2,0.2,0.2,0.8","0.2,0.2,0.8,0.8,0.2,0.2,0.2,0.8,0.2","2","",""
"","html-keyboard-response","234","91776","0.0-234.0","32SVAV9L3GV3WWEQ94JUGWZVFRB3AS","AAY54HW9N8U5K","3P7RGTLO6EZ76AO3386R8ZK9IWWKAW","","null","<img src=""img/land1.png"" style=""width:200px; border:14px solid green;"">","null","","","","","","","","","",""
"","image-keyboard-response","235","92242","0.0-235.0","32SVAV9L3GV3WWEQ94JUGWZVFRB3AS","AAY54HW9N8U5K","3P7RGTLO6EZ76AO3386R8ZK9IWWKAW","","465.60000014305115","img/land3.png","75","466.39999985694885","2","1","1","2","0.8,0.2,0.2,0.2,0.8,0.2,0.2,0.2,0.8","0.2,0.2,0.8,0.8,0.2,0.2,0.2,0.8,0.2","2","",""
"","html-keyboard-response","236","92544","0.0-236.0","32SVAV9L3GV3WWEQ94JUGWZVFRB3AS","AAY54HW9N8U5K","3P7RGTLO6EZ76AO3386R8ZK9IWWKAW","","null","<img src=""img/land3.png"" style=""width:200px; border:14px solid green;"">","null","","","","","","","","","",""
"","image-keyboard-response","237","92689","0.0-237.0","32SVAV9L3GV3WWEQ94JUGWZVFRB3AS","AAY54HW9N8U5K","3P7RGTLO6EZ76AO3386R8ZK9IWWKAW","","143.69999980926514","img/land5.png","75","144.80000019073486","2","1","3","2","0.8,0.2,0.2,0.2,0.8,0.2,0.2,0.2,0.8","0.2,0.2,0.8,0.8,0.2,0.2,0.2,0.8,0.2","2","",""
"","html-keyboard-response","238","92990","0.0-238.0","32SVAV9L3GV3WWEQ94JUGWZVFRB3AS","AAY54HW9N8U5K","3P7RGTLO6EZ76AO3386R8ZK9IWWKAW","","null","<img src=""img/land5.png"" style=""width:200px; border:14px solid green;"">","null","","","","","","","","","",""
"","image-keyboard-response","239","93117","0.0-239.0","32SVAV9L3GV3WWEQ94JUGWZVFRB3AS","AAY54HW9N8U5K","3P7RGTLO6EZ76AO3386R8ZK9IWWKAW","","125.60000014305115","img/land5.png","76","126.40000009536743","3","0","3","2","0.8,0.2,0.2,0.2,0.8,0.2,0.2,0.2,0.8","0.2,0.2,0.8,0.8,0.2,0.2,0.2,0.8,0.2","2","",""
"","html-keyboard-response","240","93418","0.0-240.0","32SVAV9L3GV3WWEQ94JUGWZVFRB3AS","AAY54HW9N8U5K","3P7RGTLO6EZ76AO3386R8ZK9IWWKAW","","null","<img src=""img/land5.png"" style=""width:200px;border:14px solid red;"">","null","","","","","","","","","",""
"","image-keyboard-response","241","93449","0.0-241.0","32SVAV9L3GV3WWEQ94JUGWZVFRB3AS","AAY54HW9N8U5K","3P7RGTLO6EZ76AO3386R8ZK9IWWKAW","","29.90000009536743","img/land3.png","75","30.899999856948853","2","1","1","2","0.8,0.2,0.2,0.2,0.8,0.2,0.2,0.2,0.8","0.2,0.2,0.8,0.8,0.2,0.2,0.2,0.8,0.2","2","",""
"","html-keyboard-response","242","93750","0.0-242.0","32SVAV9L3GV3WWEQ94JUGWZVFRB3AS","AAY54HW9N8U5K","3P7RGTLO6EZ76AO3386R8ZK9IWWKAW","","null","<img src=""img/land3.png"" style=""width:200px; border:14px solid green;"">","null","","","","","","","","","",""
"","image-keyboard-response","243","94158","0.0-243.0","32SVAV9L3GV3WWEQ94JUGWZVFRB3AS","AAY54HW9N8U5K","3P7RGTLO6EZ76AO3386R8ZK9IWWKAW","","407.2999999523163","img/land3.png","75","407.90000009536743","2","0","1","2","0.8,0.2,0.2,0.2,0.8,0.2,0.2,0.2,0.8","0.2,0.2,0.8,0.8,0.2,0.2,0.2,0.8,0.2","2","",""
"","html-keyboard-response","244","94460","0.0-244.0","32SVAV9L3GV3WWEQ94JUGWZVFRB3AS","AAY54HW9N8U5K","3P7RGTLO6EZ76AO3386R8ZK9IWWKAW","","null","<img src=""img/land3.png"" style=""width:200px;border:14px solid red;"">","null","","","","","","","","","",""
"","image-keyboard-response","245","94628","0.0-245.0","32SVAV9L3GV3WWEQ94JUGWZVFRB3AS","AAY54HW9N8U5K","3P7RGTLO6EZ76AO3386R8ZK9IWWKAW","","167.39999985694885","img/land3.png","75","168.40000009536743","2","0","1","2","0.8,0.2,0.2,0.2,0.8,0.2,0.2,0.2,0.8","0.2,0.2,0.8,0.8,0.2,0.2,0.2,0.8,0.2","2","",""
"","html-keyboard-response","246","94930","0.0-246.0","32SVAV9L3GV3WWEQ94JUGWZVFRB3AS","AAY54HW9N8U5K","3P7RGTLO6EZ76AO3386R8ZK9IWWKAW","","null","<img src=""img/land3.png"" style=""width:200px;border:14px solid red;"">","null","","","","","","","","","",""
"","image-keyboard-response","247","94949","0.0-247.0","32SVAV9L3GV3WWEQ94JUGWZVFRB3AS","AAY54HW9N8U5K","3P7RGTLO6EZ76AO3386R8ZK9IWWKAW","","17.200000047683716","img/land3.png","75","18.200000047683716","2","1","1","2","0.8,0.2,0.2,0.2,0.8,0.2,0.2,0.2,0.8","0.2,0.2,0.8,0.8,0.2,0.2,0.2,0.8,0.2","2","",""
"","html-keyboard-response","248","95250","0.0-248.0","32SVAV9L3GV3WWEQ94JUGWZVFRB3AS","AAY54HW9N8U5K","3P7RGTLO6EZ76AO3386R8ZK9IWWKAW","","null","<img src=""img/land3.png"" style=""width:200px; border:14px solid green;"">","null","","","","","","","","","",""
"","image-keyboard-response","249","95659","0.0-249.0","32SVAV9L3GV3WWEQ94JUGWZVFRB3AS","AAY54HW9N8U5K","3P7RGTLO6EZ76AO3386R8ZK9IWWKAW","","407.5","img/land3.png","76","408.09999990463257","3","1","1","2","0.8,0.2,0.2,0.2,0.8,0.2,0.2,0.2,0.8","0.2,0.2,0.8,0.8,0.2,0.2,0.2,0.8,0.2","2","",""
"","html-keyboard-response","250","95960","0.0-250.0","32SVAV9L3GV3WWEQ94JUGWZVFRB3AS","AAY54HW9N8U5K","3P7RGTLO6EZ76AO3386R8ZK9IWWKAW","","null","<img src=""img/land3.png"" style=""width:200px; border:14px solid green;"">","null","","","","","","","","","",""
"","image-keyboard-response","251","96040","0.0-251.0","32SVAV9L3GV3WWEQ94JUGWZVFRB3AS","AAY54HW9N8U5K","3P7RGTLO6EZ76AO3386R8ZK9IWWKAW","","78.5","img/land5.png","76","79.5","3","0","3","2","0.8,0.2,0.2,0.2,0.8,0.2,0.2,0.2,0.8","0.2,0.2,0.8,0.8,0.2,0.2,0.2,0.8,0.2","2","",""
"","html-keyboard-response","252","96341","0.0-252.0","32SVAV9L3GV3WWEQ94JUGWZVFRB3AS","AAY54HW9N8U5K","3P7RGTLO6EZ76AO3386R8ZK9IWWKAW","","null","<img src=""img/land5.png"" style=""width:200px;border:14px solid red;"">","null","","","","","","","","","",""
"","image-keyboard-response","253","96420","0.0-253.0","32SVAV9L3GV3WWEQ94JUGWZVFRB3AS","AAY54HW9N8U5K","3P7RGTLO6EZ76AO3386R8ZK9IWWKAW","","77.5","img/land3.png","76","78.5","3","1","1","2","0.8,0.2,0.2,0.2,0.8,0.2,0.2,0.2,0.8","0.2,0.2,0.8,0.8,0.2,0.2,0.2,0.8,0.2","2","",""
"","html-keyboard-response","254","96723","0.0-254.0","32SVAV9L3GV3WWEQ94JUGWZVFRB3AS","AAY54HW9N8U5K","3P7RGTLO6EZ76AO3386R8ZK9IWWKAW","","null","<img src=""img/land3.png"" style=""width:200px; border:14px solid green;"">","null","","","","","","","","","",""
"","image-keyboard-response","255","96728","0.0-255.0","32SVAV9L3GV3WWEQ94JUGWZVFRB3AS","AAY54HW9N8U5K","3P7RGTLO6EZ76AO3386R8ZK9IWWKAW","","4.299999952316284","img/land5.png","75","5.299999952316284","2","0","3","2","0.8,0.2,0.2,0.2,0.8,0.2,0.2,0.2,0.8","0.2,0.2,0.8,0.8,0.2,0.2,0.2,0.8,0.2","2","",""
"","html-keyboard-response","256","97030","0.0-256.0","32SVAV9L3GV3WWEQ94JUGWZVFRB3AS","AAY54HW9N8U5K","3P7RGTLO6EZ76AO3386R8ZK9IWWKAW","","null","<img src=""img/land5.png"" style=""width:200px;border:14px solid red;"">","null","","","","","","","","","",""
"","image-keyboard-response","257","97141","0.0-257.0","32SVAV9L3GV3WWEQ94JUGWZVFRB3AS","AAY54HW9N8U5K","3P7RGTLO6EZ76AO3386R8ZK9IWWKAW","","109.89999985694885","img/land1.png","75","110.79999995231628","2","1","2","2","0.8,0.2,0.2,0.2,0.8,0.2,0.2,0.2,0.8","0.2,0.2,0.8,0.8,0.2,0.2,0.2,0.8,0.2","2","",""
"","html-keyboard-response","258","97443","0.0-258.0","32SVAV9L3GV3WWEQ94JUGWZVFRB3AS","AAY54HW9N8U5K","3P7RGTLO6EZ76AO3386R8ZK9IWWKAW","","null","<img src=""img/land1.png"" style=""width:200px; border:14px solid green;"">","null","","","","","","","","","",""
"","image-keyboard-response","259","97455","0.0-259.0","32SVAV9L3GV3WWEQ94JUGWZVFRB3AS","AAY54HW9N8U5K","3P7RGTLO6EZ76AO3386R8ZK9IWWKAW","","10.799999952316284","img/land1.png","76","11.700000047683716","3","1","2","2","0.8,0.2,0.2,0.2,0.8,0.2,0.2,0.2,0.8","0.2,0.2,0.8,0.8,0.2,0.2,0.2,0.8,0.2","2","",""
"","html-keyboard-response","260","97757","0.0-260.0","32SVAV9L3GV3WWEQ94JUGWZVFRB3AS","AAY54HW9N8U5K","3P7RGTLO6EZ76AO3386R8ZK9IWWKAW","","null","<img src=""img/land1.png"" style=""width:200px; border:14px solid green;"">","null","","","","","","","","","",""
"","image-keyboard-response","261","97813","0.0-261.0","32SVAV9L3GV3WWEQ94JUGWZVFRB3AS","AAY54HW9N8U5K","3P7RGTLO6EZ76AO3386R8ZK9IWWKAW","","54.69999980926514","img/land5.png","76","55.799999952316284","3","0","3","2","0.8,0.2,0.2,0.2,0.8,0.2,0.2,0.2,0.8","0.2,0.2,0.8,0.8,0.2,0.2,0.2,0.8,0.2","2","",""
"","html-keyboard-response","262","98114","0.0-262.0","32SVAV9L3GV3WWEQ94JUGWZVFRB3AS","AAY54HW9N8U5K","3P7RGTLO6EZ76AO3386R8ZK9IWWKAW","","null","<img src=""img/land5.png"" style=""width:200px;border:14px solid red;"">","null","","","","","","","","","",""
"","image-keyboard-response","263","98205","0.0-263.0","32SVAV9L3GV3WWEQ94JUGWZVFRB3AS","AAY54HW9N8U5K","3P7RGTLO6EZ76AO3386R8ZK9IWWKAW","","90","img/land3.png","75","90.90000009536743","2","0","1","2","0.8,0.2,0.2,0.2,0.8,0.2,0.2,0.2,0.8","0.2,0.2,0.8,0.8,0.2,0.2,0.2,0.8,0.2","2","",""
"","html-keyboard-response","264","98507","0.0-264.0","32SVAV9L3GV3WWEQ94JUGWZVFRB3AS","AAY54HW9N8U5K","3P7RGTLO6EZ76AO3386R8ZK9IWWKAW","","null","<img src=""img/land3.png"" style=""width:200px;border:14px solid red;"">","null","","","","","","","","","",""
"","image-keyboard-response","265","98557","0.0-265.0","32SVAV9L3GV3WWEQ94JUGWZVFRB3AS","AAY54HW9N8U5K","3P7RGTLO6EZ76AO3386R8ZK9IWWKAW","","48.799999952316284","img/land3.png","75","49.799999952316284","2","0","1","2","0.8,0.2,0.2,0.2,0.8,0.2,0.2,0.2,0.8","0.2,0.2,0.8,0.8,0.2,0.2,0.2,0.8,0.2","2","",""
"","html-keyboard-response","266","98858","0.0-266.0","32SVAV9L3GV3WWEQ94JUGWZVFRB3AS","AAY54HW9N8U5K","3P7RGTLO6EZ76AO3386R8ZK9IWWKAW","","null","<img src=""img/land3.png"" style=""width:200px;border:14px solid red;"">","null","","","","","","","","","",""
"","image-keyboard-response","267","99141","0.0-267.0","32SVAV9L3GV3WWEQ94JUGWZVFRB3AS","AAY54HW9N8U5K","3P7RGTLO6EZ76AO3386R8ZK9IWWKAW","","281.2000000476837","img/land3.png","76","282.2999999523163","3","1","1","2","0.8,0.2,0.2,0.2,0.8,0.2,0.2,0.2,0.8","0.2,0.2,0.8,0.8,0.2,0.2,0.2,0.8,0.2","2","",""
"","html-keyboard-response","268","99442","0.0-268.0","32SVAV9L3GV3WWEQ94JUGWZVFRB3AS","AAY54HW9N8U5K","3P7RGTLO6EZ76AO3386R8ZK9IWWKAW","","null","<img src=""img/land3.png"" style=""width:200px; border:14px solid green;"">","null","","","","","","","","","",""
"","image-keyboard-response","269","99493","0.0-269.0","32SVAV9L3GV3WWEQ94JUGWZVFRB3AS","AAY54HW9N8U5K","3P7RGTLO6EZ76AO3386R8ZK9IWWKAW","","49.5","img/land3.png","76","50.5","3","1","1","2","0.8,0.2,0.2,0.2,0.8,0.2,0.2,0.2,0.8","0.2,0.2,0.8,0.8,0.2,0.2,0.2,0.8,0.2","2","",""
"","html-keyboard-response","270","99795","0.0-270.0","32SVAV9L3GV3WWEQ94JUGWZVFRB3AS","AAY54HW9N8U5K","3P7RGTLO6EZ76AO3386R8ZK9IWWKAW","","null","<img src=""img/land3.png"" style=""width:200px; border:14px solid green;"">","null","","","","","","","","","",""
"","image-keyboard-response","271","99852","0.0-271.0","32SVAV9L3GV3WWEQ94JUGWZVFRB3AS","AAY54HW9N8U5K","3P7RGTLO6EZ76AO3386R8ZK9IWWKAW","","56.10000014305115","img/land3.png","76","56.89999985694885","3","1","1","2","0.8,0.2,0.2,0.2,0.8,0.2,0.2,0.2,0.8","0.2,0.2,0.8,0.8,0.2,0.2,0.2,0.8,0.2","2","",""
"","html-keyboard-response","272","100153","0.0-272.0","32SVAV9L3GV3WWEQ94JUGWZVFRB3AS","AAY54HW9N8U5K","3P7RGTLO6EZ76AO3386R8ZK9IWWKAW","","null","<img src=""img/land3.png"" style=""width:200px; border:14px solid green;"">","null","","","","","","","","","",""
"","image-keyboard-response","273","100203","0.0-273.0","32SVAV9L3GV3WWEQ94JUGWZVFRB3AS","AAY54HW9N8U5K","3P7RGTLO6EZ76AO3386R8ZK9IWWKAW","","48.799999952316284","img/land3.png","76","49.5","3","1","1","2","0.8,0.2,0.2,0.2,0.8,0.2,0.2,0.2,0.8","0.2,0.2,0.8,0.8,0.2,0.2,0.2,0.8,0.2","2","",""
"","html-keyboard-response","274","100505","0.0-274.0","32SVAV9L3GV3WWEQ94JUGWZVFRB3AS","AAY54HW9N8U5K","3P7RGTLO6EZ76AO3386R8ZK9IWWKAW","","null","<img src=""img/land3.png"" style=""width:200px; border:14px solid green;"">","null","","","","","","","","","",""
"","image-keyboard-response","275","100544","0.0-275.0","32SVAV9L3GV3WWEQ94JUGWZVFRB3AS","AAY54HW9N8U5K","3P7RGTLO6EZ76AO3386R8ZK9IWWKAW","","38.59999990463257","img/land3.png","76","39.59999990463257","3","1","1","2","0.8,0.2,0.2,0.2,0.8,0.2,0.2,0.2,0.8","0.2,0.2,0.8,0.8,0.2,0.2,0.2,0.8,0.2","2","",""
"","html-keyboard-response","276","100847","0.0-276.0","32SVAV9L3GV3WWEQ94JUGWZVFRB3AS","AAY54HW9N8U5K","3P7RGTLO6EZ76AO3386R8ZK9IWWKAW","","null","<img src=""img/land3.png"" style=""width:200px; border:14px solid green;"">","null","","","","","","","","","",""
"","image-keyboard-response","277","100891","0.0-277.0","32SVAV9L3GV3WWEQ94JUGWZVFRB3AS","AAY54HW9N8U5K","3P7RGTLO6EZ76AO3386R8ZK9IWWKAW","","43.299999952316284","img/land3.png","76","44","3","1","1","2","0.8,0.2,0.2,0.2,0.8,0.2,0.2,0.2,0.8","0.2,0.2,0.8,0.8,0.2,0.2,0.2,0.8,0.2","2","",""
"","html-keyboard-response","278","101206","0.0-278.0","32SVAV9L3GV3WWEQ94JUGWZVFRB3AS","AAY54HW9N8U5K","3P7RGTLO6EZ76AO3386R8ZK9IWWKAW","","null","<img src=""img/land3.png"" style=""width:200px; border:14px solid green;"">","null","","","","","","","","","",""
"","image-keyboard-response","279","101259","0.0-279.0","32SVAV9L3GV3WWEQ94JUGWZVFRB3AS","AAY54HW9N8U5K","3P7RGTLO6EZ76AO3386R8ZK9IWWKAW","","51.700000047683716","img/land5.png","76","52.5","3","0","3","2","0.8,0.2,0.2,0.2,0.8,0.2,0.2,0.2,0.8","0.2,0.2,0.8,0.8,0.2,0.2,0.2,0.8,0.2","2","",""
"","html-keyboard-response","280","101560","0.0-280.0","32SVAV9L3GV3WWEQ94JUGWZVFRB3AS","AAY54HW9N8U5K","3P7RGTLO6EZ76AO3386R8ZK9IWWKAW","","null","<img src=""img/land5.png"" style=""width:200px;border:14px solid red;"">","null","","","","","","","","","",""
"","image-keyboard-response","281","101596","0.0-281.0","32SVAV9L3GV3WWEQ94JUGWZVFRB3AS","AAY54HW9N8U5K","3P7RGTLO6EZ76AO3386R8ZK9IWWKAW","","34.40000009536743","img/land5.png","76","35.299999952316284","3","0","3","2","0.8,0.2,0.2,0.2,0.8,0.2,0.2,0.2,0.8","0.2,0.2,0.8,0.8,0.2,0.2,0.2,0.8,0.2","2","",""
"","html-keyboard-response","282","101897","0.0-282.0","32SVAV9L3GV3WWEQ94JUGWZVFRB3AS","AAY54HW9N8U5K","3P7RGTLO6EZ76AO3386R8ZK9IWWKAW","","null","<img src=""img/land5.png"" style=""width:200px;border:14px solid red;"">","null","","","","","","","","","",""
"","image-keyboard-response","283","102156","0.0-283.0","32SVAV9L3GV3WWEQ94JUGWZVFRB3AS","AAY54HW9N8U5K","3P7RGTLO6EZ76AO3386R8ZK9IWWKAW","","257.69999980926514","img/land3.png","75","258.60000014305115","2","0","1","2","0.8,0.2,0.2,0.2,0.8,0.2,0.2,0.2,0.8","0.2,0.2,0.8,0.8,0.2,0.2,0.2,0.8,0.2","2","",""
"","html-keyboard-response","284","102458","0.0-284.0","32SVAV9L3GV3WWEQ94JUGWZVFRB3AS","AAY54HW9N8U5K","3P7RGTLO6EZ76AO3386R8ZK9IWWKAW","","null","<img src=""img/land3.png"" style=""width:200px;border:14px solid red;"">","null","","","","","","","","","",""
"","image-keyboard-response","285","102535","0.0-285.0","32SVAV9L3GV3WWEQ94JUGWZVFRB3AS","AAY54HW9N8U5K","3P7RGTLO6EZ76AO3386R8ZK9IWWKAW","","76.5","img/land5.png","75","77.39999985694885","2","1","3","2","0.8,0.2,0.2,0.2,0.8,0.2,0.2,0.2,0.8","0.2,0.2,0.8,0.8,0.2,0.2,0.2,0.8,0.2","2","",""
"","html-keyboard-response","286","102837","0.0-286.0","32SVAV9L3GV3WWEQ94JUGWZVFRB3AS","AAY54HW9N8U5K","3P7RGTLO6EZ76AO3386R8ZK9IWWKAW","","null","<img src=""img/land5.png"" style=""width:200px; border:14px solid green;"">","null","","","","","","","","","",""
"","image-keyboard-response","287","103490","0.0-287.0","32SVAV9L3GV3WWEQ94JUGWZVFRB3AS","AAY54HW9N8U5K","3P7RGTLO6EZ76AO3386R8ZK9IWWKAW","","652.4000000953674","img/land3.png","75","653.4000000953674","2","0","1","2","0.8,0.2,0.2,0.2,0.8,0.2,0.2,0.2,0.8","0.2,0.2,0.8,0.8,0.2,0.2,0.2,0.8,0.2","2","",""
"","html-keyboard-response","288","103792","0.0-288.0","32SVAV9L3GV3WWEQ94JUGWZVFRB3AS","AAY54HW9N8U5K","3P7RGTLO6EZ76AO3386R8ZK9IWWKAW","","null","<img src=""img/land3.png"" style=""width:200px;border:14px solid red;"">","null","","","","","","","","","",""
"","image-keyboard-response","289","104227","0.0-289.0","32SVAV9L3GV3WWEQ94JUGWZVFRB3AS","AAY54HW9N8U5K","3P7RGTLO6EZ76AO3386R8ZK9IWWKAW","","434","img/land5.png","76","434.7999999523163","3","1","3","2","0.8,0.2,0.2,0.2,0.8,0.2,0.2,0.2,0.8","0.2,0.2,0.8,0.8,0.2,0.2,0.2,0.8,0.2","2","",""
"","html-keyboard-response","290","104529","0.0-290.0","32SVAV9L3GV3WWEQ94JUGWZVFRB3AS","AAY54HW9N8U5K","3P7RGTLO6EZ76AO3386R8ZK9IWWKAW","","null","<img src=""img/land5.png"" style=""width:200px; border:14px solid green;"">","null","","","","","","","","","",""
"","image-keyboard-response","291","104577","0.0-291.0","32SVAV9L3GV3WWEQ94JUGWZVFRB3AS","AAY54HW9N8U5K","3P7RGTLO6EZ76AO3386R8ZK9IWWKAW","","46.799999952316284","img/land1.png","76","47.5","3","1","2","2","0.8,0.2,0.2,0.2,0.8,0.2,0.2,0.2,0.8","0.2,0.2,0.8,0.8,0.2,0.2,0.2,0.8,0.2","2","",""
"","html-keyboard-response","292","104878","0.0-292.0","32SVAV9L3GV3WWEQ94JUGWZVFRB3AS","AAY54HW9N8U5K","3P7RGTLO6EZ76AO3386R8ZK9IWWKAW","","null","<img src=""img/land1.png"" style=""width:200px; border:14px solid green;"">","null","","","","","","","","","",""
"","image-keyboard-response","293","104975","0.0-293.0","32SVAV9L3GV3WWEQ94JUGWZVFRB3AS","AAY54HW9N8U5K","3P7RGTLO6EZ76AO3386R8ZK9IWWKAW","","95.59999990463257","img/land3.png","76","96.30000019073486","3","1","1","2","0.8,0.2,0.2,0.2,0.8,0.2,0.2,0.2,0.8","0.2,0.2,0.8,0.8,0.2,0.2,0.2,0.8,0.2","2","",""
"","html-keyboard-response","294","105277","0.0-294.0","32SVAV9L3GV3WWEQ94JUGWZVFRB3AS","AAY54HW9N8U5K","3P7RGTLO6EZ76AO3386R8ZK9IWWKAW","","null","<img src=""img/land3.png"" style=""width:200px; border:14px solid green;"">","null","","","","","","","","","",""
"","image-keyboard-response","295","105352","0.0-295.0","32SVAV9L3GV3WWEQ94JUGWZVFRB3AS","AAY54HW9N8U5K","3P7RGTLO6EZ76AO3386R8ZK9IWWKAW","","73.60000014305115","img/land1.png","76","74.59999990463257","3","1","2","2","0.8,0.2,0.2,0.2,0.8,0.2,0.2,0.2,0.8","0.2,0.2,0.8,0.8,0.2,0.2,0.2,0.8,0.2","2","",""
"","html-keyboard-response","296","105654","0.0-296.0","32SVAV9L3GV3WWEQ94JUGWZVFRB3AS","AAY54HW9N8U5K","3P7RGTLO6EZ76AO3386R8ZK9IWWKAW","","null","<img src=""img/land1.png"" style=""width:200px; border:14px solid green;"">","null","","","","","","","","","",""
"","image-keyboard-response","297","105738","0.0-297.0","32SVAV9L3GV3WWEQ94JUGWZVFRB3AS","AAY54HW9N8U5K","3P7RGTLO6EZ76AO3386R8ZK9IWWKAW","","83.79999995231628","img/land3.png","76","84.40000009536743","3","1","1","2","0.8,0.2,0.2,0.2,0.8,0.2,0.2,0.2,0.8","0.2,0.2,0.8,0.8,0.2,0.2,0.2,0.8,0.2","2","",""
"","html-keyboard-response","298","106040","0.0-298.0","32SVAV9L3GV3WWEQ94JUGWZVFRB3AS","AAY54HW9N8U5K","3P7RGTLO6EZ76AO3386R8ZK9IWWKAW","","null","<img src=""img/land3.png"" style=""width:200px; border:14px solid green;"">","null","","","","","","","","","",""
"","image-keyboard-response","299","106093","0.0-299.0","32SVAV9L3GV3WWEQ94JUGWZVFRB3AS","AAY54HW9N8U5K","3P7RGTLO6EZ76AO3386R8ZK9IWWKAW","","52.299999952316284","img/land3.png","76","52.90000009536743","3","1","1","2","0.8,0.2,0.2,0.2,0.8,0.2,0.2,0.2,0.8","0.2,0.2,0.8,0.8,0.2,0.2,0.2,0.8,0.2","2","",""
"","html-keyboard-response","300","106395","0.0-300.0","32SVAV9L3GV3WWEQ94JUGWZVFRB3AS","AAY54HW9N8U5K","3P7RGTLO6EZ76AO3386R8ZK9IWWKAW","","null","<img src=""img/land3.png"" style=""width:200px; border:14px solid green;"">","null","","","","","","","","","",""
"","image-keyboard-response","301","106429","0.0-301.0","32SVAV9L3GV3WWEQ94JUGWZVFRB3AS","AAY54HW9N8U5K","3P7RGTLO6EZ76AO3386R8ZK9IWWKAW","","32.700000047683716","img/land3.png","76","33.69999980926514","3","1","1","2","0.8,0.2,0.2,0.2,0.8,0.2,0.2,0.2,0.8","0.2,0.2,0.8,0.8,0.2,0.2,0.2,0.8,0.2","2","",""
"","html-keyboard-response","302","106731","0.0-302.0","32SVAV9L3GV3WWEQ94JUGWZVFRB3AS","AAY54HW9N8U5K","3P7RGTLO6EZ76AO3386R8ZK9IWWKAW","","null","<img src=""img/land3.png"" style=""width:200px; border:14px solid green;"">","null","","","","","","","","","",""
"","image-keyboard-response","303","106791","0.0-303.0","32SVAV9L3GV3WWEQ94JUGWZVFRB3AS","AAY54HW9N8U5K","3P7RGTLO6EZ76AO3386R8ZK9IWWKAW","","59.39999985694885","img/land1.png","76","60.19999980926514","3","0","2","2","0.8,0.2,0.2,0.2,0.8,0.2,0.2,0.2,0.8","0.2,0.2,0.8,0.8,0.2,0.2,0.2,0.8,0.2","2","",""
"","html-keyboard-response","304","107093","0.0-304.0","32SVAV9L3GV3WWEQ94JUGWZVFRB3AS","AAY54HW9N8U5K","3P7RGTLO6EZ76AO3386R8ZK9IWWKAW","","null","<img src=""img/land1.png"" style=""width:200px;border:14px solid red;"">","null","","","","","","","","","",""
"","image-keyboard-response","305","107141","0.0-305.0","32SVAV9L3GV3WWEQ94JUGWZVFRB3AS","AAY54HW9N8U5K","3P7RGTLO6EZ76AO3386R8ZK9IWWKAW","","46.80000019073486","img/land3.png","76","47.700000047683716","3","1","1","2","0.8,0.2,0.2,0.2,0.8,0.2,0.2,0.2,0.8","0.2,0.2,0.8,0.8,0.2,0.2,0.2,0.8,0.2","2","",""
"","html-keyboard-response","306","107442","0.0-306.0","32SVAV9L3GV3WWEQ94JUGWZVFRB3AS","AAY54HW9N8U5K","3P7RGTLO6EZ76AO3386R8ZK9IWWKAW","","null","<img src=""img/land3.png"" style=""width:200px; border:14px solid green;"">","null","","","","","","","","","",""
"","image-keyboard-response","307","107750","0.0-307.0","32SVAV9L3GV3WWEQ94JUGWZVFRB3AS","AAY54HW9N8U5K","3P7RGTLO6EZ76AO3386R8ZK9IWWKAW","","306.7999999523163","img/land3.png","75","307.59999990463257","2","0","1","2","0.8,0.2,0.2,0.2,0.8,0.2,0.2,0.2,0.8","0.2,0.2,0.8,0.8,0.2,0.2,0.2,0.8,0.2","2","",""
"","html-keyboard-response","308","108052","0.0-308.0","32SVAV9L3GV3WWEQ94JUGWZVFRB3AS","AAY54HW9N8U5K","3P7RGTLO6EZ76AO3386R8ZK9IWWKAW","","null","<img src=""img/land3.png"" style=""width:200px;border:14px solid red;"">","null","","","","","","","","","",""
"","image-keyboard-response","309","108360","0.0-309.0","32SVAV9L3GV3WWEQ94JUGWZVFRB3AS","AAY54HW9N8U5K","3P7RGTLO6EZ76AO3386R8ZK9IWWKAW","","306.60000014305115","img/land5.png","76","307.39999985694885","3","0","3","2","0.8,0.2,0.2,0.2,0.8,0.2,0.2,0.2,0.8","0.2,0.2,0.8,0.8,0.2,0.2,0.2,0.8,0.2","2","",""
"","html-keyboard-response","310","108661","0.0-310.0","32SVAV9L3GV3WWEQ94JUGWZVFRB3AS","AAY54HW9N8U5K","3P7RGTLO6EZ76AO3386R8ZK9IWWKAW","","null","<img src=""img/land5.png"" style=""width:200px;border:14px solid red;"">","null","","","","","","","","","",""
"","image-keyboard-response","311","109354","0.0-311.0","32SVAV9L3GV3WWEQ94JUGWZVFRB3AS","AAY54HW9N8U5K","3P7RGTLO6EZ76AO3386R8ZK9IWWKAW","","691.7999999523163","img/land1.png","75","692.9000000953674","2","0","2","2","0.8,0.2,0.2,0.2,0.8,0.2,0.2,0.2,0.8","0.2,0.2,0.8,0.8,0.2,0.2,0.2,0.8,0.2","2","",""
"","html-keyboard-response","312","109655","0.0-312.0","32SVAV9L3GV3WWEQ94JUGWZVFRB3AS","AAY54HW9N8U5K","3P7RGTLO6EZ76AO3386R8ZK9IWWKAW","","null","<img src=""img/land1.png"" style=""width:200px;border:14px solid red;"">","null","","","","","","","","","",""
"","image-keyboard-response","313","109972","0.0-313.0","32SVAV9L3GV3WWEQ94JUGWZVFRB3AS","AAY54HW9N8U5K","3P7RGTLO6EZ76AO3386R8ZK9IWWKAW","","315.80000019073486","img/land5.png","76","316.7999999523163","3","0","3","2","0.8,0.2,0.2,0.2,0.8,0.2,0.2,0.2,0.8","0.2,0.2,0.8,0.8,0.2,0.2,0.2,0.8,0.2","2","",""
"","html-keyboard-response","314","110274","0.0-314.0","32SVAV9L3GV3WWEQ94JUGWZVFRB3AS","AAY54HW9N8U5K","3P7RGTLO6EZ76AO3386R8ZK9IWWKAW","","null","<img src=""img/land5.png"" style=""width:200px;border:14px solid red;"">","null","","","","","","","","","",""
"","image-keyboard-response","315","110325","0.0-315.0","32SVAV9L3GV3WWEQ94JUGWZVFRB3AS","AAY54HW9N8U5K","3P7RGTLO6EZ76AO3386R8ZK9IWWKAW","","49.69999980926514","img/land1.png","75","50.39999985694885","2","0","2","2","0.8,0.2,0.2,0.2,0.8,0.2,0.2,0.2,0.8","0.2,0.2,0.8,0.8,0.2,0.2,0.2,0.8,0.2","2","",""
"","html-keyboard-response","316","110627","0.0-316.0","32SVAV9L3GV3WWEQ94JUGWZVFRB3AS","AAY54HW9N8U5K","3P7RGTLO6EZ76AO3386R8ZK9IWWKAW","","null","<img src=""img/land1.png"" style=""width:200px;border:14px solid red;"">","null","","","","","","","","","",""
"","image-keyboard-response","317","110827","0.0-317.0","32SVAV9L3GV3WWEQ94JUGWZVFRB3AS","AAY54HW9N8U5K","3P7RGTLO6EZ76AO3386R8ZK9IWWKAW","","198.5","img/land1.png","75","199.59999990463257","2","0","2","2","0.8,0.2,0.2,0.2,0.8,0.2,0.2,0.2,0.8","0.2,0.2,0.8,0.8,0.2,0.2,0.2,0.8,0.2","2","",""
"","html-keyboard-response","318","111129","0.0-318.0","32SVAV9L3GV3WWEQ94JUGWZVFRB3AS","AAY54HW9N8U5K","3P7RGTLO6EZ76AO3386R8ZK9IWWKAW","","null","<img src=""img/land1.png"" style=""width:200px;border:14px solid red;"">","null","","","","","","","","","",""
"","image-keyboard-response","319","111189","0.0-319.0","32SVAV9L3GV3WWEQ94JUGWZVFRB3AS","AAY54HW9N8U5K","3P7RGTLO6EZ76AO3386R8ZK9IWWKAW","","58.89999985694885","img/land1.png","75","60","2","0","2","2","0.8,0.2,0.2,0.2,0.8,0.2,0.2,0.2,0.8","0.2,0.2,0.8,0.8,0.2,0.2,0.2,0.8,0.2","2","",""
"","html-keyboard-response","320","111490","0.0-320.0","32SVAV9L3GV3WWEQ94JUGWZVFRB3AS","AAY54HW9N8U5K","3P7RGTLO6EZ76AO3386R8ZK9IWWKAW","","null","<img src=""img/land1.png"" style=""width:200px;border:14px solid red;"">","null","","","","","","","","","",""
"","image-keyboard-response","321","111515","0.0-321.0","32SVAV9L3GV3WWEQ94JUGWZVFRB3AS","AAY54HW9N8U5K","3P7RGTLO6EZ76AO3386R8ZK9IWWKAW","","23.200000047683716","img/land5.png","75","24.100000143051147","2","1","3","2","0.8,0.2,0.2,0.2,0.8,0.2,0.2,0.2,0.8","0.2,0.2,0.8,0.8,0.2,0.2,0.2,0.8,0.2","2","",""
"","html-keyboard-response","322","111816","0.0-322.0","32SVAV9L3GV3WWEQ94JUGWZVFRB3AS","AAY54HW9N8U5K","3P7RGTLO6EZ76AO3386R8ZK9IWWKAW","","null","<img src=""img/land5.png"" style=""width:200px; border:14px solid green;"">","null","","","","","","","","","",""
"","image-keyboard-response","323","112118","0.0-323.0","32SVAV9L3GV3WWEQ94JUGWZVFRB3AS","AAY54HW9N8U5K","3P7RGTLO6EZ76AO3386R8ZK9IWWKAW","","300.2999999523163","img/land3.png","76","301.2999999523163","3","1","1","2","0.8,0.2,0.2,0.2,0.8,0.2,0.2,0.2,0.8","0.2,0.2,0.8,0.8,0.2,0.2,0.2,0.8,0.2","2","",""
"","html-keyboard-response","324","112420","0.0-324.0","32SVAV9L3GV3WWEQ94JUGWZVFRB3AS","AAY54HW9N8U5K","3P7RGTLO6EZ76AO3386R8ZK9IWWKAW","","null","<img src=""img/land3.png"" style=""width:200px; border:14px solid green;"">","null","","","","","","","","","",""
"","image-keyboard-response","325","112474","0.0-325.0","32SVAV9L3GV3WWEQ94JUGWZVFRB3AS","AAY54HW9N8U5K","3P7RGTLO6EZ76AO3386R8ZK9IWWKAW","","53.40000009536743","img/land1.png","76","54.299999952316284","3","1","2","2","0.8,0.2,0.2,0.2,0.8,0.2,0.2,0.2,0.8","0.2,0.2,0.8,0.8,0.2,0.2,0.2,0.8,0.2","2","",""
"","html-keyboard-response","326","112790","0.0-326.0","32SVAV9L3GV3WWEQ94JUGWZVFRB3AS","AAY54HW9N8U5K","3P7RGTLO6EZ76AO3386R8ZK9IWWKAW","","null","<img src=""img/land1.png"" style=""width:200px; border:14px solid green;"">","null","","","","","","","","","",""
"","image-keyboard-response","327","112876","0.0-327.0","32SVAV9L3GV3WWEQ94JUGWZVFRB3AS","AAY54HW9N8U5K","3P7RGTLO6EZ76AO3386R8ZK9IWWKAW","","84.80000019073486","img/land1.png","76","85.79999995231628","3","0","2","2","0.8,0.2,0.2,0.2,0.8,0.2,0.2,0.2,0.8","0.2,0.2,0.8,0.8,0.2,0.2,0.2,0.8,0.2","2","",""
"","html-keyboard-response","328","113178","0.0-328.0","32SVAV9L3GV3WWEQ94JUGWZVFRB3AS","AAY54HW9N8U5K","3P7RGTLO6EZ76AO3386R8ZK9IWWKAW","","null","<img src=""img/land1.png"" style=""width:200px;border:14px solid red;"">","null","","","","","","","","","",""
"","image-keyboard-response","329","113190","0.0-329.0","32SVAV9L3GV3WWEQ94JUGWZVFRB3AS","AAY54HW9N8U5K","3P7RGTLO6EZ76AO3386R8ZK9IWWKAW","","11.199999809265137","img/land5.png","76","11.799999952316284","3","1","3","2","0.8,0.2,0.2,0.2,0.8,0.2,0.2,0.2,0.8","0.2,0.2,0.8,0.8,0.2,0.2,0.2,0.8,0.2","2","",""
"","html-keyboard-response","330","113492","0.0-330.0","32SVAV9L3GV3WWEQ94JUGWZVFRB3AS","AAY54HW9N8U5K","3P7RGTLO6EZ76AO3386R8ZK9IWWKAW","","null","<img src=""img/land5.png"" style=""width:200px; border:14px solid green;"">","null","","","","","","","","","",""
"","image-keyboard-response","331","113529","0.0-331.0","32SVAV9L3GV3WWEQ94JUGWZVFRB3AS","AAY54HW9N8U5K","3P7RGTLO6EZ76AO3386R8ZK9IWWKAW","","35.69999980926514","img/land1.png","76","36.59999990463257","3","0","2","2","0.8,0.2,0.2,0.2,0.8,0.2,0.2,0.2,0.8","0.2,0.2,0.8,0.8,0.2,0.2,0.2,0.8,0.2","2","",""
"","html-keyboard-response","332","113831","0.0-332.0","32SVAV9L3GV3WWEQ94JUGWZVFRB3AS","AAY54HW9N8U5K","3P7RGTLO6EZ76AO3386R8ZK9IWWKAW","","null","<img src=""img/land1.png"" style=""width:200px;border:14px solid red;"">","null","","","","","","","","","",""
"","image-keyboard-response","333","114130","0.0-333.0","32SVAV9L3GV3WWEQ94JUGWZVFRB3AS","AAY54HW9N8U5K","3P7RGTLO6EZ76AO3386R8ZK9IWWKAW","","297.7000000476837","img/land5.png","76","298.90000009536743","3","0","3","2","0.8,0.2,0.2,0.2,0.8,0.2,0.2,0.2,0.8","0.2,0.2,0.8,0.8,0.2,0.2,0.2,0.8,0.2","2","",""
"","html-keyboard-response","334","114431","0.0-334.0","32SVAV9L3GV3WWEQ94JUGWZVFRB3AS","AAY54HW9N8U5K","3P7RGTLO6EZ76AO3386R8ZK9IWWKAW","","null","<img src=""img/land5.png"" style=""width:200px;border:14px solid red;"">","null","","","","","","","","","",""
"","image-keyboard-response","335","114713","0.0-335.0","32SVAV9L3GV3WWEQ94JUGWZVFRB3AS","AAY54HW9N8U5K","3P7RGTLO6EZ76AO3386R8ZK9IWWKAW","","280.10000014305115","img/land3.png","75","281","2","1","1","2","0.8,0.2,0.2,0.2,0.8,0.2,0.2,0.2,0.8","0.2,0.2,0.8,0.8,0.2,0.2,0.2,0.8,0.2","2","",""
"","html-keyboard-response","336","115014","0.0-336.0","32SVAV9L3GV3WWEQ94JUGWZVFRB3AS","AAY54HW9N8U5K","3P7RGTLO6EZ76AO3386R8ZK9IWWKAW","","null","<img src=""img/land3.png"" style=""width:200px; border:14px solid green;"">","null","","","","","","","","","",""
"","image-keyboard-response","337","115190","0.0-337.0","32SVAV9L3GV3WWEQ94JUGWZVFRB3AS","AAY54HW9N8U5K","3P7RGTLO6EZ76AO3386R8ZK9IWWKAW","","175","img/land3.png","76","175.89999985694885","3","1","1","2","0.8,0.2,0.2,0.2,0.8,0.2,0.2,0.2,0.8","0.2,0.2,0.8,0.8,0.2,0.2,0.2,0.8,0.2","2","",""
"","html-keyboard-response","338","115493","0.0-338.0","32SVAV9L3GV3WWEQ94JUGWZVFRB3AS","AAY54HW9N8U5K","3P7RGTLO6EZ76AO3386R8ZK9IWWKAW","","null","<img src=""img/land3.png"" style=""width:200px; border:14px solid green;"">","null","","","","","","","","","",""
"","image-keyboard-response","339","115721","0.0-339.0","32SVAV9L3GV3WWEQ94JUGWZVFRB3AS","AAY54HW9N8U5K","3P7RGTLO6EZ76AO3386R8ZK9IWWKAW","","226.79999995231628","img/land3.png","76","227.80000019073486","3","1","1","2","0.8,0.2,0.2,0.2,0.8,0.2,0.2,0.2,0.8","0.2,0.2,0.8,0.8,0.2,0.2,0.2,0.8,0.2","2","",""
"","html-keyboard-response","340","116023","0.0-340.0","32SVAV9L3GV3WWEQ94JUGWZVFRB3AS","AAY54HW9N8U5K","3P7RGTLO6EZ76AO3386R8ZK9IWWKAW","","null","<img src=""img/land3.png"" style=""width:200px; border:14px solid green;"">","null","","","","","","","","","",""
"","image-keyboard-response","341","116228","0.0-341.0","32SVAV9L3GV3WWEQ94JUGWZVFRB3AS","AAY54HW9N8U5K","3P7RGTLO6EZ76AO3386R8ZK9IWWKAW","","203.90000009536743","img/land5.png","76","205","3","0","3","2","0.8,0.2,0.2,0.2,0.8,0.2,0.2,0.2,0.8","0.2,0.2,0.8,0.8,0.2,0.2,0.2,0.8,0.2","2","",""
"","html-keyboard-response","342","116530","0.0-342.0","32SVAV9L3GV3WWEQ94JUGWZVFRB3AS","AAY54HW9N8U5K","3P7RGTLO6EZ76AO3386R8ZK9IWWKAW","","null","<img src=""img/land5.png"" style=""width:200px;border:14px solid red;"">","null","","","","","","","","","",""
"","image-keyboard-response","343","116731","0.0-343.0","32SVAV9L3GV3WWEQ94JUGWZVFRB3AS","AAY54HW9N8U5K","3P7RGTLO6EZ76AO3386R8ZK9IWWKAW","","199.90000009536743","img/land3.png","76","201","3","1","1","2","0.8,0.2,0.2,0.2,0.8,0.2,0.2,0.2,0.8","0.2,0.2,0.8,0.8,0.2,0.2,0.2,0.8,0.2","2","",""
"","html-keyboard-response","344","117033","0.0-344.0","32SVAV9L3GV3WWEQ94JUGWZVFRB3AS","AAY54HW9N8U5K","3P7RGTLO6EZ76AO3386R8ZK9IWWKAW","","null","<img src=""img/land3.png"" style=""width:200px; border:14px solid green;"">","null","","","","","","","","","",""
"","image-keyboard-response","345","117304","0.0-345.0","32SVAV9L3GV3WWEQ94JUGWZVFRB3AS","AAY54HW9N8U5K","3P7RGTLO6EZ76AO3386R8ZK9IWWKAW","","269.90000009536743","img/land3.png","76","270.7999999523163","3","1","1","2","0.8,0.2,0.2,0.2,0.8,0.2,0.2,0.2,0.8","0.2,0.2,0.8,0.8,0.2,0.2,0.2,0.8,0.2","2","",""
"","html-keyboard-response","346","117605","0.0-346.0","32SVAV9L3GV3WWEQ94JUGWZVFRB3AS","AAY54HW9N8U5K","3P7RGTLO6EZ76AO3386R8ZK9IWWKAW","","null","<img src=""img/land3.png"" style=""width:200px; border:14px solid green;"">","null","","","","","","","","","",""
"","image-keyboard-response","347","117811","0.0-347.0","32SVAV9L3GV3WWEQ94JUGWZVFRB3AS","AAY54HW9N8U5K","3P7RGTLO6EZ76AO3386R8ZK9IWWKAW","","205.19999980926514","img/land1.png","76","206.10000014305115","3","0","2","2","0.8,0.2,0.2,0.2,0.8,0.2,0.2,0.2,0.8","0.2,0.2,0.8,0.8,0.2,0.2,0.2,0.8,0.2","2","",""
"","html-keyboard-response","348","118125","0.0-348.0","32SVAV9L3GV3WWEQ94JUGWZVFRB3AS","AAY54HW9N8U5K","3P7RGTLO6EZ76AO3386R8ZK9IWWKAW","","null","<img src=""img/land1.png"" style=""width:200px;border:14px solid red;"">","null","","","","","","","","","",""
"","image-keyboard-response","349","118256","0.0-349.0","32SVAV9L3GV3WWEQ94JUGWZVFRB3AS","AAY54HW9N8U5K","3P7RGTLO6EZ76AO3386R8ZK9IWWKAW","","129.79999995231628","img/land1.png","76","130.60000014305115","3","1","2","2","0.8,0.2,0.2,0.2,0.8,0.2,0.2,0.2,0.8","0.2,0.2,0.8,0.8,0.2,0.2,0.2,0.8,0.2","2","",""
"","html-keyboard-response","350","118558","0.0-350.0","32SVAV9L3GV3WWEQ94JUGWZVFRB3AS","AAY54HW9N8U5K","3P7RGTLO6EZ76AO3386R8ZK9IWWKAW","","null","<img src=""img/land1.png"" style=""width:200px; border:14px solid green;"">","null","","","","","","","","","",""
"","image-keyboard-response","351","118942","0.0-351.0","32SVAV9L3GV3WWEQ94JUGWZVFRB3AS","AAY54HW9N8U5K","3P7RGTLO6EZ76AO3386R8ZK9IWWKAW","","383.40000009536743","img/land3.png","75","384.2999999523163","2","0","1","2","0.8,0.2,0.2,0.2,0.8,0.2,0.2,0.2,0.8","0.2,0.2,0.8,0.8,0.2,0.2,0.2,0.8,0.2","2","",""
"","html-keyboard-response","352","119244","0.0-352.0","32SVAV9L3GV3WWEQ94JUGWZVFRB3AS","AAY54HW9N8U5K","3P7RGTLO6EZ76AO3386R8ZK9IWWKAW","","null","<img src=""img/land3.png"" style=""width:200px;border:14px solid red;"">","null","","","","","","","","","",""
"","image-keyboard-response","353","119406","0.0-353.0","32SVAV9L3GV3WWEQ94JUGWZVFRB3AS","AAY54HW9N8U5K","3P7RGTLO6EZ76AO3386R8ZK9IWWKAW","","160.60000014305115","img/land3.png","76","161.59999990463257","3","0","1","2","0.8,0.2,0.2,0.2,0.8,0.2,0.2,0.2,0.8","0.2,0.2,0.8,0.8,0.2,0.2,0.2,0.8,0.2","2","",""
"","html-keyboard-response","354","119708","0.0-354.0","32SVAV9L3GV3WWEQ94JUGWZVFRB3AS","AAY54HW9N8U5K","3P7RGTLO6EZ76AO3386R8ZK9IWWKAW","","null","<img src=""img/land3.png"" style=""width:200px;border:14px solid red;"">","null","","","","","","","","","",""
"","image-keyboard-response","355","120010","0.0-355.0","32SVAV9L3GV3WWEQ94JUGWZVFRB3AS","AAY54HW9N8U5K","3P7RGTLO6EZ76AO3386R8ZK9IWWKAW","","300.39999985694885","img/land1.png","76","301.5","3","0","2","2","0.8,0.2,0.2,0.2,0.8,0.2,0.2,0.2,0.8","0.2,0.2,0.8,0.8,0.2,0.2,0.2,0.8,0.2","2","",""
"","html-keyboard-response","356","120312","0.0-356.0","32SVAV9L3GV3WWEQ94JUGWZVFRB3AS","AAY54HW9N8U5K","3P7RGTLO6EZ76AO3386R8ZK9IWWKAW","","null","<img src=""img/land1.png"" style=""width:200px;border:14px solid red;"">","null","","","","","","","","","",""
