"success","trial_type","trial_index","time_elapsed","internal_node_id","assignmentID","mturkID","hitID","view_history","rt","stimulus","key_press","reactionTime","a","r","warning","s","reward_cond","responses","question_order"
"true","fullscreen","0","4391","0.0-0.0","37XITHEISXVJ8DWQ48GH4PSZHTGCRD","ABICECSTT3MWF","3S829FDFT2NBOHQMM1CIOU0HZYXDXL","","","","","","","","","","","",""
"","instructions","1","21775","0.0-1.0","37XITHEISXVJ8DWQ48GH4PSZHTGCRD","ABICECSTT3MWF","3S829FDFT2NBOHQMM1CIOU0HZYXDXL","[{""page_index"":0,""viewing_time"":2472},{""page_index"":1,""viewing_time"":2314},{""page_index"":2,""viewing_time"":822},{""page_index"":3,""viewing_time"":663},{""page_index"":4,""viewing_time"":4193},{""page_index"":5,""viewing_time"":2754},{""page_index"":6,""viewing_time"":1851},{""page_index"":7,""viewing_time"":2310}]","17380","","","","","","","","","",""
"","image-keyboard-response","2","22779","0.0-2.0","37XITHEISXVJ8DWQ48GH4PSZHTGCRD","ABICECSTT3MWF","3S829FDFT2NBOHQMM1CIOU0HZYXDXL","","","img/land7.png","","1004","-1","0","true","2","0.6,0.6,0,0,0.6,0.6,0.6,0,0.6","",""
"","html-keyboard-response","3","23083","0.0-3.0","37XITHEISXVJ8DWQ48GH4PSZHTGCRD","ABICECSTT3MWF","3S829FDFT2NBOHQMM1CIOU0HZYXDXL","","null","<img src=""img/land7.png"" style=""width:200px;border:14px solid red;"">","null","","","","","","","",""
"","html-keyboard-response","4","30979","0.0-4.0-0.0","37XITHEISXVJ8DWQ48GH4PSZHTGCRD","ABICECSTT3MWF","3S829FDFT2NBOHQMM1CIOU0HZYXDXL","","","","","","","","","","","",""
"","image-keyboard-response","5","31981","0.0-5.0","37XITHEISXVJ8DWQ48GH4PSZHTGCRD","ABICECSTT3MWF","3S829FDFT2NBOHQMM1CIOU0HZYXDXL","","","img/land8.png","","1002","-1","0","true","1","0.6,0.6,0,0,0.6,0.6,0.6,0,0.6","",""
"","html-keyboard-response","6","32284","0.0-6.0","37XITHEISXVJ8DWQ48GH4PSZHTGCRD","ABICECSTT3MWF","3S829FDFT2NBOHQMM1CIOU0HZYXDXL","","null","<img src=""img/land8.png"" style=""width:200px;border:14px solid red;"">","null","","","","","","","",""
"","html-keyboard-response","7","40759","0.0-7.0-0.0","37XITHEISXVJ8DWQ48GH4PSZHTGCRD","ABICECSTT3MWF","3S829FDFT2NBOHQMM1CIOU0HZYXDXL","","","","","","","","","","","",""
"","image-keyboard-response","8","40915","0.0-8.0","37XITHEISXVJ8DWQ48GH4PSZHTGCRD","ABICECSTT3MWF","3S829FDFT2NBOHQMM1CIOU0HZYXDXL","","154","img/land7.png","74","156","1","0","false","2","0.6,0.6,0,0,0.6,0.6,0.6,0,0.6","",""
"","html-keyboard-response","9","41217","0.0-9.0","37XITHEISXVJ8DWQ48GH4PSZHTGCRD","ABICECSTT3MWF","3S829FDFT2NBOHQMM1CIOU0HZYXDXL","","null","<img src=""img/land7.png"" style=""width:200px;border:14px solid red;"">","null","","","","","","","",""
"","image-keyboard-response","10","42221","0.0-11.0","37XITHEISXVJ8DWQ48GH4PSZHTGCRD","ABICECSTT3MWF","3S829FDFT2NBOHQMM1CIOU0HZYXDXL","","","img/land4.png","","1003","-1","0","true","3","0.6,0.6,0,0,0.6,0.6,0.6,0,0.6","",""
"","html-keyboard-response","11","42524","0.0-12.0","37XITHEISXVJ8DWQ48GH4PSZHTGCRD","ABICECSTT3MWF","3S829FDFT2NBOHQMM1CIOU0HZYXDXL","","null","<img src=""img/land4.png"" style=""width:200px;border:14px solid red;"">","null","","","","","","","",""
"","html-keyboard-response","12","43533","0.0-13.0-0.0","37XITHEISXVJ8DWQ48GH4PSZHTGCRD","ABICECSTT3MWF","3S829FDFT2NBOHQMM1CIOU0HZYXDXL","","","","","","","","","","","",""
"","image-keyboard-response","13","43619","0.0-14.0","37XITHEISXVJ8DWQ48GH4PSZHTGCRD","ABICECSTT3MWF","3S829FDFT2NBOHQMM1CIOU0HZYXDXL","","84","img/land8.png","75","86","2","1","false","1","0.6,0.6,0,0,0.6,0.6,0.6,0,0.6","",""
"","html-keyboard-response","14","43920","0.0-15.0","37XITHEISXVJ8DWQ48GH4PSZHTGCRD","ABICECSTT3MWF","3S829FDFT2NBOHQMM1CIOU0HZYXDXL","","null","<img src=""img/land8.png"" style=""width:200px; border:14px solid green;"">","null","","","","","","","",""
"","image-keyboard-response","15","44095","0.0-17.0","37XITHEISXVJ8DWQ48GH4PSZHTGCRD","ABICECSTT3MWF","3S829FDFT2NBOHQMM1CIOU0HZYXDXL","","173","img/land7.png","75","176","2","1","false","2","0.6,0.6,0,0,0.6,0.6,0.6,0,0.6","",""
"","html-keyboard-response","16","44400","0.0-18.0","37XITHEISXVJ8DWQ48GH4PSZHTGCRD","ABICECSTT3MWF","3S829FDFT2NBOHQMM1CIOU0HZYXDXL","","null","<img src=""img/land7.png"" style=""width:200px; border:14px solid green;"">","null","","","","","","","",""
"","image-keyboard-response","17","44411","0.0-20.0","37XITHEISXVJ8DWQ48GH4PSZHTGCRD","ABICECSTT3MWF","3S829FDFT2NBOHQMM1CIOU0HZYXDXL","","9","img/land7.png","75","10","2","0","false","2","0.6,0.6,0,0,0.6,0.6,0.6,0,0.6","",""
"","html-keyboard-response","18","44712","0.0-21.0","37XITHEISXVJ8DWQ48GH4PSZHTGCRD","ABICECSTT3MWF","3S829FDFT2NBOHQMM1CIOU0HZYXDXL","","null","<img src=""img/land7.png"" style=""width:200px;border:14px solid red;"">","null","","","","","","","",""
"","image-keyboard-response","19","44742","0.0-23.0","37XITHEISXVJ8DWQ48GH4PSZHTGCRD","ABICECSTT3MWF","3S829FDFT2NBOHQMM1CIOU0HZYXDXL","","28","img/land8.png","74","29","1","0","false","1","0.6,0.6,0,0,0.6,0.6,0.6,0,0.6","",""
"","html-keyboard-response","20","45044","0.0-24.0","37XITHEISXVJ8DWQ48GH4PSZHTGCRD","ABICECSTT3MWF","3S829FDFT2NBOHQMM1CIOU0HZYXDXL","","null","<img src=""img/land8.png"" style=""width:200px;border:14px solid red;"">","null","","","","","","","",""
"","image-keyboard-response","21","45155","0.0-26.0","37XITHEISXVJ8DWQ48GH4PSZHTGCRD","ABICECSTT3MWF","3S829FDFT2NBOHQMM1CIOU0HZYXDXL","","108","img/land4.png","74","109","1","1","false","3","0.6,0.6,0,0,0.6,0.6,0.6,0,0.6","",""
"","html-keyboard-response","22","45458","0.0-27.0","37XITHEISXVJ8DWQ48GH4PSZHTGCRD","ABICECSTT3MWF","3S829FDFT2NBOHQMM1CIOU0HZYXDXL","","null","<img src=""img/land4.png"" style=""width:200px; border:14px solid green;"">","null","","","","","","","",""
"","image-keyboard-response","23","45513","0.0-29.0","37XITHEISXVJ8DWQ48GH4PSZHTGCRD","ABICECSTT3MWF","3S829FDFT2NBOHQMM1CIOU0HZYXDXL","","53","img/land4.png","75","54","2","0","false","3","0.6,0.6,0,0,0.6,0.6,0.6,0,0.6","",""
"","html-keyboard-response","24","45815","0.0-30.0","37XITHEISXVJ8DWQ48GH4PSZHTGCRD","ABICECSTT3MWF","3S829FDFT2NBOHQMM1CIOU0HZYXDXL","","null","<img src=""img/land4.png"" style=""width:200px;border:14px solid red;"">","null","","","","","","","",""
"","image-keyboard-response","25","45956","0.0-32.0","37XITHEISXVJ8DWQ48GH4PSZHTGCRD","ABICECSTT3MWF","3S829FDFT2NBOHQMM1CIOU0HZYXDXL","","139","img/land8.png","75","141","2","0","false","1","0.6,0.6,0,0,0.6,0.6,0.6,0,0.6","",""
"","html-keyboard-response","26","46259","0.0-33.0","37XITHEISXVJ8DWQ48GH4PSZHTGCRD","ABICECSTT3MWF","3S829FDFT2NBOHQMM1CIOU0HZYXDXL","","null","<img src=""img/land8.png"" style=""width:200px;border:14px solid red;"">","null","","","","","","","",""
"","image-keyboard-response","27","46283","0.0-35.0","37XITHEISXVJ8DWQ48GH4PSZHTGCRD","ABICECSTT3MWF","3S829FDFT2NBOHQMM1CIOU0HZYXDXL","","20","img/land8.png","75","22","2","1","false","1","0.6,0.6,0,0,0.6,0.6,0.6,0,0.6","",""
"","html-keyboard-response","28","46584","0.0-36.0","37XITHEISXVJ8DWQ48GH4PSZHTGCRD","ABICECSTT3MWF","3S829FDFT2NBOHQMM1CIOU0HZYXDXL","","null","<img src=""img/land8.png"" style=""width:200px; border:14px solid green;"">","null","","","","","","","",""
"","image-keyboard-response","29","46723","0.0-38.0","37XITHEISXVJ8DWQ48GH4PSZHTGCRD","ABICECSTT3MWF","3S829FDFT2NBOHQMM1CIOU0HZYXDXL","","137","img/land4.png","75","138","2","0","false","3","0.6,0.6,0,0,0.6,0.6,0.6,0,0.6","",""
"","html-keyboard-response","30","47029","0.0-39.0","37XITHEISXVJ8DWQ48GH4PSZHTGCRD","ABICECSTT3MWF","3S829FDFT2NBOHQMM1CIOU0HZYXDXL","","null","<img src=""img/land4.png"" style=""width:200px;border:14px solid red;"">","null","","","","","","","",""
"","image-keyboard-response","31","47171","0.0-41.0","37XITHEISXVJ8DWQ48GH4PSZHTGCRD","ABICECSTT3MWF","3S829FDFT2NBOHQMM1CIOU0HZYXDXL","","140","img/land4.png","76","142","3","1","false","3","0.6,0.6,0,0,0.6,0.6,0.6,0,0.6","",""
"","html-keyboard-response","32","47474","0.0-42.0","37XITHEISXVJ8DWQ48GH4PSZHTGCRD","ABICECSTT3MWF","3S829FDFT2NBOHQMM1CIOU0HZYXDXL","","null","<img src=""img/land4.png"" style=""width:200px; border:14px solid green;"">","null","","","","","","","",""
"","image-keyboard-response","33","47512","0.0-44.0","37XITHEISXVJ8DWQ48GH4PSZHTGCRD","ABICECSTT3MWF","3S829FDFT2NBOHQMM1CIOU0HZYXDXL","","37","img/land4.png","75","38","2","0","false","3","0.6,0.6,0,0,0.6,0.6,0.6,0,0.6","",""
"","html-keyboard-response","34","47812","0.0-45.0","37XITHEISXVJ8DWQ48GH4PSZHTGCRD","ABICECSTT3MWF","3S829FDFT2NBOHQMM1CIOU0HZYXDXL","","null","<img src=""img/land4.png"" style=""width:200px;border:14px solid red;"">","null","","","","","","","",""
"","image-keyboard-response","35","47833","0.0-47.0","37XITHEISXVJ8DWQ48GH4PSZHTGCRD","ABICECSTT3MWF","3S829FDFT2NBOHQMM1CIOU0HZYXDXL","","19","img/land8.png","75","20","2","1","false","1","0.6,0.6,0,0,0.6,0.6,0.6,0,0.6","",""
"","html-keyboard-response","36","48134","0.0-48.0","37XITHEISXVJ8DWQ48GH4PSZHTGCRD","ABICECSTT3MWF","3S829FDFT2NBOHQMM1CIOU0HZYXDXL","","null","<img src=""img/land8.png"" style=""width:200px; border:14px solid green;"">","null","","","","","","","",""
"","image-keyboard-response","37","48163","0.0-50.0","37XITHEISXVJ8DWQ48GH4PSZHTGCRD","ABICECSTT3MWF","3S829FDFT2NBOHQMM1CIOU0HZYXDXL","","28","img/land8.png","75","28","2","1","false","1","0.6,0.6,0,0,0.6,0.6,0.6,0,0.6","",""
"","html-keyboard-response","38","48464","0.0-51.0","37XITHEISXVJ8DWQ48GH4PSZHTGCRD","ABICECSTT3MWF","3S829FDFT2NBOHQMM1CIOU0HZYXDXL","","null","<img src=""img/land8.png"" style=""width:200px; border:14px solid green;"">","null","","","","","","","",""
"","image-keyboard-response","39","48475","0.0-53.0","37XITHEISXVJ8DWQ48GH4PSZHTGCRD","ABICECSTT3MWF","3S829FDFT2NBOHQMM1CIOU0HZYXDXL","","10","img/land7.png","75","11","2","0","false","2","0.6,0.6,0,0,0.6,0.6,0.6,0,0.6","",""
"","html-keyboard-response","40","48777","0.0-54.0","37XITHEISXVJ8DWQ48GH4PSZHTGCRD","ABICECSTT3MWF","3S829FDFT2NBOHQMM1CIOU0HZYXDXL","","null","<img src=""img/land7.png"" style=""width:200px;border:14px solid red;"">","null","","","","","","","",""
"","image-keyboard-response","41","48914","0.0-56.0","37XITHEISXVJ8DWQ48GH4PSZHTGCRD","ABICECSTT3MWF","3S829FDFT2NBOHQMM1CIOU0HZYXDXL","","135","img/land4.png","74","136","1","1","false","3","0.6,0.6,0,0,0.6,0.6,0.6,0,0.6","",""
"","html-keyboard-response","42","49215","0.0-57.0","37XITHEISXVJ8DWQ48GH4PSZHTGCRD","ABICECSTT3MWF","3S829FDFT2NBOHQMM1CIOU0HZYXDXL","","null","<img src=""img/land4.png"" style=""width:200px; border:14px solid green;"">","null","","","","","","","",""
"","image-keyboard-response","43","49423","0.0-59.0","37XITHEISXVJ8DWQ48GH4PSZHTGCRD","ABICECSTT3MWF","3S829FDFT2NBOHQMM1CIOU0HZYXDXL","","206","img/land7.png","76","208","3","0","false","2","0.6,0.6,0,0,0.6,0.6,0.6,0,0.6","",""
"","html-keyboard-response","44","49724","0.0-60.0","37XITHEISXVJ8DWQ48GH4PSZHTGCRD","ABICECSTT3MWF","3S829FDFT2NBOHQMM1CIOU0HZYXDXL","","null","<img src=""img/land7.png"" style=""width:200px;border:14px solid red;"">","null","","","","","","","",""
"","image-keyboard-response","45","49904","0.0-62.0","37XITHEISXVJ8DWQ48GH4PSZHTGCRD","ABICECSTT3MWF","3S829FDFT2NBOHQMM1CIOU0HZYXDXL","","177","img/land8.png","75","179","2","1","false","1","0.6,0.6,0,0,0.6,0.6,0.6,0,0.6","",""
"","html-keyboard-response","46","50206","0.0-63.0","37XITHEISXVJ8DWQ48GH4PSZHTGCRD","ABICECSTT3MWF","3S829FDFT2NBOHQMM1CIOU0HZYXDXL","","null","<img src=""img/land8.png"" style=""width:200px; border:14px solid green;"">","null","","","","","","","",""
"","image-keyboard-response","47","50323","0.0-65.0","37XITHEISXVJ8DWQ48GH4PSZHTGCRD","ABICECSTT3MWF","3S829FDFT2NBOHQMM1CIOU0HZYXDXL","","113","img/land8.png","76","116","3","0","false","1","0.6,0.6,0,0,0.6,0.6,0.6,0,0.6","",""
"","html-keyboard-response","48","50625","0.0-66.0","37XITHEISXVJ8DWQ48GH4PSZHTGCRD","ABICECSTT3MWF","3S829FDFT2NBOHQMM1CIOU0HZYXDXL","","null","<img src=""img/land8.png"" style=""width:200px;border:14px solid red;"">","null","","","","","","","",""
"","image-keyboard-response","49","50832","0.0-68.0","37XITHEISXVJ8DWQ48GH4PSZHTGCRD","ABICECSTT3MWF","3S829FDFT2NBOHQMM1CIOU0HZYXDXL","","206","img/land4.png","75","206","2","0","false","3","0.6,0.6,0,0,0.6,0.6,0.6,0,0.6","",""
"","html-keyboard-response","50","51136","0.0-69.0","37XITHEISXVJ8DWQ48GH4PSZHTGCRD","ABICECSTT3MWF","3S829FDFT2NBOHQMM1CIOU0HZYXDXL","","null","<img src=""img/land4.png"" style=""width:200px;border:14px solid red;"">","null","","","","","","","",""
"","image-keyboard-response","51","51204","0.0-71.0","37XITHEISXVJ8DWQ48GH4PSZHTGCRD","ABICECSTT3MWF","3S829FDFT2NBOHQMM1CIOU0HZYXDXL","","65","img/land8.png","75","68","2","1","false","1","0.6,0.6,0,0,0.6,0.6,0.6,0,0.6","",""
"","html-keyboard-response","52","51506","0.0-72.0","37XITHEISXVJ8DWQ48GH4PSZHTGCRD","ABICECSTT3MWF","3S829FDFT2NBOHQMM1CIOU0HZYXDXL","","null","<img src=""img/land8.png"" style=""width:200px; border:14px solid green;"">","null","","","","","","","",""
"","image-keyboard-response","53","51614","0.0-74.0","37XITHEISXVJ8DWQ48GH4PSZHTGCRD","ABICECSTT3MWF","3S829FDFT2NBOHQMM1CIOU0HZYXDXL","","106","img/land4.png","76","107","3","1","false","3","0.6,0.6,0,0,0.6,0.6,0.6,0,0.6","",""
"","html-keyboard-response","54","51915","0.0-75.0","37XITHEISXVJ8DWQ48GH4PSZHTGCRD","ABICECSTT3MWF","3S829FDFT2NBOHQMM1CIOU0HZYXDXL","","null","<img src=""img/land4.png"" style=""width:200px; border:14px solid green;"">","null","","","","","","","",""
"","image-keyboard-response","55","52114","0.0-77.0","37XITHEISXVJ8DWQ48GH4PSZHTGCRD","ABICECSTT3MWF","3S829FDFT2NBOHQMM1CIOU0HZYXDXL","","198","img/land4.png","75","199","2","0","false","3","0.6,0.6,0,0,0.6,0.6,0.6,0,0.6","",""
"","html-keyboard-response","56","52416","0.0-78.0","37XITHEISXVJ8DWQ48GH4PSZHTGCRD","ABICECSTT3MWF","3S829FDFT2NBOHQMM1CIOU0HZYXDXL","","null","<img src=""img/land4.png"" style=""width:200px;border:14px solid red;"">","null","","","","","","","",""
"","image-keyboard-response","57","52622","0.0-80.0","37XITHEISXVJ8DWQ48GH4PSZHTGCRD","ABICECSTT3MWF","3S829FDFT2NBOHQMM1CIOU0HZYXDXL","","205","img/land7.png","76","206","3","1","false","2","0.6,0.6,0,0,0.6,0.6,0.6,0,0.6","",""
"","html-keyboard-response","58","52924","0.0-81.0","37XITHEISXVJ8DWQ48GH4PSZHTGCRD","ABICECSTT3MWF","3S829FDFT2NBOHQMM1CIOU0HZYXDXL","","null","<img src=""img/land7.png"" style=""width:200px; border:14px solid green;"">","null","","","","","","","",""
"","image-keyboard-response","59","52933","0.0-83.0","37XITHEISXVJ8DWQ48GH4PSZHTGCRD","ABICECSTT3MWF","3S829FDFT2NBOHQMM1CIOU0HZYXDXL","","6","img/land7.png","75","9","2","1","false","2","0.6,0.6,0,0,0.6,0.6,0.6,0,0.6","",""
"","html-keyboard-response","60","53255","0.0-84.0","37XITHEISXVJ8DWQ48GH4PSZHTGCRD","ABICECSTT3MWF","3S829FDFT2NBOHQMM1CIOU0HZYXDXL","","null","<img src=""img/land7.png"" style=""width:200px; border:14px solid green;"">","null","","","","","","","",""
"","image-keyboard-response","61","53312","0.0-86.0","37XITHEISXVJ8DWQ48GH4PSZHTGCRD","ABICECSTT3MWF","3S829FDFT2NBOHQMM1CIOU0HZYXDXL","","56","img/land8.png","75","57","2","0","false","1","0.6,0.6,0,0,0.6,0.6,0.6,0,0.6","",""
"","html-keyboard-response","62","53614","0.0-87.0","37XITHEISXVJ8DWQ48GH4PSZHTGCRD","ABICECSTT3MWF","3S829FDFT2NBOHQMM1CIOU0HZYXDXL","","null","<img src=""img/land8.png"" style=""width:200px;border:14px solid red;"">","null","","","","","","","",""
"","image-keyboard-response","63","53734","0.0-89.0","37XITHEISXVJ8DWQ48GH4PSZHTGCRD","ABICECSTT3MWF","3S829FDFT2NBOHQMM1CIOU0HZYXDXL","","117","img/land4.png","76","119","3","0","false","3","0.6,0.6,0,0,0.6,0.6,0.6,0,0.6","",""
"","html-keyboard-response","64","54041","0.0-90.0","37XITHEISXVJ8DWQ48GH4PSZHTGCRD","ABICECSTT3MWF","3S829FDFT2NBOHQMM1CIOU0HZYXDXL","","null","<img src=""img/land4.png"" style=""width:200px;border:14px solid red;"">","null","","","","","","","",""
"","image-keyboard-response","65","54164","0.0-92.0","37XITHEISXVJ8DWQ48GH4PSZHTGCRD","ABICECSTT3MWF","3S829FDFT2NBOHQMM1CIOU0HZYXDXL","","99","img/land7.png","75","105","2","0","false","2","0.6,0.6,0,0,0.6,0.6,0.6,0,0.6","",""
"","html-keyboard-response","66","54467","0.0-93.0","37XITHEISXVJ8DWQ48GH4PSZHTGCRD","ABICECSTT3MWF","3S829FDFT2NBOHQMM1CIOU0HZYXDXL","","null","<img src=""img/land7.png"" style=""width:200px;border:14px solid red;"">","null","","","","","","","",""
"","image-keyboard-response","67","54643","0.0-95.0","37XITHEISXVJ8DWQ48GH4PSZHTGCRD","ABICECSTT3MWF","3S829FDFT2NBOHQMM1CIOU0HZYXDXL","","174","img/land7.png","74","175","1","0","false","2","0.6,0.6,0,0,0.6,0.6,0.6,0,0.6","",""
"","html-keyboard-response","68","54958","0.0-96.0","37XITHEISXVJ8DWQ48GH4PSZHTGCRD","ABICECSTT3MWF","3S829FDFT2NBOHQMM1CIOU0HZYXDXL","","null","<img src=""img/land7.png"" style=""width:200px;border:14px solid red;"">","null","","","","","","","",""
"","image-keyboard-response","69","55053","0.0-98.0","37XITHEISXVJ8DWQ48GH4PSZHTGCRD","ABICECSTT3MWF","3S829FDFT2NBOHQMM1CIOU0HZYXDXL","","92","img/land4.png","75","94","2","0","false","3","0.6,0.6,0,0,0.6,0.6,0.6,0,0.6","",""
"","html-keyboard-response","70","55354","0.0-99.0","37XITHEISXVJ8DWQ48GH4PSZHTGCRD","ABICECSTT3MWF","3S829FDFT2NBOHQMM1CIOU0HZYXDXL","","null","<img src=""img/land4.png"" style=""width:200px;border:14px solid red;"">","null","","","","","","","",""
"","image-keyboard-response","71","55485","0.0-101.0","37XITHEISXVJ8DWQ48GH4PSZHTGCRD","ABICECSTT3MWF","3S829FDFT2NBOHQMM1CIOU0HZYXDXL","","129","img/land4.png","76","131","3","0","false","3","0.6,0.6,0,0,0.6,0.6,0.6,0,0.6","",""
"","html-keyboard-response","72","55788","0.0-102.0","37XITHEISXVJ8DWQ48GH4PSZHTGCRD","ABICECSTT3MWF","3S829FDFT2NBOHQMM1CIOU0HZYXDXL","","null","<img src=""img/land4.png"" style=""width:200px;border:14px solid red;"">","null","","","","","","","",""
"","image-keyboard-response","73","55953","0.0-104.0","37XITHEISXVJ8DWQ48GH4PSZHTGCRD","ABICECSTT3MWF","3S829FDFT2NBOHQMM1CIOU0HZYXDXL","","164","img/land4.png","75","164","2","0","false","3","0.6,0.6,0,0,0.6,0.6,0.6,0,0.6","",""
"","html-keyboard-response","74","56256","0.0-105.0","37XITHEISXVJ8DWQ48GH4PSZHTGCRD","ABICECSTT3MWF","3S829FDFT2NBOHQMM1CIOU0HZYXDXL","","null","<img src=""img/land4.png"" style=""width:200px;border:14px solid red;"">","null","","","","","","","",""
"","image-keyboard-response","75","56284","0.0-107.0","37XITHEISXVJ8DWQ48GH4PSZHTGCRD","ABICECSTT3MWF","3S829FDFT2NBOHQMM1CIOU0HZYXDXL","","25","img/land4.png","76","26","3","1","false","3","0.6,0.6,0,0,0.6,0.6,0.6,0,0.6","",""
"","html-keyboard-response","76","56588","0.0-108.0","37XITHEISXVJ8DWQ48GH4PSZHTGCRD","ABICECSTT3MWF","3S829FDFT2NBOHQMM1CIOU0HZYXDXL","","null","<img src=""img/land4.png"" style=""width:200px; border:14px solid green;"">","null","","","","","","","",""
"","image-keyboard-response","77","56653","0.0-110.0","37XITHEISXVJ8DWQ48GH4PSZHTGCRD","ABICECSTT3MWF","3S829FDFT2NBOHQMM1CIOU0HZYXDXL","","63","img/land4.png","76","64","3","1","false","3","0.6,0.6,0,0,0.6,0.6,0.6,0,0.6","",""
"","html-keyboard-response","78","56958","0.0-111.0","37XITHEISXVJ8DWQ48GH4PSZHTGCRD","ABICECSTT3MWF","3S829FDFT2NBOHQMM1CIOU0HZYXDXL","","null","<img src=""img/land4.png"" style=""width:200px; border:14px solid green;"">","null","","","","","","","",""
"","image-keyboard-response","79","57019","0.0-113.0","37XITHEISXVJ8DWQ48GH4PSZHTGCRD","ABICECSTT3MWF","3S829FDFT2NBOHQMM1CIOU0HZYXDXL","","60","img/land8.png","76","62","3","0","false","1","0.6,0.6,0,0,0.6,0.6,0.6,0,0.6","",""
"","html-keyboard-response","80","57322","0.0-114.0","37XITHEISXVJ8DWQ48GH4PSZHTGCRD","ABICECSTT3MWF","3S829FDFT2NBOHQMM1CIOU0HZYXDXL","","null","<img src=""img/land8.png"" style=""width:200px;border:14px solid red;"">","null","","","","","","","",""
"","image-keyboard-response","81","57453","0.0-116.0","37XITHEISXVJ8DWQ48GH4PSZHTGCRD","ABICECSTT3MWF","3S829FDFT2NBOHQMM1CIOU0HZYXDXL","","130","img/land8.png","76","131","3","0","false","1","0.6,0.6,0,0,0.6,0.6,0.6,0,0.6","",""
"","html-keyboard-response","82","57755","0.0-117.0","37XITHEISXVJ8DWQ48GH4PSZHTGCRD","ABICECSTT3MWF","3S829FDFT2NBOHQMM1CIOU0HZYXDXL","","null","<img src=""img/land8.png"" style=""width:200px;border:14px solid red;"">","null","","","","","","","",""
"","image-keyboard-response","83","57903","0.0-119.0","37XITHEISXVJ8DWQ48GH4PSZHTGCRD","ABICECSTT3MWF","3S829FDFT2NBOHQMM1CIOU0HZYXDXL","","147","img/land4.png","75","147","2","0","false","3","0.6,0.6,0,0,0.6,0.6,0.6,0,0.6","",""
"","html-keyboard-response","84","58205","0.0-120.0","37XITHEISXVJ8DWQ48GH4PSZHTGCRD","ABICECSTT3MWF","3S829FDFT2NBOHQMM1CIOU0HZYXDXL","","null","<img src=""img/land4.png"" style=""width:200px;border:14px solid red;"">","null","","","","","","","",""
"","image-keyboard-response","85","58388","0.0-122.0","37XITHEISXVJ8DWQ48GH4PSZHTGCRD","ABICECSTT3MWF","3S829FDFT2NBOHQMM1CIOU0HZYXDXL","","182","img/land8.png","75","183","2","0","false","1","0.6,0.6,0,0,0.6,0.6,0.6,0,0.6","",""
"","html-keyboard-response","86","58689","0.0-123.0","37XITHEISXVJ8DWQ48GH4PSZHTGCRD","ABICECSTT3MWF","3S829FDFT2NBOHQMM1CIOU0HZYXDXL","","null","<img src=""img/land8.png"" style=""width:200px;border:14px solid red;"">","null","","","","","","","",""
"","image-keyboard-response","87","58707","0.0-125.0","37XITHEISXVJ8DWQ48GH4PSZHTGCRD","ABICECSTT3MWF","3S829FDFT2NBOHQMM1CIOU0HZYXDXL","","17","img/land8.png","75","17","2","1","false","1","0.6,0.6,0,0,0.6,0.6,0.6,0,0.6","",""
"","html-keyboard-response","88","59009","0.0-126.0","37XITHEISXVJ8DWQ48GH4PSZHTGCRD","ABICECSTT3MWF","3S829FDFT2NBOHQMM1CIOU0HZYXDXL","","null","<img src=""img/land8.png"" style=""width:200px; border:14px solid green;"">","null","","","","","","","",""
"","image-keyboard-response","89","59063","0.0-128.0","37XITHEISXVJ8DWQ48GH4PSZHTGCRD","ABICECSTT3MWF","3S829FDFT2NBOHQMM1CIOU0HZYXDXL","","53","img/land4.png","74","54","1","0","false","3","0.6,0.6,0,0,0.6,0.6,0.6,0,0.6","",""
"","html-keyboard-response","90","59392","0.0-129.0","37XITHEISXVJ8DWQ48GH4PSZHTGCRD","ABICECSTT3MWF","3S829FDFT2NBOHQMM1CIOU0HZYXDXL","","null","<img src=""img/land4.png"" style=""width:200px;border:14px solid red;"">","null","","","","","","","",""
"","image-keyboard-response","91","59434","0.0-131.0","37XITHEISXVJ8DWQ48GH4PSZHTGCRD","ABICECSTT3MWF","3S829FDFT2NBOHQMM1CIOU0HZYXDXL","","41","img/land4.png","75","42","2","0","false","3","0.6,0.6,0,0,0.6,0.6,0.6,0,0.6","",""
"","html-keyboard-response","92","59736","0.0-132.0","37XITHEISXVJ8DWQ48GH4PSZHTGCRD","ABICECSTT3MWF","3S829FDFT2NBOHQMM1CIOU0HZYXDXL","","null","<img src=""img/land4.png"" style=""width:200px;border:14px solid red;"">","null","","","","","","","",""
"","image-keyboard-response","93","59833","0.0-134.0","37XITHEISXVJ8DWQ48GH4PSZHTGCRD","ABICECSTT3MWF","3S829FDFT2NBOHQMM1CIOU0HZYXDXL","","91","img/land8.png","75","93","2","0","false","1","0.6,0.6,0,0,0.6,0.6,0.6,0,0.6","",""
"","html-keyboard-response","94","60134","0.0-135.0","37XITHEISXVJ8DWQ48GH4PSZHTGCRD","ABICECSTT3MWF","3S829FDFT2NBOHQMM1CIOU0HZYXDXL","","null","<img src=""img/land8.png"" style=""width:200px;border:14px solid red;"">","null","","","","","","","",""
"","image-keyboard-response","95","60255","0.0-137.0","37XITHEISXVJ8DWQ48GH4PSZHTGCRD","ABICECSTT3MWF","3S829FDFT2NBOHQMM1CIOU0HZYXDXL","","119","img/land4.png","76","120","3","1","false","3","0.6,0.6,0,0,0.6,0.6,0.6,0,0.6","",""
"","html-keyboard-response","96","60558","0.0-138.0","37XITHEISXVJ8DWQ48GH4PSZHTGCRD","ABICECSTT3MWF","3S829FDFT2NBOHQMM1CIOU0HZYXDXL","","null","<img src=""img/land4.png"" style=""width:200px; border:14px solid green;"">","null","","","","","","","",""
"","image-keyboard-response","97","60633","0.0-140.0","37XITHEISXVJ8DWQ48GH4PSZHTGCRD","ABICECSTT3MWF","3S829FDFT2NBOHQMM1CIOU0HZYXDXL","","73","img/land7.png","76","74","3","0","false","2","0.6,0.6,0,0,0.6,0.6,0.6,0,0.6","",""
"","html-keyboard-response","98","60935","0.0-141.0","37XITHEISXVJ8DWQ48GH4PSZHTGCRD","ABICECSTT3MWF","3S829FDFT2NBOHQMM1CIOU0HZYXDXL","","null","<img src=""img/land7.png"" style=""width:200px;border:14px solid red;"">","null","","","","","","","",""
"","image-keyboard-response","99","60984","0.0-143.0","37XITHEISXVJ8DWQ48GH4PSZHTGCRD","ABICECSTT3MWF","3S829FDFT2NBOHQMM1CIOU0HZYXDXL","","48","img/land7.png","76","48","3","1","false","2","0.6,0.6,0,0,0.6,0.6,0.6,0,0.6","",""
"","html-keyboard-response","100","61286","0.0-144.0","37XITHEISXVJ8DWQ48GH4PSZHTGCRD","ABICECSTT3MWF","3S829FDFT2NBOHQMM1CIOU0HZYXDXL","","null","<img src=""img/land7.png"" style=""width:200px; border:14px solid green;"">","null","","","","","","","",""
"","image-keyboard-response","101","61313","0.0-146.0","37XITHEISXVJ8DWQ48GH4PSZHTGCRD","ABICECSTT3MWF","3S829FDFT2NBOHQMM1CIOU0HZYXDXL","","25","img/land8.png","76","27","3","0","false","1","0.6,0.6,0,0,0.6,0.6,0.6,0,0.6","",""
"","html-keyboard-response","102","61617","0.0-147.0","37XITHEISXVJ8DWQ48GH4PSZHTGCRD","ABICECSTT3MWF","3S829FDFT2NBOHQMM1CIOU0HZYXDXL","","null","<img src=""img/land8.png"" style=""width:200px;border:14px solid red;"">","null","","","","","","","",""
"","image-keyboard-response","103","61667","0.0-149.0","37XITHEISXVJ8DWQ48GH4PSZHTGCRD","ABICECSTT3MWF","3S829FDFT2NBOHQMM1CIOU0HZYXDXL","","37","img/land8.png","76","38","3","0","false","1","0.6,0.6,0,0,0.6,0.6,0.6,0,0.6","",""
"","html-keyboard-response","104","61968","0.0-150.0","37XITHEISXVJ8DWQ48GH4PSZHTGCRD","ABICECSTT3MWF","3S829FDFT2NBOHQMM1CIOU0HZYXDXL","","null","<img src=""img/land8.png"" style=""width:200px;border:14px solid red;"">","null","","","","","","","",""
"","image-keyboard-response","105","61983","0.0-152.0","37XITHEISXVJ8DWQ48GH4PSZHTGCRD","ABICECSTT3MWF","3S829FDFT2NBOHQMM1CIOU0HZYXDXL","","14","img/land8.png","75","14","2","1","false","1","0.6,0.6,0,0,0.6,0.6,0.6,0,0.6","",""
"","html-keyboard-response","106","62286","0.0-153.0","37XITHEISXVJ8DWQ48GH4PSZHTGCRD","ABICECSTT3MWF","3S829FDFT2NBOHQMM1CIOU0HZYXDXL","","null","<img src=""img/land8.png"" style=""width:200px; border:14px solid green;"">","null","","","","","","","",""
"","image-keyboard-response","107","62343","0.0-155.0","37XITHEISXVJ8DWQ48GH4PSZHTGCRD","ABICECSTT3MWF","3S829FDFT2NBOHQMM1CIOU0HZYXDXL","","54","img/land7.png","75","56","2","1","false","2","0.6,0.6,0,0,0.6,0.6,0.6,0,0.6","",""
"","html-keyboard-response","108","62645","0.0-156.0","37XITHEISXVJ8DWQ48GH4PSZHTGCRD","ABICECSTT3MWF","3S829FDFT2NBOHQMM1CIOU0HZYXDXL","","null","<img src=""img/land7.png"" style=""width:200px; border:14px solid green;"">","null","","","","","","","",""
"","image-keyboard-response","109","62712","0.0-158.0","37XITHEISXVJ8DWQ48GH4PSZHTGCRD","ABICECSTT3MWF","3S829FDFT2NBOHQMM1CIOU0HZYXDXL","","65","img/land7.png","76","67","3","1","false","2","0.6,0.6,0,0,0.6,0.6,0.6,0,0.6","",""
"","html-keyboard-response","110","63013","0.0-159.0","37XITHEISXVJ8DWQ48GH4PSZHTGCRD","ABICECSTT3MWF","3S829FDFT2NBOHQMM1CIOU0HZYXDXL","","null","<img src=""img/land7.png"" style=""width:200px; border:14px solid green;"">","null","","","","","","","",""
"","image-keyboard-response","111","63084","0.0-161.0","37XITHEISXVJ8DWQ48GH4PSZHTGCRD","ABICECSTT3MWF","3S829FDFT2NBOHQMM1CIOU0HZYXDXL","","69","img/land7.png","76","70","3","1","false","2","0.6,0.6,0,0,0.6,0.6,0.6,0,0.6","",""
"","html-keyboard-response","112","63386","0.0-162.0","37XITHEISXVJ8DWQ48GH4PSZHTGCRD","ABICECSTT3MWF","3S829FDFT2NBOHQMM1CIOU0HZYXDXL","","null","<img src=""img/land7.png"" style=""width:200px; border:14px solid green;"">","null","","","","","","","",""
"","image-keyboard-response","113","63533","0.0-164.0","37XITHEISXVJ8DWQ48GH4PSZHTGCRD","ABICECSTT3MWF","3S829FDFT2NBOHQMM1CIOU0HZYXDXL","","146","img/land7.png","75","147","2","0","false","2","0.6,0.6,0,0,0.6,0.6,0.6,0,0.6","",""
"","html-keyboard-response","114","63835","0.0-165.0","37XITHEISXVJ8DWQ48GH4PSZHTGCRD","ABICECSTT3MWF","3S829FDFT2NBOHQMM1CIOU0HZYXDXL","","null","<img src=""img/land7.png"" style=""width:200px;border:14px solid red;"">","null","","","","","","","",""
"","image-keyboard-response","115","63873","0.0-167.0","37XITHEISXVJ8DWQ48GH4PSZHTGCRD","ABICECSTT3MWF","3S829FDFT2NBOHQMM1CIOU0HZYXDXL","","37","img/land7.png","75","38","2","1","false","2","0.6,0.6,0,0,0.6,0.6,0.6,0,0.6","",""
"","html-keyboard-response","116","64174","0.0-168.0","37XITHEISXVJ8DWQ48GH4PSZHTGCRD","ABICECSTT3MWF","3S829FDFT2NBOHQMM1CIOU0HZYXDXL","","null","<img src=""img/land7.png"" style=""width:200px; border:14px solid green;"">","null","","","","","","","",""
"","image-keyboard-response","117","64214","0.0-170.0","37XITHEISXVJ8DWQ48GH4PSZHTGCRD","ABICECSTT3MWF","3S829FDFT2NBOHQMM1CIOU0HZYXDXL","","33","img/land4.png","76","36","3","1","false","3","0.6,0.6,0,0,0.6,0.6,0.6,0,0.6","",""
"","html-keyboard-response","118","64517","0.0-171.0","37XITHEISXVJ8DWQ48GH4PSZHTGCRD","ABICECSTT3MWF","3S829FDFT2NBOHQMM1CIOU0HZYXDXL","","null","<img src=""img/land4.png"" style=""width:200px; border:14px solid green;"">","null","","","","","","","",""
"","image-keyboard-response","119","64603","0.0-173.0","37XITHEISXVJ8DWQ48GH4PSZHTGCRD","ABICECSTT3MWF","3S829FDFT2NBOHQMM1CIOU0HZYXDXL","","85","img/land8.png","75","86","2","1","false","1","0.6,0.6,0,0,0.6,0.6,0.6,0,0.6","",""
"","html-keyboard-response","120","64906","0.0-174.0","37XITHEISXVJ8DWQ48GH4PSZHTGCRD","ABICECSTT3MWF","3S829FDFT2NBOHQMM1CIOU0HZYXDXL","","null","<img src=""img/land8.png"" style=""width:200px; border:14px solid green;"">","null","","","","","","","",""
"","image-keyboard-response","121","65014","0.0-176.0","37XITHEISXVJ8DWQ48GH4PSZHTGCRD","ABICECSTT3MWF","3S829FDFT2NBOHQMM1CIOU0HZYXDXL","","104","img/land8.png","75","107","2","0","false","1","0.6,0.6,0,0,0.6,0.6,0.6,0,0.6","",""
"","html-keyboard-response","122","65315","0.0-177.0","37XITHEISXVJ8DWQ48GH4PSZHTGCRD","ABICECSTT3MWF","3S829FDFT2NBOHQMM1CIOU0HZYXDXL","","null","<img src=""img/land8.png"" style=""width:200px;border:14px solid red;"">","null","","","","","","","",""
"","image-keyboard-response","123","65461","0.0-179.0","37XITHEISXVJ8DWQ48GH4PSZHTGCRD","ABICECSTT3MWF","3S829FDFT2NBOHQMM1CIOU0HZYXDXL","","144","img/land4.png","76","145","3","0","false","3","0.6,0.6,0,0,0.6,0.6,0.6,0,0.6","",""
"","html-keyboard-response","124","65761","0.0-180.0","37XITHEISXVJ8DWQ48GH4PSZHTGCRD","ABICECSTT3MWF","3S829FDFT2NBOHQMM1CIOU0HZYXDXL","","null","<img src=""img/land4.png"" style=""width:200px;border:14px solid red;"">","null","","","","","","","",""
"","image-keyboard-response","125","65823","0.0-182.0","37XITHEISXVJ8DWQ48GH4PSZHTGCRD","ABICECSTT3MWF","3S829FDFT2NBOHQMM1CIOU0HZYXDXL","","60","img/land4.png","75","61","2","0","false","3","0.6,0.6,0,0,0.6,0.6,0.6,0,0.6","",""
"","html-keyboard-response","126","66124","0.0-183.0","37XITHEISXVJ8DWQ48GH4PSZHTGCRD","ABICECSTT3MWF","3S829FDFT2NBOHQMM1CIOU0HZYXDXL","","null","<img src=""img/land4.png"" style=""width:200px;border:14px solid red;"">","null","","","","","","","",""
"","image-keyboard-response","127","66184","0.0-185.0","37XITHEISXVJ8DWQ48GH4PSZHTGCRD","ABICECSTT3MWF","3S829FDFT2NBOHQMM1CIOU0HZYXDXL","","56","img/land4.png","75","59","2","0","false","3","0.6,0.6,0,0,0.6,0.6,0.6,0,0.6","",""
"","html-keyboard-response","128","66486","0.0-186.0","37XITHEISXVJ8DWQ48GH4PSZHTGCRD","ABICECSTT3MWF","3S829FDFT2NBOHQMM1CIOU0HZYXDXL","","null","<img src=""img/land4.png"" style=""width:200px;border:14px solid red;"">","null","","","","","","","",""
"","image-keyboard-response","129","66563","0.0-188.0","37XITHEISXVJ8DWQ48GH4PSZHTGCRD","ABICECSTT3MWF","3S829FDFT2NBOHQMM1CIOU0HZYXDXL","","75","img/land7.png","74","76","1","0","false","2","0.6,0.6,0,0,0.6,0.6,0.6,0,0.6","",""
"","html-keyboard-response","130","66866","0.0-189.0","37XITHEISXVJ8DWQ48GH4PSZHTGCRD","ABICECSTT3MWF","3S829FDFT2NBOHQMM1CIOU0HZYXDXL","","null","<img src=""img/land7.png"" style=""width:200px;border:14px solid red;"">","null","","","","","","","",""
"","image-keyboard-response","131","66963","0.0-191.0","37XITHEISXVJ8DWQ48GH4PSZHTGCRD","ABICECSTT3MWF","3S829FDFT2NBOHQMM1CIOU0HZYXDXL","","95","img/land8.png","74","97","1","0","false","1","0.6,0.6,0,0,0.6,0.6,0.6,0,0.6","",""
"","html-keyboard-response","132","67270","0.0-192.0","37XITHEISXVJ8DWQ48GH4PSZHTGCRD","ABICECSTT3MWF","3S829FDFT2NBOHQMM1CIOU0HZYXDXL","","null","<img src=""img/land8.png"" style=""width:200px;border:14px solid red;"">","null","","","","","","","",""
"","image-keyboard-response","133","67314","0.0-194.0","37XITHEISXVJ8DWQ48GH4PSZHTGCRD","ABICECSTT3MWF","3S829FDFT2NBOHQMM1CIOU0HZYXDXL","","42","img/land8.png","75","43","2","0","false","1","0.6,0.6,0,0,0.6,0.6,0.6,0,0.6","",""
"","html-keyboard-response","134","67616","0.0-195.0","37XITHEISXVJ8DWQ48GH4PSZHTGCRD","ABICECSTT3MWF","3S829FDFT2NBOHQMM1CIOU0HZYXDXL","","null","<img src=""img/land8.png"" style=""width:200px;border:14px solid red;"">","null","","","","","","","",""
"","image-keyboard-response","135","67672","0.0-197.0","37XITHEISXVJ8DWQ48GH4PSZHTGCRD","ABICECSTT3MWF","3S829FDFT2NBOHQMM1CIOU0HZYXDXL","","55","img/land4.png","76","56","3","0","false","3","0.6,0.6,0,0,0.6,0.6,0.6,0,0.6","",""
"","html-keyboard-response","136","68010","0.0-198.0","37XITHEISXVJ8DWQ48GH4PSZHTGCRD","ABICECSTT3MWF","3S829FDFT2NBOHQMM1CIOU0HZYXDXL","","null","<img src=""img/land4.png"" style=""width:200px;border:14px solid red;"">","null","","","","","","","",""
"","image-keyboard-response","137","68041","0.0-200.0","37XITHEISXVJ8DWQ48GH4PSZHTGCRD","ABICECSTT3MWF","3S829FDFT2NBOHQMM1CIOU0HZYXDXL","","29","img/land7.png","76","31","3","1","false","2","0.6,0.6,0,0,0.6,0.6,0.6,0,0.6","",""
"","html-keyboard-response","138","68343","0.0-201.0","37XITHEISXVJ8DWQ48GH4PSZHTGCRD","ABICECSTT3MWF","3S829FDFT2NBOHQMM1CIOU0HZYXDXL","","null","<img src=""img/land7.png"" style=""width:200px; border:14px solid green;"">","null","","","","","","","",""
"","image-keyboard-response","139","68373","0.0-203.0","37XITHEISXVJ8DWQ48GH4PSZHTGCRD","ABICECSTT3MWF","3S829FDFT2NBOHQMM1CIOU0HZYXDXL","","29","img/land7.png","76","29","3","1","false","2","0.6,0.6,0,0,0.6,0.6,0.6,0,0.6","",""
"","html-keyboard-response","140","68673","0.0-204.0","37XITHEISXVJ8DWQ48GH4PSZHTGCRD","ABICECSTT3MWF","3S829FDFT2NBOHQMM1CIOU0HZYXDXL","","null","<img src=""img/land7.png"" style=""width:200px; border:14px solid green;"">","null","","","","","","","",""
"","image-keyboard-response","141","68725","0.0-206.0","37XITHEISXVJ8DWQ48GH4PSZHTGCRD","ABICECSTT3MWF","3S829FDFT2NBOHQMM1CIOU0HZYXDXL","","50","img/land7.png","76","51","3","0","false","2","0.6,0.6,0,0,0.6,0.6,0.6,0,0.6","",""
"","html-keyboard-response","142","69047","0.0-207.0","37XITHEISXVJ8DWQ48GH4PSZHTGCRD","ABICECSTT3MWF","3S829FDFT2NBOHQMM1CIOU0HZYXDXL","","null","<img src=""img/land7.png"" style=""width:200px;border:14px solid red;"">","null","","","","","","","",""
"","image-keyboard-response","143","69090","0.0-209.0","37XITHEISXVJ8DWQ48GH4PSZHTGCRD","ABICECSTT3MWF","3S829FDFT2NBOHQMM1CIOU0HZYXDXL","","40","img/land4.png","76","43","3","0","false","3","0.6,0.6,0,0,0.6,0.6,0.6,0,0.6","",""
"","html-keyboard-response","144","69392","0.0-210.0","37XITHEISXVJ8DWQ48GH4PSZHTGCRD","ABICECSTT3MWF","3S829FDFT2NBOHQMM1CIOU0HZYXDXL","","null","<img src=""img/land4.png"" style=""width:200px;border:14px solid red;"">","null","","","","","","","",""
"","image-keyboard-response","145","69423","0.0-212.0","37XITHEISXVJ8DWQ48GH4PSZHTGCRD","ABICECSTT3MWF","3S829FDFT2NBOHQMM1CIOU0HZYXDXL","","28","img/land8.png","75","30","2","1","false","1","0.6,0.6,0,0,0.6,0.6,0.6,0,0.6","",""
"","html-keyboard-response","146","69724","0.0-213.0","37XITHEISXVJ8DWQ48GH4PSZHTGCRD","ABICECSTT3MWF","3S829FDFT2NBOHQMM1CIOU0HZYXDXL","","null","<img src=""img/land8.png"" style=""width:200px; border:14px solid green;"">","null","","","","","","","",""
"","image-keyboard-response","147","69812","0.0-215.0","37XITHEISXVJ8DWQ48GH4PSZHTGCRD","ABICECSTT3MWF","3S829FDFT2NBOHQMM1CIOU0HZYXDXL","","87","img/land8.png","76","87","3","0","false","1","0.6,0.6,0,0,0.6,0.6,0.6,0,0.6","",""
"","html-keyboard-response","148","70114","0.0-216.0","37XITHEISXVJ8DWQ48GH4PSZHTGCRD","ABICECSTT3MWF","3S829FDFT2NBOHQMM1CIOU0HZYXDXL","","null","<img src=""img/land8.png"" style=""width:200px;border:14px solid red;"">","null","","","","","","","",""
"","image-keyboard-response","149","70206","0.0-218.0","37XITHEISXVJ8DWQ48GH4PSZHTGCRD","ABICECSTT3MWF","3S829FDFT2NBOHQMM1CIOU0HZYXDXL","","89","img/land7.png","74","92","1","0","false","2","0.6,0.6,0,0,0.6,0.6,0.6,0,0.6","",""
"","html-keyboard-response","150","70508","0.0-219.0","37XITHEISXVJ8DWQ48GH4PSZHTGCRD","ABICECSTT3MWF","3S829FDFT2NBOHQMM1CIOU0HZYXDXL","","null","<img src=""img/land7.png"" style=""width:200px;border:14px solid red;"">","null","","","","","","","",""
"","image-keyboard-response","151","70584","0.0-221.0","37XITHEISXVJ8DWQ48GH4PSZHTGCRD","ABICECSTT3MWF","3S829FDFT2NBOHQMM1CIOU0HZYXDXL","","74","img/land7.png","74","75","1","0","false","2","0.6,0.6,0,0,0.6,0.6,0.6,0,0.6","",""
"","html-keyboard-response","152","70885","0.0-222.0","37XITHEISXVJ8DWQ48GH4PSZHTGCRD","ABICECSTT3MWF","3S829FDFT2NBOHQMM1CIOU0HZYXDXL","","null","<img src=""img/land7.png"" style=""width:200px;border:14px solid red;"">","null","","","","","","","",""
"","image-keyboard-response","153","70903","0.0-224.0","37XITHEISXVJ8DWQ48GH4PSZHTGCRD","ABICECSTT3MWF","3S829FDFT2NBOHQMM1CIOU0HZYXDXL","","17","img/land8.png","76","17","3","0","false","1","0.6,0.6,0,0,0.6,0.6,0.6,0,0.6","",""
"","html-keyboard-response","154","71206","0.0-225.0","37XITHEISXVJ8DWQ48GH4PSZHTGCRD","ABICECSTT3MWF","3S829FDFT2NBOHQMM1CIOU0HZYXDXL","","null","<img src=""img/land8.png"" style=""width:200px;border:14px solid red;"">","null","","","","","","","",""
"","image-keyboard-response","155","71414","0.0-227.0","37XITHEISXVJ8DWQ48GH4PSZHTGCRD","ABICECSTT3MWF","3S829FDFT2NBOHQMM1CIOU0HZYXDXL","","206","img/land4.png","75","208","2","0","false","3","0.6,0.6,0,0,0.6,0.6,0.6,0,0.6","",""
"","html-keyboard-response","156","71717","0.0-228.0","37XITHEISXVJ8DWQ48GH4PSZHTGCRD","ABICECSTT3MWF","3S829FDFT2NBOHQMM1CIOU0HZYXDXL","","null","<img src=""img/land4.png"" style=""width:200px;border:14px solid red;"">","null","","","","","","","",""
"","image-keyboard-response","157","71742","0.0-230.0","37XITHEISXVJ8DWQ48GH4PSZHTGCRD","ABICECSTT3MWF","3S829FDFT2NBOHQMM1CIOU0HZYXDXL","","23","img/land7.png","74","24","1","0","false","2","0.6,0.6,0,0,0.6,0.6,0.6,0,0.6","",""
"","html-keyboard-response","158","72043","0.0-231.0","37XITHEISXVJ8DWQ48GH4PSZHTGCRD","ABICECSTT3MWF","3S829FDFT2NBOHQMM1CIOU0HZYXDXL","","null","<img src=""img/land7.png"" style=""width:200px;border:14px solid red;"">","null","","","","","","","",""
"","image-keyboard-response","159","72134","0.0-233.0","37XITHEISXVJ8DWQ48GH4PSZHTGCRD","ABICECSTT3MWF","3S829FDFT2NBOHQMM1CIOU0HZYXDXL","","88","img/land7.png","76","90","3","1","false","2","0.6,0.6,0,0,0.6,0.6,0.6,0,0.6","",""
"","html-keyboard-response","160","72437","0.0-234.0","37XITHEISXVJ8DWQ48GH4PSZHTGCRD","ABICECSTT3MWF","3S829FDFT2NBOHQMM1CIOU0HZYXDXL","","null","<img src=""img/land7.png"" style=""width:200px; border:14px solid green;"">","null","","","","","","","",""
"","image-keyboard-response","161","72604","0.0-236.0","37XITHEISXVJ8DWQ48GH4PSZHTGCRD","ABICECSTT3MWF","3S829FDFT2NBOHQMM1CIOU0HZYXDXL","","165","img/land4.png","75","166","2","0","false","3","0.6,0.6,0,0,0.6,0.6,0.6,0,0.6","",""
"","html-keyboard-response","162","72911","0.0-237.0","37XITHEISXVJ8DWQ48GH4PSZHTGCRD","ABICECSTT3MWF","3S829FDFT2NBOHQMM1CIOU0HZYXDXL","","null","<img src=""img/land4.png"" style=""width:200px;border:14px solid red;"">","null","","","","","","","",""
"","image-keyboard-response","163","72953","0.0-239.0","37XITHEISXVJ8DWQ48GH4PSZHTGCRD","ABICECSTT3MWF","3S829FDFT2NBOHQMM1CIOU0HZYXDXL","","41","img/land8.png","74","41","1","1","false","1","0.6,0.6,0,0,0.6,0.6,0.6,0,0.6","",""
"","html-keyboard-response","164","73256","0.0-240.0","37XITHEISXVJ8DWQ48GH4PSZHTGCRD","ABICECSTT3MWF","3S829FDFT2NBOHQMM1CIOU0HZYXDXL","","null","<img src=""img/land8.png"" style=""width:200px; border:14px solid green;"">","null","","","","","","","",""
"","image-keyboard-response","165","73353","0.0-242.0","37XITHEISXVJ8DWQ48GH4PSZHTGCRD","ABICECSTT3MWF","3S829FDFT2NBOHQMM1CIOU0HZYXDXL","","93","img/land7.png","76","95","3","1","false","2","0.6,0.6,0,0,0.6,0.6,0.6,0,0.6","",""
"","html-keyboard-response","166","73655","0.0-243.0","37XITHEISXVJ8DWQ48GH4PSZHTGCRD","ABICECSTT3MWF","3S829FDFT2NBOHQMM1CIOU0HZYXDXL","","null","<img src=""img/land7.png"" style=""width:200px; border:14px solid green;"">","null","","","","","","","",""
"","image-keyboard-response","167","73754","0.0-245.0","37XITHEISXVJ8DWQ48GH4PSZHTGCRD","ABICECSTT3MWF","3S829FDFT2NBOHQMM1CIOU0HZYXDXL","","97","img/land8.png","75","99","2","0","false","1","0.6,0.6,0,0,0.6,0.6,0.6,0,0.6","",""
"","html-keyboard-response","168","74060","0.0-246.0","37XITHEISXVJ8DWQ48GH4PSZHTGCRD","ABICECSTT3MWF","3S829FDFT2NBOHQMM1CIOU0HZYXDXL","","null","<img src=""img/land8.png"" style=""width:200px;border:14px solid red;"">","null","","","","","","","",""
"","image-keyboard-response","169","74114","0.0-248.0","37XITHEISXVJ8DWQ48GH4PSZHTGCRD","ABICECSTT3MWF","3S829FDFT2NBOHQMM1CIOU0HZYXDXL","","51","img/land7.png","76","54","3","0","false","2","0.6,0.6,0,0,0.6,0.6,0.6,0,0.6","",""
"","html-keyboard-response","170","74416","0.0-249.0","37XITHEISXVJ8DWQ48GH4PSZHTGCRD","ABICECSTT3MWF","3S829FDFT2NBOHQMM1CIOU0HZYXDXL","","null","<img src=""img/land7.png"" style=""width:200px;border:14px solid red;"">","null","","","","","","","",""
"","image-keyboard-response","171","74438","0.0-251.0","37XITHEISXVJ8DWQ48GH4PSZHTGCRD","ABICECSTT3MWF","3S829FDFT2NBOHQMM1CIOU0HZYXDXL","","21","img/land4.png","75","22","2","0","false","3","0.6,0.6,0,0,0.6,0.6,0.6,0,0.6","",""
"","html-keyboard-response","172","74740","0.0-252.0","37XITHEISXVJ8DWQ48GH4PSZHTGCRD","ABICECSTT3MWF","3S829FDFT2NBOHQMM1CIOU0HZYXDXL","","null","<img src=""img/land4.png"" style=""width:200px;border:14px solid red;"">","null","","","","","","","",""
"","image-keyboard-response","173","74781","0.0-254.0","37XITHEISXVJ8DWQ48GH4PSZHTGCRD","ABICECSTT3MWF","3S829FDFT2NBOHQMM1CIOU0HZYXDXL","","38","img/land7.png","74","40","1","0","false","2","0.6,0.6,0,0,0.6,0.6,0.6,0,0.6","",""
"","html-keyboard-response","174","75096","0.0-255.0","37XITHEISXVJ8DWQ48GH4PSZHTGCRD","ABICECSTT3MWF","3S829FDFT2NBOHQMM1CIOU0HZYXDXL","","null","<img src=""img/land7.png"" style=""width:200px;border:14px solid red;"">","null","","","","","","","",""
"","image-keyboard-response","175","75117","0.0-257.0","37XITHEISXVJ8DWQ48GH4PSZHTGCRD","ABICECSTT3MWF","3S829FDFT2NBOHQMM1CIOU0HZYXDXL","","16","img/land8.png","74","18","1","1","false","1","0.6,0.6,0,0,0.6,0.6,0.6,0,0.6","",""
"","html-keyboard-response","176","75419","0.0-258.0","37XITHEISXVJ8DWQ48GH4PSZHTGCRD","ABICECSTT3MWF","3S829FDFT2NBOHQMM1CIOU0HZYXDXL","","null","<img src=""img/land8.png"" style=""width:200px; border:14px solid green;"">","null","","","","","","","",""
"","image-keyboard-response","177","75553","0.0-260.0","37XITHEISXVJ8DWQ48GH4PSZHTGCRD","ABICECSTT3MWF","3S829FDFT2NBOHQMM1CIOU0HZYXDXL","","133","img/land7.png","74","134","1","0","false","2","0.6,0.6,0,0,0.6,0.6,0.6,0,0.6","",""
"","html-keyboard-response","178","75855","0.0-261.0","37XITHEISXVJ8DWQ48GH4PSZHTGCRD","ABICECSTT3MWF","3S829FDFT2NBOHQMM1CIOU0HZYXDXL","","null","<img src=""img/land7.png"" style=""width:200px;border:14px solid red;"">","null","","","","","","","",""
"","image-keyboard-response","179","75984","0.0-263.0","37XITHEISXVJ8DWQ48GH4PSZHTGCRD","ABICECSTT3MWF","3S829FDFT2NBOHQMM1CIOU0HZYXDXL","","126","img/land4.png","75","128","2","0","false","3","0.6,0.6,0,0,0.6,0.6,0.6,0,0.6","",""
"","html-keyboard-response","180","76287","0.0-264.0","37XITHEISXVJ8DWQ48GH4PSZHTGCRD","ABICECSTT3MWF","3S829FDFT2NBOHQMM1CIOU0HZYXDXL","","null","<img src=""img/land4.png"" style=""width:200px;border:14px solid red;"">","null","","","","","","","",""
"","image-keyboard-response","181","76439","0.0-266.0","37XITHEISXVJ8DWQ48GH4PSZHTGCRD","ABICECSTT3MWF","3S829FDFT2NBOHQMM1CIOU0HZYXDXL","","150","img/land8.png","75","151","2","1","false","1","0.6,0.6,0,0,0.6,0.6,0.6,0,0.6","",""
"","html-keyboard-response","182","76742","0.0-267.0","37XITHEISXVJ8DWQ48GH4PSZHTGCRD","ABICECSTT3MWF","3S829FDFT2NBOHQMM1CIOU0HZYXDXL","","null","<img src=""img/land8.png"" style=""width:200px; border:14px solid green;"">","null","","","","","","","",""
"","image-keyboard-response","183","76975","0.0-269.0","37XITHEISXVJ8DWQ48GH4PSZHTGCRD","ABICECSTT3MWF","3S829FDFT2NBOHQMM1CIOU0HZYXDXL","","230","img/land7.png","75","232","2","1","false","2","0.6,0.6,0,0,0.6,0.6,0.6,0,0.6","",""
"","html-keyboard-response","184","77276","0.0-270.0","37XITHEISXVJ8DWQ48GH4PSZHTGCRD","ABICECSTT3MWF","3S829FDFT2NBOHQMM1CIOU0HZYXDXL","","null","<img src=""img/land7.png"" style=""width:200px; border:14px solid green;"">","null","","","","","","","",""
"","html-keyboard-response","185","79086","0.0-272.0","37XITHEISXVJ8DWQ48GH4PSZHTGCRD","ABICECSTT3MWF","3S829FDFT2NBOHQMM1CIOU0HZYXDXL","","","","","","","","","","","",""
"","image-keyboard-response","186","79574","0.0-273.0","37XITHEISXVJ8DWQ48GH4PSZHTGCRD","ABICECSTT3MWF","3S829FDFT2NBOHQMM1CIOU0HZYXDXL","","486","img/land9.png","75","488","2","1","false","1","0.8,0.8,0.2,0.2,0.8,0.8,0.8,0.2,0.8","",""
"","html-keyboard-response","187","79877","0.0-274.0","37XITHEISXVJ8DWQ48GH4PSZHTGCRD","ABICECSTT3MWF","3S829FDFT2NBOHQMM1CIOU0HZYXDXL","","null","<img src=""img/land9.png"" style=""width:200px; border:14px solid green;"">","null","","","","","","","",""
"","image-keyboard-response","188","79913","0.0-276.0","37XITHEISXVJ8DWQ48GH4PSZHTGCRD","ABICECSTT3MWF","3S829FDFT2NBOHQMM1CIOU0HZYXDXL","","34","img/land6.png","75","34","2","1","false","2","0.8,0.8,0.2,0.2,0.8,0.8,0.8,0.2,0.8","",""
"","html-keyboard-response","189","80215","0.0-277.0","37XITHEISXVJ8DWQ48GH4PSZHTGCRD","ABICECSTT3MWF","3S829FDFT2NBOHQMM1CIOU0HZYXDXL","","null","<img src=""img/land6.png"" style=""width:200px; border:14px solid green;"">","null","","","","","","","",""
"","image-keyboard-response","190","80395","0.0-279.0","37XITHEISXVJ8DWQ48GH4PSZHTGCRD","ABICECSTT3MWF","3S829FDFT2NBOHQMM1CIOU0HZYXDXL","","174","img/land6.png","75","177","2","1","false","2","0.8,0.8,0.2,0.2,0.8,0.8,0.8,0.2,0.8","",""
"","html-keyboard-response","191","80697","0.0-280.0","37XITHEISXVJ8DWQ48GH4PSZHTGCRD","ABICECSTT3MWF","3S829FDFT2NBOHQMM1CIOU0HZYXDXL","","null","<img src=""img/land6.png"" style=""width:200px; border:14px solid green;"">","null","","","","","","","",""
"","image-keyboard-response","192","80712","0.0-282.0","37XITHEISXVJ8DWQ48GH4PSZHTGCRD","ABICECSTT3MWF","3S829FDFT2NBOHQMM1CIOU0HZYXDXL","","14","img/land9.png","76","14","3","1","false","1","0.8,0.8,0.2,0.2,0.8,0.8,0.8,0.2,0.8","",""
"","html-keyboard-response","193","81013","0.0-283.0","37XITHEISXVJ8DWQ48GH4PSZHTGCRD","ABICECSTT3MWF","3S829FDFT2NBOHQMM1CIOU0HZYXDXL","","null","<img src=""img/land9.png"" style=""width:200px; border:14px solid green;"">","null","","","","","","","",""
"","image-keyboard-response","194","81033","0.0-285.0","37XITHEISXVJ8DWQ48GH4PSZHTGCRD","ABICECSTT3MWF","3S829FDFT2NBOHQMM1CIOU0HZYXDXL","","18","img/land9.png","76","19","3","1","false","1","0.8,0.8,0.2,0.2,0.8,0.8,0.8,0.2,0.8","",""
"","html-keyboard-response","195","81334","0.0-286.0","37XITHEISXVJ8DWQ48GH4PSZHTGCRD","ABICECSTT3MWF","3S829FDFT2NBOHQMM1CIOU0HZYXDXL","","null","<img src=""img/land9.png"" style=""width:200px; border:14px solid green;"">","null","","","","","","","",""
"","image-keyboard-response","196","81403","0.0-288.0","37XITHEISXVJ8DWQ48GH4PSZHTGCRD","ABICECSTT3MWF","3S829FDFT2NBOHQMM1CIOU0HZYXDXL","","67","img/land1.png","75","68","2","0","false","3","0.8,0.8,0.2,0.2,0.8,0.8,0.8,0.2,0.8","",""
"","html-keyboard-response","197","81705","0.0-289.0","37XITHEISXVJ8DWQ48GH4PSZHTGCRD","ABICECSTT3MWF","3S829FDFT2NBOHQMM1CIOU0HZYXDXL","","null","<img src=""img/land1.png"" style=""width:200px;border:14px solid red;"">","null","","","","","","","",""
"","image-keyboard-response","198","81883","0.0-291.0","37XITHEISXVJ8DWQ48GH4PSZHTGCRD","ABICECSTT3MWF","3S829FDFT2NBOHQMM1CIOU0HZYXDXL","","176","img/land6.png","74","178","1","0","false","2","0.8,0.8,0.2,0.2,0.8,0.8,0.8,0.2,0.8","",""
"","html-keyboard-response","199","82185","0.0-292.0","37XITHEISXVJ8DWQ48GH4PSZHTGCRD","ABICECSTT3MWF","3S829FDFT2NBOHQMM1CIOU0HZYXDXL","","null","<img src=""img/land6.png"" style=""width:200px;border:14px solid red;"">","null","","","","","","","",""
"","image-keyboard-response","200","82226","0.0-294.0","37XITHEISXVJ8DWQ48GH4PSZHTGCRD","ABICECSTT3MWF","3S829FDFT2NBOHQMM1CIOU0HZYXDXL","","36","img/land6.png","75","40","2","1","false","2","0.8,0.8,0.2,0.2,0.8,0.8,0.8,0.2,0.8","",""
"","html-keyboard-response","201","82529","0.0-295.0","37XITHEISXVJ8DWQ48GH4PSZHTGCRD","ABICECSTT3MWF","3S829FDFT2NBOHQMM1CIOU0HZYXDXL","","null","<img src=""img/land6.png"" style=""width:200px; border:14px solid green;"">","null","","","","","","","",""
"","image-keyboard-response","202","82541","0.0-297.0","37XITHEISXVJ8DWQ48GH4PSZHTGCRD","ABICECSTT3MWF","3S829FDFT2NBOHQMM1CIOU0HZYXDXL","","11","img/land6.png","76","11","3","1","false","2","0.8,0.8,0.2,0.2,0.8,0.8,0.8,0.2,0.8","",""
"","html-keyboard-response","203","82844","0.0-298.0","37XITHEISXVJ8DWQ48GH4PSZHTGCRD","ABICECSTT3MWF","3S829FDFT2NBOHQMM1CIOU0HZYXDXL","","null","<img src=""img/land6.png"" style=""width:200px; border:14px solid green;"">","null","","","","","","","",""
"","image-keyboard-response","204","82864","0.0-300.0","37XITHEISXVJ8DWQ48GH4PSZHTGCRD","ABICECSTT3MWF","3S829FDFT2NBOHQMM1CIOU0HZYXDXL","","16","img/land6.png","75","21","2","1","false","2","0.8,0.8,0.2,0.2,0.8,0.8,0.8,0.2,0.8","",""
"","html-keyboard-response","205","83195","0.0-301.0","37XITHEISXVJ8DWQ48GH4PSZHTGCRD","ABICECSTT3MWF","3S829FDFT2NBOHQMM1CIOU0HZYXDXL","","null","<img src=""img/land6.png"" style=""width:200px; border:14px solid green;"">","null","","","","","","","",""
"","image-keyboard-response","206","83201","0.0-303.0","37XITHEISXVJ8DWQ48GH4PSZHTGCRD","ABICECSTT3MWF","3S829FDFT2NBOHQMM1CIOU0HZYXDXL","","4","img/land9.png","76","6","3","0","false","1","0.8,0.8,0.2,0.2,0.8,0.8,0.8,0.2,0.8","",""
"","html-keyboard-response","207","83502","0.0-304.0","37XITHEISXVJ8DWQ48GH4PSZHTGCRD","ABICECSTT3MWF","3S829FDFT2NBOHQMM1CIOU0HZYXDXL","","null","<img src=""img/land9.png"" style=""width:200px;border:14px solid red;"">","null","","","","","","","",""
"","image-keyboard-response","208","83540","0.0-306.0","37XITHEISXVJ8DWQ48GH4PSZHTGCRD","ABICECSTT3MWF","3S829FDFT2NBOHQMM1CIOU0HZYXDXL","","37","img/land9.png","75","38","2","1","false","1","0.8,0.8,0.2,0.2,0.8,0.8,0.8,0.2,0.8","",""
"","html-keyboard-response","209","83842","0.0-307.0","37XITHEISXVJ8DWQ48GH4PSZHTGCRD","ABICECSTT3MWF","3S829FDFT2NBOHQMM1CIOU0HZYXDXL","","null","<img src=""img/land9.png"" style=""width:200px; border:14px solid green;"">","null","","","","","","","",""
"","image-keyboard-response","210","83938","0.0-309.0","37XITHEISXVJ8DWQ48GH4PSZHTGCRD","ABICECSTT3MWF","3S829FDFT2NBOHQMM1CIOU0HZYXDXL","","95","img/land1.png","75","95","2","0","false","3","0.8,0.8,0.2,0.2,0.8,0.8,0.8,0.2,0.8","",""
"","html-keyboard-response","211","84243","0.0-310.0","37XITHEISXVJ8DWQ48GH4PSZHTGCRD","ABICECSTT3MWF","3S829FDFT2NBOHQMM1CIOU0HZYXDXL","","null","<img src=""img/land1.png"" style=""width:200px;border:14px solid red;"">","null","","","","","","","",""
"","image-keyboard-response","212","84299","0.0-312.0","37XITHEISXVJ8DWQ48GH4PSZHTGCRD","ABICECSTT3MWF","3S829FDFT2NBOHQMM1CIOU0HZYXDXL","","52","img/land6.png","74","54","1","0","false","2","0.8,0.8,0.2,0.2,0.8,0.8,0.8,0.2,0.8","",""
"","html-keyboard-response","213","84602","0.0-313.0","37XITHEISXVJ8DWQ48GH4PSZHTGCRD","ABICECSTT3MWF","3S829FDFT2NBOHQMM1CIOU0HZYXDXL","","null","<img src=""img/land6.png"" style=""width:200px;border:14px solid red;"">","null","","","","","","","",""
"","image-keyboard-response","214","84635","0.0-315.0","37XITHEISXVJ8DWQ48GH4PSZHTGCRD","ABICECSTT3MWF","3S829FDFT2NBOHQMM1CIOU0HZYXDXL","","31","img/land9.png","76","32","3","0","false","1","0.8,0.8,0.2,0.2,0.8,0.8,0.8,0.2,0.8","",""
"","html-keyboard-response","215","84939","0.0-316.0","37XITHEISXVJ8DWQ48GH4PSZHTGCRD","ABICECSTT3MWF","3S829FDFT2NBOHQMM1CIOU0HZYXDXL","","null","<img src=""img/land9.png"" style=""width:200px;border:14px solid red;"">","null","","","","","","","",""
"","image-keyboard-response","216","85093","0.0-318.0","37XITHEISXVJ8DWQ48GH4PSZHTGCRD","ABICECSTT3MWF","3S829FDFT2NBOHQMM1CIOU0HZYXDXL","","152","img/land6.png","76","153","3","1","false","2","0.8,0.8,0.2,0.2,0.8,0.8,0.8,0.2,0.8","",""
"","html-keyboard-response","217","85395","0.0-319.0","37XITHEISXVJ8DWQ48GH4PSZHTGCRD","ABICECSTT3MWF","3S829FDFT2NBOHQMM1CIOU0HZYXDXL","","null","<img src=""img/land6.png"" style=""width:200px; border:14px solid green;"">","null","","","","","","","",""
"","image-keyboard-response","218","85639","0.0-321.0","37XITHEISXVJ8DWQ48GH4PSZHTGCRD","ABICECSTT3MWF","3S829FDFT2NBOHQMM1CIOU0HZYXDXL","","241","img/land1.png","75","243","2","0","false","3","0.8,0.8,0.2,0.2,0.8,0.8,0.8,0.2,0.8","",""
"","html-keyboard-response","219","85942","0.0-322.0","37XITHEISXVJ8DWQ48GH4PSZHTGCRD","ABICECSTT3MWF","3S829FDFT2NBOHQMM1CIOU0HZYXDXL","","null","<img src=""img/land1.png"" style=""width:200px;border:14px solid red;"">","null","","","","","","","",""
"","image-keyboard-response","220","85944","0.0-324.0","37XITHEISXVJ8DWQ48GH4PSZHTGCRD","ABICECSTT3MWF","3S829FDFT2NBOHQMM1CIOU0HZYXDXL","","1","img/land1.png","74","1","1","1","false","3","0.8,0.8,0.2,0.2,0.8,0.8,0.8,0.2,0.8","",""
"","html-keyboard-response","221","86246","0.0-325.0","37XITHEISXVJ8DWQ48GH4PSZHTGCRD","ABICECSTT3MWF","3S829FDFT2NBOHQMM1CIOU0HZYXDXL","","null","<img src=""img/land1.png"" style=""width:200px; border:14px solid green;"">","null","","","","","","","",""
"","image-keyboard-response","222","86355","0.0-327.0","37XITHEISXVJ8DWQ48GH4PSZHTGCRD","ABICECSTT3MWF","3S829FDFT2NBOHQMM1CIOU0HZYXDXL","","105","img/land9.png","76","107","3","0","false","1","0.8,0.8,0.2,0.2,0.8,0.8,0.8,0.2,0.8","",""
"","html-keyboard-response","223","86658","0.0-328.0","37XITHEISXVJ8DWQ48GH4PSZHTGCRD","ABICECSTT3MWF","3S829FDFT2NBOHQMM1CIOU0HZYXDXL","","null","<img src=""img/land9.png"" style=""width:200px;border:14px solid red;"">","null","","","","","","","",""
"","image-keyboard-response","224","86723","0.0-330.0","37XITHEISXVJ8DWQ48GH4PSZHTGCRD","ABICECSTT3MWF","3S829FDFT2NBOHQMM1CIOU0HZYXDXL","","63","img/land9.png","74","65","1","1","false","1","0.8,0.8,0.2,0.2,0.8,0.8,0.8,0.2,0.8","",""
"","html-keyboard-response","225","87029","0.0-331.0","37XITHEISXVJ8DWQ48GH4PSZHTGCRD","ABICECSTT3MWF","3S829FDFT2NBOHQMM1CIOU0HZYXDXL","","null","<img src=""img/land9.png"" style=""width:200px; border:14px solid green;"">","null","","","","","","","",""
"","image-keyboard-response","226","87126","0.0-333.0","37XITHEISXVJ8DWQ48GH4PSZHTGCRD","ABICECSTT3MWF","3S829FDFT2NBOHQMM1CIOU0HZYXDXL","","96","img/land1.png","76","96","3","1","false","3","0.8,0.8,0.2,0.2,0.8,0.8,0.8,0.2,0.8","",""
"","html-keyboard-response","227","87430","0.0-334.0","37XITHEISXVJ8DWQ48GH4PSZHTGCRD","ABICECSTT3MWF","3S829FDFT2NBOHQMM1CIOU0HZYXDXL","","null","<img src=""img/land1.png"" style=""width:200px; border:14px solid green;"">","null","","","","","","","",""
"","image-keyboard-response","228","87514","0.0-336.0","37XITHEISXVJ8DWQ48GH4PSZHTGCRD","ABICECSTT3MWF","3S829FDFT2NBOHQMM1CIOU0HZYXDXL","","81","img/land1.png","74","83","1","1","false","3","0.8,0.8,0.2,0.2,0.8,0.8,0.8,0.2,0.8","",""
"","html-keyboard-response","229","87814","0.0-337.0","37XITHEISXVJ8DWQ48GH4PSZHTGCRD","ABICECSTT3MWF","3S829FDFT2NBOHQMM1CIOU0HZYXDXL","","null","<img src=""img/land1.png"" style=""width:200px; border:14px solid green;"">","null","","","","","","","",""
"","image-keyboard-response","230","87927","0.0-339.0","37XITHEISXVJ8DWQ48GH4PSZHTGCRD","ABICECSTT3MWF","3S829FDFT2NBOHQMM1CIOU0HZYXDXL","","111","img/land1.png","76","112","3","0","false","3","0.8,0.8,0.2,0.2,0.8,0.8,0.8,0.2,0.8","",""
"","html-keyboard-response","231","88230","0.0-340.0","37XITHEISXVJ8DWQ48GH4PSZHTGCRD","ABICECSTT3MWF","3S829FDFT2NBOHQMM1CIOU0HZYXDXL","","null","<img src=""img/land1.png"" style=""width:200px;border:14px solid red;"">","null","","","","","","","",""
"","image-keyboard-response","232","88259","0.0-342.0","37XITHEISXVJ8DWQ48GH4PSZHTGCRD","ABICECSTT3MWF","3S829FDFT2NBOHQMM1CIOU0HZYXDXL","","26","img/land9.png","74","28","1","1","false","1","0.8,0.8,0.2,0.2,0.8,0.8,0.8,0.2,0.8","",""
"","html-keyboard-response","233","88561","0.0-343.0","37XITHEISXVJ8DWQ48GH4PSZHTGCRD","ABICECSTT3MWF","3S829FDFT2NBOHQMM1CIOU0HZYXDXL","","null","<img src=""img/land9.png"" style=""width:200px; border:14px solid green;"">","null","","","","","","","",""
"","image-keyboard-response","234","88734","0.0-345.0","37XITHEISXVJ8DWQ48GH4PSZHTGCRD","ABICECSTT3MWF","3S829FDFT2NBOHQMM1CIOU0HZYXDXL","","171","img/land1.png","74","173","1","0","false","3","0.8,0.8,0.2,0.2,0.8,0.8,0.8,0.2,0.8","",""
"","html-keyboard-response","235","89038","0.0-346.0","37XITHEISXVJ8DWQ48GH4PSZHTGCRD","ABICECSTT3MWF","3S829FDFT2NBOHQMM1CIOU0HZYXDXL","","null","<img src=""img/land1.png"" style=""width:200px;border:14px solid red;"">","null","","","","","","","",""
"","image-keyboard-response","236","89086","0.0-348.0","37XITHEISXVJ8DWQ48GH4PSZHTGCRD","ABICECSTT3MWF","3S829FDFT2NBOHQMM1CIOU0HZYXDXL","","46","img/land6.png","74","48","1","0","false","2","0.8,0.8,0.2,0.2,0.8,0.8,0.8,0.2,0.8","",""
"","html-keyboard-response","237","89389","0.0-349.0","37XITHEISXVJ8DWQ48GH4PSZHTGCRD","ABICECSTT3MWF","3S829FDFT2NBOHQMM1CIOU0HZYXDXL","","null","<img src=""img/land6.png"" style=""width:200px;border:14px solid red;"">","null","","","","","","","",""
"","image-keyboard-response","238","89392","0.0-351.0","37XITHEISXVJ8DWQ48GH4PSZHTGCRD","ABICECSTT3MWF","3S829FDFT2NBOHQMM1CIOU0HZYXDXL","","2","img/land9.png","74","2","1","1","false","1","0.8,0.8,0.2,0.2,0.8,0.8,0.8,0.2,0.8","",""
"","html-keyboard-response","239","89694","0.0-352.0","37XITHEISXVJ8DWQ48GH4PSZHTGCRD","ABICECSTT3MWF","3S829FDFT2NBOHQMM1CIOU0HZYXDXL","","null","<img src=""img/land9.png"" style=""width:200px; border:14px solid green;"">","null","","","","","","","",""
"","image-keyboard-response","240","89865","0.0-354.0","37XITHEISXVJ8DWQ48GH4PSZHTGCRD","ABICECSTT3MWF","3S829FDFT2NBOHQMM1CIOU0HZYXDXL","","170","img/land1.png","75","170","2","0","false","3","0.8,0.8,0.2,0.2,0.8,0.8,0.8,0.2,0.8","",""
"","html-keyboard-response","241","90166","0.0-355.0","37XITHEISXVJ8DWQ48GH4PSZHTGCRD","ABICECSTT3MWF","3S829FDFT2NBOHQMM1CIOU0HZYXDXL","","null","<img src=""img/land1.png"" style=""width:200px;border:14px solid red;"">","null","","","","","","","",""
"","image-keyboard-response","242","90243","0.0-357.0","37XITHEISXVJ8DWQ48GH4PSZHTGCRD","ABICECSTT3MWF","3S829FDFT2NBOHQMM1CIOU0HZYXDXL","","76","img/land9.png","76","76","3","0","false","1","0.8,0.8,0.2,0.2,0.8,0.8,0.8,0.2,0.8","",""
"","html-keyboard-response","243","90543","0.0-358.0","37XITHEISXVJ8DWQ48GH4PSZHTGCRD","ABICECSTT3MWF","3S829FDFT2NBOHQMM1CIOU0HZYXDXL","","null","<img src=""img/land9.png"" style=""width:200px;border:14px solid red;"">","null","","","","","","","",""
"","image-keyboard-response","244","90564","0.0-360.0","37XITHEISXVJ8DWQ48GH4PSZHTGCRD","ABICECSTT3MWF","3S829FDFT2NBOHQMM1CIOU0HZYXDXL","","18","img/land1.png","75","20","2","0","false","3","0.8,0.8,0.2,0.2,0.8,0.8,0.8,0.2,0.8","",""
"","html-keyboard-response","245","90867","0.0-361.0","37XITHEISXVJ8DWQ48GH4PSZHTGCRD","ABICECSTT3MWF","3S829FDFT2NBOHQMM1CIOU0HZYXDXL","","null","<img src=""img/land1.png"" style=""width:200px;border:14px solid red;"">","null","","","","","","","",""
"","image-keyboard-response","246","90928","0.0-363.0","37XITHEISXVJ8DWQ48GH4PSZHTGCRD","ABICECSTT3MWF","3S829FDFT2NBOHQMM1CIOU0HZYXDXL","","59","img/land6.png","76","60","3","1","false","2","0.8,0.8,0.2,0.2,0.8,0.8,0.8,0.2,0.8","",""
"","html-keyboard-response","247","91231","0.0-364.0","37XITHEISXVJ8DWQ48GH4PSZHTGCRD","ABICECSTT3MWF","3S829FDFT2NBOHQMM1CIOU0HZYXDXL","","null","<img src=""img/land6.png"" style=""width:200px; border:14px solid green;"">","null","","","","","","","",""
"","image-keyboard-response","248","91333","0.0-366.0","37XITHEISXVJ8DWQ48GH4PSZHTGCRD","ABICECSTT3MWF","3S829FDFT2NBOHQMM1CIOU0HZYXDXL","","100","img/land9.png","74","101","1","1","false","1","0.8,0.8,0.2,0.2,0.8,0.8,0.8,0.2,0.8","",""
"","html-keyboard-response","249","91634","0.0-367.0","37XITHEISXVJ8DWQ48GH4PSZHTGCRD","ABICECSTT3MWF","3S829FDFT2NBOHQMM1CIOU0HZYXDXL","","null","<img src=""img/land9.png"" style=""width:200px; border:14px solid green;"">","null","","","","","","","",""
"","image-keyboard-response","250","91793","0.0-369.0","37XITHEISXVJ8DWQ48GH4PSZHTGCRD","ABICECSTT3MWF","3S829FDFT2NBOHQMM1CIOU0HZYXDXL","","156","img/land1.png","76","158","3","0","false","3","0.8,0.8,0.2,0.2,0.8,0.8,0.8,0.2,0.8","",""
"","html-keyboard-response","251","92096","0.0-370.0","37XITHEISXVJ8DWQ48GH4PSZHTGCRD","ABICECSTT3MWF","3S829FDFT2NBOHQMM1CIOU0HZYXDXL","","null","<img src=""img/land1.png"" style=""width:200px;border:14px solid red;"">","null","","","","","","","",""
"","image-keyboard-response","252","92199","0.0-372.0","37XITHEISXVJ8DWQ48GH4PSZHTGCRD","ABICECSTT3MWF","3S829FDFT2NBOHQMM1CIOU0HZYXDXL","","100","img/land9.png","76","103","3","0","false","1","0.8,0.8,0.2,0.2,0.8,0.8,0.8,0.2,0.8","",""
"","html-keyboard-response","253","92503","0.0-373.0","37XITHEISXVJ8DWQ48GH4PSZHTGCRD","ABICECSTT3MWF","3S829FDFT2NBOHQMM1CIOU0HZYXDXL","","null","<img src=""img/land9.png"" style=""width:200px;border:14px solid red;"">","null","","","","","","","",""
"","image-keyboard-response","254","92772","0.0-375.0","37XITHEISXVJ8DWQ48GH4PSZHTGCRD","ABICECSTT3MWF","3S829FDFT2NBOHQMM1CIOU0HZYXDXL","","269","img/land1.png","75","270","2","0","false","3","0.8,0.8,0.2,0.2,0.8,0.8,0.8,0.2,0.8","",""
"","html-keyboard-response","255","93075","0.0-376.0","37XITHEISXVJ8DWQ48GH4PSZHTGCRD","ABICECSTT3MWF","3S829FDFT2NBOHQMM1CIOU0HZYXDXL","","null","<img src=""img/land1.png"" style=""width:200px;border:14px solid red;"">","null","","","","","","","",""
"","image-keyboard-response","256","93202","0.0-378.0","37XITHEISXVJ8DWQ48GH4PSZHTGCRD","ABICECSTT3MWF","3S829FDFT2NBOHQMM1CIOU0HZYXDXL","","124","img/land6.png","76","126","3","1","false","2","0.8,0.8,0.2,0.2,0.8,0.8,0.8,0.2,0.8","",""
"","html-keyboard-response","257","93505","0.0-379.0","37XITHEISXVJ8DWQ48GH4PSZHTGCRD","ABICECSTT3MWF","3S829FDFT2NBOHQMM1CIOU0HZYXDXL","","null","<img src=""img/land6.png"" style=""width:200px; border:14px solid green;"">","null","","","","","","","",""
"","image-keyboard-response","258","93588","0.0-381.0","37XITHEISXVJ8DWQ48GH4PSZHTGCRD","ABICECSTT3MWF","3S829FDFT2NBOHQMM1CIOU0HZYXDXL","","81","img/land6.png","76","82","3","1","false","2","0.8,0.8,0.2,0.2,0.8,0.8,0.8,0.2,0.8","",""
"","html-keyboard-response","259","93889","0.0-382.0","37XITHEISXVJ8DWQ48GH4PSZHTGCRD","ABICECSTT3MWF","3S829FDFT2NBOHQMM1CIOU0HZYXDXL","","null","<img src=""img/land6.png"" style=""width:200px; border:14px solid green;"">","null","","","","","","","",""
"","image-keyboard-response","260","93934","0.0-384.0","37XITHEISXVJ8DWQ48GH4PSZHTGCRD","ABICECSTT3MWF","3S829FDFT2NBOHQMM1CIOU0HZYXDXL","","43","img/land1.png","74","45","1","1","false","3","0.8,0.8,0.2,0.2,0.8,0.8,0.8,0.2,0.8","",""
"","html-keyboard-response","261","94237","0.0-385.0","37XITHEISXVJ8DWQ48GH4PSZHTGCRD","ABICECSTT3MWF","3S829FDFT2NBOHQMM1CIOU0HZYXDXL","","null","<img src=""img/land1.png"" style=""width:200px; border:14px solid green;"">","null","","","","","","","",""
"","image-keyboard-response","262","94263","0.0-387.0","37XITHEISXVJ8DWQ48GH4PSZHTGCRD","ABICECSTT3MWF","3S829FDFT2NBOHQMM1CIOU0HZYXDXL","","20","img/land1.png","74","23","1","0","false","3","0.8,0.8,0.2,0.2,0.8,0.8,0.8,0.2,0.8","",""
"","html-keyboard-response","263","94565","0.0-388.0","37XITHEISXVJ8DWQ48GH4PSZHTGCRD","ABICECSTT3MWF","3S829FDFT2NBOHQMM1CIOU0HZYXDXL","","null","<img src=""img/land1.png"" style=""width:200px;border:14px solid red;"">","null","","","","","","","",""
"","image-keyboard-response","264","94653","0.0-390.0","37XITHEISXVJ8DWQ48GH4PSZHTGCRD","ABICECSTT3MWF","3S829FDFT2NBOHQMM1CIOU0HZYXDXL","","86","img/land9.png","76","87","3","0","false","1","0.8,0.8,0.2,0.2,0.8,0.8,0.8,0.2,0.8","",""
"","html-keyboard-response","265","94956","0.0-391.0","37XITHEISXVJ8DWQ48GH4PSZHTGCRD","ABICECSTT3MWF","3S829FDFT2NBOHQMM1CIOU0HZYXDXL","","null","<img src=""img/land9.png"" style=""width:200px;border:14px solid red;"">","null","","","","","","","",""
"","image-keyboard-response","266","95119","0.0-393.0","37XITHEISXVJ8DWQ48GH4PSZHTGCRD","ABICECSTT3MWF","3S829FDFT2NBOHQMM1CIOU0HZYXDXL","","161","img/land9.png","76","163","3","0","false","1","0.8,0.8,0.2,0.2,0.8,0.8,0.8,0.2,0.8","",""
"","html-keyboard-response","267","95433","0.0-394.0","37XITHEISXVJ8DWQ48GH4PSZHTGCRD","ABICECSTT3MWF","3S829FDFT2NBOHQMM1CIOU0HZYXDXL","","null","<img src=""img/land9.png"" style=""width:200px;border:14px solid red;"">","null","","","","","","","",""
"","image-keyboard-response","268","95558","0.0-396.0","37XITHEISXVJ8DWQ48GH4PSZHTGCRD","ABICECSTT3MWF","3S829FDFT2NBOHQMM1CIOU0HZYXDXL","","123","img/land1.png","76","125","3","1","false","3","0.8,0.8,0.2,0.2,0.8,0.8,0.8,0.2,0.8","",""
"","html-keyboard-response","269","95860","0.0-397.0","37XITHEISXVJ8DWQ48GH4PSZHTGCRD","ABICECSTT3MWF","3S829FDFT2NBOHQMM1CIOU0HZYXDXL","","null","<img src=""img/land1.png"" style=""width:200px; border:14px solid green;"">","null","","","","","","","",""
"","image-keyboard-response","270","95954","0.0-399.0","37XITHEISXVJ8DWQ48GH4PSZHTGCRD","ABICECSTT3MWF","3S829FDFT2NBOHQMM1CIOU0HZYXDXL","","91","img/land6.png","76","93","3","0","false","2","0.8,0.8,0.2,0.2,0.8,0.8,0.8,0.2,0.8","",""
"","html-keyboard-response","271","96256","0.0-400.0","37XITHEISXVJ8DWQ48GH4PSZHTGCRD","ABICECSTT3MWF","3S829FDFT2NBOHQMM1CIOU0HZYXDXL","","null","<img src=""img/land6.png"" style=""width:200px;border:14px solid red;"">","null","","","","","","","",""
"","image-keyboard-response","272","96387","0.0-402.0","37XITHEISXVJ8DWQ48GH4PSZHTGCRD","ABICECSTT3MWF","3S829FDFT2NBOHQMM1CIOU0HZYXDXL","","129","img/land1.png","76","130","3","1","false","3","0.8,0.8,0.2,0.2,0.8,0.8,0.8,0.2,0.8","",""
"","html-keyboard-response","273","96689","0.0-403.0","37XITHEISXVJ8DWQ48GH4PSZHTGCRD","ABICECSTT3MWF","3S829FDFT2NBOHQMM1CIOU0HZYXDXL","","null","<img src=""img/land1.png"" style=""width:200px; border:14px solid green;"">","null","","","","","","","",""
"","image-keyboard-response","274","96788","0.0-405.0","37XITHEISXVJ8DWQ48GH4PSZHTGCRD","ABICECSTT3MWF","3S829FDFT2NBOHQMM1CIOU0HZYXDXL","","98","img/land1.png","76","98","3","1","false","3","0.8,0.8,0.2,0.2,0.8,0.8,0.8,0.2,0.8","",""
"","html-keyboard-response","275","97089","0.0-406.0","37XITHEISXVJ8DWQ48GH4PSZHTGCRD","ABICECSTT3MWF","3S829FDFT2NBOHQMM1CIOU0HZYXDXL","","null","<img src=""img/land1.png"" style=""width:200px; border:14px solid green;"">","null","","","","","","","",""
"","image-keyboard-response","276","97151","0.0-408.0","37XITHEISXVJ8DWQ48GH4PSZHTGCRD","ABICECSTT3MWF","3S829FDFT2NBOHQMM1CIOU0HZYXDXL","","56","img/land6.png","76","62","3","1","false","2","0.8,0.8,0.2,0.2,0.8,0.8,0.8,0.2,0.8","",""
"","html-keyboard-response","277","97453","0.0-409.0","37XITHEISXVJ8DWQ48GH4PSZHTGCRD","ABICECSTT3MWF","3S829FDFT2NBOHQMM1CIOU0HZYXDXL","","null","<img src=""img/land6.png"" style=""width:200px; border:14px solid green;"">","null","","","","","","","",""
"","image-keyboard-response","278","97507","0.0-411.0","37XITHEISXVJ8DWQ48GH4PSZHTGCRD","ABICECSTT3MWF","3S829FDFT2NBOHQMM1CIOU0HZYXDXL","","52","img/land9.png","76","54","3","0","false","1","0.8,0.8,0.2,0.2,0.8,0.8,0.8,0.2,0.8","",""
"","html-keyboard-response","279","97810","0.0-412.0","37XITHEISXVJ8DWQ48GH4PSZHTGCRD","ABICECSTT3MWF","3S829FDFT2NBOHQMM1CIOU0HZYXDXL","","null","<img src=""img/land9.png"" style=""width:200px;border:14px solid red;"">","null","","","","","","","",""
"","image-keyboard-response","280","97868","0.0-414.0","37XITHEISXVJ8DWQ48GH4PSZHTGCRD","ABICECSTT3MWF","3S829FDFT2NBOHQMM1CIOU0HZYXDXL","","56","img/land6.png","76","57","3","1","false","2","0.8,0.8,0.2,0.2,0.8,0.8,0.8,0.2,0.8","",""
"","html-keyboard-response","281","98169","0.0-415.0","37XITHEISXVJ8DWQ48GH4PSZHTGCRD","ABICECSTT3MWF","3S829FDFT2NBOHQMM1CIOU0HZYXDXL","","null","<img src=""img/land6.png"" style=""width:200px; border:14px solid green;"">","null","","","","","","","",""
"","image-keyboard-response","282","98288","0.0-417.0","37XITHEISXVJ8DWQ48GH4PSZHTGCRD","ABICECSTT3MWF","3S829FDFT2NBOHQMM1CIOU0HZYXDXL","","118","img/land9.png","75","118","2","1","false","1","0.8,0.8,0.2,0.2,0.8,0.8,0.8,0.2,0.8","",""
"","html-keyboard-response","283","98589","0.0-418.0","37XITHEISXVJ8DWQ48GH4PSZHTGCRD","ABICECSTT3MWF","3S829FDFT2NBOHQMM1CIOU0HZYXDXL","","null","<img src=""img/land9.png"" style=""width:200px; border:14px solid green;"">","null","","","","","","","",""
"","image-keyboard-response","284","98779","0.0-420.0","37XITHEISXVJ8DWQ48GH4PSZHTGCRD","ABICECSTT3MWF","3S829FDFT2NBOHQMM1CIOU0HZYXDXL","","190","img/land9.png","75","190","2","0","false","1","0.8,0.8,0.2,0.2,0.8,0.8,0.8,0.2,0.8","",""
"","html-keyboard-response","285","99081","0.0-421.0","37XITHEISXVJ8DWQ48GH4PSZHTGCRD","ABICECSTT3MWF","3S829FDFT2NBOHQMM1CIOU0HZYXDXL","","null","<img src=""img/land9.png"" style=""width:200px;border:14px solid red;"">","null","","","","","","","",""
"","image-keyboard-response","286","99179","0.0-423.0","37XITHEISXVJ8DWQ48GH4PSZHTGCRD","ABICECSTT3MWF","3S829FDFT2NBOHQMM1CIOU0HZYXDXL","","97","img/land1.png","75","98","2","0","false","3","0.8,0.8,0.2,0.2,0.8,0.8,0.8,0.2,0.8","",""
"","html-keyboard-response","287","99495","0.0-424.0","37XITHEISXVJ8DWQ48GH4PSZHTGCRD","ABICECSTT3MWF","3S829FDFT2NBOHQMM1CIOU0HZYXDXL","","null","<img src=""img/land1.png"" style=""width:200px;border:14px solid red;"">","null","","","","","","","",""
"","image-keyboard-response","288","99532","0.0-426.0","37XITHEISXVJ8DWQ48GH4PSZHTGCRD","ABICECSTT3MWF","3S829FDFT2NBOHQMM1CIOU0HZYXDXL","","36","img/land1.png","75","36","2","0","false","3","0.8,0.8,0.2,0.2,0.8,0.8,0.8,0.2,0.8","",""
"","html-keyboard-response","289","99834","0.0-427.0","37XITHEISXVJ8DWQ48GH4PSZHTGCRD","ABICECSTT3MWF","3S829FDFT2NBOHQMM1CIOU0HZYXDXL","","null","<img src=""img/land1.png"" style=""width:200px;border:14px solid red;"">","null","","","","","","","",""
"","image-keyboard-response","290","99983","0.0-429.0","37XITHEISXVJ8DWQ48GH4PSZHTGCRD","ABICECSTT3MWF","3S829FDFT2NBOHQMM1CIOU0HZYXDXL","","147","img/land1.png","76","148","3","1","false","3","0.8,0.8,0.2,0.2,0.8,0.8,0.8,0.2,0.8","",""
"","html-keyboard-response","291","100286","0.0-430.0","37XITHEISXVJ8DWQ48GH4PSZHTGCRD","ABICECSTT3MWF","3S829FDFT2NBOHQMM1CIOU0HZYXDXL","","null","<img src=""img/land1.png"" style=""width:200px; border:14px solid green;"">","null","","","","","","","",""
"","image-keyboard-response","292","100352","0.0-432.0","37XITHEISXVJ8DWQ48GH4PSZHTGCRD","ABICECSTT3MWF","3S829FDFT2NBOHQMM1CIOU0HZYXDXL","","64","img/land6.png","76","65","3","1","false","2","0.8,0.8,0.2,0.2,0.8,0.8,0.8,0.2,0.8","",""
"","html-keyboard-response","293","100653","0.0-433.0","37XITHEISXVJ8DWQ48GH4PSZHTGCRD","ABICECSTT3MWF","3S829FDFT2NBOHQMM1CIOU0HZYXDXL","","null","<img src=""img/land6.png"" style=""width:200px; border:14px solid green;"">","null","","","","","","","",""
"","image-keyboard-response","294","100683","0.0-435.0","37XITHEISXVJ8DWQ48GH4PSZHTGCRD","ABICECSTT3MWF","3S829FDFT2NBOHQMM1CIOU0HZYXDXL","","29","img/land1.png","76","29","3","1","false","3","0.8,0.8,0.2,0.2,0.8,0.8,0.8,0.2,0.8","",""
"","html-keyboard-response","295","100985","0.0-436.0","37XITHEISXVJ8DWQ48GH4PSZHTGCRD","ABICECSTT3MWF","3S829FDFT2NBOHQMM1CIOU0HZYXDXL","","null","<img src=""img/land1.png"" style=""width:200px; border:14px solid green;"">","null","","","","","","","",""
"","image-keyboard-response","296","101023","0.0-438.0","37XITHEISXVJ8DWQ48GH4PSZHTGCRD","ABICECSTT3MWF","3S829FDFT2NBOHQMM1CIOU0HZYXDXL","","37","img/land6.png","76","38","3","1","false","2","0.8,0.8,0.2,0.2,0.8,0.8,0.8,0.2,0.8","",""
"","html-keyboard-response","297","101325","0.0-439.0","37XITHEISXVJ8DWQ48GH4PSZHTGCRD","ABICECSTT3MWF","3S829FDFT2NBOHQMM1CIOU0HZYXDXL","","null","<img src=""img/land6.png"" style=""width:200px; border:14px solid green;"">","null","","","","","","","",""
"","image-keyboard-response","298","101475","0.0-441.0","37XITHEISXVJ8DWQ48GH4PSZHTGCRD","ABICECSTT3MWF","3S829FDFT2NBOHQMM1CIOU0HZYXDXL","","148","img/land1.png","76","150","3","1","false","3","0.8,0.8,0.2,0.2,0.8,0.8,0.8,0.2,0.8","",""
"","html-keyboard-response","299","101778","0.0-442.0","37XITHEISXVJ8DWQ48GH4PSZHTGCRD","ABICECSTT3MWF","3S829FDFT2NBOHQMM1CIOU0HZYXDXL","","null","<img src=""img/land1.png"" style=""width:200px; border:14px solid green;"">","null","","","","","","","",""
"","image-keyboard-response","300","101834","0.0-444.0","37XITHEISXVJ8DWQ48GH4PSZHTGCRD","ABICECSTT3MWF","3S829FDFT2NBOHQMM1CIOU0HZYXDXL","","53","img/land1.png","76","56","3","1","false","3","0.8,0.8,0.2,0.2,0.8,0.8,0.8,0.2,0.8","",""
"","html-keyboard-response","301","102136","0.0-445.0","37XITHEISXVJ8DWQ48GH4PSZHTGCRD","ABICECSTT3MWF","3S829FDFT2NBOHQMM1CIOU0HZYXDXL","","null","<img src=""img/land1.png"" style=""width:200px; border:14px solid green;"">","null","","","","","","","",""
"","image-keyboard-response","302","102177","0.0-447.0","37XITHEISXVJ8DWQ48GH4PSZHTGCRD","ABICECSTT3MWF","3S829FDFT2NBOHQMM1CIOU0HZYXDXL","","38","img/land9.png","76","40","3","0","false","1","0.8,0.8,0.2,0.2,0.8,0.8,0.8,0.2,0.8","",""
"","html-keyboard-response","303","102478","0.0-448.0","37XITHEISXVJ8DWQ48GH4PSZHTGCRD","ABICECSTT3MWF","3S829FDFT2NBOHQMM1CIOU0HZYXDXL","","null","<img src=""img/land9.png"" style=""width:200px;border:14px solid red;"">","null","","","","","","","",""
"","image-keyboard-response","304","102523","0.0-450.0","37XITHEISXVJ8DWQ48GH4PSZHTGCRD","ABICECSTT3MWF","3S829FDFT2NBOHQMM1CIOU0HZYXDXL","","42","img/land6.png","76","44","3","1","false","2","0.8,0.8,0.2,0.2,0.8,0.8,0.8,0.2,0.8","",""
"","html-keyboard-response","305","102825","0.0-451.0","37XITHEISXVJ8DWQ48GH4PSZHTGCRD","ABICECSTT3MWF","3S829FDFT2NBOHQMM1CIOU0HZYXDXL","","null","<img src=""img/land6.png"" style=""width:200px; border:14px solid green;"">","null","","","","","","","",""
"","image-keyboard-response","306","102848","0.0-453.0","37XITHEISXVJ8DWQ48GH4PSZHTGCRD","ABICECSTT3MWF","3S829FDFT2NBOHQMM1CIOU0HZYXDXL","","21","img/land6.png","76","22","3","0","false","2","0.8,0.8,0.2,0.2,0.8,0.8,0.8,0.2,0.8","",""
"","html-keyboard-response","307","103194","0.0-454.0","37XITHEISXVJ8DWQ48GH4PSZHTGCRD","ABICECSTT3MWF","3S829FDFT2NBOHQMM1CIOU0HZYXDXL","","null","<img src=""img/land6.png"" style=""width:200px;border:14px solid red;"">","null","","","","","","","",""
"","image-keyboard-response","308","103227","0.0-456.0","37XITHEISXVJ8DWQ48GH4PSZHTGCRD","ABICECSTT3MWF","3S829FDFT2NBOHQMM1CIOU0HZYXDXL","","30","img/land9.png","76","33","3","0","false","1","0.8,0.8,0.2,0.2,0.8,0.8,0.8,0.2,0.8","",""
"","html-keyboard-response","309","103531","0.0-457.0","37XITHEISXVJ8DWQ48GH4PSZHTGCRD","ABICECSTT3MWF","3S829FDFT2NBOHQMM1CIOU0HZYXDXL","","null","<img src=""img/land9.png"" style=""width:200px;border:14px solid red;"">","null","","","","","","","",""
"","image-keyboard-response","310","103563","0.0-459.0","37XITHEISXVJ8DWQ48GH4PSZHTGCRD","ABICECSTT3MWF","3S829FDFT2NBOHQMM1CIOU0HZYXDXL","","30","img/land9.png","75","31","2","1","false","1","0.8,0.8,0.2,0.2,0.8,0.8,0.8,0.2,0.8","",""
"","html-keyboard-response","311","103865","0.0-460.0","37XITHEISXVJ8DWQ48GH4PSZHTGCRD","ABICECSTT3MWF","3S829FDFT2NBOHQMM1CIOU0HZYXDXL","","null","<img src=""img/land9.png"" style=""width:200px; border:14px solid green;"">","null","","","","","","","",""
"","image-keyboard-response","312","103893","0.0-462.0","37XITHEISXVJ8DWQ48GH4PSZHTGCRD","ABICECSTT3MWF","3S829FDFT2NBOHQMM1CIOU0HZYXDXL","","26","img/land9.png","76","28","3","1","false","1","0.8,0.8,0.2,0.2,0.8,0.8,0.8,0.2,0.8","",""
"","html-keyboard-response","313","104195","0.0-463.0","37XITHEISXVJ8DWQ48GH4PSZHTGCRD","ABICECSTT3MWF","3S829FDFT2NBOHQMM1CIOU0HZYXDXL","","null","<img src=""img/land9.png"" style=""width:200px; border:14px solid green;"">","null","","","","","","","",""
"","image-keyboard-response","314","104254","0.0-465.0","37XITHEISXVJ8DWQ48GH4PSZHTGCRD","ABICECSTT3MWF","3S829FDFT2NBOHQMM1CIOU0HZYXDXL","","54","img/land1.png","76","57","3","1","false","3","0.8,0.8,0.2,0.2,0.8,0.8,0.8,0.2,0.8","",""
"","html-keyboard-response","315","104555","0.0-466.0","37XITHEISXVJ8DWQ48GH4PSZHTGCRD","ABICECSTT3MWF","3S829FDFT2NBOHQMM1CIOU0HZYXDXL","","null","<img src=""img/land1.png"" style=""width:200px; border:14px solid green;"">","null","","","","","","","",""
"","image-keyboard-response","316","104602","0.0-468.0","37XITHEISXVJ8DWQ48GH4PSZHTGCRD","ABICECSTT3MWF","3S829FDFT2NBOHQMM1CIOU0HZYXDXL","","45","img/land6.png","76","47","3","0","false","2","0.8,0.8,0.2,0.2,0.8,0.8,0.8,0.2,0.8","",""
"","html-keyboard-response","317","104904","0.0-469.0","37XITHEISXVJ8DWQ48GH4PSZHTGCRD","ABICECSTT3MWF","3S829FDFT2NBOHQMM1CIOU0HZYXDXL","","null","<img src=""img/land6.png"" style=""width:200px;border:14px solid red;"">","null","","","","","","","",""
"","image-keyboard-response","318","104998","0.0-471.0","37XITHEISXVJ8DWQ48GH4PSZHTGCRD","ABICECSTT3MWF","3S829FDFT2NBOHQMM1CIOU0HZYXDXL","","93","img/land9.png","76","94","3","0","false","1","0.8,0.8,0.2,0.2,0.8,0.8,0.8,0.2,0.8","",""
"","html-keyboard-response","319","105304","0.0-472.0","37XITHEISXVJ8DWQ48GH4PSZHTGCRD","ABICECSTT3MWF","3S829FDFT2NBOHQMM1CIOU0HZYXDXL","","null","<img src=""img/land9.png"" style=""width:200px;border:14px solid red;"">","null","","","","","","","",""
"","image-keyboard-response","320","105409","0.0-474.0","37XITHEISXVJ8DWQ48GH4PSZHTGCRD","ABICECSTT3MWF","3S829FDFT2NBOHQMM1CIOU0HZYXDXL","","101","img/land6.png","75","105","2","1","false","2","0.8,0.8,0.2,0.2,0.8,0.8,0.8,0.2,0.8","",""
"","html-keyboard-response","321","105713","0.0-475.0","37XITHEISXVJ8DWQ48GH4PSZHTGCRD","ABICECSTT3MWF","3S829FDFT2NBOHQMM1CIOU0HZYXDXL","","null","<img src=""img/land6.png"" style=""width:200px; border:14px solid green;"">","null","","","","","","","",""
"","image-keyboard-response","322","105854","0.0-477.0","37XITHEISXVJ8DWQ48GH4PSZHTGCRD","ABICECSTT3MWF","3S829FDFT2NBOHQMM1CIOU0HZYXDXL","","139","img/land6.png","74","140","1","0","false","2","0.8,0.8,0.2,0.2,0.8,0.8,0.8,0.2,0.8","",""
"","html-keyboard-response","323","106176","0.0-478.0","37XITHEISXVJ8DWQ48GH4PSZHTGCRD","ABICECSTT3MWF","3S829FDFT2NBOHQMM1CIOU0HZYXDXL","","null","<img src=""img/land6.png"" style=""width:200px;border:14px solid red;"">","null","","","","","","","",""
"","image-keyboard-response","324","106186","0.0-480.0","37XITHEISXVJ8DWQ48GH4PSZHTGCRD","ABICECSTT3MWF","3S829FDFT2NBOHQMM1CIOU0HZYXDXL","","0","img/land9.png","75","1","2","1","false","1","0.8,0.8,0.2,0.2,0.8,0.8,0.8,0.2,0.8","",""
"","html-keyboard-response","325","106489","0.0-481.0","37XITHEISXVJ8DWQ48GH4PSZHTGCRD","ABICECSTT3MWF","3S829FDFT2NBOHQMM1CIOU0HZYXDXL","","null","<img src=""img/land9.png"" style=""width:200px; border:14px solid green;"">","null","","","","","","","",""
"","image-keyboard-response","326","106522","0.0-483.0","37XITHEISXVJ8DWQ48GH4PSZHTGCRD","ABICECSTT3MWF","3S829FDFT2NBOHQMM1CIOU0HZYXDXL","","32","img/land9.png","76","34","3","1","false","1","0.8,0.8,0.2,0.2,0.8,0.8,0.8,0.2,0.8","",""
"","html-keyboard-response","327","106824","0.0-484.0","37XITHEISXVJ8DWQ48GH4PSZHTGCRD","ABICECSTT3MWF","3S829FDFT2NBOHQMM1CIOU0HZYXDXL","","null","<img src=""img/land9.png"" style=""width:200px; border:14px solid green;"">","null","","","","","","","",""
"","image-keyboard-response","328","106842","0.0-486.0","37XITHEISXVJ8DWQ48GH4PSZHTGCRD","ABICECSTT3MWF","3S829FDFT2NBOHQMM1CIOU0HZYXDXL","","16","img/land1.png","74","17","1","1","false","3","0.8,0.8,0.2,0.2,0.8,0.8,0.8,0.2,0.8","",""
"","html-keyboard-response","329","107171","0.0-487.0","37XITHEISXVJ8DWQ48GH4PSZHTGCRD","ABICECSTT3MWF","3S829FDFT2NBOHQMM1CIOU0HZYXDXL","","null","<img src=""img/land1.png"" style=""width:200px; border:14px solid green;"">","null","","","","","","","",""
"","image-keyboard-response","330","107173","0.0-489.0","37XITHEISXVJ8DWQ48GH4PSZHTGCRD","ABICECSTT3MWF","3S829FDFT2NBOHQMM1CIOU0HZYXDXL","","1","img/land6.png","76","1","3","1","false","2","0.8,0.8,0.2,0.2,0.8,0.8,0.8,0.2,0.8","",""
"","html-keyboard-response","331","107474","0.0-490.0","37XITHEISXVJ8DWQ48GH4PSZHTGCRD","ABICECSTT3MWF","3S829FDFT2NBOHQMM1CIOU0HZYXDXL","","null","<img src=""img/land6.png"" style=""width:200px; border:14px solid green;"">","null","","","","","","","",""
"","image-keyboard-response","332","107604","0.0-492.0","37XITHEISXVJ8DWQ48GH4PSZHTGCRD","ABICECSTT3MWF","3S829FDFT2NBOHQMM1CIOU0HZYXDXL","","128","img/land1.png","76","130","3","1","false","3","0.8,0.8,0.2,0.2,0.8,0.8,0.8,0.2,0.8","",""
"","html-keyboard-response","333","107907","0.0-493.0","37XITHEISXVJ8DWQ48GH4PSZHTGCRD","ABICECSTT3MWF","3S829FDFT2NBOHQMM1CIOU0HZYXDXL","","null","<img src=""img/land1.png"" style=""width:200px; border:14px solid green;"">","null","","","","","","","",""
"","image-keyboard-response","334","107933","0.0-495.0","37XITHEISXVJ8DWQ48GH4PSZHTGCRD","ABICECSTT3MWF","3S829FDFT2NBOHQMM1CIOU0HZYXDXL","","23","img/land1.png","76","25","3","1","false","3","0.8,0.8,0.2,0.2,0.8,0.8,0.8,0.2,0.8","",""
"","html-keyboard-response","335","108235","0.0-496.0","37XITHEISXVJ8DWQ48GH4PSZHTGCRD","ABICECSTT3MWF","3S829FDFT2NBOHQMM1CIOU0HZYXDXL","","null","<img src=""img/land1.png"" style=""width:200px; border:14px solid green;"">","null","","","","","","","",""
"","image-keyboard-response","336","108283","0.0-498.0","37XITHEISXVJ8DWQ48GH4PSZHTGCRD","ABICECSTT3MWF","3S829FDFT2NBOHQMM1CIOU0HZYXDXL","","47","img/land9.png","76","48","3","0","false","1","0.8,0.8,0.2,0.2,0.8,0.8,0.8,0.2,0.8","",""
"","html-keyboard-response","337","108583","0.0-499.0","37XITHEISXVJ8DWQ48GH4PSZHTGCRD","ABICECSTT3MWF","3S829FDFT2NBOHQMM1CIOU0HZYXDXL","","null","<img src=""img/land9.png"" style=""width:200px;border:14px solid red;"">","null","","","","","","","",""
"","image-keyboard-response","338","108664","0.0-501.0","37XITHEISXVJ8DWQ48GH4PSZHTGCRD","ABICECSTT3MWF","3S829FDFT2NBOHQMM1CIOU0HZYXDXL","","79","img/land6.png","76","80","3","1","false","2","0.8,0.8,0.2,0.2,0.8,0.8,0.8,0.2,0.8","",""
"","html-keyboard-response","339","108965","0.0-502.0","37XITHEISXVJ8DWQ48GH4PSZHTGCRD","ABICECSTT3MWF","3S829FDFT2NBOHQMM1CIOU0HZYXDXL","","null","<img src=""img/land6.png"" style=""width:200px; border:14px solid green;"">","null","","","","","","","",""
"","image-keyboard-response","340","109034","0.0-504.0","37XITHEISXVJ8DWQ48GH4PSZHTGCRD","ABICECSTT3MWF","3S829FDFT2NBOHQMM1CIOU0HZYXDXL","","66","img/land1.png","75","70","2","0","false","3","0.8,0.8,0.2,0.2,0.8,0.8,0.8,0.2,0.8","",""
"","html-keyboard-response","341","109339","0.0-505.0","37XITHEISXVJ8DWQ48GH4PSZHTGCRD","ABICECSTT3MWF","3S829FDFT2NBOHQMM1CIOU0HZYXDXL","","null","<img src=""img/land1.png"" style=""width:200px;border:14px solid red;"">","null","","","","","","","",""
"","image-keyboard-response","342","109406","0.0-507.0","37XITHEISXVJ8DWQ48GH4PSZHTGCRD","ABICECSTT3MWF","3S829FDFT2NBOHQMM1CIOU0HZYXDXL","","65","img/land6.png","76","67","3","0","false","2","0.8,0.8,0.2,0.2,0.8,0.8,0.8,0.2,0.8","",""
"","html-keyboard-response","343","109748","0.0-508.0","37XITHEISXVJ8DWQ48GH4PSZHTGCRD","ABICECSTT3MWF","3S829FDFT2NBOHQMM1CIOU0HZYXDXL","","null","<img src=""img/land6.png"" style=""width:200px;border:14px solid red;"">","null","","","","","","","",""
"","image-keyboard-response","344","109774","0.0-510.0","37XITHEISXVJ8DWQ48GH4PSZHTGCRD","ABICECSTT3MWF","3S829FDFT2NBOHQMM1CIOU0HZYXDXL","","24","img/land9.png","76","25","3","0","false","1","0.8,0.8,0.2,0.2,0.8,0.8,0.8,0.2,0.8","",""
"","html-keyboard-response","345","110075","0.0-511.0","37XITHEISXVJ8DWQ48GH4PSZHTGCRD","ABICECSTT3MWF","3S829FDFT2NBOHQMM1CIOU0HZYXDXL","","null","<img src=""img/land9.png"" style=""width:200px;border:14px solid red;"">","null","","","","","","","",""
"","image-keyboard-response","346","110123","0.0-513.0","37XITHEISXVJ8DWQ48GH4PSZHTGCRD","ABICECSTT3MWF","3S829FDFT2NBOHQMM1CIOU0HZYXDXL","","46","img/land9.png","76","48","3","0","false","1","0.8,0.8,0.2,0.2,0.8,0.8,0.8,0.2,0.8","",""
"","html-keyboard-response","347","110425","0.0-514.0","37XITHEISXVJ8DWQ48GH4PSZHTGCRD","ABICECSTT3MWF","3S829FDFT2NBOHQMM1CIOU0HZYXDXL","","null","<img src=""img/land9.png"" style=""width:200px;border:14px solid red;"">","null","","","","","","","",""
"","image-keyboard-response","348","110443","0.0-516.0","37XITHEISXVJ8DWQ48GH4PSZHTGCRD","ABICECSTT3MWF","3S829FDFT2NBOHQMM1CIOU0HZYXDXL","","16","img/land1.png","75","17","2","0","false","3","0.8,0.8,0.2,0.2,0.8,0.8,0.8,0.2,0.8","",""
"","html-keyboard-response","349","110745","0.0-517.0","37XITHEISXVJ8DWQ48GH4PSZHTGCRD","ABICECSTT3MWF","3S829FDFT2NBOHQMM1CIOU0HZYXDXL","","null","<img src=""img/land1.png"" style=""width:200px;border:14px solid red;"">","null","","","","","","","",""
"","image-keyboard-response","350","110833","0.0-519.0","37XITHEISXVJ8DWQ48GH4PSZHTGCRD","ABICECSTT3MWF","3S829FDFT2NBOHQMM1CIOU0HZYXDXL","","86","img/land6.png","74","88","1","0","false","2","0.8,0.8,0.2,0.2,0.8,0.8,0.8,0.2,0.8","",""
"","html-keyboard-response","351","111142","0.0-520.0","37XITHEISXVJ8DWQ48GH4PSZHTGCRD","ABICECSTT3MWF","3S829FDFT2NBOHQMM1CIOU0HZYXDXL","","null","<img src=""img/land6.png"" style=""width:200px;border:14px solid red;"">","null","","","","","","","",""
"","image-keyboard-response","352","111553","0.0-522.0","37XITHEISXVJ8DWQ48GH4PSZHTGCRD","ABICECSTT3MWF","3S829FDFT2NBOHQMM1CIOU0HZYXDXL","","410","img/land9.png","75","411","2","1","false","1","0.8,0.8,0.2,0.2,0.8,0.8,0.8,0.2,0.8","",""
"","html-keyboard-response","353","111855","0.0-523.0","37XITHEISXVJ8DWQ48GH4PSZHTGCRD","ABICECSTT3MWF","3S829FDFT2NBOHQMM1CIOU0HZYXDXL","","null","<img src=""img/land9.png"" style=""width:200px; border:14px solid green;"">","null","","","","","","","",""
"","image-keyboard-response","354","111944","0.0-525.0","37XITHEISXVJ8DWQ48GH4PSZHTGCRD","ABICECSTT3MWF","3S829FDFT2NBOHQMM1CIOU0HZYXDXL","","86","img/land9.png","75","88","2","1","false","1","0.8,0.8,0.2,0.2,0.8,0.8,0.8,0.2,0.8","",""
"","html-keyboard-response","355","112246","0.0-526.0","37XITHEISXVJ8DWQ48GH4PSZHTGCRD","ABICECSTT3MWF","3S829FDFT2NBOHQMM1CIOU0HZYXDXL","","null","<img src=""img/land9.png"" style=""width:200px; border:14px solid green;"">","null","","","","","","","",""
"","image-keyboard-response","356","112264","0.0-528.0","37XITHEISXVJ8DWQ48GH4PSZHTGCRD","ABICECSTT3MWF","3S829FDFT2NBOHQMM1CIOU0HZYXDXL","","18","img/land6.png","76","18","3","1","false","2","0.8,0.8,0.2,0.2,0.8,0.8,0.8,0.2,0.8","",""
"","html-keyboard-response","357","112565","0.0-529.0","37XITHEISXVJ8DWQ48GH4PSZHTGCRD","ABICECSTT3MWF","3S829FDFT2NBOHQMM1CIOU0HZYXDXL","","null","<img src=""img/land6.png"" style=""width:200px; border:14px solid green;"">","null","","","","","","","",""
"","image-keyboard-response","358","112613","0.0-531.0","37XITHEISXVJ8DWQ48GH4PSZHTGCRD","ABICECSTT3MWF","3S829FDFT2NBOHQMM1CIOU0HZYXDXL","","46","img/land6.png","76","48","3","1","false","2","0.8,0.8,0.2,0.2,0.8,0.8,0.8,0.2,0.8","",""
"","html-keyboard-response","359","112922","0.0-532.0","37XITHEISXVJ8DWQ48GH4PSZHTGCRD","ABICECSTT3MWF","3S829FDFT2NBOHQMM1CIOU0HZYXDXL","","null","<img src=""img/land6.png"" style=""width:200px; border:14px solid green;"">","null","","","","","","","",""
"","image-keyboard-response","360","113006","0.0-534.0","37XITHEISXVJ8DWQ48GH4PSZHTGCRD","ABICECSTT3MWF","3S829FDFT2NBOHQMM1CIOU0HZYXDXL","","82","img/land6.png","76","85","3","1","false","2","0.8,0.8,0.2,0.2,0.8,0.8,0.8,0.2,0.8","",""
"","html-keyboard-response","361","113309","0.0-535.0","37XITHEISXVJ8DWQ48GH4PSZHTGCRD","ABICECSTT3MWF","3S829FDFT2NBOHQMM1CIOU0HZYXDXL","","null","<img src=""img/land6.png"" style=""width:200px; border:14px solid green;"">","null","","","","","","","",""
"","image-keyboard-response","362","113343","0.0-537.0","37XITHEISXVJ8DWQ48GH4PSZHTGCRD","ABICECSTT3MWF","3S829FDFT2NBOHQMM1CIOU0HZYXDXL","","33","img/land6.png","75","34","2","1","false","2","0.8,0.8,0.2,0.2,0.8,0.8,0.8,0.2,0.8","",""
"","html-keyboard-response","363","113645","0.0-538.0","37XITHEISXVJ8DWQ48GH4PSZHTGCRD","ABICECSTT3MWF","3S829FDFT2NBOHQMM1CIOU0HZYXDXL","","null","<img src=""img/land6.png"" style=""width:200px; border:14px solid green;"">","null","","","","","","","",""
"","image-keyboard-response","364","113673","0.0-540.0","37XITHEISXVJ8DWQ48GH4PSZHTGCRD","ABICECSTT3MWF","3S829FDFT2NBOHQMM1CIOU0HZYXDXL","","25","img/land1.png","75","27","2","0","false","3","0.8,0.8,0.2,0.2,0.8,0.8,0.8,0.2,0.8","",""
"","html-keyboard-response","365","113975","0.0-541.0","37XITHEISXVJ8DWQ48GH4PSZHTGCRD","ABICECSTT3MWF","3S829FDFT2NBOHQMM1CIOU0HZYXDXL","","null","<img src=""img/land1.png"" style=""width:200px;border:14px solid red;"">","null","","","","","","","",""
"","html-keyboard-response","366","115975","0.0-543.0","37XITHEISXVJ8DWQ48GH4PSZHTGCRD","ABICECSTT3MWF","3S829FDFT2NBOHQMM1CIOU0HZYXDXL","","","","","","","","","","","",""
"","image-keyboard-response","367","116279","0.0-544.0","37XITHEISXVJ8DWQ48GH4PSZHTGCRD","ABICECSTT3MWF","3S829FDFT2NBOHQMM1CIOU0HZYXDXL","","301","img/land5.png","75","305","2","1","false","3","0.8,0.2,0.2,0.2,0.8,0.2,0.2,0.2,0.8","",""
"","html-keyboard-response","368","116589","0.0-545.0","37XITHEISXVJ8DWQ48GH4PSZHTGCRD","ABICECSTT3MWF","3S829FDFT2NBOHQMM1CIOU0HZYXDXL","","null","<img src=""img/land5.png"" style=""width:200px; border:14px solid green;"">","null","","","","","","","",""
"","image-keyboard-response","369","116870","0.0-547.0","37XITHEISXVJ8DWQ48GH4PSZHTGCRD","ABICECSTT3MWF","3S829FDFT2NBOHQMM1CIOU0HZYXDXL","","278","img/land3.png","75","280","2","1","false","2","0.8,0.2,0.2,0.2,0.8,0.2,0.2,0.2,0.8","",""
"","html-keyboard-response","370","117174","0.0-548.0","37XITHEISXVJ8DWQ48GH4PSZHTGCRD","ABICECSTT3MWF","3S829FDFT2NBOHQMM1CIOU0HZYXDXL","","null","<img src=""img/land3.png"" style=""width:200px; border:14px solid green;"">","null","","","","","","","",""
"","image-keyboard-response","371","117291","0.0-550.0","37XITHEISXVJ8DWQ48GH4PSZHTGCRD","ABICECSTT3MWF","3S829FDFT2NBOHQMM1CIOU0HZYXDXL","","116","img/land2.png","75","118","2","0","false","1","0.8,0.2,0.2,0.2,0.8,0.2,0.2,0.2,0.8","",""
"","html-keyboard-response","372","117593","0.0-551.0","37XITHEISXVJ8DWQ48GH4PSZHTGCRD","ABICECSTT3MWF","3S829FDFT2NBOHQMM1CIOU0HZYXDXL","","null","<img src=""img/land2.png"" style=""width:200px;border:14px solid red;"">","null","","","","","","","",""
"","image-keyboard-response","373","117743","0.0-553.0","37XITHEISXVJ8DWQ48GH4PSZHTGCRD","ABICECSTT3MWF","3S829FDFT2NBOHQMM1CIOU0HZYXDXL","","129","img/land5.png","75","132","2","0","false","3","0.8,0.2,0.2,0.2,0.8,0.2,0.2,0.2,0.8","",""
"","html-keyboard-response","374","118045","0.0-554.0","37XITHEISXVJ8DWQ48GH4PSZHTGCRD","ABICECSTT3MWF","3S829FDFT2NBOHQMM1CIOU0HZYXDXL","","null","<img src=""img/land5.png"" style=""width:200px;border:14px solid red;"">","null","","","","","","","",""
"","image-keyboard-response","375","118074","0.0-556.0","37XITHEISXVJ8DWQ48GH4PSZHTGCRD","ABICECSTT3MWF","3S829FDFT2NBOHQMM1CIOU0HZYXDXL","","27","img/land3.png","75","28","2","1","false","2","0.8,0.2,0.2,0.2,0.8,0.2,0.2,0.2,0.8","",""
"","html-keyboard-response","376","118375","0.0-557.0","37XITHEISXVJ8DWQ48GH4PSZHTGCRD","ABICECSTT3MWF","3S829FDFT2NBOHQMM1CIOU0HZYXDXL","","null","<img src=""img/land3.png"" style=""width:200px; border:14px solid green;"">","null","","","","","","","",""
"","image-keyboard-response","377","118422","0.0-559.0","37XITHEISXVJ8DWQ48GH4PSZHTGCRD","ABICECSTT3MWF","3S829FDFT2NBOHQMM1CIOU0HZYXDXL","","46","img/land5.png","75","46","2","0","false","3","0.8,0.2,0.2,0.2,0.8,0.2,0.2,0.2,0.8","",""
"","html-keyboard-response","378","118724","0.0-560.0","37XITHEISXVJ8DWQ48GH4PSZHTGCRD","ABICECSTT3MWF","3S829FDFT2NBOHQMM1CIOU0HZYXDXL","","null","<img src=""img/land5.png"" style=""width:200px;border:14px solid red;"">","null","","","","","","","",""
"","image-keyboard-response","379","118813","0.0-562.0","37XITHEISXVJ8DWQ48GH4PSZHTGCRD","ABICECSTT3MWF","3S829FDFT2NBOHQMM1CIOU0HZYXDXL","","87","img/land5.png","75","88","2","0","false","3","0.8,0.2,0.2,0.2,0.8,0.2,0.2,0.2,0.8","",""
"","html-keyboard-response","380","119116","0.0-563.0","37XITHEISXVJ8DWQ48GH4PSZHTGCRD","ABICECSTT3MWF","3S829FDFT2NBOHQMM1CIOU0HZYXDXL","","null","<img src=""img/land5.png"" style=""width:200px;border:14px solid red;"">","null","","","","","","","",""
"","image-keyboard-response","381","119189","0.0-565.0","37XITHEISXVJ8DWQ48GH4PSZHTGCRD","ABICECSTT3MWF","3S829FDFT2NBOHQMM1CIOU0HZYXDXL","","71","img/land3.png","75","73","2","1","false","2","0.8,0.2,0.2,0.2,0.8,0.2,0.2,0.2,0.8","",""
"","html-keyboard-response","382","119496","0.0-566.0","37XITHEISXVJ8DWQ48GH4PSZHTGCRD","ABICECSTT3MWF","3S829FDFT2NBOHQMM1CIOU0HZYXDXL","","null","<img src=""img/land3.png"" style=""width:200px; border:14px solid green;"">","null","","","","","","","",""
"","image-keyboard-response","383","119557","0.0-568.0","37XITHEISXVJ8DWQ48GH4PSZHTGCRD","ABICECSTT3MWF","3S829FDFT2NBOHQMM1CIOU0HZYXDXL","","59","img/land2.png","75","60","2","0","false","1","0.8,0.2,0.2,0.2,0.8,0.2,0.2,0.2,0.8","",""
"","html-keyboard-response","384","119859","0.0-569.0","37XITHEISXVJ8DWQ48GH4PSZHTGCRD","ABICECSTT3MWF","3S829FDFT2NBOHQMM1CIOU0HZYXDXL","","null","<img src=""img/land2.png"" style=""width:200px;border:14px solid red;"">","null","","","","","","","",""
"","image-keyboard-response","385","119979","0.0-571.0","37XITHEISXVJ8DWQ48GH4PSZHTGCRD","ABICECSTT3MWF","3S829FDFT2NBOHQMM1CIOU0HZYXDXL","","119","img/land2.png","75","120","2","1","false","1","0.8,0.2,0.2,0.2,0.8,0.2,0.2,0.2,0.8","",""
"","html-keyboard-response","386","120282","0.0-572.0","37XITHEISXVJ8DWQ48GH4PSZHTGCRD","ABICECSTT3MWF","3S829FDFT2NBOHQMM1CIOU0HZYXDXL","","null","<img src=""img/land2.png"" style=""width:200px; border:14px solid green;"">","null","","","","","","","",""
"","image-keyboard-response","387","120553","0.0-574.0","37XITHEISXVJ8DWQ48GH4PSZHTGCRD","ABICECSTT3MWF","3S829FDFT2NBOHQMM1CIOU0HZYXDXL","","271","img/land5.png","75","272","2","0","false","3","0.8,0.2,0.2,0.2,0.8,0.2,0.2,0.2,0.8","",""
"","html-keyboard-response","388","120856","0.0-575.0","37XITHEISXVJ8DWQ48GH4PSZHTGCRD","ABICECSTT3MWF","3S829FDFT2NBOHQMM1CIOU0HZYXDXL","","null","<img src=""img/land5.png"" style=""width:200px;border:14px solid red;"">","null","","","","","","","",""
"","image-keyboard-response","389","120903","0.0-577.0","37XITHEISXVJ8DWQ48GH4PSZHTGCRD","ABICECSTT3MWF","3S829FDFT2NBOHQMM1CIOU0HZYXDXL","","44","img/land3.png","75","45","2","1","false","2","0.8,0.2,0.2,0.2,0.8,0.2,0.2,0.2,0.8","",""
"","html-keyboard-response","390","121206","0.0-578.0","37XITHEISXVJ8DWQ48GH4PSZHTGCRD","ABICECSTT3MWF","3S829FDFT2NBOHQMM1CIOU0HZYXDXL","","null","<img src=""img/land3.png"" style=""width:200px; border:14px solid green;"">","null","","","","","","","",""
"","image-keyboard-response","391","121317","0.0-580.0","37XITHEISXVJ8DWQ48GH4PSZHTGCRD","ABICECSTT3MWF","3S829FDFT2NBOHQMM1CIOU0HZYXDXL","","108","img/land3.png","75","112","2","1","false","2","0.8,0.2,0.2,0.2,0.8,0.2,0.2,0.2,0.8","",""
"","html-keyboard-response","392","121620","0.0-581.0","37XITHEISXVJ8DWQ48GH4PSZHTGCRD","ABICECSTT3MWF","3S829FDFT2NBOHQMM1CIOU0HZYXDXL","","null","<img src=""img/land3.png"" style=""width:200px; border:14px solid green;"">","null","","","","","","","",""
"","image-keyboard-response","393","121653","0.0-583.0","37XITHEISXVJ8DWQ48GH4PSZHTGCRD","ABICECSTT3MWF","3S829FDFT2NBOHQMM1CIOU0HZYXDXL","","30","img/land5.png","75","32","2","1","false","3","0.8,0.2,0.2,0.2,0.8,0.2,0.2,0.2,0.8","",""
"","html-keyboard-response","394","121955","0.0-584.0","37XITHEISXVJ8DWQ48GH4PSZHTGCRD","ABICECSTT3MWF","3S829FDFT2NBOHQMM1CIOU0HZYXDXL","","null","<img src=""img/land5.png"" style=""width:200px; border:14px solid green;"">","null","","","","","","","",""
"","image-keyboard-response","395","121970","0.0-586.0","37XITHEISXVJ8DWQ48GH4PSZHTGCRD","ABICECSTT3MWF","3S829FDFT2NBOHQMM1CIOU0HZYXDXL","","13","img/land2.png","75","15","2","0","false","1","0.8,0.2,0.2,0.2,0.8,0.2,0.2,0.2,0.8","",""
"","html-keyboard-response","396","122271","0.0-587.0","37XITHEISXVJ8DWQ48GH4PSZHTGCRD","ABICECSTT3MWF","3S829FDFT2NBOHQMM1CIOU0HZYXDXL","","null","<img src=""img/land2.png"" style=""width:200px;border:14px solid red;"">","null","","","","","","","",""
"","image-keyboard-response","397","122403","0.0-589.0","37XITHEISXVJ8DWQ48GH4PSZHTGCRD","ABICECSTT3MWF","3S829FDFT2NBOHQMM1CIOU0HZYXDXL","","130","img/land3.png","75","130","2","1","false","2","0.8,0.2,0.2,0.2,0.8,0.2,0.2,0.2,0.8","",""
"","html-keyboard-response","398","122705","0.0-590.0","37XITHEISXVJ8DWQ48GH4PSZHTGCRD","ABICECSTT3MWF","3S829FDFT2NBOHQMM1CIOU0HZYXDXL","","null","<img src=""img/land3.png"" style=""width:200px; border:14px solid green;"">","null","","","","","","","",""
"","image-keyboard-response","399","122718","0.0-592.0","37XITHEISXVJ8DWQ48GH4PSZHTGCRD","ABICECSTT3MWF","3S829FDFT2NBOHQMM1CIOU0HZYXDXL","","12","img/land2.png","75","12","2","0","false","1","0.8,0.2,0.2,0.2,0.8,0.2,0.2,0.2,0.8","",""
"","html-keyboard-response","400","123031","0.0-593.0","37XITHEISXVJ8DWQ48GH4PSZHTGCRD","ABICECSTT3MWF","3S829FDFT2NBOHQMM1CIOU0HZYXDXL","","null","<img src=""img/land2.png"" style=""width:200px;border:14px solid red;"">","null","","","","","","","",""
"","image-keyboard-response","401","123034","0.0-595.0","37XITHEISXVJ8DWQ48GH4PSZHTGCRD","ABICECSTT3MWF","3S829FDFT2NBOHQMM1CIOU0HZYXDXL","","1","img/land2.png","74","3","1","1","false","1","0.8,0.2,0.2,0.2,0.8,0.2,0.2,0.2,0.8","",""
"","html-keyboard-response","402","123335","0.0-596.0","37XITHEISXVJ8DWQ48GH4PSZHTGCRD","ABICECSTT3MWF","3S829FDFT2NBOHQMM1CIOU0HZYXDXL","","null","<img src=""img/land2.png"" style=""width:200px; border:14px solid green;"">","null","","","","","","","",""
"","image-keyboard-response","403","123433","0.0-598.0","37XITHEISXVJ8DWQ48GH4PSZHTGCRD","ABICECSTT3MWF","3S829FDFT2NBOHQMM1CIOU0HZYXDXL","","96","img/land5.png","74","97","1","0","false","3","0.8,0.2,0.2,0.2,0.8,0.2,0.2,0.2,0.8","",""
"","html-keyboard-response","404","123735","0.0-599.0","37XITHEISXVJ8DWQ48GH4PSZHTGCRD","ABICECSTT3MWF","3S829FDFT2NBOHQMM1CIOU0HZYXDXL","","null","<img src=""img/land5.png"" style=""width:200px;border:14px solid red;"">","null","","","","","","","",""
"","image-keyboard-response","405","123813","0.0-601.0","37XITHEISXVJ8DWQ48GH4PSZHTGCRD","ABICECSTT3MWF","3S829FDFT2NBOHQMM1CIOU0HZYXDXL","","76","img/land3.png","75","77","2","1","false","2","0.8,0.2,0.2,0.2,0.8,0.2,0.2,0.2,0.8","",""
"","html-keyboard-response","406","124116","0.0-602.0","37XITHEISXVJ8DWQ48GH4PSZHTGCRD","ABICECSTT3MWF","3S829FDFT2NBOHQMM1CIOU0HZYXDXL","","null","<img src=""img/land3.png"" style=""width:200px; border:14px solid green;"">","null","","","","","","","",""
"","image-keyboard-response","407","124144","0.0-604.0","37XITHEISXVJ8DWQ48GH4PSZHTGCRD","ABICECSTT3MWF","3S829FDFT2NBOHQMM1CIOU0HZYXDXL","","25","img/land3.png","76","28","3","0","false","2","0.8,0.2,0.2,0.2,0.8,0.2,0.2,0.2,0.8","",""
"","html-keyboard-response","408","124447","0.0-605.0","37XITHEISXVJ8DWQ48GH4PSZHTGCRD","ABICECSTT3MWF","3S829FDFT2NBOHQMM1CIOU0HZYXDXL","","null","<img src=""img/land3.png"" style=""width:200px;border:14px solid red;"">","null","","","","","","","",""
"","image-keyboard-response","409","124514","0.0-607.0","37XITHEISXVJ8DWQ48GH4PSZHTGCRD","ABICECSTT3MWF","3S829FDFT2NBOHQMM1CIOU0HZYXDXL","","65","img/land2.png","75","68","2","1","false","1","0.8,0.2,0.2,0.2,0.8,0.2,0.2,0.2,0.8","",""
"","html-keyboard-response","410","124817","0.0-608.0","37XITHEISXVJ8DWQ48GH4PSZHTGCRD","ABICECSTT3MWF","3S829FDFT2NBOHQMM1CIOU0HZYXDXL","","null","<img src=""img/land2.png"" style=""width:200px; border:14px solid green;"">","null","","","","","","","",""
