"success","trial_type","trial_index","time_elapsed","internal_node_id","assignmentID","mturkID","hitID","view_history","rt","stimulus","key_press","reactionTime","a","r","warning","s","reward_cond","responses","question_order"
"true","fullscreen","0","3415","0.0-0.0","3SPJ033422PFDSEISVPXZPYRA04JY0","ABX5OQLR6UNBC","3S829FDFT2NBOHQMM1CIOU0HZYXDXL","","","","","","","","","","","",""
"","instructions","1","29166","0.0-1.0","3SPJ033422PFDSEISVPXZPYRA04JY0","ABX5OQLR6UNBC","3S829FDFT2NBOHQMM1CIOU0HZYXDXL","[{""page_index"":0,""viewing_time"":11581.30000000447},{""page_index"":1,""viewing_time"":2943.7999999970198},{""page_index"":2,""viewing_time"":1384},{""page_index"":3,""viewing_time"":783.8999999985099},{""page_index"":4,""viewing_time"":1824.1000000014901},{""page_index"":5,""viewing_time"":2016},{""page_index"":6,""viewing_time"":1360.2000000029802},{""page_index"":7,""viewing_time"":3855.89999999851}]","25749.60000000149","","","","","","","","","",""
"","image-keyboard-response","2","30111","0.0-2.0","3SPJ033422PFDSEISVPXZPYRA04JY0","ABX5OQLR6UNBC","3S829FDFT2NBOHQMM1CIOU0HZYXDXL","","943.3999999985099","img/land2.png","74","945.5","1","1","false","3","0.6,0.6,0,0,0.6,0.6,0.6,0,0.6","",""
"","html-keyboard-response","3","30416","0.0-3.0","3SPJ033422PFDSEISVPXZPYRA04JY0","ABX5OQLR6UNBC","3S829FDFT2NBOHQMM1CIOU0HZYXDXL","","null","<img src=""img/land2.png"" style=""width:200px; border:14px solid green;"">","null","","","","","","","",""
"","image-keyboard-response","4","30734","0.0-5.0","3SPJ033422PFDSEISVPXZPYRA04JY0","ABX5OQLR6UNBC","3S829FDFT2NBOHQMM1CIOU0HZYXDXL","","316.1000000014901","img/land2.png","74","317.69999999552965","1","0","false","3","0.6,0.6,0,0,0.6,0.6,0.6,0,0.6","",""
"","html-keyboard-response","5","31037","0.0-6.0","3SPJ033422PFDSEISVPXZPYRA04JY0","ABX5OQLR6UNBC","3S829FDFT2NBOHQMM1CIOU0HZYXDXL","","null","<img src=""img/land2.png"" style=""width:200px;border:14px solid red;"">","null","","","","","","","",""
"","image-keyboard-response","6","31094","0.0-8.0","3SPJ033422PFDSEISVPXZPYRA04JY0","ABX5OQLR6UNBC","3S829FDFT2NBOHQMM1CIOU0HZYXDXL","","55.20000000298023","img/land2.png","74","56.69999999552965","1","1","false","3","0.6,0.6,0,0,0.6,0.6,0.6,0,0.6","",""
"","html-keyboard-response","7","31397","0.0-9.0","3SPJ033422PFDSEISVPXZPYRA04JY0","ABX5OQLR6UNBC","3S829FDFT2NBOHQMM1CIOU0HZYXDXL","","null","<img src=""img/land2.png"" style=""width:200px; border:14px solid green;"">","null","","","","","","","",""
"","image-keyboard-response","8","31774","0.0-11.0","3SPJ033422PFDSEISVPXZPYRA04JY0","ABX5OQLR6UNBC","3S829FDFT2NBOHQMM1CIOU0HZYXDXL","","374.70000000298023","img/land2.png","74","376.30000000447035","1","0","false","3","0.6,0.6,0,0,0.6,0.6,0.6,0,0.6","",""
"","html-keyboard-response","9","32077","0.0-12.0","3SPJ033422PFDSEISVPXZPYRA04JY0","ABX5OQLR6UNBC","3S829FDFT2NBOHQMM1CIOU0HZYXDXL","","null","<img src=""img/land2.png"" style=""width:200px;border:14px solid red;"">","null","","","","","","","",""
"","image-keyboard-response","10","32182","0.0-14.0","3SPJ033422PFDSEISVPXZPYRA04JY0","ABX5OQLR6UNBC","3S829FDFT2NBOHQMM1CIOU0HZYXDXL","","103.40000000596046","img/land8.png","74","105.20000000298023","1","0","false","2","0.6,0.6,0,0,0.6,0.6,0.6,0,0.6","",""
"","html-keyboard-response","11","32485","0.0-15.0","3SPJ033422PFDSEISVPXZPYRA04JY0","ABX5OQLR6UNBC","3S829FDFT2NBOHQMM1CIOU0HZYXDXL","","null","<img src=""img/land8.png"" style=""width:200px;border:14px solid red;"">","null","","","","","","","",""
"","image-keyboard-response","12","32749","0.0-17.0","3SPJ033422PFDSEISVPXZPYRA04JY0","ABX5OQLR6UNBC","3S829FDFT2NBOHQMM1CIOU0HZYXDXL","","262.5","img/land8.png","75","263.70000000298023","2","1","false","2","0.6,0.6,0,0,0.6,0.6,0.6,0,0.6","",""
"","html-keyboard-response","13","33051","0.0-18.0","3SPJ033422PFDSEISVPXZPYRA04JY0","ABX5OQLR6UNBC","3S829FDFT2NBOHQMM1CIOU0HZYXDXL","","null","<img src=""img/land8.png"" style=""width:200px; border:14px solid green;"">","null","","","","","","","",""
"","image-keyboard-response","14","33230","0.0-20.0","3SPJ033422PFDSEISVPXZPYRA04JY0","ABX5OQLR6UNBC","3S829FDFT2NBOHQMM1CIOU0HZYXDXL","","177.30000000447035","img/land2.png","75","178.89999999850988","2","0","false","3","0.6,0.6,0,0,0.6,0.6,0.6,0,0.6","",""
"","html-keyboard-response","15","33533","0.0-21.0","3SPJ033422PFDSEISVPXZPYRA04JY0","ABX5OQLR6UNBC","3S829FDFT2NBOHQMM1CIOU0HZYXDXL","","null","<img src=""img/land2.png"" style=""width:200px;border:14px solid red;"">","null","","","","","","","",""
"","image-keyboard-response","16","33734","0.0-23.0","3SPJ033422PFDSEISVPXZPYRA04JY0","ABX5OQLR6UNBC","3S829FDFT2NBOHQMM1CIOU0HZYXDXL","","198.70000000298023","img/land8.png","76","200.30000000447035","3","1","false","2","0.6,0.6,0,0,0.6,0.6,0.6,0,0.6","",""
"","html-keyboard-response","17","34037","0.0-24.0","3SPJ033422PFDSEISVPXZPYRA04JY0","ABX5OQLR6UNBC","3S829FDFT2NBOHQMM1CIOU0HZYXDXL","","null","<img src=""img/land8.png"" style=""width:200px; border:14px solid green;"">","null","","","","","","","",""
"","image-keyboard-response","18","34318","0.0-26.0","3SPJ033422PFDSEISVPXZPYRA04JY0","ABX5OQLR6UNBC","3S829FDFT2NBOHQMM1CIOU0HZYXDXL","","278.80000000447035","img/land2.png","75","280.5","2","0","false","3","0.6,0.6,0,0,0.6,0.6,0.6,0,0.6","",""
"","html-keyboard-response","19","34621","0.0-27.0","3SPJ033422PFDSEISVPXZPYRA04JY0","ABX5OQLR6UNBC","3S829FDFT2NBOHQMM1CIOU0HZYXDXL","","null","<img src=""img/land2.png"" style=""width:200px;border:14px solid red;"">","null","","","","","","","",""
"","image-keyboard-response","20","34774","0.0-29.0","3SPJ033422PFDSEISVPXZPYRA04JY0","ABX5OQLR6UNBC","3S829FDFT2NBOHQMM1CIOU0HZYXDXL","","151.20000000298023","img/land8.png","74","153.10000000149012","1","0","false","2","0.6,0.6,0,0,0.6,0.6,0.6,0,0.6","",""
"","html-keyboard-response","21","35077","0.0-30.0","3SPJ033422PFDSEISVPXZPYRA04JY0","ABX5OQLR6UNBC","3S829FDFT2NBOHQMM1CIOU0HZYXDXL","","null","<img src=""img/land8.png"" style=""width:200px;border:14px solid red;"">","null","","","","","","","",""
"","image-keyboard-response","22","35599","0.0-32.0","3SPJ033422PFDSEISVPXZPYRA04JY0","ABX5OQLR6UNBC","3S829FDFT2NBOHQMM1CIOU0HZYXDXL","","519.3999999985099","img/land7.png","75","521","2","0","false","1","0.6,0.6,0,0,0.6,0.6,0.6,0,0.6","",""
"","html-keyboard-response","23","35901","0.0-33.0","3SPJ033422PFDSEISVPXZPYRA04JY0","ABX5OQLR6UNBC","3S829FDFT2NBOHQMM1CIOU0HZYXDXL","","null","<img src=""img/land7.png"" style=""width:200px;border:14px solid red;"">","null","","","","","","","",""
"","image-keyboard-response","24","36078","0.0-35.0","3SPJ033422PFDSEISVPXZPYRA04JY0","ABX5OQLR6UNBC","3S829FDFT2NBOHQMM1CIOU0HZYXDXL","","174.60000000149012","img/land8.png","76","176.20000000298023","3","0","false","2","0.6,0.6,0,0,0.6,0.6,0.6,0,0.6","",""
"","html-keyboard-response","25","36381","0.0-36.0","3SPJ033422PFDSEISVPXZPYRA04JY0","ABX5OQLR6UNBC","3S829FDFT2NBOHQMM1CIOU0HZYXDXL","","null","<img src=""img/land8.png"" style=""width:200px;border:14px solid red;"">","null","","","","","","","",""
"","image-keyboard-response","26","36574","0.0-38.0","3SPJ033422PFDSEISVPXZPYRA04JY0","ABX5OQLR6UNBC","3S829FDFT2NBOHQMM1CIOU0HZYXDXL","","191.5","img/land2.png","75","193","2","0","false","3","0.6,0.6,0,0,0.6,0.6,0.6,0,0.6","",""
"","html-keyboard-response","27","36877","0.0-39.0","3SPJ033422PFDSEISVPXZPYRA04JY0","ABX5OQLR6UNBC","3S829FDFT2NBOHQMM1CIOU0HZYXDXL","","null","<img src=""img/land2.png"" style=""width:200px;border:14px solid red;"">","null","","","","","","","",""
"","image-keyboard-response","28","37078","0.0-41.0","3SPJ033422PFDSEISVPXZPYRA04JY0","ABX5OQLR6UNBC","3S829FDFT2NBOHQMM1CIOU0HZYXDXL","","199.30000000447035","img/land7.png","74","200.89999999850988","1","1","false","1","0.6,0.6,0,0,0.6,0.6,0.6,0,0.6","",""
"","html-keyboard-response","29","37381","0.0-42.0","3SPJ033422PFDSEISVPXZPYRA04JY0","ABX5OQLR6UNBC","3S829FDFT2NBOHQMM1CIOU0HZYXDXL","","null","<img src=""img/land7.png"" style=""width:200px; border:14px solid green;"">","null","","","","","","","",""
"","image-keyboard-response","30","37646","0.0-44.0","3SPJ033422PFDSEISVPXZPYRA04JY0","ABX5OQLR6UNBC","3S829FDFT2NBOHQMM1CIOU0HZYXDXL","","262.90000000596046","img/land2.png","75","264.5","2","0","false","3","0.6,0.6,0,0,0.6,0.6,0.6,0,0.6","",""
"","html-keyboard-response","31","37948","0.0-45.0","3SPJ033422PFDSEISVPXZPYRA04JY0","ABX5OQLR6UNBC","3S829FDFT2NBOHQMM1CIOU0HZYXDXL","","null","<img src=""img/land2.png"" style=""width:200px;border:14px solid red;"">","null","","","","","","","",""
"","image-keyboard-response","32","38086","0.0-47.0","3SPJ033422PFDSEISVPXZPYRA04JY0","ABX5OQLR6UNBC","3S829FDFT2NBOHQMM1CIOU0HZYXDXL","","135.70000000298023","img/land7.png","76","137.10000000149012","3","0","false","1","0.6,0.6,0,0,0.6,0.6,0.6,0,0.6","",""
"","html-keyboard-response","33","38390","0.0-48.0","3SPJ033422PFDSEISVPXZPYRA04JY0","ABX5OQLR6UNBC","3S829FDFT2NBOHQMM1CIOU0HZYXDXL","","null","<img src=""img/land7.png"" style=""width:200px;border:14px solid red;"">","null","","","","","","","",""
"","image-keyboard-response","34","38630","0.0-50.0","3SPJ033422PFDSEISVPXZPYRA04JY0","ABX5OQLR6UNBC","3S829FDFT2NBOHQMM1CIOU0HZYXDXL","","238.40000000596046","img/land8.png","74","240.10000000149012","1","0","false","2","0.6,0.6,0,0,0.6,0.6,0.6,0,0.6","",""
"","html-keyboard-response","35","38932","0.0-51.0","3SPJ033422PFDSEISVPXZPYRA04JY0","ABX5OQLR6UNBC","3S829FDFT2NBOHQMM1CIOU0HZYXDXL","","null","<img src=""img/land8.png"" style=""width:200px;border:14px solid red;"">","null","","","","","","","",""
"","image-keyboard-response","36","39117","0.0-53.0","3SPJ033422PFDSEISVPXZPYRA04JY0","ABX5OQLR6UNBC","3S829FDFT2NBOHQMM1CIOU0HZYXDXL","","183.30000000447035","img/land2.png","75","184.5","2","0","false","3","0.6,0.6,0,0,0.6,0.6,0.6,0,0.6","",""
"","html-keyboard-response","37","39419","0.0-54.0","3SPJ033422PFDSEISVPXZPYRA04JY0","ABX5OQLR6UNBC","3S829FDFT2NBOHQMM1CIOU0HZYXDXL","","null","<img src=""img/land2.png"" style=""width:200px;border:14px solid red;"">","null","","","","","","","",""
"","image-keyboard-response","38","39597","0.0-56.0","3SPJ033422PFDSEISVPXZPYRA04JY0","ABX5OQLR6UNBC","3S829FDFT2NBOHQMM1CIOU0HZYXDXL","","176.10000000149012","img/land2.png","76","177.29999999701977","3","1","false","3","0.6,0.6,0,0,0.6,0.6,0.6,0,0.6","",""
"","html-keyboard-response","39","39911","0.0-57.0","3SPJ033422PFDSEISVPXZPYRA04JY0","ABX5OQLR6UNBC","3S829FDFT2NBOHQMM1CIOU0HZYXDXL","","null","<img src=""img/land2.png"" style=""width:200px; border:14px solid green;"">","null","","","","","","","",""
"","image-keyboard-response","40","40182","0.0-59.0","3SPJ033422PFDSEISVPXZPYRA04JY0","ABX5OQLR6UNBC","3S829FDFT2NBOHQMM1CIOU0HZYXDXL","","269.1000000014901","img/land7.png","75","270.5","2","0","false","1","0.6,0.6,0,0,0.6,0.6,0.6,0,0.6","",""
"","html-keyboard-response","41","40485","0.0-60.0","3SPJ033422PFDSEISVPXZPYRA04JY0","ABX5OQLR6UNBC","3S829FDFT2NBOHQMM1CIOU0HZYXDXL","","null","<img src=""img/land7.png"" style=""width:200px;border:14px solid red;"">","null","","","","","","","",""
"","image-keyboard-response","42","40701","0.0-62.0","3SPJ033422PFDSEISVPXZPYRA04JY0","ABX5OQLR6UNBC","3S829FDFT2NBOHQMM1CIOU0HZYXDXL","","214.5","img/land8.png","76","215.80000000447035","3","1","false","2","0.6,0.6,0,0,0.6,0.6,0.6,0,0.6","",""
"","html-keyboard-response","43","41002","0.0-63.0","3SPJ033422PFDSEISVPXZPYRA04JY0","ABX5OQLR6UNBC","3S829FDFT2NBOHQMM1CIOU0HZYXDXL","","null","<img src=""img/land8.png"" style=""width:200px; border:14px solid green;"">","null","","","","","","","",""
"","image-keyboard-response","44","41166","0.0-65.0","3SPJ033422PFDSEISVPXZPYRA04JY0","ABX5OQLR6UNBC","3S829FDFT2NBOHQMM1CIOU0HZYXDXL","","161.5","img/land7.png","76","163","3","0","false","1","0.6,0.6,0,0,0.6,0.6,0.6,0,0.6","",""
"","html-keyboard-response","45","41469","0.0-66.0","3SPJ033422PFDSEISVPXZPYRA04JY0","ABX5OQLR6UNBC","3S829FDFT2NBOHQMM1CIOU0HZYXDXL","","null","<img src=""img/land7.png"" style=""width:200px;border:14px solid red;"">","null","","","","","","","",""
"","image-keyboard-response","46","41630","0.0-68.0","3SPJ033422PFDSEISVPXZPYRA04JY0","ABX5OQLR6UNBC","3S829FDFT2NBOHQMM1CIOU0HZYXDXL","","160.5","img/land7.png","74","161.39999999850988","1","0","false","1","0.6,0.6,0,0,0.6,0.6,0.6,0,0.6","",""
"","html-keyboard-response","47","41933","0.0-69.0","3SPJ033422PFDSEISVPXZPYRA04JY0","ABX5OQLR6UNBC","3S829FDFT2NBOHQMM1CIOU0HZYXDXL","","null","<img src=""img/land7.png"" style=""width:200px;border:14px solid red;"">","null","","","","","","","",""
"","image-keyboard-response","48","42134","0.0-71.0","3SPJ033422PFDSEISVPXZPYRA04JY0","ABX5OQLR6UNBC","3S829FDFT2NBOHQMM1CIOU0HZYXDXL","","200.5","img/land8.png","74","201.39999999850988","1","0","false","2","0.6,0.6,0,0,0.6,0.6,0.6,0,0.6","",""
"","html-keyboard-response","49","42437","0.0-72.0","3SPJ033422PFDSEISVPXZPYRA04JY0","ABX5OQLR6UNBC","3S829FDFT2NBOHQMM1CIOU0HZYXDXL","","null","<img src=""img/land8.png"" style=""width:200px;border:14px solid red;"">","null","","","","","","","",""
"","image-keyboard-response","50","42597","0.0-74.0","3SPJ033422PFDSEISVPXZPYRA04JY0","ABX5OQLR6UNBC","3S829FDFT2NBOHQMM1CIOU0HZYXDXL","","158.40000000596046","img/land8.png","75","159.5","2","1","false","2","0.6,0.6,0,0,0.6,0.6,0.6,0,0.6","",""
"","html-keyboard-response","51","42898","0.0-75.0","3SPJ033422PFDSEISVPXZPYRA04JY0","ABX5OQLR6UNBC","3S829FDFT2NBOHQMM1CIOU0HZYXDXL","","null","<img src=""img/land8.png"" style=""width:200px; border:14px solid green;"">","null","","","","","","","",""
"","image-keyboard-response","52","43102","0.0-77.0","3SPJ033422PFDSEISVPXZPYRA04JY0","ABX5OQLR6UNBC","3S829FDFT2NBOHQMM1CIOU0HZYXDXL","","201.70000000298023","img/land2.png","75","203.29999999701977","2","0","false","3","0.6,0.6,0,0,0.6,0.6,0.6,0,0.6","",""
"","html-keyboard-response","53","43410","0.0-78.0","3SPJ033422PFDSEISVPXZPYRA04JY0","ABX5OQLR6UNBC","3S829FDFT2NBOHQMM1CIOU0HZYXDXL","","null","<img src=""img/land2.png"" style=""width:200px;border:14px solid red;"">","null","","","","","","","",""
"","image-keyboard-response","54","43573","0.0-80.0","3SPJ033422PFDSEISVPXZPYRA04JY0","ABX5OQLR6UNBC","3S829FDFT2NBOHQMM1CIOU0HZYXDXL","","161.5","img/land2.png","76","162.80000000447035","3","1","false","3","0.6,0.6,0,0,0.6,0.6,0.6,0,0.6","",""
"","html-keyboard-response","55","43875","0.0-81.0","3SPJ033422PFDSEISVPXZPYRA04JY0","ABX5OQLR6UNBC","3S829FDFT2NBOHQMM1CIOU0HZYXDXL","","null","<img src=""img/land2.png"" style=""width:200px; border:14px solid green;"">","null","","","","","","","",""
"","image-keyboard-response","56","44070","0.0-83.0","3SPJ033422PFDSEISVPXZPYRA04JY0","ABX5OQLR6UNBC","3S829FDFT2NBOHQMM1CIOU0HZYXDXL","","193.30000000447035","img/land8.png","76","194.80000000447035","3","0","false","2","0.6,0.6,0,0,0.6,0.6,0.6,0,0.6","",""
"","html-keyboard-response","57","44373","0.0-84.0","3SPJ033422PFDSEISVPXZPYRA04JY0","ABX5OQLR6UNBC","3S829FDFT2NBOHQMM1CIOU0HZYXDXL","","null","<img src=""img/land8.png"" style=""width:200px;border:14px solid red;"">","null","","","","","","","",""
"","image-keyboard-response","58","44477","0.0-86.0","3SPJ033422PFDSEISVPXZPYRA04JY0","ABX5OQLR6UNBC","3S829FDFT2NBOHQMM1CIOU0HZYXDXL","","102.09999999403954","img/land8.png","75","103.30000000447035","2","1","false","2","0.6,0.6,0,0,0.6,0.6,0.6,0,0.6","",""
"","html-keyboard-response","59","44779","0.0-87.0","3SPJ033422PFDSEISVPXZPYRA04JY0","ABX5OQLR6UNBC","3S829FDFT2NBOHQMM1CIOU0HZYXDXL","","null","<img src=""img/land8.png"" style=""width:200px; border:14px solid green;"">","null","","","","","","","",""
"","image-keyboard-response","60","44942","0.0-89.0","3SPJ033422PFDSEISVPXZPYRA04JY0","ABX5OQLR6UNBC","3S829FDFT2NBOHQMM1CIOU0HZYXDXL","","161.70000000298023","img/land8.png","74","163.19999999552965","1","0","false","2","0.6,0.6,0,0,0.6,0.6,0.6,0,0.6","",""
"","html-keyboard-response","61","45244","0.0-90.0","3SPJ033422PFDSEISVPXZPYRA04JY0","ABX5OQLR6UNBC","3S829FDFT2NBOHQMM1CIOU0HZYXDXL","","null","<img src=""img/land8.png"" style=""width:200px;border:14px solid red;"">","null","","","","","","","",""
"","image-keyboard-response","62","45438","0.0-92.0","3SPJ033422PFDSEISVPXZPYRA04JY0","ABX5OQLR6UNBC","3S829FDFT2NBOHQMM1CIOU0HZYXDXL","","191.90000000596046","img/land7.png","75","193.39999999850988","2","1","false","1","0.6,0.6,0,0,0.6,0.6,0.6,0,0.6","",""
"","html-keyboard-response","63","45741","0.0-93.0","3SPJ033422PFDSEISVPXZPYRA04JY0","ABX5OQLR6UNBC","3S829FDFT2NBOHQMM1CIOU0HZYXDXL","","null","<img src=""img/land7.png"" style=""width:200px; border:14px solid green;"">","null","","","","","","","",""
"","image-keyboard-response","64","45895","0.0-95.0","3SPJ033422PFDSEISVPXZPYRA04JY0","ABX5OQLR6UNBC","3S829FDFT2NBOHQMM1CIOU0HZYXDXL","","151.5","img/land7.png","76","153.29999999701977","3","0","false","1","0.6,0.6,0,0,0.6,0.6,0.6,0,0.6","",""
"","html-keyboard-response","65","46197","0.0-96.0","3SPJ033422PFDSEISVPXZPYRA04JY0","ABX5OQLR6UNBC","3S829FDFT2NBOHQMM1CIOU0HZYXDXL","","null","<img src=""img/land7.png"" style=""width:200px;border:14px solid red;"">","null","","","","","","","",""
"","image-keyboard-response","66","46310","0.0-98.0","3SPJ033422PFDSEISVPXZPYRA04JY0","ABX5OQLR6UNBC","3S829FDFT2NBOHQMM1CIOU0HZYXDXL","","111.20000000298023","img/land8.png","76","112.70000000298023","3","0","false","2","0.6,0.6,0,0,0.6,0.6,0.6,0,0.6","",""
"","html-keyboard-response","67","46612","0.0-99.0","3SPJ033422PFDSEISVPXZPYRA04JY0","ABX5OQLR6UNBC","3S829FDFT2NBOHQMM1CIOU0HZYXDXL","","null","<img src=""img/land8.png"" style=""width:200px;border:14px solid red;"">","null","","","","","","","",""
"","image-keyboard-response","68","46830","0.0-101.0","3SPJ033422PFDSEISVPXZPYRA04JY0","ABX5OQLR6UNBC","3S829FDFT2NBOHQMM1CIOU0HZYXDXL","","215.79999999701977","img/land8.png","75","217.29999999701977","2","0","false","2","0.6,0.6,0,0,0.6,0.6,0.6,0,0.6","",""
"","html-keyboard-response","69","47133","0.0-102.0","3SPJ033422PFDSEISVPXZPYRA04JY0","ABX5OQLR6UNBC","3S829FDFT2NBOHQMM1CIOU0HZYXDXL","","null","<img src=""img/land8.png"" style=""width:200px;border:14px solid red;"">","null","","","","","","","",""
"","image-keyboard-response","70","47302","0.0-104.0","3SPJ033422PFDSEISVPXZPYRA04JY0","ABX5OQLR6UNBC","3S829FDFT2NBOHQMM1CIOU0HZYXDXL","","167.30000000447035","img/land7.png","75","168.79999999701977","2","0","false","1","0.6,0.6,0,0,0.6,0.6,0.6,0,0.6","",""
"","html-keyboard-response","71","47605","0.0-105.0","3SPJ033422PFDSEISVPXZPYRA04JY0","ABX5OQLR6UNBC","3S829FDFT2NBOHQMM1CIOU0HZYXDXL","","null","<img src=""img/land7.png"" style=""width:200px;border:14px solid red;"">","null","","","","","","","",""
"","image-keyboard-response","72","47846","0.0-107.0","3SPJ033422PFDSEISVPXZPYRA04JY0","ABX5OQLR6UNBC","3S829FDFT2NBOHQMM1CIOU0HZYXDXL","","239.19999999552965","img/land7.png","74","240.69999999552965","1","0","false","1","0.6,0.6,0,0,0.6,0.6,0.6,0,0.6","",""
"","html-keyboard-response","73","48149","0.0-108.0","3SPJ033422PFDSEISVPXZPYRA04JY0","ABX5OQLR6UNBC","3S829FDFT2NBOHQMM1CIOU0HZYXDXL","","null","<img src=""img/land7.png"" style=""width:200px;border:14px solid red;"">","null","","","","","","","",""
"","image-keyboard-response","74","48318","0.0-110.0","3SPJ033422PFDSEISVPXZPYRA04JY0","ABX5OQLR6UNBC","3S829FDFT2NBOHQMM1CIOU0HZYXDXL","","167.30000000447035","img/land7.png","74","168.80000000447035","1","1","false","1","0.6,0.6,0,0,0.6,0.6,0.6,0,0.6","",""
"","html-keyboard-response","75","48621","0.0-111.0","3SPJ033422PFDSEISVPXZPYRA04JY0","ABX5OQLR6UNBC","3S829FDFT2NBOHQMM1CIOU0HZYXDXL","","null","<img src=""img/land7.png"" style=""width:200px; border:14px solid green;"">","null","","","","","","","",""
"","image-keyboard-response","76","48702","0.0-113.0","3SPJ033422PFDSEISVPXZPYRA04JY0","ABX5OQLR6UNBC","3S829FDFT2NBOHQMM1CIOU0HZYXDXL","","78.70000000298023","img/land8.png","75","80.19999999552965","2","0","false","2","0.6,0.6,0,0,0.6,0.6,0.6,0,0.6","",""
"","html-keyboard-response","77","49005","0.0-114.0","3SPJ033422PFDSEISVPXZPYRA04JY0","ABX5OQLR6UNBC","3S829FDFT2NBOHQMM1CIOU0HZYXDXL","","null","<img src=""img/land8.png"" style=""width:200px;border:14px solid red;"">","null","","","","","","","",""
"","image-keyboard-response","78","49158","0.0-116.0","3SPJ033422PFDSEISVPXZPYRA04JY0","ABX5OQLR6UNBC","3S829FDFT2NBOHQMM1CIOU0HZYXDXL","","151.19999999552965","img/land7.png","76","152.69999999552965","3","0","false","1","0.6,0.6,0,0,0.6,0.6,0.6,0,0.6","",""
"","html-keyboard-response","79","49461","0.0-117.0","3SPJ033422PFDSEISVPXZPYRA04JY0","ABX5OQLR6UNBC","3S829FDFT2NBOHQMM1CIOU0HZYXDXL","","null","<img src=""img/land7.png"" style=""width:200px;border:14px solid red;"">","null","","","","","","","",""
"","image-keyboard-response","80","49622","0.0-119.0","3SPJ033422PFDSEISVPXZPYRA04JY0","ABX5OQLR6UNBC","3S829FDFT2NBOHQMM1CIOU0HZYXDXL","","159.40000000596046","img/land7.png","75","160.80000000447035","2","0","false","1","0.6,0.6,0,0,0.6,0.6,0.6,0,0.6","",""
"","html-keyboard-response","81","49925","0.0-120.0","3SPJ033422PFDSEISVPXZPYRA04JY0","ABX5OQLR6UNBC","3S829FDFT2NBOHQMM1CIOU0HZYXDXL","","null","<img src=""img/land7.png"" style=""width:200px;border:14px solid red;"">","null","","","","","","","",""
"","image-keyboard-response","82","50078","0.0-122.0","3SPJ033422PFDSEISVPXZPYRA04JY0","ABX5OQLR6UNBC","3S829FDFT2NBOHQMM1CIOU0HZYXDXL","","152","img/land2.png","74","153","1","1","false","3","0.6,0.6,0,0,0.6,0.6,0.6,0,0.6","",""
"","html-keyboard-response","83","50392","0.0-123.0","3SPJ033422PFDSEISVPXZPYRA04JY0","ABX5OQLR6UNBC","3S829FDFT2NBOHQMM1CIOU0HZYXDXL","","null","<img src=""img/land2.png"" style=""width:200px; border:14px solid green;"">","null","","","","","","","",""
"","image-keyboard-response","84","50494","0.0-125.0","3SPJ033422PFDSEISVPXZPYRA04JY0","ABX5OQLR6UNBC","3S829FDFT2NBOHQMM1CIOU0HZYXDXL","","100.40000000596046","img/land7.png","75","101.80000000447035","2","1","false","1","0.6,0.6,0,0,0.6,0.6,0.6,0,0.6","",""
"","html-keyboard-response","85","50797","0.0-126.0","3SPJ033422PFDSEISVPXZPYRA04JY0","ABX5OQLR6UNBC","3S829FDFT2NBOHQMM1CIOU0HZYXDXL","","null","<img src=""img/land7.png"" style=""width:200px; border:14px solid green;"">","null","","","","","","","",""
"","image-keyboard-response","86","50974","0.0-128.0","3SPJ033422PFDSEISVPXZPYRA04JY0","ABX5OQLR6UNBC","3S829FDFT2NBOHQMM1CIOU0HZYXDXL","","175.40000000596046","img/land7.png","76","176.80000000447035","3","0","false","1","0.6,0.6,0,0,0.6,0.6,0.6,0,0.6","",""
"","html-keyboard-response","87","51276","0.0-129.0","3SPJ033422PFDSEISVPXZPYRA04JY0","ABX5OQLR6UNBC","3S829FDFT2NBOHQMM1CIOU0HZYXDXL","","null","<img src=""img/land7.png"" style=""width:200px;border:14px solid red;"">","null","","","","","","","",""
"","image-keyboard-response","88","51598","0.0-131.0","3SPJ033422PFDSEISVPXZPYRA04JY0","ABX5OQLR6UNBC","3S829FDFT2NBOHQMM1CIOU0HZYXDXL","","319.79999999701977","img/land2.png","75","321.29999999701977","2","0","false","3","0.6,0.6,0,0,0.6,0.6,0.6,0,0.6","",""
"","html-keyboard-response","89","51901","0.0-132.0","3SPJ033422PFDSEISVPXZPYRA04JY0","ABX5OQLR6UNBC","3S829FDFT2NBOHQMM1CIOU0HZYXDXL","","null","<img src=""img/land2.png"" style=""width:200px;border:14px solid red;"">","null","","","","","","","",""
"","image-keyboard-response","90","52070","0.0-134.0","3SPJ033422PFDSEISVPXZPYRA04JY0","ABX5OQLR6UNBC","3S829FDFT2NBOHQMM1CIOU0HZYXDXL","","166.80000000447035","img/land8.png","74","168.30000000447035","1","0","false","2","0.6,0.6,0,0,0.6,0.6,0.6,0,0.6","",""
"","html-keyboard-response","91","52372","0.0-135.0","3SPJ033422PFDSEISVPXZPYRA04JY0","ABX5OQLR6UNBC","3S829FDFT2NBOHQMM1CIOU0HZYXDXL","","null","<img src=""img/land8.png"" style=""width:200px;border:14px solid red;"">","null","","","","","","","",""
"","image-keyboard-response","92","52462","0.0-137.0","3SPJ033422PFDSEISVPXZPYRA04JY0","ABX5OQLR6UNBC","3S829FDFT2NBOHQMM1CIOU0HZYXDXL","","87.80000000447035","img/land2.png","75","89.20000000298023","2","0","false","3","0.6,0.6,0,0,0.6,0.6,0.6,0,0.6","",""
"","html-keyboard-response","93","52765","0.0-138.0","3SPJ033422PFDSEISVPXZPYRA04JY0","ABX5OQLR6UNBC","3S829FDFT2NBOHQMM1CIOU0HZYXDXL","","null","<img src=""img/land2.png"" style=""width:200px;border:14px solid red;"">","null","","","","","","","",""
"","image-keyboard-response","94","52933","0.0-140.0","3SPJ033422PFDSEISVPXZPYRA04JY0","ABX5OQLR6UNBC","3S829FDFT2NBOHQMM1CIOU0HZYXDXL","","166","img/land2.png","76","167.10000000149012","3","1","false","3","0.6,0.6,0,0,0.6,0.6,0.6,0,0.6","",""
"","html-keyboard-response","95","53235","0.0-141.0","3SPJ033422PFDSEISVPXZPYRA04JY0","ABX5OQLR6UNBC","3S829FDFT2NBOHQMM1CIOU0HZYXDXL","","null","<img src=""img/land2.png"" style=""width:200px; border:14px solid green;"">","null","","","","","","","",""
"","image-keyboard-response","96","53382","0.0-143.0","3SPJ033422PFDSEISVPXZPYRA04JY0","ABX5OQLR6UNBC","3S829FDFT2NBOHQMM1CIOU0HZYXDXL","","145.39999999850988","img/land8.png","75","147","2","1","false","2","0.6,0.6,0,0,0.6,0.6,0.6,0,0.6","",""
"","html-keyboard-response","97","53684","0.0-144.0","3SPJ033422PFDSEISVPXZPYRA04JY0","ABX5OQLR6UNBC","3S829FDFT2NBOHQMM1CIOU0HZYXDXL","","null","<img src=""img/land8.png"" style=""width:200px; border:14px solid green;"">","null","","","","","","","",""
"","image-keyboard-response","98","53862","0.0-146.0","3SPJ033422PFDSEISVPXZPYRA04JY0","ABX5OQLR6UNBC","3S829FDFT2NBOHQMM1CIOU0HZYXDXL","","177","img/land7.png","75","177.89999999850988","2","1","false","1","0.6,0.6,0,0,0.6,0.6,0.6,0,0.6","",""
"","html-keyboard-response","99","54164","0.0-147.0","3SPJ033422PFDSEISVPXZPYRA04JY0","ABX5OQLR6UNBC","3S829FDFT2NBOHQMM1CIOU0HZYXDXL","","null","<img src=""img/land7.png"" style=""width:200px; border:14px solid green;"">","null","","","","","","","",""
"","image-keyboard-response","100","54343","0.0-149.0","3SPJ033422PFDSEISVPXZPYRA04JY0","ABX5OQLR6UNBC","3S829FDFT2NBOHQMM1CIOU0HZYXDXL","","175.89999999850988","img/land2.png","76","177.39999999850988","3","0","false","3","0.6,0.6,0,0,0.6,0.6,0.6,0,0.6","",""
"","html-keyboard-response","101","54645","0.0-150.0","3SPJ033422PFDSEISVPXZPYRA04JY0","ABX5OQLR6UNBC","3S829FDFT2NBOHQMM1CIOU0HZYXDXL","","null","<img src=""img/land2.png"" style=""width:200px;border:14px solid red;"">","null","","","","","","","",""
"","image-keyboard-response","102","54830","0.0-152.0","3SPJ033422PFDSEISVPXZPYRA04JY0","ABX5OQLR6UNBC","3S829FDFT2NBOHQMM1CIOU0HZYXDXL","","182.90000000596046","img/land2.png","76","184.30000000447035","3","0","false","3","0.6,0.6,0,0,0.6,0.6,0.6,0,0.6","",""
"","html-keyboard-response","103","55132","0.0-153.0","3SPJ033422PFDSEISVPXZPYRA04JY0","ABX5OQLR6UNBC","3S829FDFT2NBOHQMM1CIOU0HZYXDXL","","null","<img src=""img/land2.png"" style=""width:200px;border:14px solid red;"">","null","","","","","","","",""
"","image-keyboard-response","104","55262","0.0-155.0","3SPJ033422PFDSEISVPXZPYRA04JY0","ABX5OQLR6UNBC","3S829FDFT2NBOHQMM1CIOU0HZYXDXL","","127.70000000298023","img/land8.png","75","129.20000000298023","2","0","false","2","0.6,0.6,0,0,0.6,0.6,0.6,0,0.6","",""
"","html-keyboard-response","105","55564","0.0-156.0","3SPJ033422PFDSEISVPXZPYRA04JY0","ABX5OQLR6UNBC","3S829FDFT2NBOHQMM1CIOU0HZYXDXL","","null","<img src=""img/land8.png"" style=""width:200px;border:14px solid red;"">","null","","","","","","","",""
"","image-keyboard-response","106","55766","0.0-158.0","3SPJ033422PFDSEISVPXZPYRA04JY0","ABX5OQLR6UNBC","3S829FDFT2NBOHQMM1CIOU0HZYXDXL","","199.70000000298023","img/land8.png","75","201.10000000149012","2","1","false","2","0.6,0.6,0,0,0.6,0.6,0.6,0,0.6","",""
"","html-keyboard-response","107","56068","0.0-159.0","3SPJ033422PFDSEISVPXZPYRA04JY0","ABX5OQLR6UNBC","3S829FDFT2NBOHQMM1CIOU0HZYXDXL","","null","<img src=""img/land8.png"" style=""width:200px; border:14px solid green;"">","null","","","","","","","",""
"","image-keyboard-response","108","56222","0.0-161.0","3SPJ033422PFDSEISVPXZPYRA04JY0","ABX5OQLR6UNBC","3S829FDFT2NBOHQMM1CIOU0HZYXDXL","","152.10000000149012","img/land2.png","74","153.5","1","0","false","3","0.6,0.6,0,0,0.6,0.6,0.6,0,0.6","",""
"","html-keyboard-response","109","56525","0.0-162.0","3SPJ033422PFDSEISVPXZPYRA04JY0","ABX5OQLR6UNBC","3S829FDFT2NBOHQMM1CIOU0HZYXDXL","","null","<img src=""img/land2.png"" style=""width:200px;border:14px solid red;"">","null","","","","","","","",""
"","image-keyboard-response","110","56693","0.0-164.0","3SPJ033422PFDSEISVPXZPYRA04JY0","ABX5OQLR6UNBC","3S829FDFT2NBOHQMM1CIOU0HZYXDXL","","166.40000000596046","img/land7.png","74","167.60000000149012","1","1","false","1","0.6,0.6,0,0,0.6,0.6,0.6,0,0.6","",""
"","html-keyboard-response","111","56994","0.0-165.0","3SPJ033422PFDSEISVPXZPYRA04JY0","ABX5OQLR6UNBC","3S829FDFT2NBOHQMM1CIOU0HZYXDXL","","null","<img src=""img/land7.png"" style=""width:200px; border:14px solid green;"">","null","","","","","","","",""
"","image-keyboard-response","112","57070","0.0-167.0","3SPJ033422PFDSEISVPXZPYRA04JY0","ABX5OQLR6UNBC","3S829FDFT2NBOHQMM1CIOU0HZYXDXL","","75.30000000447035","img/land2.png","75","76.10000000149012","2","0","false","3","0.6,0.6,0,0,0.6,0.6,0.6,0,0.6","",""
"","html-keyboard-response","113","57372","0.0-168.0","3SPJ033422PFDSEISVPXZPYRA04JY0","ABX5OQLR6UNBC","3S829FDFT2NBOHQMM1CIOU0HZYXDXL","","null","<img src=""img/land2.png"" style=""width:200px;border:14px solid red;"">","null","","","","","","","",""
"","image-keyboard-response","114","57685","0.0-170.0","3SPJ033422PFDSEISVPXZPYRA04JY0","ABX5OQLR6UNBC","3S829FDFT2NBOHQMM1CIOU0HZYXDXL","","310.8999999985099","img/land7.png","76","312.20000000298023","3","0","false","1","0.6,0.6,0,0,0.6,0.6,0.6,0,0.6","",""
"","html-keyboard-response","115","57987","0.0-171.0","3SPJ033422PFDSEISVPXZPYRA04JY0","ABX5OQLR6UNBC","3S829FDFT2NBOHQMM1CIOU0HZYXDXL","","null","<img src=""img/land7.png"" style=""width:200px;border:14px solid red;"">","null","","","","","","","",""
"","image-keyboard-response","116","58478","0.0-173.0","3SPJ033422PFDSEISVPXZPYRA04JY0","ABX5OQLR6UNBC","3S829FDFT2NBOHQMM1CIOU0HZYXDXL","","489.40000000596046","img/land8.png","74","490.80000000447035","1","0","false","2","0.6,0.6,0,0,0.6,0.6,0.6,0,0.6","",""
"","html-keyboard-response","117","58781","0.0-174.0","3SPJ033422PFDSEISVPXZPYRA04JY0","ABX5OQLR6UNBC","3S829FDFT2NBOHQMM1CIOU0HZYXDXL","","null","<img src=""img/land8.png"" style=""width:200px;border:14px solid red;"">","null","","","","","","","",""
"","image-keyboard-response","118","58878","0.0-176.0","3SPJ033422PFDSEISVPXZPYRA04JY0","ABX5OQLR6UNBC","3S829FDFT2NBOHQMM1CIOU0HZYXDXL","","95.20000000298023","img/land8.png","75","96.69999999552965","2","0","false","2","0.6,0.6,0,0,0.6,0.6,0.6,0,0.6","",""
"","html-keyboard-response","119","59195","0.0-177.0","3SPJ033422PFDSEISVPXZPYRA04JY0","ABX5OQLR6UNBC","3S829FDFT2NBOHQMM1CIOU0HZYXDXL","","null","<img src=""img/land8.png"" style=""width:200px;border:14px solid red;"">","null","","","","","","","",""
"","image-keyboard-response","120","59278","0.0-179.0","3SPJ033422PFDSEISVPXZPYRA04JY0","ABX5OQLR6UNBC","3S829FDFT2NBOHQMM1CIOU0HZYXDXL","","80.90000000596046","img/land2.png","76","82.30000000447035","3","1","false","3","0.6,0.6,0,0,0.6,0.6,0.6,0,0.6","",""
"","html-keyboard-response","121","59581","0.0-180.0","3SPJ033422PFDSEISVPXZPYRA04JY0","ABX5OQLR6UNBC","3S829FDFT2NBOHQMM1CIOU0HZYXDXL","","null","<img src=""img/land2.png"" style=""width:200px; border:14px solid green;"">","null","","","","","","","",""
"","image-keyboard-response","122","59630","0.0-182.0","3SPJ033422PFDSEISVPXZPYRA04JY0","ABX5OQLR6UNBC","3S829FDFT2NBOHQMM1CIOU0HZYXDXL","","47.399999998509884","img/land8.png","75","50.29999999701977","2","1","false","2","0.6,0.6,0,0,0.6,0.6,0.6,0,0.6","",""
"","html-keyboard-response","123","59934","0.0-183.0","3SPJ033422PFDSEISVPXZPYRA04JY0","ABX5OQLR6UNBC","3S829FDFT2NBOHQMM1CIOU0HZYXDXL","","null","<img src=""img/land8.png"" style=""width:200px; border:14px solid green;"">","null","","","","","","","",""
"","image-keyboard-response","124","60078","0.0-185.0","3SPJ033422PFDSEISVPXZPYRA04JY0","ABX5OQLR6UNBC","3S829FDFT2NBOHQMM1CIOU0HZYXDXL","","141.80000000447035","img/land7.png","74","143.5","1","1","false","1","0.6,0.6,0,0,0.6,0.6,0.6,0,0.6","",""
"","html-keyboard-response","125","60381","0.0-186.0","3SPJ033422PFDSEISVPXZPYRA04JY0","ABX5OQLR6UNBC","3S829FDFT2NBOHQMM1CIOU0HZYXDXL","","null","<img src=""img/land7.png"" style=""width:200px; border:14px solid green;"">","null","","","","","","","",""
"","image-keyboard-response","126","60438","0.0-188.0","3SPJ033422PFDSEISVPXZPYRA04JY0","ABX5OQLR6UNBC","3S829FDFT2NBOHQMM1CIOU0HZYXDXL","","54.900000005960464","img/land2.png","75","56.400000005960464","2","0","false","3","0.6,0.6,0,0,0.6,0.6,0.6,0,0.6","",""
"","html-keyboard-response","127","60741","0.0-189.0","3SPJ033422PFDSEISVPXZPYRA04JY0","ABX5OQLR6UNBC","3S829FDFT2NBOHQMM1CIOU0HZYXDXL","","null","<img src=""img/land2.png"" style=""width:200px;border:14px solid red;"">","null","","","","","","","",""
"","image-keyboard-response","128","60966","0.0-191.0","3SPJ033422PFDSEISVPXZPYRA04JY0","ABX5OQLR6UNBC","3S829FDFT2NBOHQMM1CIOU0HZYXDXL","","224.40000000596046","img/land2.png","76","225.30000000447035","3","0","false","3","0.6,0.6,0,0,0.6,0.6,0.6,0,0.6","",""
"","html-keyboard-response","129","61269","0.0-192.0","3SPJ033422PFDSEISVPXZPYRA04JY0","ABX5OQLR6UNBC","3S829FDFT2NBOHQMM1CIOU0HZYXDXL","","null","<img src=""img/land2.png"" style=""width:200px;border:14px solid red;"">","null","","","","","","","",""
"","image-keyboard-response","130","61310","0.0-194.0","3SPJ033422PFDSEISVPXZPYRA04JY0","ABX5OQLR6UNBC","3S829FDFT2NBOHQMM1CIOU0HZYXDXL","","39.100000001490116","img/land7.png","75","40.600000001490116","2","1","false","1","0.6,0.6,0,0,0.6,0.6,0.6,0,0.6","",""
"","html-keyboard-response","131","61612","0.0-195.0","3SPJ033422PFDSEISVPXZPYRA04JY0","ABX5OQLR6UNBC","3S829FDFT2NBOHQMM1CIOU0HZYXDXL","","null","<img src=""img/land7.png"" style=""width:200px; border:14px solid green;"">","null","","","","","","","",""
"","image-keyboard-response","132","61783","0.0-197.0","3SPJ033422PFDSEISVPXZPYRA04JY0","ABX5OQLR6UNBC","3S829FDFT2NBOHQMM1CIOU0HZYXDXL","","168.29999999701977","img/land8.png","74","169.89999999850988","1","0","false","2","0.6,0.6,0,0,0.6,0.6,0.6,0,0.6","",""
"","html-keyboard-response","133","62085","0.0-198.0","3SPJ033422PFDSEISVPXZPYRA04JY0","ABX5OQLR6UNBC","3S829FDFT2NBOHQMM1CIOU0HZYXDXL","","null","<img src=""img/land8.png"" style=""width:200px;border:14px solid red;"">","null","","","","","","","",""
"","image-keyboard-response","134","62166","0.0-200.0","3SPJ033422PFDSEISVPXZPYRA04JY0","ABX5OQLR6UNBC","3S829FDFT2NBOHQMM1CIOU0HZYXDXL","","79.40000000596046","img/land7.png","75","80.80000000447035","2","0","false","1","0.6,0.6,0,0,0.6,0.6,0.6,0,0.6","",""
"","html-keyboard-response","135","62469","0.0-201.0","3SPJ033422PFDSEISVPXZPYRA04JY0","ABX5OQLR6UNBC","3S829FDFT2NBOHQMM1CIOU0HZYXDXL","","null","<img src=""img/land7.png"" style=""width:200px;border:14px solid red;"">","null","","","","","","","",""
"","image-keyboard-response","136","62622","0.0-203.0","3SPJ033422PFDSEISVPXZPYRA04JY0","ABX5OQLR6UNBC","3S829FDFT2NBOHQMM1CIOU0HZYXDXL","","150.90000000596046","img/land8.png","76","152.30000000447035","3","0","false","2","0.6,0.6,0,0,0.6,0.6,0.6,0,0.6","",""
"","html-keyboard-response","137","62925","0.0-204.0","3SPJ033422PFDSEISVPXZPYRA04JY0","ABX5OQLR6UNBC","3S829FDFT2NBOHQMM1CIOU0HZYXDXL","","null","<img src=""img/land8.png"" style=""width:200px;border:14px solid red;"">","null","","","","","","","",""
"","image-keyboard-response","138","63094","0.0-206.0","3SPJ033422PFDSEISVPXZPYRA04JY0","ABX5OQLR6UNBC","3S829FDFT2NBOHQMM1CIOU0HZYXDXL","","166.90000000596046","img/land7.png","75","168.30000000447035","2","1","false","1","0.6,0.6,0,0,0.6,0.6,0.6,0,0.6","",""
"","html-keyboard-response","139","63396","0.0-207.0","3SPJ033422PFDSEISVPXZPYRA04JY0","ABX5OQLR6UNBC","3S829FDFT2NBOHQMM1CIOU0HZYXDXL","","null","<img src=""img/land7.png"" style=""width:200px; border:14px solid green;"">","null","","","","","","","",""
"","image-keyboard-response","140","63542","0.0-209.0","3SPJ033422PFDSEISVPXZPYRA04JY0","ABX5OQLR6UNBC","3S829FDFT2NBOHQMM1CIOU0HZYXDXL","","143.80000000447035","img/land7.png","74","145.39999999850988","1","1","false","1","0.6,0.6,0,0,0.6,0.6,0.6,0,0.6","",""
"","html-keyboard-response","141","63845","0.0-210.0","3SPJ033422PFDSEISVPXZPYRA04JY0","ABX5OQLR6UNBC","3S829FDFT2NBOHQMM1CIOU0HZYXDXL","","null","<img src=""img/land7.png"" style=""width:200px; border:14px solid green;"">","null","","","","","","","",""
"","image-keyboard-response","142","63990","0.0-212.0","3SPJ033422PFDSEISVPXZPYRA04JY0","ABX5OQLR6UNBC","3S829FDFT2NBOHQMM1CIOU0HZYXDXL","","143.20000000298023","img/land7.png","76","144.70000000298023","3","0","false","1","0.6,0.6,0,0,0.6,0.6,0.6,0,0.6","",""
"","html-keyboard-response","143","64293","0.0-213.0","3SPJ033422PFDSEISVPXZPYRA04JY0","ABX5OQLR6UNBC","3S829FDFT2NBOHQMM1CIOU0HZYXDXL","","null","<img src=""img/land7.png"" style=""width:200px;border:14px solid red;"">","null","","","","","","","",""
"","image-keyboard-response","144","64334","0.0-215.0","3SPJ033422PFDSEISVPXZPYRA04JY0","ABX5OQLR6UNBC","3S829FDFT2NBOHQMM1CIOU0HZYXDXL","","39.600000001490116","img/land7.png","75","40.70000000298023","2","1","false","1","0.6,0.6,0,0,0.6,0.6,0.6,0,0.6","",""
"","html-keyboard-response","145","64636","0.0-216.0","3SPJ033422PFDSEISVPXZPYRA04JY0","ABX5OQLR6UNBC","3S829FDFT2NBOHQMM1CIOU0HZYXDXL","","null","<img src=""img/land7.png"" style=""width:200px; border:14px solid green;"">","null","","","","","","","",""
"","image-keyboard-response","146","64757","0.0-218.0","3SPJ033422PFDSEISVPXZPYRA04JY0","ABX5OQLR6UNBC","3S829FDFT2NBOHQMM1CIOU0HZYXDXL","","119","img/land7.png","74","120.30000000447035","1","0","false","1","0.6,0.6,0,0,0.6,0.6,0.6,0,0.6","",""
"","html-keyboard-response","147","65059","0.0-219.0","3SPJ033422PFDSEISVPXZPYRA04JY0","ABX5OQLR6UNBC","3S829FDFT2NBOHQMM1CIOU0HZYXDXL","","null","<img src=""img/land7.png"" style=""width:200px;border:14px solid red;"">","null","","","","","","","",""
"","image-keyboard-response","148","65158","0.0-221.0","3SPJ033422PFDSEISVPXZPYRA04JY0","ABX5OQLR6UNBC","3S829FDFT2NBOHQMM1CIOU0HZYXDXL","","98.80000000447035","img/land7.png","75","99.5","2","1","false","1","0.6,0.6,0,0,0.6,0.6,0.6,0,0.6","",""
"","html-keyboard-response","149","65461","0.0-222.0","3SPJ033422PFDSEISVPXZPYRA04JY0","ABX5OQLR6UNBC","3S829FDFT2NBOHQMM1CIOU0HZYXDXL","","null","<img src=""img/land7.png"" style=""width:200px; border:14px solid green;"">","null","","","","","","","",""
"","image-keyboard-response","150","65566","0.0-224.0","3SPJ033422PFDSEISVPXZPYRA04JY0","ABX5OQLR6UNBC","3S829FDFT2NBOHQMM1CIOU0HZYXDXL","","102.80000000447035","img/land8.png","76","104.39999999850988","3","1","false","2","0.6,0.6,0,0,0.6,0.6,0.6,0,0.6","",""
"","html-keyboard-response","151","65869","0.0-225.0","3SPJ033422PFDSEISVPXZPYRA04JY0","ABX5OQLR6UNBC","3S829FDFT2NBOHQMM1CIOU0HZYXDXL","","null","<img src=""img/land8.png"" style=""width:200px; border:14px solid green;"">","null","","","","","","","",""
"","image-keyboard-response","152","66006","0.0-227.0","3SPJ033422PFDSEISVPXZPYRA04JY0","ABX5OQLR6UNBC","3S829FDFT2NBOHQMM1CIOU0HZYXDXL","","135.5","img/land2.png","75","137.19999999552965","2","0","false","3","0.6,0.6,0,0,0.6,0.6,0.6,0,0.6","",""
"","html-keyboard-response","153","66309","0.0-228.0","3SPJ033422PFDSEISVPXZPYRA04JY0","ABX5OQLR6UNBC","3S829FDFT2NBOHQMM1CIOU0HZYXDXL","","null","<img src=""img/land2.png"" style=""width:200px;border:14px solid red;"">","null","","","","","","","",""
"","image-keyboard-response","154","66462","0.0-230.0","3SPJ033422PFDSEISVPXZPYRA04JY0","ABX5OQLR6UNBC","3S829FDFT2NBOHQMM1CIOU0HZYXDXL","","151.79999999701977","img/land2.png","75","153.39999999850988","2","0","false","3","0.6,0.6,0,0,0.6,0.6,0.6,0,0.6","",""
"","html-keyboard-response","155","66765","0.0-231.0","3SPJ033422PFDSEISVPXZPYRA04JY0","ABX5OQLR6UNBC","3S829FDFT2NBOHQMM1CIOU0HZYXDXL","","null","<img src=""img/land2.png"" style=""width:200px;border:14px solid red;"">","null","","","","","","","",""
"","image-keyboard-response","156","66958","0.0-233.0","3SPJ033422PFDSEISVPXZPYRA04JY0","ABX5OQLR6UNBC","3S829FDFT2NBOHQMM1CIOU0HZYXDXL","","192.20000000298023","img/land2.png","75","193.39999999850988","2","0","false","3","0.6,0.6,0,0,0.6,0.6,0.6,0,0.6","",""
"","html-keyboard-response","157","67261","0.0-234.0","3SPJ033422PFDSEISVPXZPYRA04JY0","ABX5OQLR6UNBC","3S829FDFT2NBOHQMM1CIOU0HZYXDXL","","null","<img src=""img/land2.png"" style=""width:200px;border:14px solid red;"">","null","","","","","","","",""
"","image-keyboard-response","158","67357","0.0-236.0","3SPJ033422PFDSEISVPXZPYRA04JY0","ABX5OQLR6UNBC","3S829FDFT2NBOHQMM1CIOU0HZYXDXL","","93.90000000596046","img/land8.png","74","95.30000000447035","1","0","false","2","0.6,0.6,0,0,0.6,0.6,0.6,0,0.6","",""
"","html-keyboard-response","159","67658","0.0-237.0","3SPJ033422PFDSEISVPXZPYRA04JY0","ABX5OQLR6UNBC","3S829FDFT2NBOHQMM1CIOU0HZYXDXL","","null","<img src=""img/land8.png"" style=""width:200px;border:14px solid red;"">","null","","","","","","","",""
"","image-keyboard-response","160","67830","0.0-239.0","3SPJ033422PFDSEISVPXZPYRA04JY0","ABX5OQLR6UNBC","3S829FDFT2NBOHQMM1CIOU0HZYXDXL","","169.90000000596046","img/land8.png","74","171.5","1","0","false","2","0.6,0.6,0,0,0.6,0.6,0.6,0,0.6","",""
"","html-keyboard-response","161","68133","0.0-240.0","3SPJ033422PFDSEISVPXZPYRA04JY0","ABX5OQLR6UNBC","3S829FDFT2NBOHQMM1CIOU0HZYXDXL","","null","<img src=""img/land8.png"" style=""width:200px;border:14px solid red;"">","null","","","","","","","",""
"","image-keyboard-response","162","68206","0.0-242.0","3SPJ033422PFDSEISVPXZPYRA04JY0","ABX5OQLR6UNBC","3S829FDFT2NBOHQMM1CIOU0HZYXDXL","","71.60000000149012","img/land8.png","75","72.30000000447035","2","0","false","2","0.6,0.6,0,0,0.6,0.6,0.6,0,0.6","",""
"","html-keyboard-response","163","68519","0.0-243.0","3SPJ033422PFDSEISVPXZPYRA04JY0","ABX5OQLR6UNBC","3S829FDFT2NBOHQMM1CIOU0HZYXDXL","","null","<img src=""img/land8.png"" style=""width:200px;border:14px solid red;"">","null","","","","","","","",""
"","image-keyboard-response","164","68646","0.0-245.0","3SPJ033422PFDSEISVPXZPYRA04JY0","ABX5OQLR6UNBC","3S829FDFT2NBOHQMM1CIOU0HZYXDXL","","125.60000000149012","img/land8.png","75","127.10000000149012","2","0","false","2","0.6,0.6,0,0,0.6,0.6,0.6,0,0.6","",""
"","html-keyboard-response","165","68949","0.0-246.0","3SPJ033422PFDSEISVPXZPYRA04JY0","ABX5OQLR6UNBC","3S829FDFT2NBOHQMM1CIOU0HZYXDXL","","null","<img src=""img/land8.png"" style=""width:200px;border:14px solid red;"">","null","","","","","","","",""
"","image-keyboard-response","166","68998","0.0-248.0","3SPJ033422PFDSEISVPXZPYRA04JY0","ABX5OQLR6UNBC","3S829FDFT2NBOHQMM1CIOU0HZYXDXL","","46.80000000447035","img/land8.png","76","48.400000005960464","3","0","false","2","0.6,0.6,0,0,0.6,0.6,0.6,0,0.6","",""
"","html-keyboard-response","167","69301","0.0-249.0","3SPJ033422PFDSEISVPXZPYRA04JY0","ABX5OQLR6UNBC","3S829FDFT2NBOHQMM1CIOU0HZYXDXL","","null","<img src=""img/land8.png"" style=""width:200px;border:14px solid red;"">","null","","","","","","","",""
"","image-keyboard-response","168","69414","0.0-251.0","3SPJ033422PFDSEISVPXZPYRA04JY0","ABX5OQLR6UNBC","3S829FDFT2NBOHQMM1CIOU0HZYXDXL","","111.20000000298023","img/land2.png","76","112.70000000298023","3","1","false","3","0.6,0.6,0,0,0.6,0.6,0.6,0,0.6","",""
"","html-keyboard-response","169","69717","0.0-252.0","3SPJ033422PFDSEISVPXZPYRA04JY0","ABX5OQLR6UNBC","3S829FDFT2NBOHQMM1CIOU0HZYXDXL","","null","<img src=""img/land2.png"" style=""width:200px; border:14px solid green;"">","null","","","","","","","",""
"","image-keyboard-response","170","69806","0.0-254.0","3SPJ033422PFDSEISVPXZPYRA04JY0","ABX5OQLR6UNBC","3S829FDFT2NBOHQMM1CIOU0HZYXDXL","","88.70000000298023","img/land7.png","75","89.59999999403954","2","1","false","1","0.6,0.6,0,0,0.6,0.6,0.6,0,0.6","",""
"","html-keyboard-response","171","70109","0.0-255.0","3SPJ033422PFDSEISVPXZPYRA04JY0","ABX5OQLR6UNBC","3S829FDFT2NBOHQMM1CIOU0HZYXDXL","","null","<img src=""img/land7.png"" style=""width:200px; border:14px solid green;"">","null","","","","","","","",""
"","image-keyboard-response","172","70222","0.0-257.0","3SPJ033422PFDSEISVPXZPYRA04JY0","ABX5OQLR6UNBC","3S829FDFT2NBOHQMM1CIOU0HZYXDXL","","111.39999999850988","img/land2.png","74","112.89999999850988","1","1","false","3","0.6,0.6,0,0,0.6,0.6,0.6,0,0.6","",""
"","html-keyboard-response","173","70525","0.0-258.0","3SPJ033422PFDSEISVPXZPYRA04JY0","ABX5OQLR6UNBC","3S829FDFT2NBOHQMM1CIOU0HZYXDXL","","null","<img src=""img/land2.png"" style=""width:200px; border:14px solid green;"">","null","","","","","","","",""
"","image-keyboard-response","174","70606","0.0-260.0","3SPJ033422PFDSEISVPXZPYRA04JY0","ABX5OQLR6UNBC","3S829FDFT2NBOHQMM1CIOU0HZYXDXL","","78.70000000298023","img/land2.png","75","80.19999999552965","2","0","false","3","0.6,0.6,0,0,0.6,0.6,0.6,0,0.6","",""
"","html-keyboard-response","175","70909","0.0-261.0","3SPJ033422PFDSEISVPXZPYRA04JY0","ABX5OQLR6UNBC","3S829FDFT2NBOHQMM1CIOU0HZYXDXL","","null","<img src=""img/land2.png"" style=""width:200px;border:14px solid red;"">","null","","","","","","","",""
"","image-keyboard-response","176","71045","0.0-263.0","3SPJ033422PFDSEISVPXZPYRA04JY0","ABX5OQLR6UNBC","3S829FDFT2NBOHQMM1CIOU0HZYXDXL","","134.10000000149012","img/land7.png","75","135.30000000447035","2","0","false","1","0.6,0.6,0,0,0.6,0.6,0.6,0,0.6","",""
"","html-keyboard-response","177","71347","0.0-264.0","3SPJ033422PFDSEISVPXZPYRA04JY0","ABX5OQLR6UNBC","3S829FDFT2NBOHQMM1CIOU0HZYXDXL","","null","<img src=""img/land7.png"" style=""width:200px;border:14px solid red;"">","null","","","","","","","",""
"","image-keyboard-response","178","71406","0.0-266.0","3SPJ033422PFDSEISVPXZPYRA04JY0","ABX5OQLR6UNBC","3S829FDFT2NBOHQMM1CIOU0HZYXDXL","","57.5","img/land2.png","74","59","1","0","false","3","0.6,0.6,0,0,0.6,0.6,0.6,0,0.6","",""
"","html-keyboard-response","179","71709","0.0-267.0","3SPJ033422PFDSEISVPXZPYRA04JY0","ABX5OQLR6UNBC","3S829FDFT2NBOHQMM1CIOU0HZYXDXL","","null","<img src=""img/land2.png"" style=""width:200px;border:14px solid red;"">","null","","","","","","","",""
"","image-keyboard-response","180","72006","0.0-269.0","3SPJ033422PFDSEISVPXZPYRA04JY0","ABX5OQLR6UNBC","3S829FDFT2NBOHQMM1CIOU0HZYXDXL","","296.70000000298023","img/land7.png","75","297.59999999403954","2","0","false","1","0.6,0.6,0,0,0.6,0.6,0.6,0,0.6","",""
"","html-keyboard-response","181","72309","0.0-270.0","3SPJ033422PFDSEISVPXZPYRA04JY0","ABX5OQLR6UNBC","3S829FDFT2NBOHQMM1CIOU0HZYXDXL","","null","<img src=""img/land7.png"" style=""width:200px;border:14px solid red;"">","null","","","","","","","",""
"","html-keyboard-response","182","75237","0.0-272.0","3SPJ033422PFDSEISVPXZPYRA04JY0","ABX5OQLR6UNBC","3S829FDFT2NBOHQMM1CIOU0HZYXDXL","","","","","","","","","","","",""
"","image-keyboard-response","183","76241","0.0-273.0","3SPJ033422PFDSEISVPXZPYRA04JY0","ABX5OQLR6UNBC","3S829FDFT2NBOHQMM1CIOU0HZYXDXL","","","img/land1.png","","1003.3999999985099","-1","0","true","1","0.8,0.8,0.2,0.2,0.8,0.8,0.8,0.2,0.8","",""
"","html-keyboard-response","184","76543","0.0-274.0","3SPJ033422PFDSEISVPXZPYRA04JY0","ABX5OQLR6UNBC","3S829FDFT2NBOHQMM1CIOU0HZYXDXL","","null","<img src=""img/land1.png"" style=""width:200px;border:14px solid red;"">","null","","","","","","","",""
"","html-keyboard-response","185","80837","0.0-275.0-0.0","3SPJ033422PFDSEISVPXZPYRA04JY0","ABX5OQLR6UNBC","3S829FDFT2NBOHQMM1CIOU0HZYXDXL","","","","","","","","","","","",""
"","image-keyboard-response","186","81190","0.0-276.0","3SPJ033422PFDSEISVPXZPYRA04JY0","ABX5OQLR6UNBC","3S829FDFT2NBOHQMM1CIOU0HZYXDXL","","351.80000000447035","img/land3.png","74","352.8999999985099","1","0","false","3","0.8,0.8,0.2,0.2,0.8,0.8,0.8,0.2,0.8","",""
"","html-keyboard-response","187","81494","0.0-277.0","3SPJ033422PFDSEISVPXZPYRA04JY0","ABX5OQLR6UNBC","3S829FDFT2NBOHQMM1CIOU0HZYXDXL","","null","<img src=""img/land3.png"" style=""width:200px;border:14px solid red;"">","null","","","","","","","",""
"","image-keyboard-response","188","81622","0.0-279.0","3SPJ033422PFDSEISVPXZPYRA04JY0","ABX5OQLR6UNBC","3S829FDFT2NBOHQMM1CIOU0HZYXDXL","","126.39999999850988","img/land1.png","74","128","1","1","false","1","0.8,0.8,0.2,0.2,0.8,0.8,0.8,0.2,0.8","",""
"","html-keyboard-response","189","81925","0.0-280.0","3SPJ033422PFDSEISVPXZPYRA04JY0","ABX5OQLR6UNBC","3S829FDFT2NBOHQMM1CIOU0HZYXDXL","","null","<img src=""img/land1.png"" style=""width:200px; border:14px solid green;"">","null","","","","","","","",""
"","image-keyboard-response","190","81997","0.0-282.0","3SPJ033422PFDSEISVPXZPYRA04JY0","ABX5OQLR6UNBC","3S829FDFT2NBOHQMM1CIOU0HZYXDXL","","70","img/land9.png","74","71.19999999552965","1","0","false","2","0.8,0.8,0.2,0.2,0.8,0.8,0.8,0.2,0.8","",""
"","html-keyboard-response","191","82299","0.0-283.0","3SPJ033422PFDSEISVPXZPYRA04JY0","ABX5OQLR6UNBC","3S829FDFT2NBOHQMM1CIOU0HZYXDXL","","null","<img src=""img/land9.png"" style=""width:200px;border:14px solid red;"">","null","","","","","","","",""
"","image-keyboard-response","192","82374","0.0-285.0","3SPJ033422PFDSEISVPXZPYRA04JY0","ABX5OQLR6UNBC","3S829FDFT2NBOHQMM1CIOU0HZYXDXL","","72.5","img/land9.png","75","74.29999999701977","2","0","false","2","0.8,0.8,0.2,0.2,0.8,0.8,0.8,0.2,0.8","",""
"","html-keyboard-response","193","82690","0.0-286.0","3SPJ033422PFDSEISVPXZPYRA04JY0","ABX5OQLR6UNBC","3S829FDFT2NBOHQMM1CIOU0HZYXDXL","","null","<img src=""img/land9.png"" style=""width:200px;border:14px solid red;"">","null","","","","","","","",""
"","image-keyboard-response","194","82782","0.0-288.0","3SPJ033422PFDSEISVPXZPYRA04JY0","ABX5OQLR6UNBC","3S829FDFT2NBOHQMM1CIOU0HZYXDXL","","91.39999999850988","img/land3.png","75","92.39999999850988","2","0","false","3","0.8,0.8,0.2,0.2,0.8,0.8,0.8,0.2,0.8","",""
"","html-keyboard-response","195","83085","0.0-289.0","3SPJ033422PFDSEISVPXZPYRA04JY0","ABX5OQLR6UNBC","3S829FDFT2NBOHQMM1CIOU0HZYXDXL","","null","<img src=""img/land3.png"" style=""width:200px;border:14px solid red;"">","null","","","","","","","",""
"","image-keyboard-response","196","83294","0.0-291.0","3SPJ033422PFDSEISVPXZPYRA04JY0","ABX5OQLR6UNBC","3S829FDFT2NBOHQMM1CIOU0HZYXDXL","","206.60000000149012","img/land1.png","76","208.09999999403954","3","0","false","1","0.8,0.8,0.2,0.2,0.8,0.8,0.8,0.2,0.8","",""
"","html-keyboard-response","197","83597","0.0-292.0","3SPJ033422PFDSEISVPXZPYRA04JY0","ABX5OQLR6UNBC","3S829FDFT2NBOHQMM1CIOU0HZYXDXL","","null","<img src=""img/land1.png"" style=""width:200px;border:14px solid red;"">","null","","","","","","","",""
"","image-keyboard-response","198","83646","0.0-294.0","3SPJ033422PFDSEISVPXZPYRA04JY0","ABX5OQLR6UNBC","3S829FDFT2NBOHQMM1CIOU0HZYXDXL","","48","img/land1.png","75","49","2","1","false","1","0.8,0.8,0.2,0.2,0.8,0.8,0.8,0.2,0.8","",""
"","html-keyboard-response","199","83949","0.0-295.0","3SPJ033422PFDSEISVPXZPYRA04JY0","ABX5OQLR6UNBC","3S829FDFT2NBOHQMM1CIOU0HZYXDXL","","null","<img src=""img/land1.png"" style=""width:200px; border:14px solid green;"">","null","","","","","","","",""
"","image-keyboard-response","200","84094","0.0-297.0","3SPJ033422PFDSEISVPXZPYRA04JY0","ABX5OQLR6UNBC","3S829FDFT2NBOHQMM1CIOU0HZYXDXL","","143.09999999403954","img/land9.png","74","144.69999999552965","1","0","false","2","0.8,0.8,0.2,0.2,0.8,0.8,0.8,0.2,0.8","",""
"","html-keyboard-response","201","84397","0.0-298.0","3SPJ033422PFDSEISVPXZPYRA04JY0","ABX5OQLR6UNBC","3S829FDFT2NBOHQMM1CIOU0HZYXDXL","","null","<img src=""img/land9.png"" style=""width:200px;border:14px solid red;"">","null","","","","","","","",""
"","image-keyboard-response","202","84510","0.0-300.0","3SPJ033422PFDSEISVPXZPYRA04JY0","ABX5OQLR6UNBC","3S829FDFT2NBOHQMM1CIOU0HZYXDXL","","110.5","img/land3.png","75","112.09999999403954","2","0","false","3","0.8,0.8,0.2,0.2,0.8,0.8,0.8,0.2,0.8","",""
"","html-keyboard-response","203","84813","0.0-301.0","3SPJ033422PFDSEISVPXZPYRA04JY0","ABX5OQLR6UNBC","3S829FDFT2NBOHQMM1CIOU0HZYXDXL","","null","<img src=""img/land3.png"" style=""width:200px;border:14px solid red;"">","null","","","","","","","",""
"","image-keyboard-response","204","84894","0.0-303.0","3SPJ033422PFDSEISVPXZPYRA04JY0","ABX5OQLR6UNBC","3S829FDFT2NBOHQMM1CIOU0HZYXDXL","","79","img/land1.png","76","80.5","3","0","false","1","0.8,0.8,0.2,0.2,0.8,0.8,0.8,0.2,0.8","",""
"","html-keyboard-response","205","85197","0.0-304.0","3SPJ033422PFDSEISVPXZPYRA04JY0","ABX5OQLR6UNBC","3S829FDFT2NBOHQMM1CIOU0HZYXDXL","","null","<img src=""img/land1.png"" style=""width:200px;border:14px solid red;"">","null","","","","","","","",""
"","image-keyboard-response","206","85245","0.0-306.0","3SPJ033422PFDSEISVPXZPYRA04JY0","ABX5OQLR6UNBC","3S829FDFT2NBOHQMM1CIOU0HZYXDXL","","45.899999998509884","img/land9.png","75","47.100000001490116","2","0","false","2","0.8,0.8,0.2,0.2,0.8,0.8,0.8,0.2,0.8","",""
"","html-keyboard-response","207","85547","0.0-307.0","3SPJ033422PFDSEISVPXZPYRA04JY0","ABX5OQLR6UNBC","3S829FDFT2NBOHQMM1CIOU0HZYXDXL","","null","<img src=""img/land9.png"" style=""width:200px;border:14px solid red;"">","null","","","","","","","",""
"","image-keyboard-response","208","85662","0.0-309.0","3SPJ033422PFDSEISVPXZPYRA04JY0","ABX5OQLR6UNBC","3S829FDFT2NBOHQMM1CIOU0HZYXDXL","","112.89999999850988","img/land1.png","74","114.5","1","1","false","1","0.8,0.8,0.2,0.2,0.8,0.8,0.8,0.2,0.8","",""
"","html-keyboard-response","209","85964","0.0-310.0","3SPJ033422PFDSEISVPXZPYRA04JY0","ABX5OQLR6UNBC","3S829FDFT2NBOHQMM1CIOU0HZYXDXL","","null","<img src=""img/land1.png"" style=""width:200px; border:14px solid green;"">","null","","","","","","","",""
"","image-keyboard-response","210","85966","0.0-312.0","3SPJ033422PFDSEISVPXZPYRA04JY0","ABX5OQLR6UNBC","3S829FDFT2NBOHQMM1CIOU0HZYXDXL","","0.10000000149011612","img/land1.png","75","1.6000000014901161","2","1","false","1","0.8,0.8,0.2,0.2,0.8,0.8,0.8,0.2,0.8","",""
"","html-keyboard-response","211","86269","0.0-313.0","3SPJ033422PFDSEISVPXZPYRA04JY0","ABX5OQLR6UNBC","3S829FDFT2NBOHQMM1CIOU0HZYXDXL","","null","<img src=""img/land1.png"" style=""width:200px; border:14px solid green;"">","null","","","","","","","",""
"","image-keyboard-response","212","86405","0.0-315.0","3SPJ033422PFDSEISVPXZPYRA04JY0","ABX5OQLR6UNBC","3S829FDFT2NBOHQMM1CIOU0HZYXDXL","","134.5","img/land9.png","75","135.70000000298023","2","1","false","2","0.8,0.8,0.2,0.2,0.8,0.8,0.8,0.2,0.8","",""
"","html-keyboard-response","213","86707","0.0-316.0","3SPJ033422PFDSEISVPXZPYRA04JY0","ABX5OQLR6UNBC","3S829FDFT2NBOHQMM1CIOU0HZYXDXL","","null","<img src=""img/land9.png"" style=""width:200px; border:14px solid green;"">","null","","","","","","","",""
"","image-keyboard-response","214","86757","0.0-318.0","3SPJ033422PFDSEISVPXZPYRA04JY0","ABX5OQLR6UNBC","3S829FDFT2NBOHQMM1CIOU0HZYXDXL","","49.600000001490116","img/land1.png","76","50.100000001490116","3","0","false","1","0.8,0.8,0.2,0.2,0.8,0.8,0.8,0.2,0.8","",""
"","html-keyboard-response","215","87059","0.0-319.0","3SPJ033422PFDSEISVPXZPYRA04JY0","ABX5OQLR6UNBC","3S829FDFT2NBOHQMM1CIOU0HZYXDXL","","null","<img src=""img/land1.png"" style=""width:200px;border:14px solid red;"">","null","","","","","","","",""
"","image-keyboard-response","216","87094","0.0-321.0","3SPJ033422PFDSEISVPXZPYRA04JY0","ABX5OQLR6UNBC","3S829FDFT2NBOHQMM1CIOU0HZYXDXL","","33","img/land1.png","75","34.599999994039536","2","1","false","1","0.8,0.8,0.2,0.2,0.8,0.8,0.8,0.2,0.8","",""
"","html-keyboard-response","217","87397","0.0-322.0","3SPJ033422PFDSEISVPXZPYRA04JY0","ABX5OQLR6UNBC","3S829FDFT2NBOHQMM1CIOU0HZYXDXL","","null","<img src=""img/land1.png"" style=""width:200px; border:14px solid green;"">","null","","","","","","","",""
"","image-keyboard-response","218","87462","0.0-324.0","3SPJ033422PFDSEISVPXZPYRA04JY0","ABX5OQLR6UNBC","3S829FDFT2NBOHQMM1CIOU0HZYXDXL","","63.100000001490116","img/land9.png","74","64.69999999552965","1","0","false","2","0.8,0.8,0.2,0.2,0.8,0.8,0.8,0.2,0.8","",""
"","html-keyboard-response","219","87765","0.0-325.0","3SPJ033422PFDSEISVPXZPYRA04JY0","ABX5OQLR6UNBC","3S829FDFT2NBOHQMM1CIOU0HZYXDXL","","null","<img src=""img/land9.png"" style=""width:200px;border:14px solid red;"">","null","","","","","","","",""
"","image-keyboard-response","220","87782","0.0-327.0","3SPJ033422PFDSEISVPXZPYRA04JY0","ABX5OQLR6UNBC","3S829FDFT2NBOHQMM1CIOU0HZYXDXL","","15.100000001490116","img/land3.png","75","16.400000005960464","2","0","false","3","0.8,0.8,0.2,0.2,0.8,0.8,0.8,0.2,0.8","",""
"","html-keyboard-response","221","88085","0.0-328.0","3SPJ033422PFDSEISVPXZPYRA04JY0","ABX5OQLR6UNBC","3S829FDFT2NBOHQMM1CIOU0HZYXDXL","","null","<img src=""img/land3.png"" style=""width:200px;border:14px solid red;"">","null","","","","","","","",""
"","image-keyboard-response","222","88143","0.0-330.0","3SPJ033422PFDSEISVPXZPYRA04JY0","ABX5OQLR6UNBC","3S829FDFT2NBOHQMM1CIOU0HZYXDXL","","56.20000000298023","img/land9.png","76","57.19999999552965","3","1","false","2","0.8,0.8,0.2,0.2,0.8,0.8,0.8,0.2,0.8","",""
"","html-keyboard-response","223","88445","0.0-331.0","3SPJ033422PFDSEISVPXZPYRA04JY0","ABX5OQLR6UNBC","3S829FDFT2NBOHQMM1CIOU0HZYXDXL","","null","<img src=""img/land9.png"" style=""width:200px; border:14px solid green;"">","null","","","","","","","",""
"","image-keyboard-response","224","88823","0.0-333.0","3SPJ033422PFDSEISVPXZPYRA04JY0","ABX5OQLR6UNBC","3S829FDFT2NBOHQMM1CIOU0HZYXDXL","","375.8999999985099","img/land3.png","74","377.5","1","1","false","3","0.8,0.8,0.2,0.2,0.8,0.8,0.8,0.2,0.8","",""
"","html-keyboard-response","225","89125","0.0-334.0","3SPJ033422PFDSEISVPXZPYRA04JY0","ABX5OQLR6UNBC","3S829FDFT2NBOHQMM1CIOU0HZYXDXL","","null","<img src=""img/land3.png"" style=""width:200px; border:14px solid green;"">","null","","","","","","","",""
"","image-keyboard-response","226","89126","0.0-336.0","3SPJ033422PFDSEISVPXZPYRA04JY0","ABX5OQLR6UNBC","3S829FDFT2NBOHQMM1CIOU0HZYXDXL","","0.09999999403953552","img/land3.png","75","0.7000000029802322","2","1","false","3","0.8,0.8,0.2,0.2,0.8,0.8,0.8,0.2,0.8","",""
"","html-keyboard-response","227","89427","0.0-337.0","3SPJ033422PFDSEISVPXZPYRA04JY0","ABX5OQLR6UNBC","3S829FDFT2NBOHQMM1CIOU0HZYXDXL","","null","<img src=""img/land3.png"" style=""width:200px; border:14px solid green;"">","null","","","","","","","",""
"","image-keyboard-response","228","89535","0.0-339.0","3SPJ033422PFDSEISVPXZPYRA04JY0","ABX5OQLR6UNBC","3S829FDFT2NBOHQMM1CIOU0HZYXDXL","","106.80000000447035","img/land1.png","76","107.89999999850988","3","0","false","1","0.8,0.8,0.2,0.2,0.8,0.8,0.8,0.2,0.8","",""
"","html-keyboard-response","229","89838","0.0-340.0","3SPJ033422PFDSEISVPXZPYRA04JY0","ABX5OQLR6UNBC","3S829FDFT2NBOHQMM1CIOU0HZYXDXL","","null","<img src=""img/land1.png"" style=""width:200px;border:14px solid red;"">","null","","","","","","","",""
"","image-keyboard-response","230","89943","0.0-342.0","3SPJ033422PFDSEISVPXZPYRA04JY0","ABX5OQLR6UNBC","3S829FDFT2NBOHQMM1CIOU0HZYXDXL","","102.90000000596046","img/land9.png","75","104.60000000149012","2","1","false","2","0.8,0.8,0.2,0.2,0.8,0.8,0.8,0.2,0.8","",""
"","html-keyboard-response","231","90245","0.0-343.0","3SPJ033422PFDSEISVPXZPYRA04JY0","ABX5OQLR6UNBC","3S829FDFT2NBOHQMM1CIOU0HZYXDXL","","null","<img src=""img/land9.png"" style=""width:200px; border:14px solid green;"">","null","","","","","","","",""
"","image-keyboard-response","232","90271","0.0-345.0","3SPJ033422PFDSEISVPXZPYRA04JY0","ABX5OQLR6UNBC","3S829FDFT2NBOHQMM1CIOU0HZYXDXL","","23.100000001490116","img/land3.png","75","24.700000002980232","2","0","false","3","0.8,0.8,0.2,0.2,0.8,0.8,0.8,0.2,0.8","",""
"","html-keyboard-response","233","90573","0.0-346.0","3SPJ033422PFDSEISVPXZPYRA04JY0","ABX5OQLR6UNBC","3S829FDFT2NBOHQMM1CIOU0HZYXDXL","","null","<img src=""img/land3.png"" style=""width:200px;border:14px solid red;"">","null","","","","","","","",""
"","image-keyboard-response","234","90679","0.0-348.0","3SPJ033422PFDSEISVPXZPYRA04JY0","ABX5OQLR6UNBC","3S829FDFT2NBOHQMM1CIOU0HZYXDXL","","103.60000000149012","img/land3.png","74","105.10000000149012","1","1","false","3","0.8,0.8,0.2,0.2,0.8,0.8,0.8,0.2,0.8","",""
"","html-keyboard-response","235","90981","0.0-349.0","3SPJ033422PFDSEISVPXZPYRA04JY0","ABX5OQLR6UNBC","3S829FDFT2NBOHQMM1CIOU0HZYXDXL","","null","<img src=""img/land3.png"" style=""width:200px; border:14px solid green;"">","null","","","","","","","",""
"","image-keyboard-response","236","91047","0.0-351.0","3SPJ033422PFDSEISVPXZPYRA04JY0","ABX5OQLR6UNBC","3S829FDFT2NBOHQMM1CIOU0HZYXDXL","","63.19999999552965","img/land3.png","75","64.69999999552965","2","0","false","3","0.8,0.8,0.2,0.2,0.8,0.8,0.8,0.2,0.8","",""
"","html-keyboard-response","237","91349","0.0-352.0","3SPJ033422PFDSEISVPXZPYRA04JY0","ABX5OQLR6UNBC","3S829FDFT2NBOHQMM1CIOU0HZYXDXL","","null","<img src=""img/land3.png"" style=""width:200px;border:14px solid red;"">","null","","","","","","","",""
"","image-keyboard-response","238","91382","0.0-354.0","3SPJ033422PFDSEISVPXZPYRA04JY0","ABX5OQLR6UNBC","3S829FDFT2NBOHQMM1CIOU0HZYXDXL","","32.19999999552965","img/land1.png","76","32.70000000298023","3","0","false","1","0.8,0.8,0.2,0.2,0.8,0.8,0.8,0.2,0.8","",""
"","html-keyboard-response","239","91683","0.0-355.0","3SPJ033422PFDSEISVPXZPYRA04JY0","ABX5OQLR6UNBC","3S829FDFT2NBOHQMM1CIOU0HZYXDXL","","null","<img src=""img/land1.png"" style=""width:200px;border:14px solid red;"">","null","","","","","","","",""
"","image-keyboard-response","240","91693","0.0-357.0","3SPJ033422PFDSEISVPXZPYRA04JY0","ABX5OQLR6UNBC","3S829FDFT2NBOHQMM1CIOU0HZYXDXL","","9.599999994039536","img/land1.png","75","10.100000001490116","2","0","false","1","0.8,0.8,0.2,0.2,0.8,0.8,0.8,0.2,0.8","",""
"","html-keyboard-response","241","91995","0.0-358.0","3SPJ033422PFDSEISVPXZPYRA04JY0","ABX5OQLR6UNBC","3S829FDFT2NBOHQMM1CIOU0HZYXDXL","","null","<img src=""img/land1.png"" style=""width:200px;border:14px solid red;"">","null","","","","","","","",""
"","image-keyboard-response","242","92039","0.0-360.0","3SPJ033422PFDSEISVPXZPYRA04JY0","ABX5OQLR6UNBC","3S829FDFT2NBOHQMM1CIOU0HZYXDXL","","41.5","img/land3.png","74","43.19999999552965","1","1","false","3","0.8,0.8,0.2,0.2,0.8,0.8,0.8,0.2,0.8","",""
"","html-keyboard-response","243","92341","0.0-361.0","3SPJ033422PFDSEISVPXZPYRA04JY0","ABX5OQLR6UNBC","3S829FDFT2NBOHQMM1CIOU0HZYXDXL","","null","<img src=""img/land3.png"" style=""width:200px; border:14px solid green;"">","null","","","","","","","",""
"","image-keyboard-response","244","92375","0.0-363.0","3SPJ033422PFDSEISVPXZPYRA04JY0","ABX5OQLR6UNBC","3S829FDFT2NBOHQMM1CIOU0HZYXDXL","","31.100000001490116","img/land3.png","75","32.79999999701977","2","1","false","3","0.8,0.8,0.2,0.2,0.8,0.8,0.8,0.2,0.8","",""
"","html-keyboard-response","245","92677","0.0-364.0","3SPJ033422PFDSEISVPXZPYRA04JY0","ABX5OQLR6UNBC","3S829FDFT2NBOHQMM1CIOU0HZYXDXL","","null","<img src=""img/land3.png"" style=""width:200px; border:14px solid green;"">","null","","","","","","","",""
"","image-keyboard-response","246","92687","0.0-366.0","3SPJ033422PFDSEISVPXZPYRA04JY0","ABX5OQLR6UNBC","3S829FDFT2NBOHQMM1CIOU0HZYXDXL","","7.100000001490116","img/land9.png","76","8.600000001490116","3","1","false","2","0.8,0.8,0.2,0.2,0.8,0.8,0.8,0.2,0.8","",""
"","html-keyboard-response","247","92989","0.0-367.0","3SPJ033422PFDSEISVPXZPYRA04JY0","ABX5OQLR6UNBC","3S829FDFT2NBOHQMM1CIOU0HZYXDXL","","null","<img src=""img/land9.png"" style=""width:200px; border:14px solid green;"">","null","","","","","","","",""
"","image-keyboard-response","248","92993","0.0-369.0","3SPJ033422PFDSEISVPXZPYRA04JY0","ABX5OQLR6UNBC","3S829FDFT2NBOHQMM1CIOU0HZYXDXL","","1.7000000029802322","img/land1.png","75","3.399999998509884","2","1","false","1","0.8,0.8,0.2,0.2,0.8,0.8,0.8,0.2,0.8","",""
"","html-keyboard-response","249","93296","0.0-370.0","3SPJ033422PFDSEISVPXZPYRA04JY0","ABX5OQLR6UNBC","3S829FDFT2NBOHQMM1CIOU0HZYXDXL","","null","<img src=""img/land1.png"" style=""width:200px; border:14px solid green;"">","null","","","","","","","",""
"","image-keyboard-response","250","93318","0.0-372.0","3SPJ033422PFDSEISVPXZPYRA04JY0","ABX5OQLR6UNBC","3S829FDFT2NBOHQMM1CIOU0HZYXDXL","","20.600000001490116","img/land1.png","74","22.200000002980232","1","1","false","1","0.8,0.8,0.2,0.2,0.8,0.8,0.8,0.2,0.8","",""
"","html-keyboard-response","251","93621","0.0-373.0","3SPJ033422PFDSEISVPXZPYRA04JY0","ABX5OQLR6UNBC","3S829FDFT2NBOHQMM1CIOU0HZYXDXL","","null","<img src=""img/land1.png"" style=""width:200px; border:14px solid green;"">","null","","","","","","","",""
"","image-keyboard-response","252","93709","0.0-375.0","3SPJ033422PFDSEISVPXZPYRA04JY0","ABX5OQLR6UNBC","3S829FDFT2NBOHQMM1CIOU0HZYXDXL","","86.30000000447035","img/land3.png","75","87.39999999850988","2","1","false","3","0.8,0.8,0.2,0.2,0.8,0.8,0.8,0.2,0.8","",""
"","html-keyboard-response","253","94011","0.0-376.0","3SPJ033422PFDSEISVPXZPYRA04JY0","ABX5OQLR6UNBC","3S829FDFT2NBOHQMM1CIOU0HZYXDXL","","null","<img src=""img/land3.png"" style=""width:200px; border:14px solid green;"">","null","","","","","","","",""
"","image-keyboard-response","254","94374","0.0-378.0","3SPJ033422PFDSEISVPXZPYRA04JY0","ABX5OQLR6UNBC","3S829FDFT2NBOHQMM1CIOU0HZYXDXL","","359.09999999403954","img/land3.png","75","360.30000000447035","2","0","false","3","0.8,0.8,0.2,0.2,0.8,0.8,0.8,0.2,0.8","",""
"","html-keyboard-response","255","94675","0.0-379.0","3SPJ033422PFDSEISVPXZPYRA04JY0","ABX5OQLR6UNBC","3S829FDFT2NBOHQMM1CIOU0HZYXDXL","","null","<img src=""img/land3.png"" style=""width:200px;border:14px solid red;"">","null","","","","","","","",""
"","image-keyboard-response","256","94799","0.0-381.0","3SPJ033422PFDSEISVPXZPYRA04JY0","ABX5OQLR6UNBC","3S829FDFT2NBOHQMM1CIOU0HZYXDXL","","121.60000000149012","img/land9.png","74","123","1","1","false","2","0.8,0.8,0.2,0.2,0.8,0.8,0.8,0.2,0.8","",""
"","html-keyboard-response","257","95101","0.0-382.0","3SPJ033422PFDSEISVPXZPYRA04JY0","ABX5OQLR6UNBC","3S829FDFT2NBOHQMM1CIOU0HZYXDXL","","null","<img src=""img/land9.png"" style=""width:200px; border:14px solid green;"">","null","","","","","","","",""
"","image-keyboard-response","258","95126","0.0-384.0","3SPJ033422PFDSEISVPXZPYRA04JY0","ABX5OQLR6UNBC","3S829FDFT2NBOHQMM1CIOU0HZYXDXL","","22.30000000447035","img/land3.png","75","23.900000005960464","2","0","false","3","0.8,0.8,0.2,0.2,0.8,0.8,0.8,0.2,0.8","",""
"","html-keyboard-response","259","95427","0.0-385.0","3SPJ033422PFDSEISVPXZPYRA04JY0","ABX5OQLR6UNBC","3S829FDFT2NBOHQMM1CIOU0HZYXDXL","","null","<img src=""img/land3.png"" style=""width:200px;border:14px solid red;"">","null","","","","","","","",""
"","image-keyboard-response","260","95455","0.0-387.0","3SPJ033422PFDSEISVPXZPYRA04JY0","ABX5OQLR6UNBC","3S829FDFT2NBOHQMM1CIOU0HZYXDXL","","25.200000002980232","img/land3.png","76","26.899999998509884","3","1","false","3","0.8,0.8,0.2,0.2,0.8,0.8,0.8,0.2,0.8","",""
"","html-keyboard-response","261","95757","0.0-388.0","3SPJ033422PFDSEISVPXZPYRA04JY0","ABX5OQLR6UNBC","3S829FDFT2NBOHQMM1CIOU0HZYXDXL","","null","<img src=""img/land3.png"" style=""width:200px; border:14px solid green;"">","null","","","","","","","",""
"","image-keyboard-response","262","95774","0.0-390.0","3SPJ033422PFDSEISVPXZPYRA04JY0","ABX5OQLR6UNBC","3S829FDFT2NBOHQMM1CIOU0HZYXDXL","","16.100000001490116","img/land9.png","75","16.799999997019768","2","1","false","2","0.8,0.8,0.2,0.2,0.8,0.8,0.8,0.2,0.8","",""
"","html-keyboard-response","263","96076","0.0-391.0","3SPJ033422PFDSEISVPXZPYRA04JY0","ABX5OQLR6UNBC","3S829FDFT2NBOHQMM1CIOU0HZYXDXL","","null","<img src=""img/land9.png"" style=""width:200px; border:14px solid green;"">","null","","","","","","","",""
"","image-keyboard-response","264","96111","0.0-393.0","3SPJ033422PFDSEISVPXZPYRA04JY0","ABX5OQLR6UNBC","3S829FDFT2NBOHQMM1CIOU0HZYXDXL","","32.5","img/land3.png","74","34","1","1","false","3","0.8,0.8,0.2,0.2,0.8,0.8,0.8,0.2,0.8","",""
"","html-keyboard-response","265","96413","0.0-394.0","3SPJ033422PFDSEISVPXZPYRA04JY0","ABX5OQLR6UNBC","3S829FDFT2NBOHQMM1CIOU0HZYXDXL","","null","<img src=""img/land3.png"" style=""width:200px; border:14px solid green;"">","null","","","","","","","",""
"","image-keyboard-response","266","96455","0.0-396.0","3SPJ033422PFDSEISVPXZPYRA04JY0","ABX5OQLR6UNBC","3S829FDFT2NBOHQMM1CIOU0HZYXDXL","","39.30000000447035","img/land9.png","75","40.899999998509884","2","1","false","2","0.8,0.8,0.2,0.2,0.8,0.8,0.8,0.2,0.8","",""
"","html-keyboard-response","267","96757","0.0-397.0","3SPJ033422PFDSEISVPXZPYRA04JY0","ABX5OQLR6UNBC","3S829FDFT2NBOHQMM1CIOU0HZYXDXL","","null","<img src=""img/land9.png"" style=""width:200px; border:14px solid green;"">","null","","","","","","","",""
"","image-keyboard-response","268","97087","0.0-399.0","3SPJ033422PFDSEISVPXZPYRA04JY0","ABX5OQLR6UNBC","3S829FDFT2NBOHQMM1CIOU0HZYXDXL","","327.70000000298023","img/land1.png","75","329.20000000298023","2","1","false","1","0.8,0.8,0.2,0.2,0.8,0.8,0.8,0.2,0.8","",""
"","html-keyboard-response","269","97389","0.0-400.0","3SPJ033422PFDSEISVPXZPYRA04JY0","ABX5OQLR6UNBC","3S829FDFT2NBOHQMM1CIOU0HZYXDXL","","null","<img src=""img/land1.png"" style=""width:200px; border:14px solid green;"">","null","","","","","","","",""
"","image-keyboard-response","270","97439","0.0-402.0","3SPJ033422PFDSEISVPXZPYRA04JY0","ABX5OQLR6UNBC","3S829FDFT2NBOHQMM1CIOU0HZYXDXL","","46.900000005960464","img/land3.png","74","48.5","1","1","false","3","0.8,0.8,0.2,0.2,0.8,0.8,0.8,0.2,0.8","",""
"","html-keyboard-response","271","97741","0.0-403.0","3SPJ033422PFDSEISVPXZPYRA04JY0","ABX5OQLR6UNBC","3S829FDFT2NBOHQMM1CIOU0HZYXDXL","","null","<img src=""img/land3.png"" style=""width:200px; border:14px solid green;"">","null","","","","","","","",""
"","image-keyboard-response","272","97783","0.0-405.0","3SPJ033422PFDSEISVPXZPYRA04JY0","ABX5OQLR6UNBC","3S829FDFT2NBOHQMM1CIOU0HZYXDXL","","40.400000005960464","img/land1.png","75","41.399999998509884","2","1","false","1","0.8,0.8,0.2,0.2,0.8,0.8,0.8,0.2,0.8","",""
"","html-keyboard-response","273","98085","0.0-406.0","3SPJ033422PFDSEISVPXZPYRA04JY0","ABX5OQLR6UNBC","3S829FDFT2NBOHQMM1CIOU0HZYXDXL","","null","<img src=""img/land1.png"" style=""width:200px; border:14px solid green;"">","null","","","","","","","",""
"","image-keyboard-response","274","98110","0.0-408.0","3SPJ033422PFDSEISVPXZPYRA04JY0","ABX5OQLR6UNBC","3S829FDFT2NBOHQMM1CIOU0HZYXDXL","","23.799999997019768","img/land1.png","76","24.599999994039536","3","0","false","1","0.8,0.8,0.2,0.2,0.8,0.8,0.8,0.2,0.8","",""
"","html-keyboard-response","275","98412","0.0-409.0","3SPJ033422PFDSEISVPXZPYRA04JY0","ABX5OQLR6UNBC","3S829FDFT2NBOHQMM1CIOU0HZYXDXL","","null","<img src=""img/land1.png"" style=""width:200px;border:14px solid red;"">","null","","","","","","","",""
"","image-keyboard-response","276","98471","0.0-411.0","3SPJ033422PFDSEISVPXZPYRA04JY0","ABX5OQLR6UNBC","3S829FDFT2NBOHQMM1CIOU0HZYXDXL","","56.70000000298023","img/land9.png","75","58.19999999552965","2","1","false","2","0.8,0.8,0.2,0.2,0.8,0.8,0.8,0.2,0.8","",""
"","html-keyboard-response","277","98773","0.0-412.0","3SPJ033422PFDSEISVPXZPYRA04JY0","ABX5OQLR6UNBC","3S829FDFT2NBOHQMM1CIOU0HZYXDXL","","null","<img src=""img/land9.png"" style=""width:200px; border:14px solid green;"">","null","","","","","","","",""
"","image-keyboard-response","278","98870","0.0-414.0","3SPJ033422PFDSEISVPXZPYRA04JY0","ABX5OQLR6UNBC","3S829FDFT2NBOHQMM1CIOU0HZYXDXL","","94.79999999701977","img/land1.png","74","96.19999999552965","1","1","false","1","0.8,0.8,0.2,0.2,0.8,0.8,0.8,0.2,0.8","",""
"","html-keyboard-response","279","99173","0.0-415.0","3SPJ033422PFDSEISVPXZPYRA04JY0","ABX5OQLR6UNBC","3S829FDFT2NBOHQMM1CIOU0HZYXDXL","","null","<img src=""img/land1.png"" style=""width:200px; border:14px solid green;"">","null","","","","","","","",""
"","image-keyboard-response","280","99183","0.0-417.0","3SPJ033422PFDSEISVPXZPYRA04JY0","ABX5OQLR6UNBC","3S829FDFT2NBOHQMM1CIOU0HZYXDXL","","7.5","img/land1.png","75","9.099999994039536","2","1","false","1","0.8,0.8,0.2,0.2,0.8,0.8,0.8,0.2,0.8","",""
"","html-keyboard-response","281","99486","0.0-418.0","3SPJ033422PFDSEISVPXZPYRA04JY0","ABX5OQLR6UNBC","3S829FDFT2NBOHQMM1CIOU0HZYXDXL","","null","<img src=""img/land1.png"" style=""width:200px; border:14px solid green;"">","null","","","","","","","",""
"","image-keyboard-response","282","99543","0.0-420.0","3SPJ033422PFDSEISVPXZPYRA04JY0","ABX5OQLR6UNBC","3S829FDFT2NBOHQMM1CIOU0HZYXDXL","","55","img/land3.png","75","56.5","2","0","false","3","0.8,0.8,0.2,0.2,0.8,0.8,0.8,0.2,0.8","",""
"","html-keyboard-response","283","99845","0.0-421.0","3SPJ033422PFDSEISVPXZPYRA04JY0","ABX5OQLR6UNBC","3S829FDFT2NBOHQMM1CIOU0HZYXDXL","","null","<img src=""img/land3.png"" style=""width:200px;border:14px solid red;"">","null","","","","","","","",""
"","image-keyboard-response","284","99863","0.0-423.0","3SPJ033422PFDSEISVPXZPYRA04JY0","ABX5OQLR6UNBC","3S829FDFT2NBOHQMM1CIOU0HZYXDXL","","15.300000004470348","img/land9.png","76","16.799999997019768","3","1","false","2","0.8,0.8,0.2,0.2,0.8,0.8,0.8,0.2,0.8","",""
"","html-keyboard-response","285","100165","0.0-424.0","3SPJ033422PFDSEISVPXZPYRA04JY0","ABX5OQLR6UNBC","3S829FDFT2NBOHQMM1CIOU0HZYXDXL","","null","<img src=""img/land9.png"" style=""width:200px; border:14px solid green;"">","null","","","","","","","",""
"","image-keyboard-response","286","100175","0.0-426.0","3SPJ033422PFDSEISVPXZPYRA04JY0","ABX5OQLR6UNBC","3S829FDFT2NBOHQMM1CIOU0HZYXDXL","","7.100000001490116","img/land9.png","76","8.699999995529652","3","1","false","2","0.8,0.8,0.2,0.2,0.8,0.8,0.8,0.2,0.8","",""
"","html-keyboard-response","287","100477","0.0-427.0","3SPJ033422PFDSEISVPXZPYRA04JY0","ABX5OQLR6UNBC","3S829FDFT2NBOHQMM1CIOU0HZYXDXL","","null","<img src=""img/land9.png"" style=""width:200px; border:14px solid green;"">","null","","","","","","","",""
"","image-keyboard-response","288","100519","0.0-429.0","3SPJ033422PFDSEISVPXZPYRA04JY0","ABX5OQLR6UNBC","3S829FDFT2NBOHQMM1CIOU0HZYXDXL","","39.599999994039536","img/land9.png","75","41.19999999552965","2","0","false","2","0.8,0.8,0.2,0.2,0.8,0.8,0.8,0.2,0.8","",""
"","html-keyboard-response","289","100822","0.0-430.0","3SPJ033422PFDSEISVPXZPYRA04JY0","ABX5OQLR6UNBC","3S829FDFT2NBOHQMM1CIOU0HZYXDXL","","null","<img src=""img/land9.png"" style=""width:200px;border:14px solid red;"">","null","","","","","","","",""
"","image-keyboard-response","290","100943","0.0-432.0","3SPJ033422PFDSEISVPXZPYRA04JY0","ABX5OQLR6UNBC","3S829FDFT2NBOHQMM1CIOU0HZYXDXL","","119.5","img/land9.png","74","120.39999999850988","1","1","false","2","0.8,0.8,0.2,0.2,0.8,0.8,0.8,0.2,0.8","",""
"","html-keyboard-response","291","101245","0.0-433.0","3SPJ033422PFDSEISVPXZPYRA04JY0","ABX5OQLR6UNBC","3S829FDFT2NBOHQMM1CIOU0HZYXDXL","","null","<img src=""img/land9.png"" style=""width:200px; border:14px solid green;"">","null","","","","","","","",""
"","image-keyboard-response","292","101319","0.0-435.0","3SPJ033422PFDSEISVPXZPYRA04JY0","ABX5OQLR6UNBC","3S829FDFT2NBOHQMM1CIOU0HZYXDXL","","71.40000000596046","img/land9.png","74","72.80000000447035","1","0","false","2","0.8,0.8,0.2,0.2,0.8,0.8,0.8,0.2,0.8","",""
"","html-keyboard-response","293","101621","0.0-436.0","3SPJ033422PFDSEISVPXZPYRA04JY0","ABX5OQLR6UNBC","3S829FDFT2NBOHQMM1CIOU0HZYXDXL","","null","<img src=""img/land9.png"" style=""width:200px;border:14px solid red;"">","null","","","","","","","",""
"","image-keyboard-response","294","102031","0.0-438.0","3SPJ033422PFDSEISVPXZPYRA04JY0","ABX5OQLR6UNBC","3S829FDFT2NBOHQMM1CIOU0HZYXDXL","","407.20000000298023","img/land3.png","76","408.59999999403954","3","1","false","3","0.8,0.8,0.2,0.2,0.8,0.8,0.8,0.2,0.8","",""
"","html-keyboard-response","295","102333","0.0-439.0","3SPJ033422PFDSEISVPXZPYRA04JY0","ABX5OQLR6UNBC","3S829FDFT2NBOHQMM1CIOU0HZYXDXL","","null","<img src=""img/land3.png"" style=""width:200px; border:14px solid green;"">","null","","","","","","","",""
"","image-keyboard-response","296","102431","0.0-441.0","3SPJ033422PFDSEISVPXZPYRA04JY0","ABX5OQLR6UNBC","3S829FDFT2NBOHQMM1CIOU0HZYXDXL","","95.30000000447035","img/land1.png","75","96.89999999850988","2","0","false","1","0.8,0.8,0.2,0.2,0.8,0.8,0.8,0.2,0.8","",""
"","html-keyboard-response","297","102733","0.0-442.0","3SPJ033422PFDSEISVPXZPYRA04JY0","ABX5OQLR6UNBC","3S829FDFT2NBOHQMM1CIOU0HZYXDXL","","null","<img src=""img/land1.png"" style=""width:200px;border:14px solid red;"">","null","","","","","","","",""
"","image-keyboard-response","298","102749","0.0-444.0","3SPJ033422PFDSEISVPXZPYRA04JY0","ABX5OQLR6UNBC","3S829FDFT2NBOHQMM1CIOU0HZYXDXL","","16.19999999552965","img/land9.png","74","16.700000002980232","1","0","false","2","0.8,0.8,0.2,0.2,0.8,0.8,0.8,0.2,0.8","",""
"","html-keyboard-response","299","103051","0.0-445.0","3SPJ033422PFDSEISVPXZPYRA04JY0","ABX5OQLR6UNBC","3S829FDFT2NBOHQMM1CIOU0HZYXDXL","","null","<img src=""img/land9.png"" style=""width:200px;border:14px solid red;"">","null","","","","","","","",""
"","image-keyboard-response","300","103079","0.0-447.0","3SPJ033422PFDSEISVPXZPYRA04JY0","ABX5OQLR6UNBC","3S829FDFT2NBOHQMM1CIOU0HZYXDXL","","25","img/land3.png","75","26.599999994039536","2","0","false","3","0.8,0.8,0.2,0.2,0.8,0.8,0.8,0.2,0.8","",""
"","html-keyboard-response","301","103381","0.0-448.0","3SPJ033422PFDSEISVPXZPYRA04JY0","ABX5OQLR6UNBC","3S829FDFT2NBOHQMM1CIOU0HZYXDXL","","null","<img src=""img/land3.png"" style=""width:200px;border:14px solid red;"">","null","","","","","","","",""
"","image-keyboard-response","302","103487","0.0-450.0","3SPJ033422PFDSEISVPXZPYRA04JY0","ABX5OQLR6UNBC","3S829FDFT2NBOHQMM1CIOU0HZYXDXL","","103.20000000298023","img/land1.png","76","104.89999999850988","3","0","false","1","0.8,0.8,0.2,0.2,0.8,0.8,0.8,0.2,0.8","",""
"","html-keyboard-response","303","103790","0.0-451.0","3SPJ033422PFDSEISVPXZPYRA04JY0","ABX5OQLR6UNBC","3S829FDFT2NBOHQMM1CIOU0HZYXDXL","","null","<img src=""img/land1.png"" style=""width:200px;border:14px solid red;"">","null","","","","","","","",""
"","image-keyboard-response","304","104158","0.0-453.0","3SPJ033422PFDSEISVPXZPYRA04JY0","ABX5OQLR6UNBC","3S829FDFT2NBOHQMM1CIOU0HZYXDXL","","366.3999999985099","img/land1.png","74","367.5","1","1","false","1","0.8,0.8,0.2,0.2,0.8,0.8,0.8,0.2,0.8","",""
"","html-keyboard-response","305","104459","0.0-454.0","3SPJ033422PFDSEISVPXZPYRA04JY0","ABX5OQLR6UNBC","3S829FDFT2NBOHQMM1CIOU0HZYXDXL","","null","<img src=""img/land1.png"" style=""width:200px; border:14px solid green;"">","null","","","","","","","",""
"","image-keyboard-response","306","104487","0.0-456.0","3SPJ033422PFDSEISVPXZPYRA04JY0","ABX5OQLR6UNBC","3S829FDFT2NBOHQMM1CIOU0HZYXDXL","","25.5","img/land3.png","75","27","2","0","false","3","0.8,0.8,0.2,0.2,0.8,0.8,0.8,0.2,0.8","",""
"","html-keyboard-response","307","104789","0.0-457.0","3SPJ033422PFDSEISVPXZPYRA04JY0","ABX5OQLR6UNBC","3S829FDFT2NBOHQMM1CIOU0HZYXDXL","","null","<img src=""img/land3.png"" style=""width:200px;border:14px solid red;"">","null","","","","","","","",""
"","image-keyboard-response","308","104855","0.0-459.0","3SPJ033422PFDSEISVPXZPYRA04JY0","ABX5OQLR6UNBC","3S829FDFT2NBOHQMM1CIOU0HZYXDXL","","63","img/land9.png","76","64.5","3","1","false","2","0.8,0.8,0.2,0.2,0.8,0.8,0.8,0.2,0.8","",""
"","html-keyboard-response","309","105157","0.0-460.0","3SPJ033422PFDSEISVPXZPYRA04JY0","ABX5OQLR6UNBC","3S829FDFT2NBOHQMM1CIOU0HZYXDXL","","null","<img src=""img/land9.png"" style=""width:200px; border:14px solid green;"">","null","","","","","","","",""
"","image-keyboard-response","310","105159","0.0-462.0","3SPJ033422PFDSEISVPXZPYRA04JY0","ABX5OQLR6UNBC","3S829FDFT2NBOHQMM1CIOU0HZYXDXL","","0.20000000298023224","img/land3.png","75","1.6000000014901161","2","0","false","3","0.8,0.8,0.2,0.2,0.8,0.8,0.8,0.2,0.8","",""
"","html-keyboard-response","311","105462","0.0-463.0","3SPJ033422PFDSEISVPXZPYRA04JY0","ABX5OQLR6UNBC","3S829FDFT2NBOHQMM1CIOU0HZYXDXL","","null","<img src=""img/land3.png"" style=""width:200px;border:14px solid red;"">","null","","","","","","","",""
"","image-keyboard-response","312","105543","0.0-465.0","3SPJ033422PFDSEISVPXZPYRA04JY0","ABX5OQLR6UNBC","3S829FDFT2NBOHQMM1CIOU0HZYXDXL","","79","img/land9.png","74","80.5","1","0","false","2","0.8,0.8,0.2,0.2,0.8,0.8,0.8,0.2,0.8","",""
"","html-keyboard-response","313","105846","0.0-466.0","3SPJ033422PFDSEISVPXZPYRA04JY0","ABX5OQLR6UNBC","3S829FDFT2NBOHQMM1CIOU0HZYXDXL","","null","<img src=""img/land9.png"" style=""width:200px;border:14px solid red;"">","null","","","","","","","",""
"","image-keyboard-response","314","106215","0.0-468.0","3SPJ033422PFDSEISVPXZPYRA04JY0","ABX5OQLR6UNBC","3S829FDFT2NBOHQMM1CIOU0HZYXDXL","","366.70000000298023","img/land9.png","76","368.80000000447035","3","1","false","2","0.8,0.8,0.2,0.2,0.8,0.8,0.8,0.2,0.8","",""
"","html-keyboard-response","315","106518","0.0-469.0","3SPJ033422PFDSEISVPXZPYRA04JY0","ABX5OQLR6UNBC","3S829FDFT2NBOHQMM1CIOU0HZYXDXL","","null","<img src=""img/land9.png"" style=""width:200px; border:14px solid green;"">","null","","","","","","","",""
"","image-keyboard-response","316","106543","0.0-471.0","3SPJ033422PFDSEISVPXZPYRA04JY0","ABX5OQLR6UNBC","3S829FDFT2NBOHQMM1CIOU0HZYXDXL","","22.5","img/land3.png","75","24.099999994039536","2","0","false","3","0.8,0.8,0.2,0.2,0.8,0.8,0.8,0.2,0.8","",""
"","html-keyboard-response","317","106845","0.0-472.0","3SPJ033422PFDSEISVPXZPYRA04JY0","ABX5OQLR6UNBC","3S829FDFT2NBOHQMM1CIOU0HZYXDXL","","null","<img src=""img/land3.png"" style=""width:200px;border:14px solid red;"">","null","","","","","","","",""
"","image-keyboard-response","318","106966","0.0-474.0","3SPJ033422PFDSEISVPXZPYRA04JY0","ABX5OQLR6UNBC","3S829FDFT2NBOHQMM1CIOU0HZYXDXL","","118.19999999552965","img/land3.png","74","119.5","1","1","false","3","0.8,0.8,0.2,0.2,0.8,0.8,0.8,0.2,0.8","",""
"","html-keyboard-response","319","107267","0.0-475.0","3SPJ033422PFDSEISVPXZPYRA04JY0","ABX5OQLR6UNBC","3S829FDFT2NBOHQMM1CIOU0HZYXDXL","","null","<img src=""img/land3.png"" style=""width:200px; border:14px solid green;"">","null","","","","","","","",""
"","image-keyboard-response","320","107278","0.0-477.0","3SPJ033422PFDSEISVPXZPYRA04JY0","ABX5OQLR6UNBC","3S829FDFT2NBOHQMM1CIOU0HZYXDXL","","8.399999998509884","img/land3.png","75","9.5","2","0","false","3","0.8,0.8,0.2,0.2,0.8,0.8,0.8,0.2,0.8","",""
"","html-keyboard-response","321","107579","0.0-478.0","3SPJ033422PFDSEISVPXZPYRA04JY0","ABX5OQLR6UNBC","3S829FDFT2NBOHQMM1CIOU0HZYXDXL","","null","<img src=""img/land3.png"" style=""width:200px;border:14px solid red;"">","null","","","","","","","",""
"","image-keyboard-response","322","107983","0.0-480.0","3SPJ033422PFDSEISVPXZPYRA04JY0","ABX5OQLR6UNBC","3S829FDFT2NBOHQMM1CIOU0HZYXDXL","","401.79999999701977","img/land9.png","76","403.29999999701977","3","1","false","2","0.8,0.8,0.2,0.2,0.8,0.8,0.8,0.2,0.8","",""
"","html-keyboard-response","323","108285","0.0-481.0","3SPJ033422PFDSEISVPXZPYRA04JY0","ABX5OQLR6UNBC","3S829FDFT2NBOHQMM1CIOU0HZYXDXL","","null","<img src=""img/land9.png"" style=""width:200px; border:14px solid green;"">","null","","","","","","","",""
"","image-keyboard-response","324","108288","0.0-483.0","3SPJ033422PFDSEISVPXZPYRA04JY0","ABX5OQLR6UNBC","3S829FDFT2NBOHQMM1CIOU0HZYXDXL","","0.20000000298023224","img/land9.png","75","1.6000000014901161","2","1","false","2","0.8,0.8,0.2,0.2,0.8,0.8,0.8,0.2,0.8","",""
"","html-keyboard-response","325","108590","0.0-484.0","3SPJ033422PFDSEISVPXZPYRA04JY0","ABX5OQLR6UNBC","3S829FDFT2NBOHQMM1CIOU0HZYXDXL","","null","<img src=""img/land9.png"" style=""width:200px; border:14px solid green;"">","null","","","","","","","",""
"","image-keyboard-response","326","108655","0.0-486.0","3SPJ033422PFDSEISVPXZPYRA04JY0","ABX5OQLR6UNBC","3S829FDFT2NBOHQMM1CIOU0HZYXDXL","","63.900000005960464","img/land3.png","74","64.79999999701977","1","1","false","3","0.8,0.8,0.2,0.2,0.8,0.8,0.8,0.2,0.8","",""
"","html-keyboard-response","327","108957","0.0-487.0","3SPJ033422PFDSEISVPXZPYRA04JY0","ABX5OQLR6UNBC","3S829FDFT2NBOHQMM1CIOU0HZYXDXL","","null","<img src=""img/land3.png"" style=""width:200px; border:14px solid green;"">","null","","","","","","","",""
"","image-keyboard-response","328","109383","0.0-489.0","3SPJ033422PFDSEISVPXZPYRA04JY0","ABX5OQLR6UNBC","3S829FDFT2NBOHQMM1CIOU0HZYXDXL","","423.69999999552965","img/land1.png","76","425.19999999552965","3","0","false","1","0.8,0.8,0.2,0.2,0.8,0.8,0.8,0.2,0.8","",""
"","html-keyboard-response","329","109686","0.0-490.0","3SPJ033422PFDSEISVPXZPYRA04JY0","ABX5OQLR6UNBC","3S829FDFT2NBOHQMM1CIOU0HZYXDXL","","null","<img src=""img/land1.png"" style=""width:200px;border:14px solid red;"">","null","","","","","","","",""
"","image-keyboard-response","330","109855","0.0-492.0","3SPJ033422PFDSEISVPXZPYRA04JY0","ABX5OQLR6UNBC","3S829FDFT2NBOHQMM1CIOU0HZYXDXL","","168.19999999552965","img/land9.png","75","169.10000000149012","2","1","false","2","0.8,0.8,0.2,0.2,0.8,0.8,0.8,0.2,0.8","",""
"","html-keyboard-response","331","110157","0.0-493.0","3SPJ033422PFDSEISVPXZPYRA04JY0","ABX5OQLR6UNBC","3S829FDFT2NBOHQMM1CIOU0HZYXDXL","","null","<img src=""img/land9.png"" style=""width:200px; border:14px solid green;"">","null","","","","","","","",""
"","image-keyboard-response","332","110271","0.0-495.0","3SPJ033422PFDSEISVPXZPYRA04JY0","ABX5OQLR6UNBC","3S829FDFT2NBOHQMM1CIOU0HZYXDXL","","112","img/land9.png","74","113.30000000447035","1","0","false","2","0.8,0.8,0.2,0.2,0.8,0.8,0.8,0.2,0.8","",""
"","html-keyboard-response","333","110573","0.0-496.0","3SPJ033422PFDSEISVPXZPYRA04JY0","ABX5OQLR6UNBC","3S829FDFT2NBOHQMM1CIOU0HZYXDXL","","null","<img src=""img/land9.png"" style=""width:200px;border:14px solid red;"">","null","","","","","","","",""
"","image-keyboard-response","334","110703","0.0-498.0","3SPJ033422PFDSEISVPXZPYRA04JY0","ABX5OQLR6UNBC","3S829FDFT2NBOHQMM1CIOU0HZYXDXL","","127.39999999850988","img/land1.png","75","128.89999999850988","2","0","false","1","0.8,0.8,0.2,0.2,0.8,0.8,0.8,0.2,0.8","",""
"","html-keyboard-response","335","111005","0.0-499.0","3SPJ033422PFDSEISVPXZPYRA04JY0","ABX5OQLR6UNBC","3S829FDFT2NBOHQMM1CIOU0HZYXDXL","","null","<img src=""img/land1.png"" style=""width:200px;border:14px solid red;"">","null","","","","","","","",""
"","image-keyboard-response","336","111447","0.0-501.0","3SPJ033422PFDSEISVPXZPYRA04JY0","ABX5OQLR6UNBC","3S829FDFT2NBOHQMM1CIOU0HZYXDXL","","439.6000000014901","img/land9.png","76","441.19999999552965","3","1","false","2","0.8,0.8,0.2,0.2,0.8,0.8,0.8,0.2,0.8","",""
"","html-keyboard-response","337","111749","0.0-502.0","3SPJ033422PFDSEISVPXZPYRA04JY0","ABX5OQLR6UNBC","3S829FDFT2NBOHQMM1CIOU0HZYXDXL","","null","<img src=""img/land9.png"" style=""width:200px; border:14px solid green;"">","null","","","","","","","",""
"","image-keyboard-response","338","111871","0.0-504.0","3SPJ033422PFDSEISVPXZPYRA04JY0","ABX5OQLR6UNBC","3S829FDFT2NBOHQMM1CIOU0HZYXDXL","","120.30000000447035","img/land3.png","75","121.5","2","0","false","3","0.8,0.8,0.2,0.2,0.8,0.8,0.8,0.2,0.8","",""
"","html-keyboard-response","339","112173","0.0-505.0","3SPJ033422PFDSEISVPXZPYRA04JY0","ABX5OQLR6UNBC","3S829FDFT2NBOHQMM1CIOU0HZYXDXL","","null","<img src=""img/land3.png"" style=""width:200px;border:14px solid red;"">","null","","","","","","","",""
"","image-keyboard-response","340","112279","0.0-507.0","3SPJ033422PFDSEISVPXZPYRA04JY0","ABX5OQLR6UNBC","3S829FDFT2NBOHQMM1CIOU0HZYXDXL","","103","img/land3.png","74","104.79999999701977","1","1","false","3","0.8,0.8,0.2,0.2,0.8,0.8,0.8,0.2,0.8","",""
"","html-keyboard-response","341","112582","0.0-508.0","3SPJ033422PFDSEISVPXZPYRA04JY0","ABX5OQLR6UNBC","3S829FDFT2NBOHQMM1CIOU0HZYXDXL","","null","<img src=""img/land3.png"" style=""width:200px; border:14px solid green;"">","null","","","","","","","",""
"","image-keyboard-response","342","112663","0.0-510.0","3SPJ033422PFDSEISVPXZPYRA04JY0","ABX5OQLR6UNBC","3S829FDFT2NBOHQMM1CIOU0HZYXDXL","","78.89999999850988","img/land1.png","75","80.5","2","1","false","1","0.8,0.8,0.2,0.2,0.8,0.8,0.8,0.2,0.8","",""
"","html-keyboard-response","343","112966","0.0-511.0","3SPJ033422PFDSEISVPXZPYRA04JY0","ABX5OQLR6UNBC","3S829FDFT2NBOHQMM1CIOU0HZYXDXL","","null","<img src=""img/land1.png"" style=""width:200px; border:14px solid green;"">","null","","","","","","","",""
"","image-keyboard-response","344","113111","0.0-513.0","3SPJ033422PFDSEISVPXZPYRA04JY0","ABX5OQLR6UNBC","3S829FDFT2NBOHQMM1CIOU0HZYXDXL","","142.80000000447035","img/land9.png","75","144.5","2","1","false","2","0.8,0.8,0.2,0.2,0.8,0.8,0.8,0.2,0.8","",""
"","html-keyboard-response","345","113423","0.0-514.0","3SPJ033422PFDSEISVPXZPYRA04JY0","ABX5OQLR6UNBC","3S829FDFT2NBOHQMM1CIOU0HZYXDXL","","null","<img src=""img/land9.png"" style=""width:200px; border:14px solid green;"">","null","","","","","","","",""
"","image-keyboard-response","346","113447","0.0-516.0","3SPJ033422PFDSEISVPXZPYRA04JY0","ABX5OQLR6UNBC","3S829FDFT2NBOHQMM1CIOU0HZYXDXL","","21.69999999552965","img/land1.png","76","23.099999994039536","3","1","false","1","0.8,0.8,0.2,0.2,0.8,0.8,0.8,0.2,0.8","",""
"","html-keyboard-response","347","113750","0.0-517.0","3SPJ033422PFDSEISVPXZPYRA04JY0","ABX5OQLR6UNBC","3S829FDFT2NBOHQMM1CIOU0HZYXDXL","","null","<img src=""img/land1.png"" style=""width:200px; border:14px solid green;"">","null","","","","","","","",""
"","image-keyboard-response","348","113999","0.0-519.0","3SPJ033422PFDSEISVPXZPYRA04JY0","ABX5OQLR6UNBC","3S829FDFT2NBOHQMM1CIOU0HZYXDXL","","247.40000000596046","img/land3.png","74","248.5","1","1","false","3","0.8,0.8,0.2,0.2,0.8,0.8,0.8,0.2,0.8","",""
"","html-keyboard-response","349","114302","0.0-520.0","3SPJ033422PFDSEISVPXZPYRA04JY0","ABX5OQLR6UNBC","3S829FDFT2NBOHQMM1CIOU0HZYXDXL","","null","<img src=""img/land3.png"" style=""width:200px; border:14px solid green;"">","null","","","","","","","",""
"","image-keyboard-response","350","114375","0.0-522.0","3SPJ033422PFDSEISVPXZPYRA04JY0","ABX5OQLR6UNBC","3S829FDFT2NBOHQMM1CIOU0HZYXDXL","","70.80000000447035","img/land1.png","75","72.39999999850988","2","1","false","1","0.8,0.8,0.2,0.2,0.8,0.8,0.8,0.2,0.8","",""
"","html-keyboard-response","351","114678","0.0-523.0","3SPJ033422PFDSEISVPXZPYRA04JY0","ABX5OQLR6UNBC","3S829FDFT2NBOHQMM1CIOU0HZYXDXL","","null","<img src=""img/land1.png"" style=""width:200px; border:14px solid green;"">","null","","","","","","","",""
"","image-keyboard-response","352","114847","0.0-525.0","3SPJ033422PFDSEISVPXZPYRA04JY0","ABX5OQLR6UNBC","3S829FDFT2NBOHQMM1CIOU0HZYXDXL","","166.89999999850988","img/land9.png","75","168.19999999552965","2","1","false","2","0.8,0.8,0.2,0.2,0.8,0.8,0.8,0.2,0.8","",""
"","html-keyboard-response","353","115149","0.0-526.0","3SPJ033422PFDSEISVPXZPYRA04JY0","ABX5OQLR6UNBC","3S829FDFT2NBOHQMM1CIOU0HZYXDXL","","null","<img src=""img/land9.png"" style=""width:200px; border:14px solid green;"">","null","","","","","","","",""
"","image-keyboard-response","354","115247","0.0-528.0","3SPJ033422PFDSEISVPXZPYRA04JY0","ABX5OQLR6UNBC","3S829FDFT2NBOHQMM1CIOU0HZYXDXL","","95.5","img/land1.png","75","97.09999999403954","2","1","false","1","0.8,0.8,0.2,0.2,0.8,0.8,0.8,0.2,0.8","",""
"","html-keyboard-response","355","115549","0.0-529.0","3SPJ033422PFDSEISVPXZPYRA04JY0","ABX5OQLR6UNBC","3S829FDFT2NBOHQMM1CIOU0HZYXDXL","","null","<img src=""img/land1.png"" style=""width:200px; border:14px solid green;"">","null","","","","","","","",""
"","image-keyboard-response","356","115615","0.0-531.0","3SPJ033422PFDSEISVPXZPYRA04JY0","ABX5OQLR6UNBC","3S829FDFT2NBOHQMM1CIOU0HZYXDXL","","63.69999999552965","img/land3.png","75","65.19999999552965","2","0","false","3","0.8,0.8,0.2,0.2,0.8,0.8,0.8,0.2,0.8","",""
"","html-keyboard-response","357","115917","0.0-532.0","3SPJ033422PFDSEISVPXZPYRA04JY0","ABX5OQLR6UNBC","3S829FDFT2NBOHQMM1CIOU0HZYXDXL","","null","<img src=""img/land3.png"" style=""width:200px;border:14px solid red;"">","null","","","","","","","",""
"","image-keyboard-response","358","116023","0.0-534.0","3SPJ033422PFDSEISVPXZPYRA04JY0","ABX5OQLR6UNBC","3S829FDFT2NBOHQMM1CIOU0HZYXDXL","","103.10000000149012","img/land1.png","75","104.79999999701977","2","1","false","1","0.8,0.8,0.2,0.2,0.8,0.8,0.8,0.2,0.8","",""
"","html-keyboard-response","359","116326","0.0-535.0","3SPJ033422PFDSEISVPXZPYRA04JY0","ABX5OQLR6UNBC","3S829FDFT2NBOHQMM1CIOU0HZYXDXL","","null","<img src=""img/land1.png"" style=""width:200px; border:14px solid green;"">","null","","","","","","","",""
"","image-keyboard-response","360","116359","0.0-537.0","3SPJ033422PFDSEISVPXZPYRA04JY0","ABX5OQLR6UNBC","3S829FDFT2NBOHQMM1CIOU0HZYXDXL","","30.700000002980232","img/land9.png","75","32.29999999701977","2","1","false","2","0.8,0.8,0.2,0.2,0.8,0.8,0.8,0.2,0.8","",""
"","html-keyboard-response","361","116661","0.0-538.0","3SPJ033422PFDSEISVPXZPYRA04JY0","ABX5OQLR6UNBC","3S829FDFT2NBOHQMM1CIOU0HZYXDXL","","null","<img src=""img/land9.png"" style=""width:200px; border:14px solid green;"">","null","","","","","","","",""
"","image-keyboard-response","362","116710","0.0-540.0","3SPJ033422PFDSEISVPXZPYRA04JY0","ABX5OQLR6UNBC","3S829FDFT2NBOHQMM1CIOU0HZYXDXL","","47.5","img/land1.png","75","48.20000000298023","2","1","false","1","0.8,0.8,0.2,0.2,0.8,0.8,0.8,0.2,0.8","",""
"","html-keyboard-response","363","117011","0.0-541.0","3SPJ033422PFDSEISVPXZPYRA04JY0","ABX5OQLR6UNBC","3S829FDFT2NBOHQMM1CIOU0HZYXDXL","","null","<img src=""img/land1.png"" style=""width:200px; border:14px solid green;"">","null","","","","","","","",""
"","html-keyboard-response","364","120134","0.0-543.0","3SPJ033422PFDSEISVPXZPYRA04JY0","ABX5OQLR6UNBC","3S829FDFT2NBOHQMM1CIOU0HZYXDXL","","","","","","","","","","","",""
"","image-keyboard-response","365","121095","0.0-544.0","3SPJ033422PFDSEISVPXZPYRA04JY0","ABX5OQLR6UNBC","3S829FDFT2NBOHQMM1CIOU0HZYXDXL","","959.8999999985099","img/land5.png","74","960.8999999985099","1","0","false","3","0.8,0.2,0.2,0.2,0.8,0.2,0.2,0.2,0.8","",""
"","html-keyboard-response","366","121398","0.0-545.0","3SPJ033422PFDSEISVPXZPYRA04JY0","ABX5OQLR6UNBC","3S829FDFT2NBOHQMM1CIOU0HZYXDXL","","null","<img src=""img/land5.png"" style=""width:200px;border:14px solid red;"">","null","","","","","","","",""
"","image-keyboard-response","367","121470","0.0-547.0","3SPJ033422PFDSEISVPXZPYRA04JY0","ABX5OQLR6UNBC","3S829FDFT2NBOHQMM1CIOU0HZYXDXL","","69.70000000298023","img/land6.png","74","71","1","0","false","2","0.8,0.2,0.2,0.2,0.8,0.2,0.2,0.2,0.8","",""
"","html-keyboard-response","368","121771","0.0-548.0","3SPJ033422PFDSEISVPXZPYRA04JY0","ABX5OQLR6UNBC","3S829FDFT2NBOHQMM1CIOU0HZYXDXL","","null","<img src=""img/land6.png"" style=""width:200px;border:14px solid red;"">","null","","","","","","","",""
"","image-keyboard-response","369","121967","0.0-550.0","3SPJ033422PFDSEISVPXZPYRA04JY0","ABX5OQLR6UNBC","3S829FDFT2NBOHQMM1CIOU0HZYXDXL","","193.5","img/land5.png","76","194.89999999850988","3","0","false","3","0.8,0.2,0.2,0.2,0.8,0.2,0.2,0.2,0.8","",""
"","html-keyboard-response","370","122270","0.0-551.0","3SPJ033422PFDSEISVPXZPYRA04JY0","ABX5OQLR6UNBC","3S829FDFT2NBOHQMM1CIOU0HZYXDXL","","null","<img src=""img/land5.png"" style=""width:200px;border:14px solid red;"">","null","","","","","","","",""
"","image-keyboard-response","371","122383","0.0-553.0","3SPJ033422PFDSEISVPXZPYRA04JY0","ABX5OQLR6UNBC","3S829FDFT2NBOHQMM1CIOU0HZYXDXL","","110.59999999403954","img/land5.png","75","112.10000000149012","2","0","false","3","0.8,0.2,0.2,0.2,0.8,0.2,0.2,0.2,0.8","",""
"","html-keyboard-response","372","122687","0.0-554.0","3SPJ033422PFDSEISVPXZPYRA04JY0","ABX5OQLR6UNBC","3S829FDFT2NBOHQMM1CIOU0HZYXDXL","","null","<img src=""img/land5.png"" style=""width:200px;border:14px solid red;"">","null","","","","","","","",""
"","image-keyboard-response","373","122782","0.0-556.0","3SPJ033422PFDSEISVPXZPYRA04JY0","ABX5OQLR6UNBC","3S829FDFT2NBOHQMM1CIOU0HZYXDXL","","92.60000000149012","img/land5.png","74","94","1","0","false","3","0.8,0.2,0.2,0.2,0.8,0.2,0.2,0.2,0.8","",""
"","html-keyboard-response","374","123083","0.0-557.0","3SPJ033422PFDSEISVPXZPYRA04JY0","ABX5OQLR6UNBC","3S829FDFT2NBOHQMM1CIOU0HZYXDXL","","null","<img src=""img/land5.png"" style=""width:200px;border:14px solid red;"">","null","","","","","","","",""
"","image-keyboard-response","375","123199","0.0-559.0","3SPJ033422PFDSEISVPXZPYRA04JY0","ABX5OQLR6UNBC","3S829FDFT2NBOHQMM1CIOU0HZYXDXL","","113.19999999552965","img/land6.png","75","114.69999999552965","2","1","false","2","0.8,0.2,0.2,0.2,0.8,0.2,0.2,0.2,0.8","",""
"","html-keyboard-response","376","123501","0.0-560.0","3SPJ033422PFDSEISVPXZPYRA04JY0","ABX5OQLR6UNBC","3S829FDFT2NBOHQMM1CIOU0HZYXDXL","","null","<img src=""img/land6.png"" style=""width:200px; border:14px solid green;"">","null","","","","","","","",""
"","image-keyboard-response","377","123566","0.0-562.0","3SPJ033422PFDSEISVPXZPYRA04JY0","ABX5OQLR6UNBC","3S829FDFT2NBOHQMM1CIOU0HZYXDXL","","63.600000001490116","img/land5.png","76","64","3","1","false","3","0.8,0.2,0.2,0.2,0.8,0.2,0.2,0.2,0.8","",""
"","html-keyboard-response","378","123871","0.0-563.0","3SPJ033422PFDSEISVPXZPYRA04JY0","ABX5OQLR6UNBC","3S829FDFT2NBOHQMM1CIOU0HZYXDXL","","null","<img src=""img/land5.png"" style=""width:200px; border:14px solid green;"">","null","","","","","","","",""
"","image-keyboard-response","379","123999","0.0-565.0","3SPJ033422PFDSEISVPXZPYRA04JY0","ABX5OQLR6UNBC","3S829FDFT2NBOHQMM1CIOU0HZYXDXL","","126","img/land6.png","75","127.59999999403954","2","1","false","2","0.8,0.2,0.2,0.2,0.8,0.2,0.2,0.2,0.8","",""
"","html-keyboard-response","380","124302","0.0-566.0","3SPJ033422PFDSEISVPXZPYRA04JY0","ABX5OQLR6UNBC","3S829FDFT2NBOHQMM1CIOU0HZYXDXL","","null","<img src=""img/land6.png"" style=""width:200px; border:14px solid green;"">","null","","","","","","","",""
"","image-keyboard-response","381","124375","0.0-568.0","3SPJ033422PFDSEISVPXZPYRA04JY0","ABX5OQLR6UNBC","3S829FDFT2NBOHQMM1CIOU0HZYXDXL","","70.5","img/land5.png","75","72.39999999850988","2","1","false","3","0.8,0.2,0.2,0.2,0.8,0.2,0.2,0.2,0.8","",""
"","html-keyboard-response","382","124677","0.0-569.0","3SPJ033422PFDSEISVPXZPYRA04JY0","ABX5OQLR6UNBC","3S829FDFT2NBOHQMM1CIOU0HZYXDXL","","null","<img src=""img/land5.png"" style=""width:200px; border:14px solid green;"">","null","","","","","","","",""
"","image-keyboard-response","383","124711","0.0-571.0","3SPJ033422PFDSEISVPXZPYRA04JY0","ABX5OQLR6UNBC","3S829FDFT2NBOHQMM1CIOU0HZYXDXL","","31.5","img/land6.png","75","33.100000001490116","2","1","false","2","0.8,0.2,0.2,0.2,0.8,0.2,0.2,0.2,0.8","",""
"","html-keyboard-response","384","125013","0.0-572.0","3SPJ033422PFDSEISVPXZPYRA04JY0","ABX5OQLR6UNBC","3S829FDFT2NBOHQMM1CIOU0HZYXDXL","","null","<img src=""img/land6.png"" style=""width:200px; border:14px solid green;"">","null","","","","","","","",""
"","image-keyboard-response","385","125078","0.0-574.0","3SPJ033422PFDSEISVPXZPYRA04JY0","ABX5OQLR6UNBC","3S829FDFT2NBOHQMM1CIOU0HZYXDXL","","62.600000001490116","img/land5.png","75","63.899999998509884","2","0","false","3","0.8,0.2,0.2,0.2,0.8,0.2,0.2,0.2,0.8","",""
"","html-keyboard-response","386","125381","0.0-575.0","3SPJ033422PFDSEISVPXZPYRA04JY0","ABX5OQLR6UNBC","3S829FDFT2NBOHQMM1CIOU0HZYXDXL","","null","<img src=""img/land5.png"" style=""width:200px;border:14px solid red;"">","null","","","","","","","",""
"","image-keyboard-response","387","125439","0.0-577.0","3SPJ033422PFDSEISVPXZPYRA04JY0","ABX5OQLR6UNBC","3S829FDFT2NBOHQMM1CIOU0HZYXDXL","","55.400000005960464","img/land5.png","75","57","2","1","false","3","0.8,0.2,0.2,0.2,0.8,0.2,0.2,0.2,0.8","",""
"","html-keyboard-response","388","125741","0.0-578.0","3SPJ033422PFDSEISVPXZPYRA04JY0","ABX5OQLR6UNBC","3S829FDFT2NBOHQMM1CIOU0HZYXDXL","","null","<img src=""img/land5.png"" style=""width:200px; border:14px solid green;"">","null","","","","","","","",""
"","image-keyboard-response","389","125774","0.0-580.0","3SPJ033422PFDSEISVPXZPYRA04JY0","ABX5OQLR6UNBC","3S829FDFT2NBOHQMM1CIOU0HZYXDXL","","32.100000001490116","img/land5.png","75","33","2","0","false","3","0.8,0.2,0.2,0.2,0.8,0.2,0.2,0.2,0.8","",""
