"success","trial_type","trial_index","time_elapsed","internal_node_id","assignmentID","mturkID","hitID","view_history","rt","stimulus","key_press","reactionTime","a","r","s","cond","reward_cond","reward_cond_actual","reward_matrix_idx","responses","question_order"
"true","fullscreen","0","3820","0.0-0.0","3VA45EW49O9WOXUCWJATTY435RTO1H","ACJ6NSCIWMUZI","3AQN9REUTF20OMGWRXYK787Q1B1YD0","","","","","","","","","","","","","",""
"","instructions","1","13008","0.0-1.0","3VA45EW49O9WOXUCWJATTY435RTO1H","ACJ6NSCIWMUZI","3AQN9REUTF20OMGWRXYK787Q1B1YD0","[{""page_index"":0,""viewing_time"":1428.0999999996275},{""page_index"":1,""viewing_time"":960.3000000007451},{""page_index"":2,""viewing_time"":783.3999999985099},{""page_index"":3,""viewing_time"":1639.2000000011176},{""page_index"":4,""viewing_time"":1893.7999999988824},{""page_index"":5,""viewing_time"":1310.9000000003725},{""page_index"":6,""viewing_time"":1169.0999999996275}]","9186.299999998882","","","","","","","","","","","",""
"","image-keyboard-response","2","14743","0.0-2.0","3VA45EW49O9WOXUCWJATTY435RTO1H","ACJ6NSCIWMUZI","3AQN9REUTF20OMGWRXYK787Q1B1YD0","","1732.3999999985099","img/land2.png","76","1734.5","3","1","2","2","1,0.7,0.7,0.7,1,0.7,0.7,0.7,1","1,0.7,0.7,0.7,1,0.7,0.7,0.7,1","","",""
"","html-keyboard-response","3","15052","0.0-3.0","3VA45EW49O9WOXUCWJATTY435RTO1H","ACJ6NSCIWMUZI","3AQN9REUTF20OMGWRXYK787Q1B1YD0","","null","<img src=""img/land2.png"" style=""width:200px; border:14px solid green;"">","null","","","","","","","","","",""
"","image-keyboard-response","4","15127","0.0-4.0","3VA45EW49O9WOXUCWJATTY435RTO1H","ACJ6NSCIWMUZI","3AQN9REUTF20OMGWRXYK787Q1B1YD0","","73.40000000037253","img/land2.png","75","74.90000000037253","2","1","2","2","1,0.7,0.7,0.7,1,0.7,0.7,0.7,1","1,0.7,0.7,0.7,1,0.7,0.7,0.7,1","","",""
"","html-keyboard-response","5","15436","0.0-5.0","3VA45EW49O9WOXUCWJATTY435RTO1H","ACJ6NSCIWMUZI","3AQN9REUTF20OMGWRXYK787Q1B1YD0","","null","<img src=""img/land2.png"" style=""width:200px; border:14px solid green;"">","null","","","","","","","","","",""
"","image-keyboard-response","6","15490","0.0-6.0","3VA45EW49O9WOXUCWJATTY435RTO1H","ACJ6NSCIWMUZI","3AQN9REUTF20OMGWRXYK787Q1B1YD0","","51.90000000037253","img/land2.png","76","53.5","3","0","2","2","1,0.7,0.7,0.7,1,0.7,0.7,0.7,1","1,0.7,0.7,0.7,1,0.7,0.7,0.7,1","","",""
"","html-keyboard-response","7","15795","0.0-7.0","3VA45EW49O9WOXUCWJATTY435RTO1H","ACJ6NSCIWMUZI","3AQN9REUTF20OMGWRXYK787Q1B1YD0","","null","<img src=""img/land2.png"" style=""width:200px;border:14px solid red;"">","null","","","","","","","","","",""
"","image-keyboard-response","8","15829","0.0-8.0","3VA45EW49O9WOXUCWJATTY435RTO1H","ACJ6NSCIWMUZI","3AQN9REUTF20OMGWRXYK787Q1B1YD0","","32","img/land2.png","75","33.5","2","1","2","2","1,0.7,0.7,0.7,1,0.7,0.7,0.7,1","1,0.7,0.7,0.7,1,0.7,0.7,0.7,1","","",""
"","html-keyboard-response","9","16132","0.0-9.0","3VA45EW49O9WOXUCWJATTY435RTO1H","ACJ6NSCIWMUZI","3AQN9REUTF20OMGWRXYK787Q1B1YD0","","null","<img src=""img/land2.png"" style=""width:200px; border:14px solid green;"">","null","","","","","","","","","",""
"","image-keyboard-response","10","16165","0.0-10.0","3VA45EW49O9WOXUCWJATTY435RTO1H","ACJ6NSCIWMUZI","3AQN9REUTF20OMGWRXYK787Q1B1YD0","","30.300000000745058","img/land2.png","74","32.600000001490116","1","1","2","2","1,0.7,0.7,0.7,1,0.7,0.7,0.7,1","1,0.7,0.7,0.7,1,0.7,0.7,0.7,1","","",""
"","html-keyboard-response","11","16469","0.0-11.0","3VA45EW49O9WOXUCWJATTY435RTO1H","ACJ6NSCIWMUZI","3AQN9REUTF20OMGWRXYK787Q1B1YD0","","null","<img src=""img/land2.png"" style=""width:200px; border:14px solid green;"">","null","","","","","","","","","",""
"","image-keyboard-response","12","16501","0.0-12.0","3VA45EW49O9WOXUCWJATTY435RTO1H","ACJ6NSCIWMUZI","3AQN9REUTF20OMGWRXYK787Q1B1YD0","","31.300000000745058","img/land1.png","74","32.69999999925494","1","1","1","2","1,0.7,0.7,0.7,1,0.7,0.7,0.7,1","1,0.7,0.7,0.7,1,0.7,0.7,0.7,1","","",""
"","html-keyboard-response","13","16804","0.0-13.0","3VA45EW49O9WOXUCWJATTY435RTO1H","ACJ6NSCIWMUZI","3AQN9REUTF20OMGWRXYK787Q1B1YD0","","null","<img src=""img/land1.png"" style=""width:200px; border:14px solid green;"">","null","","","","","","","","","",""
"","image-keyboard-response","14","16917","0.0-14.0","3VA45EW49O9WOXUCWJATTY435RTO1H","ACJ6NSCIWMUZI","3AQN9REUTF20OMGWRXYK787Q1B1YD0","","110.59999999962747","img/land2.png","74","112.40000000037253","1","1","2","2","1,0.7,0.7,0.7,1,0.7,0.7,0.7,1","1,0.7,0.7,0.7,1,0.7,0.7,0.7,1","","",""
"","html-keyboard-response","15","17219","0.0-15.0","3VA45EW49O9WOXUCWJATTY435RTO1H","ACJ6NSCIWMUZI","3AQN9REUTF20OMGWRXYK787Q1B1YD0","","null","<img src=""img/land2.png"" style=""width:200px; border:14px solid green;"">","null","","","","","","","","","",""
"","image-keyboard-response","16","17312","0.0-16.0","3VA45EW49O9WOXUCWJATTY435RTO1H","ACJ6NSCIWMUZI","3AQN9REUTF20OMGWRXYK787Q1B1YD0","","89.80000000074506","img/land3.png","75","92.20000000111759","2","1","3","2","1,0.7,0.7,0.7,1,0.7,0.7,0.7,1","1,0.7,0.7,0.7,1,0.7,0.7,0.7,1","","",""
"","html-keyboard-response","17","17619","0.0-17.0","3VA45EW49O9WOXUCWJATTY435RTO1H","ACJ6NSCIWMUZI","3AQN9REUTF20OMGWRXYK787Q1B1YD0","","null","<img src=""img/land3.png"" style=""width:200px; border:14px solid green;"">","null","","","","","","","","","",""
"","image-keyboard-response","18","17622","0.0-18.0","3VA45EW49O9WOXUCWJATTY435RTO1H","ACJ6NSCIWMUZI","3AQN9REUTF20OMGWRXYK787Q1B1YD0","","1.200000001117587","img/land1.png","74","2.400000000372529","1","1","1","2","1,0.7,0.7,0.7,1,0.7,0.7,0.7,1","1,0.7,0.7,0.7,1,0.7,0.7,0.7,1","","",""
"","html-keyboard-response","19","17932","0.0-19.0","3VA45EW49O9WOXUCWJATTY435RTO1H","ACJ6NSCIWMUZI","3AQN9REUTF20OMGWRXYK787Q1B1YD0","","null","<img src=""img/land1.png"" style=""width:200px; border:14px solid green;"">","null","","","","","","","","","",""
"","image-keyboard-response","20","18012","0.0-20.0","3VA45EW49O9WOXUCWJATTY435RTO1H","ACJ6NSCIWMUZI","3AQN9REUTF20OMGWRXYK787Q1B1YD0","","78.40000000037253","img/land2.png","75","80.09999999962747","2","1","2","2","1,0.7,0.7,0.7,1,0.7,0.7,0.7,1","1,0.7,0.7,0.7,1,0.7,0.7,0.7,1","","",""
"","html-keyboard-response","21","18316","0.0-21.0","3VA45EW49O9WOXUCWJATTY435RTO1H","ACJ6NSCIWMUZI","3AQN9REUTF20OMGWRXYK787Q1B1YD0","","null","<img src=""img/land2.png"" style=""width:200px; border:14px solid green;"">","null","","","","","","","","","",""
"","image-keyboard-response","22","18396","0.0-22.0","3VA45EW49O9WOXUCWJATTY435RTO1H","ACJ6NSCIWMUZI","3AQN9REUTF20OMGWRXYK787Q1B1YD0","","78.29999999888241","img/land2.png","74","80","1","1","2","2","1,0.7,0.7,0.7,1,0.7,0.7,0.7,1","1,0.7,0.7,0.7,1,0.7,0.7,0.7,1","","",""
"","html-keyboard-response","23","18700","0.0-23.0","3VA45EW49O9WOXUCWJATTY435RTO1H","ACJ6NSCIWMUZI","3AQN9REUTF20OMGWRXYK787Q1B1YD0","","null","<img src=""img/land2.png"" style=""width:200px; border:14px solid green;"">","null","","","","","","","","","",""
"","image-keyboard-response","24","18806","0.0-24.0","3VA45EW49O9WOXUCWJATTY435RTO1H","ACJ6NSCIWMUZI","3AQN9REUTF20OMGWRXYK787Q1B1YD0","","104.79999999888241","img/land2.png","75","106.20000000111759","2","1","2","2","1,0.7,0.7,0.7,1,0.7,0.7,0.7,1","1,0.7,0.7,0.7,1,0.7,0.7,0.7,1","","",""
"","html-keyboard-response","25","19116","0.0-25.0","3VA45EW49O9WOXUCWJATTY435RTO1H","ACJ6NSCIWMUZI","3AQN9REUTF20OMGWRXYK787Q1B1YD0","","null","<img src=""img/land2.png"" style=""width:200px; border:14px solid green;"">","null","","","","","","","","","",""
"","image-keyboard-response","26","19164","0.0-26.0","3VA45EW49O9WOXUCWJATTY435RTO1H","ACJ6NSCIWMUZI","3AQN9REUTF20OMGWRXYK787Q1B1YD0","","46.5","img/land3.png","74","47.70000000111759","1","0","3","2","1,0.7,0.7,0.7,1,0.7,0.7,0.7,1","1,0.7,0.7,0.7,1,0.7,0.7,0.7,1","","",""
"","html-keyboard-response","27","19467","0.0-27.0","3VA45EW49O9WOXUCWJATTY435RTO1H","ACJ6NSCIWMUZI","3AQN9REUTF20OMGWRXYK787Q1B1YD0","","null","<img src=""img/land3.png"" style=""width:200px;border:14px solid red;"">","null","","","","","","","","","",""
"","image-keyboard-response","28","19646","0.0-28.0","3VA45EW49O9WOXUCWJATTY435RTO1H","ACJ6NSCIWMUZI","3AQN9REUTF20OMGWRXYK787Q1B1YD0","","176.80000000074506","img/land1.png","76","178","3","1","1","2","1,0.7,0.7,0.7,1,0.7,0.7,0.7,1","1,0.7,0.7,0.7,1,0.7,0.7,0.7,1","","",""
"","html-keyboard-response","29","19948","0.0-29.0","3VA45EW49O9WOXUCWJATTY435RTO1H","ACJ6NSCIWMUZI","3AQN9REUTF20OMGWRXYK787Q1B1YD0","","null","<img src=""img/land1.png"" style=""width:200px; border:14px solid green;"">","null","","","","","","","","","",""
"","image-keyboard-response","30","19953","0.0-30.0","3VA45EW49O9WOXUCWJATTY435RTO1H","ACJ6NSCIWMUZI","3AQN9REUTF20OMGWRXYK787Q1B1YD0","","3.200000001117587","img/land2.png","76","4.600000001490116","3","1","2","2","1,0.7,0.7,0.7,1,0.7,0.7,0.7,1","1,0.7,0.7,0.7,1,0.7,0.7,0.7,1","","",""
"","html-keyboard-response","31","20260","0.0-31.0","3VA45EW49O9WOXUCWJATTY435RTO1H","ACJ6NSCIWMUZI","3AQN9REUTF20OMGWRXYK787Q1B1YD0","","null","<img src=""img/land2.png"" style=""width:200px; border:14px solid green;"">","null","","","","","","","","","",""
"","image-keyboard-response","32","20478","0.0-32.0","3VA45EW49O9WOXUCWJATTY435RTO1H","ACJ6NSCIWMUZI","3AQN9REUTF20OMGWRXYK787Q1B1YD0","","215.59999999962747","img/land2.png","74","217.5","1","0","2","2","1,0.7,0.7,0.7,1,0.7,0.7,0.7,1","1,0.7,0.7,0.7,1,0.7,0.7,0.7,1","","",""
"","html-keyboard-response","33","20780","0.0-33.0","3VA45EW49O9WOXUCWJATTY435RTO1H","ACJ6NSCIWMUZI","3AQN9REUTF20OMGWRXYK787Q1B1YD0","","null","<img src=""img/land2.png"" style=""width:200px;border:14px solid red;"">","null","","","","","","","","","",""
"","image-keyboard-response","34","20839","0.0-34.0","3VA45EW49O9WOXUCWJATTY435RTO1H","ACJ6NSCIWMUZI","3AQN9REUTF20OMGWRXYK787Q1B1YD0","","57.69999999925494","img/land3.png","75","58.90000000037253","2","0","3","2","1,0.7,0.7,0.7,1,0.7,0.7,0.7,1","1,0.7,0.7,0.7,1,0.7,0.7,0.7,1","","",""
"","html-keyboard-response","35","21148","0.0-35.0","3VA45EW49O9WOXUCWJATTY435RTO1H","ACJ6NSCIWMUZI","3AQN9REUTF20OMGWRXYK787Q1B1YD0","","null","<img src=""img/land3.png"" style=""width:200px;border:14px solid red;"">","null","","","","","","","","","",""
"","image-keyboard-response","36","21272","0.0-36.0","3VA45EW49O9WOXUCWJATTY435RTO1H","ACJ6NSCIWMUZI","3AQN9REUTF20OMGWRXYK787Q1B1YD0","","122.5","img/land1.png","74","123.90000000037253","1","1","1","2","1,0.7,0.7,0.7,1,0.7,0.7,0.7,1","1,0.7,0.7,0.7,1,0.7,0.7,0.7,1","","",""
"","html-keyboard-response","37","21580","0.0-37.0","3VA45EW49O9WOXUCWJATTY435RTO1H","ACJ6NSCIWMUZI","3AQN9REUTF20OMGWRXYK787Q1B1YD0","","null","<img src=""img/land1.png"" style=""width:200px; border:14px solid green;"">","null","","","","","","","","","",""
"","image-keyboard-response","38","21682","0.0-38.0","3VA45EW49O9WOXUCWJATTY435RTO1H","ACJ6NSCIWMUZI","3AQN9REUTF20OMGWRXYK787Q1B1YD0","","99.89999999850988","img/land2.png","75","101.5","2","1","2","2","1,0.7,0.7,0.7,1,0.7,0.7,0.7,1","1,0.7,0.7,0.7,1,0.7,0.7,0.7,1","","",""
"","html-keyboard-response","39","21987","0.0-39.0","3VA45EW49O9WOXUCWJATTY435RTO1H","ACJ6NSCIWMUZI","3AQN9REUTF20OMGWRXYK787Q1B1YD0","","null","<img src=""img/land2.png"" style=""width:200px; border:14px solid green;"">","null","","","","","","","","","",""
"","image-keyboard-response","40","22019","0.0-40.0","3VA45EW49O9WOXUCWJATTY435RTO1H","ACJ6NSCIWMUZI","3AQN9REUTF20OMGWRXYK787Q1B1YD0","","29.399999998509884","img/land2.png","74","31.40000000037253","1","1","2","2","1,0.7,0.7,0.7,1,0.7,0.7,0.7,1","1,0.7,0.7,0.7,1,0.7,0.7,0.7,1","","",""
"","html-keyboard-response","41","22323","0.0-41.0","3VA45EW49O9WOXUCWJATTY435RTO1H","ACJ6NSCIWMUZI","3AQN9REUTF20OMGWRXYK787Q1B1YD0","","null","<img src=""img/land2.png"" style=""width:200px; border:14px solid green;"">","null","","","","","","","","","",""
"","image-keyboard-response","42","22452","0.0-42.0","3VA45EW49O9WOXUCWJATTY435RTO1H","ACJ6NSCIWMUZI","3AQN9REUTF20OMGWRXYK787Q1B1YD0","","126.39999999850988","img/land3.png","75","128","2","0","3","2","1,0.7,0.7,0.7,1,0.7,0.7,0.7,1","1,0.7,0.7,0.7,1,0.7,0.7,0.7,1","","",""
"","html-keyboard-response","43","22755","0.0-43.0","3VA45EW49O9WOXUCWJATTY435RTO1H","ACJ6NSCIWMUZI","3AQN9REUTF20OMGWRXYK787Q1B1YD0","","null","<img src=""img/land3.png"" style=""width:200px;border:14px solid red;"">","null","","","","","","","","","",""
"","image-keyboard-response","44","22770","0.0-44.0","3VA45EW49O9WOXUCWJATTY435RTO1H","ACJ6NSCIWMUZI","3AQN9REUTF20OMGWRXYK787Q1B1YD0","","12.799999998882413","img/land3.png","76","14.300000000745058","3","1","3","2","1,0.7,0.7,0.7,1,0.7,0.7,0.7,1","1,0.7,0.7,0.7,1,0.7,0.7,0.7,1","","",""
"","html-keyboard-response","45","23076","0.0-45.0","3VA45EW49O9WOXUCWJATTY435RTO1H","ACJ6NSCIWMUZI","3AQN9REUTF20OMGWRXYK787Q1B1YD0","","null","<img src=""img/land3.png"" style=""width:200px; border:14px solid green;"">","null","","","","","","","","","",""
"","image-keyboard-response","46","23080","0.0-46.0","3VA45EW49O9WOXUCWJATTY435RTO1H","ACJ6NSCIWMUZI","3AQN9REUTF20OMGWRXYK787Q1B1YD0","","2.599999999627471","img/land1.png","76","4.200000001117587","3","0","1","2","1,0.7,0.7,0.7,1,0.7,0.7,0.7,1","1,0.7,0.7,0.7,1,0.7,0.7,0.7,1","","",""
"","html-keyboard-response","47","23388","0.0-47.0","3VA45EW49O9WOXUCWJATTY435RTO1H","ACJ6NSCIWMUZI","3AQN9REUTF20OMGWRXYK787Q1B1YD0","","null","<img src=""img/land1.png"" style=""width:200px;border:14px solid red;"">","null","","","","","","","","","",""
"","image-keyboard-response","48","23536","0.0-48.0","3VA45EW49O9WOXUCWJATTY435RTO1H","ACJ6NSCIWMUZI","3AQN9REUTF20OMGWRXYK787Q1B1YD0","","146.19999999925494","img/land3.png","76","147.90000000037253","3","1","3","2","1,0.7,0.7,0.7,1,0.7,0.7,0.7,1","1,0.7,0.7,0.7,1,0.7,0.7,0.7,1","","",""
"","html-keyboard-response","49","23843","0.0-49.0","3VA45EW49O9WOXUCWJATTY435RTO1H","ACJ6NSCIWMUZI","3AQN9REUTF20OMGWRXYK787Q1B1YD0","","null","<img src=""img/land3.png"" style=""width:200px; border:14px solid green;"">","null","","","","","","","","","",""
"","image-keyboard-response","50","23918","0.0-50.0","3VA45EW49O9WOXUCWJATTY435RTO1H","ACJ6NSCIWMUZI","3AQN9REUTF20OMGWRXYK787Q1B1YD0","","72.70000000111759","img/land1.png","74","74","1","1","1","2","1,0.7,0.7,0.7,1,0.7,0.7,0.7,1","1,0.7,0.7,0.7,1,0.7,0.7,0.7,1","","",""
"","html-keyboard-response","51","24219","0.0-51.0","3VA45EW49O9WOXUCWJATTY435RTO1H","ACJ6NSCIWMUZI","3AQN9REUTF20OMGWRXYK787Q1B1YD0","","null","<img src=""img/land1.png"" style=""width:200px; border:14px solid green;"">","null","","","","","","","","","",""
"","image-keyboard-response","52","24336","0.0-52.0","3VA45EW49O9WOXUCWJATTY435RTO1H","ACJ6NSCIWMUZI","3AQN9REUTF20OMGWRXYK787Q1B1YD0","","115","img/land2.png","76","116.39999999850988","3","1","2","2","1,0.7,0.7,0.7,1,0.7,0.7,0.7,1","1,0.7,0.7,0.7,1,0.7,0.7,0.7,1","","",""
"","html-keyboard-response","53","24644","0.0-53.0","3VA45EW49O9WOXUCWJATTY435RTO1H","ACJ6NSCIWMUZI","3AQN9REUTF20OMGWRXYK787Q1B1YD0","","null","<img src=""img/land2.png"" style=""width:200px; border:14px solid green;"">","null","","","","","","","","","",""
"","image-keyboard-response","54","24671","0.0-54.0","3VA45EW49O9WOXUCWJATTY435RTO1H","ACJ6NSCIWMUZI","3AQN9REUTF20OMGWRXYK787Q1B1YD0","","25.09999999962747","img/land1.png","75","26.59999999962747","2","0","1","2","1,0.7,0.7,0.7,1,0.7,0.7,0.7,1","1,0.7,0.7,0.7,1,0.7,0.7,0.7,1","","",""
"","html-keyboard-response","55","24980","0.0-55.0","3VA45EW49O9WOXUCWJATTY435RTO1H","ACJ6NSCIWMUZI","3AQN9REUTF20OMGWRXYK787Q1B1YD0","","null","<img src=""img/land1.png"" style=""width:200px;border:14px solid red;"">","null","","","","","","","","","",""
"","image-keyboard-response","56","25014","0.0-56.0","3VA45EW49O9WOXUCWJATTY435RTO1H","ACJ6NSCIWMUZI","3AQN9REUTF20OMGWRXYK787Q1B1YD0","","32.69999999925494","img/land2.png","74","34","1","1","2","2","1,0.7,0.7,0.7,1,0.7,0.7,0.7,1","1,0.7,0.7,0.7,1,0.7,0.7,0.7,1","","",""
"","html-keyboard-response","57","25324","0.0-57.0","3VA45EW49O9WOXUCWJATTY435RTO1H","ACJ6NSCIWMUZI","3AQN9REUTF20OMGWRXYK787Q1B1YD0","","null","<img src=""img/land2.png"" style=""width:200px; border:14px solid green;"">","null","","","","","","","","","",""
"","image-keyboard-response","58","25385","0.0-58.0","3VA45EW49O9WOXUCWJATTY435RTO1H","ACJ6NSCIWMUZI","3AQN9REUTF20OMGWRXYK787Q1B1YD0","","59.90000000037253","img/land2.png","76","61.30000000074506","3","1","2","2","1,0.7,0.7,0.7,1,0.7,0.7,0.7,1","1,0.7,0.7,0.7,1,0.7,0.7,0.7,1","","",""
"","html-keyboard-response","59","25692","0.0-59.0","3VA45EW49O9WOXUCWJATTY435RTO1H","ACJ6NSCIWMUZI","3AQN9REUTF20OMGWRXYK787Q1B1YD0","","null","<img src=""img/land2.png"" style=""width:200px; border:14px solid green;"">","null","","","","","","","","","",""
"","image-keyboard-response","60","25768","0.0-60.0","3VA45EW49O9WOXUCWJATTY435RTO1H","ACJ6NSCIWMUZI","3AQN9REUTF20OMGWRXYK787Q1B1YD0","","74.09999999962747","img/land2.png","74","75.90000000037253","1","0","2","2","1,0.7,0.7,0.7,1,0.7,0.7,0.7,1","1,0.7,0.7,0.7,1,0.7,0.7,0.7,1","","",""
"","html-keyboard-response","61","26075","0.0-61.0","3VA45EW49O9WOXUCWJATTY435RTO1H","ACJ6NSCIWMUZI","3AQN9REUTF20OMGWRXYK787Q1B1YD0","","null","<img src=""img/land2.png"" style=""width:200px;border:14px solid red;"">","null","","","","","","","","","",""
"","image-keyboard-response","62","26107","0.0-62.0","3VA45EW49O9WOXUCWJATTY435RTO1H","ACJ6NSCIWMUZI","3AQN9REUTF20OMGWRXYK787Q1B1YD0","","30.199999999254942","img/land3.png","76","31.700000001117587","3","1","3","2","1,0.7,0.7,0.7,1,0.7,0.7,0.7,1","1,0.7,0.7,0.7,1,0.7,0.7,0.7,1","","",""
"","html-keyboard-response","63","26412","0.0-63.0","3VA45EW49O9WOXUCWJATTY435RTO1H","ACJ6NSCIWMUZI","3AQN9REUTF20OMGWRXYK787Q1B1YD0","","null","<img src=""img/land3.png"" style=""width:200px; border:14px solid green;"">","null","","","","","","","","","",""
"","image-keyboard-response","64","26541","0.0-64.0","3VA45EW49O9WOXUCWJATTY435RTO1H","ACJ6NSCIWMUZI","3AQN9REUTF20OMGWRXYK787Q1B1YD0","","127.69999999925494","img/land3.png","75","129.30000000074506","2","1","3","2","1,0.7,0.7,0.7,1,0.7,0.7,0.7,1","1,0.7,0.7,0.7,1,0.7,0.7,0.7,1","","",""
"","html-keyboard-response","65","26844","0.0-65.0","3VA45EW49O9WOXUCWJATTY435RTO1H","ACJ6NSCIWMUZI","3AQN9REUTF20OMGWRXYK787Q1B1YD0","","null","<img src=""img/land3.png"" style=""width:200px; border:14px solid green;"">","null","","","","","","","","","",""
"","image-keyboard-response","66","26855","0.0-66.0","3VA45EW49O9WOXUCWJATTY435RTO1H","ACJ6NSCIWMUZI","3AQN9REUTF20OMGWRXYK787Q1B1YD0","","9.799999998882413","img/land2.png","75","10.900000000372529","2","1","2","2","1,0.7,0.7,0.7,1,0.7,0.7,0.7,1","1,0.7,0.7,0.7,1,0.7,0.7,0.7,1","","",""
"","html-keyboard-response","67","27164","0.0-67.0","3VA45EW49O9WOXUCWJATTY435RTO1H","ACJ6NSCIWMUZI","3AQN9REUTF20OMGWRXYK787Q1B1YD0","","null","<img src=""img/land2.png"" style=""width:200px; border:14px solid green;"">","null","","","","","","","","","",""
"","image-keyboard-response","68","27251","0.0-68.0","3VA45EW49O9WOXUCWJATTY435RTO1H","ACJ6NSCIWMUZI","3AQN9REUTF20OMGWRXYK787Q1B1YD0","","85.80000000074506","img/land3.png","76","87","3","1","3","2","1,0.7,0.7,0.7,1,0.7,0.7,0.7,1","1,0.7,0.7,0.7,1,0.7,0.7,0.7,1","","",""
"","html-keyboard-response","69","27556","0.0-69.0","3VA45EW49O9WOXUCWJATTY435RTO1H","ACJ6NSCIWMUZI","3AQN9REUTF20OMGWRXYK787Q1B1YD0","","null","<img src=""img/land3.png"" style=""width:200px; border:14px solid green;"">","null","","","","","","","","","",""
"","image-keyboard-response","70","27636","0.0-70.0","3VA45EW49O9WOXUCWJATTY435RTO1H","ACJ6NSCIWMUZI","3AQN9REUTF20OMGWRXYK787Q1B1YD0","","77.19999999925494","img/land2.png","74","79.5","1","1","2","2","1,0.7,0.7,0.7,1,0.7,0.7,0.7,1","1,0.7,0.7,0.7,1,0.7,0.7,0.7,1","","",""
"","html-keyboard-response","71","27940","0.0-71.0","3VA45EW49O9WOXUCWJATTY435RTO1H","ACJ6NSCIWMUZI","3AQN9REUTF20OMGWRXYK787Q1B1YD0","","null","<img src=""img/land2.png"" style=""width:200px; border:14px solid green;"">","null","","","","","","","","","",""
"","image-keyboard-response","72","28114","0.0-72.0","3VA45EW49O9WOXUCWJATTY435RTO1H","ACJ6NSCIWMUZI","3AQN9REUTF20OMGWRXYK787Q1B1YD0","","172.30000000074506","img/land2.png","76","174.40000000037253","3","1","2","2","1,0.7,0.7,0.7,1,0.7,0.7,0.7,1","1,0.7,0.7,0.7,1,0.7,0.7,0.7,1","","",""
"","html-keyboard-response","73","28420","0.0-73.0","3VA45EW49O9WOXUCWJATTY435RTO1H","ACJ6NSCIWMUZI","3AQN9REUTF20OMGWRXYK787Q1B1YD0","","null","<img src=""img/land2.png"" style=""width:200px; border:14px solid green;"">","null","","","","","","","","","",""
"","image-keyboard-response","74","28472","0.0-74.0","3VA45EW49O9WOXUCWJATTY435RTO1H","ACJ6NSCIWMUZI","3AQN9REUTF20OMGWRXYK787Q1B1YD0","","50","img/land1.png","74","51.79999999888241","1","1","1","2","1,0.7,0.7,0.7,1,0.7,0.7,0.7,1","1,0.7,0.7,0.7,1,0.7,0.7,0.7,1","","",""
"","html-keyboard-response","75","28780","0.0-75.0","3VA45EW49O9WOXUCWJATTY435RTO1H","ACJ6NSCIWMUZI","3AQN9REUTF20OMGWRXYK787Q1B1YD0","","null","<img src=""img/land1.png"" style=""width:200px; border:14px solid green;"">","null","","","","","","","","","",""
"","image-keyboard-response","76","29000","0.0-76.0","3VA45EW49O9WOXUCWJATTY435RTO1H","ACJ6NSCIWMUZI","3AQN9REUTF20OMGWRXYK787Q1B1YD0","","218.69999999925494","img/land2.png","76","220","3","1","2","2","1,0.7,0.7,0.7,1,0.7,0.7,0.7,1","1,0.7,0.7,0.7,1,0.7,0.7,0.7,1","","",""
"","html-keyboard-response","77","29307","0.0-77.0","3VA45EW49O9WOXUCWJATTY435RTO1H","ACJ6NSCIWMUZI","3AQN9REUTF20OMGWRXYK787Q1B1YD0","","null","<img src=""img/land2.png"" style=""width:200px; border:14px solid green;"">","null","","","","","","","","","",""
"","image-keyboard-response","78","29333","0.0-78.0","3VA45EW49O9WOXUCWJATTY435RTO1H","ACJ6NSCIWMUZI","3AQN9REUTF20OMGWRXYK787Q1B1YD0","","24","img/land1.png","76","25.40000000037253","3","1","1","2","1,0.7,0.7,0.7,1,0.7,0.7,0.7,1","1,0.7,0.7,0.7,1,0.7,0.7,0.7,1","","",""
"","html-keyboard-response","79","29636","0.0-79.0","3VA45EW49O9WOXUCWJATTY435RTO1H","ACJ6NSCIWMUZI","3AQN9REUTF20OMGWRXYK787Q1B1YD0","","null","<img src=""img/land1.png"" style=""width:200px; border:14px solid green;"">","null","","","","","","","","","",""
"","image-keyboard-response","80","29771","0.0-80.0","3VA45EW49O9WOXUCWJATTY435RTO1H","ACJ6NSCIWMUZI","3AQN9REUTF20OMGWRXYK787Q1B1YD0","","133","img/land2.png","76","135","3","0","2","2","1,0.7,0.7,0.7,1,0.7,0.7,0.7,1","1,0.7,0.7,0.7,1,0.7,0.7,0.7,1","","",""
"","html-keyboard-response","81","30076","0.0-81.0","3VA45EW49O9WOXUCWJATTY435RTO1H","ACJ6NSCIWMUZI","3AQN9REUTF20OMGWRXYK787Q1B1YD0","","null","<img src=""img/land2.png"" style=""width:200px;border:14px solid red;"">","null","","","","","","","","","",""
"","image-keyboard-response","82","30248","0.0-82.0","3VA45EW49O9WOXUCWJATTY435RTO1H","ACJ6NSCIWMUZI","3AQN9REUTF20OMGWRXYK787Q1B1YD0","","169.5","img/land1.png","75","171.30000000074506","2","1","1","2","1,0.7,0.7,0.7,1,0.7,0.7,0.7,1","1,0.7,0.7,0.7,1,0.7,0.7,0.7,1","","",""
"","html-keyboard-response","83","30553","0.0-83.0","3VA45EW49O9WOXUCWJATTY435RTO1H","ACJ6NSCIWMUZI","3AQN9REUTF20OMGWRXYK787Q1B1YD0","","null","<img src=""img/land1.png"" style=""width:200px; border:14px solid green;"">","null","","","","","","","","","",""
"","image-keyboard-response","84","30559","0.0-84.0","3VA45EW49O9WOXUCWJATTY435RTO1H","ACJ6NSCIWMUZI","3AQN9REUTF20OMGWRXYK787Q1B1YD0","","4.099999999627471","img/land3.png","75","5.5","2","1","3","2","1,0.7,0.7,0.7,1,0.7,0.7,0.7,1","1,0.7,0.7,0.7,1,0.7,0.7,0.7,1","","",""
"","html-keyboard-response","85","30868","0.0-85.0","3VA45EW49O9WOXUCWJATTY435RTO1H","ACJ6NSCIWMUZI","3AQN9REUTF20OMGWRXYK787Q1B1YD0","","null","<img src=""img/land3.png"" style=""width:200px; border:14px solid green;"">","null","","","","","","","","","",""
"","image-keyboard-response","86","30870","0.0-86.0","3VA45EW49O9WOXUCWJATTY435RTO1H","ACJ6NSCIWMUZI","3AQN9REUTF20OMGWRXYK787Q1B1YD0","","0.2999999988824129","img/land1.png","75","1.5","2","1","1","2","1,0.7,0.7,0.7,1,0.7,0.7,0.7,1","1,0.7,0.7,0.7,1,0.7,0.7,0.7,1","","",""
"","html-keyboard-response","87","31172","0.0-87.0","3VA45EW49O9WOXUCWJATTY435RTO1H","ACJ6NSCIWMUZI","3AQN9REUTF20OMGWRXYK787Q1B1YD0","","null","<img src=""img/land1.png"" style=""width:200px; border:14px solid green;"">","null","","","","","","","","","",""
"","image-keyboard-response","88","31282","0.0-88.0","3VA45EW49O9WOXUCWJATTY435RTO1H","ACJ6NSCIWMUZI","3AQN9REUTF20OMGWRXYK787Q1B1YD0","","108.5","img/land2.png","74","110.09999999962747","1","1","2","2","1,0.7,0.7,0.7,1,0.7,0.7,0.7,1","1,0.7,0.7,0.7,1,0.7,0.7,0.7,1","","",""
"","html-keyboard-response","89","31587","0.0-89.0","3VA45EW49O9WOXUCWJATTY435RTO1H","ACJ6NSCIWMUZI","3AQN9REUTF20OMGWRXYK787Q1B1YD0","","null","<img src=""img/land2.png"" style=""width:200px; border:14px solid green;"">","null","","","","","","","","","",""
"","image-keyboard-response","90","31603","0.0-90.0","3VA45EW49O9WOXUCWJATTY435RTO1H","ACJ6NSCIWMUZI","3AQN9REUTF20OMGWRXYK787Q1B1YD0","","13.599999999627471","img/land2.png","74","15","1","1","2","2","1,0.7,0.7,0.7,1,0.7,0.7,0.7,1","1,0.7,0.7,0.7,1,0.7,0.7,0.7,1","","",""
"","html-keyboard-response","91","31908","0.0-91.0","3VA45EW49O9WOXUCWJATTY435RTO1H","ACJ6NSCIWMUZI","3AQN9REUTF20OMGWRXYK787Q1B1YD0","","null","<img src=""img/land2.png"" style=""width:200px; border:14px solid green;"">","null","","","","","","","","","",""
"","image-keyboard-response","92","31942","0.0-92.0","3VA45EW49O9WOXUCWJATTY435RTO1H","ACJ6NSCIWMUZI","3AQN9REUTF20OMGWRXYK787Q1B1YD0","","32.59999999962747","img/land3.png","74","33.79999999888241","1","1","3","2","1,0.7,0.7,0.7,1,0.7,0.7,0.7,1","1,0.7,0.7,0.7,1,0.7,0.7,0.7,1","","",""
"","html-keyboard-response","93","32244","0.0-93.0","3VA45EW49O9WOXUCWJATTY435RTO1H","ACJ6NSCIWMUZI","3AQN9REUTF20OMGWRXYK787Q1B1YD0","","null","<img src=""img/land3.png"" style=""width:200px; border:14px solid green;"">","null","","","","","","","","","",""
"","image-keyboard-response","94","32359","0.0-94.0","3VA45EW49O9WOXUCWJATTY435RTO1H","ACJ6NSCIWMUZI","3AQN9REUTF20OMGWRXYK787Q1B1YD0","","113.60000000149012","img/land2.png","75","115","2","1","2","2","1,0.7,0.7,0.7,1,0.7,0.7,0.7,1","1,0.7,0.7,0.7,1,0.7,0.7,0.7,1","","",""
"","html-keyboard-response","95","32668","0.0-95.0","3VA45EW49O9WOXUCWJATTY435RTO1H","ACJ6NSCIWMUZI","3AQN9REUTF20OMGWRXYK787Q1B1YD0","","null","<img src=""img/land2.png"" style=""width:200px; border:14px solid green;"">","null","","","","","","","","","",""
"","image-keyboard-response","96","32840","0.0-96.0","3VA45EW49O9WOXUCWJATTY435RTO1H","ACJ6NSCIWMUZI","3AQN9REUTF20OMGWRXYK787Q1B1YD0","","170.5","img/land3.png","75","171.90000000037253","2","1","3","2","1,0.7,0.7,0.7,1,0.7,0.7,0.7,1","1,0.7,0.7,0.7,1,0.7,0.7,0.7,1","","",""
"","html-keyboard-response","97","33148","0.0-97.0","3VA45EW49O9WOXUCWJATTY435RTO1H","ACJ6NSCIWMUZI","3AQN9REUTF20OMGWRXYK787Q1B1YD0","","null","<img src=""img/land3.png"" style=""width:200px; border:14px solid green;"">","null","","","","","","","","","",""
"","image-keyboard-response","98","33153","0.0-98.0","3VA45EW49O9WOXUCWJATTY435RTO1H","ACJ6NSCIWMUZI","3AQN9REUTF20OMGWRXYK787Q1B1YD0","","3.699999999254942","img/land2.png","74","5.099999999627471","1","1","2","2","1,0.7,0.7,0.7,1,0.7,0.7,0.7,1","1,0.7,0.7,0.7,1,0.7,0.7,0.7,1","","",""
"","html-keyboard-response","99","33460","0.0-99.0","3VA45EW49O9WOXUCWJATTY435RTO1H","ACJ6NSCIWMUZI","3AQN9REUTF20OMGWRXYK787Q1B1YD0","","null","<img src=""img/land2.png"" style=""width:200px; border:14px solid green;"">","null","","","","","","","","","",""
"","image-keyboard-response","100","33564","0.0-100.0","3VA45EW49O9WOXUCWJATTY435RTO1H","ACJ6NSCIWMUZI","3AQN9REUTF20OMGWRXYK787Q1B1YD0","","102.5","img/land2.png","74","103.90000000037253","1","1","2","2","1,0.7,0.7,0.7,1,0.7,0.7,0.7,1","1,0.7,0.7,0.7,1,0.7,0.7,0.7,1","","",""
"","html-keyboard-response","101","33869","0.0-101.0","3VA45EW49O9WOXUCWJATTY435RTO1H","ACJ6NSCIWMUZI","3AQN9REUTF20OMGWRXYK787Q1B1YD0","","null","<img src=""img/land2.png"" style=""width:200px; border:14px solid green;"">","null","","","","","","","","","",""
"","image-keyboard-response","102","34003","0.0-102.0","3VA45EW49O9WOXUCWJATTY435RTO1H","ACJ6NSCIWMUZI","3AQN9REUTF20OMGWRXYK787Q1B1YD0","","132.30000000074506","img/land2.png","75","133.7000000011176","2","1","2","2","1,0.7,0.7,0.7,1,0.7,0.7,0.7,1","1,0.7,0.7,0.7,1,0.7,0.7,0.7,1","","",""
"","html-keyboard-response","103","34308","0.0-103.0","3VA45EW49O9WOXUCWJATTY435RTO1H","ACJ6NSCIWMUZI","3AQN9REUTF20OMGWRXYK787Q1B1YD0","","null","<img src=""img/land2.png"" style=""width:200px; border:14px solid green;"">","null","","","","","","","","","",""
"","image-keyboard-response","104","34369","0.0-104.0","3VA45EW49O9WOXUCWJATTY435RTO1H","ACJ6NSCIWMUZI","3AQN9REUTF20OMGWRXYK787Q1B1YD0","","59.5","img/land3.png","75","60.90000000037253","2","1","3","2","1,0.7,0.7,0.7,1,0.7,0.7,0.7,1","1,0.7,0.7,0.7,1,0.7,0.7,0.7,1","","",""
"","html-keyboard-response","105","34676","0.0-105.0","3VA45EW49O9WOXUCWJATTY435RTO1H","ACJ6NSCIWMUZI","3AQN9REUTF20OMGWRXYK787Q1B1YD0","","null","<img src=""img/land3.png"" style=""width:200px; border:14px solid green;"">","null","","","","","","","","","",""
"","image-keyboard-response","106","34904","0.0-106.0","3VA45EW49O9WOXUCWJATTY435RTO1H","ACJ6NSCIWMUZI","3AQN9REUTF20OMGWRXYK787Q1B1YD0","","226","img/land1.png","75","227.80000000074506","2","1","1","2","1,0.7,0.7,0.7,1,0.7,0.7,0.7,1","1,0.7,0.7,0.7,1,0.7,0.7,0.7,1","","",""
"","html-keyboard-response","107","35212","0.0-107.0","3VA45EW49O9WOXUCWJATTY435RTO1H","ACJ6NSCIWMUZI","3AQN9REUTF20OMGWRXYK787Q1B1YD0","","null","<img src=""img/land1.png"" style=""width:200px; border:14px solid green;"">","null","","","","","","","","","",""
"","image-keyboard-response","108","35261","0.0-108.0","3VA45EW49O9WOXUCWJATTY435RTO1H","ACJ6NSCIWMUZI","3AQN9REUTF20OMGWRXYK787Q1B1YD0","","48.09999999962747","img/land2.png","74","49.40000000037253","1","0","2","2","1,0.7,0.7,0.7,1,0.7,0.7,0.7,1","1,0.7,0.7,0.7,1,0.7,0.7,0.7,1","","",""
"","html-keyboard-response","109","35572","0.0-109.0","3VA45EW49O9WOXUCWJATTY435RTO1H","ACJ6NSCIWMUZI","3AQN9REUTF20OMGWRXYK787Q1B1YD0","","null","<img src=""img/land2.png"" style=""width:200px;border:14px solid red;"">","null","","","","","","","","","",""
"","image-keyboard-response","110","35904","0.0-110.0","3VA45EW49O9WOXUCWJATTY435RTO1H","ACJ6NSCIWMUZI","3AQN9REUTF20OMGWRXYK787Q1B1YD0","","330","img/land1.png","76","331.5","3","0","1","2","1,0.7,0.7,0.7,1,0.7,0.7,0.7,1","1,0.7,0.7,0.7,1,0.7,0.7,0.7,1","","",""
"","html-keyboard-response","111","36212","0.0-111.0","3VA45EW49O9WOXUCWJATTY435RTO1H","ACJ6NSCIWMUZI","3AQN9REUTF20OMGWRXYK787Q1B1YD0","","null","<img src=""img/land1.png"" style=""width:200px;border:14px solid red;"">","null","","","","","","","","","",""
"","image-keyboard-response","112","36387","0.0-112.0","3VA45EW49O9WOXUCWJATTY435RTO1H","ACJ6NSCIWMUZI","3AQN9REUTF20OMGWRXYK787Q1B1YD0","","173.89999999850988","img/land2.png","75","175.19999999925494","2","1","2","2","1,0.7,0.7,0.7,1,0.7,0.7,0.7,1","1,0.7,0.7,0.7,1,0.7,0.7,0.7,1","","",""
"","html-keyboard-response","113","36692","0.0-113.0","3VA45EW49O9WOXUCWJATTY435RTO1H","ACJ6NSCIWMUZI","3AQN9REUTF20OMGWRXYK787Q1B1YD0","","null","<img src=""img/land2.png"" style=""width:200px; border:14px solid green;"">","null","","","","","","","","","",""
"","image-keyboard-response","114","36723","0.0-114.0","3VA45EW49O9WOXUCWJATTY435RTO1H","ACJ6NSCIWMUZI","3AQN9REUTF20OMGWRXYK787Q1B1YD0","","28.5","img/land1.png","74","30.299999998882413","1","1","1","2","1,0.7,0.7,0.7,1,0.7,0.7,0.7,1","1,0.7,0.7,0.7,1,0.7,0.7,0.7,1","","",""
"","html-keyboard-response","115","37028","0.0-115.0","3VA45EW49O9WOXUCWJATTY435RTO1H","ACJ6NSCIWMUZI","3AQN9REUTF20OMGWRXYK787Q1B1YD0","","null","<img src=""img/land1.png"" style=""width:200px; border:14px solid green;"">","null","","","","","","","","","",""
"","image-keyboard-response","116","37089","0.0-116.0","3VA45EW49O9WOXUCWJATTY435RTO1H","ACJ6NSCIWMUZI","3AQN9REUTF20OMGWRXYK787Q1B1YD0","","59.5","img/land2.png","75","60.90000000037253","2","1","2","2","1,0.7,0.7,0.7,1,0.7,0.7,0.7,1","1,0.7,0.7,0.7,1,0.7,0.7,0.7,1","","",""
"","html-keyboard-response","117","37396","0.0-117.0","3VA45EW49O9WOXUCWJATTY435RTO1H","ACJ6NSCIWMUZI","3AQN9REUTF20OMGWRXYK787Q1B1YD0","","null","<img src=""img/land2.png"" style=""width:200px; border:14px solid green;"">","null","","","","","","","","","",""
"","image-keyboard-response","118","37550","0.0-118.0","3VA45EW49O9WOXUCWJATTY435RTO1H","ACJ6NSCIWMUZI","3AQN9REUTF20OMGWRXYK787Q1B1YD0","","152.60000000149012","img/land2.png","75","154.30000000074506","2","1","2","2","1,0.7,0.7,0.7,1,0.7,0.7,0.7,1","1,0.7,0.7,0.7,1,0.7,0.7,0.7,1","","",""
"","html-keyboard-response","119","37860","0.0-119.0","3VA45EW49O9WOXUCWJATTY435RTO1H","ACJ6NSCIWMUZI","3AQN9REUTF20OMGWRXYK787Q1B1YD0","","null","<img src=""img/land2.png"" style=""width:200px; border:14px solid green;"">","null","","","","","","","","","",""
"","image-keyboard-response","120","38032","0.0-120.0","3VA45EW49O9WOXUCWJATTY435RTO1H","ACJ6NSCIWMUZI","3AQN9REUTF20OMGWRXYK787Q1B1YD0","","170.60000000149012","img/land1.png","74","172","1","1","1","2","1,0.7,0.7,0.7,1,0.7,0.7,0.7,1","1,0.7,0.7,0.7,1,0.7,0.7,0.7,1","","",""
"","html-keyboard-response","121","38340","0.0-121.0","3VA45EW49O9WOXUCWJATTY435RTO1H","ACJ6NSCIWMUZI","3AQN9REUTF20OMGWRXYK787Q1B1YD0","","null","<img src=""img/land1.png"" style=""width:200px; border:14px solid green;"">","null","","","","","","","","","",""
"","image-keyboard-response","122","38448","0.0-122.0","3VA45EW49O9WOXUCWJATTY435RTO1H","ACJ6NSCIWMUZI","3AQN9REUTF20OMGWRXYK787Q1B1YD0","","106","img/land3.png","74","107.60000000149012","1","1","3","2","1,0.7,0.7,0.7,1,0.7,0.7,0.7,1","1,0.7,0.7,0.7,1,0.7,0.7,0.7,1","","",""
"","html-keyboard-response","123","38756","0.0-123.0","3VA45EW49O9WOXUCWJATTY435RTO1H","ACJ6NSCIWMUZI","3AQN9REUTF20OMGWRXYK787Q1B1YD0","","null","<img src=""img/land3.png"" style=""width:200px; border:14px solid green;"">","null","","","","","","","","","",""
"","image-keyboard-response","124","38785","0.0-124.0","3VA45EW49O9WOXUCWJATTY435RTO1H","ACJ6NSCIWMUZI","3AQN9REUTF20OMGWRXYK787Q1B1YD0","","27","img/land2.png","75","28.5","2","1","2","2","1,0.7,0.7,0.7,1,0.7,0.7,0.7,1","1,0.7,0.7,0.7,1,0.7,0.7,0.7,1","","",""
"","html-keyboard-response","125","39092","0.0-125.0","3VA45EW49O9WOXUCWJATTY435RTO1H","ACJ6NSCIWMUZI","3AQN9REUTF20OMGWRXYK787Q1B1YD0","","null","<img src=""img/land2.png"" style=""width:200px; border:14px solid green;"">","null","","","","","","","","","",""
"","image-keyboard-response","126","39150","0.0-126.0","3VA45EW49O9WOXUCWJATTY435RTO1H","ACJ6NSCIWMUZI","3AQN9REUTF20OMGWRXYK787Q1B1YD0","","56.5","img/land2.png","74","57.90000000037253","1","1","2","2","1,0.7,0.7,0.7,1,0.7,0.7,0.7,1","1,0.7,0.7,0.7,1,0.7,0.7,0.7,1","","",""
"","html-keyboard-response","127","39460","0.0-127.0","3VA45EW49O9WOXUCWJATTY435RTO1H","ACJ6NSCIWMUZI","3AQN9REUTF20OMGWRXYK787Q1B1YD0","","null","<img src=""img/land2.png"" style=""width:200px; border:14px solid green;"">","null","","","","","","","","","",""
"","image-keyboard-response","128","39465","0.0-128.0","3VA45EW49O9WOXUCWJATTY435RTO1H","ACJ6NSCIWMUZI","3AQN9REUTF20OMGWRXYK787Q1B1YD0","","4.199999999254942","img/land2.png","75","5.400000000372529","2","1","2","2","1,0.7,0.7,0.7,1,0.7,0.7,0.7,1","1,0.7,0.7,0.7,1,0.7,0.7,0.7,1","","",""
"","html-keyboard-response","129","39771","0.0-129.0","3VA45EW49O9WOXUCWJATTY435RTO1H","ACJ6NSCIWMUZI","3AQN9REUTF20OMGWRXYK787Q1B1YD0","","null","<img src=""img/land2.png"" style=""width:200px; border:14px solid green;"">","null","","","","","","","","","",""
"","image-keyboard-response","130","39827","0.0-130.0","3VA45EW49O9WOXUCWJATTY435RTO1H","ACJ6NSCIWMUZI","3AQN9REUTF20OMGWRXYK787Q1B1YD0","","54.09999999962747","img/land2.png","74","56.40000000037253","1","1","2","2","1,0.7,0.7,0.7,1,0.7,0.7,0.7,1","1,0.7,0.7,0.7,1,0.7,0.7,0.7,1","","",""
"","html-keyboard-response","131","40139","0.0-131.0","3VA45EW49O9WOXUCWJATTY435RTO1H","ACJ6NSCIWMUZI","3AQN9REUTF20OMGWRXYK787Q1B1YD0","","null","<img src=""img/land2.png"" style=""width:200px; border:14px solid green;"">","null","","","","","","","","","",""
"","image-keyboard-response","132","40167","0.0-132.0","3VA45EW49O9WOXUCWJATTY435RTO1H","ACJ6NSCIWMUZI","3AQN9REUTF20OMGWRXYK787Q1B1YD0","","25.699999999254942","img/land3.png","75","27.300000000745058","2","1","3","2","1,0.7,0.7,0.7,1,0.7,0.7,0.7,1","1,0.7,0.7,0.7,1,0.7,0.7,0.7,1","","",""
"","html-keyboard-response","133","40476","0.0-133.0","3VA45EW49O9WOXUCWJATTY435RTO1H","ACJ6NSCIWMUZI","3AQN9REUTF20OMGWRXYK787Q1B1YD0","","null","<img src=""img/land3.png"" style=""width:200px; border:14px solid green;"">","null","","","","","","","","","",""
"","image-keyboard-response","134","40625","0.0-134.0","3VA45EW49O9WOXUCWJATTY435RTO1H","ACJ6NSCIWMUZI","3AQN9REUTF20OMGWRXYK787Q1B1YD0","","147","img/land2.png","74","148.5","1","1","2","2","1,0.7,0.7,0.7,1,0.7,0.7,0.7,1","1,0.7,0.7,0.7,1,0.7,0.7,0.7,1","","",""
"","html-keyboard-response","135","40932","0.0-135.0","3VA45EW49O9WOXUCWJATTY435RTO1H","ACJ6NSCIWMUZI","3AQN9REUTF20OMGWRXYK787Q1B1YD0","","null","<img src=""img/land2.png"" style=""width:200px; border:14px solid green;"">","null","","","","","","","","","",""
"","image-keyboard-response","136","41085","0.0-136.0","3VA45EW49O9WOXUCWJATTY435RTO1H","ACJ6NSCIWMUZI","3AQN9REUTF20OMGWRXYK787Q1B1YD0","","151.5","img/land1.png","74","152.89999999850988","1","1","1","2","1,0.7,0.7,0.7,1,0.7,0.7,0.7,1","1,0.7,0.7,0.7,1,0.7,0.7,0.7,1","","",""
"","html-keyboard-response","137","41388","0.0-137.0","3VA45EW49O9WOXUCWJATTY435RTO1H","ACJ6NSCIWMUZI","3AQN9REUTF20OMGWRXYK787Q1B1YD0","","null","<img src=""img/land1.png"" style=""width:200px; border:14px solid green;"">","null","","","","","","","","","",""
"","image-keyboard-response","138","41400","0.0-138.0","3VA45EW49O9WOXUCWJATTY435RTO1H","ACJ6NSCIWMUZI","3AQN9REUTF20OMGWRXYK787Q1B1YD0","","10.599999999627471","img/land1.png","75","11.900000000372529","2","1","1","2","1,0.7,0.7,0.7,1,0.7,0.7,0.7,1","1,0.7,0.7,0.7,1,0.7,0.7,0.7,1","","",""
"","html-keyboard-response","139","41709","0.0-139.0","3VA45EW49O9WOXUCWJATTY435RTO1H","ACJ6NSCIWMUZI","3AQN9REUTF20OMGWRXYK787Q1B1YD0","","null","<img src=""img/land1.png"" style=""width:200px; border:14px solid green;"">","null","","","","","","","","","",""
"","image-keyboard-response","140","41810","0.0-140.0","3VA45EW49O9WOXUCWJATTY435RTO1H","ACJ6NSCIWMUZI","3AQN9REUTF20OMGWRXYK787Q1B1YD0","","99.60000000149012","img/land1.png","74","101","1","1","1","2","1,0.7,0.7,0.7,1,0.7,0.7,0.7,1","1,0.7,0.7,0.7,1,0.7,0.7,0.7,1","","",""
"","html-keyboard-response","141","42116","0.0-141.0","3VA45EW49O9WOXUCWJATTY435RTO1H","ACJ6NSCIWMUZI","3AQN9REUTF20OMGWRXYK787Q1B1YD0","","null","<img src=""img/land1.png"" style=""width:200px; border:14px solid green;"">","null","","","","","","","","","",""
"","image-keyboard-response","142","42148","0.0-142.0","3VA45EW49O9WOXUCWJATTY435RTO1H","ACJ6NSCIWMUZI","3AQN9REUTF20OMGWRXYK787Q1B1YD0","","30","img/land1.png","75","31.5","2","1","1","2","1,0.7,0.7,0.7,1,0.7,0.7,0.7,1","1,0.7,0.7,0.7,1,0.7,0.7,0.7,1","","",""
"","html-keyboard-response","143","42452","0.0-143.0","3VA45EW49O9WOXUCWJATTY435RTO1H","ACJ6NSCIWMUZI","3AQN9REUTF20OMGWRXYK787Q1B1YD0","","null","<img src=""img/land1.png"" style=""width:200px; border:14px solid green;"">","null","","","","","","","","","",""
"","image-keyboard-response","144","42536","0.0-144.0","3VA45EW49O9WOXUCWJATTY435RTO1H","ACJ6NSCIWMUZI","3AQN9REUTF20OMGWRXYK787Q1B1YD0","","82.29999999888241","img/land2.png","74","84","1","0","2","2","1,0.7,0.7,0.7,1,0.7,0.7,0.7,1","1,0.7,0.7,0.7,1,0.7,0.7,0.7,1","","",""
"","html-keyboard-response","145","42844","0.0-145.0","3VA45EW49O9WOXUCWJATTY435RTO1H","ACJ6NSCIWMUZI","3AQN9REUTF20OMGWRXYK787Q1B1YD0","","null","<img src=""img/land2.png"" style=""width:200px;border:14px solid red;"">","null","","","","","","","","","",""
"","image-keyboard-response","146","42875","0.0-146.0","3VA45EW49O9WOXUCWJATTY435RTO1H","ACJ6NSCIWMUZI","3AQN9REUTF20OMGWRXYK787Q1B1YD0","","29","img/land1.png","75","30.300000000745058","2","1","1","2","1,0.7,0.7,0.7,1,0.7,0.7,0.7,1","1,0.7,0.7,0.7,1,0.7,0.7,0.7,1","","",""
"","html-keyboard-response","147","43180","0.0-147.0","3VA45EW49O9WOXUCWJATTY435RTO1H","ACJ6NSCIWMUZI","3AQN9REUTF20OMGWRXYK787Q1B1YD0","","null","<img src=""img/land1.png"" style=""width:200px; border:14px solid green;"">","null","","","","","","","","","",""
"","image-keyboard-response","148","43184","0.0-148.0","3VA45EW49O9WOXUCWJATTY435RTO1H","ACJ6NSCIWMUZI","3AQN9REUTF20OMGWRXYK787Q1B1YD0","","2.199999999254942","img/land2.png","74","4.099999999627471","1","0","2","2","1,0.7,0.7,0.7,1,0.7,0.7,0.7,1","1,0.7,0.7,0.7,1,0.7,0.7,0.7,1","","",""
"","html-keyboard-response","149","43492","0.0-149.0","3VA45EW49O9WOXUCWJATTY435RTO1H","ACJ6NSCIWMUZI","3AQN9REUTF20OMGWRXYK787Q1B1YD0","","null","<img src=""img/land2.png"" style=""width:200px;border:14px solid red;"">","null","","","","","","","","","",""
"","image-keyboard-response","150","43573","0.0-150.0","3VA45EW49O9WOXUCWJATTY435RTO1H","ACJ6NSCIWMUZI","3AQN9REUTF20OMGWRXYK787Q1B1YD0","","79.60000000149012","img/land3.png","75","80.89999999850988","2","1","3","2","1,0.7,0.7,0.7,1,0.7,0.7,0.7,1","1,0.7,0.7,0.7,1,0.7,0.7,0.7,1","","",""
"","html-keyboard-response","151","43875","0.0-151.0","3VA45EW49O9WOXUCWJATTY435RTO1H","ACJ6NSCIWMUZI","3AQN9REUTF20OMGWRXYK787Q1B1YD0","","null","<img src=""img/land3.png"" style=""width:200px; border:14px solid green;"">","null","","","","","","","","","",""
"","image-keyboard-response","152","43977","0.0-152.0","3VA45EW49O9WOXUCWJATTY435RTO1H","ACJ6NSCIWMUZI","3AQN9REUTF20OMGWRXYK787Q1B1YD0","","100","img/land3.png","74","101.20000000111759","1","1","3","2","1,0.7,0.7,0.7,1,0.7,0.7,0.7,1","1,0.7,0.7,0.7,1,0.7,0.7,0.7,1","","",""
"","html-keyboard-response","153","44284","0.0-153.0","3VA45EW49O9WOXUCWJATTY435RTO1H","ACJ6NSCIWMUZI","3AQN9REUTF20OMGWRXYK787Q1B1YD0","","null","<img src=""img/land3.png"" style=""width:200px; border:14px solid green;"">","null","","","","","","","","","",""
"","image-keyboard-response","154","44358","0.0-154.0","3VA45EW49O9WOXUCWJATTY435RTO1H","ACJ6NSCIWMUZI","3AQN9REUTF20OMGWRXYK787Q1B1YD0","","71.30000000074506","img/land2.png","76","72.80000000074506","3","0","2","2","1,0.7,0.7,0.7,1,0.7,0.7,0.7,1","1,0.7,0.7,0.7,1,0.7,0.7,0.7,1","","",""
"","html-keyboard-response","155","44668","0.0-155.0","3VA45EW49O9WOXUCWJATTY435RTO1H","ACJ6NSCIWMUZI","3AQN9REUTF20OMGWRXYK787Q1B1YD0","","null","<img src=""img/land2.png"" style=""width:200px;border:14px solid red;"">","null","","","","","","","","","",""
"","image-keyboard-response","156","44791","0.0-156.0","3VA45EW49O9WOXUCWJATTY435RTO1H","ACJ6NSCIWMUZI","3AQN9REUTF20OMGWRXYK787Q1B1YD0","","120.90000000037253","img/land3.png","74","123.19999999925494","1","1","3","2","1,0.7,0.7,0.7,1,0.7,0.7,0.7,1","1,0.7,0.7,0.7,1,0.7,0.7,0.7,1","","",""
"","html-keyboard-response","157","45100","0.0-157.0","3VA45EW49O9WOXUCWJATTY435RTO1H","ACJ6NSCIWMUZI","3AQN9REUTF20OMGWRXYK787Q1B1YD0","","null","<img src=""img/land3.png"" style=""width:200px; border:14px solid green;"">","null","","","","","","","","","",""
"","image-keyboard-response","158","45109","0.0-158.0","3VA45EW49O9WOXUCWJATTY435RTO1H","ACJ6NSCIWMUZI","3AQN9REUTF20OMGWRXYK787Q1B1YD0","","6.700000001117587","img/land3.png","75","8.100000001490116","2","0","3","2","1,0.7,0.7,0.7,1,0.7,0.7,0.7,1","1,0.7,0.7,0.7,1,0.7,0.7,0.7,1","","",""
"","html-keyboard-response","159","45411","0.0-159.0","3VA45EW49O9WOXUCWJATTY435RTO1H","ACJ6NSCIWMUZI","3AQN9REUTF20OMGWRXYK787Q1B1YD0","","null","<img src=""img/land3.png"" style=""width:200px;border:14px solid red;"">","null","","","","","","","","","",""
"","image-keyboard-response","160","45448","0.0-160.0","3VA45EW49O9WOXUCWJATTY435RTO1H","ACJ6NSCIWMUZI","3AQN9REUTF20OMGWRXYK787Q1B1YD0","","34.70000000111759","img/land1.png","74","36.09999999962747","1","1","1","2","1,0.7,0.7,0.7,1,0.7,0.7,0.7,1","1,0.7,0.7,0.7,1,0.7,0.7,0.7,1","","",""
"","html-keyboard-response","161","45756","0.0-161.0","3VA45EW49O9WOXUCWJATTY435RTO1H","ACJ6NSCIWMUZI","3AQN9REUTF20OMGWRXYK787Q1B1YD0","","null","<img src=""img/land1.png"" style=""width:200px; border:14px solid green;"">","null","","","","","","","","","",""
"","image-keyboard-response","162","45807","0.0-162.0","3VA45EW49O9WOXUCWJATTY435RTO1H","ACJ6NSCIWMUZI","3AQN9REUTF20OMGWRXYK787Q1B1YD0","","49.70000000111759","img/land2.png","74","51.09999999962747","1","0","2","2","1,0.7,0.7,0.7,1,0.7,0.7,0.7,1","1,0.7,0.7,0.7,1,0.7,0.7,0.7,1","","",""
"","html-keyboard-response","163","46116","0.0-163.0","3VA45EW49O9WOXUCWJATTY435RTO1H","ACJ6NSCIWMUZI","3AQN9REUTF20OMGWRXYK787Q1B1YD0","","null","<img src=""img/land2.png"" style=""width:200px;border:14px solid red;"">","null","","","","","","","","","",""
"","image-keyboard-response","164","46178","0.0-164.0","3VA45EW49O9WOXUCWJATTY435RTO1H","ACJ6NSCIWMUZI","3AQN9REUTF20OMGWRXYK787Q1B1YD0","","60.69999999925494","img/land3.png","75","62.09999999962747","2","1","3","2","1,0.7,0.7,0.7,1,0.7,0.7,0.7,1","1,0.7,0.7,0.7,1,0.7,0.7,0.7,1","","",""
"","html-keyboard-response","165","46484","0.0-165.0","3VA45EW49O9WOXUCWJATTY435RTO1H","ACJ6NSCIWMUZI","3AQN9REUTF20OMGWRXYK787Q1B1YD0","","null","<img src=""img/land3.png"" style=""width:200px; border:14px solid green;"">","null","","","","","","","","","",""
"","image-keyboard-response","166","46576","0.0-166.0","3VA45EW49O9WOXUCWJATTY435RTO1H","ACJ6NSCIWMUZI","3AQN9REUTF20OMGWRXYK787Q1B1YD0","","90.90000000037253","img/land2.png","76","92.40000000037253","3","1","2","2","1,0.7,0.7,0.7,1,0.7,0.7,0.7,1","1,0.7,0.7,0.7,1,0.7,0.7,0.7,1","","",""
"","html-keyboard-response","167","46883","0.0-167.0","3VA45EW49O9WOXUCWJATTY435RTO1H","ACJ6NSCIWMUZI","3AQN9REUTF20OMGWRXYK787Q1B1YD0","","null","<img src=""img/land2.png"" style=""width:200px; border:14px solid green;"">","null","","","","","","","","","",""
"","image-keyboard-response","168","47004","0.0-168.0","3VA45EW49O9WOXUCWJATTY435RTO1H","ACJ6NSCIWMUZI","3AQN9REUTF20OMGWRXYK787Q1B1YD0","","119.10000000149012","img/land3.png","75","120.5","2","0","3","2","1,0.7,0.7,0.7,1,0.7,0.7,0.7,1","1,0.7,0.7,0.7,1,0.7,0.7,0.7,1","","",""
"","html-keyboard-response","169","47308","0.0-169.0","3VA45EW49O9WOXUCWJATTY435RTO1H","ACJ6NSCIWMUZI","3AQN9REUTF20OMGWRXYK787Q1B1YD0","","null","<img src=""img/land3.png"" style=""width:200px;border:14px solid red;"">","null","","","","","","","","","",""
"","html-keyboard-response","170","51002","0.0-170.0","3VA45EW49O9WOXUCWJATTY435RTO1H","ACJ6NSCIWMUZI","3AQN9REUTF20OMGWRXYK787Q1B1YD0","","","","","","","","","","","","","",""
"","image-keyboard-response","171","52336","0.0-171.0","3VA45EW49O9WOXUCWJATTY435RTO1H","ACJ6NSCIWMUZI","3AQN9REUTF20OMGWRXYK787Q1B1YD0","","1331.7999999988824","img/land4.png","76","1333.5999999996275","3","1","1","2","1,0.7,0.7,0.7,1,0.7,0.7,0.7,1","1,0.7,0.7,0.7,1,0.7,0.7,0.7,1","","",""
"","html-keyboard-response","172","52644","0.0-172.0","3VA45EW49O9WOXUCWJATTY435RTO1H","ACJ6NSCIWMUZI","3AQN9REUTF20OMGWRXYK787Q1B1YD0","","null","<img src=""img/land4.png"" style=""width:200px; border:14px solid green;"">","null","","","","","","","","","",""
"","image-keyboard-response","173","52652","0.0-173.0","3VA45EW49O9WOXUCWJATTY435RTO1H","ACJ6NSCIWMUZI","3AQN9REUTF20OMGWRXYK787Q1B1YD0","","6.099999999627471","img/land6.png","76","7.5","3","1","3","2","1,0.7,0.7,0.7,1,0.7,0.7,0.7,1","1,0.7,0.7,0.7,1,0.7,0.7,0.7,1","","",""
"","html-keyboard-response","174","52956","0.0-174.0","3VA45EW49O9WOXUCWJATTY435RTO1H","ACJ6NSCIWMUZI","3AQN9REUTF20OMGWRXYK787Q1B1YD0","","null","<img src=""img/land6.png"" style=""width:200px; border:14px solid green;"">","null","","","","","","","","","",""
"","image-keyboard-response","175","53290","0.0-175.0","3VA45EW49O9WOXUCWJATTY435RTO1H","ACJ6NSCIWMUZI","3AQN9REUTF20OMGWRXYK787Q1B1YD0","","332.2000000011176","img/land5.png","75","333.7000000011176","2","1","2","2","1,0.7,0.7,0.7,1,0.7,0.7,0.7,1","1,0.7,0.7,0.7,1,0.7,0.7,0.7,1","","",""
"","html-keyboard-response","176","53596","0.0-176.0","3VA45EW49O9WOXUCWJATTY435RTO1H","ACJ6NSCIWMUZI","3AQN9REUTF20OMGWRXYK787Q1B1YD0","","null","<img src=""img/land5.png"" style=""width:200px; border:14px solid green;"">","null","","","","","","","","","",""
"","image-keyboard-response","177","53601","0.0-177.0","3VA45EW49O9WOXUCWJATTY435RTO1H","ACJ6NSCIWMUZI","3AQN9REUTF20OMGWRXYK787Q1B1YD0","","2.200000001117587","img/land5.png","75","5","2","1","2","2","1,0.7,0.7,0.7,1,0.7,0.7,0.7,1","1,0.7,0.7,0.7,1,0.7,0.7,0.7,1","","",""
"","html-keyboard-response","178","53908","0.0-178.0","3VA45EW49O9WOXUCWJATTY435RTO1H","ACJ6NSCIWMUZI","3AQN9REUTF20OMGWRXYK787Q1B1YD0","","null","<img src=""img/land5.png"" style=""width:200px; border:14px solid green;"">","null","","","","","","","","","",""
"","image-keyboard-response","179","54025","0.0-179.0","3VA45EW49O9WOXUCWJATTY435RTO1H","ACJ6NSCIWMUZI","3AQN9REUTF20OMGWRXYK787Q1B1YD0","","115.60000000149012","img/land5.png","76","117","3","1","2","2","1,0.7,0.7,0.7,1,0.7,0.7,0.7,1","1,0.7,0.7,0.7,1,0.7,0.7,0.7,1","","",""
"","html-keyboard-response","180","54332","0.0-180.0","3VA45EW49O9WOXUCWJATTY435RTO1H","ACJ6NSCIWMUZI","3AQN9REUTF20OMGWRXYK787Q1B1YD0","","null","<img src=""img/land5.png"" style=""width:200px; border:14px solid green;"">","null","","","","","","","","","",""
"","image-keyboard-response","181","54411","0.0-181.0","3VA45EW49O9WOXUCWJATTY435RTO1H","ACJ6NSCIWMUZI","3AQN9REUTF20OMGWRXYK787Q1B1YD0","","77.09999999962747","img/land5.png","75","78.80000000074506","2","1","2","2","1,0.7,0.7,0.7,1,0.7,0.7,0.7,1","1,0.7,0.7,0.7,1,0.7,0.7,0.7,1","","",""
"","html-keyboard-response","182","54716","0.0-182.0","3VA45EW49O9WOXUCWJATTY435RTO1H","ACJ6NSCIWMUZI","3AQN9REUTF20OMGWRXYK787Q1B1YD0","","null","<img src=""img/land5.png"" style=""width:200px; border:14px solid green;"">","null","","","","","","","","","",""
"","image-keyboard-response","183","54865","0.0-183.0","3VA45EW49O9WOXUCWJATTY435RTO1H","ACJ6NSCIWMUZI","3AQN9REUTF20OMGWRXYK787Q1B1YD0","","147.30000000074506","img/land6.png","76","149","3","1","3","2","1,0.7,0.7,0.7,1,0.7,0.7,0.7,1","1,0.7,0.7,0.7,1,0.7,0.7,0.7,1","","",""
"","html-keyboard-response","184","55172","0.0-184.0","3VA45EW49O9WOXUCWJATTY435RTO1H","ACJ6NSCIWMUZI","3AQN9REUTF20OMGWRXYK787Q1B1YD0","","null","<img src=""img/land6.png"" style=""width:200px; border:14px solid green;"">","null","","","","","","","","","",""
"","image-keyboard-response","185","55226","0.0-185.0","3VA45EW49O9WOXUCWJATTY435RTO1H","ACJ6NSCIWMUZI","3AQN9REUTF20OMGWRXYK787Q1B1YD0","","52.80000000074506","img/land6.png","75","54.19999999925494","2","0","3","2","1,0.7,0.7,0.7,1,0.7,0.7,0.7,1","1,0.7,0.7,0.7,1,0.7,0.7,0.7,1","","",""
"","html-keyboard-response","186","55532","0.0-186.0","3VA45EW49O9WOXUCWJATTY435RTO1H","ACJ6NSCIWMUZI","3AQN9REUTF20OMGWRXYK787Q1B1YD0","","null","<img src=""img/land6.png"" style=""width:200px;border:14px solid red;"">","null","","","","","","","","","",""
"","image-keyboard-response","187","55606","0.0-187.0","3VA45EW49O9WOXUCWJATTY435RTO1H","ACJ6NSCIWMUZI","3AQN9REUTF20OMGWRXYK787Q1B1YD0","","72.5","img/land5.png","76","73.90000000037253","3","1","2","2","1,0.7,0.7,0.7,1,0.7,0.7,0.7,1","1,0.7,0.7,0.7,1,0.7,0.7,0.7,1","","",""
"","html-keyboard-response","188","55915","0.0-188.0","3VA45EW49O9WOXUCWJATTY435RTO1H","ACJ6NSCIWMUZI","3AQN9REUTF20OMGWRXYK787Q1B1YD0","","null","<img src=""img/land5.png"" style=""width:200px; border:14px solid green;"">","null","","","","","","","","","",""
"","image-keyboard-response","189","55991","0.0-189.0","3VA45EW49O9WOXUCWJATTY435RTO1H","ACJ6NSCIWMUZI","3AQN9REUTF20OMGWRXYK787Q1B1YD0","","73.80000000074506","img/land4.png","74","75","1","1","1","2","1,0.7,0.7,0.7,1,0.7,0.7,0.7,1","1,0.7,0.7,0.7,1,0.7,0.7,0.7,1","","",""
"","html-keyboard-response","190","56299","0.0-190.0","3VA45EW49O9WOXUCWJATTY435RTO1H","ACJ6NSCIWMUZI","3AQN9REUTF20OMGWRXYK787Q1B1YD0","","null","<img src=""img/land4.png"" style=""width:200px; border:14px solid green;"">","null","","","","","","","","","",""
"","image-keyboard-response","191","56401","0.0-191.0","3VA45EW49O9WOXUCWJATTY435RTO1H","ACJ6NSCIWMUZI","3AQN9REUTF20OMGWRXYK787Q1B1YD0","","100","img/land5.png","76","101.5","3","1","2","2","1,0.7,0.7,0.7,1,0.7,0.7,0.7,1","1,0.7,0.7,0.7,1,0.7,0.7,0.7,1","","",""
"","html-keyboard-response","192","56708","0.0-192.0","3VA45EW49O9WOXUCWJATTY435RTO1H","ACJ6NSCIWMUZI","3AQN9REUTF20OMGWRXYK787Q1B1YD0","","null","<img src=""img/land5.png"" style=""width:200px; border:14px solid green;"">","null","","","","","","","","","",""
"","image-keyboard-response","193","56718","0.0-193.0","3VA45EW49O9WOXUCWJATTY435RTO1H","ACJ6NSCIWMUZI","3AQN9REUTF20OMGWRXYK787Q1B1YD0","","8.300000000745058","img/land4.png","76","9.699999999254942","3","0","1","2","1,0.7,0.7,0.7,1,0.7,0.7,0.7,1","1,0.7,0.7,0.7,1,0.7,0.7,0.7,1","","",""
"","html-keyboard-response","194","57028","0.0-194.0","3VA45EW49O9WOXUCWJATTY435RTO1H","ACJ6NSCIWMUZI","3AQN9REUTF20OMGWRXYK787Q1B1YD0","","null","<img src=""img/land4.png"" style=""width:200px;border:14px solid red;"">","null","","","","","","","","","",""
"","image-keyboard-response","195","57106","0.0-195.0","3VA45EW49O9WOXUCWJATTY435RTO1H","ACJ6NSCIWMUZI","3AQN9REUTF20OMGWRXYK787Q1B1YD0","","76.90000000037253","img/land4.png","75","78.40000000037253","2","1","1","2","1,0.7,0.7,0.7,1,0.7,0.7,0.7,1","1,0.7,0.7,0.7,1,0.7,0.7,0.7,1","","",""
"","html-keyboard-response","196","57412","0.0-196.0","3VA45EW49O9WOXUCWJATTY435RTO1H","ACJ6NSCIWMUZI","3AQN9REUTF20OMGWRXYK787Q1B1YD0","","null","<img src=""img/land4.png"" style=""width:200px; border:14px solid green;"">","null","","","","","","","","","",""
"","image-keyboard-response","197","57520","0.0-197.0","3VA45EW49O9WOXUCWJATTY435RTO1H","ACJ6NSCIWMUZI","3AQN9REUTF20OMGWRXYK787Q1B1YD0","","106.90000000037253","img/land5.png","74","108.29999999888241","1","0","2","2","1,0.7,0.7,0.7,1,0.7,0.7,0.7,1","1,0.7,0.7,0.7,1,0.7,0.7,0.7,1","","",""
"","html-keyboard-response","198","57827","0.0-198.0","3VA45EW49O9WOXUCWJATTY435RTO1H","ACJ6NSCIWMUZI","3AQN9REUTF20OMGWRXYK787Q1B1YD0","","null","<img src=""img/land5.png"" style=""width:200px;border:14px solid red;"">","null","","","","","","","","","",""
"","image-keyboard-response","199","58002","0.0-199.0","3VA45EW49O9WOXUCWJATTY435RTO1H","ACJ6NSCIWMUZI","3AQN9REUTF20OMGWRXYK787Q1B1YD0","","172.60000000149012","img/land4.png","75","174.30000000074506","2","1","1","2","1,0.7,0.7,0.7,1,0.7,0.7,0.7,1","1,0.7,0.7,0.7,1,0.7,0.7,0.7,1","","",""
"","html-keyboard-response","200","58307","0.0-200.0","3VA45EW49O9WOXUCWJATTY435RTO1H","ACJ6NSCIWMUZI","3AQN9REUTF20OMGWRXYK787Q1B1YD0","","null","<img src=""img/land4.png"" style=""width:200px; border:14px solid green;"">","null","","","","","","","","","",""
"","image-keyboard-response","201","58417","0.0-201.0","3VA45EW49O9WOXUCWJATTY435RTO1H","ACJ6NSCIWMUZI","3AQN9REUTF20OMGWRXYK787Q1B1YD0","","107.70000000111759","img/land5.png","75","109.30000000074506","2","1","2","2","1,0.7,0.7,0.7,1,0.7,0.7,0.7,1","1,0.7,0.7,0.7,1,0.7,0.7,0.7,1","","",""
"","html-keyboard-response","202","58724","0.0-202.0","3VA45EW49O9WOXUCWJATTY435RTO1H","ACJ6NSCIWMUZI","3AQN9REUTF20OMGWRXYK787Q1B1YD0","","null","<img src=""img/land5.png"" style=""width:200px; border:14px solid green;"">","null","","","","","","","","","",""
"","image-keyboard-response","203","58779","0.0-203.0","3VA45EW49O9WOXUCWJATTY435RTO1H","ACJ6NSCIWMUZI","3AQN9REUTF20OMGWRXYK787Q1B1YD0","","53.09999999962747","img/land4.png","74","54.59999999962747","1","1","1","2","1,0.7,0.7,0.7,1,0.7,0.7,0.7,1","1,0.7,0.7,0.7,1,0.7,0.7,0.7,1","","",""
"","html-keyboard-response","204","59084","0.0-204.0","3VA45EW49O9WOXUCWJATTY435RTO1H","ACJ6NSCIWMUZI","3AQN9REUTF20OMGWRXYK787Q1B1YD0","","null","<img src=""img/land4.png"" style=""width:200px; border:14px solid green;"">","null","","","","","","","","","",""
"","image-keyboard-response","205","59093","0.0-205.0","3VA45EW49O9WOXUCWJATTY435RTO1H","ACJ6NSCIWMUZI","3AQN9REUTF20OMGWRXYK787Q1B1YD0","","6.800000000745058","img/land5.png","75","9","2","1","2","2","1,0.7,0.7,0.7,1,0.7,0.7,0.7,1","1,0.7,0.7,0.7,1,0.7,0.7,0.7,1","","",""
"","html-keyboard-response","206","59404","0.0-206.0","3VA45EW49O9WOXUCWJATTY435RTO1H","ACJ6NSCIWMUZI","3AQN9REUTF20OMGWRXYK787Q1B1YD0","","null","<img src=""img/land5.png"" style=""width:200px; border:14px solid green;"">","null","","","","","","","","","",""
"","image-keyboard-response","207","59504","0.0-207.0","3VA45EW49O9WOXUCWJATTY435RTO1H","ACJ6NSCIWMUZI","3AQN9REUTF20OMGWRXYK787Q1B1YD0","","98.5","img/land4.png","74","99.79999999888241","1","1","1","2","1,0.7,0.7,0.7,1,0.7,0.7,0.7,1","1,0.7,0.7,0.7,1,0.7,0.7,0.7,1","","",""
"","html-keyboard-response","208","59811","0.0-208.0","3VA45EW49O9WOXUCWJATTY435RTO1H","ACJ6NSCIWMUZI","3AQN9REUTF20OMGWRXYK787Q1B1YD0","","null","<img src=""img/land4.png"" style=""width:200px; border:14px solid green;"">","null","","","","","","","","","",""
"","image-keyboard-response","209","59818","0.0-209.0","3VA45EW49O9WOXUCWJATTY435RTO1H","ACJ6NSCIWMUZI","3AQN9REUTF20OMGWRXYK787Q1B1YD0","","4.900000000372529","img/land4.png","75","6.399999998509884","2","0","1","2","1,0.7,0.7,0.7,1,0.7,0.7,0.7,1","1,0.7,0.7,0.7,1,0.7,0.7,0.7,1","","",""
"","html-keyboard-response","210","60124","0.0-210.0","3VA45EW49O9WOXUCWJATTY435RTO1H","ACJ6NSCIWMUZI","3AQN9REUTF20OMGWRXYK787Q1B1YD0","","null","<img src=""img/land4.png"" style=""width:200px;border:14px solid red;"">","null","","","","","","","","","",""
"","image-keyboard-response","211","60277","0.0-211.0","3VA45EW49O9WOXUCWJATTY435RTO1H","ACJ6NSCIWMUZI","3AQN9REUTF20OMGWRXYK787Q1B1YD0","","151.5","img/land6.png","76","153","3","1","3","2","1,0.7,0.7,0.7,1,0.7,0.7,0.7,1","1,0.7,0.7,0.7,1,0.7,0.7,0.7,1","","",""
"","html-keyboard-response","212","60580","0.0-212.0","3VA45EW49O9WOXUCWJATTY435RTO1H","ACJ6NSCIWMUZI","3AQN9REUTF20OMGWRXYK787Q1B1YD0","","null","<img src=""img/land6.png"" style=""width:200px; border:14px solid green;"">","null","","","","","","","","","",""
"","image-keyboard-response","213","60587","0.0-213.0","3VA45EW49O9WOXUCWJATTY435RTO1H","ACJ6NSCIWMUZI","3AQN9REUTF20OMGWRXYK787Q1B1YD0","","5.200000001117587","img/land6.png","75","6.5","2","1","3","2","1,0.7,0.7,0.7,1,0.7,0.7,0.7,1","1,0.7,0.7,0.7,1,0.7,0.7,0.7,1","","",""
"","html-keyboard-response","214","60892","0.0-214.0","3VA45EW49O9WOXUCWJATTY435RTO1H","ACJ6NSCIWMUZI","3AQN9REUTF20OMGWRXYK787Q1B1YD0","","null","<img src=""img/land6.png"" style=""width:200px; border:14px solid green;"">","null","","","","","","","","","",""
"","image-keyboard-response","215","61017","0.0-215.0","3VA45EW49O9WOXUCWJATTY435RTO1H","ACJ6NSCIWMUZI","3AQN9REUTF20OMGWRXYK787Q1B1YD0","","123.09999999962747","img/land4.png","74","124.69999999925494","1","1","1","2","1,0.7,0.7,0.7,1,0.7,0.7,0.7,1","1,0.7,0.7,0.7,1,0.7,0.7,0.7,1","","",""
"","html-keyboard-response","216","61324","0.0-216.0","3VA45EW49O9WOXUCWJATTY435RTO1H","ACJ6NSCIWMUZI","3AQN9REUTF20OMGWRXYK787Q1B1YD0","","null","<img src=""img/land4.png"" style=""width:200px; border:14px solid green;"">","null","","","","","","","","","",""
"","image-keyboard-response","217","61480","0.0-217.0","3VA45EW49O9WOXUCWJATTY435RTO1H","ACJ6NSCIWMUZI","3AQN9REUTF20OMGWRXYK787Q1B1YD0","","154.30000000074506","img/land4.png","76","155.7000000011176","3","0","1","2","1,0.7,0.7,0.7,1,0.7,0.7,0.7,1","1,0.7,0.7,0.7,1,0.7,0.7,0.7,1","","",""
"","html-keyboard-response","218","61788","0.0-218.0","3VA45EW49O9WOXUCWJATTY435RTO1H","ACJ6NSCIWMUZI","3AQN9REUTF20OMGWRXYK787Q1B1YD0","","null","<img src=""img/land4.png"" style=""width:200px;border:14px solid red;"">","null","","","","","","","","","",""
"","image-keyboard-response","219","61867","0.0-219.0","3VA45EW49O9WOXUCWJATTY435RTO1H","ACJ6NSCIWMUZI","3AQN9REUTF20OMGWRXYK787Q1B1YD0","","77.70000000111759","img/land5.png","74","79","1","1","2","2","1,0.7,0.7,0.7,1,0.7,0.7,0.7,1","1,0.7,0.7,0.7,1,0.7,0.7,0.7,1","","",""
"","html-keyboard-response","220","62172","0.0-220.0","3VA45EW49O9WOXUCWJATTY435RTO1H","ACJ6NSCIWMUZI","3AQN9REUTF20OMGWRXYK787Q1B1YD0","","null","<img src=""img/land5.png"" style=""width:200px; border:14px solid green;"">","null","","","","","","","","","",""
"","image-keyboard-response","221","62301","0.0-221.0","3VA45EW49O9WOXUCWJATTY435RTO1H","ACJ6NSCIWMUZI","3AQN9REUTF20OMGWRXYK787Q1B1YD0","","127.39999999850988","img/land6.png","74","128.90000000037253","1","1","3","2","1,0.7,0.7,0.7,1,0.7,0.7,0.7,1","1,0.7,0.7,0.7,1,0.7,0.7,0.7,1","","",""
"","html-keyboard-response","222","62604","0.0-222.0","3VA45EW49O9WOXUCWJATTY435RTO1H","ACJ6NSCIWMUZI","3AQN9REUTF20OMGWRXYK787Q1B1YD0","","null","<img src=""img/land6.png"" style=""width:200px; border:14px solid green;"">","null","","","","","","","","","",""
"","image-keyboard-response","223","62739","0.0-223.0","3VA45EW49O9WOXUCWJATTY435RTO1H","ACJ6NSCIWMUZI","3AQN9REUTF20OMGWRXYK787Q1B1YD0","","133.5","img/land4.png","74","135","1","1","1","2","1,0.7,0.7,0.7,1,0.7,0.7,0.7,1","1,0.7,0.7,0.7,1,0.7,0.7,0.7,1","","",""
"","html-keyboard-response","224","63044","0.0-224.0","3VA45EW49O9WOXUCWJATTY435RTO1H","ACJ6NSCIWMUZI","3AQN9REUTF20OMGWRXYK787Q1B1YD0","","null","<img src=""img/land4.png"" style=""width:200px; border:14px solid green;"">","null","","","","","","","","","",""
"","image-keyboard-response","225","63154","0.0-225.0","3VA45EW49O9WOXUCWJATTY435RTO1H","ACJ6NSCIWMUZI","3AQN9REUTF20OMGWRXYK787Q1B1YD0","","108.40000000037253","img/land5.png","74","110","1","0","2","2","1,0.7,0.7,0.7,1,0.7,0.7,0.7,1","1,0.7,0.7,0.7,1,0.7,0.7,0.7,1","","",""
"","html-keyboard-response","226","63460","0.0-226.0","3VA45EW49O9WOXUCWJATTY435RTO1H","ACJ6NSCIWMUZI","3AQN9REUTF20OMGWRXYK787Q1B1YD0","","null","<img src=""img/land5.png"" style=""width:200px;border:14px solid red;"">","null","","","","","","","","","",""
"","image-keyboard-response","227","63472","0.0-227.0","3VA45EW49O9WOXUCWJATTY435RTO1H","ACJ6NSCIWMUZI","3AQN9REUTF20OMGWRXYK787Q1B1YD0","","10.299999998882413","img/land6.png","75","11.599999999627471","2","0","3","2","1,0.7,0.7,0.7,1,0.7,0.7,0.7,1","1,0.7,0.7,0.7,1,0.7,0.7,0.7,1","","",""
"","html-keyboard-response","228","63780","0.0-228.0","3VA45EW49O9WOXUCWJATTY435RTO1H","ACJ6NSCIWMUZI","3AQN9REUTF20OMGWRXYK787Q1B1YD0","","null","<img src=""img/land6.png"" style=""width:200px;border:14px solid red;"">","null","","","","","","","","","",""
"","image-keyboard-response","229","63925","0.0-229.0","3VA45EW49O9WOXUCWJATTY435RTO1H","ACJ6NSCIWMUZI","3AQN9REUTF20OMGWRXYK787Q1B1YD0","","143","img/land4.png","74","144.2999999988824","1","1","1","2","1,0.7,0.7,0.7,1,0.7,0.7,0.7,1","1,0.7,0.7,0.7,1,0.7,0.7,0.7,1","","",""
"","html-keyboard-response","230","64228","0.0-230.0","3VA45EW49O9WOXUCWJATTY435RTO1H","ACJ6NSCIWMUZI","3AQN9REUTF20OMGWRXYK787Q1B1YD0","","null","<img src=""img/land4.png"" style=""width:200px; border:14px solid green;"">","null","","","","","","","","","",""
"","image-keyboard-response","231","64458","0.0-231.0","3VA45EW49O9WOXUCWJATTY435RTO1H","ACJ6NSCIWMUZI","3AQN9REUTF20OMGWRXYK787Q1B1YD0","","225.5","img/land4.png","75","229.89999999850988","2","0","1","2","1,0.7,0.7,0.7,1,0.7,0.7,0.7,1","1,0.7,0.7,0.7,1,0.7,0.7,0.7,1","","",""
"","html-keyboard-response","232","64763","0.0-232.0","3VA45EW49O9WOXUCWJATTY435RTO1H","ACJ6NSCIWMUZI","3AQN9REUTF20OMGWRXYK787Q1B1YD0","","null","<img src=""img/land4.png"" style=""width:200px;border:14px solid red;"">","null","","","","","","","","","",""
"","image-keyboard-response","233","64864","0.0-233.0","3VA45EW49O9WOXUCWJATTY435RTO1H","ACJ6NSCIWMUZI","3AQN9REUTF20OMGWRXYK787Q1B1YD0","","98.90000000037253","img/land5.png","75","100.30000000074506","2","1","2","2","1,0.7,0.7,0.7,1,0.7,0.7,0.7,1","1,0.7,0.7,0.7,1,0.7,0.7,0.7,1","","",""
"","html-keyboard-response","234","65171","0.0-234.0","3VA45EW49O9WOXUCWJATTY435RTO1H","ACJ6NSCIWMUZI","3AQN9REUTF20OMGWRXYK787Q1B1YD0","","null","<img src=""img/land5.png"" style=""width:200px; border:14px solid green;"">","null","","","","","","","","","",""
"","image-keyboard-response","235","65272","0.0-235.0","3VA45EW49O9WOXUCWJATTY435RTO1H","ACJ6NSCIWMUZI","3AQN9REUTF20OMGWRXYK787Q1B1YD0","","99","img/land5.png","75","100.40000000037253","2","1","2","2","1,0.7,0.7,0.7,1,0.7,0.7,0.7,1","1,0.7,0.7,0.7,1,0.7,0.7,0.7,1","","",""
"","html-keyboard-response","236","65580","0.0-236.0","3VA45EW49O9WOXUCWJATTY435RTO1H","ACJ6NSCIWMUZI","3AQN9REUTF20OMGWRXYK787Q1B1YD0","","null","<img src=""img/land5.png"" style=""width:200px; border:14px solid green;"">","null","","","","","","","","","",""
"","image-keyboard-response","237","65658","0.0-237.0","3VA45EW49O9WOXUCWJATTY435RTO1H","ACJ6NSCIWMUZI","3AQN9REUTF20OMGWRXYK787Q1B1YD0","","75.5","img/land5.png","75","77.10000000149012","2","1","2","2","1,0.7,0.7,0.7,1,0.7,0.7,0.7,1","1,0.7,0.7,0.7,1,0.7,0.7,0.7,1","","",""
"","html-keyboard-response","238","65964","0.0-238.0","3VA45EW49O9WOXUCWJATTY435RTO1H","ACJ6NSCIWMUZI","3AQN9REUTF20OMGWRXYK787Q1B1YD0","","null","<img src=""img/land5.png"" style=""width:200px; border:14px solid green;"">","null","","","","","","","","","",""
"","image-keyboard-response","239","66045","0.0-239.0","3VA45EW49O9WOXUCWJATTY435RTO1H","ACJ6NSCIWMUZI","3AQN9REUTF20OMGWRXYK787Q1B1YD0","","79","img/land6.png","75","80.79999999888241","2","1","3","2","1,0.7,0.7,0.7,1,0.7,0.7,0.7,1","1,0.7,0.7,0.7,1,0.7,0.7,0.7,1","","",""
"","html-keyboard-response","240","66348","0.0-240.0","3VA45EW49O9WOXUCWJATTY435RTO1H","ACJ6NSCIWMUZI","3AQN9REUTF20OMGWRXYK787Q1B1YD0","","null","<img src=""img/land6.png"" style=""width:200px; border:14px solid green;"">","null","","","","","","","","","",""
"","image-keyboard-response","241","66498","0.0-241.0","3VA45EW49O9WOXUCWJATTY435RTO1H","ACJ6NSCIWMUZI","3AQN9REUTF20OMGWRXYK787Q1B1YD0","","147.90000000037253","img/land5.png","75","149.90000000037253","2","1","2","2","1,0.7,0.7,0.7,1,0.7,0.7,0.7,1","1,0.7,0.7,0.7,1,0.7,0.7,0.7,1","","",""
"","html-keyboard-response","242","66803","0.0-242.0","3VA45EW49O9WOXUCWJATTY435RTO1H","ACJ6NSCIWMUZI","3AQN9REUTF20OMGWRXYK787Q1B1YD0","","null","<img src=""img/land5.png"" style=""width:200px; border:14px solid green;"">","null","","","","","","","","","",""
"","image-keyboard-response","243","66902","0.0-243.0","3VA45EW49O9WOXUCWJATTY435RTO1H","ACJ6NSCIWMUZI","3AQN9REUTF20OMGWRXYK787Q1B1YD0","","96","img/land6.png","74","98.10000000149012","1","1","3","2","1,0.7,0.7,0.7,1,0.7,0.7,0.7,1","1,0.7,0.7,0.7,1,0.7,0.7,0.7,1","","",""
"","html-keyboard-response","244","67215","0.0-244.0","3VA45EW49O9WOXUCWJATTY435RTO1H","ACJ6NSCIWMUZI","3AQN9REUTF20OMGWRXYK787Q1B1YD0","","null","<img src=""img/land6.png"" style=""width:200px; border:14px solid green;"">","null","","","","","","","","","",""
"","image-keyboard-response","245","67340","0.0-245.0","3VA45EW49O9WOXUCWJATTY435RTO1H","ACJ6NSCIWMUZI","3AQN9REUTF20OMGWRXYK787Q1B1YD0","","118.40000000037253","img/land4.png","75","119.90000000037253","2","1","1","2","1,0.7,0.7,0.7,1,0.7,0.7,0.7,1","1,0.7,0.7,0.7,1,0.7,0.7,0.7,1","","",""
"","html-keyboard-response","246","67644","0.0-246.0","3VA45EW49O9WOXUCWJATTY435RTO1H","ACJ6NSCIWMUZI","3AQN9REUTF20OMGWRXYK787Q1B1YD0","","null","<img src=""img/land4.png"" style=""width:200px; border:14px solid green;"">","null","","","","","","","","","",""
"","image-keyboard-response","247","67747","0.0-247.0","3VA45EW49O9WOXUCWJATTY435RTO1H","ACJ6NSCIWMUZI","3AQN9REUTF20OMGWRXYK787Q1B1YD0","","101.19999999925494","img/land6.png","75","102.69999999925494","2","1","3","2","1,0.7,0.7,0.7,1,0.7,0.7,0.7,1","1,0.7,0.7,0.7,1,0.7,0.7,0.7,1","","",""
"","html-keyboard-response","248","68052","0.0-248.0","3VA45EW49O9WOXUCWJATTY435RTO1H","ACJ6NSCIWMUZI","3AQN9REUTF20OMGWRXYK787Q1B1YD0","","null","<img src=""img/land6.png"" style=""width:200px; border:14px solid green;"">","null","","","","","","","","","",""
"","image-keyboard-response","249","68125","0.0-249.0","3VA45EW49O9WOXUCWJATTY435RTO1H","ACJ6NSCIWMUZI","3AQN9REUTF20OMGWRXYK787Q1B1YD0","","71.59999999962747","img/land4.png","75","73.10000000149012","2","1","1","2","1,0.7,0.7,0.7,1,0.7,0.7,0.7,1","1,0.7,0.7,0.7,1,0.7,0.7,0.7,1","","",""
"","html-keyboard-response","250","68428","0.0-250.0","3VA45EW49O9WOXUCWJATTY435RTO1H","ACJ6NSCIWMUZI","3AQN9REUTF20OMGWRXYK787Q1B1YD0","","null","<img src=""img/land4.png"" style=""width:200px; border:14px solid green;"">","null","","","","","","","","","",""
"","image-keyboard-response","251","68530","0.0-251.0","3VA45EW49O9WOXUCWJATTY435RTO1H","ACJ6NSCIWMUZI","3AQN9REUTF20OMGWRXYK787Q1B1YD0","","100.19999999925494","img/land5.png","75","101.80000000074506","2","1","2","2","1,0.7,0.7,0.7,1,0.7,0.7,0.7,1","1,0.7,0.7,0.7,1,0.7,0.7,0.7,1","","",""
"","html-keyboard-response","252","68836","0.0-252.0","3VA45EW49O9WOXUCWJATTY435RTO1H","ACJ6NSCIWMUZI","3AQN9REUTF20OMGWRXYK787Q1B1YD0","","null","<img src=""img/land5.png"" style=""width:200px; border:14px solid green;"">","null","","","","","","","","","",""
"","image-keyboard-response","253","68843","0.0-253.0","3VA45EW49O9WOXUCWJATTY435RTO1H","ACJ6NSCIWMUZI","3AQN9REUTF20OMGWRXYK787Q1B1YD0","","5.5","img/land5.png","74","7","1","1","2","2","1,0.7,0.7,0.7,1,0.7,0.7,0.7,1","1,0.7,0.7,0.7,1,0.7,0.7,0.7,1","","",""
"","html-keyboard-response","254","69147","0.0-254.0","3VA45EW49O9WOXUCWJATTY435RTO1H","ACJ6NSCIWMUZI","3AQN9REUTF20OMGWRXYK787Q1B1YD0","","null","<img src=""img/land5.png"" style=""width:200px; border:14px solid green;"">","null","","","","","","","","","",""
"","image-keyboard-response","255","69177","0.0-255.0","3VA45EW49O9WOXUCWJATTY435RTO1H","ACJ6NSCIWMUZI","3AQN9REUTF20OMGWRXYK787Q1B1YD0","","28.200000001117587","img/land4.png","75","29.600000001490116","2","1","1","2","1,0.7,0.7,0.7,1,0.7,0.7,0.7,1","1,0.7,0.7,0.7,1,0.7,0.7,0.7,1","","",""
"","html-keyboard-response","256","69484","0.0-256.0","3VA45EW49O9WOXUCWJATTY435RTO1H","ACJ6NSCIWMUZI","3AQN9REUTF20OMGWRXYK787Q1B1YD0","","null","<img src=""img/land4.png"" style=""width:200px; border:14px solid green;"">","null","","","","","","","","","",""
"","image-keyboard-response","257","69677","0.0-257.0","3VA45EW49O9WOXUCWJATTY435RTO1H","ACJ6NSCIWMUZI","3AQN9REUTF20OMGWRXYK787Q1B1YD0","","190.80000000074506","img/land4.png","74","192.59999999962747","1","1","1","2","1,0.7,0.7,0.7,1,0.7,0.7,0.7,1","1,0.7,0.7,0.7,1,0.7,0.7,0.7,1","","",""
"","html-keyboard-response","258","69980","0.0-258.0","3VA45EW49O9WOXUCWJATTY435RTO1H","ACJ6NSCIWMUZI","3AQN9REUTF20OMGWRXYK787Q1B1YD0","","null","<img src=""img/land4.png"" style=""width:200px; border:14px solid green;"">","null","","","","","","","","","",""
"","image-keyboard-response","259","70161","0.0-259.0","3VA45EW49O9WOXUCWJATTY435RTO1H","ACJ6NSCIWMUZI","3AQN9REUTF20OMGWRXYK787Q1B1YD0","","178.7000000011176","img/land4.png","75","180.39999999850988","2","0","1","2","1,0.7,0.7,0.7,1,0.7,0.7,0.7,1","1,0.7,0.7,0.7,1,0.7,0.7,0.7,1","","",""
"","html-keyboard-response","260","70468","0.0-260.0","3VA45EW49O9WOXUCWJATTY435RTO1H","ACJ6NSCIWMUZI","3AQN9REUTF20OMGWRXYK787Q1B1YD0","","null","<img src=""img/land4.png"" style=""width:200px;border:14px solid red;"">","null","","","","","","","","","",""
"","image-keyboard-response","261","70707","0.0-261.0","3VA45EW49O9WOXUCWJATTY435RTO1H","ACJ6NSCIWMUZI","3AQN9REUTF20OMGWRXYK787Q1B1YD0","","237.40000000037253","img/land6.png","76","238.59999999962747","3","1","3","2","1,0.7,0.7,0.7,1,0.7,0.7,0.7,1","1,0.7,0.7,0.7,1,0.7,0.7,0.7,1","","",""
"","html-keyboard-response","262","71012","0.0-262.0","3VA45EW49O9WOXUCWJATTY435RTO1H","ACJ6NSCIWMUZI","3AQN9REUTF20OMGWRXYK787Q1B1YD0","","null","<img src=""img/land6.png"" style=""width:200px; border:14px solid green;"">","null","","","","","","","","","",""
"","image-keyboard-response","263","71159","0.0-263.0","3VA45EW49O9WOXUCWJATTY435RTO1H","ACJ6NSCIWMUZI","3AQN9REUTF20OMGWRXYK787Q1B1YD0","","145.5","img/land6.png","74","146.89999999850988","1","1","3","2","1,0.7,0.7,0.7,1,0.7,0.7,0.7,1","1,0.7,0.7,0.7,1,0.7,0.7,0.7,1","","",""
"","html-keyboard-response","264","71468","0.0-264.0","3VA45EW49O9WOXUCWJATTY435RTO1H","ACJ6NSCIWMUZI","3AQN9REUTF20OMGWRXYK787Q1B1YD0","","null","<img src=""img/land6.png"" style=""width:200px; border:14px solid green;"">","null","","","","","","","","","",""
"","image-keyboard-response","265","71620","0.0-265.0","3VA45EW49O9WOXUCWJATTY435RTO1H","ACJ6NSCIWMUZI","3AQN9REUTF20OMGWRXYK787Q1B1YD0","","150.7000000011176","img/land4.png","74","152.40000000037253","1","1","1","2","1,0.7,0.7,0.7,1,0.7,0.7,0.7,1","1,0.7,0.7,0.7,1,0.7,0.7,0.7,1","","",""
"","html-keyboard-response","266","71924","0.0-266.0","3VA45EW49O9WOXUCWJATTY435RTO1H","ACJ6NSCIWMUZI","3AQN9REUTF20OMGWRXYK787Q1B1YD0","","null","<img src=""img/land4.png"" style=""width:200px; border:14px solid green;"">","null","","","","","","","","","",""
"","image-keyboard-response","267","71956","0.0-267.0","3VA45EW49O9WOXUCWJATTY435RTO1H","ACJ6NSCIWMUZI","3AQN9REUTF20OMGWRXYK787Q1B1YD0","","30.700000001117587","img/land6.png","76","32","3","1","3","2","1,0.7,0.7,0.7,1,0.7,0.7,0.7,1","1,0.7,0.7,0.7,1,0.7,0.7,0.7,1","","",""
"","html-keyboard-response","268","72260","0.0-268.0","3VA45EW49O9WOXUCWJATTY435RTO1H","ACJ6NSCIWMUZI","3AQN9REUTF20OMGWRXYK787Q1B1YD0","","null","<img src=""img/land6.png"" style=""width:200px; border:14px solid green;"">","null","","","","","","","","","",""
"","image-keyboard-response","269","72267","0.0-269.0","3VA45EW49O9WOXUCWJATTY435RTO1H","ACJ6NSCIWMUZI","3AQN9REUTF20OMGWRXYK787Q1B1YD0","","5.099999999627471","img/land6.png","74","6.400000000372529","1","1","3","2","1,0.7,0.7,0.7,1,0.7,0.7,0.7,1","1,0.7,0.7,0.7,1,0.7,0.7,0.7,1","","",""
"","html-keyboard-response","270","72572","0.0-270.0","3VA45EW49O9WOXUCWJATTY435RTO1H","ACJ6NSCIWMUZI","3AQN9REUTF20OMGWRXYK787Q1B1YD0","","null","<img src=""img/land6.png"" style=""width:200px; border:14px solid green;"">","null","","","","","","","","","",""
"","image-keyboard-response","271","72702","0.0-271.0","3VA45EW49O9WOXUCWJATTY435RTO1H","ACJ6NSCIWMUZI","3AQN9REUTF20OMGWRXYK787Q1B1YD0","","128.5","img/land5.png","74","129.89999999850988","1","0","2","2","1,0.7,0.7,0.7,1,0.7,0.7,0.7,1","1,0.7,0.7,0.7,1,0.7,0.7,0.7,1","","",""
"","html-keyboard-response","272","73012","0.0-272.0","3VA45EW49O9WOXUCWJATTY435RTO1H","ACJ6NSCIWMUZI","3AQN9REUTF20OMGWRXYK787Q1B1YD0","","null","<img src=""img/land5.png"" style=""width:200px;border:14px solid red;"">","null","","","","","","","","","",""
"","image-keyboard-response","273","73238","0.0-273.0","3VA45EW49O9WOXUCWJATTY435RTO1H","ACJ6NSCIWMUZI","3AQN9REUTF20OMGWRXYK787Q1B1YD0","","222","img/land6.png","74","225.90000000037253","1","1","3","2","1,0.7,0.7,0.7,1,0.7,0.7,0.7,1","1,0.7,0.7,0.7,1,0.7,0.7,0.7,1","","",""
"","html-keyboard-response","274","73548","0.0-274.0","3VA45EW49O9WOXUCWJATTY435RTO1H","ACJ6NSCIWMUZI","3AQN9REUTF20OMGWRXYK787Q1B1YD0","","null","<img src=""img/land6.png"" style=""width:200px; border:14px solid green;"">","null","","","","","","","","","",""
"","image-keyboard-response","275","73675","0.0-275.0","3VA45EW49O9WOXUCWJATTY435RTO1H","ACJ6NSCIWMUZI","3AQN9REUTF20OMGWRXYK787Q1B1YD0","","125.5","img/land5.png","74","126.90000000037253","1","1","2","2","1,0.7,0.7,0.7,1,0.7,0.7,0.7,1","1,0.7,0.7,0.7,1,0.7,0.7,0.7,1","","",""
"","html-keyboard-response","276","73980","0.0-276.0","3VA45EW49O9WOXUCWJATTY435RTO1H","ACJ6NSCIWMUZI","3AQN9REUTF20OMGWRXYK787Q1B1YD0","","null","<img src=""img/land5.png"" style=""width:200px; border:14px solid green;"">","null","","","","","","","","","",""
"","image-keyboard-response","277","74013","0.0-277.0","3VA45EW49O9WOXUCWJATTY435RTO1H","ACJ6NSCIWMUZI","3AQN9REUTF20OMGWRXYK787Q1B1YD0","","31.40000000037253","img/land6.png","75","32.79999999888241","2","0","3","2","1,0.7,0.7,0.7,1,0.7,0.7,0.7,1","1,0.7,0.7,0.7,1,0.7,0.7,0.7,1","","",""
"","html-keyboard-response","278","74316","0.0-278.0","3VA45EW49O9WOXUCWJATTY435RTO1H","ACJ6NSCIWMUZI","3AQN9REUTF20OMGWRXYK787Q1B1YD0","","null","<img src=""img/land6.png"" style=""width:200px;border:14px solid red;"">","null","","","","","","","","","",""
"","image-keyboard-response","279","74425","0.0-279.0","3VA45EW49O9WOXUCWJATTY435RTO1H","ACJ6NSCIWMUZI","3AQN9REUTF20OMGWRXYK787Q1B1YD0","","107.5","img/land4.png","75","109.09999999962747","2","1","1","2","1,0.7,0.7,0.7,1,0.7,0.7,0.7,1","1,0.7,0.7,0.7,1,0.7,0.7,0.7,1","","",""
"","html-keyboard-response","280","74731","0.0-280.0","3VA45EW49O9WOXUCWJATTY435RTO1H","ACJ6NSCIWMUZI","3AQN9REUTF20OMGWRXYK787Q1B1YD0","","null","<img src=""img/land4.png"" style=""width:200px; border:14px solid green;"">","null","","","","","","","","","",""
"","image-keyboard-response","281","74857","0.0-281.0","3VA45EW49O9WOXUCWJATTY435RTO1H","ACJ6NSCIWMUZI","3AQN9REUTF20OMGWRXYK787Q1B1YD0","","123.70000000111759","img/land5.png","76","125.09999999962747","3","1","2","2","1,0.7,0.7,0.7,1,0.7,0.7,0.7,1","1,0.7,0.7,0.7,1,0.7,0.7,0.7,1","","",""
"","html-keyboard-response","282","75164","0.0-282.0","3VA45EW49O9WOXUCWJATTY435RTO1H","ACJ6NSCIWMUZI","3AQN9REUTF20OMGWRXYK787Q1B1YD0","","null","<img src=""img/land5.png"" style=""width:200px; border:14px solid green;"">","null","","","","","","","","","",""
"","image-keyboard-response","283","75192","0.0-283.0","3VA45EW49O9WOXUCWJATTY435RTO1H","ACJ6NSCIWMUZI","3AQN9REUTF20OMGWRXYK787Q1B1YD0","","26.299999998882413","img/land4.png","74","27.59999999962747","1","1","1","2","1,0.7,0.7,0.7,1,0.7,0.7,0.7,1","1,0.7,0.7,0.7,1,0.7,0.7,0.7,1","","",""
"","html-keyboard-response","284","75500","0.0-284.0","3VA45EW49O9WOXUCWJATTY435RTO1H","ACJ6NSCIWMUZI","3AQN9REUTF20OMGWRXYK787Q1B1YD0","","null","<img src=""img/land4.png"" style=""width:200px; border:14px solid green;"">","null","","","","","","","","","",""
"","image-keyboard-response","285","75581","0.0-285.0","3VA45EW49O9WOXUCWJATTY435RTO1H","ACJ6NSCIWMUZI","3AQN9REUTF20OMGWRXYK787Q1B1YD0","","79.29999999888241","img/land5.png","75","80.69999999925494","2","1","2","2","1,0.7,0.7,0.7,1,0.7,0.7,0.7,1","1,0.7,0.7,0.7,1,0.7,0.7,0.7,1","","",""
"","html-keyboard-response","286","75884","0.0-286.0","3VA45EW49O9WOXUCWJATTY435RTO1H","ACJ6NSCIWMUZI","3AQN9REUTF20OMGWRXYK787Q1B1YD0","","null","<img src=""img/land5.png"" style=""width:200px; border:14px solid green;"">","null","","","","","","","","","",""
"","image-keyboard-response","287","75968","0.0-287.0","3VA45EW49O9WOXUCWJATTY435RTO1H","ACJ6NSCIWMUZI","3AQN9REUTF20OMGWRXYK787Q1B1YD0","","82.80000000074506","img/land6.png","76","84.40000000037253","3","1","3","2","1,0.7,0.7,0.7,1,0.7,0.7,0.7,1","1,0.7,0.7,0.7,1,0.7,0.7,0.7,1","","",""
"","html-keyboard-response","288","76276","0.0-288.0","3VA45EW49O9WOXUCWJATTY435RTO1H","ACJ6NSCIWMUZI","3AQN9REUTF20OMGWRXYK787Q1B1YD0","","null","<img src=""img/land6.png"" style=""width:200px; border:14px solid green;"">","null","","","","","","","","","",""
"","image-keyboard-response","289","76352","0.0-289.0","3VA45EW49O9WOXUCWJATTY435RTO1H","ACJ6NSCIWMUZI","3AQN9REUTF20OMGWRXYK787Q1B1YD0","","73.5","img/land4.png","74","75.30000000074506","1","1","1","2","1,0.7,0.7,0.7,1,0.7,0.7,0.7,1","1,0.7,0.7,0.7,1,0.7,0.7,0.7,1","","",""
"","html-keyboard-response","290","76660","0.0-290.0","3VA45EW49O9WOXUCWJATTY435RTO1H","ACJ6NSCIWMUZI","3AQN9REUTF20OMGWRXYK787Q1B1YD0","","null","<img src=""img/land4.png"" style=""width:200px; border:14px solid green;"">","null","","","","","","","","","",""
"","image-keyboard-response","291","76858","0.0-291.0","3VA45EW49O9WOXUCWJATTY435RTO1H","ACJ6NSCIWMUZI","3AQN9REUTF20OMGWRXYK787Q1B1YD0","","196.40000000037253","img/land6.png","74","197.59999999962747","1","1","3","2","1,0.7,0.7,0.7,1,0.7,0.7,0.7,1","1,0.7,0.7,0.7,1,0.7,0.7,0.7,1","","",""
"","html-keyboard-response","292","77163","0.0-292.0","3VA45EW49O9WOXUCWJATTY435RTO1H","ACJ6NSCIWMUZI","3AQN9REUTF20OMGWRXYK787Q1B1YD0","","null","<img src=""img/land6.png"" style=""width:200px; border:14px solid green;"">","null","","","","","","","","","",""
"","image-keyboard-response","293","77318","0.0-293.0","3VA45EW49O9WOXUCWJATTY435RTO1H","ACJ6NSCIWMUZI","3AQN9REUTF20OMGWRXYK787Q1B1YD0","","153.2000000011176","img/land6.png","74","154.7000000011176","1","1","3","2","1,0.7,0.7,0.7,1,0.7,0.7,0.7,1","1,0.7,0.7,0.7,1,0.7,0.7,0.7,1","","",""
"","html-keyboard-response","294","77628","0.0-294.0","3VA45EW49O9WOXUCWJATTY435RTO1H","ACJ6NSCIWMUZI","3AQN9REUTF20OMGWRXYK787Q1B1YD0","","null","<img src=""img/land6.png"" style=""width:200px; border:14px solid green;"">","null","","","","","","","","","",""
"","image-keyboard-response","295","77779","0.0-295.0","3VA45EW49O9WOXUCWJATTY435RTO1H","ACJ6NSCIWMUZI","3AQN9REUTF20OMGWRXYK787Q1B1YD0","","149.40000000037253","img/land5.png","74","150.89999999850988","1","1","2","2","1,0.7,0.7,0.7,1,0.7,0.7,0.7,1","1,0.7,0.7,0.7,1,0.7,0.7,0.7,1","","",""
"","html-keyboard-response","296","78084","0.0-296.0","3VA45EW49O9WOXUCWJATTY435RTO1H","ACJ6NSCIWMUZI","3AQN9REUTF20OMGWRXYK787Q1B1YD0","","null","<img src=""img/land5.png"" style=""width:200px; border:14px solid green;"">","null","","","","","","","","","",""
"","image-keyboard-response","297","78217","0.0-297.0","3VA45EW49O9WOXUCWJATTY435RTO1H","ACJ6NSCIWMUZI","3AQN9REUTF20OMGWRXYK787Q1B1YD0","","131.19999999925494","img/land4.png","74","132.59999999962747","1","1","1","2","1,0.7,0.7,0.7,1,0.7,0.7,0.7,1","1,0.7,0.7,0.7,1,0.7,0.7,0.7,1","","",""
"","html-keyboard-response","298","78523","0.0-298.0","3VA45EW49O9WOXUCWJATTY435RTO1H","ACJ6NSCIWMUZI","3AQN9REUTF20OMGWRXYK787Q1B1YD0","","null","<img src=""img/land4.png"" style=""width:200px; border:14px solid green;"">","null","","","","","","","","","",""
"","image-keyboard-response","299","78582","0.0-299.0","3VA45EW49O9WOXUCWJATTY435RTO1H","ACJ6NSCIWMUZI","3AQN9REUTF20OMGWRXYK787Q1B1YD0","","56.70000000111759","img/land4.png","76","58.20000000111759","3","0","1","2","1,0.7,0.7,0.7,1,0.7,0.7,0.7,1","1,0.7,0.7,0.7,1,0.7,0.7,0.7,1","","",""
"","html-keyboard-response","300","78884","0.0-300.0","3VA45EW49O9WOXUCWJATTY435RTO1H","ACJ6NSCIWMUZI","3AQN9REUTF20OMGWRXYK787Q1B1YD0","","null","<img src=""img/land4.png"" style=""width:200px;border:14px solid red;"">","null","","","","","","","","","",""
"","image-keyboard-response","301","79035","0.0-301.0","3VA45EW49O9WOXUCWJATTY435RTO1H","ACJ6NSCIWMUZI","3AQN9REUTF20OMGWRXYK787Q1B1YD0","","149.90000000037253","img/land6.png","75","151.69999999925494","2","1","3","2","1,0.7,0.7,0.7,1,0.7,0.7,0.7,1","1,0.7,0.7,0.7,1,0.7,0.7,0.7,1","","",""
"","html-keyboard-response","302","79341","0.0-302.0","3VA45EW49O9WOXUCWJATTY435RTO1H","ACJ6NSCIWMUZI","3AQN9REUTF20OMGWRXYK787Q1B1YD0","","null","<img src=""img/land6.png"" style=""width:200px; border:14px solid green;"">","null","","","","","","","","","",""
"","image-keyboard-response","303","79489","0.0-303.0","3VA45EW49O9WOXUCWJATTY435RTO1H","ACJ6NSCIWMUZI","3AQN9REUTF20OMGWRXYK787Q1B1YD0","","145.90000000037253","img/land6.png","74","147.90000000037253","1","1","3","2","1,0.7,0.7,0.7,1,0.7,0.7,0.7,1","1,0.7,0.7,0.7,1,0.7,0.7,0.7,1","","",""
"","html-keyboard-response","304","79797","0.0-304.0","3VA45EW49O9WOXUCWJATTY435RTO1H","ACJ6NSCIWMUZI","3AQN9REUTF20OMGWRXYK787Q1B1YD0","","null","<img src=""img/land6.png"" style=""width:200px; border:14px solid green;"">","null","","","","","","","","","",""
"","image-keyboard-response","305","79903","0.0-305.0","3VA45EW49O9WOXUCWJATTY435RTO1H","ACJ6NSCIWMUZI","3AQN9REUTF20OMGWRXYK787Q1B1YD0","","104.5","img/land6.png","74","105.90000000037253","1","0","3","2","1,0.7,0.7,0.7,1,0.7,0.7,0.7,1","1,0.7,0.7,0.7,1,0.7,0.7,0.7,1","","",""
"","html-keyboard-response","306","80212","0.0-306.0","3VA45EW49O9WOXUCWJATTY435RTO1H","ACJ6NSCIWMUZI","3AQN9REUTF20OMGWRXYK787Q1B1YD0","","null","<img src=""img/land6.png"" style=""width:200px;border:14px solid red;"">","null","","","","","","","","","",""
"","image-keyboard-response","307","80342","0.0-307.0","3VA45EW49O9WOXUCWJATTY435RTO1H","ACJ6NSCIWMUZI","3AQN9REUTF20OMGWRXYK787Q1B1YD0","","128.7999999988824","img/land5.png","75","130.2999999988824","2","1","2","2","1,0.7,0.7,0.7,1,0.7,0.7,0.7,1","1,0.7,0.7,0.7,1,0.7,0.7,0.7,1","","",""
"","html-keyboard-response","308","80652","0.0-308.0","3VA45EW49O9WOXUCWJATTY435RTO1H","ACJ6NSCIWMUZI","3AQN9REUTF20OMGWRXYK787Q1B1YD0","","null","<img src=""img/land5.png"" style=""width:200px; border:14px solid green;"">","null","","","","","","","","","",""
"","image-keyboard-response","309","80724","0.0-309.0","3VA45EW49O9WOXUCWJATTY435RTO1H","ACJ6NSCIWMUZI","3AQN9REUTF20OMGWRXYK787Q1B1YD0","","70.5","img/land6.png","74","72.09999999962747","1","0","3","2","1,0.7,0.7,0.7,1,0.7,0.7,0.7,1","1,0.7,0.7,0.7,1,0.7,0.7,0.7,1","","",""
"","html-keyboard-response","310","81028","0.0-310.0","3VA45EW49O9WOXUCWJATTY435RTO1H","ACJ6NSCIWMUZI","3AQN9REUTF20OMGWRXYK787Q1B1YD0","","null","<img src=""img/land6.png"" style=""width:200px;border:14px solid red;"">","null","","","","","","","","","",""
"","image-keyboard-response","311","81044","0.0-311.0","3VA45EW49O9WOXUCWJATTY435RTO1H","ACJ6NSCIWMUZI","3AQN9REUTF20OMGWRXYK787Q1B1YD0","","13.900000000372529","img/land5.png","75","15.300000000745058","2","1","2","2","1,0.7,0.7,0.7,1,0.7,0.7,0.7,1","1,0.7,0.7,0.7,1,0.7,0.7,0.7,1","","",""
"","html-keyboard-response","312","81348","0.0-312.0","3VA45EW49O9WOXUCWJATTY435RTO1H","ACJ6NSCIWMUZI","3AQN9REUTF20OMGWRXYK787Q1B1YD0","","null","<img src=""img/land5.png"" style=""width:200px; border:14px solid green;"">","null","","","","","","","","","",""
"","image-keyboard-response","313","81462","0.0-313.0","3VA45EW49O9WOXUCWJATTY435RTO1H","ACJ6NSCIWMUZI","3AQN9REUTF20OMGWRXYK787Q1B1YD0","","112.59999999962747","img/land4.png","76","113.90000000037253","3","1","1","2","1,0.7,0.7,0.7,1,0.7,0.7,0.7,1","1,0.7,0.7,0.7,1,0.7,0.7,0.7,1","","",""
"","html-keyboard-response","314","81772","0.0-314.0","3VA45EW49O9WOXUCWJATTY435RTO1H","ACJ6NSCIWMUZI","3AQN9REUTF20OMGWRXYK787Q1B1YD0","","null","<img src=""img/land4.png"" style=""width:200px; border:14px solid green;"">","null","","","","","","","","","",""
"","image-keyboard-response","315","81876","0.0-315.0","3VA45EW49O9WOXUCWJATTY435RTO1H","ACJ6NSCIWMUZI","3AQN9REUTF20OMGWRXYK787Q1B1YD0","","102.5","img/land6.png","76","104.09999999962747","3","1","3","2","1,0.7,0.7,0.7,1,0.7,0.7,0.7,1","1,0.7,0.7,0.7,1,0.7,0.7,0.7,1","","",""
"","html-keyboard-response","316","82180","0.0-316.0","3VA45EW49O9WOXUCWJATTY435RTO1H","ACJ6NSCIWMUZI","3AQN9REUTF20OMGWRXYK787Q1B1YD0","","null","<img src=""img/land6.png"" style=""width:200px; border:14px solid green;"">","null","","","","","","","","","",""
"","image-keyboard-response","317","82313","0.0-317.0","3VA45EW49O9WOXUCWJATTY435RTO1H","ACJ6NSCIWMUZI","3AQN9REUTF20OMGWRXYK787Q1B1YD0","","131.60000000149012","img/land5.png","76","133.19999999925494","3","0","2","2","1,0.7,0.7,0.7,1,0.7,0.7,0.7,1","1,0.7,0.7,0.7,1,0.7,0.7,0.7,1","","",""
"","html-keyboard-response","318","82620","0.0-318.0","3VA45EW49O9WOXUCWJATTY435RTO1H","ACJ6NSCIWMUZI","3AQN9REUTF20OMGWRXYK787Q1B1YD0","","null","<img src=""img/land5.png"" style=""width:200px;border:14px solid red;"">","null","","","","","","","","","",""
"","image-keyboard-response","319","82654","0.0-319.0","3VA45EW49O9WOXUCWJATTY435RTO1H","ACJ6NSCIWMUZI","3AQN9REUTF20OMGWRXYK787Q1B1YD0","","32.600000001490116","img/land4.png","74","34","1","1","1","2","1,0.7,0.7,0.7,1,0.7,0.7,0.7,1","1,0.7,0.7,0.7,1,0.7,0.7,0.7,1","","",""
"","html-keyboard-response","320","82964","0.0-320.0","3VA45EW49O9WOXUCWJATTY435RTO1H","ACJ6NSCIWMUZI","3AQN9REUTF20OMGWRXYK787Q1B1YD0","","null","<img src=""img/land4.png"" style=""width:200px; border:14px solid green;"">","null","","","","","","","","","",""
"","image-keyboard-response","321","83067","0.0-321.0","3VA45EW49O9WOXUCWJATTY435RTO1H","ACJ6NSCIWMUZI","3AQN9REUTF20OMGWRXYK787Q1B1YD0","","100.69999999925494","img/land6.png","75","102.59999999962747","2","1","3","2","1,0.7,0.7,0.7,1,0.7,0.7,0.7,1","1,0.7,0.7,0.7,1,0.7,0.7,0.7,1","","",""
"","html-keyboard-response","322","83372","0.0-322.0","3VA45EW49O9WOXUCWJATTY435RTO1H","ACJ6NSCIWMUZI","3AQN9REUTF20OMGWRXYK787Q1B1YD0","","null","<img src=""img/land6.png"" style=""width:200px; border:14px solid green;"">","null","","","","","","","","","",""
"","image-keyboard-response","323","83549","0.0-323.0","3VA45EW49O9WOXUCWJATTY435RTO1H","ACJ6NSCIWMUZI","3AQN9REUTF20OMGWRXYK787Q1B1YD0","","175.59999999962747","img/land4.png","74","177","1","1","1","2","1,0.7,0.7,0.7,1,0.7,0.7,0.7,1","1,0.7,0.7,0.7,1,0.7,0.7,0.7,1","","",""
"","html-keyboard-response","324","83851","0.0-324.0","3VA45EW49O9WOXUCWJATTY435RTO1H","ACJ6NSCIWMUZI","3AQN9REUTF20OMGWRXYK787Q1B1YD0","","null","<img src=""img/land4.png"" style=""width:200px; border:14px solid green;"">","null","","","","","","","","","",""
"","image-keyboard-response","325","83939","0.0-325.0","3VA45EW49O9WOXUCWJATTY435RTO1H","ACJ6NSCIWMUZI","3AQN9REUTF20OMGWRXYK787Q1B1YD0","","85.60000000149012","img/land4.png","75","87","2","1","1","2","1,0.7,0.7,0.7,1,0.7,0.7,0.7,1","1,0.7,0.7,0.7,1,0.7,0.7,0.7,1","","",""
"","html-keyboard-response","326","84244","0.0-326.0","3VA45EW49O9WOXUCWJATTY435RTO1H","ACJ6NSCIWMUZI","3AQN9REUTF20OMGWRXYK787Q1B1YD0","","null","<img src=""img/land4.png"" style=""width:200px; border:14px solid green;"">","null","","","","","","","","","",""
"","image-keyboard-response","327","84449","0.0-327.0","3VA45EW49O9WOXUCWJATTY435RTO1H","ACJ6NSCIWMUZI","3AQN9REUTF20OMGWRXYK787Q1B1YD0","","203.30000000074506","img/land6.png","75","204.90000000037253","2","0","3","2","1,0.7,0.7,0.7,1,0.7,0.7,0.7,1","1,0.7,0.7,0.7,1,0.7,0.7,0.7,1","","",""
"","html-keyboard-response","328","84756","0.0-328.0","3VA45EW49O9WOXUCWJATTY435RTO1H","ACJ6NSCIWMUZI","3AQN9REUTF20OMGWRXYK787Q1B1YD0","","null","<img src=""img/land6.png"" style=""width:200px;border:14px solid red;"">","null","","","","","","","","","",""
"","image-keyboard-response","329","84767","0.0-329.0","3VA45EW49O9WOXUCWJATTY435RTO1H","ACJ6NSCIWMUZI","3AQN9REUTF20OMGWRXYK787Q1B1YD0","","8.799999998882413","img/land5.png","74","10.399999998509884","1","1","2","2","1,0.7,0.7,0.7,1,0.7,0.7,0.7,1","1,0.7,0.7,0.7,1,0.7,0.7,0.7,1","","",""
"","html-keyboard-response","330","85077","0.0-330.0","3VA45EW49O9WOXUCWJATTY435RTO1H","ACJ6NSCIWMUZI","3AQN9REUTF20OMGWRXYK787Q1B1YD0","","null","<img src=""img/land5.png"" style=""width:200px; border:14px solid green;"">","null","","","","","","","","","",""
"","image-keyboard-response","331","85203","0.0-331.0","3VA45EW49O9WOXUCWJATTY435RTO1H","ACJ6NSCIWMUZI","3AQN9REUTF20OMGWRXYK787Q1B1YD0","","123.90000000037253","img/land5.png","74","125.59999999962747","1","1","2","2","1,0.7,0.7,0.7,1,0.7,0.7,0.7,1","1,0.7,0.7,0.7,1,0.7,0.7,0.7,1","","",""
"","html-keyboard-response","332","85508","0.0-332.0","3VA45EW49O9WOXUCWJATTY435RTO1H","ACJ6NSCIWMUZI","3AQN9REUTF20OMGWRXYK787Q1B1YD0","","null","<img src=""img/land5.png"" style=""width:200px; border:14px solid green;"">","null","","","","","","","","","",""
"","image-keyboard-response","333","85709","0.0-333.0","3VA45EW49O9WOXUCWJATTY435RTO1H","ACJ6NSCIWMUZI","3AQN9REUTF20OMGWRXYK787Q1B1YD0","","199.2999999988824","img/land5.png","74","200.69999999925494","1","1","2","2","1,0.7,0.7,0.7,1,0.7,0.7,0.7,1","1,0.7,0.7,0.7,1,0.7,0.7,0.7,1","","",""
"","html-keyboard-response","334","86012","0.0-334.0","3VA45EW49O9WOXUCWJATTY435RTO1H","ACJ6NSCIWMUZI","3AQN9REUTF20OMGWRXYK787Q1B1YD0","","null","<img src=""img/land5.png"" style=""width:200px; border:14px solid green;"">","null","","","","","","","","","",""
"","image-keyboard-response","335","86056","0.0-335.0","3VA45EW49O9WOXUCWJATTY435RTO1H","ACJ6NSCIWMUZI","3AQN9REUTF20OMGWRXYK787Q1B1YD0","","42.19999999925494","img/land6.png","75","43.899999998509884","2","0","3","2","1,0.7,0.7,0.7,1,0.7,0.7,0.7,1","1,0.7,0.7,0.7,1,0.7,0.7,0.7,1","","",""
"","html-keyboard-response","336","86364","0.0-336.0","3VA45EW49O9WOXUCWJATTY435RTO1H","ACJ6NSCIWMUZI","3AQN9REUTF20OMGWRXYK787Q1B1YD0","","null","<img src=""img/land6.png"" style=""width:200px;border:14px solid red;"">","null","","","","","","","","","",""
"","image-keyboard-response","337","86445","0.0-337.0","3VA45EW49O9WOXUCWJATTY435RTO1H","ACJ6NSCIWMUZI","3AQN9REUTF20OMGWRXYK787Q1B1YD0","","79","img/land6.png","74","80.80000000074506","1","1","3","2","1,0.7,0.7,0.7,1,0.7,0.7,0.7,1","1,0.7,0.7,0.7,1,0.7,0.7,0.7,1","","",""
"","html-keyboard-response","338","86748","0.0-338.0","3VA45EW49O9WOXUCWJATTY435RTO1H","ACJ6NSCIWMUZI","3AQN9REUTF20OMGWRXYK787Q1B1YD0","","null","<img src=""img/land6.png"" style=""width:200px; border:14px solid green;"">","null","","","","","","","","","",""
"","instructions","339","89448","0.0-339.0","3VA45EW49O9WOXUCWJATTY435RTO1H","ACJ6NSCIWMUZI","3AQN9REUTF20OMGWRXYK787Q1B1YD0","[{""page_index"":0,""viewing_time"":2699}]","2699.39999999851","","","","","","","","","","","",""
"","survey-text","340","93122","0.0-340.0-0.0","3VA45EW49O9WOXUCWJATTY435RTO1H","ACJ6NSCIWMUZI","3AQN9REUTF20OMGWRXYK787Q1B1YD0","","3669.5999999996275","","","","","","","","","","","{""Q0"":""55""}",""
"","survey-multi-choice","341","95411","0.0-340.0-1.0","3VA45EW49O9WOXUCWJATTY435RTO1H","ACJ6NSCIWMUZI","3AQN9REUTF20OMGWRXYK787Q1B1YD0","","2286.4000000003725","","","","","","","","","","","{""gender"":""M""}","[0]"
"","survey-text","342","100832","0.0-341.0","3VA45EW49O9WOXUCWJATTY435RTO1H","ACJ6NSCIWMUZI","3AQN9REUTF20OMGWRXYK787Q1B1YD0","","5416.0999999996275","","","","","","","","","","","{""Q0"":""ACJ6NSCIWMUZI""}",""
