"success","trial_type","trial_index","time_elapsed","internal_node_id","assignmentID","mturkID","hitID","view_history","rt","stimulus","key_press","reactionTime","a","r","s","cond","reward_cond","reward_cond_actual","reward_matrix_idx","responses","question_order"
"true","fullscreen","0","2273","0.0-0.0","3OSWBBLG1FJDA1OGD3HKDDW56S1XDL","ACKG8OU1KHKO2","3MVY4USGB69K0BK9K576GJZ2CVDSII","","","","","","","","","","","","","",""
"","instructions","1","8701","0.0-1.0","3OSWBBLG1FJDA1OGD3HKDDW56S1XDL","ACKG8OU1KHKO2","3MVY4USGB69K0BK9K576GJZ2CVDSII","[{""page_index"":0,""viewing_time"":1385.1000000238419},{""page_index"":1,""viewing_time"":999.8999999761581},{""page_index"":2,""viewing_time"":302.8000000715256},{""page_index"":3,""viewing_time"":863.0999999046326},{""page_index"":4,""viewing_time"":1188},{""page_index"":5,""viewing_time"":1008.1000000238419},{""page_index"":6,""viewing_time"":679.1000000238419}]","6426.399999976158","","","","","","","","","","","",""
"","image-keyboard-response","2","9933","0.0-2.0","3OSWBBLG1FJDA1OGD3HKDDW56S1XDL","ACKG8OU1KHKO2","3MVY4USGB69K0BK9K576GJZ2CVDSII","","1230.8999999761581","img/land3.png","75","1231.7999999523163","2","1","3","1","1,0.7,0.7,0.7,1,0.7,0.7,0.7,1","1,0.7,0.7,0.7,1,0.7,0.7,0.7,1","","",""
"","html-keyboard-response","3","10244","0.0-3.0","3OSWBBLG1FJDA1OGD3HKDDW56S1XDL","ACKG8OU1KHKO2","3MVY4USGB69K0BK9K576GJZ2CVDSII","","null","<img src=""img/land3.png"" style=""width:200px; border:14px solid green;"">","null","","","","","","","","","",""
"","image-keyboard-response","4","10756","0.0-4.0","3OSWBBLG1FJDA1OGD3HKDDW56S1XDL","ACKG8OU1KHKO2","3MVY4USGB69K0BK9K576GJZ2CVDSII","","511.5","img/land2.png","75","512.1000000238419","2","1","2","1","1,0.7,0.7,0.7,1,0.7,0.7,0.7,1","1,0.7,0.7,0.7,1,0.7,0.7,0.7,1","","",""
"","html-keyboard-response","5","11067","0.0-5.0","3OSWBBLG1FJDA1OGD3HKDDW56S1XDL","ACKG8OU1KHKO2","3MVY4USGB69K0BK9K576GJZ2CVDSII","","null","<img src=""img/land2.png"" style=""width:200px; border:14px solid green;"">","null","","","","","","","","","",""
"","image-keyboard-response","6","11628","0.0-6.0","3OSWBBLG1FJDA1OGD3HKDDW56S1XDL","ACKG8OU1KHKO2","3MVY4USGB69K0BK9K576GJZ2CVDSII","","560.2999999523163","img/land3.png","75","561","2","1","3","1","1,0.7,0.7,0.7,1,0.7,0.7,0.7,1","1,0.7,0.7,0.7,1,0.7,0.7,0.7,1","","",""
"","html-keyboard-response","7","11938","0.0-7.0","3OSWBBLG1FJDA1OGD3HKDDW56S1XDL","ACKG8OU1KHKO2","3MVY4USGB69K0BK9K576GJZ2CVDSII","","null","<img src=""img/land3.png"" style=""width:200px; border:14px solid green;"">","null","","","","","","","","","",""
"","image-keyboard-response","8","12284","0.0-8.0","3OSWBBLG1FJDA1OGD3HKDDW56S1XDL","ACKG8OU1KHKO2","3MVY4USGB69K0BK9K576GJZ2CVDSII","","345.40000009536743","img/land3.png","75","346","2","1","3","1","1,0.7,0.7,0.7,1,0.7,0.7,0.7,1","1,0.7,0.7,0.7,1,0.7,0.7,0.7,1","","",""
"","html-keyboard-response","9","12594","0.0-9.0","3OSWBBLG1FJDA1OGD3HKDDW56S1XDL","ACKG8OU1KHKO2","3MVY4USGB69K0BK9K576GJZ2CVDSII","","null","<img src=""img/land3.png"" style=""width:200px; border:14px solid green;"">","null","","","","","","","","","",""
"","image-keyboard-response","10","13068","0.0-10.0","3OSWBBLG1FJDA1OGD3HKDDW56S1XDL","ACKG8OU1KHKO2","3MVY4USGB69K0BK9K576GJZ2CVDSII","","473.8000000715256","img/land2.png","75","474.39999997615814","2","1","2","1","1,0.7,0.7,0.7,1,0.7,0.7,0.7,1","1,0.7,0.7,0.7,1,0.7,0.7,0.7,1","","",""
"","html-keyboard-response","11","13372","0.0-11.0","3OSWBBLG1FJDA1OGD3HKDDW56S1XDL","ACKG8OU1KHKO2","3MVY4USGB69K0BK9K576GJZ2CVDSII","","null","<img src=""img/land2.png"" style=""width:200px; border:14px solid green;"">","null","","","","","","","","","",""
"","image-keyboard-response","12","13836","0.0-12.0","3OSWBBLG1FJDA1OGD3HKDDW56S1XDL","ACKG8OU1KHKO2","3MVY4USGB69K0BK9K576GJZ2CVDSII","","463.39999997615814","img/land3.png","75","464","2","1","3","1","1,0.7,0.7,0.7,1,0.7,0.7,0.7,1","1,0.7,0.7,0.7,1,0.7,0.7,0.7,1","","",""
"","html-keyboard-response","13","14149","0.0-13.0","3OSWBBLG1FJDA1OGD3HKDDW56S1XDL","ACKG8OU1KHKO2","3MVY4USGB69K0BK9K576GJZ2CVDSII","","null","<img src=""img/land3.png"" style=""width:200px; border:14px solid green;"">","null","","","","","","","","","",""
"","image-keyboard-response","14","14476","0.0-14.0","3OSWBBLG1FJDA1OGD3HKDDW56S1XDL","ACKG8OU1KHKO2","3MVY4USGB69K0BK9K576GJZ2CVDSII","","326.7000000476837","img/land3.png","75","327.2000000476837","2","1","3","1","1,0.7,0.7,0.7,1,0.7,0.7,0.7,1","1,0.7,0.7,0.7,1,0.7,0.7,0.7,1","","",""
"","html-keyboard-response","15","14788","0.0-15.0","3OSWBBLG1FJDA1OGD3HKDDW56S1XDL","ACKG8OU1KHKO2","3MVY4USGB69K0BK9K576GJZ2CVDSII","","null","<img src=""img/land3.png"" style=""width:200px; border:14px solid green;"">","null","","","","","","","","","",""
"","image-keyboard-response","16","15180","0.0-16.0","3OSWBBLG1FJDA1OGD3HKDDW56S1XDL","ACKG8OU1KHKO2","3MVY4USGB69K0BK9K576GJZ2CVDSII","","390.7999999523163","img/land1.png","75","391.7999999523163","2","0","1","1","1,0.7,0.7,0.7,1,0.7,0.7,0.7,1","1,0.7,0.7,0.7,1,0.7,0.7,0.7,1","","",""
"","html-keyboard-response","17","15489","0.0-17.0","3OSWBBLG1FJDA1OGD3HKDDW56S1XDL","ACKG8OU1KHKO2","3MVY4USGB69K0BK9K576GJZ2CVDSII","","null","<img src=""img/land1.png"" style=""width:200px;border:14px solid red;"">","null","","","","","","","","","",""
"","image-keyboard-response","18","15956","0.0-18.0","3OSWBBLG1FJDA1OGD3HKDDW56S1XDL","ACKG8OU1KHKO2","3MVY4USGB69K0BK9K576GJZ2CVDSII","","466.2999999523163","img/land2.png","75","466.90000009536743","2","1","2","1","1,0.7,0.7,0.7,1,0.7,0.7,0.7,1","1,0.7,0.7,0.7,1,0.7,0.7,0.7,1","","",""
"","html-keyboard-response","19","16268","0.0-19.0","3OSWBBLG1FJDA1OGD3HKDDW56S1XDL","ACKG8OU1KHKO2","3MVY4USGB69K0BK9K576GJZ2CVDSII","","null","<img src=""img/land2.png"" style=""width:200px; border:14px solid green;"">","null","","","","","","","","","",""
"","image-keyboard-response","20","16572","0.0-20.0","3OSWBBLG1FJDA1OGD3HKDDW56S1XDL","ACKG8OU1KHKO2","3MVY4USGB69K0BK9K576GJZ2CVDSII","","303.2000000476837","img/land2.png","75","303.7000000476837","2","1","2","1","1,0.7,0.7,0.7,1,0.7,0.7,0.7,1","1,0.7,0.7,0.7,1,0.7,0.7,0.7,1","","",""
"","html-keyboard-response","21","16884","0.0-21.0","3OSWBBLG1FJDA1OGD3HKDDW56S1XDL","ACKG8OU1KHKO2","3MVY4USGB69K0BK9K576GJZ2CVDSII","","null","<img src=""img/land2.png"" style=""width:200px; border:14px solid green;"">","null","","","","","","","","","",""
"","image-keyboard-response","22","17204","0.0-22.0","3OSWBBLG1FJDA1OGD3HKDDW56S1XDL","ACKG8OU1KHKO2","3MVY4USGB69K0BK9K576GJZ2CVDSII","","319.5","img/land2.png","75","320.09999990463257","2","1","2","1","1,0.7,0.7,0.7,1,0.7,0.7,0.7,1","1,0.7,0.7,0.7,1,0.7,0.7,0.7,1","","",""
"","html-keyboard-response","23","17517","0.0-23.0","3OSWBBLG1FJDA1OGD3HKDDW56S1XDL","ACKG8OU1KHKO2","3MVY4USGB69K0BK9K576GJZ2CVDSII","","null","<img src=""img/land2.png"" style=""width:200px; border:14px solid green;"">","null","","","","","","","","","",""
"","image-keyboard-response","24","17804","0.0-24.0","3OSWBBLG1FJDA1OGD3HKDDW56S1XDL","ACKG8OU1KHKO2","3MVY4USGB69K0BK9K576GJZ2CVDSII","","286.7000000476837","img/land3.png","75","287.3000000715256","2","1","3","1","1,0.7,0.7,0.7,1,0.7,0.7,0.7,1","1,0.7,0.7,0.7,1,0.7,0.7,0.7,1","","",""
"","html-keyboard-response","25","18114","0.0-25.0","3OSWBBLG1FJDA1OGD3HKDDW56S1XDL","ACKG8OU1KHKO2","3MVY4USGB69K0BK9K576GJZ2CVDSII","","null","<img src=""img/land3.png"" style=""width:200px; border:14px solid green;"">","null","","","","","","","","","",""
"","image-keyboard-response","26","18524","0.0-26.0","3OSWBBLG1FJDA1OGD3HKDDW56S1XDL","ACKG8OU1KHKO2","3MVY4USGB69K0BK9K576GJZ2CVDSII","","408.89999997615814","img/land3.png","75","409.39999997615814","2","0","3","1","1,0.7,0.7,0.7,1,0.7,0.7,0.7,1","1,0.7,0.7,0.7,1,0.7,0.7,0.7,1","","",""
"","html-keyboard-response","27","18836","0.0-27.0","3OSWBBLG1FJDA1OGD3HKDDW56S1XDL","ACKG8OU1KHKO2","3MVY4USGB69K0BK9K576GJZ2CVDSII","","null","<img src=""img/land3.png"" style=""width:200px;border:14px solid red;"">","null","","","","","","","","","",""
"","image-keyboard-response","28","20052","0.0-28.0","3OSWBBLG1FJDA1OGD3HKDDW56S1XDL","ACKG8OU1KHKO2","3MVY4USGB69K0BK9K576GJZ2CVDSII","","1216","img/land3.png","74","1216.5999999046326","1","0","3","1","1,0.7,0.7,0.7,1,0.7,0.7,0.7,1","1,0.7,0.7,0.7,1,0.7,0.7,0.7,1","","",""
"","html-keyboard-response","29","20361","0.0-29.0","3OSWBBLG1FJDA1OGD3HKDDW56S1XDL","ACKG8OU1KHKO2","3MVY4USGB69K0BK9K576GJZ2CVDSII","","null","<img src=""img/land3.png"" style=""width:200px;border:14px solid red;"">","null","","","","","","","","","",""
"","image-keyboard-response","30","21604","0.0-30.0","3OSWBBLG1FJDA1OGD3HKDDW56S1XDL","ACKG8OU1KHKO2","3MVY4USGB69K0BK9K576GJZ2CVDSII","","1242.1000000238419","img/land2.png","76","1242.7999999523163","3","1","2","1","1,0.7,0.7,0.7,1,0.7,0.7,0.7,1","1,0.7,0.7,0.7,1,0.7,0.7,0.7,1","","",""
"","html-keyboard-response","31","21913","0.0-31.0","3OSWBBLG1FJDA1OGD3HKDDW56S1XDL","ACKG8OU1KHKO2","3MVY4USGB69K0BK9K576GJZ2CVDSII","","null","<img src=""img/land2.png"" style=""width:200px; border:14px solid green;"">","null","","","","","","","","","",""
"","image-keyboard-response","32","22876","0.0-32.0","3OSWBBLG1FJDA1OGD3HKDDW56S1XDL","ACKG8OU1KHKO2","3MVY4USGB69K0BK9K576GJZ2CVDSII","","962.1000000238419","img/land1.png","76","962.7000000476837","3","0","1","1","1,0.7,0.7,0.7,1,0.7,0.7,0.7,1","1,0.7,0.7,0.7,1,0.7,0.7,0.7,1","","",""
"","html-keyboard-response","33","23189","0.0-33.0","3OSWBBLG1FJDA1OGD3HKDDW56S1XDL","ACKG8OU1KHKO2","3MVY4USGB69K0BK9K576GJZ2CVDSII","","null","<img src=""img/land1.png"" style=""width:200px;border:14px solid red;"">","null","","","","","","","","","",""
"","image-keyboard-response","34","23628","0.0-34.0","3OSWBBLG1FJDA1OGD3HKDDW56S1XDL","ACKG8OU1KHKO2","3MVY4USGB69K0BK9K576GJZ2CVDSII","","437.7000000476837","img/land1.png","75","438.2000000476837","2","0","1","1","1,0.7,0.7,0.7,1,0.7,0.7,0.7,1","1,0.7,0.7,0.7,1,0.7,0.7,0.7,1","","",""
"","html-keyboard-response","35","23937","0.0-35.0","3OSWBBLG1FJDA1OGD3HKDDW56S1XDL","ACKG8OU1KHKO2","3MVY4USGB69K0BK9K576GJZ2CVDSII","","null","<img src=""img/land1.png"" style=""width:200px;border:14px solid red;"">","null","","","","","","","","","",""
"","image-keyboard-response","36","24332","0.0-36.0","3OSWBBLG1FJDA1OGD3HKDDW56S1XDL","ACKG8OU1KHKO2","3MVY4USGB69K0BK9K576GJZ2CVDSII","","394.40000009536743","img/land1.png","74","394.89999997615814","1","1","1","1","1,0.7,0.7,0.7,1,0.7,0.7,0.7,1","1,0.7,0.7,0.7,1,0.7,0.7,0.7,1","","",""
"","html-keyboard-response","37","24641","0.0-37.0","3OSWBBLG1FJDA1OGD3HKDDW56S1XDL","ACKG8OU1KHKO2","3MVY4USGB69K0BK9K576GJZ2CVDSII","","null","<img src=""img/land1.png"" style=""width:200px; border:14px solid green;"">","null","","","","","","","","","",""
"","image-keyboard-response","38","25900","0.0-38.0","3OSWBBLG1FJDA1OGD3HKDDW56S1XDL","ACKG8OU1KHKO2","3MVY4USGB69K0BK9K576GJZ2CVDSII","","1258.1000000238419","img/land3.png","75","1258.6000000238419","2","1","3","1","1,0.7,0.7,0.7,1,0.7,0.7,0.7,1","1,0.7,0.7,0.7,1,0.7,0.7,0.7,1","","",""
"","html-keyboard-response","39","26211","0.0-39.0","3OSWBBLG1FJDA1OGD3HKDDW56S1XDL","ACKG8OU1KHKO2","3MVY4USGB69K0BK9K576GJZ2CVDSII","","null","<img src=""img/land3.png"" style=""width:200px; border:14px solid green;"">","null","","","","","","","","","",""
"","image-keyboard-response","40","27460","0.0-40.0","3OSWBBLG1FJDA1OGD3HKDDW56S1XDL","ACKG8OU1KHKO2","3MVY4USGB69K0BK9K576GJZ2CVDSII","","1248","img/land2.png","76","1248.5","3","1","2","1","1,0.7,0.7,0.7,1,0.7,0.7,0.7,1","1,0.7,0.7,0.7,1,0.7,0.7,0.7,1","","",""
"","html-keyboard-response","41","27774","0.0-41.0","3OSWBBLG1FJDA1OGD3HKDDW56S1XDL","ACKG8OU1KHKO2","3MVY4USGB69K0BK9K576GJZ2CVDSII","","null","<img src=""img/land2.png"" style=""width:200px; border:14px solid green;"">","null","","","","","","","","","",""
"","image-keyboard-response","42","28964","0.0-42.0","3OSWBBLG1FJDA1OGD3HKDDW56S1XDL","ACKG8OU1KHKO2","3MVY4USGB69K0BK9K576GJZ2CVDSII","","1189.6000000238419","img/land3.png","75","1190.1000000238419","2","1","3","1","1,0.7,0.7,0.7,1,0.7,0.7,0.7,1","1,0.7,0.7,0.7,1,0.7,0.7,0.7,1","","",""
"","html-keyboard-response","43","29278","0.0-43.0","3OSWBBLG1FJDA1OGD3HKDDW56S1XDL","ACKG8OU1KHKO2","3MVY4USGB69K0BK9K576GJZ2CVDSII","","null","<img src=""img/land3.png"" style=""width:200px; border:14px solid green;"">","null","","","","","","","","","",""
"","image-keyboard-response","44","30292","0.0-44.0","3OSWBBLG1FJDA1OGD3HKDDW56S1XDL","ACKG8OU1KHKO2","3MVY4USGB69K0BK9K576GJZ2CVDSII","","1014","img/land2.png","76","1014.6000000238419","3","1","2","1","1,0.7,0.7,0.7,1,0.7,0.7,0.7,1","1,0.7,0.7,0.7,1,0.7,0.7,0.7,1","","",""
"","html-keyboard-response","45","30604","0.0-45.0","3OSWBBLG1FJDA1OGD3HKDDW56S1XDL","ACKG8OU1KHKO2","3MVY4USGB69K0BK9K576GJZ2CVDSII","","null","<img src=""img/land2.png"" style=""width:200px; border:14px solid green;"">","null","","","","","","","","","",""
"","image-keyboard-response","46","31492","0.0-46.0","3OSWBBLG1FJDA1OGD3HKDDW56S1XDL","ACKG8OU1KHKO2","3MVY4USGB69K0BK9K576GJZ2CVDSII","","886.7000000476837","img/land1.png","74","887.3999999761581","1","1","1","1","1,0.7,0.7,0.7,1,0.7,0.7,0.7,1","1,0.7,0.7,0.7,1,0.7,0.7,0.7,1","","",""
"","html-keyboard-response","47","31805","0.0-47.0","3OSWBBLG1FJDA1OGD3HKDDW56S1XDL","ACKG8OU1KHKO2","3MVY4USGB69K0BK9K576GJZ2CVDSII","","null","<img src=""img/land1.png"" style=""width:200px; border:14px solid green;"">","null","","","","","","","","","",""
"","image-keyboard-response","48","32891","0.0-48.0","3OSWBBLG1FJDA1OGD3HKDDW56S1XDL","ACKG8OU1KHKO2","3MVY4USGB69K0BK9K576GJZ2CVDSII","","1085.7999999523163","img/land3.png","75","1086.2999999523163","2","0","3","1","1,0.7,0.7,0.7,1,0.7,0.7,0.7,1","1,0.7,0.7,0.7,1,0.7,0.7,0.7,1","","",""
"","html-keyboard-response","49","33197","0.0-49.0","3OSWBBLG1FJDA1OGD3HKDDW56S1XDL","ACKG8OU1KHKO2","3MVY4USGB69K0BK9K576GJZ2CVDSII","","null","<img src=""img/land3.png"" style=""width:200px;border:14px solid red;"">","null","","","","","","","","","",""
"","image-keyboard-response","50","33716","0.0-50.0","3OSWBBLG1FJDA1OGD3HKDDW56S1XDL","ACKG8OU1KHKO2","3MVY4USGB69K0BK9K576GJZ2CVDSII","","518.5","img/land1.png","75","519","2","0","1","1","1,0.7,0.7,0.7,1,0.7,0.7,0.7,1","1,0.7,0.7,0.7,1,0.7,0.7,0.7,1","","",""
"","html-keyboard-response","51","34025","0.0-51.0","3OSWBBLG1FJDA1OGD3HKDDW56S1XDL","ACKG8OU1KHKO2","3MVY4USGB69K0BK9K576GJZ2CVDSII","","null","<img src=""img/land1.png"" style=""width:200px;border:14px solid red;"">","null","","","","","","","","","",""
"","image-keyboard-response","52","34883","0.0-52.0","3OSWBBLG1FJDA1OGD3HKDDW56S1XDL","ACKG8OU1KHKO2","3MVY4USGB69K0BK9K576GJZ2CVDSII","","858.4000000953674","img/land3.png","75","858.7999999523163","2","0","3","1","1,0.7,0.7,0.7,1,0.7,0.7,0.7,1","1,0.7,0.7,0.7,1,0.7,0.7,0.7,1","","",""
"","html-keyboard-response","53","35193","0.0-53.0","3OSWBBLG1FJDA1OGD3HKDDW56S1XDL","ACKG8OU1KHKO2","3MVY4USGB69K0BK9K576GJZ2CVDSII","","null","<img src=""img/land3.png"" style=""width:200px;border:14px solid red;"">","null","","","","","","","","","",""
"","image-keyboard-response","54","36244","0.0-54.0","3OSWBBLG1FJDA1OGD3HKDDW56S1XDL","ACKG8OU1KHKO2","3MVY4USGB69K0BK9K576GJZ2CVDSII","","1050.3999999761581","img/land2.png","76","1050.8999999761581","3","0","2","1","1,0.7,0.7,0.7,1,0.7,0.7,0.7,1","1,0.7,0.7,0.7,1,0.7,0.7,0.7,1","","",""
"","html-keyboard-response","55","36557","0.0-55.0","3OSWBBLG1FJDA1OGD3HKDDW56S1XDL","ACKG8OU1KHKO2","3MVY4USGB69K0BK9K576GJZ2CVDSII","","null","<img src=""img/land2.png"" style=""width:200px;border:14px solid red;"">","null","","","","","","","","","",""
"","image-keyboard-response","56","37315","0.0-56.0","3OSWBBLG1FJDA1OGD3HKDDW56S1XDL","ACKG8OU1KHKO2","3MVY4USGB69K0BK9K576GJZ2CVDSII","","757.1000000238419","img/land1.png","74","757.5999999046326","1","1","1","1","1,0.7,0.7,0.7,1,0.7,0.7,0.7,1","1,0.7,0.7,0.7,1,0.7,0.7,0.7,1","","",""
"","html-keyboard-response","57","37620","0.0-57.0","3OSWBBLG1FJDA1OGD3HKDDW56S1XDL","ACKG8OU1KHKO2","3MVY4USGB69K0BK9K576GJZ2CVDSII","","null","<img src=""img/land1.png"" style=""width:200px; border:14px solid green;"">","null","","","","","","","","","",""
"","image-keyboard-response","58","38627","0.0-58.0","3OSWBBLG1FJDA1OGD3HKDDW56S1XDL","ACKG8OU1KHKO2","3MVY4USGB69K0BK9K576GJZ2CVDSII","","1006.8999999761581","img/land2.png","76","1007.6999999284744","3","1","2","1","1,0.7,0.7,0.7,1,0.7,0.7,0.7,1","1,0.7,0.7,0.7,1,0.7,0.7,0.7,1","","",""
"","html-keyboard-response","59","38941","0.0-59.0","3OSWBBLG1FJDA1OGD3HKDDW56S1XDL","ACKG8OU1KHKO2","3MVY4USGB69K0BK9K576GJZ2CVDSII","","null","<img src=""img/land2.png"" style=""width:200px; border:14px solid green;"">","null","","","","","","","","","",""
"","image-keyboard-response","60","39803","0.0-60.0","3OSWBBLG1FJDA1OGD3HKDDW56S1XDL","ACKG8OU1KHKO2","3MVY4USGB69K0BK9K576GJZ2CVDSII","","861.5","img/land1.png","74","862","1","1","1","1","1,0.7,0.7,0.7,1,0.7,0.7,0.7,1","1,0.7,0.7,0.7,1,0.7,0.7,0.7,1","","",""
"","html-keyboard-response","61","40112","0.0-61.0","3OSWBBLG1FJDA1OGD3HKDDW56S1XDL","ACKG8OU1KHKO2","3MVY4USGB69K0BK9K576GJZ2CVDSII","","null","<img src=""img/land1.png"" style=""width:200px; border:14px solid green;"">","null","","","","","","","","","",""
"","image-keyboard-response","62","40635","0.0-62.0","3OSWBBLG1FJDA1OGD3HKDDW56S1XDL","ACKG8OU1KHKO2","3MVY4USGB69K0BK9K576GJZ2CVDSII","","522.3999999761581","img/land1.png","74","523","1","1","1","1","1,0.7,0.7,0.7,1,0.7,0.7,0.7,1","1,0.7,0.7,0.7,1,0.7,0.7,0.7,1","","",""
"","html-keyboard-response","63","40946","0.0-63.0","3OSWBBLG1FJDA1OGD3HKDDW56S1XDL","ACKG8OU1KHKO2","3MVY4USGB69K0BK9K576GJZ2CVDSII","","null","<img src=""img/land1.png"" style=""width:200px; border:14px solid green;"">","null","","","","","","","","","",""
"","image-keyboard-response","64","41787","0.0-64.0","3OSWBBLG1FJDA1OGD3HKDDW56S1XDL","ACKG8OU1KHKO2","3MVY4USGB69K0BK9K576GJZ2CVDSII","","840.2999999523163","img/land2.png","76","840.7999999523163","3","1","2","1","1,0.7,0.7,0.7,1,0.7,0.7,0.7,1","1,0.7,0.7,0.7,1,0.7,0.7,0.7,1","","",""
"","html-keyboard-response","65","42098","0.0-65.0","3OSWBBLG1FJDA1OGD3HKDDW56S1XDL","ACKG8OU1KHKO2","3MVY4USGB69K0BK9K576GJZ2CVDSII","","null","<img src=""img/land2.png"" style=""width:200px; border:14px solid green;"">","null","","","","","","","","","",""
"","image-keyboard-response","66","42475","0.0-66.0","3OSWBBLG1FJDA1OGD3HKDDW56S1XDL","ACKG8OU1KHKO2","3MVY4USGB69K0BK9K576GJZ2CVDSII","","376.1999999284744","img/land2.png","76","376.89999997615814","3","1","2","1","1,0.7,0.7,0.7,1,0.7,0.7,0.7,1","1,0.7,0.7,0.7,1,0.7,0.7,0.7,1","","",""
"","html-keyboard-response","67","42785","0.0-67.0","3OSWBBLG1FJDA1OGD3HKDDW56S1XDL","ACKG8OU1KHKO2","3MVY4USGB69K0BK9K576GJZ2CVDSII","","null","<img src=""img/land2.png"" style=""width:200px; border:14px solid green;"">","null","","","","","","","","","",""
"","image-keyboard-response","68","44235","0.0-68.0","3OSWBBLG1FJDA1OGD3HKDDW56S1XDL","ACKG8OU1KHKO2","3MVY4USGB69K0BK9K576GJZ2CVDSII","","1449.6999999284744","img/land3.png","74","1450.2999999523163","1","1","3","1","1,0.7,0.7,0.7,1,0.7,0.7,0.7,1","1,0.7,0.7,0.7,1,0.7,0.7,0.7,1","","",""
"","html-keyboard-response","69","44549","0.0-69.0","3OSWBBLG1FJDA1OGD3HKDDW56S1XDL","ACKG8OU1KHKO2","3MVY4USGB69K0BK9K576GJZ2CVDSII","","null","<img src=""img/land3.png"" style=""width:200px; border:14px solid green;"">","null","","","","","","","","","",""
"","image-keyboard-response","70","46819","0.0-70.0","3OSWBBLG1FJDA1OGD3HKDDW56S1XDL","ACKG8OU1KHKO2","3MVY4USGB69K0BK9K576GJZ2CVDSII","","2269.1999999284744","img/land1.png","74","2269.6999999284744","1","1","1","1","1,0.7,0.7,0.7,1,0.7,0.7,0.7,1","1,0.7,0.7,0.7,1,0.7,0.7,0.7,1","","",""
"","html-keyboard-response","71","47120","0.0-71.0","3OSWBBLG1FJDA1OGD3HKDDW56S1XDL","ACKG8OU1KHKO2","3MVY4USGB69K0BK9K576GJZ2CVDSII","","null","<img src=""img/land1.png"" style=""width:200px; border:14px solid green;"">","null","","","","","","","","","",""
"","image-keyboard-response","72","48243","0.0-72.0","3OSWBBLG1FJDA1OGD3HKDDW56S1XDL","ACKG8OU1KHKO2","3MVY4USGB69K0BK9K576GJZ2CVDSII","","1122","img/land3.png","74","1122.6999999284744","1","1","3","1","1,0.7,0.7,0.7,1,0.7,0.7,0.7,1","1,0.7,0.7,0.7,1,0.7,0.7,0.7,1","","",""
"","html-keyboard-response","73","48556","0.0-73.0","3OSWBBLG1FJDA1OGD3HKDDW56S1XDL","ACKG8OU1KHKO2","3MVY4USGB69K0BK9K576GJZ2CVDSII","","null","<img src=""img/land3.png"" style=""width:200px; border:14px solid green;"">","null","","","","","","","","","",""
"","image-keyboard-response","74","48851","0.0-74.0","3OSWBBLG1FJDA1OGD3HKDDW56S1XDL","ACKG8OU1KHKO2","3MVY4USGB69K0BK9K576GJZ2CVDSII","","294.60000002384186","img/land3.png","74","295.10000002384186","1","1","3","1","1,0.7,0.7,0.7,1,0.7,0.7,0.7,1","1,0.7,0.7,0.7,1,0.7,0.7,0.7,1","","",""
"","html-keyboard-response","75","49164","0.0-75.0","3OSWBBLG1FJDA1OGD3HKDDW56S1XDL","ACKG8OU1KHKO2","3MVY4USGB69K0BK9K576GJZ2CVDSII","","null","<img src=""img/land3.png"" style=""width:200px; border:14px solid green;"">","null","","","","","","","","","",""
"","image-keyboard-response","76","50259","0.0-76.0","3OSWBBLG1FJDA1OGD3HKDDW56S1XDL","ACKG8OU1KHKO2","3MVY4USGB69K0BK9K576GJZ2CVDSII","","1094.6999999284744","img/land2.png","76","1095.1999999284744","3","1","2","1","1,0.7,0.7,0.7,1,0.7,0.7,0.7,1","1,0.7,0.7,0.7,1,0.7,0.7,0.7,1","","",""
"","html-keyboard-response","77","50572","0.0-77.0","3OSWBBLG1FJDA1OGD3HKDDW56S1XDL","ACKG8OU1KHKO2","3MVY4USGB69K0BK9K576GJZ2CVDSII","","null","<img src=""img/land2.png"" style=""width:200px; border:14px solid green;"">","null","","","","","","","","","",""
"","image-keyboard-response","78","51491","0.0-78.0","3OSWBBLG1FJDA1OGD3HKDDW56S1XDL","ACKG8OU1KHKO2","3MVY4USGB69K0BK9K576GJZ2CVDSII","","918.1999999284744","img/land3.png","74","918.8000000715256","1","1","3","1","1,0.7,0.7,0.7,1,0.7,0.7,0.7,1","1,0.7,0.7,0.7,1,0.7,0.7,0.7,1","","",""
"","html-keyboard-response","79","51805","0.0-79.0","3OSWBBLG1FJDA1OGD3HKDDW56S1XDL","ACKG8OU1KHKO2","3MVY4USGB69K0BK9K576GJZ2CVDSII","","null","<img src=""img/land3.png"" style=""width:200px; border:14px solid green;"">","null","","","","","","","","","",""
"","image-keyboard-response","80","52171","0.0-80.0","3OSWBBLG1FJDA1OGD3HKDDW56S1XDL","ACKG8OU1KHKO2","3MVY4USGB69K0BK9K576GJZ2CVDSII","","365.39999997615814","img/land3.png","74","365.7999999523163","1","1","3","1","1,0.7,0.7,0.7,1,0.7,0.7,0.7,1","1,0.7,0.7,0.7,1,0.7,0.7,0.7,1","","",""
"","html-keyboard-response","81","52484","0.0-81.0","3OSWBBLG1FJDA1OGD3HKDDW56S1XDL","ACKG8OU1KHKO2","3MVY4USGB69K0BK9K576GJZ2CVDSII","","null","<img src=""img/land3.png"" style=""width:200px; border:14px solid green;"">","null","","","","","","","","","",""
"","image-keyboard-response","82","52939","0.0-82.0","3OSWBBLG1FJDA1OGD3HKDDW56S1XDL","ACKG8OU1KHKO2","3MVY4USGB69K0BK9K576GJZ2CVDSII","","454.10000002384186","img/land1.png","74","454.6999999284744","1","1","1","1","1,0.7,0.7,0.7,1,0.7,0.7,0.7,1","1,0.7,0.7,0.7,1,0.7,0.7,0.7,1","","",""
"","html-keyboard-response","83","53252","0.0-83.0","3OSWBBLG1FJDA1OGD3HKDDW56S1XDL","ACKG8OU1KHKO2","3MVY4USGB69K0BK9K576GJZ2CVDSII","","null","<img src=""img/land1.png"" style=""width:200px; border:14px solid green;"">","null","","","","","","","","","",""
"","image-keyboard-response","84","54003","0.0-84.0","3OSWBBLG1FJDA1OGD3HKDDW56S1XDL","ACKG8OU1KHKO2","3MVY4USGB69K0BK9K576GJZ2CVDSII","","750","img/land2.png","76","750.5","3","0","2","1","1,0.7,0.7,0.7,1,0.7,0.7,0.7,1","1,0.7,0.7,0.7,1,0.7,0.7,0.7,1","","",""
"","html-keyboard-response","85","54314","0.0-85.0","3OSWBBLG1FJDA1OGD3HKDDW56S1XDL","ACKG8OU1KHKO2","3MVY4USGB69K0BK9K576GJZ2CVDSII","","null","<img src=""img/land2.png"" style=""width:200px;border:14px solid red;"">","null","","","","","","","","","",""
"","image-keyboard-response","86","55355","0.0-86.0","3OSWBBLG1FJDA1OGD3HKDDW56S1XDL","ACKG8OU1KHKO2","3MVY4USGB69K0BK9K576GJZ2CVDSII","","1039.3999999761581","img/land3.png","74","1040","1","1","3","1","1,0.7,0.7,0.7,1,0.7,0.7,0.7,1","1,0.7,0.7,0.7,1,0.7,0.7,0.7,1","","",""
"","html-keyboard-response","87","55660","0.0-87.0","3OSWBBLG1FJDA1OGD3HKDDW56S1XDL","ACKG8OU1KHKO2","3MVY4USGB69K0BK9K576GJZ2CVDSII","","null","<img src=""img/land3.png"" style=""width:200px; border:14px solid green;"">","null","","","","","","","","","",""
"","image-keyboard-response","88","56419","0.0-88.0","3OSWBBLG1FJDA1OGD3HKDDW56S1XDL","ACKG8OU1KHKO2","3MVY4USGB69K0BK9K576GJZ2CVDSII","","758.2999999523163","img/land2.png","76","759","3","0","2","1","1,0.7,0.7,0.7,1,0.7,0.7,0.7,1","1,0.7,0.7,0.7,1,0.7,0.7,0.7,1","","",""
"","html-keyboard-response","89","56732","0.0-89.0","3OSWBBLG1FJDA1OGD3HKDDW56S1XDL","ACKG8OU1KHKO2","3MVY4USGB69K0BK9K576GJZ2CVDSII","","null","<img src=""img/land2.png"" style=""width:200px;border:14px solid red;"">","null","","","","","","","","","",""
"","image-keyboard-response","90","57363","0.0-90.0","3OSWBBLG1FJDA1OGD3HKDDW56S1XDL","ACKG8OU1KHKO2","3MVY4USGB69K0BK9K576GJZ2CVDSII","","630.5","img/land1.png","74","631","1","1","1","1","1,0.7,0.7,0.7,1,0.7,0.7,0.7,1","1,0.7,0.7,0.7,1,0.7,0.7,0.7,1","","",""
"","html-keyboard-response","91","57673","0.0-91.0","3OSWBBLG1FJDA1OGD3HKDDW56S1XDL","ACKG8OU1KHKO2","3MVY4USGB69K0BK9K576GJZ2CVDSII","","null","<img src=""img/land1.png"" style=""width:200px; border:14px solid green;"">","null","","","","","","","","","",""
"","image-keyboard-response","92","57891","0.0-92.0","3OSWBBLG1FJDA1OGD3HKDDW56S1XDL","ACKG8OU1KHKO2","3MVY4USGB69K0BK9K576GJZ2CVDSII","","217","img/land2.png","74","217.69999992847443","1","0","2","1","1,0.7,0.7,0.7,1,0.7,0.7,0.7,1","1,0.7,0.7,0.7,1,0.7,0.7,0.7,1","","",""
"","html-keyboard-response","93","58201","0.0-93.0","3OSWBBLG1FJDA1OGD3HKDDW56S1XDL","ACKG8OU1KHKO2","3MVY4USGB69K0BK9K576GJZ2CVDSII","","null","<img src=""img/land2.png"" style=""width:200px;border:14px solid red;"">","null","","","","","","","","","",""
"","image-keyboard-response","94","59198","0.0-94.0","3OSWBBLG1FJDA1OGD3HKDDW56S1XDL","ACKG8OU1KHKO2","3MVY4USGB69K0BK9K576GJZ2CVDSII","","996.4000000953674","img/land3.png","74","996.8999999761581","1","0","3","1","1,0.7,0.7,0.7,1,0.7,0.7,0.7,1","1,0.7,0.7,0.7,1,0.7,0.7,0.7,1","","",""
"","html-keyboard-response","95","59504","0.0-95.0","3OSWBBLG1FJDA1OGD3HKDDW56S1XDL","ACKG8OU1KHKO2","3MVY4USGB69K0BK9K576GJZ2CVDSII","","null","<img src=""img/land3.png"" style=""width:200px;border:14px solid red;"">","null","","","","","","","","","",""
"","image-keyboard-response","96","60507","0.0-96.0","3OSWBBLG1FJDA1OGD3HKDDW56S1XDL","ACKG8OU1KHKO2","3MVY4USGB69K0BK9K576GJZ2CVDSII","","1002.3000000715256","img/land1.png","74","1002.8999999761581","1","1","1","1","1,0.7,0.7,0.7,1,0.7,0.7,0.7,1","1,0.7,0.7,0.7,1,0.7,0.7,0.7,1","","",""
"","html-keyboard-response","97","60820","0.0-97.0","3OSWBBLG1FJDA1OGD3HKDDW56S1XDL","ACKG8OU1KHKO2","3MVY4USGB69K0BK9K576GJZ2CVDSII","","null","<img src=""img/land1.png"" style=""width:200px; border:14px solid green;"">","null","","","","","","","","","",""
"","image-keyboard-response","98","61451","0.0-98.0","3OSWBBLG1FJDA1OGD3HKDDW56S1XDL","ACKG8OU1KHKO2","3MVY4USGB69K0BK9K576GJZ2CVDSII","","630","img/land2.png","75","630.5","2","1","2","1","1,0.7,0.7,0.7,1,0.7,0.7,0.7,1","1,0.7,0.7,0.7,1,0.7,0.7,0.7,1","","",""
"","html-keyboard-response","99","61761","0.0-99.0","3OSWBBLG1FJDA1OGD3HKDDW56S1XDL","ACKG8OU1KHKO2","3MVY4USGB69K0BK9K576GJZ2CVDSII","","null","<img src=""img/land2.png"" style=""width:200px; border:14px solid green;"">","null","","","","","","","","","",""
"","image-keyboard-response","100","62771","0.0-100.0","3OSWBBLG1FJDA1OGD3HKDDW56S1XDL","ACKG8OU1KHKO2","3MVY4USGB69K0BK9K576GJZ2CVDSII","","1009.2000000476837","img/land1.png","74","1009.6999999284744","1","1","1","1","1,0.7,0.7,0.7,1,0.7,0.7,0.7,1","1,0.7,0.7,0.7,1,0.7,0.7,0.7,1","","",""
"","html-keyboard-response","101","63083","0.0-101.0","3OSWBBLG1FJDA1OGD3HKDDW56S1XDL","ACKG8OU1KHKO2","3MVY4USGB69K0BK9K576GJZ2CVDSII","","null","<img src=""img/land1.png"" style=""width:200px; border:14px solid green;"">","null","","","","","","","","","",""
"","image-keyboard-response","102","63499","0.0-102.0","3OSWBBLG1FJDA1OGD3HKDDW56S1XDL","ACKG8OU1KHKO2","3MVY4USGB69K0BK9K576GJZ2CVDSII","","414.89999997615814","img/land1.png","74","415.89999997615814","1","1","1","1","1,0.7,0.7,0.7,1,0.7,0.7,0.7,1","1,0.7,0.7,0.7,1,0.7,0.7,0.7,1","","",""
"","html-keyboard-response","103","63813","0.0-103.0","3OSWBBLG1FJDA1OGD3HKDDW56S1XDL","ACKG8OU1KHKO2","3MVY4USGB69K0BK9K576GJZ2CVDSII","","null","<img src=""img/land1.png"" style=""width:200px; border:14px solid green;"">","null","","","","","","","","","",""
"","image-keyboard-response","104","64402","0.0-104.0","3OSWBBLG1FJDA1OGD3HKDDW56S1XDL","ACKG8OU1KHKO2","3MVY4USGB69K0BK9K576GJZ2CVDSII","","589.2000000476837","img/land2.png","75","589.8000000715256","2","1","2","1","1,0.7,0.7,0.7,1,0.7,0.7,0.7,1","1,0.7,0.7,0.7,1,0.7,0.7,0.7,1","","",""
"","html-keyboard-response","105","64715","0.0-105.0","3OSWBBLG1FJDA1OGD3HKDDW56S1XDL","ACKG8OU1KHKO2","3MVY4USGB69K0BK9K576GJZ2CVDSII","","null","<img src=""img/land2.png"" style=""width:200px; border:14px solid green;"">","null","","","","","","","","","",""
"","image-keyboard-response","106","65326","0.0-106.0","3OSWBBLG1FJDA1OGD3HKDDW56S1XDL","ACKG8OU1KHKO2","3MVY4USGB69K0BK9K576GJZ2CVDSII","","610.4000000953674","img/land1.png","74","611","1","1","1","1","1,0.7,0.7,0.7,1,0.7,0.7,0.7,1","1,0.7,0.7,0.7,1,0.7,0.7,0.7,1","","",""
"","html-keyboard-response","107","65633","0.0-107.0","3OSWBBLG1FJDA1OGD3HKDDW56S1XDL","ACKG8OU1KHKO2","3MVY4USGB69K0BK9K576GJZ2CVDSII","","null","<img src=""img/land1.png"" style=""width:200px; border:14px solid green;"">","null","","","","","","","","","",""
"","image-keyboard-response","108","66475","0.0-108.0","3OSWBBLG1FJDA1OGD3HKDDW56S1XDL","ACKG8OU1KHKO2","3MVY4USGB69K0BK9K576GJZ2CVDSII","","841.1999999284744","img/land3.png","74","841.5","1","1","3","1","1,0.7,0.7,0.7,1,0.7,0.7,0.7,1","1,0.7,0.7,0.7,1,0.7,0.7,0.7,1","","",""
"","html-keyboard-response","109","66787","0.0-109.0","3OSWBBLG1FJDA1OGD3HKDDW56S1XDL","ACKG8OU1KHKO2","3MVY4USGB69K0BK9K576GJZ2CVDSII","","null","<img src=""img/land3.png"" style=""width:200px; border:14px solid green;"">","null","","","","","","","","","",""
"","image-keyboard-response","110","67258","0.0-110.0","3OSWBBLG1FJDA1OGD3HKDDW56S1XDL","ACKG8OU1KHKO2","3MVY4USGB69K0BK9K576GJZ2CVDSII","","470.89999997615814","img/land1.png","74","471.5","1","1","1","1","1,0.7,0.7,0.7,1,0.7,0.7,0.7,1","1,0.7,0.7,0.7,1,0.7,0.7,0.7,1","","",""
"","html-keyboard-response","111","67561","0.0-111.0","3OSWBBLG1FJDA1OGD3HKDDW56S1XDL","ACKG8OU1KHKO2","3MVY4USGB69K0BK9K576GJZ2CVDSII","","null","<img src=""img/land1.png"" style=""width:200px; border:14px solid green;"">","null","","","","","","","","","",""
"","image-keyboard-response","112","68443","0.0-112.0","3OSWBBLG1FJDA1OGD3HKDDW56S1XDL","ACKG8OU1KHKO2","3MVY4USGB69K0BK9K576GJZ2CVDSII","","880.6999999284744","img/land2.png","75","881.1999999284744","2","1","2","1","1,0.7,0.7,0.7,1,0.7,0.7,0.7,1","1,0.7,0.7,0.7,1,0.7,0.7,0.7,1","","",""
"","html-keyboard-response","113","68755","0.0-113.0","3OSWBBLG1FJDA1OGD3HKDDW56S1XDL","ACKG8OU1KHKO2","3MVY4USGB69K0BK9K576GJZ2CVDSII","","null","<img src=""img/land2.png"" style=""width:200px; border:14px solid green;"">","null","","","","","","","","","",""
"","image-keyboard-response","114","69266","0.0-114.0","3OSWBBLG1FJDA1OGD3HKDDW56S1XDL","ACKG8OU1KHKO2","3MVY4USGB69K0BK9K576GJZ2CVDSII","","510.60000002384186","img/land3.png","74","511","1","1","3","1","1,0.7,0.7,0.7,1,0.7,0.7,0.7,1","1,0.7,0.7,0.7,1,0.7,0.7,0.7,1","","",""
"","html-keyboard-response","115","69579","0.0-115.0","3OSWBBLG1FJDA1OGD3HKDDW56S1XDL","ACKG8OU1KHKO2","3MVY4USGB69K0BK9K576GJZ2CVDSII","","null","<img src=""img/land3.png"" style=""width:200px; border:14px solid green;"">","null","","","","","","","","","",""
"","image-keyboard-response","116","70338","0.0-116.0","3OSWBBLG1FJDA1OGD3HKDDW56S1XDL","ACKG8OU1KHKO2","3MVY4USGB69K0BK9K576GJZ2CVDSII","","758.3000000715256","img/land1.png","74","759","1","1","1","1","1,0.7,0.7,0.7,1,0.7,0.7,0.7,1","1,0.7,0.7,0.7,1,0.7,0.7,0.7,1","","",""
"","html-keyboard-response","117","70642","0.0-117.0","3OSWBBLG1FJDA1OGD3HKDDW56S1XDL","ACKG8OU1KHKO2","3MVY4USGB69K0BK9K576GJZ2CVDSII","","null","<img src=""img/land1.png"" style=""width:200px; border:14px solid green;"">","null","","","","","","","","","",""
"","image-keyboard-response","118","71019","0.0-118.0","3OSWBBLG1FJDA1OGD3HKDDW56S1XDL","ACKG8OU1KHKO2","3MVY4USGB69K0BK9K576GJZ2CVDSII","","375.59999990463257","img/land2.png","74","376.10000002384186","1","1","2","1","1,0.7,0.7,0.7,1,0.7,0.7,0.7,1","1,0.7,0.7,0.7,1,0.7,0.7,0.7,1","","",""
"","html-keyboard-response","119","71333","0.0-119.0","3OSWBBLG1FJDA1OGD3HKDDW56S1XDL","ACKG8OU1KHKO2","3MVY4USGB69K0BK9K576GJZ2CVDSII","","null","<img src=""img/land2.png"" style=""width:200px; border:14px solid green;"">","null","","","","","","","","","",""
"","image-keyboard-response","120","71930","0.0-120.0","3OSWBBLG1FJDA1OGD3HKDDW56S1XDL","ACKG8OU1KHKO2","3MVY4USGB69K0BK9K576GJZ2CVDSII","","597.3000000715256","img/land1.png","74","597.6999999284744","1","1","1","1","1,0.7,0.7,0.7,1,0.7,0.7,0.7,1","1,0.7,0.7,0.7,1,0.7,0.7,0.7,1","","",""
"","html-keyboard-response","121","72244","0.0-121.0","3OSWBBLG1FJDA1OGD3HKDDW56S1XDL","ACKG8OU1KHKO2","3MVY4USGB69K0BK9K576GJZ2CVDSII","","null","<img src=""img/land1.png"" style=""width:200px; border:14px solid green;"">","null","","","","","","","","","",""
"","image-keyboard-response","122","72723","0.0-122.0","3OSWBBLG1FJDA1OGD3HKDDW56S1XDL","ACKG8OU1KHKO2","3MVY4USGB69K0BK9K576GJZ2CVDSII","","478.10000002384186","img/land3.png","74","478.8000000715256","1","0","3","1","1,0.7,0.7,0.7,1,0.7,0.7,0.7,1","1,0.7,0.7,0.7,1,0.7,0.7,0.7,1","","",""
"","html-keyboard-response","123","73035","0.0-123.0","3OSWBBLG1FJDA1OGD3HKDDW56S1XDL","ACKG8OU1KHKO2","3MVY4USGB69K0BK9K576GJZ2CVDSII","","null","<img src=""img/land3.png"" style=""width:200px;border:14px solid red;"">","null","","","","","","","","","",""
"","image-keyboard-response","124","73690","0.0-124.0","3OSWBBLG1FJDA1OGD3HKDDW56S1XDL","ACKG8OU1KHKO2","3MVY4USGB69K0BK9K576GJZ2CVDSII","","654.6000000238419","img/land1.png","74","655.1999999284744","1","1","1","1","1,0.7,0.7,0.7,1,0.7,0.7,0.7,1","1,0.7,0.7,0.7,1,0.7,0.7,0.7,1","","",""
"","html-keyboard-response","125","73991","0.0-125.0","3OSWBBLG1FJDA1OGD3HKDDW56S1XDL","ACKG8OU1KHKO2","3MVY4USGB69K0BK9K576GJZ2CVDSII","","null","<img src=""img/land1.png"" style=""width:200px; border:14px solid green;"">","null","","","","","","","","","",""
"","image-keyboard-response","126","74610","0.0-126.0","3OSWBBLG1FJDA1OGD3HKDDW56S1XDL","ACKG8OU1KHKO2","3MVY4USGB69K0BK9K576GJZ2CVDSII","","618.2000000476837","img/land2.png","75","618.7000000476837","2","1","2","1","1,0.7,0.7,0.7,1,0.7,0.7,0.7,1","1,0.7,0.7,0.7,1,0.7,0.7,0.7,1","","",""
"","html-keyboard-response","127","74924","0.0-127.0","3OSWBBLG1FJDA1OGD3HKDDW56S1XDL","ACKG8OU1KHKO2","3MVY4USGB69K0BK9K576GJZ2CVDSII","","null","<img src=""img/land2.png"" style=""width:200px; border:14px solid green;"">","null","","","","","","","","","",""
"","image-keyboard-response","128","75466","0.0-128.0","3OSWBBLG1FJDA1OGD3HKDDW56S1XDL","ACKG8OU1KHKO2","3MVY4USGB69K0BK9K576GJZ2CVDSII","","541.2999999523163","img/land2.png","75","542","2","1","2","1","1,0.7,0.7,0.7,1,0.7,0.7,0.7,1","1,0.7,0.7,0.7,1,0.7,0.7,0.7,1","","",""
"","html-keyboard-response","129","75778","0.0-129.0","3OSWBBLG1FJDA1OGD3HKDDW56S1XDL","ACKG8OU1KHKO2","3MVY4USGB69K0BK9K576GJZ2CVDSII","","null","<img src=""img/land2.png"" style=""width:200px; border:14px solid green;"">","null","","","","","","","","","",""
"","image-keyboard-response","130","76234","0.0-130.0","3OSWBBLG1FJDA1OGD3HKDDW56S1XDL","ACKG8OU1KHKO2","3MVY4USGB69K0BK9K576GJZ2CVDSII","","455.10000002384186","img/land2.png","75","455.7000000476837","2","1","2","1","1,0.7,0.7,0.7,1,0.7,0.7,0.7,1","1,0.7,0.7,0.7,1,0.7,0.7,0.7,1","","",""
"","html-keyboard-response","131","76546","0.0-131.0","3OSWBBLG1FJDA1OGD3HKDDW56S1XDL","ACKG8OU1KHKO2","3MVY4USGB69K0BK9K576GJZ2CVDSII","","null","<img src=""img/land2.png"" style=""width:200px; border:14px solid green;"">","null","","","","","","","","","",""
"","image-keyboard-response","132","77058","0.0-132.0","3OSWBBLG1FJDA1OGD3HKDDW56S1XDL","ACKG8OU1KHKO2","3MVY4USGB69K0BK9K576GJZ2CVDSII","","511.39999997615814","img/land3.png","74","512","1","0","3","1","1,0.7,0.7,0.7,1,0.7,0.7,0.7,1","1,0.7,0.7,0.7,1,0.7,0.7,0.7,1","","",""
"","html-keyboard-response","133","77359","0.0-133.0","3OSWBBLG1FJDA1OGD3HKDDW56S1XDL","ACKG8OU1KHKO2","3MVY4USGB69K0BK9K576GJZ2CVDSII","","null","<img src=""img/land3.png"" style=""width:200px;border:14px solid red;"">","null","","","","","","","","","",""
"","image-keyboard-response","134","79330","0.0-134.0","3OSWBBLG1FJDA1OGD3HKDDW56S1XDL","ACKG8OU1KHKO2","3MVY4USGB69K0BK9K576GJZ2CVDSII","","1970","img/land1.png","75","1970.5999999046326","2","0","1","1","1,0.7,0.7,0.7,1,0.7,0.7,0.7,1","1,0.7,0.7,0.7,1,0.7,0.7,0.7,1","","",""
"","html-keyboard-response","135","79642","0.0-135.0","3OSWBBLG1FJDA1OGD3HKDDW56S1XDL","ACKG8OU1KHKO2","3MVY4USGB69K0BK9K576GJZ2CVDSII","","null","<img src=""img/land1.png"" style=""width:200px;border:14px solid red;"">","null","","","","","","","","","",""
"","image-keyboard-response","136","80282","0.0-136.0","3OSWBBLG1FJDA1OGD3HKDDW56S1XDL","ACKG8OU1KHKO2","3MVY4USGB69K0BK9K576GJZ2CVDSII","","639","img/land1.png","74","639.5999999046326","1","1","1","1","1,0.7,0.7,0.7,1,0.7,0.7,0.7,1","1,0.7,0.7,0.7,1,0.7,0.7,0.7,1","","",""
"","html-keyboard-response","137","80593","0.0-137.0","3OSWBBLG1FJDA1OGD3HKDDW56S1XDL","ACKG8OU1KHKO2","3MVY4USGB69K0BK9K576GJZ2CVDSII","","null","<img src=""img/land1.png"" style=""width:200px; border:14px solid green;"">","null","","","","","","","","","",""
"","image-keyboard-response","138","80994","0.0-138.0","3OSWBBLG1FJDA1OGD3HKDDW56S1XDL","ACKG8OU1KHKO2","3MVY4USGB69K0BK9K576GJZ2CVDSII","","399.8000000715256","img/land1.png","74","400.2999999523163","1","1","1","1","1,0.7,0.7,0.7,1,0.7,0.7,0.7,1","1,0.7,0.7,0.7,1,0.7,0.7,0.7,1","","",""
"","html-keyboard-response","139","81300","0.0-139.0","3OSWBBLG1FJDA1OGD3HKDDW56S1XDL","ACKG8OU1KHKO2","3MVY4USGB69K0BK9K576GJZ2CVDSII","","null","<img src=""img/land1.png"" style=""width:200px; border:14px solid green;"">","null","","","","","","","","","",""
"","image-keyboard-response","140","81706","0.0-140.0","3OSWBBLG1FJDA1OGD3HKDDW56S1XDL","ACKG8OU1KHKO2","3MVY4USGB69K0BK9K576GJZ2CVDSII","","405.8000000715256","img/land1.png","74","406.39999997615814","1","1","1","1","1,0.7,0.7,0.7,1,0.7,0.7,0.7,1","1,0.7,0.7,0.7,1,0.7,0.7,0.7,1","","",""
"","html-keyboard-response","141","82019","0.0-141.0","3OSWBBLG1FJDA1OGD3HKDDW56S1XDL","ACKG8OU1KHKO2","3MVY4USGB69K0BK9K576GJZ2CVDSII","","null","<img src=""img/land1.png"" style=""width:200px; border:14px solid green;"">","null","","","","","","","","","",""
"","image-keyboard-response","142","82458","0.0-142.0","3OSWBBLG1FJDA1OGD3HKDDW56S1XDL","ACKG8OU1KHKO2","3MVY4USGB69K0BK9K576GJZ2CVDSII","","438","img/land1.png","74","438.5","1","1","1","1","1,0.7,0.7,0.7,1,0.7,0.7,0.7,1","1,0.7,0.7,0.7,1,0.7,0.7,0.7,1","","",""
"","html-keyboard-response","143","82769","0.0-143.0","3OSWBBLG1FJDA1OGD3HKDDW56S1XDL","ACKG8OU1KHKO2","3MVY4USGB69K0BK9K576GJZ2CVDSII","","null","<img src=""img/land1.png"" style=""width:200px; border:14px solid green;"">","null","","","","","","","","","",""
"","image-keyboard-response","144","84338","0.0-144.0","3OSWBBLG1FJDA1OGD3HKDDW56S1XDL","ACKG8OU1KHKO2","3MVY4USGB69K0BK9K576GJZ2CVDSII","","1568.1999999284744","img/land3.png","74","1568.8999999761581","1","1","3","1","1,0.7,0.7,0.7,1,0.7,0.7,0.7,1","1,0.7,0.7,0.7,1,0.7,0.7,0.7,1","","",""
"","html-keyboard-response","145","84650","0.0-145.0","3OSWBBLG1FJDA1OGD3HKDDW56S1XDL","ACKG8OU1KHKO2","3MVY4USGB69K0BK9K576GJZ2CVDSII","","null","<img src=""img/land3.png"" style=""width:200px; border:14px solid green;"">","null","","","","","","","","","",""
"","image-keyboard-response","146","85938","0.0-146.0","3OSWBBLG1FJDA1OGD3HKDDW56S1XDL","ACKG8OU1KHKO2","3MVY4USGB69K0BK9K576GJZ2CVDSII","","1286.7999999523163","img/land2.png","76","1287.3999999761581","3","1","2","1","1,0.7,0.7,0.7,1,0.7,0.7,0.7,1","1,0.7,0.7,0.7,1,0.7,0.7,0.7,1","","",""
"","html-keyboard-response","147","86251","0.0-147.0","3OSWBBLG1FJDA1OGD3HKDDW56S1XDL","ACKG8OU1KHKO2","3MVY4USGB69K0BK9K576GJZ2CVDSII","","null","<img src=""img/land2.png"" style=""width:200px; border:14px solid green;"">","null","","","","","","","","","",""
"","image-keyboard-response","148","86626","0.0-148.0","3OSWBBLG1FJDA1OGD3HKDDW56S1XDL","ACKG8OU1KHKO2","3MVY4USGB69K0BK9K576GJZ2CVDSII","","374.3000000715256","img/land2.png","76","374.7000000476837","3","1","2","1","1,0.7,0.7,0.7,1,0.7,0.7,0.7,1","1,0.7,0.7,0.7,1,0.7,0.7,0.7,1","","",""
"","html-keyboard-response","149","86937","0.0-149.0","3OSWBBLG1FJDA1OGD3HKDDW56S1XDL","ACKG8OU1KHKO2","3MVY4USGB69K0BK9K576GJZ2CVDSII","","null","<img src=""img/land2.png"" style=""width:200px; border:14px solid green;"">","null","","","","","","","","","",""
"","image-keyboard-response","150","87338","0.0-150.0","3OSWBBLG1FJDA1OGD3HKDDW56S1XDL","ACKG8OU1KHKO2","3MVY4USGB69K0BK9K576GJZ2CVDSII","","400.10000002384186","img/land2.png","76","400.7000000476837","3","0","2","1","1,0.7,0.7,0.7,1,0.7,0.7,0.7,1","1,0.7,0.7,0.7,1,0.7,0.7,0.7,1","","",""
"","html-keyboard-response","151","87651","0.0-151.0","3OSWBBLG1FJDA1OGD3HKDDW56S1XDL","ACKG8OU1KHKO2","3MVY4USGB69K0BK9K576GJZ2CVDSII","","null","<img src=""img/land2.png"" style=""width:200px;border:14px solid red;"">","null","","","","","","","","","",""
"","image-keyboard-response","152","88834","0.0-152.0","3OSWBBLG1FJDA1OGD3HKDDW56S1XDL","ACKG8OU1KHKO2","3MVY4USGB69K0BK9K576GJZ2CVDSII","","1182.1999999284744","img/land3.png","74","1182.7000000476837","1","1","3","1","1,0.7,0.7,0.7,1,0.7,0.7,0.7,1","1,0.7,0.7,0.7,1,0.7,0.7,0.7,1","","",""
"","html-keyboard-response","153","89144","0.0-153.0","3OSWBBLG1FJDA1OGD3HKDDW56S1XDL","ACKG8OU1KHKO2","3MVY4USGB69K0BK9K576GJZ2CVDSII","","null","<img src=""img/land3.png"" style=""width:200px; border:14px solid green;"">","null","","","","","","","","","",""
"","image-keyboard-response","154","90026","0.0-154.0","3OSWBBLG1FJDA1OGD3HKDDW56S1XDL","ACKG8OU1KHKO2","3MVY4USGB69K0BK9K576GJZ2CVDSII","","881.5","img/land3.png","74","882.0999999046326","1","1","3","1","1,0.7,0.7,0.7,1,0.7,0.7,0.7,1","1,0.7,0.7,0.7,1,0.7,0.7,0.7,1","","",""
"","html-keyboard-response","155","90335","0.0-155.0","3OSWBBLG1FJDA1OGD3HKDDW56S1XDL","ACKG8OU1KHKO2","3MVY4USGB69K0BK9K576GJZ2CVDSII","","null","<img src=""img/land3.png"" style=""width:200px; border:14px solid green;"">","null","","","","","","","","","",""
"","image-keyboard-response","156","92458","0.0-156.0","3OSWBBLG1FJDA1OGD3HKDDW56S1XDL","ACKG8OU1KHKO2","3MVY4USGB69K0BK9K576GJZ2CVDSII","","2122.600000023842","img/land1.png","74","2123.100000023842","1","1","1","1","1,0.7,0.7,0.7,1,0.7,0.7,0.7,1","1,0.7,0.7,0.7,1,0.7,0.7,0.7,1","","",""
"","html-keyboard-response","157","92771","0.0-157.0","3OSWBBLG1FJDA1OGD3HKDDW56S1XDL","ACKG8OU1KHKO2","3MVY4USGB69K0BK9K576GJZ2CVDSII","","null","<img src=""img/land1.png"" style=""width:200px; border:14px solid green;"">","null","","","","","","","","","",""
"","image-keyboard-response","158","93611","0.0-158.0","3OSWBBLG1FJDA1OGD3HKDDW56S1XDL","ACKG8OU1KHKO2","3MVY4USGB69K0BK9K576GJZ2CVDSII","","838.8000000715256","img/land2.png","76","839.2999999523163","3","0","2","1","1,0.7,0.7,0.7,1,0.7,0.7,0.7,1","1,0.7,0.7,0.7,1,0.7,0.7,0.7,1","","",""
"","html-keyboard-response","159","93920","0.0-159.0","3OSWBBLG1FJDA1OGD3HKDDW56S1XDL","ACKG8OU1KHKO2","3MVY4USGB69K0BK9K576GJZ2CVDSII","","null","<img src=""img/land2.png"" style=""width:200px;border:14px solid red;"">","null","","","","","","","","","",""
"","image-keyboard-response","160","95266","0.0-160.0","3OSWBBLG1FJDA1OGD3HKDDW56S1XDL","ACKG8OU1KHKO2","3MVY4USGB69K0BK9K576GJZ2CVDSII","","1346","img/land3.png","74","1346.5","1","1","3","1","1,0.7,0.7,0.7,1,0.7,0.7,0.7,1","1,0.7,0.7,0.7,1,0.7,0.7,0.7,1","","",""
"","html-keyboard-response","161","95579","0.0-161.0","3OSWBBLG1FJDA1OGD3HKDDW56S1XDL","ACKG8OU1KHKO2","3MVY4USGB69K0BK9K576GJZ2CVDSII","","null","<img src=""img/land3.png"" style=""width:200px; border:14px solid green;"">","null","","","","","","","","","",""
"","image-keyboard-response","162","96290","0.0-162.0","3OSWBBLG1FJDA1OGD3HKDDW56S1XDL","ACKG8OU1KHKO2","3MVY4USGB69K0BK9K576GJZ2CVDSII","","709.8000000715256","img/land2.png","75","710.5","2","1","2","1","1,0.7,0.7,0.7,1,0.7,0.7,0.7,1","1,0.7,0.7,0.7,1,0.7,0.7,0.7,1","","",""
"","html-keyboard-response","163","96604","0.0-163.0","3OSWBBLG1FJDA1OGD3HKDDW56S1XDL","ACKG8OU1KHKO2","3MVY4USGB69K0BK9K576GJZ2CVDSII","","null","<img src=""img/land2.png"" style=""width:200px; border:14px solid green;"">","null","","","","","","","","","",""
"","image-keyboard-response","164","97234","0.0-164.0","3OSWBBLG1FJDA1OGD3HKDDW56S1XDL","ACKG8OU1KHKO2","3MVY4USGB69K0BK9K576GJZ2CVDSII","","629.3999999761581","img/land3.png","75","630","2","1","3","1","1,0.7,0.7,0.7,1,0.7,0.7,0.7,1","1,0.7,0.7,0.7,1,0.7,0.7,0.7,1","","",""
"","html-keyboard-response","165","97547","0.0-165.0","3OSWBBLG1FJDA1OGD3HKDDW56S1XDL","ACKG8OU1KHKO2","3MVY4USGB69K0BK9K576GJZ2CVDSII","","null","<img src=""img/land3.png"" style=""width:200px; border:14px solid green;"">","null","","","","","","","","","",""
"","image-keyboard-response","166","98266","0.0-166.0","3OSWBBLG1FJDA1OGD3HKDDW56S1XDL","ACKG8OU1KHKO2","3MVY4USGB69K0BK9K576GJZ2CVDSII","","718","img/land1.png","75","718.3999999761581","2","1","1","1","1,0.7,0.7,0.7,1,0.7,0.7,0.7,1","1,0.7,0.7,0.7,1,0.7,0.7,0.7,1","","",""
"","html-keyboard-response","167","98576","0.0-167.0","3OSWBBLG1FJDA1OGD3HKDDW56S1XDL","ACKG8OU1KHKO2","3MVY4USGB69K0BK9K576GJZ2CVDSII","","null","<img src=""img/land1.png"" style=""width:200px; border:14px solid green;"">","null","","","","","","","","","",""
"","image-keyboard-response","168","98946","0.0-168.0","3OSWBBLG1FJDA1OGD3HKDDW56S1XDL","ACKG8OU1KHKO2","3MVY4USGB69K0BK9K576GJZ2CVDSII","","368.8000000715256","img/land1.png","75","369.39999997615814","2","1","1","1","1,0.7,0.7,0.7,1,0.7,0.7,0.7,1","1,0.7,0.7,0.7,1,0.7,0.7,0.7,1","","",""
"","html-keyboard-response","169","99259","0.0-169.0","3OSWBBLG1FJDA1OGD3HKDDW56S1XDL","ACKG8OU1KHKO2","3MVY4USGB69K0BK9K576GJZ2CVDSII","","null","<img src=""img/land1.png"" style=""width:200px; border:14px solid green;"">","null","","","","","","","","","",""
"","html-keyboard-response","170","101226","0.0-170.0","3OSWBBLG1FJDA1OGD3HKDDW56S1XDL","ACKG8OU1KHKO2","3MVY4USGB69K0BK9K576GJZ2CVDSII","","","","","","","","","","","","","",""
"","image-keyboard-response","171","102473","0.0-171.0","3OSWBBLG1FJDA1OGD3HKDDW56S1XDL","ACKG8OU1KHKO2","3MVY4USGB69K0BK9K576GJZ2CVDSII","","1247","img/land5.png","75","1247.6999999284744","2","1","2","1","1,0.7,0.7,0.7,1,0.7,0.7,0.7,1","1,0.7,0.7,0.7,1,0.7,0.7,0.7,1","","",""
"","html-keyboard-response","172","102783","0.0-172.0","3OSWBBLG1FJDA1OGD3HKDDW56S1XDL","ACKG8OU1KHKO2","3MVY4USGB69K0BK9K576GJZ2CVDSII","","null","<img src=""img/land5.png"" style=""width:200px; border:14px solid green;"">","null","","","","","","","","","",""
"","image-keyboard-response","173","103162","0.0-173.0","3OSWBBLG1FJDA1OGD3HKDDW56S1XDL","ACKG8OU1KHKO2","3MVY4USGB69K0BK9K576GJZ2CVDSII","","377.39999997615814","img/land5.png","75","378.10000002384186","2","1","2","1","1,0.7,0.7,0.7,1,0.7,0.7,0.7,1","1,0.7,0.7,0.7,1,0.7,0.7,0.7,1","","",""
"","html-keyboard-response","174","103471","0.0-174.0","3OSWBBLG1FJDA1OGD3HKDDW56S1XDL","ACKG8OU1KHKO2","3MVY4USGB69K0BK9K576GJZ2CVDSII","","null","<img src=""img/land5.png"" style=""width:200px; border:14px solid green;"">","null","","","","","","","","","",""
"","image-keyboard-response","175","103834","0.0-175.0","3OSWBBLG1FJDA1OGD3HKDDW56S1XDL","ACKG8OU1KHKO2","3MVY4USGB69K0BK9K576GJZ2CVDSII","","362.7000000476837","img/land5.png","75","363.3000000715256","2","1","2","1","1,0.7,0.7,0.7,1,0.7,0.7,0.7,1","1,0.7,0.7,0.7,1,0.7,0.7,0.7,1","","",""
"","html-keyboard-response","176","104147","0.0-176.0","3OSWBBLG1FJDA1OGD3HKDDW56S1XDL","ACKG8OU1KHKO2","3MVY4USGB69K0BK9K576GJZ2CVDSII","","null","<img src=""img/land5.png"" style=""width:200px; border:14px solid green;"">","null","","","","","","","","","",""
"","image-keyboard-response","177","105137","0.0-177.0","3OSWBBLG1FJDA1OGD3HKDDW56S1XDL","ACKG8OU1KHKO2","3MVY4USGB69K0BK9K576GJZ2CVDSII","","989","img/land6.png","74","989.6999999284744","1","1","3","1","1,0.7,0.7,0.7,1,0.7,0.7,0.7,1","1,0.7,0.7,0.7,1,0.7,0.7,0.7,1","","",""
"","html-keyboard-response","178","105442","0.0-178.0","3OSWBBLG1FJDA1OGD3HKDDW56S1XDL","ACKG8OU1KHKO2","3MVY4USGB69K0BK9K576GJZ2CVDSII","","null","<img src=""img/land6.png"" style=""width:200px; border:14px solid green;"">","null","","","","","","","","","",""
"","image-keyboard-response","179","106698","0.0-179.0","3OSWBBLG1FJDA1OGD3HKDDW56S1XDL","ACKG8OU1KHKO2","3MVY4USGB69K0BK9K576GJZ2CVDSII","","1254.5","img/land4.png","76","1255.1000000238419","3","1","1","1","1,0.7,0.7,0.7,1,0.7,0.7,0.7,1","1,0.7,0.7,0.7,1,0.7,0.7,0.7,1","","",""
"","html-keyboard-response","180","107007","0.0-180.0","3OSWBBLG1FJDA1OGD3HKDDW56S1XDL","ACKG8OU1KHKO2","3MVY4USGB69K0BK9K576GJZ2CVDSII","","null","<img src=""img/land4.png"" style=""width:200px; border:14px solid green;"">","null","","","","","","","","","",""
"","image-keyboard-response","181","108505","0.0-181.0","3OSWBBLG1FJDA1OGD3HKDDW56S1XDL","ACKG8OU1KHKO2","3MVY4USGB69K0BK9K576GJZ2CVDSII","","1498","img/land5.png","74","1498.6999999284744","1","1","2","1","1,0.7,0.7,0.7,1,0.7,0.7,0.7,1","1,0.7,0.7,0.7,1,0.7,0.7,0.7,1","","",""
"","html-keyboard-response","182","108816","0.0-182.0","3OSWBBLG1FJDA1OGD3HKDDW56S1XDL","ACKG8OU1KHKO2","3MVY4USGB69K0BK9K576GJZ2CVDSII","","null","<img src=""img/land5.png"" style=""width:200px; border:14px solid green;"">","null","","","","","","","","","",""
"","image-keyboard-response","183","110241","0.0-183.0","3OSWBBLG1FJDA1OGD3HKDDW56S1XDL","ACKG8OU1KHKO2","3MVY4USGB69K0BK9K576GJZ2CVDSII","","1424.6999999284744","img/land4.png","75","1425.2000000476837","2","1","1","1","1,0.7,0.7,0.7,1,0.7,0.7,0.7,1","1,0.7,0.7,0.7,1,0.7,0.7,0.7,1","","",""
"","html-keyboard-response","184","110551","0.0-184.0","3OSWBBLG1FJDA1OGD3HKDDW56S1XDL","ACKG8OU1KHKO2","3MVY4USGB69K0BK9K576GJZ2CVDSII","","null","<img src=""img/land4.png"" style=""width:200px; border:14px solid green;"">","null","","","","","","","","","",""
"","image-keyboard-response","185","111986","0.0-185.0","3OSWBBLG1FJDA1OGD3HKDDW56S1XDL","ACKG8OU1KHKO2","3MVY4USGB69K0BK9K576GJZ2CVDSII","","1434.5","img/land5.png","75","1435.1000000238419","2","1","2","1","1,0.7,0.7,0.7,1,0.7,0.7,0.7,1","1,0.7,0.7,0.7,1,0.7,0.7,0.7,1","","",""
"","html-keyboard-response","186","112298","0.0-186.0","3OSWBBLG1FJDA1OGD3HKDDW56S1XDL","ACKG8OU1KHKO2","3MVY4USGB69K0BK9K576GJZ2CVDSII","","null","<img src=""img/land5.png"" style=""width:200px; border:14px solid green;"">","null","","","","","","","","","",""
"","image-keyboard-response","187","113282","0.0-187.0","3OSWBBLG1FJDA1OGD3HKDDW56S1XDL","ACKG8OU1KHKO2","3MVY4USGB69K0BK9K576GJZ2CVDSII","","983.1000000238419","img/land6.png","74","983.7000000476837","1","0","3","1","1,0.7,0.7,0.7,1,0.7,0.7,0.7,1","1,0.7,0.7,0.7,1,0.7,0.7,0.7,1","","",""
"","html-keyboard-response","188","113594","0.0-188.0","3OSWBBLG1FJDA1OGD3HKDDW56S1XDL","ACKG8OU1KHKO2","3MVY4USGB69K0BK9K576GJZ2CVDSII","","null","<img src=""img/land6.png"" style=""width:200px;border:14px solid red;"">","null","","","","","","","","","",""
"","image-keyboard-response","189","114281","0.0-189.0","3OSWBBLG1FJDA1OGD3HKDDW56S1XDL","ACKG8OU1KHKO2","3MVY4USGB69K0BK9K576GJZ2CVDSII","","686.7000000476837","img/land4.png","75","687.2999999523163","2","1","1","1","1,0.7,0.7,0.7,1,0.7,0.7,0.7,1","1,0.7,0.7,0.7,1,0.7,0.7,0.7,1","","",""
"","html-keyboard-response","190","114592","0.0-190.0","3OSWBBLG1FJDA1OGD3HKDDW56S1XDL","ACKG8OU1KHKO2","3MVY4USGB69K0BK9K576GJZ2CVDSII","","null","<img src=""img/land4.png"" style=""width:200px; border:14px solid green;"">","null","","","","","","","","","",""
"","image-keyboard-response","191","115497","0.0-191.0","3OSWBBLG1FJDA1OGD3HKDDW56S1XDL","ACKG8OU1KHKO2","3MVY4USGB69K0BK9K576GJZ2CVDSII","","904.7000000476837","img/land6.png","75","905.2999999523163","2","1","3","1","1,0.7,0.7,0.7,1,0.7,0.7,0.7,1","1,0.7,0.7,0.7,1,0.7,0.7,0.7,1","","",""
"","html-keyboard-response","192","115806","0.0-192.0","3OSWBBLG1FJDA1OGD3HKDDW56S1XDL","ACKG8OU1KHKO2","3MVY4USGB69K0BK9K576GJZ2CVDSII","","null","<img src=""img/land6.png"" style=""width:200px; border:14px solid green;"">","null","","","","","","","","","",""
"","image-keyboard-response","193","116161","0.0-193.0","3OSWBBLG1FJDA1OGD3HKDDW56S1XDL","ACKG8OU1KHKO2","3MVY4USGB69K0BK9K576GJZ2CVDSII","","354","img/land4.png","75","354.7999999523163","2","1","1","1","1,0.7,0.7,0.7,1,0.7,0.7,0.7,1","1,0.7,0.7,0.7,1,0.7,0.7,0.7,1","","",""
"","html-keyboard-response","194","116472","0.0-194.0","3OSWBBLG1FJDA1OGD3HKDDW56S1XDL","ACKG8OU1KHKO2","3MVY4USGB69K0BK9K576GJZ2CVDSII","","null","<img src=""img/land4.png"" style=""width:200px; border:14px solid green;"">","null","","","","","","","","","",""
"","image-keyboard-response","195","116809","0.0-195.0","3OSWBBLG1FJDA1OGD3HKDDW56S1XDL","ACKG8OU1KHKO2","3MVY4USGB69K0BK9K576GJZ2CVDSII","","336","img/land5.png","75","336.60000002384186","2","1","2","1","1,0.7,0.7,0.7,1,0.7,0.7,0.7,1","1,0.7,0.7,0.7,1,0.7,0.7,0.7,1","","",""
"","html-keyboard-response","196","117122","0.0-196.0","3OSWBBLG1FJDA1OGD3HKDDW56S1XDL","ACKG8OU1KHKO2","3MVY4USGB69K0BK9K576GJZ2CVDSII","","null","<img src=""img/land5.png"" style=""width:200px; border:14px solid green;"">","null","","","","","","","","","",""
"","image-keyboard-response","197","117449","0.0-197.0","3OSWBBLG1FJDA1OGD3HKDDW56S1XDL","ACKG8OU1KHKO2","3MVY4USGB69K0BK9K576GJZ2CVDSII","","325.6999999284744","img/land6.png","75","326.3000000715256","2","1","3","1","1,0.7,0.7,0.7,1,0.7,0.7,0.7,1","1,0.7,0.7,0.7,1,0.7,0.7,0.7,1","","",""
"","html-keyboard-response","198","117761","0.0-198.0","3OSWBBLG1FJDA1OGD3HKDDW56S1XDL","ACKG8OU1KHKO2","3MVY4USGB69K0BK9K576GJZ2CVDSII","","null","<img src=""img/land6.png"" style=""width:200px; border:14px solid green;"">","null","","","","","","","","","",""
"","image-keyboard-response","199","118113","0.0-199.0","3OSWBBLG1FJDA1OGD3HKDDW56S1XDL","ACKG8OU1KHKO2","3MVY4USGB69K0BK9K576GJZ2CVDSII","","350.8000000715256","img/land5.png","75","351.2999999523163","2","1","2","1","1,0.7,0.7,0.7,1,0.7,0.7,0.7,1","1,0.7,0.7,0.7,1,0.7,0.7,0.7,1","","",""
"","html-keyboard-response","200","118417","0.0-200.0","3OSWBBLG1FJDA1OGD3HKDDW56S1XDL","ACKG8OU1KHKO2","3MVY4USGB69K0BK9K576GJZ2CVDSII","","null","<img src=""img/land5.png"" style=""width:200px; border:14px solid green;"">","null","","","","","","","","","",""
"","image-keyboard-response","201","118769","0.0-201.0","3OSWBBLG1FJDA1OGD3HKDDW56S1XDL","ACKG8OU1KHKO2","3MVY4USGB69K0BK9K576GJZ2CVDSII","","351.2000000476837","img/land4.png","75","351.7999999523163","2","1","1","1","1,0.7,0.7,0.7,1,0.7,0.7,0.7,1","1,0.7,0.7,0.7,1,0.7,0.7,0.7,1","","",""
"","html-keyboard-response","202","119078","0.0-202.0","3OSWBBLG1FJDA1OGD3HKDDW56S1XDL","ACKG8OU1KHKO2","3MVY4USGB69K0BK9K576GJZ2CVDSII","","null","<img src=""img/land4.png"" style=""width:200px; border:14px solid green;"">","null","","","","","","","","","",""
"","image-keyboard-response","203","119817","0.0-203.0","3OSWBBLG1FJDA1OGD3HKDDW56S1XDL","ACKG8OU1KHKO2","3MVY4USGB69K0BK9K576GJZ2CVDSII","","738","img/land5.png","75","738.5","2","1","2","1","1,0.7,0.7,0.7,1,0.7,0.7,0.7,1","1,0.7,0.7,0.7,1,0.7,0.7,0.7,1","","",""
"","html-keyboard-response","204","120126","0.0-204.0","3OSWBBLG1FJDA1OGD3HKDDW56S1XDL","ACKG8OU1KHKO2","3MVY4USGB69K0BK9K576GJZ2CVDSII","","null","<img src=""img/land5.png"" style=""width:200px; border:14px solid green;"">","null","","","","","","","","","",""
"","image-keyboard-response","205","120545","0.0-205.0","3OSWBBLG1FJDA1OGD3HKDDW56S1XDL","ACKG8OU1KHKO2","3MVY4USGB69K0BK9K576GJZ2CVDSII","","417.8000000715256","img/land6.png","75","418.2999999523163","2","0","3","1","1,0.7,0.7,0.7,1,0.7,0.7,0.7,1","1,0.7,0.7,0.7,1,0.7,0.7,0.7,1","","",""
"","html-keyboard-response","206","120854","0.0-206.0","3OSWBBLG1FJDA1OGD3HKDDW56S1XDL","ACKG8OU1KHKO2","3MVY4USGB69K0BK9K576GJZ2CVDSII","","null","<img src=""img/land6.png"" style=""width:200px;border:14px solid red;"">","null","","","","","","","","","",""
"","image-keyboard-response","207","122225","0.0-207.0","3OSWBBLG1FJDA1OGD3HKDDW56S1XDL","ACKG8OU1KHKO2","3MVY4USGB69K0BK9K576GJZ2CVDSII","","1370.3000000715256","img/land4.png","75","1371","2","1","1","1","1,0.7,0.7,0.7,1,0.7,0.7,0.7,1","1,0.7,0.7,0.7,1,0.7,0.7,0.7,1","","",""
"","html-keyboard-response","208","122534","0.0-208.0","3OSWBBLG1FJDA1OGD3HKDDW56S1XDL","ACKG8OU1KHKO2","3MVY4USGB69K0BK9K576GJZ2CVDSII","","null","<img src=""img/land4.png"" style=""width:200px; border:14px solid green;"">","null","","","","","","","","","",""
"","image-keyboard-response","209","123112","0.0-209.0","3OSWBBLG1FJDA1OGD3HKDDW56S1XDL","ACKG8OU1KHKO2","3MVY4USGB69K0BK9K576GJZ2CVDSII","","577.5","img/land4.png","75","578.1000000238419","2","1","1","1","1,0.7,0.7,0.7,1,0.7,0.7,0.7,1","1,0.7,0.7,0.7,1,0.7,0.7,0.7,1","","",""
"","html-keyboard-response","210","123415","0.0-210.0","3OSWBBLG1FJDA1OGD3HKDDW56S1XDL","ACKG8OU1KHKO2","3MVY4USGB69K0BK9K576GJZ2CVDSII","","null","<img src=""img/land4.png"" style=""width:200px; border:14px solid green;"">","null","","","","","","","","","",""
"","image-keyboard-response","211","123753","0.0-211.0","3OSWBBLG1FJDA1OGD3HKDDW56S1XDL","ACKG8OU1KHKO2","3MVY4USGB69K0BK9K576GJZ2CVDSII","","337.1999999284744","img/land4.png","75","337.8000000715256","2","1","1","1","1,0.7,0.7,0.7,1,0.7,0.7,0.7,1","1,0.7,0.7,0.7,1,0.7,0.7,0.7,1","","",""
"","html-keyboard-response","212","124065","0.0-212.0","3OSWBBLG1FJDA1OGD3HKDDW56S1XDL","ACKG8OU1KHKO2","3MVY4USGB69K0BK9K576GJZ2CVDSII","","null","<img src=""img/land4.png"" style=""width:200px; border:14px solid green;"">","null","","","","","","","","","",""
"","image-keyboard-response","213","124793","0.0-213.0","3OSWBBLG1FJDA1OGD3HKDDW56S1XDL","ACKG8OU1KHKO2","3MVY4USGB69K0BK9K576GJZ2CVDSII","","727","img/land5.png","75","727.6999999284744","2","1","2","1","1,0.7,0.7,0.7,1,0.7,0.7,0.7,1","1,0.7,0.7,0.7,1,0.7,0.7,0.7,1","","",""
"","html-keyboard-response","214","125104","0.0-214.0","3OSWBBLG1FJDA1OGD3HKDDW56S1XDL","ACKG8OU1KHKO2","3MVY4USGB69K0BK9K576GJZ2CVDSII","","null","<img src=""img/land5.png"" style=""width:200px; border:14px solid green;"">","null","","","","","","","","","",""
"","image-keyboard-response","215","125337","0.0-215.0","3OSWBBLG1FJDA1OGD3HKDDW56S1XDL","ACKG8OU1KHKO2","3MVY4USGB69K0BK9K576GJZ2CVDSII","","231.89999997615814","img/land4.png","75","232.5","2","1","1","1","1,0.7,0.7,0.7,1,0.7,0.7,0.7,1","1,0.7,0.7,0.7,1,0.7,0.7,0.7,1","","",""
"","html-keyboard-response","216","125640","0.0-216.0","3OSWBBLG1FJDA1OGD3HKDDW56S1XDL","ACKG8OU1KHKO2","3MVY4USGB69K0BK9K576GJZ2CVDSII","","null","<img src=""img/land4.png"" style=""width:200px; border:14px solid green;"">","null","","","","","","","","","",""
"","image-keyboard-response","217","126126","0.0-217.0","3OSWBBLG1FJDA1OGD3HKDDW56S1XDL","ACKG8OU1KHKO2","3MVY4USGB69K0BK9K576GJZ2CVDSII","","485","img/land6.png","75","485.7999999523163","2","1","3","1","1,0.7,0.7,0.7,1,0.7,0.7,0.7,1","1,0.7,0.7,0.7,1,0.7,0.7,0.7,1","","",""
"","html-keyboard-response","218","126433","0.0-218.0","3OSWBBLG1FJDA1OGD3HKDDW56S1XDL","ACKG8OU1KHKO2","3MVY4USGB69K0BK9K576GJZ2CVDSII","","null","<img src=""img/land6.png"" style=""width:200px; border:14px solid green;"">","null","","","","","","","","","",""
"","image-keyboard-response","219","127113","0.0-219.0","3OSWBBLG1FJDA1OGD3HKDDW56S1XDL","ACKG8OU1KHKO2","3MVY4USGB69K0BK9K576GJZ2CVDSII","","678.7999999523163","img/land5.png","75","679.3999999761581","2","1","2","1","1,0.7,0.7,0.7,1,0.7,0.7,0.7,1","1,0.7,0.7,0.7,1,0.7,0.7,0.7,1","","",""
"","html-keyboard-response","220","127426","0.0-220.0","3OSWBBLG1FJDA1OGD3HKDDW56S1XDL","ACKG8OU1KHKO2","3MVY4USGB69K0BK9K576GJZ2CVDSII","","null","<img src=""img/land5.png"" style=""width:200px; border:14px solid green;"">","null","","","","","","","","","",""
"","image-keyboard-response","221","127785","0.0-221.0","3OSWBBLG1FJDA1OGD3HKDDW56S1XDL","ACKG8OU1KHKO2","3MVY4USGB69K0BK9K576GJZ2CVDSII","","358.5","img/land5.png","75","359","2","1","2","1","1,0.7,0.7,0.7,1,0.7,0.7,0.7,1","1,0.7,0.7,0.7,1,0.7,0.7,0.7,1","","",""
"","html-keyboard-response","222","128097","0.0-222.0","3OSWBBLG1FJDA1OGD3HKDDW56S1XDL","ACKG8OU1KHKO2","3MVY4USGB69K0BK9K576GJZ2CVDSII","","null","<img src=""img/land5.png"" style=""width:200px; border:14px solid green;"">","null","","","","","","","","","",""
"","image-keyboard-response","223","128745","0.0-223.0","3OSWBBLG1FJDA1OGD3HKDDW56S1XDL","ACKG8OU1KHKO2","3MVY4USGB69K0BK9K576GJZ2CVDSII","","647","img/land6.png","75","647.6000000238419","2","1","3","1","1,0.7,0.7,0.7,1,0.7,0.7,0.7,1","1,0.7,0.7,0.7,1,0.7,0.7,0.7,1","","",""
"","html-keyboard-response","224","129057","0.0-224.0","3OSWBBLG1FJDA1OGD3HKDDW56S1XDL","ACKG8OU1KHKO2","3MVY4USGB69K0BK9K576GJZ2CVDSII","","null","<img src=""img/land6.png"" style=""width:200px; border:14px solid green;"">","null","","","","","","","","","",""
"","image-keyboard-response","225","129417","0.0-225.0","3OSWBBLG1FJDA1OGD3HKDDW56S1XDL","ACKG8OU1KHKO2","3MVY4USGB69K0BK9K576GJZ2CVDSII","","358.7000000476837","img/land6.png","75","359.1999999284744","2","1","3","1","1,0.7,0.7,0.7,1,0.7,0.7,0.7,1","1,0.7,0.7,0.7,1,0.7,0.7,0.7,1","","",""
"","html-keyboard-response","226","129729","0.0-226.0","3OSWBBLG1FJDA1OGD3HKDDW56S1XDL","ACKG8OU1KHKO2","3MVY4USGB69K0BK9K576GJZ2CVDSII","","null","<img src=""img/land6.png"" style=""width:200px; border:14px solid green;"">","null","","","","","","","","","",""
"","image-keyboard-response","227","130816","0.0-227.0","3OSWBBLG1FJDA1OGD3HKDDW56S1XDL","ACKG8OU1KHKO2","3MVY4USGB69K0BK9K576GJZ2CVDSII","","1086.8999999761581","img/land4.png","75","1087.5","2","1","1","1","1,0.7,0.7,0.7,1,0.7,0.7,0.7,1","1,0.7,0.7,0.7,1,0.7,0.7,0.7,1","","",""
"","html-keyboard-response","228","131121","0.0-228.0","3OSWBBLG1FJDA1OGD3HKDDW56S1XDL","ACKG8OU1KHKO2","3MVY4USGB69K0BK9K576GJZ2CVDSII","","null","<img src=""img/land4.png"" style=""width:200px; border:14px solid green;"">","null","","","","","","","","","",""
"","image-keyboard-response","229","131649","0.0-229.0","3OSWBBLG1FJDA1OGD3HKDDW56S1XDL","ACKG8OU1KHKO2","3MVY4USGB69K0BK9K576GJZ2CVDSII","","526.6000000238419","img/land5.png","75","527.1999999284744","2","1","2","1","1,0.7,0.7,0.7,1,0.7,0.7,0.7,1","1,0.7,0.7,0.7,1,0.7,0.7,0.7,1","","",""
"","html-keyboard-response","230","131960","0.0-230.0","3OSWBBLG1FJDA1OGD3HKDDW56S1XDL","ACKG8OU1KHKO2","3MVY4USGB69K0BK9K576GJZ2CVDSII","","null","<img src=""img/land5.png"" style=""width:200px; border:14px solid green;"">","null","","","","","","","","","",""
"","image-keyboard-response","231","132353","0.0-231.0","3OSWBBLG1FJDA1OGD3HKDDW56S1XDL","ACKG8OU1KHKO2","3MVY4USGB69K0BK9K576GJZ2CVDSII","","392.60000002384186","img/land6.png","75","393.89999997615814","2","1","3","1","1,0.7,0.7,0.7,1,0.7,0.7,0.7,1","1,0.7,0.7,0.7,1,0.7,0.7,0.7,1","","",""
"","html-keyboard-response","232","132666","0.0-232.0","3OSWBBLG1FJDA1OGD3HKDDW56S1XDL","ACKG8OU1KHKO2","3MVY4USGB69K0BK9K576GJZ2CVDSII","","null","<img src=""img/land6.png"" style=""width:200px; border:14px solid green;"">","null","","","","","","","","","",""
"","image-keyboard-response","233","133336","0.0-233.0","3OSWBBLG1FJDA1OGD3HKDDW56S1XDL","ACKG8OU1KHKO2","3MVY4USGB69K0BK9K576GJZ2CVDSII","","669.5","img/land5.png","75","670.1000000238419","2","1","2","1","1,0.7,0.7,0.7,1,0.7,0.7,0.7,1","1,0.7,0.7,0.7,1,0.7,0.7,0.7,1","","",""
"","html-keyboard-response","234","133649","0.0-234.0","3OSWBBLG1FJDA1OGD3HKDDW56S1XDL","ACKG8OU1KHKO2","3MVY4USGB69K0BK9K576GJZ2CVDSII","","null","<img src=""img/land5.png"" style=""width:200px; border:14px solid green;"">","null","","","","","","","","","",""
"","image-keyboard-response","235","134081","0.0-235.0","3OSWBBLG1FJDA1OGD3HKDDW56S1XDL","ACKG8OU1KHKO2","3MVY4USGB69K0BK9K576GJZ2CVDSII","","431","img/land5.png","75","431.5","2","1","2","1","1,0.7,0.7,0.7,1,0.7,0.7,0.7,1","1,0.7,0.7,0.7,1,0.7,0.7,0.7,1","","",""
"","html-keyboard-response","236","134392","0.0-236.0","3OSWBBLG1FJDA1OGD3HKDDW56S1XDL","ACKG8OU1KHKO2","3MVY4USGB69K0BK9K576GJZ2CVDSII","","null","<img src=""img/land5.png"" style=""width:200px; border:14px solid green;"">","null","","","","","","","","","",""
"","image-keyboard-response","237","135482","0.0-237.0","3OSWBBLG1FJDA1OGD3HKDDW56S1XDL","ACKG8OU1KHKO2","3MVY4USGB69K0BK9K576GJZ2CVDSII","","1089.8000000715256","img/land4.png","75","1090.3999999761581","2","1","1","1","1,0.7,0.7,0.7,1,0.7,0.7,0.7,1","1,0.7,0.7,0.7,1,0.7,0.7,0.7,1","","",""
"","html-keyboard-response","238","135791","0.0-238.0","3OSWBBLG1FJDA1OGD3HKDDW56S1XDL","ACKG8OU1KHKO2","3MVY4USGB69K0BK9K576GJZ2CVDSII","","null","<img src=""img/land4.png"" style=""width:200px; border:14px solid green;"">","null","","","","","","","","","",""
"","image-keyboard-response","239","136217","0.0-239.0","3OSWBBLG1FJDA1OGD3HKDDW56S1XDL","ACKG8OU1KHKO2","3MVY4USGB69K0BK9K576GJZ2CVDSII","","424.6999999284744","img/land6.png","75","425.39999997615814","2","0","3","1","1,0.7,0.7,0.7,1,0.7,0.7,0.7,1","1,0.7,0.7,0.7,1,0.7,0.7,0.7,1","","",""
"","html-keyboard-response","240","136528","0.0-240.0","3OSWBBLG1FJDA1OGD3HKDDW56S1XDL","ACKG8OU1KHKO2","3MVY4USGB69K0BK9K576GJZ2CVDSII","","null","<img src=""img/land6.png"" style=""width:200px;border:14px solid red;"">","null","","","","","","","","","",""
"","image-keyboard-response","241","137529","0.0-241.0","3OSWBBLG1FJDA1OGD3HKDDW56S1XDL","ACKG8OU1KHKO2","3MVY4USGB69K0BK9K576GJZ2CVDSII","","1000.4000000953674","img/land5.png","75","1000.8999999761581","2","1","2","1","1,0.7,0.7,0.7,1,0.7,0.7,0.7,1","1,0.7,0.7,0.7,1,0.7,0.7,0.7,1","","",""
"","html-keyboard-response","242","137839","0.0-242.0","3OSWBBLG1FJDA1OGD3HKDDW56S1XDL","ACKG8OU1KHKO2","3MVY4USGB69K0BK9K576GJZ2CVDSII","","null","<img src=""img/land5.png"" style=""width:200px; border:14px solid green;"">","null","","","","","","","","","",""
"","image-keyboard-response","243","138224","0.0-243.0","3OSWBBLG1FJDA1OGD3HKDDW56S1XDL","ACKG8OU1KHKO2","3MVY4USGB69K0BK9K576GJZ2CVDSII","","384.39999997615814","img/land5.png","75","385","2","1","2","1","1,0.7,0.7,0.7,1,0.7,0.7,0.7,1","1,0.7,0.7,0.7,1,0.7,0.7,0.7,1","","",""
"","html-keyboard-response","244","138538","0.0-244.0","3OSWBBLG1FJDA1OGD3HKDDW56S1XDL","ACKG8OU1KHKO2","3MVY4USGB69K0BK9K576GJZ2CVDSII","","null","<img src=""img/land5.png"" style=""width:200px; border:14px solid green;"">","null","","","","","","","","","",""
"","image-keyboard-response","245","138881","0.0-245.0","3OSWBBLG1FJDA1OGD3HKDDW56S1XDL","ACKG8OU1KHKO2","3MVY4USGB69K0BK9K576GJZ2CVDSII","","340.7999999523163","img/land5.png","75","342.2000000476837","2","1","2","1","1,0.7,0.7,0.7,1,0.7,0.7,0.7,1","1,0.7,0.7,0.7,1,0.7,0.7,0.7,1","","",""
"","html-keyboard-response","246","139192","0.0-246.0","3OSWBBLG1FJDA1OGD3HKDDW56S1XDL","ACKG8OU1KHKO2","3MVY4USGB69K0BK9K576GJZ2CVDSII","","null","<img src=""img/land5.png"" style=""width:200px; border:14px solid green;"">","null","","","","","","","","","",""
"","image-keyboard-response","247","140153","0.0-247.0","3OSWBBLG1FJDA1OGD3HKDDW56S1XDL","ACKG8OU1KHKO2","3MVY4USGB69K0BK9K576GJZ2CVDSII","","960.0999999046326","img/land4.png","75","960.7999999523163","2","1","1","1","1,0.7,0.7,0.7,1,0.7,0.7,0.7,1","1,0.7,0.7,0.7,1,0.7,0.7,0.7,1","","",""
"","html-keyboard-response","248","140462","0.0-248.0","3OSWBBLG1FJDA1OGD3HKDDW56S1XDL","ACKG8OU1KHKO2","3MVY4USGB69K0BK9K576GJZ2CVDSII","","null","<img src=""img/land4.png"" style=""width:200px; border:14px solid green;"">","null","","","","","","","","","",""
"","image-keyboard-response","249","141577","0.0-249.0","3OSWBBLG1FJDA1OGD3HKDDW56S1XDL","ACKG8OU1KHKO2","3MVY4USGB69K0BK9K576GJZ2CVDSII","","1114","img/land6.png","76","1114.8000000715256","3","1","3","1","1,0.7,0.7,0.7,1,0.7,0.7,0.7,1","1,0.7,0.7,0.7,1,0.7,0.7,0.7,1","","",""
"","html-keyboard-response","250","141885","0.0-250.0","3OSWBBLG1FJDA1OGD3HKDDW56S1XDL","ACKG8OU1KHKO2","3MVY4USGB69K0BK9K576GJZ2CVDSII","","null","<img src=""img/land6.png"" style=""width:200px; border:14px solid green;"">","null","","","","","","","","","",""
"","image-keyboard-response","251","142817","0.0-251.0","3OSWBBLG1FJDA1OGD3HKDDW56S1XDL","ACKG8OU1KHKO2","3MVY4USGB69K0BK9K576GJZ2CVDSII","","930.6999999284744","img/land4.png","76","931.5","3","1","1","1","1,0.7,0.7,0.7,1,0.7,0.7,0.7,1","1,0.7,0.7,0.7,1,0.7,0.7,0.7,1","","",""
"","html-keyboard-response","252","143128","0.0-252.0","3OSWBBLG1FJDA1OGD3HKDDW56S1XDL","ACKG8OU1KHKO2","3MVY4USGB69K0BK9K576GJZ2CVDSII","","null","<img src=""img/land4.png"" style=""width:200px; border:14px solid green;"">","null","","","","","","","","","",""
"","image-keyboard-response","253","143896","0.0-253.0","3OSWBBLG1FJDA1OGD3HKDDW56S1XDL","ACKG8OU1KHKO2","3MVY4USGB69K0BK9K576GJZ2CVDSII","","766.8000000715256","img/land6.png","76","767.3999999761581","3","1","3","1","1,0.7,0.7,0.7,1,0.7,0.7,0.7,1","1,0.7,0.7,0.7,1,0.7,0.7,0.7,1","","",""
"","html-keyboard-response","254","144199","0.0-254.0","3OSWBBLG1FJDA1OGD3HKDDW56S1XDL","ACKG8OU1KHKO2","3MVY4USGB69K0BK9K576GJZ2CVDSII","","null","<img src=""img/land6.png"" style=""width:200px; border:14px solid green;"">","null","","","","","","","","","",""
"","image-keyboard-response","255","145016","0.0-255.0","3OSWBBLG1FJDA1OGD3HKDDW56S1XDL","ACKG8OU1KHKO2","3MVY4USGB69K0BK9K576GJZ2CVDSII","","816.6000000238419","img/land5.png","75","817.3000000715256","2","1","2","1","1,0.7,0.7,0.7,1,0.7,0.7,0.7,1","1,0.7,0.7,0.7,1,0.7,0.7,0.7,1","","",""
"","html-keyboard-response","256","145328","0.0-256.0","3OSWBBLG1FJDA1OGD3HKDDW56S1XDL","ACKG8OU1KHKO2","3MVY4USGB69K0BK9K576GJZ2CVDSII","","null","<img src=""img/land5.png"" style=""width:200px; border:14px solid green;"">","null","","","","","","","","","",""
"","image-keyboard-response","257","145696","0.0-257.0","3OSWBBLG1FJDA1OGD3HKDDW56S1XDL","ACKG8OU1KHKO2","3MVY4USGB69K0BK9K576GJZ2CVDSII","","367.2999999523163","img/land6.png","75","367.8000000715256","2","1","3","1","1,0.7,0.7,0.7,1,0.7,0.7,0.7,1","1,0.7,0.7,0.7,1,0.7,0.7,0.7,1","","",""
"","html-keyboard-response","258","146007","0.0-258.0","3OSWBBLG1FJDA1OGD3HKDDW56S1XDL","ACKG8OU1KHKO2","3MVY4USGB69K0BK9K576GJZ2CVDSII","","null","<img src=""img/land6.png"" style=""width:200px; border:14px solid green;"">","null","","","","","","","","","",""
"","image-keyboard-response","259","146560","0.0-259.0","3OSWBBLG1FJDA1OGD3HKDDW56S1XDL","ACKG8OU1KHKO2","3MVY4USGB69K0BK9K576GJZ2CVDSII","","552.2999999523163","img/land5.png","75","552.8999999761581","2","1","2","1","1,0.7,0.7,0.7,1,0.7,0.7,0.7,1","1,0.7,0.7,0.7,1,0.7,0.7,0.7,1","","",""
"","html-keyboard-response","260","146872","0.0-260.0","3OSWBBLG1FJDA1OGD3HKDDW56S1XDL","ACKG8OU1KHKO2","3MVY4USGB69K0BK9K576GJZ2CVDSII","","null","<img src=""img/land5.png"" style=""width:200px; border:14px solid green;"">","null","","","","","","","","","",""
"","image-keyboard-response","261","147304","0.0-261.0","3OSWBBLG1FJDA1OGD3HKDDW56S1XDL","ACKG8OU1KHKO2","3MVY4USGB69K0BK9K576GJZ2CVDSII","","430.7000000476837","img/land5.png","75","431.1999999284744","2","1","2","1","1,0.7,0.7,0.7,1,0.7,0.7,0.7,1","1,0.7,0.7,0.7,1,0.7,0.7,0.7,1","","",""
"","html-keyboard-response","262","147609","0.0-262.0","3OSWBBLG1FJDA1OGD3HKDDW56S1XDL","ACKG8OU1KHKO2","3MVY4USGB69K0BK9K576GJZ2CVDSII","","null","<img src=""img/land5.png"" style=""width:200px; border:14px solid green;"">","null","","","","","","","","","",""
"","image-keyboard-response","263","148440","0.0-263.0","3OSWBBLG1FJDA1OGD3HKDDW56S1XDL","ACKG8OU1KHKO2","3MVY4USGB69K0BK9K576GJZ2CVDSII","","830","img/land5.png","75","830.7000000476837","2","1","2","1","1,0.7,0.7,0.7,1,0.7,0.7,0.7,1","1,0.7,0.7,0.7,1,0.7,0.7,0.7,1","","",""
"","html-keyboard-response","264","148753","0.0-264.0","3OSWBBLG1FJDA1OGD3HKDDW56S1XDL","ACKG8OU1KHKO2","3MVY4USGB69K0BK9K576GJZ2CVDSII","","null","<img src=""img/land5.png"" style=""width:200px; border:14px solid green;"">","null","","","","","","","","","",""
"","image-keyboard-response","265","149528","0.0-265.0","3OSWBBLG1FJDA1OGD3HKDDW56S1XDL","ACKG8OU1KHKO2","3MVY4USGB69K0BK9K576GJZ2CVDSII","","774.1999999284744","img/land5.png","75","774.8000000715256","2","1","2","1","1,0.7,0.7,0.7,1,0.7,0.7,0.7,1","1,0.7,0.7,0.7,1,0.7,0.7,0.7,1","","",""
"","html-keyboard-response","266","149838","0.0-266.0","3OSWBBLG1FJDA1OGD3HKDDW56S1XDL","ACKG8OU1KHKO2","3MVY4USGB69K0BK9K576GJZ2CVDSII","","null","<img src=""img/land5.png"" style=""width:200px; border:14px solid green;"">","null","","","","","","","","","",""
"","image-keyboard-response","267","150840","0.0-267.0","3OSWBBLG1FJDA1OGD3HKDDW56S1XDL","ACKG8OU1KHKO2","3MVY4USGB69K0BK9K576GJZ2CVDSII","","1001.1999999284744","img/land6.png","75","1001.7000000476837","2","1","3","1","1,0.7,0.7,0.7,1,0.7,0.7,0.7,1","1,0.7,0.7,0.7,1,0.7,0.7,0.7,1","","",""
"","html-keyboard-response","268","151149","0.0-268.0","3OSWBBLG1FJDA1OGD3HKDDW56S1XDL","ACKG8OU1KHKO2","3MVY4USGB69K0BK9K576GJZ2CVDSII","","null","<img src=""img/land6.png"" style=""width:200px; border:14px solid green;"">","null","","","","","","","","","",""
"","image-keyboard-response","269","151800","0.0-269.0","3OSWBBLG1FJDA1OGD3HKDDW56S1XDL","ACKG8OU1KHKO2","3MVY4USGB69K0BK9K576GJZ2CVDSII","","650.1000000238419","img/land5.png","75","650.6999999284744","2","1","2","1","1,0.7,0.7,0.7,1,0.7,0.7,0.7,1","1,0.7,0.7,0.7,1,0.7,0.7,0.7,1","","",""
"","html-keyboard-response","270","152114","0.0-270.0","3OSWBBLG1FJDA1OGD3HKDDW56S1XDL","ACKG8OU1KHKO2","3MVY4USGB69K0BK9K576GJZ2CVDSII","","null","<img src=""img/land5.png"" style=""width:200px; border:14px solid green;"">","null","","","","","","","","","",""
"","image-keyboard-response","271","152672","0.0-271.0","3OSWBBLG1FJDA1OGD3HKDDW56S1XDL","ACKG8OU1KHKO2","3MVY4USGB69K0BK9K576GJZ2CVDSII","","556.8999999761581","img/land4.png","75","557.6000000238419","2","1","1","1","1,0.7,0.7,0.7,1,0.7,0.7,0.7,1","1,0.7,0.7,0.7,1,0.7,0.7,0.7,1","","",""
"","html-keyboard-response","272","152984","0.0-272.0","3OSWBBLG1FJDA1OGD3HKDDW56S1XDL","ACKG8OU1KHKO2","3MVY4USGB69K0BK9K576GJZ2CVDSII","","null","<img src=""img/land4.png"" style=""width:200px; border:14px solid green;"">","null","","","","","","","","","",""
"","image-keyboard-response","273","153360","0.0-273.0","3OSWBBLG1FJDA1OGD3HKDDW56S1XDL","ACKG8OU1KHKO2","3MVY4USGB69K0BK9K576GJZ2CVDSII","","375.7000000476837","img/land5.png","75","376.5","2","1","2","1","1,0.7,0.7,0.7,1,0.7,0.7,0.7,1","1,0.7,0.7,0.7,1,0.7,0.7,0.7,1","","",""
"","html-keyboard-response","274","153670","0.0-274.0","3OSWBBLG1FJDA1OGD3HKDDW56S1XDL","ACKG8OU1KHKO2","3MVY4USGB69K0BK9K576GJZ2CVDSII","","null","<img src=""img/land5.png"" style=""width:200px; border:14px solid green;"">","null","","","","","","","","","",""
"","image-keyboard-response","275","154506","0.0-275.0","3OSWBBLG1FJDA1OGD3HKDDW56S1XDL","ACKG8OU1KHKO2","3MVY4USGB69K0BK9K576GJZ2CVDSII","","835.2999999523163","img/land5.png","75","835.7999999523163","2","1","2","1","1,0.7,0.7,0.7,1,0.7,0.7,0.7,1","1,0.7,0.7,0.7,1,0.7,0.7,0.7,1","","",""
"","html-keyboard-response","276","154813","0.0-276.0","3OSWBBLG1FJDA1OGD3HKDDW56S1XDL","ACKG8OU1KHKO2","3MVY4USGB69K0BK9K576GJZ2CVDSII","","null","<img src=""img/land5.png"" style=""width:200px; border:14px solid green;"">","null","","","","","","","","","",""
"","image-keyboard-response","277","155528","0.0-277.0","3OSWBBLG1FJDA1OGD3HKDDW56S1XDL","ACKG8OU1KHKO2","3MVY4USGB69K0BK9K576GJZ2CVDSII","","714.7000000476837","img/land5.png","75","715.3999999761581","2","1","2","1","1,0.7,0.7,0.7,1,0.7,0.7,0.7,1","1,0.7,0.7,0.7,1,0.7,0.7,0.7,1","","",""
"","html-keyboard-response","278","155839","0.0-278.0","3OSWBBLG1FJDA1OGD3HKDDW56S1XDL","ACKG8OU1KHKO2","3MVY4USGB69K0BK9K576GJZ2CVDSII","","null","<img src=""img/land5.png"" style=""width:200px; border:14px solid green;"">","null","","","","","","","","","",""
"","image-keyboard-response","279","156184","0.0-279.0","3OSWBBLG1FJDA1OGD3HKDDW56S1XDL","ACKG8OU1KHKO2","3MVY4USGB69K0BK9K576GJZ2CVDSII","","344.89999997615814","img/land5.png","75","345.7999999523163","2","1","2","1","1,0.7,0.7,0.7,1,0.7,0.7,0.7,1","1,0.7,0.7,0.7,1,0.7,0.7,0.7,1","","",""
"","html-keyboard-response","280","156496","0.0-280.0","3OSWBBLG1FJDA1OGD3HKDDW56S1XDL","ACKG8OU1KHKO2","3MVY4USGB69K0BK9K576GJZ2CVDSII","","null","<img src=""img/land5.png"" style=""width:200px; border:14px solid green;"">","null","","","","","","","","","",""
"","image-keyboard-response","281","156832","0.0-281.0","3OSWBBLG1FJDA1OGD3HKDDW56S1XDL","ACKG8OU1KHKO2","3MVY4USGB69K0BK9K576GJZ2CVDSII","","335.5","img/land5.png","75","336.09999990463257","2","1","2","1","1,0.7,0.7,0.7,1,0.7,0.7,0.7,1","1,0.7,0.7,0.7,1,0.7,0.7,0.7,1","","",""
"","html-keyboard-response","282","157142","0.0-282.0","3OSWBBLG1FJDA1OGD3HKDDW56S1XDL","ACKG8OU1KHKO2","3MVY4USGB69K0BK9K576GJZ2CVDSII","","null","<img src=""img/land5.png"" style=""width:200px; border:14px solid green;"">","null","","","","","","","","","",""
"","image-keyboard-response","283","157624","0.0-283.0","3OSWBBLG1FJDA1OGD3HKDDW56S1XDL","ACKG8OU1KHKO2","3MVY4USGB69K0BK9K576GJZ2CVDSII","","481.60000002384186","img/land6.png","75","482.1999999284744","2","0","3","1","1,0.7,0.7,0.7,1,0.7,0.7,0.7,1","1,0.7,0.7,0.7,1,0.7,0.7,0.7,1","","",""
"","html-keyboard-response","284","157935","0.0-284.0","3OSWBBLG1FJDA1OGD3HKDDW56S1XDL","ACKG8OU1KHKO2","3MVY4USGB69K0BK9K576GJZ2CVDSII","","null","<img src=""img/land6.png"" style=""width:200px;border:14px solid red;"">","null","","","","","","","","","",""
"","image-keyboard-response","285","158297","0.0-285.0","3OSWBBLG1FJDA1OGD3HKDDW56S1XDL","ACKG8OU1KHKO2","3MVY4USGB69K0BK9K576GJZ2CVDSII","","360.7000000476837","img/land4.png","76","361.39999997615814","3","1","1","1","1,0.7,0.7,0.7,1,0.7,0.7,0.7,1","1,0.7,0.7,0.7,1,0.7,0.7,0.7,1","","",""
"","html-keyboard-response","286","158605","0.0-286.0","3OSWBBLG1FJDA1OGD3HKDDW56S1XDL","ACKG8OU1KHKO2","3MVY4USGB69K0BK9K576GJZ2CVDSII","","null","<img src=""img/land4.png"" style=""width:200px; border:14px solid green;"">","null","","","","","","","","","",""
"","image-keyboard-response","287","159032","0.0-287.0","3OSWBBLG1FJDA1OGD3HKDDW56S1XDL","ACKG8OU1KHKO2","3MVY4USGB69K0BK9K576GJZ2CVDSII","","426.7000000476837","img/land5.png","76","427.39999997615814","3","1","2","1","1,0.7,0.7,0.7,1,0.7,0.7,0.7,1","1,0.7,0.7,0.7,1,0.7,0.7,0.7,1","","",""
"","html-keyboard-response","288","159345","0.0-288.0","3OSWBBLG1FJDA1OGD3HKDDW56S1XDL","ACKG8OU1KHKO2","3MVY4USGB69K0BK9K576GJZ2CVDSII","","null","<img src=""img/land5.png"" style=""width:200px; border:14px solid green;"">","null","","","","","","","","","",""
"","image-keyboard-response","289","159744","0.0-289.0","3OSWBBLG1FJDA1OGD3HKDDW56S1XDL","ACKG8OU1KHKO2","3MVY4USGB69K0BK9K576GJZ2CVDSII","","397.8000000715256","img/land5.png","76","398.40000009536743","3","1","2","1","1,0.7,0.7,0.7,1,0.7,0.7,0.7,1","1,0.7,0.7,0.7,1,0.7,0.7,0.7,1","","",""
"","html-keyboard-response","290","160055","0.0-290.0","3OSWBBLG1FJDA1OGD3HKDDW56S1XDL","ACKG8OU1KHKO2","3MVY4USGB69K0BK9K576GJZ2CVDSII","","null","<img src=""img/land5.png"" style=""width:200px; border:14px solid green;"">","null","","","","","","","","","",""
"","image-keyboard-response","291","160545","0.0-291.0","3OSWBBLG1FJDA1OGD3HKDDW56S1XDL","ACKG8OU1KHKO2","3MVY4USGB69K0BK9K576GJZ2CVDSII","","488.6999999284744","img/land5.png","76","489.5","3","1","2","1","1,0.7,0.7,0.7,1,0.7,0.7,0.7,1","1,0.7,0.7,0.7,1,0.7,0.7,0.7,1","","",""
"","html-keyboard-response","292","160856","0.0-292.0","3OSWBBLG1FJDA1OGD3HKDDW56S1XDL","ACKG8OU1KHKO2","3MVY4USGB69K0BK9K576GJZ2CVDSII","","null","<img src=""img/land5.png"" style=""width:200px; border:14px solid green;"">","null","","","","","","","","","",""
"","image-keyboard-response","293","161912","0.0-293.0","3OSWBBLG1FJDA1OGD3HKDDW56S1XDL","ACKG8OU1KHKO2","3MVY4USGB69K0BK9K576GJZ2CVDSII","","1055.0999999046326","img/land4.png","76","1055.8999999761581","3","1","1","1","1,0.7,0.7,0.7,1,0.7,0.7,0.7,1","1,0.7,0.7,0.7,1,0.7,0.7,0.7,1","","",""
"","html-keyboard-response","294","162224","0.0-294.0","3OSWBBLG1FJDA1OGD3HKDDW56S1XDL","ACKG8OU1KHKO2","3MVY4USGB69K0BK9K576GJZ2CVDSII","","null","<img src=""img/land4.png"" style=""width:200px; border:14px solid green;"">","null","","","","","","","","","",""
"","image-keyboard-response","295","162815","0.0-295.0","3OSWBBLG1FJDA1OGD3HKDDW56S1XDL","ACKG8OU1KHKO2","3MVY4USGB69K0BK9K576GJZ2CVDSII","","590","img/land6.png","76","590.6000000238419","3","1","3","1","1,0.7,0.7,0.7,1,0.7,0.7,0.7,1","1,0.7,0.7,0.7,1,0.7,0.7,0.7,1","","",""
"","html-keyboard-response","296","163118","0.0-296.0","3OSWBBLG1FJDA1OGD3HKDDW56S1XDL","ACKG8OU1KHKO2","3MVY4USGB69K0BK9K576GJZ2CVDSII","","null","<img src=""img/land6.png"" style=""width:200px; border:14px solid green;"">","null","","","","","","","","","",""
"","image-keyboard-response","297","163520","0.0-297.0","3OSWBBLG1FJDA1OGD3HKDDW56S1XDL","ACKG8OU1KHKO2","3MVY4USGB69K0BK9K576GJZ2CVDSII","","400.8000000715256","img/land5.png","76","401.2999999523163","3","1","2","1","1,0.7,0.7,0.7,1,0.7,0.7,0.7,1","1,0.7,0.7,0.7,1,0.7,0.7,0.7,1","","",""
"","html-keyboard-response","298","163832","0.0-298.0","3OSWBBLG1FJDA1OGD3HKDDW56S1XDL","ACKG8OU1KHKO2","3MVY4USGB69K0BK9K576GJZ2CVDSII","","null","<img src=""img/land5.png"" style=""width:200px; border:14px solid green;"">","null","","","","","","","","","",""
"","image-keyboard-response","299","164183","0.0-299.0","3OSWBBLG1FJDA1OGD3HKDDW56S1XDL","ACKG8OU1KHKO2","3MVY4USGB69K0BK9K576GJZ2CVDSII","","350.2000000476837","img/land5.png","76","350.7999999523163","3","1","2","1","1,0.7,0.7,0.7,1,0.7,0.7,0.7,1","1,0.7,0.7,0.7,1,0.7,0.7,0.7,1","","",""
"","html-keyboard-response","300","164488","0.0-300.0","3OSWBBLG1FJDA1OGD3HKDDW56S1XDL","ACKG8OU1KHKO2","3MVY4USGB69K0BK9K576GJZ2CVDSII","","null","<img src=""img/land5.png"" style=""width:200px; border:14px solid green;"">","null","","","","","","","","","",""
"","image-keyboard-response","301","165160","0.0-301.0","3OSWBBLG1FJDA1OGD3HKDDW56S1XDL","ACKG8OU1KHKO2","3MVY4USGB69K0BK9K576GJZ2CVDSII","","671.3999999761581","img/land5.png","76","671.8999999761581","3","1","2","1","1,0.7,0.7,0.7,1,0.7,0.7,0.7,1","1,0.7,0.7,0.7,1,0.7,0.7,0.7,1","","",""
"","html-keyboard-response","302","165471","0.0-302.0","3OSWBBLG1FJDA1OGD3HKDDW56S1XDL","ACKG8OU1KHKO2","3MVY4USGB69K0BK9K576GJZ2CVDSII","","null","<img src=""img/land5.png"" style=""width:200px; border:14px solid green;"">","null","","","","","","","","","",""
"","image-keyboard-response","303","165864","0.0-303.0","3OSWBBLG1FJDA1OGD3HKDDW56S1XDL","ACKG8OU1KHKO2","3MVY4USGB69K0BK9K576GJZ2CVDSII","","392.2999999523163","img/land6.png","76","392.8000000715256","3","1","3","1","1,0.7,0.7,0.7,1,0.7,0.7,0.7,1","1,0.7,0.7,0.7,1,0.7,0.7,0.7,1","","",""
"","html-keyboard-response","304","166172","0.0-304.0","3OSWBBLG1FJDA1OGD3HKDDW56S1XDL","ACKG8OU1KHKO2","3MVY4USGB69K0BK9K576GJZ2CVDSII","","null","<img src=""img/land6.png"" style=""width:200px; border:14px solid green;"">","null","","","","","","","","","",""
"","image-keyboard-response","305","166583","0.0-305.0","3OSWBBLG1FJDA1OGD3HKDDW56S1XDL","ACKG8OU1KHKO2","3MVY4USGB69K0BK9K576GJZ2CVDSII","","410.39999997615814","img/land4.png","76","410.89999997615814","3","1","1","1","1,0.7,0.7,0.7,1,0.7,0.7,0.7,1","1,0.7,0.7,0.7,1,0.7,0.7,0.7,1","","",""
"","html-keyboard-response","306","166888","0.0-306.0","3OSWBBLG1FJDA1OGD3HKDDW56S1XDL","ACKG8OU1KHKO2","3MVY4USGB69K0BK9K576GJZ2CVDSII","","null","<img src=""img/land4.png"" style=""width:200px; border:14px solid green;"">","null","","","","","","","","","",""
"","image-keyboard-response","307","167200","0.0-307.0","3OSWBBLG1FJDA1OGD3HKDDW56S1XDL","ACKG8OU1KHKO2","3MVY4USGB69K0BK9K576GJZ2CVDSII","","311.2999999523163","img/land4.png","76","311.7999999523163","3","1","1","1","1,0.7,0.7,0.7,1,0.7,0.7,0.7,1","1,0.7,0.7,0.7,1,0.7,0.7,0.7,1","","",""
"","html-keyboard-response","308","167512","0.0-308.0","3OSWBBLG1FJDA1OGD3HKDDW56S1XDL","ACKG8OU1KHKO2","3MVY4USGB69K0BK9K576GJZ2CVDSII","","null","<img src=""img/land4.png"" style=""width:200px; border:14px solid green;"">","null","","","","","","","","","",""
"","image-keyboard-response","309","168064","0.0-309.0","3OSWBBLG1FJDA1OGD3HKDDW56S1XDL","ACKG8OU1KHKO2","3MVY4USGB69K0BK9K576GJZ2CVDSII","","550.4000000953674","img/land6.png","76","551","3","1","3","1","1,0.7,0.7,0.7,1,0.7,0.7,0.7,1","1,0.7,0.7,0.7,1,0.7,0.7,0.7,1","","",""
"","html-keyboard-response","310","168367","0.0-310.0","3OSWBBLG1FJDA1OGD3HKDDW56S1XDL","ACKG8OU1KHKO2","3MVY4USGB69K0BK9K576GJZ2CVDSII","","null","<img src=""img/land6.png"" style=""width:200px; border:14px solid green;"">","null","","","","","","","","","",""
"","image-keyboard-response","311","169035","0.0-311.0","3OSWBBLG1FJDA1OGD3HKDDW56S1XDL","ACKG8OU1KHKO2","3MVY4USGB69K0BK9K576GJZ2CVDSII","","666.8000000715256","img/land5.png","76","667.5","3","1","2","1","1,0.7,0.7,0.7,1,0.7,0.7,0.7,1","1,0.7,0.7,0.7,1,0.7,0.7,0.7,1","","",""
"","html-keyboard-response","312","169343","0.0-312.0","3OSWBBLG1FJDA1OGD3HKDDW56S1XDL","ACKG8OU1KHKO2","3MVY4USGB69K0BK9K576GJZ2CVDSII","","null","<img src=""img/land5.png"" style=""width:200px; border:14px solid green;"">","null","","","","","","","","","",""
"","image-keyboard-response","313","169711","0.0-313.0","3OSWBBLG1FJDA1OGD3HKDDW56S1XDL","ACKG8OU1KHKO2","3MVY4USGB69K0BK9K576GJZ2CVDSII","","368.10000002384186","img/land5.png","76","368.6999999284744","3","0","2","1","1,0.7,0.7,0.7,1,0.7,0.7,0.7,1","1,0.7,0.7,0.7,1,0.7,0.7,0.7,1","","",""
"","html-keyboard-response","314","170022","0.0-314.0","3OSWBBLG1FJDA1OGD3HKDDW56S1XDL","ACKG8OU1KHKO2","3MVY4USGB69K0BK9K576GJZ2CVDSII","","null","<img src=""img/land5.png"" style=""width:200px;border:14px solid red;"">","null","","","","","","","","","",""
"","image-keyboard-response","315","170896","0.0-315.0","3OSWBBLG1FJDA1OGD3HKDDW56S1XDL","ACKG8OU1KHKO2","3MVY4USGB69K0BK9K576GJZ2CVDSII","","873.6000000238419","img/land4.png","75","874.2999999523163","2","0","1","1","1,0.7,0.7,0.7,1,0.7,0.7,0.7,1","1,0.7,0.7,0.7,1,0.7,0.7,0.7,1","","",""
"","html-keyboard-response","316","171204","0.0-316.0","3OSWBBLG1FJDA1OGD3HKDDW56S1XDL","ACKG8OU1KHKO2","3MVY4USGB69K0BK9K576GJZ2CVDSII","","null","<img src=""img/land4.png"" style=""width:200px;border:14px solid red;"">","null","","","","","","","","","",""
"","image-keyboard-response","317","171575","0.0-317.0","3OSWBBLG1FJDA1OGD3HKDDW56S1XDL","ACKG8OU1KHKO2","3MVY4USGB69K0BK9K576GJZ2CVDSII","","369.8000000715256","img/land5.png","76","370.5","3","1","2","1","1,0.7,0.7,0.7,1,0.7,0.7,0.7,1","1,0.7,0.7,0.7,1,0.7,0.7,0.7,1","","",""
"","html-keyboard-response","318","171889","0.0-318.0","3OSWBBLG1FJDA1OGD3HKDDW56S1XDL","ACKG8OU1KHKO2","3MVY4USGB69K0BK9K576GJZ2CVDSII","","null","<img src=""img/land5.png"" style=""width:200px; border:14px solid green;"">","null","","","","","","","","","",""
"","image-keyboard-response","319","172192","0.0-319.0","3OSWBBLG1FJDA1OGD3HKDDW56S1XDL","ACKG8OU1KHKO2","3MVY4USGB69K0BK9K576GJZ2CVDSII","","301.59999990463257","img/land6.png","76","302.59999990463257","3","1","3","1","1,0.7,0.7,0.7,1,0.7,0.7,0.7,1","1,0.7,0.7,0.7,1,0.7,0.7,0.7,1","","",""
"","html-keyboard-response","320","172500","0.0-320.0","3OSWBBLG1FJDA1OGD3HKDDW56S1XDL","ACKG8OU1KHKO2","3MVY4USGB69K0BK9K576GJZ2CVDSII","","null","<img src=""img/land6.png"" style=""width:200px; border:14px solid green;"">","null","","","","","","","","","",""
"","image-keyboard-response","321","173127","0.0-321.0","3OSWBBLG1FJDA1OGD3HKDDW56S1XDL","ACKG8OU1KHKO2","3MVY4USGB69K0BK9K576GJZ2CVDSII","","626.8000000715256","img/land5.png","76","627.6000000238419","3","1","2","1","1,0.7,0.7,0.7,1,0.7,0.7,0.7,1","1,0.7,0.7,0.7,1,0.7,0.7,0.7,1","","",""
"","html-keyboard-response","322","173441","0.0-322.0","3OSWBBLG1FJDA1OGD3HKDDW56S1XDL","ACKG8OU1KHKO2","3MVY4USGB69K0BK9K576GJZ2CVDSII","","null","<img src=""img/land5.png"" style=""width:200px; border:14px solid green;"">","null","","","","","","","","","",""
"","image-keyboard-response","323","173831","0.0-323.0","3OSWBBLG1FJDA1OGD3HKDDW56S1XDL","ACKG8OU1KHKO2","3MVY4USGB69K0BK9K576GJZ2CVDSII","","389.1999999284744","img/land5.png","76","389.7000000476837","3","0","2","1","1,0.7,0.7,0.7,1,0.7,0.7,0.7,1","1,0.7,0.7,0.7,1,0.7,0.7,0.7,1","","",""
"","html-keyboard-response","324","174136","0.0-324.0","3OSWBBLG1FJDA1OGD3HKDDW56S1XDL","ACKG8OU1KHKO2","3MVY4USGB69K0BK9K576GJZ2CVDSII","","null","<img src=""img/land5.png"" style=""width:200px;border:14px solid red;"">","null","","","","","","","","","",""
"","image-keyboard-response","325","175247","0.0-325.0","3OSWBBLG1FJDA1OGD3HKDDW56S1XDL","ACKG8OU1KHKO2","3MVY4USGB69K0BK9K576GJZ2CVDSII","","1111.0999999046326","img/land6.png","74","1111.6000000238419","1","1","3","1","1,0.7,0.7,0.7,1,0.7,0.7,0.7,1","1,0.7,0.7,0.7,1,0.7,0.7,0.7,1","","",""
"","html-keyboard-response","326","175560","0.0-326.0","3OSWBBLG1FJDA1OGD3HKDDW56S1XDL","ACKG8OU1KHKO2","3MVY4USGB69K0BK9K576GJZ2CVDSII","","null","<img src=""img/land6.png"" style=""width:200px; border:14px solid green;"">","null","","","","","","","","","",""
"","image-keyboard-response","327","176623","0.0-327.0","3OSWBBLG1FJDA1OGD3HKDDW56S1XDL","ACKG8OU1KHKO2","3MVY4USGB69K0BK9K576GJZ2CVDSII","","1063","img/land4.png","74","1063.5999999046326","1","1","1","1","1,0.7,0.7,0.7,1,0.7,0.7,0.7,1","1,0.7,0.7,0.7,1,0.7,0.7,0.7,1","","",""
"","html-keyboard-response","328","176935","0.0-328.0","3OSWBBLG1FJDA1OGD3HKDDW56S1XDL","ACKG8OU1KHKO2","3MVY4USGB69K0BK9K576GJZ2CVDSII","","null","<img src=""img/land4.png"" style=""width:200px; border:14px solid green;"">","null","","","","","","","","","",""
"","image-keyboard-response","329","177255","0.0-329.0","3OSWBBLG1FJDA1OGD3HKDDW56S1XDL","ACKG8OU1KHKO2","3MVY4USGB69K0BK9K576GJZ2CVDSII","","319.3000000715256","img/land5.png","74","319.6999999284744","1","1","2","1","1,0.7,0.7,0.7,1,0.7,0.7,0.7,1","1,0.7,0.7,0.7,1,0.7,0.7,0.7,1","","",""
"","html-keyboard-response","330","177568","0.0-330.0","3OSWBBLG1FJDA1OGD3HKDDW56S1XDL","ACKG8OU1KHKO2","3MVY4USGB69K0BK9K576GJZ2CVDSII","","null","<img src=""img/land5.png"" style=""width:200px; border:14px solid green;"">","null","","","","","","","","","",""
"","image-keyboard-response","331","177903","0.0-331.0","3OSWBBLG1FJDA1OGD3HKDDW56S1XDL","ACKG8OU1KHKO2","3MVY4USGB69K0BK9K576GJZ2CVDSII","","333.60000002384186","img/land6.png","74","334.3000000715256","1","1","3","1","1,0.7,0.7,0.7,1,0.7,0.7,0.7,1","1,0.7,0.7,0.7,1,0.7,0.7,0.7,1","","",""
"","html-keyboard-response","332","178207","0.0-332.0","3OSWBBLG1FJDA1OGD3HKDDW56S1XDL","ACKG8OU1KHKO2","3MVY4USGB69K0BK9K576GJZ2CVDSII","","null","<img src=""img/land6.png"" style=""width:200px; border:14px solid green;"">","null","","","","","","","","","",""
"","image-keyboard-response","333","178584","0.0-333.0","3OSWBBLG1FJDA1OGD3HKDDW56S1XDL","ACKG8OU1KHKO2","3MVY4USGB69K0BK9K576GJZ2CVDSII","","376.3000000715256","img/land4.png","74","377","1","1","1","1","1,0.7,0.7,0.7,1,0.7,0.7,0.7,1","1,0.7,0.7,0.7,1,0.7,0.7,0.7,1","","",""
"","html-keyboard-response","334","178896","0.0-334.0","3OSWBBLG1FJDA1OGD3HKDDW56S1XDL","ACKG8OU1KHKO2","3MVY4USGB69K0BK9K576GJZ2CVDSII","","null","<img src=""img/land4.png"" style=""width:200px; border:14px solid green;"">","null","","","","","","","","","",""
"","image-keyboard-response","335","179367","0.0-335.0","3OSWBBLG1FJDA1OGD3HKDDW56S1XDL","ACKG8OU1KHKO2","3MVY4USGB69K0BK9K576GJZ2CVDSII","","470.7000000476837","img/land5.png","74","471.2999999523163","1","1","2","1","1,0.7,0.7,0.7,1,0.7,0.7,0.7,1","1,0.7,0.7,0.7,1,0.7,0.7,0.7,1","","",""
"","html-keyboard-response","336","179680","0.0-336.0","3OSWBBLG1FJDA1OGD3HKDDW56S1XDL","ACKG8OU1KHKO2","3MVY4USGB69K0BK9K576GJZ2CVDSII","","null","<img src=""img/land5.png"" style=""width:200px; border:14px solid green;"">","null","","","","","","","","","",""
"","image-keyboard-response","337","180176","0.0-337.0","3OSWBBLG1FJDA1OGD3HKDDW56S1XDL","ACKG8OU1KHKO2","3MVY4USGB69K0BK9K576GJZ2CVDSII","","495.2999999523163","img/land5.png","74","495.89999997615814","1","1","2","1","1,0.7,0.7,0.7,1,0.7,0.7,0.7,1","1,0.7,0.7,0.7,1,0.7,0.7,0.7,1","","",""
"","html-keyboard-response","338","180486","0.0-338.0","3OSWBBLG1FJDA1OGD3HKDDW56S1XDL","ACKG8OU1KHKO2","3MVY4USGB69K0BK9K576GJZ2CVDSII","","null","<img src=""img/land5.png"" style=""width:200px; border:14px solid green;"">","null","","","","","","","","","",""
"","instructions","339","183101","0.0-339.0","3OSWBBLG1FJDA1OGD3HKDDW56S1XDL","ACKG8OU1KHKO2","3MVY4USGB69K0BK9K576GJZ2CVDSII","[{""page_index"":0,""viewing_time"":2614.0999999046326}]","2614.2999999523163","","","","","","","","","","","",""
"","survey-text","340","185303","0.0-340.0-0.0","3OSWBBLG1FJDA1OGD3HKDDW56S1XDL","ACKG8OU1KHKO2","3MVY4USGB69K0BK9K576GJZ2CVDSII","","2199.2000000476837","","","","","","","","","","","{""Q0"":""29""}",""
"","survey-multi-choice","341","186921","0.0-340.0-1.0","3OSWBBLG1FJDA1OGD3HKDDW56S1XDL","ACKG8OU1KHKO2","3MVY4USGB69K0BK9K576GJZ2CVDSII","","1616.8999999761581","","","","","","","","","","","{""gender"":""M""}","[0]"
"","survey-text","342","190137","0.0-341.0","3OSWBBLG1FJDA1OGD3HKDDW56S1XDL","ACKG8OU1KHKO2","3MVY4USGB69K0BK9K576GJZ2CVDSII","","3214.5","","","","","","","","","","","{""Q0"":""ACKG8OU1KHKO2""}",""
