"success","trial_type","trial_index","time_elapsed","internal_node_id","assignmentID","mturkID","hitID","view_history","rt","stimulus","key_press","reactionTime","a","r","warning","s","reward_cond","responses","question_order"
"true","fullscreen","0","7270","0.0-0.0","3AWETUDC93EJN74H6Z6G1VST4VOIZG","ACSS93E03ZUGX","3A3KKYU7P33Z3BR9PPFZ5194ZCQMWU","","","","","","","","","","","",""
"","instructions","1","23701","0.0-1.0","3AWETUDC93EJN74H6Z6G1VST4VOIZG","ACSS93E03ZUGX","3A3KKYU7P33Z3BR9PPFZ5194ZCQMWU","[{""page_index"":0,""viewing_time"":7230.900000002235},{""page_index"":1,""viewing_time"":1609.8999999985099},{""page_index"":2,""viewing_time"":476.6000000014901},{""page_index"":3,""viewing_time"":367.3999999985099},{""page_index"":4,""viewing_time"":1205.3999999985099},{""page_index"":5,""viewing_time"":991.8000000007451},{""page_index"":6,""viewing_time"":1212.9000000022352},{""page_index"":7,""viewing_time"":3323.199999999255}]","16422.5","","","","","","","","","",""
"","image-keyboard-response","2","24714","0.0-2.0","3AWETUDC93EJN74H6Z6G1VST4VOIZG","ACSS93E03ZUGX","3A3KKYU7P33Z3BR9PPFZ5194ZCQMWU","","","img/land5.png","","1011.5","-1","0","true","2","1,1,0,0,1,1,1,0,1","",""
"","html-keyboard-response","3","25025","0.0-3.0","3AWETUDC93EJN74H6Z6G1VST4VOIZG","ACSS93E03ZUGX","3A3KKYU7P33Z3BR9PPFZ5194ZCQMWU","","null","<img src=""img/land5.png"" style=""width:200px;border:14px solid red;"">","null","","","","","","","",""
"","html-keyboard-response","4","27672","0.0-4.0-0.0","3AWETUDC93EJN74H6Z6G1VST4VOIZG","ACSS93E03ZUGX","3A3KKYU7P33Z3BR9PPFZ5194ZCQMWU","","","","","","","","","","","",""
"","image-keyboard-response","5","28182","0.0-5.0","3AWETUDC93EJN74H6Z6G1VST4VOIZG","ACSS93E03ZUGX","3A3KKYU7P33Z3BR9PPFZ5194ZCQMWU","","502.30000000074506","img/land4.png","74","507.6000000014901","1","1","false","3","1,1,0,0,1,1,1,0,1","",""
"","html-keyboard-response","6","28496","0.0-6.0","3AWETUDC93EJN74H6Z6G1VST4VOIZG","ACSS93E03ZUGX","3A3KKYU7P33Z3BR9PPFZ5194ZCQMWU","","null","<img src=""img/land4.png"" style=""width:200px; border:14px solid green;"">","null","","","","","","","",""
"","image-keyboard-response","7","28772","0.0-8.0","3AWETUDC93EJN74H6Z6G1VST4VOIZG","ACSS93E03ZUGX","3A3KKYU7P33Z3BR9PPFZ5194ZCQMWU","","268.3999999985099","img/land4.png","74","273","1","1","false","3","1,1,0,0,1,1,1,0,1","",""
"","html-keyboard-response","8","29080","0.0-9.0","3AWETUDC93EJN74H6Z6G1VST4VOIZG","ACSS93E03ZUGX","3A3KKYU7P33Z3BR9PPFZ5194ZCQMWU","","null","<img src=""img/land4.png"" style=""width:200px; border:14px solid green;"">","null","","","","","","","",""
"","image-keyboard-response","9","29442","0.0-11.0","3AWETUDC93EJN74H6Z6G1VST4VOIZG","ACSS93E03ZUGX","3A3KKYU7P33Z3BR9PPFZ5194ZCQMWU","","355.5","img/land4.png","74","360.20000000298023","1","1","false","3","1,1,0,0,1,1,1,0,1","",""
"","html-keyboard-response","10","29753","0.0-12.0","3AWETUDC93EJN74H6Z6G1VST4VOIZG","ACSS93E03ZUGX","3A3KKYU7P33Z3BR9PPFZ5194ZCQMWU","","null","<img src=""img/land4.png"" style=""width:200px; border:14px solid green;"">","null","","","","","","","",""
"","image-keyboard-response","11","30273","0.0-14.0","3AWETUDC93EJN74H6Z6G1VST4VOIZG","ACSS93E03ZUGX","3A3KKYU7P33Z3BR9PPFZ5194ZCQMWU","","513.6000000014901","img/land4.png","74","518.5","1","1","false","3","1,1,0,0,1,1,1,0,1","",""
"","html-keyboard-response","12","30584","0.0-15.0","3AWETUDC93EJN74H6Z6G1VST4VOIZG","ACSS93E03ZUGX","3A3KKYU7P33Z3BR9PPFZ5194ZCQMWU","","null","<img src=""img/land4.png"" style=""width:200px; border:14px solid green;"">","null","","","","","","","",""
"","image-keyboard-response","13","31063","0.0-17.0","3AWETUDC93EJN74H6Z6G1VST4VOIZG","ACSS93E03ZUGX","3A3KKYU7P33Z3BR9PPFZ5194ZCQMWU","","471.30000000074506","img/land5.png","75","476.5999999977648","2","1","false","2","1,1,0,0,1,1,1,0,1","",""
"","html-keyboard-response","14","31377","0.0-18.0","3AWETUDC93EJN74H6Z6G1VST4VOIZG","ACSS93E03ZUGX","3A3KKYU7P33Z3BR9PPFZ5194ZCQMWU","","null","<img src=""img/land5.png"" style=""width:200px; border:14px solid green;"">","null","","","","","","","",""
"","image-keyboard-response","15","31652","0.0-20.0","3AWETUDC93EJN74H6Z6G1VST4VOIZG","ACSS93E03ZUGX","3A3KKYU7P33Z3BR9PPFZ5194ZCQMWU","","269.30000000074506","img/land5.png","75","274.30000000074506","2","1","false","2","1,1,0,0,1,1,1,0,1","",""
"","html-keyboard-response","16","31960","0.0-21.0","3AWETUDC93EJN74H6Z6G1VST4VOIZG","ACSS93E03ZUGX","3A3KKYU7P33Z3BR9PPFZ5194ZCQMWU","","null","<img src=""img/land5.png"" style=""width:200px; border:14px solid green;"">","null","","","","","","","",""
"","image-keyboard-response","17","32248","0.0-23.0","3AWETUDC93EJN74H6Z6G1VST4VOIZG","ACSS93E03ZUGX","3A3KKYU7P33Z3BR9PPFZ5194ZCQMWU","","281.19999999925494","img/land4.png","75","285.69999999925494","2","0","false","3","1,1,0,0,1,1,1,0,1","",""
"","html-keyboard-response","18","32561","0.0-24.0","3AWETUDC93EJN74H6Z6G1VST4VOIZG","ACSS93E03ZUGX","3A3KKYU7P33Z3BR9PPFZ5194ZCQMWU","","null","<img src=""img/land4.png"" style=""width:200px;border:14px solid red;"">","null","","","","","","","",""
"","image-keyboard-response","19","32705","0.0-26.0","3AWETUDC93EJN74H6Z6G1VST4VOIZG","ACSS93E03ZUGX","3A3KKYU7P33Z3BR9PPFZ5194ZCQMWU","","137.30000000074506","img/land4.png","74","142.09999999776483","1","1","false","3","1,1,0,0,1,1,1,0,1","",""
"","html-keyboard-response","20","33016","0.0-27.0","3AWETUDC93EJN74H6Z6G1VST4VOIZG","ACSS93E03ZUGX","3A3KKYU7P33Z3BR9PPFZ5194ZCQMWU","","null","<img src=""img/land4.png"" style=""width:200px; border:14px solid green;"">","null","","","","","","","",""
"","image-keyboard-response","21","33224","0.0-29.0","3AWETUDC93EJN74H6Z6G1VST4VOIZG","ACSS93E03ZUGX","3A3KKYU7P33Z3BR9PPFZ5194ZCQMWU","","200.80000000074506","img/land2.png","74","205.69999999925494","1","1","false","1","1,1,0,0,1,1,1,0,1","",""
"","html-keyboard-response","22","33536","0.0-30.0","3AWETUDC93EJN74H6Z6G1VST4VOIZG","ACSS93E03ZUGX","3A3KKYU7P33Z3BR9PPFZ5194ZCQMWU","","null","<img src=""img/land2.png"" style=""width:200px; border:14px solid green;"">","null","","","","","","","",""
"","image-keyboard-response","23","33823","0.0-32.0","3AWETUDC93EJN74H6Z6G1VST4VOIZG","ACSS93E03ZUGX","3A3KKYU7P33Z3BR9PPFZ5194ZCQMWU","","280.1000000014901","img/land2.png","74","285","1","1","false","1","1,1,0,0,1,1,1,0,1","",""
"","html-keyboard-response","24","34136","0.0-33.0","3AWETUDC93EJN74H6Z6G1VST4VOIZG","ACSS93E03ZUGX","3A3KKYU7P33Z3BR9PPFZ5194ZCQMWU","","null","<img src=""img/land2.png"" style=""width:200px; border:14px solid green;"">","null","","","","","","","",""
"","image-keyboard-response","25","34410","0.0-35.0","3AWETUDC93EJN74H6Z6G1VST4VOIZG","ACSS93E03ZUGX","3A3KKYU7P33Z3BR9PPFZ5194ZCQMWU","","268.1000000014901","img/land2.png","74","272","1","1","false","1","1,1,0,0,1,1,1,0,1","",""
"","html-keyboard-response","26","34720","0.0-36.0","3AWETUDC93EJN74H6Z6G1VST4VOIZG","ACSS93E03ZUGX","3A3KKYU7P33Z3BR9PPFZ5194ZCQMWU","","null","<img src=""img/land2.png"" style=""width:200px; border:14px solid green;"">","null","","","","","","","",""
"","image-keyboard-response","27","34941","0.0-38.0","3AWETUDC93EJN74H6Z6G1VST4VOIZG","ACSS93E03ZUGX","3A3KKYU7P33Z3BR9PPFZ5194ZCQMWU","","215.19999999925494","img/land4.png","74","219.40000000223517","1","1","false","3","1,1,0,0,1,1,1,0,1","",""
"","html-keyboard-response","28","35249","0.0-39.0","3AWETUDC93EJN74H6Z6G1VST4VOIZG","ACSS93E03ZUGX","3A3KKYU7P33Z3BR9PPFZ5194ZCQMWU","","null","<img src=""img/land4.png"" style=""width:200px; border:14px solid green;"">","null","","","","","","","",""
"","image-keyboard-response","29","35394","0.0-41.0","3AWETUDC93EJN74H6Z6G1VST4VOIZG","ACSS93E03ZUGX","3A3KKYU7P33Z3BR9PPFZ5194ZCQMWU","","139.19999999925494","img/land4.png","74","143.69999999925494","1","1","false","3","1,1,0,0,1,1,1,0,1","",""
"","html-keyboard-response","30","35705","0.0-42.0","3AWETUDC93EJN74H6Z6G1VST4VOIZG","ACSS93E03ZUGX","3A3KKYU7P33Z3BR9PPFZ5194ZCQMWU","","null","<img src=""img/land4.png"" style=""width:200px; border:14px solid green;"">","null","","","","","","","",""
"","image-keyboard-response","31","36088","0.0-44.0","3AWETUDC93EJN74H6Z6G1VST4VOIZG","ACSS93E03ZUGX","3A3KKYU7P33Z3BR9PPFZ5194ZCQMWU","","377.3999999985099","img/land2.png","74","382.20000000298023","1","1","false","1","1,1,0,0,1,1,1,0,1","",""
"","html-keyboard-response","32","36400","0.0-45.0","3AWETUDC93EJN74H6Z6G1VST4VOIZG","ACSS93E03ZUGX","3A3KKYU7P33Z3BR9PPFZ5194ZCQMWU","","null","<img src=""img/land2.png"" style=""width:200px; border:14px solid green;"">","null","","","","","","","",""
"","image-keyboard-response","33","36645","0.0-47.0","3AWETUDC93EJN74H6Z6G1VST4VOIZG","ACSS93E03ZUGX","3A3KKYU7P33Z3BR9PPFZ5194ZCQMWU","","238.30000000074506","img/land5.png","74","243.39999999850988","1","0","false","2","1,1,0,0,1,1,1,0,1","",""
"","html-keyboard-response","34","36952","0.0-48.0","3AWETUDC93EJN74H6Z6G1VST4VOIZG","ACSS93E03ZUGX","3A3KKYU7P33Z3BR9PPFZ5194ZCQMWU","","null","<img src=""img/land5.png"" style=""width:200px;border:14px solid red;"">","null","","","","","","","",""
"","image-keyboard-response","35","37308","0.0-50.0","3AWETUDC93EJN74H6Z6G1VST4VOIZG","ACSS93E03ZUGX","3A3KKYU7P33Z3BR9PPFZ5194ZCQMWU","","349","img/land5.png","74","353.80000000074506","1","0","false","2","1,1,0,0,1,1,1,0,1","",""
"","html-keyboard-response","36","37616","0.0-51.0","3AWETUDC93EJN74H6Z6G1VST4VOIZG","ACSS93E03ZUGX","3A3KKYU7P33Z3BR9PPFZ5194ZCQMWU","","null","<img src=""img/land5.png"" style=""width:200px;border:14px solid red;"">","null","","","","","","","",""
"","image-keyboard-response","37","37834","0.0-53.0","3AWETUDC93EJN74H6Z6G1VST4VOIZG","ACSS93E03ZUGX","3A3KKYU7P33Z3BR9PPFZ5194ZCQMWU","","213.19999999925494","img/land5.png","75","217","2","1","false","2","1,1,0,0,1,1,1,0,1","",""
"","html-keyboard-response","38","38144","0.0-54.0","3AWETUDC93EJN74H6Z6G1VST4VOIZG","ACSS93E03ZUGX","3A3KKYU7P33Z3BR9PPFZ5194ZCQMWU","","null","<img src=""img/land5.png"" style=""width:200px; border:14px solid green;"">","null","","","","","","","",""
"","image-keyboard-response","39","38343","0.0-56.0","3AWETUDC93EJN74H6Z6G1VST4VOIZG","ACSS93E03ZUGX","3A3KKYU7P33Z3BR9PPFZ5194ZCQMWU","","192.5","img/land5.png","75","197","2","1","false","2","1,1,0,0,1,1,1,0,1","",""
"","html-keyboard-response","40","38657","0.0-57.0","3AWETUDC93EJN74H6Z6G1VST4VOIZG","ACSS93E03ZUGX","3A3KKYU7P33Z3BR9PPFZ5194ZCQMWU","","null","<img src=""img/land5.png"" style=""width:200px; border:14px solid green;"">","null","","","","","","","",""
"","image-keyboard-response","41","38919","0.0-59.0","3AWETUDC93EJN74H6Z6G1VST4VOIZG","ACSS93E03ZUGX","3A3KKYU7P33Z3BR9PPFZ5194ZCQMWU","","255.09999999776483","img/land4.png","75","259.79999999701977","2","0","false","3","1,1,0,0,1,1,1,0,1","",""
"","html-keyboard-response","42","39232","0.0-60.0","3AWETUDC93EJN74H6Z6G1VST4VOIZG","ACSS93E03ZUGX","3A3KKYU7P33Z3BR9PPFZ5194ZCQMWU","","null","<img src=""img/land4.png"" style=""width:200px;border:14px solid red;"">","null","","","","","","","",""
"","image-keyboard-response","43","39435","0.0-62.0","3AWETUDC93EJN74H6Z6G1VST4VOIZG","ACSS93E03ZUGX","3A3KKYU7P33Z3BR9PPFZ5194ZCQMWU","","195.69999999925494","img/land2.png","76","200.19999999925494","3","0","false","1","1,1,0,0,1,1,1,0,1","",""
"","html-keyboard-response","44","39744","0.0-63.0","3AWETUDC93EJN74H6Z6G1VST4VOIZG","ACSS93E03ZUGX","3A3KKYU7P33Z3BR9PPFZ5194ZCQMWU","","null","<img src=""img/land2.png"" style=""width:200px;border:14px solid red;"">","null","","","","","","","",""
"","image-keyboard-response","45","39961","0.0-65.0","3AWETUDC93EJN74H6Z6G1VST4VOIZG","ACSS93E03ZUGX","3A3KKYU7P33Z3BR9PPFZ5194ZCQMWU","","211","img/land4.png","76","215.79999999701977","3","1","false","3","1,1,0,0,1,1,1,0,1","",""
"","html-keyboard-response","46","40272","0.0-66.0","3AWETUDC93EJN74H6Z6G1VST4VOIZG","ACSS93E03ZUGX","3A3KKYU7P33Z3BR9PPFZ5194ZCQMWU","","null","<img src=""img/land4.png"" style=""width:200px; border:14px solid green;"">","null","","","","","","","",""
"","image-keyboard-response","47","40284","0.0-68.0","3AWETUDC93EJN74H6Z6G1VST4VOIZG","ACSS93E03ZUGX","3A3KKYU7P33Z3BR9PPFZ5194ZCQMWU","","6.699999999254942","img/land5.png","74","11.599999997764826","1","0","false","2","1,1,0,0,1,1,1,0,1","",""
"","html-keyboard-response","48","40592","0.0-69.0","3AWETUDC93EJN74H6Z6G1VST4VOIZG","ACSS93E03ZUGX","3A3KKYU7P33Z3BR9PPFZ5194ZCQMWU","","null","<img src=""img/land5.png"" style=""width:200px;border:14px solid red;"">","null","","","","","","","",""
"","image-keyboard-response","49","40945","0.0-71.0","3AWETUDC93EJN74H6Z6G1VST4VOIZG","ACSS93E03ZUGX","3A3KKYU7P33Z3BR9PPFZ5194ZCQMWU","","347.80000000074506","img/land2.png","76","351.6000000014901","3","0","false","1","1,1,0,0,1,1,1,0,1","",""
"","html-keyboard-response","50","41256","0.0-72.0","3AWETUDC93EJN74H6Z6G1VST4VOIZG","ACSS93E03ZUGX","3A3KKYU7P33Z3BR9PPFZ5194ZCQMWU","","null","<img src=""img/land2.png"" style=""width:200px;border:14px solid red;"">","null","","","","","","","",""
"","image-keyboard-response","51","41454","0.0-74.0","3AWETUDC93EJN74H6Z6G1VST4VOIZG","ACSS93E03ZUGX","3A3KKYU7P33Z3BR9PPFZ5194ZCQMWU","","191.70000000298023","img/land4.png","75","195.89999999850988","2","0","false","3","1,1,0,0,1,1,1,0,1","",""
"","html-keyboard-response","52","41768","0.0-75.0","3AWETUDC93EJN74H6Z6G1VST4VOIZG","ACSS93E03ZUGX","3A3KKYU7P33Z3BR9PPFZ5194ZCQMWU","","null","<img src=""img/land4.png"" style=""width:200px;border:14px solid red;"">","null","","","","","","","",""
"","image-keyboard-response","53","41972","0.0-77.0","3AWETUDC93EJN74H6Z6G1VST4VOIZG","ACSS93E03ZUGX","3A3KKYU7P33Z3BR9PPFZ5194ZCQMWU","","197.59999999776483","img/land2.png","74","201.69999999925494","1","1","false","1","1,1,0,0,1,1,1,0,1","",""
"","html-keyboard-response","54","42281","0.0-78.0","3AWETUDC93EJN74H6Z6G1VST4VOIZG","ACSS93E03ZUGX","3A3KKYU7P33Z3BR9PPFZ5194ZCQMWU","","null","<img src=""img/land2.png"" style=""width:200px; border:14px solid green;"">","null","","","","","","","",""
"","image-keyboard-response","55","42494","0.0-80.0","3AWETUDC93EJN74H6Z6G1VST4VOIZG","ACSS93E03ZUGX","3A3KKYU7P33Z3BR9PPFZ5194ZCQMWU","","205","img/land2.png","74","210","1","1","false","1","1,1,0,0,1,1,1,0,1","",""
"","html-keyboard-response","56","42808","0.0-81.0","3AWETUDC93EJN74H6Z6G1VST4VOIZG","ACSS93E03ZUGX","3A3KKYU7P33Z3BR9PPFZ5194ZCQMWU","","null","<img src=""img/land2.png"" style=""width:200px; border:14px solid green;"">","null","","","","","","","",""
"","image-keyboard-response","57","43067","0.0-83.0","3AWETUDC93EJN74H6Z6G1VST4VOIZG","ACSS93E03ZUGX","3A3KKYU7P33Z3BR9PPFZ5194ZCQMWU","","252.09999999776483","img/land2.png","74","257.1000000014901","1","1","false","1","1,1,0,0,1,1,1,0,1","",""
"","html-keyboard-response","58","43376","0.0-84.0","3AWETUDC93EJN74H6Z6G1VST4VOIZG","ACSS93E03ZUGX","3A3KKYU7P33Z3BR9PPFZ5194ZCQMWU","","null","<img src=""img/land2.png"" style=""width:200px; border:14px solid green;"">","null","","","","","","","",""
"","image-keyboard-response","59","43596","0.0-86.0","3AWETUDC93EJN74H6Z6G1VST4VOIZG","ACSS93E03ZUGX","3A3KKYU7P33Z3BR9PPFZ5194ZCQMWU","","213.59999999776483","img/land5.png","74","218.29999999701977","1","0","false","2","1,1,0,0,1,1,1,0,1","",""
"","html-keyboard-response","60","43905","0.0-87.0","3AWETUDC93EJN74H6Z6G1VST4VOIZG","ACSS93E03ZUGX","3A3KKYU7P33Z3BR9PPFZ5194ZCQMWU","","null","<img src=""img/land5.png"" style=""width:200px;border:14px solid red;"">","null","","","","","","","",""
"","image-keyboard-response","61","44113","0.0-89.0","3AWETUDC93EJN74H6Z6G1VST4VOIZG","ACSS93E03ZUGX","3A3KKYU7P33Z3BR9PPFZ5194ZCQMWU","","200.09999999776483","img/land4.png","75","205","2","0","false","3","1,1,0,0,1,1,1,0,1","",""
"","html-keyboard-response","62","44425","0.0-90.0","3AWETUDC93EJN74H6Z6G1VST4VOIZG","ACSS93E03ZUGX","3A3KKYU7P33Z3BR9PPFZ5194ZCQMWU","","null","<img src=""img/land4.png"" style=""width:200px;border:14px solid red;"">","null","","","","","","","",""
"","image-keyboard-response","63","44881","0.0-92.0","3AWETUDC93EJN74H6Z6G1VST4VOIZG","ACSS93E03ZUGX","3A3KKYU7P33Z3BR9PPFZ5194ZCQMWU","","450.70000000298023","img/land5.png","75","455.1000000014901","2","1","false","2","1,1,0,0,1,1,1,0,1","",""
"","html-keyboard-response","64","45192","0.0-93.0","3AWETUDC93EJN74H6Z6G1VST4VOIZG","ACSS93E03ZUGX","3A3KKYU7P33Z3BR9PPFZ5194ZCQMWU","","null","<img src=""img/land5.png"" style=""width:200px; border:14px solid green;"">","null","","","","","","","",""
"","image-keyboard-response","65","45446","0.0-95.0","3AWETUDC93EJN74H6Z6G1VST4VOIZG","ACSS93E03ZUGX","3A3KKYU7P33Z3BR9PPFZ5194ZCQMWU","","246.69999999925494","img/land2.png","75","251.10000000149012","2","1","false","1","1,1,0,0,1,1,1,0,1","",""
"","html-keyboard-response","66","45761","0.0-96.0","3AWETUDC93EJN74H6Z6G1VST4VOIZG","ACSS93E03ZUGX","3A3KKYU7P33Z3BR9PPFZ5194ZCQMWU","","null","<img src=""img/land2.png"" style=""width:200px; border:14px solid green;"">","null","","","","","","","",""
"","image-keyboard-response","67","46193","0.0-98.0","3AWETUDC93EJN74H6Z6G1VST4VOIZG","ACSS93E03ZUGX","3A3KKYU7P33Z3BR9PPFZ5194ZCQMWU","","426.19999999925494","img/land5.png","75","430.80000000074506","2","1","false","2","1,1,0,0,1,1,1,0,1","",""
"","html-keyboard-response","68","46504","0.0-99.0","3AWETUDC93EJN74H6Z6G1VST4VOIZG","ACSS93E03ZUGX","3A3KKYU7P33Z3BR9PPFZ5194ZCQMWU","","null","<img src=""img/land5.png"" style=""width:200px; border:14px solid green;"">","null","","","","","","","",""
"","image-keyboard-response","69","46886","0.0-101.0","3AWETUDC93EJN74H6Z6G1VST4VOIZG","ACSS93E03ZUGX","3A3KKYU7P33Z3BR9PPFZ5194ZCQMWU","","375.6000000014901","img/land5.png","75","379.8999999985099","2","1","false","2","1,1,0,0,1,1,1,0,1","",""
"","html-keyboard-response","70","47200","0.0-102.0","3AWETUDC93EJN74H6Z6G1VST4VOIZG","ACSS93E03ZUGX","3A3KKYU7P33Z3BR9PPFZ5194ZCQMWU","","null","<img src=""img/land5.png"" style=""width:200px; border:14px solid green;"">","null","","","","","","","",""
"","image-keyboard-response","71","47543","0.0-104.0","3AWETUDC93EJN74H6Z6G1VST4VOIZG","ACSS93E03ZUGX","3A3KKYU7P33Z3BR9PPFZ5194ZCQMWU","","336.3999999985099","img/land4.png","75","340.5","2","0","false","3","1,1,0,0,1,1,1,0,1","",""
"","html-keyboard-response","72","47856","0.0-105.0","3AWETUDC93EJN74H6Z6G1VST4VOIZG","ACSS93E03ZUGX","3A3KKYU7P33Z3BR9PPFZ5194ZCQMWU","","null","<img src=""img/land4.png"" style=""width:200px;border:14px solid red;"">","null","","","","","","","",""
"","image-keyboard-response","73","48095","0.0-107.0","3AWETUDC93EJN74H6Z6G1VST4VOIZG","ACSS93E03ZUGX","3A3KKYU7P33Z3BR9PPFZ5194ZCQMWU","","232.5","img/land5.png","74","237.19999999925494","1","0","false","2","1,1,0,0,1,1,1,0,1","",""
"","html-keyboard-response","74","48408","0.0-108.0","3AWETUDC93EJN74H6Z6G1VST4VOIZG","ACSS93E03ZUGX","3A3KKYU7P33Z3BR9PPFZ5194ZCQMWU","","null","<img src=""img/land5.png"" style=""width:200px;border:14px solid red;"">","null","","","","","","","",""
"","image-keyboard-response","75","48698","0.0-110.0","3AWETUDC93EJN74H6Z6G1VST4VOIZG","ACSS93E03ZUGX","3A3KKYU7P33Z3BR9PPFZ5194ZCQMWU","","282.69999999925494","img/land5.png","76","287.0999999977648","3","1","false","2","1,1,0,0,1,1,1,0,1","",""
"","html-keyboard-response","76","49008","0.0-111.0","3AWETUDC93EJN74H6Z6G1VST4VOIZG","ACSS93E03ZUGX","3A3KKYU7P33Z3BR9PPFZ5194ZCQMWU","","null","<img src=""img/land5.png"" style=""width:200px; border:14px solid green;"">","null","","","","","","","",""
"","image-keyboard-response","77","49259","0.0-113.0","3AWETUDC93EJN74H6Z6G1VST4VOIZG","ACSS93E03ZUGX","3A3KKYU7P33Z3BR9PPFZ5194ZCQMWU","","243.69999999925494","img/land2.png","76","248.20000000298023","3","0","false","1","1,1,0,0,1,1,1,0,1","",""
"","html-keyboard-response","78","49569","0.0-114.0","3AWETUDC93EJN74H6Z6G1VST4VOIZG","ACSS93E03ZUGX","3A3KKYU7P33Z3BR9PPFZ5194ZCQMWU","","null","<img src=""img/land2.png"" style=""width:200px;border:14px solid red;"">","null","","","","","","","",""
"","image-keyboard-response","79","49845","0.0-116.0","3AWETUDC93EJN74H6Z6G1VST4VOIZG","ACSS93E03ZUGX","3A3KKYU7P33Z3BR9PPFZ5194ZCQMWU","","270.0999999977648","img/land4.png","75","274.69999999925494","2","0","false","3","1,1,0,0,1,1,1,0,1","",""
"","html-keyboard-response","80","50160","0.0-117.0","3AWETUDC93EJN74H6Z6G1VST4VOIZG","ACSS93E03ZUGX","3A3KKYU7P33Z3BR9PPFZ5194ZCQMWU","","null","<img src=""img/land4.png"" style=""width:200px;border:14px solid red;"">","null","","","","","","","",""
"","image-keyboard-response","81","50401","0.0-119.0","3AWETUDC93EJN74H6Z6G1VST4VOIZG","ACSS93E03ZUGX","3A3KKYU7P33Z3BR9PPFZ5194ZCQMWU","","234.09999999776483","img/land5.png","74","238.80000000074506","1","0","false","2","1,1,0,0,1,1,1,0,1","",""
"","html-keyboard-response","82","50712","0.0-120.0","3AWETUDC93EJN74H6Z6G1VST4VOIZG","ACSS93E03ZUGX","3A3KKYU7P33Z3BR9PPFZ5194ZCQMWU","","null","<img src=""img/land5.png"" style=""width:200px;border:14px solid red;"">","null","","","","","","","",""
"","image-keyboard-response","83","51155","0.0-122.0","3AWETUDC93EJN74H6Z6G1VST4VOIZG","ACSS93E03ZUGX","3A3KKYU7P33Z3BR9PPFZ5194ZCQMWU","","436.69999999925494","img/land4.png","74","440.80000000074506","1","1","false","3","1,1,0,0,1,1,1,0,1","",""
"","html-keyboard-response","84","51464","0.0-123.0","3AWETUDC93EJN74H6Z6G1VST4VOIZG","ACSS93E03ZUGX","3A3KKYU7P33Z3BR9PPFZ5194ZCQMWU","","null","<img src=""img/land4.png"" style=""width:200px; border:14px solid green;"">","null","","","","","","","",""
"","image-keyboard-response","85","51694","0.0-125.0","3AWETUDC93EJN74H6Z6G1VST4VOIZG","ACSS93E03ZUGX","3A3KKYU7P33Z3BR9PPFZ5194ZCQMWU","","222.39999999850988","img/land4.png","74","227.69999999925494","1","1","false","3","1,1,0,0,1,1,1,0,1","",""
"","html-keyboard-response","86","52009","0.0-126.0","3AWETUDC93EJN74H6Z6G1VST4VOIZG","ACSS93E03ZUGX","3A3KKYU7P33Z3BR9PPFZ5194ZCQMWU","","null","<img src=""img/land4.png"" style=""width:200px; border:14px solid green;"">","null","","","","","","","",""
"","image-keyboard-response","87","52292","0.0-128.0","3AWETUDC93EJN74H6Z6G1VST4VOIZG","ACSS93E03ZUGX","3A3KKYU7P33Z3BR9PPFZ5194ZCQMWU","","253","img/land2.png","74","258.3999999985099","1","1","false","1","1,1,0,0,1,1,1,0,1","",""
"","html-keyboard-response","88","52601","0.0-129.0","3AWETUDC93EJN74H6Z6G1VST4VOIZG","ACSS93E03ZUGX","3A3KKYU7P33Z3BR9PPFZ5194ZCQMWU","","null","<img src=""img/land2.png"" style=""width:200px; border:14px solid green;"">","null","","","","","","","",""
"","image-keyboard-response","89","52846","0.0-131.0","3AWETUDC93EJN74H6Z6G1VST4VOIZG","ACSS93E03ZUGX","3A3KKYU7P33Z3BR9PPFZ5194ZCQMWU","","239.29999999701977","img/land5.png","74","244","1","0","false","2","1,1,0,0,1,1,1,0,1","",""
"","html-keyboard-response","90","53153","0.0-132.0","3AWETUDC93EJN74H6Z6G1VST4VOIZG","ACSS93E03ZUGX","3A3KKYU7P33Z3BR9PPFZ5194ZCQMWU","","null","<img src=""img/land5.png"" style=""width:200px;border:14px solid red;"">","null","","","","","","","",""
"","image-keyboard-response","91","53493","0.0-134.0","3AWETUDC93EJN74H6Z6G1VST4VOIZG","ACSS93E03ZUGX","3A3KKYU7P33Z3BR9PPFZ5194ZCQMWU","","334.30000000074506","img/land5.png","75","338.8999999985099","2","1","false","2","1,1,0,0,1,1,1,0,1","",""
"","html-keyboard-response","92","53800","0.0-135.0","3AWETUDC93EJN74H6Z6G1VST4VOIZG","ACSS93E03ZUGX","3A3KKYU7P33Z3BR9PPFZ5194ZCQMWU","","null","<img src=""img/land5.png"" style=""width:200px; border:14px solid green;"">","null","","","","","","","",""
"","image-keyboard-response","93","54116","0.0-137.0","3AWETUDC93EJN74H6Z6G1VST4VOIZG","ACSS93E03ZUGX","3A3KKYU7P33Z3BR9PPFZ5194ZCQMWU","","309.19999999925494","img/land5.png","75","314","2","1","false","2","1,1,0,0,1,1,1,0,1","",""
"","html-keyboard-response","94","54425","0.0-138.0","3AWETUDC93EJN74H6Z6G1VST4VOIZG","ACSS93E03ZUGX","3A3KKYU7P33Z3BR9PPFZ5194ZCQMWU","","null","<img src=""img/land5.png"" style=""width:200px; border:14px solid green;"">","null","","","","","","","",""
"","image-keyboard-response","95","54746","0.0-140.0","3AWETUDC93EJN74H6Z6G1VST4VOIZG","ACSS93E03ZUGX","3A3KKYU7P33Z3BR9PPFZ5194ZCQMWU","","315.6000000014901","img/land5.png","75","320.19999999925494","2","1","false","2","1,1,0,0,1,1,1,0,1","",""
"","html-keyboard-response","96","55057","0.0-141.0","3AWETUDC93EJN74H6Z6G1VST4VOIZG","ACSS93E03ZUGX","3A3KKYU7P33Z3BR9PPFZ5194ZCQMWU","","null","<img src=""img/land5.png"" style=""width:200px; border:14px solid green;"">","null","","","","","","","",""
"","image-keyboard-response","97","55339","0.0-143.0","3AWETUDC93EJN74H6Z6G1VST4VOIZG","ACSS93E03ZUGX","3A3KKYU7P33Z3BR9PPFZ5194ZCQMWU","","276.69999999925494","img/land5.png","75","281.19999999925494","2","1","false","2","1,1,0,0,1,1,1,0,1","",""
"","html-keyboard-response","98","55649","0.0-144.0","3AWETUDC93EJN74H6Z6G1VST4VOIZG","ACSS93E03ZUGX","3A3KKYU7P33Z3BR9PPFZ5194ZCQMWU","","null","<img src=""img/land5.png"" style=""width:200px; border:14px solid green;"">","null","","","","","","","",""
"","image-keyboard-response","99","55951","0.0-146.0","3AWETUDC93EJN74H6Z6G1VST4VOIZG","ACSS93E03ZUGX","3A3KKYU7P33Z3BR9PPFZ5194ZCQMWU","","296.6000000014901","img/land4.png","75","301.3999999985099","2","0","false","3","1,1,0,0,1,1,1,0,1","",""
"","html-keyboard-response","100","56264","0.0-147.0","3AWETUDC93EJN74H6Z6G1VST4VOIZG","ACSS93E03ZUGX","3A3KKYU7P33Z3BR9PPFZ5194ZCQMWU","","null","<img src=""img/land4.png"" style=""width:200px;border:14px solid red;"">","null","","","","","","","",""
"","image-keyboard-response","101","56459","0.0-149.0","3AWETUDC93EJN74H6Z6G1VST4VOIZG","ACSS93E03ZUGX","3A3KKYU7P33Z3BR9PPFZ5194ZCQMWU","","189.30000000074506","img/land2.png","74","193.10000000149012","1","1","false","1","1,1,0,0,1,1,1,0,1","",""
"","html-keyboard-response","102","56768","0.0-150.0","3AWETUDC93EJN74H6Z6G1VST4VOIZG","ACSS93E03ZUGX","3A3KKYU7P33Z3BR9PPFZ5194ZCQMWU","","null","<img src=""img/land2.png"" style=""width:200px; border:14px solid green;"">","null","","","","","","","",""
"","image-keyboard-response","103","57008","0.0-152.0","3AWETUDC93EJN74H6Z6G1VST4VOIZG","ACSS93E03ZUGX","3A3KKYU7P33Z3BR9PPFZ5194ZCQMWU","","234.89999999850988","img/land2.png","74","239.10000000149012","1","1","false","1","1,1,0,0,1,1,1,0,1","",""
"","html-keyboard-response","104","57320","0.0-153.0","3AWETUDC93EJN74H6Z6G1VST4VOIZG","ACSS93E03ZUGX","3A3KKYU7P33Z3BR9PPFZ5194ZCQMWU","","null","<img src=""img/land2.png"" style=""width:200px; border:14px solid green;"">","null","","","","","","","",""
"","image-keyboard-response","105","57529","0.0-155.0","3AWETUDC93EJN74H6Z6G1VST4VOIZG","ACSS93E03ZUGX","3A3KKYU7P33Z3BR9PPFZ5194ZCQMWU","","202.09999999776483","img/land5.png","74","206.39999999850988","1","0","false","2","1,1,0,0,1,1,1,0,1","",""
"","html-keyboard-response","106","57840","0.0-156.0","3AWETUDC93EJN74H6Z6G1VST4VOIZG","ACSS93E03ZUGX","3A3KKYU7P33Z3BR9PPFZ5194ZCQMWU","","null","<img src=""img/land5.png"" style=""width:200px;border:14px solid red;"">","null","","","","","","","",""
"","image-keyboard-response","107","58082","0.0-158.0","3AWETUDC93EJN74H6Z6G1VST4VOIZG","ACSS93E03ZUGX","3A3KKYU7P33Z3BR9PPFZ5194ZCQMWU","","236","img/land2.png","76","240.19999999925494","3","0","false","1","1,1,0,0,1,1,1,0,1","",""
"","html-keyboard-response","108","58392","0.0-159.0","3AWETUDC93EJN74H6Z6G1VST4VOIZG","ACSS93E03ZUGX","3A3KKYU7P33Z3BR9PPFZ5194ZCQMWU","","null","<img src=""img/land2.png"" style=""width:200px;border:14px solid red;"">","null","","","","","","","",""
"","image-keyboard-response","109","58574","0.0-161.0","3AWETUDC93EJN74H6Z6G1VST4VOIZG","ACSS93E03ZUGX","3A3KKYU7P33Z3BR9PPFZ5194ZCQMWU","","175.19999999925494","img/land5.png","76","179.89999999850988","3","1","false","2","1,1,0,0,1,1,1,0,1","",""
"","html-keyboard-response","110","58889","0.0-162.0","3AWETUDC93EJN74H6Z6G1VST4VOIZG","ACSS93E03ZUGX","3A3KKYU7P33Z3BR9PPFZ5194ZCQMWU","","null","<img src=""img/land5.png"" style=""width:200px; border:14px solid green;"">","null","","","","","","","",""
"","image-keyboard-response","111","59231","0.0-164.0","3AWETUDC93EJN74H6Z6G1VST4VOIZG","ACSS93E03ZUGX","3A3KKYU7P33Z3BR9PPFZ5194ZCQMWU","","335.3999999985099","img/land4.png","76","339.9000000022352","3","1","false","3","1,1,0,0,1,1,1,0,1","",""
"","html-keyboard-response","112","59545","0.0-165.0","3AWETUDC93EJN74H6Z6G1VST4VOIZG","ACSS93E03ZUGX","3A3KKYU7P33Z3BR9PPFZ5194ZCQMWU","","null","<img src=""img/land4.png"" style=""width:200px; border:14px solid green;"">","null","","","","","","","",""
"","image-keyboard-response","113","59687","0.0-167.0","3AWETUDC93EJN74H6Z6G1VST4VOIZG","ACSS93E03ZUGX","3A3KKYU7P33Z3BR9PPFZ5194ZCQMWU","","136.59999999776483","img/land5.png","75","141.60000000149012","2","1","false","2","1,1,0,0,1,1,1,0,1","",""
"","html-keyboard-response","114","60001","0.0-168.0","3AWETUDC93EJN74H6Z6G1VST4VOIZG","ACSS93E03ZUGX","3A3KKYU7P33Z3BR9PPFZ5194ZCQMWU","","null","<img src=""img/land5.png"" style=""width:200px; border:14px solid green;"">","null","","","","","","","",""
"","image-keyboard-response","115","60238","0.0-170.0","3AWETUDC93EJN74H6Z6G1VST4VOIZG","ACSS93E03ZUGX","3A3KKYU7P33Z3BR9PPFZ5194ZCQMWU","","231.19999999925494","img/land2.png","76","236","3","0","false","1","1,1,0,0,1,1,1,0,1","",""
"","html-keyboard-response","116","60553","0.0-171.0","3AWETUDC93EJN74H6Z6G1VST4VOIZG","ACSS93E03ZUGX","3A3KKYU7P33Z3BR9PPFZ5194ZCQMWU","","null","<img src=""img/land2.png"" style=""width:200px;border:14px solid red;"">","null","","","","","","","",""
"","image-keyboard-response","117","61118","0.0-173.0","3AWETUDC93EJN74H6Z6G1VST4VOIZG","ACSS93E03ZUGX","3A3KKYU7P33Z3BR9PPFZ5194ZCQMWU","","559","img/land4.png","75","563.6999999992549","2","0","false","3","1,1,0,0,1,1,1,0,1","",""
"","html-keyboard-response","118","61425","0.0-174.0","3AWETUDC93EJN74H6Z6G1VST4VOIZG","ACSS93E03ZUGX","3A3KKYU7P33Z3BR9PPFZ5194ZCQMWU","","null","<img src=""img/land4.png"" style=""width:200px;border:14px solid red;"">","null","","","","","","","",""
"","image-keyboard-response","119","61571","0.0-176.0","3AWETUDC93EJN74H6Z6G1VST4VOIZG","ACSS93E03ZUGX","3A3KKYU7P33Z3BR9PPFZ5194ZCQMWU","","140.19999999925494","img/land2.png","74","144.90000000223517","1","1","false","1","1,1,0,0,1,1,1,0,1","",""
"","html-keyboard-response","120","61881","0.0-177.0","3AWETUDC93EJN74H6Z6G1VST4VOIZG","ACSS93E03ZUGX","3A3KKYU7P33Z3BR9PPFZ5194ZCQMWU","","null","<img src=""img/land2.png"" style=""width:200px; border:14px solid green;"">","null","","","","","","","",""
"","image-keyboard-response","121","62163","0.0-179.0","3AWETUDC93EJN74H6Z6G1VST4VOIZG","ACSS93E03ZUGX","3A3KKYU7P33Z3BR9PPFZ5194ZCQMWU","","276.69999999925494","img/land2.png","74","281.30000000074506","1","1","false","1","1,1,0,0,1,1,1,0,1","",""
"","html-keyboard-response","122","62472","0.0-180.0","3AWETUDC93EJN74H6Z6G1VST4VOIZG","ACSS93E03ZUGX","3A3KKYU7P33Z3BR9PPFZ5194ZCQMWU","","null","<img src=""img/land2.png"" style=""width:200px; border:14px solid green;"">","null","","","","","","","",""
"","image-keyboard-response","123","62797","0.0-182.0","3AWETUDC93EJN74H6Z6G1VST4VOIZG","ACSS93E03ZUGX","3A3KKYU7P33Z3BR9PPFZ5194ZCQMWU","","318.30000000074506","img/land2.png","74","322.80000000074506","1","1","false","1","1,1,0,0,1,1,1,0,1","",""
"","html-keyboard-response","124","63104","0.0-183.0","3AWETUDC93EJN74H6Z6G1VST4VOIZG","ACSS93E03ZUGX","3A3KKYU7P33Z3BR9PPFZ5194ZCQMWU","","null","<img src=""img/land2.png"" style=""width:200px; border:14px solid green;"">","null","","","","","","","",""
"","image-keyboard-response","125","63370","0.0-185.0","3AWETUDC93EJN74H6Z6G1VST4VOIZG","ACSS93E03ZUGX","3A3KKYU7P33Z3BR9PPFZ5194ZCQMWU","","259.5999999977648","img/land5.png","74","264.5","1","0","false","2","1,1,0,0,1,1,1,0,1","",""
"","html-keyboard-response","126","63680","0.0-186.0","3AWETUDC93EJN74H6Z6G1VST4VOIZG","ACSS93E03ZUGX","3A3KKYU7P33Z3BR9PPFZ5194ZCQMWU","","null","<img src=""img/land5.png"" style=""width:200px;border:14px solid red;"">","null","","","","","","","",""
"","image-keyboard-response","127","63912","0.0-188.0","3AWETUDC93EJN74H6Z6G1VST4VOIZG","ACSS93E03ZUGX","3A3KKYU7P33Z3BR9PPFZ5194ZCQMWU","","225","img/land4.png","75","229.19999999925494","2","0","false","3","1,1,0,0,1,1,1,0,1","",""
"","html-keyboard-response","128","64224","0.0-189.0","3AWETUDC93EJN74H6Z6G1VST4VOIZG","ACSS93E03ZUGX","3A3KKYU7P33Z3BR9PPFZ5194ZCQMWU","","null","<img src=""img/land4.png"" style=""width:200px;border:14px solid red;"">","null","","","","","","","",""
"","image-keyboard-response","129","64714","0.0-191.0","3AWETUDC93EJN74H6Z6G1VST4VOIZG","ACSS93E03ZUGX","3A3KKYU7P33Z3BR9PPFZ5194ZCQMWU","","485.19999999925494","img/land5.png","76","489.20000000298023","3","1","false","2","1,1,0,0,1,1,1,0,1","",""
"","html-keyboard-response","130","65024","0.0-192.0","3AWETUDC93EJN74H6Z6G1VST4VOIZG","ACSS93E03ZUGX","3A3KKYU7P33Z3BR9PPFZ5194ZCQMWU","","null","<img src=""img/land5.png"" style=""width:200px; border:14px solid green;"">","null","","","","","","","",""
"","image-keyboard-response","131","65288","0.0-194.0","3AWETUDC93EJN74H6Z6G1VST4VOIZG","ACSS93E03ZUGX","3A3KKYU7P33Z3BR9PPFZ5194ZCQMWU","","257.80000000074506","img/land2.png","76","265.80000000074506","3","0","false","1","1,1,0,0,1,1,1,0,1","",""
"","html-keyboard-response","132","65600","0.0-195.0","3AWETUDC93EJN74H6Z6G1VST4VOIZG","ACSS93E03ZUGX","3A3KKYU7P33Z3BR9PPFZ5194ZCQMWU","","null","<img src=""img/land2.png"" style=""width:200px;border:14px solid red;"">","null","","","","","","","",""
"","image-keyboard-response","133","65927","0.0-197.0","3AWETUDC93EJN74H6Z6G1VST4VOIZG","ACSS93E03ZUGX","3A3KKYU7P33Z3BR9PPFZ5194ZCQMWU","","320.30000000074506","img/land2.png","76","325.6000000014901","3","0","false","1","1,1,0,0,1,1,1,0,1","",""
"","html-keyboard-response","134","66240","0.0-198.0","3AWETUDC93EJN74H6Z6G1VST4VOIZG","ACSS93E03ZUGX","3A3KKYU7P33Z3BR9PPFZ5194ZCQMWU","","null","<img src=""img/land2.png"" style=""width:200px;border:14px solid red;"">","null","","","","","","","",""
"","image-keyboard-response","135","66396","0.0-200.0","3AWETUDC93EJN74H6Z6G1VST4VOIZG","ACSS93E03ZUGX","3A3KKYU7P33Z3BR9PPFZ5194ZCQMWU","","149.10000000149012","img/land4.png","75","154.5","2","0","false","3","1,1,0,0,1,1,1,0,1","",""
"","html-keyboard-response","136","66704","0.0-201.0","3AWETUDC93EJN74H6Z6G1VST4VOIZG","ACSS93E03ZUGX","3A3KKYU7P33Z3BR9PPFZ5194ZCQMWU","","null","<img src=""img/land4.png"" style=""width:200px;border:14px solid red;"">","null","","","","","","","",""
"","image-keyboard-response","137","66936","0.0-203.0","3AWETUDC93EJN74H6Z6G1VST4VOIZG","ACSS93E03ZUGX","3A3KKYU7P33Z3BR9PPFZ5194ZCQMWU","","226.5","img/land2.png","75","230.5","2","1","false","1","1,1,0,0,1,1,1,0,1","",""
"","html-keyboard-response","138","67248","0.0-204.0","3AWETUDC93EJN74H6Z6G1VST4VOIZG","ACSS93E03ZUGX","3A3KKYU7P33Z3BR9PPFZ5194ZCQMWU","","null","<img src=""img/land2.png"" style=""width:200px; border:14px solid green;"">","null","","","","","","","",""
"","image-keyboard-response","139","67517","0.0-206.0","3AWETUDC93EJN74H6Z6G1VST4VOIZG","ACSS93E03ZUGX","3A3KKYU7P33Z3BR9PPFZ5194ZCQMWU","","264.19999999925494","img/land2.png","75","267.9000000022352","2","1","false","1","1,1,0,0,1,1,1,0,1","",""
"","html-keyboard-response","140","67824","0.0-207.0","3AWETUDC93EJN74H6Z6G1VST4VOIZG","ACSS93E03ZUGX","3A3KKYU7P33Z3BR9PPFZ5194ZCQMWU","","null","<img src=""img/land2.png"" style=""width:200px; border:14px solid green;"">","null","","","","","","","",""
"","image-keyboard-response","141","68129","0.0-209.0","3AWETUDC93EJN74H6Z6G1VST4VOIZG","ACSS93E03ZUGX","3A3KKYU7P33Z3BR9PPFZ5194ZCQMWU","","299.30000000074506","img/land4.png","75","303.4000000022352","2","0","false","3","1,1,0,0,1,1,1,0,1","",""
"","html-keyboard-response","142","68440","0.0-210.0","3AWETUDC93EJN74H6Z6G1VST4VOIZG","ACSS93E03ZUGX","3A3KKYU7P33Z3BR9PPFZ5194ZCQMWU","","null","<img src=""img/land4.png"" style=""width:200px;border:14px solid red;"">","null","","","","","","","",""
"","image-keyboard-response","143","68549","0.0-212.0","3AWETUDC93EJN74H6Z6G1VST4VOIZG","ACSS93E03ZUGX","3A3KKYU7P33Z3BR9PPFZ5194ZCQMWU","","102.09999999776483","img/land2.png","74","106.5","1","1","false","1","1,1,0,0,1,1,1,0,1","",""
"","html-keyboard-response","144","68857","0.0-213.0","3AWETUDC93EJN74H6Z6G1VST4VOIZG","ACSS93E03ZUGX","3A3KKYU7P33Z3BR9PPFZ5194ZCQMWU","","null","<img src=""img/land2.png"" style=""width:200px; border:14px solid green;"">","null","","","","","","","",""
"","image-keyboard-response","145","69072","0.0-215.0","3AWETUDC93EJN74H6Z6G1VST4VOIZG","ACSS93E03ZUGX","3A3KKYU7P33Z3BR9PPFZ5194ZCQMWU","","209.29999999701977","img/land4.png","74","214","1","1","false","3","1,1,0,0,1,1,1,0,1","",""
"","html-keyboard-response","146","69384","0.0-216.0","3AWETUDC93EJN74H6Z6G1VST4VOIZG","ACSS93E03ZUGX","3A3KKYU7P33Z3BR9PPFZ5194ZCQMWU","","null","<img src=""img/land4.png"" style=""width:200px; border:14px solid green;"">","null","","","","","","","",""
"","image-keyboard-response","147","69559","0.0-218.0","3AWETUDC93EJN74H6Z6G1VST4VOIZG","ACSS93E03ZUGX","3A3KKYU7P33Z3BR9PPFZ5194ZCQMWU","","168.80000000074506","img/land5.png","74","173.5","1","0","false","2","1,1,0,0,1,1,1,0,1","",""
"","html-keyboard-response","148","69872","0.0-219.0","3AWETUDC93EJN74H6Z6G1VST4VOIZG","ACSS93E03ZUGX","3A3KKYU7P33Z3BR9PPFZ5194ZCQMWU","","null","<img src=""img/land5.png"" style=""width:200px;border:14px solid red;"">","null","","","","","","","",""
"","image-keyboard-response","149","70113","0.0-221.0","3AWETUDC93EJN74H6Z6G1VST4VOIZG","ACSS93E03ZUGX","3A3KKYU7P33Z3BR9PPFZ5194ZCQMWU","","234.89999999850988","img/land5.png","76","239.5","3","1","false","2","1,1,0,0,1,1,1,0,1","",""
"","html-keyboard-response","150","70424","0.0-222.0","3AWETUDC93EJN74H6Z6G1VST4VOIZG","ACSS93E03ZUGX","3A3KKYU7P33Z3BR9PPFZ5194ZCQMWU","","null","<img src=""img/land5.png"" style=""width:200px; border:14px solid green;"">","null","","","","","","","",""
"","image-keyboard-response","151","70690","0.0-224.0","3AWETUDC93EJN74H6Z6G1VST4VOIZG","ACSS93E03ZUGX","3A3KKYU7P33Z3BR9PPFZ5194ZCQMWU","","260.80000000074506","img/land2.png","76","264.69999999925494","3","0","false","1","1,1,0,0,1,1,1,0,1","",""
"","html-keyboard-response","152","71000","0.0-225.0","3AWETUDC93EJN74H6Z6G1VST4VOIZG","ACSS93E03ZUGX","3A3KKYU7P33Z3BR9PPFZ5194ZCQMWU","","null","<img src=""img/land2.png"" style=""width:200px;border:14px solid red;"">","null","","","","","","","",""
"","image-keyboard-response","153","71130","0.0-227.0","3AWETUDC93EJN74H6Z6G1VST4VOIZG","ACSS93E03ZUGX","3A3KKYU7P33Z3BR9PPFZ5194ZCQMWU","","124.39999999850988","img/land4.png","75","128.60000000149012","2","0","false","3","1,1,0,0,1,1,1,0,1","",""
"","html-keyboard-response","154","71441","0.0-228.0","3AWETUDC93EJN74H6Z6G1VST4VOIZG","ACSS93E03ZUGX","3A3KKYU7P33Z3BR9PPFZ5194ZCQMWU","","null","<img src=""img/land4.png"" style=""width:200px;border:14px solid red;"">","null","","","","","","","",""
"","image-keyboard-response","155","71584","0.0-230.0","3AWETUDC93EJN74H6Z6G1VST4VOIZG","ACSS93E03ZUGX","3A3KKYU7P33Z3BR9PPFZ5194ZCQMWU","","136.5","img/land2.png","74","140.89999999850988","1","1","false","1","1,1,0,0,1,1,1,0,1","",""
"","html-keyboard-response","156","71897","0.0-231.0","3AWETUDC93EJN74H6Z6G1VST4VOIZG","ACSS93E03ZUGX","3A3KKYU7P33Z3BR9PPFZ5194ZCQMWU","","null","<img src=""img/land2.png"" style=""width:200px; border:14px solid green;"">","null","","","","","","","",""
"","image-keyboard-response","157","72061","0.0-233.0","3AWETUDC93EJN74H6Z6G1VST4VOIZG","ACSS93E03ZUGX","3A3KKYU7P33Z3BR9PPFZ5194ZCQMWU","","157.39999999850988","img/land4.png","75","162.10000000149012","2","0","false","3","1,1,0,0,1,1,1,0,1","",""
"","html-keyboard-response","158","72368","0.0-234.0","3AWETUDC93EJN74H6Z6G1VST4VOIZG","ACSS93E03ZUGX","3A3KKYU7P33Z3BR9PPFZ5194ZCQMWU","","null","<img src=""img/land4.png"" style=""width:200px;border:14px solid red;"">","null","","","","","","","",""
"","image-keyboard-response","159","72490","0.0-236.0","3AWETUDC93EJN74H6Z6G1VST4VOIZG","ACSS93E03ZUGX","3A3KKYU7P33Z3BR9PPFZ5194ZCQMWU","","115.30000000074506","img/land2.png","74","120.19999999925494","1","1","false","1","1,1,0,0,1,1,1,0,1","",""
"","html-keyboard-response","160","72800","0.0-237.0","3AWETUDC93EJN74H6Z6G1VST4VOIZG","ACSS93E03ZUGX","3A3KKYU7P33Z3BR9PPFZ5194ZCQMWU","","null","<img src=""img/land2.png"" style=""width:200px; border:14px solid green;"">","null","","","","","","","",""
"","image-keyboard-response","161","72939","0.0-239.0","3AWETUDC93EJN74H6Z6G1VST4VOIZG","ACSS93E03ZUGX","3A3KKYU7P33Z3BR9PPFZ5194ZCQMWU","","132.60000000149012","img/land2.png","74","137.29999999701977","1","1","false","1","1,1,0,0,1,1,1,0,1","",""
"","html-keyboard-response","162","73248","0.0-240.0","3AWETUDC93EJN74H6Z6G1VST4VOIZG","ACSS93E03ZUGX","3A3KKYU7P33Z3BR9PPFZ5194ZCQMWU","","null","<img src=""img/land2.png"" style=""width:200px; border:14px solid green;"">","null","","","","","","","",""
"","image-keyboard-response","163","73415","0.0-242.0","3AWETUDC93EJN74H6Z6G1VST4VOIZG","ACSS93E03ZUGX","3A3KKYU7P33Z3BR9PPFZ5194ZCQMWU","","160.20000000298023","img/land4.png","74","164.90000000223517","1","1","false","3","1,1,0,0,1,1,1,0,1","",""
"","html-keyboard-response","164","73728","0.0-243.0","3AWETUDC93EJN74H6Z6G1VST4VOIZG","ACSS93E03ZUGX","3A3KKYU7P33Z3BR9PPFZ5194ZCQMWU","","null","<img src=""img/land4.png"" style=""width:200px; border:14px solid green;"">","null","","","","","","","",""
"","image-keyboard-response","165","73877","0.0-245.0","3AWETUDC93EJN74H6Z6G1VST4VOIZG","ACSS93E03ZUGX","3A3KKYU7P33Z3BR9PPFZ5194ZCQMWU","","141.70000000298023","img/land5.png","74","146.30000000074506","1","0","false","2","1,1,0,0,1,1,1,0,1","",""
"","html-keyboard-response","166","74185","0.0-246.0","3AWETUDC93EJN74H6Z6G1VST4VOIZG","ACSS93E03ZUGX","3A3KKYU7P33Z3BR9PPFZ5194ZCQMWU","","null","<img src=""img/land5.png"" style=""width:200px;border:14px solid red;"">","null","","","","","","","",""
"","image-keyboard-response","167","74395","0.0-248.0","3AWETUDC93EJN74H6Z6G1VST4VOIZG","ACSS93E03ZUGX","3A3KKYU7P33Z3BR9PPFZ5194ZCQMWU","","203.60000000149012","img/land4.png","75","207.80000000074506","2","0","false","3","1,1,0,0,1,1,1,0,1","",""
"","html-keyboard-response","168","74704","0.0-249.0","3AWETUDC93EJN74H6Z6G1VST4VOIZG","ACSS93E03ZUGX","3A3KKYU7P33Z3BR9PPFZ5194ZCQMWU","","null","<img src=""img/land4.png"" style=""width:200px;border:14px solid red;"">","null","","","","","","","",""
"","image-keyboard-response","169","74832","0.0-251.0","3AWETUDC93EJN74H6Z6G1VST4VOIZG","ACSS93E03ZUGX","3A3KKYU7P33Z3BR9PPFZ5194ZCQMWU","","121.59999999776483","img/land2.png","75","126.09999999776483","2","1","false","1","1,1,0,0,1,1,1,0,1","",""
"","html-keyboard-response","170","75144","0.0-252.0","3AWETUDC93EJN74H6Z6G1VST4VOIZG","ACSS93E03ZUGX","3A3KKYU7P33Z3BR9PPFZ5194ZCQMWU","","null","<img src=""img/land2.png"" style=""width:200px; border:14px solid green;"">","null","","","","","","","",""
"","image-keyboard-response","171","75370","0.0-254.0","3AWETUDC93EJN74H6Z6G1VST4VOIZG","ACSS93E03ZUGX","3A3KKYU7P33Z3BR9PPFZ5194ZCQMWU","","218.89999999850988","img/land5.png","74","223.39999999850988","1","0","false","2","1,1,0,0,1,1,1,0,1","",""
"","html-keyboard-response","172","75681","0.0-255.0","3AWETUDC93EJN74H6Z6G1VST4VOIZG","ACSS93E03ZUGX","3A3KKYU7P33Z3BR9PPFZ5194ZCQMWU","","null","<img src=""img/land5.png"" style=""width:200px;border:14px solid red;"">","null","","","","","","","",""
"","image-keyboard-response","173","75719","0.0-257.0","3AWETUDC93EJN74H6Z6G1VST4VOIZG","ACSS93E03ZUGX","3A3KKYU7P33Z3BR9PPFZ5194ZCQMWU","","31.5","img/land4.png","75","35.80000000074506","2","0","false","3","1,1,0,0,1,1,1,0,1","",""
"","html-keyboard-response","174","76032","0.0-258.0","3AWETUDC93EJN74H6Z6G1VST4VOIZG","ACSS93E03ZUGX","3A3KKYU7P33Z3BR9PPFZ5194ZCQMWU","","null","<img src=""img/land4.png"" style=""width:200px;border:14px solid red;"">","null","","","","","","","",""
"","image-keyboard-response","175","76069","0.0-260.0","3AWETUDC93EJN74H6Z6G1VST4VOIZG","ACSS93E03ZUGX","3A3KKYU7P33Z3BR9PPFZ5194ZCQMWU","","29.400000002235174","img/land5.png","76","34.400000002235174","3","1","false","2","1,1,0,0,1,1,1,0,1","",""
"","html-keyboard-response","176","76377","0.0-261.0","3AWETUDC93EJN74H6Z6G1VST4VOIZG","ACSS93E03ZUGX","3A3KKYU7P33Z3BR9PPFZ5194ZCQMWU","","null","<img src=""img/land5.png"" style=""width:200px; border:14px solid green;"">","null","","","","","","","",""
"","image-keyboard-response","177","76569","0.0-263.0","3AWETUDC93EJN74H6Z6G1VST4VOIZG","ACSS93E03ZUGX","3A3KKYU7P33Z3BR9PPFZ5194ZCQMWU","","184.89999999850988","img/land2.png","76","190.10000000149012","3","0","false","1","1,1,0,0,1,1,1,0,1","",""
"","html-keyboard-response","178","76880","0.0-264.0","3AWETUDC93EJN74H6Z6G1VST4VOIZG","ACSS93E03ZUGX","3A3KKYU7P33Z3BR9PPFZ5194ZCQMWU","","null","<img src=""img/land2.png"" style=""width:200px;border:14px solid red;"">","null","","","","","","","",""
"","image-keyboard-response","179","77134","0.0-266.0","3AWETUDC93EJN74H6Z6G1VST4VOIZG","ACSS93E03ZUGX","3A3KKYU7P33Z3BR9PPFZ5194ZCQMWU","","246.89999999850988","img/land4.png","75","251.69999999925494","2","0","false","3","1,1,0,0,1,1,1,0,1","",""
"","html-keyboard-response","180","77448","0.0-267.0","3AWETUDC93EJN74H6Z6G1VST4VOIZG","ACSS93E03ZUGX","3A3KKYU7P33Z3BR9PPFZ5194ZCQMWU","","null","<img src=""img/land4.png"" style=""width:200px;border:14px solid red;"">","null","","","","","","","",""
"","image-keyboard-response","181","77672","0.0-269.0","3AWETUDC93EJN74H6Z6G1VST4VOIZG","ACSS93E03ZUGX","3A3KKYU7P33Z3BR9PPFZ5194ZCQMWU","","216.80000000074506","img/land4.png","74","221.69999999925494","1","1","false","3","1,1,0,0,1,1,1,0,1","",""
"","html-keyboard-response","182","77984","0.0-270.0","3AWETUDC93EJN74H6Z6G1VST4VOIZG","ACSS93E03ZUGX","3A3KKYU7P33Z3BR9PPFZ5194ZCQMWU","","null","<img src=""img/land4.png"" style=""width:200px; border:14px solid green;"">","null","","","","","","","",""
"","html-keyboard-response","183","79708","0.0-272.0","3AWETUDC93EJN74H6Z6G1VST4VOIZG","ACSS93E03ZUGX","3A3KKYU7P33Z3BR9PPFZ5194ZCQMWU","","","","","","","","","","","",""
"","image-keyboard-response","184","80339","0.0-273.0","3AWETUDC93EJN74H6Z6G1VST4VOIZG","ACSS93E03ZUGX","3A3KKYU7P33Z3BR9PPFZ5194ZCQMWU","","623.9000000022352","img/land6.png","74","629.1000000014901","1","1","false","1","1,0.5,0.5,0.5,1,0.5,0.5,0.5,1","",""
"","html-keyboard-response","185","80649","0.0-274.0","3AWETUDC93EJN74H6Z6G1VST4VOIZG","ACSS93E03ZUGX","3A3KKYU7P33Z3BR9PPFZ5194ZCQMWU","","null","<img src=""img/land6.png"" style=""width:200px; border:14px solid green;"">","null","","","","","","","",""
"","image-keyboard-response","186","80812","0.0-276.0","3AWETUDC93EJN74H6Z6G1VST4VOIZG","ACSS93E03ZUGX","3A3KKYU7P33Z3BR9PPFZ5194ZCQMWU","","157","img/land1.png","74","161.5","1","1","false","3","1,0.5,0.5,0.5,1,0.5,0.5,0.5,1","",""
"","html-keyboard-response","187","81119","0.0-277.0","3AWETUDC93EJN74H6Z6G1VST4VOIZG","ACSS93E03ZUGX","3A3KKYU7P33Z3BR9PPFZ5194ZCQMWU","","null","<img src=""img/land1.png"" style=""width:200px; border:14px solid green;"">","null","","","","","","","",""
"","image-keyboard-response","188","81397","0.0-279.0","3AWETUDC93EJN74H6Z6G1VST4VOIZG","ACSS93E03ZUGX","3A3KKYU7P33Z3BR9PPFZ5194ZCQMWU","","272.70000000298023","img/land6.png","74","277.20000000298023","1","1","false","1","1,0.5,0.5,0.5,1,0.5,0.5,0.5,1","",""
"","html-keyboard-response","189","81705","0.0-280.0","3AWETUDC93EJN74H6Z6G1VST4VOIZG","ACSS93E03ZUGX","3A3KKYU7P33Z3BR9PPFZ5194ZCQMWU","","null","<img src=""img/land6.png"" style=""width:200px; border:14px solid green;"">","null","","","","","","","",""
"","image-keyboard-response","190","82010","0.0-282.0","3AWETUDC93EJN74H6Z6G1VST4VOIZG","ACSS93E03ZUGX","3A3KKYU7P33Z3BR9PPFZ5194ZCQMWU","","299.0999999977648","img/land3.png","74","303.69999999925494","1","1","false","2","1,0.5,0.5,0.5,1,0.5,0.5,0.5,1","",""
"","html-keyboard-response","191","82320","0.0-283.0","3AWETUDC93EJN74H6Z6G1VST4VOIZG","ACSS93E03ZUGX","3A3KKYU7P33Z3BR9PPFZ5194ZCQMWU","","null","<img src=""img/land3.png"" style=""width:200px; border:14px solid green;"">","null","","","","","","","",""
"","image-keyboard-response","192","82652","0.0-285.0","3AWETUDC93EJN74H6Z6G1VST4VOIZG","ACSS93E03ZUGX","3A3KKYU7P33Z3BR9PPFZ5194ZCQMWU","","325.3999999985099","img/land3.png","74","330","1","0","false","2","1,0.5,0.5,0.5,1,0.5,0.5,0.5,1","",""
"","html-keyboard-response","193","82961","0.0-286.0","3AWETUDC93EJN74H6Z6G1VST4VOIZG","ACSS93E03ZUGX","3A3KKYU7P33Z3BR9PPFZ5194ZCQMWU","","null","<img src=""img/land3.png"" style=""width:200px;border:14px solid red;"">","null","","","","","","","",""
"","image-keyboard-response","194","83275","0.0-288.0","3AWETUDC93EJN74H6Z6G1VST4VOIZG","ACSS93E03ZUGX","3A3KKYU7P33Z3BR9PPFZ5194ZCQMWU","","308.30000000074506","img/land6.png","75","313.1000000014901","2","1","false","1","1,0.5,0.5,0.5,1,0.5,0.5,0.5,1","",""
"","html-keyboard-response","195","83585","0.0-289.0","3AWETUDC93EJN74H6Z6G1VST4VOIZG","ACSS93E03ZUGX","3A3KKYU7P33Z3BR9PPFZ5194ZCQMWU","","null","<img src=""img/land6.png"" style=""width:200px; border:14px solid green;"">","null","","","","","","","",""
"","image-keyboard-response","196","83824","0.0-291.0","3AWETUDC93EJN74H6Z6G1VST4VOIZG","ACSS93E03ZUGX","3A3KKYU7P33Z3BR9PPFZ5194ZCQMWU","","232.5","img/land6.png","75","237.19999999925494","2","1","false","1","1,0.5,0.5,0.5,1,0.5,0.5,0.5,1","",""
"","html-keyboard-response","197","84136","0.0-292.0","3AWETUDC93EJN74H6Z6G1VST4VOIZG","ACSS93E03ZUGX","3A3KKYU7P33Z3BR9PPFZ5194ZCQMWU","","null","<img src=""img/land6.png"" style=""width:200px; border:14px solid green;"">","null","","","","","","","",""
"","image-keyboard-response","198","84292","0.0-294.0","3AWETUDC93EJN74H6Z6G1VST4VOIZG","ACSS93E03ZUGX","3A3KKYU7P33Z3BR9PPFZ5194ZCQMWU","","149.80000000074506","img/land3.png","75","154.29999999701977","2","1","false","2","1,0.5,0.5,0.5,1,0.5,0.5,0.5,1","",""
"","html-keyboard-response","199","84601","0.0-295.0","3AWETUDC93EJN74H6Z6G1VST4VOIZG","ACSS93E03ZUGX","3A3KKYU7P33Z3BR9PPFZ5194ZCQMWU","","null","<img src=""img/land3.png"" style=""width:200px; border:14px solid green;"">","null","","","","","","","",""
"","image-keyboard-response","200","84872","0.0-297.0","3AWETUDC93EJN74H6Z6G1VST4VOIZG","ACSS93E03ZUGX","3A3KKYU7P33Z3BR9PPFZ5194ZCQMWU","","264","img/land3.png","74","268.6000000014901","1","0","false","2","1,0.5,0.5,0.5,1,0.5,0.5,0.5,1","",""
"","html-keyboard-response","201","85184","0.0-298.0","3AWETUDC93EJN74H6Z6G1VST4VOIZG","ACSS93E03ZUGX","3A3KKYU7P33Z3BR9PPFZ5194ZCQMWU","","null","<img src=""img/land3.png"" style=""width:200px;border:14px solid red;"">","null","","","","","","","",""
"","image-keyboard-response","202","85531","0.0-300.0","3AWETUDC93EJN74H6Z6G1VST4VOIZG","ACSS93E03ZUGX","3A3KKYU7P33Z3BR9PPFZ5194ZCQMWU","","340.8999999985099","img/land1.png","75","345.80000000074506","2","0","false","3","1,0.5,0.5,0.5,1,0.5,0.5,0.5,1","",""
"","html-keyboard-response","203","85841","0.0-301.0","3AWETUDC93EJN74H6Z6G1VST4VOIZG","ACSS93E03ZUGX","3A3KKYU7P33Z3BR9PPFZ5194ZCQMWU","","null","<img src=""img/land1.png"" style=""width:200px;border:14px solid red;"">","null","","","","","","","",""
"","image-keyboard-response","204","86196","0.0-303.0","3AWETUDC93EJN74H6Z6G1VST4VOIZG","ACSS93E03ZUGX","3A3KKYU7P33Z3BR9PPFZ5194ZCQMWU","","349.0999999977648","img/land6.png","76","353.79999999701977","3","0","false","1","1,0.5,0.5,0.5,1,0.5,0.5,0.5,1","",""
"","html-keyboard-response","205","86504","0.0-304.0","3AWETUDC93EJN74H6Z6G1VST4VOIZG","ACSS93E03ZUGX","3A3KKYU7P33Z3BR9PPFZ5194ZCQMWU","","null","<img src=""img/land6.png"" style=""width:200px;border:14px solid red;"">","null","","","","","","","",""
"","image-keyboard-response","206","86851","0.0-306.0","3AWETUDC93EJN74H6Z6G1VST4VOIZG","ACSS93E03ZUGX","3A3KKYU7P33Z3BR9PPFZ5194ZCQMWU","","340.4000000022352","img/land3.png","76","345.30000000074506","3","1","false","2","1,0.5,0.5,0.5,1,0.5,0.5,0.5,1","",""
"","html-keyboard-response","207","87160","0.0-307.0","3AWETUDC93EJN74H6Z6G1VST4VOIZG","ACSS93E03ZUGX","3A3KKYU7P33Z3BR9PPFZ5194ZCQMWU","","null","<img src=""img/land3.png"" style=""width:200px; border:14px solid green;"">","null","","","","","","","",""
"","image-keyboard-response","208","87409","0.0-309.0","3AWETUDC93EJN74H6Z6G1VST4VOIZG","ACSS93E03ZUGX","3A3KKYU7P33Z3BR9PPFZ5194ZCQMWU","","242.90000000223517","img/land3.png","76","247.19999999925494","3","0","false","2","1,0.5,0.5,0.5,1,0.5,0.5,0.5,1","",""
"","html-keyboard-response","209","87720","0.0-310.0","3AWETUDC93EJN74H6Z6G1VST4VOIZG","ACSS93E03ZUGX","3A3KKYU7P33Z3BR9PPFZ5194ZCQMWU","","null","<img src=""img/land3.png"" style=""width:200px;border:14px solid red;"">","null","","","","","","","",""
"","image-keyboard-response","210","88240","0.0-312.0","3AWETUDC93EJN74H6Z6G1VST4VOIZG","ACSS93E03ZUGX","3A3KKYU7P33Z3BR9PPFZ5194ZCQMWU","","513.3999999985099","img/land6.png","75","517.6999999992549","2","1","false","1","1,0.5,0.5,0.5,1,0.5,0.5,0.5,1","",""
"","html-keyboard-response","211","88552","0.0-313.0","3AWETUDC93EJN74H6Z6G1VST4VOIZG","ACSS93E03ZUGX","3A3KKYU7P33Z3BR9PPFZ5194ZCQMWU","","null","<img src=""img/land6.png"" style=""width:200px; border:14px solid green;"">","null","","","","","","","",""
"","image-keyboard-response","212","88794","0.0-315.0","3AWETUDC93EJN74H6Z6G1VST4VOIZG","ACSS93E03ZUGX","3A3KKYU7P33Z3BR9PPFZ5194ZCQMWU","","236","img/land6.png","75","240.69999999925494","2","0","false","1","1,0.5,0.5,0.5,1,0.5,0.5,0.5,1","",""
"","html-keyboard-response","213","89104","0.0-316.0","3AWETUDC93EJN74H6Z6G1VST4VOIZG","ACSS93E03ZUGX","3A3KKYU7P33Z3BR9PPFZ5194ZCQMWU","","null","<img src=""img/land6.png"" style=""width:200px;border:14px solid red;"">","null","","","","","","","",""
"","image-keyboard-response","214","89383","0.0-318.0","3AWETUDC93EJN74H6Z6G1VST4VOIZG","ACSS93E03ZUGX","3A3KKYU7P33Z3BR9PPFZ5194ZCQMWU","","272.3999999985099","img/land6.png","75","277.19999999925494","2","1","false","1","1,0.5,0.5,0.5,1,0.5,0.5,0.5,1","",""
"","html-keyboard-response","215","89697","0.0-319.0","3AWETUDC93EJN74H6Z6G1VST4VOIZG","ACSS93E03ZUGX","3A3KKYU7P33Z3BR9PPFZ5194ZCQMWU","","null","<img src=""img/land6.png"" style=""width:200px; border:14px solid green;"">","null","","","","","","","",""
"","image-keyboard-response","216","90257","0.0-321.0","3AWETUDC93EJN74H6Z6G1VST4VOIZG","ACSS93E03ZUGX","3A3KKYU7P33Z3BR9PPFZ5194ZCQMWU","","554","img/land3.png","74","558.8000000007451","1","1","false","2","1,0.5,0.5,0.5,1,0.5,0.5,0.5,1","",""
"","html-keyboard-response","217","90568","0.0-322.0","3AWETUDC93EJN74H6Z6G1VST4VOIZG","ACSS93E03ZUGX","3A3KKYU7P33Z3BR9PPFZ5194ZCQMWU","","null","<img src=""img/land3.png"" style=""width:200px; border:14px solid green;"">","null","","","","","","","",""
"","image-keyboard-response","218","90751","0.0-324.0","3AWETUDC93EJN74H6Z6G1VST4VOIZG","ACSS93E03ZUGX","3A3KKYU7P33Z3BR9PPFZ5194ZCQMWU","","175.90000000223517","img/land3.png","74","180.59999999776483","1","1","false","2","1,0.5,0.5,0.5,1,0.5,0.5,0.5,1","",""
"","html-keyboard-response","219","91064","0.0-325.0","3AWETUDC93EJN74H6Z6G1VST4VOIZG","ACSS93E03ZUGX","3A3KKYU7P33Z3BR9PPFZ5194ZCQMWU","","null","<img src=""img/land3.png"" style=""width:200px; border:14px solid green;"">","null","","","","","","","",""
"","image-keyboard-response","220","91270","0.0-327.0","3AWETUDC93EJN74H6Z6G1VST4VOIZG","ACSS93E03ZUGX","3A3KKYU7P33Z3BR9PPFZ5194ZCQMWU","","199.59999999776483","img/land1.png","74","203.80000000074506","1","1","false","3","1,0.5,0.5,0.5,1,0.5,0.5,0.5,1","",""
"","html-keyboard-response","221","91576","0.0-328.0","3AWETUDC93EJN74H6Z6G1VST4VOIZG","ACSS93E03ZUGX","3A3KKYU7P33Z3BR9PPFZ5194ZCQMWU","","null","<img src=""img/land1.png"" style=""width:200px; border:14px solid green;"">","null","","","","","","","",""
"","image-keyboard-response","222","91839","0.0-330.0","3AWETUDC93EJN74H6Z6G1VST4VOIZG","ACSS93E03ZUGX","3A3KKYU7P33Z3BR9PPFZ5194ZCQMWU","","255.69999999925494","img/land3.png","74","260.69999999925494","1","1","false","2","1,0.5,0.5,0.5,1,0.5,0.5,0.5,1","",""
"","html-keyboard-response","223","92152","0.0-331.0","3AWETUDC93EJN74H6Z6G1VST4VOIZG","ACSS93E03ZUGX","3A3KKYU7P33Z3BR9PPFZ5194ZCQMWU","","null","<img src=""img/land3.png"" style=""width:200px; border:14px solid green;"">","null","","","","","","","",""
"","image-keyboard-response","224","92609","0.0-333.0","3AWETUDC93EJN74H6Z6G1VST4VOIZG","ACSS93E03ZUGX","3A3KKYU7P33Z3BR9PPFZ5194ZCQMWU","","450.3999999985099","img/land1.png","74","454.80000000074506","1","1","false","3","1,0.5,0.5,0.5,1,0.5,0.5,0.5,1","",""
"","html-keyboard-response","225","92920","0.0-334.0","3AWETUDC93EJN74H6Z6G1VST4VOIZG","ACSS93E03ZUGX","3A3KKYU7P33Z3BR9PPFZ5194ZCQMWU","","null","<img src=""img/land1.png"" style=""width:200px; border:14px solid green;"">","null","","","","","","","",""
"","image-keyboard-response","226","93341","0.0-336.0","3AWETUDC93EJN74H6Z6G1VST4VOIZG","ACSS93E03ZUGX","3A3KKYU7P33Z3BR9PPFZ5194ZCQMWU","","413","img/land6.png","74","417.80000000074506","1","1","false","1","1,0.5,0.5,0.5,1,0.5,0.5,0.5,1","",""
"","html-keyboard-response","227","93648","0.0-337.0","3AWETUDC93EJN74H6Z6G1VST4VOIZG","ACSS93E03ZUGX","3A3KKYU7P33Z3BR9PPFZ5194ZCQMWU","","null","<img src=""img/land6.png"" style=""width:200px; border:14px solid green;"">","null","","","","","","","",""
"","image-keyboard-response","228","94065","0.0-339.0","3AWETUDC93EJN74H6Z6G1VST4VOIZG","ACSS93E03ZUGX","3A3KKYU7P33Z3BR9PPFZ5194ZCQMWU","","410.6000000014901","img/land6.png","74","415.30000000074506","1","1","false","1","1,0.5,0.5,0.5,1,0.5,0.5,0.5,1","",""
"","html-keyboard-response","229","94376","0.0-340.0","3AWETUDC93EJN74H6Z6G1VST4VOIZG","ACSS93E03ZUGX","3A3KKYU7P33Z3BR9PPFZ5194ZCQMWU","","null","<img src=""img/land6.png"" style=""width:200px; border:14px solid green;"">","null","","","","","","","",""
"","image-keyboard-response","230","94957","0.0-342.0","3AWETUDC93EJN74H6Z6G1VST4VOIZG","ACSS93E03ZUGX","3A3KKYU7P33Z3BR9PPFZ5194ZCQMWU","","574.6999999992549","img/land3.png","74","579.1000000014901","1","0","false","2","1,0.5,0.5,0.5,1,0.5,0.5,0.5,1","",""
"","html-keyboard-response","231","95264","0.0-343.0","3AWETUDC93EJN74H6Z6G1VST4VOIZG","ACSS93E03ZUGX","3A3KKYU7P33Z3BR9PPFZ5194ZCQMWU","","null","<img src=""img/land3.png"" style=""width:200px;border:14px solid red;"">","null","","","","","","","",""
"","image-keyboard-response","232","95590","0.0-345.0","3AWETUDC93EJN74H6Z6G1VST4VOIZG","ACSS93E03ZUGX","3A3KKYU7P33Z3BR9PPFZ5194ZCQMWU","","319.20000000298023","img/land1.png","75","323.69999999925494","2","1","false","3","1,0.5,0.5,0.5,1,0.5,0.5,0.5,1","",""
"","html-keyboard-response","233","95905","0.0-346.0","3AWETUDC93EJN74H6Z6G1VST4VOIZG","ACSS93E03ZUGX","3A3KKYU7P33Z3BR9PPFZ5194ZCQMWU","","null","<img src=""img/land1.png"" style=""width:200px; border:14px solid green;"">","null","","","","","","","",""
"","image-keyboard-response","234","96574","0.0-348.0","3AWETUDC93EJN74H6Z6G1VST4VOIZG","ACSS93E03ZUGX","3A3KKYU7P33Z3BR9PPFZ5194ZCQMWU","","662.1000000014901","img/land6.png","74","666.5999999977648","1","1","false","1","1,0.5,0.5,0.5,1,0.5,0.5,0.5,1","",""
"","html-keyboard-response","235","96889","0.0-349.0","3AWETUDC93EJN74H6Z6G1VST4VOIZG","ACSS93E03ZUGX","3A3KKYU7P33Z3BR9PPFZ5194ZCQMWU","","null","<img src=""img/land6.png"" style=""width:200px; border:14px solid green;"">","null","","","","","","","",""
"","image-keyboard-response","236","97482","0.0-351.0","3AWETUDC93EJN74H6Z6G1VST4VOIZG","ACSS93E03ZUGX","3A3KKYU7P33Z3BR9PPFZ5194ZCQMWU","","585.8999999985099","img/land3.png","75","590.4000000022352","2","1","false","2","1,0.5,0.5,0.5,1,0.5,0.5,0.5,1","",""
"","html-keyboard-response","237","97792","0.0-352.0","3AWETUDC93EJN74H6Z6G1VST4VOIZG","ACSS93E03ZUGX","3A3KKYU7P33Z3BR9PPFZ5194ZCQMWU","","null","<img src=""img/land3.png"" style=""width:200px; border:14px solid green;"">","null","","","","","","","",""
"","image-keyboard-response","238","98058","0.0-354.0","3AWETUDC93EJN74H6Z6G1VST4VOIZG","ACSS93E03ZUGX","3A3KKYU7P33Z3BR9PPFZ5194ZCQMWU","","258.8999999985099","img/land1.png","74","263.5999999977648","1","0","false","3","1,0.5,0.5,0.5,1,0.5,0.5,0.5,1","",""
"","html-keyboard-response","239","98369","0.0-355.0","3AWETUDC93EJN74H6Z6G1VST4VOIZG","ACSS93E03ZUGX","3A3KKYU7P33Z3BR9PPFZ5194ZCQMWU","","null","<img src=""img/land1.png"" style=""width:200px;border:14px solid red;"">","null","","","","","","","",""
"","image-keyboard-response","240","98653","0.0-357.0","3AWETUDC93EJN74H6Z6G1VST4VOIZG","ACSS93E03ZUGX","3A3KKYU7P33Z3BR9PPFZ5194ZCQMWU","","278.1000000014901","img/land3.png","75","283.20000000298023","2","1","false","2","1,0.5,0.5,0.5,1,0.5,0.5,0.5,1","",""
"","html-keyboard-response","241","98960","0.0-358.0","3AWETUDC93EJN74H6Z6G1VST4VOIZG","ACSS93E03ZUGX","3A3KKYU7P33Z3BR9PPFZ5194ZCQMWU","","null","<img src=""img/land3.png"" style=""width:200px; border:14px solid green;"">","null","","","","","","","",""
"","image-keyboard-response","242","99220","0.0-360.0","3AWETUDC93EJN74H6Z6G1VST4VOIZG","ACSS93E03ZUGX","3A3KKYU7P33Z3BR9PPFZ5194ZCQMWU","","253.10000000149012","img/land3.png","75","257.69999999925494","2","1","false","2","1,0.5,0.5,0.5,1,0.5,0.5,0.5,1","",""
"","html-keyboard-response","243","99528","0.0-361.0","3AWETUDC93EJN74H6Z6G1VST4VOIZG","ACSS93E03ZUGX","3A3KKYU7P33Z3BR9PPFZ5194ZCQMWU","","null","<img src=""img/land3.png"" style=""width:200px; border:14px solid green;"">","null","","","","","","","",""
"","image-keyboard-response","244","99765","0.0-363.0","3AWETUDC93EJN74H6Z6G1VST4VOIZG","ACSS93E03ZUGX","3A3KKYU7P33Z3BR9PPFZ5194ZCQMWU","","229.80000000074506","img/land3.png","75","235.29999999701977","2","1","false","2","1,0.5,0.5,0.5,1,0.5,0.5,0.5,1","",""
"","html-keyboard-response","245","100075","0.0-364.0","3AWETUDC93EJN74H6Z6G1VST4VOIZG","ACSS93E03ZUGX","3A3KKYU7P33Z3BR9PPFZ5194ZCQMWU","","null","<img src=""img/land3.png"" style=""width:200px; border:14px solid green;"">","null","","","","","","","",""
"","image-keyboard-response","246","100413","0.0-366.0","3AWETUDC93EJN74H6Z6G1VST4VOIZG","ACSS93E03ZUGX","3A3KKYU7P33Z3BR9PPFZ5194ZCQMWU","","328.0999999977648","img/land3.png","75","332.3999999985099","2","1","false","2","1,0.5,0.5,0.5,1,0.5,0.5,0.5,1","",""
"","html-keyboard-response","247","100720","0.0-367.0","3AWETUDC93EJN74H6Z6G1VST4VOIZG","ACSS93E03ZUGX","3A3KKYU7P33Z3BR9PPFZ5194ZCQMWU","","null","<img src=""img/land3.png"" style=""width:200px; border:14px solid green;"">","null","","","","","","","",""
"","image-keyboard-response","248","101009","0.0-369.0","3AWETUDC93EJN74H6Z6G1VST4VOIZG","ACSS93E03ZUGX","3A3KKYU7P33Z3BR9PPFZ5194ZCQMWU","","283.5","img/land3.png","75","287.5","2","1","false","2","1,0.5,0.5,0.5,1,0.5,0.5,0.5,1","",""
"","html-keyboard-response","249","101320","0.0-370.0","3AWETUDC93EJN74H6Z6G1VST4VOIZG","ACSS93E03ZUGX","3A3KKYU7P33Z3BR9PPFZ5194ZCQMWU","","null","<img src=""img/land3.png"" style=""width:200px; border:14px solid green;"">","null","","","","","","","",""
"","image-keyboard-response","250","101589","0.0-372.0","3AWETUDC93EJN74H6Z6G1VST4VOIZG","ACSS93E03ZUGX","3A3KKYU7P33Z3BR9PPFZ5194ZCQMWU","","263.0999999977648","img/land1.png","75","267.30000000074506","2","0","false","3","1,0.5,0.5,0.5,1,0.5,0.5,0.5,1","",""
"","html-keyboard-response","251","101897","0.0-373.0","3AWETUDC93EJN74H6Z6G1VST4VOIZG","ACSS93E03ZUGX","3A3KKYU7P33Z3BR9PPFZ5194ZCQMWU","","null","<img src=""img/land1.png"" style=""width:200px;border:14px solid red;"">","null","","","","","","","",""
"","image-keyboard-response","252","102022","0.0-375.0","3AWETUDC93EJN74H6Z6G1VST4VOIZG","ACSS93E03ZUGX","3A3KKYU7P33Z3BR9PPFZ5194ZCQMWU","","116.89999999850988","img/land1.png","74","122.19999999925494","1","1","false","3","1,0.5,0.5,0.5,1,0.5,0.5,0.5,1","",""
"","html-keyboard-response","253","102337","0.0-376.0","3AWETUDC93EJN74H6Z6G1VST4VOIZG","ACSS93E03ZUGX","3A3KKYU7P33Z3BR9PPFZ5194ZCQMWU","","null","<img src=""img/land1.png"" style=""width:200px; border:14px solid green;"">","null","","","","","","","",""
"","image-keyboard-response","254","102548","0.0-378.0","3AWETUDC93EJN74H6Z6G1VST4VOIZG","ACSS93E03ZUGX","3A3KKYU7P33Z3BR9PPFZ5194ZCQMWU","","204.90000000223517","img/land6.png","74","209.40000000223517","1","1","false","1","1,0.5,0.5,0.5,1,0.5,0.5,0.5,1","",""
"","html-keyboard-response","255","102856","0.0-379.0","3AWETUDC93EJN74H6Z6G1VST4VOIZG","ACSS93E03ZUGX","3A3KKYU7P33Z3BR9PPFZ5194ZCQMWU","","null","<img src=""img/land6.png"" style=""width:200px; border:14px solid green;"">","null","","","","","","","",""
"","image-keyboard-response","256","103166","0.0-381.0","3AWETUDC93EJN74H6Z6G1VST4VOIZG","ACSS93E03ZUGX","3A3KKYU7P33Z3BR9PPFZ5194ZCQMWU","","302.70000000298023","img/land6.png","74","307.0999999977648","1","1","false","1","1,0.5,0.5,0.5,1,0.5,0.5,0.5,1","",""
"","html-keyboard-response","257","103472","0.0-382.0","3AWETUDC93EJN74H6Z6G1VST4VOIZG","ACSS93E03ZUGX","3A3KKYU7P33Z3BR9PPFZ5194ZCQMWU","","null","<img src=""img/land6.png"" style=""width:200px; border:14px solid green;"">","null","","","","","","","",""
"","image-keyboard-response","258","103933","0.0-384.0","3AWETUDC93EJN74H6Z6G1VST4VOIZG","ACSS93E03ZUGX","3A3KKYU7P33Z3BR9PPFZ5194ZCQMWU","","454.69999999925494","img/land3.png","75","459.30000000074506","2","1","false","2","1,0.5,0.5,0.5,1,0.5,0.5,0.5,1","",""
"","html-keyboard-response","259","104249","0.0-385.0","3AWETUDC93EJN74H6Z6G1VST4VOIZG","ACSS93E03ZUGX","3A3KKYU7P33Z3BR9PPFZ5194ZCQMWU","","null","<img src=""img/land3.png"" style=""width:200px; border:14px solid green;"">","null","","","","","","","",""
"","image-keyboard-response","260","104494","0.0-387.0","3AWETUDC93EJN74H6Z6G1VST4VOIZG","ACSS93E03ZUGX","3A3KKYU7P33Z3BR9PPFZ5194ZCQMWU","","238.19999999925494","img/land1.png","75","243","2","0","false","3","1,0.5,0.5,0.5,1,0.5,0.5,0.5,1","",""
"","html-keyboard-response","261","104809","0.0-388.0","3AWETUDC93EJN74H6Z6G1VST4VOIZG","ACSS93E03ZUGX","3A3KKYU7P33Z3BR9PPFZ5194ZCQMWU","","null","<img src=""img/land1.png"" style=""width:200px;border:14px solid red;"">","null","","","","","","","",""
"","image-keyboard-response","262","105020","0.0-390.0","3AWETUDC93EJN74H6Z6G1VST4VOIZG","ACSS93E03ZUGX","3A3KKYU7P33Z3BR9PPFZ5194ZCQMWU","","203.5","img/land3.png","74","208.30000000074506","1","1","false","2","1,0.5,0.5,0.5,1,0.5,0.5,0.5,1","",""
"","html-keyboard-response","263","105328","0.0-391.0","3AWETUDC93EJN74H6Z6G1VST4VOIZG","ACSS93E03ZUGX","3A3KKYU7P33Z3BR9PPFZ5194ZCQMWU","","null","<img src=""img/land3.png"" style=""width:200px; border:14px solid green;"">","null","","","","","","","",""
"","image-keyboard-response","264","105592","0.0-393.0","3AWETUDC93EJN74H6Z6G1VST4VOIZG","ACSS93E03ZUGX","3A3KKYU7P33Z3BR9PPFZ5194ZCQMWU","","252.5","img/land1.png","74","257.5","1","1","false","3","1,0.5,0.5,0.5,1,0.5,0.5,0.5,1","",""
"","html-keyboard-response","265","105904","0.0-394.0","3AWETUDC93EJN74H6Z6G1VST4VOIZG","ACSS93E03ZUGX","3A3KKYU7P33Z3BR9PPFZ5194ZCQMWU","","null","<img src=""img/land1.png"" style=""width:200px; border:14px solid green;"">","null","","","","","","","",""
"","image-keyboard-response","266","106227","0.0-396.0","3AWETUDC93EJN74H6Z6G1VST4VOIZG","ACSS93E03ZUGX","3A3KKYU7P33Z3BR9PPFZ5194ZCQMWU","","316","img/land6.png","74","320.29999999701977","1","1","false","1","1,0.5,0.5,0.5,1,0.5,0.5,0.5,1","",""
"","html-keyboard-response","267","106536","0.0-397.0","3AWETUDC93EJN74H6Z6G1VST4VOIZG","ACSS93E03ZUGX","3A3KKYU7P33Z3BR9PPFZ5194ZCQMWU","","null","<img src=""img/land6.png"" style=""width:200px; border:14px solid green;"">","null","","","","","","","",""
"","image-keyboard-response","268","106894","0.0-399.0","3AWETUDC93EJN74H6Z6G1VST4VOIZG","ACSS93E03ZUGX","3A3KKYU7P33Z3BR9PPFZ5194ZCQMWU","","351.19999999925494","img/land6.png","74","355.5","1","1","false","1","1,0.5,0.5,0.5,1,0.5,0.5,0.5,1","",""
"","html-keyboard-response","269","107208","0.0-400.0","3AWETUDC93EJN74H6Z6G1VST4VOIZG","ACSS93E03ZUGX","3A3KKYU7P33Z3BR9PPFZ5194ZCQMWU","","null","<img src=""img/land6.png"" style=""width:200px; border:14px solid green;"">","null","","","","","","","",""
"","image-keyboard-response","270","107496","0.0-402.0","3AWETUDC93EJN74H6Z6G1VST4VOIZG","ACSS93E03ZUGX","3A3KKYU7P33Z3BR9PPFZ5194ZCQMWU","","280.8999999985099","img/land1.png","74","285.9000000022352","1","1","false","3","1,0.5,0.5,0.5,1,0.5,0.5,0.5,1","",""
"","html-keyboard-response","271","107809","0.0-403.0","3AWETUDC93EJN74H6Z6G1VST4VOIZG","ACSS93E03ZUGX","3A3KKYU7P33Z3BR9PPFZ5194ZCQMWU","","null","<img src=""img/land1.png"" style=""width:200px; border:14px solid green;"">","null","","","","","","","",""
"","image-keyboard-response","272","108300","0.0-405.0","3AWETUDC93EJN74H6Z6G1VST4VOIZG","ACSS93E03ZUGX","3A3KKYU7P33Z3BR9PPFZ5194ZCQMWU","","484.6000000014901","img/land6.png","75","489.6000000014901","2","1","false","1","1,0.5,0.5,0.5,1,0.5,0.5,0.5,1","",""
"","html-keyboard-response","273","108608","0.0-406.0","3AWETUDC93EJN74H6Z6G1VST4VOIZG","ACSS93E03ZUGX","3A3KKYU7P33Z3BR9PPFZ5194ZCQMWU","","null","<img src=""img/land6.png"" style=""width:200px; border:14px solid green;"">","null","","","","","","","",""
"","image-keyboard-response","274","109157","0.0-408.0","3AWETUDC93EJN74H6Z6G1VST4VOIZG","ACSS93E03ZUGX","3A3KKYU7P33Z3BR9PPFZ5194ZCQMWU","","542.6999999992549","img/land3.png","74","546.9000000022352","1","1","false","2","1,0.5,0.5,0.5,1,0.5,0.5,0.5,1","",""
"","html-keyboard-response","275","109464","0.0-409.0","3AWETUDC93EJN74H6Z6G1VST4VOIZG","ACSS93E03ZUGX","3A3KKYU7P33Z3BR9PPFZ5194ZCQMWU","","null","<img src=""img/land3.png"" style=""width:200px; border:14px solid green;"">","null","","","","","","","",""
"","image-keyboard-response","276","109961","0.0-411.0","3AWETUDC93EJN74H6Z6G1VST4VOIZG","ACSS93E03ZUGX","3A3KKYU7P33Z3BR9PPFZ5194ZCQMWU","","491.30000000074506","img/land1.png","74","495.19999999925494","1","1","false","3","1,0.5,0.5,0.5,1,0.5,0.5,0.5,1","",""
"","html-keyboard-response","277","110273","0.0-412.0","3AWETUDC93EJN74H6Z6G1VST4VOIZG","ACSS93E03ZUGX","3A3KKYU7P33Z3BR9PPFZ5194ZCQMWU","","null","<img src=""img/land1.png"" style=""width:200px; border:14px solid green;"">","null","","","","","","","",""
"","image-keyboard-response","278","110897","0.0-414.0","3AWETUDC93EJN74H6Z6G1VST4VOIZG","ACSS93E03ZUGX","3A3KKYU7P33Z3BR9PPFZ5194ZCQMWU","","617.6000000014901","img/land3.png","75","622","2","1","false","2","1,0.5,0.5,0.5,1,0.5,0.5,0.5,1","",""
"","html-keyboard-response","279","111209","0.0-415.0","3AWETUDC93EJN74H6Z6G1VST4VOIZG","ACSS93E03ZUGX","3A3KKYU7P33Z3BR9PPFZ5194ZCQMWU","","null","<img src=""img/land3.png"" style=""width:200px; border:14px solid green;"">","null","","","","","","","",""
"","image-keyboard-response","280","111773","0.0-417.0","3AWETUDC93EJN74H6Z6G1VST4VOIZG","ACSS93E03ZUGX","3A3KKYU7P33Z3BR9PPFZ5194ZCQMWU","","558.5","img/land1.png","74","563.1000000014901","1","1","false","3","1,0.5,0.5,0.5,1,0.5,0.5,0.5,1","",""
"","html-keyboard-response","281","112081","0.0-418.0","3AWETUDC93EJN74H6Z6G1VST4VOIZG","ACSS93E03ZUGX","3A3KKYU7P33Z3BR9PPFZ5194ZCQMWU","","null","<img src=""img/land1.png"" style=""width:200px; border:14px solid green;"">","null","","","","","","","",""
"","image-keyboard-response","282","112498","0.0-420.0","3AWETUDC93EJN74H6Z6G1VST4VOIZG","ACSS93E03ZUGX","3A3KKYU7P33Z3BR9PPFZ5194ZCQMWU","","410.3999999985099","img/land6.png","75","415.29999999701977","2","0","false","1","1,0.5,0.5,0.5,1,0.5,0.5,0.5,1","",""
"","html-keyboard-response","283","112809","0.0-421.0","3AWETUDC93EJN74H6Z6G1VST4VOIZG","ACSS93E03ZUGX","3A3KKYU7P33Z3BR9PPFZ5194ZCQMWU","","null","<img src=""img/land6.png"" style=""width:200px;border:14px solid red;"">","null","","","","","","","",""
"","image-keyboard-response","284","113025","0.0-423.0","3AWETUDC93EJN74H6Z6G1VST4VOIZG","ACSS93E03ZUGX","3A3KKYU7P33Z3BR9PPFZ5194ZCQMWU","","210.10000000149012","img/land6.png","74","214.79999999701977","1","1","false","1","1,0.5,0.5,0.5,1,0.5,0.5,0.5,1","",""
"","html-keyboard-response","285","113336","0.0-424.0","3AWETUDC93EJN74H6Z6G1VST4VOIZG","ACSS93E03ZUGX","3A3KKYU7P33Z3BR9PPFZ5194ZCQMWU","","null","<img src=""img/land6.png"" style=""width:200px; border:14px solid green;"">","null","","","","","","","",""
"","image-keyboard-response","286","114093","0.0-426.0","3AWETUDC93EJN74H6Z6G1VST4VOIZG","ACSS93E03ZUGX","3A3KKYU7P33Z3BR9PPFZ5194ZCQMWU","","750.3999999985099","img/land1.png","75","755","2","1","false","3","1,0.5,0.5,0.5,1,0.5,0.5,0.5,1","",""
"","html-keyboard-response","287","114400","0.0-427.0","3AWETUDC93EJN74H6Z6G1VST4VOIZG","ACSS93E03ZUGX","3A3KKYU7P33Z3BR9PPFZ5194ZCQMWU","","null","<img src=""img/land1.png"" style=""width:200px; border:14px solid green;"">","null","","","","","","","",""
"","image-keyboard-response","288","114932","0.0-429.0","3AWETUDC93EJN74H6Z6G1VST4VOIZG","ACSS93E03ZUGX","3A3KKYU7P33Z3BR9PPFZ5194ZCQMWU","","527.3000000007451","img/land6.png","74","531.5999999977648","1","1","false","1","1,0.5,0.5,0.5,1,0.5,0.5,0.5,1","",""
"","html-keyboard-response","289","115241","0.0-430.0","3AWETUDC93EJN74H6Z6G1VST4VOIZG","ACSS93E03ZUGX","3A3KKYU7P33Z3BR9PPFZ5194ZCQMWU","","null","<img src=""img/land6.png"" style=""width:200px; border:14px solid green;"">","null","","","","","","","",""
"","image-keyboard-response","290","115698","0.0-432.0","3AWETUDC93EJN74H6Z6G1VST4VOIZG","ACSS93E03ZUGX","3A3KKYU7P33Z3BR9PPFZ5194ZCQMWU","","451.5999999977648","img/land6.png","74","456.30000000074506","1","1","false","1","1,0.5,0.5,0.5,1,0.5,0.5,0.5,1","",""
"","html-keyboard-response","291","116008","0.0-433.0","3AWETUDC93EJN74H6Z6G1VST4VOIZG","ACSS93E03ZUGX","3A3KKYU7P33Z3BR9PPFZ5194ZCQMWU","","null","<img src=""img/land6.png"" style=""width:200px; border:14px solid green;"">","null","","","","","","","",""
"","image-keyboard-response","292","116330","0.0-435.0","3AWETUDC93EJN74H6Z6G1VST4VOIZG","ACSS93E03ZUGX","3A3KKYU7P33Z3BR9PPFZ5194ZCQMWU","","315.0999999977648","img/land6.png","74","319.8999999985099","1","1","false","1","1,0.5,0.5,0.5,1,0.5,0.5,0.5,1","",""
"","html-keyboard-response","293","116640","0.0-436.0","3AWETUDC93EJN74H6Z6G1VST4VOIZG","ACSS93E03ZUGX","3A3KKYU7P33Z3BR9PPFZ5194ZCQMWU","","null","<img src=""img/land6.png"" style=""width:200px; border:14px solid green;"">","null","","","","","","","",""
"","image-keyboard-response","294","116925","0.0-438.0","3AWETUDC93EJN74H6Z6G1VST4VOIZG","ACSS93E03ZUGX","3A3KKYU7P33Z3BR9PPFZ5194ZCQMWU","","277.9000000022352","img/land6.png","74","283","1","1","false","1","1,0.5,0.5,0.5,1,0.5,0.5,0.5,1","",""
"","html-keyboard-response","295","117232","0.0-439.0","3AWETUDC93EJN74H6Z6G1VST4VOIZG","ACSS93E03ZUGX","3A3KKYU7P33Z3BR9PPFZ5194ZCQMWU","","null","<img src=""img/land6.png"" style=""width:200px; border:14px solid green;"">","null","","","","","","","",""
"","image-keyboard-response","296","117479","0.0-441.0","3AWETUDC93EJN74H6Z6G1VST4VOIZG","ACSS93E03ZUGX","3A3KKYU7P33Z3BR9PPFZ5194ZCQMWU","","240.69999999925494","img/land6.png","74","245.5","1","1","false","1","1,0.5,0.5,0.5,1,0.5,0.5,0.5,1","",""
"","html-keyboard-response","297","117793","0.0-442.0","3AWETUDC93EJN74H6Z6G1VST4VOIZG","ACSS93E03ZUGX","3A3KKYU7P33Z3BR9PPFZ5194ZCQMWU","","null","<img src=""img/land6.png"" style=""width:200px; border:14px solid green;"">","null","","","","","","","",""
"","image-keyboard-response","298","117983","0.0-444.0","3AWETUDC93EJN74H6Z6G1VST4VOIZG","ACSS93E03ZUGX","3A3KKYU7P33Z3BR9PPFZ5194ZCQMWU","","185","img/land1.png","74","189.10000000149012","1","0","false","3","1,0.5,0.5,0.5,1,0.5,0.5,0.5,1","",""
"","html-keyboard-response","299","118296","0.0-445.0","3AWETUDC93EJN74H6Z6G1VST4VOIZG","ACSS93E03ZUGX","3A3KKYU7P33Z3BR9PPFZ5194ZCQMWU","","null","<img src=""img/land1.png"" style=""width:200px;border:14px solid red;"">","null","","","","","","","",""
"","image-keyboard-response","300","118730","0.0-447.0","3AWETUDC93EJN74H6Z6G1VST4VOIZG","ACSS93E03ZUGX","3A3KKYU7P33Z3BR9PPFZ5194ZCQMWU","","427.4000000022352","img/land3.png","75","431.69999999925494","2","1","false","2","1,0.5,0.5,0.5,1,0.5,0.5,0.5,1","",""
"","html-keyboard-response","301","119039","0.0-448.0","3AWETUDC93EJN74H6Z6G1VST4VOIZG","ACSS93E03ZUGX","3A3KKYU7P33Z3BR9PPFZ5194ZCQMWU","","null","<img src=""img/land3.png"" style=""width:200px; border:14px solid green;"">","null","","","","","","","",""
"","image-keyboard-response","302","119806","0.0-450.0","3AWETUDC93EJN74H6Z6G1VST4VOIZG","ACSS93E03ZUGX","3A3KKYU7P33Z3BR9PPFZ5194ZCQMWU","","761.3000000007451","img/land1.png","74","765.8000000007451","1","0","false","3","1,0.5,0.5,0.5,1,0.5,0.5,0.5,1","",""
"","html-keyboard-response","303","120120","0.0-451.0","3AWETUDC93EJN74H6Z6G1VST4VOIZG","ACSS93E03ZUGX","3A3KKYU7P33Z3BR9PPFZ5194ZCQMWU","","null","<img src=""img/land1.png"" style=""width:200px;border:14px solid red;"">","null","","","","","","","",""
"","image-keyboard-response","304","120833","0.0-453.0","3AWETUDC93EJN74H6Z6G1VST4VOIZG","ACSS93E03ZUGX","3A3KKYU7P33Z3BR9PPFZ5194ZCQMWU","","706.2000000029802","img/land3.png","75","710.8999999985099","2","1","false","2","1,0.5,0.5,0.5,1,0.5,0.5,0.5,1","",""
"","html-keyboard-response","305","121145","0.0-454.0","3AWETUDC93EJN74H6Z6G1VST4VOIZG","ACSS93E03ZUGX","3A3KKYU7P33Z3BR9PPFZ5194ZCQMWU","","null","<img src=""img/land3.png"" style=""width:200px; border:14px solid green;"">","null","","","","","","","",""
"","image-keyboard-response","306","121572","0.0-456.0","3AWETUDC93EJN74H6Z6G1VST4VOIZG","ACSS93E03ZUGX","3A3KKYU7P33Z3BR9PPFZ5194ZCQMWU","","420.69999999925494","img/land3.png","75","426.0999999977648","2","1","false","2","1,0.5,0.5,0.5,1,0.5,0.5,0.5,1","",""
"","html-keyboard-response","307","121880","0.0-457.0","3AWETUDC93EJN74H6Z6G1VST4VOIZG","ACSS93E03ZUGX","3A3KKYU7P33Z3BR9PPFZ5194ZCQMWU","","null","<img src=""img/land3.png"" style=""width:200px; border:14px solid green;"">","null","","","","","","","",""
"","image-keyboard-response","308","122457","0.0-459.0","3AWETUDC93EJN74H6Z6G1VST4VOIZG","ACSS93E03ZUGX","3A3KKYU7P33Z3BR9PPFZ5194ZCQMWU","","570.1999999992549","img/land1.png","74","575.0999999977648","1","1","false","3","1,0.5,0.5,0.5,1,0.5,0.5,0.5,1","",""
"","html-keyboard-response","309","122768","0.0-460.0","3AWETUDC93EJN74H6Z6G1VST4VOIZG","ACSS93E03ZUGX","3A3KKYU7P33Z3BR9PPFZ5194ZCQMWU","","null","<img src=""img/land1.png"" style=""width:200px; border:14px solid green;"">","null","","","","","","","",""
"","image-keyboard-response","310","123318","0.0-462.0","3AWETUDC93EJN74H6Z6G1VST4VOIZG","ACSS93E03ZUGX","3A3KKYU7P33Z3BR9PPFZ5194ZCQMWU","","543.5","img/land3.png","75","548.4000000022352","2","1","false","2","1,0.5,0.5,0.5,1,0.5,0.5,0.5,1","",""
"","html-keyboard-response","311","123632","0.0-463.0","3AWETUDC93EJN74H6Z6G1VST4VOIZG","ACSS93E03ZUGX","3A3KKYU7P33Z3BR9PPFZ5194ZCQMWU","","null","<img src=""img/land3.png"" style=""width:200px; border:14px solid green;"">","null","","","","","","","",""
"","image-keyboard-response","312","124107","0.0-465.0","3AWETUDC93EJN74H6Z6G1VST4VOIZG","ACSS93E03ZUGX","3A3KKYU7P33Z3BR9PPFZ5194ZCQMWU","","468","img/land1.png","74","472.80000000074506","1","1","false","3","1,0.5,0.5,0.5,1,0.5,0.5,0.5,1","",""
"","html-keyboard-response","313","124416","0.0-466.0","3AWETUDC93EJN74H6Z6G1VST4VOIZG","ACSS93E03ZUGX","3A3KKYU7P33Z3BR9PPFZ5194ZCQMWU","","null","<img src=""img/land1.png"" style=""width:200px; border:14px solid green;"">","null","","","","","","","",""
"","image-keyboard-response","314","124810","0.0-468.0","3AWETUDC93EJN74H6Z6G1VST4VOIZG","ACSS93E03ZUGX","3A3KKYU7P33Z3BR9PPFZ5194ZCQMWU","","386.0999999977648","img/land1.png","74","390.8999999985099","1","1","false","3","1,0.5,0.5,0.5,1,0.5,0.5,0.5,1","",""
"","html-keyboard-response","315","125121","0.0-469.0","3AWETUDC93EJN74H6Z6G1VST4VOIZG","ACSS93E03ZUGX","3A3KKYU7P33Z3BR9PPFZ5194ZCQMWU","","null","<img src=""img/land1.png"" style=""width:200px; border:14px solid green;"">","null","","","","","","","",""
"","image-keyboard-response","316","125584","0.0-471.0","3AWETUDC93EJN74H6Z6G1VST4VOIZG","ACSS93E03ZUGX","3A3KKYU7P33Z3BR9PPFZ5194ZCQMWU","","456.6000000014901","img/land6.png","75","462.0999999977648","2","1","false","1","1,0.5,0.5,0.5,1,0.5,0.5,0.5,1","",""
"","html-keyboard-response","317","125896","0.0-472.0","3AWETUDC93EJN74H6Z6G1VST4VOIZG","ACSS93E03ZUGX","3A3KKYU7P33Z3BR9PPFZ5194ZCQMWU","","null","<img src=""img/land6.png"" style=""width:200px; border:14px solid green;"">","null","","","","","","","",""
"","image-keyboard-response","318","126358","0.0-474.0","3AWETUDC93EJN74H6Z6G1VST4VOIZG","ACSS93E03ZUGX","3A3KKYU7P33Z3BR9PPFZ5194ZCQMWU","","455.20000000298023","img/land1.png","74","460.19999999925494","1","1","false","3","1,0.5,0.5,0.5,1,0.5,0.5,0.5,1","",""
"","html-keyboard-response","319","126673","0.0-475.0","3AWETUDC93EJN74H6Z6G1VST4VOIZG","ACSS93E03ZUGX","3A3KKYU7P33Z3BR9PPFZ5194ZCQMWU","","null","<img src=""img/land1.png"" style=""width:200px; border:14px solid green;"">","null","","","","","","","",""
"","image-keyboard-response","320","127054","0.0-477.0","3AWETUDC93EJN74H6Z6G1VST4VOIZG","ACSS93E03ZUGX","3A3KKYU7P33Z3BR9PPFZ5194ZCQMWU","","374.6000000014901","img/land1.png","74","380","1","0","false","3","1,0.5,0.5,0.5,1,0.5,0.5,0.5,1","",""
"","html-keyboard-response","321","127369","0.0-478.0","3AWETUDC93EJN74H6Z6G1VST4VOIZG","ACSS93E03ZUGX","3A3KKYU7P33Z3BR9PPFZ5194ZCQMWU","","null","<img src=""img/land1.png"" style=""width:200px;border:14px solid red;"">","null","","","","","","","",""
"","image-keyboard-response","322","127854","0.0-480.0","3AWETUDC93EJN74H6Z6G1VST4VOIZG","ACSS93E03ZUGX","3A3KKYU7P33Z3BR9PPFZ5194ZCQMWU","","479","img/land6.png","75","483.9000000022352","2","0","false","1","1,0.5,0.5,0.5,1,0.5,0.5,0.5,1","",""
"","html-keyboard-response","323","128168","0.0-481.0","3AWETUDC93EJN74H6Z6G1VST4VOIZG","ACSS93E03ZUGX","3A3KKYU7P33Z3BR9PPFZ5194ZCQMWU","","null","<img src=""img/land6.png"" style=""width:200px;border:14px solid red;"">","null","","","","","","","",""
"","image-keyboard-response","324","128423","0.0-483.0","3AWETUDC93EJN74H6Z6G1VST4VOIZG","ACSS93E03ZUGX","3A3KKYU7P33Z3BR9PPFZ5194ZCQMWU","","248.19999999925494","img/land6.png","75","252.80000000074506","2","1","false","1","1,0.5,0.5,0.5,1,0.5,0.5,0.5,1","",""
"","html-keyboard-response","325","128737","0.0-484.0","3AWETUDC93EJN74H6Z6G1VST4VOIZG","ACSS93E03ZUGX","3A3KKYU7P33Z3BR9PPFZ5194ZCQMWU","","null","<img src=""img/land6.png"" style=""width:200px; border:14px solid green;"">","null","","","","","","","",""
"","image-keyboard-response","326","129244","0.0-486.0","3AWETUDC93EJN74H6Z6G1VST4VOIZG","ACSS93E03ZUGX","3A3KKYU7P33Z3BR9PPFZ5194ZCQMWU","","500.5999999977648","img/land3.png","74","505.3999999985099","1","1","false","2","1,0.5,0.5,0.5,1,0.5,0.5,0.5,1","",""
"","html-keyboard-response","327","129553","0.0-487.0","3AWETUDC93EJN74H6Z6G1VST4VOIZG","ACSS93E03ZUGX","3A3KKYU7P33Z3BR9PPFZ5194ZCQMWU","","null","<img src=""img/land3.png"" style=""width:200px; border:14px solid green;"">","null","","","","","","","",""
"","image-keyboard-response","328","129870","0.0-489.0","3AWETUDC93EJN74H6Z6G1VST4VOIZG","ACSS93E03ZUGX","3A3KKYU7P33Z3BR9PPFZ5194ZCQMWU","","310.3999999985099","img/land1.png","74","314.8999999985099","1","1","false","3","1,0.5,0.5,0.5,1,0.5,0.5,0.5,1","",""
"","html-keyboard-response","329","130176","0.0-490.0","3AWETUDC93EJN74H6Z6G1VST4VOIZG","ACSS93E03ZUGX","3A3KKYU7P33Z3BR9PPFZ5194ZCQMWU","","null","<img src=""img/land1.png"" style=""width:200px; border:14px solid green;"">","null","","","","","","","",""
"","image-keyboard-response","330","130834","0.0-492.0","3AWETUDC93EJN74H6Z6G1VST4VOIZG","ACSS93E03ZUGX","3A3KKYU7P33Z3BR9PPFZ5194ZCQMWU","","653","img/land6.png","74","657","1","1","false","1","1,0.5,0.5,0.5,1,0.5,0.5,0.5,1","",""
"","html-keyboard-response","331","131144","0.0-493.0","3AWETUDC93EJN74H6Z6G1VST4VOIZG","ACSS93E03ZUGX","3A3KKYU7P33Z3BR9PPFZ5194ZCQMWU","","null","<img src=""img/land6.png"" style=""width:200px; border:14px solid green;"">","null","","","","","","","",""
"","image-keyboard-response","332","131516","0.0-495.0","3AWETUDC93EJN74H6Z6G1VST4VOIZG","ACSS93E03ZUGX","3A3KKYU7P33Z3BR9PPFZ5194ZCQMWU","","367.1000000014901","img/land6.png","74","370.30000000074506","1","1","false","1","1,0.5,0.5,0.5,1,0.5,0.5,0.5,1","",""
"","html-keyboard-response","333","131825","0.0-496.0","3AWETUDC93EJN74H6Z6G1VST4VOIZG","ACSS93E03ZUGX","3A3KKYU7P33Z3BR9PPFZ5194ZCQMWU","","null","<img src=""img/land6.png"" style=""width:200px; border:14px solid green;"">","null","","","","","","","",""
"","image-keyboard-response","334","132285","0.0-498.0","3AWETUDC93EJN74H6Z6G1VST4VOIZG","ACSS93E03ZUGX","3A3KKYU7P33Z3BR9PPFZ5194ZCQMWU","","453.69999999925494","img/land1.png","75","458.80000000074506","2","0","false","3","1,0.5,0.5,0.5,1,0.5,0.5,0.5,1","",""
"","html-keyboard-response","335","132593","0.0-499.0","3AWETUDC93EJN74H6Z6G1VST4VOIZG","ACSS93E03ZUGX","3A3KKYU7P33Z3BR9PPFZ5194ZCQMWU","","null","<img src=""img/land1.png"" style=""width:200px;border:14px solid red;"">","null","","","","","","","",""
"","image-keyboard-response","336","132977","0.0-501.0","3AWETUDC93EJN74H6Z6G1VST4VOIZG","ACSS93E03ZUGX","3A3KKYU7P33Z3BR9PPFZ5194ZCQMWU","","375.1000000014901","img/land1.png","75","381.3999999985099","2","0","false","3","1,0.5,0.5,0.5,1,0.5,0.5,0.5,1","",""
"","html-keyboard-response","337","133288","0.0-502.0","3AWETUDC93EJN74H6Z6G1VST4VOIZG","ACSS93E03ZUGX","3A3KKYU7P33Z3BR9PPFZ5194ZCQMWU","","null","<img src=""img/land1.png"" style=""width:200px;border:14px solid red;"">","null","","","","","","","",""
"","image-keyboard-response","338","133556","0.0-504.0","3AWETUDC93EJN74H6Z6G1VST4VOIZG","ACSS93E03ZUGX","3A3KKYU7P33Z3BR9PPFZ5194ZCQMWU","","261.19999999925494","img/land3.png","74","266.19999999925494","1","0","false","2","1,0.5,0.5,0.5,1,0.5,0.5,0.5,1","",""
"","html-keyboard-response","339","133865","0.0-505.0","3AWETUDC93EJN74H6Z6G1VST4VOIZG","ACSS93E03ZUGX","3A3KKYU7P33Z3BR9PPFZ5194ZCQMWU","","null","<img src=""img/land3.png"" style=""width:200px;border:14px solid red;"">","null","","","","","","","",""
"","image-keyboard-response","340","134270","0.0-507.0","3AWETUDC93EJN74H6Z6G1VST4VOIZG","ACSS93E03ZUGX","3A3KKYU7P33Z3BR9PPFZ5194ZCQMWU","","398.79999999701977","img/land3.png","75","403.8999999985099","2","1","false","2","1,0.5,0.5,0.5,1,0.5,0.5,0.5,1","",""
"","html-keyboard-response","341","134585","0.0-508.0","3AWETUDC93EJN74H6Z6G1VST4VOIZG","ACSS93E03ZUGX","3A3KKYU7P33Z3BR9PPFZ5194ZCQMWU","","null","<img src=""img/land3.png"" style=""width:200px; border:14px solid green;"">","null","","","","","","","",""
"","image-keyboard-response","342","135131","0.0-510.0","3AWETUDC93EJN74H6Z6G1VST4VOIZG","ACSS93E03ZUGX","3A3KKYU7P33Z3BR9PPFZ5194ZCQMWU","","539.6999999992549","img/land1.png","74","544.0999999977648","1","1","false","3","1,0.5,0.5,0.5,1,0.5,0.5,0.5,1","",""
"","html-keyboard-response","343","135440","0.0-511.0","3AWETUDC93EJN74H6Z6G1VST4VOIZG","ACSS93E03ZUGX","3A3KKYU7P33Z3BR9PPFZ5194ZCQMWU","","null","<img src=""img/land1.png"" style=""width:200px; border:14px solid green;"">","null","","","","","","","",""
"","image-keyboard-response","344","135777","0.0-513.0","3AWETUDC93EJN74H6Z6G1VST4VOIZG","ACSS93E03ZUGX","3A3KKYU7P33Z3BR9PPFZ5194ZCQMWU","","330.5999999977648","img/land1.png","74","335.30000000074506","1","0","false","3","1,0.5,0.5,0.5,1,0.5,0.5,0.5,1","",""
"","html-keyboard-response","345","136088","0.0-514.0","3AWETUDC93EJN74H6Z6G1VST4VOIZG","ACSS93E03ZUGX","3A3KKYU7P33Z3BR9PPFZ5194ZCQMWU","","null","<img src=""img/land1.png"" style=""width:200px;border:14px solid red;"">","null","","","","","","","",""
"","image-keyboard-response","346","136676","0.0-516.0","3AWETUDC93EJN74H6Z6G1VST4VOIZG","ACSS93E03ZUGX","3A3KKYU7P33Z3BR9PPFZ5194ZCQMWU","","580.9000000022352","img/land3.png","74","585.6000000014901","1","1","false","2","1,0.5,0.5,0.5,1,0.5,0.5,0.5,1","",""
"","html-keyboard-response","347","136985","0.0-517.0","3AWETUDC93EJN74H6Z6G1VST4VOIZG","ACSS93E03ZUGX","3A3KKYU7P33Z3BR9PPFZ5194ZCQMWU","","null","<img src=""img/land3.png"" style=""width:200px; border:14px solid green;"">","null","","","","","","","",""
"","image-keyboard-response","348","137280","0.0-519.0","3AWETUDC93EJN74H6Z6G1VST4VOIZG","ACSS93E03ZUGX","3A3KKYU7P33Z3BR9PPFZ5194ZCQMWU","","288.6000000014901","img/land3.png","74","293.69999999925494","1","0","false","2","1,0.5,0.5,0.5,1,0.5,0.5,0.5,1","",""
"","html-keyboard-response","349","137593","0.0-520.0","3AWETUDC93EJN74H6Z6G1VST4VOIZG","ACSS93E03ZUGX","3A3KKYU7P33Z3BR9PPFZ5194ZCQMWU","","null","<img src=""img/land3.png"" style=""width:200px;border:14px solid red;"">","null","","","","","","","",""
"","image-keyboard-response","350","138091","0.0-522.0","3AWETUDC93EJN74H6Z6G1VST4VOIZG","ACSS93E03ZUGX","3A3KKYU7P33Z3BR9PPFZ5194ZCQMWU","","490.8999999985099","img/land1.png","75","496.1000000014901","2","0","false","3","1,0.5,0.5,0.5,1,0.5,0.5,0.5,1","",""
"","html-keyboard-response","351","138401","0.0-523.0","3AWETUDC93EJN74H6Z6G1VST4VOIZG","ACSS93E03ZUGX","3A3KKYU7P33Z3BR9PPFZ5194ZCQMWU","","null","<img src=""img/land1.png"" style=""width:200px;border:14px solid red;"">","null","","","","","","","",""
"","image-keyboard-response","352","138851","0.0-525.0","3AWETUDC93EJN74H6Z6G1VST4VOIZG","ACSS93E03ZUGX","3A3KKYU7P33Z3BR9PPFZ5194ZCQMWU","","443.5999999977648","img/land6.png","74","448.3999999985099","1","1","false","1","1,0.5,0.5,0.5,1,0.5,0.5,0.5,1","",""
"","html-keyboard-response","353","139160","0.0-526.0","3AWETUDC93EJN74H6Z6G1VST4VOIZG","ACSS93E03ZUGX","3A3KKYU7P33Z3BR9PPFZ5194ZCQMWU","","null","<img src=""img/land6.png"" style=""width:200px; border:14px solid green;"">","null","","","","","","","",""
"","image-keyboard-response","354","139517","0.0-528.0","3AWETUDC93EJN74H6Z6G1VST4VOIZG","ACSS93E03ZUGX","3A3KKYU7P33Z3BR9PPFZ5194ZCQMWU","","350.1000000014901","img/land3.png","74","354.29999999701977","1","0","false","2","1,0.5,0.5,0.5,1,0.5,0.5,0.5,1","",""
"","html-keyboard-response","355","139824","0.0-529.0","3AWETUDC93EJN74H6Z6G1VST4VOIZG","ACSS93E03ZUGX","3A3KKYU7P33Z3BR9PPFZ5194ZCQMWU","","null","<img src=""img/land3.png"" style=""width:200px;border:14px solid red;"">","null","","","","","","","",""
"","image-keyboard-response","356","140325","0.0-531.0","3AWETUDC93EJN74H6Z6G1VST4VOIZG","ACSS93E03ZUGX","3A3KKYU7P33Z3BR9PPFZ5194ZCQMWU","","494.0999999977648","img/land1.png","75","498.5","2","1","false","3","1,0.5,0.5,0.5,1,0.5,0.5,0.5,1","",""
"","html-keyboard-response","357","140632","0.0-532.0","3AWETUDC93EJN74H6Z6G1VST4VOIZG","ACSS93E03ZUGX","3A3KKYU7P33Z3BR9PPFZ5194ZCQMWU","","null","<img src=""img/land1.png"" style=""width:200px; border:14px solid green;"">","null","","","","","","","",""
"","image-keyboard-response","358","140900","0.0-534.0","3AWETUDC93EJN74H6Z6G1VST4VOIZG","ACSS93E03ZUGX","3A3KKYU7P33Z3BR9PPFZ5194ZCQMWU","","261","img/land6.png","75","265.5999999977648","2","0","false","1","1,0.5,0.5,0.5,1,0.5,0.5,0.5,1","",""
"","html-keyboard-response","359","141208","0.0-535.0","3AWETUDC93EJN74H6Z6G1VST4VOIZG","ACSS93E03ZUGX","3A3KKYU7P33Z3BR9PPFZ5194ZCQMWU","","null","<img src=""img/land6.png"" style=""width:200px;border:14px solid red;"">","null","","","","","","","",""
"","image-keyboard-response","360","141464","0.0-537.0","3AWETUDC93EJN74H6Z6G1VST4VOIZG","ACSS93E03ZUGX","3A3KKYU7P33Z3BR9PPFZ5194ZCQMWU","","249.30000000074506","img/land1.png","74","254.10000000149012","1","0","false","3","1,0.5,0.5,0.5,1,0.5,0.5,0.5,1","",""
"","html-keyboard-response","361","141776","0.0-538.0","3AWETUDC93EJN74H6Z6G1VST4VOIZG","ACSS93E03ZUGX","3A3KKYU7P33Z3BR9PPFZ5194ZCQMWU","","null","<img src=""img/land1.png"" style=""width:200px;border:14px solid red;"">","null","","","","","","","",""
"","image-keyboard-response","362","142004","0.0-540.0","3AWETUDC93EJN74H6Z6G1VST4VOIZG","ACSS93E03ZUGX","3A3KKYU7P33Z3BR9PPFZ5194ZCQMWU","","220.40000000223517","img/land1.png","75","225.10000000149012","2","0","false","3","1,0.5,0.5,0.5,1,0.5,0.5,0.5,1","",""
"","html-keyboard-response","363","142313","0.0-541.0","3AWETUDC93EJN74H6Z6G1VST4VOIZG","ACSS93E03ZUGX","3A3KKYU7P33Z3BR9PPFZ5194ZCQMWU","","null","<img src=""img/land1.png"" style=""width:200px;border:14px solid red;"">","null","","","","","","","",""
"","instructions","364","144192","0.0-543.0","3AWETUDC93EJN74H6Z6G1VST4VOIZG","ACSS93E03ZUGX","3A3KKYU7P33Z3BR9PPFZ5194ZCQMWU","[{""page_index"":0,""viewing_time"":1872.699999999255}]","1873.8999999985099","","","","","","","","","",""
"","survey-text","365","148404","0.0-544.0-0.0","3AWETUDC93EJN74H6Z6G1VST4VOIZG","ACSS93E03ZUGX","3A3KKYU7P33Z3BR9PPFZ5194ZCQMWU","","4191.39999999851","","","","","","","","","{""Q0"":""39""}",""
"","survey-multi-choice","366","150329","0.0-544.0-1.0","3AWETUDC93EJN74H6Z6G1VST4VOIZG","ACSS93E03ZUGX","3A3KKYU7P33Z3BR9PPFZ5194ZCQMWU","","1916.7000000029802","","","","","","","","","{""gender"":""F""}","[0]"
"","survey-text","367","154436","0.0-545.0","3AWETUDC93EJN74H6Z6G1VST4VOIZG","ACSS93E03ZUGX","3A3KKYU7P33Z3BR9PPFZ5194ZCQMWU","","4085.400000002235","","","","","","","","","{""Q0"":""ACSS93E03ZUGX""}",""
