"success","trial_type","trial_index","time_elapsed","internal_node_id","assignmentID","mturkID","hitID","view_history","rt","stimulus","key_press","reactionTime","a","r","s","cond","reward_cond","reward_cond_actual","reward_matrix_idx","responses","question_order"
"true","fullscreen","0","5450","0.0-0.0","37M28K1J0RZEHAGFCPBHW3GKAZ2JAA","AD3V6XGQWRD6E","3WPCIUYH1AU470H2HRBLZRFBM95TDS","","","","","","","","","","","","","",""
"","instructions","1","42960","0.0-1.0","37M28K1J0RZEHAGFCPBHW3GKAZ2JAA","AD3V6XGQWRD6E","3WPCIUYH1AU470H2HRBLZRFBM95TDS","[{""page_index"":0,""viewing_time"":3753.100000023842},{""page_index"":1,""viewing_time"":3091.899999976158},{""page_index"":2,""viewing_time"":14325},{""page_index"":3,""viewing_time"":5781.899999976158},{""page_index"":4,""viewing_time"":3943.899999976158},{""page_index"":5,""viewing_time"":5043},{""page_index"":6,""viewing_time"":1567.6000000238419}]","37506.89999997616","","","","","","","","","","","",""
"","image-keyboard-response","2","43612","0.0-2.0","37M28K1J0RZEHAGFCPBHW3GKAZ2JAA","AD3V6XGQWRD6E","3WPCIUYH1AU470H2HRBLZRFBM95TDS","","649.2999999523163","img/land1.png","74","651.1000000238419","1","1","1","2","1,0.7,0.7,0.7,1,0.7,0.7,0.7,1","1,0.7,0.7,0.7,1,0.7,0.7,0.7,1","","",""
"","html-keyboard-response","3","43914","0.0-3.0","37M28K1J0RZEHAGFCPBHW3GKAZ2JAA","AD3V6XGQWRD6E","3WPCIUYH1AU470H2HRBLZRFBM95TDS","","null","<img src=""img/land1.png"" style=""width:200px; border:14px solid green;"">","null","","","","","","","","","",""
"","image-keyboard-response","4","44371","0.0-4.0","37M28K1J0RZEHAGFCPBHW3GKAZ2JAA","AD3V6XGQWRD6E","3WPCIUYH1AU470H2HRBLZRFBM95TDS","","454.5","img/land1.png","74","456","1","1","1","2","1,0.7,0.7,0.7,1,0.7,0.7,0.7,1","1,0.7,0.7,0.7,1,0.7,0.7,0.7,1","","",""
"","html-keyboard-response","5","44673","0.0-5.0","37M28K1J0RZEHAGFCPBHW3GKAZ2JAA","AD3V6XGQWRD6E","3WPCIUYH1AU470H2HRBLZRFBM95TDS","","null","<img src=""img/land1.png"" style=""width:200px; border:14px solid green;"">","null","","","","","","","","","",""
"","image-keyboard-response","6","44994","0.0-6.0","37M28K1J0RZEHAGFCPBHW3GKAZ2JAA","AD3V6XGQWRD6E","3WPCIUYH1AU470H2HRBLZRFBM95TDS","","319.8000000715256","img/land1.png","74","321","1","1","1","2","1,0.7,0.7,0.7,1,0.7,0.7,0.7,1","1,0.7,0.7,0.7,1,0.7,0.7,0.7,1","","",""
"","html-keyboard-response","7","45296","0.0-7.0","37M28K1J0RZEHAGFCPBHW3GKAZ2JAA","AD3V6XGQWRD6E","3WPCIUYH1AU470H2HRBLZRFBM95TDS","","null","<img src=""img/land1.png"" style=""width:200px; border:14px solid green;"">","null","","","","","","","","","",""
"","image-keyboard-response","8","45627","0.0-8.0","37M28K1J0RZEHAGFCPBHW3GKAZ2JAA","AD3V6XGQWRD6E","3WPCIUYH1AU470H2HRBLZRFBM95TDS","","329.40000009536743","img/land1.png","74","330.8000000715256","1","1","1","2","1,0.7,0.7,0.7,1,0.7,0.7,0.7,1","1,0.7,0.7,0.7,1,0.7,0.7,0.7,1","","",""
"","html-keyboard-response","9","45929","0.0-9.0","37M28K1J0RZEHAGFCPBHW3GKAZ2JAA","AD3V6XGQWRD6E","3WPCIUYH1AU470H2HRBLZRFBM95TDS","","null","<img src=""img/land1.png"" style=""width:200px; border:14px solid green;"">","null","","","","","","","","","",""
"","image-keyboard-response","10","46299","0.0-10.0","37M28K1J0RZEHAGFCPBHW3GKAZ2JAA","AD3V6XGQWRD6E","3WPCIUYH1AU470H2HRBLZRFBM95TDS","","367.8000000715256","img/land1.png","74","369.1999999284744","1","1","1","2","1,0.7,0.7,0.7,1,0.7,0.7,0.7,1","1,0.7,0.7,0.7,1,0.7,0.7,0.7,1","","",""
"","html-keyboard-response","11","46601","0.0-11.0","37M28K1J0RZEHAGFCPBHW3GKAZ2JAA","AD3V6XGQWRD6E","3WPCIUYH1AU470H2HRBLZRFBM95TDS","","null","<img src=""img/land1.png"" style=""width:200px; border:14px solid green;"">","null","","","","","","","","","",""
"","image-keyboard-response","12","46930","0.0-12.0","37M28K1J0RZEHAGFCPBHW3GKAZ2JAA","AD3V6XGQWRD6E","3WPCIUYH1AU470H2HRBLZRFBM95TDS","","327.7000000476837","img/land1.png","74","328.89999997615814","1","1","1","2","1,0.7,0.7,0.7,1,0.7,0.7,0.7,1","1,0.7,0.7,0.7,1,0.7,0.7,0.7,1","","",""
"","html-keyboard-response","13","47232","0.0-13.0","37M28K1J0RZEHAGFCPBHW3GKAZ2JAA","AD3V6XGQWRD6E","3WPCIUYH1AU470H2HRBLZRFBM95TDS","","null","<img src=""img/land1.png"" style=""width:200px; border:14px solid green;"">","null","","","","","","","","","",""
"","image-keyboard-response","14","48019","0.0-14.0","37M28K1J0RZEHAGFCPBHW3GKAZ2JAA","AD3V6XGQWRD6E","3WPCIUYH1AU470H2HRBLZRFBM95TDS","","785","img/land3.png","76","786.3000000715256","3","1","3","2","1,0.7,0.7,0.7,1,0.7,0.7,0.7,1","1,0.7,0.7,0.7,1,0.7,0.7,0.7,1","","",""
"","html-keyboard-response","15","48322","0.0-15.0","37M28K1J0RZEHAGFCPBHW3GKAZ2JAA","AD3V6XGQWRD6E","3WPCIUYH1AU470H2HRBLZRFBM95TDS","","null","<img src=""img/land3.png"" style=""width:200px; border:14px solid green;"">","null","","","","","","","","","",""
"","image-keyboard-response","16","48667","0.0-16.0","37M28K1J0RZEHAGFCPBHW3GKAZ2JAA","AD3V6XGQWRD6E","3WPCIUYH1AU470H2HRBLZRFBM95TDS","","344.1999999284744","img/land2.png","76","345.5","3","1","2","2","1,0.7,0.7,0.7,1,0.7,0.7,0.7,1","1,0.7,0.7,0.7,1,0.7,0.7,0.7,1","","",""
"","html-keyboard-response","17","48971","0.0-17.0","37M28K1J0RZEHAGFCPBHW3GKAZ2JAA","AD3V6XGQWRD6E","3WPCIUYH1AU470H2HRBLZRFBM95TDS","","null","<img src=""img/land2.png"" style=""width:200px; border:14px solid green;"">","null","","","","","","","","","",""
"","image-keyboard-response","18","49691","0.0-18.0","37M28K1J0RZEHAGFCPBHW3GKAZ2JAA","AD3V6XGQWRD6E","3WPCIUYH1AU470H2HRBLZRFBM95TDS","","718.6000000238419","img/land1.png","74","719.8999999761581","1","1","1","2","1,0.7,0.7,0.7,1,0.7,0.7,0.7,1","1,0.7,0.7,0.7,1,0.7,0.7,0.7,1","","",""
"","html-keyboard-response","19","49993","0.0-19.0","37M28K1J0RZEHAGFCPBHW3GKAZ2JAA","AD3V6XGQWRD6E","3WPCIUYH1AU470H2HRBLZRFBM95TDS","","null","<img src=""img/land1.png"" style=""width:200px; border:14px solid green;"">","null","","","","","","","","","",""
"","image-keyboard-response","20","50331","0.0-20.0","37M28K1J0RZEHAGFCPBHW3GKAZ2JAA","AD3V6XGQWRD6E","3WPCIUYH1AU470H2HRBLZRFBM95TDS","","336.40000009536743","img/land1.png","74","337.60000002384186","1","1","1","2","1,0.7,0.7,0.7,1,0.7,0.7,0.7,1","1,0.7,0.7,0.7,1,0.7,0.7,0.7,1","","",""
"","html-keyboard-response","21","50633","0.0-21.0","37M28K1J0RZEHAGFCPBHW3GKAZ2JAA","AD3V6XGQWRD6E","3WPCIUYH1AU470H2HRBLZRFBM95TDS","","null","<img src=""img/land1.png"" style=""width:200px; border:14px solid green;"">","null","","","","","","","","","",""
"","image-keyboard-response","22","51054","0.0-22.0","37M28K1J0RZEHAGFCPBHW3GKAZ2JAA","AD3V6XGQWRD6E","3WPCIUYH1AU470H2HRBLZRFBM95TDS","","419.3000000715256","img/land3.png","76","420.2999999523163","3","1","3","2","1,0.7,0.7,0.7,1,0.7,0.7,0.7,1","1,0.7,0.7,0.7,1,0.7,0.7,0.7,1","","",""
"","html-keyboard-response","23","51355","0.0-23.0","37M28K1J0RZEHAGFCPBHW3GKAZ2JAA","AD3V6XGQWRD6E","3WPCIUYH1AU470H2HRBLZRFBM95TDS","","null","<img src=""img/land3.png"" style=""width:200px; border:14px solid green;"">","null","","","","","","","","","",""
"","image-keyboard-response","24","51779","0.0-24.0","37M28K1J0RZEHAGFCPBHW3GKAZ2JAA","AD3V6XGQWRD6E","3WPCIUYH1AU470H2HRBLZRFBM95TDS","","422.2999999523163","img/land1.png","74","423.39999997615814","1","1","1","2","1,0.7,0.7,0.7,1,0.7,0.7,0.7,1","1,0.7,0.7,0.7,1,0.7,0.7,0.7,1","","",""
"","html-keyboard-response","25","52081","0.0-25.0","37M28K1J0RZEHAGFCPBHW3GKAZ2JAA","AD3V6XGQWRD6E","3WPCIUYH1AU470H2HRBLZRFBM95TDS","","null","<img src=""img/land1.png"" style=""width:200px; border:14px solid green;"">","null","","","","","","","","","",""
"","image-keyboard-response","26","52723","0.0-26.0","37M28K1J0RZEHAGFCPBHW3GKAZ2JAA","AD3V6XGQWRD6E","3WPCIUYH1AU470H2HRBLZRFBM95TDS","","640","img/land3.png","76","641.2000000476837","3","1","3","2","1,0.7,0.7,0.7,1,0.7,0.7,0.7,1","1,0.7,0.7,0.7,1,0.7,0.7,0.7,1","","",""
"","html-keyboard-response","27","53054","0.0-27.0","37M28K1J0RZEHAGFCPBHW3GKAZ2JAA","AD3V6XGQWRD6E","3WPCIUYH1AU470H2HRBLZRFBM95TDS","","null","<img src=""img/land3.png"" style=""width:200px; border:14px solid green;"">","null","","","","","","","","","",""
"","image-keyboard-response","28","53467","0.0-28.0","37M28K1J0RZEHAGFCPBHW3GKAZ2JAA","AD3V6XGQWRD6E","3WPCIUYH1AU470H2HRBLZRFBM95TDS","","411.8000000715256","img/land1.png","74","413","1","1","1","2","1,0.7,0.7,0.7,1,0.7,0.7,0.7,1","1,0.7,0.7,0.7,1,0.7,0.7,0.7,1","","",""
"","html-keyboard-response","29","53768","0.0-29.0","37M28K1J0RZEHAGFCPBHW3GKAZ2JAA","AD3V6XGQWRD6E","3WPCIUYH1AU470H2HRBLZRFBM95TDS","","null","<img src=""img/land1.png"" style=""width:200px; border:14px solid green;"">","null","","","","","","","","","",""
"","image-keyboard-response","30","54123","0.0-30.0","37M28K1J0RZEHAGFCPBHW3GKAZ2JAA","AD3V6XGQWRD6E","3WPCIUYH1AU470H2HRBLZRFBM95TDS","","352.60000002384186","img/land1.png","74","354.10000002384186","1","1","1","2","1,0.7,0.7,0.7,1,0.7,0.7,0.7,1","1,0.7,0.7,0.7,1,0.7,0.7,0.7,1","","",""
"","html-keyboard-response","31","54424","0.0-31.0","37M28K1J0RZEHAGFCPBHW3GKAZ2JAA","AD3V6XGQWRD6E","3WPCIUYH1AU470H2HRBLZRFBM95TDS","","null","<img src=""img/land1.png"" style=""width:200px; border:14px solid green;"">","null","","","","","","","","","",""
"","image-keyboard-response","32","54683","0.0-32.0","37M28K1J0RZEHAGFCPBHW3GKAZ2JAA","AD3V6XGQWRD6E","3WPCIUYH1AU470H2HRBLZRFBM95TDS","","257.2000000476837","img/land1.png","74","258","1","1","1","2","1,0.7,0.7,0.7,1,0.7,0.7,0.7,1","1,0.7,0.7,0.7,1,0.7,0.7,0.7,1","","",""
"","html-keyboard-response","33","54984","0.0-33.0","37M28K1J0RZEHAGFCPBHW3GKAZ2JAA","AD3V6XGQWRD6E","3WPCIUYH1AU470H2HRBLZRFBM95TDS","","null","<img src=""img/land1.png"" style=""width:200px; border:14px solid green;"">","null","","","","","","","","","",""
"","image-keyboard-response","34","55434","0.0-34.0","37M28K1J0RZEHAGFCPBHW3GKAZ2JAA","AD3V6XGQWRD6E","3WPCIUYH1AU470H2HRBLZRFBM95TDS","","449.10000002384186","img/land1.png","74","450","1","1","1","2","1,0.7,0.7,0.7,1,0.7,0.7,0.7,1","1,0.7,0.7,0.7,1,0.7,0.7,0.7,1","","",""
"","html-keyboard-response","35","55736","0.0-35.0","37M28K1J0RZEHAGFCPBHW3GKAZ2JAA","AD3V6XGQWRD6E","3WPCIUYH1AU470H2HRBLZRFBM95TDS","","null","<img src=""img/land1.png"" style=""width:200px; border:14px solid green;"">","null","","","","","","","","","",""
"","image-keyboard-response","36","56146","0.0-36.0","37M28K1J0RZEHAGFCPBHW3GKAZ2JAA","AD3V6XGQWRD6E","3WPCIUYH1AU470H2HRBLZRFBM95TDS","","408.7000000476837","img/land3.png","76","410.10000002384186","3","1","3","2","1,0.7,0.7,0.7,1,0.7,0.7,0.7,1","1,0.7,0.7,0.7,1,0.7,0.7,0.7,1","","",""
"","html-keyboard-response","37","56448","0.0-37.0","37M28K1J0RZEHAGFCPBHW3GKAZ2JAA","AD3V6XGQWRD6E","3WPCIUYH1AU470H2HRBLZRFBM95TDS","","null","<img src=""img/land3.png"" style=""width:200px; border:14px solid green;"">","null","","","","","","","","","",""
"","image-keyboard-response","38","56825","0.0-38.0","37M28K1J0RZEHAGFCPBHW3GKAZ2JAA","AD3V6XGQWRD6E","3WPCIUYH1AU470H2HRBLZRFBM95TDS","","375.7000000476837","img/land3.png","76","377.1999999284744","3","1","3","2","1,0.7,0.7,0.7,1,0.7,0.7,0.7,1","1,0.7,0.7,0.7,1,0.7,0.7,0.7,1","","",""
"","html-keyboard-response","39","57128","0.0-39.0","37M28K1J0RZEHAGFCPBHW3GKAZ2JAA","AD3V6XGQWRD6E","3WPCIUYH1AU470H2HRBLZRFBM95TDS","","null","<img src=""img/land3.png"" style=""width:200px; border:14px solid green;"">","null","","","","","","","","","",""
"","image-keyboard-response","40","57706","0.0-40.0","37M28K1J0RZEHAGFCPBHW3GKAZ2JAA","AD3V6XGQWRD6E","3WPCIUYH1AU470H2HRBLZRFBM95TDS","","576.7999999523163","img/land1.png","74","578.1000000238419","1","1","1","2","1,0.7,0.7,0.7,1,0.7,0.7,0.7,1","1,0.7,0.7,0.7,1,0.7,0.7,0.7,1","","",""
"","html-keyboard-response","41","58008","0.0-41.0","37M28K1J0RZEHAGFCPBHW3GKAZ2JAA","AD3V6XGQWRD6E","3WPCIUYH1AU470H2HRBLZRFBM95TDS","","null","<img src=""img/land1.png"" style=""width:200px; border:14px solid green;"">","null","","","","","","","","","",""
"","image-keyboard-response","42","58642","0.0-42.0","37M28K1J0RZEHAGFCPBHW3GKAZ2JAA","AD3V6XGQWRD6E","3WPCIUYH1AU470H2HRBLZRFBM95TDS","","632.7999999523163","img/land2.png","75","634.3000000715256","2","1","2","2","1,0.7,0.7,0.7,1,0.7,0.7,0.7,1","1,0.7,0.7,0.7,1,0.7,0.7,0.7,1","","",""
"","html-keyboard-response","43","58945","0.0-43.0","37M28K1J0RZEHAGFCPBHW3GKAZ2JAA","AD3V6XGQWRD6E","3WPCIUYH1AU470H2HRBLZRFBM95TDS","","null","<img src=""img/land2.png"" style=""width:200px; border:14px solid green;"">","null","","","","","","","","","",""
"","image-keyboard-response","44","59474","0.0-44.0","37M28K1J0RZEHAGFCPBHW3GKAZ2JAA","AD3V6XGQWRD6E","3WPCIUYH1AU470H2HRBLZRFBM95TDS","","527.6000000238419","img/land1.png","74","528.7000000476837","1","1","1","2","1,0.7,0.7,0.7,1,0.7,0.7,0.7,1","1,0.7,0.7,0.7,1,0.7,0.7,0.7,1","","",""
"","html-keyboard-response","45","59778","0.0-45.0","37M28K1J0RZEHAGFCPBHW3GKAZ2JAA","AD3V6XGQWRD6E","3WPCIUYH1AU470H2HRBLZRFBM95TDS","","null","<img src=""img/land1.png"" style=""width:200px; border:14px solid green;"">","null","","","","","","","","","",""
"","image-keyboard-response","46","60202","0.0-46.0","37M28K1J0RZEHAGFCPBHW3GKAZ2JAA","AD3V6XGQWRD6E","3WPCIUYH1AU470H2HRBLZRFBM95TDS","","422.5","img/land1.png","74","423.6999999284744","1","1","1","2","1,0.7,0.7,0.7,1,0.7,0.7,0.7,1","1,0.7,0.7,0.7,1,0.7,0.7,0.7,1","","",""
"","html-keyboard-response","47","60504","0.0-47.0","37M28K1J0RZEHAGFCPBHW3GKAZ2JAA","AD3V6XGQWRD6E","3WPCIUYH1AU470H2HRBLZRFBM95TDS","","null","<img src=""img/land1.png"" style=""width:200px; border:14px solid green;"">","null","","","","","","","","","",""
"","image-keyboard-response","48","60988","0.0-48.0","37M28K1J0RZEHAGFCPBHW3GKAZ2JAA","AD3V6XGQWRD6E","3WPCIUYH1AU470H2HRBLZRFBM95TDS","","482","img/land2.png","76","483.2999999523163","3","1","2","2","1,0.7,0.7,0.7,1,0.7,0.7,0.7,1","1,0.7,0.7,0.7,1,0.7,0.7,0.7,1","","",""
"","html-keyboard-response","49","61291","0.0-49.0","37M28K1J0RZEHAGFCPBHW3GKAZ2JAA","AD3V6XGQWRD6E","3WPCIUYH1AU470H2HRBLZRFBM95TDS","","null","<img src=""img/land2.png"" style=""width:200px; border:14px solid green;"">","null","","","","","","","","","",""
"","image-keyboard-response","50","62202","0.0-50.0","37M28K1J0RZEHAGFCPBHW3GKAZ2JAA","AD3V6XGQWRD6E","3WPCIUYH1AU470H2HRBLZRFBM95TDS","","910.2999999523163","img/land1.png","74","911.6000000238419","1","1","1","2","1,0.7,0.7,0.7,1,0.7,0.7,0.7,1","1,0.7,0.7,0.7,1,0.7,0.7,0.7,1","","",""
"","html-keyboard-response","51","62504","0.0-51.0","37M28K1J0RZEHAGFCPBHW3GKAZ2JAA","AD3V6XGQWRD6E","3WPCIUYH1AU470H2HRBLZRFBM95TDS","","null","<img src=""img/land1.png"" style=""width:200px; border:14px solid green;"">","null","","","","","","","","","",""
"","image-keyboard-response","52","63090","0.0-52.0","37M28K1J0RZEHAGFCPBHW3GKAZ2JAA","AD3V6XGQWRD6E","3WPCIUYH1AU470H2HRBLZRFBM95TDS","","584.4000000953674","img/land2.png","75","585.3999999761581","2","1","2","2","1,0.7,0.7,0.7,1,0.7,0.7,0.7,1","1,0.7,0.7,0.7,1,0.7,0.7,0.7,1","","",""
"","html-keyboard-response","53","63392","0.0-53.0","37M28K1J0RZEHAGFCPBHW3GKAZ2JAA","AD3V6XGQWRD6E","3WPCIUYH1AU470H2HRBLZRFBM95TDS","","null","<img src=""img/land2.png"" style=""width:200px; border:14px solid green;"">","null","","","","","","","","","",""
"","image-keyboard-response","54","64098","0.0-54.0","37M28K1J0RZEHAGFCPBHW3GKAZ2JAA","AD3V6XGQWRD6E","3WPCIUYH1AU470H2HRBLZRFBM95TDS","","704.6000000238419","img/land3.png","76","705.7999999523163","3","1","3","2","1,0.7,0.7,0.7,1,0.7,0.7,0.7,1","1,0.7,0.7,0.7,1,0.7,0.7,0.7,1","","",""
"","html-keyboard-response","55","64399","0.0-55.0","37M28K1J0RZEHAGFCPBHW3GKAZ2JAA","AD3V6XGQWRD6E","3WPCIUYH1AU470H2HRBLZRFBM95TDS","","null","<img src=""img/land3.png"" style=""width:200px; border:14px solid green;"">","null","","","","","","","","","",""
"","image-keyboard-response","56","64817","0.0-56.0","37M28K1J0RZEHAGFCPBHW3GKAZ2JAA","AD3V6XGQWRD6E","3WPCIUYH1AU470H2HRBLZRFBM95TDS","","416.60000002384186","img/land1.png","74","417.7999999523163","1","1","1","2","1,0.7,0.7,0.7,1,0.7,0.7,0.7,1","1,0.7,0.7,0.7,1,0.7,0.7,0.7,1","","",""
"","html-keyboard-response","57","65120","0.0-57.0","37M28K1J0RZEHAGFCPBHW3GKAZ2JAA","AD3V6XGQWRD6E","3WPCIUYH1AU470H2HRBLZRFBM95TDS","","null","<img src=""img/land1.png"" style=""width:200px; border:14px solid green;"">","null","","","","","","","","","",""
"","image-keyboard-response","58","65826","0.0-58.0","37M28K1J0RZEHAGFCPBHW3GKAZ2JAA","AD3V6XGQWRD6E","3WPCIUYH1AU470H2HRBLZRFBM95TDS","","704.1000000238419","img/land2.png","75","705.5","2","1","2","2","1,0.7,0.7,0.7,1,0.7,0.7,0.7,1","1,0.7,0.7,0.7,1,0.7,0.7,0.7,1","","",""
"","html-keyboard-response","59","66128","0.0-59.0","37M28K1J0RZEHAGFCPBHW3GKAZ2JAA","AD3V6XGQWRD6E","3WPCIUYH1AU470H2HRBLZRFBM95TDS","","null","<img src=""img/land2.png"" style=""width:200px; border:14px solid green;"">","null","","","","","","","","","",""
"","image-keyboard-response","60","66722","0.0-60.0","37M28K1J0RZEHAGFCPBHW3GKAZ2JAA","AD3V6XGQWRD6E","3WPCIUYH1AU470H2HRBLZRFBM95TDS","","591.9000000953674","img/land2.png","75","593.1000000238419","2","1","2","2","1,0.7,0.7,0.7,1,0.7,0.7,0.7,1","1,0.7,0.7,0.7,1,0.7,0.7,0.7,1","","",""
"","html-keyboard-response","61","67024","0.0-61.0","37M28K1J0RZEHAGFCPBHW3GKAZ2JAA","AD3V6XGQWRD6E","3WPCIUYH1AU470H2HRBLZRFBM95TDS","","null","<img src=""img/land2.png"" style=""width:200px; border:14px solid green;"">","null","","","","","","","","","",""
"","image-keyboard-response","62","67610","0.0-62.0","37M28K1J0RZEHAGFCPBHW3GKAZ2JAA","AD3V6XGQWRD6E","3WPCIUYH1AU470H2HRBLZRFBM95TDS","","585","img/land3.png","76","586.1000000238419","3","1","3","2","1,0.7,0.7,0.7,1,0.7,0.7,0.7,1","1,0.7,0.7,0.7,1,0.7,0.7,0.7,1","","",""
"","html-keyboard-response","63","67913","0.0-63.0","37M28K1J0RZEHAGFCPBHW3GKAZ2JAA","AD3V6XGQWRD6E","3WPCIUYH1AU470H2HRBLZRFBM95TDS","","null","<img src=""img/land3.png"" style=""width:200px; border:14px solid green;"">","null","","","","","","","","","",""
"","image-keyboard-response","64","68426","0.0-64.0","37M28K1J0RZEHAGFCPBHW3GKAZ2JAA","AD3V6XGQWRD6E","3WPCIUYH1AU470H2HRBLZRFBM95TDS","","511.2999999523163","img/land1.png","74","512.5","1","1","1","2","1,0.7,0.7,0.7,1,0.7,0.7,0.7,1","1,0.7,0.7,0.7,1,0.7,0.7,0.7,1","","",""
"","html-keyboard-response","65","68728","0.0-65.0","37M28K1J0RZEHAGFCPBHW3GKAZ2JAA","AD3V6XGQWRD6E","3WPCIUYH1AU470H2HRBLZRFBM95TDS","","null","<img src=""img/land1.png"" style=""width:200px; border:14px solid green;"">","null","","","","","","","","","",""
"","image-keyboard-response","66","69057","0.0-66.0","37M28K1J0RZEHAGFCPBHW3GKAZ2JAA","AD3V6XGQWRD6E","3WPCIUYH1AU470H2HRBLZRFBM95TDS","","327.7000000476837","img/land1.png","74","329.39999997615814","1","1","1","2","1,0.7,0.7,0.7,1,0.7,0.7,0.7,1","1,0.7,0.7,0.7,1,0.7,0.7,0.7,1","","",""
"","html-keyboard-response","67","69359","0.0-67.0","37M28K1J0RZEHAGFCPBHW3GKAZ2JAA","AD3V6XGQWRD6E","3WPCIUYH1AU470H2HRBLZRFBM95TDS","","null","<img src=""img/land1.png"" style=""width:200px; border:14px solid green;"">","null","","","","","","","","","",""
"","image-keyboard-response","68","69802","0.0-68.0","37M28K1J0RZEHAGFCPBHW3GKAZ2JAA","AD3V6XGQWRD6E","3WPCIUYH1AU470H2HRBLZRFBM95TDS","","441.1999999284744","img/land1.png","74","442.3000000715256","1","1","1","2","1,0.7,0.7,0.7,1,0.7,0.7,0.7,1","1,0.7,0.7,0.7,1,0.7,0.7,0.7,1","","",""
"","html-keyboard-response","69","70104","0.0-69.0","37M28K1J0RZEHAGFCPBHW3GKAZ2JAA","AD3V6XGQWRD6E","3WPCIUYH1AU470H2HRBLZRFBM95TDS","","null","<img src=""img/land1.png"" style=""width:200px; border:14px solid green;"">","null","","","","","","","","","",""
"","image-keyboard-response","70","70786","0.0-70.0","37M28K1J0RZEHAGFCPBHW3GKAZ2JAA","AD3V6XGQWRD6E","3WPCIUYH1AU470H2HRBLZRFBM95TDS","","680.6000000238419","img/land3.png","76","681.6999999284744","3","1","3","2","1,0.7,0.7,0.7,1,0.7,0.7,0.7,1","1,0.7,0.7,0.7,1,0.7,0.7,0.7,1","","",""
"","html-keyboard-response","71","71087","0.0-71.0","37M28K1J0RZEHAGFCPBHW3GKAZ2JAA","AD3V6XGQWRD6E","3WPCIUYH1AU470H2HRBLZRFBM95TDS","","null","<img src=""img/land3.png"" style=""width:200px; border:14px solid green;"">","null","","","","","","","","","",""
"","image-keyboard-response","72","71682","0.0-72.0","37M28K1J0RZEHAGFCPBHW3GKAZ2JAA","AD3V6XGQWRD6E","3WPCIUYH1AU470H2HRBLZRFBM95TDS","","593.6999999284744","img/land1.png","75","594.5","2","1","1","2","1,0.7,0.7,0.7,1,0.7,0.7,0.7,1","1,0.7,0.7,0.7,1,0.7,0.7,0.7,1","","",""
"","html-keyboard-response","73","71984","0.0-73.0","37M28K1J0RZEHAGFCPBHW3GKAZ2JAA","AD3V6XGQWRD6E","3WPCIUYH1AU470H2HRBLZRFBM95TDS","","null","<img src=""img/land1.png"" style=""width:200px; border:14px solid green;"">","null","","","","","","","","","",""
"","image-keyboard-response","74","72643","0.0-74.0","37M28K1J0RZEHAGFCPBHW3GKAZ2JAA","AD3V6XGQWRD6E","3WPCIUYH1AU470H2HRBLZRFBM95TDS","","657.2999999523163","img/land3.png","74","658.7000000476837","1","1","3","2","1,0.7,0.7,0.7,1,0.7,0.7,0.7,1","1,0.7,0.7,0.7,1,0.7,0.7,0.7,1","","",""
"","html-keyboard-response","75","72945","0.0-75.0","37M28K1J0RZEHAGFCPBHW3GKAZ2JAA","AD3V6XGQWRD6E","3WPCIUYH1AU470H2HRBLZRFBM95TDS","","null","<img src=""img/land3.png"" style=""width:200px; border:14px solid green;"">","null","","","","","","","","","",""
"","image-keyboard-response","76","73378","0.0-76.0","37M28K1J0RZEHAGFCPBHW3GKAZ2JAA","AD3V6XGQWRD6E","3WPCIUYH1AU470H2HRBLZRFBM95TDS","","431.6999999284744","img/land1.png","76","432.89999997615814","3","0","1","2","1,0.7,0.7,0.7,1,0.7,0.7,0.7,1","1,0.7,0.7,0.7,1,0.7,0.7,0.7,1","","",""
"","html-keyboard-response","77","73680","0.0-77.0","37M28K1J0RZEHAGFCPBHW3GKAZ2JAA","AD3V6XGQWRD6E","3WPCIUYH1AU470H2HRBLZRFBM95TDS","","null","<img src=""img/land1.png"" style=""width:200px;border:14px solid red;"">","null","","","","","","","","","",""
"","image-keyboard-response","78","74626","0.0-78.0","37M28K1J0RZEHAGFCPBHW3GKAZ2JAA","AD3V6XGQWRD6E","3WPCIUYH1AU470H2HRBLZRFBM95TDS","","944.6000000238419","img/land3.png","76","945.8999999761581","3","1","3","2","1,0.7,0.7,0.7,1,0.7,0.7,0.7,1","1,0.7,0.7,0.7,1,0.7,0.7,0.7,1","","",""
"","html-keyboard-response","79","74928","0.0-79.0","37M28K1J0RZEHAGFCPBHW3GKAZ2JAA","AD3V6XGQWRD6E","3WPCIUYH1AU470H2HRBLZRFBM95TDS","","null","<img src=""img/land3.png"" style=""width:200px; border:14px solid green;"">","null","","","","","","","","","",""
"","image-keyboard-response","80","75434","0.0-80.0","37M28K1J0RZEHAGFCPBHW3GKAZ2JAA","AD3V6XGQWRD6E","3WPCIUYH1AU470H2HRBLZRFBM95TDS","","504.7999999523163","img/land1.png","74","506","1","1","1","2","1,0.7,0.7,0.7,1,0.7,0.7,0.7,1","1,0.7,0.7,0.7,1,0.7,0.7,0.7,1","","",""
"","html-keyboard-response","81","75736","0.0-81.0","37M28K1J0RZEHAGFCPBHW3GKAZ2JAA","AD3V6XGQWRD6E","3WPCIUYH1AU470H2HRBLZRFBM95TDS","","null","<img src=""img/land1.png"" style=""width:200px; border:14px solid green;"">","null","","","","","","","","","",""
"","image-keyboard-response","82","76386","0.0-82.0","37M28K1J0RZEHAGFCPBHW3GKAZ2JAA","AD3V6XGQWRD6E","3WPCIUYH1AU470H2HRBLZRFBM95TDS","","648","img/land2.png","75","649.2000000476837","2","1","2","2","1,0.7,0.7,0.7,1,0.7,0.7,0.7,1","1,0.7,0.7,0.7,1,0.7,0.7,0.7,1","","",""
"","html-keyboard-response","83","76688","0.0-83.0","37M28K1J0RZEHAGFCPBHW3GKAZ2JAA","AD3V6XGQWRD6E","3WPCIUYH1AU470H2HRBLZRFBM95TDS","","null","<img src=""img/land2.png"" style=""width:200px; border:14px solid green;"">","null","","","","","","","","","",""
"","image-keyboard-response","84","77202","0.0-84.0","37M28K1J0RZEHAGFCPBHW3GKAZ2JAA","AD3V6XGQWRD6E","3WPCIUYH1AU470H2HRBLZRFBM95TDS","","512.2999999523163","img/land2.png","75","513.6000000238419","2","1","2","2","1,0.7,0.7,0.7,1,0.7,0.7,0.7,1","1,0.7,0.7,0.7,1,0.7,0.7,0.7,1","","",""
"","html-keyboard-response","85","77503","0.0-85.0","37M28K1J0RZEHAGFCPBHW3GKAZ2JAA","AD3V6XGQWRD6E","3WPCIUYH1AU470H2HRBLZRFBM95TDS","","null","<img src=""img/land2.png"" style=""width:200px; border:14px solid green;"">","null","","","","","","","","","",""
"","image-keyboard-response","86","78114","0.0-86.0","37M28K1J0RZEHAGFCPBHW3GKAZ2JAA","AD3V6XGQWRD6E","3WPCIUYH1AU470H2HRBLZRFBM95TDS","","609","img/land1.png","74","610.1999999284744","1","1","1","2","1,0.7,0.7,0.7,1,0.7,0.7,0.7,1","1,0.7,0.7,0.7,1,0.7,0.7,0.7,1","","",""
"","html-keyboard-response","87","78416","0.0-87.0","37M28K1J0RZEHAGFCPBHW3GKAZ2JAA","AD3V6XGQWRD6E","3WPCIUYH1AU470H2HRBLZRFBM95TDS","","null","<img src=""img/land1.png"" style=""width:200px; border:14px solid green;"">","null","","","","","","","","","",""
"","image-keyboard-response","88","78826","0.0-88.0","37M28K1J0RZEHAGFCPBHW3GKAZ2JAA","AD3V6XGQWRD6E","3WPCIUYH1AU470H2HRBLZRFBM95TDS","","408.7999999523163","img/land1.png","74","410.10000002384186","1","1","1","2","1,0.7,0.7,0.7,1,0.7,0.7,0.7,1","1,0.7,0.7,0.7,1,0.7,0.7,0.7,1","","",""
"","html-keyboard-response","89","79135","0.0-89.0","37M28K1J0RZEHAGFCPBHW3GKAZ2JAA","AD3V6XGQWRD6E","3WPCIUYH1AU470H2HRBLZRFBM95TDS","","null","<img src=""img/land1.png"" style=""width:200px; border:14px solid green;"">","null","","","","","","","","","",""
"","image-keyboard-response","90","79522","0.0-90.0","37M28K1J0RZEHAGFCPBHW3GKAZ2JAA","AD3V6XGQWRD6E","3WPCIUYH1AU470H2HRBLZRFBM95TDS","","384.5","img/land1.png","74","386.3000000715256","1","1","1","2","1,0.7,0.7,0.7,1,0.7,0.7,0.7,1","1,0.7,0.7,0.7,1,0.7,0.7,0.7,1","","",""
"","html-keyboard-response","91","79823","0.0-91.0","37M28K1J0RZEHAGFCPBHW3GKAZ2JAA","AD3V6XGQWRD6E","3WPCIUYH1AU470H2HRBLZRFBM95TDS","","null","<img src=""img/land1.png"" style=""width:200px; border:14px solid green;"">","null","","","","","","","","","",""
"","image-keyboard-response","92","80386","0.0-92.0","37M28K1J0RZEHAGFCPBHW3GKAZ2JAA","AD3V6XGQWRD6E","3WPCIUYH1AU470H2HRBLZRFBM95TDS","","560.5999999046326","img/land2.png","75","562.1999999284744","2","1","2","2","1,0.7,0.7,0.7,1,0.7,0.7,0.7,1","1,0.7,0.7,0.7,1,0.7,0.7,0.7,1","","",""
"","html-keyboard-response","93","80689","0.0-93.0","37M28K1J0RZEHAGFCPBHW3GKAZ2JAA","AD3V6XGQWRD6E","3WPCIUYH1AU470H2HRBLZRFBM95TDS","","null","<img src=""img/land2.png"" style=""width:200px; border:14px solid green;"">","null","","","","","","","","","",""
"","image-keyboard-response","94","81530","0.0-94.0","37M28K1J0RZEHAGFCPBHW3GKAZ2JAA","AD3V6XGQWRD6E","3WPCIUYH1AU470H2HRBLZRFBM95TDS","","839.8999999761581","img/land1.png","74","841.2000000476837","1","1","1","2","1,0.7,0.7,0.7,1,0.7,0.7,0.7,1","1,0.7,0.7,0.7,1,0.7,0.7,0.7,1","","",""
"","html-keyboard-response","95","81832","0.0-95.0","37M28K1J0RZEHAGFCPBHW3GKAZ2JAA","AD3V6XGQWRD6E","3WPCIUYH1AU470H2HRBLZRFBM95TDS","","null","<img src=""img/land1.png"" style=""width:200px; border:14px solid green;"">","null","","","","","","","","","",""
"","image-keyboard-response","96","82338","0.0-96.0","37M28K1J0RZEHAGFCPBHW3GKAZ2JAA","AD3V6XGQWRD6E","3WPCIUYH1AU470H2HRBLZRFBM95TDS","","504.6999999284744","img/land1.png","74","505.89999997615814","1","1","1","2","1,0.7,0.7,0.7,1,0.7,0.7,0.7,1","1,0.7,0.7,0.7,1,0.7,0.7,0.7,1","","",""
"","html-keyboard-response","97","82639","0.0-97.0","37M28K1J0RZEHAGFCPBHW3GKAZ2JAA","AD3V6XGQWRD6E","3WPCIUYH1AU470H2HRBLZRFBM95TDS","","null","<img src=""img/land1.png"" style=""width:200px; border:14px solid green;"">","null","","","","","","","","","",""
"","image-keyboard-response","98","82930","0.0-98.0","37M28K1J0RZEHAGFCPBHW3GKAZ2JAA","AD3V6XGQWRD6E","3WPCIUYH1AU470H2HRBLZRFBM95TDS","","289.2000000476837","img/land1.png","74","290.5","1","1","1","2","1,0.7,0.7,0.7,1,0.7,0.7,0.7,1","1,0.7,0.7,0.7,1,0.7,0.7,0.7,1","","",""
"","html-keyboard-response","99","83232","0.0-99.0","37M28K1J0RZEHAGFCPBHW3GKAZ2JAA","AD3V6XGQWRD6E","3WPCIUYH1AU470H2HRBLZRFBM95TDS","","null","<img src=""img/land1.png"" style=""width:200px; border:14px solid green;"">","null","","","","","","","","","",""
"","image-keyboard-response","100","83706","0.0-100.0","37M28K1J0RZEHAGFCPBHW3GKAZ2JAA","AD3V6XGQWRD6E","3WPCIUYH1AU470H2HRBLZRFBM95TDS","","472.09999990463257","img/land1.png","74","473.39999997615814","1","1","1","2","1,0.7,0.7,0.7,1,0.7,0.7,0.7,1","1,0.7,0.7,0.7,1,0.7,0.7,0.7,1","","",""
"","html-keyboard-response","101","84008","0.0-101.0","37M28K1J0RZEHAGFCPBHW3GKAZ2JAA","AD3V6XGQWRD6E","3WPCIUYH1AU470H2HRBLZRFBM95TDS","","null","<img src=""img/land1.png"" style=""width:200px; border:14px solid green;"">","null","","","","","","","","","",""
"","image-keyboard-response","102","84386","0.0-102.0","37M28K1J0RZEHAGFCPBHW3GKAZ2JAA","AD3V6XGQWRD6E","3WPCIUYH1AU470H2HRBLZRFBM95TDS","","376.6999999284744","img/land1.png","74","378","1","1","1","2","1,0.7,0.7,0.7,1,0.7,0.7,0.7,1","1,0.7,0.7,0.7,1,0.7,0.7,0.7,1","","",""
"","html-keyboard-response","103","84690","0.0-103.0","37M28K1J0RZEHAGFCPBHW3GKAZ2JAA","AD3V6XGQWRD6E","3WPCIUYH1AU470H2HRBLZRFBM95TDS","","null","<img src=""img/land1.png"" style=""width:200px; border:14px solid green;"">","null","","","","","","","","","",""
"","image-keyboard-response","104","85226","0.0-104.0","37M28K1J0RZEHAGFCPBHW3GKAZ2JAA","AD3V6XGQWRD6E","3WPCIUYH1AU470H2HRBLZRFBM95TDS","","533.8999999761581","img/land2.png","75","535.3999999761581","2","1","2","2","1,0.7,0.7,0.7,1,0.7,0.7,0.7,1","1,0.7,0.7,0.7,1,0.7,0.7,0.7,1","","",""
"","html-keyboard-response","105","85528","0.0-105.0","37M28K1J0RZEHAGFCPBHW3GKAZ2JAA","AD3V6XGQWRD6E","3WPCIUYH1AU470H2HRBLZRFBM95TDS","","null","<img src=""img/land2.png"" style=""width:200px; border:14px solid green;"">","null","","","","","","","","","",""
"","image-keyboard-response","106","86074","0.0-106.0","37M28K1J0RZEHAGFCPBHW3GKAZ2JAA","AD3V6XGQWRD6E","3WPCIUYH1AU470H2HRBLZRFBM95TDS","","544.2999999523163","img/land1.png","74","545.5999999046326","1","1","1","2","1,0.7,0.7,0.7,1,0.7,0.7,0.7,1","1,0.7,0.7,0.7,1,0.7,0.7,0.7,1","","",""
"","html-keyboard-response","107","86376","0.0-107.0","37M28K1J0RZEHAGFCPBHW3GKAZ2JAA","AD3V6XGQWRD6E","3WPCIUYH1AU470H2HRBLZRFBM95TDS","","null","<img src=""img/land1.png"" style=""width:200px; border:14px solid green;"">","null","","","","","","","","","",""
"","image-keyboard-response","108","86786","0.0-108.0","37M28K1J0RZEHAGFCPBHW3GKAZ2JAA","AD3V6XGQWRD6E","3WPCIUYH1AU470H2HRBLZRFBM95TDS","","408.09999990463257","img/land2.png","75","409.3000000715256","2","1","2","2","1,0.7,0.7,0.7,1,0.7,0.7,0.7,1","1,0.7,0.7,0.7,1,0.7,0.7,0.7,1","","",""
"","html-keyboard-response","109","87087","0.0-109.0","37M28K1J0RZEHAGFCPBHW3GKAZ2JAA","AD3V6XGQWRD6E","3WPCIUYH1AU470H2HRBLZRFBM95TDS","","null","<img src=""img/land2.png"" style=""width:200px; border:14px solid green;"">","null","","","","","","","","","",""
"","image-keyboard-response","110","87698","0.0-110.0","37M28K1J0RZEHAGFCPBHW3GKAZ2JAA","AD3V6XGQWRD6E","3WPCIUYH1AU470H2HRBLZRFBM95TDS","","609.2999999523163","img/land1.png","74","610.2999999523163","1","1","1","2","1,0.7,0.7,0.7,1,0.7,0.7,0.7,1","1,0.7,0.7,0.7,1,0.7,0.7,0.7,1","","",""
"","html-keyboard-response","111","88000","0.0-111.0","37M28K1J0RZEHAGFCPBHW3GKAZ2JAA","AD3V6XGQWRD6E","3WPCIUYH1AU470H2HRBLZRFBM95TDS","","null","<img src=""img/land1.png"" style=""width:200px; border:14px solid green;"">","null","","","","","","","","","",""
"","image-keyboard-response","112","88594","0.0-112.0","37M28K1J0RZEHAGFCPBHW3GKAZ2JAA","AD3V6XGQWRD6E","3WPCIUYH1AU470H2HRBLZRFBM95TDS","","592.5","img/land3.png","76","593.8000000715256","3","1","3","2","1,0.7,0.7,0.7,1,0.7,0.7,0.7,1","1,0.7,0.7,0.7,1,0.7,0.7,0.7,1","","",""
"","html-keyboard-response","113","88897","0.0-113.0","37M28K1J0RZEHAGFCPBHW3GKAZ2JAA","AD3V6XGQWRD6E","3WPCIUYH1AU470H2HRBLZRFBM95TDS","","null","<img src=""img/land3.png"" style=""width:200px; border:14px solid green;"">","null","","","","","","","","","",""
"","image-keyboard-response","114","89394","0.0-114.0","37M28K1J0RZEHAGFCPBHW3GKAZ2JAA","AD3V6XGQWRD6E","3WPCIUYH1AU470H2HRBLZRFBM95TDS","","495.8000000715256","img/land1.png","74","497","1","1","1","2","1,0.7,0.7,0.7,1,0.7,0.7,0.7,1","1,0.7,0.7,0.7,1,0.7,0.7,0.7,1","","",""
"","html-keyboard-response","115","89696","0.0-115.0","37M28K1J0RZEHAGFCPBHW3GKAZ2JAA","AD3V6XGQWRD6E","3WPCIUYH1AU470H2HRBLZRFBM95TDS","","null","<img src=""img/land1.png"" style=""width:200px; border:14px solid green;"">","null","","","","","","","","","",""
"","image-keyboard-response","116","90066","0.0-116.0","37M28K1J0RZEHAGFCPBHW3GKAZ2JAA","AD3V6XGQWRD6E","3WPCIUYH1AU470H2HRBLZRFBM95TDS","","369","img/land1.png","74","370","1","1","1","2","1,0.7,0.7,0.7,1,0.7,0.7,0.7,1","1,0.7,0.7,0.7,1,0.7,0.7,0.7,1","","",""
"","html-keyboard-response","117","90369","0.0-117.0","37M28K1J0RZEHAGFCPBHW3GKAZ2JAA","AD3V6XGQWRD6E","3WPCIUYH1AU470H2HRBLZRFBM95TDS","","null","<img src=""img/land1.png"" style=""width:200px; border:14px solid green;"">","null","","","","","","","","","",""
"","image-keyboard-response","118","90817","0.0-118.0","37M28K1J0RZEHAGFCPBHW3GKAZ2JAA","AD3V6XGQWRD6E","3WPCIUYH1AU470H2HRBLZRFBM95TDS","","447.2999999523163","img/land1.png","74","448.5","1","1","1","2","1,0.7,0.7,0.7,1,0.7,0.7,0.7,1","1,0.7,0.7,0.7,1,0.7,0.7,0.7,1","","",""
"","html-keyboard-response","119","91119","0.0-119.0","37M28K1J0RZEHAGFCPBHW3GKAZ2JAA","AD3V6XGQWRD6E","3WPCIUYH1AU470H2HRBLZRFBM95TDS","","null","<img src=""img/land1.png"" style=""width:200px; border:14px solid green;"">","null","","","","","","","","","",""
"","image-keyboard-response","120","91634","0.0-120.0","37M28K1J0RZEHAGFCPBHW3GKAZ2JAA","AD3V6XGQWRD6E","3WPCIUYH1AU470H2HRBLZRFBM95TDS","","513.1000000238419","img/land3.png","76","514.5","3","1","3","2","1,0.7,0.7,0.7,1,0.7,0.7,0.7,1","1,0.7,0.7,0.7,1,0.7,0.7,0.7,1","","",""
"","html-keyboard-response","121","91936","0.0-121.0","37M28K1J0RZEHAGFCPBHW3GKAZ2JAA","AD3V6XGQWRD6E","3WPCIUYH1AU470H2HRBLZRFBM95TDS","","null","<img src=""img/land3.png"" style=""width:200px; border:14px solid green;"">","null","","","","","","","","","",""
"","image-keyboard-response","122","92570","0.0-122.0","37M28K1J0RZEHAGFCPBHW3GKAZ2JAA","AD3V6XGQWRD6E","3WPCIUYH1AU470H2HRBLZRFBM95TDS","","632.5999999046326","img/land1.png","74","633.9000000953674","1","1","1","2","1,0.7,0.7,0.7,1,0.7,0.7,0.7,1","1,0.7,0.7,0.7,1,0.7,0.7,0.7,1","","",""
"","html-keyboard-response","123","92874","0.0-123.0","37M28K1J0RZEHAGFCPBHW3GKAZ2JAA","AD3V6XGQWRD6E","3WPCIUYH1AU470H2HRBLZRFBM95TDS","","null","<img src=""img/land1.png"" style=""width:200px; border:14px solid green;"">","null","","","","","","","","","",""
"","image-keyboard-response","124","93282","0.0-124.0","37M28K1J0RZEHAGFCPBHW3GKAZ2JAA","AD3V6XGQWRD6E","3WPCIUYH1AU470H2HRBLZRFBM95TDS","","406.5","img/land1.png","74","407.5","1","1","1","2","1,0.7,0.7,0.7,1,0.7,0.7,0.7,1","1,0.7,0.7,0.7,1,0.7,0.7,0.7,1","","",""
"","html-keyboard-response","125","93585","0.0-125.0","37M28K1J0RZEHAGFCPBHW3GKAZ2JAA","AD3V6XGQWRD6E","3WPCIUYH1AU470H2HRBLZRFBM95TDS","","null","<img src=""img/land1.png"" style=""width:200px; border:14px solid green;"">","null","","","","","","","","","",""
"","image-keyboard-response","126","94082","0.0-126.0","37M28K1J0RZEHAGFCPBHW3GKAZ2JAA","AD3V6XGQWRD6E","3WPCIUYH1AU470H2HRBLZRFBM95TDS","","495.5","img/land1.png","74","496.60000002384186","1","1","1","2","1,0.7,0.7,0.7,1,0.7,0.7,0.7,1","1,0.7,0.7,0.7,1,0.7,0.7,0.7,1","","",""
"","html-keyboard-response","127","94384","0.0-127.0","37M28K1J0RZEHAGFCPBHW3GKAZ2JAA","AD3V6XGQWRD6E","3WPCIUYH1AU470H2HRBLZRFBM95TDS","","null","<img src=""img/land1.png"" style=""width:200px; border:14px solid green;"">","null","","","","","","","","","",""
"","image-keyboard-response","128","95386","0.0-128.0","37M28K1J0RZEHAGFCPBHW3GKAZ2JAA","AD3V6XGQWRD6E","3WPCIUYH1AU470H2HRBLZRFBM95TDS","","1000.2000000476837","img/land2.png","75","1001.5","2","1","2","2","1,0.7,0.7,0.7,1,0.7,0.7,0.7,1","1,0.7,0.7,0.7,1,0.7,0.7,0.7,1","","",""
"","html-keyboard-response","129","95688","0.0-129.0","37M28K1J0RZEHAGFCPBHW3GKAZ2JAA","AD3V6XGQWRD6E","3WPCIUYH1AU470H2HRBLZRFBM95TDS","","null","<img src=""img/land2.png"" style=""width:200px; border:14px solid green;"">","null","","","","","","","","","",""
"","image-keyboard-response","130","96130","0.0-130.0","37M28K1J0RZEHAGFCPBHW3GKAZ2JAA","AD3V6XGQWRD6E","3WPCIUYH1AU470H2HRBLZRFBM95TDS","","439.7000000476837","img/land1.png","74","441.10000002384186","1","1","1","2","1,0.7,0.7,0.7,1,0.7,0.7,0.7,1","1,0.7,0.7,0.7,1,0.7,0.7,0.7,1","","",""
"","html-keyboard-response","131","96432","0.0-131.0","37M28K1J0RZEHAGFCPBHW3GKAZ2JAA","AD3V6XGQWRD6E","3WPCIUYH1AU470H2HRBLZRFBM95TDS","","null","<img src=""img/land1.png"" style=""width:200px; border:14px solid green;"">","null","","","","","","","","","",""
"","image-keyboard-response","132","96801","0.0-132.0","37M28K1J0RZEHAGFCPBHW3GKAZ2JAA","AD3V6XGQWRD6E","3WPCIUYH1AU470H2HRBLZRFBM95TDS","","367.89999997615814","img/land1.png","74","369","1","1","1","2","1,0.7,0.7,0.7,1,0.7,0.7,0.7,1","1,0.7,0.7,0.7,1,0.7,0.7,0.7,1","","",""
"","html-keyboard-response","133","97103","0.0-133.0","37M28K1J0RZEHAGFCPBHW3GKAZ2JAA","AD3V6XGQWRD6E","3WPCIUYH1AU470H2HRBLZRFBM95TDS","","null","<img src=""img/land1.png"" style=""width:200px; border:14px solid green;"">","null","","","","","","","","","",""
"","image-keyboard-response","134","97882","0.0-134.0","37M28K1J0RZEHAGFCPBHW3GKAZ2JAA","AD3V6XGQWRD6E","3WPCIUYH1AU470H2HRBLZRFBM95TDS","","775.8999999761581","img/land2.png","75","778.7000000476837","2","1","2","2","1,0.7,0.7,0.7,1,0.7,0.7,0.7,1","1,0.7,0.7,0.7,1,0.7,0.7,0.7,1","","",""
"","html-keyboard-response","135","98183","0.0-135.0","37M28K1J0RZEHAGFCPBHW3GKAZ2JAA","AD3V6XGQWRD6E","3WPCIUYH1AU470H2HRBLZRFBM95TDS","","null","<img src=""img/land2.png"" style=""width:200px; border:14px solid green;"">","null","","","","","","","","","",""
"","image-keyboard-response","136","98594","0.0-136.0","37M28K1J0RZEHAGFCPBHW3GKAZ2JAA","AD3V6XGQWRD6E","3WPCIUYH1AU470H2HRBLZRFBM95TDS","","409.1999999284744","img/land1.png","74","410.60000002384186","1","1","1","2","1,0.7,0.7,0.7,1,0.7,0.7,0.7,1","1,0.7,0.7,0.7,1,0.7,0.7,0.7,1","","",""
"","html-keyboard-response","137","98897","0.0-137.0","37M28K1J0RZEHAGFCPBHW3GKAZ2JAA","AD3V6XGQWRD6E","3WPCIUYH1AU470H2HRBLZRFBM95TDS","","null","<img src=""img/land1.png"" style=""width:200px; border:14px solid green;"">","null","","","","","","","","","",""
"","image-keyboard-response","138","99266","0.0-138.0","37M28K1J0RZEHAGFCPBHW3GKAZ2JAA","AD3V6XGQWRD6E","3WPCIUYH1AU470H2HRBLZRFBM95TDS","","367.8000000715256","img/land1.png","74","368.90000009536743","1","1","1","2","1,0.7,0.7,0.7,1,0.7,0.7,0.7,1","1,0.7,0.7,0.7,1,0.7,0.7,0.7,1","","",""
"","html-keyboard-response","139","99575","0.0-139.0","37M28K1J0RZEHAGFCPBHW3GKAZ2JAA","AD3V6XGQWRD6E","3WPCIUYH1AU470H2HRBLZRFBM95TDS","","null","<img src=""img/land1.png"" style=""width:200px; border:14px solid green;"">","null","","","","","","","","","",""
"","image-keyboard-response","140","99978","0.0-140.0","37M28K1J0RZEHAGFCPBHW3GKAZ2JAA","AD3V6XGQWRD6E","3WPCIUYH1AU470H2HRBLZRFBM95TDS","","401.3000000715256","img/land1.png","74","402.5","1","1","1","2","1,0.7,0.7,0.7,1,0.7,0.7,0.7,1","1,0.7,0.7,0.7,1,0.7,0.7,0.7,1","","",""
"","html-keyboard-response","141","100294","0.0-141.0","37M28K1J0RZEHAGFCPBHW3GKAZ2JAA","AD3V6XGQWRD6E","3WPCIUYH1AU470H2HRBLZRFBM95TDS","","null","<img src=""img/land1.png"" style=""width:200px; border:14px solid green;"">","null","","","","","","","","","",""
"","image-keyboard-response","142","100818","0.0-142.0","37M28K1J0RZEHAGFCPBHW3GKAZ2JAA","AD3V6XGQWRD6E","3WPCIUYH1AU470H2HRBLZRFBM95TDS","","521.4000000953674","img/land1.png","74","523.5","1","1","1","2","1,0.7,0.7,0.7,1,0.7,0.7,0.7,1","1,0.7,0.7,0.7,1,0.7,0.7,0.7,1","","",""
"","html-keyboard-response","143","101120","0.0-143.0","37M28K1J0RZEHAGFCPBHW3GKAZ2JAA","AD3V6XGQWRD6E","3WPCIUYH1AU470H2HRBLZRFBM95TDS","","null","<img src=""img/land1.png"" style=""width:200px; border:14px solid green;"">","null","","","","","","","","","",""
"","image-keyboard-response","144","101602","0.0-144.0","37M28K1J0RZEHAGFCPBHW3GKAZ2JAA","AD3V6XGQWRD6E","3WPCIUYH1AU470H2HRBLZRFBM95TDS","","480","img/land1.png","74","481.2999999523163","1","1","1","2","1,0.7,0.7,0.7,1,0.7,0.7,0.7,1","1,0.7,0.7,0.7,1,0.7,0.7,0.7,1","","",""
"","html-keyboard-response","145","101904","0.0-145.0","37M28K1J0RZEHAGFCPBHW3GKAZ2JAA","AD3V6XGQWRD6E","3WPCIUYH1AU470H2HRBLZRFBM95TDS","","null","<img src=""img/land1.png"" style=""width:200px; border:14px solid green;"">","null","","","","","","","","","",""
"","image-keyboard-response","146","102458","0.0-146.0","37M28K1J0RZEHAGFCPBHW3GKAZ2JAA","AD3V6XGQWRD6E","3WPCIUYH1AU470H2HRBLZRFBM95TDS","","552.5999999046326","img/land1.png","74","553.8000000715256","1","1","1","2","1,0.7,0.7,0.7,1,0.7,0.7,0.7,1","1,0.7,0.7,0.7,1,0.7,0.7,0.7,1","","",""
"","html-keyboard-response","147","102769","0.0-147.0","37M28K1J0RZEHAGFCPBHW3GKAZ2JAA","AD3V6XGQWRD6E","3WPCIUYH1AU470H2HRBLZRFBM95TDS","","null","<img src=""img/land1.png"" style=""width:200px; border:14px solid green;"">","null","","","","","","","","","",""
"","image-keyboard-response","148","103226","0.0-148.0","37M28K1J0RZEHAGFCPBHW3GKAZ2JAA","AD3V6XGQWRD6E","3WPCIUYH1AU470H2HRBLZRFBM95TDS","","455.8000000715256","img/land1.png","74","456.89999997615814","1","1","1","2","1,0.7,0.7,0.7,1,0.7,0.7,0.7,1","1,0.7,0.7,0.7,1,0.7,0.7,0.7,1","","",""
"","html-keyboard-response","149","103528","0.0-149.0","37M28K1J0RZEHAGFCPBHW3GKAZ2JAA","AD3V6XGQWRD6E","3WPCIUYH1AU470H2HRBLZRFBM95TDS","","null","<img src=""img/land1.png"" style=""width:200px; border:14px solid green;"">","null","","","","","","","","","",""
"","image-keyboard-response","150","104138","0.0-150.0","37M28K1J0RZEHAGFCPBHW3GKAZ2JAA","AD3V6XGQWRD6E","3WPCIUYH1AU470H2HRBLZRFBM95TDS","","608.7000000476837","img/land3.png","76","610.2000000476837","3","1","3","2","1,0.7,0.7,0.7,1,0.7,0.7,0.7,1","1,0.7,0.7,0.7,1,0.7,0.7,0.7,1","","",""
"","html-keyboard-response","151","104440","0.0-151.0","37M28K1J0RZEHAGFCPBHW3GKAZ2JAA","AD3V6XGQWRD6E","3WPCIUYH1AU470H2HRBLZRFBM95TDS","","null","<img src=""img/land3.png"" style=""width:200px; border:14px solid green;"">","null","","","","","","","","","",""
"","image-keyboard-response","152","105162","0.0-152.0","37M28K1J0RZEHAGFCPBHW3GKAZ2JAA","AD3V6XGQWRD6E","3WPCIUYH1AU470H2HRBLZRFBM95TDS","","720.1000000238419","img/land2.png","75","721.3000000715256","2","1","2","2","1,0.7,0.7,0.7,1,0.7,0.7,0.7,1","1,0.7,0.7,0.7,1,0.7,0.7,0.7,1","","",""
"","html-keyboard-response","153","105464","0.0-153.0","37M28K1J0RZEHAGFCPBHW3GKAZ2JAA","AD3V6XGQWRD6E","3WPCIUYH1AU470H2HRBLZRFBM95TDS","","null","<img src=""img/land2.png"" style=""width:200px; border:14px solid green;"">","null","","","","","","","","","",""
"","image-keyboard-response","154","105858","0.0-154.0","37M28K1J0RZEHAGFCPBHW3GKAZ2JAA","AD3V6XGQWRD6E","3WPCIUYH1AU470H2HRBLZRFBM95TDS","","392","img/land1.png","74","393.2000000476837","1","1","1","2","1,0.7,0.7,0.7,1,0.7,0.7,0.7,1","1,0.7,0.7,0.7,1,0.7,0.7,0.7,1","","",""
"","html-keyboard-response","155","106159","0.0-155.0","37M28K1J0RZEHAGFCPBHW3GKAZ2JAA","AD3V6XGQWRD6E","3WPCIUYH1AU470H2HRBLZRFBM95TDS","","null","<img src=""img/land1.png"" style=""width:200px; border:14px solid green;"">","null","","","","","","","","","",""
"","image-keyboard-response","156","106618","0.0-156.0","37M28K1J0RZEHAGFCPBHW3GKAZ2JAA","AD3V6XGQWRD6E","3WPCIUYH1AU470H2HRBLZRFBM95TDS","","456.7000000476837","img/land1.png","74","457.89999997615814","1","1","1","2","1,0.7,0.7,0.7,1,0.7,0.7,0.7,1","1,0.7,0.7,0.7,1,0.7,0.7,0.7,1","","",""
"","html-keyboard-response","157","106922","0.0-157.0","37M28K1J0RZEHAGFCPBHW3GKAZ2JAA","AD3V6XGQWRD6E","3WPCIUYH1AU470H2HRBLZRFBM95TDS","","null","<img src=""img/land1.png"" style=""width:200px; border:14px solid green;"">","null","","","","","","","","","",""
"","image-keyboard-response","158","107506","0.0-158.0","37M28K1J0RZEHAGFCPBHW3GKAZ2JAA","AD3V6XGQWRD6E","3WPCIUYH1AU470H2HRBLZRFBM95TDS","","582.4000000953674","img/land3.png","76","583.7000000476837","3","1","3","2","1,0.7,0.7,0.7,1,0.7,0.7,0.7,1","1,0.7,0.7,0.7,1,0.7,0.7,0.7,1","","",""
"","html-keyboard-response","159","107808","0.0-159.0","37M28K1J0RZEHAGFCPBHW3GKAZ2JAA","AD3V6XGQWRD6E","3WPCIUYH1AU470H2HRBLZRFBM95TDS","","null","<img src=""img/land3.png"" style=""width:200px; border:14px solid green;"">","null","","","","","","","","","",""
"","image-keyboard-response","160","108186","0.0-160.0","37M28K1J0RZEHAGFCPBHW3GKAZ2JAA","AD3V6XGQWRD6E","3WPCIUYH1AU470H2HRBLZRFBM95TDS","","376.3000000715256","img/land2.png","74","377.5","1","1","2","2","1,0.7,0.7,0.7,1,0.7,0.7,0.7,1","1,0.7,0.7,0.7,1,0.7,0.7,0.7,1","","",""
"","html-keyboard-response","161","108487","0.0-161.0","37M28K1J0RZEHAGFCPBHW3GKAZ2JAA","AD3V6XGQWRD6E","3WPCIUYH1AU470H2HRBLZRFBM95TDS","","null","<img src=""img/land2.png"" style=""width:200px; border:14px solid green;"">","null","","","","","","","","","",""
"","image-keyboard-response","162","109617","0.0-162.0","37M28K1J0RZEHAGFCPBHW3GKAZ2JAA","AD3V6XGQWRD6E","3WPCIUYH1AU470H2HRBLZRFBM95TDS","","1128.3000000715256","img/land3.png","76","1129.5","3","1","3","2","1,0.7,0.7,0.7,1,0.7,0.7,0.7,1","1,0.7,0.7,0.7,1,0.7,0.7,0.7,1","","",""
"","html-keyboard-response","163","109918","0.0-163.0","37M28K1J0RZEHAGFCPBHW3GKAZ2JAA","AD3V6XGQWRD6E","3WPCIUYH1AU470H2HRBLZRFBM95TDS","","null","<img src=""img/land3.png"" style=""width:200px; border:14px solid green;"">","null","","","","","","","","","",""
"","image-keyboard-response","164","110522","0.0-164.0","37M28K1J0RZEHAGFCPBHW3GKAZ2JAA","AD3V6XGQWRD6E","3WPCIUYH1AU470H2HRBLZRFBM95TDS","","601.6000000238419","img/land3.png","76","602.7999999523163","3","1","3","2","1,0.7,0.7,0.7,1,0.7,0.7,0.7,1","1,0.7,0.7,0.7,1,0.7,0.7,0.7,1","","",""
"","html-keyboard-response","165","110824","0.0-165.0","37M28K1J0RZEHAGFCPBHW3GKAZ2JAA","AD3V6XGQWRD6E","3WPCIUYH1AU470H2HRBLZRFBM95TDS","","null","<img src=""img/land3.png"" style=""width:200px; border:14px solid green;"">","null","","","","","","","","","",""
"","image-keyboard-response","166","111602","0.0-166.0","37M28K1J0RZEHAGFCPBHW3GKAZ2JAA","AD3V6XGQWRD6E","3WPCIUYH1AU470H2HRBLZRFBM95TDS","","775.8000000715256","img/land2.png","75","777","2","1","2","2","1,0.7,0.7,0.7,1,0.7,0.7,0.7,1","1,0.7,0.7,0.7,1,0.7,0.7,0.7,1","","",""
"","html-keyboard-response","167","111904","0.0-167.0","37M28K1J0RZEHAGFCPBHW3GKAZ2JAA","AD3V6XGQWRD6E","3WPCIUYH1AU470H2HRBLZRFBM95TDS","","null","<img src=""img/land2.png"" style=""width:200px; border:14px solid green;"">","null","","","","","","","","","",""
"","image-keyboard-response","168","112474","0.0-168.0","37M28K1J0RZEHAGFCPBHW3GKAZ2JAA","AD3V6XGQWRD6E","3WPCIUYH1AU470H2HRBLZRFBM95TDS","","568.2999999523163","img/land2.png","75","569.6000000238419","2","1","2","2","1,0.7,0.7,0.7,1,0.7,0.7,0.7,1","1,0.7,0.7,0.7,1,0.7,0.7,0.7,1","","",""
"","html-keyboard-response","169","112776","0.0-169.0","37M28K1J0RZEHAGFCPBHW3GKAZ2JAA","AD3V6XGQWRD6E","3WPCIUYH1AU470H2HRBLZRFBM95TDS","","null","<img src=""img/land2.png"" style=""width:200px; border:14px solid green;"">","null","","","","","","","","","",""
"","image-keyboard-response","170","113330","0.0-170.0","37M28K1J0RZEHAGFCPBHW3GKAZ2JAA","AD3V6XGQWRD6E","3WPCIUYH1AU470H2HRBLZRFBM95TDS","","551.1000000238419","img/land2.png","75","552.3999999761581","2","1","2","2","1,0.7,0.7,0.7,1,0.7,0.7,0.7,1","1,0.7,0.7,0.7,1,0.7,0.7,0.7,1","","",""
"","html-keyboard-response","171","113632","0.0-171.0","37M28K1J0RZEHAGFCPBHW3GKAZ2JAA","AD3V6XGQWRD6E","3WPCIUYH1AU470H2HRBLZRFBM95TDS","","null","<img src=""img/land2.png"" style=""width:200px; border:14px solid green;"">","null","","","","","","","","","",""
"","image-keyboard-response","172","114162","0.0-172.0","37M28K1J0RZEHAGFCPBHW3GKAZ2JAA","AD3V6XGQWRD6E","3WPCIUYH1AU470H2HRBLZRFBM95TDS","","528.7999999523163","img/land2.png","75","530.0999999046326","2","1","2","2","1,0.7,0.7,0.7,1,0.7,0.7,0.7,1","1,0.7,0.7,0.7,1,0.7,0.7,0.7,1","","",""
"","html-keyboard-response","173","114464","0.0-173.0","37M28K1J0RZEHAGFCPBHW3GKAZ2JAA","AD3V6XGQWRD6E","3WPCIUYH1AU470H2HRBLZRFBM95TDS","","null","<img src=""img/land2.png"" style=""width:200px; border:14px solid green;"">","null","","","","","","","","","",""
"","image-keyboard-response","174","115097","0.0-174.0","37M28K1J0RZEHAGFCPBHW3GKAZ2JAA","AD3V6XGQWRD6E","3WPCIUYH1AU470H2HRBLZRFBM95TDS","","632","img/land1.png","74","633","1","1","1","2","1,0.7,0.7,0.7,1,0.7,0.7,0.7,1","1,0.7,0.7,0.7,1,0.7,0.7,0.7,1","","",""
"","html-keyboard-response","175","115399","0.0-175.0","37M28K1J0RZEHAGFCPBHW3GKAZ2JAA","AD3V6XGQWRD6E","3WPCIUYH1AU470H2HRBLZRFBM95TDS","","null","<img src=""img/land1.png"" style=""width:200px; border:14px solid green;"">","null","","","","","","","","","",""
"","image-keyboard-response","176","115874","0.0-176.0","37M28K1J0RZEHAGFCPBHW3GKAZ2JAA","AD3V6XGQWRD6E","3WPCIUYH1AU470H2HRBLZRFBM95TDS","","472.7000000476837","img/land1.png","74","473.7999999523163","1","1","1","2","1,0.7,0.7,0.7,1,0.7,0.7,0.7,1","1,0.7,0.7,0.7,1,0.7,0.7,0.7,1","","",""
"","html-keyboard-response","177","116176","0.0-177.0","37M28K1J0RZEHAGFCPBHW3GKAZ2JAA","AD3V6XGQWRD6E","3WPCIUYH1AU470H2HRBLZRFBM95TDS","","null","<img src=""img/land1.png"" style=""width:200px; border:14px solid green;"">","null","","","","","","","","","",""
"","image-keyboard-response","178","116714","0.0-178.0","37M28K1J0RZEHAGFCPBHW3GKAZ2JAA","AD3V6XGQWRD6E","3WPCIUYH1AU470H2HRBLZRFBM95TDS","","536.2000000476837","img/land1.png","74","537.2999999523163","1","1","1","2","1,0.7,0.7,0.7,1,0.7,0.7,0.7,1","1,0.7,0.7,0.7,1,0.7,0.7,0.7,1","","",""
"","html-keyboard-response","179","117017","0.0-179.0","37M28K1J0RZEHAGFCPBHW3GKAZ2JAA","AD3V6XGQWRD6E","3WPCIUYH1AU470H2HRBLZRFBM95TDS","","null","<img src=""img/land1.png"" style=""width:200px; border:14px solid green;"">","null","","","","","","","","","",""
"","image-keyboard-response","180","117490","0.0-180.0","37M28K1J0RZEHAGFCPBHW3GKAZ2JAA","AD3V6XGQWRD6E","3WPCIUYH1AU470H2HRBLZRFBM95TDS","","471.8000000715256","img/land1.png","74","472.7999999523163","1","1","1","2","1,0.7,0.7,0.7,1,0.7,0.7,0.7,1","1,0.7,0.7,0.7,1,0.7,0.7,0.7,1","","",""
"","html-keyboard-response","181","117792","0.0-181.0","37M28K1J0RZEHAGFCPBHW3GKAZ2JAA","AD3V6XGQWRD6E","3WPCIUYH1AU470H2HRBLZRFBM95TDS","","null","<img src=""img/land1.png"" style=""width:200px; border:14px solid green;"">","null","","","","","","","","","",""
"","image-keyboard-response","182","118354","0.0-182.0","37M28K1J0RZEHAGFCPBHW3GKAZ2JAA","AD3V6XGQWRD6E","3WPCIUYH1AU470H2HRBLZRFBM95TDS","","560","img/land1.png","74","561.1999999284744","1","1","1","2","1,0.7,0.7,0.7,1,0.7,0.7,0.7,1","1,0.7,0.7,0.7,1,0.7,0.7,0.7,1","","",""
"","html-keyboard-response","183","118655","0.0-183.0","37M28K1J0RZEHAGFCPBHW3GKAZ2JAA","AD3V6XGQWRD6E","3WPCIUYH1AU470H2HRBLZRFBM95TDS","","null","<img src=""img/land1.png"" style=""width:200px; border:14px solid green;"">","null","","","","","","","","","",""
"","image-keyboard-response","184","119130","0.0-184.0","37M28K1J0RZEHAGFCPBHW3GKAZ2JAA","AD3V6XGQWRD6E","3WPCIUYH1AU470H2HRBLZRFBM95TDS","","472.60000002384186","img/land1.png","74","473.7999999523163","1","1","1","2","1,0.7,0.7,0.7,1,0.7,0.7,0.7,1","1,0.7,0.7,0.7,1,0.7,0.7,0.7,1","","",""
"","html-keyboard-response","185","119432","0.0-185.0","37M28K1J0RZEHAGFCPBHW3GKAZ2JAA","AD3V6XGQWRD6E","3WPCIUYH1AU470H2HRBLZRFBM95TDS","","null","<img src=""img/land1.png"" style=""width:200px; border:14px solid green;"">","null","","","","","","","","","",""
"","image-keyboard-response","186","119922","0.0-186.0","37M28K1J0RZEHAGFCPBHW3GKAZ2JAA","AD3V6XGQWRD6E","3WPCIUYH1AU470H2HRBLZRFBM95TDS","","488.39999997615814","img/land2.png","75","489.60000002384186","2","1","2","2","1,0.7,0.7,0.7,1,0.7,0.7,0.7,1","1,0.7,0.7,0.7,1,0.7,0.7,0.7,1","","",""
"","html-keyboard-response","187","120224","0.0-187.0","37M28K1J0RZEHAGFCPBHW3GKAZ2JAA","AD3V6XGQWRD6E","3WPCIUYH1AU470H2HRBLZRFBM95TDS","","null","<img src=""img/land2.png"" style=""width:200px; border:14px solid green;"">","null","","","","","","","","","",""
"","image-keyboard-response","188","120745","0.0-188.0","37M28K1J0RZEHAGFCPBHW3GKAZ2JAA","AD3V6XGQWRD6E","3WPCIUYH1AU470H2HRBLZRFBM95TDS","","519.8000000715256","img/land2.png","75","520.8999999761581","2","1","2","2","1,0.7,0.7,0.7,1,0.7,0.7,0.7,1","1,0.7,0.7,0.7,1,0.7,0.7,0.7,1","","",""
"","html-keyboard-response","189","121049","0.0-189.0","37M28K1J0RZEHAGFCPBHW3GKAZ2JAA","AD3V6XGQWRD6E","3WPCIUYH1AU470H2HRBLZRFBM95TDS","","null","<img src=""img/land2.png"" style=""width:200px; border:14px solid green;"">","null","","","","","","","","","",""
"","image-keyboard-response","190","121530","0.0-190.0","37M28K1J0RZEHAGFCPBHW3GKAZ2JAA","AD3V6XGQWRD6E","3WPCIUYH1AU470H2HRBLZRFBM95TDS","","479.2999999523163","img/land3.png","76","480.60000002384186","3","1","3","2","1,0.7,0.7,0.7,1,0.7,0.7,0.7,1","1,0.7,0.7,0.7,1,0.7,0.7,0.7,1","","",""
"","html-keyboard-response","191","121831","0.0-191.0","37M28K1J0RZEHAGFCPBHW3GKAZ2JAA","AD3V6XGQWRD6E","3WPCIUYH1AU470H2HRBLZRFBM95TDS","","null","<img src=""img/land3.png"" style=""width:200px; border:14px solid green;"">","null","","","","","","","","","",""
"","image-keyboard-response","192","122273","0.0-192.0","37M28K1J0RZEHAGFCPBHW3GKAZ2JAA","AD3V6XGQWRD6E","3WPCIUYH1AU470H2HRBLZRFBM95TDS","","440.2000000476837","img/land1.png","75","441.5","2","1","1","2","1,0.7,0.7,0.7,1,0.7,0.7,0.7,1","1,0.7,0.7,0.7,1,0.7,0.7,0.7,1","","",""
"","html-keyboard-response","193","122575","0.0-193.0","37M28K1J0RZEHAGFCPBHW3GKAZ2JAA","AD3V6XGQWRD6E","3WPCIUYH1AU470H2HRBLZRFBM95TDS","","null","<img src=""img/land1.png"" style=""width:200px; border:14px solid green;"">","null","","","","","","","","","",""
"","image-keyboard-response","194","123282","0.0-194.0","37M28K1J0RZEHAGFCPBHW3GKAZ2JAA","AD3V6XGQWRD6E","3WPCIUYH1AU470H2HRBLZRFBM95TDS","","704.7999999523163","img/land3.png","76","706.5","3","1","3","2","1,0.7,0.7,0.7,1,0.7,0.7,0.7,1","1,0.7,0.7,0.7,1,0.7,0.7,0.7,1","","",""
"","html-keyboard-response","195","123583","0.0-195.0","37M28K1J0RZEHAGFCPBHW3GKAZ2JAA","AD3V6XGQWRD6E","3WPCIUYH1AU470H2HRBLZRFBM95TDS","","null","<img src=""img/land3.png"" style=""width:200px; border:14px solid green;"">","null","","","","","","","","","",""
"","image-keyboard-response","196","124034","0.0-196.0","37M28K1J0RZEHAGFCPBHW3GKAZ2JAA","AD3V6XGQWRD6E","3WPCIUYH1AU470H2HRBLZRFBM95TDS","","449.3000000715256","img/land1.png","74","450.60000002384186","1","1","1","2","1,0.7,0.7,0.7,1,0.7,0.7,0.7,1","1,0.7,0.7,0.7,1,0.7,0.7,0.7,1","","",""
"","html-keyboard-response","197","124336","0.0-197.0","37M28K1J0RZEHAGFCPBHW3GKAZ2JAA","AD3V6XGQWRD6E","3WPCIUYH1AU470H2HRBLZRFBM95TDS","","null","<img src=""img/land1.png"" style=""width:200px; border:14px solid green;"">","null","","","","","","","","","",""
"","image-keyboard-response","198","124914","0.0-198.0","37M28K1J0RZEHAGFCPBHW3GKAZ2JAA","AD3V6XGQWRD6E","3WPCIUYH1AU470H2HRBLZRFBM95TDS","","576.1000000238419","img/land3.png","76","577.2999999523163","3","1","3","2","1,0.7,0.7,0.7,1,0.7,0.7,0.7,1","1,0.7,0.7,0.7,1,0.7,0.7,0.7,1","","",""
"","html-keyboard-response","199","125216","0.0-199.0","37M28K1J0RZEHAGFCPBHW3GKAZ2JAA","AD3V6XGQWRD6E","3WPCIUYH1AU470H2HRBLZRFBM95TDS","","null","<img src=""img/land3.png"" style=""width:200px; border:14px solid green;"">","null","","","","","","","","","",""
"","image-keyboard-response","200","125818","0.0-200.0","37M28K1J0RZEHAGFCPBHW3GKAZ2JAA","AD3V6XGQWRD6E","3WPCIUYH1AU470H2HRBLZRFBM95TDS","","600.8999999761581","img/land2.png","75","601.8999999761581","2","1","2","2","1,0.7,0.7,0.7,1,0.7,0.7,0.7,1","1,0.7,0.7,0.7,1,0.7,0.7,0.7,1","","",""
"","html-keyboard-response","201","126119","0.0-201.0","37M28K1J0RZEHAGFCPBHW3GKAZ2JAA","AD3V6XGQWRD6E","3WPCIUYH1AU470H2HRBLZRFBM95TDS","","null","<img src=""img/land2.png"" style=""width:200px; border:14px solid green;"">","null","","","","","","","","","",""
"","image-keyboard-response","202","126722","0.0-202.0","37M28K1J0RZEHAGFCPBHW3GKAZ2JAA","AD3V6XGQWRD6E","3WPCIUYH1AU470H2HRBLZRFBM95TDS","","600.5","img/land3.png","76","602","3","1","3","2","1,0.7,0.7,0.7,1,0.7,0.7,0.7,1","1,0.7,0.7,0.7,1,0.7,0.7,0.7,1","","",""
"","html-keyboard-response","203","127024","0.0-203.0","37M28K1J0RZEHAGFCPBHW3GKAZ2JAA","AD3V6XGQWRD6E","3WPCIUYH1AU470H2HRBLZRFBM95TDS","","null","<img src=""img/land3.png"" style=""width:200px; border:14px solid green;"">","null","","","","","","","","","",""
"","image-keyboard-response","204","127570","0.0-204.0","37M28K1J0RZEHAGFCPBHW3GKAZ2JAA","AD3V6XGQWRD6E","3WPCIUYH1AU470H2HRBLZRFBM95TDS","","544.1000000238419","img/land1.png","74","545.3999999761581","1","1","1","2","1,0.7,0.7,0.7,1,0.7,0.7,0.7,1","1,0.7,0.7,0.7,1,0.7,0.7,0.7,1","","",""
"","html-keyboard-response","205","127872","0.0-205.0","37M28K1J0RZEHAGFCPBHW3GKAZ2JAA","AD3V6XGQWRD6E","3WPCIUYH1AU470H2HRBLZRFBM95TDS","","null","<img src=""img/land1.png"" style=""width:200px; border:14px solid green;"">","null","","","","","","","","","",""
"","image-keyboard-response","206","128346","0.0-206.0","37M28K1J0RZEHAGFCPBHW3GKAZ2JAA","AD3V6XGQWRD6E","3WPCIUYH1AU470H2HRBLZRFBM95TDS","","472.7999999523163","img/land1.png","74","473.7999999523163","1","1","1","2","1,0.7,0.7,0.7,1,0.7,0.7,0.7,1","1,0.7,0.7,0.7,1,0.7,0.7,0.7,1","","",""
"","html-keyboard-response","207","128647","0.0-207.0","37M28K1J0RZEHAGFCPBHW3GKAZ2JAA","AD3V6XGQWRD6E","3WPCIUYH1AU470H2HRBLZRFBM95TDS","","null","<img src=""img/land1.png"" style=""width:200px; border:14px solid green;"">","null","","","","","","","","","",""
"","image-keyboard-response","208","129179","0.0-208.0","37M28K1J0RZEHAGFCPBHW3GKAZ2JAA","AD3V6XGQWRD6E","3WPCIUYH1AU470H2HRBLZRFBM95TDS","","530.2000000476837","img/land1.png","74","531.3999999761581","1","1","1","2","1,0.7,0.7,0.7,1,0.7,0.7,0.7,1","1,0.7,0.7,0.7,1,0.7,0.7,0.7,1","","",""
"","html-keyboard-response","209","129482","0.0-209.0","37M28K1J0RZEHAGFCPBHW3GKAZ2JAA","AD3V6XGQWRD6E","3WPCIUYH1AU470H2HRBLZRFBM95TDS","","null","<img src=""img/land1.png"" style=""width:200px; border:14px solid green;"">","null","","","","","","","","","",""
"","image-keyboard-response","210","129946","0.0-210.0","37M28K1J0RZEHAGFCPBHW3GKAZ2JAA","AD3V6XGQWRD6E","3WPCIUYH1AU470H2HRBLZRFBM95TDS","","461.2000000476837","img/land1.png","74","462.89999997615814","1","1","1","2","1,0.7,0.7,0.7,1,0.7,0.7,0.7,1","1,0.7,0.7,0.7,1,0.7,0.7,0.7,1","","",""
"","html-keyboard-response","211","130248","0.0-211.0","37M28K1J0RZEHAGFCPBHW3GKAZ2JAA","AD3V6XGQWRD6E","3WPCIUYH1AU470H2HRBLZRFBM95TDS","","null","<img src=""img/land1.png"" style=""width:200px; border:14px solid green;"">","null","","","","","","","","","",""
"","image-keyboard-response","212","130794","0.0-212.0","37M28K1J0RZEHAGFCPBHW3GKAZ2JAA","AD3V6XGQWRD6E","3WPCIUYH1AU470H2HRBLZRFBM95TDS","","544.1000000238419","img/land3.png","76","545.0999999046326","3","1","3","2","1,0.7,0.7,0.7,1,0.7,0.7,0.7,1","1,0.7,0.7,0.7,1,0.7,0.7,0.7,1","","",""
"","html-keyboard-response","213","131095","0.0-213.0","37M28K1J0RZEHAGFCPBHW3GKAZ2JAA","AD3V6XGQWRD6E","3WPCIUYH1AU470H2HRBLZRFBM95TDS","","null","<img src=""img/land3.png"" style=""width:200px; border:14px solid green;"">","null","","","","","","","","","",""
"","image-keyboard-response","214","131658","0.0-214.0","37M28K1J0RZEHAGFCPBHW3GKAZ2JAA","AD3V6XGQWRD6E","3WPCIUYH1AU470H2HRBLZRFBM95TDS","","561.3999999761581","img/land3.png","76","562.6000000238419","3","1","3","2","1,0.7,0.7,0.7,1,0.7,0.7,0.7,1","1,0.7,0.7,0.7,1,0.7,0.7,0.7,1","","",""
"","html-keyboard-response","215","131959","0.0-215.0","37M28K1J0RZEHAGFCPBHW3GKAZ2JAA","AD3V6XGQWRD6E","3WPCIUYH1AU470H2HRBLZRFBM95TDS","","null","<img src=""img/land3.png"" style=""width:200px; border:14px solid green;"">","null","","","","","","","","","",""
"","image-keyboard-response","216","132658","0.0-216.0","37M28K1J0RZEHAGFCPBHW3GKAZ2JAA","AD3V6XGQWRD6E","3WPCIUYH1AU470H2HRBLZRFBM95TDS","","696.7999999523163","img/land2.png","75","698","2","1","2","2","1,0.7,0.7,0.7,1,0.7,0.7,0.7,1","1,0.7,0.7,0.7,1,0.7,0.7,0.7,1","","",""
"","html-keyboard-response","217","132959","0.0-217.0","37M28K1J0RZEHAGFCPBHW3GKAZ2JAA","AD3V6XGQWRD6E","3WPCIUYH1AU470H2HRBLZRFBM95TDS","","null","<img src=""img/land2.png"" style=""width:200px; border:14px solid green;"">","null","","","","","","","","","",""
"","image-keyboard-response","218","133458","0.0-218.0","37M28K1J0RZEHAGFCPBHW3GKAZ2JAA","AD3V6XGQWRD6E","3WPCIUYH1AU470H2HRBLZRFBM95TDS","","497.2999999523163","img/land1.png","74","498.39999997615814","1","1","1","2","1,0.7,0.7,0.7,1,0.7,0.7,0.7,1","1,0.7,0.7,0.7,1,0.7,0.7,0.7,1","","",""
"","html-keyboard-response","219","133778","0.0-219.0","37M28K1J0RZEHAGFCPBHW3GKAZ2JAA","AD3V6XGQWRD6E","3WPCIUYH1AU470H2HRBLZRFBM95TDS","","null","<img src=""img/land1.png"" style=""width:200px; border:14px solid green;"">","null","","","","","","","","","",""
"","image-keyboard-response","220","134306","0.0-220.0","37M28K1J0RZEHAGFCPBHW3GKAZ2JAA","AD3V6XGQWRD6E","3WPCIUYH1AU470H2HRBLZRFBM95TDS","","526.2000000476837","img/land1.png","74","527","1","1","1","2","1,0.7,0.7,0.7,1,0.7,0.7,0.7,1","1,0.7,0.7,0.7,1,0.7,0.7,0.7,1","","",""
"","html-keyboard-response","221","134608","0.0-221.0","37M28K1J0RZEHAGFCPBHW3GKAZ2JAA","AD3V6XGQWRD6E","3WPCIUYH1AU470H2HRBLZRFBM95TDS","","null","<img src=""img/land1.png"" style=""width:200px; border:14px solid green;"">","null","","","","","","","","","",""
"","image-keyboard-response","222","135130","0.0-222.0","37M28K1J0RZEHAGFCPBHW3GKAZ2JAA","AD3V6XGQWRD6E","3WPCIUYH1AU470H2HRBLZRFBM95TDS","","521","img/land1.png","74","522.5999999046326","1","1","1","2","1,0.7,0.7,0.7,1,0.7,0.7,0.7,1","1,0.7,0.7,0.7,1,0.7,0.7,0.7,1","","",""
"","html-keyboard-response","223","135433","0.0-223.0","37M28K1J0RZEHAGFCPBHW3GKAZ2JAA","AD3V6XGQWRD6E","3WPCIUYH1AU470H2HRBLZRFBM95TDS","","null","<img src=""img/land1.png"" style=""width:200px; border:14px solid green;"">","null","","","","","","","","","",""
"","image-keyboard-response","224","135922","0.0-224.0","37M28K1J0RZEHAGFCPBHW3GKAZ2JAA","AD3V6XGQWRD6E","3WPCIUYH1AU470H2HRBLZRFBM95TDS","","487.1999999284744","img/land1.png","74","488.39999997615814","1","1","1","2","1,0.7,0.7,0.7,1,0.7,0.7,0.7,1","1,0.7,0.7,0.7,1,0.7,0.7,0.7,1","","",""
"","html-keyboard-response","225","136223","0.0-225.0","37M28K1J0RZEHAGFCPBHW3GKAZ2JAA","AD3V6XGQWRD6E","3WPCIUYH1AU470H2HRBLZRFBM95TDS","","null","<img src=""img/land1.png"" style=""width:200px; border:14px solid green;"">","null","","","","","","","","","",""
"","image-keyboard-response","226","137153","0.0-226.0","37M28K1J0RZEHAGFCPBHW3GKAZ2JAA","AD3V6XGQWRD6E","3WPCIUYH1AU470H2HRBLZRFBM95TDS","","928.1999999284744","img/land2.png","75","929.3000000715256","2","1","2","2","1,0.7,0.7,0.7,1,0.7,0.7,0.7,1","1,0.7,0.7,0.7,1,0.7,0.7,0.7,1","","",""
"","html-keyboard-response","227","137454","0.0-227.0","37M28K1J0RZEHAGFCPBHW3GKAZ2JAA","AD3V6XGQWRD6E","3WPCIUYH1AU470H2HRBLZRFBM95TDS","","null","<img src=""img/land2.png"" style=""width:200px; border:14px solid green;"">","null","","","","","","","","","",""
"","image-keyboard-response","228","138057","0.0-228.0","37M28K1J0RZEHAGFCPBHW3GKAZ2JAA","AD3V6XGQWRD6E","3WPCIUYH1AU470H2HRBLZRFBM95TDS","","602.1999999284744","img/land1.png","74","603.1999999284744","1","1","1","2","1,0.7,0.7,0.7,1,0.7,0.7,0.7,1","1,0.7,0.7,0.7,1,0.7,0.7,0.7,1","","",""
"","html-keyboard-response","229","138360","0.0-229.0","37M28K1J0RZEHAGFCPBHW3GKAZ2JAA","AD3V6XGQWRD6E","3WPCIUYH1AU470H2HRBLZRFBM95TDS","","null","<img src=""img/land1.png"" style=""width:200px; border:14px solid green;"">","null","","","","","","","","","",""
"","image-keyboard-response","230","138785","0.0-230.0","37M28K1J0RZEHAGFCPBHW3GKAZ2JAA","AD3V6XGQWRD6E","3WPCIUYH1AU470H2HRBLZRFBM95TDS","","423.5","img/land1.png","74","424.5","1","1","1","2","1,0.7,0.7,0.7,1,0.7,0.7,0.7,1","1,0.7,0.7,0.7,1,0.7,0.7,0.7,1","","",""
"","html-keyboard-response","231","139087","0.0-231.0","37M28K1J0RZEHAGFCPBHW3GKAZ2JAA","AD3V6XGQWRD6E","3WPCIUYH1AU470H2HRBLZRFBM95TDS","","null","<img src=""img/land1.png"" style=""width:200px; border:14px solid green;"">","null","","","","","","","","","",""
"","image-keyboard-response","232","139601","0.0-232.0","37M28K1J0RZEHAGFCPBHW3GKAZ2JAA","AD3V6XGQWRD6E","3WPCIUYH1AU470H2HRBLZRFBM95TDS","","512.7000000476837","img/land2.png","75","513.6999999284744","2","1","2","2","1,0.7,0.7,0.7,1,0.7,0.7,0.7,1","1,0.7,0.7,0.7,1,0.7,0.7,0.7,1","","",""
"","html-keyboard-response","233","139903","0.0-233.0","37M28K1J0RZEHAGFCPBHW3GKAZ2JAA","AD3V6XGQWRD6E","3WPCIUYH1AU470H2HRBLZRFBM95TDS","","null","<img src=""img/land2.png"" style=""width:200px; border:14px solid green;"">","null","","","","","","","","","",""
"","image-keyboard-response","234","140402","0.0-234.0","37M28K1J0RZEHAGFCPBHW3GKAZ2JAA","AD3V6XGQWRD6E","3WPCIUYH1AU470H2HRBLZRFBM95TDS","","497.2000000476837","img/land1.png","74","498.39999997615814","1","1","1","2","1,0.7,0.7,0.7,1,0.7,0.7,0.7,1","1,0.7,0.7,0.7,1,0.7,0.7,0.7,1","","",""
"","html-keyboard-response","235","140704","0.0-235.0","37M28K1J0RZEHAGFCPBHW3GKAZ2JAA","AD3V6XGQWRD6E","3WPCIUYH1AU470H2HRBLZRFBM95TDS","","null","<img src=""img/land1.png"" style=""width:200px; border:14px solid green;"">","null","","","","","","","","","",""
"","image-keyboard-response","236","141314","0.0-236.0","37M28K1J0RZEHAGFCPBHW3GKAZ2JAA","AD3V6XGQWRD6E","3WPCIUYH1AU470H2HRBLZRFBM95TDS","","609","img/land3.png","76","610.2999999523163","3","1","3","2","1,0.7,0.7,0.7,1,0.7,0.7,0.7,1","1,0.7,0.7,0.7,1,0.7,0.7,0.7,1","","",""
"","html-keyboard-response","237","141617","0.0-237.0","37M28K1J0RZEHAGFCPBHW3GKAZ2JAA","AD3V6XGQWRD6E","3WPCIUYH1AU470H2HRBLZRFBM95TDS","","null","<img src=""img/land3.png"" style=""width:200px; border:14px solid green;"">","null","","","","","","","","","",""
"","image-keyboard-response","238","142145","0.0-238.0","37M28K1J0RZEHAGFCPBHW3GKAZ2JAA","AD3V6XGQWRD6E","3WPCIUYH1AU470H2HRBLZRFBM95TDS","","527.0999999046326","img/land1.png","75","528.2999999523163","2","1","1","2","1,0.7,0.7,0.7,1,0.7,0.7,0.7,1","1,0.7,0.7,0.7,1,0.7,0.7,0.7,1","","",""
"","html-keyboard-response","239","142447","0.0-239.0","37M28K1J0RZEHAGFCPBHW3GKAZ2JAA","AD3V6XGQWRD6E","3WPCIUYH1AU470H2HRBLZRFBM95TDS","","null","<img src=""img/land1.png"" style=""width:200px; border:14px solid green;"">","null","","","","","","","","","",""
"","image-keyboard-response","240","143026","0.0-240.0","37M28K1J0RZEHAGFCPBHW3GKAZ2JAA","AD3V6XGQWRD6E","3WPCIUYH1AU470H2HRBLZRFBM95TDS","","576.8999999761581","img/land3.png","76","577.8999999761581","3","1","3","2","1,0.7,0.7,0.7,1,0.7,0.7,0.7,1","1,0.7,0.7,0.7,1,0.7,0.7,0.7,1","","",""
"","html-keyboard-response","241","143327","0.0-241.0","37M28K1J0RZEHAGFCPBHW3GKAZ2JAA","AD3V6XGQWRD6E","3WPCIUYH1AU470H2HRBLZRFBM95TDS","","null","<img src=""img/land3.png"" style=""width:200px; border:14px solid green;"">","null","","","","","","","","","",""
"","image-keyboard-response","242","143921","0.0-242.0","37M28K1J0RZEHAGFCPBHW3GKAZ2JAA","AD3V6XGQWRD6E","3WPCIUYH1AU470H2HRBLZRFBM95TDS","","592.8999999761581","img/land1.png","75","594.2000000476837","2","0","1","2","1,0.7,0.7,0.7,1,0.7,0.7,0.7,1","1,0.7,0.7,0.7,1,0.7,0.7,0.7,1","","",""
"","html-keyboard-response","243","144223","0.0-243.0","37M28K1J0RZEHAGFCPBHW3GKAZ2JAA","AD3V6XGQWRD6E","3WPCIUYH1AU470H2HRBLZRFBM95TDS","","null","<img src=""img/land1.png"" style=""width:200px;border:14px solid red;"">","null","","","","","","","","","",""
"","image-keyboard-response","244","144738","0.0-244.0","37M28K1J0RZEHAGFCPBHW3GKAZ2JAA","AD3V6XGQWRD6E","3WPCIUYH1AU470H2HRBLZRFBM95TDS","","513.3000000715256","img/land3.png","74","514.6000000238419","1","0","3","2","1,0.7,0.7,0.7,1,0.7,0.7,0.7,1","1,0.7,0.7,0.7,1,0.7,0.7,0.7,1","","",""
"","html-keyboard-response","245","145040","0.0-245.0","37M28K1J0RZEHAGFCPBHW3GKAZ2JAA","AD3V6XGQWRD6E","3WPCIUYH1AU470H2HRBLZRFBM95TDS","","null","<img src=""img/land3.png"" style=""width:200px;border:14px solid red;"">","null","","","","","","","","","",""
"","image-keyboard-response","246","145786","0.0-246.0","37M28K1J0RZEHAGFCPBHW3GKAZ2JAA","AD3V6XGQWRD6E","3WPCIUYH1AU470H2HRBLZRFBM95TDS","","742.6000000238419","img/land1.png","74","745.3999999761581","1","1","1","2","1,0.7,0.7,0.7,1,0.7,0.7,0.7,1","1,0.7,0.7,0.7,1,0.7,0.7,0.7,1","","",""
"","html-keyboard-response","247","146088","0.0-247.0","37M28K1J0RZEHAGFCPBHW3GKAZ2JAA","AD3V6XGQWRD6E","3WPCIUYH1AU470H2HRBLZRFBM95TDS","","null","<img src=""img/land1.png"" style=""width:200px; border:14px solid green;"">","null","","","","","","","","","",""
"","image-keyboard-response","248","146457","0.0-248.0","37M28K1J0RZEHAGFCPBHW3GKAZ2JAA","AD3V6XGQWRD6E","3WPCIUYH1AU470H2HRBLZRFBM95TDS","","367.7999999523163","img/land1.png","74","369.1999999284744","1","1","1","2","1,0.7,0.7,0.7,1,0.7,0.7,0.7,1","1,0.7,0.7,0.7,1,0.7,0.7,0.7,1","","",""
"","html-keyboard-response","249","146760","0.0-249.0","37M28K1J0RZEHAGFCPBHW3GKAZ2JAA","AD3V6XGQWRD6E","3WPCIUYH1AU470H2HRBLZRFBM95TDS","","null","<img src=""img/land1.png"" style=""width:200px; border:14px solid green;"">","null","","","","","","","","","",""
"","image-keyboard-response","250","147265","0.0-250.0","37M28K1J0RZEHAGFCPBHW3GKAZ2JAA","AD3V6XGQWRD6E","3WPCIUYH1AU470H2HRBLZRFBM95TDS","","504.2999999523163","img/land1.png","74","505.5","1","1","1","2","1,0.7,0.7,0.7,1,0.7,0.7,0.7,1","1,0.7,0.7,0.7,1,0.7,0.7,0.7,1","","",""
"","html-keyboard-response","251","147568","0.0-251.0","37M28K1J0RZEHAGFCPBHW3GKAZ2JAA","AD3V6XGQWRD6E","3WPCIUYH1AU470H2HRBLZRFBM95TDS","","null","<img src=""img/land1.png"" style=""width:200px; border:14px solid green;"">","null","","","","","","","","","",""
"","image-keyboard-response","252","148177","0.0-252.0","37M28K1J0RZEHAGFCPBHW3GKAZ2JAA","AD3V6XGQWRD6E","3WPCIUYH1AU470H2HRBLZRFBM95TDS","","608.0999999046326","img/land1.png","74","609.2999999523163","1","1","1","2","1,0.7,0.7,0.7,1,0.7,0.7,0.7,1","1,0.7,0.7,0.7,1,0.7,0.7,0.7,1","","",""
"","html-keyboard-response","253","148479","0.0-253.0","37M28K1J0RZEHAGFCPBHW3GKAZ2JAA","AD3V6XGQWRD6E","3WPCIUYH1AU470H2HRBLZRFBM95TDS","","null","<img src=""img/land1.png"" style=""width:200px; border:14px solid green;"">","null","","","","","","","","","",""
"","image-keyboard-response","254","148889","0.0-254.0","37M28K1J0RZEHAGFCPBHW3GKAZ2JAA","AD3V6XGQWRD6E","3WPCIUYH1AU470H2HRBLZRFBM95TDS","","408.5","img/land1.png","74","409.7999999523163","1","1","1","2","1,0.7,0.7,0.7,1,0.7,0.7,0.7,1","1,0.7,0.7,0.7,1,0.7,0.7,0.7,1","","",""
"","html-keyboard-response","255","149191","0.0-255.0","37M28K1J0RZEHAGFCPBHW3GKAZ2JAA","AD3V6XGQWRD6E","3WPCIUYH1AU470H2HRBLZRFBM95TDS","","null","<img src=""img/land1.png"" style=""width:200px; border:14px solid green;"">","null","","","","","","","","","",""
"","image-keyboard-response","256","149737","0.0-256.0","37M28K1J0RZEHAGFCPBHW3GKAZ2JAA","AD3V6XGQWRD6E","3WPCIUYH1AU470H2HRBLZRFBM95TDS","","544.5","img/land3.png","76","545.8000000715256","3","1","3","2","1,0.7,0.7,0.7,1,0.7,0.7,0.7,1","1,0.7,0.7,0.7,1,0.7,0.7,0.7,1","","",""
"","html-keyboard-response","257","150040","0.0-257.0","37M28K1J0RZEHAGFCPBHW3GKAZ2JAA","AD3V6XGQWRD6E","3WPCIUYH1AU470H2HRBLZRFBM95TDS","","null","<img src=""img/land3.png"" style=""width:200px; border:14px solid green;"">","null","","","","","","","","","",""
"","image-keyboard-response","258","150514","0.0-258.0","37M28K1J0RZEHAGFCPBHW3GKAZ2JAA","AD3V6XGQWRD6E","3WPCIUYH1AU470H2HRBLZRFBM95TDS","","472","img/land3.png","76","473.2999999523163","3","1","3","2","1,0.7,0.7,0.7,1,0.7,0.7,0.7,1","1,0.7,0.7,0.7,1,0.7,0.7,0.7,1","","",""
"","html-keyboard-response","259","150816","0.0-259.0","37M28K1J0RZEHAGFCPBHW3GKAZ2JAA","AD3V6XGQWRD6E","3WPCIUYH1AU470H2HRBLZRFBM95TDS","","null","<img src=""img/land3.png"" style=""width:200px; border:14px solid green;"">","null","","","","","","","","","",""
"","image-keyboard-response","260","151353","0.0-260.0","37M28K1J0RZEHAGFCPBHW3GKAZ2JAA","AD3V6XGQWRD6E","3WPCIUYH1AU470H2HRBLZRFBM95TDS","","535.7999999523163","img/land2.png","75","537.0999999046326","2","1","2","2","1,0.7,0.7,0.7,1,0.7,0.7,0.7,1","1,0.7,0.7,0.7,1,0.7,0.7,0.7,1","","",""
"","html-keyboard-response","261","151655","0.0-261.0","37M28K1J0RZEHAGFCPBHW3GKAZ2JAA","AD3V6XGQWRD6E","3WPCIUYH1AU470H2HRBLZRFBM95TDS","","null","<img src=""img/land2.png"" style=""width:200px; border:14px solid green;"">","null","","","","","","","","","",""
"","image-keyboard-response","262","152073","0.0-262.0","37M28K1J0RZEHAGFCPBHW3GKAZ2JAA","AD3V6XGQWRD6E","3WPCIUYH1AU470H2HRBLZRFBM95TDS","","416.1999999284744","img/land2.png","75","417.40000009536743","2","1","2","2","1,0.7,0.7,0.7,1,0.7,0.7,0.7,1","1,0.7,0.7,0.7,1,0.7,0.7,0.7,1","","",""
"","html-keyboard-response","263","152375","0.0-263.0","37M28K1J0RZEHAGFCPBHW3GKAZ2JAA","AD3V6XGQWRD6E","3WPCIUYH1AU470H2HRBLZRFBM95TDS","","null","<img src=""img/land2.png"" style=""width:200px; border:14px solid green;"">","null","","","","","","","","","",""
"","image-keyboard-response","264","152850","0.0-264.0","37M28K1J0RZEHAGFCPBHW3GKAZ2JAA","AD3V6XGQWRD6E","3WPCIUYH1AU470H2HRBLZRFBM95TDS","","473.2000000476837","img/land1.png","74","474.39999997615814","1","1","1","2","1,0.7,0.7,0.7,1,0.7,0.7,0.7,1","1,0.7,0.7,0.7,1,0.7,0.7,0.7,1","","",""
"","html-keyboard-response","265","153152","0.0-265.0","37M28K1J0RZEHAGFCPBHW3GKAZ2JAA","AD3V6XGQWRD6E","3WPCIUYH1AU470H2HRBLZRFBM95TDS","","null","<img src=""img/land1.png"" style=""width:200px; border:14px solid green;"">","null","","","","","","","","","",""
"","image-keyboard-response","266","153570","0.0-266.0","37M28K1J0RZEHAGFCPBHW3GKAZ2JAA","AD3V6XGQWRD6E","3WPCIUYH1AU470H2HRBLZRFBM95TDS","","416.7999999523163","img/land1.png","74","418.1999999284744","1","1","1","2","1,0.7,0.7,0.7,1,0.7,0.7,0.7,1","1,0.7,0.7,0.7,1,0.7,0.7,0.7,1","","",""
"","html-keyboard-response","267","153887","0.0-267.0","37M28K1J0RZEHAGFCPBHW3GKAZ2JAA","AD3V6XGQWRD6E","3WPCIUYH1AU470H2HRBLZRFBM95TDS","","null","<img src=""img/land1.png"" style=""width:200px; border:14px solid green;"">","null","","","","","","","","","",""
"","image-keyboard-response","268","154361","0.0-268.0","37M28K1J0RZEHAGFCPBHW3GKAZ2JAA","AD3V6XGQWRD6E","3WPCIUYH1AU470H2HRBLZRFBM95TDS","","473","img/land1.png","74","474.3000000715256","1","1","1","2","1,0.7,0.7,0.7,1,0.7,0.7,0.7,1","1,0.7,0.7,0.7,1,0.7,0.7,0.7,1","","",""
"","html-keyboard-response","269","154664","0.0-269.0","37M28K1J0RZEHAGFCPBHW3GKAZ2JAA","AD3V6XGQWRD6E","3WPCIUYH1AU470H2HRBLZRFBM95TDS","","null","<img src=""img/land1.png"" style=""width:200px; border:14px solid green;"">","null","","","","","","","","","",""
"","image-keyboard-response","270","155257","0.0-270.0","37M28K1J0RZEHAGFCPBHW3GKAZ2JAA","AD3V6XGQWRD6E","3WPCIUYH1AU470H2HRBLZRFBM95TDS","","592.0999999046326","img/land2.png","75","593.2000000476837","2","1","2","2","1,0.7,0.7,0.7,1,0.7,0.7,0.7,1","1,0.7,0.7,0.7,1,0.7,0.7,0.7,1","","",""
"","html-keyboard-response","271","155560","0.0-271.0","37M28K1J0RZEHAGFCPBHW3GKAZ2JAA","AD3V6XGQWRD6E","3WPCIUYH1AU470H2HRBLZRFBM95TDS","","null","<img src=""img/land2.png"" style=""width:200px; border:14px solid green;"">","null","","","","","","","","","",""
"","image-keyboard-response","272","156186","0.0-272.0","37M28K1J0RZEHAGFCPBHW3GKAZ2JAA","AD3V6XGQWRD6E","3WPCIUYH1AU470H2HRBLZRFBM95TDS","","624","img/land1.png","74","625.6000000238419","1","1","1","2","1,0.7,0.7,0.7,1,0.7,0.7,0.7,1","1,0.7,0.7,0.7,1,0.7,0.7,0.7,1","","",""
"","html-keyboard-response","273","156488","0.0-273.0","37M28K1J0RZEHAGFCPBHW3GKAZ2JAA","AD3V6XGQWRD6E","3WPCIUYH1AU470H2HRBLZRFBM95TDS","","null","<img src=""img/land1.png"" style=""width:200px; border:14px solid green;"">","null","","","","","","","","","",""
"","image-keyboard-response","274","156937","0.0-274.0","37M28K1J0RZEHAGFCPBHW3GKAZ2JAA","AD3V6XGQWRD6E","3WPCIUYH1AU470H2HRBLZRFBM95TDS","","447.7999999523163","img/land1.png","74","448.8000000715256","1","1","1","2","1,0.7,0.7,0.7,1,0.7,0.7,0.7,1","1,0.7,0.7,0.7,1,0.7,0.7,0.7,1","","",""
"","html-keyboard-response","275","157240","0.0-275.0","37M28K1J0RZEHAGFCPBHW3GKAZ2JAA","AD3V6XGQWRD6E","3WPCIUYH1AU470H2HRBLZRFBM95TDS","","null","<img src=""img/land1.png"" style=""width:200px; border:14px solid green;"">","null","","","","","","","","","",""
"","image-keyboard-response","276","157953","0.0-276.0","37M28K1J0RZEHAGFCPBHW3GKAZ2JAA","AD3V6XGQWRD6E","3WPCIUYH1AU470H2HRBLZRFBM95TDS","","712.2000000476837","img/land1.png","74","713.3000000715256","1","1","1","2","1,0.7,0.7,0.7,1,0.7,0.7,0.7,1","1,0.7,0.7,0.7,1,0.7,0.7,0.7,1","","",""
"","html-keyboard-response","277","158255","0.0-277.0","37M28K1J0RZEHAGFCPBHW3GKAZ2JAA","AD3V6XGQWRD6E","3WPCIUYH1AU470H2HRBLZRFBM95TDS","","null","<img src=""img/land1.png"" style=""width:200px; border:14px solid green;"">","null","","","","","","","","","",""
"","image-keyboard-response","278","158785","0.0-278.0","37M28K1J0RZEHAGFCPBHW3GKAZ2JAA","AD3V6XGQWRD6E","3WPCIUYH1AU470H2HRBLZRFBM95TDS","","529.2000000476837","img/land1.png","74","530.5999999046326","1","1","1","2","1,0.7,0.7,0.7,1,0.7,0.7,0.7,1","1,0.7,0.7,0.7,1,0.7,0.7,0.7,1","","",""
"","html-keyboard-response","279","159089","0.0-279.0","37M28K1J0RZEHAGFCPBHW3GKAZ2JAA","AD3V6XGQWRD6E","3WPCIUYH1AU470H2HRBLZRFBM95TDS","","null","<img src=""img/land1.png"" style=""width:200px; border:14px solid green;"">","null","","","","","","","","","",""
"","image-keyboard-response","280","159633","0.0-280.0","37M28K1J0RZEHAGFCPBHW3GKAZ2JAA","AD3V6XGQWRD6E","3WPCIUYH1AU470H2HRBLZRFBM95TDS","","542.6000000238419","img/land1.png","74","543.6999999284744","1","1","1","2","1,0.7,0.7,0.7,1,0.7,0.7,0.7,1","1,0.7,0.7,0.7,1,0.7,0.7,0.7,1","","",""
"","html-keyboard-response","281","159935","0.0-281.0","37M28K1J0RZEHAGFCPBHW3GKAZ2JAA","AD3V6XGQWRD6E","3WPCIUYH1AU470H2HRBLZRFBM95TDS","","null","<img src=""img/land1.png"" style=""width:200px; border:14px solid green;"">","null","","","","","","","","","",""
"","image-keyboard-response","282","160545","0.0-282.0","37M28K1J0RZEHAGFCPBHW3GKAZ2JAA","AD3V6XGQWRD6E","3WPCIUYH1AU470H2HRBLZRFBM95TDS","","609.1000000238419","img/land3.png","76","610.3000000715256","3","1","3","2","1,0.7,0.7,0.7,1,0.7,0.7,0.7,1","1,0.7,0.7,0.7,1,0.7,0.7,0.7,1","","",""
"","html-keyboard-response","283","160847","0.0-283.0","37M28K1J0RZEHAGFCPBHW3GKAZ2JAA","AD3V6XGQWRD6E","3WPCIUYH1AU470H2HRBLZRFBM95TDS","","null","<img src=""img/land3.png"" style=""width:200px; border:14px solid green;"">","null","","","","","","","","","",""
"","image-keyboard-response","284","161641","0.0-284.0","37M28K1J0RZEHAGFCPBHW3GKAZ2JAA","AD3V6XGQWRD6E","3WPCIUYH1AU470H2HRBLZRFBM95TDS","","792.6000000238419","img/land1.png","74","793.9000000953674","1","1","1","2","1,0.7,0.7,0.7,1,0.7,0.7,0.7,1","1,0.7,0.7,0.7,1,0.7,0.7,0.7,1","","",""
"","html-keyboard-response","285","161944","0.0-285.0","37M28K1J0RZEHAGFCPBHW3GKAZ2JAA","AD3V6XGQWRD6E","3WPCIUYH1AU470H2HRBLZRFBM95TDS","","null","<img src=""img/land1.png"" style=""width:200px; border:14px solid green;"">","null","","","","","","","","","",""
"","image-keyboard-response","286","162497","0.0-286.0","37M28K1J0RZEHAGFCPBHW3GKAZ2JAA","AD3V6XGQWRD6E","3WPCIUYH1AU470H2HRBLZRFBM95TDS","","551.1000000238419","img/land3.png","76","552.3999999761581","3","1","3","2","1,0.7,0.7,0.7,1,0.7,0.7,0.7,1","1,0.7,0.7,0.7,1,0.7,0.7,0.7,1","","",""
"","html-keyboard-response","287","162808","0.0-287.0","37M28K1J0RZEHAGFCPBHW3GKAZ2JAA","AD3V6XGQWRD6E","3WPCIUYH1AU470H2HRBLZRFBM95TDS","","null","<img src=""img/land3.png"" style=""width:200px; border:14px solid green;"">","null","","","","","","","","","",""
"","image-keyboard-response","288","163257","0.0-288.0","37M28K1J0RZEHAGFCPBHW3GKAZ2JAA","AD3V6XGQWRD6E","3WPCIUYH1AU470H2HRBLZRFBM95TDS","","447.8000000715256","img/land1.png","74","449.2000000476837","1","1","1","2","1,0.7,0.7,0.7,1,0.7,0.7,0.7,1","1,0.7,0.7,0.7,1,0.7,0.7,0.7,1","","",""
"","html-keyboard-response","289","163559","0.0-289.0","37M28K1J0RZEHAGFCPBHW3GKAZ2JAA","AD3V6XGQWRD6E","3WPCIUYH1AU470H2HRBLZRFBM95TDS","","null","<img src=""img/land1.png"" style=""width:200px; border:14px solid green;"">","null","","","","","","","","","",""
"","image-keyboard-response","290","163953","0.0-290.0","37M28K1J0RZEHAGFCPBHW3GKAZ2JAA","AD3V6XGQWRD6E","3WPCIUYH1AU470H2HRBLZRFBM95TDS","","392.40000009536743","img/land1.png","74","393.7000000476837","1","1","1","2","1,0.7,0.7,0.7,1,0.7,0.7,0.7,1","1,0.7,0.7,0.7,1,0.7,0.7,0.7,1","","",""
"","html-keyboard-response","291","164255","0.0-291.0","37M28K1J0RZEHAGFCPBHW3GKAZ2JAA","AD3V6XGQWRD6E","3WPCIUYH1AU470H2HRBLZRFBM95TDS","","null","<img src=""img/land1.png"" style=""width:200px; border:14px solid green;"">","null","","","","","","","","","",""
"","image-keyboard-response","292","164770","0.0-292.0","37M28K1J0RZEHAGFCPBHW3GKAZ2JAA","AD3V6XGQWRD6E","3WPCIUYH1AU470H2HRBLZRFBM95TDS","","511.39999997615814","img/land1.png","74","512.7000000476837","1","1","1","2","1,0.7,0.7,0.7,1,0.7,0.7,0.7,1","1,0.7,0.7,0.7,1,0.7,0.7,0.7,1","","",""
"","html-keyboard-response","293","165072","0.0-293.0","37M28K1J0RZEHAGFCPBHW3GKAZ2JAA","AD3V6XGQWRD6E","3WPCIUYH1AU470H2HRBLZRFBM95TDS","","null","<img src=""img/land1.png"" style=""width:200px; border:14px solid green;"">","null","","","","","","","","","",""
"","image-keyboard-response","294","165482","0.0-294.0","37M28K1J0RZEHAGFCPBHW3GKAZ2JAA","AD3V6XGQWRD6E","3WPCIUYH1AU470H2HRBLZRFBM95TDS","","408.2999999523163","img/land2.png","75","409.8000000715256","2","1","2","2","1,0.7,0.7,0.7,1,0.7,0.7,0.7,1","1,0.7,0.7,0.7,1,0.7,0.7,0.7,1","","",""
"","html-keyboard-response","295","165783","0.0-295.0","37M28K1J0RZEHAGFCPBHW3GKAZ2JAA","AD3V6XGQWRD6E","3WPCIUYH1AU470H2HRBLZRFBM95TDS","","null","<img src=""img/land2.png"" style=""width:200px; border:14px solid green;"">","null","","","","","","","","","",""
"","image-keyboard-response","296","166314","0.0-296.0","37M28K1J0RZEHAGFCPBHW3GKAZ2JAA","AD3V6XGQWRD6E","3WPCIUYH1AU470H2HRBLZRFBM95TDS","","528.7999999523163","img/land2.png","75","530","2","1","2","2","1,0.7,0.7,0.7,1,0.7,0.7,0.7,1","1,0.7,0.7,0.7,1,0.7,0.7,0.7,1","","",""
"","html-keyboard-response","297","166616","0.0-297.0","37M28K1J0RZEHAGFCPBHW3GKAZ2JAA","AD3V6XGQWRD6E","3WPCIUYH1AU470H2HRBLZRFBM95TDS","","null","<img src=""img/land2.png"" style=""width:200px; border:14px solid green;"">","null","","","","","","","","","",""
"","image-keyboard-response","298","167081","0.0-298.0","37M28K1J0RZEHAGFCPBHW3GKAZ2JAA","AD3V6XGQWRD6E","3WPCIUYH1AU470H2HRBLZRFBM95TDS","","464.10000002384186","img/land1.png","74","465.39999997615814","1","1","1","2","1,0.7,0.7,0.7,1,0.7,0.7,0.7,1","1,0.7,0.7,0.7,1,0.7,0.7,0.7,1","","",""
"","html-keyboard-response","299","167384","0.0-299.0","37M28K1J0RZEHAGFCPBHW3GKAZ2JAA","AD3V6XGQWRD6E","3WPCIUYH1AU470H2HRBLZRFBM95TDS","","null","<img src=""img/land1.png"" style=""width:200px; border:14px solid green;"">","null","","","","","","","","","",""
"","image-keyboard-response","300","167890","0.0-300.0","37M28K1J0RZEHAGFCPBHW3GKAZ2JAA","AD3V6XGQWRD6E","3WPCIUYH1AU470H2HRBLZRFBM95TDS","","504.39999997615814","img/land3.png","76","505.7999999523163","3","1","3","2","1,0.7,0.7,0.7,1,0.7,0.7,0.7,1","1,0.7,0.7,0.7,1,0.7,0.7,0.7,1","","",""
"","html-keyboard-response","301","168192","0.0-301.0","37M28K1J0RZEHAGFCPBHW3GKAZ2JAA","AD3V6XGQWRD6E","3WPCIUYH1AU470H2HRBLZRFBM95TDS","","null","<img src=""img/land3.png"" style=""width:200px; border:14px solid green;"">","null","","","","","","","","","",""
"","html-keyboard-response","302","171114","0.0-302.0","37M28K1J0RZEHAGFCPBHW3GKAZ2JAA","AD3V6XGQWRD6E","3WPCIUYH1AU470H2HRBLZRFBM95TDS","","","","","","","","","","","","","",""
"","image-keyboard-response","303","172617","0.0-303.0","37M28K1J0RZEHAGFCPBHW3GKAZ2JAA","AD3V6XGQWRD6E","3WPCIUYH1AU470H2HRBLZRFBM95TDS","","","img/land6.png","","1502.3999999761581","-1","0","3","2","1,0.7,0.7,0.7,1,0.7,0.7,0.7,1","1,0.7,0.7,0.7,1,0.7,0.7,0.7,1","","",""
"","html-keyboard-response","304","172919","0.0-304.0","37M28K1J0RZEHAGFCPBHW3GKAZ2JAA","AD3V6XGQWRD6E","3WPCIUYH1AU470H2HRBLZRFBM95TDS","","null","<img src=""img/land6.png"" style=""width:200px;border:14px solid red;"">","null","","","","","","","","","",""
"","image-keyboard-response","305","172961","0.0-305.0","37M28K1J0RZEHAGFCPBHW3GKAZ2JAA","AD3V6XGQWRD6E","3WPCIUYH1AU470H2HRBLZRFBM95TDS","","39.89999997615814","img/land6.png","75","41","2","1","3","2","1,0.7,0.7,0.7,1,0.7,0.7,0.7,1","1,0.7,0.7,0.7,1,0.7,0.7,0.7,1","","",""
"","html-keyboard-response","306","173266","0.0-306.0","37M28K1J0RZEHAGFCPBHW3GKAZ2JAA","AD3V6XGQWRD6E","3WPCIUYH1AU470H2HRBLZRFBM95TDS","","null","<img src=""img/land6.png"" style=""width:200px; border:14px solid green;"">","null","","","","","","","","","",""
"","image-keyboard-response","307","173705","0.0-307.0","37M28K1J0RZEHAGFCPBHW3GKAZ2JAA","AD3V6XGQWRD6E","3WPCIUYH1AU470H2HRBLZRFBM95TDS","","438","img/land6.png","75","438.7999999523163","2","1","3","2","1,0.7,0.7,0.7,1,0.7,0.7,0.7,1","1,0.7,0.7,0.7,1,0.7,0.7,0.7,1","","",""
"","html-keyboard-response","308","174008","0.0-308.0","37M28K1J0RZEHAGFCPBHW3GKAZ2JAA","AD3V6XGQWRD6E","3WPCIUYH1AU470H2HRBLZRFBM95TDS","","null","<img src=""img/land6.png"" style=""width:200px; border:14px solid green;"">","null","","","","","","","","","",""
"","image-keyboard-response","309","174633","0.0-309.0","37M28K1J0RZEHAGFCPBHW3GKAZ2JAA","AD3V6XGQWRD6E","3WPCIUYH1AU470H2HRBLZRFBM95TDS","","623.8000000715256","img/land4.png","74","625.0999999046326","1","1","1","2","1,0.7,0.7,0.7,1,0.7,0.7,0.7,1","1,0.7,0.7,0.7,1,0.7,0.7,0.7,1","","",""
"","html-keyboard-response","310","174936","0.0-310.0","37M28K1J0RZEHAGFCPBHW3GKAZ2JAA","AD3V6XGQWRD6E","3WPCIUYH1AU470H2HRBLZRFBM95TDS","","null","<img src=""img/land4.png"" style=""width:200px; border:14px solid green;"">","null","","","","","","","","","",""
"","image-keyboard-response","311","175441","0.0-311.0","37M28K1J0RZEHAGFCPBHW3GKAZ2JAA","AD3V6XGQWRD6E","3WPCIUYH1AU470H2HRBLZRFBM95TDS","","504.39999997615814","img/land6.png","75","505.60000002384186","2","0","3","2","1,0.7,0.7,0.7,1,0.7,0.7,0.7,1","1,0.7,0.7,0.7,1,0.7,0.7,0.7,1","","",""
"","html-keyboard-response","312","175744","0.0-312.0","37M28K1J0RZEHAGFCPBHW3GKAZ2JAA","AD3V6XGQWRD6E","3WPCIUYH1AU470H2HRBLZRFBM95TDS","","null","<img src=""img/land6.png"" style=""width:200px;border:14px solid red;"">","null","","","","","","","","","",""
"","image-keyboard-response","313","176282","0.0-313.0","37M28K1J0RZEHAGFCPBHW3GKAZ2JAA","AD3V6XGQWRD6E","3WPCIUYH1AU470H2HRBLZRFBM95TDS","","535.8999999761581","img/land6.png","75","537.2000000476837","2","0","3","2","1,0.7,0.7,0.7,1,0.7,0.7,0.7,1","1,0.7,0.7,0.7,1,0.7,0.7,0.7,1","","",""
"","html-keyboard-response","314","176583","0.0-314.0","37M28K1J0RZEHAGFCPBHW3GKAZ2JAA","AD3V6XGQWRD6E","3WPCIUYH1AU470H2HRBLZRFBM95TDS","","null","<img src=""img/land6.png"" style=""width:200px;border:14px solid red;"">","null","","","","","","","","","",""
"","image-keyboard-response","315","177002","0.0-315.0","37M28K1J0RZEHAGFCPBHW3GKAZ2JAA","AD3V6XGQWRD6E","3WPCIUYH1AU470H2HRBLZRFBM95TDS","","416.6999999284744","img/land6.png","75","418.6999999284744","2","1","3","2","1,0.7,0.7,0.7,1,0.7,0.7,0.7,1","1,0.7,0.7,0.7,1,0.7,0.7,0.7,1","","",""
"","html-keyboard-response","316","177304","0.0-316.0","37M28K1J0RZEHAGFCPBHW3GKAZ2JAA","AD3V6XGQWRD6E","3WPCIUYH1AU470H2HRBLZRFBM95TDS","","null","<img src=""img/land6.png"" style=""width:200px; border:14px solid green;"">","null","","","","","","","","","",""
"","image-keyboard-response","317","178121","0.0-317.0","37M28K1J0RZEHAGFCPBHW3GKAZ2JAA","AD3V6XGQWRD6E","3WPCIUYH1AU470H2HRBLZRFBM95TDS","","816","img/land5.png","76","817.2000000476837","3","1","2","2","1,0.7,0.7,0.7,1,0.7,0.7,0.7,1","1,0.7,0.7,0.7,1,0.7,0.7,0.7,1","","",""
"","html-keyboard-response","318","178423","0.0-318.0","37M28K1J0RZEHAGFCPBHW3GKAZ2JAA","AD3V6XGQWRD6E","3WPCIUYH1AU470H2HRBLZRFBM95TDS","","null","<img src=""img/land5.png"" style=""width:200px; border:14px solid green;"">","null","","","","","","","","","",""
"","image-keyboard-response","319","178905","0.0-319.0","37M28K1J0RZEHAGFCPBHW3GKAZ2JAA","AD3V6XGQWRD6E","3WPCIUYH1AU470H2HRBLZRFBM95TDS","","480.5","img/land5.png","76","481.7000000476837","3","1","2","2","1,0.7,0.7,0.7,1,0.7,0.7,0.7,1","1,0.7,0.7,0.7,1,0.7,0.7,0.7,1","","",""
"","html-keyboard-response","320","179208","0.0-320.0","37M28K1J0RZEHAGFCPBHW3GKAZ2JAA","AD3V6XGQWRD6E","3WPCIUYH1AU470H2HRBLZRFBM95TDS","","null","<img src=""img/land5.png"" style=""width:200px; border:14px solid green;"">","null","","","","","","","","","",""
"","image-keyboard-response","321","179801","0.0-321.0","37M28K1J0RZEHAGFCPBHW3GKAZ2JAA","AD3V6XGQWRD6E","3WPCIUYH1AU470H2HRBLZRFBM95TDS","","591.8000000715256","img/land4.png","74","593","1","1","1","2","1,0.7,0.7,0.7,1,0.7,0.7,0.7,1","1,0.7,0.7,0.7,1,0.7,0.7,0.7,1","","",""
"","html-keyboard-response","322","180103","0.0-322.0","37M28K1J0RZEHAGFCPBHW3GKAZ2JAA","AD3V6XGQWRD6E","3WPCIUYH1AU470H2HRBLZRFBM95TDS","","null","<img src=""img/land4.png"" style=""width:200px; border:14px solid green;"">","null","","","","","","","","","",""
"","image-keyboard-response","323","180659","0.0-323.0","37M28K1J0RZEHAGFCPBHW3GKAZ2JAA","AD3V6XGQWRD6E","3WPCIUYH1AU470H2HRBLZRFBM95TDS","","554.2999999523163","img/land6.png","75","556.1999999284744","2","0","3","2","1,0.7,0.7,0.7,1,0.7,0.7,0.7,1","1,0.7,0.7,0.7,1,0.7,0.7,0.7,1","","",""
"","html-keyboard-response","324","180962","0.0-324.0","37M28K1J0RZEHAGFCPBHW3GKAZ2JAA","AD3V6XGQWRD6E","3WPCIUYH1AU470H2HRBLZRFBM95TDS","","null","<img src=""img/land6.png"" style=""width:200px;border:14px solid red;"">","null","","","","","","","","","",""
"","image-keyboard-response","325","181418","0.0-325.0","37M28K1J0RZEHAGFCPBHW3GKAZ2JAA","AD3V6XGQWRD6E","3WPCIUYH1AU470H2HRBLZRFBM95TDS","","454.2000000476837","img/land6.png","75","455.7000000476837","2","1","3","2","1,0.7,0.7,0.7,1,0.7,0.7,0.7,1","1,0.7,0.7,0.7,1,0.7,0.7,0.7,1","","",""
"","html-keyboard-response","326","181720","0.0-326.0","37M28K1J0RZEHAGFCPBHW3GKAZ2JAA","AD3V6XGQWRD6E","3WPCIUYH1AU470H2HRBLZRFBM95TDS","","null","<img src=""img/land6.png"" style=""width:200px; border:14px solid green;"">","null","","","","","","","","","",""
"","image-keyboard-response","327","182178","0.0-327.0","37M28K1J0RZEHAGFCPBHW3GKAZ2JAA","AD3V6XGQWRD6E","3WPCIUYH1AU470H2HRBLZRFBM95TDS","","456.3000000715256","img/land6.png","75","457.60000002384186","2","0","3","2","1,0.7,0.7,0.7,1,0.7,0.7,0.7,1","1,0.7,0.7,0.7,1,0.7,0.7,0.7,1","","",""
"","html-keyboard-response","328","182489","0.0-328.0","37M28K1J0RZEHAGFCPBHW3GKAZ2JAA","AD3V6XGQWRD6E","3WPCIUYH1AU470H2HRBLZRFBM95TDS","","null","<img src=""img/land6.png"" style=""width:200px;border:14px solid red;"">","null","","","","","","","","","",""
"","image-keyboard-response","329","182937","0.0-329.0","37M28K1J0RZEHAGFCPBHW3GKAZ2JAA","AD3V6XGQWRD6E","3WPCIUYH1AU470H2HRBLZRFBM95TDS","","446.39999997615814","img/land6.png","75","447.5","2","1","3","2","1,0.7,0.7,0.7,1,0.7,0.7,0.7,1","1,0.7,0.7,0.7,1,0.7,0.7,0.7,1","","",""
"","html-keyboard-response","330","183240","0.0-330.0","37M28K1J0RZEHAGFCPBHW3GKAZ2JAA","AD3V6XGQWRD6E","3WPCIUYH1AU470H2HRBLZRFBM95TDS","","null","<img src=""img/land6.png"" style=""width:200px; border:14px solid green;"">","null","","","","","","","","","",""
"","image-keyboard-response","331","183817","0.0-331.0","37M28K1J0RZEHAGFCPBHW3GKAZ2JAA","AD3V6XGQWRD6E","3WPCIUYH1AU470H2HRBLZRFBM95TDS","","575.6000000238419","img/land5.png","76","576.7999999523163","3","1","2","2","1,0.7,0.7,0.7,1,0.7,0.7,0.7,1","1,0.7,0.7,0.7,1,0.7,0.7,0.7,1","","",""
"","html-keyboard-response","332","184119","0.0-332.0","37M28K1J0RZEHAGFCPBHW3GKAZ2JAA","AD3V6XGQWRD6E","3WPCIUYH1AU470H2HRBLZRFBM95TDS","","null","<img src=""img/land5.png"" style=""width:200px; border:14px solid green;"">","null","","","","","","","","","",""
"","image-keyboard-response","333","184722","0.0-333.0","37M28K1J0RZEHAGFCPBHW3GKAZ2JAA","AD3V6XGQWRD6E","3WPCIUYH1AU470H2HRBLZRFBM95TDS","","600.7000000476837","img/land4.png","74","602.2000000476837","1","1","1","2","1,0.7,0.7,0.7,1,0.7,0.7,0.7,1","1,0.7,0.7,0.7,1,0.7,0.7,0.7,1","","",""
"","html-keyboard-response","334","185024","0.0-334.0","37M28K1J0RZEHAGFCPBHW3GKAZ2JAA","AD3V6XGQWRD6E","3WPCIUYH1AU470H2HRBLZRFBM95TDS","","null","<img src=""img/land4.png"" style=""width:200px; border:14px solid green;"">","null","","","","","","","","","",""
"","image-keyboard-response","335","185650","0.0-335.0","37M28K1J0RZEHAGFCPBHW3GKAZ2JAA","AD3V6XGQWRD6E","3WPCIUYH1AU470H2HRBLZRFBM95TDS","","624.6000000238419","img/land5.png","75","625.7999999523163","2","1","2","2","1,0.7,0.7,0.7,1,0.7,0.7,0.7,1","1,0.7,0.7,0.7,1,0.7,0.7,0.7,1","","",""
"","html-keyboard-response","336","185953","0.0-336.0","37M28K1J0RZEHAGFCPBHW3GKAZ2JAA","AD3V6XGQWRD6E","3WPCIUYH1AU470H2HRBLZRFBM95TDS","","null","<img src=""img/land5.png"" style=""width:200px; border:14px solid green;"">","null","","","","","","","","","",""
"","image-keyboard-response","337","186442","0.0-337.0","37M28K1J0RZEHAGFCPBHW3GKAZ2JAA","AD3V6XGQWRD6E","3WPCIUYH1AU470H2HRBLZRFBM95TDS","","486.7000000476837","img/land5.png","75","488","2","1","2","2","1,0.7,0.7,0.7,1,0.7,0.7,0.7,1","1,0.7,0.7,0.7,1,0.7,0.7,0.7,1","","",""
"","html-keyboard-response","338","186744","0.0-338.0","37M28K1J0RZEHAGFCPBHW3GKAZ2JAA","AD3V6XGQWRD6E","3WPCIUYH1AU470H2HRBLZRFBM95TDS","","null","<img src=""img/land5.png"" style=""width:200px; border:14px solid green;"">","null","","","","","","","","","",""
"","image-keyboard-response","339","187305","0.0-339.0","37M28K1J0RZEHAGFCPBHW3GKAZ2JAA","AD3V6XGQWRD6E","3WPCIUYH1AU470H2HRBLZRFBM95TDS","","559.6000000238419","img/land5.png","75","560.8999999761581","2","1","2","2","1,0.7,0.7,0.7,1,0.7,0.7,0.7,1","1,0.7,0.7,0.7,1,0.7,0.7,0.7,1","","",""
"","html-keyboard-response","340","187607","0.0-340.0","37M28K1J0RZEHAGFCPBHW3GKAZ2JAA","AD3V6XGQWRD6E","3WPCIUYH1AU470H2HRBLZRFBM95TDS","","null","<img src=""img/land5.png"" style=""width:200px; border:14px solid green;"">","null","","","","","","","","","",""
"","image-keyboard-response","341","188281","0.0-341.0","37M28K1J0RZEHAGFCPBHW3GKAZ2JAA","AD3V6XGQWRD6E","3WPCIUYH1AU470H2HRBLZRFBM95TDS","","672.8000000715256","img/land6.png","74","674","1","1","3","2","1,0.7,0.7,0.7,1,0.7,0.7,0.7,1","1,0.7,0.7,0.7,1,0.7,0.7,0.7,1","","",""
"","html-keyboard-response","342","188583","0.0-342.0","37M28K1J0RZEHAGFCPBHW3GKAZ2JAA","AD3V6XGQWRD6E","3WPCIUYH1AU470H2HRBLZRFBM95TDS","","null","<img src=""img/land6.png"" style=""width:200px; border:14px solid green;"">","null","","","","","","","","","",""
"","image-keyboard-response","343","189234","0.0-343.0","37M28K1J0RZEHAGFCPBHW3GKAZ2JAA","AD3V6XGQWRD6E","3WPCIUYH1AU470H2HRBLZRFBM95TDS","","649","img/land5.png","74","650.2999999523163","1","0","2","2","1,0.7,0.7,0.7,1,0.7,0.7,0.7,1","1,0.7,0.7,0.7,1,0.7,0.7,0.7,1","","",""
"","html-keyboard-response","344","189536","0.0-344.0","37M28K1J0RZEHAGFCPBHW3GKAZ2JAA","AD3V6XGQWRD6E","3WPCIUYH1AU470H2HRBLZRFBM95TDS","","null","<img src=""img/land5.png"" style=""width:200px;border:14px solid red;"">","null","","","","","","","","","",""
"","image-keyboard-response","345","190594","0.0-345.0","37M28K1J0RZEHAGFCPBHW3GKAZ2JAA","AD3V6XGQWRD6E","3WPCIUYH1AU470H2HRBLZRFBM95TDS","","1056.1000000238419","img/land5.png","75","1057.3999999761581","2","1","2","2","1,0.7,0.7,0.7,1,0.7,0.7,0.7,1","1,0.7,0.7,0.7,1,0.7,0.7,0.7,1","","",""
"","html-keyboard-response","346","190895","0.0-346.0","37M28K1J0RZEHAGFCPBHW3GKAZ2JAA","AD3V6XGQWRD6E","3WPCIUYH1AU470H2HRBLZRFBM95TDS","","null","<img src=""img/land5.png"" style=""width:200px; border:14px solid green;"">","null","","","","","","","","","",""
"","image-keyboard-response","347","191665","0.0-347.0","37M28K1J0RZEHAGFCPBHW3GKAZ2JAA","AD3V6XGQWRD6E","3WPCIUYH1AU470H2HRBLZRFBM95TDS","","768.6000000238419","img/land4.png","74","769.8999999761581","1","1","1","2","1,0.7,0.7,0.7,1,0.7,0.7,0.7,1","1,0.7,0.7,0.7,1,0.7,0.7,0.7,1","","",""
"","html-keyboard-response","348","191984","0.0-348.0","37M28K1J0RZEHAGFCPBHW3GKAZ2JAA","AD3V6XGQWRD6E","3WPCIUYH1AU470H2HRBLZRFBM95TDS","","null","<img src=""img/land4.png"" style=""width:200px; border:14px solid green;"">","null","","","","","","","","","",""
"","image-keyboard-response","349","192409","0.0-349.0","37M28K1J0RZEHAGFCPBHW3GKAZ2JAA","AD3V6XGQWRD6E","3WPCIUYH1AU470H2HRBLZRFBM95TDS","","424.1999999284744","img/land4.png","74","425.39999997615814","1","1","1","2","1,0.7,0.7,0.7,1,0.7,0.7,0.7,1","1,0.7,0.7,0.7,1,0.7,0.7,0.7,1","","",""
"","html-keyboard-response","350","192711","0.0-350.0","37M28K1J0RZEHAGFCPBHW3GKAZ2JAA","AD3V6XGQWRD6E","3WPCIUYH1AU470H2HRBLZRFBM95TDS","","null","<img src=""img/land4.png"" style=""width:200px; border:14px solid green;"">","null","","","","","","","","","",""
"","image-keyboard-response","351","193289","0.0-351.0","37M28K1J0RZEHAGFCPBHW3GKAZ2JAA","AD3V6XGQWRD6E","3WPCIUYH1AU470H2HRBLZRFBM95TDS","","576.2999999523163","img/land5.png","75","577.5999999046326","2","1","2","2","1,0.7,0.7,0.7,1,0.7,0.7,0.7,1","1,0.7,0.7,0.7,1,0.7,0.7,0.7,1","","",""
"","html-keyboard-response","352","193593","0.0-352.0","37M28K1J0RZEHAGFCPBHW3GKAZ2JAA","AD3V6XGQWRD6E","3WPCIUYH1AU470H2HRBLZRFBM95TDS","","null","<img src=""img/land5.png"" style=""width:200px; border:14px solid green;"">","null","","","","","","","","","",""
"","image-keyboard-response","353","194066","0.0-353.0","37M28K1J0RZEHAGFCPBHW3GKAZ2JAA","AD3V6XGQWRD6E","3WPCIUYH1AU470H2HRBLZRFBM95TDS","","471.2000000476837","img/land5.png","75","472.5","2","1","2","2","1,0.7,0.7,0.7,1,0.7,0.7,0.7,1","1,0.7,0.7,0.7,1,0.7,0.7,0.7,1","","",""
"","html-keyboard-response","354","194368","0.0-354.0","37M28K1J0RZEHAGFCPBHW3GKAZ2JAA","AD3V6XGQWRD6E","3WPCIUYH1AU470H2HRBLZRFBM95TDS","","null","<img src=""img/land5.png"" style=""width:200px; border:14px solid green;"">","null","","","","","","","","","",""
"","image-keyboard-response","355","195050","0.0-355.0","37M28K1J0RZEHAGFCPBHW3GKAZ2JAA","AD3V6XGQWRD6E","3WPCIUYH1AU470H2HRBLZRFBM95TDS","","679.7999999523163","img/land6.png","74","681.2000000476837","1","1","3","2","1,0.7,0.7,0.7,1,0.7,0.7,0.7,1","1,0.7,0.7,0.7,1,0.7,0.7,0.7,1","","",""
"","html-keyboard-response","356","195352","0.0-356.0","37M28K1J0RZEHAGFCPBHW3GKAZ2JAA","AD3V6XGQWRD6E","3WPCIUYH1AU470H2HRBLZRFBM95TDS","","null","<img src=""img/land6.png"" style=""width:200px; border:14px solid green;"">","null","","","","","","","","","",""
"","image-keyboard-response","357","196378","0.0-357.0","37M28K1J0RZEHAGFCPBHW3GKAZ2JAA","AD3V6XGQWRD6E","3WPCIUYH1AU470H2HRBLZRFBM95TDS","","1024.2000000476837","img/land4.png","74","1025.6000000238419","1","1","1","2","1,0.7,0.7,0.7,1,0.7,0.7,0.7,1","1,0.7,0.7,0.7,1,0.7,0.7,0.7,1","","",""
"","html-keyboard-response","358","196679","0.0-358.0","37M28K1J0RZEHAGFCPBHW3GKAZ2JAA","AD3V6XGQWRD6E","3WPCIUYH1AU470H2HRBLZRFBM95TDS","","null","<img src=""img/land4.png"" style=""width:200px; border:14px solid green;"">","null","","","","","","","","","",""
"","image-keyboard-response","359","197082","0.0-359.0","37M28K1J0RZEHAGFCPBHW3GKAZ2JAA","AD3V6XGQWRD6E","3WPCIUYH1AU470H2HRBLZRFBM95TDS","","400.89999997615814","img/land4.png","74","402.2000000476837","1","1","1","2","1,0.7,0.7,0.7,1,0.7,0.7,0.7,1","1,0.7,0.7,0.7,1,0.7,0.7,0.7,1","","",""
"","html-keyboard-response","360","197383","0.0-360.0","37M28K1J0RZEHAGFCPBHW3GKAZ2JAA","AD3V6XGQWRD6E","3WPCIUYH1AU470H2HRBLZRFBM95TDS","","null","<img src=""img/land4.png"" style=""width:200px; border:14px solid green;"">","null","","","","","","","","","",""
"","image-keyboard-response","361","197867","0.0-361.0","37M28K1J0RZEHAGFCPBHW3GKAZ2JAA","AD3V6XGQWRD6E","3WPCIUYH1AU470H2HRBLZRFBM95TDS","","481.7000000476837","img/land6.png","75","483","2","0","3","2","1,0.7,0.7,0.7,1,0.7,0.7,0.7,1","1,0.7,0.7,0.7,1,0.7,0.7,0.7,1","","",""
"","html-keyboard-response","362","198169","0.0-362.0","37M28K1J0RZEHAGFCPBHW3GKAZ2JAA","AD3V6XGQWRD6E","3WPCIUYH1AU470H2HRBLZRFBM95TDS","","null","<img src=""img/land6.png"" style=""width:200px;border:14px solid red;"">","null","","","","","","","","","",""
"","image-keyboard-response","363","198793","0.0-363.0","37M28K1J0RZEHAGFCPBHW3GKAZ2JAA","AD3V6XGQWRD6E","3WPCIUYH1AU470H2HRBLZRFBM95TDS","","623","img/land5.png","74","624.2999999523163","1","1","2","2","1,0.7,0.7,0.7,1,0.7,0.7,0.7,1","1,0.7,0.7,0.7,1,0.7,0.7,0.7,1","","",""
"","html-keyboard-response","364","199096","0.0-364.0","37M28K1J0RZEHAGFCPBHW3GKAZ2JAA","AD3V6XGQWRD6E","3WPCIUYH1AU470H2HRBLZRFBM95TDS","","null","<img src=""img/land5.png"" style=""width:200px; border:14px solid green;"">","null","","","","","","","","","",""
