"success","trial_type","trial_index","time_elapsed","internal_node_id","assignmentID","mturkID","hitID","view_history","rt","stimulus","key_press","reactionTime","a","r","s","cond","reward_cond","reward_cond_actual","reward_matrix_idx","responses","question_order"
"true","fullscreen","0","60169","0.0-0.0","3TMFV4NEP90M46NZMQAIP24XMJXW8O","ADAL2H41ZBWAK","3S1L4CQSFXRWQOWP2XFUSMS4AZDFAL","","","","","","","","","","","","","",""
"","instructions","1","122871","0.0-1.0","3TMFV4NEP90M46NZMQAIP24XMJXW8O","ADAL2H41ZBWAK","3S1L4CQSFXRWQOWP2XFUSMS4AZDFAL","[{""page_index"":0,""viewing_time"":5552.60000000149},{""page_index"":1,""viewing_time"":4663.5999999940395},{""page_index"":2,""viewing_time"":3312.60000000149},{""page_index"":3,""viewing_time"":19910.5},{""page_index"":4,""viewing_time"":11023.5},{""page_index"":5,""viewing_time"":10738.60000000149},{""page_index"":6,""viewing_time"":7492.89999999851}]","62695.89999999851","","","","","","","","","","","",""
"","image-keyboard-response","2","124883","0.0-2.0","3TMFV4NEP90M46NZMQAIP24XMJXW8O","ADAL2H41ZBWAK","3S1L4CQSFXRWQOWP2XFUSMS4AZDFAL","","","img/land4.png","","2010.7000000029802","-1","0","1","2","1,0.5,0.5,0.5,1,0.5,0.5,0.5,1","1,0.5,0.5,0.5,1,0.5,0.5,0.5,1","1","",""
"","html-keyboard-response","3","125187","0.0-3.0","3TMFV4NEP90M46NZMQAIP24XMJXW8O","ADAL2H41ZBWAK","3S1L4CQSFXRWQOWP2XFUSMS4AZDFAL","","null","<img src=""img/land4.png"" style=""width:200px;border:14px solid red;"">","null","","","","","","","","","",""
"","image-keyboard-response","4","125931","0.0-4.0","3TMFV4NEP90M46NZMQAIP24XMJXW8O","ADAL2H41ZBWAK","3S1L4CQSFXRWQOWP2XFUSMS4AZDFAL","","742","img/land4.png","76","743.5","3","1","1","2","1,0.5,0.5,0.5,1,0.5,0.5,0.5,1","1,0.5,0.5,0.5,1,0.5,0.5,0.5,1","1","",""
"","html-keyboard-response","5","126234","0.0-5.0","3TMFV4NEP90M46NZMQAIP24XMJXW8O","ADAL2H41ZBWAK","3S1L4CQSFXRWQOWP2XFUSMS4AZDFAL","","null","<img src=""img/land4.png"" style=""width:200px; border:14px solid green;"">","null","","","","","","","","","",""
"","image-keyboard-response","6","126825","0.0-6.0","3TMFV4NEP90M46NZMQAIP24XMJXW8O","ADAL2H41ZBWAK","3S1L4CQSFXRWQOWP2XFUSMS4AZDFAL","","589","img/land4.png","76","590","3","1","1","2","1,0.5,0.5,0.5,1,0.5,0.5,0.5,1","1,0.5,0.5,0.5,1,0.5,0.5,0.5,1","1","",""
"","html-keyboard-response","7","127130","0.0-7.0","3TMFV4NEP90M46NZMQAIP24XMJXW8O","ADAL2H41ZBWAK","3S1L4CQSFXRWQOWP2XFUSMS4AZDFAL","","null","<img src=""img/land4.png"" style=""width:200px; border:14px solid green;"">","null","","","","","","","","","",""
"","image-keyboard-response","8","127762","0.0-8.0","3TMFV4NEP90M46NZMQAIP24XMJXW8O","ADAL2H41ZBWAK","3S1L4CQSFXRWQOWP2XFUSMS4AZDFAL","","629.8000000044703","img/land4.png","76","631","3","1","1","2","1,0.5,0.5,0.5,1,0.5,0.5,0.5,1","1,0.5,0.5,0.5,1,0.5,0.5,0.5,1","1","",""
"","html-keyboard-response","9","128066","0.0-9.0","3TMFV4NEP90M46NZMQAIP24XMJXW8O","ADAL2H41ZBWAK","3S1L4CQSFXRWQOWP2XFUSMS4AZDFAL","","null","<img src=""img/land4.png"" style=""width:200px; border:14px solid green;"">","null","","","","","","","","","",""
"","image-keyboard-response","10","128513","0.0-10.0","3TMFV4NEP90M46NZMQAIP24XMJXW8O","ADAL2H41ZBWAK","3S1L4CQSFXRWQOWP2XFUSMS4AZDFAL","","445.6000000014901","img/land4.png","76","446.6000000014901","3","0","1","2","1,0.5,0.5,0.5,1,0.5,0.5,0.5,1","1,0.5,0.5,0.5,1,0.5,0.5,0.5,1","1","",""
"","html-keyboard-response","11","128818","0.0-11.0","3TMFV4NEP90M46NZMQAIP24XMJXW8O","ADAL2H41ZBWAK","3S1L4CQSFXRWQOWP2XFUSMS4AZDFAL","","null","<img src=""img/land4.png"" style=""width:200px;border:14px solid red;"">","null","","","","","","","","","",""
"","image-keyboard-response","12","129281","0.0-12.0","3TMFV4NEP90M46NZMQAIP24XMJXW8O","ADAL2H41ZBWAK","3S1L4CQSFXRWQOWP2XFUSMS4AZDFAL","","461.30000000447035","img/land4.png","76","462.79999999701977","3","1","1","2","1,0.5,0.5,0.5,1,0.5,0.5,0.5,1","1,0.5,0.5,0.5,1,0.5,0.5,0.5,1","1","",""
"","html-keyboard-response","13","129586","0.0-13.0","3TMFV4NEP90M46NZMQAIP24XMJXW8O","ADAL2H41ZBWAK","3S1L4CQSFXRWQOWP2XFUSMS4AZDFAL","","null","<img src=""img/land4.png"" style=""width:200px; border:14px solid green;"">","null","","","","","","","","","",""
"","image-keyboard-response","14","129921","0.0-14.0","3TMFV4NEP90M46NZMQAIP24XMJXW8O","ADAL2H41ZBWAK","3S1L4CQSFXRWQOWP2XFUSMS4AZDFAL","","332.80000000447035","img/land4.png","76","334.1000000014901","3","0","1","2","1,0.5,0.5,0.5,1,0.5,0.5,0.5,1","1,0.5,0.5,0.5,1,0.5,0.5,0.5,1","1","",""
"","html-keyboard-response","15","130226","0.0-15.0","3TMFV4NEP90M46NZMQAIP24XMJXW8O","ADAL2H41ZBWAK","3S1L4CQSFXRWQOWP2XFUSMS4AZDFAL","","null","<img src=""img/land4.png"" style=""width:200px;border:14px solid red;"">","null","","","","","","","","","",""
"","image-keyboard-response","16","130538","0.0-16.0","3TMFV4NEP90M46NZMQAIP24XMJXW8O","ADAL2H41ZBWAK","3S1L4CQSFXRWQOWP2XFUSMS4AZDFAL","","309.3999999985099","img/land4.png","76","310.79999999701977","3","0","1","2","1,0.5,0.5,0.5,1,0.5,0.5,0.5,1","1,0.5,0.5,0.5,1,0.5,0.5,0.5,1","1","",""
"","html-keyboard-response","17","130843","0.0-17.0","3TMFV4NEP90M46NZMQAIP24XMJXW8O","ADAL2H41ZBWAK","3S1L4CQSFXRWQOWP2XFUSMS4AZDFAL","","null","<img src=""img/land4.png"" style=""width:200px;border:14px solid red;"">","null","","","","","","","","","",""
"","image-keyboard-response","18","131217","0.0-18.0","3TMFV4NEP90M46NZMQAIP24XMJXW8O","ADAL2H41ZBWAK","3S1L4CQSFXRWQOWP2XFUSMS4AZDFAL","","372.70000000298023","img/land4.png","76","374.20000000298023","3","0","1","2","1,0.5,0.5,0.5,1,0.5,0.5,0.5,1","1,0.5,0.5,0.5,1,0.5,0.5,0.5,1","1","",""
"","html-keyboard-response","19","131523","0.0-19.0","3TMFV4NEP90M46NZMQAIP24XMJXW8O","ADAL2H41ZBWAK","3S1L4CQSFXRWQOWP2XFUSMS4AZDFAL","","null","<img src=""img/land4.png"" style=""width:200px;border:14px solid red;"">","null","","","","","","","","","",""
"","image-keyboard-response","20","132250","0.0-20.0","3TMFV4NEP90M46NZMQAIP24XMJXW8O","ADAL2H41ZBWAK","3S1L4CQSFXRWQOWP2XFUSMS4AZDFAL","","725.6000000014901","img/land3.png","76","727.1000000014901","3","0","2","2","1,0.5,0.5,0.5,1,0.5,0.5,0.5,1","1,0.5,0.5,0.5,1,0.5,0.5,0.5,1","1","",""
"","html-keyboard-response","21","132555","0.0-21.0","3TMFV4NEP90M46NZMQAIP24XMJXW8O","ADAL2H41ZBWAK","3S1L4CQSFXRWQOWP2XFUSMS4AZDFAL","","null","<img src=""img/land3.png"" style=""width:200px;border:14px solid red;"">","null","","","","","","","","","",""
"","image-keyboard-response","22","133314","0.0-22.0","3TMFV4NEP90M46NZMQAIP24XMJXW8O","ADAL2H41ZBWAK","3S1L4CQSFXRWQOWP2XFUSMS4AZDFAL","","757.6000000014901","img/land3.png","76","759","3","0","2","2","1,0.5,0.5,0.5,1,0.5,0.5,0.5,1","1,0.5,0.5,0.5,1,0.5,0.5,0.5,1","1","",""
"","html-keyboard-response","23","133619","0.0-23.0","3TMFV4NEP90M46NZMQAIP24XMJXW8O","ADAL2H41ZBWAK","3S1L4CQSFXRWQOWP2XFUSMS4AZDFAL","","null","<img src=""img/land3.png"" style=""width:200px;border:14px solid red;"">","null","","","","","","","","","",""
"","image-keyboard-response","24","133945","0.0-24.0","3TMFV4NEP90M46NZMQAIP24XMJXW8O","ADAL2H41ZBWAK","3S1L4CQSFXRWQOWP2XFUSMS4AZDFAL","","325","img/land4.png","75","326.59999999403954","2","0","1","2","1,0.5,0.5,0.5,1,0.5,0.5,0.5,1","1,0.5,0.5,0.5,1,0.5,0.5,0.5,1","1","",""
"","html-keyboard-response","25","134251","0.0-25.0","3TMFV4NEP90M46NZMQAIP24XMJXW8O","ADAL2H41ZBWAK","3S1L4CQSFXRWQOWP2XFUSMS4AZDFAL","","null","<img src=""img/land4.png"" style=""width:200px;border:14px solid red;"">","null","","","","","","","","","",""
"","image-keyboard-response","26","134993","0.0-26.0","3TMFV4NEP90M46NZMQAIP24XMJXW8O","ADAL2H41ZBWAK","3S1L4CQSFXRWQOWP2XFUSMS4AZDFAL","","740.5999999940395","img/land4.png","76","741.8000000044703","3","1","1","2","1,0.5,0.5,0.5,1,0.5,0.5,0.5,1","1,0.5,0.5,0.5,1,0.5,0.5,0.5,1","1","",""
"","html-keyboard-response","27","135298","0.0-27.0","3TMFV4NEP90M46NZMQAIP24XMJXW8O","ADAL2H41ZBWAK","3S1L4CQSFXRWQOWP2XFUSMS4AZDFAL","","null","<img src=""img/land4.png"" style=""width:200px; border:14px solid green;"">","null","","","","","","","","","",""
"","image-keyboard-response","28","135826","0.0-28.0","3TMFV4NEP90M46NZMQAIP24XMJXW8O","ADAL2H41ZBWAK","3S1L4CQSFXRWQOWP2XFUSMS4AZDFAL","","526.6999999955297","img/land4.png","76","528.1000000014901","3","1","1","2","1,0.5,0.5,0.5,1,0.5,0.5,0.5,1","1,0.5,0.5,0.5,1,0.5,0.5,0.5,1","1","",""
"","html-keyboard-response","29","136130","0.0-29.0","3TMFV4NEP90M46NZMQAIP24XMJXW8O","ADAL2H41ZBWAK","3S1L4CQSFXRWQOWP2XFUSMS4AZDFAL","","null","<img src=""img/land4.png"" style=""width:200px; border:14px solid green;"">","null","","","","","","","","","",""
"","image-keyboard-response","30","136513","0.0-30.0","3TMFV4NEP90M46NZMQAIP24XMJXW8O","ADAL2H41ZBWAK","3S1L4CQSFXRWQOWP2XFUSMS4AZDFAL","","381.70000000298023","img/land4.png","76","383.5","3","1","1","2","1,0.5,0.5,0.5,1,0.5,0.5,0.5,1","1,0.5,0.5,0.5,1,0.5,0.5,0.5,1","1","",""
"","html-keyboard-response","31","136818","0.0-31.0","3TMFV4NEP90M46NZMQAIP24XMJXW8O","ADAL2H41ZBWAK","3S1L4CQSFXRWQOWP2XFUSMS4AZDFAL","","null","<img src=""img/land4.png"" style=""width:200px; border:14px solid green;"">","null","","","","","","","","","",""
"","image-keyboard-response","32","137225","0.0-32.0","3TMFV4NEP90M46NZMQAIP24XMJXW8O","ADAL2H41ZBWAK","3S1L4CQSFXRWQOWP2XFUSMS4AZDFAL","","405.80000000447035","img/land4.png","76","407.20000000298023","3","0","1","2","1,0.5,0.5,0.5,1,0.5,0.5,0.5,1","1,0.5,0.5,0.5,1,0.5,0.5,0.5,1","1","",""
"","html-keyboard-response","33","137530","0.0-33.0","3TMFV4NEP90M46NZMQAIP24XMJXW8O","ADAL2H41ZBWAK","3S1L4CQSFXRWQOWP2XFUSMS4AZDFAL","","null","<img src=""img/land4.png"" style=""width:200px;border:14px solid red;"">","null","","","","","","","","","",""
"","image-keyboard-response","34","138130","0.0-34.0","3TMFV4NEP90M46NZMQAIP24XMJXW8O","ADAL2H41ZBWAK","3S1L4CQSFXRWQOWP2XFUSMS4AZDFAL","","597.8000000044703","img/land4.png","76","599.3999999985099","3","1","1","2","1,0.5,0.5,0.5,1,0.5,0.5,0.5,1","1,0.5,0.5,0.5,1,0.5,0.5,0.5,1","1","",""
"","html-keyboard-response","35","138434","0.0-35.0","3TMFV4NEP90M46NZMQAIP24XMJXW8O","ADAL2H41ZBWAK","3S1L4CQSFXRWQOWP2XFUSMS4AZDFAL","","null","<img src=""img/land4.png"" style=""width:200px; border:14px solid green;"">","null","","","","","","","","","",""
"","image-keyboard-response","36","139097","0.0-36.0","3TMFV4NEP90M46NZMQAIP24XMJXW8O","ADAL2H41ZBWAK","3S1L4CQSFXRWQOWP2XFUSMS4AZDFAL","","661.3999999985099","img/land2.png","76","663.1000000014901","3","1","3","2","1,0.5,0.5,0.5,1,0.5,0.5,0.5,1","1,0.5,0.5,0.5,1,0.5,0.5,0.5,1","1","",""
"","html-keyboard-response","37","139402","0.0-37.0","3TMFV4NEP90M46NZMQAIP24XMJXW8O","ADAL2H41ZBWAK","3S1L4CQSFXRWQOWP2XFUSMS4AZDFAL","","null","<img src=""img/land2.png"" style=""width:200px; border:14px solid green;"">","null","","","","","","","","","",""
"","image-keyboard-response","38","140794","0.0-38.0","3TMFV4NEP90M46NZMQAIP24XMJXW8O","ADAL2H41ZBWAK","3S1L4CQSFXRWQOWP2XFUSMS4AZDFAL","","1390.7000000029802","img/land4.png","76","1392.1000000014901","3","0","1","2","1,0.5,0.5,0.5,1,0.5,0.5,0.5,1","1,0.5,0.5,0.5,1,0.5,0.5,0.5,1","1","",""
"","html-keyboard-response","39","141098","0.0-39.0","3TMFV4NEP90M46NZMQAIP24XMJXW8O","ADAL2H41ZBWAK","3S1L4CQSFXRWQOWP2XFUSMS4AZDFAL","","null","<img src=""img/land4.png"" style=""width:200px;border:14px solid red;"">","null","","","","","","","","","",""
"","image-keyboard-response","40","141458","0.0-40.0","3TMFV4NEP90M46NZMQAIP24XMJXW8O","ADAL2H41ZBWAK","3S1L4CQSFXRWQOWP2XFUSMS4AZDFAL","","357.59999999403954","img/land4.png","76","359.19999999552965","3","1","1","2","1,0.5,0.5,0.5,1,0.5,0.5,0.5,1","1,0.5,0.5,0.5,1,0.5,0.5,0.5,1","1","",""
"","html-keyboard-response","41","141762","0.0-41.0","3TMFV4NEP90M46NZMQAIP24XMJXW8O","ADAL2H41ZBWAK","3S1L4CQSFXRWQOWP2XFUSMS4AZDFAL","","null","<img src=""img/land4.png"" style=""width:200px; border:14px solid green;"">","null","","","","","","","","","",""
"","image-keyboard-response","42","142297","0.0-42.0","3TMFV4NEP90M46NZMQAIP24XMJXW8O","ADAL2H41ZBWAK","3S1L4CQSFXRWQOWP2XFUSMS4AZDFAL","","533.2000000029802","img/land2.png","76","534.6999999955297","3","1","3","2","1,0.5,0.5,0.5,1,0.5,0.5,0.5,1","1,0.5,0.5,0.5,1,0.5,0.5,0.5,1","1","",""
"","html-keyboard-response","43","142602","0.0-43.0","3TMFV4NEP90M46NZMQAIP24XMJXW8O","ADAL2H41ZBWAK","3S1L4CQSFXRWQOWP2XFUSMS4AZDFAL","","null","<img src=""img/land2.png"" style=""width:200px; border:14px solid green;"">","null","","","","","","","","","",""
"","image-keyboard-response","44","143073","0.0-44.0","3TMFV4NEP90M46NZMQAIP24XMJXW8O","ADAL2H41ZBWAK","3S1L4CQSFXRWQOWP2XFUSMS4AZDFAL","","469.3999999985099","img/land4.png","76","470.6000000014901","3","0","1","2","1,0.5,0.5,0.5,1,0.5,0.5,0.5,1","1,0.5,0.5,0.5,1,0.5,0.5,0.5,1","1","",""
"","html-keyboard-response","45","143378","0.0-45.0","3TMFV4NEP90M46NZMQAIP24XMJXW8O","ADAL2H41ZBWAK","3S1L4CQSFXRWQOWP2XFUSMS4AZDFAL","","null","<img src=""img/land4.png"" style=""width:200px;border:14px solid red;"">","null","","","","","","","","","",""
"","image-keyboard-response","46","143977","0.0-46.0","3TMFV4NEP90M46NZMQAIP24XMJXW8O","ADAL2H41ZBWAK","3S1L4CQSFXRWQOWP2XFUSMS4AZDFAL","","597.7999999970198","img/land2.png","76","599.1999999955297","3","1","3","2","1,0.5,0.5,0.5,1,0.5,0.5,0.5,1","1,0.5,0.5,0.5,1,0.5,0.5,0.5,1","1","",""
"","html-keyboard-response","47","144282","0.0-47.0","3TMFV4NEP90M46NZMQAIP24XMJXW8O","ADAL2H41ZBWAK","3S1L4CQSFXRWQOWP2XFUSMS4AZDFAL","","null","<img src=""img/land2.png"" style=""width:200px; border:14px solid green;"">","null","","","","","","","","","",""
"","image-keyboard-response","48","145000","0.0-48.0","3TMFV4NEP90M46NZMQAIP24XMJXW8O","ADAL2H41ZBWAK","3S1L4CQSFXRWQOWP2XFUSMS4AZDFAL","","716.8999999985099","img/land4.png","76","718","3","1","1","2","1,0.5,0.5,0.5,1,0.5,0.5,0.5,1","1,0.5,0.5,0.5,1,0.5,0.5,0.5,1","1","",""
"","html-keyboard-response","49","145306","0.0-49.0","3TMFV4NEP90M46NZMQAIP24XMJXW8O","ADAL2H41ZBWAK","3S1L4CQSFXRWQOWP2XFUSMS4AZDFAL","","null","<img src=""img/land4.png"" style=""width:200px; border:14px solid green;"">","null","","","","","","","","","",""
"","image-keyboard-response","50","145904","0.0-50.0","3TMFV4NEP90M46NZMQAIP24XMJXW8O","ADAL2H41ZBWAK","3S1L4CQSFXRWQOWP2XFUSMS4AZDFAL","","596.6000000014901","img/land4.png","76","597.7999999970198","3","0","1","2","1,0.5,0.5,0.5,1,0.5,0.5,0.5,1","1,0.5,0.5,0.5,1,0.5,0.5,0.5,1","1","",""
"","html-keyboard-response","51","146210","0.0-51.0","3TMFV4NEP90M46NZMQAIP24XMJXW8O","ADAL2H41ZBWAK","3S1L4CQSFXRWQOWP2XFUSMS4AZDFAL","","null","<img src=""img/land4.png"" style=""width:200px;border:14px solid red;"">","null","","","","","","","","","",""
"","image-keyboard-response","52","146905","0.0-52.0","3TMFV4NEP90M46NZMQAIP24XMJXW8O","ADAL2H41ZBWAK","3S1L4CQSFXRWQOWP2XFUSMS4AZDFAL","","693.5","img/land2.png","76","695.1000000014901","3","1","3","2","1,0.5,0.5,0.5,1,0.5,0.5,0.5,1","1,0.5,0.5,0.5,1,0.5,0.5,0.5,1","1","",""
"","html-keyboard-response","53","147210","0.0-53.0","3TMFV4NEP90M46NZMQAIP24XMJXW8O","ADAL2H41ZBWAK","3S1L4CQSFXRWQOWP2XFUSMS4AZDFAL","","null","<img src=""img/land2.png"" style=""width:200px; border:14px solid green;"">","null","","","","","","","","","",""
"","image-keyboard-response","54","147865","0.0-54.0","3TMFV4NEP90M46NZMQAIP24XMJXW8O","ADAL2H41ZBWAK","3S1L4CQSFXRWQOWP2XFUSMS4AZDFAL","","653.2999999970198","img/land4.png","76","654.9000000059605","3","0","1","2","1,0.5,0.5,0.5,1,0.5,0.5,0.5,1","1,0.5,0.5,0.5,1,0.5,0.5,0.5,1","1","",""
"","html-keyboard-response","55","148170","0.0-55.0","3TMFV4NEP90M46NZMQAIP24XMJXW8O","ADAL2H41ZBWAK","3S1L4CQSFXRWQOWP2XFUSMS4AZDFAL","","null","<img src=""img/land4.png"" style=""width:200px;border:14px solid red;"">","null","","","","","","","","","",""
"","image-keyboard-response","56","148641","0.0-56.0","3TMFV4NEP90M46NZMQAIP24XMJXW8O","ADAL2H41ZBWAK","3S1L4CQSFXRWQOWP2XFUSMS4AZDFAL","","469","img/land4.png","76","470.8999999985099","3","0","1","2","1,0.5,0.5,0.5,1,0.5,0.5,0.5,1","1,0.5,0.5,0.5,1,0.5,0.5,0.5,1","1","",""
"","html-keyboard-response","57","148946","0.0-57.0","3TMFV4NEP90M46NZMQAIP24XMJXW8O","ADAL2H41ZBWAK","3S1L4CQSFXRWQOWP2XFUSMS4AZDFAL","","null","<img src=""img/land4.png"" style=""width:200px;border:14px solid red;"">","null","","","","","","","","","",""
"","image-keyboard-response","58","149793","0.0-58.0","3TMFV4NEP90M46NZMQAIP24XMJXW8O","ADAL2H41ZBWAK","3S1L4CQSFXRWQOWP2XFUSMS4AZDFAL","","845.5","img/land3.png","76","847","3","1","2","2","1,0.5,0.5,0.5,1,0.5,0.5,0.5,1","1,0.5,0.5,0.5,1,0.5,0.5,0.5,1","1","",""
"","html-keyboard-response","59","150099","0.0-59.0","3TMFV4NEP90M46NZMQAIP24XMJXW8O","ADAL2H41ZBWAK","3S1L4CQSFXRWQOWP2XFUSMS4AZDFAL","","null","<img src=""img/land3.png"" style=""width:200px; border:14px solid green;"">","null","","","","","","","","","",""
"","image-keyboard-response","60","150593","0.0-60.0","3TMFV4NEP90M46NZMQAIP24XMJXW8O","ADAL2H41ZBWAK","3S1L4CQSFXRWQOWP2XFUSMS4AZDFAL","","493","img/land4.png","76","494.5","3","0","1","2","1,0.5,0.5,0.5,1,0.5,0.5,0.5,1","1,0.5,0.5,0.5,1,0.5,0.5,0.5,1","1","",""
"","html-keyboard-response","61","150898","0.0-61.0","3TMFV4NEP90M46NZMQAIP24XMJXW8O","ADAL2H41ZBWAK","3S1L4CQSFXRWQOWP2XFUSMS4AZDFAL","","null","<img src=""img/land4.png"" style=""width:200px;border:14px solid red;"">","null","","","","","","","","","",""
"","image-keyboard-response","62","151577","0.0-62.0","3TMFV4NEP90M46NZMQAIP24XMJXW8O","ADAL2H41ZBWAK","3S1L4CQSFXRWQOWP2XFUSMS4AZDFAL","","676.5999999940395","img/land3.png","76","678.3000000044703","3","0","2","2","1,0.5,0.5,0.5,1,0.5,0.5,0.5,1","1,0.5,0.5,0.5,1,0.5,0.5,0.5,1","1","",""
"","html-keyboard-response","63","151883","0.0-63.0","3TMFV4NEP90M46NZMQAIP24XMJXW8O","ADAL2H41ZBWAK","3S1L4CQSFXRWQOWP2XFUSMS4AZDFAL","","null","<img src=""img/land3.png"" style=""width:200px;border:14px solid red;"">","null","","","","","","","","","",""
"","image-keyboard-response","64","152657","0.0-64.0","3TMFV4NEP90M46NZMQAIP24XMJXW8O","ADAL2H41ZBWAK","3S1L4CQSFXRWQOWP2XFUSMS4AZDFAL","","772.5","img/land4.png","76","774.1000000014901","3","1","1","2","1,0.5,0.5,0.5,1,0.5,0.5,0.5,1","1,0.5,0.5,0.5,1,0.5,0.5,0.5,1","1","",""
"","html-keyboard-response","65","152962","0.0-65.0","3TMFV4NEP90M46NZMQAIP24XMJXW8O","ADAL2H41ZBWAK","3S1L4CQSFXRWQOWP2XFUSMS4AZDFAL","","null","<img src=""img/land4.png"" style=""width:200px; border:14px solid green;"">","null","","","","","","","","","",""
"","image-keyboard-response","66","153681","0.0-66.0","3TMFV4NEP90M46NZMQAIP24XMJXW8O","ADAL2H41ZBWAK","3S1L4CQSFXRWQOWP2XFUSMS4AZDFAL","","717.1000000014901","img/land4.png","76","718.3999999985099","3","1","1","2","1,0.5,0.5,0.5,1,0.5,0.5,0.5,1","1,0.5,0.5,0.5,1,0.5,0.5,0.5,1","1","",""
"","html-keyboard-response","67","153986","0.0-67.0","3TMFV4NEP90M46NZMQAIP24XMJXW8O","ADAL2H41ZBWAK","3S1L4CQSFXRWQOWP2XFUSMS4AZDFAL","","null","<img src=""img/land4.png"" style=""width:200px; border:14px solid green;"">","null","","","","","","","","","",""
"","image-keyboard-response","68","154649","0.0-68.0","3TMFV4NEP90M46NZMQAIP24XMJXW8O","ADAL2H41ZBWAK","3S1L4CQSFXRWQOWP2XFUSMS4AZDFAL","","661.3000000044703","img/land4.png","76","663","3","1","1","2","1,0.5,0.5,0.5,1,0.5,0.5,0.5,1","1,0.5,0.5,0.5,1,0.5,0.5,0.5,1","1","",""
"","html-keyboard-response","69","154954","0.0-69.0","3TMFV4NEP90M46NZMQAIP24XMJXW8O","ADAL2H41ZBWAK","3S1L4CQSFXRWQOWP2XFUSMS4AZDFAL","","null","<img src=""img/land4.png"" style=""width:200px; border:14px solid green;"">","null","","","","","","","","","",""
"","image-keyboard-response","70","156346","0.0-70.0","3TMFV4NEP90M46NZMQAIP24XMJXW8O","ADAL2H41ZBWAK","3S1L4CQSFXRWQOWP2XFUSMS4AZDFAL","","1389.6000000014901","img/land3.png","75","1391.1000000014901","2","1","2","2","1,0.5,0.5,0.5,1,0.5,0.5,0.5,1","1,0.5,0.5,0.5,1,0.5,0.5,0.5,1","1","",""
"","html-keyboard-response","71","156651","0.0-71.0","3TMFV4NEP90M46NZMQAIP24XMJXW8O","ADAL2H41ZBWAK","3S1L4CQSFXRWQOWP2XFUSMS4AZDFAL","","null","<img src=""img/land3.png"" style=""width:200px; border:14px solid green;"">","null","","","","","","","","","",""
"","image-keyboard-response","72","157185","0.0-72.0","3TMFV4NEP90M46NZMQAIP24XMJXW8O","ADAL2H41ZBWAK","3S1L4CQSFXRWQOWP2XFUSMS4AZDFAL","","532.7999999970198","img/land2.png","75","534.6000000014901","2","0","3","2","1,0.5,0.5,0.5,1,0.5,0.5,0.5,1","1,0.5,0.5,0.5,1,0.5,0.5,0.5,1","1","",""
"","html-keyboard-response","73","157490","0.0-73.0","3TMFV4NEP90M46NZMQAIP24XMJXW8O","ADAL2H41ZBWAK","3S1L4CQSFXRWQOWP2XFUSMS4AZDFAL","","null","<img src=""img/land2.png"" style=""width:200px;border:14px solid red;"">","null","","","","","","","","","",""
"","image-keyboard-response","74","158385","0.0-74.0","3TMFV4NEP90M46NZMQAIP24XMJXW8O","ADAL2H41ZBWAK","3S1L4CQSFXRWQOWP2XFUSMS4AZDFAL","","892.3000000044703","img/land4.png","76","893.8999999985099","3","1","1","2","1,0.5,0.5,0.5,1,0.5,0.5,0.5,1","1,0.5,0.5,0.5,1,0.5,0.5,0.5,1","1","",""
"","html-keyboard-response","75","158690","0.0-75.0","3TMFV4NEP90M46NZMQAIP24XMJXW8O","ADAL2H41ZBWAK","3S1L4CQSFXRWQOWP2XFUSMS4AZDFAL","","null","<img src=""img/land4.png"" style=""width:200px; border:14px solid green;"">","null","","","","","","","","","",""
"","image-keyboard-response","76","159217","0.0-76.0","3TMFV4NEP90M46NZMQAIP24XMJXW8O","ADAL2H41ZBWAK","3S1L4CQSFXRWQOWP2XFUSMS4AZDFAL","","524.2000000029802","img/land4.png","76","525.8999999985099","3","1","1","2","1,0.5,0.5,0.5,1,0.5,0.5,0.5,1","1,0.5,0.5,0.5,1,0.5,0.5,0.5,1","1","",""
"","html-keyboard-response","77","159522","0.0-77.0","3TMFV4NEP90M46NZMQAIP24XMJXW8O","ADAL2H41ZBWAK","3S1L4CQSFXRWQOWP2XFUSMS4AZDFAL","","null","<img src=""img/land4.png"" style=""width:200px; border:14px solid green;"">","null","","","","","","","","","",""
"","image-keyboard-response","78","159969","0.0-78.0","3TMFV4NEP90M46NZMQAIP24XMJXW8O","ADAL2H41ZBWAK","3S1L4CQSFXRWQOWP2XFUSMS4AZDFAL","","444.20000000298023","img/land4.png","76","445.8999999985099","3","1","1","2","1,0.5,0.5,0.5,1,0.5,0.5,0.5,1","1,0.5,0.5,0.5,1,0.5,0.5,0.5,1","1","",""
"","html-keyboard-response","79","160274","0.0-79.0","3TMFV4NEP90M46NZMQAIP24XMJXW8O","ADAL2H41ZBWAK","3S1L4CQSFXRWQOWP2XFUSMS4AZDFAL","","null","<img src=""img/land4.png"" style=""width:200px; border:14px solid green;"">","null","","","","","","","","","",""
"","image-keyboard-response","80","160890","0.0-80.0","3TMFV4NEP90M46NZMQAIP24XMJXW8O","ADAL2H41ZBWAK","3S1L4CQSFXRWQOWP2XFUSMS4AZDFAL","","613.7999999970198","img/land3.png","75","615.3999999985099","2","1","2","2","1,0.5,0.5,0.5,1,0.5,0.5,0.5,1","1,0.5,0.5,0.5,1,0.5,0.5,0.5,1","1","",""
"","html-keyboard-response","81","161194","0.0-81.0","3TMFV4NEP90M46NZMQAIP24XMJXW8O","ADAL2H41ZBWAK","3S1L4CQSFXRWQOWP2XFUSMS4AZDFAL","","null","<img src=""img/land3.png"" style=""width:200px; border:14px solid green;"">","null","","","","","","","","","",""
"","image-keyboard-response","82","161920","0.0-82.0","3TMFV4NEP90M46NZMQAIP24XMJXW8O","ADAL2H41ZBWAK","3S1L4CQSFXRWQOWP2XFUSMS4AZDFAL","","724.1000000014901","img/land4.png","76","725.7000000029802","3","1","1","2","1,0.5,0.5,0.5,1,0.5,0.5,0.5,1","1,0.5,0.5,0.5,1,0.5,0.5,0.5,1","1","",""
"","html-keyboard-response","83","162227","0.0-83.0","3TMFV4NEP90M46NZMQAIP24XMJXW8O","ADAL2H41ZBWAK","3S1L4CQSFXRWQOWP2XFUSMS4AZDFAL","","null","<img src=""img/land4.png"" style=""width:200px; border:14px solid green;"">","null","","","","","","","","","",""
"","image-keyboard-response","84","163032","0.0-84.0","3TMFV4NEP90M46NZMQAIP24XMJXW8O","ADAL2H41ZBWAK","3S1L4CQSFXRWQOWP2XFUSMS4AZDFAL","","803.5","img/land2.png","75","804.7999999970198","2","1","3","2","1,0.5,0.5,0.5,1,0.5,0.5,0.5,1","1,0.5,0.5,0.5,1,0.5,0.5,0.5,1","1","",""
"","html-keyboard-response","85","163339","0.0-85.0","3TMFV4NEP90M46NZMQAIP24XMJXW8O","ADAL2H41ZBWAK","3S1L4CQSFXRWQOWP2XFUSMS4AZDFAL","","null","<img src=""img/land2.png"" style=""width:200px; border:14px solid green;"">","null","","","","","","","","","",""
"","image-keyboard-response","86","163976","0.0-86.0","3TMFV4NEP90M46NZMQAIP24XMJXW8O","ADAL2H41ZBWAK","3S1L4CQSFXRWQOWP2XFUSMS4AZDFAL","","636","img/land3.png","76","637.6999999955297","3","0","2","2","1,0.5,0.5,0.5,1,0.5,0.5,0.5,1","1,0.5,0.5,0.5,1,0.5,0.5,0.5,1","1","",""
"","html-keyboard-response","87","164283","0.0-87.0","3TMFV4NEP90M46NZMQAIP24XMJXW8O","ADAL2H41ZBWAK","3S1L4CQSFXRWQOWP2XFUSMS4AZDFAL","","null","<img src=""img/land3.png"" style=""width:200px;border:14px solid red;"">","null","","","","","","","","","",""
"","image-keyboard-response","88","165660","0.0-88.0","3TMFV4NEP90M46NZMQAIP24XMJXW8O","ADAL2H41ZBWAK","3S1L4CQSFXRWQOWP2XFUSMS4AZDFAL","","1375.6000000014901","img/land2.png","76","1377","3","1","3","2","1,0.5,0.5,0.5,1,0.5,0.5,0.5,1","1,0.5,0.5,0.5,1,0.5,0.5,0.5,1","1","",""
"","html-keyboard-response","89","165963","0.0-89.0","3TMFV4NEP90M46NZMQAIP24XMJXW8O","ADAL2H41ZBWAK","3S1L4CQSFXRWQOWP2XFUSMS4AZDFAL","","null","<img src=""img/land2.png"" style=""width:200px; border:14px solid green;"">","null","","","","","","","","","",""
"","image-keyboard-response","90","166625","0.0-90.0","3TMFV4NEP90M46NZMQAIP24XMJXW8O","ADAL2H41ZBWAK","3S1L4CQSFXRWQOWP2XFUSMS4AZDFAL","","660.2999999970198","img/land3.png","76","661.7999999970198","3","1","2","2","1,0.5,0.5,0.5,1,0.5,0.5,0.5,1","1,0.5,0.5,0.5,1,0.5,0.5,0.5,1","1","",""
"","html-keyboard-response","91","166930","0.0-91.0","3TMFV4NEP90M46NZMQAIP24XMJXW8O","ADAL2H41ZBWAK","3S1L4CQSFXRWQOWP2XFUSMS4AZDFAL","","null","<img src=""img/land3.png"" style=""width:200px; border:14px solid green;"">","null","","","","","","","","","",""
"","image-keyboard-response","92","167481","0.0-92.0","3TMFV4NEP90M46NZMQAIP24XMJXW8O","ADAL2H41ZBWAK","3S1L4CQSFXRWQOWP2XFUSMS4AZDFAL","","549.1999999955297","img/land3.png","76","550.6000000014901","3","0","2","2","1,0.5,0.5,0.5,1,0.5,0.5,0.5,1","1,0.5,0.5,0.5,1,0.5,0.5,0.5,1","1","",""
"","html-keyboard-response","93","167786","0.0-93.0","3TMFV4NEP90M46NZMQAIP24XMJXW8O","ADAL2H41ZBWAK","3S1L4CQSFXRWQOWP2XFUSMS4AZDFAL","","null","<img src=""img/land3.png"" style=""width:200px;border:14px solid red;"">","null","","","","","","","","","",""
"","image-keyboard-response","94","168584","0.0-94.0","3TMFV4NEP90M46NZMQAIP24XMJXW8O","ADAL2H41ZBWAK","3S1L4CQSFXRWQOWP2XFUSMS4AZDFAL","","797.0999999940395","img/land3.png","75","798.4000000059605","2","1","2","2","1,0.5,0.5,0.5,1,0.5,0.5,0.5,1","1,0.5,0.5,0.5,1,0.5,0.5,0.5,1","1","",""
"","html-keyboard-response","95","168890","0.0-95.0","3TMFV4NEP90M46NZMQAIP24XMJXW8O","ADAL2H41ZBWAK","3S1L4CQSFXRWQOWP2XFUSMS4AZDFAL","","null","<img src=""img/land3.png"" style=""width:200px; border:14px solid green;"">","null","","","","","","","","","",""
"","image-keyboard-response","96","169945","0.0-96.0","3TMFV4NEP90M46NZMQAIP24XMJXW8O","ADAL2H41ZBWAK","3S1L4CQSFXRWQOWP2XFUSMS4AZDFAL","","1053.2000000029802","img/land4.png","76","1054.5","3","0","1","2","1,0.5,0.5,0.5,1,0.5,0.5,0.5,1","1,0.5,0.5,0.5,1,0.5,0.5,0.5,1","1","",""
"","html-keyboard-response","97","170250","0.0-97.0","3TMFV4NEP90M46NZMQAIP24XMJXW8O","ADAL2H41ZBWAK","3S1L4CQSFXRWQOWP2XFUSMS4AZDFAL","","null","<img src=""img/land4.png"" style=""width:200px;border:14px solid red;"">","null","","","","","","","","","",""
"","image-keyboard-response","98","171312","0.0-98.0","3TMFV4NEP90M46NZMQAIP24XMJXW8O","ADAL2H41ZBWAK","3S1L4CQSFXRWQOWP2XFUSMS4AZDFAL","","1060.3999999985099","img/land2.png","76","1062","3","1","3","2","1,0.5,0.5,0.5,1,0.5,0.5,0.5,1","1,0.5,0.5,0.5,1,0.5,0.5,0.5,1","1","",""
"","html-keyboard-response","99","171618","0.0-99.0","3TMFV4NEP90M46NZMQAIP24XMJXW8O","ADAL2H41ZBWAK","3S1L4CQSFXRWQOWP2XFUSMS4AZDFAL","","null","<img src=""img/land2.png"" style=""width:200px; border:14px solid green;"">","null","","","","","","","","","",""
"","image-keyboard-response","100","172488","0.0-100.0","3TMFV4NEP90M46NZMQAIP24XMJXW8O","ADAL2H41ZBWAK","3S1L4CQSFXRWQOWP2XFUSMS4AZDFAL","","868.1000000014901","img/land4.png","76","869.8000000044703","3","1","1","2","1,0.5,0.5,0.5,1,0.5,0.5,0.5,1","1,0.5,0.5,0.5,1,0.5,0.5,0.5,1","1","",""
"","html-keyboard-response","101","172794","0.0-101.0","3TMFV4NEP90M46NZMQAIP24XMJXW8O","ADAL2H41ZBWAK","3S1L4CQSFXRWQOWP2XFUSMS4AZDFAL","","null","<img src=""img/land4.png"" style=""width:200px; border:14px solid green;"">","null","","","","","","","","","",""
"","image-keyboard-response","102","173728","0.0-102.0","3TMFV4NEP90M46NZMQAIP24XMJXW8O","ADAL2H41ZBWAK","3S1L4CQSFXRWQOWP2XFUSMS4AZDFAL","","932.2000000029802","img/land3.png","76","933.8000000044703","3","1","2","2","1,0.5,0.5,0.5,1,0.5,0.5,0.5,1","1,0.5,0.5,0.5,1,0.5,0.5,0.5,1","1","",""
"","html-keyboard-response","103","174034","0.0-103.0","3TMFV4NEP90M46NZMQAIP24XMJXW8O","ADAL2H41ZBWAK","3S1L4CQSFXRWQOWP2XFUSMS4AZDFAL","","null","<img src=""img/land3.png"" style=""width:200px; border:14px solid green;"">","null","","","","","","","","","",""
"","image-keyboard-response","104","174736","0.0-104.0","3TMFV4NEP90M46NZMQAIP24XMJXW8O","ADAL2H41ZBWAK","3S1L4CQSFXRWQOWP2XFUSMS4AZDFAL","","699.7000000029802","img/land4.png","76","701.3999999985099","3","0","1","2","1,0.5,0.5,0.5,1,0.5,0.5,0.5,1","1,0.5,0.5,0.5,1,0.5,0.5,0.5,1","1","",""
"","html-keyboard-response","105","175042","0.0-105.0","3TMFV4NEP90M46NZMQAIP24XMJXW8O","ADAL2H41ZBWAK","3S1L4CQSFXRWQOWP2XFUSMS4AZDFAL","","null","<img src=""img/land4.png"" style=""width:200px;border:14px solid red;"">","null","","","","","","","","","",""
"","image-keyboard-response","106","176216","0.0-106.0","3TMFV4NEP90M46NZMQAIP24XMJXW8O","ADAL2H41ZBWAK","3S1L4CQSFXRWQOWP2XFUSMS4AZDFAL","","1172.5","img/land4.png","75","1174.1000000014901","2","0","1","2","1,0.5,0.5,0.5,1,0.5,0.5,0.5,1","1,0.5,0.5,0.5,1,0.5,0.5,0.5,1","1","",""
"","html-keyboard-response","107","176522","0.0-107.0","3TMFV4NEP90M46NZMQAIP24XMJXW8O","ADAL2H41ZBWAK","3S1L4CQSFXRWQOWP2XFUSMS4AZDFAL","","null","<img src=""img/land4.png"" style=""width:200px;border:14px solid red;"">","null","","","","","","","","","",""
"","image-keyboard-response","108","177714","0.0-108.0","3TMFV4NEP90M46NZMQAIP24XMJXW8O","ADAL2H41ZBWAK","3S1L4CQSFXRWQOWP2XFUSMS4AZDFAL","","1187.8999999985099","img/land4.png","74","1189.3999999985099","1","1","1","2","1,0.5,0.5,0.5,1,0.5,0.5,0.5,1","1,0.5,0.5,0.5,1,0.5,0.5,0.5,1","1","",""
"","html-keyboard-response","109","178020","0.0-109.0","3TMFV4NEP90M46NZMQAIP24XMJXW8O","ADAL2H41ZBWAK","3S1L4CQSFXRWQOWP2XFUSMS4AZDFAL","","null","<img src=""img/land4.png"" style=""width:200px; border:14px solid green;"">","null","","","","","","","","","",""
"","image-keyboard-response","110","178994","0.0-110.0","3TMFV4NEP90M46NZMQAIP24XMJXW8O","ADAL2H41ZBWAK","3S1L4CQSFXRWQOWP2XFUSMS4AZDFAL","","971.3999999985099","img/land4.png","74","974.2999999970198","1","1","1","2","1,0.5,0.5,0.5,1,0.5,0.5,0.5,1","1,0.5,0.5,0.5,1,0.5,0.5,0.5,1","1","",""
"","html-keyboard-response","111","179300","0.0-111.0","3TMFV4NEP90M46NZMQAIP24XMJXW8O","ADAL2H41ZBWAK","3S1L4CQSFXRWQOWP2XFUSMS4AZDFAL","","null","<img src=""img/land4.png"" style=""width:200px; border:14px solid green;"">","null","","","","","","","","","",""
"","image-keyboard-response","112","180794","0.0-112.0","3TMFV4NEP90M46NZMQAIP24XMJXW8O","ADAL2H41ZBWAK","3S1L4CQSFXRWQOWP2XFUSMS4AZDFAL","","1492","img/land3.png","75","1493.6000000014901","2","1","2","2","1,0.5,0.5,0.5,1,0.5,0.5,0.5,1","1,0.5,0.5,0.5,1,0.5,0.5,0.5,1","1","",""
"","html-keyboard-response","113","181100","0.0-113.0","3TMFV4NEP90M46NZMQAIP24XMJXW8O","ADAL2H41ZBWAK","3S1L4CQSFXRWQOWP2XFUSMS4AZDFAL","","null","<img src=""img/land3.png"" style=""width:200px; border:14px solid green;"">","null","","","","","","","","","",""
"","image-keyboard-response","114","182178","0.0-114.0","3TMFV4NEP90M46NZMQAIP24XMJXW8O","ADAL2H41ZBWAK","3S1L4CQSFXRWQOWP2XFUSMS4AZDFAL","","1075.8999999985099","img/land4.png","76","1077.7999999970198","3","1","1","2","1,0.5,0.5,0.5,1,0.5,0.5,0.5,1","1,0.5,0.5,0.5,1,0.5,0.5,0.5,1","1","",""
"","html-keyboard-response","115","182484","0.0-115.0","3TMFV4NEP90M46NZMQAIP24XMJXW8O","ADAL2H41ZBWAK","3S1L4CQSFXRWQOWP2XFUSMS4AZDFAL","","null","<img src=""img/land4.png"" style=""width:200px; border:14px solid green;"">","null","","","","","","","","","",""
"","image-keyboard-response","116","183970","0.0-116.0","3TMFV4NEP90M46NZMQAIP24XMJXW8O","ADAL2H41ZBWAK","3S1L4CQSFXRWQOWP2XFUSMS4AZDFAL","","1484.1999999955297","img/land2.png","74","1486.0999999940395","1","1","3","2","1,0.5,0.5,0.5,1,0.5,0.5,0.5,1","1,0.5,0.5,0.5,1,0.5,0.5,0.5,1","1","",""
"","html-keyboard-response","117","184276","0.0-117.0","3TMFV4NEP90M46NZMQAIP24XMJXW8O","ADAL2H41ZBWAK","3S1L4CQSFXRWQOWP2XFUSMS4AZDFAL","","null","<img src=""img/land2.png"" style=""width:200px; border:14px solid green;"">","null","","","","","","","","","",""
"","image-keyboard-response","118","184834","0.0-118.0","3TMFV4NEP90M46NZMQAIP24XMJXW8O","ADAL2H41ZBWAK","3S1L4CQSFXRWQOWP2XFUSMS4AZDFAL","","556.2999999970198","img/land2.png","74","557.7999999970198","1","0","3","2","1,0.5,0.5,0.5,1,0.5,0.5,0.5,1","1,0.5,0.5,0.5,1,0.5,0.5,0.5,1","1","",""
"","html-keyboard-response","119","185140","0.0-119.0","3TMFV4NEP90M46NZMQAIP24XMJXW8O","ADAL2H41ZBWAK","3S1L4CQSFXRWQOWP2XFUSMS4AZDFAL","","null","<img src=""img/land2.png"" style=""width:200px;border:14px solid red;"">","null","","","","","","","","","",""
"","image-keyboard-response","120","185866","0.0-120.0","3TMFV4NEP90M46NZMQAIP24XMJXW8O","ADAL2H41ZBWAK","3S1L4CQSFXRWQOWP2XFUSMS4AZDFAL","","723.5","img/land3.png","75","725.1999999955297","2","1","2","2","1,0.5,0.5,0.5,1,0.5,0.5,0.5,1","1,0.5,0.5,0.5,1,0.5,0.5,0.5,1","1","",""
"","html-keyboard-response","121","186172","0.0-121.0","3TMFV4NEP90M46NZMQAIP24XMJXW8O","ADAL2H41ZBWAK","3S1L4CQSFXRWQOWP2XFUSMS4AZDFAL","","null","<img src=""img/land3.png"" style=""width:200px; border:14px solid green;"">","null","","","","","","","","","",""
"","image-keyboard-response","122","186698","0.0-122.0","3TMFV4NEP90M46NZMQAIP24XMJXW8O","ADAL2H41ZBWAK","3S1L4CQSFXRWQOWP2XFUSMS4AZDFAL","","524.0999999940395","img/land3.png","75","525.7000000029802","2","1","2","2","1,0.5,0.5,0.5,1,0.5,0.5,0.5,1","1,0.5,0.5,0.5,1,0.5,0.5,0.5,1","1","",""
"","html-keyboard-response","123","187004","0.0-123.0","3TMFV4NEP90M46NZMQAIP24XMJXW8O","ADAL2H41ZBWAK","3S1L4CQSFXRWQOWP2XFUSMS4AZDFAL","","null","<img src=""img/land3.png"" style=""width:200px; border:14px solid green;"">","null","","","","","","","","","",""
"","image-keyboard-response","124","187610","0.0-124.0","3TMFV4NEP90M46NZMQAIP24XMJXW8O","ADAL2H41ZBWAK","3S1L4CQSFXRWQOWP2XFUSMS4AZDFAL","","603.2000000029802","img/land2.png","76","605.1000000014901","3","1","3","2","1,0.5,0.5,0.5,1,0.5,0.5,0.5,1","1,0.5,0.5,0.5,1,0.5,0.5,0.5,1","1","",""
"","html-keyboard-response","125","187916","0.0-125.0","3TMFV4NEP90M46NZMQAIP24XMJXW8O","ADAL2H41ZBWAK","3S1L4CQSFXRWQOWP2XFUSMS4AZDFAL","","null","<img src=""img/land2.png"" style=""width:200px; border:14px solid green;"">","null","","","","","","","","","",""
"","image-keyboard-response","126","188329","0.0-126.0","3TMFV4NEP90M46NZMQAIP24XMJXW8O","ADAL2H41ZBWAK","3S1L4CQSFXRWQOWP2XFUSMS4AZDFAL","","411.8999999985099","img/land4.png","76","413.20000000298023","3","1","1","2","1,0.5,0.5,0.5,1,0.5,0.5,0.5,1","1,0.5,0.5,0.5,1,0.5,0.5,0.5,1","1","",""
"","html-keyboard-response","127","188636","0.0-127.0","3TMFV4NEP90M46NZMQAIP24XMJXW8O","ADAL2H41ZBWAK","3S1L4CQSFXRWQOWP2XFUSMS4AZDFAL","","null","<img src=""img/land4.png"" style=""width:200px; border:14px solid green;"">","null","","","","","","","","","",""
"","image-keyboard-response","128","189417","0.0-128.0","3TMFV4NEP90M46NZMQAIP24XMJXW8O","ADAL2H41ZBWAK","3S1L4CQSFXRWQOWP2XFUSMS4AZDFAL","","778.8999999985099","img/land3.png","76","780.8000000044703","3","0","2","2","1,0.5,0.5,0.5,1,0.5,0.5,0.5,1","1,0.5,0.5,0.5,1,0.5,0.5,0.5,1","1","",""
"","html-keyboard-response","129","189724","0.0-129.0","3TMFV4NEP90M46NZMQAIP24XMJXW8O","ADAL2H41ZBWAK","3S1L4CQSFXRWQOWP2XFUSMS4AZDFAL","","null","<img src=""img/land3.png"" style=""width:200px;border:14px solid red;"">","null","","","","","","","","","",""
"","image-keyboard-response","130","190170","0.0-130.0","3TMFV4NEP90M46NZMQAIP24XMJXW8O","ADAL2H41ZBWAK","3S1L4CQSFXRWQOWP2XFUSMS4AZDFAL","","443.20000000298023","img/land3.png","75","445","2","1","2","2","1,0.5,0.5,0.5,1,0.5,0.5,0.5,1","1,0.5,0.5,0.5,1,0.5,0.5,0.5,1","1","",""
"","html-keyboard-response","131","190476","0.0-131.0","3TMFV4NEP90M46NZMQAIP24XMJXW8O","ADAL2H41ZBWAK","3S1L4CQSFXRWQOWP2XFUSMS4AZDFAL","","null","<img src=""img/land3.png"" style=""width:200px; border:14px solid green;"">","null","","","","","","","","","",""
"","image-keyboard-response","132","191058","0.0-132.0","3TMFV4NEP90M46NZMQAIP24XMJXW8O","ADAL2H41ZBWAK","3S1L4CQSFXRWQOWP2XFUSMS4AZDFAL","","580.4000000059605","img/land2.png","75","581.8999999985099","2","0","3","2","1,0.5,0.5,0.5,1,0.5,0.5,0.5,1","1,0.5,0.5,0.5,1,0.5,0.5,0.5,1","1","",""
"","html-keyboard-response","133","191364","0.0-133.0","3TMFV4NEP90M46NZMQAIP24XMJXW8O","ADAL2H41ZBWAK","3S1L4CQSFXRWQOWP2XFUSMS4AZDFAL","","null","<img src=""img/land2.png"" style=""width:200px;border:14px solid red;"">","null","","","","","","","","","",""
"","image-keyboard-response","134","192376","0.0-134.0","3TMFV4NEP90M46NZMQAIP24XMJXW8O","ADAL2H41ZBWAK","3S1L4CQSFXRWQOWP2XFUSMS4AZDFAL","","1010.2999999970198","img/land4.png","75","1011.7000000029802","2","0","1","2","1,0.5,0.5,0.5,1,0.5,0.5,0.5,1","1,0.5,0.5,0.5,1,0.5,0.5,0.5,1","1","",""
"","html-keyboard-response","135","192684","0.0-135.0","3TMFV4NEP90M46NZMQAIP24XMJXW8O","ADAL2H41ZBWAK","3S1L4CQSFXRWQOWP2XFUSMS4AZDFAL","","null","<img src=""img/land4.png"" style=""width:200px;border:14px solid red;"">","null","","","","","","","","","",""
"","image-keyboard-response","136","193705","0.0-136.0","3TMFV4NEP90M46NZMQAIP24XMJXW8O","ADAL2H41ZBWAK","3S1L4CQSFXRWQOWP2XFUSMS4AZDFAL","","1018.7000000029802","img/land4.png","74","1020.3999999985099","1","1","1","2","1,0.5,0.5,0.5,1,0.5,0.5,0.5,1","1,0.5,0.5,0.5,1,0.5,0.5,0.5,1","1","",""
"","html-keyboard-response","137","194009","0.0-137.0","3TMFV4NEP90M46NZMQAIP24XMJXW8O","ADAL2H41ZBWAK","3S1L4CQSFXRWQOWP2XFUSMS4AZDFAL","","null","<img src=""img/land4.png"" style=""width:200px; border:14px solid green;"">","null","","","","","","","","","",""
"","image-keyboard-response","138","194634","0.0-138.0","3TMFV4NEP90M46NZMQAIP24XMJXW8O","ADAL2H41ZBWAK","3S1L4CQSFXRWQOWP2XFUSMS4AZDFAL","","623.1999999955297","img/land4.png","74","624.8000000044703","1","1","1","2","1,0.5,0.5,0.5,1,0.5,0.5,0.5,1","1,0.5,0.5,0.5,1,0.5,0.5,0.5,1","1","",""
"","html-keyboard-response","139","194940","0.0-139.0","3TMFV4NEP90M46NZMQAIP24XMJXW8O","ADAL2H41ZBWAK","3S1L4CQSFXRWQOWP2XFUSMS4AZDFAL","","null","<img src=""img/land4.png"" style=""width:200px; border:14px solid green;"">","null","","","","","","","","","",""
"","image-keyboard-response","140","195793","0.0-140.0","3TMFV4NEP90M46NZMQAIP24XMJXW8O","ADAL2H41ZBWAK","3S1L4CQSFXRWQOWP2XFUSMS4AZDFAL","","850.6000000014901","img/land2.png","75","852.2999999970198","2","1","3","2","1,0.5,0.5,0.5,1,0.5,0.5,0.5,1","1,0.5,0.5,0.5,1,0.5,0.5,0.5,1","1","",""
"","html-keyboard-response","141","196100","0.0-141.0","3TMFV4NEP90M46NZMQAIP24XMJXW8O","ADAL2H41ZBWAK","3S1L4CQSFXRWQOWP2XFUSMS4AZDFAL","","null","<img src=""img/land2.png"" style=""width:200px; border:14px solid green;"">","null","","","","","","","","","",""
"","image-keyboard-response","142","197922","0.0-142.0","3TMFV4NEP90M46NZMQAIP24XMJXW8O","ADAL2H41ZBWAK","3S1L4CQSFXRWQOWP2XFUSMS4AZDFAL","","1820.4000000059605","img/land3.png","76","1821.5999999940395","3","0","2","2","1,0.5,0.5,0.5,1,0.5,0.5,0.5,1","1,0.5,0.5,0.5,1,0.5,0.5,0.5,1","1","",""
"","html-keyboard-response","143","198229","0.0-143.0","3TMFV4NEP90M46NZMQAIP24XMJXW8O","ADAL2H41ZBWAK","3S1L4CQSFXRWQOWP2XFUSMS4AZDFAL","","null","<img src=""img/land3.png"" style=""width:200px;border:14px solid red;"">","null","","","","","","","","","",""
"","image-keyboard-response","144","199073","0.0-144.0","3TMFV4NEP90M46NZMQAIP24XMJXW8O","ADAL2H41ZBWAK","3S1L4CQSFXRWQOWP2XFUSMS4AZDFAL","","842.2999999970198","img/land4.png","75","844","2","1","1","2","1,0.5,0.5,0.5,1,0.5,0.5,0.5,1","1,0.5,0.5,0.5,1,0.5,0.5,0.5,1","1","",""
"","html-keyboard-response","145","199381","0.0-145.0","3TMFV4NEP90M46NZMQAIP24XMJXW8O","ADAL2H41ZBWAK","3S1L4CQSFXRWQOWP2XFUSMS4AZDFAL","","null","<img src=""img/land4.png"" style=""width:200px; border:14px solid green;"">","null","","","","","","","","","",""
"","image-keyboard-response","146","200017","0.0-146.0","3TMFV4NEP90M46NZMQAIP24XMJXW8O","ADAL2H41ZBWAK","3S1L4CQSFXRWQOWP2XFUSMS4AZDFAL","","634.3999999985099","img/land4.png","75","635.6999999955297","2","0","1","2","1,0.5,0.5,0.5,1,0.5,0.5,0.5,1","1,0.5,0.5,0.5,1,0.5,0.5,0.5,1","1","",""
"","html-keyboard-response","147","200325","0.0-147.0","3TMFV4NEP90M46NZMQAIP24XMJXW8O","ADAL2H41ZBWAK","3S1L4CQSFXRWQOWP2XFUSMS4AZDFAL","","null","<img src=""img/land4.png"" style=""width:200px;border:14px solid red;"">","null","","","","","","","","","",""
"","image-keyboard-response","148","201057","0.0-148.0","3TMFV4NEP90M46NZMQAIP24XMJXW8O","ADAL2H41ZBWAK","3S1L4CQSFXRWQOWP2XFUSMS4AZDFAL","","730.2999999970198","img/land2.png","75","731.7999999970198","2","1","3","2","1,0.5,0.5,0.5,1,0.5,0.5,0.5,1","1,0.5,0.5,0.5,1,0.5,0.5,0.5,1","1","",""
"","html-keyboard-response","149","201365","0.0-149.0","3TMFV4NEP90M46NZMQAIP24XMJXW8O","ADAL2H41ZBWAK","3S1L4CQSFXRWQOWP2XFUSMS4AZDFAL","","null","<img src=""img/land2.png"" style=""width:200px; border:14px solid green;"">","null","","","","","","","","","",""
"","image-keyboard-response","150","202233","0.0-150.0","3TMFV4NEP90M46NZMQAIP24XMJXW8O","ADAL2H41ZBWAK","3S1L4CQSFXRWQOWP2XFUSMS4AZDFAL","","866.2999999970198","img/land4.png","74","867.7999999970198","1","1","1","2","1,0.5,0.5,0.5,1,0.5,0.5,0.5,1","1,0.5,0.5,0.5,1,0.5,0.5,0.5,1","1","",""
"","html-keyboard-response","151","202541","0.0-151.0","3TMFV4NEP90M46NZMQAIP24XMJXW8O","ADAL2H41ZBWAK","3S1L4CQSFXRWQOWP2XFUSMS4AZDFAL","","null","<img src=""img/land4.png"" style=""width:200px; border:14px solid green;"">","null","","","","","","","","","",""
"","image-keyboard-response","152","203705","0.0-152.0","3TMFV4NEP90M46NZMQAIP24XMJXW8O","ADAL2H41ZBWAK","3S1L4CQSFXRWQOWP2XFUSMS4AZDFAL","","1162.1000000014901","img/land3.png","75","1163.7000000029802","2","1","2","2","1,0.5,0.5,0.5,1,0.5,0.5,0.5,1","1,0.5,0.5,0.5,1,0.5,0.5,0.5,1","1","",""
"","html-keyboard-response","153","204013","0.0-153.0","3TMFV4NEP90M46NZMQAIP24XMJXW8O","ADAL2H41ZBWAK","3S1L4CQSFXRWQOWP2XFUSMS4AZDFAL","","null","<img src=""img/land3.png"" style=""width:200px; border:14px solid green;"">","null","","","","","","","","","",""
"","image-keyboard-response","154","204561","0.0-154.0","3TMFV4NEP90M46NZMQAIP24XMJXW8O","ADAL2H41ZBWAK","3S1L4CQSFXRWQOWP2XFUSMS4AZDFAL","","546.2999999970198","img/land4.png","75","547.7999999970198","2","0","1","2","1,0.5,0.5,0.5,1,0.5,0.5,0.5,1","1,0.5,0.5,0.5,1,0.5,0.5,0.5,1","1","",""
"","html-keyboard-response","155","204869","0.0-155.0","3TMFV4NEP90M46NZMQAIP24XMJXW8O","ADAL2H41ZBWAK","3S1L4CQSFXRWQOWP2XFUSMS4AZDFAL","","null","<img src=""img/land4.png"" style=""width:200px;border:14px solid red;"">","null","","","","","","","","","",""
"","image-keyboard-response","156","205457","0.0-156.0","3TMFV4NEP90M46NZMQAIP24XMJXW8O","ADAL2H41ZBWAK","3S1L4CQSFXRWQOWP2XFUSMS4AZDFAL","","586","img/land4.png","74","587.6000000014901","1","1","1","2","1,0.5,0.5,0.5,1,0.5,0.5,0.5,1","1,0.5,0.5,0.5,1,0.5,0.5,0.5,1","1","",""
"","html-keyboard-response","157","205764","0.0-157.0","3TMFV4NEP90M46NZMQAIP24XMJXW8O","ADAL2H41ZBWAK","3S1L4CQSFXRWQOWP2XFUSMS4AZDFAL","","null","<img src=""img/land4.png"" style=""width:200px; border:14px solid green;"">","null","","","","","","","","","",""
"","image-keyboard-response","158","206353","0.0-158.0","3TMFV4NEP90M46NZMQAIP24XMJXW8O","ADAL2H41ZBWAK","3S1L4CQSFXRWQOWP2XFUSMS4AZDFAL","","586.9000000059605","img/land4.png","74","588.5","1","1","1","2","1,0.5,0.5,0.5,1,0.5,0.5,0.5,1","1,0.5,0.5,0.5,1,0.5,0.5,0.5,1","1","",""
"","html-keyboard-response","159","206660","0.0-159.0","3TMFV4NEP90M46NZMQAIP24XMJXW8O","ADAL2H41ZBWAK","3S1L4CQSFXRWQOWP2XFUSMS4AZDFAL","","null","<img src=""img/land4.png"" style=""width:200px; border:14px solid green;"">","null","","","","","","","","","",""
"","image-keyboard-response","160","207217","0.0-160.0","3TMFV4NEP90M46NZMQAIP24XMJXW8O","ADAL2H41ZBWAK","3S1L4CQSFXRWQOWP2XFUSMS4AZDFAL","","555.1000000014901","img/land4.png","74","556.6000000014901","1","1","1","2","1,0.5,0.5,0.5,1,0.5,0.5,0.5,1","1,0.5,0.5,0.5,1,0.5,0.5,0.5,1","1","",""
"","html-keyboard-response","161","207524","0.0-161.0","3TMFV4NEP90M46NZMQAIP24XMJXW8O","ADAL2H41ZBWAK","3S1L4CQSFXRWQOWP2XFUSMS4AZDFAL","","null","<img src=""img/land4.png"" style=""width:200px; border:14px solid green;"">","null","","","","","","","","","",""
"","image-keyboard-response","162","208064","0.0-162.0","3TMFV4NEP90M46NZMQAIP24XMJXW8O","ADAL2H41ZBWAK","3S1L4CQSFXRWQOWP2XFUSMS4AZDFAL","","538.7000000029802","img/land4.png","74","540.1000000014901","1","1","1","2","1,0.5,0.5,0.5,1,0.5,0.5,0.5,1","1,0.5,0.5,0.5,1,0.5,0.5,0.5,1","1","",""
"","html-keyboard-response","163","208372","0.0-163.0","3TMFV4NEP90M46NZMQAIP24XMJXW8O","ADAL2H41ZBWAK","3S1L4CQSFXRWQOWP2XFUSMS4AZDFAL","","null","<img src=""img/land4.png"" style=""width:200px; border:14px solid green;"">","null","","","","","","","","","",""
"","image-keyboard-response","164","210128","0.0-164.0","3TMFV4NEP90M46NZMQAIP24XMJXW8O","ADAL2H41ZBWAK","3S1L4CQSFXRWQOWP2XFUSMS4AZDFAL","","1754.8999999985099","img/land2.png","75","1756.3000000044703","2","0","3","2","1,0.5,0.5,0.5,1,0.5,0.5,0.5,1","1,0.5,0.5,0.5,1,0.5,0.5,0.5,1","1","",""
"","html-keyboard-response","165","210436","0.0-165.0","3TMFV4NEP90M46NZMQAIP24XMJXW8O","ADAL2H41ZBWAK","3S1L4CQSFXRWQOWP2XFUSMS4AZDFAL","","null","<img src=""img/land2.png"" style=""width:200px;border:14px solid red;"">","null","","","","","","","","","",""
"","image-keyboard-response","166","211209","0.0-166.0","3TMFV4NEP90M46NZMQAIP24XMJXW8O","ADAL2H41ZBWAK","3S1L4CQSFXRWQOWP2XFUSMS4AZDFAL","","770.8000000044703","img/land2.png","75","772.3999999985099","2","1","3","2","1,0.5,0.5,0.5,1,0.5,0.5,0.5,1","1,0.5,0.5,0.5,1,0.5,0.5,0.5,1","1","",""
"","html-keyboard-response","167","211516","0.0-167.0","3TMFV4NEP90M46NZMQAIP24XMJXW8O","ADAL2H41ZBWAK","3S1L4CQSFXRWQOWP2XFUSMS4AZDFAL","","null","<img src=""img/land2.png"" style=""width:200px; border:14px solid green;"">","null","","","","","","","","","",""
"","image-keyboard-response","168","212003","0.0-168.0","3TMFV4NEP90M46NZMQAIP24XMJXW8O","ADAL2H41ZBWAK","3S1L4CQSFXRWQOWP2XFUSMS4AZDFAL","","485.8999999985099","img/land4.png","75","487.20000000298023","2","0","1","2","1,0.5,0.5,0.5,1,0.5,0.5,0.5,1","1,0.5,0.5,0.5,1,0.5,0.5,0.5,1","1","",""
"","html-keyboard-response","169","212308","0.0-169.0","3TMFV4NEP90M46NZMQAIP24XMJXW8O","ADAL2H41ZBWAK","3S1L4CQSFXRWQOWP2XFUSMS4AZDFAL","","null","<img src=""img/land4.png"" style=""width:200px;border:14px solid red;"">","null","","","","","","","","","",""
"","image-keyboard-response","170","212875","0.0-170.0","3TMFV4NEP90M46NZMQAIP24XMJXW8O","ADAL2H41ZBWAK","3S1L4CQSFXRWQOWP2XFUSMS4AZDFAL","","565.7999999970198","img/land4.png","76","567.2000000029802","3","1","1","2","1,0.5,0.5,0.5,1,0.5,0.5,0.5,1","1,0.5,0.5,0.5,1,0.5,0.5,0.5,1","1","",""
"","html-keyboard-response","171","213180","0.0-171.0","3TMFV4NEP90M46NZMQAIP24XMJXW8O","ADAL2H41ZBWAK","3S1L4CQSFXRWQOWP2XFUSMS4AZDFAL","","null","<img src=""img/land4.png"" style=""width:200px; border:14px solid green;"">","null","","","","","","","","","",""
"","image-keyboard-response","172","213648","0.0-172.0","3TMFV4NEP90M46NZMQAIP24XMJXW8O","ADAL2H41ZBWAK","3S1L4CQSFXRWQOWP2XFUSMS4AZDFAL","","467","img/land4.png","76","468.40000000596046","3","1","1","2","1,0.5,0.5,0.5,1,0.5,0.5,0.5,1","1,0.5,0.5,0.5,1,0.5,0.5,0.5,1","1","",""
"","html-keyboard-response","173","213956","0.0-173.0","3TMFV4NEP90M46NZMQAIP24XMJXW8O","ADAL2H41ZBWAK","3S1L4CQSFXRWQOWP2XFUSMS4AZDFAL","","null","<img src=""img/land4.png"" style=""width:200px; border:14px solid green;"">","null","","","","","","","","","",""
"","image-keyboard-response","174","214401","0.0-174.0","3TMFV4NEP90M46NZMQAIP24XMJXW8O","ADAL2H41ZBWAK","3S1L4CQSFXRWQOWP2XFUSMS4AZDFAL","","443.40000000596046","img/land4.png","76","444.5","3","0","1","2","1,0.5,0.5,0.5,1,0.5,0.5,0.5,1","1,0.5,0.5,0.5,1,0.5,0.5,0.5,1","1","",""
"","html-keyboard-response","175","214708","0.0-175.0","3TMFV4NEP90M46NZMQAIP24XMJXW8O","ADAL2H41ZBWAK","3S1L4CQSFXRWQOWP2XFUSMS4AZDFAL","","null","<img src=""img/land4.png"" style=""width:200px;border:14px solid red;"">","null","","","","","","","","","",""
"","image-keyboard-response","176","215768","0.0-176.0","3TMFV4NEP90M46NZMQAIP24XMJXW8O","ADAL2H41ZBWAK","3S1L4CQSFXRWQOWP2XFUSMS4AZDFAL","","1058.7000000029802","img/land4.png","76","1060.3000000044703","3","0","1","2","1,0.5,0.5,0.5,1,0.5,0.5,0.5,1","1,0.5,0.5,0.5,1,0.5,0.5,0.5,1","1","",""
"","html-keyboard-response","177","216077","0.0-177.0","3TMFV4NEP90M46NZMQAIP24XMJXW8O","ADAL2H41ZBWAK","3S1L4CQSFXRWQOWP2XFUSMS4AZDFAL","","null","<img src=""img/land4.png"" style=""width:200px;border:14px solid red;"">","null","","","","","","","","","",""
"","image-keyboard-response","178","216713","0.0-178.0","3TMFV4NEP90M46NZMQAIP24XMJXW8O","ADAL2H41ZBWAK","3S1L4CQSFXRWQOWP2XFUSMS4AZDFAL","","633.5","img/land2.png","75","635.2000000029802","2","0","3","2","1,0.5,0.5,0.5,1,0.5,0.5,0.5,1","1,0.5,0.5,0.5,1,0.5,0.5,0.5,1","1","",""
"","html-keyboard-response","179","217020","0.0-179.0","3TMFV4NEP90M46NZMQAIP24XMJXW8O","ADAL2H41ZBWAK","3S1L4CQSFXRWQOWP2XFUSMS4AZDFAL","","null","<img src=""img/land2.png"" style=""width:200px;border:14px solid red;"">","null","","","","","","","","","",""
"","image-keyboard-response","180","218017","0.0-180.0","3TMFV4NEP90M46NZMQAIP24XMJXW8O","ADAL2H41ZBWAK","3S1L4CQSFXRWQOWP2XFUSMS4AZDFAL","","995.1999999955297","img/land4.png","74","996.6000000014901","1","1","1","2","1,0.5,0.5,0.5,1,0.5,0.5,0.5,1","1,0.5,0.5,0.5,1,0.5,0.5,0.5,1","1","",""
"","html-keyboard-response","181","218324","0.0-181.0","3TMFV4NEP90M46NZMQAIP24XMJXW8O","ADAL2H41ZBWAK","3S1L4CQSFXRWQOWP2XFUSMS4AZDFAL","","null","<img src=""img/land4.png"" style=""width:200px; border:14px solid green;"">","null","","","","","","","","","",""
"","image-keyboard-response","182","219016","0.0-182.0","3TMFV4NEP90M46NZMQAIP24XMJXW8O","ADAL2H41ZBWAK","3S1L4CQSFXRWQOWP2XFUSMS4AZDFAL","","690.7999999970198","img/land3.png","74","691.8999999985099","1","0","2","2","1,0.5,0.5,0.5,1,0.5,0.5,0.5,1","1,0.5,0.5,0.5,1,0.5,0.5,0.5,1","1","",""
"","html-keyboard-response","183","219324","0.0-183.0","3TMFV4NEP90M46NZMQAIP24XMJXW8O","ADAL2H41ZBWAK","3S1L4CQSFXRWQOWP2XFUSMS4AZDFAL","","null","<img src=""img/land3.png"" style=""width:200px;border:14px solid red;"">","null","","","","","","","","","",""
"","image-keyboard-response","184","220408","0.0-184.0","3TMFV4NEP90M46NZMQAIP24XMJXW8O","ADAL2H41ZBWAK","3S1L4CQSFXRWQOWP2XFUSMS4AZDFAL","","1082.2000000029802","img/land4.png","74","1083.2999999970198","1","1","1","2","1,0.5,0.5,0.5,1,0.5,0.5,0.5,1","1,0.5,0.5,0.5,1,0.5,0.5,0.5,1","1","",""
"","html-keyboard-response","185","220716","0.0-185.0","3TMFV4NEP90M46NZMQAIP24XMJXW8O","ADAL2H41ZBWAK","3S1L4CQSFXRWQOWP2XFUSMS4AZDFAL","","null","<img src=""img/land4.png"" style=""width:200px; border:14px solid green;"">","null","","","","","","","","","",""
"","image-keyboard-response","186","221408","0.0-186.0","3TMFV4NEP90M46NZMQAIP24XMJXW8O","ADAL2H41ZBWAK","3S1L4CQSFXRWQOWP2XFUSMS4AZDFAL","","690.2000000029802","img/land2.png","74","691.5","1","1","3","2","1,0.5,0.5,0.5,1,0.5,0.5,0.5,1","1,0.5,0.5,0.5,1,0.5,0.5,0.5,1","1","",""
"","html-keyboard-response","187","221716","0.0-187.0","3TMFV4NEP90M46NZMQAIP24XMJXW8O","ADAL2H41ZBWAK","3S1L4CQSFXRWQOWP2XFUSMS4AZDFAL","","null","<img src=""img/land2.png"" style=""width:200px; border:14px solid green;"">","null","","","","","","","","","",""
"","image-keyboard-response","188","222656","0.0-188.0","3TMFV4NEP90M46NZMQAIP24XMJXW8O","ADAL2H41ZBWAK","3S1L4CQSFXRWQOWP2XFUSMS4AZDFAL","","938","img/land2.png","74","939.5","1","1","3","2","1,0.5,0.5,0.5,1,0.5,0.5,0.5,1","1,0.5,0.5,0.5,1,0.5,0.5,0.5,1","1","",""
"","html-keyboard-response","189","222964","0.0-189.0","3TMFV4NEP90M46NZMQAIP24XMJXW8O","ADAL2H41ZBWAK","3S1L4CQSFXRWQOWP2XFUSMS4AZDFAL","","null","<img src=""img/land2.png"" style=""width:200px; border:14px solid green;"">","null","","","","","","","","","",""
"","image-keyboard-response","190","223816","0.0-190.0","3TMFV4NEP90M46NZMQAIP24XMJXW8O","ADAL2H41ZBWAK","3S1L4CQSFXRWQOWP2XFUSMS4AZDFAL","","850","img/land4.png","74","851.5","1","1","1","2","1,0.5,0.5,0.5,1,0.5,0.5,0.5,1","1,0.5,0.5,0.5,1,0.5,0.5,0.5,1","1","",""
"","html-keyboard-response","191","224124","0.0-191.0","3TMFV4NEP90M46NZMQAIP24XMJXW8O","ADAL2H41ZBWAK","3S1L4CQSFXRWQOWP2XFUSMS4AZDFAL","","null","<img src=""img/land4.png"" style=""width:200px; border:14px solid green;"">","null","","","","","","","","","",""
"","image-keyboard-response","192","226096","0.0-192.0","3TMFV4NEP90M46NZMQAIP24XMJXW8O","ADAL2H41ZBWAK","3S1L4CQSFXRWQOWP2XFUSMS4AZDFAL","","1970.6000000014901","img/land3.png","74","1971.8999999985099","1","0","2","2","1,0.5,0.5,0.5,1,0.5,0.5,0.5,1","1,0.5,0.5,0.5,1,0.5,0.5,0.5,1","1","",""
"","html-keyboard-response","193","226404","0.0-193.0","3TMFV4NEP90M46NZMQAIP24XMJXW8O","ADAL2H41ZBWAK","3S1L4CQSFXRWQOWP2XFUSMS4AZDFAL","","null","<img src=""img/land3.png"" style=""width:200px;border:14px solid red;"">","null","","","","","","","","","",""
"","image-keyboard-response","194","227592","0.0-194.0","3TMFV4NEP90M46NZMQAIP24XMJXW8O","ADAL2H41ZBWAK","3S1L4CQSFXRWQOWP2XFUSMS4AZDFAL","","1187.1000000014901","img/land4.png","74","1188.2000000029802","1","1","1","2","1,0.5,0.5,0.5,1,0.5,0.5,0.5,1","1,0.5,0.5,0.5,1,0.5,0.5,0.5,1","1","",""
"","html-keyboard-response","195","227900","0.0-195.0","3TMFV4NEP90M46NZMQAIP24XMJXW8O","ADAL2H41ZBWAK","3S1L4CQSFXRWQOWP2XFUSMS4AZDFAL","","null","<img src=""img/land4.png"" style=""width:200px; border:14px solid green;"">","null","","","","","","","","","",""
"","image-keyboard-response","196","228999","0.0-196.0","3TMFV4NEP90M46NZMQAIP24XMJXW8O","ADAL2H41ZBWAK","3S1L4CQSFXRWQOWP2XFUSMS4AZDFAL","","1098.1999999955297","img/land2.png","76","1099.1999999955297","3","1","3","2","1,0.5,0.5,0.5,1,0.5,0.5,0.5,1","1,0.5,0.5,0.5,1,0.5,0.5,0.5,1","1","",""
"","html-keyboard-response","197","229310","0.0-197.0","3TMFV4NEP90M46NZMQAIP24XMJXW8O","ADAL2H41ZBWAK","3S1L4CQSFXRWQOWP2XFUSMS4AZDFAL","","null","<img src=""img/land2.png"" style=""width:200px; border:14px solid green;"">","null","","","","","","","","","",""
"","image-keyboard-response","198","230384","0.0-198.0","3TMFV4NEP90M46NZMQAIP24XMJXW8O","ADAL2H41ZBWAK","3S1L4CQSFXRWQOWP2XFUSMS4AZDFAL","","1072.6999999955297","img/land4.png","74","1073.6999999955297","1","1","1","2","1,0.5,0.5,0.5,1,0.5,0.5,0.5,1","1,0.5,0.5,0.5,1,0.5,0.5,0.5,1","1","",""
"","html-keyboard-response","199","230692","0.0-199.0","3TMFV4NEP90M46NZMQAIP24XMJXW8O","ADAL2H41ZBWAK","3S1L4CQSFXRWQOWP2XFUSMS4AZDFAL","","null","<img src=""img/land4.png"" style=""width:200px; border:14px solid green;"">","null","","","","","","","","","",""
"","image-keyboard-response","200","231033","0.0-200.0","3TMFV4NEP90M46NZMQAIP24XMJXW8O","ADAL2H41ZBWAK","3S1L4CQSFXRWQOWP2XFUSMS4AZDFAL","","339.30000000447035","img/land4.png","74","340.80000000447035","1","1","1","2","1,0.5,0.5,0.5,1,0.5,0.5,0.5,1","1,0.5,0.5,0.5,1,0.5,0.5,0.5,1","1","",""
"","html-keyboard-response","201","231340","0.0-201.0","3TMFV4NEP90M46NZMQAIP24XMJXW8O","ADAL2H41ZBWAK","3S1L4CQSFXRWQOWP2XFUSMS4AZDFAL","","null","<img src=""img/land4.png"" style=""width:200px; border:14px solid green;"">","null","","","","","","","","","",""
"","image-keyboard-response","202","231720","0.0-202.0","3TMFV4NEP90M46NZMQAIP24XMJXW8O","ADAL2H41ZBWAK","3S1L4CQSFXRWQOWP2XFUSMS4AZDFAL","","378.1000000014901","img/land4.png","74","379.3999999985099","1","1","1","2","1,0.5,0.5,0.5,1,0.5,0.5,0.5,1","1,0.5,0.5,0.5,1,0.5,0.5,0.5,1","1","",""
"","html-keyboard-response","203","232028","0.0-203.0","3TMFV4NEP90M46NZMQAIP24XMJXW8O","ADAL2H41ZBWAK","3S1L4CQSFXRWQOWP2XFUSMS4AZDFAL","","null","<img src=""img/land4.png"" style=""width:200px; border:14px solid green;"">","null","","","","","","","","","",""
"","image-keyboard-response","204","232800","0.0-204.0","3TMFV4NEP90M46NZMQAIP24XMJXW8O","ADAL2H41ZBWAK","3S1L4CQSFXRWQOWP2XFUSMS4AZDFAL","","769.1000000014901","img/land3.png","76","770.6999999955297","3","1","2","2","1,0.5,0.5,0.5,1,0.5,0.5,0.5,1","1,0.5,0.5,0.5,1,0.5,0.5,0.5,1","1","",""
"","html-keyboard-response","205","233108","0.0-205.0","3TMFV4NEP90M46NZMQAIP24XMJXW8O","ADAL2H41ZBWAK","3S1L4CQSFXRWQOWP2XFUSMS4AZDFAL","","null","<img src=""img/land3.png"" style=""width:200px; border:14px solid green;"">","null","","","","","","","","","",""
"","image-keyboard-response","206","234256","0.0-206.0","3TMFV4NEP90M46NZMQAIP24XMJXW8O","ADAL2H41ZBWAK","3S1L4CQSFXRWQOWP2XFUSMS4AZDFAL","","1146.3999999985099","img/land4.png","74","1147.8000000044703","1","1","1","2","1,0.5,0.5,0.5,1,0.5,0.5,0.5,1","1,0.5,0.5,0.5,1,0.5,0.5,0.5,1","1","",""
"","html-keyboard-response","207","234564","0.0-207.0","3TMFV4NEP90M46NZMQAIP24XMJXW8O","ADAL2H41ZBWAK","3S1L4CQSFXRWQOWP2XFUSMS4AZDFAL","","null","<img src=""img/land4.png"" style=""width:200px; border:14px solid green;"">","null","","","","","","","","","",""
"","image-keyboard-response","208","234935","0.0-208.0","3TMFV4NEP90M46NZMQAIP24XMJXW8O","ADAL2H41ZBWAK","3S1L4CQSFXRWQOWP2XFUSMS4AZDFAL","","368.90000000596046","img/land4.png","74","370.20000000298023","1","1","1","2","1,0.5,0.5,0.5,1,0.5,0.5,0.5,1","1,0.5,0.5,0.5,1,0.5,0.5,0.5,1","1","",""
"","html-keyboard-response","209","235244","0.0-209.0","3TMFV4NEP90M46NZMQAIP24XMJXW8O","ADAL2H41ZBWAK","3S1L4CQSFXRWQOWP2XFUSMS4AZDFAL","","null","<img src=""img/land4.png"" style=""width:200px; border:14px solid green;"">","null","","","","","","","","","",""
"","image-keyboard-response","210","235623","0.0-210.0","3TMFV4NEP90M46NZMQAIP24XMJXW8O","ADAL2H41ZBWAK","3S1L4CQSFXRWQOWP2XFUSMS4AZDFAL","","377.20000000298023","img/land4.png","74","378.70000000298023","1","1","1","2","1,0.5,0.5,0.5,1,0.5,0.5,0.5,1","1,0.5,0.5,0.5,1,0.5,0.5,0.5,1","1","",""
"","html-keyboard-response","211","235932","0.0-211.0","3TMFV4NEP90M46NZMQAIP24XMJXW8O","ADAL2H41ZBWAK","3S1L4CQSFXRWQOWP2XFUSMS4AZDFAL","","null","<img src=""img/land4.png"" style=""width:200px; border:14px solid green;"">","null","","","","","","","","","",""
"","image-keyboard-response","212","236807","0.0-212.0","3TMFV4NEP90M46NZMQAIP24XMJXW8O","ADAL2H41ZBWAK","3S1L4CQSFXRWQOWP2XFUSMS4AZDFAL","","873.2000000029802","img/land2.png","75","874.7000000029802","2","0","3","2","1,0.5,0.5,0.5,1,0.5,0.5,0.5,1","1,0.5,0.5,0.5,1,0.5,0.5,0.5,1","1","",""
"","html-keyboard-response","213","237116","0.0-213.0","3TMFV4NEP90M46NZMQAIP24XMJXW8O","ADAL2H41ZBWAK","3S1L4CQSFXRWQOWP2XFUSMS4AZDFAL","","null","<img src=""img/land2.png"" style=""width:200px;border:14px solid red;"">","null","","","","","","","","","",""
"","image-keyboard-response","214","238105","0.0-214.0","3TMFV4NEP90M46NZMQAIP24XMJXW8O","ADAL2H41ZBWAK","3S1L4CQSFXRWQOWP2XFUSMS4AZDFAL","","985.9000000059605","img/land4.png","74","987.2999999970198","1","1","1","2","1,0.5,0.5,0.5,1,0.5,0.5,0.5,1","1,0.5,0.5,0.5,1,0.5,0.5,0.5,1","1","",""
"","html-keyboard-response","215","238414","0.0-215.0","3TMFV4NEP90M46NZMQAIP24XMJXW8O","ADAL2H41ZBWAK","3S1L4CQSFXRWQOWP2XFUSMS4AZDFAL","","null","<img src=""img/land4.png"" style=""width:200px; border:14px solid green;"">","null","","","","","","","","","",""
"","image-keyboard-response","216","238696","0.0-216.0","3TMFV4NEP90M46NZMQAIP24XMJXW8O","ADAL2H41ZBWAK","3S1L4CQSFXRWQOWP2XFUSMS4AZDFAL","","280.6000000014901","img/land4.png","74","282.1000000014901","1","1","1","2","1,0.5,0.5,0.5,1,0.5,0.5,0.5,1","1,0.5,0.5,0.5,1,0.5,0.5,0.5,1","1","",""
"","html-keyboard-response","217","239005","0.0-217.0","3TMFV4NEP90M46NZMQAIP24XMJXW8O","ADAL2H41ZBWAK","3S1L4CQSFXRWQOWP2XFUSMS4AZDFAL","","null","<img src=""img/land4.png"" style=""width:200px; border:14px solid green;"">","null","","","","","","","","","",""
"","image-keyboard-response","218","239696","0.0-218.0","3TMFV4NEP90M46NZMQAIP24XMJXW8O","ADAL2H41ZBWAK","3S1L4CQSFXRWQOWP2XFUSMS4AZDFAL","","689.7999999970198","img/land3.png","76","690.8000000044703","3","1","2","2","1,0.5,0.5,0.5,1,0.5,0.5,0.5,1","1,0.5,0.5,0.5,1,0.5,0.5,0.5,1","1","",""
"","html-keyboard-response","219","240007","0.0-219.0","3TMFV4NEP90M46NZMQAIP24XMJXW8O","ADAL2H41ZBWAK","3S1L4CQSFXRWQOWP2XFUSMS4AZDFAL","","null","<img src=""img/land3.png"" style=""width:200px; border:14px solid green;"">","null","","","","","","","","","",""
"","image-keyboard-response","220","240745","0.0-220.0","3TMFV4NEP90M46NZMQAIP24XMJXW8O","ADAL2H41ZBWAK","3S1L4CQSFXRWQOWP2XFUSMS4AZDFAL","","736.7000000029802","img/land4.png","74","738.0999999940395","1","1","1","2","1,0.5,0.5,0.5,1,0.5,0.5,0.5,1","1,0.5,0.5,0.5,1,0.5,0.5,0.5,1","1","",""
"","html-keyboard-response","221","241053","0.0-221.0","3TMFV4NEP90M46NZMQAIP24XMJXW8O","ADAL2H41ZBWAK","3S1L4CQSFXRWQOWP2XFUSMS4AZDFAL","","null","<img src=""img/land4.png"" style=""width:200px; border:14px solid green;"">","null","","","","","","","","","",""
"","image-keyboard-response","222","241448","0.0-222.0","3TMFV4NEP90M46NZMQAIP24XMJXW8O","ADAL2H41ZBWAK","3S1L4CQSFXRWQOWP2XFUSMS4AZDFAL","","393.80000000447035","img/land4.png","74","394.90000000596046","1","1","1","2","1,0.5,0.5,0.5,1,0.5,0.5,0.5,1","1,0.5,0.5,0.5,1,0.5,0.5,0.5,1","1","",""
"","html-keyboard-response","223","241758","0.0-223.0","3TMFV4NEP90M46NZMQAIP24XMJXW8O","ADAL2H41ZBWAK","3S1L4CQSFXRWQOWP2XFUSMS4AZDFAL","","null","<img src=""img/land4.png"" style=""width:200px; border:14px solid green;"">","null","","","","","","","","","",""
"","image-keyboard-response","224","242105","0.0-224.0","3TMFV4NEP90M46NZMQAIP24XMJXW8O","ADAL2H41ZBWAK","3S1L4CQSFXRWQOWP2XFUSMS4AZDFAL","","345.1000000014901","img/land4.png","74","346.5","1","1","1","2","1,0.5,0.5,0.5,1,0.5,0.5,0.5,1","1,0.5,0.5,0.5,1,0.5,0.5,0.5,1","1","",""
"","html-keyboard-response","225","242414","0.0-225.0","3TMFV4NEP90M46NZMQAIP24XMJXW8O","ADAL2H41ZBWAK","3S1L4CQSFXRWQOWP2XFUSMS4AZDFAL","","null","<img src=""img/land4.png"" style=""width:200px; border:14px solid green;"">","null","","","","","","","","","",""
"","image-keyboard-response","226","243288","0.0-226.0","3TMFV4NEP90M46NZMQAIP24XMJXW8O","ADAL2H41ZBWAK","3S1L4CQSFXRWQOWP2XFUSMS4AZDFAL","","873","img/land2.png","75","874.3999999985099","2","1","3","2","1,0.5,0.5,0.5,1,0.5,0.5,0.5,1","1,0.5,0.5,0.5,1,0.5,0.5,0.5,1","1","",""
"","html-keyboard-response","227","243597","0.0-227.0","3TMFV4NEP90M46NZMQAIP24XMJXW8O","ADAL2H41ZBWAK","3S1L4CQSFXRWQOWP2XFUSMS4AZDFAL","","null","<img src=""img/land2.png"" style=""width:200px; border:14px solid green;"">","null","","","","","","","","","",""
"","image-keyboard-response","228","244400","0.0-228.0","3TMFV4NEP90M46NZMQAIP24XMJXW8O","ADAL2H41ZBWAK","3S1L4CQSFXRWQOWP2XFUSMS4AZDFAL","","801.1999999955297","img/land4.png","74","802.5","1","1","1","2","1,0.5,0.5,0.5,1,0.5,0.5,0.5,1","1,0.5,0.5,0.5,1,0.5,0.5,0.5,1","1","",""
"","html-keyboard-response","229","244701","0.0-229.0","3TMFV4NEP90M46NZMQAIP24XMJXW8O","ADAL2H41ZBWAK","3S1L4CQSFXRWQOWP2XFUSMS4AZDFAL","","null","<img src=""img/land4.png"" style=""width:200px; border:14px solid green;"">","null","","","","","","","","","",""
"","image-keyboard-response","230","244952","0.0-230.0","3TMFV4NEP90M46NZMQAIP24XMJXW8O","ADAL2H41ZBWAK","3S1L4CQSFXRWQOWP2XFUSMS4AZDFAL","","249.60000000149012","img/land4.png","74","251","1","1","1","2","1,0.5,0.5,0.5,1,0.5,0.5,0.5,1","1,0.5,0.5,0.5,1,0.5,0.5,0.5,1","1","",""
"","html-keyboard-response","231","245261","0.0-231.0","3TMFV4NEP90M46NZMQAIP24XMJXW8O","ADAL2H41ZBWAK","3S1L4CQSFXRWQOWP2XFUSMS4AZDFAL","","null","<img src=""img/land4.png"" style=""width:200px; border:14px solid green;"">","null","","","","","","","","","",""
"","image-keyboard-response","232","245665","0.0-232.0","3TMFV4NEP90M46NZMQAIP24XMJXW8O","ADAL2H41ZBWAK","3S1L4CQSFXRWQOWP2XFUSMS4AZDFAL","","402.6000000014901","img/land4.png","74","404.1000000014901","1","1","1","2","1,0.5,0.5,0.5,1,0.5,0.5,0.5,1","1,0.5,0.5,0.5,1,0.5,0.5,0.5,1","1","",""
"","html-keyboard-response","233","245973","0.0-233.0","3TMFV4NEP90M46NZMQAIP24XMJXW8O","ADAL2H41ZBWAK","3S1L4CQSFXRWQOWP2XFUSMS4AZDFAL","","null","<img src=""img/land4.png"" style=""width:200px; border:14px solid green;"">","null","","","","","","","","","",""
"","image-keyboard-response","234","246560","0.0-234.0","3TMFV4NEP90M46NZMQAIP24XMJXW8O","ADAL2H41ZBWAK","3S1L4CQSFXRWQOWP2XFUSMS4AZDFAL","","585.2000000029802","img/land2.png","76","587","3","1","3","2","1,0.5,0.5,0.5,1,0.5,0.5,0.5,1","1,0.5,0.5,0.5,1,0.5,0.5,0.5,1","1","",""
"","html-keyboard-response","235","246869","0.0-235.0","3TMFV4NEP90M46NZMQAIP24XMJXW8O","ADAL2H41ZBWAK","3S1L4CQSFXRWQOWP2XFUSMS4AZDFAL","","null","<img src=""img/land2.png"" style=""width:200px; border:14px solid green;"">","null","","","","","","","","","",""
"","image-keyboard-response","236","247560","0.0-236.0","3TMFV4NEP90M46NZMQAIP24XMJXW8O","ADAL2H41ZBWAK","3S1L4CQSFXRWQOWP2XFUSMS4AZDFAL","","688.4000000059605","img/land4.png","74","690.8999999985099","1","1","1","2","1,0.5,0.5,0.5,1,0.5,0.5,0.5,1","1,0.5,0.5,0.5,1,0.5,0.5,0.5,1","1","",""
"","html-keyboard-response","237","247869","0.0-237.0","3TMFV4NEP90M46NZMQAIP24XMJXW8O","ADAL2H41ZBWAK","3S1L4CQSFXRWQOWP2XFUSMS4AZDFAL","","null","<img src=""img/land4.png"" style=""width:200px; border:14px solid green;"">","null","","","","","","","","","",""
"","image-keyboard-response","238","248136","0.0-238.0","3TMFV4NEP90M46NZMQAIP24XMJXW8O","ADAL2H41ZBWAK","3S1L4CQSFXRWQOWP2XFUSMS4AZDFAL","","264.79999999701977","img/land4.png","74","266.6000000014901","1","1","1","2","1,0.5,0.5,0.5,1,0.5,0.5,0.5,1","1,0.5,0.5,0.5,1,0.5,0.5,0.5,1","1","",""
"","html-keyboard-response","239","248445","0.0-239.0","3TMFV4NEP90M46NZMQAIP24XMJXW8O","ADAL2H41ZBWAK","3S1L4CQSFXRWQOWP2XFUSMS4AZDFAL","","null","<img src=""img/land4.png"" style=""width:200px; border:14px solid green;"">","null","","","","","","","","","",""
"","image-keyboard-response","240","249105","0.0-240.0","3TMFV4NEP90M46NZMQAIP24XMJXW8O","ADAL2H41ZBWAK","3S1L4CQSFXRWQOWP2XFUSMS4AZDFAL","","658","img/land2.png","76","659.5","3","1","3","2","1,0.5,0.5,0.5,1,0.5,0.5,0.5,1","1,0.5,0.5,0.5,1,0.5,0.5,0.5,1","1","",""
"","html-keyboard-response","241","249413","0.0-241.0","3TMFV4NEP90M46NZMQAIP24XMJXW8O","ADAL2H41ZBWAK","3S1L4CQSFXRWQOWP2XFUSMS4AZDFAL","","null","<img src=""img/land2.png"" style=""width:200px; border:14px solid green;"">","null","","","","","","","","","",""
"","image-keyboard-response","242","250513","0.0-242.0","3TMFV4NEP90M46NZMQAIP24XMJXW8O","ADAL2H41ZBWAK","3S1L4CQSFXRWQOWP2XFUSMS4AZDFAL","","1098.1999999955297","img/land3.png","75","1099.7000000029802","2","1","2","2","1,0.5,0.5,0.5,1,0.5,0.5,0.5,1","1,0.5,0.5,0.5,1,0.5,0.5,0.5,1","1","",""
"","html-keyboard-response","243","250821","0.0-243.0","3TMFV4NEP90M46NZMQAIP24XMJXW8O","ADAL2H41ZBWAK","3S1L4CQSFXRWQOWP2XFUSMS4AZDFAL","","null","<img src=""img/land3.png"" style=""width:200px; border:14px solid green;"">","null","","","","","","","","","",""
"","image-keyboard-response","244","251873","0.0-244.0","3TMFV4NEP90M46NZMQAIP24XMJXW8O","ADAL2H41ZBWAK","3S1L4CQSFXRWQOWP2XFUSMS4AZDFAL","","1051","img/land2.png","76","1052.3000000044703","3","1","3","2","1,0.5,0.5,0.5,1,0.5,0.5,0.5,1","1,0.5,0.5,0.5,1,0.5,0.5,0.5,1","1","",""
"","html-keyboard-response","245","252181","0.0-245.0","3TMFV4NEP90M46NZMQAIP24XMJXW8O","ADAL2H41ZBWAK","3S1L4CQSFXRWQOWP2XFUSMS4AZDFAL","","null","<img src=""img/land2.png"" style=""width:200px; border:14px solid green;"">","null","","","","","","","","","",""
"","image-keyboard-response","246","253568","0.0-246.0","3TMFV4NEP90M46NZMQAIP24XMJXW8O","ADAL2H41ZBWAK","3S1L4CQSFXRWQOWP2XFUSMS4AZDFAL","","1385.1000000014901","img/land3.png","75","1386.2999999970198","2","1","2","2","1,0.5,0.5,0.5,1,0.5,0.5,0.5,1","1,0.5,0.5,0.5,1,0.5,0.5,0.5,1","1","",""
"","html-keyboard-response","247","253877","0.0-247.0","3TMFV4NEP90M46NZMQAIP24XMJXW8O","ADAL2H41ZBWAK","3S1L4CQSFXRWQOWP2XFUSMS4AZDFAL","","null","<img src=""img/land3.png"" style=""width:200px; border:14px solid green;"">","null","","","","","","","","","",""
"","image-keyboard-response","248","254264","0.0-248.0","3TMFV4NEP90M46NZMQAIP24XMJXW8O","ADAL2H41ZBWAK","3S1L4CQSFXRWQOWP2XFUSMS4AZDFAL","","384.8999999985099","img/land3.png","75","386.3999999985099","2","1","2","2","1,0.5,0.5,0.5,1,0.5,0.5,0.5,1","1,0.5,0.5,0.5,1,0.5,0.5,0.5,1","1","",""
"","html-keyboard-response","249","254573","0.0-249.0","3TMFV4NEP90M46NZMQAIP24XMJXW8O","ADAL2H41ZBWAK","3S1L4CQSFXRWQOWP2XFUSMS4AZDFAL","","null","<img src=""img/land3.png"" style=""width:200px; border:14px solid green;"">","null","","","","","","","","","",""
"","image-keyboard-response","250","255224","0.0-250.0","3TMFV4NEP90M46NZMQAIP24XMJXW8O","ADAL2H41ZBWAK","3S1L4CQSFXRWQOWP2XFUSMS4AZDFAL","","649","img/land4.png","74","650.6000000014901","1","1","1","2","1,0.5,0.5,0.5,1,0.5,0.5,0.5,1","1,0.5,0.5,0.5,1,0.5,0.5,0.5,1","1","",""
"","html-keyboard-response","251","255533","0.0-251.0","3TMFV4NEP90M46NZMQAIP24XMJXW8O","ADAL2H41ZBWAK","3S1L4CQSFXRWQOWP2XFUSMS4AZDFAL","","null","<img src=""img/land4.png"" style=""width:200px; border:14px solid green;"">","null","","","","","","","","","",""
"","image-keyboard-response","252","256415","0.0-252.0","3TMFV4NEP90M46NZMQAIP24XMJXW8O","ADAL2H41ZBWAK","3S1L4CQSFXRWQOWP2XFUSMS4AZDFAL","","881.1000000014901","img/land3.png","75","882.1000000014901","2","1","2","2","1,0.5,0.5,0.5,1,0.5,0.5,0.5,1","1,0.5,0.5,0.5,1,0.5,0.5,0.5,1","1","",""
"","html-keyboard-response","253","256717","0.0-253.0","3TMFV4NEP90M46NZMQAIP24XMJXW8O","ADAL2H41ZBWAK","3S1L4CQSFXRWQOWP2XFUSMS4AZDFAL","","null","<img src=""img/land3.png"" style=""width:200px; border:14px solid green;"">","null","","","","","","","","","",""
"","image-keyboard-response","254","258697","0.0-254.0","3TMFV4NEP90M46NZMQAIP24XMJXW8O","ADAL2H41ZBWAK","3S1L4CQSFXRWQOWP2XFUSMS4AZDFAL","","1977.6000000014901","img/land4.png","76","1979.1000000014901","3","1","1","2","1,0.5,0.5,0.5,1,0.5,0.5,0.5,1","1,0.5,0.5,0.5,1,0.5,0.5,0.5,1","1","",""
"","html-keyboard-response","255","259005","0.0-255.0","3TMFV4NEP90M46NZMQAIP24XMJXW8O","ADAL2H41ZBWAK","3S1L4CQSFXRWQOWP2XFUSMS4AZDFAL","","null","<img src=""img/land4.png"" style=""width:200px; border:14px solid green;"">","null","","","","","","","","","",""
"","image-keyboard-response","256","261013","0.0-256.0","3TMFV4NEP90M46NZMQAIP24XMJXW8O","ADAL2H41ZBWAK","3S1L4CQSFXRWQOWP2XFUSMS4AZDFAL","","","img/land2.png","","2007.9000000059605","-1","0","3","2","1,0.5,0.5,0.5,1,0.5,0.5,0.5,1","1,0.5,0.5,0.5,1,0.5,0.5,0.5,1","1","",""
"","html-keyboard-response","257","261317","0.0-257.0","3TMFV4NEP90M46NZMQAIP24XMJXW8O","ADAL2H41ZBWAK","3S1L4CQSFXRWQOWP2XFUSMS4AZDFAL","","null","<img src=""img/land2.png"" style=""width:200px;border:14px solid red;"">","null","","","","","","","","","",""
"","image-keyboard-response","258","261351","0.0-258.0","3TMFV4NEP90M46NZMQAIP24XMJXW8O","ADAL2H41ZBWAK","3S1L4CQSFXRWQOWP2XFUSMS4AZDFAL","","32.19999999552965","img/land4.png","76","33.399999998509884","3","1","1","2","1,0.5,0.5,0.5,1,0.5,0.5,0.5,1","1,0.5,0.5,0.5,1,0.5,0.5,0.5,1","1","",""
"","html-keyboard-response","259","261653","0.0-259.0","3TMFV4NEP90M46NZMQAIP24XMJXW8O","ADAL2H41ZBWAK","3S1L4CQSFXRWQOWP2XFUSMS4AZDFAL","","null","<img src=""img/land4.png"" style=""width:200px; border:14px solid green;"">","null","","","","","","","","","",""
"","image-keyboard-response","260","262576","0.0-260.0","3TMFV4NEP90M46NZMQAIP24XMJXW8O","ADAL2H41ZBWAK","3S1L4CQSFXRWQOWP2XFUSMS4AZDFAL","","920.8999999985099","img/land4.png","74","922.5","1","1","1","2","1,0.5,0.5,0.5,1,0.5,0.5,0.5,1","1,0.5,0.5,0.5,1,0.5,0.5,0.5,1","1","",""
"","html-keyboard-response","261","262886","0.0-261.0","3TMFV4NEP90M46NZMQAIP24XMJXW8O","ADAL2H41ZBWAK","3S1L4CQSFXRWQOWP2XFUSMS4AZDFAL","","null","<img src=""img/land4.png"" style=""width:200px; border:14px solid green;"">","null","","","","","","","","","",""
"","image-keyboard-response","262","263744","0.0-262.0","3TMFV4NEP90M46NZMQAIP24XMJXW8O","ADAL2H41ZBWAK","3S1L4CQSFXRWQOWP2XFUSMS4AZDFAL","","856.8000000044703","img/land3.png","76","858","3","0","2","2","1,0.5,0.5,0.5,1,0.5,0.5,0.5,1","1,0.5,0.5,0.5,1,0.5,0.5,0.5,1","1","",""
"","html-keyboard-response","263","264054","0.0-263.0","3TMFV4NEP90M46NZMQAIP24XMJXW8O","ADAL2H41ZBWAK","3S1L4CQSFXRWQOWP2XFUSMS4AZDFAL","","null","<img src=""img/land3.png"" style=""width:200px;border:14px solid red;"">","null","","","","","","","","","",""
"","image-keyboard-response","264","264711","0.0-264.0","3TMFV4NEP90M46NZMQAIP24XMJXW8O","ADAL2H41ZBWAK","3S1L4CQSFXRWQOWP2XFUSMS4AZDFAL","","655.8000000044703","img/land3.png","75","657.2000000029802","2","1","2","2","1,0.5,0.5,0.5,1,0.5,0.5,0.5,1","1,0.5,0.5,0.5,1,0.5,0.5,0.5,1","1","",""
"","html-keyboard-response","265","265021","0.0-265.0","3TMFV4NEP90M46NZMQAIP24XMJXW8O","ADAL2H41ZBWAK","3S1L4CQSFXRWQOWP2XFUSMS4AZDFAL","","null","<img src=""img/land3.png"" style=""width:200px; border:14px solid green;"">","null","","","","","","","","","",""
"","image-keyboard-response","266","265704","0.0-266.0","3TMFV4NEP90M46NZMQAIP24XMJXW8O","ADAL2H41ZBWAK","3S1L4CQSFXRWQOWP2XFUSMS4AZDFAL","","681.7000000029802","img/land2.png","76","682.7000000029802","3","1","3","2","1,0.5,0.5,0.5,1,0.5,0.5,0.5,1","1,0.5,0.5,0.5,1,0.5,0.5,0.5,1","1","",""
"","html-keyboard-response","267","266013","0.0-267.0","3TMFV4NEP90M46NZMQAIP24XMJXW8O","ADAL2H41ZBWAK","3S1L4CQSFXRWQOWP2XFUSMS4AZDFAL","","null","<img src=""img/land2.png"" style=""width:200px; border:14px solid green;"">","null","","","","","","","","","",""
"","image-keyboard-response","268","266984","0.0-268.0","3TMFV4NEP90M46NZMQAIP24XMJXW8O","ADAL2H41ZBWAK","3S1L4CQSFXRWQOWP2XFUSMS4AZDFAL","","969.2000000029802","img/land4.png","74","970.5","1","1","1","2","1,0.5,0.5,0.5,1,0.5,0.5,0.5,1","1,0.5,0.5,0.5,1,0.5,0.5,0.5,1","1","",""
"","html-keyboard-response","269","267293","0.0-269.0","3TMFV4NEP90M46NZMQAIP24XMJXW8O","ADAL2H41ZBWAK","3S1L4CQSFXRWQOWP2XFUSMS4AZDFAL","","null","<img src=""img/land4.png"" style=""width:200px; border:14px solid green;"">","null","","","","","","","","","",""
"","image-keyboard-response","270","268058","0.0-270.0","3TMFV4NEP90M46NZMQAIP24XMJXW8O","ADAL2H41ZBWAK","3S1L4CQSFXRWQOWP2XFUSMS4AZDFAL","","763.1999999955297","img/land2.png","76","764.4000000059605","3","1","3","2","1,0.5,0.5,0.5,1,0.5,0.5,0.5,1","1,0.5,0.5,0.5,1,0.5,0.5,0.5,1","1","",""
"","html-keyboard-response","271","268365","0.0-271.0","3TMFV4NEP90M46NZMQAIP24XMJXW8O","ADAL2H41ZBWAK","3S1L4CQSFXRWQOWP2XFUSMS4AZDFAL","","null","<img src=""img/land2.png"" style=""width:200px; border:14px solid green;"">","null","","","","","","","","","",""
"","image-keyboard-response","272","269175","0.0-272.0","3TMFV4NEP90M46NZMQAIP24XMJXW8O","ADAL2H41ZBWAK","3S1L4CQSFXRWQOWP2XFUSMS4AZDFAL","","807.8999999985099","img/land4.png","75","809.3999999985099","2","1","1","2","1,0.5,0.5,0.5,1,0.5,0.5,0.5,1","1,0.5,0.5,0.5,1,0.5,0.5,0.5,1","1","",""
"","html-keyboard-response","273","269485","0.0-273.0","3TMFV4NEP90M46NZMQAIP24XMJXW8O","ADAL2H41ZBWAK","3S1L4CQSFXRWQOWP2XFUSMS4AZDFAL","","null","<img src=""img/land4.png"" style=""width:200px; border:14px solid green;"">","null","","","","","","","","","",""
"","image-keyboard-response","274","271110","0.0-274.0","3TMFV4NEP90M46NZMQAIP24XMJXW8O","ADAL2H41ZBWAK","3S1L4CQSFXRWQOWP2XFUSMS4AZDFAL","","1623.5","img/land2.png","74","1624.7000000029802","1","0","3","2","1,0.5,0.5,0.5,1,0.5,0.5,0.5,1","1,0.5,0.5,0.5,1,0.5,0.5,0.5,1","1","",""
"","html-keyboard-response","275","271413","0.0-275.0","3TMFV4NEP90M46NZMQAIP24XMJXW8O","ADAL2H41ZBWAK","3S1L4CQSFXRWQOWP2XFUSMS4AZDFAL","","null","<img src=""img/land2.png"" style=""width:200px;border:14px solid red;"">","null","","","","","","","","","",""
"","image-keyboard-response","276","272447","0.0-276.0","3TMFV4NEP90M46NZMQAIP24XMJXW8O","ADAL2H41ZBWAK","3S1L4CQSFXRWQOWP2XFUSMS4AZDFAL","","1031.8999999985099","img/land4.png","74","1033.2999999970198","1","1","1","2","1,0.5,0.5,0.5,1,0.5,0.5,0.5,1","1,0.5,0.5,0.5,1,0.5,0.5,0.5,1","1","",""
"","html-keyboard-response","277","272758","0.0-277.0","3TMFV4NEP90M46NZMQAIP24XMJXW8O","ADAL2H41ZBWAK","3S1L4CQSFXRWQOWP2XFUSMS4AZDFAL","","null","<img src=""img/land4.png"" style=""width:200px; border:14px solid green;"">","null","","","","","","","","","",""
"","image-keyboard-response","278","273127","0.0-278.0","3TMFV4NEP90M46NZMQAIP24XMJXW8O","ADAL2H41ZBWAK","3S1L4CQSFXRWQOWP2XFUSMS4AZDFAL","","368","img/land4.png","74","369.5","1","1","1","2","1,0.5,0.5,0.5,1,0.5,0.5,0.5,1","1,0.5,0.5,0.5,1,0.5,0.5,0.5,1","1","",""
"","html-keyboard-response","279","273438","0.0-279.0","3TMFV4NEP90M46NZMQAIP24XMJXW8O","ADAL2H41ZBWAK","3S1L4CQSFXRWQOWP2XFUSMS4AZDFAL","","null","<img src=""img/land4.png"" style=""width:200px; border:14px solid green;"">","null","","","","","","","","","",""
"","image-keyboard-response","280","273759","0.0-280.0","3TMFV4NEP90M46NZMQAIP24XMJXW8O","ADAL2H41ZBWAK","3S1L4CQSFXRWQOWP2XFUSMS4AZDFAL","","319.6000000014901","img/land4.png","74","321.1000000014901","1","1","1","2","1,0.5,0.5,0.5,1,0.5,0.5,0.5,1","1,0.5,0.5,0.5,1,0.5,0.5,0.5,1","1","",""
"","html-keyboard-response","281","274062","0.0-281.0","3TMFV4NEP90M46NZMQAIP24XMJXW8O","ADAL2H41ZBWAK","3S1L4CQSFXRWQOWP2XFUSMS4AZDFAL","","null","<img src=""img/land4.png"" style=""width:200px; border:14px solid green;"">","null","","","","","","","","","",""
"","image-keyboard-response","282","274367","0.0-282.0","3TMFV4NEP90M46NZMQAIP24XMJXW8O","ADAL2H41ZBWAK","3S1L4CQSFXRWQOWP2XFUSMS4AZDFAL","","303.70000000298023","img/land4.png","74","305.29999999701977","1","1","1","2","1,0.5,0.5,0.5,1,0.5,0.5,0.5,1","1,0.5,0.5,0.5,1,0.5,0.5,0.5,1","1","",""
"","html-keyboard-response","283","274678","0.0-283.0","3TMFV4NEP90M46NZMQAIP24XMJXW8O","ADAL2H41ZBWAK","3S1L4CQSFXRWQOWP2XFUSMS4AZDFAL","","null","<img src=""img/land4.png"" style=""width:200px; border:14px solid green;"">","null","","","","","","","","","",""
"","image-keyboard-response","284","275671","0.0-284.0","3TMFV4NEP90M46NZMQAIP24XMJXW8O","ADAL2H41ZBWAK","3S1L4CQSFXRWQOWP2XFUSMS4AZDFAL","","991.6000000014901","img/land3.png","76","993.1000000014901","3","0","2","2","1,0.5,0.5,0.5,1,0.5,0.5,0.5,1","1,0.5,0.5,0.5,1,0.5,0.5,0.5,1","1","",""
"","html-keyboard-response","285","275974","0.0-285.0","3TMFV4NEP90M46NZMQAIP24XMJXW8O","ADAL2H41ZBWAK","3S1L4CQSFXRWQOWP2XFUSMS4AZDFAL","","null","<img src=""img/land3.png"" style=""width:200px;border:14px solid red;"">","null","","","","","","","","","",""
"","image-keyboard-response","286","276863","0.0-286.0","3TMFV4NEP90M46NZMQAIP24XMJXW8O","ADAL2H41ZBWAK","3S1L4CQSFXRWQOWP2XFUSMS4AZDFAL","","888.1000000014901","img/land4.png","74","889.3999999985099","1","1","1","2","1,0.5,0.5,0.5,1,0.5,0.5,0.5,1","1,0.5,0.5,0.5,1,0.5,0.5,0.5,1","1","",""
"","html-keyboard-response","287","277166","0.0-287.0","3TMFV4NEP90M46NZMQAIP24XMJXW8O","ADAL2H41ZBWAK","3S1L4CQSFXRWQOWP2XFUSMS4AZDFAL","","null","<img src=""img/land4.png"" style=""width:200px; border:14px solid green;"">","null","","","","","","","","","",""
"","image-keyboard-response","288","277215","0.0-288.0","3TMFV4NEP90M46NZMQAIP24XMJXW8O","ADAL2H41ZBWAK","3S1L4CQSFXRWQOWP2XFUSMS4AZDFAL","","47.70000000298023","img/land4.png","74","49","1","1","1","2","1,0.5,0.5,0.5,1,0.5,0.5,0.5,1","1,0.5,0.5,0.5,1,0.5,0.5,0.5,1","1","",""
"","html-keyboard-response","289","277518","0.0-289.0","3TMFV4NEP90M46NZMQAIP24XMJXW8O","ADAL2H41ZBWAK","3S1L4CQSFXRWQOWP2XFUSMS4AZDFAL","","null","<img src=""img/land4.png"" style=""width:200px; border:14px solid green;"">","null","","","","","","","","","",""
"","image-keyboard-response","290","277823","0.0-290.0","3TMFV4NEP90M46NZMQAIP24XMJXW8O","ADAL2H41ZBWAK","3S1L4CQSFXRWQOWP2XFUSMS4AZDFAL","","303.3999999985099","img/land4.png","74","304.79999999701977","1","1","1","2","1,0.5,0.5,0.5,1,0.5,0.5,0.5,1","1,0.5,0.5,0.5,1,0.5,0.5,0.5,1","1","",""
"","html-keyboard-response","291","278126","0.0-291.0","3TMFV4NEP90M46NZMQAIP24XMJXW8O","ADAL2H41ZBWAK","3S1L4CQSFXRWQOWP2XFUSMS4AZDFAL","","null","<img src=""img/land4.png"" style=""width:200px; border:14px solid green;"">","null","","","","","","","","","",""
"","image-keyboard-response","292","278687","0.0-292.0","3TMFV4NEP90M46NZMQAIP24XMJXW8O","ADAL2H41ZBWAK","3S1L4CQSFXRWQOWP2XFUSMS4AZDFAL","","559.2999999970198","img/land3.png","75","561","2","1","2","2","1,0.5,0.5,0.5,1,0.5,0.5,0.5,1","1,0.5,0.5,0.5,1,0.5,0.5,0.5,1","1","",""
"","html-keyboard-response","293","278989","0.0-293.0","3TMFV4NEP90M46NZMQAIP24XMJXW8O","ADAL2H41ZBWAK","3S1L4CQSFXRWQOWP2XFUSMS4AZDFAL","","null","<img src=""img/land3.png"" style=""width:200px; border:14px solid green;"">","null","","","","","","","","","",""
"","image-keyboard-response","294","279863","0.0-294.0","3TMFV4NEP90M46NZMQAIP24XMJXW8O","ADAL2H41ZBWAK","3S1L4CQSFXRWQOWP2XFUSMS4AZDFAL","","871.2000000029802","img/land4.png","74","873.2999999970198","1","1","1","2","1,0.5,0.5,0.5,1,0.5,0.5,0.5,1","1,0.5,0.5,0.5,1,0.5,0.5,0.5,1","1","",""
"","html-keyboard-response","295","280165","0.0-295.0","3TMFV4NEP90M46NZMQAIP24XMJXW8O","ADAL2H41ZBWAK","3S1L4CQSFXRWQOWP2XFUSMS4AZDFAL","","null","<img src=""img/land4.png"" style=""width:200px; border:14px solid green;"">","null","","","","","","","","","",""
"","image-keyboard-response","296","280335","0.0-296.0","3TMFV4NEP90M46NZMQAIP24XMJXW8O","ADAL2H41ZBWAK","3S1L4CQSFXRWQOWP2XFUSMS4AZDFAL","","168.40000000596046","img/land2.png","74","170.10000000149012","1","1","3","2","1,0.5,0.5,0.5,1,0.5,0.5,0.5,1","1,0.5,0.5,0.5,1,0.5,0.5,0.5,1","1","",""
"","html-keyboard-response","297","280645","0.0-297.0","3TMFV4NEP90M46NZMQAIP24XMJXW8O","ADAL2H41ZBWAK","3S1L4CQSFXRWQOWP2XFUSMS4AZDFAL","","null","<img src=""img/land2.png"" style=""width:200px; border:14px solid green;"">","null","","","","","","","","","",""
"","image-keyboard-response","298","281519","0.0-298.0","3TMFV4NEP90M46NZMQAIP24XMJXW8O","ADAL2H41ZBWAK","3S1L4CQSFXRWQOWP2XFUSMS4AZDFAL","","872","img/land4.png","74","873.5","1","1","1","2","1,0.5,0.5,0.5,1,0.5,0.5,0.5,1","1,0.5,0.5,0.5,1,0.5,0.5,0.5,1","1","",""
"","html-keyboard-response","299","281822","0.0-299.0","3TMFV4NEP90M46NZMQAIP24XMJXW8O","ADAL2H41ZBWAK","3S1L4CQSFXRWQOWP2XFUSMS4AZDFAL","","null","<img src=""img/land4.png"" style=""width:200px; border:14px solid green;"">","null","","","","","","","","","",""
"","image-keyboard-response","300","282215","0.0-300.0","3TMFV4NEP90M46NZMQAIP24XMJXW8O","ADAL2H41ZBWAK","3S1L4CQSFXRWQOWP2XFUSMS4AZDFAL","","391.3999999985099","img/land4.png","74","393","1","1","1","2","1,0.5,0.5,0.5,1,0.5,0.5,0.5,1","1,0.5,0.5,0.5,1,0.5,0.5,0.5,1","1","",""
"","html-keyboard-response","301","282517","0.0-301.0","3TMFV4NEP90M46NZMQAIP24XMJXW8O","ADAL2H41ZBWAK","3S1L4CQSFXRWQOWP2XFUSMS4AZDFAL","","null","<img src=""img/land4.png"" style=""width:200px; border:14px solid green;"">","null","","","","","","","","","",""
"","image-keyboard-response","302","284525","0.0-302.0","3TMFV4NEP90M46NZMQAIP24XMJXW8O","ADAL2H41ZBWAK","3S1L4CQSFXRWQOWP2XFUSMS4AZDFAL","","","img/land5.png","","2007.8000000044703","-1","0","2","1","1,0.5,0.5,0.5,1,0.5,0.5,0.5,1","1,0.5,0.5,0.5,1,0.5,0.5,0.5,1","1","",""
"","html-keyboard-response","303","284829","0.0-303.0","3TMFV4NEP90M46NZMQAIP24XMJXW8O","ADAL2H41ZBWAK","3S1L4CQSFXRWQOWP2XFUSMS4AZDFAL","","null","<img src=""img/land5.png"" style=""width:200px;border:14px solid red;"">","null","","","","","","","","","",""
"","image-keyboard-response","304","286031","0.0-304.0","3TMFV4NEP90M46NZMQAIP24XMJXW8O","ADAL2H41ZBWAK","3S1L4CQSFXRWQOWP2XFUSMS4AZDFAL","","1200.5999999940395","img/land5.png","76","1201.8000000044703","3","0","2","1","1,0.5,0.5,0.5,1,0.5,0.5,0.5,1","1,0.5,0.5,0.5,1,0.5,0.5,0.5,1","1","",""
"","html-keyboard-response","305","286333","0.0-305.0","3TMFV4NEP90M46NZMQAIP24XMJXW8O","ADAL2H41ZBWAK","3S1L4CQSFXRWQOWP2XFUSMS4AZDFAL","","null","<img src=""img/land5.png"" style=""width:200px;border:14px solid red;"">","null","","","","","","","","","",""
"","image-keyboard-response","306","287712","0.0-306.0","3TMFV4NEP90M46NZMQAIP24XMJXW8O","ADAL2H41ZBWAK","3S1L4CQSFXRWQOWP2XFUSMS4AZDFAL","","1377.5","img/land6.png","74","1379","1","1","1","1","1,0.5,0.5,0.5,1,0.5,0.5,0.5,1","1,0.5,0.5,0.5,1,0.5,0.5,0.5,1","1","",""
"","html-keyboard-response","307","288025","0.0-307.0","3TMFV4NEP90M46NZMQAIP24XMJXW8O","ADAL2H41ZBWAK","3S1L4CQSFXRWQOWP2XFUSMS4AZDFAL","","null","<img src=""img/land6.png"" style=""width:200px; border:14px solid green;"">","null","","","","","","","","","",""
"","image-keyboard-response","308","289223","0.0-308.0","3TMFV4NEP90M46NZMQAIP24XMJXW8O","ADAL2H41ZBWAK","3S1L4CQSFXRWQOWP2XFUSMS4AZDFAL","","1196","img/land5.png","75","1197.2000000029802","2","1","2","1","1,0.5,0.5,0.5,1,0.5,0.5,0.5,1","1,0.5,0.5,0.5,1,0.5,0.5,0.5,1","1","",""
"","html-keyboard-response","309","289525","0.0-309.0","3TMFV4NEP90M46NZMQAIP24XMJXW8O","ADAL2H41ZBWAK","3S1L4CQSFXRWQOWP2XFUSMS4AZDFAL","","null","<img src=""img/land5.png"" style=""width:200px; border:14px solid green;"">","null","","","","","","","","","",""
"","image-keyboard-response","310","290262","0.0-310.0","3TMFV4NEP90M46NZMQAIP24XMJXW8O","ADAL2H41ZBWAK","3S1L4CQSFXRWQOWP2XFUSMS4AZDFAL","","735.3000000044703","img/land6.png","74","736.7000000029802","1","1","1","1","1,0.5,0.5,0.5,1,0.5,0.5,0.5,1","1,0.5,0.5,0.5,1,0.5,0.5,0.5,1","1","",""
"","html-keyboard-response","311","290565","0.0-311.0","3TMFV4NEP90M46NZMQAIP24XMJXW8O","ADAL2H41ZBWAK","3S1L4CQSFXRWQOWP2XFUSMS4AZDFAL","","null","<img src=""img/land6.png"" style=""width:200px; border:14px solid green;"">","null","","","","","","","","","",""
"","image-keyboard-response","312","291398","0.0-312.0","3TMFV4NEP90M46NZMQAIP24XMJXW8O","ADAL2H41ZBWAK","3S1L4CQSFXRWQOWP2XFUSMS4AZDFAL","","831.5","img/land5.png","75","833","2","1","2","1","1,0.5,0.5,0.5,1,0.5,0.5,0.5,1","1,0.5,0.5,0.5,1,0.5,0.5,0.5,1","1","",""
"","html-keyboard-response","313","291701","0.0-313.0","3TMFV4NEP90M46NZMQAIP24XMJXW8O","ADAL2H41ZBWAK","3S1L4CQSFXRWQOWP2XFUSMS4AZDFAL","","null","<img src=""img/land5.png"" style=""width:200px; border:14px solid green;"">","null","","","","","","","","","",""
"","image-keyboard-response","314","292222","0.0-314.0","3TMFV4NEP90M46NZMQAIP24XMJXW8O","ADAL2H41ZBWAK","3S1L4CQSFXRWQOWP2XFUSMS4AZDFAL","","519.7000000029802","img/land5.png","75","521.6000000014901","2","1","2","1","1,0.5,0.5,0.5,1,0.5,0.5,0.5,1","1,0.5,0.5,0.5,1,0.5,0.5,0.5,1","1","",""
"","html-keyboard-response","315","292525","0.0-315.0","3TMFV4NEP90M46NZMQAIP24XMJXW8O","ADAL2H41ZBWAK","3S1L4CQSFXRWQOWP2XFUSMS4AZDFAL","","null","<img src=""img/land5.png"" style=""width:200px; border:14px solid green;"">","null","","","","","","","","","",""
"","image-keyboard-response","316","293518","0.0-316.0","3TMFV4NEP90M46NZMQAIP24XMJXW8O","ADAL2H41ZBWAK","3S1L4CQSFXRWQOWP2XFUSMS4AZDFAL","","991.6000000014901","img/land1.png","76","993.1000000014901","3","1","3","1","1,0.5,0.5,0.5,1,0.5,0.5,0.5,1","1,0.5,0.5,0.5,1,0.5,0.5,0.5,1","1","",""
"","html-keyboard-response","317","293821","0.0-317.0","3TMFV4NEP90M46NZMQAIP24XMJXW8O","ADAL2H41ZBWAK","3S1L4CQSFXRWQOWP2XFUSMS4AZDFAL","","null","<img src=""img/land1.png"" style=""width:200px; border:14px solid green;"">","null","","","","","","","","","",""
"","image-keyboard-response","318","294991","0.0-318.0","3TMFV4NEP90M46NZMQAIP24XMJXW8O","ADAL2H41ZBWAK","3S1L4CQSFXRWQOWP2XFUSMS4AZDFAL","","1168","img/land6.png","75","1169.3999999985099","2","0","1","1","1,0.5,0.5,0.5,1,0.5,0.5,0.5,1","1,0.5,0.5,0.5,1,0.5,0.5,0.5,1","1","",""
"","html-keyboard-response","319","295293","0.0-319.0","3TMFV4NEP90M46NZMQAIP24XMJXW8O","ADAL2H41ZBWAK","3S1L4CQSFXRWQOWP2XFUSMS4AZDFAL","","null","<img src=""img/land6.png"" style=""width:200px;border:14px solid red;"">","null","","","","","","","","","",""
"","image-keyboard-response","320","296398","0.0-320.0","3TMFV4NEP90M46NZMQAIP24XMJXW8O","ADAL2H41ZBWAK","3S1L4CQSFXRWQOWP2XFUSMS4AZDFAL","","1102.8999999985099","img/land5.png","74","1104.1999999955297","1","1","2","1","1,0.5,0.5,0.5,1,0.5,0.5,0.5,1","1,0.5,0.5,0.5,1,0.5,0.5,0.5,1","1","",""
"","html-keyboard-response","321","296701","0.0-321.0","3TMFV4NEP90M46NZMQAIP24XMJXW8O","ADAL2H41ZBWAK","3S1L4CQSFXRWQOWP2XFUSMS4AZDFAL","","null","<img src=""img/land5.png"" style=""width:200px; border:14px solid green;"">","null","","","","","","","","","",""
"","image-keyboard-response","322","297878","0.0-322.0","3TMFV4NEP90M46NZMQAIP24XMJXW8O","ADAL2H41ZBWAK","3S1L4CQSFXRWQOWP2XFUSMS4AZDFAL","","1175","img/land1.png","76","1176.5","3","1","3","1","1,0.5,0.5,0.5,1,0.5,0.5,0.5,1","1,0.5,0.5,0.5,1,0.5,0.5,0.5,1","1","",""
"","html-keyboard-response","323","298184","0.0-323.0","3TMFV4NEP90M46NZMQAIP24XMJXW8O","ADAL2H41ZBWAK","3S1L4CQSFXRWQOWP2XFUSMS4AZDFAL","","null","<img src=""img/land1.png"" style=""width:200px; border:14px solid green;"">","null","","","","","","","","","",""
"","image-keyboard-response","324","299160","0.0-324.0","3TMFV4NEP90M46NZMQAIP24XMJXW8O","ADAL2H41ZBWAK","3S1L4CQSFXRWQOWP2XFUSMS4AZDFAL","","975.1000000014901","img/land5.png","74","976.5","1","0","2","1","1,0.5,0.5,0.5,1,0.5,0.5,0.5,1","1,0.5,0.5,0.5,1,0.5,0.5,0.5,1","1","",""
"","html-keyboard-response","325","299464","0.0-325.0","3TMFV4NEP90M46NZMQAIP24XMJXW8O","ADAL2H41ZBWAK","3S1L4CQSFXRWQOWP2XFUSMS4AZDFAL","","null","<img src=""img/land5.png"" style=""width:200px;border:14px solid red;"">","null","","","","","","","","","",""
"","image-keyboard-response","326","300257","0.0-326.0","3TMFV4NEP90M46NZMQAIP24XMJXW8O","ADAL2H41ZBWAK","3S1L4CQSFXRWQOWP2XFUSMS4AZDFAL","","791.5","img/land6.png","76","793.2000000029802","3","0","1","1","1,0.5,0.5,0.5,1,0.5,0.5,0.5,1","1,0.5,0.5,0.5,1,0.5,0.5,0.5,1","1","",""
"","html-keyboard-response","327","300560","0.0-327.0","3TMFV4NEP90M46NZMQAIP24XMJXW8O","ADAL2H41ZBWAK","3S1L4CQSFXRWQOWP2XFUSMS4AZDFAL","","null","<img src=""img/land6.png"" style=""width:200px;border:14px solid red;"">","null","","","","","","","","","",""
"","image-keyboard-response","328","301569","0.0-328.0","3TMFV4NEP90M46NZMQAIP24XMJXW8O","ADAL2H41ZBWAK","3S1L4CQSFXRWQOWP2XFUSMS4AZDFAL","","1007.7999999970198","img/land6.png","74","1009.5999999940395","1","1","1","1","1,0.5,0.5,0.5,1,0.5,0.5,0.5,1","1,0.5,0.5,0.5,1,0.5,0.5,0.5,1","1","",""
"","html-keyboard-response","329","301872","0.0-329.0","3TMFV4NEP90M46NZMQAIP24XMJXW8O","ADAL2H41ZBWAK","3S1L4CQSFXRWQOWP2XFUSMS4AZDFAL","","null","<img src=""img/land6.png"" style=""width:200px; border:14px solid green;"">","null","","","","","","","","","",""
"","image-keyboard-response","330","303253","0.0-330.0","3TMFV4NEP90M46NZMQAIP24XMJXW8O","ADAL2H41ZBWAK","3S1L4CQSFXRWQOWP2XFUSMS4AZDFAL","","1378.8999999985099","img/land1.png","75","1381.3000000044703","2","0","3","1","1,0.5,0.5,0.5,1,0.5,0.5,0.5,1","1,0.5,0.5,0.5,1,0.5,0.5,0.5,1","1","",""
"","html-keyboard-response","331","303560","0.0-331.0","3TMFV4NEP90M46NZMQAIP24XMJXW8O","ADAL2H41ZBWAK","3S1L4CQSFXRWQOWP2XFUSMS4AZDFAL","","null","<img src=""img/land1.png"" style=""width:200px;border:14px solid red;"">","null","","","","","","","","","",""
"","image-keyboard-response","332","304062","0.0-332.0","3TMFV4NEP90M46NZMQAIP24XMJXW8O","ADAL2H41ZBWAK","3S1L4CQSFXRWQOWP2XFUSMS4AZDFAL","","500.5","img/land1.png","76","502","3","1","3","1","1,0.5,0.5,0.5,1,0.5,0.5,0.5,1","1,0.5,0.5,0.5,1,0.5,0.5,0.5,1","1","",""
"","html-keyboard-response","333","304368","0.0-333.0","3TMFV4NEP90M46NZMQAIP24XMJXW8O","ADAL2H41ZBWAK","3S1L4CQSFXRWQOWP2XFUSMS4AZDFAL","","null","<img src=""img/land1.png"" style=""width:200px; border:14px solid green;"">","null","","","","","","","","","",""
"","image-keyboard-response","334","304800","0.0-334.0","3TMFV4NEP90M46NZMQAIP24XMJXW8O","ADAL2H41ZBWAK","3S1L4CQSFXRWQOWP2XFUSMS4AZDFAL","","431.19999999552965","img/land1.png","76","432.3999999985099","3","1","3","1","1,0.5,0.5,0.5,1,0.5,0.5,0.5,1","1,0.5,0.5,0.5,1,0.5,0.5,0.5,1","1","",""
"","html-keyboard-response","335","305104","0.0-335.0","3TMFV4NEP90M46NZMQAIP24XMJXW8O","ADAL2H41ZBWAK","3S1L4CQSFXRWQOWP2XFUSMS4AZDFAL","","null","<img src=""img/land1.png"" style=""width:200px; border:14px solid green;"">","null","","","","","","","","","",""
"","image-keyboard-response","336","305817","0.0-336.0","3TMFV4NEP90M46NZMQAIP24XMJXW8O","ADAL2H41ZBWAK","3S1L4CQSFXRWQOWP2XFUSMS4AZDFAL","","711.1000000014901","img/land6.png","74","712.5","1","1","1","1","1,0.5,0.5,0.5,1,0.5,0.5,0.5,1","1,0.5,0.5,0.5,1,0.5,0.5,0.5,1","1","",""
"","html-keyboard-response","337","306120","0.0-337.0","3TMFV4NEP90M46NZMQAIP24XMJXW8O","ADAL2H41ZBWAK","3S1L4CQSFXRWQOWP2XFUSMS4AZDFAL","","null","<img src=""img/land6.png"" style=""width:200px; border:14px solid green;"">","null","","","","","","","","","",""
"","image-keyboard-response","338","306848","0.0-338.0","3TMFV4NEP90M46NZMQAIP24XMJXW8O","ADAL2H41ZBWAK","3S1L4CQSFXRWQOWP2XFUSMS4AZDFAL","","727.1000000014901","img/land1.png","76","728.2999999970198","3","1","3","1","1,0.5,0.5,0.5,1,0.5,0.5,0.5,1","1,0.5,0.5,0.5,1,0.5,0.5,0.5,1","1","",""
"","html-keyboard-response","339","307152","0.0-339.0","3TMFV4NEP90M46NZMQAIP24XMJXW8O","ADAL2H41ZBWAK","3S1L4CQSFXRWQOWP2XFUSMS4AZDFAL","","null","<img src=""img/land1.png"" style=""width:200px; border:14px solid green;"">","null","","","","","","","","","",""
"","image-keyboard-response","340","307528","0.0-340.0","3TMFV4NEP90M46NZMQAIP24XMJXW8O","ADAL2H41ZBWAK","3S1L4CQSFXRWQOWP2XFUSMS4AZDFAL","","374.3999999985099","img/land1.png","76","375.8999999985099","3","1","3","1","1,0.5,0.5,0.5,1,0.5,0.5,0.5,1","1,0.5,0.5,0.5,1,0.5,0.5,0.5,1","1","",""
"","html-keyboard-response","341","307832","0.0-341.0","3TMFV4NEP90M46NZMQAIP24XMJXW8O","ADAL2H41ZBWAK","3S1L4CQSFXRWQOWP2XFUSMS4AZDFAL","","null","<img src=""img/land1.png"" style=""width:200px; border:14px solid green;"">","null","","","","","","","","","",""
"","image-keyboard-response","342","308160","0.0-342.0","3TMFV4NEP90M46NZMQAIP24XMJXW8O","ADAL2H41ZBWAK","3S1L4CQSFXRWQOWP2XFUSMS4AZDFAL","","326.5","img/land1.png","76","327.80000000447035","3","1","3","1","1,0.5,0.5,0.5,1,0.5,0.5,0.5,1","1,0.5,0.5,0.5,1,0.5,0.5,0.5,1","1","",""
"","html-keyboard-response","343","308464","0.0-343.0","3TMFV4NEP90M46NZMQAIP24XMJXW8O","ADAL2H41ZBWAK","3S1L4CQSFXRWQOWP2XFUSMS4AZDFAL","","null","<img src=""img/land1.png"" style=""width:200px; border:14px solid green;"">","null","","","","","","","","","",""
"","image-keyboard-response","344","308704","0.0-344.0","3TMFV4NEP90M46NZMQAIP24XMJXW8O","ADAL2H41ZBWAK","3S1L4CQSFXRWQOWP2XFUSMS4AZDFAL","","238.29999999701977","img/land1.png","76","239.79999999701977","3","1","3","1","1,0.5,0.5,0.5,1,0.5,0.5,0.5,1","1,0.5,0.5,0.5,1,0.5,0.5,0.5,1","1","",""
"","html-keyboard-response","345","309008","0.0-345.0","3TMFV4NEP90M46NZMQAIP24XMJXW8O","ADAL2H41ZBWAK","3S1L4CQSFXRWQOWP2XFUSMS4AZDFAL","","null","<img src=""img/land1.png"" style=""width:200px; border:14px solid green;"">","null","","","","","","","","","",""
"","image-keyboard-response","346","309704","0.0-346.0","3TMFV4NEP90M46NZMQAIP24XMJXW8O","ADAL2H41ZBWAK","3S1L4CQSFXRWQOWP2XFUSMS4AZDFAL","","694.2999999970198","img/land5.png","74","695.7999999970198","1","1","2","1","1,0.5,0.5,0.5,1,0.5,0.5,0.5,1","1,0.5,0.5,0.5,1,0.5,0.5,0.5,1","1","",""
"","html-keyboard-response","347","310009","0.0-347.0","3TMFV4NEP90M46NZMQAIP24XMJXW8O","ADAL2H41ZBWAK","3S1L4CQSFXRWQOWP2XFUSMS4AZDFAL","","null","<img src=""img/land5.png"" style=""width:200px; border:14px solid green;"">","null","","","","","","","","","",""
"","image-keyboard-response","348","310376","0.0-348.0","3TMFV4NEP90M46NZMQAIP24XMJXW8O","ADAL2H41ZBWAK","3S1L4CQSFXRWQOWP2XFUSMS4AZDFAL","","365.79999999701977","img/land5.png","74","367.20000000298023","1","0","2","1","1,0.5,0.5,0.5,1,0.5,0.5,0.5,1","1,0.5,0.5,0.5,1,0.5,0.5,0.5,1","1","",""
"","html-keyboard-response","349","310680","0.0-349.0","3TMFV4NEP90M46NZMQAIP24XMJXW8O","ADAL2H41ZBWAK","3S1L4CQSFXRWQOWP2XFUSMS4AZDFAL","","null","<img src=""img/land5.png"" style=""width:200px;border:14px solid red;"">","null","","","","","","","","","",""
"","image-keyboard-response","350","311392","0.0-350.0","3TMFV4NEP90M46NZMQAIP24XMJXW8O","ADAL2H41ZBWAK","3S1L4CQSFXRWQOWP2XFUSMS4AZDFAL","","710.4000000059605","img/land5.png","74","711.8999999985099","1","1","2","1","1,0.5,0.5,0.5,1,0.5,0.5,0.5,1","1,0.5,0.5,0.5,1,0.5,0.5,0.5,1","1","",""
"","html-keyboard-response","351","311696","0.0-351.0","3TMFV4NEP90M46NZMQAIP24XMJXW8O","ADAL2H41ZBWAK","3S1L4CQSFXRWQOWP2XFUSMS4AZDFAL","","null","<img src=""img/land5.png"" style=""width:200px; border:14px solid green;"">","null","","","","","","","","","",""
"","image-keyboard-response","352","312464","0.0-352.0","3TMFV4NEP90M46NZMQAIP24XMJXW8O","ADAL2H41ZBWAK","3S1L4CQSFXRWQOWP2XFUSMS4AZDFAL","","766.2000000029802","img/land1.png","76","767.8999999985099","3","1","3","1","1,0.5,0.5,0.5,1,0.5,0.5,0.5,1","1,0.5,0.5,0.5,1,0.5,0.5,0.5,1","1","",""
"","html-keyboard-response","353","312768","0.0-353.0","3TMFV4NEP90M46NZMQAIP24XMJXW8O","ADAL2H41ZBWAK","3S1L4CQSFXRWQOWP2XFUSMS4AZDFAL","","null","<img src=""img/land1.png"" style=""width:200px; border:14px solid green;"">","null","","","","","","","","","",""
"","image-keyboard-response","354","313048","0.0-354.0","3TMFV4NEP90M46NZMQAIP24XMJXW8O","ADAL2H41ZBWAK","3S1L4CQSFXRWQOWP2XFUSMS4AZDFAL","","278.20000000298023","img/land5.png","76","279.79999999701977","3","1","2","1","1,0.5,0.5,0.5,1,0.5,0.5,0.5,1","1,0.5,0.5,0.5,1,0.5,0.5,0.5,1","1","",""
"","html-keyboard-response","355","313352","0.0-355.0","3TMFV4NEP90M46NZMQAIP24XMJXW8O","ADAL2H41ZBWAK","3S1L4CQSFXRWQOWP2XFUSMS4AZDFAL","","null","<img src=""img/land5.png"" style=""width:200px; border:14px solid green;"">","null","","","","","","","","","",""
"","image-keyboard-response","356","314209","0.0-356.0","3TMFV4NEP90M46NZMQAIP24XMJXW8O","ADAL2H41ZBWAK","3S1L4CQSFXRWQOWP2XFUSMS4AZDFAL","","854.4000000059605","img/land5.png","74","856.1000000014901","1","0","2","1","1,0.5,0.5,0.5,1,0.5,0.5,0.5,1","1,0.5,0.5,0.5,1,0.5,0.5,0.5,1","1","",""
"","html-keyboard-response","357","314512","0.0-357.0","3TMFV4NEP90M46NZMQAIP24XMJXW8O","ADAL2H41ZBWAK","3S1L4CQSFXRWQOWP2XFUSMS4AZDFAL","","null","<img src=""img/land5.png"" style=""width:200px;border:14px solid red;"">","null","","","","","","","","","",""
"","image-keyboard-response","358","316121","0.0-358.0","3TMFV4NEP90M46NZMQAIP24XMJXW8O","ADAL2H41ZBWAK","3S1L4CQSFXRWQOWP2XFUSMS4AZDFAL","","1607.1000000014901","img/land6.png","75","1608.7999999970198","2","0","1","1","1,0.5,0.5,0.5,1,0.5,0.5,0.5,1","1,0.5,0.5,0.5,1,0.5,0.5,0.5,1","1","",""
"","html-keyboard-response","359","316424","0.0-359.0","3TMFV4NEP90M46NZMQAIP24XMJXW8O","ADAL2H41ZBWAK","3S1L4CQSFXRWQOWP2XFUSMS4AZDFAL","","null","<img src=""img/land6.png"" style=""width:200px;border:14px solid red;"">","null","","","","","","","","","",""
"","image-keyboard-response","360","317103","0.0-360.0","3TMFV4NEP90M46NZMQAIP24XMJXW8O","ADAL2H41ZBWAK","3S1L4CQSFXRWQOWP2XFUSMS4AZDFAL","","678.2999999970198","img/land5.png","74","679.3000000044703","1","0","2","1","1,0.5,0.5,0.5,1,0.5,0.5,0.5,1","1,0.5,0.5,0.5,1,0.5,0.5,0.5,1","1","",""
"","html-keyboard-response","361","317408","0.0-361.0","3TMFV4NEP90M46NZMQAIP24XMJXW8O","ADAL2H41ZBWAK","3S1L4CQSFXRWQOWP2XFUSMS4AZDFAL","","null","<img src=""img/land5.png"" style=""width:200px;border:14px solid red;"">","null","","","","","","","","","",""
"","image-keyboard-response","362","318104","0.0-362.0","3TMFV4NEP90M46NZMQAIP24XMJXW8O","ADAL2H41ZBWAK","3S1L4CQSFXRWQOWP2XFUSMS4AZDFAL","","694.0999999940395","img/land5.png","74","695.9000000059605","1","1","2","1","1,0.5,0.5,0.5,1,0.5,0.5,0.5,1","1,0.5,0.5,0.5,1,0.5,0.5,0.5,1","1","",""
