"success","trial_type","trial_index","time_elapsed","internal_node_id","assignmentID","mturkID","hitID","view_history","rt","stimulus","key_press","reactionTime","a","r","s","cond","reward_cond","reward_cond_actual","reward_matrix_idx","responses","question_order"
"true","fullscreen","0","2510","0.0-0.0","38JBBYETQPWR45E6PNQZMKHSDTXE4K","ADIXVUPICNIY4","3BDORL6HKKZHMTYWD6BFF6WBDQ9CRF","","","","","","","","","","","","","",""
"","instructions","1","13243","0.0-1.0","38JBBYETQPWR45E6PNQZMKHSDTXE4K","ADIXVUPICNIY4","3BDORL6HKKZHMTYWD6BFF6WBDQ9CRF","[{""page_index"":0,""viewing_time"":992.7000000029802},{""page_index"":1,""viewing_time"":776},{""page_index"":2,""viewing_time"":712.1000000014901},{""page_index"":3,""viewing_time"":4459.79999999702},{""page_index"":4,""viewing_time"":1716.2000000029802},{""page_index"":5,""viewing_time"":1065.8999999985099},{""page_index"":6,""viewing_time"":1008.3999999985099}]","10731.5","","","","","","","","","","","",""
"","image-keyboard-response","2","14453","0.0-2.0","38JBBYETQPWR45E6PNQZMKHSDTXE4K","ADIXVUPICNIY4","3BDORL6HKKZHMTYWD6BFF6WBDQ9CRF","","1206.7999999970198","img/land6.png","75","1208.6999999955297","2","1","1","2","1,0.5,0.5,0.5,1,0.5,0.5,0.5,1","0.5,1,0.5,0.5,0.5,1,1,0.5,0.5","3","",""
"","html-keyboard-response","3","14764","0.0-3.0","38JBBYETQPWR45E6PNQZMKHSDTXE4K","ADIXVUPICNIY4","3BDORL6HKKZHMTYWD6BFF6WBDQ9CRF","","null","<img src=""img/land6.png"" style=""width:200px; border:14px solid green;"">","null","","","","","","","","","",""
"","image-keyboard-response","4","15346","0.0-4.0","38JBBYETQPWR45E6PNQZMKHSDTXE4K","ADIXVUPICNIY4","3BDORL6HKKZHMTYWD6BFF6WBDQ9CRF","","581.1999999955297","img/land6.png","75","582","2","1","1","2","1,0.5,0.5,0.5,1,0.5,0.5,0.5,1","0.5,1,0.5,0.5,0.5,1,1,0.5,0.5","3","",""
"","html-keyboard-response","5","15649","0.0-5.0","38JBBYETQPWR45E6PNQZMKHSDTXE4K","ADIXVUPICNIY4","3BDORL6HKKZHMTYWD6BFF6WBDQ9CRF","","null","<img src=""img/land6.png"" style=""width:200px; border:14px solid green;"">","null","","","","","","","","","",""
"","image-keyboard-response","6","16261","0.0-6.0","38JBBYETQPWR45E6PNQZMKHSDTXE4K","ADIXVUPICNIY4","3BDORL6HKKZHMTYWD6BFF6WBDQ9CRF","","611.1000000014901","img/land2.png","76","611.7000000029802","3","1","2","2","1,0.5,0.5,0.5,1,0.5,0.5,0.5,1","0.5,1,0.5,0.5,0.5,1,1,0.5,0.5","3","",""
"","html-keyboard-response","7","16572","0.0-7.0","38JBBYETQPWR45E6PNQZMKHSDTXE4K","ADIXVUPICNIY4","3BDORL6HKKZHMTYWD6BFF6WBDQ9CRF","","null","<img src=""img/land2.png"" style=""width:200px; border:14px solid green;"">","null","","","","","","","","","",""
"","image-keyboard-response","8","17250","0.0-8.0","38JBBYETQPWR45E6PNQZMKHSDTXE4K","ADIXVUPICNIY4","3BDORL6HKKZHMTYWD6BFF6WBDQ9CRF","","677.6000000014901","img/land5.png","74","678.5","1","1","3","2","1,0.5,0.5,0.5,1,0.5,0.5,0.5,1","0.5,1,0.5,0.5,0.5,1,1,0.5,0.5","3","",""
"","html-keyboard-response","9","17552","0.0-9.0","38JBBYETQPWR45E6PNQZMKHSDTXE4K","ADIXVUPICNIY4","3BDORL6HKKZHMTYWD6BFF6WBDQ9CRF","","null","<img src=""img/land5.png"" style=""width:200px; border:14px solid green;"">","null","","","","","","","","","",""
"","image-keyboard-response","10","18078","0.0-10.0","38JBBYETQPWR45E6PNQZMKHSDTXE4K","ADIXVUPICNIY4","3BDORL6HKKZHMTYWD6BFF6WBDQ9CRF","","525.1999999955297","img/land5.png","74","526.1000000014901","1","1","3","2","1,0.5,0.5,0.5,1,0.5,0.5,0.5,1","0.5,1,0.5,0.5,0.5,1,1,0.5,0.5","3","",""
"","html-keyboard-response","11","18391","0.0-11.0","38JBBYETQPWR45E6PNQZMKHSDTXE4K","ADIXVUPICNIY4","3BDORL6HKKZHMTYWD6BFF6WBDQ9CRF","","null","<img src=""img/land5.png"" style=""width:200px; border:14px solid green;"">","null","","","","","","","","","",""
"","image-keyboard-response","12","18930","0.0-12.0","38JBBYETQPWR45E6PNQZMKHSDTXE4K","ADIXVUPICNIY4","3BDORL6HKKZHMTYWD6BFF6WBDQ9CRF","","538.8999999985099","img/land6.png","75","539.5","2","1","1","2","1,0.5,0.5,0.5,1,0.5,0.5,0.5,1","0.5,1,0.5,0.5,0.5,1,1,0.5,0.5","3","",""
"","html-keyboard-response","13","19241","0.0-13.0","38JBBYETQPWR45E6PNQZMKHSDTXE4K","ADIXVUPICNIY4","3BDORL6HKKZHMTYWD6BFF6WBDQ9CRF","","null","<img src=""img/land6.png"" style=""width:200px; border:14px solid green;"">","null","","","","","","","","","",""
"","image-keyboard-response","14","19941","0.0-14.0","38JBBYETQPWR45E6PNQZMKHSDTXE4K","ADIXVUPICNIY4","3BDORL6HKKZHMTYWD6BFF6WBDQ9CRF","","699.3000000044703","img/land5.png","74","699.8999999985099","1","1","3","2","1,0.5,0.5,0.5,1,0.5,0.5,0.5,1","0.5,1,0.5,0.5,0.5,1,1,0.5,0.5","3","",""
"","html-keyboard-response","15","20244","0.0-15.0","38JBBYETQPWR45E6PNQZMKHSDTXE4K","ADIXVUPICNIY4","3BDORL6HKKZHMTYWD6BFF6WBDQ9CRF","","null","<img src=""img/land5.png"" style=""width:200px; border:14px solid green;"">","null","","","","","","","","","",""
"","image-keyboard-response","16","20727","0.0-16.0","38JBBYETQPWR45E6PNQZMKHSDTXE4K","ADIXVUPICNIY4","3BDORL6HKKZHMTYWD6BFF6WBDQ9CRF","","481.8999999985099","img/land5.png","74","482.5","1","1","3","2","1,0.5,0.5,0.5,1,0.5,0.5,0.5,1","0.5,1,0.5,0.5,0.5,1,1,0.5,0.5","3","",""
"","html-keyboard-response","17","21037","0.0-17.0","38JBBYETQPWR45E6PNQZMKHSDTXE4K","ADIXVUPICNIY4","3BDORL6HKKZHMTYWD6BFF6WBDQ9CRF","","null","<img src=""img/land5.png"" style=""width:200px; border:14px solid green;"">","null","","","","","","","","","",""
"","image-keyboard-response","18","21633","0.0-18.0","38JBBYETQPWR45E6PNQZMKHSDTXE4K","ADIXVUPICNIY4","3BDORL6HKKZHMTYWD6BFF6WBDQ9CRF","","596.1000000014901","img/land6.png","75","596.7999999970198","2","1","1","2","1,0.5,0.5,0.5,1,0.5,0.5,0.5,1","0.5,1,0.5,0.5,0.5,1,1,0.5,0.5","3","",""
"","html-keyboard-response","19","21936","0.0-19.0","38JBBYETQPWR45E6PNQZMKHSDTXE4K","ADIXVUPICNIY4","3BDORL6HKKZHMTYWD6BFF6WBDQ9CRF","","null","<img src=""img/land6.png"" style=""width:200px; border:14px solid green;"">","null","","","","","","","","","",""
"","image-keyboard-response","20","22490","0.0-20.0","38JBBYETQPWR45E6PNQZMKHSDTXE4K","ADIXVUPICNIY4","3BDORL6HKKZHMTYWD6BFF6WBDQ9CRF","","553.1999999955297","img/land6.png","75","554.1000000014901","2","1","1","2","1,0.5,0.5,0.5,1,0.5,0.5,0.5,1","0.5,1,0.5,0.5,0.5,1,1,0.5,0.5","3","",""
"","html-keyboard-response","21","22798","0.0-21.0","38JBBYETQPWR45E6PNQZMKHSDTXE4K","ADIXVUPICNIY4","3BDORL6HKKZHMTYWD6BFF6WBDQ9CRF","","null","<img src=""img/land6.png"" style=""width:200px; border:14px solid green;"">","null","","","","","","","","","",""
"","image-keyboard-response","22","23276","0.0-22.0","38JBBYETQPWR45E6PNQZMKHSDTXE4K","ADIXVUPICNIY4","3BDORL6HKKZHMTYWD6BFF6WBDQ9CRF","","478.1000000014901","img/land6.png","75","478.80000000447035","2","1","1","2","1,0.5,0.5,0.5,1,0.5,0.5,0.5,1","0.5,1,0.5,0.5,0.5,1,1,0.5,0.5","3","",""
"","html-keyboard-response","23","23591","0.0-23.0","38JBBYETQPWR45E6PNQZMKHSDTXE4K","ADIXVUPICNIY4","3BDORL6HKKZHMTYWD6BFF6WBDQ9CRF","","null","<img src=""img/land6.png"" style=""width:200px; border:14px solid green;"">","null","","","","","","","","","",""
"","image-keyboard-response","24","24021","0.0-24.0","38JBBYETQPWR45E6PNQZMKHSDTXE4K","ADIXVUPICNIY4","3BDORL6HKKZHMTYWD6BFF6WBDQ9CRF","","429.5","img/land6.png","75","430.09999999403954","2","1","1","2","1,0.5,0.5,0.5,1,0.5,0.5,0.5,1","0.5,1,0.5,0.5,0.5,1,1,0.5,0.5","3","",""
"","html-keyboard-response","25","24333","0.0-25.0","38JBBYETQPWR45E6PNQZMKHSDTXE4K","ADIXVUPICNIY4","3BDORL6HKKZHMTYWD6BFF6WBDQ9CRF","","null","<img src=""img/land6.png"" style=""width:200px; border:14px solid green;"">","null","","","","","","","","","",""
"","image-keyboard-response","26","24693","0.0-26.0","38JBBYETQPWR45E6PNQZMKHSDTXE4K","ADIXVUPICNIY4","3BDORL6HKKZHMTYWD6BFF6WBDQ9CRF","","358.8999999985099","img/land6.png","75","359.69999999552965","2","1","1","2","1,0.5,0.5,0.5,1,0.5,0.5,0.5,1","0.5,1,0.5,0.5,0.5,1,1,0.5,0.5","3","",""
"","html-keyboard-response","27","24997","0.0-27.0","38JBBYETQPWR45E6PNQZMKHSDTXE4K","ADIXVUPICNIY4","3BDORL6HKKZHMTYWD6BFF6WBDQ9CRF","","null","<img src=""img/land6.png"" style=""width:200px; border:14px solid green;"">","null","","","","","","","","","",""
"","image-keyboard-response","28","25535","0.0-28.0","38JBBYETQPWR45E6PNQZMKHSDTXE4K","ADIXVUPICNIY4","3BDORL6HKKZHMTYWD6BFF6WBDQ9CRF","","537.8999999985099","img/land5.png","74","538.3999999985099","1","1","3","2","1,0.5,0.5,0.5,1,0.5,0.5,0.5,1","0.5,1,0.5,0.5,0.5,1,1,0.5,0.5","3","",""
"","html-keyboard-response","29","25849","0.0-29.0","38JBBYETQPWR45E6PNQZMKHSDTXE4K","ADIXVUPICNIY4","3BDORL6HKKZHMTYWD6BFF6WBDQ9CRF","","null","<img src=""img/land5.png"" style=""width:200px; border:14px solid green;"">","null","","","","","","","","","",""
"","image-keyboard-response","30","26301","0.0-30.0","38JBBYETQPWR45E6PNQZMKHSDTXE4K","ADIXVUPICNIY4","3BDORL6HKKZHMTYWD6BFF6WBDQ9CRF","","451.6000000014901","img/land6.png","75","452.29999999701977","2","1","1","2","1,0.5,0.5,0.5,1,0.5,0.5,0.5,1","0.5,1,0.5,0.5,0.5,1,1,0.5,0.5","3","",""
"","html-keyboard-response","31","26616","0.0-31.0","38JBBYETQPWR45E6PNQZMKHSDTXE4K","ADIXVUPICNIY4","3BDORL6HKKZHMTYWD6BFF6WBDQ9CRF","","null","<img src=""img/land6.png"" style=""width:200px; border:14px solid green;"">","null","","","","","","","","","",""
"","image-keyboard-response","32","27011","0.0-32.0","38JBBYETQPWR45E6PNQZMKHSDTXE4K","ADIXVUPICNIY4","3BDORL6HKKZHMTYWD6BFF6WBDQ9CRF","","394.29999999701977","img/land6.png","75","394.8999999985099","2","1","1","2","1,0.5,0.5,0.5,1,0.5,0.5,0.5,1","0.5,1,0.5,0.5,0.5,1,1,0.5,0.5","3","",""
"","html-keyboard-response","33","27314","0.0-33.0","38JBBYETQPWR45E6PNQZMKHSDTXE4K","ADIXVUPICNIY4","3BDORL6HKKZHMTYWD6BFF6WBDQ9CRF","","null","<img src=""img/land6.png"" style=""width:200px; border:14px solid green;"">","null","","","","","","","","","",""
"","image-keyboard-response","34","27673","0.0-34.0","38JBBYETQPWR45E6PNQZMKHSDTXE4K","ADIXVUPICNIY4","3BDORL6HKKZHMTYWD6BFF6WBDQ9CRF","","358.69999999552965","img/land6.png","75","359.3999999985099","2","1","1","2","1,0.5,0.5,0.5,1,0.5,0.5,0.5,1","0.5,1,0.5,0.5,0.5,1,1,0.5,0.5","3","",""
"","html-keyboard-response","35","27978","0.0-35.0","38JBBYETQPWR45E6PNQZMKHSDTXE4K","ADIXVUPICNIY4","3BDORL6HKKZHMTYWD6BFF6WBDQ9CRF","","null","<img src=""img/land6.png"" style=""width:200px; border:14px solid green;"">","null","","","","","","","","","",""
"","image-keyboard-response","36","28304","0.0-36.0","38JBBYETQPWR45E6PNQZMKHSDTXE4K","ADIXVUPICNIY4","3BDORL6HKKZHMTYWD6BFF6WBDQ9CRF","","325.69999999552965","img/land6.png","75","326.3999999985099","2","1","1","2","1,0.5,0.5,0.5,1,0.5,0.5,0.5,1","0.5,1,0.5,0.5,0.5,1,1,0.5,0.5","3","",""
"","html-keyboard-response","37","28606","0.0-37.0","38JBBYETQPWR45E6PNQZMKHSDTXE4K","ADIXVUPICNIY4","3BDORL6HKKZHMTYWD6BFF6WBDQ9CRF","","null","<img src=""img/land6.png"" style=""width:200px; border:14px solid green;"">","null","","","","","","","","","",""
"","image-keyboard-response","38","29085","0.0-38.0","38JBBYETQPWR45E6PNQZMKHSDTXE4K","ADIXVUPICNIY4","3BDORL6HKKZHMTYWD6BFF6WBDQ9CRF","","478.79999999701977","img/land5.png","74","479.30000000447035","1","1","3","2","1,0.5,0.5,0.5,1,0.5,0.5,0.5,1","0.5,1,0.5,0.5,0.5,1,1,0.5,0.5","3","",""
"","html-keyboard-response","39","29387","0.0-39.0","38JBBYETQPWR45E6PNQZMKHSDTXE4K","ADIXVUPICNIY4","3BDORL6HKKZHMTYWD6BFF6WBDQ9CRF","","null","<img src=""img/land5.png"" style=""width:200px; border:14px solid green;"">","null","","","","","","","","","",""
"","image-keyboard-response","40","29878","0.0-40.0","38JBBYETQPWR45E6PNQZMKHSDTXE4K","ADIXVUPICNIY4","3BDORL6HKKZHMTYWD6BFF6WBDQ9CRF","","490.29999999701977","img/land6.png","75","491","2","1","1","2","1,0.5,0.5,0.5,1,0.5,0.5,0.5,1","0.5,1,0.5,0.5,0.5,1,1,0.5,0.5","3","",""
"","html-keyboard-response","41","30179","0.0-41.0","38JBBYETQPWR45E6PNQZMKHSDTXE4K","ADIXVUPICNIY4","3BDORL6HKKZHMTYWD6BFF6WBDQ9CRF","","null","<img src=""img/land6.png"" style=""width:200px; border:14px solid green;"">","null","","","","","","","","","",""
"","image-keyboard-response","42","30595","0.0-42.0","38JBBYETQPWR45E6PNQZMKHSDTXE4K","ADIXVUPICNIY4","3BDORL6HKKZHMTYWD6BFF6WBDQ9CRF","","414.70000000298023","img/land6.png","75","415.29999999701977","2","1","1","2","1,0.5,0.5,0.5,1,0.5,0.5,0.5,1","0.5,1,0.5,0.5,0.5,1,1,0.5,0.5","3","",""
"","html-keyboard-response","43","30896","0.0-43.0","38JBBYETQPWR45E6PNQZMKHSDTXE4K","ADIXVUPICNIY4","3BDORL6HKKZHMTYWD6BFF6WBDQ9CRF","","null","<img src=""img/land6.png"" style=""width:200px; border:14px solid green;"">","null","","","","","","","","","",""
"","image-keyboard-response","44","31208","0.0-44.0","38JBBYETQPWR45E6PNQZMKHSDTXE4K","ADIXVUPICNIY4","3BDORL6HKKZHMTYWD6BFF6WBDQ9CRF","","312.1000000014901","img/land6.png","75","312.6000000014901","2","1","1","2","1,0.5,0.5,0.5,1,0.5,0.5,0.5,1","0.5,1,0.5,0.5,0.5,1,1,0.5,0.5","3","",""
"","html-keyboard-response","45","31510","0.0-45.0","38JBBYETQPWR45E6PNQZMKHSDTXE4K","ADIXVUPICNIY4","3BDORL6HKKZHMTYWD6BFF6WBDQ9CRF","","null","<img src=""img/land6.png"" style=""width:200px; border:14px solid green;"">","null","","","","","","","","","",""
"","image-keyboard-response","46","31870","0.0-46.0","38JBBYETQPWR45E6PNQZMKHSDTXE4K","ADIXVUPICNIY4","3BDORL6HKKZHMTYWD6BFF6WBDQ9CRF","","359.79999999701977","img/land6.png","75","360.6000000014901","2","1","1","2","1,0.5,0.5,0.5,1,0.5,0.5,0.5,1","0.5,1,0.5,0.5,0.5,1,1,0.5,0.5","3","",""
"","html-keyboard-response","47","32171","0.0-47.0","38JBBYETQPWR45E6PNQZMKHSDTXE4K","ADIXVUPICNIY4","3BDORL6HKKZHMTYWD6BFF6WBDQ9CRF","","null","<img src=""img/land6.png"" style=""width:200px; border:14px solid green;"">","null","","","","","","","","","",""
"","image-keyboard-response","48","32761","0.0-48.0","38JBBYETQPWR45E6PNQZMKHSDTXE4K","ADIXVUPICNIY4","3BDORL6HKKZHMTYWD6BFF6WBDQ9CRF","","588.9000000059605","img/land2.png","76","589.6000000014901","3","1","2","2","1,0.5,0.5,0.5,1,0.5,0.5,0.5,1","0.5,1,0.5,0.5,0.5,1,1,0.5,0.5","3","",""
"","html-keyboard-response","49","33063","0.0-49.0","38JBBYETQPWR45E6PNQZMKHSDTXE4K","ADIXVUPICNIY4","3BDORL6HKKZHMTYWD6BFF6WBDQ9CRF","","null","<img src=""img/land2.png"" style=""width:200px; border:14px solid green;"">","null","","","","","","","","","",""
"","image-keyboard-response","50","33545","0.0-50.0","38JBBYETQPWR45E6PNQZMKHSDTXE4K","ADIXVUPICNIY4","3BDORL6HKKZHMTYWD6BFF6WBDQ9CRF","","482.1000000014901","img/land6.png","75","482.70000000298023","2","1","1","2","1,0.5,0.5,0.5,1,0.5,0.5,0.5,1","0.5,1,0.5,0.5,0.5,1,1,0.5,0.5","3","",""
"","html-keyboard-response","51","33846","0.0-51.0","38JBBYETQPWR45E6PNQZMKHSDTXE4K","ADIXVUPICNIY4","3BDORL6HKKZHMTYWD6BFF6WBDQ9CRF","","null","<img src=""img/land6.png"" style=""width:200px; border:14px solid green;"">","null","","","","","","","","","",""
"","image-keyboard-response","52","34196","0.0-52.0","38JBBYETQPWR45E6PNQZMKHSDTXE4K","ADIXVUPICNIY4","3BDORL6HKKZHMTYWD6BFF6WBDQ9CRF","","348.70000000298023","img/land6.png","75","349.5","2","1","1","2","1,0.5,0.5,0.5,1,0.5,0.5,0.5,1","0.5,1,0.5,0.5,0.5,1,1,0.5,0.5","3","",""
"","html-keyboard-response","53","34499","0.0-53.0","38JBBYETQPWR45E6PNQZMKHSDTXE4K","ADIXVUPICNIY4","3BDORL6HKKZHMTYWD6BFF6WBDQ9CRF","","null","<img src=""img/land6.png"" style=""width:200px; border:14px solid green;"">","null","","","","","","","","","",""
"","image-keyboard-response","54","34817","0.0-54.0","38JBBYETQPWR45E6PNQZMKHSDTXE4K","ADIXVUPICNIY4","3BDORL6HKKZHMTYWD6BFF6WBDQ9CRF","","316.8999999985099","img/land6.png","75","317.70000000298023","2","1","1","2","1,0.5,0.5,0.5,1,0.5,0.5,0.5,1","0.5,1,0.5,0.5,0.5,1,1,0.5,0.5","3","",""
"","html-keyboard-response","55","35119","0.0-55.0","38JBBYETQPWR45E6PNQZMKHSDTXE4K","ADIXVUPICNIY4","3BDORL6HKKZHMTYWD6BFF6WBDQ9CRF","","null","<img src=""img/land6.png"" style=""width:200px; border:14px solid green;"">","null","","","","","","","","","",""
"","image-keyboard-response","56","35650","0.0-56.0","38JBBYETQPWR45E6PNQZMKHSDTXE4K","ADIXVUPICNIY4","3BDORL6HKKZHMTYWD6BFF6WBDQ9CRF","","530.1000000014901","img/land2.png","74","530.7999999970198","1","1","2","2","1,0.5,0.5,0.5,1,0.5,0.5,0.5,1","0.5,1,0.5,0.5,0.5,1,1,0.5,0.5","3","",""
"","html-keyboard-response","57","35951","0.0-57.0","38JBBYETQPWR45E6PNQZMKHSDTXE4K","ADIXVUPICNIY4","3BDORL6HKKZHMTYWD6BFF6WBDQ9CRF","","null","<img src=""img/land2.png"" style=""width:200px; border:14px solid green;"">","null","","","","","","","","","",""
"","image-keyboard-response","58","36665","0.0-58.0","38JBBYETQPWR45E6PNQZMKHSDTXE4K","ADIXVUPICNIY4","3BDORL6HKKZHMTYWD6BFF6WBDQ9CRF","","713.5","img/land6.png","75","714.2000000029802","2","1","1","2","1,0.5,0.5,0.5,1,0.5,0.5,0.5,1","0.5,1,0.5,0.5,0.5,1,1,0.5,0.5","3","",""
"","html-keyboard-response","59","36966","0.0-59.0","38JBBYETQPWR45E6PNQZMKHSDTXE4K","ADIXVUPICNIY4","3BDORL6HKKZHMTYWD6BFF6WBDQ9CRF","","null","<img src=""img/land6.png"" style=""width:200px; border:14px solid green;"">","null","","","","","","","","","",""
"","image-keyboard-response","60","37279","0.0-60.0","38JBBYETQPWR45E6PNQZMKHSDTXE4K","ADIXVUPICNIY4","3BDORL6HKKZHMTYWD6BFF6WBDQ9CRF","","312.1000000014901","img/land6.png","75","312.70000000298023","2","1","1","2","1,0.5,0.5,0.5,1,0.5,0.5,0.5,1","0.5,1,0.5,0.5,0.5,1,1,0.5,0.5","3","",""
"","html-keyboard-response","61","37582","0.0-61.0","38JBBYETQPWR45E6PNQZMKHSDTXE4K","ADIXVUPICNIY4","3BDORL6HKKZHMTYWD6BFF6WBDQ9CRF","","null","<img src=""img/land6.png"" style=""width:200px; border:14px solid green;"">","null","","","","","","","","","",""
"","image-keyboard-response","62","38273","0.0-62.0","38JBBYETQPWR45E6PNQZMKHSDTXE4K","ADIXVUPICNIY4","3BDORL6HKKZHMTYWD6BFF6WBDQ9CRF","","690.1999999955297","img/land2.png","76","691.1000000014901","3","1","2","2","1,0.5,0.5,0.5,1,0.5,0.5,0.5,1","0.5,1,0.5,0.5,0.5,1,1,0.5,0.5","3","",""
"","html-keyboard-response","63","38574","0.0-63.0","38JBBYETQPWR45E6PNQZMKHSDTXE4K","ADIXVUPICNIY4","3BDORL6HKKZHMTYWD6BFF6WBDQ9CRF","","null","<img src=""img/land2.png"" style=""width:200px; border:14px solid green;"">","null","","","","","","","","","",""
"","image-keyboard-response","64","39080","0.0-64.0","38JBBYETQPWR45E6PNQZMKHSDTXE4K","ADIXVUPICNIY4","3BDORL6HKKZHMTYWD6BFF6WBDQ9CRF","","505.19999999552965","img/land6.png","75","505.8999999985099","2","1","1","2","1,0.5,0.5,0.5,1,0.5,0.5,0.5,1","0.5,1,0.5,0.5,0.5,1,1,0.5,0.5","3","",""
"","html-keyboard-response","65","39381","0.0-65.0","38JBBYETQPWR45E6PNQZMKHSDTXE4K","ADIXVUPICNIY4","3BDORL6HKKZHMTYWD6BFF6WBDQ9CRF","","null","<img src=""img/land6.png"" style=""width:200px; border:14px solid green;"">","null","","","","","","","","","",""
"","image-keyboard-response","66","39719","0.0-66.0","38JBBYETQPWR45E6PNQZMKHSDTXE4K","ADIXVUPICNIY4","3BDORL6HKKZHMTYWD6BFF6WBDQ9CRF","","337.5","img/land6.png","75","338.1000000014901","2","1","1","2","1,0.5,0.5,0.5,1,0.5,0.5,0.5,1","0.5,1,0.5,0.5,0.5,1,1,0.5,0.5","3","",""
"","html-keyboard-response","67","40021","0.0-67.0","38JBBYETQPWR45E6PNQZMKHSDTXE4K","ADIXVUPICNIY4","3BDORL6HKKZHMTYWD6BFF6WBDQ9CRF","","null","<img src=""img/land6.png"" style=""width:200px; border:14px solid green;"">","null","","","","","","","","","",""
"","image-keyboard-response","68","40359","0.0-68.0","38JBBYETQPWR45E6PNQZMKHSDTXE4K","ADIXVUPICNIY4","3BDORL6HKKZHMTYWD6BFF6WBDQ9CRF","","336.5","img/land6.png","75","337.20000000298023","2","1","1","2","1,0.5,0.5,0.5,1,0.5,0.5,0.5,1","0.5,1,0.5,0.5,0.5,1,1,0.5,0.5","3","",""
"","html-keyboard-response","69","40660","0.0-69.0","38JBBYETQPWR45E6PNQZMKHSDTXE4K","ADIXVUPICNIY4","3BDORL6HKKZHMTYWD6BFF6WBDQ9CRF","","null","<img src=""img/land6.png"" style=""width:200px; border:14px solid green;"">","null","","","","","","","","","",""
"","image-keyboard-response","70","41205","0.0-70.0","38JBBYETQPWR45E6PNQZMKHSDTXE4K","ADIXVUPICNIY4","3BDORL6HKKZHMTYWD6BFF6WBDQ9CRF","","543.5","img/land2.png","76","544.1999999955297","3","1","2","2","1,0.5,0.5,0.5,1,0.5,0.5,0.5,1","0.5,1,0.5,0.5,0.5,1,1,0.5,0.5","3","",""
"","html-keyboard-response","71","41505","0.0-71.0","38JBBYETQPWR45E6PNQZMKHSDTXE4K","ADIXVUPICNIY4","3BDORL6HKKZHMTYWD6BFF6WBDQ9CRF","","null","<img src=""img/land2.png"" style=""width:200px; border:14px solid green;"">","null","","","","","","","","","",""
"","image-keyboard-response","72","41978","0.0-72.0","38JBBYETQPWR45E6PNQZMKHSDTXE4K","ADIXVUPICNIY4","3BDORL6HKKZHMTYWD6BFF6WBDQ9CRF","","472.3999999985099","img/land6.png","75","473","2","1","1","2","1,0.5,0.5,0.5,1,0.5,0.5,0.5,1","0.5,1,0.5,0.5,0.5,1,1,0.5,0.5","3","",""
"","html-keyboard-response","73","42279","0.0-73.0","38JBBYETQPWR45E6PNQZMKHSDTXE4K","ADIXVUPICNIY4","3BDORL6HKKZHMTYWD6BFF6WBDQ9CRF","","null","<img src=""img/land6.png"" style=""width:200px; border:14px solid green;"">","null","","","","","","","","","",""
"","image-keyboard-response","74","42589","0.0-74.0","38JBBYETQPWR45E6PNQZMKHSDTXE4K","ADIXVUPICNIY4","3BDORL6HKKZHMTYWD6BFF6WBDQ9CRF","","309.29999999701977","img/land6.png","75","310","2","1","1","2","1,0.5,0.5,0.5,1,0.5,0.5,0.5,1","0.5,1,0.5,0.5,0.5,1,1,0.5,0.5","3","",""
"","html-keyboard-response","75","42901","0.0-75.0","38JBBYETQPWR45E6PNQZMKHSDTXE4K","ADIXVUPICNIY4","3BDORL6HKKZHMTYWD6BFF6WBDQ9CRF","","null","<img src=""img/land6.png"" style=""width:200px; border:14px solid green;"">","null","","","","","","","","","",""
"","image-keyboard-response","76","43405","0.0-76.0","38JBBYETQPWR45E6PNQZMKHSDTXE4K","ADIXVUPICNIY4","3BDORL6HKKZHMTYWD6BFF6WBDQ9CRF","","503.1000000014901","img/land2.png","76","503.90000000596046","3","1","2","2","1,0.5,0.5,0.5,1,0.5,0.5,0.5,1","0.5,1,0.5,0.5,0.5,1,1,0.5,0.5","3","",""
"","html-keyboard-response","77","43718","0.0-77.0","38JBBYETQPWR45E6PNQZMKHSDTXE4K","ADIXVUPICNIY4","3BDORL6HKKZHMTYWD6BFF6WBDQ9CRF","","null","<img src=""img/land2.png"" style=""width:200px; border:14px solid green;"">","null","","","","","","","","","",""
"","image-keyboard-response","78","44210","0.0-78.0","38JBBYETQPWR45E6PNQZMKHSDTXE4K","ADIXVUPICNIY4","3BDORL6HKKZHMTYWD6BFF6WBDQ9CRF","","491.5","img/land6.png","75","492","2","1","1","2","1,0.5,0.5,0.5,1,0.5,0.5,0.5,1","0.5,1,0.5,0.5,0.5,1,1,0.5,0.5","3","",""
"","html-keyboard-response","79","44511","0.0-79.0","38JBBYETQPWR45E6PNQZMKHSDTXE4K","ADIXVUPICNIY4","3BDORL6HKKZHMTYWD6BFF6WBDQ9CRF","","null","<img src=""img/land6.png"" style=""width:200px; border:14px solid green;"">","null","","","","","","","","","",""
"","image-keyboard-response","80","44956","0.0-80.0","38JBBYETQPWR45E6PNQZMKHSDTXE4K","ADIXVUPICNIY4","3BDORL6HKKZHMTYWD6BFF6WBDQ9CRF","","444.3999999985099","img/land2.png","76","445.1000000014901","3","1","2","2","1,0.5,0.5,0.5,1,0.5,0.5,0.5,1","0.5,1,0.5,0.5,0.5,1,1,0.5,0.5","3","",""
"","html-keyboard-response","81","45258","0.0-81.0","38JBBYETQPWR45E6PNQZMKHSDTXE4K","ADIXVUPICNIY4","3BDORL6HKKZHMTYWD6BFF6WBDQ9CRF","","null","<img src=""img/land2.png"" style=""width:200px; border:14px solid green;"">","null","","","","","","","","","",""
"","image-keyboard-response","82","45701","0.0-82.0","38JBBYETQPWR45E6PNQZMKHSDTXE4K","ADIXVUPICNIY4","3BDORL6HKKZHMTYWD6BFF6WBDQ9CRF","","442.5","img/land6.png","75","443.3999999985099","2","1","1","2","1,0.5,0.5,0.5,1,0.5,0.5,0.5,1","0.5,1,0.5,0.5,0.5,1,1,0.5,0.5","3","",""
"","html-keyboard-response","83","46003","0.0-83.0","38JBBYETQPWR45E6PNQZMKHSDTXE4K","ADIXVUPICNIY4","3BDORL6HKKZHMTYWD6BFF6WBDQ9CRF","","null","<img src=""img/land6.png"" style=""width:200px; border:14px solid green;"">","null","","","","","","","","","",""
"","image-keyboard-response","84","46416","0.0-84.0","38JBBYETQPWR45E6PNQZMKHSDTXE4K","ADIXVUPICNIY4","3BDORL6HKKZHMTYWD6BFF6WBDQ9CRF","","413","img/land6.png","75","413.70000000298023","2","1","1","2","1,0.5,0.5,0.5,1,0.5,0.5,0.5,1","0.5,1,0.5,0.5,0.5,1,1,0.5,0.5","3","",""
"","html-keyboard-response","85","46718","0.0-85.0","38JBBYETQPWR45E6PNQZMKHSDTXE4K","ADIXVUPICNIY4","3BDORL6HKKZHMTYWD6BFF6WBDQ9CRF","","null","<img src=""img/land6.png"" style=""width:200px; border:14px solid green;"">","null","","","","","","","","","",""
"","image-keyboard-response","86","47060","0.0-86.0","38JBBYETQPWR45E6PNQZMKHSDTXE4K","ADIXVUPICNIY4","3BDORL6HKKZHMTYWD6BFF6WBDQ9CRF","","341.79999999701977","img/land6.png","75","342.30000000447035","2","1","1","2","1,0.5,0.5,0.5,1,0.5,0.5,0.5,1","0.5,1,0.5,0.5,0.5,1,1,0.5,0.5","3","",""
"","html-keyboard-response","87","47361","0.0-87.0","38JBBYETQPWR45E6PNQZMKHSDTXE4K","ADIXVUPICNIY4","3BDORL6HKKZHMTYWD6BFF6WBDQ9CRF","","null","<img src=""img/land6.png"" style=""width:200px; border:14px solid green;"">","null","","","","","","","","","",""
"","image-keyboard-response","88","47799","0.0-88.0","38JBBYETQPWR45E6PNQZMKHSDTXE4K","ADIXVUPICNIY4","3BDORL6HKKZHMTYWD6BFF6WBDQ9CRF","","437.3999999985099","img/land2.png","76","438.1000000014901","3","1","2","2","1,0.5,0.5,0.5,1,0.5,0.5,0.5,1","0.5,1,0.5,0.5,0.5,1,1,0.5,0.5","3","",""
"","html-keyboard-response","89","48101","0.0-89.0","38JBBYETQPWR45E6PNQZMKHSDTXE4K","ADIXVUPICNIY4","3BDORL6HKKZHMTYWD6BFF6WBDQ9CRF","","null","<img src=""img/land2.png"" style=""width:200px; border:14px solid green;"">","null","","","","","","","","","",""
"","image-keyboard-response","90","48531","0.0-90.0","38JBBYETQPWR45E6PNQZMKHSDTXE4K","ADIXVUPICNIY4","3BDORL6HKKZHMTYWD6BFF6WBDQ9CRF","","430.1000000014901","img/land6.png","75","430.70000000298023","2","1","1","2","1,0.5,0.5,0.5,1,0.5,0.5,0.5,1","0.5,1,0.5,0.5,0.5,1,1,0.5,0.5","3","",""
"","html-keyboard-response","91","48833","0.0-91.0","38JBBYETQPWR45E6PNQZMKHSDTXE4K","ADIXVUPICNIY4","3BDORL6HKKZHMTYWD6BFF6WBDQ9CRF","","null","<img src=""img/land6.png"" style=""width:200px; border:14px solid green;"">","null","","","","","","","","","",""
"","image-keyboard-response","92","49429","0.0-92.0","38JBBYETQPWR45E6PNQZMKHSDTXE4K","ADIXVUPICNIY4","3BDORL6HKKZHMTYWD6BFF6WBDQ9CRF","","594.8999999985099","img/land5.png","74","595.6000000014901","1","1","3","2","1,0.5,0.5,0.5,1,0.5,0.5,0.5,1","0.5,1,0.5,0.5,0.5,1,1,0.5,0.5","3","",""
"","html-keyboard-response","93","49730","0.0-93.0","38JBBYETQPWR45E6PNQZMKHSDTXE4K","ADIXVUPICNIY4","3BDORL6HKKZHMTYWD6BFF6WBDQ9CRF","","null","<img src=""img/land5.png"" style=""width:200px; border:14px solid green;"">","null","","","","","","","","","",""
"","image-keyboard-response","94","50231","0.0-94.0","38JBBYETQPWR45E6PNQZMKHSDTXE4K","ADIXVUPICNIY4","3BDORL6HKKZHMTYWD6BFF6WBDQ9CRF","","499.80000000447035","img/land2.png","75","500.5","2","0","2","2","1,0.5,0.5,0.5,1,0.5,0.5,0.5,1","0.5,1,0.5,0.5,0.5,1,1,0.5,0.5","3","",""
"","html-keyboard-response","95","50532","0.0-95.0","38JBBYETQPWR45E6PNQZMKHSDTXE4K","ADIXVUPICNIY4","3BDORL6HKKZHMTYWD6BFF6WBDQ9CRF","","null","<img src=""img/land2.png"" style=""width:200px;border:14px solid red;"">","null","","","","","","","","","",""
"","image-keyboard-response","96","50620","0.0-96.0","38JBBYETQPWR45E6PNQZMKHSDTXE4K","ADIXVUPICNIY4","3BDORL6HKKZHMTYWD6BFF6WBDQ9CRF","","87.29999999701977","img/land6.png","76","87.70000000298023","3","0","1","2","1,0.5,0.5,0.5,1,0.5,0.5,0.5,1","0.5,1,0.5,0.5,0.5,1,1,0.5,0.5","3","",""
"","html-keyboard-response","97","50922","0.0-97.0","38JBBYETQPWR45E6PNQZMKHSDTXE4K","ADIXVUPICNIY4","3BDORL6HKKZHMTYWD6BFF6WBDQ9CRF","","null","<img src=""img/land6.png"" style=""width:200px;border:14px solid red;"">","null","","","","","","","","","",""
"","image-keyboard-response","98","51303","0.0-98.0","38JBBYETQPWR45E6PNQZMKHSDTXE4K","ADIXVUPICNIY4","3BDORL6HKKZHMTYWD6BFF6WBDQ9CRF","","379.5","img/land6.png","75","380.1000000014901","2","1","1","2","1,0.5,0.5,0.5,1,0.5,0.5,0.5,1","0.5,1,0.5,0.5,0.5,1,1,0.5,0.5","3","",""
"","html-keyboard-response","99","51604","0.0-99.0","38JBBYETQPWR45E6PNQZMKHSDTXE4K","ADIXVUPICNIY4","3BDORL6HKKZHMTYWD6BFF6WBDQ9CRF","","null","<img src=""img/land6.png"" style=""width:200px; border:14px solid green;"">","null","","","","","","","","","",""
"","image-keyboard-response","100","51997","0.0-100.0","38JBBYETQPWR45E6PNQZMKHSDTXE4K","ADIXVUPICNIY4","3BDORL6HKKZHMTYWD6BFF6WBDQ9CRF","","392.3999999985099","img/land6.png","75","393.1000000014901","2","1","1","2","1,0.5,0.5,0.5,1,0.5,0.5,0.5,1","0.5,1,0.5,0.5,0.5,1,1,0.5,0.5","3","",""
"","html-keyboard-response","101","52300","0.0-101.0","38JBBYETQPWR45E6PNQZMKHSDTXE4K","ADIXVUPICNIY4","3BDORL6HKKZHMTYWD6BFF6WBDQ9CRF","","null","<img src=""img/land6.png"" style=""width:200px; border:14px solid green;"">","null","","","","","","","","","",""
"","image-keyboard-response","102","52921","0.0-102.0","38JBBYETQPWR45E6PNQZMKHSDTXE4K","ADIXVUPICNIY4","3BDORL6HKKZHMTYWD6BFF6WBDQ9CRF","","620","img/land5.png","74","620.8999999985099","1","1","3","2","1,0.5,0.5,0.5,1,0.5,0.5,0.5,1","0.5,1,0.5,0.5,0.5,1,1,0.5,0.5","3","",""
"","html-keyboard-response","103","53222","0.0-103.0","38JBBYETQPWR45E6PNQZMKHSDTXE4K","ADIXVUPICNIY4","3BDORL6HKKZHMTYWD6BFF6WBDQ9CRF","","null","<img src=""img/land5.png"" style=""width:200px; border:14px solid green;"">","null","","","","","","","","","",""
"","image-keyboard-response","104","53696","0.0-104.0","38JBBYETQPWR45E6PNQZMKHSDTXE4K","ADIXVUPICNIY4","3BDORL6HKKZHMTYWD6BFF6WBDQ9CRF","","473.29999999701977","img/land5.png","74","474","1","1","3","2","1,0.5,0.5,0.5,1,0.5,0.5,0.5,1","0.5,1,0.5,0.5,0.5,1,1,0.5,0.5","3","",""
"","html-keyboard-response","105","53997","0.0-105.0","38JBBYETQPWR45E6PNQZMKHSDTXE4K","ADIXVUPICNIY4","3BDORL6HKKZHMTYWD6BFF6WBDQ9CRF","","null","<img src=""img/land5.png"" style=""width:200px; border:14px solid green;"">","null","","","","","","","","","",""
"","image-keyboard-response","106","54592","0.0-106.0","38JBBYETQPWR45E6PNQZMKHSDTXE4K","ADIXVUPICNIY4","3BDORL6HKKZHMTYWD6BFF6WBDQ9CRF","","594.5","img/land2.png","76","595","3","1","2","2","1,0.5,0.5,0.5,1,0.5,0.5,0.5,1","0.5,1,0.5,0.5,0.5,1,1,0.5,0.5","3","",""
"","html-keyboard-response","107","54896","0.0-107.0","38JBBYETQPWR45E6PNQZMKHSDTXE4K","ADIXVUPICNIY4","3BDORL6HKKZHMTYWD6BFF6WBDQ9CRF","","null","<img src=""img/land2.png"" style=""width:200px; border:14px solid green;"">","null","","","","","","","","","",""
"","image-keyboard-response","108","55215","0.0-108.0","38JBBYETQPWR45E6PNQZMKHSDTXE4K","ADIXVUPICNIY4","3BDORL6HKKZHMTYWD6BFF6WBDQ9CRF","","318.8999999985099","img/land2.png","76","319.3999999985099","3","1","2","2","1,0.5,0.5,0.5,1,0.5,0.5,0.5,1","0.5,1,0.5,0.5,0.5,1,1,0.5,0.5","3","",""
"","html-keyboard-response","109","55516","0.0-109.0","38JBBYETQPWR45E6PNQZMKHSDTXE4K","ADIXVUPICNIY4","3BDORL6HKKZHMTYWD6BFF6WBDQ9CRF","","null","<img src=""img/land2.png"" style=""width:200px; border:14px solid green;"">","null","","","","","","","","","",""
"","image-keyboard-response","110","55988","0.0-110.0","38JBBYETQPWR45E6PNQZMKHSDTXE4K","ADIXVUPICNIY4","3BDORL6HKKZHMTYWD6BFF6WBDQ9CRF","","470.90000000596046","img/land6.png","75","471.6000000014901","2","1","1","2","1,0.5,0.5,0.5,1,0.5,0.5,0.5,1","0.5,1,0.5,0.5,0.5,1,1,0.5,0.5","3","",""
"","html-keyboard-response","111","56291","0.0-111.0","38JBBYETQPWR45E6PNQZMKHSDTXE4K","ADIXVUPICNIY4","3BDORL6HKKZHMTYWD6BFF6WBDQ9CRF","","null","<img src=""img/land6.png"" style=""width:200px; border:14px solid green;"">","null","","","","","","","","","",""
"","image-keyboard-response","112","56636","0.0-112.0","38JBBYETQPWR45E6PNQZMKHSDTXE4K","ADIXVUPICNIY4","3BDORL6HKKZHMTYWD6BFF6WBDQ9CRF","","343.90000000596046","img/land6.png","75","344.70000000298023","2","1","1","2","1,0.5,0.5,0.5,1,0.5,0.5,0.5,1","0.5,1,0.5,0.5,0.5,1,1,0.5,0.5","3","",""
"","html-keyboard-response","113","56937","0.0-113.0","38JBBYETQPWR45E6PNQZMKHSDTXE4K","ADIXVUPICNIY4","3BDORL6HKKZHMTYWD6BFF6WBDQ9CRF","","null","<img src=""img/land6.png"" style=""width:200px; border:14px solid green;"">","null","","","","","","","","","",""
"","image-keyboard-response","114","57600","0.0-114.0","38JBBYETQPWR45E6PNQZMKHSDTXE4K","ADIXVUPICNIY4","3BDORL6HKKZHMTYWD6BFF6WBDQ9CRF","","662","img/land2.png","76","662.7000000029802","3","1","2","2","1,0.5,0.5,0.5,1,0.5,0.5,0.5,1","0.5,1,0.5,0.5,0.5,1,1,0.5,0.5","3","",""
"","html-keyboard-response","115","57901","0.0-115.0","38JBBYETQPWR45E6PNQZMKHSDTXE4K","ADIXVUPICNIY4","3BDORL6HKKZHMTYWD6BFF6WBDQ9CRF","","null","<img src=""img/land2.png"" style=""width:200px; border:14px solid green;"">","null","","","","","","","","","",""
"","image-keyboard-response","116","58478","0.0-116.0","38JBBYETQPWR45E6PNQZMKHSDTXE4K","ADIXVUPICNIY4","3BDORL6HKKZHMTYWD6BFF6WBDQ9CRF","","575.3000000044703","img/land5.png","74","575.8000000044703","1","1","3","2","1,0.5,0.5,0.5,1,0.5,0.5,0.5,1","0.5,1,0.5,0.5,0.5,1,1,0.5,0.5","3","",""
"","html-keyboard-response","117","58778","0.0-117.0","38JBBYETQPWR45E6PNQZMKHSDTXE4K","ADIXVUPICNIY4","3BDORL6HKKZHMTYWD6BFF6WBDQ9CRF","","null","<img src=""img/land5.png"" style=""width:200px; border:14px solid green;"">","null","","","","","","","","","",""
"","image-keyboard-response","118","59338","0.0-118.0","38JBBYETQPWR45E6PNQZMKHSDTXE4K","ADIXVUPICNIY4","3BDORL6HKKZHMTYWD6BFF6WBDQ9CRF","","557.3999999985099","img/land6.png","75","558","2","1","1","2","1,0.5,0.5,0.5,1,0.5,0.5,0.5,1","0.5,1,0.5,0.5,0.5,1,1,0.5,0.5","3","",""
"","html-keyboard-response","119","59639","0.0-119.0","38JBBYETQPWR45E6PNQZMKHSDTXE4K","ADIXVUPICNIY4","3BDORL6HKKZHMTYWD6BFF6WBDQ9CRF","","null","<img src=""img/land6.png"" style=""width:200px; border:14px solid green;"">","null","","","","","","","","","",""
"","image-keyboard-response","120","59977","0.0-120.0","38JBBYETQPWR45E6PNQZMKHSDTXE4K","ADIXVUPICNIY4","3BDORL6HKKZHMTYWD6BFF6WBDQ9CRF","","337.79999999701977","img/land6.png","75","338.5","2","1","1","2","1,0.5,0.5,0.5,1,0.5,0.5,0.5,1","0.5,1,0.5,0.5,0.5,1,1,0.5,0.5","3","",""
"","html-keyboard-response","121","60278","0.0-121.0","38JBBYETQPWR45E6PNQZMKHSDTXE4K","ADIXVUPICNIY4","3BDORL6HKKZHMTYWD6BFF6WBDQ9CRF","","null","<img src=""img/land6.png"" style=""width:200px; border:14px solid green;"">","null","","","","","","","","","",""
"","image-keyboard-response","122","60553","0.0-122.0","38JBBYETQPWR45E6PNQZMKHSDTXE4K","ADIXVUPICNIY4","3BDORL6HKKZHMTYWD6BFF6WBDQ9CRF","","274.3999999985099","img/land6.png","75","275","2","1","1","2","1,0.5,0.5,0.5,1,0.5,0.5,0.5,1","0.5,1,0.5,0.5,0.5,1,1,0.5,0.5","3","",""
"","html-keyboard-response","123","60855","0.0-123.0","38JBBYETQPWR45E6PNQZMKHSDTXE4K","ADIXVUPICNIY4","3BDORL6HKKZHMTYWD6BFF6WBDQ9CRF","","null","<img src=""img/land6.png"" style=""width:200px; border:14px solid green;"">","null","","","","","","","","","",""
"","image-keyboard-response","124","61133","0.0-124.0","38JBBYETQPWR45E6PNQZMKHSDTXE4K","ADIXVUPICNIY4","3BDORL6HKKZHMTYWD6BFF6WBDQ9CRF","","278.20000000298023","img/land6.png","75","278.70000000298023","2","1","1","2","1,0.5,0.5,0.5,1,0.5,0.5,0.5,1","0.5,1,0.5,0.5,0.5,1,1,0.5,0.5","3","",""
"","html-keyboard-response","125","61435","0.0-125.0","38JBBYETQPWR45E6PNQZMKHSDTXE4K","ADIXVUPICNIY4","3BDORL6HKKZHMTYWD6BFF6WBDQ9CRF","","null","<img src=""img/land6.png"" style=""width:200px; border:14px solid green;"">","null","","","","","","","","","",""
"","image-keyboard-response","126","61737","0.0-126.0","38JBBYETQPWR45E6PNQZMKHSDTXE4K","ADIXVUPICNIY4","3BDORL6HKKZHMTYWD6BFF6WBDQ9CRF","","300.40000000596046","img/land6.png","75","301.29999999701977","2","1","1","2","1,0.5,0.5,0.5,1,0.5,0.5,0.5,1","0.5,1,0.5,0.5,0.5,1,1,0.5,0.5","3","",""
"","html-keyboard-response","127","62038","0.0-127.0","38JBBYETQPWR45E6PNQZMKHSDTXE4K","ADIXVUPICNIY4","3BDORL6HKKZHMTYWD6BFF6WBDQ9CRF","","null","<img src=""img/land6.png"" style=""width:200px; border:14px solid green;"">","null","","","","","","","","","",""
"","image-keyboard-response","128","62631","0.0-128.0","38JBBYETQPWR45E6PNQZMKHSDTXE4K","ADIXVUPICNIY4","3BDORL6HKKZHMTYWD6BFF6WBDQ9CRF","","592.4000000059605","img/land5.png","74","592.8999999985099","1","1","3","2","1,0.5,0.5,0.5,1,0.5,0.5,0.5,1","0.5,1,0.5,0.5,0.5,1,1,0.5,0.5","3","",""
"","html-keyboard-response","129","62932","0.0-129.0","38JBBYETQPWR45E6PNQZMKHSDTXE4K","ADIXVUPICNIY4","3BDORL6HKKZHMTYWD6BFF6WBDQ9CRF","","null","<img src=""img/land5.png"" style=""width:200px; border:14px solid green;"">","null","","","","","","","","","",""
"","image-keyboard-response","130","63460","0.0-130.0","38JBBYETQPWR45E6PNQZMKHSDTXE4K","ADIXVUPICNIY4","3BDORL6HKKZHMTYWD6BFF6WBDQ9CRF","","528.2000000029802","img/land2.png","76","528.7000000029802","3","1","2","2","1,0.5,0.5,0.5,1,0.5,0.5,0.5,1","0.5,1,0.5,0.5,0.5,1,1,0.5,0.5","3","",""
"","html-keyboard-response","131","63770","0.0-131.0","38JBBYETQPWR45E6PNQZMKHSDTXE4K","ADIXVUPICNIY4","3BDORL6HKKZHMTYWD6BFF6WBDQ9CRF","","null","<img src=""img/land2.png"" style=""width:200px; border:14px solid green;"">","null","","","","","","","","","",""
"","image-keyboard-response","132","64317","0.0-132.0","38JBBYETQPWR45E6PNQZMKHSDTXE4K","ADIXVUPICNIY4","3BDORL6HKKZHMTYWD6BFF6WBDQ9CRF","","546.2000000029802","img/land6.png","75","546.9000000059605","2","1","1","2","1,0.5,0.5,0.5,1,0.5,0.5,0.5,1","0.5,1,0.5,0.5,0.5,1,1,0.5,0.5","3","",""
"","html-keyboard-response","133","64618","0.0-133.0","38JBBYETQPWR45E6PNQZMKHSDTXE4K","ADIXVUPICNIY4","3BDORL6HKKZHMTYWD6BFF6WBDQ9CRF","","null","<img src=""img/land6.png"" style=""width:200px; border:14px solid green;"">","null","","","","","","","","","",""
"","image-keyboard-response","134","64975","0.0-134.0","38JBBYETQPWR45E6PNQZMKHSDTXE4K","ADIXVUPICNIY4","3BDORL6HKKZHMTYWD6BFF6WBDQ9CRF","","356.30000000447035","img/land6.png","75","356.8999999985099","2","1","1","2","1,0.5,0.5,0.5,1,0.5,0.5,0.5,1","0.5,1,0.5,0.5,0.5,1,1,0.5,0.5","3","",""
"","html-keyboard-response","135","65276","0.0-135.0","38JBBYETQPWR45E6PNQZMKHSDTXE4K","ADIXVUPICNIY4","3BDORL6HKKZHMTYWD6BFF6WBDQ9CRF","","null","<img src=""img/land6.png"" style=""width:200px; border:14px solid green;"">","null","","","","","","","","","",""
"","image-keyboard-response","136","65492","0.0-136.0","38JBBYETQPWR45E6PNQZMKHSDTXE4K","ADIXVUPICNIY4","3BDORL6HKKZHMTYWD6BFF6WBDQ9CRF","","215.89999999850988","img/land6.png","75","216.60000000149012","2","1","1","2","1,0.5,0.5,0.5,1,0.5,0.5,0.5,1","0.5,1,0.5,0.5,0.5,1,1,0.5,0.5","3","",""
"","html-keyboard-response","137","65795","0.0-137.0","38JBBYETQPWR45E6PNQZMKHSDTXE4K","ADIXVUPICNIY4","3BDORL6HKKZHMTYWD6BFF6WBDQ9CRF","","null","<img src=""img/land6.png"" style=""width:200px; border:14px solid green;"">","null","","","","","","","","","",""
"","image-keyboard-response","138","66084","0.0-138.0","38JBBYETQPWR45E6PNQZMKHSDTXE4K","ADIXVUPICNIY4","3BDORL6HKKZHMTYWD6BFF6WBDQ9CRF","","288.59999999403954","img/land6.png","75","289.1000000014901","2","1","1","2","1,0.5,0.5,0.5,1,0.5,0.5,0.5,1","0.5,1,0.5,0.5,0.5,1,1,0.5,0.5","3","",""
"","html-keyboard-response","139","66385","0.0-139.0","38JBBYETQPWR45E6PNQZMKHSDTXE4K","ADIXVUPICNIY4","3BDORL6HKKZHMTYWD6BFF6WBDQ9CRF","","null","<img src=""img/land6.png"" style=""width:200px; border:14px solid green;"">","null","","","","","","","","","",""
"","image-keyboard-response","140","67480","0.0-140.0","38JBBYETQPWR45E6PNQZMKHSDTXE4K","ADIXVUPICNIY4","3BDORL6HKKZHMTYWD6BFF6WBDQ9CRF","","1094.3000000044703","img/land2.png","76","1095","3","1","2","2","1,0.5,0.5,0.5,1,0.5,0.5,0.5,1","0.5,1,0.5,0.5,0.5,1,1,0.5,0.5","3","",""
"","html-keyboard-response","141","67794","0.0-141.0","38JBBYETQPWR45E6PNQZMKHSDTXE4K","ADIXVUPICNIY4","3BDORL6HKKZHMTYWD6BFF6WBDQ9CRF","","null","<img src=""img/land2.png"" style=""width:200px; border:14px solid green;"">","null","","","","","","","","","",""
"","image-keyboard-response","142","68308","0.0-142.0","38JBBYETQPWR45E6PNQZMKHSDTXE4K","ADIXVUPICNIY4","3BDORL6HKKZHMTYWD6BFF6WBDQ9CRF","","513","img/land6.png","74","513.5999999940395","1","0","1","2","1,0.5,0.5,0.5,1,0.5,0.5,0.5,1","0.5,1,0.5,0.5,0.5,1,1,0.5,0.5","3","",""
"","html-keyboard-response","143","68609","0.0-143.0","38JBBYETQPWR45E6PNQZMKHSDTXE4K","ADIXVUPICNIY4","3BDORL6HKKZHMTYWD6BFF6WBDQ9CRF","","null","<img src=""img/land6.png"" style=""width:200px;border:14px solid red;"">","null","","","","","","","","","",""
"","image-keyboard-response","144","68674","0.0-144.0","38JBBYETQPWR45E6PNQZMKHSDTXE4K","ADIXVUPICNIY4","3BDORL6HKKZHMTYWD6BFF6WBDQ9CRF","","64.69999999552965","img/land5.png","75","65.29999999701977","2","0","3","2","1,0.5,0.5,0.5,1,0.5,0.5,0.5,1","0.5,1,0.5,0.5,0.5,1,1,0.5,0.5","3","",""
"","html-keyboard-response","145","68975","0.0-145.0","38JBBYETQPWR45E6PNQZMKHSDTXE4K","ADIXVUPICNIY4","3BDORL6HKKZHMTYWD6BFF6WBDQ9CRF","","null","<img src=""img/land5.png"" style=""width:200px;border:14px solid red;"">","null","","","","","","","","","",""
"","image-keyboard-response","146","69663","0.0-146.0","38JBBYETQPWR45E6PNQZMKHSDTXE4K","ADIXVUPICNIY4","3BDORL6HKKZHMTYWD6BFF6WBDQ9CRF","","686.8000000044703","img/land6.png","75","687.3000000044703","2","1","1","2","1,0.5,0.5,0.5,1,0.5,0.5,0.5,1","0.5,1,0.5,0.5,0.5,1,1,0.5,0.5","3","",""
"","html-keyboard-response","147","69964","0.0-147.0","38JBBYETQPWR45E6PNQZMKHSDTXE4K","ADIXVUPICNIY4","3BDORL6HKKZHMTYWD6BFF6WBDQ9CRF","","null","<img src=""img/land6.png"" style=""width:200px; border:14px solid green;"">","null","","","","","","","","","",""
"","image-keyboard-response","148","70234","0.0-148.0","38JBBYETQPWR45E6PNQZMKHSDTXE4K","ADIXVUPICNIY4","3BDORL6HKKZHMTYWD6BFF6WBDQ9CRF","","268.70000000298023","img/land6.png","75","269.79999999701977","2","1","1","2","1,0.5,0.5,0.5,1,0.5,0.5,0.5,1","0.5,1,0.5,0.5,0.5,1,1,0.5,0.5","3","",""
"","html-keyboard-response","149","70543","0.0-149.0","38JBBYETQPWR45E6PNQZMKHSDTXE4K","ADIXVUPICNIY4","3BDORL6HKKZHMTYWD6BFF6WBDQ9CRF","","null","<img src=""img/land6.png"" style=""width:200px; border:14px solid green;"">","null","","","","","","","","","",""
"","image-keyboard-response","150","71081","0.0-150.0","38JBBYETQPWR45E6PNQZMKHSDTXE4K","ADIXVUPICNIY4","3BDORL6HKKZHMTYWD6BFF6WBDQ9CRF","","537.2999999970198","img/land5.png","74","538.3000000044703","1","1","3","2","1,0.5,0.5,0.5,1,0.5,0.5,0.5,1","0.5,1,0.5,0.5,0.5,1,1,0.5,0.5","3","",""
"","html-keyboard-response","151","71383","0.0-151.0","38JBBYETQPWR45E6PNQZMKHSDTXE4K","ADIXVUPICNIY4","3BDORL6HKKZHMTYWD6BFF6WBDQ9CRF","","null","<img src=""img/land5.png"" style=""width:200px; border:14px solid green;"">","null","","","","","","","","","",""
"","image-keyboard-response","152","71842","0.0-152.0","38JBBYETQPWR45E6PNQZMKHSDTXE4K","ADIXVUPICNIY4","3BDORL6HKKZHMTYWD6BFF6WBDQ9CRF","","457.70000000298023","img/land6.png","75","458.3999999985099","2","1","1","2","1,0.5,0.5,0.5,1,0.5,0.5,0.5,1","0.5,1,0.5,0.5,0.5,1,1,0.5,0.5","3","",""
"","html-keyboard-response","153","72144","0.0-153.0","38JBBYETQPWR45E6PNQZMKHSDTXE4K","ADIXVUPICNIY4","3BDORL6HKKZHMTYWD6BFF6WBDQ9CRF","","null","<img src=""img/land6.png"" style=""width:200px; border:14px solid green;"">","null","","","","","","","","","",""
"","image-keyboard-response","154","72622","0.0-154.0","38JBBYETQPWR45E6PNQZMKHSDTXE4K","ADIXVUPICNIY4","3BDORL6HKKZHMTYWD6BFF6WBDQ9CRF","","478.3999999985099","img/land5.png","74","478.80000000447035","1","1","3","2","1,0.5,0.5,0.5,1,0.5,0.5,0.5,1","0.5,1,0.5,0.5,0.5,1,1,0.5,0.5","3","",""
"","html-keyboard-response","155","72924","0.0-155.0","38JBBYETQPWR45E6PNQZMKHSDTXE4K","ADIXVUPICNIY4","3BDORL6HKKZHMTYWD6BFF6WBDQ9CRF","","null","<img src=""img/land5.png"" style=""width:200px; border:14px solid green;"">","null","","","","","","","","","",""
"","image-keyboard-response","156","73365","0.0-156.0","38JBBYETQPWR45E6PNQZMKHSDTXE4K","ADIXVUPICNIY4","3BDORL6HKKZHMTYWD6BFF6WBDQ9CRF","","440.79999999701977","img/land5.png","74","441.5","1","1","3","2","1,0.5,0.5,0.5,1,0.5,0.5,0.5,1","0.5,1,0.5,0.5,0.5,1,1,0.5,0.5","3","",""
"","html-keyboard-response","157","73666","0.0-157.0","38JBBYETQPWR45E6PNQZMKHSDTXE4K","ADIXVUPICNIY4","3BDORL6HKKZHMTYWD6BFF6WBDQ9CRF","","null","<img src=""img/land5.png"" style=""width:200px; border:14px solid green;"">","null","","","","","","","","","",""
"","image-keyboard-response","158","74267","0.0-158.0","38JBBYETQPWR45E6PNQZMKHSDTXE4K","ADIXVUPICNIY4","3BDORL6HKKZHMTYWD6BFF6WBDQ9CRF","","599.6999999955297","img/land2.png","76","600.3999999985099","3","1","2","2","1,0.5,0.5,0.5,1,0.5,0.5,0.5,1","0.5,1,0.5,0.5,0.5,1,1,0.5,0.5","3","",""
"","html-keyboard-response","159","74569","0.0-159.0","38JBBYETQPWR45E6PNQZMKHSDTXE4K","ADIXVUPICNIY4","3BDORL6HKKZHMTYWD6BFF6WBDQ9CRF","","null","<img src=""img/land2.png"" style=""width:200px; border:14px solid green;"">","null","","","","","","","","","",""
"","image-keyboard-response","160","75378","0.0-160.0","38JBBYETQPWR45E6PNQZMKHSDTXE4K","ADIXVUPICNIY4","3BDORL6HKKZHMTYWD6BFF6WBDQ9CRF","","808.8999999985099","img/land5.png","74","809.5","1","1","3","2","1,0.5,0.5,0.5,1,0.5,0.5,0.5,1","0.5,1,0.5,0.5,0.5,1,1,0.5,0.5","3","",""
"","html-keyboard-response","161","75692","0.0-161.0","38JBBYETQPWR45E6PNQZMKHSDTXE4K","ADIXVUPICNIY4","3BDORL6HKKZHMTYWD6BFF6WBDQ9CRF","","null","<img src=""img/land5.png"" style=""width:200px; border:14px solid green;"">","null","","","","","","","","","",""
"","image-keyboard-response","162","76518","0.0-162.0","38JBBYETQPWR45E6PNQZMKHSDTXE4K","ADIXVUPICNIY4","3BDORL6HKKZHMTYWD6BFF6WBDQ9CRF","","825.2000000029802","img/land2.png","76","825.7999999970198","3","1","2","2","1,0.5,0.5,0.5,1,0.5,0.5,0.5,1","0.5,1,0.5,0.5,0.5,1,1,0.5,0.5","3","",""
"","html-keyboard-response","163","76819","0.0-163.0","38JBBYETQPWR45E6PNQZMKHSDTXE4K","ADIXVUPICNIY4","3BDORL6HKKZHMTYWD6BFF6WBDQ9CRF","","null","<img src=""img/land2.png"" style=""width:200px; border:14px solid green;"">","null","","","","","","","","","",""
"","image-keyboard-response","164","77359","0.0-164.0","38JBBYETQPWR45E6PNQZMKHSDTXE4K","ADIXVUPICNIY4","3BDORL6HKKZHMTYWD6BFF6WBDQ9CRF","","539.7999999970198","img/land6.png","75","540.5","2","1","1","2","1,0.5,0.5,0.5,1,0.5,0.5,0.5,1","0.5,1,0.5,0.5,0.5,1,1,0.5,0.5","3","",""
"","html-keyboard-response","165","77661","0.0-165.0","38JBBYETQPWR45E6PNQZMKHSDTXE4K","ADIXVUPICNIY4","3BDORL6HKKZHMTYWD6BFF6WBDQ9CRF","","null","<img src=""img/land6.png"" style=""width:200px; border:14px solid green;"">","null","","","","","","","","","",""
"","image-keyboard-response","166","78266","0.0-166.0","38JBBYETQPWR45E6PNQZMKHSDTXE4K","ADIXVUPICNIY4","3BDORL6HKKZHMTYWD6BFF6WBDQ9CRF","","603.6000000014901","img/land5.png","74","604.2000000029802","1","1","3","2","1,0.5,0.5,0.5,1,0.5,0.5,0.5,1","0.5,1,0.5,0.5,0.5,1,1,0.5,0.5","3","",""
"","html-keyboard-response","167","78567","0.0-167.0","38JBBYETQPWR45E6PNQZMKHSDTXE4K","ADIXVUPICNIY4","3BDORL6HKKZHMTYWD6BFF6WBDQ9CRF","","null","<img src=""img/land5.png"" style=""width:200px; border:14px solid green;"">","null","","","","","","","","","",""
"","image-keyboard-response","168","79192","0.0-168.0","38JBBYETQPWR45E6PNQZMKHSDTXE4K","ADIXVUPICNIY4","3BDORL6HKKZHMTYWD6BFF6WBDQ9CRF","","624.7999999970198","img/land6.png","75","625.3999999985099","2","1","1","2","1,0.5,0.5,0.5,1,0.5,0.5,0.5,1","0.5,1,0.5,0.5,0.5,1,1,0.5,0.5","3","",""
"","html-keyboard-response","169","79494","0.0-169.0","38JBBYETQPWR45E6PNQZMKHSDTXE4K","ADIXVUPICNIY4","3BDORL6HKKZHMTYWD6BFF6WBDQ9CRF","","null","<img src=""img/land6.png"" style=""width:200px; border:14px solid green;"">","null","","","","","","","","","",""
"","image-keyboard-response","170","80019","0.0-170.0","38JBBYETQPWR45E6PNQZMKHSDTXE4K","ADIXVUPICNIY4","3BDORL6HKKZHMTYWD6BFF6WBDQ9CRF","","524.7000000029802","img/land2.png","76","525.2000000029802","3","1","2","2","1,0.5,0.5,0.5,1,0.5,0.5,0.5,1","0.5,1,0.5,0.5,0.5,1,1,0.5,0.5","3","",""
"","html-keyboard-response","171","80335","0.0-171.0","38JBBYETQPWR45E6PNQZMKHSDTXE4K","ADIXVUPICNIY4","3BDORL6HKKZHMTYWD6BFF6WBDQ9CRF","","null","<img src=""img/land2.png"" style=""width:200px; border:14px solid green;"">","null","","","","","","","","","",""
"","image-keyboard-response","172","80849","0.0-172.0","38JBBYETQPWR45E6PNQZMKHSDTXE4K","ADIXVUPICNIY4","3BDORL6HKKZHMTYWD6BFF6WBDQ9CRF","","513.7000000029802","img/land6.png","75","514.2999999970198","2","1","1","2","1,0.5,0.5,0.5,1,0.5,0.5,0.5,1","0.5,1,0.5,0.5,0.5,1,1,0.5,0.5","3","",""
"","html-keyboard-response","173","81150","0.0-173.0","38JBBYETQPWR45E6PNQZMKHSDTXE4K","ADIXVUPICNIY4","3BDORL6HKKZHMTYWD6BFF6WBDQ9CRF","","null","<img src=""img/land6.png"" style=""width:200px; border:14px solid green;"">","null","","","","","","","","","",""
"","image-keyboard-response","174","81684","0.0-174.0","38JBBYETQPWR45E6PNQZMKHSDTXE4K","ADIXVUPICNIY4","3BDORL6HKKZHMTYWD6BFF6WBDQ9CRF","","534","img/land6.png","75","534.5","2","1","1","2","1,0.5,0.5,0.5,1,0.5,0.5,0.5,1","0.5,1,0.5,0.5,0.5,1,1,0.5,0.5","3","",""
"","html-keyboard-response","175","81986","0.0-175.0","38JBBYETQPWR45E6PNQZMKHSDTXE4K","ADIXVUPICNIY4","3BDORL6HKKZHMTYWD6BFF6WBDQ9CRF","","null","<img src=""img/land6.png"" style=""width:200px; border:14px solid green;"">","null","","","","","","","","","",""
"","image-keyboard-response","176","82869","0.0-176.0","38JBBYETQPWR45E6PNQZMKHSDTXE4K","ADIXVUPICNIY4","3BDORL6HKKZHMTYWD6BFF6WBDQ9CRF","","882.3999999985099","img/land2.png","76","882.8999999985099","3","1","2","2","1,0.5,0.5,0.5,1,0.5,0.5,0.5,1","0.5,1,0.5,0.5,0.5,1,1,0.5,0.5","3","",""
"","html-keyboard-response","177","83170","0.0-177.0","38JBBYETQPWR45E6PNQZMKHSDTXE4K","ADIXVUPICNIY4","3BDORL6HKKZHMTYWD6BFF6WBDQ9CRF","","null","<img src=""img/land2.png"" style=""width:200px; border:14px solid green;"">","null","","","","","","","","","",""
"","image-keyboard-response","178","83679","0.0-178.0","38JBBYETQPWR45E6PNQZMKHSDTXE4K","ADIXVUPICNIY4","3BDORL6HKKZHMTYWD6BFF6WBDQ9CRF","","507.79999999701977","img/land6.png","75","508.6000000014901","2","1","1","2","1,0.5,0.5,0.5,1,0.5,0.5,0.5,1","0.5,1,0.5,0.5,0.5,1,1,0.5,0.5","3","",""
"","html-keyboard-response","179","83980","0.0-179.0","38JBBYETQPWR45E6PNQZMKHSDTXE4K","ADIXVUPICNIY4","3BDORL6HKKZHMTYWD6BFF6WBDQ9CRF","","null","<img src=""img/land6.png"" style=""width:200px; border:14px solid green;"">","null","","","","","","","","","",""
"","image-keyboard-response","180","84459","0.0-180.0","38JBBYETQPWR45E6PNQZMKHSDTXE4K","ADIXVUPICNIY4","3BDORL6HKKZHMTYWD6BFF6WBDQ9CRF","","478.20000000298023","img/land6.png","75","478.79999999701977","2","1","1","2","1,0.5,0.5,0.5,1,0.5,0.5,0.5,1","0.5,1,0.5,0.5,0.5,1,1,0.5,0.5","3","",""
"","html-keyboard-response","181","84759","0.0-181.0","38JBBYETQPWR45E6PNQZMKHSDTXE4K","ADIXVUPICNIY4","3BDORL6HKKZHMTYWD6BFF6WBDQ9CRF","","null","<img src=""img/land6.png"" style=""width:200px; border:14px solid green;"">","null","","","","","","","","","",""
"","image-keyboard-response","182","85282","0.0-182.0","38JBBYETQPWR45E6PNQZMKHSDTXE4K","ADIXVUPICNIY4","3BDORL6HKKZHMTYWD6BFF6WBDQ9CRF","","521.5","img/land6.png","75","522.0999999940395","2","1","1","2","1,0.5,0.5,0.5,1,0.5,0.5,0.5,1","0.5,1,0.5,0.5,0.5,1,1,0.5,0.5","3","",""
"","html-keyboard-response","183","85583","0.0-183.0","38JBBYETQPWR45E6PNQZMKHSDTXE4K","ADIXVUPICNIY4","3BDORL6HKKZHMTYWD6BFF6WBDQ9CRF","","null","<img src=""img/land6.png"" style=""width:200px; border:14px solid green;"">","null","","","","","","","","","",""
"","image-keyboard-response","184","86042","0.0-184.0","38JBBYETQPWR45E6PNQZMKHSDTXE4K","ADIXVUPICNIY4","3BDORL6HKKZHMTYWD6BFF6WBDQ9CRF","","457.70000000298023","img/land6.png","75","458.19999999552965","2","1","1","2","1,0.5,0.5,0.5,1,0.5,0.5,0.5,1","0.5,1,0.5,0.5,0.5,1,1,0.5,0.5","3","",""
"","html-keyboard-response","185","86343","0.0-185.0","38JBBYETQPWR45E6PNQZMKHSDTXE4K","ADIXVUPICNIY4","3BDORL6HKKZHMTYWD6BFF6WBDQ9CRF","","null","<img src=""img/land6.png"" style=""width:200px; border:14px solid green;"">","null","","","","","","","","","",""
"","image-keyboard-response","186","86920","0.0-186.0","38JBBYETQPWR45E6PNQZMKHSDTXE4K","ADIXVUPICNIY4","3BDORL6HKKZHMTYWD6BFF6WBDQ9CRF","","576.2000000029802","img/land2.png","76","576.8999999985099","3","1","2","2","1,0.5,0.5,0.5,1,0.5,0.5,0.5,1","0.5,1,0.5,0.5,0.5,1,1,0.5,0.5","3","",""
"","html-keyboard-response","187","87221","0.0-187.0","38JBBYETQPWR45E6PNQZMKHSDTXE4K","ADIXVUPICNIY4","3BDORL6HKKZHMTYWD6BFF6WBDQ9CRF","","null","<img src=""img/land2.png"" style=""width:200px; border:14px solid green;"">","null","","","","","","","","","",""
"","image-keyboard-response","188","87711","0.0-188.0","38JBBYETQPWR45E6PNQZMKHSDTXE4K","ADIXVUPICNIY4","3BDORL6HKKZHMTYWD6BFF6WBDQ9CRF","","487.30000000447035","img/land2.png","76","487.90000000596046","3","1","2","2","1,0.5,0.5,0.5,1,0.5,0.5,0.5,1","0.5,1,0.5,0.5,0.5,1,1,0.5,0.5","3","",""
"","html-keyboard-response","189","88012","0.0-189.0","38JBBYETQPWR45E6PNQZMKHSDTXE4K","ADIXVUPICNIY4","3BDORL6HKKZHMTYWD6BFF6WBDQ9CRF","","null","<img src=""img/land2.png"" style=""width:200px; border:14px solid green;"">","null","","","","","","","","","",""
"","image-keyboard-response","190","88588","0.0-190.0","38JBBYETQPWR45E6PNQZMKHSDTXE4K","ADIXVUPICNIY4","3BDORL6HKKZHMTYWD6BFF6WBDQ9CRF","","574.6999999955297","img/land6.png","75","575.3999999985099","2","1","1","2","1,0.5,0.5,0.5,1,0.5,0.5,0.5,1","0.5,1,0.5,0.5,0.5,1,1,0.5,0.5","3","",""
"","html-keyboard-response","191","88889","0.0-191.0","38JBBYETQPWR45E6PNQZMKHSDTXE4K","ADIXVUPICNIY4","3BDORL6HKKZHMTYWD6BFF6WBDQ9CRF","","null","<img src=""img/land6.png"" style=""width:200px; border:14px solid green;"">","null","","","","","","","","","",""
"","image-keyboard-response","192","89426","0.0-192.0","38JBBYETQPWR45E6PNQZMKHSDTXE4K","ADIXVUPICNIY4","3BDORL6HKKZHMTYWD6BFF6WBDQ9CRF","","535.6000000014901","img/land5.png","74","536.4000000059605","1","1","3","2","1,0.5,0.5,0.5,1,0.5,0.5,0.5,1","0.5,1,0.5,0.5,0.5,1,1,0.5,0.5","3","",""
"","html-keyboard-response","193","89727","0.0-193.0","38JBBYETQPWR45E6PNQZMKHSDTXE4K","ADIXVUPICNIY4","3BDORL6HKKZHMTYWD6BFF6WBDQ9CRF","","null","<img src=""img/land5.png"" style=""width:200px; border:14px solid green;"">","null","","","","","","","","","",""
"","image-keyboard-response","194","90264","0.0-194.0","38JBBYETQPWR45E6PNQZMKHSDTXE4K","ADIXVUPICNIY4","3BDORL6HKKZHMTYWD6BFF6WBDQ9CRF","","536.8999999985099","img/land6.png","75","537.4000000059605","2","1","1","2","1,0.5,0.5,0.5,1,0.5,0.5,0.5,1","0.5,1,0.5,0.5,0.5,1,1,0.5,0.5","3","",""
"","html-keyboard-response","195","90566","0.0-195.0","38JBBYETQPWR45E6PNQZMKHSDTXE4K","ADIXVUPICNIY4","3BDORL6HKKZHMTYWD6BFF6WBDQ9CRF","","null","<img src=""img/land6.png"" style=""width:200px; border:14px solid green;"">","null","","","","","","","","","",""
"","image-keyboard-response","196","91057","0.0-196.0","38JBBYETQPWR45E6PNQZMKHSDTXE4K","ADIXVUPICNIY4","3BDORL6HKKZHMTYWD6BFF6WBDQ9CRF","","489.3999999985099","img/land6.png","75","490.20000000298023","2","1","1","2","1,0.5,0.5,0.5,1,0.5,0.5,0.5,1","0.5,1,0.5,0.5,0.5,1,1,0.5,0.5","3","",""
"","html-keyboard-response","197","91357","0.0-197.0","38JBBYETQPWR45E6PNQZMKHSDTXE4K","ADIXVUPICNIY4","3BDORL6HKKZHMTYWD6BFF6WBDQ9CRF","","null","<img src=""img/land6.png"" style=""width:200px; border:14px solid green;"">","null","","","","","","","","","",""
"","image-keyboard-response","198","91922","0.0-198.0","38JBBYETQPWR45E6PNQZMKHSDTXE4K","ADIXVUPICNIY4","3BDORL6HKKZHMTYWD6BFF6WBDQ9CRF","","563.3999999985099","img/land2.png","76","564","3","1","2","2","1,0.5,0.5,0.5,1,0.5,0.5,0.5,1","0.5,1,0.5,0.5,0.5,1,1,0.5,0.5","3","",""
"","html-keyboard-response","199","92231","0.0-199.0","38JBBYETQPWR45E6PNQZMKHSDTXE4K","ADIXVUPICNIY4","3BDORL6HKKZHMTYWD6BFF6WBDQ9CRF","","null","<img src=""img/land2.png"" style=""width:200px; border:14px solid green;"">","null","","","","","","","","","",""
"","image-keyboard-response","200","92703","0.0-200.0","38JBBYETQPWR45E6PNQZMKHSDTXE4K","ADIXVUPICNIY4","3BDORL6HKKZHMTYWD6BFF6WBDQ9CRF","","470.3999999985099","img/land6.png","75","471.20000000298023","2","1","1","2","1,0.5,0.5,0.5,1,0.5,0.5,0.5,1","0.5,1,0.5,0.5,0.5,1,1,0.5,0.5","3","",""
"","html-keyboard-response","201","93004","0.0-201.0","38JBBYETQPWR45E6PNQZMKHSDTXE4K","ADIXVUPICNIY4","3BDORL6HKKZHMTYWD6BFF6WBDQ9CRF","","null","<img src=""img/land6.png"" style=""width:200px; border:14px solid green;"">","null","","","","","","","","","",""
"","image-keyboard-response","202","93630","0.0-202.0","38JBBYETQPWR45E6PNQZMKHSDTXE4K","ADIXVUPICNIY4","3BDORL6HKKZHMTYWD6BFF6WBDQ9CRF","","624.5","img/land2.png","76","625.2000000029802","3","1","2","2","1,0.5,0.5,0.5,1,0.5,0.5,0.5,1","0.5,1,0.5,0.5,0.5,1,1,0.5,0.5","3","",""
"","html-keyboard-response","203","93932","0.0-203.0","38JBBYETQPWR45E6PNQZMKHSDTXE4K","ADIXVUPICNIY4","3BDORL6HKKZHMTYWD6BFF6WBDQ9CRF","","null","<img src=""img/land2.png"" style=""width:200px; border:14px solid green;"">","null","","","","","","","","","",""
"","image-keyboard-response","204","94515","0.0-204.0","38JBBYETQPWR45E6PNQZMKHSDTXE4K","ADIXVUPICNIY4","3BDORL6HKKZHMTYWD6BFF6WBDQ9CRF","","581.2999999970198","img/land6.png","75","582","2","1","1","2","1,0.5,0.5,0.5,1,0.5,0.5,0.5,1","0.5,1,0.5,0.5,0.5,1,1,0.5,0.5","3","",""
"","html-keyboard-response","205","94815","0.0-205.0","38JBBYETQPWR45E6PNQZMKHSDTXE4K","ADIXVUPICNIY4","3BDORL6HKKZHMTYWD6BFF6WBDQ9CRF","","null","<img src=""img/land6.png"" style=""width:200px; border:14px solid green;"">","null","","","","","","","","","",""
"","image-keyboard-response","206","95615","0.0-206.0","38JBBYETQPWR45E6PNQZMKHSDTXE4K","ADIXVUPICNIY4","3BDORL6HKKZHMTYWD6BFF6WBDQ9CRF","","798.5999999940395","img/land6.png","76","799.2000000029802","3","1","1","2","1,0.5,0.5,0.5,1,0.5,0.5,0.5,1","0.5,1,0.5,0.5,0.5,1,1,0.5,0.5","3","",""
"","html-keyboard-response","207","95916","0.0-207.0","38JBBYETQPWR45E6PNQZMKHSDTXE4K","ADIXVUPICNIY4","3BDORL6HKKZHMTYWD6BFF6WBDQ9CRF","","null","<img src=""img/land6.png"" style=""width:200px; border:14px solid green;"">","null","","","","","","","","","",""
"","image-keyboard-response","208","96526","0.0-208.0","38JBBYETQPWR45E6PNQZMKHSDTXE4K","ADIXVUPICNIY4","3BDORL6HKKZHMTYWD6BFF6WBDQ9CRF","","609.3999999985099","img/land6.png","75","610.3000000044703","2","1","1","2","1,0.5,0.5,0.5,1,0.5,0.5,0.5,1","0.5,1,0.5,0.5,0.5,1,1,0.5,0.5","3","",""
"","html-keyboard-response","209","96828","0.0-209.0","38JBBYETQPWR45E6PNQZMKHSDTXE4K","ADIXVUPICNIY4","3BDORL6HKKZHMTYWD6BFF6WBDQ9CRF","","null","<img src=""img/land6.png"" style=""width:200px; border:14px solid green;"">","null","","","","","","","","","",""
"","image-keyboard-response","210","97515","0.0-210.0","38JBBYETQPWR45E6PNQZMKHSDTXE4K","ADIXVUPICNIY4","3BDORL6HKKZHMTYWD6BFF6WBDQ9CRF","","687.1000000014901","img/land5.png","74","687.7000000029802","1","1","3","2","1,0.5,0.5,0.5,1,0.5,0.5,0.5,1","0.5,1,0.5,0.5,0.5,1,1,0.5,0.5","3","",""
"","html-keyboard-response","211","97817","0.0-211.0","38JBBYETQPWR45E6PNQZMKHSDTXE4K","ADIXVUPICNIY4","3BDORL6HKKZHMTYWD6BFF6WBDQ9CRF","","null","<img src=""img/land5.png"" style=""width:200px; border:14px solid green;"">","null","","","","","","","","","",""
"","image-keyboard-response","212","98242","0.0-212.0","38JBBYETQPWR45E6PNQZMKHSDTXE4K","ADIXVUPICNIY4","3BDORL6HKKZHMTYWD6BFF6WBDQ9CRF","","424.29999999701977","img/land5.png","74","424.90000000596046","1","1","3","2","1,0.5,0.5,0.5,1,0.5,0.5,0.5,1","0.5,1,0.5,0.5,0.5,1,1,0.5,0.5","3","",""
"","html-keyboard-response","213","98543","0.0-213.0","38JBBYETQPWR45E6PNQZMKHSDTXE4K","ADIXVUPICNIY4","3BDORL6HKKZHMTYWD6BFF6WBDQ9CRF","","null","<img src=""img/land5.png"" style=""width:200px; border:14px solid green;"">","null","","","","","","","","","",""
"","image-keyboard-response","214","98974","0.0-214.0","38JBBYETQPWR45E6PNQZMKHSDTXE4K","ADIXVUPICNIY4","3BDORL6HKKZHMTYWD6BFF6WBDQ9CRF","","430.70000000298023","img/land5.png","74","431.30000000447035","1","1","3","2","1,0.5,0.5,0.5,1,0.5,0.5,0.5,1","0.5,1,0.5,0.5,0.5,1,1,0.5,0.5","3","",""
"","html-keyboard-response","215","99276","0.0-215.0","38JBBYETQPWR45E6PNQZMKHSDTXE4K","ADIXVUPICNIY4","3BDORL6HKKZHMTYWD6BFF6WBDQ9CRF","","null","<img src=""img/land5.png"" style=""width:200px; border:14px solid green;"">","null","","","","","","","","","",""
"","image-keyboard-response","216","99773","0.0-216.0","38JBBYETQPWR45E6PNQZMKHSDTXE4K","ADIXVUPICNIY4","3BDORL6HKKZHMTYWD6BFF6WBDQ9CRF","","496.20000000298023","img/land6.png","75","496.80000000447035","2","1","1","2","1,0.5,0.5,0.5,1,0.5,0.5,0.5,1","0.5,1,0.5,0.5,0.5,1,1,0.5,0.5","3","",""
"","html-keyboard-response","217","100078","0.0-217.0","38JBBYETQPWR45E6PNQZMKHSDTXE4K","ADIXVUPICNIY4","3BDORL6HKKZHMTYWD6BFF6WBDQ9CRF","","null","<img src=""img/land6.png"" style=""width:200px; border:14px solid green;"">","null","","","","","","","","","",""
"","image-keyboard-response","218","100557","0.0-218.0","38JBBYETQPWR45E6PNQZMKHSDTXE4K","ADIXVUPICNIY4","3BDORL6HKKZHMTYWD6BFF6WBDQ9CRF","","478.20000000298023","img/land6.png","75","478.80000000447035","2","1","1","2","1,0.5,0.5,0.5,1,0.5,0.5,0.5,1","0.5,1,0.5,0.5,0.5,1,1,0.5,0.5","3","",""
"","html-keyboard-response","219","100859","0.0-219.0","38JBBYETQPWR45E6PNQZMKHSDTXE4K","ADIXVUPICNIY4","3BDORL6HKKZHMTYWD6BFF6WBDQ9CRF","","null","<img src=""img/land6.png"" style=""width:200px; border:14px solid green;"">","null","","","","","","","","","",""
"","image-keyboard-response","220","101301","0.0-220.0","38JBBYETQPWR45E6PNQZMKHSDTXE4K","ADIXVUPICNIY4","3BDORL6HKKZHMTYWD6BFF6WBDQ9CRF","","442.20000000298023","img/land6.png","75","442.70000000298023","2","1","1","2","1,0.5,0.5,0.5,1,0.5,0.5,0.5,1","0.5,1,0.5,0.5,0.5,1,1,0.5,0.5","3","",""
"","html-keyboard-response","221","101603","0.0-221.0","38JBBYETQPWR45E6PNQZMKHSDTXE4K","ADIXVUPICNIY4","3BDORL6HKKZHMTYWD6BFF6WBDQ9CRF","","null","<img src=""img/land6.png"" style=""width:200px; border:14px solid green;"">","null","","","","","","","","","",""
"","image-keyboard-response","222","102042","0.0-222.0","38JBBYETQPWR45E6PNQZMKHSDTXE4K","ADIXVUPICNIY4","3BDORL6HKKZHMTYWD6BFF6WBDQ9CRF","","438.19999999552965","img/land6.png","75","438.8999999985099","2","1","1","2","1,0.5,0.5,0.5,1,0.5,0.5,0.5,1","0.5,1,0.5,0.5,0.5,1,1,0.5,0.5","3","",""
"","html-keyboard-response","223","102343","0.0-223.0","38JBBYETQPWR45E6PNQZMKHSDTXE4K","ADIXVUPICNIY4","3BDORL6HKKZHMTYWD6BFF6WBDQ9CRF","","null","<img src=""img/land6.png"" style=""width:200px; border:14px solid green;"">","null","","","","","","","","","",""
"","image-keyboard-response","224","102841","0.0-224.0","38JBBYETQPWR45E6PNQZMKHSDTXE4K","ADIXVUPICNIY4","3BDORL6HKKZHMTYWD6BFF6WBDQ9CRF","","497","img/land6.png","75","497.6000000014901","2","1","1","2","1,0.5,0.5,0.5,1,0.5,0.5,0.5,1","0.5,1,0.5,0.5,0.5,1,1,0.5,0.5","3","",""
"","html-keyboard-response","225","103143","0.0-225.0","38JBBYETQPWR45E6PNQZMKHSDTXE4K","ADIXVUPICNIY4","3BDORL6HKKZHMTYWD6BFF6WBDQ9CRF","","null","<img src=""img/land6.png"" style=""width:200px; border:14px solid green;"">","null","","","","","","","","","",""
"","image-keyboard-response","226","103645","0.0-226.0","38JBBYETQPWR45E6PNQZMKHSDTXE4K","ADIXVUPICNIY4","3BDORL6HKKZHMTYWD6BFF6WBDQ9CRF","","501.5","img/land2.png","75","502.20000000298023","2","1","2","2","1,0.5,0.5,0.5,1,0.5,0.5,0.5,1","0.5,1,0.5,0.5,0.5,1,1,0.5,0.5","3","",""
"","html-keyboard-response","227","103946","0.0-227.0","38JBBYETQPWR45E6PNQZMKHSDTXE4K","ADIXVUPICNIY4","3BDORL6HKKZHMTYWD6BFF6WBDQ9CRF","","null","<img src=""img/land2.png"" style=""width:200px; border:14px solid green;"">","null","","","","","","","","","",""
"","image-keyboard-response","228","104616","0.0-228.0","38JBBYETQPWR45E6PNQZMKHSDTXE4K","ADIXVUPICNIY4","3BDORL6HKKZHMTYWD6BFF6WBDQ9CRF","","670.2000000029802","img/land5.png","74","670.7000000029802","1","1","3","2","1,0.5,0.5,0.5,1,0.5,0.5,0.5,1","0.5,1,0.5,0.5,0.5,1,1,0.5,0.5","3","",""
"","html-keyboard-response","229","104918","0.0-229.0","38JBBYETQPWR45E6PNQZMKHSDTXE4K","ADIXVUPICNIY4","3BDORL6HKKZHMTYWD6BFF6WBDQ9CRF","","null","<img src=""img/land5.png"" style=""width:200px; border:14px solid green;"">","null","","","","","","","","","",""
"","image-keyboard-response","230","105539","0.0-230.0","38JBBYETQPWR45E6PNQZMKHSDTXE4K","ADIXVUPICNIY4","3BDORL6HKKZHMTYWD6BFF6WBDQ9CRF","","619.8999999985099","img/land2.png","76","620.8999999985099","3","1","2","2","1,0.5,0.5,0.5,1,0.5,0.5,0.5,1","0.5,1,0.5,0.5,0.5,1,1,0.5,0.5","3","",""
"","html-keyboard-response","231","105840","0.0-231.0","38JBBYETQPWR45E6PNQZMKHSDTXE4K","ADIXVUPICNIY4","3BDORL6HKKZHMTYWD6BFF6WBDQ9CRF","","null","<img src=""img/land2.png"" style=""width:200px; border:14px solid green;"">","null","","","","","","","","","",""
"","image-keyboard-response","232","106465","0.0-232.0","38JBBYETQPWR45E6PNQZMKHSDTXE4K","ADIXVUPICNIY4","3BDORL6HKKZHMTYWD6BFF6WBDQ9CRF","","623.3000000044703","img/land2.png","76","624.0999999940395","3","1","2","2","1,0.5,0.5,0.5,1,0.5,0.5,0.5,1","0.5,1,0.5,0.5,0.5,1,1,0.5,0.5","3","",""
"","html-keyboard-response","233","106767","0.0-233.0","38JBBYETQPWR45E6PNQZMKHSDTXE4K","ADIXVUPICNIY4","3BDORL6HKKZHMTYWD6BFF6WBDQ9CRF","","null","<img src=""img/land2.png"" style=""width:200px; border:14px solid green;"">","null","","","","","","","","","",""
"","image-keyboard-response","234","107405","0.0-234.0","38JBBYETQPWR45E6PNQZMKHSDTXE4K","ADIXVUPICNIY4","3BDORL6HKKZHMTYWD6BFF6WBDQ9CRF","","637.8999999985099","img/land6.png","75","638.4000000059605","2","1","1","2","1,0.5,0.5,0.5,1,0.5,0.5,0.5,1","0.5,1,0.5,0.5,0.5,1,1,0.5,0.5","3","",""
"","html-keyboard-response","235","107708","0.0-235.0","38JBBYETQPWR45E6PNQZMKHSDTXE4K","ADIXVUPICNIY4","3BDORL6HKKZHMTYWD6BFF6WBDQ9CRF","","null","<img src=""img/land6.png"" style=""width:200px; border:14px solid green;"">","null","","","","","","","","","",""
"","image-keyboard-response","236","108505","0.0-236.0","38JBBYETQPWR45E6PNQZMKHSDTXE4K","ADIXVUPICNIY4","3BDORL6HKKZHMTYWD6BFF6WBDQ9CRF","","796.1000000014901","img/land5.png","74","797","1","1","3","2","1,0.5,0.5,0.5,1,0.5,0.5,0.5,1","0.5,1,0.5,0.5,0.5,1,1,0.5,0.5","3","",""
"","html-keyboard-response","237","108806","0.0-237.0","38JBBYETQPWR45E6PNQZMKHSDTXE4K","ADIXVUPICNIY4","3BDORL6HKKZHMTYWD6BFF6WBDQ9CRF","","null","<img src=""img/land5.png"" style=""width:200px; border:14px solid green;"">","null","","","","","","","","","",""
"","image-keyboard-response","238","109625","0.0-238.0","38JBBYETQPWR45E6PNQZMKHSDTXE4K","ADIXVUPICNIY4","3BDORL6HKKZHMTYWD6BFF6WBDQ9CRF","","818.6999999955297","img/land2.png","75","819.3000000044703","2","1","2","2","1,0.5,0.5,0.5,1,0.5,0.5,0.5,1","0.5,1,0.5,0.5,0.5,1,1,0.5,0.5","3","",""
"","html-keyboard-response","239","109927","0.0-239.0","38JBBYETQPWR45E6PNQZMKHSDTXE4K","ADIXVUPICNIY4","3BDORL6HKKZHMTYWD6BFF6WBDQ9CRF","","null","<img src=""img/land2.png"" style=""width:200px; border:14px solid green;"">","null","","","","","","","","","",""
"","image-keyboard-response","240","110818","0.0-240.0","38JBBYETQPWR45E6PNQZMKHSDTXE4K","ADIXVUPICNIY4","3BDORL6HKKZHMTYWD6BFF6WBDQ9CRF","","890.1000000014901","img/land5.png","74","890.6000000014901","1","1","3","2","1,0.5,0.5,0.5,1,0.5,0.5,0.5,1","0.5,1,0.5,0.5,0.5,1,1,0.5,0.5","3","",""
"","html-keyboard-response","241","111119","0.0-241.0","38JBBYETQPWR45E6PNQZMKHSDTXE4K","ADIXVUPICNIY4","3BDORL6HKKZHMTYWD6BFF6WBDQ9CRF","","null","<img src=""img/land5.png"" style=""width:200px; border:14px solid green;"">","null","","","","","","","","","",""
"","image-keyboard-response","242","111682","0.0-242.0","38JBBYETQPWR45E6PNQZMKHSDTXE4K","ADIXVUPICNIY4","3BDORL6HKKZHMTYWD6BFF6WBDQ9CRF","","562.3000000044703","img/land6.png","75","562.8999999985099","2","1","1","2","1,0.5,0.5,0.5,1,0.5,0.5,0.5,1","0.5,1,0.5,0.5,0.5,1,1,0.5,0.5","3","",""
"","html-keyboard-response","243","111983","0.0-243.0","38JBBYETQPWR45E6PNQZMKHSDTXE4K","ADIXVUPICNIY4","3BDORL6HKKZHMTYWD6BFF6WBDQ9CRF","","null","<img src=""img/land6.png"" style=""width:200px; border:14px solid green;"">","null","","","","","","","","","",""
"","image-keyboard-response","244","112506","0.0-244.0","38JBBYETQPWR45E6PNQZMKHSDTXE4K","ADIXVUPICNIY4","3BDORL6HKKZHMTYWD6BFF6WBDQ9CRF","","522.2000000029802","img/land5.png","74","522.8000000044703","1","1","3","2","1,0.5,0.5,0.5,1,0.5,0.5,0.5,1","0.5,1,0.5,0.5,0.5,1,1,0.5,0.5","3","",""
"","html-keyboard-response","245","112807","0.0-245.0","38JBBYETQPWR45E6PNQZMKHSDTXE4K","ADIXVUPICNIY4","3BDORL6HKKZHMTYWD6BFF6WBDQ9CRF","","null","<img src=""img/land5.png"" style=""width:200px; border:14px solid green;"">","null","","","","","","","","","",""
"","image-keyboard-response","246","113332","0.0-246.0","38JBBYETQPWR45E6PNQZMKHSDTXE4K","ADIXVUPICNIY4","3BDORL6HKKZHMTYWD6BFF6WBDQ9CRF","","523.5","img/land6.png","75","524.1000000014901","2","1","1","2","1,0.5,0.5,0.5,1,0.5,0.5,0.5,1","0.5,1,0.5,0.5,0.5,1,1,0.5,0.5","3","",""
"","html-keyboard-response","247","113633","0.0-247.0","38JBBYETQPWR45E6PNQZMKHSDTXE4K","ADIXVUPICNIY4","3BDORL6HKKZHMTYWD6BFF6WBDQ9CRF","","null","<img src=""img/land6.png"" style=""width:200px; border:14px solid green;"">","null","","","","","","","","","",""
"","image-keyboard-response","248","114066","0.0-248.0","38JBBYETQPWR45E6PNQZMKHSDTXE4K","ADIXVUPICNIY4","3BDORL6HKKZHMTYWD6BFF6WBDQ9CRF","","432.40000000596046","img/land6.png","75","432.79999999701977","2","1","1","2","1,0.5,0.5,0.5,1,0.5,0.5,0.5,1","0.5,1,0.5,0.5,0.5,1,1,0.5,0.5","3","",""
"","html-keyboard-response","249","114367","0.0-249.0","38JBBYETQPWR45E6PNQZMKHSDTXE4K","ADIXVUPICNIY4","3BDORL6HKKZHMTYWD6BFF6WBDQ9CRF","","null","<img src=""img/land6.png"" style=""width:200px; border:14px solid green;"">","null","","","","","","","","","",""
"","image-keyboard-response","250","114763","0.0-250.0","38JBBYETQPWR45E6PNQZMKHSDTXE4K","ADIXVUPICNIY4","3BDORL6HKKZHMTYWD6BFF6WBDQ9CRF","","393.6000000014901","img/land6.png","75","395","2","1","1","2","1,0.5,0.5,0.5,1,0.5,0.5,0.5,1","0.5,1,0.5,0.5,0.5,1,1,0.5,0.5","3","",""
"","html-keyboard-response","251","115064","0.0-251.0","38JBBYETQPWR45E6PNQZMKHSDTXE4K","ADIXVUPICNIY4","3BDORL6HKKZHMTYWD6BFF6WBDQ9CRF","","null","<img src=""img/land6.png"" style=""width:200px; border:14px solid green;"">","null","","","","","","","","","",""
"","image-keyboard-response","252","115576","0.0-252.0","38JBBYETQPWR45E6PNQZMKHSDTXE4K","ADIXVUPICNIY4","3BDORL6HKKZHMTYWD6BFF6WBDQ9CRF","","511.30000000447035","img/land5.png","74","511.80000000447035","1","1","3","2","1,0.5,0.5,0.5,1,0.5,0.5,0.5,1","0.5,1,0.5,0.5,0.5,1,1,0.5,0.5","3","",""
"","html-keyboard-response","253","115877","0.0-253.0","38JBBYETQPWR45E6PNQZMKHSDTXE4K","ADIXVUPICNIY4","3BDORL6HKKZHMTYWD6BFF6WBDQ9CRF","","null","<img src=""img/land5.png"" style=""width:200px; border:14px solid green;"">","null","","","","","","","","","",""
"","image-keyboard-response","254","116367","0.0-254.0","38JBBYETQPWR45E6PNQZMKHSDTXE4K","ADIXVUPICNIY4","3BDORL6HKKZHMTYWD6BFF6WBDQ9CRF","","489.8999999985099","img/land6.png","75","490.6000000014901","2","1","1","2","1,0.5,0.5,0.5,1,0.5,0.5,0.5,1","0.5,1,0.5,0.5,0.5,1,1,0.5,0.5","3","",""
"","html-keyboard-response","255","116668","0.0-255.0","38JBBYETQPWR45E6PNQZMKHSDTXE4K","ADIXVUPICNIY4","3BDORL6HKKZHMTYWD6BFF6WBDQ9CRF","","null","<img src=""img/land6.png"" style=""width:200px; border:14px solid green;"">","null","","","","","","","","","",""
"","image-keyboard-response","256","117103","0.0-256.0","38JBBYETQPWR45E6PNQZMKHSDTXE4K","ADIXVUPICNIY4","3BDORL6HKKZHMTYWD6BFF6WBDQ9CRF","","433.5","img/land6.png","75","434.19999999552965","2","1","1","2","1,0.5,0.5,0.5,1,0.5,0.5,0.5,1","0.5,1,0.5,0.5,0.5,1,1,0.5,0.5","3","",""
"","html-keyboard-response","257","117404","0.0-257.0","38JBBYETQPWR45E6PNQZMKHSDTXE4K","ADIXVUPICNIY4","3BDORL6HKKZHMTYWD6BFF6WBDQ9CRF","","null","<img src=""img/land6.png"" style=""width:200px; border:14px solid green;"">","null","","","","","","","","","",""
"","image-keyboard-response","258","118131","0.0-258.0","38JBBYETQPWR45E6PNQZMKHSDTXE4K","ADIXVUPICNIY4","3BDORL6HKKZHMTYWD6BFF6WBDQ9CRF","","725.8999999985099","img/land5.png","74","726.6000000014901","1","1","3","2","1,0.5,0.5,0.5,1,0.5,0.5,0.5,1","0.5,1,0.5,0.5,0.5,1,1,0.5,0.5","3","",""
"","html-keyboard-response","259","118432","0.0-259.0","38JBBYETQPWR45E6PNQZMKHSDTXE4K","ADIXVUPICNIY4","3BDORL6HKKZHMTYWD6BFF6WBDQ9CRF","","null","<img src=""img/land5.png"" style=""width:200px; border:14px solid green;"">","null","","","","","","","","","",""
"","image-keyboard-response","260","118881","0.0-260.0","38JBBYETQPWR45E6PNQZMKHSDTXE4K","ADIXVUPICNIY4","3BDORL6HKKZHMTYWD6BFF6WBDQ9CRF","","447.70000000298023","img/land6.png","75","448.30000000447035","2","1","1","2","1,0.5,0.5,0.5,1,0.5,0.5,0.5,1","0.5,1,0.5,0.5,0.5,1,1,0.5,0.5","3","",""
"","html-keyboard-response","261","119182","0.0-261.0","38JBBYETQPWR45E6PNQZMKHSDTXE4K","ADIXVUPICNIY4","3BDORL6HKKZHMTYWD6BFF6WBDQ9CRF","","null","<img src=""img/land6.png"" style=""width:200px; border:14px solid green;"">","null","","","","","","","","","",""
"","image-keyboard-response","262","119562","0.0-262.0","38JBBYETQPWR45E6PNQZMKHSDTXE4K","ADIXVUPICNIY4","3BDORL6HKKZHMTYWD6BFF6WBDQ9CRF","","379","img/land6.png","75","379.5","2","1","1","2","1,0.5,0.5,0.5,1,0.5,0.5,0.5,1","0.5,1,0.5,0.5,0.5,1,1,0.5,0.5","3","",""
"","html-keyboard-response","263","119863","0.0-263.0","38JBBYETQPWR45E6PNQZMKHSDTXE4K","ADIXVUPICNIY4","3BDORL6HKKZHMTYWD6BFF6WBDQ9CRF","","null","<img src=""img/land6.png"" style=""width:200px; border:14px solid green;"">","null","","","","","","","","","",""
"","image-keyboard-response","264","120226","0.0-264.0","38JBBYETQPWR45E6PNQZMKHSDTXE4K","ADIXVUPICNIY4","3BDORL6HKKZHMTYWD6BFF6WBDQ9CRF","","361.80000000447035","img/land6.png","75","362.3999999985099","2","1","1","2","1,0.5,0.5,0.5,1,0.5,0.5,0.5,1","0.5,1,0.5,0.5,0.5,1,1,0.5,0.5","3","",""
"","html-keyboard-response","265","120529","0.0-265.0","38JBBYETQPWR45E6PNQZMKHSDTXE4K","ADIXVUPICNIY4","3BDORL6HKKZHMTYWD6BFF6WBDQ9CRF","","null","<img src=""img/land6.png"" style=""width:200px; border:14px solid green;"">","null","","","","","","","","","",""
"","image-keyboard-response","266","120855","0.0-266.0","38JBBYETQPWR45E6PNQZMKHSDTXE4K","ADIXVUPICNIY4","3BDORL6HKKZHMTYWD6BFF6WBDQ9CRF","","325.6000000014901","img/land6.png","75","326.20000000298023","2","1","1","2","1,0.5,0.5,0.5,1,0.5,0.5,0.5,1","0.5,1,0.5,0.5,0.5,1,1,0.5,0.5","3","",""
"","html-keyboard-response","267","121167","0.0-267.0","38JBBYETQPWR45E6PNQZMKHSDTXE4K","ADIXVUPICNIY4","3BDORL6HKKZHMTYWD6BFF6WBDQ9CRF","","null","<img src=""img/land6.png"" style=""width:200px; border:14px solid green;"">","null","","","","","","","","","",""
"","image-keyboard-response","268","121521","0.0-268.0","38JBBYETQPWR45E6PNQZMKHSDTXE4K","ADIXVUPICNIY4","3BDORL6HKKZHMTYWD6BFF6WBDQ9CRF","","353.5","img/land6.png","75","354.19999999552965","2","1","1","2","1,0.5,0.5,0.5,1,0.5,0.5,0.5,1","0.5,1,0.5,0.5,0.5,1,1,0.5,0.5","3","",""
"","html-keyboard-response","269","121823","0.0-269.0","38JBBYETQPWR45E6PNQZMKHSDTXE4K","ADIXVUPICNIY4","3BDORL6HKKZHMTYWD6BFF6WBDQ9CRF","","null","<img src=""img/land6.png"" style=""width:200px; border:14px solid green;"">","null","","","","","","","","","",""
"","image-keyboard-response","270","122246","0.0-270.0","38JBBYETQPWR45E6PNQZMKHSDTXE4K","ADIXVUPICNIY4","3BDORL6HKKZHMTYWD6BFF6WBDQ9CRF","","421.8999999985099","img/land2.png","74","422.69999999552965","1","0","2","2","1,0.5,0.5,0.5,1,0.5,0.5,0.5,1","0.5,1,0.5,0.5,0.5,1,1,0.5,0.5","3","",""
"","html-keyboard-response","271","122547","0.0-271.0","38JBBYETQPWR45E6PNQZMKHSDTXE4K","ADIXVUPICNIY4","3BDORL6HKKZHMTYWD6BFF6WBDQ9CRF","","null","<img src=""img/land2.png"" style=""width:200px;border:14px solid red;"">","null","","","","","","","","","",""
"","image-keyboard-response","272","123085","0.0-272.0","38JBBYETQPWR45E6PNQZMKHSDTXE4K","ADIXVUPICNIY4","3BDORL6HKKZHMTYWD6BFF6WBDQ9CRF","","537.3000000044703","img/land6.png","75","538","2","1","1","2","1,0.5,0.5,0.5,1,0.5,0.5,0.5,1","0.5,1,0.5,0.5,0.5,1,1,0.5,0.5","3","",""
"","html-keyboard-response","273","123400","0.0-273.0","38JBBYETQPWR45E6PNQZMKHSDTXE4K","ADIXVUPICNIY4","3BDORL6HKKZHMTYWD6BFF6WBDQ9CRF","","null","<img src=""img/land6.png"" style=""width:200px; border:14px solid green;"">","null","","","","","","","","","",""
"","image-keyboard-response","274","123879","0.0-274.0","38JBBYETQPWR45E6PNQZMKHSDTXE4K","ADIXVUPICNIY4","3BDORL6HKKZHMTYWD6BFF6WBDQ9CRF","","478","img/land2.png","76","478.6000000014901","3","1","2","2","1,0.5,0.5,0.5,1,0.5,0.5,0.5,1","0.5,1,0.5,0.5,0.5,1,1,0.5,0.5","3","",""
"","html-keyboard-response","275","124188","0.0-275.0","38JBBYETQPWR45E6PNQZMKHSDTXE4K","ADIXVUPICNIY4","3BDORL6HKKZHMTYWD6BFF6WBDQ9CRF","","null","<img src=""img/land2.png"" style=""width:200px; border:14px solid green;"">","null","","","","","","","","","",""
"","image-keyboard-response","276","124951","0.0-276.0","38JBBYETQPWR45E6PNQZMKHSDTXE4K","ADIXVUPICNIY4","3BDORL6HKKZHMTYWD6BFF6WBDQ9CRF","","762.5","img/land5.png","74","763.1000000014901","1","1","3","2","1,0.5,0.5,0.5,1,0.5,0.5,0.5,1","0.5,1,0.5,0.5,0.5,1,1,0.5,0.5","3","",""
"","html-keyboard-response","277","125252","0.0-277.0","38JBBYETQPWR45E6PNQZMKHSDTXE4K","ADIXVUPICNIY4","3BDORL6HKKZHMTYWD6BFF6WBDQ9CRF","","null","<img src=""img/land5.png"" style=""width:200px; border:14px solid green;"">","null","","","","","","","","","",""
"","image-keyboard-response","278","125693","0.0-278.0","38JBBYETQPWR45E6PNQZMKHSDTXE4K","ADIXVUPICNIY4","3BDORL6HKKZHMTYWD6BFF6WBDQ9CRF","","440.1000000014901","img/land2.png","75","440.70000000298023","2","0","2","2","1,0.5,0.5,0.5,1,0.5,0.5,0.5,1","0.5,1,0.5,0.5,0.5,1,1,0.5,0.5","3","",""
"","html-keyboard-response","279","125995","0.0-279.0","38JBBYETQPWR45E6PNQZMKHSDTXE4K","ADIXVUPICNIY4","3BDORL6HKKZHMTYWD6BFF6WBDQ9CRF","","null","<img src=""img/land2.png"" style=""width:200px;border:14px solid red;"">","null","","","","","","","","","",""
"","image-keyboard-response","280","127430","0.0-280.0","38JBBYETQPWR45E6PNQZMKHSDTXE4K","ADIXVUPICNIY4","3BDORL6HKKZHMTYWD6BFF6WBDQ9CRF","","1434.5","img/land6.png","75","1435.2000000029802","2","1","1","2","1,0.5,0.5,0.5,1,0.5,0.5,0.5,1","0.5,1,0.5,0.5,0.5,1,1,0.5,0.5","3","",""
"","html-keyboard-response","281","127731","0.0-281.0","38JBBYETQPWR45E6PNQZMKHSDTXE4K","ADIXVUPICNIY4","3BDORL6HKKZHMTYWD6BFF6WBDQ9CRF","","null","<img src=""img/land6.png"" style=""width:200px; border:14px solid green;"">","null","","","","","","","","","",""
"","image-keyboard-response","282","128087","0.0-282.0","38JBBYETQPWR45E6PNQZMKHSDTXE4K","ADIXVUPICNIY4","3BDORL6HKKZHMTYWD6BFF6WBDQ9CRF","","354.70000000298023","img/land6.png","75","355.30000000447035","2","1","1","2","1,0.5,0.5,0.5,1,0.5,0.5,0.5,1","0.5,1,0.5,0.5,0.5,1,1,0.5,0.5","3","",""
"","html-keyboard-response","283","128388","0.0-283.0","38JBBYETQPWR45E6PNQZMKHSDTXE4K","ADIXVUPICNIY4","3BDORL6HKKZHMTYWD6BFF6WBDQ9CRF","","null","<img src=""img/land6.png"" style=""width:200px; border:14px solid green;"">","null","","","","","","","","","",""
"","image-keyboard-response","284","128952","0.0-284.0","38JBBYETQPWR45E6PNQZMKHSDTXE4K","ADIXVUPICNIY4","3BDORL6HKKZHMTYWD6BFF6WBDQ9CRF","","563.2000000029802","img/land5.png","74","563.8999999985099","1","1","3","2","1,0.5,0.5,0.5,1,0.5,0.5,0.5,1","0.5,1,0.5,0.5,0.5,1,1,0.5,0.5","3","",""
"","html-keyboard-response","285","129253","0.0-285.0","38JBBYETQPWR45E6PNQZMKHSDTXE4K","ADIXVUPICNIY4","3BDORL6HKKZHMTYWD6BFF6WBDQ9CRF","","null","<img src=""img/land5.png"" style=""width:200px; border:14px solid green;"">","null","","","","","","","","","",""
"","image-keyboard-response","286","129907","0.0-286.0","38JBBYETQPWR45E6PNQZMKHSDTXE4K","ADIXVUPICNIY4","3BDORL6HKKZHMTYWD6BFF6WBDQ9CRF","","652.7000000029802","img/land6.png","75","653.2000000029802","2","1","1","2","1,0.5,0.5,0.5,1,0.5,0.5,0.5,1","0.5,1,0.5,0.5,0.5,1,1,0.5,0.5","3","",""
"","html-keyboard-response","287","130209","0.0-287.0","38JBBYETQPWR45E6PNQZMKHSDTXE4K","ADIXVUPICNIY4","3BDORL6HKKZHMTYWD6BFF6WBDQ9CRF","","null","<img src=""img/land6.png"" style=""width:200px; border:14px solid green;"">","null","","","","","","","","","",""
"","image-keyboard-response","288","130572","0.0-288.0","38JBBYETQPWR45E6PNQZMKHSDTXE4K","ADIXVUPICNIY4","3BDORL6HKKZHMTYWD6BFF6WBDQ9CRF","","362.70000000298023","img/land6.png","75","363.20000000298023","2","1","1","2","1,0.5,0.5,0.5,1,0.5,0.5,0.5,1","0.5,1,0.5,0.5,0.5,1,1,0.5,0.5","3","",""
"","html-keyboard-response","289","130874","0.0-289.0","38JBBYETQPWR45E6PNQZMKHSDTXE4K","ADIXVUPICNIY4","3BDORL6HKKZHMTYWD6BFF6WBDQ9CRF","","null","<img src=""img/land6.png"" style=""width:200px; border:14px solid green;"">","null","","","","","","","","","",""
"","image-keyboard-response","290","131172","0.0-290.0","38JBBYETQPWR45E6PNQZMKHSDTXE4K","ADIXVUPICNIY4","3BDORL6HKKZHMTYWD6BFF6WBDQ9CRF","","297.6000000014901","img/land6.png","75","298.19999999552965","2","1","1","2","1,0.5,0.5,0.5,1,0.5,0.5,0.5,1","0.5,1,0.5,0.5,0.5,1,1,0.5,0.5","3","",""
"","html-keyboard-response","291","131474","0.0-291.0","38JBBYETQPWR45E6PNQZMKHSDTXE4K","ADIXVUPICNIY4","3BDORL6HKKZHMTYWD6BFF6WBDQ9CRF","","null","<img src=""img/land6.png"" style=""width:200px; border:14px solid green;"">","null","","","","","","","","","",""
"","image-keyboard-response","292","131936","0.0-292.0","38JBBYETQPWR45E6PNQZMKHSDTXE4K","ADIXVUPICNIY4","3BDORL6HKKZHMTYWD6BFF6WBDQ9CRF","","461.80000000447035","img/land2.png","76","462.3999999985099","3","1","2","2","1,0.5,0.5,0.5,1,0.5,0.5,0.5,1","0.5,1,0.5,0.5,0.5,1,1,0.5,0.5","3","",""
"","html-keyboard-response","293","132238","0.0-293.0","38JBBYETQPWR45E6PNQZMKHSDTXE4K","ADIXVUPICNIY4","3BDORL6HKKZHMTYWD6BFF6WBDQ9CRF","","null","<img src=""img/land2.png"" style=""width:200px; border:14px solid green;"">","null","","","","","","","","","",""
"","image-keyboard-response","294","132699","0.0-294.0","38JBBYETQPWR45E6PNQZMKHSDTXE4K","ADIXVUPICNIY4","3BDORL6HKKZHMTYWD6BFF6WBDQ9CRF","","460.1000000014901","img/land6.png","75","460.79999999701977","2","1","1","2","1,0.5,0.5,0.5,1,0.5,0.5,0.5,1","0.5,1,0.5,0.5,0.5,1,1,0.5,0.5","3","",""
"","html-keyboard-response","295","133001","0.0-295.0","38JBBYETQPWR45E6PNQZMKHSDTXE4K","ADIXVUPICNIY4","3BDORL6HKKZHMTYWD6BFF6WBDQ9CRF","","null","<img src=""img/land6.png"" style=""width:200px; border:14px solid green;"">","null","","","","","","","","","",""
"","image-keyboard-response","296","133394","0.0-296.0","38JBBYETQPWR45E6PNQZMKHSDTXE4K","ADIXVUPICNIY4","3BDORL6HKKZHMTYWD6BFF6WBDQ9CRF","","392.6000000014901","img/land6.png","75","393.5","2","1","1","2","1,0.5,0.5,0.5,1,0.5,0.5,0.5,1","0.5,1,0.5,0.5,0.5,1,1,0.5,0.5","3","",""
"","html-keyboard-response","297","133695","0.0-297.0","38JBBYETQPWR45E6PNQZMKHSDTXE4K","ADIXVUPICNIY4","3BDORL6HKKZHMTYWD6BFF6WBDQ9CRF","","null","<img src=""img/land6.png"" style=""width:200px; border:14px solid green;"">","null","","","","","","","","","",""
"","image-keyboard-response","298","134105","0.0-298.0","38JBBYETQPWR45E6PNQZMKHSDTXE4K","ADIXVUPICNIY4","3BDORL6HKKZHMTYWD6BFF6WBDQ9CRF","","409.1000000014901","img/land6.png","75","409.8999999985099","2","1","1","2","1,0.5,0.5,0.5,1,0.5,0.5,0.5,1","0.5,1,0.5,0.5,0.5,1,1,0.5,0.5","3","",""
"","html-keyboard-response","299","134416","0.0-299.0","38JBBYETQPWR45E6PNQZMKHSDTXE4K","ADIXVUPICNIY4","3BDORL6HKKZHMTYWD6BFF6WBDQ9CRF","","null","<img src=""img/land6.png"" style=""width:200px; border:14px solid green;"">","null","","","","","","","","","",""
"","image-keyboard-response","300","135124","0.0-300.0","38JBBYETQPWR45E6PNQZMKHSDTXE4K","ADIXVUPICNIY4","3BDORL6HKKZHMTYWD6BFF6WBDQ9CRF","","708","img/land5.png","74","708.5","1","1","3","2","1,0.5,0.5,0.5,1,0.5,0.5,0.5,1","0.5,1,0.5,0.5,0.5,1,1,0.5,0.5","3","",""
"","html-keyboard-response","301","135427","0.0-301.0","38JBBYETQPWR45E6PNQZMKHSDTXE4K","ADIXVUPICNIY4","3BDORL6HKKZHMTYWD6BFF6WBDQ9CRF","","null","<img src=""img/land5.png"" style=""width:200px; border:14px solid green;"">","null","","","","","","","","","",""
"","image-keyboard-response","302","136822","0.0-302.0","38JBBYETQPWR45E6PNQZMKHSDTXE4K","ADIXVUPICNIY4","3BDORL6HKKZHMTYWD6BFF6WBDQ9CRF","","1394.5","img/land1.png","74","1395.1000000014901","1","1","3","1","1,0.5,0.5,0.5,1,0.5,0.5,0.5,1","1,0.5,0.5,0.5,1,0.5,0.5,0.5,1","1","",""
"","html-keyboard-response","303","137123","0.0-303.0","38JBBYETQPWR45E6PNQZMKHSDTXE4K","ADIXVUPICNIY4","3BDORL6HKKZHMTYWD6BFF6WBDQ9CRF","","null","<img src=""img/land1.png"" style=""width:200px; border:14px solid green;"">","null","","","","","","","","","",""
"","image-keyboard-response","304","137585","0.0-304.0","38JBBYETQPWR45E6PNQZMKHSDTXE4K","ADIXVUPICNIY4","3BDORL6HKKZHMTYWD6BFF6WBDQ9CRF","","461.3999999985099","img/land3.png","75","462","2","1","1","1","1,0.5,0.5,0.5,1,0.5,0.5,0.5,1","1,0.5,0.5,0.5,1,0.5,0.5,0.5,1","1","",""
"","html-keyboard-response","305","137886","0.0-305.0","38JBBYETQPWR45E6PNQZMKHSDTXE4K","ADIXVUPICNIY4","3BDORL6HKKZHMTYWD6BFF6WBDQ9CRF","","null","<img src=""img/land3.png"" style=""width:200px; border:14px solid green;"">","null","","","","","","","","","",""
"","image-keyboard-response","306","138842","0.0-306.0","38JBBYETQPWR45E6PNQZMKHSDTXE4K","ADIXVUPICNIY4","3BDORL6HKKZHMTYWD6BFF6WBDQ9CRF","","955.2000000029802","img/land1.png","74","955.9000000059605","1","1","3","1","1,0.5,0.5,0.5,1,0.5,0.5,0.5,1","1,0.5,0.5,0.5,1,0.5,0.5,0.5,1","1","",""
"","html-keyboard-response","307","139143","0.0-307.0","38JBBYETQPWR45E6PNQZMKHSDTXE4K","ADIXVUPICNIY4","3BDORL6HKKZHMTYWD6BFF6WBDQ9CRF","","null","<img src=""img/land1.png"" style=""width:200px; border:14px solid green;"">","null","","","","","","","","","",""
"","image-keyboard-response","308","139572","0.0-308.0","38JBBYETQPWR45E6PNQZMKHSDTXE4K","ADIXVUPICNIY4","3BDORL6HKKZHMTYWD6BFF6WBDQ9CRF","","428.20000000298023","img/land3.png","75","428.80000000447035","2","1","1","1","1,0.5,0.5,0.5,1,0.5,0.5,0.5,1","1,0.5,0.5,0.5,1,0.5,0.5,0.5,1","1","",""
"","html-keyboard-response","309","139873","0.0-309.0","38JBBYETQPWR45E6PNQZMKHSDTXE4K","ADIXVUPICNIY4","3BDORL6HKKZHMTYWD6BFF6WBDQ9CRF","","null","<img src=""img/land3.png"" style=""width:200px; border:14px solid green;"">","null","","","","","","","","","",""
"","image-keyboard-response","310","140556","0.0-310.0","38JBBYETQPWR45E6PNQZMKHSDTXE4K","ADIXVUPICNIY4","3BDORL6HKKZHMTYWD6BFF6WBDQ9CRF","","682.4000000059605","img/land4.png","76","682.8999999985099","3","0","2","1","1,0.5,0.5,0.5,1,0.5,0.5,0.5,1","1,0.5,0.5,0.5,1,0.5,0.5,0.5,1","1","",""
"","html-keyboard-response","311","140857","0.0-311.0","38JBBYETQPWR45E6PNQZMKHSDTXE4K","ADIXVUPICNIY4","3BDORL6HKKZHMTYWD6BFF6WBDQ9CRF","","null","<img src=""img/land4.png"" style=""width:200px;border:14px solid red;"">","null","","","","","","","","","",""
"","image-keyboard-response","312","141877","0.0-312.0","38JBBYETQPWR45E6PNQZMKHSDTXE4K","ADIXVUPICNIY4","3BDORL6HKKZHMTYWD6BFF6WBDQ9CRF","","1018.8999999985099","img/land3.png","75","1019.3999999985099","2","0","1","1","1,0.5,0.5,0.5,1,0.5,0.5,0.5,1","1,0.5,0.5,0.5,1,0.5,0.5,0.5,1","1","",""
"","html-keyboard-response","313","142178","0.0-313.0","38JBBYETQPWR45E6PNQZMKHSDTXE4K","ADIXVUPICNIY4","3BDORL6HKKZHMTYWD6BFF6WBDQ9CRF","","null","<img src=""img/land3.png"" style=""width:200px;border:14px solid red;"">","null","","","","","","","","","",""
"","image-keyboard-response","314","142883","0.0-314.0","38JBBYETQPWR45E6PNQZMKHSDTXE4K","ADIXVUPICNIY4","3BDORL6HKKZHMTYWD6BFF6WBDQ9CRF","","704.1999999955297","img/land4.png","76","704.8999999985099","3","0","2","1","1,0.5,0.5,0.5,1,0.5,0.5,0.5,1","1,0.5,0.5,0.5,1,0.5,0.5,0.5,1","1","",""
"","html-keyboard-response","315","143186","0.0-315.0","38JBBYETQPWR45E6PNQZMKHSDTXE4K","ADIXVUPICNIY4","3BDORL6HKKZHMTYWD6BFF6WBDQ9CRF","","null","<img src=""img/land4.png"" style=""width:200px;border:14px solid red;"">","null","","","","","","","","","",""
"","image-keyboard-response","316","143650","0.0-316.0","38JBBYETQPWR45E6PNQZMKHSDTXE4K","ADIXVUPICNIY4","3BDORL6HKKZHMTYWD6BFF6WBDQ9CRF","","463.19999999552965","img/land4.png","75","463.90000000596046","2","1","2","1","1,0.5,0.5,0.5,1,0.5,0.5,0.5,1","1,0.5,0.5,0.5,1,0.5,0.5,0.5,1","1","",""
"","html-keyboard-response","317","143951","0.0-317.0","38JBBYETQPWR45E6PNQZMKHSDTXE4K","ADIXVUPICNIY4","3BDORL6HKKZHMTYWD6BFF6WBDQ9CRF","","null","<img src=""img/land4.png"" style=""width:200px; border:14px solid green;"">","null","","","","","","","","","",""
"","image-keyboard-response","318","144385","0.0-318.0","38JBBYETQPWR45E6PNQZMKHSDTXE4K","ADIXVUPICNIY4","3BDORL6HKKZHMTYWD6BFF6WBDQ9CRF","","433.30000000447035","img/land4.png","75","434.1000000014901","2","1","2","1","1,0.5,0.5,0.5,1,0.5,0.5,0.5,1","1,0.5,0.5,0.5,1,0.5,0.5,0.5,1","1","",""
"","html-keyboard-response","319","144687","0.0-319.0","38JBBYETQPWR45E6PNQZMKHSDTXE4K","ADIXVUPICNIY4","3BDORL6HKKZHMTYWD6BFF6WBDQ9CRF","","null","<img src=""img/land4.png"" style=""width:200px; border:14px solid green;"">","null","","","","","","","","","",""
"","image-keyboard-response","320","145578","0.0-320.0","38JBBYETQPWR45E6PNQZMKHSDTXE4K","ADIXVUPICNIY4","3BDORL6HKKZHMTYWD6BFF6WBDQ9CRF","","890.5","img/land3.png","75","891.2999999970198","2","1","1","1","1,0.5,0.5,0.5,1,0.5,0.5,0.5,1","1,0.5,0.5,0.5,1,0.5,0.5,0.5,1","1","",""
"","html-keyboard-response","321","145879","0.0-321.0","38JBBYETQPWR45E6PNQZMKHSDTXE4K","ADIXVUPICNIY4","3BDORL6HKKZHMTYWD6BFF6WBDQ9CRF","","null","<img src=""img/land3.png"" style=""width:200px; border:14px solid green;"">","null","","","","","","","","","",""
"","image-keyboard-response","322","146434","0.0-322.0","38JBBYETQPWR45E6PNQZMKHSDTXE4K","ADIXVUPICNIY4","3BDORL6HKKZHMTYWD6BFF6WBDQ9CRF","","554.2000000029802","img/land3.png","75","554.8000000044703","2","1","1","1","1,0.5,0.5,0.5,1,0.5,0.5,0.5,1","1,0.5,0.5,0.5,1,0.5,0.5,0.5,1","1","",""
"","html-keyboard-response","323","146737","0.0-323.0","38JBBYETQPWR45E6PNQZMKHSDTXE4K","ADIXVUPICNIY4","3BDORL6HKKZHMTYWD6BFF6WBDQ9CRF","","null","<img src=""img/land3.png"" style=""width:200px; border:14px solid green;"">","null","","","","","","","","","",""
"","image-keyboard-response","324","147472","0.0-324.0","38JBBYETQPWR45E6PNQZMKHSDTXE4K","ADIXVUPICNIY4","3BDORL6HKKZHMTYWD6BFF6WBDQ9CRF","","734.3000000044703","img/land1.png","74","735.5","1","1","3","1","1,0.5,0.5,0.5,1,0.5,0.5,0.5,1","1,0.5,0.5,0.5,1,0.5,0.5,0.5,1","1","",""
"","html-keyboard-response","325","147773","0.0-325.0","38JBBYETQPWR45E6PNQZMKHSDTXE4K","ADIXVUPICNIY4","3BDORL6HKKZHMTYWD6BFF6WBDQ9CRF","","null","<img src=""img/land1.png"" style=""width:200px; border:14px solid green;"">","null","","","","","","","","","",""
"","image-keyboard-response","326","148439","0.0-326.0","38JBBYETQPWR45E6PNQZMKHSDTXE4K","ADIXVUPICNIY4","3BDORL6HKKZHMTYWD6BFF6WBDQ9CRF","","665.2999999970198","img/land4.png","75","665.8999999985099","2","1","2","1","1,0.5,0.5,0.5,1,0.5,0.5,0.5,1","1,0.5,0.5,0.5,1,0.5,0.5,0.5,1","1","",""
"","html-keyboard-response","327","148741","0.0-327.0","38JBBYETQPWR45E6PNQZMKHSDTXE4K","ADIXVUPICNIY4","3BDORL6HKKZHMTYWD6BFF6WBDQ9CRF","","null","<img src=""img/land4.png"" style=""width:200px; border:14px solid green;"">","null","","","","","","","","","",""
"","image-keyboard-response","328","149177","0.0-328.0","38JBBYETQPWR45E6PNQZMKHSDTXE4K","ADIXVUPICNIY4","3BDORL6HKKZHMTYWD6BFF6WBDQ9CRF","","435.1000000014901","img/land3.png","75","436.29999999701977","2","1","1","1","1,0.5,0.5,0.5,1,0.5,0.5,0.5,1","1,0.5,0.5,0.5,1,0.5,0.5,0.5,1","1","",""
"","html-keyboard-response","329","149495","0.0-329.0","38JBBYETQPWR45E6PNQZMKHSDTXE4K","ADIXVUPICNIY4","3BDORL6HKKZHMTYWD6BFF6WBDQ9CRF","","null","<img src=""img/land3.png"" style=""width:200px; border:14px solid green;"">","null","","","","","","","","","",""
"","image-keyboard-response","330","150127","0.0-330.0","38JBBYETQPWR45E6PNQZMKHSDTXE4K","ADIXVUPICNIY4","3BDORL6HKKZHMTYWD6BFF6WBDQ9CRF","","630.5","img/land1.png","74","631.3999999985099","1","0","3","1","1,0.5,0.5,0.5,1,0.5,0.5,0.5,1","1,0.5,0.5,0.5,1,0.5,0.5,0.5,1","1","",""
"","html-keyboard-response","331","150428","0.0-331.0","38JBBYETQPWR45E6PNQZMKHSDTXE4K","ADIXVUPICNIY4","3BDORL6HKKZHMTYWD6BFF6WBDQ9CRF","","null","<img src=""img/land1.png"" style=""width:200px;border:14px solid red;"">","null","","","","","","","","","",""
"","image-keyboard-response","332","151013","0.0-332.0","38JBBYETQPWR45E6PNQZMKHSDTXE4K","ADIXVUPICNIY4","3BDORL6HKKZHMTYWD6BFF6WBDQ9CRF","","583.7000000029802","img/land3.png","75","584.3000000044703","2","0","1","1","1,0.5,0.5,0.5,1,0.5,0.5,0.5,1","1,0.5,0.5,0.5,1,0.5,0.5,0.5,1","1","",""
"","html-keyboard-response","333","151314","0.0-333.0","38JBBYETQPWR45E6PNQZMKHSDTXE4K","ADIXVUPICNIY4","3BDORL6HKKZHMTYWD6BFF6WBDQ9CRF","","null","<img src=""img/land3.png"" style=""width:200px;border:14px solid red;"">","null","","","","","","","","","",""
"","image-keyboard-response","334","151700","0.0-334.0","38JBBYETQPWR45E6PNQZMKHSDTXE4K","ADIXVUPICNIY4","3BDORL6HKKZHMTYWD6BFF6WBDQ9CRF","","385.20000000298023","img/land1.png","75","385.69999999552965","2","1","3","1","1,0.5,0.5,0.5,1,0.5,0.5,0.5,1","1,0.5,0.5,0.5,1,0.5,0.5,0.5,1","1","",""
"","html-keyboard-response","335","152001","0.0-335.0","38JBBYETQPWR45E6PNQZMKHSDTXE4K","ADIXVUPICNIY4","3BDORL6HKKZHMTYWD6BFF6WBDQ9CRF","","null","<img src=""img/land1.png"" style=""width:200px; border:14px solid green;"">","null","","","","","","","","","",""
"","image-keyboard-response","336","152430","0.0-336.0","38JBBYETQPWR45E6PNQZMKHSDTXE4K","ADIXVUPICNIY4","3BDORL6HKKZHMTYWD6BFF6WBDQ9CRF","","427.79999999701977","img/land4.png","75","428.5","2","1","2","1","1,0.5,0.5,0.5,1,0.5,0.5,0.5,1","1,0.5,0.5,0.5,1,0.5,0.5,0.5,1","1","",""
"","html-keyboard-response","337","152732","0.0-337.0","38JBBYETQPWR45E6PNQZMKHSDTXE4K","ADIXVUPICNIY4","3BDORL6HKKZHMTYWD6BFF6WBDQ9CRF","","null","<img src=""img/land4.png"" style=""width:200px; border:14px solid green;"">","null","","","","","","","","","",""
"","image-keyboard-response","338","153141","0.0-338.0","38JBBYETQPWR45E6PNQZMKHSDTXE4K","ADIXVUPICNIY4","3BDORL6HKKZHMTYWD6BFF6WBDQ9CRF","","408.6000000014901","img/land1.png","75","409.20000000298023","2","0","3","1","1,0.5,0.5,0.5,1,0.5,0.5,0.5,1","1,0.5,0.5,0.5,1,0.5,0.5,0.5,1","1","",""
"","html-keyboard-response","339","153442","0.0-339.0","38JBBYETQPWR45E6PNQZMKHSDTXE4K","ADIXVUPICNIY4","3BDORL6HKKZHMTYWD6BFF6WBDQ9CRF","","null","<img src=""img/land1.png"" style=""width:200px;border:14px solid red;"">","null","","","","","","","","","",""
"","image-keyboard-response","340","153859","0.0-340.0","38JBBYETQPWR45E6PNQZMKHSDTXE4K","ADIXVUPICNIY4","3BDORL6HKKZHMTYWD6BFF6WBDQ9CRF","","416.29999999701977","img/land1.png","75","416.90000000596046","2","1","3","1","1,0.5,0.5,0.5,1,0.5,0.5,0.5,1","1,0.5,0.5,0.5,1,0.5,0.5,0.5,1","1","",""
"","html-keyboard-response","341","154160","0.0-341.0","38JBBYETQPWR45E6PNQZMKHSDTXE4K","ADIXVUPICNIY4","3BDORL6HKKZHMTYWD6BFF6WBDQ9CRF","","null","<img src=""img/land1.png"" style=""width:200px; border:14px solid green;"">","null","","","","","","","","","",""
"","image-keyboard-response","342","154555","0.0-342.0","38JBBYETQPWR45E6PNQZMKHSDTXE4K","ADIXVUPICNIY4","3BDORL6HKKZHMTYWD6BFF6WBDQ9CRF","","394.20000000298023","img/land4.png","75","394.8999999985099","2","1","2","1","1,0.5,0.5,0.5,1,0.5,0.5,0.5,1","1,0.5,0.5,0.5,1,0.5,0.5,0.5,1","1","",""
"","html-keyboard-response","343","154856","0.0-343.0","38JBBYETQPWR45E6PNQZMKHSDTXE4K","ADIXVUPICNIY4","3BDORL6HKKZHMTYWD6BFF6WBDQ9CRF","","null","<img src=""img/land4.png"" style=""width:200px; border:14px solid green;"">","null","","","","","","","","","",""
"","image-keyboard-response","344","155256","0.0-344.0","38JBBYETQPWR45E6PNQZMKHSDTXE4K","ADIXVUPICNIY4","3BDORL6HKKZHMTYWD6BFF6WBDQ9CRF","","399","img/land3.png","75","399.5","2","0","1","1","1,0.5,0.5,0.5,1,0.5,0.5,0.5,1","1,0.5,0.5,0.5,1,0.5,0.5,0.5,1","1","",""
"","html-keyboard-response","345","155557","0.0-345.0","38JBBYETQPWR45E6PNQZMKHSDTXE4K","ADIXVUPICNIY4","3BDORL6HKKZHMTYWD6BFF6WBDQ9CRF","","null","<img src=""img/land3.png"" style=""width:200px;border:14px solid red;"">","null","","","","","","","","","",""
"","image-keyboard-response","346","155964","0.0-346.0","38JBBYETQPWR45E6PNQZMKHSDTXE4K","ADIXVUPICNIY4","3BDORL6HKKZHMTYWD6BFF6WBDQ9CRF","","406.5","img/land4.png","75","407.1000000014901","2","1","2","1","1,0.5,0.5,0.5,1,0.5,0.5,0.5,1","1,0.5,0.5,0.5,1,0.5,0.5,0.5,1","1","",""
"","html-keyboard-response","347","156266","0.0-347.0","38JBBYETQPWR45E6PNQZMKHSDTXE4K","ADIXVUPICNIY4","3BDORL6HKKZHMTYWD6BFF6WBDQ9CRF","","null","<img src=""img/land4.png"" style=""width:200px; border:14px solid green;"">","null","","","","","","","","","",""
"","image-keyboard-response","348","156670","0.0-348.0","38JBBYETQPWR45E6PNQZMKHSDTXE4K","ADIXVUPICNIY4","3BDORL6HKKZHMTYWD6BFF6WBDQ9CRF","","403.70000000298023","img/land1.png","75","404.3999999985099","2","1","3","1","1,0.5,0.5,0.5,1,0.5,0.5,0.5,1","1,0.5,0.5,0.5,1,0.5,0.5,0.5,1","1","",""
"","html-keyboard-response","349","156972","0.0-349.0","38JBBYETQPWR45E6PNQZMKHSDTXE4K","ADIXVUPICNIY4","3BDORL6HKKZHMTYWD6BFF6WBDQ9CRF","","null","<img src=""img/land1.png"" style=""width:200px; border:14px solid green;"">","null","","","","","","","","","",""
"","image-keyboard-response","350","157322","0.0-350.0","38JBBYETQPWR45E6PNQZMKHSDTXE4K","ADIXVUPICNIY4","3BDORL6HKKZHMTYWD6BFF6WBDQ9CRF","","349.3999999985099","img/land4.png","75","350","2","1","2","1","1,0.5,0.5,0.5,1,0.5,0.5,0.5,1","1,0.5,0.5,0.5,1,0.5,0.5,0.5,1","1","",""
"","html-keyboard-response","351","157623","0.0-351.0","38JBBYETQPWR45E6PNQZMKHSDTXE4K","ADIXVUPICNIY4","3BDORL6HKKZHMTYWD6BFF6WBDQ9CRF","","null","<img src=""img/land4.png"" style=""width:200px; border:14px solid green;"">","null","","","","","","","","","",""
"","image-keyboard-response","352","157943","0.0-352.0","38JBBYETQPWR45E6PNQZMKHSDTXE4K","ADIXVUPICNIY4","3BDORL6HKKZHMTYWD6BFF6WBDQ9CRF","","318.8999999985099","img/land3.png","75","319.5","2","0","1","1","1,0.5,0.5,0.5,1,0.5,0.5,0.5,1","1,0.5,0.5,0.5,1,0.5,0.5,0.5,1","1","",""
"","html-keyboard-response","353","158244","0.0-353.0","38JBBYETQPWR45E6PNQZMKHSDTXE4K","ADIXVUPICNIY4","3BDORL6HKKZHMTYWD6BFF6WBDQ9CRF","","null","<img src=""img/land3.png"" style=""width:200px;border:14px solid red;"">","null","","","","","","","","","",""
"","image-keyboard-response","354","158569","0.0-354.0","38JBBYETQPWR45E6PNQZMKHSDTXE4K","ADIXVUPICNIY4","3BDORL6HKKZHMTYWD6BFF6WBDQ9CRF","","324.30000000447035","img/land4.png","75","324.8999999985099","2","1","2","1","1,0.5,0.5,0.5,1,0.5,0.5,0.5,1","1,0.5,0.5,0.5,1,0.5,0.5,0.5,1","1","",""
"","html-keyboard-response","355","158870","0.0-355.0","38JBBYETQPWR45E6PNQZMKHSDTXE4K","ADIXVUPICNIY4","3BDORL6HKKZHMTYWD6BFF6WBDQ9CRF","","null","<img src=""img/land4.png"" style=""width:200px; border:14px solid green;"">","null","","","","","","","","","",""
"","image-keyboard-response","356","159215","0.0-356.0","38JBBYETQPWR45E6PNQZMKHSDTXE4K","ADIXVUPICNIY4","3BDORL6HKKZHMTYWD6BFF6WBDQ9CRF","","344.20000000298023","img/land4.png","75","344.70000000298023","2","1","2","1","1,0.5,0.5,0.5,1,0.5,0.5,0.5,1","1,0.5,0.5,0.5,1,0.5,0.5,0.5,1","1","",""
"","html-keyboard-response","357","159516","0.0-357.0","38JBBYETQPWR45E6PNQZMKHSDTXE4K","ADIXVUPICNIY4","3BDORL6HKKZHMTYWD6BFF6WBDQ9CRF","","null","<img src=""img/land4.png"" style=""width:200px; border:14px solid green;"">","null","","","","","","","","","",""
"","image-keyboard-response","358","159796","0.0-358.0","38JBBYETQPWR45E6PNQZMKHSDTXE4K","ADIXVUPICNIY4","3BDORL6HKKZHMTYWD6BFF6WBDQ9CRF","","279.59999999403954","img/land4.png","75","280.20000000298023","2","1","2","1","1,0.5,0.5,0.5,1,0.5,0.5,0.5,1","1,0.5,0.5,0.5,1,0.5,0.5,0.5,1","1","",""
"","html-keyboard-response","359","160097","0.0-359.0","38JBBYETQPWR45E6PNQZMKHSDTXE4K","ADIXVUPICNIY4","3BDORL6HKKZHMTYWD6BFF6WBDQ9CRF","","null","<img src=""img/land4.png"" style=""width:200px; border:14px solid green;"">","null","","","","","","","","","",""
"","image-keyboard-response","360","160406","0.0-360.0","38JBBYETQPWR45E6PNQZMKHSDTXE4K","ADIXVUPICNIY4","3BDORL6HKKZHMTYWD6BFF6WBDQ9CRF","","307.8999999985099","img/land3.png","75","308.5","2","1","1","1","1,0.5,0.5,0.5,1,0.5,0.5,0.5,1","1,0.5,0.5,0.5,1,0.5,0.5,0.5,1","1","",""
"","html-keyboard-response","361","160707","0.0-361.0","38JBBYETQPWR45E6PNQZMKHSDTXE4K","ADIXVUPICNIY4","3BDORL6HKKZHMTYWD6BFF6WBDQ9CRF","","null","<img src=""img/land3.png"" style=""width:200px; border:14px solid green;"">","null","","","","","","","","","",""
"","image-keyboard-response","362","161023","0.0-362.0","38JBBYETQPWR45E6PNQZMKHSDTXE4K","ADIXVUPICNIY4","3BDORL6HKKZHMTYWD6BFF6WBDQ9CRF","","315.20000000298023","img/land1.png","75","315.80000000447035","2","0","3","1","1,0.5,0.5,0.5,1,0.5,0.5,0.5,1","1,0.5,0.5,0.5,1,0.5,0.5,0.5,1","1","",""
