"success","trial_type","trial_index","time_elapsed","internal_node_id","assignmentID","mturkID","hitID","view_history","rt","stimulus","key_press","reactionTime","a","r","s","cond","reward_cond","reward_cond_actual","reward_matrix_idx","responses","question_order"
"true","fullscreen","0","2514","0.0-0.0","3KYQYYSHYWTQGSAOCCUOU05CVJ8ODA","AEK2SAEL9GG39","3SA4EMRVJVOCGON1OYE6FAUV3KKP05","","","","","","","","","","","","","",""
"","instructions","1","23457","0.0-1.0","3KYQYYSHYWTQGSAOCCUOU05CVJ8ODA","AEK2SAEL9GG39","3SA4EMRVJVOCGON1OYE6FAUV3KKP05","[{""page_index"":0,""viewing_time"":4220.399999976158},{""page_index"":1,""viewing_time"":1844.699999988079},{""page_index"":2,""viewing_time"":2588.199999988079},{""page_index"":3,""viewing_time"":3083.100000023842},{""page_index"":4,""viewing_time"":3081.800000011921},{""page_index"":5,""viewing_time"":1302},{""page_index"":6,""viewing_time"":3162.199999988079},{""page_index"":5,""viewing_time"":1081.800000011921},{""page_index"":6,""viewing_time"":577.6999999880791}]","20942.19999998808","","","","","","","","","","","",""
"","image-keyboard-response","2","24380","0.0-2.0","3KYQYYSHYWTQGSAOCCUOU05CVJ8ODA","AEK2SAEL9GG39","3SA4EMRVJVOCGON1OYE6FAUV3KKP05","","921.6999999880791","img/land3.png","74","922.6000000238419","1","0","3","2","0.8,0.2,0.2,0.2,0.8,0.2,0.2,0.2,0.8","0.2,0.8,0.2,0.2,0.2,0.8,0.8,0.2,0.2","3","",""
"","html-keyboard-response","3","24692","0.0-3.0","3KYQYYSHYWTQGSAOCCUOU05CVJ8ODA","AEK2SAEL9GG39","3SA4EMRVJVOCGON1OYE6FAUV3KKP05","","null","<img src=""img/land3.png"" style=""width:200px;border:14px solid red;"">","null","","","","","","","","","",""
"","image-keyboard-response","4","24755","0.0-4.0","3KYQYYSHYWTQGSAOCCUOU05CVJ8ODA","AEK2SAEL9GG39","3SA4EMRVJVOCGON1OYE6FAUV3KKP05","","62","img/land3.png","75","62.69999998807907","2","0","3","2","0.8,0.2,0.2,0.2,0.8,0.2,0.2,0.2,0.8","0.2,0.8,0.2,0.2,0.2,0.8,0.8,0.2,0.2","3","",""
"","html-keyboard-response","5","25057","0.0-5.0","3KYQYYSHYWTQGSAOCCUOU05CVJ8ODA","AEK2SAEL9GG39","3SA4EMRVJVOCGON1OYE6FAUV3KKP05","","null","<img src=""img/land3.png"" style=""width:200px;border:14px solid red;"">","null","","","","","","","","","",""
"","image-keyboard-response","6","25083","0.0-6.0","3KYQYYSHYWTQGSAOCCUOU05CVJ8ODA","AEK2SAEL9GG39","3SA4EMRVJVOCGON1OYE6FAUV3KKP05","","25.099999964237213","img/land4.png","76","25.80000001192093","3","1","1","2","0.8,0.2,0.2,0.2,0.8,0.2,0.2,0.2,0.8","0.2,0.8,0.2,0.2,0.2,0.8,0.8,0.2,0.2","3","",""
"","html-keyboard-response","7","25400","0.0-7.0","3KYQYYSHYWTQGSAOCCUOU05CVJ8ODA","AEK2SAEL9GG39","3SA4EMRVJVOCGON1OYE6FAUV3KKP05","","null","<img src=""img/land4.png"" style=""width:200px; border:14px solid green;"">","null","","","","","","","","","",""
"","image-keyboard-response","8","25419","0.0-8.0","3KYQYYSHYWTQGSAOCCUOU05CVJ8ODA","AEK2SAEL9GG39","3SA4EMRVJVOCGON1OYE6FAUV3KKP05","","18.5","img/land3.png","75","19.200000047683716","2","1","3","2","0.8,0.2,0.2,0.2,0.8,0.2,0.2,0.2,0.8","0.2,0.8,0.2,0.2,0.2,0.8,0.8,0.2,0.2","3","",""
"","html-keyboard-response","9","25727","0.0-9.0","3KYQYYSHYWTQGSAOCCUOU05CVJ8ODA","AEK2SAEL9GG39","3SA4EMRVJVOCGON1OYE6FAUV3KKP05","","null","<img src=""img/land3.png"" style=""width:200px; border:14px solid green;"">","null","","","","","","","","","",""
"","image-keyboard-response","10","25739","0.0-10.0","3KYQYYSHYWTQGSAOCCUOU05CVJ8ODA","AEK2SAEL9GG39","3SA4EMRVJVOCGON1OYE6FAUV3KKP05","","11.699999988079071","img/land4.png","74","12.300000011920929","1","0","1","2","0.8,0.2,0.2,0.2,0.8,0.2,0.2,0.2,0.8","0.2,0.8,0.2,0.2,0.2,0.8,0.8,0.2,0.2","3","",""
"","html-keyboard-response","11","26053","0.0-11.0","3KYQYYSHYWTQGSAOCCUOU05CVJ8ODA","AEK2SAEL9GG39","3SA4EMRVJVOCGON1OYE6FAUV3KKP05","","null","<img src=""img/land4.png"" style=""width:200px;border:14px solid red;"">","null","","","","","","","","","",""
"","image-keyboard-response","12","26403","0.0-12.0","3KYQYYSHYWTQGSAOCCUOU05CVJ8ODA","AEK2SAEL9GG39","3SA4EMRVJVOCGON1OYE6FAUV3KKP05","","348.9000000357628","img/land4.png","76","349.5999999642372","3","1","1","2","0.8,0.2,0.2,0.2,0.8,0.2,0.2,0.2,0.8","0.2,0.8,0.2,0.2,0.2,0.8,0.8,0.2,0.2","3","",""
"","html-keyboard-response","13","26709","0.0-13.0","3KYQYYSHYWTQGSAOCCUOU05CVJ8ODA","AEK2SAEL9GG39","3SA4EMRVJVOCGON1OYE6FAUV3KKP05","","null","<img src=""img/land4.png"" style=""width:200px; border:14px solid green;"">","null","","","","","","","","","",""
"","image-keyboard-response","14","26827","0.0-14.0","3KYQYYSHYWTQGSAOCCUOU05CVJ8ODA","AEK2SAEL9GG39","3SA4EMRVJVOCGON1OYE6FAUV3KKP05","","117.39999997615814","img/land4.png","75","118.19999998807907","2","1","1","2","0.8,0.2,0.2,0.2,0.8,0.2,0.2,0.2,0.8","0.2,0.8,0.2,0.2,0.2,0.8,0.8,0.2,0.2","3","",""
"","html-keyboard-response","15","27143","0.0-15.0","3KYQYYSHYWTQGSAOCCUOU05CVJ8ODA","AEK2SAEL9GG39","3SA4EMRVJVOCGON1OYE6FAUV3KKP05","","null","<img src=""img/land4.png"" style=""width:200px; border:14px solid green;"">","null","","","","","","","","","",""
"","image-keyboard-response","16","27155","0.0-16.0","3KYQYYSHYWTQGSAOCCUOU05CVJ8ODA","AEK2SAEL9GG39","3SA4EMRVJVOCGON1OYE6FAUV3KKP05","","11.5","img/land4.png","74","12","1","0","1","2","0.8,0.2,0.2,0.2,0.8,0.2,0.2,0.2,0.8","0.2,0.8,0.2,0.2,0.2,0.8,0.8,0.2,0.2","3","",""
"","html-keyboard-response","17","27467","0.0-17.0","3KYQYYSHYWTQGSAOCCUOU05CVJ8ODA","AEK2SAEL9GG39","3SA4EMRVJVOCGON1OYE6FAUV3KKP05","","null","<img src=""img/land4.png"" style=""width:200px;border:14px solid red;"">","null","","","","","","","","","",""
"","image-keyboard-response","18","27699","0.0-18.0","3KYQYYSHYWTQGSAOCCUOU05CVJ8ODA","AEK2SAEL9GG39","3SA4EMRVJVOCGON1OYE6FAUV3KKP05","","231.4000000357628","img/land6.png","76","232.10000002384186","3","0","2","2","0.8,0.2,0.2,0.2,0.8,0.2,0.2,0.2,0.8","0.2,0.8,0.2,0.2,0.2,0.8,0.8,0.2,0.2","3","",""
"","html-keyboard-response","19","28009","0.0-19.0","3KYQYYSHYWTQGSAOCCUOU05CVJ8ODA","AEK2SAEL9GG39","3SA4EMRVJVOCGON1OYE6FAUV3KKP05","","null","<img src=""img/land6.png"" style=""width:200px;border:14px solid red;"">","null","","","","","","","","","",""
"","image-keyboard-response","20","28107","0.0-20.0","3KYQYYSHYWTQGSAOCCUOU05CVJ8ODA","AEK2SAEL9GG39","3SA4EMRVJVOCGON1OYE6FAUV3KKP05","","97.69999998807907","img/land3.png","75","98.40000003576279","2","1","3","2","0.8,0.2,0.2,0.2,0.8,0.2,0.2,0.2,0.8","0.2,0.8,0.2,0.2,0.2,0.8,0.8,0.2,0.2","3","",""
"","html-keyboard-response","21","28413","0.0-21.0","3KYQYYSHYWTQGSAOCCUOU05CVJ8ODA","AEK2SAEL9GG39","3SA4EMRVJVOCGON1OYE6FAUV3KKP05","","null","<img src=""img/land3.png"" style=""width:200px; border:14px solid green;"">","null","","","","","","","","","",""
"","image-keyboard-response","22","28435","0.0-22.0","3KYQYYSHYWTQGSAOCCUOU05CVJ8ODA","AEK2SAEL9GG39","3SA4EMRVJVOCGON1OYE6FAUV3KKP05","","21.30000001192093","img/land4.png","74","21.799999952316284","1","1","1","2","0.8,0.2,0.2,0.2,0.8,0.2,0.2,0.2,0.8","0.2,0.8,0.2,0.2,0.2,0.8,0.8,0.2,0.2","3","",""
"","html-keyboard-response","23","28738","0.0-23.0","3KYQYYSHYWTQGSAOCCUOU05CVJ8ODA","AEK2SAEL9GG39","3SA4EMRVJVOCGON1OYE6FAUV3KKP05","","null","<img src=""img/land4.png"" style=""width:200px; border:14px solid green;"">","null","","","","","","","","","",""
"","image-keyboard-response","24","28971","0.0-24.0","3KYQYYSHYWTQGSAOCCUOU05CVJ8ODA","AEK2SAEL9GG39","3SA4EMRVJVOCGON1OYE6FAUV3KKP05","","232.5","img/land3.png","76","233.30000001192093","3","1","3","2","0.8,0.2,0.2,0.2,0.8,0.2,0.2,0.2,0.8","0.2,0.8,0.2,0.2,0.2,0.8,0.8,0.2,0.2","3","",""
"","html-keyboard-response","25","29283","0.0-25.0","3KYQYYSHYWTQGSAOCCUOU05CVJ8ODA","AEK2SAEL9GG39","3SA4EMRVJVOCGON1OYE6FAUV3KKP05","","null","<img src=""img/land3.png"" style=""width:200px; border:14px solid green;"">","null","","","","","","","","","",""
"","image-keyboard-response","26","29315","0.0-26.0","3KYQYYSHYWTQGSAOCCUOU05CVJ8ODA","AEK2SAEL9GG39","3SA4EMRVJVOCGON1OYE6FAUV3KKP05","","31.30000001192093","img/land6.png","75","32","2","0","2","2","0.8,0.2,0.2,0.2,0.8,0.2,0.2,0.2,0.8","0.2,0.8,0.2,0.2,0.2,0.8,0.8,0.2,0.2","3","",""
"","html-keyboard-response","27","29625","0.0-27.0","3KYQYYSHYWTQGSAOCCUOU05CVJ8ODA","AEK2SAEL9GG39","3SA4EMRVJVOCGON1OYE6FAUV3KKP05","","null","<img src=""img/land6.png"" style=""width:200px;border:14px solid red;"">","null","","","","","","","","","",""
"","image-keyboard-response","28","29627","0.0-28.0","3KYQYYSHYWTQGSAOCCUOU05CVJ8ODA","AEK2SAEL9GG39","3SA4EMRVJVOCGON1OYE6FAUV3KKP05","","0.9000000357627869","img/land6.png","74","1.399999976158142","1","0","2","2","0.8,0.2,0.2,0.2,0.8,0.2,0.2,0.2,0.8","0.2,0.8,0.2,0.2,0.2,0.8,0.8,0.2,0.2","3","",""
"","html-keyboard-response","29","29929","0.0-29.0","3KYQYYSHYWTQGSAOCCUOU05CVJ8ODA","AEK2SAEL9GG39","3SA4EMRVJVOCGON1OYE6FAUV3KKP05","","null","<img src=""img/land6.png"" style=""width:200px;border:14px solid red;"">","null","","","","","","","","","",""
"","image-keyboard-response","30","29931","0.0-30.0","3KYQYYSHYWTQGSAOCCUOU05CVJ8ODA","AEK2SAEL9GG39","3SA4EMRVJVOCGON1OYE6FAUV3KKP05","","1.399999976158142","img/land6.png","75","2","2","0","2","2","0.8,0.2,0.2,0.2,0.8,0.2,0.2,0.2,0.8","0.2,0.8,0.2,0.2,0.2,0.8,0.8,0.2,0.2","3","",""
"","html-keyboard-response","31","30232","0.0-31.0","3KYQYYSHYWTQGSAOCCUOU05CVJ8ODA","AEK2SAEL9GG39","3SA4EMRVJVOCGON1OYE6FAUV3KKP05","","null","<img src=""img/land6.png"" style=""width:200px;border:14px solid red;"">","null","","","","","","","","","",""
"","image-keyboard-response","32","30243","0.0-32.0","3KYQYYSHYWTQGSAOCCUOU05CVJ8ODA","AEK2SAEL9GG39","3SA4EMRVJVOCGON1OYE6FAUV3KKP05","","10.5","img/land4.png","76","11.200000047683716","3","0","1","2","0.8,0.2,0.2,0.2,0.8,0.2,0.2,0.2,0.8","0.2,0.8,0.2,0.2,0.2,0.8,0.8,0.2,0.2","3","",""
"","html-keyboard-response","33","30545","0.0-33.0","3KYQYYSHYWTQGSAOCCUOU05CVJ8ODA","AEK2SAEL9GG39","3SA4EMRVJVOCGON1OYE6FAUV3KKP05","","null","<img src=""img/land4.png"" style=""width:200px;border:14px solid red;"">","null","","","","","","","","","",""
"","image-keyboard-response","34","30555","0.0-34.0","3KYQYYSHYWTQGSAOCCUOU05CVJ8ODA","AEK2SAEL9GG39","3SA4EMRVJVOCGON1OYE6FAUV3KKP05","","9.399999976158142","img/land6.png","75","9.900000035762787","2","0","2","2","0.8,0.2,0.2,0.2,0.8,0.2,0.2,0.2,0.8","0.2,0.8,0.2,0.2,0.2,0.8,0.8,0.2,0.2","3","",""
"","html-keyboard-response","35","30857","0.0-35.0","3KYQYYSHYWTQGSAOCCUOU05CVJ8ODA","AEK2SAEL9GG39","3SA4EMRVJVOCGON1OYE6FAUV3KKP05","","null","<img src=""img/land6.png"" style=""width:200px;border:14px solid red;"">","null","","","","","","","","","",""
"","image-keyboard-response","36","30923","0.0-36.0","3KYQYYSHYWTQGSAOCCUOU05CVJ8ODA","AEK2SAEL9GG39","3SA4EMRVJVOCGON1OYE6FAUV3KKP05","","65.59999996423721","img/land4.png","74","66.39999997615814","1","1","1","2","0.8,0.2,0.2,0.2,0.8,0.2,0.2,0.2,0.8","0.2,0.8,0.2,0.2,0.2,0.8,0.8,0.2,0.2","3","",""
"","html-keyboard-response","37","31225","0.0-37.0","3KYQYYSHYWTQGSAOCCUOU05CVJ8ODA","AEK2SAEL9GG39","3SA4EMRVJVOCGON1OYE6FAUV3KKP05","","null","<img src=""img/land4.png"" style=""width:200px; border:14px solid green;"">","null","","","","","","","","","",""
"","image-keyboard-response","38","31235","0.0-38.0","3KYQYYSHYWTQGSAOCCUOU05CVJ8ODA","AEK2SAEL9GG39","3SA4EMRVJVOCGON1OYE6FAUV3KKP05","","9.399999976158142","img/land4.png","75","9.900000035762787","2","1","1","2","0.8,0.2,0.2,0.2,0.8,0.2,0.2,0.2,0.8","0.2,0.8,0.2,0.2,0.2,0.8,0.8,0.2,0.2","3","",""
"","html-keyboard-response","39","31536","0.0-39.0","3KYQYYSHYWTQGSAOCCUOU05CVJ8ODA","AEK2SAEL9GG39","3SA4EMRVJVOCGON1OYE6FAUV3KKP05","","null","<img src=""img/land4.png"" style=""width:200px; border:14px solid green;"">","null","","","","","","","","","",""
"","image-keyboard-response","40","31923","0.0-40.0","3KYQYYSHYWTQGSAOCCUOU05CVJ8ODA","AEK2SAEL9GG39","3SA4EMRVJVOCGON1OYE6FAUV3KKP05","","386.9000000357628","img/land4.png","75","387.5","2","0","1","2","0.8,0.2,0.2,0.2,0.8,0.2,0.2,0.2,0.8","0.2,0.8,0.2,0.2,0.2,0.8,0.8,0.2,0.2","3","",""
"","html-keyboard-response","41","32224","0.0-41.0","3KYQYYSHYWTQGSAOCCUOU05CVJ8ODA","AEK2SAEL9GG39","3SA4EMRVJVOCGON1OYE6FAUV3KKP05","","null","<img src=""img/land4.png"" style=""width:200px;border:14px solid red;"">","null","","","","","","","","","",""
"","image-keyboard-response","42","32275","0.0-42.0","3KYQYYSHYWTQGSAOCCUOU05CVJ8ODA","AEK2SAEL9GG39","3SA4EMRVJVOCGON1OYE6FAUV3KKP05","","50.39999997615814","img/land4.png","74","51","1","1","1","2","0.8,0.2,0.2,0.2,0.8,0.2,0.2,0.2,0.8","0.2,0.8,0.2,0.2,0.2,0.8,0.8,0.2,0.2","3","",""
"","html-keyboard-response","43","32577","0.0-43.0","3KYQYYSHYWTQGSAOCCUOU05CVJ8ODA","AEK2SAEL9GG39","3SA4EMRVJVOCGON1OYE6FAUV3KKP05","","null","<img src=""img/land4.png"" style=""width:200px; border:14px solid green;"">","null","","","","","","","","","",""
"","image-keyboard-response","44","32931","0.0-44.0","3KYQYYSHYWTQGSAOCCUOU05CVJ8ODA","AEK2SAEL9GG39","3SA4EMRVJVOCGON1OYE6FAUV3KKP05","","353.5","img/land3.png","76","354.0999999642372","3","0","3","2","0.8,0.2,0.2,0.2,0.8,0.2,0.2,0.2,0.8","0.2,0.8,0.2,0.2,0.2,0.8,0.8,0.2,0.2","3","",""
"","html-keyboard-response","45","33233","0.0-45.0","3KYQYYSHYWTQGSAOCCUOU05CVJ8ODA","AEK2SAEL9GG39","3SA4EMRVJVOCGON1OYE6FAUV3KKP05","","null","<img src=""img/land3.png"" style=""width:200px;border:14px solid red;"">","null","","","","","","","","","",""
"","image-keyboard-response","46","33267","0.0-46.0","3KYQYYSHYWTQGSAOCCUOU05CVJ8ODA","AEK2SAEL9GG39","3SA4EMRVJVOCGON1OYE6FAUV3KKP05","","33.40000003576279","img/land4.png","75","34","2","1","1","2","0.8,0.2,0.2,0.2,0.8,0.2,0.2,0.2,0.8","0.2,0.8,0.2,0.2,0.2,0.8,0.8,0.2,0.2","3","",""
"","html-keyboard-response","47","33572","0.0-47.0","3KYQYYSHYWTQGSAOCCUOU05CVJ8ODA","AEK2SAEL9GG39","3SA4EMRVJVOCGON1OYE6FAUV3KKP05","","null","<img src=""img/land4.png"" style=""width:200px; border:14px solid green;"">","null","","","","","","","","","",""
"","image-keyboard-response","48","33579","0.0-48.0","3KYQYYSHYWTQGSAOCCUOU05CVJ8ODA","AEK2SAEL9GG39","3SA4EMRVJVOCGON1OYE6FAUV3KKP05","","6.199999988079071","img/land4.png","74","6.700000047683716","1","0","1","2","0.8,0.2,0.2,0.2,0.8,0.2,0.2,0.2,0.8","0.2,0.8,0.2,0.2,0.2,0.8,0.8,0.2,0.2","3","",""
"","html-keyboard-response","49","33881","0.0-49.0","3KYQYYSHYWTQGSAOCCUOU05CVJ8ODA","AEK2SAEL9GG39","3SA4EMRVJVOCGON1OYE6FAUV3KKP05","","null","<img src=""img/land4.png"" style=""width:200px;border:14px solid red;"">","null","","","","","","","","","",""
"","image-keyboard-response","50","34139","0.0-50.0","3KYQYYSHYWTQGSAOCCUOU05CVJ8ODA","AEK2SAEL9GG39","3SA4EMRVJVOCGON1OYE6FAUV3KKP05","","257.60000002384186","img/land4.png","76","258.10000002384186","3","0","1","2","0.8,0.2,0.2,0.2,0.8,0.2,0.2,0.2,0.8","0.2,0.8,0.2,0.2,0.2,0.8,0.8,0.2,0.2","3","",""
"","html-keyboard-response","51","34442","0.0-51.0","3KYQYYSHYWTQGSAOCCUOU05CVJ8ODA","AEK2SAEL9GG39","3SA4EMRVJVOCGON1OYE6FAUV3KKP05","","null","<img src=""img/land4.png"" style=""width:200px;border:14px solid red;"">","null","","","","","","","","","",""
"","image-keyboard-response","52","34491","0.0-52.0","3KYQYYSHYWTQGSAOCCUOU05CVJ8ODA","AEK2SAEL9GG39","3SA4EMRVJVOCGON1OYE6FAUV3KKP05","","48.19999998807907","img/land6.png","75","48.80000001192093","2","0","2","2","0.8,0.2,0.2,0.2,0.8,0.2,0.2,0.2,0.8","0.2,0.8,0.2,0.2,0.2,0.8,0.8,0.2,0.2","3","",""
"","html-keyboard-response","53","34792","0.0-53.0","3KYQYYSHYWTQGSAOCCUOU05CVJ8ODA","AEK2SAEL9GG39","3SA4EMRVJVOCGON1OYE6FAUV3KKP05","","null","<img src=""img/land6.png"" style=""width:200px;border:14px solid red;"">","null","","","","","","","","","",""
"","image-keyboard-response","54","35027","0.0-54.0","3KYQYYSHYWTQGSAOCCUOU05CVJ8ODA","AEK2SAEL9GG39","3SA4EMRVJVOCGON1OYE6FAUV3KKP05","","234.5","img/land6.png","75","235.19999998807907","2","0","2","2","0.8,0.2,0.2,0.2,0.8,0.2,0.2,0.2,0.8","0.2,0.8,0.2,0.2,0.2,0.8,0.8,0.2,0.2","3","",""
"","html-keyboard-response","55","35329","0.0-55.0","3KYQYYSHYWTQGSAOCCUOU05CVJ8ODA","AEK2SAEL9GG39","3SA4EMRVJVOCGON1OYE6FAUV3KKP05","","null","<img src=""img/land6.png"" style=""width:200px;border:14px solid red;"">","null","","","","","","","","","",""
"","image-keyboard-response","56","36131","0.0-56.0","3KYQYYSHYWTQGSAOCCUOU05CVJ8ODA","AEK2SAEL9GG39","3SA4EMRVJVOCGON1OYE6FAUV3KKP05","","801.5","img/land6.png","75","802.1999999880791","2","0","2","2","0.8,0.2,0.2,0.2,0.8,0.2,0.2,0.2,0.8","0.2,0.8,0.2,0.2,0.2,0.8,0.8,0.2,0.2","3","",""
"","html-keyboard-response","57","36433","0.0-57.0","3KYQYYSHYWTQGSAOCCUOU05CVJ8ODA","AEK2SAEL9GG39","3SA4EMRVJVOCGON1OYE6FAUV3KKP05","","null","<img src=""img/land6.png"" style=""width:200px;border:14px solid red;"">","null","","","","","","","","","",""
"","image-keyboard-response","58","37035","0.0-58.0","3KYQYYSHYWTQGSAOCCUOU05CVJ8ODA","AEK2SAEL9GG39","3SA4EMRVJVOCGON1OYE6FAUV3KKP05","","601.5","img/land6.png","76","602.0999999642372","3","1","2","2","0.8,0.2,0.2,0.2,0.8,0.2,0.2,0.2,0.8","0.2,0.8,0.2,0.2,0.2,0.8,0.8,0.2,0.2","3","",""
"","html-keyboard-response","59","37337","0.0-59.0","3KYQYYSHYWTQGSAOCCUOU05CVJ8ODA","AEK2SAEL9GG39","3SA4EMRVJVOCGON1OYE6FAUV3KKP05","","null","<img src=""img/land6.png"" style=""width:200px; border:14px solid green;"">","null","","","","","","","","","",""
"","image-keyboard-response","60","37627","0.0-60.0","3KYQYYSHYWTQGSAOCCUOU05CVJ8ODA","AEK2SAEL9GG39","3SA4EMRVJVOCGON1OYE6FAUV3KKP05","","289.39999997615814","img/land6.png","74","290.10000002384186","1","0","2","2","0.8,0.2,0.2,0.2,0.8,0.2,0.2,0.2,0.8","0.2,0.8,0.2,0.2,0.2,0.8,0.8,0.2,0.2","3","",""
"","html-keyboard-response","61","37929","0.0-61.0","3KYQYYSHYWTQGSAOCCUOU05CVJ8ODA","AEK2SAEL9GG39","3SA4EMRVJVOCGON1OYE6FAUV3KKP05","","null","<img src=""img/land6.png"" style=""width:200px;border:14px solid red;"">","null","","","","","","","","","",""
"","image-keyboard-response","62","38171","0.0-62.0","3KYQYYSHYWTQGSAOCCUOU05CVJ8ODA","AEK2SAEL9GG39","3SA4EMRVJVOCGON1OYE6FAUV3KKP05","","240.89999997615814","img/land3.png","76","241.5","3","0","3","2","0.8,0.2,0.2,0.2,0.8,0.2,0.2,0.2,0.8","0.2,0.8,0.2,0.2,0.2,0.8,0.8,0.2,0.2","3","",""
"","html-keyboard-response","63","38472","0.0-63.0","3KYQYYSHYWTQGSAOCCUOU05CVJ8ODA","AEK2SAEL9GG39","3SA4EMRVJVOCGON1OYE6FAUV3KKP05","","null","<img src=""img/land3.png"" style=""width:200px;border:14px solid red;"">","null","","","","","","","","","",""
"","image-keyboard-response","64","38499","0.0-64.0","3KYQYYSHYWTQGSAOCCUOU05CVJ8ODA","AEK2SAEL9GG39","3SA4EMRVJVOCGON1OYE6FAUV3KKP05","","26.100000023841858","img/land4.png","75","26.69999998807907","2","1","1","2","0.8,0.2,0.2,0.2,0.8,0.2,0.2,0.2,0.8","0.2,0.8,0.2,0.2,0.2,0.8,0.8,0.2,0.2","3","",""
"","html-keyboard-response","65","38803","0.0-65.0","3KYQYYSHYWTQGSAOCCUOU05CVJ8ODA","AEK2SAEL9GG39","3SA4EMRVJVOCGON1OYE6FAUV3KKP05","","null","<img src=""img/land4.png"" style=""width:200px; border:14px solid green;"">","null","","","","","","","","","",""
"","image-keyboard-response","66","38811","0.0-66.0","3KYQYYSHYWTQGSAOCCUOU05CVJ8ODA","AEK2SAEL9GG39","3SA4EMRVJVOCGON1OYE6FAUV3KKP05","","6.899999976158142","img/land4.png","74","7.400000035762787","1","0","1","2","0.8,0.2,0.2,0.2,0.8,0.2,0.2,0.2,0.8","0.2,0.8,0.2,0.2,0.2,0.8,0.8,0.2,0.2","3","",""
"","html-keyboard-response","67","39113","0.0-67.0","3KYQYYSHYWTQGSAOCCUOU05CVJ8ODA","AEK2SAEL9GG39","3SA4EMRVJVOCGON1OYE6FAUV3KKP05","","null","<img src=""img/land4.png"" style=""width:200px;border:14px solid red;"">","null","","","","","","","","","",""
"","image-keyboard-response","68","39331","0.0-68.0","3KYQYYSHYWTQGSAOCCUOU05CVJ8ODA","AEK2SAEL9GG39","3SA4EMRVJVOCGON1OYE6FAUV3KKP05","","217.39999997615814","img/land4.png","76","218.0999999642372","3","0","1","2","0.8,0.2,0.2,0.2,0.8,0.2,0.2,0.2,0.8","0.2,0.8,0.2,0.2,0.2,0.8,0.8,0.2,0.2","3","",""
"","html-keyboard-response","69","39632","0.0-69.0","3KYQYYSHYWTQGSAOCCUOU05CVJ8ODA","AEK2SAEL9GG39","3SA4EMRVJVOCGON1OYE6FAUV3KKP05","","null","<img src=""img/land4.png"" style=""width:200px;border:14px solid red;"">","null","","","","","","","","","",""
"","image-keyboard-response","70","39755","0.0-70.0","3KYQYYSHYWTQGSAOCCUOU05CVJ8ODA","AEK2SAEL9GG39","3SA4EMRVJVOCGON1OYE6FAUV3KKP05","","122.39999997615814","img/land4.png","75","123","2","1","1","2","0.8,0.2,0.2,0.2,0.8,0.2,0.2,0.2,0.8","0.2,0.8,0.2,0.2,0.2,0.8,0.8,0.2,0.2","3","",""
"","html-keyboard-response","71","40056","0.0-71.0","3KYQYYSHYWTQGSAOCCUOU05CVJ8ODA","AEK2SAEL9GG39","3SA4EMRVJVOCGON1OYE6FAUV3KKP05","","null","<img src=""img/land4.png"" style=""width:200px; border:14px solid green;"">","null","","","","","","","","","",""
"","image-keyboard-response","72","40363","0.0-72.0","3KYQYYSHYWTQGSAOCCUOU05CVJ8ODA","AEK2SAEL9GG39","3SA4EMRVJVOCGON1OYE6FAUV3KKP05","","306.0999999642372","img/land6.png","75","306.89999997615814","2","0","2","2","0.8,0.2,0.2,0.2,0.8,0.2,0.2,0.2,0.8","0.2,0.8,0.2,0.2,0.2,0.8,0.8,0.2,0.2","3","",""
"","html-keyboard-response","73","40664","0.0-73.0","3KYQYYSHYWTQGSAOCCUOU05CVJ8ODA","AEK2SAEL9GG39","3SA4EMRVJVOCGON1OYE6FAUV3KKP05","","null","<img src=""img/land6.png"" style=""width:200px;border:14px solid red;"">","null","","","","","","","","","",""
"","image-keyboard-response","74","40851","0.0-74.0","3KYQYYSHYWTQGSAOCCUOU05CVJ8ODA","AEK2SAEL9GG39","3SA4EMRVJVOCGON1OYE6FAUV3KKP05","","186","img/land4.png","76","186.60000002384186","3","0","1","2","0.8,0.2,0.2,0.2,0.8,0.2,0.2,0.2,0.8","0.2,0.8,0.2,0.2,0.2,0.8,0.8,0.2,0.2","3","",""
"","html-keyboard-response","75","41153","0.0-75.0","3KYQYYSHYWTQGSAOCCUOU05CVJ8ODA","AEK2SAEL9GG39","3SA4EMRVJVOCGON1OYE6FAUV3KKP05","","null","<img src=""img/land4.png"" style=""width:200px;border:14px solid red;"">","null","","","","","","","","","",""
"","image-keyboard-response","76","41331","0.0-76.0","3KYQYYSHYWTQGSAOCCUOU05CVJ8ODA","AEK2SAEL9GG39","3SA4EMRVJVOCGON1OYE6FAUV3KKP05","","177.5","img/land4.png","74","178.0999999642372","1","0","1","2","0.8,0.2,0.2,0.2,0.8,0.2,0.2,0.2,0.8","0.2,0.8,0.2,0.2,0.2,0.8,0.8,0.2,0.2","3","",""
"","html-keyboard-response","77","41633","0.0-77.0","3KYQYYSHYWTQGSAOCCUOU05CVJ8ODA","AEK2SAEL9GG39","3SA4EMRVJVOCGON1OYE6FAUV3KKP05","","null","<img src=""img/land4.png"" style=""width:200px;border:14px solid red;"">","null","","","","","","","","","",""
"","image-keyboard-response","78","41715","0.0-78.0","3KYQYYSHYWTQGSAOCCUOU05CVJ8ODA","AEK2SAEL9GG39","3SA4EMRVJVOCGON1OYE6FAUV3KKP05","","81.69999998807907","img/land3.png","75","82.40000003576279","2","0","3","2","0.8,0.2,0.2,0.2,0.8,0.2,0.2,0.2,0.8","0.2,0.8,0.2,0.2,0.2,0.8,0.8,0.2,0.2","3","",""
"","html-keyboard-response","79","42016","0.0-79.0","3KYQYYSHYWTQGSAOCCUOU05CVJ8ODA","AEK2SAEL9GG39","3SA4EMRVJVOCGON1OYE6FAUV3KKP05","","null","<img src=""img/land3.png"" style=""width:200px;border:14px solid red;"">","null","","","","","","","","","",""
"","image-keyboard-response","80","42363","0.0-80.0","3KYQYYSHYWTQGSAOCCUOU05CVJ8ODA","AEK2SAEL9GG39","3SA4EMRVJVOCGON1OYE6FAUV3KKP05","","346.5","img/land4.png","75","347.10000002384186","2","0","1","2","0.8,0.2,0.2,0.2,0.8,0.2,0.2,0.2,0.8","0.2,0.8,0.2,0.2,0.2,0.8,0.8,0.2,0.2","3","",""
"","html-keyboard-response","81","42664","0.0-81.0","3KYQYYSHYWTQGSAOCCUOU05CVJ8ODA","AEK2SAEL9GG39","3SA4EMRVJVOCGON1OYE6FAUV3KKP05","","null","<img src=""img/land4.png"" style=""width:200px;border:14px solid red;"">","null","","","","","","","","","",""
"","image-keyboard-response","82","42723","0.0-82.0","3KYQYYSHYWTQGSAOCCUOU05CVJ8ODA","AEK2SAEL9GG39","3SA4EMRVJVOCGON1OYE6FAUV3KKP05","","58.39999997615814","img/land3.png","74","59.09999996423721","1","0","3","2","0.8,0.2,0.2,0.2,0.8,0.2,0.2,0.2,0.8","0.2,0.8,0.2,0.2,0.2,0.8,0.8,0.2,0.2","3","",""
"","html-keyboard-response","83","43024","0.0-83.0","3KYQYYSHYWTQGSAOCCUOU05CVJ8ODA","AEK2SAEL9GG39","3SA4EMRVJVOCGON1OYE6FAUV3KKP05","","null","<img src=""img/land3.png"" style=""width:200px;border:14px solid red;"">","null","","","","","","","","","",""
"","image-keyboard-response","84","43035","0.0-84.0","3KYQYYSHYWTQGSAOCCUOU05CVJ8ODA","AEK2SAEL9GG39","3SA4EMRVJVOCGON1OYE6FAUV3KKP05","","10","img/land6.png","75","10.600000023841858","2","0","2","2","0.8,0.2,0.2,0.2,0.8,0.2,0.2,0.2,0.8","0.2,0.8,0.2,0.2,0.2,0.8,0.8,0.2,0.2","3","",""
"","html-keyboard-response","85","43337","0.0-85.0","3KYQYYSHYWTQGSAOCCUOU05CVJ8ODA","AEK2SAEL9GG39","3SA4EMRVJVOCGON1OYE6FAUV3KKP05","","null","<img src=""img/land6.png"" style=""width:200px;border:14px solid red;"">","null","","","","","","","","","",""
"","image-keyboard-response","86","43363","0.0-86.0","3KYQYYSHYWTQGSAOCCUOU05CVJ8ODA","AEK2SAEL9GG39","3SA4EMRVJVOCGON1OYE6FAUV3KKP05","","25.400000035762787","img/land4.png","76","26","3","0","1","2","0.8,0.2,0.2,0.2,0.8,0.2,0.2,0.2,0.8","0.2,0.8,0.2,0.2,0.2,0.8,0.8,0.2,0.2","3","",""
"","html-keyboard-response","87","43665","0.0-87.0","3KYQYYSHYWTQGSAOCCUOU05CVJ8ODA","AEK2SAEL9GG39","3SA4EMRVJVOCGON1OYE6FAUV3KKP05","","null","<img src=""img/land4.png"" style=""width:200px;border:14px solid red;"">","null","","","","","","","","","",""
"","image-keyboard-response","88","43747","0.0-88.0","3KYQYYSHYWTQGSAOCCUOU05CVJ8ODA","AEK2SAEL9GG39","3SA4EMRVJVOCGON1OYE6FAUV3KKP05","","81.30000001192093","img/land6.png","75","82","2","1","2","2","0.8,0.2,0.2,0.2,0.8,0.2,0.2,0.2,0.8","0.2,0.8,0.2,0.2,0.2,0.8,0.8,0.2,0.2","3","",""
"","html-keyboard-response","89","44048","0.0-89.0","3KYQYYSHYWTQGSAOCCUOU05CVJ8ODA","AEK2SAEL9GG39","3SA4EMRVJVOCGON1OYE6FAUV3KKP05","","null","<img src=""img/land6.png"" style=""width:200px; border:14px solid green;"">","null","","","","","","","","","",""
"","image-keyboard-response","90","44083","0.0-90.0","3KYQYYSHYWTQGSAOCCUOU05CVJ8ODA","AEK2SAEL9GG39","3SA4EMRVJVOCGON1OYE6FAUV3KKP05","","33.89999997615814","img/land4.png","74","34.69999998807907","1","1","1","2","0.8,0.2,0.2,0.2,0.8,0.2,0.2,0.2,0.8","0.2,0.8,0.2,0.2,0.2,0.8,0.8,0.2,0.2","3","",""
"","html-keyboard-response","91","44384","0.0-91.0","3KYQYYSHYWTQGSAOCCUOU05CVJ8ODA","AEK2SAEL9GG39","3SA4EMRVJVOCGON1OYE6FAUV3KKP05","","null","<img src=""img/land4.png"" style=""width:200px; border:14px solid green;"">","null","","","","","","","","","",""
"","image-keyboard-response","92","44387","0.0-92.0","3KYQYYSHYWTQGSAOCCUOU05CVJ8ODA","AEK2SAEL9GG39","3SA4EMRVJVOCGON1OYE6FAUV3KKP05","","2","img/land4.png","75","3","2","1","1","2","0.8,0.2,0.2,0.2,0.8,0.2,0.2,0.2,0.8","0.2,0.8,0.2,0.2,0.2,0.8,0.8,0.2,0.2","3","",""
"","html-keyboard-response","93","44688","0.0-93.0","3KYQYYSHYWTQGSAOCCUOU05CVJ8ODA","AEK2SAEL9GG39","3SA4EMRVJVOCGON1OYE6FAUV3KKP05","","null","<img src=""img/land4.png"" style=""width:200px; border:14px solid green;"">","null","","","","","","","","","",""
"","image-keyboard-response","94","45035","0.0-94.0","3KYQYYSHYWTQGSAOCCUOU05CVJ8ODA","AEK2SAEL9GG39","3SA4EMRVJVOCGON1OYE6FAUV3KKP05","","346.19999998807907","img/land4.png","75","346.69999998807907","2","1","1","2","0.8,0.2,0.2,0.2,0.8,0.2,0.2,0.2,0.8","0.2,0.8,0.2,0.2,0.2,0.8,0.8,0.2,0.2","3","",""
"","html-keyboard-response","95","45337","0.0-95.0","3KYQYYSHYWTQGSAOCCUOU05CVJ8ODA","AEK2SAEL9GG39","3SA4EMRVJVOCGON1OYE6FAUV3KKP05","","null","<img src=""img/land4.png"" style=""width:200px; border:14px solid green;"">","null","","","","","","","","","",""
"","image-keyboard-response","96","45387","0.0-96.0","3KYQYYSHYWTQGSAOCCUOU05CVJ8ODA","AEK2SAEL9GG39","3SA4EMRVJVOCGON1OYE6FAUV3KKP05","","49.60000002384186","img/land6.png","74","50.19999998807907","1","0","2","2","0.8,0.2,0.2,0.2,0.8,0.2,0.2,0.2,0.8","0.2,0.8,0.2,0.2,0.2,0.8,0.8,0.2,0.2","3","",""
"","html-keyboard-response","97","45688","0.0-97.0","3KYQYYSHYWTQGSAOCCUOU05CVJ8ODA","AEK2SAEL9GG39","3SA4EMRVJVOCGON1OYE6FAUV3KKP05","","null","<img src=""img/land6.png"" style=""width:200px;border:14px solid red;"">","null","","","","","","","","","",""
"","image-keyboard-response","98","45707","0.0-98.0","3KYQYYSHYWTQGSAOCCUOU05CVJ8ODA","AEK2SAEL9GG39","3SA4EMRVJVOCGON1OYE6FAUV3KKP05","","18.19999998807907","img/land3.png","75","18.80000001192093","2","0","3","2","0.8,0.2,0.2,0.2,0.8,0.2,0.2,0.2,0.8","0.2,0.8,0.2,0.2,0.2,0.8,0.8,0.2,0.2","3","",""
"","html-keyboard-response","99","46008","0.0-99.0","3KYQYYSHYWTQGSAOCCUOU05CVJ8ODA","AEK2SAEL9GG39","3SA4EMRVJVOCGON1OYE6FAUV3KKP05","","null","<img src=""img/land3.png"" style=""width:200px;border:14px solid red;"">","null","","","","","","","","","",""
"","image-keyboard-response","100","46035","0.0-100.0","3KYQYYSHYWTQGSAOCCUOU05CVJ8ODA","AEK2SAEL9GG39","3SA4EMRVJVOCGON1OYE6FAUV3KKP05","","26.399999976158142","img/land4.png","76","27","3","0","1","2","0.8,0.2,0.2,0.2,0.8,0.2,0.2,0.2,0.8","0.2,0.8,0.2,0.2,0.2,0.8,0.8,0.2,0.2","3","",""
"","html-keyboard-response","101","46336","0.0-101.0","3KYQYYSHYWTQGSAOCCUOU05CVJ8ODA","AEK2SAEL9GG39","3SA4EMRVJVOCGON1OYE6FAUV3KKP05","","null","<img src=""img/land4.png"" style=""width:200px;border:14px solid red;"">","null","","","","","","","","","",""
"","image-keyboard-response","102","46771","0.0-102.0","3KYQYYSHYWTQGSAOCCUOU05CVJ8ODA","AEK2SAEL9GG39","3SA4EMRVJVOCGON1OYE6FAUV3KKP05","","433.7999999523163","img/land6.png","75","434.60000002384186","2","1","2","2","0.8,0.2,0.2,0.2,0.8,0.2,0.2,0.2,0.8","0.2,0.8,0.2,0.2,0.2,0.8,0.8,0.2,0.2","3","",""
"","html-keyboard-response","103","47073","0.0-103.0","3KYQYYSHYWTQGSAOCCUOU05CVJ8ODA","AEK2SAEL9GG39","3SA4EMRVJVOCGON1OYE6FAUV3KKP05","","null","<img src=""img/land6.png"" style=""width:200px; border:14px solid green;"">","null","","","","","","","","","",""
"","image-keyboard-response","104","47083","0.0-104.0","3KYQYYSHYWTQGSAOCCUOU05CVJ8ODA","AEK2SAEL9GG39","3SA4EMRVJVOCGON1OYE6FAUV3KKP05","","9.100000023841858","img/land4.png","74","9.600000023841858","1","0","1","2","0.8,0.2,0.2,0.2,0.8,0.2,0.2,0.2,0.8","0.2,0.8,0.2,0.2,0.2,0.8,0.8,0.2,0.2","3","",""
"","html-keyboard-response","105","47384","0.0-105.0","3KYQYYSHYWTQGSAOCCUOU05CVJ8ODA","AEK2SAEL9GG39","3SA4EMRVJVOCGON1OYE6FAUV3KKP05","","null","<img src=""img/land4.png"" style=""width:200px;border:14px solid red;"">","null","","","","","","","","","",""
"","image-keyboard-response","106","47443","0.0-106.0","3KYQYYSHYWTQGSAOCCUOU05CVJ8ODA","AEK2SAEL9GG39","3SA4EMRVJVOCGON1OYE6FAUV3KKP05","","58.09999996423721","img/land4.png","75","58.60000002384186","2","1","1","2","0.8,0.2,0.2,0.2,0.8,0.2,0.2,0.2,0.8","0.2,0.8,0.2,0.2,0.2,0.8,0.8,0.2,0.2","3","",""
"","html-keyboard-response","107","47745","0.0-107.0","3KYQYYSHYWTQGSAOCCUOU05CVJ8ODA","AEK2SAEL9GG39","3SA4EMRVJVOCGON1OYE6FAUV3KKP05","","null","<img src=""img/land4.png"" style=""width:200px; border:14px solid green;"">","null","","","","","","","","","",""
"","image-keyboard-response","108","47843","0.0-108.0","3KYQYYSHYWTQGSAOCCUOU05CVJ8ODA","AEK2SAEL9GG39","3SA4EMRVJVOCGON1OYE6FAUV3KKP05","","97.09999996423721","img/land4.png","76","97.69999998807907","3","0","1","2","0.8,0.2,0.2,0.2,0.8,0.2,0.2,0.2,0.8","0.2,0.8,0.2,0.2,0.2,0.8,0.8,0.2,0.2","3","",""
"","html-keyboard-response","109","48145","0.0-109.0","3KYQYYSHYWTQGSAOCCUOU05CVJ8ODA","AEK2SAEL9GG39","3SA4EMRVJVOCGON1OYE6FAUV3KKP05","","null","<img src=""img/land4.png"" style=""width:200px;border:14px solid red;"">","null","","","","","","","","","",""
"","image-keyboard-response","110","48243","0.0-110.0","3KYQYYSHYWTQGSAOCCUOU05CVJ8ODA","AEK2SAEL9GG39","3SA4EMRVJVOCGON1OYE6FAUV3KKP05","","97.39999997615814","img/land4.png","75","98","2","1","1","2","0.8,0.2,0.2,0.2,0.8,0.2,0.2,0.2,0.8","0.2,0.8,0.2,0.2,0.2,0.8,0.8,0.2,0.2","3","",""
"","html-keyboard-response","111","48545","0.0-111.0","3KYQYYSHYWTQGSAOCCUOU05CVJ8ODA","AEK2SAEL9GG39","3SA4EMRVJVOCGON1OYE6FAUV3KKP05","","null","<img src=""img/land4.png"" style=""width:200px; border:14px solid green;"">","null","","","","","","","","","",""
"","image-keyboard-response","112","48555","0.0-112.0","3KYQYYSHYWTQGSAOCCUOU05CVJ8ODA","AEK2SAEL9GG39","3SA4EMRVJVOCGON1OYE6FAUV3KKP05","","10","img/land4.png","74","10.700000047683716","1","0","1","2","0.8,0.2,0.2,0.2,0.8,0.2,0.2,0.2,0.8","0.2,0.8,0.2,0.2,0.2,0.8,0.8,0.2,0.2","3","",""
"","html-keyboard-response","113","48857","0.0-113.0","3KYQYYSHYWTQGSAOCCUOU05CVJ8ODA","AEK2SAEL9GG39","3SA4EMRVJVOCGON1OYE6FAUV3KKP05","","null","<img src=""img/land4.png"" style=""width:200px;border:14px solid red;"">","null","","","","","","","","","",""
"","image-keyboard-response","114","48915","0.0-114.0","3KYQYYSHYWTQGSAOCCUOU05CVJ8ODA","AEK2SAEL9GG39","3SA4EMRVJVOCGON1OYE6FAUV3KKP05","","57.19999998807907","img/land4.png","75","57.80000001192093","2","0","1","2","0.8,0.2,0.2,0.2,0.8,0.2,0.2,0.2,0.8","0.2,0.8,0.2,0.2,0.2,0.8,0.8,0.2,0.2","3","",""
"","html-keyboard-response","115","49217","0.0-115.0","3KYQYYSHYWTQGSAOCCUOU05CVJ8ODA","AEK2SAEL9GG39","3SA4EMRVJVOCGON1OYE6FAUV3KKP05","","null","<img src=""img/land4.png"" style=""width:200px;border:14px solid red;"">","null","","","","","","","","","",""
"","image-keyboard-response","116","49235","0.0-116.0","3KYQYYSHYWTQGSAOCCUOU05CVJ8ODA","AEK2SAEL9GG39","3SA4EMRVJVOCGON1OYE6FAUV3KKP05","","17.69999998807907","img/land4.png","76","18.400000035762787","3","1","1","2","0.8,0.2,0.2,0.2,0.8,0.2,0.2,0.2,0.8","0.2,0.8,0.2,0.2,0.2,0.8,0.8,0.2,0.2","3","",""
"","html-keyboard-response","117","49537","0.0-117.0","3KYQYYSHYWTQGSAOCCUOU05CVJ8ODA","AEK2SAEL9GG39","3SA4EMRVJVOCGON1OYE6FAUV3KKP05","","null","<img src=""img/land4.png"" style=""width:200px; border:14px solid green;"">","null","","","","","","","","","",""
"","image-keyboard-response","118","49651","0.0-118.0","3KYQYYSHYWTQGSAOCCUOU05CVJ8ODA","AEK2SAEL9GG39","3SA4EMRVJVOCGON1OYE6FAUV3KKP05","","113.39999997615814","img/land4.png","75","113.90000003576279","2","1","1","2","0.8,0.2,0.2,0.2,0.8,0.2,0.2,0.2,0.8","0.2,0.8,0.2,0.2,0.2,0.8,0.8,0.2,0.2","3","",""
"","html-keyboard-response","119","49953","0.0-119.0","3KYQYYSHYWTQGSAOCCUOU05CVJ8ODA","AEK2SAEL9GG39","3SA4EMRVJVOCGON1OYE6FAUV3KKP05","","null","<img src=""img/land4.png"" style=""width:200px; border:14px solid green;"">","null","","","","","","","","","",""
"","image-keyboard-response","120","50027","0.0-120.0","3KYQYYSHYWTQGSAOCCUOU05CVJ8ODA","AEK2SAEL9GG39","3SA4EMRVJVOCGON1OYE6FAUV3KKP05","","73.10000002384186","img/land4.png","74","73.80000001192093","1","0","1","2","0.8,0.2,0.2,0.2,0.8,0.2,0.2,0.2,0.8","0.2,0.8,0.2,0.2,0.2,0.8,0.8,0.2,0.2","3","",""
"","html-keyboard-response","121","50329","0.0-121.0","3KYQYYSHYWTQGSAOCCUOU05CVJ8ODA","AEK2SAEL9GG39","3SA4EMRVJVOCGON1OYE6FAUV3KKP05","","null","<img src=""img/land4.png"" style=""width:200px;border:14px solid red;"">","null","","","","","","","","","",""
"","image-keyboard-response","122","50379","0.0-122.0","3KYQYYSHYWTQGSAOCCUOU05CVJ8ODA","AEK2SAEL9GG39","3SA4EMRVJVOCGON1OYE6FAUV3KKP05","","49.60000002384186","img/land6.png","75","50.30000001192093","2","0","2","2","0.8,0.2,0.2,0.2,0.8,0.2,0.2,0.2,0.8","0.2,0.8,0.2,0.2,0.2,0.8,0.8,0.2,0.2","3","",""
"","html-keyboard-response","123","50681","0.0-123.0","3KYQYYSHYWTQGSAOCCUOU05CVJ8ODA","AEK2SAEL9GG39","3SA4EMRVJVOCGON1OYE6FAUV3KKP05","","null","<img src=""img/land6.png"" style=""width:200px;border:14px solid red;"">","null","","","","","","","","","",""
"","image-keyboard-response","124","50747","0.0-124.0","3KYQYYSHYWTQGSAOCCUOU05CVJ8ODA","AEK2SAEL9GG39","3SA4EMRVJVOCGON1OYE6FAUV3KKP05","","65.5","img/land4.png","76","66.09999996423721","3","0","1","2","0.8,0.2,0.2,0.2,0.8,0.2,0.2,0.2,0.8","0.2,0.8,0.2,0.2,0.2,0.8,0.8,0.2,0.2","3","",""
"","html-keyboard-response","125","51048","0.0-125.0","3KYQYYSHYWTQGSAOCCUOU05CVJ8ODA","AEK2SAEL9GG39","3SA4EMRVJVOCGON1OYE6FAUV3KKP05","","null","<img src=""img/land4.png"" style=""width:200px;border:14px solid red;"">","null","","","","","","","","","",""
"","image-keyboard-response","126","51147","0.0-126.0","3KYQYYSHYWTQGSAOCCUOU05CVJ8ODA","AEK2SAEL9GG39","3SA4EMRVJVOCGON1OYE6FAUV3KKP05","","98.30000001192093","img/land4.png","75","99","2","0","1","2","0.8,0.2,0.2,0.2,0.8,0.2,0.2,0.2,0.8","0.2,0.8,0.2,0.2,0.2,0.8,0.8,0.2,0.2","3","",""
"","html-keyboard-response","127","51448","0.0-127.0","3KYQYYSHYWTQGSAOCCUOU05CVJ8ODA","AEK2SAEL9GG39","3SA4EMRVJVOCGON1OYE6FAUV3KKP05","","null","<img src=""img/land4.png"" style=""width:200px;border:14px solid red;"">","null","","","","","","","","","",""
"","image-keyboard-response","128","51491","0.0-128.0","3KYQYYSHYWTQGSAOCCUOU05CVJ8ODA","AEK2SAEL9GG39","3SA4EMRVJVOCGON1OYE6FAUV3KKP05","","42.5","img/land4.png","74","42.90000003576279","1","0","1","2","0.8,0.2,0.2,0.2,0.8,0.2,0.2,0.2,0.8","0.2,0.8,0.2,0.2,0.2,0.8,0.8,0.2,0.2","3","",""
"","html-keyboard-response","129","51792","0.0-129.0","3KYQYYSHYWTQGSAOCCUOU05CVJ8ODA","AEK2SAEL9GG39","3SA4EMRVJVOCGON1OYE6FAUV3KKP05","","null","<img src=""img/land4.png"" style=""width:200px;border:14px solid red;"">","null","","","","","","","","","",""
"","image-keyboard-response","130","51835","0.0-130.0","3KYQYYSHYWTQGSAOCCUOU05CVJ8ODA","AEK2SAEL9GG39","3SA4EMRVJVOCGON1OYE6FAUV3KKP05","","41.89999997615814","img/land6.png","75","42.60000002384186","2","1","2","2","0.8,0.2,0.2,0.2,0.8,0.2,0.2,0.2,0.8","0.2,0.8,0.2,0.2,0.2,0.8,0.8,0.2,0.2","3","",""
"","html-keyboard-response","131","52136","0.0-131.0","3KYQYYSHYWTQGSAOCCUOU05CVJ8ODA","AEK2SAEL9GG39","3SA4EMRVJVOCGON1OYE6FAUV3KKP05","","null","<img src=""img/land6.png"" style=""width:200px; border:14px solid green;"">","null","","","","","","","","","",""
"","image-keyboard-response","132","52315","0.0-132.0","3KYQYYSHYWTQGSAOCCUOU05CVJ8ODA","AEK2SAEL9GG39","3SA4EMRVJVOCGON1OYE6FAUV3KKP05","","178.39999997615814","img/land3.png","76","178.9000000357628","3","1","3","2","0.8,0.2,0.2,0.2,0.8,0.2,0.2,0.2,0.8","0.2,0.8,0.2,0.2,0.2,0.8,0.8,0.2,0.2","3","",""
"","html-keyboard-response","133","52617","0.0-133.0","3KYQYYSHYWTQGSAOCCUOU05CVJ8ODA","AEK2SAEL9GG39","3SA4EMRVJVOCGON1OYE6FAUV3KKP05","","null","<img src=""img/land3.png"" style=""width:200px; border:14px solid green;"">","null","","","","","","","","","",""
"","image-keyboard-response","134","52667","0.0-134.0","3KYQYYSHYWTQGSAOCCUOU05CVJ8ODA","AEK2SAEL9GG39","3SA4EMRVJVOCGON1OYE6FAUV3KKP05","","49.39999997615814","img/land4.png","75","49.90000003576279","2","1","1","2","0.8,0.2,0.2,0.2,0.8,0.2,0.2,0.2,0.8","0.2,0.8,0.2,0.2,0.2,0.8,0.8,0.2,0.2","3","",""
"","html-keyboard-response","135","52968","0.0-135.0","3KYQYYSHYWTQGSAOCCUOU05CVJ8ODA","AEK2SAEL9GG39","3SA4EMRVJVOCGON1OYE6FAUV3KKP05","","null","<img src=""img/land4.png"" style=""width:200px; border:14px solid green;"">","null","","","","","","","","","",""
"","image-keyboard-response","136","52987","0.0-136.0","3KYQYYSHYWTQGSAOCCUOU05CVJ8ODA","AEK2SAEL9GG39","3SA4EMRVJVOCGON1OYE6FAUV3KKP05","","18.099999964237213","img/land6.png","74","18.700000047683716","1","0","2","2","0.8,0.2,0.2,0.2,0.8,0.2,0.2,0.2,0.8","0.2,0.8,0.2,0.2,0.2,0.8,0.8,0.2,0.2","3","",""
"","html-keyboard-response","137","53289","0.0-137.0","3KYQYYSHYWTQGSAOCCUOU05CVJ8ODA","AEK2SAEL9GG39","3SA4EMRVJVOCGON1OYE6FAUV3KKP05","","null","<img src=""img/land6.png"" style=""width:200px;border:14px solid red;"">","null","","","","","","","","","",""
"","image-keyboard-response","138","53299","0.0-138.0","3KYQYYSHYWTQGSAOCCUOU05CVJ8ODA","AEK2SAEL9GG39","3SA4EMRVJVOCGON1OYE6FAUV3KKP05","","9.599999964237213","img/land4.png","75","10.200000047683716","2","1","1","2","0.8,0.2,0.2,0.2,0.8,0.2,0.2,0.2,0.8","0.2,0.8,0.2,0.2,0.2,0.8,0.8,0.2,0.2","3","",""
"","html-keyboard-response","139","53601","0.0-139.0","3KYQYYSHYWTQGSAOCCUOU05CVJ8ODA","AEK2SAEL9GG39","3SA4EMRVJVOCGON1OYE6FAUV3KKP05","","null","<img src=""img/land4.png"" style=""width:200px; border:14px solid green;"">","null","","","","","","","","","",""
"","image-keyboard-response","140","53683","0.0-140.0","3KYQYYSHYWTQGSAOCCUOU05CVJ8ODA","AEK2SAEL9GG39","3SA4EMRVJVOCGON1OYE6FAUV3KKP05","","81.10000002384186","img/land6.png","76","81.80000001192093","3","1","2","2","0.8,0.2,0.2,0.2,0.8,0.2,0.2,0.2,0.8","0.2,0.8,0.2,0.2,0.2,0.8,0.8,0.2,0.2","3","",""
"","html-keyboard-response","141","53985","0.0-141.0","3KYQYYSHYWTQGSAOCCUOU05CVJ8ODA","AEK2SAEL9GG39","3SA4EMRVJVOCGON1OYE6FAUV3KKP05","","null","<img src=""img/land6.png"" style=""width:200px; border:14px solid green;"">","null","","","","","","","","","",""
"","image-keyboard-response","142","53995","0.0-142.0","3KYQYYSHYWTQGSAOCCUOU05CVJ8ODA","AEK2SAEL9GG39","3SA4EMRVJVOCGON1OYE6FAUV3KKP05","","9.599999964237213","img/land4.png","75","10.200000047683716","2","0","1","2","0.8,0.2,0.2,0.2,0.8,0.2,0.2,0.2,0.8","0.2,0.8,0.2,0.2,0.2,0.8,0.8,0.2,0.2","3","",""
"","html-keyboard-response","143","54297","0.0-143.0","3KYQYYSHYWTQGSAOCCUOU05CVJ8ODA","AEK2SAEL9GG39","3SA4EMRVJVOCGON1OYE6FAUV3KKP05","","null","<img src=""img/land4.png"" style=""width:200px;border:14px solid red;"">","null","","","","","","","","","",""
"","image-keyboard-response","144","54323","0.0-144.0","3KYQYYSHYWTQGSAOCCUOU05CVJ8ODA","AEK2SAEL9GG39","3SA4EMRVJVOCGON1OYE6FAUV3KKP05","","25.5","img/land4.png","74","26.100000023841858","1","0","1","2","0.8,0.2,0.2,0.2,0.8,0.2,0.2,0.2,0.8","0.2,0.8,0.2,0.2,0.2,0.8,0.8,0.2,0.2","3","",""
"","html-keyboard-response","145","54633","0.0-145.0","3KYQYYSHYWTQGSAOCCUOU05CVJ8ODA","AEK2SAEL9GG39","3SA4EMRVJVOCGON1OYE6FAUV3KKP05","","null","<img src=""img/land4.png"" style=""width:200px;border:14px solid red;"">","null","","","","","","","","","",""
"","image-keyboard-response","146","54651","0.0-146.0","3KYQYYSHYWTQGSAOCCUOU05CVJ8ODA","AEK2SAEL9GG39","3SA4EMRVJVOCGON1OYE6FAUV3KKP05","","17.30000001192093","img/land4.png","75","17.80000001192093","2","1","1","2","0.8,0.2,0.2,0.2,0.8,0.2,0.2,0.2,0.8","0.2,0.8,0.2,0.2,0.2,0.8,0.8,0.2,0.2","3","",""
"","html-keyboard-response","147","54952","0.0-147.0","3KYQYYSHYWTQGSAOCCUOU05CVJ8ODA","AEK2SAEL9GG39","3SA4EMRVJVOCGON1OYE6FAUV3KKP05","","null","<img src=""img/land4.png"" style=""width:200px; border:14px solid green;"">","null","","","","","","","","","",""
"","image-keyboard-response","148","55051","0.0-148.0","3KYQYYSHYWTQGSAOCCUOU05CVJ8ODA","AEK2SAEL9GG39","3SA4EMRVJVOCGON1OYE6FAUV3KKP05","","98.29999995231628","img/land4.png","76","99","3","0","1","2","0.8,0.2,0.2,0.2,0.8,0.2,0.2,0.2,0.8","0.2,0.8,0.2,0.2,0.2,0.8,0.8,0.2,0.2","3","",""
"","html-keyboard-response","149","55353","0.0-149.0","3KYQYYSHYWTQGSAOCCUOU05CVJ8ODA","AEK2SAEL9GG39","3SA4EMRVJVOCGON1OYE6FAUV3KKP05","","null","<img src=""img/land4.png"" style=""width:200px;border:14px solid red;"">","null","","","","","","","","","",""
"","image-keyboard-response","150","55419","0.0-150.0","3KYQYYSHYWTQGSAOCCUOU05CVJ8ODA","AEK2SAEL9GG39","3SA4EMRVJVOCGON1OYE6FAUV3KKP05","","65.60000002384186","img/land4.png","75","66.19999998807907","2","1","1","2","0.8,0.2,0.2,0.2,0.8,0.2,0.2,0.2,0.8","0.2,0.8,0.2,0.2,0.2,0.8,0.8,0.2,0.2","3","",""
"","html-keyboard-response","151","55721","0.0-151.0","3KYQYYSHYWTQGSAOCCUOU05CVJ8ODA","AEK2SAEL9GG39","3SA4EMRVJVOCGON1OYE6FAUV3KKP05","","null","<img src=""img/land4.png"" style=""width:200px; border:14px solid green;"">","null","","","","","","","","","",""
"","image-keyboard-response","152","55771","0.0-152.0","3KYQYYSHYWTQGSAOCCUOU05CVJ8ODA","AEK2SAEL9GG39","3SA4EMRVJVOCGON1OYE6FAUV3KKP05","","49.5","img/land3.png","74","50.19999998807907","1","1","3","2","0.8,0.2,0.2,0.2,0.8,0.2,0.2,0.2,0.8","0.2,0.8,0.2,0.2,0.2,0.8,0.8,0.2,0.2","3","",""
"","html-keyboard-response","153","56075","0.0-153.0","3KYQYYSHYWTQGSAOCCUOU05CVJ8ODA","AEK2SAEL9GG39","3SA4EMRVJVOCGON1OYE6FAUV3KKP05","","null","<img src=""img/land3.png"" style=""width:200px; border:14px solid green;"">","null","","","","","","","","","",""
"","image-keyboard-response","154","56483","0.0-154.0","3KYQYYSHYWTQGSAOCCUOU05CVJ8ODA","AEK2SAEL9GG39","3SA4EMRVJVOCGON1OYE6FAUV3KKP05","","407.0999999642372","img/land4.png","76","407.80000001192093","3","0","1","2","0.8,0.2,0.2,0.2,0.8,0.2,0.2,0.2,0.8","0.2,0.8,0.2,0.2,0.2,0.8,0.8,0.2,0.2","3","",""
"","html-keyboard-response","155","56785","0.0-155.0","3KYQYYSHYWTQGSAOCCUOU05CVJ8ODA","AEK2SAEL9GG39","3SA4EMRVJVOCGON1OYE6FAUV3KKP05","","null","<img src=""img/land4.png"" style=""width:200px;border:14px solid red;"">","null","","","","","","","","","",""
"","image-keyboard-response","156","56859","0.0-156.0","3KYQYYSHYWTQGSAOCCUOU05CVJ8ODA","AEK2SAEL9GG39","3SA4EMRVJVOCGON1OYE6FAUV3KKP05","","73.60000002384186","img/land4.png","75","74.19999998807907","2","0","1","2","0.8,0.2,0.2,0.2,0.8,0.2,0.2,0.2,0.8","0.2,0.8,0.2,0.2,0.2,0.8,0.8,0.2,0.2","3","",""
"","html-keyboard-response","157","57172","0.0-157.0","3KYQYYSHYWTQGSAOCCUOU05CVJ8ODA","AEK2SAEL9GG39","3SA4EMRVJVOCGON1OYE6FAUV3KKP05","","null","<img src=""img/land4.png"" style=""width:200px;border:14px solid red;"">","null","","","","","","","","","",""
"","image-keyboard-response","158","57235","0.0-158.0","3KYQYYSHYWTQGSAOCCUOU05CVJ8ODA","AEK2SAEL9GG39","3SA4EMRVJVOCGON1OYE6FAUV3KKP05","","62.39999997615814","img/land4.png","74","62.90000003576279","1","0","1","2","0.8,0.2,0.2,0.2,0.8,0.2,0.2,0.2,0.8","0.2,0.8,0.2,0.2,0.2,0.8,0.8,0.2,0.2","3","",""
"","html-keyboard-response","159","57537","0.0-159.0","3KYQYYSHYWTQGSAOCCUOU05CVJ8ODA","AEK2SAEL9GG39","3SA4EMRVJVOCGON1OYE6FAUV3KKP05","","null","<img src=""img/land4.png"" style=""width:200px;border:14px solid red;"">","null","","","","","","","","","",""
"","image-keyboard-response","160","57571","0.0-160.0","3KYQYYSHYWTQGSAOCCUOU05CVJ8ODA","AEK2SAEL9GG39","3SA4EMRVJVOCGON1OYE6FAUV3KKP05","","33.30000001192093","img/land6.png","75","34","2","0","2","2","0.8,0.2,0.2,0.2,0.8,0.2,0.2,0.2,0.8","0.2,0.8,0.2,0.2,0.2,0.8,0.8,0.2,0.2","3","",""
"","html-keyboard-response","161","57872","0.0-161.0","3KYQYYSHYWTQGSAOCCUOU05CVJ8ODA","AEK2SAEL9GG39","3SA4EMRVJVOCGON1OYE6FAUV3KKP05","","null","<img src=""img/land6.png"" style=""width:200px;border:14px solid red;"">","null","","","","","","","","","",""
"","image-keyboard-response","162","57923","0.0-162.0","3KYQYYSHYWTQGSAOCCUOU05CVJ8ODA","AEK2SAEL9GG39","3SA4EMRVJVOCGON1OYE6FAUV3KKP05","","49.89999997615814","img/land4.png","76","50.59999996423721","3","0","1","2","0.8,0.2,0.2,0.2,0.8,0.2,0.2,0.2,0.8","0.2,0.8,0.2,0.2,0.2,0.8,0.8,0.2,0.2","3","",""
"","html-keyboard-response","163","58224","0.0-163.0","3KYQYYSHYWTQGSAOCCUOU05CVJ8ODA","AEK2SAEL9GG39","3SA4EMRVJVOCGON1OYE6FAUV3KKP05","","null","<img src=""img/land4.png"" style=""width:200px;border:14px solid red;"">","null","","","","","","","","","",""
"","image-keyboard-response","164","58339","0.0-164.0","3KYQYYSHYWTQGSAOCCUOU05CVJ8ODA","AEK2SAEL9GG39","3SA4EMRVJVOCGON1OYE6FAUV3KKP05","","114.39999997615814","img/land4.png","75","115.10000002384186","2","0","1","2","0.8,0.2,0.2,0.2,0.8,0.2,0.2,0.2,0.8","0.2,0.8,0.2,0.2,0.2,0.8,0.8,0.2,0.2","3","",""
"","html-keyboard-response","165","58641","0.0-165.0","3KYQYYSHYWTQGSAOCCUOU05CVJ8ODA","AEK2SAEL9GG39","3SA4EMRVJVOCGON1OYE6FAUV3KKP05","","null","<img src=""img/land4.png"" style=""width:200px;border:14px solid red;"">","null","","","","","","","","","",""
"","image-keyboard-response","166","58691","0.0-166.0","3KYQYYSHYWTQGSAOCCUOU05CVJ8ODA","AEK2SAEL9GG39","3SA4EMRVJVOCGON1OYE6FAUV3KKP05","","49.299999952316284","img/land4.png","74","50","1","0","1","2","0.8,0.2,0.2,0.2,0.8,0.2,0.2,0.2,0.8","0.2,0.8,0.2,0.2,0.2,0.8,0.8,0.2,0.2","3","",""
"","html-keyboard-response","167","58993","0.0-167.0","3KYQYYSHYWTQGSAOCCUOU05CVJ8ODA","AEK2SAEL9GG39","3SA4EMRVJVOCGON1OYE6FAUV3KKP05","","null","<img src=""img/land4.png"" style=""width:200px;border:14px solid red;"">","null","","","","","","","","","",""
"","image-keyboard-response","168","59075","0.0-168.0","3KYQYYSHYWTQGSAOCCUOU05CVJ8ODA","AEK2SAEL9GG39","3SA4EMRVJVOCGON1OYE6FAUV3KKP05","","81.30000001192093","img/land6.png","75","82","2","0","2","2","0.8,0.2,0.2,0.2,0.8,0.2,0.2,0.2,0.8","0.2,0.8,0.2,0.2,0.2,0.8,0.8,0.2,0.2","3","",""
"","html-keyboard-response","169","59376","0.0-169.0","3KYQYYSHYWTQGSAOCCUOU05CVJ8ODA","AEK2SAEL9GG39","3SA4EMRVJVOCGON1OYE6FAUV3KKP05","","null","<img src=""img/land6.png"" style=""width:200px;border:14px solid red;"">","null","","","","","","","","","",""
"","image-keyboard-response","170","59427","0.0-170.0","3KYQYYSHYWTQGSAOCCUOU05CVJ8ODA","AEK2SAEL9GG39","3SA4EMRVJVOCGON1OYE6FAUV3KKP05","","50","img/land3.png","76","50.59999996423721","3","1","3","2","0.8,0.2,0.2,0.2,0.8,0.2,0.2,0.2,0.8","0.2,0.8,0.2,0.2,0.2,0.8,0.8,0.2,0.2","3","",""
"","html-keyboard-response","171","59728","0.0-171.0","3KYQYYSHYWTQGSAOCCUOU05CVJ8ODA","AEK2SAEL9GG39","3SA4EMRVJVOCGON1OYE6FAUV3KKP05","","null","<img src=""img/land3.png"" style=""width:200px; border:14px solid green;"">","null","","","","","","","","","",""
"","image-keyboard-response","172","59907","0.0-172.0","3KYQYYSHYWTQGSAOCCUOU05CVJ8ODA","AEK2SAEL9GG39","3SA4EMRVJVOCGON1OYE6FAUV3KKP05","","178.19999998807907","img/land3.png","75","178.9000000357628","2","0","3","2","0.8,0.2,0.2,0.2,0.8,0.2,0.2,0.2,0.8","0.2,0.8,0.2,0.2,0.2,0.8,0.8,0.2,0.2","3","",""
"","html-keyboard-response","173","60208","0.0-173.0","3KYQYYSHYWTQGSAOCCUOU05CVJ8ODA","AEK2SAEL9GG39","3SA4EMRVJVOCGON1OYE6FAUV3KKP05","","null","<img src=""img/land3.png"" style=""width:200px;border:14px solid red;"">","null","","","","","","","","","",""
"","image-keyboard-response","174","60595","0.0-174.0","3KYQYYSHYWTQGSAOCCUOU05CVJ8ODA","AEK2SAEL9GG39","3SA4EMRVJVOCGON1OYE6FAUV3KKP05","","386.30000001192093","img/land4.png","75","386.89999997615814","2","1","1","2","0.8,0.2,0.2,0.2,0.8,0.2,0.2,0.2,0.8","0.2,0.8,0.2,0.2,0.2,0.8,0.8,0.2,0.2","3","",""
"","html-keyboard-response","175","60896","0.0-175.0","3KYQYYSHYWTQGSAOCCUOU05CVJ8ODA","AEK2SAEL9GG39","3SA4EMRVJVOCGON1OYE6FAUV3KKP05","","null","<img src=""img/land4.png"" style=""width:200px; border:14px solid green;"">","null","","","","","","","","","",""
"","image-keyboard-response","176","61035","0.0-176.0","3KYQYYSHYWTQGSAOCCUOU05CVJ8ODA","AEK2SAEL9GG39","3SA4EMRVJVOCGON1OYE6FAUV3KKP05","","138","img/land3.png","76","138.69999998807907","3","0","3","2","0.8,0.2,0.2,0.2,0.8,0.2,0.2,0.2,0.8","0.2,0.8,0.2,0.2,0.2,0.8,0.8,0.2,0.2","3","",""
"","html-keyboard-response","177","61337","0.0-177.0","3KYQYYSHYWTQGSAOCCUOU05CVJ8ODA","AEK2SAEL9GG39","3SA4EMRVJVOCGON1OYE6FAUV3KKP05","","null","<img src=""img/land3.png"" style=""width:200px;border:14px solid red;"">","null","","","","","","","","","",""
"","image-keyboard-response","178","61403","0.0-178.0","3KYQYYSHYWTQGSAOCCUOU05CVJ8ODA","AEK2SAEL9GG39","3SA4EMRVJVOCGON1OYE6FAUV3KKP05","","65.80000001192093","img/land3.png","75","66.39999997615814","2","0","3","2","0.8,0.2,0.2,0.2,0.8,0.2,0.2,0.2,0.8","0.2,0.8,0.2,0.2,0.2,0.8,0.8,0.2,0.2","3","",""
"","html-keyboard-response","179","61705","0.0-179.0","3KYQYYSHYWTQGSAOCCUOU05CVJ8ODA","AEK2SAEL9GG39","3SA4EMRVJVOCGON1OYE6FAUV3KKP05","","null","<img src=""img/land3.png"" style=""width:200px;border:14px solid red;"">","null","","","","","","","","","",""
"","image-keyboard-response","180","61739","0.0-180.0","3KYQYYSHYWTQGSAOCCUOU05CVJ8ODA","AEK2SAEL9GG39","3SA4EMRVJVOCGON1OYE6FAUV3KKP05","","33.5","img/land3.png","74","34.200000047683716","1","1","3","2","0.8,0.2,0.2,0.2,0.8,0.2,0.2,0.2,0.8","0.2,0.8,0.2,0.2,0.2,0.8,0.8,0.2,0.2","3","",""
"","html-keyboard-response","181","62040","0.0-181.0","3KYQYYSHYWTQGSAOCCUOU05CVJ8ODA","AEK2SAEL9GG39","3SA4EMRVJVOCGON1OYE6FAUV3KKP05","","null","<img src=""img/land3.png"" style=""width:200px; border:14px solid green;"">","null","","","","","","","","","",""
"","image-keyboard-response","182","62395","0.0-182.0","3KYQYYSHYWTQGSAOCCUOU05CVJ8ODA","AEK2SAEL9GG39","3SA4EMRVJVOCGON1OYE6FAUV3KKP05","","354","img/land4.png","76","354.69999998807907","3","0","1","2","0.8,0.2,0.2,0.2,0.8,0.2,0.2,0.2,0.8","0.2,0.8,0.2,0.2,0.2,0.8,0.8,0.2,0.2","3","",""
"","html-keyboard-response","183","62697","0.0-183.0","3KYQYYSHYWTQGSAOCCUOU05CVJ8ODA","AEK2SAEL9GG39","3SA4EMRVJVOCGON1OYE6FAUV3KKP05","","null","<img src=""img/land4.png"" style=""width:200px;border:14px solid red;"">","null","","","","","","","","","",""
"","image-keyboard-response","184","62755","0.0-184.0","3KYQYYSHYWTQGSAOCCUOU05CVJ8ODA","AEK2SAEL9GG39","3SA4EMRVJVOCGON1OYE6FAUV3KKP05","","57.5","img/land4.png","75","58.19999998807907","2","1","1","2","0.8,0.2,0.2,0.2,0.8,0.2,0.2,0.2,0.8","0.2,0.8,0.2,0.2,0.2,0.8,0.8,0.2,0.2","3","",""
"","html-keyboard-response","185","63057","0.0-185.0","3KYQYYSHYWTQGSAOCCUOU05CVJ8ODA","AEK2SAEL9GG39","3SA4EMRVJVOCGON1OYE6FAUV3KKP05","","null","<img src=""img/land4.png"" style=""width:200px; border:14px solid green;"">","null","","","","","","","","","",""
"","image-keyboard-response","186","63083","0.0-186.0","3KYQYYSHYWTQGSAOCCUOU05CVJ8ODA","AEK2SAEL9GG39","3SA4EMRVJVOCGON1OYE6FAUV3KKP05","","25.69999998807907","img/land3.png","74","26.30000001192093","1","0","3","2","0.8,0.2,0.2,0.2,0.8,0.2,0.2,0.2,0.8","0.2,0.8,0.2,0.2,0.2,0.8,0.8,0.2,0.2","3","",""
"","html-keyboard-response","187","63385","0.0-187.0","3KYQYYSHYWTQGSAOCCUOU05CVJ8ODA","AEK2SAEL9GG39","3SA4EMRVJVOCGON1OYE6FAUV3KKP05","","null","<img src=""img/land3.png"" style=""width:200px;border:14px solid red;"">","null","","","","","","","","","",""
"","image-keyboard-response","188","63419","0.0-188.0","3KYQYYSHYWTQGSAOCCUOU05CVJ8ODA","AEK2SAEL9GG39","3SA4EMRVJVOCGON1OYE6FAUV3KKP05","","33","img/land4.png","75","33.60000002384186","2","1","1","2","0.8,0.2,0.2,0.2,0.8,0.2,0.2,0.2,0.8","0.2,0.8,0.2,0.2,0.2,0.8,0.8,0.2,0.2","3","",""
"","html-keyboard-response","189","63721","0.0-189.0","3KYQYYSHYWTQGSAOCCUOU05CVJ8ODA","AEK2SAEL9GG39","3SA4EMRVJVOCGON1OYE6FAUV3KKP05","","null","<img src=""img/land4.png"" style=""width:200px; border:14px solid green;"">","null","","","","","","","","","",""
"","image-keyboard-response","190","63755","0.0-190.0","3KYQYYSHYWTQGSAOCCUOU05CVJ8ODA","AEK2SAEL9GG39","3SA4EMRVJVOCGON1OYE6FAUV3KKP05","","33.19999998807907","img/land6.png","76","33.89999997615814","3","1","2","2","0.8,0.2,0.2,0.2,0.8,0.2,0.2,0.2,0.8","0.2,0.8,0.2,0.2,0.2,0.8,0.8,0.2,0.2","3","",""
"","html-keyboard-response","191","64056","0.0-191.0","3KYQYYSHYWTQGSAOCCUOU05CVJ8ODA","AEK2SAEL9GG39","3SA4EMRVJVOCGON1OYE6FAUV3KKP05","","null","<img src=""img/land6.png"" style=""width:200px; border:14px solid green;"">","null","","","","","","","","","",""
"","image-keyboard-response","192","64139","0.0-192.0","3KYQYYSHYWTQGSAOCCUOU05CVJ8ODA","AEK2SAEL9GG39","3SA4EMRVJVOCGON1OYE6FAUV3KKP05","","82.40000003576279","img/land3.png","75","83","2","0","3","2","0.8,0.2,0.2,0.2,0.8,0.2,0.2,0.2,0.8","0.2,0.8,0.2,0.2,0.2,0.8,0.8,0.2,0.2","3","",""
"","html-keyboard-response","193","64441","0.0-193.0","3KYQYYSHYWTQGSAOCCUOU05CVJ8ODA","AEK2SAEL9GG39","3SA4EMRVJVOCGON1OYE6FAUV3KKP05","","null","<img src=""img/land3.png"" style=""width:200px;border:14px solid red;"">","null","","","","","","","","","",""
"","image-keyboard-response","194","64507","0.0-194.0","3KYQYYSHYWTQGSAOCCUOU05CVJ8ODA","AEK2SAEL9GG39","3SA4EMRVJVOCGON1OYE6FAUV3KKP05","","65.5","img/land4.png","74","66","1","0","1","2","0.8,0.2,0.2,0.2,0.8,0.2,0.2,0.2,0.8","0.2,0.8,0.2,0.2,0.2,0.8,0.8,0.2,0.2","3","",""
"","html-keyboard-response","195","64808","0.0-195.0","3KYQYYSHYWTQGSAOCCUOU05CVJ8ODA","AEK2SAEL9GG39","3SA4EMRVJVOCGON1OYE6FAUV3KKP05","","null","<img src=""img/land4.png"" style=""width:200px;border:14px solid red;"">","null","","","","","","","","","",""
"","image-keyboard-response","196","64843","0.0-196.0","3KYQYYSHYWTQGSAOCCUOU05CVJ8ODA","AEK2SAEL9GG39","3SA4EMRVJVOCGON1OYE6FAUV3KKP05","","33.89999997615814","img/land6.png","75","34.59999996423721","2","0","2","2","0.8,0.2,0.2,0.2,0.8,0.2,0.2,0.2,0.8","0.2,0.8,0.2,0.2,0.2,0.8,0.8,0.2,0.2","3","",""
"","html-keyboard-response","197","65145","0.0-197.0","3KYQYYSHYWTQGSAOCCUOU05CVJ8ODA","AEK2SAEL9GG39","3SA4EMRVJVOCGON1OYE6FAUV3KKP05","","null","<img src=""img/land6.png"" style=""width:200px;border:14px solid red;"">","null","","","","","","","","","",""
"","image-keyboard-response","198","65227","0.0-198.0","3KYQYYSHYWTQGSAOCCUOU05CVJ8ODA","AEK2SAEL9GG39","3SA4EMRVJVOCGON1OYE6FAUV3KKP05","","81.30000001192093","img/land3.png","76","82","3","0","3","2","0.8,0.2,0.2,0.2,0.8,0.2,0.2,0.2,0.8","0.2,0.8,0.2,0.2,0.2,0.8,0.8,0.2,0.2","3","",""
"","html-keyboard-response","199","65529","0.0-199.0","3KYQYYSHYWTQGSAOCCUOU05CVJ8ODA","AEK2SAEL9GG39","3SA4EMRVJVOCGON1OYE6FAUV3KKP05","","null","<img src=""img/land3.png"" style=""width:200px;border:14px solid red;"">","null","","","","","","","","","",""
"","image-keyboard-response","200","65579","0.0-200.0","3KYQYYSHYWTQGSAOCCUOU05CVJ8ODA","AEK2SAEL9GG39","3SA4EMRVJVOCGON1OYE6FAUV3KKP05","","49.39999997615814","img/land6.png","75","49.90000003576279","2","0","2","2","0.8,0.2,0.2,0.2,0.8,0.2,0.2,0.2,0.8","0.2,0.8,0.2,0.2,0.2,0.8,0.8,0.2,0.2","3","",""
"","html-keyboard-response","201","65881","0.0-201.0","3KYQYYSHYWTQGSAOCCUOU05CVJ8ODA","AEK2SAEL9GG39","3SA4EMRVJVOCGON1OYE6FAUV3KKP05","","null","<img src=""img/land6.png"" style=""width:200px;border:14px solid red;"">","null","","","","","","","","","",""
"","image-keyboard-response","202","65947","0.0-202.0","3KYQYYSHYWTQGSAOCCUOU05CVJ8ODA","AEK2SAEL9GG39","3SA4EMRVJVOCGON1OYE6FAUV3KKP05","","65.39999997615814","img/land4.png","74","66.10000002384186","1","0","1","2","0.8,0.2,0.2,0.2,0.8,0.2,0.2,0.2,0.8","0.2,0.8,0.2,0.2,0.2,0.8,0.8,0.2,0.2","3","",""
"","html-keyboard-response","203","66249","0.0-203.0","3KYQYYSHYWTQGSAOCCUOU05CVJ8ODA","AEK2SAEL9GG39","3SA4EMRVJVOCGON1OYE6FAUV3KKP05","","null","<img src=""img/land4.png"" style=""width:200px;border:14px solid red;"">","null","","","","","","","","","",""
"","image-keyboard-response","204","66275","0.0-204.0","3KYQYYSHYWTQGSAOCCUOU05CVJ8ODA","AEK2SAEL9GG39","3SA4EMRVJVOCGON1OYE6FAUV3KKP05","","25.69999998807907","img/land3.png","75","26.200000047683716","2","0","3","2","0.8,0.2,0.2,0.2,0.8,0.2,0.2,0.2,0.8","0.2,0.8,0.2,0.2,0.2,0.8,0.8,0.2,0.2","3","",""
"","html-keyboard-response","205","66577","0.0-205.0","3KYQYYSHYWTQGSAOCCUOU05CVJ8ODA","AEK2SAEL9GG39","3SA4EMRVJVOCGON1OYE6FAUV3KKP05","","null","<img src=""img/land3.png"" style=""width:200px;border:14px solid red;"">","null","","","","","","","","","",""
"","image-keyboard-response","206","66651","0.0-206.0","3KYQYYSHYWTQGSAOCCUOU05CVJ8ODA","AEK2SAEL9GG39","3SA4EMRVJVOCGON1OYE6FAUV3KKP05","","73.69999998807907","img/land4.png","76","74.5","3","0","1","2","0.8,0.2,0.2,0.2,0.8,0.2,0.2,0.2,0.8","0.2,0.8,0.2,0.2,0.2,0.8,0.8,0.2,0.2","3","",""
"","html-keyboard-response","207","66952","0.0-207.0","3KYQYYSHYWTQGSAOCCUOU05CVJ8ODA","AEK2SAEL9GG39","3SA4EMRVJVOCGON1OYE6FAUV3KKP05","","null","<img src=""img/land4.png"" style=""width:200px;border:14px solid red;"">","null","","","","","","","","","",""
"","image-keyboard-response","208","67035","0.0-208.0","3KYQYYSHYWTQGSAOCCUOU05CVJ8ODA","AEK2SAEL9GG39","3SA4EMRVJVOCGON1OYE6FAUV3KKP05","","82.39999997615814","img/land4.png","75","83","2","0","1","2","0.8,0.2,0.2,0.2,0.8,0.2,0.2,0.2,0.8","0.2,0.8,0.2,0.2,0.2,0.8,0.8,0.2,0.2","3","",""
"","html-keyboard-response","209","67337","0.0-209.0","3KYQYYSHYWTQGSAOCCUOU05CVJ8ODA","AEK2SAEL9GG39","3SA4EMRVJVOCGON1OYE6FAUV3KKP05","","null","<img src=""img/land4.png"" style=""width:200px;border:14px solid red;"">","null","","","","","","","","","",""
"","image-keyboard-response","210","67411","0.0-210.0","3KYQYYSHYWTQGSAOCCUOU05CVJ8ODA","AEK2SAEL9GG39","3SA4EMRVJVOCGON1OYE6FAUV3KKP05","","73.39999997615814","img/land4.png","74","74","1","1","1","2","0.8,0.2,0.2,0.2,0.8,0.2,0.2,0.2,0.8","0.2,0.8,0.2,0.2,0.2,0.8,0.8,0.2,0.2","3","",""
"","html-keyboard-response","211","67713","0.0-211.0","3KYQYYSHYWTQGSAOCCUOU05CVJ8ODA","AEK2SAEL9GG39","3SA4EMRVJVOCGON1OYE6FAUV3KKP05","","null","<img src=""img/land4.png"" style=""width:200px; border:14px solid green;"">","null","","","","","","","","","",""
"","image-keyboard-response","212","67747","0.0-212.0","3KYQYYSHYWTQGSAOCCUOU05CVJ8ODA","AEK2SAEL9GG39","3SA4EMRVJVOCGON1OYE6FAUV3KKP05","","33.09999996423721","img/land4.png","75","33.700000047683716","2","1","1","2","0.8,0.2,0.2,0.2,0.8,0.2,0.2,0.2,0.8","0.2,0.8,0.2,0.2,0.2,0.8,0.8,0.2,0.2","3","",""
"","html-keyboard-response","213","68048","0.0-213.0","3KYQYYSHYWTQGSAOCCUOU05CVJ8ODA","AEK2SAEL9GG39","3SA4EMRVJVOCGON1OYE6FAUV3KKP05","","null","<img src=""img/land4.png"" style=""width:200px; border:14px solid green;"">","null","","","","","","","","","",""
"","image-keyboard-response","214","68075","0.0-214.0","3KYQYYSHYWTQGSAOCCUOU05CVJ8ODA","AEK2SAEL9GG39","3SA4EMRVJVOCGON1OYE6FAUV3KKP05","","26","img/land6.png","76","26.400000035762787","3","0","2","2","0.8,0.2,0.2,0.2,0.8,0.2,0.2,0.2,0.8","0.2,0.8,0.2,0.2,0.2,0.8,0.8,0.2,0.2","3","",""
"","html-keyboard-response","215","68387","0.0-215.0","3KYQYYSHYWTQGSAOCCUOU05CVJ8ODA","AEK2SAEL9GG39","3SA4EMRVJVOCGON1OYE6FAUV3KKP05","","null","<img src=""img/land6.png"" style=""width:200px;border:14px solid red;"">","null","","","","","","","","","",""
"","image-keyboard-response","216","68603","0.0-216.0","3KYQYYSHYWTQGSAOCCUOU05CVJ8ODA","AEK2SAEL9GG39","3SA4EMRVJVOCGON1OYE6FAUV3KKP05","","215.30000001192093","img/land6.png","75","216","2","0","2","2","0.8,0.2,0.2,0.2,0.8,0.2,0.2,0.2,0.8","0.2,0.8,0.2,0.2,0.2,0.8,0.8,0.2,0.2","3","",""
"","html-keyboard-response","217","68905","0.0-217.0","3KYQYYSHYWTQGSAOCCUOU05CVJ8ODA","AEK2SAEL9GG39","3SA4EMRVJVOCGON1OYE6FAUV3KKP05","","null","<img src=""img/land6.png"" style=""width:200px;border:14px solid red;"">","null","","","","","","","","","",""
"","image-keyboard-response","218","68955","0.0-218.0","3KYQYYSHYWTQGSAOCCUOU05CVJ8ODA","AEK2SAEL9GG39","3SA4EMRVJVOCGON1OYE6FAUV3KKP05","","49.40000003576279","img/land6.png","74","50","1","0","2","2","0.8,0.2,0.2,0.2,0.8,0.2,0.2,0.2,0.8","0.2,0.8,0.2,0.2,0.2,0.8,0.8,0.2,0.2","3","",""
"","html-keyboard-response","219","69257","0.0-219.0","3KYQYYSHYWTQGSAOCCUOU05CVJ8ODA","AEK2SAEL9GG39","3SA4EMRVJVOCGON1OYE6FAUV3KKP05","","null","<img src=""img/land6.png"" style=""width:200px;border:14px solid red;"">","null","","","","","","","","","",""
"","image-keyboard-response","220","69275","0.0-220.0","3KYQYYSHYWTQGSAOCCUOU05CVJ8ODA","AEK2SAEL9GG39","3SA4EMRVJVOCGON1OYE6FAUV3KKP05","","17","img/land4.png","75","17.700000047683716","2","1","1","2","0.8,0.2,0.2,0.2,0.8,0.2,0.2,0.2,0.8","0.2,0.8,0.2,0.2,0.2,0.8,0.8,0.2,0.2","3","",""
"","html-keyboard-response","221","69576","0.0-221.0","3KYQYYSHYWTQGSAOCCUOU05CVJ8ODA","AEK2SAEL9GG39","3SA4EMRVJVOCGON1OYE6FAUV3KKP05","","null","<img src=""img/land4.png"" style=""width:200px; border:14px solid green;"">","null","","","","","","","","","",""
"","image-keyboard-response","222","69603","0.0-222.0","3KYQYYSHYWTQGSAOCCUOU05CVJ8ODA","AEK2SAEL9GG39","3SA4EMRVJVOCGON1OYE6FAUV3KKP05","","26","img/land4.png","76","26.599999964237213","3","0","1","2","0.8,0.2,0.2,0.2,0.8,0.2,0.2,0.2,0.8","0.2,0.8,0.2,0.2,0.2,0.8,0.8,0.2,0.2","3","",""
"","html-keyboard-response","223","69904","0.0-223.0","3KYQYYSHYWTQGSAOCCUOU05CVJ8ODA","AEK2SAEL9GG39","3SA4EMRVJVOCGON1OYE6FAUV3KKP05","","null","<img src=""img/land4.png"" style=""width:200px;border:14px solid red;"">","null","","","","","","","","","",""
"","image-keyboard-response","224","70027","0.0-224.0","3KYQYYSHYWTQGSAOCCUOU05CVJ8ODA","AEK2SAEL9GG39","3SA4EMRVJVOCGON1OYE6FAUV3KKP05","","121.89999997615814","img/land6.png","75","122.69999998807907","2","0","2","2","0.8,0.2,0.2,0.2,0.8,0.2,0.2,0.2,0.8","0.2,0.8,0.2,0.2,0.2,0.8,0.8,0.2,0.2","3","",""
"","html-keyboard-response","225","70329","0.0-225.0","3KYQYYSHYWTQGSAOCCUOU05CVJ8ODA","AEK2SAEL9GG39","3SA4EMRVJVOCGON1OYE6FAUV3KKP05","","null","<img src=""img/land6.png"" style=""width:200px;border:14px solid red;"">","null","","","","","","","","","",""
"","image-keyboard-response","226","70363","0.0-226.0","3KYQYYSHYWTQGSAOCCUOU05CVJ8ODA","AEK2SAEL9GG39","3SA4EMRVJVOCGON1OYE6FAUV3KKP05","","33.39999997615814","img/land6.png","74","34","1","0","2","2","0.8,0.2,0.2,0.2,0.8,0.2,0.2,0.2,0.8","0.2,0.8,0.2,0.2,0.2,0.8,0.8,0.2,0.2","3","",""
"","html-keyboard-response","227","70665","0.0-227.0","3KYQYYSHYWTQGSAOCCUOU05CVJ8ODA","AEK2SAEL9GG39","3SA4EMRVJVOCGON1OYE6FAUV3KKP05","","null","<img src=""img/land6.png"" style=""width:200px;border:14px solid red;"">","null","","","","","","","","","",""
"","image-keyboard-response","228","70739","0.0-228.0","3KYQYYSHYWTQGSAOCCUOU05CVJ8ODA","AEK2SAEL9GG39","3SA4EMRVJVOCGON1OYE6FAUV3KKP05","","73.19999998807907","img/land4.png","75","73.69999998807907","2","0","1","2","0.8,0.2,0.2,0.2,0.8,0.2,0.2,0.2,0.8","0.2,0.8,0.2,0.2,0.2,0.8,0.8,0.2,0.2","3","",""
"","html-keyboard-response","229","71040","0.0-229.0","3KYQYYSHYWTQGSAOCCUOU05CVJ8ODA","AEK2SAEL9GG39","3SA4EMRVJVOCGON1OYE6FAUV3KKP05","","null","<img src=""img/land4.png"" style=""width:200px;border:14px solid red;"">","null","","","","","","","","","",""
"","image-keyboard-response","230","71075","0.0-230.0","3KYQYYSHYWTQGSAOCCUOU05CVJ8ODA","AEK2SAEL9GG39","3SA4EMRVJVOCGON1OYE6FAUV3KKP05","","33.90000003576279","img/land4.png","76","34.39999997615814","3","0","1","2","0.8,0.2,0.2,0.2,0.8,0.2,0.2,0.2,0.8","0.2,0.8,0.2,0.2,0.2,0.8,0.8,0.2,0.2","3","",""
"","html-keyboard-response","231","71376","0.0-231.0","3KYQYYSHYWTQGSAOCCUOU05CVJ8ODA","AEK2SAEL9GG39","3SA4EMRVJVOCGON1OYE6FAUV3KKP05","","null","<img src=""img/land4.png"" style=""width:200px;border:14px solid red;"">","null","","","","","","","","","",""
"","image-keyboard-response","232","71867","0.0-232.0","3KYQYYSHYWTQGSAOCCUOU05CVJ8ODA","AEK2SAEL9GG39","3SA4EMRVJVOCGON1OYE6FAUV3KKP05","","490.69999998807907","img/land4.png","74","491.30000001192093","1","0","1","2","0.8,0.2,0.2,0.2,0.8,0.2,0.2,0.2,0.8","0.2,0.8,0.2,0.2,0.2,0.8,0.8,0.2,0.2","3","",""
"","html-keyboard-response","233","72169","0.0-233.0","3KYQYYSHYWTQGSAOCCUOU05CVJ8ODA","AEK2SAEL9GG39","3SA4EMRVJVOCGON1OYE6FAUV3KKP05","","null","<img src=""img/land4.png"" style=""width:200px;border:14px solid red;"">","null","","","","","","","","","",""
"","image-keyboard-response","234","72523","0.0-234.0","3KYQYYSHYWTQGSAOCCUOU05CVJ8ODA","AEK2SAEL9GG39","3SA4EMRVJVOCGON1OYE6FAUV3KKP05","","353.5","img/land4.png","76","354.30000001192093","3","0","1","2","0.8,0.2,0.2,0.2,0.8,0.2,0.2,0.2,0.8","0.2,0.8,0.2,0.2,0.2,0.8,0.8,0.2,0.2","3","",""
"","html-keyboard-response","235","72824","0.0-235.0","3KYQYYSHYWTQGSAOCCUOU05CVJ8ODA","AEK2SAEL9GG39","3SA4EMRVJVOCGON1OYE6FAUV3KKP05","","null","<img src=""img/land4.png"" style=""width:200px;border:14px solid red;"">","null","","","","","","","","","",""
"","image-keyboard-response","236","72891","0.0-236.0","3KYQYYSHYWTQGSAOCCUOU05CVJ8ODA","AEK2SAEL9GG39","3SA4EMRVJVOCGON1OYE6FAUV3KKP05","","66.10000002384186","img/land4.png","75","66.69999998807907","2","1","1","2","0.8,0.2,0.2,0.2,0.8,0.2,0.2,0.2,0.8","0.2,0.8,0.2,0.2,0.2,0.8,0.8,0.2,0.2","3","",""
"","html-keyboard-response","237","73193","0.0-237.0","3KYQYYSHYWTQGSAOCCUOU05CVJ8ODA","AEK2SAEL9GG39","3SA4EMRVJVOCGON1OYE6FAUV3KKP05","","null","<img src=""img/land4.png"" style=""width:200px; border:14px solid green;"">","null","","","","","","","","","",""
"","image-keyboard-response","238","73299","0.0-238.0","3KYQYYSHYWTQGSAOCCUOU05CVJ8ODA","AEK2SAEL9GG39","3SA4EMRVJVOCGON1OYE6FAUV3KKP05","","104.89999997615814","img/land3.png","74","105.5","1","1","3","2","0.8,0.2,0.2,0.2,0.8,0.2,0.2,0.2,0.8","0.2,0.8,0.2,0.2,0.2,0.8,0.8,0.2,0.2","3","",""
"","html-keyboard-response","239","73601","0.0-239.0","3KYQYYSHYWTQGSAOCCUOU05CVJ8ODA","AEK2SAEL9GG39","3SA4EMRVJVOCGON1OYE6FAUV3KKP05","","null","<img src=""img/land3.png"" style=""width:200px; border:14px solid green;"">","null","","","","","","","","","",""
"","image-keyboard-response","240","73659","0.0-240.0","3KYQYYSHYWTQGSAOCCUOU05CVJ8ODA","AEK2SAEL9GG39","3SA4EMRVJVOCGON1OYE6FAUV3KKP05","","57.299999952316284","img/land4.png","75","58","2","1","1","2","0.8,0.2,0.2,0.2,0.8,0.2,0.2,0.2,0.8","0.2,0.8,0.2,0.2,0.2,0.8,0.8,0.2,0.2","3","",""
"","html-keyboard-response","241","73961","0.0-241.0","3KYQYYSHYWTQGSAOCCUOU05CVJ8ODA","AEK2SAEL9GG39","3SA4EMRVJVOCGON1OYE6FAUV3KKP05","","null","<img src=""img/land4.png"" style=""width:200px; border:14px solid green;"">","null","","","","","","","","","",""
"","image-keyboard-response","242","73987","0.0-242.0","3KYQYYSHYWTQGSAOCCUOU05CVJ8ODA","AEK2SAEL9GG39","3SA4EMRVJVOCGON1OYE6FAUV3KKP05","","25.399999976158142","img/land4.png","76","25.900000035762787","3","1","1","2","0.8,0.2,0.2,0.2,0.8,0.2,0.2,0.2,0.8","0.2,0.8,0.2,0.2,0.2,0.8,0.8,0.2,0.2","3","",""
"","html-keyboard-response","243","74289","0.0-243.0","3KYQYYSHYWTQGSAOCCUOU05CVJ8ODA","AEK2SAEL9GG39","3SA4EMRVJVOCGON1OYE6FAUV3KKP05","","null","<img src=""img/land4.png"" style=""width:200px; border:14px solid green;"">","null","","","","","","","","","",""
"","image-keyboard-response","244","74315","0.0-244.0","3KYQYYSHYWTQGSAOCCUOU05CVJ8ODA","AEK2SAEL9GG39","3SA4EMRVJVOCGON1OYE6FAUV3KKP05","","25.19999998807907","img/land4.png","75","25.80000001192093","2","1","1","2","0.8,0.2,0.2,0.2,0.8,0.2,0.2,0.2,0.8","0.2,0.8,0.2,0.2,0.2,0.8,0.8,0.2,0.2","3","",""
"","html-keyboard-response","245","74617","0.0-245.0","3KYQYYSHYWTQGSAOCCUOU05CVJ8ODA","AEK2SAEL9GG39","3SA4EMRVJVOCGON1OYE6FAUV3KKP05","","null","<img src=""img/land4.png"" style=""width:200px; border:14px solid green;"">","null","","","","","","","","","",""
"","image-keyboard-response","246","74723","0.0-246.0","3KYQYYSHYWTQGSAOCCUOU05CVJ8ODA","AEK2SAEL9GG39","3SA4EMRVJVOCGON1OYE6FAUV3KKP05","","105.30000001192093","img/land4.png","74","105.89999997615814","1","0","1","2","0.8,0.2,0.2,0.2,0.8,0.2,0.2,0.2,0.8","0.2,0.8,0.2,0.2,0.2,0.8,0.8,0.2,0.2","3","",""
"","html-keyboard-response","247","75025","0.0-247.0","3KYQYYSHYWTQGSAOCCUOU05CVJ8ODA","AEK2SAEL9GG39","3SA4EMRVJVOCGON1OYE6FAUV3KKP05","","null","<img src=""img/land4.png"" style=""width:200px;border:14px solid red;"">","null","","","","","","","","","",""
"","image-keyboard-response","248","75059","0.0-248.0","3KYQYYSHYWTQGSAOCCUOU05CVJ8ODA","AEK2SAEL9GG39","3SA4EMRVJVOCGON1OYE6FAUV3KKP05","","33.19999998807907","img/land4.png","75","33.69999998807907","2","0","1","2","0.8,0.2,0.2,0.2,0.8,0.2,0.2,0.2,0.8","0.2,0.8,0.2,0.2,0.2,0.8,0.8,0.2,0.2","3","",""
"","html-keyboard-response","249","75361","0.0-249.0","3KYQYYSHYWTQGSAOCCUOU05CVJ8ODA","AEK2SAEL9GG39","3SA4EMRVJVOCGON1OYE6FAUV3KKP05","","null","<img src=""img/land4.png"" style=""width:200px;border:14px solid red;"">","null","","","","","","","","","",""
"","image-keyboard-response","250","75411","0.0-250.0","3KYQYYSHYWTQGSAOCCUOU05CVJ8ODA","AEK2SAEL9GG39","3SA4EMRVJVOCGON1OYE6FAUV3KKP05","","49.299999952316284","img/land4.png","76","50","3","0","1","2","0.8,0.2,0.2,0.2,0.8,0.2,0.2,0.2,0.8","0.2,0.8,0.2,0.2,0.2,0.8,0.8,0.2,0.2","3","",""
"","html-keyboard-response","251","75712","0.0-251.0","3KYQYYSHYWTQGSAOCCUOU05CVJ8ODA","AEK2SAEL9GG39","3SA4EMRVJVOCGON1OYE6FAUV3KKP05","","null","<img src=""img/land4.png"" style=""width:200px;border:14px solid red;"">","null","","","","","","","","","",""
"","image-keyboard-response","252","75851","0.0-252.0","3KYQYYSHYWTQGSAOCCUOU05CVJ8ODA","AEK2SAEL9GG39","3SA4EMRVJVOCGON1OYE6FAUV3KKP05","","137.69999998807907","img/land4.png","75","138.5","2","1","1","2","0.8,0.2,0.2,0.2,0.8,0.2,0.2,0.2,0.8","0.2,0.8,0.2,0.2,0.2,0.8,0.8,0.2,0.2","3","",""
"","html-keyboard-response","253","76152","0.0-253.0","3KYQYYSHYWTQGSAOCCUOU05CVJ8ODA","AEK2SAEL9GG39","3SA4EMRVJVOCGON1OYE6FAUV3KKP05","","null","<img src=""img/land4.png"" style=""width:200px; border:14px solid green;"">","null","","","","","","","","","",""
"","image-keyboard-response","254","76203","0.0-254.0","3KYQYYSHYWTQGSAOCCUOU05CVJ8ODA","AEK2SAEL9GG39","3SA4EMRVJVOCGON1OYE6FAUV3KKP05","","50.19999998807907","img/land4.png","74","50.80000001192093","1","0","1","2","0.8,0.2,0.2,0.2,0.8,0.2,0.2,0.2,0.8","0.2,0.8,0.2,0.2,0.2,0.8,0.8,0.2,0.2","3","",""
"","html-keyboard-response","255","76504","0.0-255.0","3KYQYYSHYWTQGSAOCCUOU05CVJ8ODA","AEK2SAEL9GG39","3SA4EMRVJVOCGON1OYE6FAUV3KKP05","","null","<img src=""img/land4.png"" style=""width:200px;border:14px solid red;"">","null","","","","","","","","","",""
"","image-keyboard-response","256","76539","0.0-256.0","3KYQYYSHYWTQGSAOCCUOU05CVJ8ODA","AEK2SAEL9GG39","3SA4EMRVJVOCGON1OYE6FAUV3KKP05","","33.89999997615814","img/land4.png","75","34.69999998807907","2","0","1","2","0.8,0.2,0.2,0.2,0.8,0.2,0.2,0.2,0.8","0.2,0.8,0.2,0.2,0.2,0.8,0.8,0.2,0.2","3","",""
"","html-keyboard-response","257","76841","0.0-257.0","3KYQYYSHYWTQGSAOCCUOU05CVJ8ODA","AEK2SAEL9GG39","3SA4EMRVJVOCGON1OYE6FAUV3KKP05","","null","<img src=""img/land4.png"" style=""width:200px;border:14px solid red;"">","null","","","","","","","","","",""
"","image-keyboard-response","258","76859","0.0-258.0","3KYQYYSHYWTQGSAOCCUOU05CVJ8ODA","AEK2SAEL9GG39","3SA4EMRVJVOCGON1OYE6FAUV3KKP05","","17.599999964237213","img/land6.png","76","18.100000023841858","3","1","2","2","0.8,0.2,0.2,0.2,0.8,0.2,0.2,0.2,0.8","0.2,0.8,0.2,0.2,0.2,0.8,0.8,0.2,0.2","3","",""
"","html-keyboard-response","259","77162","0.0-259.0","3KYQYYSHYWTQGSAOCCUOU05CVJ8ODA","AEK2SAEL9GG39","3SA4EMRVJVOCGON1OYE6FAUV3KKP05","","null","<img src=""img/land6.png"" style=""width:200px; border:14px solid green;"">","null","","","","","","","","","",""
"","image-keyboard-response","260","77227","0.0-260.0","3KYQYYSHYWTQGSAOCCUOU05CVJ8ODA","AEK2SAEL9GG39","3SA4EMRVJVOCGON1OYE6FAUV3KKP05","","63.89999997615814","img/land4.png","75","64.69999998807907","2","0","1","2","0.8,0.2,0.2,0.2,0.8,0.2,0.2,0.2,0.8","0.2,0.8,0.2,0.2,0.2,0.8,0.8,0.2,0.2","3","",""
"","html-keyboard-response","261","77528","0.0-261.0","3KYQYYSHYWTQGSAOCCUOU05CVJ8ODA","AEK2SAEL9GG39","3SA4EMRVJVOCGON1OYE6FAUV3KKP05","","null","<img src=""img/land4.png"" style=""width:200px;border:14px solid red;"">","null","","","","","","","","","",""
"","image-keyboard-response","262","77619","0.0-262.0","3KYQYYSHYWTQGSAOCCUOU05CVJ8ODA","AEK2SAEL9GG39","3SA4EMRVJVOCGON1OYE6FAUV3KKP05","","89.69999998807907","img/land3.png","74","90.19999998807907","1","1","3","2","0.8,0.2,0.2,0.2,0.8,0.2,0.2,0.2,0.8","0.2,0.8,0.2,0.2,0.2,0.8,0.8,0.2,0.2","3","",""
"","html-keyboard-response","263","77931","0.0-263.0","3KYQYYSHYWTQGSAOCCUOU05CVJ8ODA","AEK2SAEL9GG39","3SA4EMRVJVOCGON1OYE6FAUV3KKP05","","null","<img src=""img/land3.png"" style=""width:200px; border:14px solid green;"">","null","","","","","","","","","",""
"","image-keyboard-response","264","77947","0.0-264.0","3KYQYYSHYWTQGSAOCCUOU05CVJ8ODA","AEK2SAEL9GG39","3SA4EMRVJVOCGON1OYE6FAUV3KKP05","","15.199999988079071","img/land3.png","75","15.900000035762787","2","0","3","2","0.8,0.2,0.2,0.2,0.8,0.2,0.2,0.2,0.8","0.2,0.8,0.2,0.2,0.2,0.8,0.8,0.2,0.2","3","",""
"","html-keyboard-response","265","78248","0.0-265.0","3KYQYYSHYWTQGSAOCCUOU05CVJ8ODA","AEK2SAEL9GG39","3SA4EMRVJVOCGON1OYE6FAUV3KKP05","","null","<img src=""img/land3.png"" style=""width:200px;border:14px solid red;"">","null","","","","","","","","","",""
"","image-keyboard-response","266","78587","0.0-266.0","3KYQYYSHYWTQGSAOCCUOU05CVJ8ODA","AEK2SAEL9GG39","3SA4EMRVJVOCGON1OYE6FAUV3KKP05","","338.19999998807907","img/land4.png","75","338.80000001192093","2","0","1","2","0.8,0.2,0.2,0.2,0.8,0.2,0.2,0.2,0.8","0.2,0.8,0.2,0.2,0.2,0.8,0.8,0.2,0.2","3","",""
"","html-keyboard-response","267","78888","0.0-267.0","3KYQYYSHYWTQGSAOCCUOU05CVJ8ODA","AEK2SAEL9GG39","3SA4EMRVJVOCGON1OYE6FAUV3KKP05","","null","<img src=""img/land4.png"" style=""width:200px;border:14px solid red;"">","null","","","","","","","","","",""
"","image-keyboard-response","268","78947","0.0-268.0","3KYQYYSHYWTQGSAOCCUOU05CVJ8ODA","AEK2SAEL9GG39","3SA4EMRVJVOCGON1OYE6FAUV3KKP05","","58.5","img/land4.png","74","59.09999996423721","1","0","1","2","0.8,0.2,0.2,0.2,0.8,0.2,0.2,0.2,0.8","0.2,0.8,0.2,0.2,0.2,0.8,0.8,0.2,0.2","3","",""
"","html-keyboard-response","269","79251","0.0-269.0","3KYQYYSHYWTQGSAOCCUOU05CVJ8ODA","AEK2SAEL9GG39","3SA4EMRVJVOCGON1OYE6FAUV3KKP05","","null","<img src=""img/land4.png"" style=""width:200px;border:14px solid red;"">","null","","","","","","","","","",""
"","image-keyboard-response","270","79547","0.0-270.0","3KYQYYSHYWTQGSAOCCUOU05CVJ8ODA","AEK2SAEL9GG39","3SA4EMRVJVOCGON1OYE6FAUV3KKP05","","295","img/land4.png","76","295.60000002384186","3","0","1","2","0.8,0.2,0.2,0.2,0.8,0.2,0.2,0.2,0.8","0.2,0.8,0.2,0.2,0.2,0.8,0.8,0.2,0.2","3","",""
"","html-keyboard-response","271","79848","0.0-271.0","3KYQYYSHYWTQGSAOCCUOU05CVJ8ODA","AEK2SAEL9GG39","3SA4EMRVJVOCGON1OYE6FAUV3KKP05","","null","<img src=""img/land4.png"" style=""width:200px;border:14px solid red;"">","null","","","","","","","","","",""
"","image-keyboard-response","272","79939","0.0-272.0","3KYQYYSHYWTQGSAOCCUOU05CVJ8ODA","AEK2SAEL9GG39","3SA4EMRVJVOCGON1OYE6FAUV3KKP05","","90.30000001192093","img/land4.png","75","90.80000001192093","2","0","1","2","0.8,0.2,0.2,0.2,0.8,0.2,0.2,0.2,0.8","0.2,0.8,0.2,0.2,0.2,0.8,0.8,0.2,0.2","3","",""
"","html-keyboard-response","273","80241","0.0-273.0","3KYQYYSHYWTQGSAOCCUOU05CVJ8ODA","AEK2SAEL9GG39","3SA4EMRVJVOCGON1OYE6FAUV3KKP05","","null","<img src=""img/land4.png"" style=""width:200px;border:14px solid red;"">","null","","","","","","","","","",""
"","image-keyboard-response","274","80267","0.0-274.0","3KYQYYSHYWTQGSAOCCUOU05CVJ8ODA","AEK2SAEL9GG39","3SA4EMRVJVOCGON1OYE6FAUV3KKP05","","25.299999952316284","img/land3.png","74","25.900000035762787","1","1","3","2","0.8,0.2,0.2,0.2,0.8,0.2,0.2,0.2,0.8","0.2,0.8,0.2,0.2,0.2,0.8,0.8,0.2,0.2","3","",""
"","html-keyboard-response","275","80568","0.0-275.0","3KYQYYSHYWTQGSAOCCUOU05CVJ8ODA","AEK2SAEL9GG39","3SA4EMRVJVOCGON1OYE6FAUV3KKP05","","null","<img src=""img/land3.png"" style=""width:200px; border:14px solid green;"">","null","","","","","","","","","",""
"","image-keyboard-response","276","80875","0.0-276.0","3KYQYYSHYWTQGSAOCCUOU05CVJ8ODA","AEK2SAEL9GG39","3SA4EMRVJVOCGON1OYE6FAUV3KKP05","","306.19999998807907","img/land4.png","76","306.89999997615814","3","0","1","2","0.8,0.2,0.2,0.2,0.8,0.2,0.2,0.2,0.8","0.2,0.8,0.2,0.2,0.2,0.8,0.8,0.2,0.2","3","",""
"","html-keyboard-response","277","81177","0.0-277.0","3KYQYYSHYWTQGSAOCCUOU05CVJ8ODA","AEK2SAEL9GG39","3SA4EMRVJVOCGON1OYE6FAUV3KKP05","","null","<img src=""img/land4.png"" style=""width:200px;border:14px solid red;"">","null","","","","","","","","","",""
"","image-keyboard-response","278","81227","0.0-278.0","3KYQYYSHYWTQGSAOCCUOU05CVJ8ODA","AEK2SAEL9GG39","3SA4EMRVJVOCGON1OYE6FAUV3KKP05","","49.5","img/land4.png","75","50.10000002384186","2","0","1","2","0.8,0.2,0.2,0.2,0.8,0.2,0.2,0.2,0.8","0.2,0.8,0.2,0.2,0.2,0.8,0.8,0.2,0.2","3","",""
"","html-keyboard-response","279","81528","0.0-279.0","3KYQYYSHYWTQGSAOCCUOU05CVJ8ODA","AEK2SAEL9GG39","3SA4EMRVJVOCGON1OYE6FAUV3KKP05","","null","<img src=""img/land4.png"" style=""width:200px;border:14px solid red;"">","null","","","","","","","","","",""
"","image-keyboard-response","280","81587","0.0-280.0","3KYQYYSHYWTQGSAOCCUOU05CVJ8ODA","AEK2SAEL9GG39","3SA4EMRVJVOCGON1OYE6FAUV3KKP05","","58.60000002384186","img/land4.png","74","59.19999998807907","1","0","1","2","0.8,0.2,0.2,0.2,0.8,0.2,0.2,0.2,0.8","0.2,0.8,0.2,0.2,0.2,0.8,0.8,0.2,0.2","3","",""
"","html-keyboard-response","281","81889","0.0-281.0","3KYQYYSHYWTQGSAOCCUOU05CVJ8ODA","AEK2SAEL9GG39","3SA4EMRVJVOCGON1OYE6FAUV3KKP05","","null","<img src=""img/land4.png"" style=""width:200px;border:14px solid red;"">","null","","","","","","","","","",""
"","image-keyboard-response","282","82179","0.0-282.0","3KYQYYSHYWTQGSAOCCUOU05CVJ8ODA","AEK2SAEL9GG39","3SA4EMRVJVOCGON1OYE6FAUV3KKP05","","289.5","img/land4.png","76","290.10000002384186","3","1","1","2","0.8,0.2,0.2,0.2,0.8,0.2,0.2,0.2,0.8","0.2,0.8,0.2,0.2,0.2,0.8,0.8,0.2,0.2","3","",""
"","html-keyboard-response","283","82483","0.0-283.0","3KYQYYSHYWTQGSAOCCUOU05CVJ8ODA","AEK2SAEL9GG39","3SA4EMRVJVOCGON1OYE6FAUV3KKP05","","null","<img src=""img/land4.png"" style=""width:200px; border:14px solid green;"">","null","","","","","","","","","",""
"","image-keyboard-response","284","82851","0.0-284.0","3KYQYYSHYWTQGSAOCCUOU05CVJ8ODA","AEK2SAEL9GG39","3SA4EMRVJVOCGON1OYE6FAUV3KKP05","","367.4000000357628","img/land4.png","74","368.0999999642372","1","0","1","2","0.8,0.2,0.2,0.2,0.8,0.2,0.2,0.2,0.8","0.2,0.8,0.2,0.2,0.2,0.8,0.8,0.2,0.2","3","",""
"","html-keyboard-response","285","83152","0.0-285.0","3KYQYYSHYWTQGSAOCCUOU05CVJ8ODA","AEK2SAEL9GG39","3SA4EMRVJVOCGON1OYE6FAUV3KKP05","","null","<img src=""img/land4.png"" style=""width:200px;border:14px solid red;"">","null","","","","","","","","","",""
"","image-keyboard-response","286","83459","0.0-286.0","3KYQYYSHYWTQGSAOCCUOU05CVJ8ODA","AEK2SAEL9GG39","3SA4EMRVJVOCGON1OYE6FAUV3KKP05","","306.10000002384186","img/land3.png","76","306.80000001192093","3","0","3","2","0.8,0.2,0.2,0.2,0.8,0.2,0.2,0.2,0.8","0.2,0.8,0.2,0.2,0.2,0.8,0.8,0.2,0.2","3","",""
"","html-keyboard-response","287","83761","0.0-287.0","3KYQYYSHYWTQGSAOCCUOU05CVJ8ODA","AEK2SAEL9GG39","3SA4EMRVJVOCGON1OYE6FAUV3KKP05","","null","<img src=""img/land3.png"" style=""width:200px;border:14px solid red;"">","null","","","","","","","","","",""
"","image-keyboard-response","288","83763","0.0-288.0","3KYQYYSHYWTQGSAOCCUOU05CVJ8ODA","AEK2SAEL9GG39","3SA4EMRVJVOCGON1OYE6FAUV3KKP05","","0.8999999761581421","img/land3.png","75","1.5","2","1","3","2","0.8,0.2,0.2,0.2,0.8,0.2,0.2,0.2,0.8","0.2,0.8,0.2,0.2,0.2,0.8,0.8,0.2,0.2","3","",""
"","html-keyboard-response","289","84064","0.0-289.0","3KYQYYSHYWTQGSAOCCUOU05CVJ8ODA","AEK2SAEL9GG39","3SA4EMRVJVOCGON1OYE6FAUV3KKP05","","null","<img src=""img/land3.png"" style=""width:200px; border:14px solid green;"">","null","","","","","","","","","",""
"","image-keyboard-response","290","84083","0.0-290.0","3KYQYYSHYWTQGSAOCCUOU05CVJ8ODA","AEK2SAEL9GG39","3SA4EMRVJVOCGON1OYE6FAUV3KKP05","","18.400000035762787","img/land4.png","74","19","1","0","1","2","0.8,0.2,0.2,0.2,0.8,0.2,0.2,0.2,0.8","0.2,0.8,0.2,0.2,0.2,0.8,0.8,0.2,0.2","3","",""
"","html-keyboard-response","291","84385","0.0-291.0","3KYQYYSHYWTQGSAOCCUOU05CVJ8ODA","AEK2SAEL9GG39","3SA4EMRVJVOCGON1OYE6FAUV3KKP05","","null","<img src=""img/land4.png"" style=""width:200px;border:14px solid red;"">","null","","","","","","","","","",""
"","image-keyboard-response","292","84691","0.0-292.0","3KYQYYSHYWTQGSAOCCUOU05CVJ8ODA","AEK2SAEL9GG39","3SA4EMRVJVOCGON1OYE6FAUV3KKP05","","305.69999998807907","img/land3.png","76","306.30000001192093","3","0","3","2","0.8,0.2,0.2,0.2,0.8,0.2,0.2,0.2,0.8","0.2,0.8,0.2,0.2,0.2,0.8,0.8,0.2,0.2","3","",""
"","html-keyboard-response","293","84993","0.0-293.0","3KYQYYSHYWTQGSAOCCUOU05CVJ8ODA","AEK2SAEL9GG39","3SA4EMRVJVOCGON1OYE6FAUV3KKP05","","null","<img src=""img/land3.png"" style=""width:200px;border:14px solid red;"">","null","","","","","","","","","",""
"","image-keyboard-response","294","85083","0.0-294.0","3KYQYYSHYWTQGSAOCCUOU05CVJ8ODA","AEK2SAEL9GG39","3SA4EMRVJVOCGON1OYE6FAUV3KKP05","","89.19999998807907","img/land3.png","75","89.89999997615814","2","0","3","2","0.8,0.2,0.2,0.2,0.8,0.2,0.2,0.2,0.8","0.2,0.8,0.2,0.2,0.2,0.8,0.8,0.2,0.2","3","",""
"","html-keyboard-response","295","85385","0.0-295.0","3KYQYYSHYWTQGSAOCCUOU05CVJ8ODA","AEK2SAEL9GG39","3SA4EMRVJVOCGON1OYE6FAUV3KKP05","","null","<img src=""img/land3.png"" style=""width:200px;border:14px solid red;"">","null","","","","","","","","","",""
"","image-keyboard-response","296","85419","0.0-296.0","3KYQYYSHYWTQGSAOCCUOU05CVJ8ODA","AEK2SAEL9GG39","3SA4EMRVJVOCGON1OYE6FAUV3KKP05","","33.59999996423721","img/land4.png","74","34.40000003576279","1","1","1","2","0.8,0.2,0.2,0.2,0.8,0.2,0.2,0.2,0.8","0.2,0.8,0.2,0.2,0.2,0.8,0.8,0.2,0.2","3","",""
"","html-keyboard-response","297","85721","0.0-297.0","3KYQYYSHYWTQGSAOCCUOU05CVJ8ODA","AEK2SAEL9GG39","3SA4EMRVJVOCGON1OYE6FAUV3KKP05","","null","<img src=""img/land4.png"" style=""width:200px; border:14px solid green;"">","null","","","","","","","","","",""
"","image-keyboard-response","298","86043","0.0-298.0","3KYQYYSHYWTQGSAOCCUOU05CVJ8ODA","AEK2SAEL9GG39","3SA4EMRVJVOCGON1OYE6FAUV3KKP05","","321.39999997615814","img/land4.png","76","322.0999999642372","3","1","1","2","0.8,0.2,0.2,0.2,0.8,0.2,0.2,0.2,0.8","0.2,0.8,0.2,0.2,0.2,0.8,0.8,0.2,0.2","3","",""
"","html-keyboard-response","299","86344","0.0-299.0","3KYQYYSHYWTQGSAOCCUOU05CVJ8ODA","AEK2SAEL9GG39","3SA4EMRVJVOCGON1OYE6FAUV3KKP05","","null","<img src=""img/land4.png"" style=""width:200px; border:14px solid green;"">","null","","","","","","","","","",""
"","image-keyboard-response","300","86395","0.0-300.0","3KYQYYSHYWTQGSAOCCUOU05CVJ8ODA","AEK2SAEL9GG39","3SA4EMRVJVOCGON1OYE6FAUV3KKP05","","50.19999998807907","img/land3.png","75","50.90000003576279","2","0","3","2","0.8,0.2,0.2,0.2,0.8,0.2,0.2,0.2,0.8","0.2,0.8,0.2,0.2,0.2,0.8,0.8,0.2,0.2","3","",""
"","html-keyboard-response","301","86697","0.0-301.0","3KYQYYSHYWTQGSAOCCUOU05CVJ8ODA","AEK2SAEL9GG39","3SA4EMRVJVOCGON1OYE6FAUV3KKP05","","null","<img src=""img/land3.png"" style=""width:200px;border:14px solid red;"">","null","","","","","","","","","",""
"","image-keyboard-response","302","86723","0.0-302.0","3KYQYYSHYWTQGSAOCCUOU05CVJ8ODA","AEK2SAEL9GG39","3SA4EMRVJVOCGON1OYE6FAUV3KKP05","","25.5","img/land5.png","74","26.100000023841858","1","0","2","1","0.8,0.2,0.2,0.2,0.8,0.2,0.2,0.2,0.8","0.8,0.2,0.2,0.2,0.8,0.2,0.2,0.2,0.8","1","",""
"","html-keyboard-response","303","87024","0.0-303.0","3KYQYYSHYWTQGSAOCCUOU05CVJ8ODA","AEK2SAEL9GG39","3SA4EMRVJVOCGON1OYE6FAUV3KKP05","","null","<img src=""img/land5.png"" style=""width:200px;border:14px solid red;"">","null","","","","","","","","","",""
"","image-keyboard-response","304","87299","0.0-304.0","3KYQYYSHYWTQGSAOCCUOU05CVJ8ODA","AEK2SAEL9GG39","3SA4EMRVJVOCGON1OYE6FAUV3KKP05","","274.5","img/land5.png","76","275.19999998807907","3","1","2","1","0.8,0.2,0.2,0.2,0.8,0.2,0.2,0.2,0.8","0.8,0.2,0.2,0.2,0.8,0.2,0.2,0.2,0.8","1","",""
"","html-keyboard-response","305","87601","0.0-305.0","3KYQYYSHYWTQGSAOCCUOU05CVJ8ODA","AEK2SAEL9GG39","3SA4EMRVJVOCGON1OYE6FAUV3KKP05","","null","<img src=""img/land5.png"" style=""width:200px; border:14px solid green;"">","null","","","","","","","","","",""
"","image-keyboard-response","306","87688","0.0-306.0","3KYQYYSHYWTQGSAOCCUOU05CVJ8ODA","AEK2SAEL9GG39","3SA4EMRVJVOCGON1OYE6FAUV3KKP05","","86","img/land1.png","75","86.59999996423721","2","0","1","1","0.8,0.2,0.2,0.2,0.8,0.2,0.2,0.2,0.8","0.8,0.2,0.2,0.2,0.8,0.2,0.2,0.2,0.8","1","",""
"","html-keyboard-response","307","87989","0.0-307.0","3KYQYYSHYWTQGSAOCCUOU05CVJ8ODA","AEK2SAEL9GG39","3SA4EMRVJVOCGON1OYE6FAUV3KKP05","","null","<img src=""img/land1.png"" style=""width:200px;border:14px solid red;"">","null","","","","","","","","","",""
"","image-keyboard-response","308","88027","0.0-308.0","3KYQYYSHYWTQGSAOCCUOU05CVJ8ODA","AEK2SAEL9GG39","3SA4EMRVJVOCGON1OYE6FAUV3KKP05","","37.60000002384186","img/land5.png","74","38.10000002384186","1","0","2","1","0.8,0.2,0.2,0.2,0.8,0.2,0.2,0.2,0.8","0.8,0.2,0.2,0.2,0.8,0.2,0.2,0.2,0.8","1","",""
"","html-keyboard-response","309","88328","0.0-309.0","3KYQYYSHYWTQGSAOCCUOU05CVJ8ODA","AEK2SAEL9GG39","3SA4EMRVJVOCGON1OYE6FAUV3KKP05","","null","<img src=""img/land5.png"" style=""width:200px;border:14px solid red;"">","null","","","","","","","","","",""
"","image-keyboard-response","310","88635","0.0-310.0","3KYQYYSHYWTQGSAOCCUOU05CVJ8ODA","AEK2SAEL9GG39","3SA4EMRVJVOCGON1OYE6FAUV3KKP05","","306.30000001192093","img/land2.png","76","306.89999997615814","3","1","3","1","0.8,0.2,0.2,0.2,0.8,0.2,0.2,0.2,0.8","0.8,0.2,0.2,0.2,0.8,0.2,0.2,0.2,0.8","1","",""
"","html-keyboard-response","311","88936","0.0-311.0","3KYQYYSHYWTQGSAOCCUOU05CVJ8ODA","AEK2SAEL9GG39","3SA4EMRVJVOCGON1OYE6FAUV3KKP05","","null","<img src=""img/land2.png"" style=""width:200px; border:14px solid green;"">","null","","","","","","","","","",""
"","image-keyboard-response","312","89675","0.0-312.0","3KYQYYSHYWTQGSAOCCUOU05CVJ8ODA","AEK2SAEL9GG39","3SA4EMRVJVOCGON1OYE6FAUV3KKP05","","737.5999999642372","img/land1.png","75","738.3000000119209","2","0","1","1","0.8,0.2,0.2,0.2,0.8,0.2,0.2,0.2,0.8","0.8,0.2,0.2,0.2,0.8,0.2,0.2,0.2,0.8","1","",""
"","html-keyboard-response","313","89976","0.0-313.0","3KYQYYSHYWTQGSAOCCUOU05CVJ8ODA","AEK2SAEL9GG39","3SA4EMRVJVOCGON1OYE6FAUV3KKP05","","null","<img src=""img/land1.png"" style=""width:200px;border:14px solid red;"">","null","","","","","","","","","",""
"","image-keyboard-response","314","90291","0.0-314.0","3KYQYYSHYWTQGSAOCCUOU05CVJ8ODA","AEK2SAEL9GG39","3SA4EMRVJVOCGON1OYE6FAUV3KKP05","","314.19999998807907","img/land5.png","74","314.80000001192093","1","0","2","1","0.8,0.2,0.2,0.2,0.8,0.2,0.2,0.2,0.8","0.8,0.2,0.2,0.2,0.8,0.2,0.2,0.2,0.8","1","",""
"","html-keyboard-response","315","90606","0.0-315.0","3KYQYYSHYWTQGSAOCCUOU05CVJ8ODA","AEK2SAEL9GG39","3SA4EMRVJVOCGON1OYE6FAUV3KKP05","","null","<img src=""img/land5.png"" style=""width:200px;border:14px solid red;"">","null","","","","","","","","","",""
"","image-keyboard-response","316","90891","0.0-316.0","3KYQYYSHYWTQGSAOCCUOU05CVJ8ODA","AEK2SAEL9GG39","3SA4EMRVJVOCGON1OYE6FAUV3KKP05","","284.5999999642372","img/land2.png","75","285.2000000476837","2","0","3","1","0.8,0.2,0.2,0.2,0.8,0.2,0.2,0.2,0.8","0.8,0.2,0.2,0.2,0.8,0.2,0.2,0.2,0.8","1","",""
"","html-keyboard-response","317","91193","0.0-317.0","3KYQYYSHYWTQGSAOCCUOU05CVJ8ODA","AEK2SAEL9GG39","3SA4EMRVJVOCGON1OYE6FAUV3KKP05","","null","<img src=""img/land2.png"" style=""width:200px;border:14px solid red;"">","null","","","","","","","","","",""
"","image-keyboard-response","318","91483","0.0-318.0","3KYQYYSHYWTQGSAOCCUOU05CVJ8ODA","AEK2SAEL9GG39","3SA4EMRVJVOCGON1OYE6FAUV3KKP05","","289.10000002384186","img/land5.png","76","289.69999998807907","3","0","2","1","0.8,0.2,0.2,0.2,0.8,0.2,0.2,0.2,0.8","0.8,0.2,0.2,0.2,0.8,0.2,0.2,0.2,0.8","1","",""
"","html-keyboard-response","319","91785","0.0-319.0","3KYQYYSHYWTQGSAOCCUOU05CVJ8ODA","AEK2SAEL9GG39","3SA4EMRVJVOCGON1OYE6FAUV3KKP05","","null","<img src=""img/land5.png"" style=""width:200px;border:14px solid red;"">","null","","","","","","","","","",""
"","image-keyboard-response","320","92051","0.0-320.0","3KYQYYSHYWTQGSAOCCUOU05CVJ8ODA","AEK2SAEL9GG39","3SA4EMRVJVOCGON1OYE6FAUV3KKP05","","265.69999998807907","img/land1.png","75","266.4000000357628","2","0","1","1","0.8,0.2,0.2,0.2,0.8,0.2,0.2,0.2,0.8","0.8,0.2,0.2,0.2,0.8,0.2,0.2,0.2,0.8","1","",""
"","html-keyboard-response","321","92352","0.0-321.0","3KYQYYSHYWTQGSAOCCUOU05CVJ8ODA","AEK2SAEL9GG39","3SA4EMRVJVOCGON1OYE6FAUV3KKP05","","null","<img src=""img/land1.png"" style=""width:200px;border:14px solid red;"">","null","","","","","","","","","",""
"","image-keyboard-response","322","92923","0.0-322.0","3KYQYYSHYWTQGSAOCCUOU05CVJ8ODA","AEK2SAEL9GG39","3SA4EMRVJVOCGON1OYE6FAUV3KKP05","","570.1000000238419","img/land1.png","74","570.8000000119209","1","1","1","1","0.8,0.2,0.2,0.2,0.8,0.2,0.2,0.2,0.8","0.8,0.2,0.2,0.2,0.8,0.2,0.2,0.2,0.8","1","",""
"","html-keyboard-response","323","93225","0.0-323.0","3KYQYYSHYWTQGSAOCCUOU05CVJ8ODA","AEK2SAEL9GG39","3SA4EMRVJVOCGON1OYE6FAUV3KKP05","","null","<img src=""img/land1.png"" style=""width:200px; border:14px solid green;"">","null","","","","","","","","","",""
"","image-keyboard-response","324","93531","0.0-324.0","3KYQYYSHYWTQGSAOCCUOU05CVJ8ODA","AEK2SAEL9GG39","3SA4EMRVJVOCGON1OYE6FAUV3KKP05","","305.0999999642372","img/land1.png","75","305.80000001192093","2","0","1","1","0.8,0.2,0.2,0.2,0.8,0.2,0.2,0.2,0.8","0.8,0.2,0.2,0.2,0.8,0.2,0.2,0.2,0.8","1","",""
"","html-keyboard-response","325","93834","0.0-325.0","3KYQYYSHYWTQGSAOCCUOU05CVJ8ODA","AEK2SAEL9GG39","3SA4EMRVJVOCGON1OYE6FAUV3KKP05","","null","<img src=""img/land1.png"" style=""width:200px;border:14px solid red;"">","null","","","","","","","","","",""
"","image-keyboard-response","326","94115","0.0-326.0","3KYQYYSHYWTQGSAOCCUOU05CVJ8ODA","AEK2SAEL9GG39","3SA4EMRVJVOCGON1OYE6FAUV3KKP05","","280.69999998807907","img/land1.png","76","281.30000001192093","3","1","1","1","0.8,0.2,0.2,0.2,0.8,0.2,0.2,0.2,0.8","0.8,0.2,0.2,0.2,0.8,0.2,0.2,0.2,0.8","1","",""
"","html-keyboard-response","327","94417","0.0-327.0","3KYQYYSHYWTQGSAOCCUOU05CVJ8ODA","AEK2SAEL9GG39","3SA4EMRVJVOCGON1OYE6FAUV3KKP05","","null","<img src=""img/land1.png"" style=""width:200px; border:14px solid green;"">","null","","","","","","","","","",""
"","image-keyboard-response","328","94739","0.0-328.0","3KYQYYSHYWTQGSAOCCUOU05CVJ8ODA","AEK2SAEL9GG39","3SA4EMRVJVOCGON1OYE6FAUV3KKP05","","321.80000001192093","img/land5.png","75","322.30000001192093","2","0","2","1","0.8,0.2,0.2,0.2,0.8,0.2,0.2,0.2,0.8","0.8,0.2,0.2,0.2,0.8,0.2,0.2,0.2,0.8","1","",""
"","html-keyboard-response","329","95041","0.0-329.0","3KYQYYSHYWTQGSAOCCUOU05CVJ8ODA","AEK2SAEL9GG39","3SA4EMRVJVOCGON1OYE6FAUV3KKP05","","null","<img src=""img/land5.png"" style=""width:200px;border:14px solid red;"">","null","","","","","","","","","",""
"","image-keyboard-response","330","95379","0.0-330.0","3KYQYYSHYWTQGSAOCCUOU05CVJ8ODA","AEK2SAEL9GG39","3SA4EMRVJVOCGON1OYE6FAUV3KKP05","","337.5","img/land2.png","74","338.2999999523163","1","1","3","1","0.8,0.2,0.2,0.2,0.8,0.2,0.2,0.2,0.8","0.8,0.2,0.2,0.2,0.8,0.2,0.2,0.2,0.8","1","",""
"","html-keyboard-response","331","95681","0.0-331.0","3KYQYYSHYWTQGSAOCCUOU05CVJ8ODA","AEK2SAEL9GG39","3SA4EMRVJVOCGON1OYE6FAUV3KKP05","","null","<img src=""img/land2.png"" style=""width:200px; border:14px solid green;"">","null","","","","","","","","","",""
"","image-keyboard-response","332","95923","0.0-332.0","3KYQYYSHYWTQGSAOCCUOU05CVJ8ODA","AEK2SAEL9GG39","3SA4EMRVJVOCGON1OYE6FAUV3KKP05","","241.29999995231628","img/land2.png","75","242","2","0","3","1","0.8,0.2,0.2,0.2,0.8,0.2,0.2,0.2,0.8","0.8,0.2,0.2,0.2,0.8,0.2,0.2,0.2,0.8","1","",""
"","html-keyboard-response","333","96225","0.0-333.0","3KYQYYSHYWTQGSAOCCUOU05CVJ8ODA","AEK2SAEL9GG39","3SA4EMRVJVOCGON1OYE6FAUV3KKP05","","null","<img src=""img/land2.png"" style=""width:200px;border:14px solid red;"">","null","","","","","","","","","",""
"","image-keyboard-response","334","96483","0.0-334.0","3KYQYYSHYWTQGSAOCCUOU05CVJ8ODA","AEK2SAEL9GG39","3SA4EMRVJVOCGON1OYE6FAUV3KKP05","","257.60000002384186","img/land5.png","76","258.10000002384186","3","0","2","1","0.8,0.2,0.2,0.2,0.8,0.2,0.2,0.2,0.8","0.8,0.2,0.2,0.2,0.8,0.2,0.2,0.2,0.8","1","",""
"","html-keyboard-response","335","96790","0.0-335.0","3KYQYYSHYWTQGSAOCCUOU05CVJ8ODA","AEK2SAEL9GG39","3SA4EMRVJVOCGON1OYE6FAUV3KKP05","","null","<img src=""img/land5.png"" style=""width:200px;border:14px solid red;"">","null","","","","","","","","","",""
"","image-keyboard-response","336","97123","0.0-336.0","3KYQYYSHYWTQGSAOCCUOU05CVJ8ODA","AEK2SAEL9GG39","3SA4EMRVJVOCGON1OYE6FAUV3KKP05","","332.4000000357628","img/land1.png","75","332.9000000357628","2","0","1","1","0.8,0.2,0.2,0.2,0.8,0.2,0.2,0.2,0.8","0.8,0.2,0.2,0.2,0.8,0.2,0.2,0.2,0.8","1","",""
"","html-keyboard-response","337","97425","0.0-337.0","3KYQYYSHYWTQGSAOCCUOU05CVJ8ODA","AEK2SAEL9GG39","3SA4EMRVJVOCGON1OYE6FAUV3KKP05","","null","<img src=""img/land1.png"" style=""width:200px;border:14px solid red;"">","null","","","","","","","","","",""
"","image-keyboard-response","338","97731","0.0-338.0","3KYQYYSHYWTQGSAOCCUOU05CVJ8ODA","AEK2SAEL9GG39","3SA4EMRVJVOCGON1OYE6FAUV3KKP05","","305.5999999642372","img/land1.png","74","306.30000001192093","1","1","1","1","0.8,0.2,0.2,0.2,0.8,0.2,0.2,0.2,0.8","0.8,0.2,0.2,0.2,0.8,0.2,0.2,0.2,0.8","1","",""
"","html-keyboard-response","339","98033","0.0-339.0","3KYQYYSHYWTQGSAOCCUOU05CVJ8ODA","AEK2SAEL9GG39","3SA4EMRVJVOCGON1OYE6FAUV3KKP05","","null","<img src=""img/land1.png"" style=""width:200px; border:14px solid green;"">","null","","","","","","","","","",""
"","image-keyboard-response","340","98347","0.0-340.0","3KYQYYSHYWTQGSAOCCUOU05CVJ8ODA","AEK2SAEL9GG39","3SA4EMRVJVOCGON1OYE6FAUV3KKP05","","313.30000001192093","img/land2.png","75","313.89999997615814","2","1","3","1","0.8,0.2,0.2,0.2,0.8,0.2,0.2,0.2,0.8","0.8,0.2,0.2,0.2,0.8,0.2,0.2,0.2,0.8","1","",""
"","html-keyboard-response","341","98649","0.0-341.0","3KYQYYSHYWTQGSAOCCUOU05CVJ8ODA","AEK2SAEL9GG39","3SA4EMRVJVOCGON1OYE6FAUV3KKP05","","null","<img src=""img/land2.png"" style=""width:200px; border:14px solid green;"">","null","","","","","","","","","",""
"","image-keyboard-response","342","98955","0.0-342.0","3KYQYYSHYWTQGSAOCCUOU05CVJ8ODA","AEK2SAEL9GG39","3SA4EMRVJVOCGON1OYE6FAUV3KKP05","","305.69999998807907","img/land2.png","76","306.30000001192093","3","1","3","1","0.8,0.2,0.2,0.2,0.8,0.2,0.2,0.2,0.8","0.8,0.2,0.2,0.2,0.8,0.2,0.2,0.2,0.8","1","",""
"","html-keyboard-response","343","99257","0.0-343.0","3KYQYYSHYWTQGSAOCCUOU05CVJ8ODA","AEK2SAEL9GG39","3SA4EMRVJVOCGON1OYE6FAUV3KKP05","","null","<img src=""img/land2.png"" style=""width:200px; border:14px solid green;"">","null","","","","","","","","","",""
"","image-keyboard-response","344","99547","0.0-344.0","3KYQYYSHYWTQGSAOCCUOU05CVJ8ODA","AEK2SAEL9GG39","3SA4EMRVJVOCGON1OYE6FAUV3KKP05","","289.5","img/land5.png","75","290.19999998807907","2","1","2","1","0.8,0.2,0.2,0.2,0.8,0.2,0.2,0.2,0.8","0.8,0.2,0.2,0.2,0.8,0.2,0.2,0.2,0.8","1","",""
"","html-keyboard-response","345","99849","0.0-345.0","3KYQYYSHYWTQGSAOCCUOU05CVJ8ODA","AEK2SAEL9GG39","3SA4EMRVJVOCGON1OYE6FAUV3KKP05","","null","<img src=""img/land5.png"" style=""width:200px; border:14px solid green;"">","null","","","","","","","","","",""
"","image-keyboard-response","346","100123","0.0-346.0","3KYQYYSHYWTQGSAOCCUOU05CVJ8ODA","AEK2SAEL9GG39","3SA4EMRVJVOCGON1OYE6FAUV3KKP05","","273.5","img/land2.png","74","274.2000000476837","1","0","3","1","0.8,0.2,0.2,0.2,0.8,0.2,0.2,0.2,0.8","0.8,0.2,0.2,0.2,0.8,0.2,0.2,0.2,0.8","1","",""
"","html-keyboard-response","347","100425","0.0-347.0","3KYQYYSHYWTQGSAOCCUOU05CVJ8ODA","AEK2SAEL9GG39","3SA4EMRVJVOCGON1OYE6FAUV3KKP05","","null","<img src=""img/land2.png"" style=""width:200px;border:14px solid red;"">","null","","","","","","","","","",""
"","image-keyboard-response","348","100683","0.0-348.0","3KYQYYSHYWTQGSAOCCUOU05CVJ8ODA","AEK2SAEL9GG39","3SA4EMRVJVOCGON1OYE6FAUV3KKP05","","257.5","img/land1.png","75","258.30000001192093","2","0","1","1","0.8,0.2,0.2,0.2,0.8,0.2,0.2,0.2,0.8","0.8,0.2,0.2,0.2,0.8,0.2,0.2,0.2,0.8","1","",""
"","html-keyboard-response","349","100985","0.0-349.0","3KYQYYSHYWTQGSAOCCUOU05CVJ8ODA","AEK2SAEL9GG39","3SA4EMRVJVOCGON1OYE6FAUV3KKP05","","null","<img src=""img/land1.png"" style=""width:200px;border:14px solid red;"">","null","","","","","","","","","",""
"","image-keyboard-response","350","101267","0.0-350.0","3KYQYYSHYWTQGSAOCCUOU05CVJ8ODA","AEK2SAEL9GG39","3SA4EMRVJVOCGON1OYE6FAUV3KKP05","","280.89999997615814","img/land1.png","76","281.5","3","0","1","1","0.8,0.2,0.2,0.2,0.8,0.2,0.2,0.2,0.8","0.8,0.2,0.2,0.2,0.8,0.2,0.2,0.2,0.8","1","",""
"","html-keyboard-response","351","101569","0.0-351.0","3KYQYYSHYWTQGSAOCCUOU05CVJ8ODA","AEK2SAEL9GG39","3SA4EMRVJVOCGON1OYE6FAUV3KKP05","","null","<img src=""img/land1.png"" style=""width:200px;border:14px solid red;"">","null","","","","","","","","","",""
"","image-keyboard-response","352","101803","0.0-352.0","3KYQYYSHYWTQGSAOCCUOU05CVJ8ODA","AEK2SAEL9GG39","3SA4EMRVJVOCGON1OYE6FAUV3KKP05","","233.5999999642372","img/land5.png","75","234.20000004768372","2","1","2","1","0.8,0.2,0.2,0.2,0.8,0.2,0.2,0.2,0.8","0.8,0.2,0.2,0.2,0.8,0.2,0.2,0.2,0.8","1","",""
"","html-keyboard-response","353","102105","0.0-353.0","3KYQYYSHYWTQGSAOCCUOU05CVJ8ODA","AEK2SAEL9GG39","3SA4EMRVJVOCGON1OYE6FAUV3KKP05","","null","<img src=""img/land5.png"" style=""width:200px; border:14px solid green;"">","null","","","","","","","","","",""
"","image-keyboard-response","354","102395","0.0-354.0","3KYQYYSHYWTQGSAOCCUOU05CVJ8ODA","AEK2SAEL9GG39","3SA4EMRVJVOCGON1OYE6FAUV3KKP05","","289.5","img/land2.png","74","290.0999999642372","1","0","3","1","0.8,0.2,0.2,0.2,0.8,0.2,0.2,0.2,0.8","0.8,0.2,0.2,0.2,0.8,0.2,0.2,0.2,0.8","1","",""
"","html-keyboard-response","355","102697","0.0-355.0","3KYQYYSHYWTQGSAOCCUOU05CVJ8ODA","AEK2SAEL9GG39","3SA4EMRVJVOCGON1OYE6FAUV3KKP05","","null","<img src=""img/land2.png"" style=""width:200px;border:14px solid red;"">","null","","","","","","","","","",""
"","image-keyboard-response","356","102955","0.0-356.0","3KYQYYSHYWTQGSAOCCUOU05CVJ8ODA","AEK2SAEL9GG39","3SA4EMRVJVOCGON1OYE6FAUV3KKP05","","257.9000000357628","img/land5.png","75","258.5","2","1","2","1","0.8,0.2,0.2,0.2,0.8,0.2,0.2,0.2,0.8","0.8,0.2,0.2,0.2,0.8,0.2,0.2,0.2,0.8","1","",""
"","html-keyboard-response","357","103257","0.0-357.0","3KYQYYSHYWTQGSAOCCUOU05CVJ8ODA","AEK2SAEL9GG39","3SA4EMRVJVOCGON1OYE6FAUV3KKP05","","null","<img src=""img/land5.png"" style=""width:200px; border:14px solid green;"">","null","","","","","","","","","",""
