"success","trial_type","trial_index","time_elapsed","internal_node_id","assignmentID","mturkID","hitID","view_history","rt","stimulus","key_press","reactionTime","a","r","s","cond","reward_cond","reward_cond_actual","reward_matrix_idx","responses","question_order"
"true","fullscreen","0","2896","0.0-0.0","3R6P78PK7LX954PNAJHVUVEW7LEGTB","AF0M3066S5UF1","37SDSEDIN9ORHL92Y0GV7TIFJ2X187","","","","","","","","","","","","","",""
"","instructions","1","80133","0.0-1.0","3R6P78PK7LX954PNAJHVUVEW7LEGTB","AF0M3066S5UF1","37SDSEDIN9ORHL92Y0GV7TIFJ2X187","[{""page_index"":0,""viewing_time"":52565.199999809265},{""page_index"":1,""viewing_time"":2755.800000190735},{""page_index"":2,""viewing_time"":2288.0999999046326},{""page_index"":3,""viewing_time"":7745.900000095367},{""page_index"":4,""viewing_time"":3582},{""page_index"":5,""viewing_time"":4640.199999809265},{""page_index"":6,""viewing_time"":3657.7000000476837}]","77235.59999990463","","","","","","","","","","","",""
"","image-keyboard-response","2","80933","0.0-2.0","3R6P78PK7LX954PNAJHVUVEW7LEGTB","AF0M3066S5UF1","37SDSEDIN9ORHL92Y0GV7TIFJ2X187","","798.9000000953674","img/land3.png","76","799.8999998569489","3","0","1","1","0.8,0.2,0.2,0.2,0.8,0.2,0.2,0.2,0.8","0.8,0.2,0.2,0.2,0.8,0.2,0.2,0.2,0.8","1","",""
"","html-keyboard-response","3","81235","0.0-3.0","3R6P78PK7LX954PNAJHVUVEW7LEGTB","AF0M3066S5UF1","37SDSEDIN9ORHL92Y0GV7TIFJ2X187","","null","<img src=""img/land3.png"" style=""width:200px;border:14px solid red;"">","null","","","","","","","","","",""
"","image-keyboard-response","4","82010","0.0-4.0","3R6P78PK7LX954PNAJHVUVEW7LEGTB","AF0M3066S5UF1","37SDSEDIN9ORHL92Y0GV7TIFJ2X187","","774","img/land1.png","75","774.8000001907349","2","1","2","1","0.8,0.2,0.2,0.2,0.8,0.2,0.2,0.2,0.8","0.8,0.2,0.2,0.2,0.8,0.2,0.2,0.2,0.8","1","",""
"","html-keyboard-response","5","82312","0.0-5.0","3R6P78PK7LX954PNAJHVUVEW7LEGTB","AF0M3066S5UF1","37SDSEDIN9ORHL92Y0GV7TIFJ2X187","","null","<img src=""img/land1.png"" style=""width:200px; border:14px solid green;"">","null","","","","","","","","","",""
"","image-keyboard-response","6","82767","0.0-6.0","3R6P78PK7LX954PNAJHVUVEW7LEGTB","AF0M3066S5UF1","37SDSEDIN9ORHL92Y0GV7TIFJ2X187","","453.5","img/land1.png","75","454.19999980926514","2","1","2","1","0.8,0.2,0.2,0.2,0.8,0.2,0.2,0.2,0.8","0.8,0.2,0.2,0.2,0.8,0.2,0.2,0.2,0.8","1","",""
"","html-keyboard-response","7","83068","0.0-7.0","3R6P78PK7LX954PNAJHVUVEW7LEGTB","AF0M3066S5UF1","37SDSEDIN9ORHL92Y0GV7TIFJ2X187","","null","<img src=""img/land1.png"" style=""width:200px; border:14px solid green;"">","null","","","","","","","","","",""
"","image-keyboard-response","8","83966","0.0-8.0","3R6P78PK7LX954PNAJHVUVEW7LEGTB","AF0M3066S5UF1","37SDSEDIN9ORHL92Y0GV7TIFJ2X187","","897.7999999523163","img/land2.png","74","898.5","1","0","3","1","0.8,0.2,0.2,0.2,0.8,0.2,0.2,0.2,0.8","0.8,0.2,0.2,0.2,0.8,0.2,0.2,0.2,0.8","1","",""
"","html-keyboard-response","9","84268","0.0-9.0","3R6P78PK7LX954PNAJHVUVEW7LEGTB","AF0M3066S5UF1","37SDSEDIN9ORHL92Y0GV7TIFJ2X187","","null","<img src=""img/land2.png"" style=""width:200px;border:14px solid red;"">","null","","","","","","","","","",""
"","image-keyboard-response","10","85010","0.0-10.0","3R6P78PK7LX954PNAJHVUVEW7LEGTB","AF0M3066S5UF1","37SDSEDIN9ORHL92Y0GV7TIFJ2X187","","740.1999998092651","img/land2.png","75","740.9000000953674","2","0","3","1","0.8,0.2,0.2,0.2,0.8,0.2,0.2,0.2,0.8","0.8,0.2,0.2,0.2,0.8,0.2,0.2,0.2,0.8","1","",""
"","html-keyboard-response","11","85311","0.0-11.0","3R6P78PK7LX954PNAJHVUVEW7LEGTB","AF0M3066S5UF1","37SDSEDIN9ORHL92Y0GV7TIFJ2X187","","null","<img src=""img/land2.png"" style=""width:200px;border:14px solid red;"">","null","","","","","","","","","",""
"","image-keyboard-response","12","86497","0.0-12.0","3R6P78PK7LX954PNAJHVUVEW7LEGTB","AF0M3066S5UF1","37SDSEDIN9ORHL92Y0GV7TIFJ2X187","","1184.8999998569489","img/land3.png","75","1185.6000001430511","2","0","1","1","0.8,0.2,0.2,0.2,0.8,0.2,0.2,0.2,0.8","0.8,0.2,0.2,0.2,0.8,0.2,0.2,0.2,0.8","1","",""
"","html-keyboard-response","13","86798","0.0-13.0","3R6P78PK7LX954PNAJHVUVEW7LEGTB","AF0M3066S5UF1","37SDSEDIN9ORHL92Y0GV7TIFJ2X187","","null","<img src=""img/land3.png"" style=""width:200px;border:14px solid red;"">","null","","","","","","","","","",""
"","image-keyboard-response","14","87760","0.0-14.0","3R6P78PK7LX954PNAJHVUVEW7LEGTB","AF0M3066S5UF1","37SDSEDIN9ORHL92Y0GV7TIFJ2X187","","961.5","img/land2.png","75","962.2999999523163","2","0","3","1","0.8,0.2,0.2,0.2,0.8,0.2,0.2,0.2,0.8","0.8,0.2,0.2,0.2,0.8,0.2,0.2,0.2,0.8","1","",""
"","html-keyboard-response","15","88061","0.0-15.0","3R6P78PK7LX954PNAJHVUVEW7LEGTB","AF0M3066S5UF1","37SDSEDIN9ORHL92Y0GV7TIFJ2X187","","null","<img src=""img/land2.png"" style=""width:200px;border:14px solid red;"">","null","","","","","","","","","",""
"","image-keyboard-response","16","88688","0.0-16.0","3R6P78PK7LX954PNAJHVUVEW7LEGTB","AF0M3066S5UF1","37SDSEDIN9ORHL92Y0GV7TIFJ2X187","","626.0999999046326","img/land1.png","75","626.7999999523163","2","1","2","1","0.8,0.2,0.2,0.2,0.8,0.2,0.2,0.2,0.8","0.8,0.2,0.2,0.2,0.8,0.2,0.2,0.2,0.8","1","",""
"","html-keyboard-response","17","88989","0.0-17.0","3R6P78PK7LX954PNAJHVUVEW7LEGTB","AF0M3066S5UF1","37SDSEDIN9ORHL92Y0GV7TIFJ2X187","","null","<img src=""img/land1.png"" style=""width:200px; border:14px solid green;"">","null","","","","","","","","","",""
"","image-keyboard-response","18","89944","0.0-18.0","3R6P78PK7LX954PNAJHVUVEW7LEGTB","AF0M3066S5UF1","37SDSEDIN9ORHL92Y0GV7TIFJ2X187","","954.1000001430511","img/land2.png","74","954.7000000476837","1","1","3","1","0.8,0.2,0.2,0.2,0.8,0.2,0.2,0.2,0.8","0.8,0.2,0.2,0.2,0.8,0.2,0.2,0.2,0.8","1","",""
"","html-keyboard-response","19","90246","0.0-19.0","3R6P78PK7LX954PNAJHVUVEW7LEGTB","AF0M3066S5UF1","37SDSEDIN9ORHL92Y0GV7TIFJ2X187","","null","<img src=""img/land2.png"" style=""width:200px; border:14px solid green;"">","null","","","","","","","","","",""
"","image-keyboard-response","20","90687","0.0-20.0","3R6P78PK7LX954PNAJHVUVEW7LEGTB","AF0M3066S5UF1","37SDSEDIN9ORHL92Y0GV7TIFJ2X187","","440.7999999523163","img/land2.png","74","441.39999985694885","1","0","3","1","0.8,0.2,0.2,0.2,0.8,0.2,0.2,0.2,0.8","0.8,0.2,0.2,0.2,0.8,0.2,0.2,0.2,0.8","1","",""
"","html-keyboard-response","21","90990","0.0-21.0","3R6P78PK7LX954PNAJHVUVEW7LEGTB","AF0M3066S5UF1","37SDSEDIN9ORHL92Y0GV7TIFJ2X187","","null","<img src=""img/land2.png"" style=""width:200px;border:14px solid red;"">","null","","","","","","","","","",""
"","image-keyboard-response","22","91422","0.0-22.0","3R6P78PK7LX954PNAJHVUVEW7LEGTB","AF0M3066S5UF1","37SDSEDIN9ORHL92Y0GV7TIFJ2X187","","431.5","img/land2.png","74","432","1","1","3","1","0.8,0.2,0.2,0.2,0.8,0.2,0.2,0.2,0.8","0.8,0.2,0.2,0.2,0.8,0.2,0.2,0.2,0.8","1","",""
"","html-keyboard-response","23","91724","0.0-23.0","3R6P78PK7LX954PNAJHVUVEW7LEGTB","AF0M3066S5UF1","37SDSEDIN9ORHL92Y0GV7TIFJ2X187","","null","<img src=""img/land2.png"" style=""width:200px; border:14px solid green;"">","null","","","","","","","","","",""
"","image-keyboard-response","24","93355","0.0-24.0","3R6P78PK7LX954PNAJHVUVEW7LEGTB","AF0M3066S5UF1","37SDSEDIN9ORHL92Y0GV7TIFJ2X187","","1630.6000001430511","img/land3.png","74","1631.4000000953674","1","0","1","1","0.8,0.2,0.2,0.2,0.8,0.2,0.2,0.2,0.8","0.8,0.2,0.2,0.2,0.8,0.2,0.2,0.2,0.8","1","",""
"","html-keyboard-response","25","93657","0.0-25.0","3R6P78PK7LX954PNAJHVUVEW7LEGTB","AF0M3066S5UF1","37SDSEDIN9ORHL92Y0GV7TIFJ2X187","","null","<img src=""img/land3.png"" style=""width:200px;border:14px solid red;"">","null","","","","","","","","","",""
"","image-keyboard-response","26","94731","0.0-26.0","3R6P78PK7LX954PNAJHVUVEW7LEGTB","AF0M3066S5UF1","37SDSEDIN9ORHL92Y0GV7TIFJ2X187","","1073.0999999046326","img/land3.png","75","1073.5999999046326","2","0","1","1","0.8,0.2,0.2,0.2,0.8,0.2,0.2,0.2,0.8","0.8,0.2,0.2,0.2,0.8,0.2,0.2,0.2,0.8","1","",""
"","html-keyboard-response","27","95033","0.0-27.0","3R6P78PK7LX954PNAJHVUVEW7LEGTB","AF0M3066S5UF1","37SDSEDIN9ORHL92Y0GV7TIFJ2X187","","null","<img src=""img/land3.png"" style=""width:200px;border:14px solid red;"">","null","","","","","","","","","",""
"","image-keyboard-response","28","96066","0.0-28.0","3R6P78PK7LX954PNAJHVUVEW7LEGTB","AF0M3066S5UF1","37SDSEDIN9ORHL92Y0GV7TIFJ2X187","","1032.2000000476837","img/land2.png","74","1032.7000000476837","1","0","3","1","0.8,0.2,0.2,0.2,0.8,0.2,0.2,0.2,0.8","0.8,0.2,0.2,0.2,0.8,0.2,0.2,0.2,0.8","1","",""
"","html-keyboard-response","29","96368","0.0-29.0","3R6P78PK7LX954PNAJHVUVEW7LEGTB","AF0M3066S5UF1","37SDSEDIN9ORHL92Y0GV7TIFJ2X187","","null","<img src=""img/land2.png"" style=""width:200px;border:14px solid red;"">","null","","","","","","","","","",""
"","image-keyboard-response","30","97657","0.0-30.0","3R6P78PK7LX954PNAJHVUVEW7LEGTB","AF0M3066S5UF1","37SDSEDIN9ORHL92Y0GV7TIFJ2X187","","1288.1000001430511","img/land3.png","74","1288.5","1","1","1","1","0.8,0.2,0.2,0.2,0.8,0.2,0.2,0.2,0.8","0.8,0.2,0.2,0.2,0.8,0.2,0.2,0.2,0.8","1","",""
"","html-keyboard-response","31","97958","0.0-31.0","3R6P78PK7LX954PNAJHVUVEW7LEGTB","AF0M3066S5UF1","37SDSEDIN9ORHL92Y0GV7TIFJ2X187","","null","<img src=""img/land3.png"" style=""width:200px; border:14px solid green;"">","null","","","","","","","","","",""
"","image-keyboard-response","32","99204","0.0-32.0","3R6P78PK7LX954PNAJHVUVEW7LEGTB","AF0M3066S5UF1","37SDSEDIN9ORHL92Y0GV7TIFJ2X187","","1245.3000001907349","img/land2.png","74","1246","1","0","3","1","0.8,0.2,0.2,0.2,0.8,0.2,0.2,0.2,0.8","0.8,0.2,0.2,0.2,0.8,0.2,0.2,0.2,0.8","1","",""
"","html-keyboard-response","33","99505","0.0-33.0","3R6P78PK7LX954PNAJHVUVEW7LEGTB","AF0M3066S5UF1","37SDSEDIN9ORHL92Y0GV7TIFJ2X187","","null","<img src=""img/land2.png"" style=""width:200px;border:14px solid red;"">","null","","","","","","","","","",""
"","image-keyboard-response","34","100169","0.0-34.0","3R6P78PK7LX954PNAJHVUVEW7LEGTB","AF0M3066S5UF1","37SDSEDIN9ORHL92Y0GV7TIFJ2X187","","663.5","img/land2.png","75","664.0999999046326","2","0","3","1","0.8,0.2,0.2,0.2,0.8,0.2,0.2,0.2,0.8","0.8,0.2,0.2,0.2,0.8,0.2,0.2,0.2,0.8","1","",""
"","html-keyboard-response","35","100471","0.0-35.0","3R6P78PK7LX954PNAJHVUVEW7LEGTB","AF0M3066S5UF1","37SDSEDIN9ORHL92Y0GV7TIFJ2X187","","null","<img src=""img/land2.png"" style=""width:200px;border:14px solid red;"">","null","","","","","","","","","",""
"","image-keyboard-response","36","101309","0.0-36.0","3R6P78PK7LX954PNAJHVUVEW7LEGTB","AF0M3066S5UF1","37SDSEDIN9ORHL92Y0GV7TIFJ2X187","","837.7000000476837","img/land3.png","74","838.1000001430511","1","0","1","1","0.8,0.2,0.2,0.2,0.8,0.2,0.2,0.2,0.8","0.8,0.2,0.2,0.2,0.8,0.2,0.2,0.2,0.8","1","",""
"","html-keyboard-response","37","101611","0.0-37.0","3R6P78PK7LX954PNAJHVUVEW7LEGTB","AF0M3066S5UF1","37SDSEDIN9ORHL92Y0GV7TIFJ2X187","","null","<img src=""img/land3.png"" style=""width:200px;border:14px solid red;"">","null","","","","","","","","","",""
"","image-keyboard-response","38","102920","0.0-38.0","3R6P78PK7LX954PNAJHVUVEW7LEGTB","AF0M3066S5UF1","37SDSEDIN9ORHL92Y0GV7TIFJ2X187","","1308.7999999523163","img/land2.png","76","1309.4000000953674","3","1","3","1","0.8,0.2,0.2,0.2,0.8,0.2,0.2,0.2,0.8","0.8,0.2,0.2,0.2,0.8,0.2,0.2,0.2,0.8","1","",""
"","html-keyboard-response","39","103222","0.0-39.0","3R6P78PK7LX954PNAJHVUVEW7LEGTB","AF0M3066S5UF1","37SDSEDIN9ORHL92Y0GV7TIFJ2X187","","null","<img src=""img/land2.png"" style=""width:200px; border:14px solid green;"">","null","","","","","","","","","",""
"","image-keyboard-response","40","104095","0.0-40.0","3R6P78PK7LX954PNAJHVUVEW7LEGTB","AF0M3066S5UF1","37SDSEDIN9ORHL92Y0GV7TIFJ2X187","","872","img/land1.png","75","872.7000000476837","2","0","2","1","0.8,0.2,0.2,0.2,0.8,0.2,0.2,0.2,0.8","0.8,0.2,0.2,0.2,0.8,0.2,0.2,0.2,0.8","1","",""
"","html-keyboard-response","41","104396","0.0-41.0","3R6P78PK7LX954PNAJHVUVEW7LEGTB","AF0M3066S5UF1","37SDSEDIN9ORHL92Y0GV7TIFJ2X187","","null","<img src=""img/land1.png"" style=""width:200px;border:14px solid red;"">","null","","","","","","","","","",""
"","image-keyboard-response","42","105220","0.0-42.0","3R6P78PK7LX954PNAJHVUVEW7LEGTB","AF0M3066S5UF1","37SDSEDIN9ORHL92Y0GV7TIFJ2X187","","823.5","img/land2.png","76","824.2000000476837","3","1","3","1","0.8,0.2,0.2,0.2,0.8,0.2,0.2,0.2,0.8","0.8,0.2,0.2,0.2,0.8,0.2,0.2,0.2,0.8","1","",""
"","html-keyboard-response","43","105521","0.0-43.0","3R6P78PK7LX954PNAJHVUVEW7LEGTB","AF0M3066S5UF1","37SDSEDIN9ORHL92Y0GV7TIFJ2X187","","null","<img src=""img/land2.png"" style=""width:200px; border:14px solid green;"">","null","","","","","","","","","",""
"","image-keyboard-response","44","106210","0.0-44.0","3R6P78PK7LX954PNAJHVUVEW7LEGTB","AF0M3066S5UF1","37SDSEDIN9ORHL92Y0GV7TIFJ2X187","","687.8999998569489","img/land1.png","75","688.4000000953674","2","1","2","1","0.8,0.2,0.2,0.2,0.8,0.2,0.2,0.2,0.8","0.8,0.2,0.2,0.2,0.8,0.2,0.2,0.2,0.8","1","",""
"","html-keyboard-response","45","106511","0.0-45.0","3R6P78PK7LX954PNAJHVUVEW7LEGTB","AF0M3066S5UF1","37SDSEDIN9ORHL92Y0GV7TIFJ2X187","","null","<img src=""img/land1.png"" style=""width:200px; border:14px solid green;"">","null","","","","","","","","","",""
"","image-keyboard-response","46","107250","0.0-46.0","3R6P78PK7LX954PNAJHVUVEW7LEGTB","AF0M3066S5UF1","37SDSEDIN9ORHL92Y0GV7TIFJ2X187","","738.7999999523163","img/land2.png","76","739.4000000953674","3","1","3","1","0.8,0.2,0.2,0.2,0.8,0.2,0.2,0.2,0.8","0.8,0.2,0.2,0.2,0.8,0.2,0.2,0.2,0.8","1","",""
"","html-keyboard-response","47","107552","0.0-47.0","3R6P78PK7LX954PNAJHVUVEW7LEGTB","AF0M3066S5UF1","37SDSEDIN9ORHL92Y0GV7TIFJ2X187","","null","<img src=""img/land2.png"" style=""width:200px; border:14px solid green;"">","null","","","","","","","","","",""
"","image-keyboard-response","48","108046","0.0-48.0","3R6P78PK7LX954PNAJHVUVEW7LEGTB","AF0M3066S5UF1","37SDSEDIN9ORHL92Y0GV7TIFJ2X187","","493.19999980926514","img/land1.png","75","493.80000019073486","2","1","2","1","0.8,0.2,0.2,0.2,0.8,0.2,0.2,0.2,0.8","0.8,0.2,0.2,0.2,0.8,0.2,0.2,0.2,0.8","1","",""
"","html-keyboard-response","49","108348","0.0-49.0","3R6P78PK7LX954PNAJHVUVEW7LEGTB","AF0M3066S5UF1","37SDSEDIN9ORHL92Y0GV7TIFJ2X187","","null","<img src=""img/land1.png"" style=""width:200px; border:14px solid green;"">","null","","","","","","","","","",""
"","image-keyboard-response","50","108800","0.0-50.0","3R6P78PK7LX954PNAJHVUVEW7LEGTB","AF0M3066S5UF1","37SDSEDIN9ORHL92Y0GV7TIFJ2X187","","451.7000000476837","img/land1.png","75","452.40000009536743","2","1","2","1","0.8,0.2,0.2,0.2,0.8,0.2,0.2,0.2,0.8","0.8,0.2,0.2,0.2,0.8,0.2,0.2,0.2,0.8","1","",""
"","html-keyboard-response","51","109102","0.0-51.0","3R6P78PK7LX954PNAJHVUVEW7LEGTB","AF0M3066S5UF1","37SDSEDIN9ORHL92Y0GV7TIFJ2X187","","null","<img src=""img/land1.png"" style=""width:200px; border:14px solid green;"">","null","","","","","","","","","",""
"","image-keyboard-response","52","109634","0.0-52.0","3R6P78PK7LX954PNAJHVUVEW7LEGTB","AF0M3066S5UF1","37SDSEDIN9ORHL92Y0GV7TIFJ2X187","","530.9000000953674","img/land2.png","76","531.5","3","1","3","1","0.8,0.2,0.2,0.2,0.8,0.2,0.2,0.2,0.8","0.8,0.2,0.2,0.2,0.8,0.2,0.2,0.2,0.8","1","",""
"","html-keyboard-response","53","109936","0.0-53.0","3R6P78PK7LX954PNAJHVUVEW7LEGTB","AF0M3066S5UF1","37SDSEDIN9ORHL92Y0GV7TIFJ2X187","","null","<img src=""img/land2.png"" style=""width:200px; border:14px solid green;"">","null","","","","","","","","","",""
"","image-keyboard-response","54","110422","0.0-54.0","3R6P78PK7LX954PNAJHVUVEW7LEGTB","AF0M3066S5UF1","37SDSEDIN9ORHL92Y0GV7TIFJ2X187","","485","img/land2.png","76","485.5","3","1","3","1","0.8,0.2,0.2,0.2,0.8,0.2,0.2,0.2,0.8","0.8,0.2,0.2,0.2,0.8,0.2,0.2,0.2,0.8","1","",""
"","html-keyboard-response","55","110724","0.0-55.0","3R6P78PK7LX954PNAJHVUVEW7LEGTB","AF0M3066S5UF1","37SDSEDIN9ORHL92Y0GV7TIFJ2X187","","null","<img src=""img/land2.png"" style=""width:200px; border:14px solid green;"">","null","","","","","","","","","",""
"","image-keyboard-response","56","111342","0.0-56.0","3R6P78PK7LX954PNAJHVUVEW7LEGTB","AF0M3066S5UF1","37SDSEDIN9ORHL92Y0GV7TIFJ2X187","","617.5","img/land1.png","75","618.2000000476837","2","0","2","1","0.8,0.2,0.2,0.2,0.8,0.2,0.2,0.2,0.8","0.8,0.2,0.2,0.2,0.8,0.2,0.2,0.2,0.8","1","",""
"","html-keyboard-response","57","111643","0.0-57.0","3R6P78PK7LX954PNAJHVUVEW7LEGTB","AF0M3066S5UF1","37SDSEDIN9ORHL92Y0GV7TIFJ2X187","","null","<img src=""img/land1.png"" style=""width:200px;border:14px solid red;"">","null","","","","","","","","","",""
"","image-keyboard-response","58","112114","0.0-58.0","3R6P78PK7LX954PNAJHVUVEW7LEGTB","AF0M3066S5UF1","37SDSEDIN9ORHL92Y0GV7TIFJ2X187","","470.2999999523163","img/land1.png","75","470.7999999523163","2","1","2","1","0.8,0.2,0.2,0.2,0.8,0.2,0.2,0.2,0.8","0.8,0.2,0.2,0.2,0.8,0.2,0.2,0.2,0.8","1","",""
"","html-keyboard-response","59","112416","0.0-59.0","3R6P78PK7LX954PNAJHVUVEW7LEGTB","AF0M3066S5UF1","37SDSEDIN9ORHL92Y0GV7TIFJ2X187","","null","<img src=""img/land1.png"" style=""width:200px; border:14px solid green;"">","null","","","","","","","","","",""
"","image-keyboard-response","60","113052","0.0-60.0","3R6P78PK7LX954PNAJHVUVEW7LEGTB","AF0M3066S5UF1","37SDSEDIN9ORHL92Y0GV7TIFJ2X187","","635","img/land3.png","76","636.1000001430511","3","0","1","1","0.8,0.2,0.2,0.2,0.8,0.2,0.2,0.2,0.8","0.8,0.2,0.2,0.2,0.8,0.2,0.2,0.2,0.8","1","",""
"","html-keyboard-response","61","113355","0.0-61.0","3R6P78PK7LX954PNAJHVUVEW7LEGTB","AF0M3066S5UF1","37SDSEDIN9ORHL92Y0GV7TIFJ2X187","","null","<img src=""img/land3.png"" style=""width:200px;border:14px solid red;"">","null","","","","","","","","","",""
"","image-keyboard-response","62","114045","0.0-62.0","3R6P78PK7LX954PNAJHVUVEW7LEGTB","AF0M3066S5UF1","37SDSEDIN9ORHL92Y0GV7TIFJ2X187","","690.1000001430511","img/land3.png","74","690.5","1","1","1","1","0.8,0.2,0.2,0.2,0.8,0.2,0.2,0.2,0.8","0.8,0.2,0.2,0.2,0.8,0.2,0.2,0.2,0.8","1","",""
"","html-keyboard-response","63","114348","0.0-63.0","3R6P78PK7LX954PNAJHVUVEW7LEGTB","AF0M3066S5UF1","37SDSEDIN9ORHL92Y0GV7TIFJ2X187","","null","<img src=""img/land3.png"" style=""width:200px; border:14px solid green;"">","null","","","","","","","","","",""
"","image-keyboard-response","64","115484","0.0-64.0","3R6P78PK7LX954PNAJHVUVEW7LEGTB","AF0M3066S5UF1","37SDSEDIN9ORHL92Y0GV7TIFJ2X187","","1135.9000000953674","img/land1.png","75","1136.5999999046326","2","1","2","1","0.8,0.2,0.2,0.2,0.8,0.2,0.2,0.2,0.8","0.8,0.2,0.2,0.2,0.8,0.2,0.2,0.2,0.8","1","",""
"","html-keyboard-response","65","115786","0.0-65.0","3R6P78PK7LX954PNAJHVUVEW7LEGTB","AF0M3066S5UF1","37SDSEDIN9ORHL92Y0GV7TIFJ2X187","","null","<img src=""img/land1.png"" style=""width:200px; border:14px solid green;"">","null","","","","","","","","","",""
"","image-keyboard-response","66","116455","0.0-66.0","3R6P78PK7LX954PNAJHVUVEW7LEGTB","AF0M3066S5UF1","37SDSEDIN9ORHL92Y0GV7TIFJ2X187","","668.5","img/land2.png","76","669.0999999046326","3","1","3","1","0.8,0.2,0.2,0.2,0.8,0.2,0.2,0.2,0.8","0.8,0.2,0.2,0.2,0.8,0.2,0.2,0.2,0.8","1","",""
"","html-keyboard-response","67","116756","0.0-67.0","3R6P78PK7LX954PNAJHVUVEW7LEGTB","AF0M3066S5UF1","37SDSEDIN9ORHL92Y0GV7TIFJ2X187","","null","<img src=""img/land2.png"" style=""width:200px; border:14px solid green;"">","null","","","","","","","","","",""
"","image-keyboard-response","68","117394","0.0-68.0","3R6P78PK7LX954PNAJHVUVEW7LEGTB","AF0M3066S5UF1","37SDSEDIN9ORHL92Y0GV7TIFJ2X187","","637.0999999046326","img/land2.png","76","637.8000001907349","3","1","3","1","0.8,0.2,0.2,0.2,0.8,0.2,0.2,0.2,0.8","0.8,0.2,0.2,0.2,0.8,0.2,0.2,0.2,0.8","1","",""
"","html-keyboard-response","69","117696","0.0-69.0","3R6P78PK7LX954PNAJHVUVEW7LEGTB","AF0M3066S5UF1","37SDSEDIN9ORHL92Y0GV7TIFJ2X187","","null","<img src=""img/land2.png"" style=""width:200px; border:14px solid green;"">","null","","","","","","","","","",""
"","image-keyboard-response","70","118350","0.0-70.0","3R6P78PK7LX954PNAJHVUVEW7LEGTB","AF0M3066S5UF1","37SDSEDIN9ORHL92Y0GV7TIFJ2X187","","653.5999999046326","img/land1.png","75","654.1000001430511","2","1","2","1","0.8,0.2,0.2,0.2,0.8,0.2,0.2,0.2,0.8","0.8,0.2,0.2,0.2,0.8,0.2,0.2,0.2,0.8","1","",""
"","html-keyboard-response","71","118652","0.0-71.0","3R6P78PK7LX954PNAJHVUVEW7LEGTB","AF0M3066S5UF1","37SDSEDIN9ORHL92Y0GV7TIFJ2X187","","null","<img src=""img/land1.png"" style=""width:200px; border:14px solid green;"">","null","","","","","","","","","",""
"","image-keyboard-response","72","119188","0.0-72.0","3R6P78PK7LX954PNAJHVUVEW7LEGTB","AF0M3066S5UF1","37SDSEDIN9ORHL92Y0GV7TIFJ2X187","","535","img/land1.png","75","535.5999999046326","2","1","2","1","0.8,0.2,0.2,0.2,0.8,0.2,0.2,0.2,0.8","0.8,0.2,0.2,0.2,0.8,0.2,0.2,0.2,0.8","1","",""
"","html-keyboard-response","73","119490","0.0-73.0","3R6P78PK7LX954PNAJHVUVEW7LEGTB","AF0M3066S5UF1","37SDSEDIN9ORHL92Y0GV7TIFJ2X187","","null","<img src=""img/land1.png"" style=""width:200px; border:14px solid green;"">","null","","","","","","","","","",""
"","image-keyboard-response","74","119936","0.0-74.0","3R6P78PK7LX954PNAJHVUVEW7LEGTB","AF0M3066S5UF1","37SDSEDIN9ORHL92Y0GV7TIFJ2X187","","444.90000009536743","img/land3.png","74","445.5","1","1","1","1","0.8,0.2,0.2,0.2,0.8,0.2,0.2,0.2,0.8","0.8,0.2,0.2,0.2,0.8,0.2,0.2,0.2,0.8","1","",""
"","html-keyboard-response","75","120237","0.0-75.0","3R6P78PK7LX954PNAJHVUVEW7LEGTB","AF0M3066S5UF1","37SDSEDIN9ORHL92Y0GV7TIFJ2X187","","null","<img src=""img/land3.png"" style=""width:200px; border:14px solid green;"">","null","","","","","","","","","",""
"","image-keyboard-response","76","120875","0.0-76.0","3R6P78PK7LX954PNAJHVUVEW7LEGTB","AF0M3066S5UF1","37SDSEDIN9ORHL92Y0GV7TIFJ2X187","","636.7000000476837","img/land1.png","75","637.5999999046326","2","1","2","1","0.8,0.2,0.2,0.2,0.8,0.2,0.2,0.2,0.8","0.8,0.2,0.2,0.2,0.8,0.2,0.2,0.2,0.8","1","",""
"","html-keyboard-response","77","121177","0.0-77.0","3R6P78PK7LX954PNAJHVUVEW7LEGTB","AF0M3066S5UF1","37SDSEDIN9ORHL92Y0GV7TIFJ2X187","","null","<img src=""img/land1.png"" style=""width:200px; border:14px solid green;"">","null","","","","","","","","","",""
"","image-keyboard-response","78","121694","0.0-78.0","3R6P78PK7LX954PNAJHVUVEW7LEGTB","AF0M3066S5UF1","37SDSEDIN9ORHL92Y0GV7TIFJ2X187","","516.5","img/land3.png","76","517","3","0","1","1","0.8,0.2,0.2,0.2,0.8,0.2,0.2,0.2,0.8","0.8,0.2,0.2,0.2,0.8,0.2,0.2,0.2,0.8","1","",""
"","html-keyboard-response","79","121996","0.0-79.0","3R6P78PK7LX954PNAJHVUVEW7LEGTB","AF0M3066S5UF1","37SDSEDIN9ORHL92Y0GV7TIFJ2X187","","null","<img src=""img/land3.png"" style=""width:200px;border:14px solid red;"">","null","","","","","","","","","",""
"","image-keyboard-response","80","122854","0.0-80.0","3R6P78PK7LX954PNAJHVUVEW7LEGTB","AF0M3066S5UF1","37SDSEDIN9ORHL92Y0GV7TIFJ2X187","","856.7000000476837","img/land2.png","76","857.2999999523163","3","1","3","1","0.8,0.2,0.2,0.2,0.8,0.2,0.2,0.2,0.8","0.8,0.2,0.2,0.2,0.8,0.2,0.2,0.2,0.8","1","",""
"","html-keyboard-response","81","123165","0.0-81.0","3R6P78PK7LX954PNAJHVUVEW7LEGTB","AF0M3066S5UF1","37SDSEDIN9ORHL92Y0GV7TIFJ2X187","","null","<img src=""img/land2.png"" style=""width:200px; border:14px solid green;"">","null","","","","","","","","","",""
"","image-keyboard-response","82","123848","0.0-82.0","3R6P78PK7LX954PNAJHVUVEW7LEGTB","AF0M3066S5UF1","37SDSEDIN9ORHL92Y0GV7TIFJ2X187","","681.7999999523163","img/land1.png","75","682.5999999046326","2","1","2","1","0.8,0.2,0.2,0.2,0.8,0.2,0.2,0.2,0.8","0.8,0.2,0.2,0.2,0.8,0.2,0.2,0.2,0.8","1","",""
"","html-keyboard-response","83","124150","0.0-83.0","3R6P78PK7LX954PNAJHVUVEW7LEGTB","AF0M3066S5UF1","37SDSEDIN9ORHL92Y0GV7TIFJ2X187","","null","<img src=""img/land1.png"" style=""width:200px; border:14px solid green;"">","null","","","","","","","","","",""
"","image-keyboard-response","84","124567","0.0-84.0","3R6P78PK7LX954PNAJHVUVEW7LEGTB","AF0M3066S5UF1","37SDSEDIN9ORHL92Y0GV7TIFJ2X187","","416.7999999523163","img/land1.png","75","417.40000009536743","2","1","2","1","0.8,0.2,0.2,0.2,0.8,0.2,0.2,0.2,0.8","0.8,0.2,0.2,0.2,0.8,0.2,0.2,0.2,0.8","1","",""
"","html-keyboard-response","85","124869","0.0-85.0","3R6P78PK7LX954PNAJHVUVEW7LEGTB","AF0M3066S5UF1","37SDSEDIN9ORHL92Y0GV7TIFJ2X187","","null","<img src=""img/land1.png"" style=""width:200px; border:14px solid green;"">","null","","","","","","","","","",""
"","image-keyboard-response","86","125249","0.0-86.0","3R6P78PK7LX954PNAJHVUVEW7LEGTB","AF0M3066S5UF1","37SDSEDIN9ORHL92Y0GV7TIFJ2X187","","378.5","img/land1.png","75","379.2000000476837","2","1","2","1","0.8,0.2,0.2,0.2,0.8,0.2,0.2,0.2,0.8","0.8,0.2,0.2,0.2,0.8,0.2,0.2,0.2,0.8","1","",""
"","html-keyboard-response","87","125550","0.0-87.0","3R6P78PK7LX954PNAJHVUVEW7LEGTB","AF0M3066S5UF1","37SDSEDIN9ORHL92Y0GV7TIFJ2X187","","null","<img src=""img/land1.png"" style=""width:200px; border:14px solid green;"">","null","","","","","","","","","",""
"","image-keyboard-response","88","125914","0.0-88.0","3R6P78PK7LX954PNAJHVUVEW7LEGTB","AF0M3066S5UF1","37SDSEDIN9ORHL92Y0GV7TIFJ2X187","","363.10000014305115","img/land1.png","75","363.7999999523163","2","1","2","1","0.8,0.2,0.2,0.2,0.8,0.2,0.2,0.2,0.8","0.8,0.2,0.2,0.2,0.8,0.2,0.2,0.2,0.8","1","",""
"","html-keyboard-response","89","126216","0.0-89.0","3R6P78PK7LX954PNAJHVUVEW7LEGTB","AF0M3066S5UF1","37SDSEDIN9ORHL92Y0GV7TIFJ2X187","","null","<img src=""img/land1.png"" style=""width:200px; border:14px solid green;"">","null","","","","","","","","","",""
"","image-keyboard-response","90","126791","0.0-90.0","3R6P78PK7LX954PNAJHVUVEW7LEGTB","AF0M3066S5UF1","37SDSEDIN9ORHL92Y0GV7TIFJ2X187","","574.5","img/land3.png","74","575.1000001430511","1","1","1","1","0.8,0.2,0.2,0.2,0.8,0.2,0.2,0.2,0.8","0.8,0.2,0.2,0.2,0.8,0.2,0.2,0.2,0.8","1","",""
"","html-keyboard-response","91","127093","0.0-91.0","3R6P78PK7LX954PNAJHVUVEW7LEGTB","AF0M3066S5UF1","37SDSEDIN9ORHL92Y0GV7TIFJ2X187","","null","<img src=""img/land3.png"" style=""width:200px; border:14px solid green;"">","null","","","","","","","","","",""
"","image-keyboard-response","92","127721","0.0-92.0","3R6P78PK7LX954PNAJHVUVEW7LEGTB","AF0M3066S5UF1","37SDSEDIN9ORHL92Y0GV7TIFJ2X187","","627.1000001430511","img/land1.png","75","627.6999998092651","2","0","2","1","0.8,0.2,0.2,0.2,0.8,0.2,0.2,0.2,0.8","0.8,0.2,0.2,0.2,0.8,0.2,0.2,0.2,0.8","1","",""
"","html-keyboard-response","93","128023","0.0-93.0","3R6P78PK7LX954PNAJHVUVEW7LEGTB","AF0M3066S5UF1","37SDSEDIN9ORHL92Y0GV7TIFJ2X187","","null","<img src=""img/land1.png"" style=""width:200px;border:14px solid red;"">","null","","","","","","","","","",""
"","image-keyboard-response","94","128646","0.0-94.0","3R6P78PK7LX954PNAJHVUVEW7LEGTB","AF0M3066S5UF1","37SDSEDIN9ORHL92Y0GV7TIFJ2X187","","621.7000000476837","img/land2.png","76","623","3","1","3","1","0.8,0.2,0.2,0.2,0.8,0.2,0.2,0.2,0.8","0.8,0.2,0.2,0.2,0.8,0.2,0.2,0.2,0.8","1","",""
"","html-keyboard-response","95","128947","0.0-95.0","3R6P78PK7LX954PNAJHVUVEW7LEGTB","AF0M3066S5UF1","37SDSEDIN9ORHL92Y0GV7TIFJ2X187","","null","<img src=""img/land2.png"" style=""width:200px; border:14px solid green;"">","null","","","","","","","","","",""
"","image-keyboard-response","96","129660","0.0-96.0","3R6P78PK7LX954PNAJHVUVEW7LEGTB","AF0M3066S5UF1","37SDSEDIN9ORHL92Y0GV7TIFJ2X187","","712","img/land3.png","74","712.5999999046326","1","0","1","1","0.8,0.2,0.2,0.2,0.8,0.2,0.2,0.2,0.8","0.8,0.2,0.2,0.2,0.8,0.2,0.2,0.2,0.8","1","",""
"","html-keyboard-response","97","129961","0.0-97.0","3R6P78PK7LX954PNAJHVUVEW7LEGTB","AF0M3066S5UF1","37SDSEDIN9ORHL92Y0GV7TIFJ2X187","","null","<img src=""img/land3.png"" style=""width:200px;border:14px solid red;"">","null","","","","","","","","","",""
"","image-keyboard-response","98","130423","0.0-98.0","3R6P78PK7LX954PNAJHVUVEW7LEGTB","AF0M3066S5UF1","37SDSEDIN9ORHL92Y0GV7TIFJ2X187","","461.40000009536743","img/land3.png","74","461.90000009536743","1","1","1","1","0.8,0.2,0.2,0.2,0.8,0.2,0.2,0.2,0.8","0.8,0.2,0.2,0.2,0.8,0.2,0.2,0.2,0.8","1","",""
"","html-keyboard-response","99","130725","0.0-99.0","3R6P78PK7LX954PNAJHVUVEW7LEGTB","AF0M3066S5UF1","37SDSEDIN9ORHL92Y0GV7TIFJ2X187","","null","<img src=""img/land3.png"" style=""width:200px; border:14px solid green;"">","null","","","","","","","","","",""
"","image-keyboard-response","100","131756","0.0-100.0","3R6P78PK7LX954PNAJHVUVEW7LEGTB","AF0M3066S5UF1","37SDSEDIN9ORHL92Y0GV7TIFJ2X187","","1030","img/land2.png","76","1030.6999998092651","3","1","3","1","0.8,0.2,0.2,0.2,0.8,0.2,0.2,0.2,0.8","0.8,0.2,0.2,0.2,0.8,0.2,0.2,0.2,0.8","1","",""
"","html-keyboard-response","101","132057","0.0-101.0","3R6P78PK7LX954PNAJHVUVEW7LEGTB","AF0M3066S5UF1","37SDSEDIN9ORHL92Y0GV7TIFJ2X187","","null","<img src=""img/land2.png"" style=""width:200px; border:14px solid green;"">","null","","","","","","","","","",""
"","image-keyboard-response","102","132546","0.0-102.0","3R6P78PK7LX954PNAJHVUVEW7LEGTB","AF0M3066S5UF1","37SDSEDIN9ORHL92Y0GV7TIFJ2X187","","487.5","img/land1.png","75","488","2","1","2","1","0.8,0.2,0.2,0.2,0.8,0.2,0.2,0.2,0.8","0.8,0.2,0.2,0.2,0.8,0.2,0.2,0.2,0.8","1","",""
"","html-keyboard-response","103","132847","0.0-103.0","3R6P78PK7LX954PNAJHVUVEW7LEGTB","AF0M3066S5UF1","37SDSEDIN9ORHL92Y0GV7TIFJ2X187","","null","<img src=""img/land1.png"" style=""width:200px; border:14px solid green;"">","null","","","","","","","","","",""
"","image-keyboard-response","104","133571","0.0-104.0","3R6P78PK7LX954PNAJHVUVEW7LEGTB","AF0M3066S5UF1","37SDSEDIN9ORHL92Y0GV7TIFJ2X187","","723.5","img/land3.png","74","724","1","0","1","1","0.8,0.2,0.2,0.2,0.8,0.2,0.2,0.2,0.8","0.8,0.2,0.2,0.2,0.8,0.2,0.2,0.2,0.8","1","",""
"","html-keyboard-response","105","133873","0.0-105.0","3R6P78PK7LX954PNAJHVUVEW7LEGTB","AF0M3066S5UF1","37SDSEDIN9ORHL92Y0GV7TIFJ2X187","","null","<img src=""img/land3.png"" style=""width:200px;border:14px solid red;"">","null","","","","","","","","","",""
"","image-keyboard-response","106","134167","0.0-106.0","3R6P78PK7LX954PNAJHVUVEW7LEGTB","AF0M3066S5UF1","37SDSEDIN9ORHL92Y0GV7TIFJ2X187","","293.2000000476837","img/land3.png","74","293.90000009536743","1","1","1","1","0.8,0.2,0.2,0.2,0.8,0.2,0.2,0.2,0.8","0.8,0.2,0.2,0.2,0.8,0.2,0.2,0.2,0.8","1","",""
"","html-keyboard-response","107","134470","0.0-107.0","3R6P78PK7LX954PNAJHVUVEW7LEGTB","AF0M3066S5UF1","37SDSEDIN9ORHL92Y0GV7TIFJ2X187","","null","<img src=""img/land3.png"" style=""width:200px; border:14px solid green;"">","null","","","","","","","","","",""
"","image-keyboard-response","108","134887","0.0-108.0","3R6P78PK7LX954PNAJHVUVEW7LEGTB","AF0M3066S5UF1","37SDSEDIN9ORHL92Y0GV7TIFJ2X187","","416.2000000476837","img/land3.png","74","417.09999990463257","1","1","1","1","0.8,0.2,0.2,0.2,0.8,0.2,0.2,0.2,0.8","0.8,0.2,0.2,0.2,0.8,0.2,0.2,0.2,0.8","1","",""
"","html-keyboard-response","109","135189","0.0-109.0","3R6P78PK7LX954PNAJHVUVEW7LEGTB","AF0M3066S5UF1","37SDSEDIN9ORHL92Y0GV7TIFJ2X187","","null","<img src=""img/land3.png"" style=""width:200px; border:14px solid green;"">","null","","","","","","","","","",""
"","image-keyboard-response","110","135816","0.0-110.0","3R6P78PK7LX954PNAJHVUVEW7LEGTB","AF0M3066S5UF1","37SDSEDIN9ORHL92Y0GV7TIFJ2X187","","626.2000000476837","img/land1.png","75","626.6999998092651","2","0","2","1","0.8,0.2,0.2,0.2,0.8,0.2,0.2,0.2,0.8","0.8,0.2,0.2,0.2,0.8,0.2,0.2,0.2,0.8","1","",""
"","html-keyboard-response","111","136119","0.0-111.0","3R6P78PK7LX954PNAJHVUVEW7LEGTB","AF0M3066S5UF1","37SDSEDIN9ORHL92Y0GV7TIFJ2X187","","null","<img src=""img/land1.png"" style=""width:200px;border:14px solid red;"">","null","","","","","","","","","",""
"","image-keyboard-response","112","136961","0.0-112.0","3R6P78PK7LX954PNAJHVUVEW7LEGTB","AF0M3066S5UF1","37SDSEDIN9ORHL92Y0GV7TIFJ2X187","","841.4000000953674","img/land3.png","74","841.9000000953674","1","1","1","1","0.8,0.2,0.2,0.2,0.8,0.2,0.2,0.2,0.8","0.8,0.2,0.2,0.2,0.8,0.2,0.2,0.2,0.8","1","",""
"","html-keyboard-response","113","137262","0.0-113.0","3R6P78PK7LX954PNAJHVUVEW7LEGTB","AF0M3066S5UF1","37SDSEDIN9ORHL92Y0GV7TIFJ2X187","","null","<img src=""img/land3.png"" style=""width:200px; border:14px solid green;"">","null","","","","","","","","","",""
"","image-keyboard-response","114","137622","0.0-114.0","3R6P78PK7LX954PNAJHVUVEW7LEGTB","AF0M3066S5UF1","37SDSEDIN9ORHL92Y0GV7TIFJ2X187","","358.90000009536743","img/land3.png","74","359.69999980926514","1","1","1","1","0.8,0.2,0.2,0.2,0.8,0.2,0.2,0.2,0.8","0.8,0.2,0.2,0.2,0.8,0.2,0.2,0.2,0.8","1","",""
"","html-keyboard-response","115","137924","0.0-115.0","3R6P78PK7LX954PNAJHVUVEW7LEGTB","AF0M3066S5UF1","37SDSEDIN9ORHL92Y0GV7TIFJ2X187","","null","<img src=""img/land3.png"" style=""width:200px; border:14px solid green;"">","null","","","","","","","","","",""
"","image-keyboard-response","116","138596","0.0-116.0","3R6P78PK7LX954PNAJHVUVEW7LEGTB","AF0M3066S5UF1","37SDSEDIN9ORHL92Y0GV7TIFJ2X187","","671.9000000953674","img/land2.png","76","672.8000001907349","3","1","3","1","0.8,0.2,0.2,0.2,0.8,0.2,0.2,0.2,0.8","0.8,0.2,0.2,0.2,0.8,0.2,0.2,0.2,0.8","1","",""
"","html-keyboard-response","117","138899","0.0-117.0","3R6P78PK7LX954PNAJHVUVEW7LEGTB","AF0M3066S5UF1","37SDSEDIN9ORHL92Y0GV7TIFJ2X187","","null","<img src=""img/land2.png"" style=""width:200px; border:14px solid green;"">","null","","","","","","","","","",""
"","image-keyboard-response","118","140006","0.0-118.0","3R6P78PK7LX954PNAJHVUVEW7LEGTB","AF0M3066S5UF1","37SDSEDIN9ORHL92Y0GV7TIFJ2X187","","1106","img/land3.png","74","1107","1","1","1","1","0.8,0.2,0.2,0.2,0.8,0.2,0.2,0.2,0.8","0.8,0.2,0.2,0.2,0.8,0.2,0.2,0.2,0.8","1","",""
"","html-keyboard-response","119","140309","0.0-119.0","3R6P78PK7LX954PNAJHVUVEW7LEGTB","AF0M3066S5UF1","37SDSEDIN9ORHL92Y0GV7TIFJ2X187","","null","<img src=""img/land3.png"" style=""width:200px; border:14px solid green;"">","null","","","","","","","","","",""
"","image-keyboard-response","120","140639","0.0-120.0","3R6P78PK7LX954PNAJHVUVEW7LEGTB","AF0M3066S5UF1","37SDSEDIN9ORHL92Y0GV7TIFJ2X187","","329.2000000476837","img/land3.png","74","329.7000000476837","1","1","1","1","0.8,0.2,0.2,0.2,0.8,0.2,0.2,0.2,0.8","0.8,0.2,0.2,0.2,0.8,0.2,0.2,0.2,0.8","1","",""
"","html-keyboard-response","121","140941","0.0-121.0","3R6P78PK7LX954PNAJHVUVEW7LEGTB","AF0M3066S5UF1","37SDSEDIN9ORHL92Y0GV7TIFJ2X187","","null","<img src=""img/land3.png"" style=""width:200px; border:14px solid green;"">","null","","","","","","","","","",""
"","image-keyboard-response","122","141859","0.0-122.0","3R6P78PK7LX954PNAJHVUVEW7LEGTB","AF0M3066S5UF1","37SDSEDIN9ORHL92Y0GV7TIFJ2X187","","917.5","img/land2.png","76","918.1000001430511","3","1","3","1","0.8,0.2,0.2,0.2,0.8,0.2,0.2,0.2,0.8","0.8,0.2,0.2,0.2,0.8,0.2,0.2,0.2,0.8","1","",""
"","html-keyboard-response","123","142161","0.0-123.0","3R6P78PK7LX954PNAJHVUVEW7LEGTB","AF0M3066S5UF1","37SDSEDIN9ORHL92Y0GV7TIFJ2X187","","null","<img src=""img/land2.png"" style=""width:200px; border:14px solid green;"">","null","","","","","","","","","",""
"","image-keyboard-response","124","142845","0.0-124.0","3R6P78PK7LX954PNAJHVUVEW7LEGTB","AF0M3066S5UF1","37SDSEDIN9ORHL92Y0GV7TIFJ2X187","","683.7999999523163","img/land3.png","74","684.5","1","1","1","1","0.8,0.2,0.2,0.2,0.8,0.2,0.2,0.2,0.8","0.8,0.2,0.2,0.2,0.8,0.2,0.2,0.2,0.8","1","",""
"","html-keyboard-response","125","143147","0.0-125.0","3R6P78PK7LX954PNAJHVUVEW7LEGTB","AF0M3066S5UF1","37SDSEDIN9ORHL92Y0GV7TIFJ2X187","","null","<img src=""img/land3.png"" style=""width:200px; border:14px solid green;"">","null","","","","","","","","","",""
"","image-keyboard-response","126","143519","0.0-126.0","3R6P78PK7LX954PNAJHVUVEW7LEGTB","AF0M3066S5UF1","37SDSEDIN9ORHL92Y0GV7TIFJ2X187","","372.09999990463257","img/land3.png","74","372.5","1","1","1","1","0.8,0.2,0.2,0.2,0.8,0.2,0.2,0.2,0.8","0.8,0.2,0.2,0.2,0.8,0.2,0.2,0.2,0.8","1","",""
"","html-keyboard-response","127","143821","0.0-127.0","3R6P78PK7LX954PNAJHVUVEW7LEGTB","AF0M3066S5UF1","37SDSEDIN9ORHL92Y0GV7TIFJ2X187","","null","<img src=""img/land3.png"" style=""width:200px; border:14px solid green;"">","null","","","","","","","","","",""
"","image-keyboard-response","128","144189","0.0-128.0","3R6P78PK7LX954PNAJHVUVEW7LEGTB","AF0M3066S5UF1","37SDSEDIN9ORHL92Y0GV7TIFJ2X187","","366.7000000476837","img/land3.png","74","367.2999999523163","1","1","1","1","0.8,0.2,0.2,0.2,0.8,0.2,0.2,0.2,0.8","0.8,0.2,0.2,0.2,0.8,0.2,0.2,0.2,0.8","1","",""
"","html-keyboard-response","129","144490","0.0-129.0","3R6P78PK7LX954PNAJHVUVEW7LEGTB","AF0M3066S5UF1","37SDSEDIN9ORHL92Y0GV7TIFJ2X187","","null","<img src=""img/land3.png"" style=""width:200px; border:14px solid green;"">","null","","","","","","","","","",""
"","image-keyboard-response","130","144854","0.0-130.0","3R6P78PK7LX954PNAJHVUVEW7LEGTB","AF0M3066S5UF1","37SDSEDIN9ORHL92Y0GV7TIFJ2X187","","363.59999990463257","img/land3.png","74","364.2000000476837","1","1","1","1","0.8,0.2,0.2,0.2,0.8,0.2,0.2,0.2,0.8","0.8,0.2,0.2,0.2,0.8,0.2,0.2,0.2,0.8","1","",""
"","html-keyboard-response","131","145156","0.0-131.0","3R6P78PK7LX954PNAJHVUVEW7LEGTB","AF0M3066S5UF1","37SDSEDIN9ORHL92Y0GV7TIFJ2X187","","null","<img src=""img/land3.png"" style=""width:200px; border:14px solid green;"">","null","","","","","","","","","",""
"","image-keyboard-response","132","146167","0.0-132.0","3R6P78PK7LX954PNAJHVUVEW7LEGTB","AF0M3066S5UF1","37SDSEDIN9ORHL92Y0GV7TIFJ2X187","","1010.6999998092651","img/land2.png","76","1011.2000000476837","3","1","3","1","0.8,0.2,0.2,0.2,0.8,0.2,0.2,0.2,0.8","0.8,0.2,0.2,0.2,0.8,0.2,0.2,0.2,0.8","1","",""
"","html-keyboard-response","133","146469","0.0-133.0","3R6P78PK7LX954PNAJHVUVEW7LEGTB","AF0M3066S5UF1","37SDSEDIN9ORHL92Y0GV7TIFJ2X187","","null","<img src=""img/land2.png"" style=""width:200px; border:14px solid green;"">","null","","","","","","","","","",""
"","image-keyboard-response","134","147026","0.0-134.0","3R6P78PK7LX954PNAJHVUVEW7LEGTB","AF0M3066S5UF1","37SDSEDIN9ORHL92Y0GV7TIFJ2X187","","556.2000000476837","img/land1.png","75","556.6999998092651","2","0","2","1","0.8,0.2,0.2,0.2,0.8,0.2,0.2,0.2,0.8","0.8,0.2,0.2,0.2,0.8,0.2,0.2,0.2,0.8","1","",""
"","html-keyboard-response","135","147328","0.0-135.0","3R6P78PK7LX954PNAJHVUVEW7LEGTB","AF0M3066S5UF1","37SDSEDIN9ORHL92Y0GV7TIFJ2X187","","null","<img src=""img/land1.png"" style=""width:200px;border:14px solid red;"">","null","","","","","","","","","",""
"","image-keyboard-response","136","147676","0.0-136.0","3R6P78PK7LX954PNAJHVUVEW7LEGTB","AF0M3066S5UF1","37SDSEDIN9ORHL92Y0GV7TIFJ2X187","","348","img/land1.png","75","348.2999999523163","2","1","2","1","0.8,0.2,0.2,0.2,0.8,0.2,0.2,0.2,0.8","0.8,0.2,0.2,0.2,0.8,0.2,0.2,0.2,0.8","1","",""
"","html-keyboard-response","137","147979","0.0-137.0","3R6P78PK7LX954PNAJHVUVEW7LEGTB","AF0M3066S5UF1","37SDSEDIN9ORHL92Y0GV7TIFJ2X187","","null","<img src=""img/land1.png"" style=""width:200px; border:14px solid green;"">","null","","","","","","","","","",""
"","image-keyboard-response","138","148343","0.0-138.0","3R6P78PK7LX954PNAJHVUVEW7LEGTB","AF0M3066S5UF1","37SDSEDIN9ORHL92Y0GV7TIFJ2X187","","363.30000019073486","img/land1.png","75","363.7000000476837","2","1","2","1","0.8,0.2,0.2,0.2,0.8,0.2,0.2,0.2,0.8","0.8,0.2,0.2,0.2,0.8,0.2,0.2,0.2,0.8","1","",""
"","html-keyboard-response","139","148649","0.0-139.0","3R6P78PK7LX954PNAJHVUVEW7LEGTB","AF0M3066S5UF1","37SDSEDIN9ORHL92Y0GV7TIFJ2X187","","null","<img src=""img/land1.png"" style=""width:200px; border:14px solid green;"">","null","","","","","","","","","",""
"","image-keyboard-response","140","148993","0.0-140.0","3R6P78PK7LX954PNAJHVUVEW7LEGTB","AF0M3066S5UF1","37SDSEDIN9ORHL92Y0GV7TIFJ2X187","","343.09999990463257","img/land1.png","75","343.69999980926514","2","1","2","1","0.8,0.2,0.2,0.2,0.8,0.2,0.2,0.2,0.8","0.8,0.2,0.2,0.2,0.8,0.2,0.2,0.2,0.8","1","",""
"","html-keyboard-response","141","149295","0.0-141.0","3R6P78PK7LX954PNAJHVUVEW7LEGTB","AF0M3066S5UF1","37SDSEDIN9ORHL92Y0GV7TIFJ2X187","","null","<img src=""img/land1.png"" style=""width:200px; border:14px solid green;"">","null","","","","","","","","","",""
"","image-keyboard-response","142","149658","0.0-142.0","3R6P78PK7LX954PNAJHVUVEW7LEGTB","AF0M3066S5UF1","37SDSEDIN9ORHL92Y0GV7TIFJ2X187","","363.2999999523163","img/land1.png","75","363.80000019073486","2","1","2","1","0.8,0.2,0.2,0.2,0.8,0.2,0.2,0.2,0.8","0.8,0.2,0.2,0.2,0.8,0.2,0.2,0.2,0.8","1","",""
"","html-keyboard-response","143","149960","0.0-143.0","3R6P78PK7LX954PNAJHVUVEW7LEGTB","AF0M3066S5UF1","37SDSEDIN9ORHL92Y0GV7TIFJ2X187","","null","<img src=""img/land1.png"" style=""width:200px; border:14px solid green;"">","null","","","","","","","","","",""
"","image-keyboard-response","144","150276","0.0-144.0","3R6P78PK7LX954PNAJHVUVEW7LEGTB","AF0M3066S5UF1","37SDSEDIN9ORHL92Y0GV7TIFJ2X187","","315.30000019073486","img/land1.png","75","315.7999999523163","2","1","2","1","0.8,0.2,0.2,0.2,0.8,0.2,0.2,0.2,0.8","0.8,0.2,0.2,0.2,0.8,0.2,0.2,0.2,0.8","1","",""
"","html-keyboard-response","145","150577","0.0-145.0","3R6P78PK7LX954PNAJHVUVEW7LEGTB","AF0M3066S5UF1","37SDSEDIN9ORHL92Y0GV7TIFJ2X187","","null","<img src=""img/land1.png"" style=""width:200px; border:14px solid green;"">","null","","","","","","","","","",""
"","image-keyboard-response","146","151400","0.0-146.0","3R6P78PK7LX954PNAJHVUVEW7LEGTB","AF0M3066S5UF1","37SDSEDIN9ORHL92Y0GV7TIFJ2X187","","822.0999999046326","img/land3.png","74","822.7999999523163","1","0","1","1","0.8,0.2,0.2,0.2,0.8,0.2,0.2,0.2,0.8","0.8,0.2,0.2,0.2,0.8,0.2,0.2,0.2,0.8","1","",""
"","html-keyboard-response","147","151702","0.0-147.0","3R6P78PK7LX954PNAJHVUVEW7LEGTB","AF0M3066S5UF1","37SDSEDIN9ORHL92Y0GV7TIFJ2X187","","null","<img src=""img/land3.png"" style=""width:200px;border:14px solid red;"">","null","","","","","","","","","",""
"","image-keyboard-response","148","152137","0.0-148.0","3R6P78PK7LX954PNAJHVUVEW7LEGTB","AF0M3066S5UF1","37SDSEDIN9ORHL92Y0GV7TIFJ2X187","","434.40000009536743","img/land3.png","74","435","1","1","1","1","0.8,0.2,0.2,0.2,0.8,0.2,0.2,0.2,0.8","0.8,0.2,0.2,0.2,0.8,0.2,0.2,0.2,0.8","1","",""
"","html-keyboard-response","149","152439","0.0-149.0","3R6P78PK7LX954PNAJHVUVEW7LEGTB","AF0M3066S5UF1","37SDSEDIN9ORHL92Y0GV7TIFJ2X187","","null","<img src=""img/land3.png"" style=""width:200px; border:14px solid green;"">","null","","","","","","","","","",""
"","image-keyboard-response","150","152791","0.0-150.0","3R6P78PK7LX954PNAJHVUVEW7LEGTB","AF0M3066S5UF1","37SDSEDIN9ORHL92Y0GV7TIFJ2X187","","351.5","img/land3.png","74","351.89999985694885","1","1","1","1","0.8,0.2,0.2,0.2,0.8,0.2,0.2,0.2,0.8","0.8,0.2,0.2,0.2,0.8,0.2,0.2,0.2,0.8","1","",""
"","html-keyboard-response","151","153094","0.0-151.0","3R6P78PK7LX954PNAJHVUVEW7LEGTB","AF0M3066S5UF1","37SDSEDIN9ORHL92Y0GV7TIFJ2X187","","null","<img src=""img/land3.png"" style=""width:200px; border:14px solid green;"">","null","","","","","","","","","",""
"","image-keyboard-response","152","153801","0.0-152.0","3R6P78PK7LX954PNAJHVUVEW7LEGTB","AF0M3066S5UF1","37SDSEDIN9ORHL92Y0GV7TIFJ2X187","","706","img/land2.png","76","706.6000001430511","3","1","3","1","0.8,0.2,0.2,0.2,0.8,0.2,0.2,0.2,0.8","0.8,0.2,0.2,0.2,0.8,0.2,0.2,0.2,0.8","1","",""
"","html-keyboard-response","153","154102","0.0-153.0","3R6P78PK7LX954PNAJHVUVEW7LEGTB","AF0M3066S5UF1","37SDSEDIN9ORHL92Y0GV7TIFJ2X187","","null","<img src=""img/land2.png"" style=""width:200px; border:14px solid green;"">","null","","","","","","","","","",""
"","image-keyboard-response","154","154704","0.0-154.0","3R6P78PK7LX954PNAJHVUVEW7LEGTB","AF0M3066S5UF1","37SDSEDIN9ORHL92Y0GV7TIFJ2X187","","601.1000001430511","img/land1.png","75","601.6000001430511","2","0","2","1","0.8,0.2,0.2,0.2,0.8,0.2,0.2,0.2,0.8","0.8,0.2,0.2,0.2,0.8,0.2,0.2,0.2,0.8","1","",""
"","html-keyboard-response","155","155006","0.0-155.0","3R6P78PK7LX954PNAJHVUVEW7LEGTB","AF0M3066S5UF1","37SDSEDIN9ORHL92Y0GV7TIFJ2X187","","null","<img src=""img/land1.png"" style=""width:200px;border:14px solid red;"">","null","","","","","","","","","",""
"","image-keyboard-response","156","155344","0.0-156.0","3R6P78PK7LX954PNAJHVUVEW7LEGTB","AF0M3066S5UF1","37SDSEDIN9ORHL92Y0GV7TIFJ2X187","","337.2999999523163","img/land1.png","75","338","2","1","2","1","0.8,0.2,0.2,0.2,0.8,0.2,0.2,0.2,0.8","0.8,0.2,0.2,0.2,0.8,0.2,0.2,0.2,0.8","1","",""
"","html-keyboard-response","157","155645","0.0-157.0","3R6P78PK7LX954PNAJHVUVEW7LEGTB","AF0M3066S5UF1","37SDSEDIN9ORHL92Y0GV7TIFJ2X187","","null","<img src=""img/land1.png"" style=""width:200px; border:14px solid green;"">","null","","","","","","","","","",""
"","image-keyboard-response","158","156306","0.0-158.0","3R6P78PK7LX954PNAJHVUVEW7LEGTB","AF0M3066S5UF1","37SDSEDIN9ORHL92Y0GV7TIFJ2X187","","660","img/land2.png","76","660.5","3","1","3","1","0.8,0.2,0.2,0.2,0.8,0.2,0.2,0.2,0.8","0.8,0.2,0.2,0.2,0.8,0.2,0.2,0.2,0.8","1","",""
"","html-keyboard-response","159","156607","0.0-159.0","3R6P78PK7LX954PNAJHVUVEW7LEGTB","AF0M3066S5UF1","37SDSEDIN9ORHL92Y0GV7TIFJ2X187","","null","<img src=""img/land2.png"" style=""width:200px; border:14px solid green;"">","null","","","","","","","","","",""
"","image-keyboard-response","160","156918","0.0-160.0","3R6P78PK7LX954PNAJHVUVEW7LEGTB","AF0M3066S5UF1","37SDSEDIN9ORHL92Y0GV7TIFJ2X187","","310","img/land2.png","76","310.5","3","1","3","1","0.8,0.2,0.2,0.2,0.8,0.2,0.2,0.2,0.8","0.8,0.2,0.2,0.2,0.8,0.2,0.2,0.2,0.8","1","",""
"","html-keyboard-response","161","157228","0.0-161.0","3R6P78PK7LX954PNAJHVUVEW7LEGTB","AF0M3066S5UF1","37SDSEDIN9ORHL92Y0GV7TIFJ2X187","","null","<img src=""img/land2.png"" style=""width:200px; border:14px solid green;"">","null","","","","","","","","","",""
"","image-keyboard-response","162","157901","0.0-162.0","3R6P78PK7LX954PNAJHVUVEW7LEGTB","AF0M3066S5UF1","37SDSEDIN9ORHL92Y0GV7TIFJ2X187","","672","img/land3.png","74","672.4000000953674","1","1","1","1","0.8,0.2,0.2,0.2,0.8,0.2,0.2,0.2,0.8","0.8,0.2,0.2,0.2,0.8,0.2,0.2,0.2,0.8","1","",""
"","html-keyboard-response","163","158202","0.0-163.0","3R6P78PK7LX954PNAJHVUVEW7LEGTB","AF0M3066S5UF1","37SDSEDIN9ORHL92Y0GV7TIFJ2X187","","null","<img src=""img/land3.png"" style=""width:200px; border:14px solid green;"">","null","","","","","","","","","",""
"","image-keyboard-response","164","158924","0.0-164.0","3R6P78PK7LX954PNAJHVUVEW7LEGTB","AF0M3066S5UF1","37SDSEDIN9ORHL92Y0GV7TIFJ2X187","","720.7999999523163","img/land2.png","76","721.4000000953674","3","1","3","1","0.8,0.2,0.2,0.2,0.8,0.2,0.2,0.2,0.8","0.8,0.2,0.2,0.2,0.8,0.2,0.2,0.2,0.8","1","",""
"","html-keyboard-response","165","159225","0.0-165.0","3R6P78PK7LX954PNAJHVUVEW7LEGTB","AF0M3066S5UF1","37SDSEDIN9ORHL92Y0GV7TIFJ2X187","","null","<img src=""img/land2.png"" style=""width:200px; border:14px solid green;"">","null","","","","","","","","","",""
"","image-keyboard-response","166","159771","0.0-166.0","3R6P78PK7LX954PNAJHVUVEW7LEGTB","AF0M3066S5UF1","37SDSEDIN9ORHL92Y0GV7TIFJ2X187","","545.9000000953674","img/land1.png","75","546.5","2","0","2","1","0.8,0.2,0.2,0.2,0.8,0.2,0.2,0.2,0.8","0.8,0.2,0.2,0.2,0.8,0.2,0.2,0.2,0.8","1","",""
"","html-keyboard-response","167","160073","0.0-167.0","3R6P78PK7LX954PNAJHVUVEW7LEGTB","AF0M3066S5UF1","37SDSEDIN9ORHL92Y0GV7TIFJ2X187","","null","<img src=""img/land1.png"" style=""width:200px;border:14px solid red;"">","null","","","","","","","","","",""
"","image-keyboard-response","168","160390","0.0-168.0","3R6P78PK7LX954PNAJHVUVEW7LEGTB","AF0M3066S5UF1","37SDSEDIN9ORHL92Y0GV7TIFJ2X187","","316.2000000476837","img/land1.png","75","316.7999999523163","2","1","2","1","0.8,0.2,0.2,0.2,0.8,0.2,0.2,0.2,0.8","0.8,0.2,0.2,0.2,0.8,0.2,0.2,0.2,0.8","1","",""
"","html-keyboard-response","169","160692","0.0-169.0","3R6P78PK7LX954PNAJHVUVEW7LEGTB","AF0M3066S5UF1","37SDSEDIN9ORHL92Y0GV7TIFJ2X187","","null","<img src=""img/land1.png"" style=""width:200px; border:14px solid green;"">","null","","","","","","","","","",""
"","image-keyboard-response","170","161562","0.0-170.0","3R6P78PK7LX954PNAJHVUVEW7LEGTB","AF0M3066S5UF1","37SDSEDIN9ORHL92Y0GV7TIFJ2X187","","869","img/land2.png","76","869.5999999046326","3","1","3","1","0.8,0.2,0.2,0.2,0.8,0.2,0.2,0.2,0.8","0.8,0.2,0.2,0.2,0.8,0.2,0.2,0.2,0.8","1","",""
"","html-keyboard-response","171","161864","0.0-171.0","3R6P78PK7LX954PNAJHVUVEW7LEGTB","AF0M3066S5UF1","37SDSEDIN9ORHL92Y0GV7TIFJ2X187","","null","<img src=""img/land2.png"" style=""width:200px; border:14px solid green;"">","null","","","","","","","","","",""
"","image-keyboard-response","172","162504","0.0-172.0","3R6P78PK7LX954PNAJHVUVEW7LEGTB","AF0M3066S5UF1","37SDSEDIN9ORHL92Y0GV7TIFJ2X187","","639.6999998092651","img/land3.png","74","640.2000000476837","1","1","1","1","0.8,0.2,0.2,0.2,0.8,0.2,0.2,0.2,0.8","0.8,0.2,0.2,0.2,0.8,0.2,0.2,0.2,0.8","1","",""
"","html-keyboard-response","173","162806","0.0-173.0","3R6P78PK7LX954PNAJHVUVEW7LEGTB","AF0M3066S5UF1","37SDSEDIN9ORHL92Y0GV7TIFJ2X187","","null","<img src=""img/land3.png"" style=""width:200px; border:14px solid green;"">","null","","","","","","","","","",""
"","image-keyboard-response","174","163311","0.0-174.0","3R6P78PK7LX954PNAJHVUVEW7LEGTB","AF0M3066S5UF1","37SDSEDIN9ORHL92Y0GV7TIFJ2X187","","504.7999999523163","img/land2.png","76","505.40000009536743","3","1","3","1","0.8,0.2,0.2,0.2,0.8,0.2,0.2,0.2,0.8","0.8,0.2,0.2,0.2,0.8,0.2,0.2,0.2,0.8","1","",""
"","html-keyboard-response","175","163613","0.0-175.0","3R6P78PK7LX954PNAJHVUVEW7LEGTB","AF0M3066S5UF1","37SDSEDIN9ORHL92Y0GV7TIFJ2X187","","null","<img src=""img/land2.png"" style=""width:200px; border:14px solid green;"">","null","","","","","","","","","",""
"","image-keyboard-response","176","163925","0.0-176.0","3R6P78PK7LX954PNAJHVUVEW7LEGTB","AF0M3066S5UF1","37SDSEDIN9ORHL92Y0GV7TIFJ2X187","","311.7999999523163","img/land2.png","76","312.40000009536743","3","1","3","1","0.8,0.2,0.2,0.2,0.8,0.2,0.2,0.2,0.8","0.8,0.2,0.2,0.2,0.8,0.2,0.2,0.2,0.8","1","",""
"","html-keyboard-response","177","164227","0.0-177.0","3R6P78PK7LX954PNAJHVUVEW7LEGTB","AF0M3066S5UF1","37SDSEDIN9ORHL92Y0GV7TIFJ2X187","","null","<img src=""img/land2.png"" style=""width:200px; border:14px solid green;"">","null","","","","","","","","","",""
"","image-keyboard-response","178","164758","0.0-178.0","3R6P78PK7LX954PNAJHVUVEW7LEGTB","AF0M3066S5UF1","37SDSEDIN9ORHL92Y0GV7TIFJ2X187","","530.7000000476837","img/land3.png","74","531.3000001907349","1","1","1","1","0.8,0.2,0.2,0.2,0.8,0.2,0.2,0.2,0.8","0.8,0.2,0.2,0.2,0.8,0.2,0.2,0.2,0.8","1","",""
"","html-keyboard-response","179","165060","0.0-179.0","3R6P78PK7LX954PNAJHVUVEW7LEGTB","AF0M3066S5UF1","37SDSEDIN9ORHL92Y0GV7TIFJ2X187","","null","<img src=""img/land3.png"" style=""width:200px; border:14px solid green;"">","null","","","","","","","","","",""
"","image-keyboard-response","180","165652","0.0-180.0","3R6P78PK7LX954PNAJHVUVEW7LEGTB","AF0M3066S5UF1","37SDSEDIN9ORHL92Y0GV7TIFJ2X187","","591.9000000953674","img/land2.png","76","592.4000000953674","3","1","3","1","0.8,0.2,0.2,0.2,0.8,0.2,0.2,0.2,0.8","0.8,0.2,0.2,0.2,0.8,0.2,0.2,0.2,0.8","1","",""
"","html-keyboard-response","181","165953","0.0-181.0","3R6P78PK7LX954PNAJHVUVEW7LEGTB","AF0M3066S5UF1","37SDSEDIN9ORHL92Y0GV7TIFJ2X187","","null","<img src=""img/land2.png"" style=""width:200px; border:14px solid green;"">","null","","","","","","","","","",""
"","html-keyboard-response","182","170450","0.0-182.0","3R6P78PK7LX954PNAJHVUVEW7LEGTB","AF0M3066S5UF1","37SDSEDIN9ORHL92Y0GV7TIFJ2X187","","","","","","","","","","","","","",""
"","image-keyboard-response","183","171313","0.0-183.0","3R6P78PK7LX954PNAJHVUVEW7LEGTB","AF0M3066S5UF1","37SDSEDIN9ORHL92Y0GV7TIFJ2X187","","861.5","img/land4.png","74","862.5","1","1","3","2","0.8,0.2,0.2,0.2,0.8,0.2,0.2,0.2,0.8","0.2,0.8,0.2,0.2,0.2,0.8,0.8,0.2,0.2","3","",""
"","html-keyboard-response","184","171615","0.0-184.0","3R6P78PK7LX954PNAJHVUVEW7LEGTB","AF0M3066S5UF1","37SDSEDIN9ORHL92Y0GV7TIFJ2X187","","null","<img src=""img/land4.png"" style=""width:200px; border:14px solid green;"">","null","","","","","","","","","",""
"","image-keyboard-response","185","172165","0.0-185.0","3R6P78PK7LX954PNAJHVUVEW7LEGTB","AF0M3066S5UF1","37SDSEDIN9ORHL92Y0GV7TIFJ2X187","","549.2000000476837","img/land5.png","75","549.7999999523163","2","1","1","2","0.8,0.2,0.2,0.2,0.8,0.2,0.2,0.2,0.8","0.2,0.8,0.2,0.2,0.2,0.8,0.8,0.2,0.2","3","",""
"","html-keyboard-response","186","172467","0.0-186.0","3R6P78PK7LX954PNAJHVUVEW7LEGTB","AF0M3066S5UF1","37SDSEDIN9ORHL92Y0GV7TIFJ2X187","","null","<img src=""img/land5.png"" style=""width:200px; border:14px solid green;"">","null","","","","","","","","","",""
"","image-keyboard-response","187","172969","0.0-187.0","3R6P78PK7LX954PNAJHVUVEW7LEGTB","AF0M3066S5UF1","37SDSEDIN9ORHL92Y0GV7TIFJ2X187","","501.2000000476837","img/land4.png","74","501.89999985694885","1","0","3","2","0.8,0.2,0.2,0.2,0.8,0.2,0.2,0.2,0.8","0.2,0.8,0.2,0.2,0.2,0.8,0.8,0.2,0.2","3","",""
"","html-keyboard-response","188","173270","0.0-188.0","3R6P78PK7LX954PNAJHVUVEW7LEGTB","AF0M3066S5UF1","37SDSEDIN9ORHL92Y0GV7TIFJ2X187","","null","<img src=""img/land4.png"" style=""width:200px;border:14px solid red;"">","null","","","","","","","","","",""
"","image-keyboard-response","189","173692","0.0-189.0","3R6P78PK7LX954PNAJHVUVEW7LEGTB","AF0M3066S5UF1","37SDSEDIN9ORHL92Y0GV7TIFJ2X187","","420.7000000476837","img/land4.png","74","421.2000000476837","1","1","3","2","0.8,0.2,0.2,0.2,0.8,0.2,0.2,0.2,0.8","0.2,0.8,0.2,0.2,0.2,0.8,0.8,0.2,0.2","3","",""
"","html-keyboard-response","190","173993","0.0-190.0","3R6P78PK7LX954PNAJHVUVEW7LEGTB","AF0M3066S5UF1","37SDSEDIN9ORHL92Y0GV7TIFJ2X187","","null","<img src=""img/land4.png"" style=""width:200px; border:14px solid green;"">","null","","","","","","","","","",""
"","image-keyboard-response","191","174466","0.0-191.0","3R6P78PK7LX954PNAJHVUVEW7LEGTB","AF0M3066S5UF1","37SDSEDIN9ORHL92Y0GV7TIFJ2X187","","471.90000009536743","img/land5.png","75","472.5","2","1","1","2","0.8,0.2,0.2,0.2,0.8,0.2,0.2,0.2,0.8","0.2,0.8,0.2,0.2,0.2,0.8,0.8,0.2,0.2","3","",""
"","html-keyboard-response","192","174767","0.0-192.0","3R6P78PK7LX954PNAJHVUVEW7LEGTB","AF0M3066S5UF1","37SDSEDIN9ORHL92Y0GV7TIFJ2X187","","null","<img src=""img/land5.png"" style=""width:200px; border:14px solid green;"">","null","","","","","","","","","",""
"","image-keyboard-response","193","175187","0.0-193.0","3R6P78PK7LX954PNAJHVUVEW7LEGTB","AF0M3066S5UF1","37SDSEDIN9ORHL92Y0GV7TIFJ2X187","","419.2999999523163","img/land5.png","75","419.89999985694885","2","1","1","2","0.8,0.2,0.2,0.2,0.8,0.2,0.2,0.2,0.8","0.2,0.8,0.2,0.2,0.2,0.8,0.8,0.2,0.2","3","",""
"","html-keyboard-response","194","175488","0.0-194.0","3R6P78PK7LX954PNAJHVUVEW7LEGTB","AF0M3066S5UF1","37SDSEDIN9ORHL92Y0GV7TIFJ2X187","","null","<img src=""img/land5.png"" style=""width:200px; border:14px solid green;"">","null","","","","","","","","","",""
"","image-keyboard-response","195","175930","0.0-195.0","3R6P78PK7LX954PNAJHVUVEW7LEGTB","AF0M3066S5UF1","37SDSEDIN9ORHL92Y0GV7TIFJ2X187","","441.30000019073486","img/land5.png","75","441.7999999523163","2","1","1","2","0.8,0.2,0.2,0.2,0.8,0.2,0.2,0.2,0.8","0.2,0.8,0.2,0.2,0.2,0.8,0.8,0.2,0.2","3","",""
"","html-keyboard-response","196","176232","0.0-196.0","3R6P78PK7LX954PNAJHVUVEW7LEGTB","AF0M3066S5UF1","37SDSEDIN9ORHL92Y0GV7TIFJ2X187","","null","<img src=""img/land5.png"" style=""width:200px; border:14px solid green;"">","null","","","","","","","","","",""
"","image-keyboard-response","197","176615","0.0-197.0","3R6P78PK7LX954PNAJHVUVEW7LEGTB","AF0M3066S5UF1","37SDSEDIN9ORHL92Y0GV7TIFJ2X187","","382.2999999523163","img/land5.png","75","383","2","0","1","2","0.8,0.2,0.2,0.2,0.8,0.2,0.2,0.2,0.8","0.2,0.8,0.2,0.2,0.2,0.8,0.8,0.2,0.2","3","",""
"","html-keyboard-response","198","176917","0.0-198.0","3R6P78PK7LX954PNAJHVUVEW7LEGTB","AF0M3066S5UF1","37SDSEDIN9ORHL92Y0GV7TIFJ2X187","","null","<img src=""img/land5.png"" style=""width:200px;border:14px solid red;"">","null","","","","","","","","","",""
"","image-keyboard-response","199","177671","0.0-199.0","3R6P78PK7LX954PNAJHVUVEW7LEGTB","AF0M3066S5UF1","37SDSEDIN9ORHL92Y0GV7TIFJ2X187","","753.8000001907349","img/land4.png","74","754.2999999523163","1","1","3","2","0.8,0.2,0.2,0.2,0.8,0.2,0.2,0.2,0.8","0.2,0.8,0.2,0.2,0.2,0.8,0.8,0.2,0.2","3","",""
"","html-keyboard-response","200","177974","0.0-200.0","3R6P78PK7LX954PNAJHVUVEW7LEGTB","AF0M3066S5UF1","37SDSEDIN9ORHL92Y0GV7TIFJ2X187","","null","<img src=""img/land4.png"" style=""width:200px; border:14px solid green;"">","null","","","","","","","","","",""
"","image-keyboard-response","201","178361","0.0-201.0","3R6P78PK7LX954PNAJHVUVEW7LEGTB","AF0M3066S5UF1","37SDSEDIN9ORHL92Y0GV7TIFJ2X187","","385.7999999523163","img/land4.png","74","386.69999980926514","1","1","3","2","0.8,0.2,0.2,0.2,0.8,0.2,0.2,0.2,0.8","0.2,0.8,0.2,0.2,0.2,0.8,0.8,0.2,0.2","3","",""
"","html-keyboard-response","202","178662","0.0-202.0","3R6P78PK7LX954PNAJHVUVEW7LEGTB","AF0M3066S5UF1","37SDSEDIN9ORHL92Y0GV7TIFJ2X187","","null","<img src=""img/land4.png"" style=""width:200px; border:14px solid green;"">","null","","","","","","","","","",""
"","image-keyboard-response","203","179252","0.0-203.0","3R6P78PK7LX954PNAJHVUVEW7LEGTB","AF0M3066S5UF1","37SDSEDIN9ORHL92Y0GV7TIFJ2X187","","589.1000001430511","img/land5.png","75","589.7999999523163","2","1","1","2","0.8,0.2,0.2,0.2,0.8,0.2,0.2,0.2,0.8","0.2,0.8,0.2,0.2,0.2,0.8,0.8,0.2,0.2","3","",""
"","html-keyboard-response","204","179554","0.0-204.0","3R6P78PK7LX954PNAJHVUVEW7LEGTB","AF0M3066S5UF1","37SDSEDIN9ORHL92Y0GV7TIFJ2X187","","null","<img src=""img/land5.png"" style=""width:200px; border:14px solid green;"">","null","","","","","","","","","",""
"","image-keyboard-response","205","179892","0.0-205.0","3R6P78PK7LX954PNAJHVUVEW7LEGTB","AF0M3066S5UF1","37SDSEDIN9ORHL92Y0GV7TIFJ2X187","","336.89999985694885","img/land5.png","75","337.89999985694885","2","1","1","2","0.8,0.2,0.2,0.2,0.8,0.2,0.2,0.2,0.8","0.2,0.8,0.2,0.2,0.2,0.8,0.8,0.2,0.2","3","",""
"","html-keyboard-response","206","180194","0.0-206.0","3R6P78PK7LX954PNAJHVUVEW7LEGTB","AF0M3066S5UF1","37SDSEDIN9ORHL92Y0GV7TIFJ2X187","","null","<img src=""img/land5.png"" style=""width:200px; border:14px solid green;"">","null","","","","","","","","","",""
"","image-keyboard-response","207","180539","0.0-207.0","3R6P78PK7LX954PNAJHVUVEW7LEGTB","AF0M3066S5UF1","37SDSEDIN9ORHL92Y0GV7TIFJ2X187","","344.5","img/land5.png","75","345.19999980926514","2","0","1","2","0.8,0.2,0.2,0.2,0.8,0.2,0.2,0.2,0.8","0.2,0.8,0.2,0.2,0.2,0.8,0.8,0.2,0.2","3","",""
"","html-keyboard-response","208","180841","0.0-208.0","3R6P78PK7LX954PNAJHVUVEW7LEGTB","AF0M3066S5UF1","37SDSEDIN9ORHL92Y0GV7TIFJ2X187","","null","<img src=""img/land5.png"" style=""width:200px;border:14px solid red;"">","null","","","","","","","","","",""
"","image-keyboard-response","209","181214","0.0-209.0","3R6P78PK7LX954PNAJHVUVEW7LEGTB","AF0M3066S5UF1","37SDSEDIN9ORHL92Y0GV7TIFJ2X187","","371.60000014305115","img/land5.png","75","372.5","2","1","1","2","0.8,0.2,0.2,0.2,0.8,0.2,0.2,0.2,0.8","0.2,0.8,0.2,0.2,0.2,0.8,0.8,0.2,0.2","3","",""
"","html-keyboard-response","210","181516","0.0-210.0","3R6P78PK7LX954PNAJHVUVEW7LEGTB","AF0M3066S5UF1","37SDSEDIN9ORHL92Y0GV7TIFJ2X187","","null","<img src=""img/land5.png"" style=""width:200px; border:14px solid green;"">","null","","","","","","","","","",""
"","image-keyboard-response","211","181890","0.0-211.0","3R6P78PK7LX954PNAJHVUVEW7LEGTB","AF0M3066S5UF1","37SDSEDIN9ORHL92Y0GV7TIFJ2X187","","373.40000009536743","img/land5.png","75","374","2","1","1","2","0.8,0.2,0.2,0.2,0.8,0.2,0.2,0.2,0.8","0.2,0.8,0.2,0.2,0.2,0.8,0.8,0.2,0.2","3","",""
"","html-keyboard-response","212","182192","0.0-212.0","3R6P78PK7LX954PNAJHVUVEW7LEGTB","AF0M3066S5UF1","37SDSEDIN9ORHL92Y0GV7TIFJ2X187","","null","<img src=""img/land5.png"" style=""width:200px; border:14px solid green;"">","null","","","","","","","","","",""
"","image-keyboard-response","213","182959","0.0-213.0","3R6P78PK7LX954PNAJHVUVEW7LEGTB","AF0M3066S5UF1","37SDSEDIN9ORHL92Y0GV7TIFJ2X187","","766.2000000476837","img/land6.png","76","766.7999999523163","3","1","2","2","0.8,0.2,0.2,0.2,0.8,0.2,0.2,0.2,0.8","0.2,0.8,0.2,0.2,0.2,0.8,0.8,0.2,0.2","3","",""
"","html-keyboard-response","214","183261","0.0-214.0","3R6P78PK7LX954PNAJHVUVEW7LEGTB","AF0M3066S5UF1","37SDSEDIN9ORHL92Y0GV7TIFJ2X187","","null","<img src=""img/land6.png"" style=""width:200px; border:14px solid green;"">","null","","","","","","","","","",""
"","image-keyboard-response","215","183616","0.0-215.0","3R6P78PK7LX954PNAJHVUVEW7LEGTB","AF0M3066S5UF1","37SDSEDIN9ORHL92Y0GV7TIFJ2X187","","353.5","img/land6.png","76","354.10000014305115","3","1","2","2","0.8,0.2,0.2,0.2,0.8,0.2,0.2,0.2,0.8","0.2,0.8,0.2,0.2,0.2,0.8,0.8,0.2,0.2","3","",""
"","html-keyboard-response","216","183917","0.0-216.0","3R6P78PK7LX954PNAJHVUVEW7LEGTB","AF0M3066S5UF1","37SDSEDIN9ORHL92Y0GV7TIFJ2X187","","null","<img src=""img/land6.png"" style=""width:200px; border:14px solid green;"">","null","","","","","","","","","",""
"","image-keyboard-response","217","184643","0.0-217.0","3R6P78PK7LX954PNAJHVUVEW7LEGTB","AF0M3066S5UF1","37SDSEDIN9ORHL92Y0GV7TIFJ2X187","","725.2000000476837","img/land5.png","75","725.7999999523163","2","1","1","2","0.8,0.2,0.2,0.2,0.8,0.2,0.2,0.2,0.8","0.2,0.8,0.2,0.2,0.2,0.8,0.8,0.2,0.2","3","",""
"","html-keyboard-response","218","184945","0.0-218.0","3R6P78PK7LX954PNAJHVUVEW7LEGTB","AF0M3066S5UF1","37SDSEDIN9ORHL92Y0GV7TIFJ2X187","","null","<img src=""img/land5.png"" style=""width:200px; border:14px solid green;"">","null","","","","","","","","","",""
"","image-keyboard-response","219","185275","0.0-219.0","3R6P78PK7LX954PNAJHVUVEW7LEGTB","AF0M3066S5UF1","37SDSEDIN9ORHL92Y0GV7TIFJ2X187","","328.90000009536743","img/land5.png","75","329.5","2","1","1","2","0.8,0.2,0.2,0.2,0.8,0.2,0.2,0.2,0.8","0.2,0.8,0.2,0.2,0.2,0.8,0.8,0.2,0.2","3","",""
"","html-keyboard-response","220","185585","0.0-220.0","3R6P78PK7LX954PNAJHVUVEW7LEGTB","AF0M3066S5UF1","37SDSEDIN9ORHL92Y0GV7TIFJ2X187","","null","<img src=""img/land5.png"" style=""width:200px; border:14px solid green;"">","null","","","","","","","","","",""
"","image-keyboard-response","221","185902","0.0-221.0","3R6P78PK7LX954PNAJHVUVEW7LEGTB","AF0M3066S5UF1","37SDSEDIN9ORHL92Y0GV7TIFJ2X187","","316.5","img/land5.png","75","317","2","0","1","2","0.8,0.2,0.2,0.2,0.8,0.2,0.2,0.2,0.8","0.2,0.8,0.2,0.2,0.2,0.8,0.8,0.2,0.2","3","",""
"","html-keyboard-response","222","186203","0.0-222.0","3R6P78PK7LX954PNAJHVUVEW7LEGTB","AF0M3066S5UF1","37SDSEDIN9ORHL92Y0GV7TIFJ2X187","","null","<img src=""img/land5.png"" style=""width:200px;border:14px solid red;"">","null","","","","","","","","","",""
"","image-keyboard-response","223","186585","0.0-223.0","3R6P78PK7LX954PNAJHVUVEW7LEGTB","AF0M3066S5UF1","37SDSEDIN9ORHL92Y0GV7TIFJ2X187","","382","img/land5.png","75","382.5","2","0","1","2","0.8,0.2,0.2,0.2,0.8,0.2,0.2,0.2,0.8","0.2,0.8,0.2,0.2,0.2,0.8,0.8,0.2,0.2","3","",""
"","html-keyboard-response","224","186887","0.0-224.0","3R6P78PK7LX954PNAJHVUVEW7LEGTB","AF0M3066S5UF1","37SDSEDIN9ORHL92Y0GV7TIFJ2X187","","null","<img src=""img/land5.png"" style=""width:200px;border:14px solid red;"">","null","","","","","","","","","",""
"","image-keyboard-response","225","187616","0.0-225.0","3R6P78PK7LX954PNAJHVUVEW7LEGTB","AF0M3066S5UF1","37SDSEDIN9ORHL92Y0GV7TIFJ2X187","","728","img/land6.png","76","728.6000001430511","3","1","2","2","0.8,0.2,0.2,0.2,0.8,0.2,0.2,0.2,0.8","0.2,0.8,0.2,0.2,0.2,0.8,0.8,0.2,0.2","3","",""
"","html-keyboard-response","226","187918","0.0-226.0","3R6P78PK7LX954PNAJHVUVEW7LEGTB","AF0M3066S5UF1","37SDSEDIN9ORHL92Y0GV7TIFJ2X187","","null","<img src=""img/land6.png"" style=""width:200px; border:14px solid green;"">","null","","","","","","","","","",""
"","image-keyboard-response","227","188263","0.0-227.0","3R6P78PK7LX954PNAJHVUVEW7LEGTB","AF0M3066S5UF1","37SDSEDIN9ORHL92Y0GV7TIFJ2X187","","343.2000000476837","img/land6.png","76","344","3","1","2","2","0.8,0.2,0.2,0.2,0.8,0.2,0.2,0.2,0.8","0.2,0.8,0.2,0.2,0.2,0.8,0.8,0.2,0.2","3","",""
"","html-keyboard-response","228","188565","0.0-228.0","3R6P78PK7LX954PNAJHVUVEW7LEGTB","AF0M3066S5UF1","37SDSEDIN9ORHL92Y0GV7TIFJ2X187","","null","<img src=""img/land6.png"" style=""width:200px; border:14px solid green;"">","null","","","","","","","","","",""
"","image-keyboard-response","229","189207","0.0-229.0","3R6P78PK7LX954PNAJHVUVEW7LEGTB","AF0M3066S5UF1","37SDSEDIN9ORHL92Y0GV7TIFJ2X187","","641.5","img/land5.png","75","642","2","1","1","2","0.8,0.2,0.2,0.2,0.8,0.2,0.2,0.2,0.8","0.2,0.8,0.2,0.2,0.2,0.8,0.8,0.2,0.2","3","",""
"","html-keyboard-response","230","189509","0.0-230.0","3R6P78PK7LX954PNAJHVUVEW7LEGTB","AF0M3066S5UF1","37SDSEDIN9ORHL92Y0GV7TIFJ2X187","","null","<img src=""img/land5.png"" style=""width:200px; border:14px solid green;"">","null","","","","","","","","","",""
"","image-keyboard-response","231","189791","0.0-231.0","3R6P78PK7LX954PNAJHVUVEW7LEGTB","AF0M3066S5UF1","37SDSEDIN9ORHL92Y0GV7TIFJ2X187","","281.09999990463257","img/land5.png","75","281.7999999523163","2","1","1","2","0.8,0.2,0.2,0.2,0.8,0.2,0.2,0.2,0.8","0.2,0.8,0.2,0.2,0.2,0.8,0.8,0.2,0.2","3","",""
"","html-keyboard-response","232","190093","0.0-232.0","3R6P78PK7LX954PNAJHVUVEW7LEGTB","AF0M3066S5UF1","37SDSEDIN9ORHL92Y0GV7TIFJ2X187","","null","<img src=""img/land5.png"" style=""width:200px; border:14px solid green;"">","null","","","","","","","","","",""
"","image-keyboard-response","233","190390","0.0-233.0","3R6P78PK7LX954PNAJHVUVEW7LEGTB","AF0M3066S5UF1","37SDSEDIN9ORHL92Y0GV7TIFJ2X187","","296.80000019073486","img/land5.png","75","297.40000009536743","2","0","1","2","0.8,0.2,0.2,0.2,0.8,0.2,0.2,0.2,0.8","0.2,0.8,0.2,0.2,0.2,0.8,0.8,0.2,0.2","3","",""
"","html-keyboard-response","234","190692","0.0-234.0","3R6P78PK7LX954PNAJHVUVEW7LEGTB","AF0M3066S5UF1","37SDSEDIN9ORHL92Y0GV7TIFJ2X187","","null","<img src=""img/land5.png"" style=""width:200px;border:14px solid red;"">","null","","","","","","","","","",""
"","image-keyboard-response","235","191026","0.0-235.0","3R6P78PK7LX954PNAJHVUVEW7LEGTB","AF0M3066S5UF1","37SDSEDIN9ORHL92Y0GV7TIFJ2X187","","334","img/land5.png","75","334.7000000476837","2","1","1","2","0.8,0.2,0.2,0.2,0.8,0.2,0.2,0.2,0.8","0.2,0.8,0.2,0.2,0.2,0.8,0.8,0.2,0.2","3","",""
"","html-keyboard-response","236","191329","0.0-236.0","3R6P78PK7LX954PNAJHVUVEW7LEGTB","AF0M3066S5UF1","37SDSEDIN9ORHL92Y0GV7TIFJ2X187","","null","<img src=""img/land5.png"" style=""width:200px; border:14px solid green;"">","null","","","","","","","","","",""
"","image-keyboard-response","237","191646","0.0-237.0","3R6P78PK7LX954PNAJHVUVEW7LEGTB","AF0M3066S5UF1","37SDSEDIN9ORHL92Y0GV7TIFJ2X187","","316.90000009536743","img/land5.png","75","317.5","2","1","1","2","0.8,0.2,0.2,0.2,0.8,0.2,0.2,0.2,0.8","0.2,0.8,0.2,0.2,0.2,0.8,0.8,0.2,0.2","3","",""
"","html-keyboard-response","238","191948","0.0-238.0","3R6P78PK7LX954PNAJHVUVEW7LEGTB","AF0M3066S5UF1","37SDSEDIN9ORHL92Y0GV7TIFJ2X187","","null","<img src=""img/land5.png"" style=""width:200px; border:14px solid green;"">","null","","","","","","","","","",""
"","image-keyboard-response","239","192245","0.0-239.0","3R6P78PK7LX954PNAJHVUVEW7LEGTB","AF0M3066S5UF1","37SDSEDIN9ORHL92Y0GV7TIFJ2X187","","295.7000000476837","img/land5.png","75","296.5","2","0","1","2","0.8,0.2,0.2,0.2,0.8,0.2,0.2,0.2,0.8","0.2,0.8,0.2,0.2,0.2,0.8,0.8,0.2,0.2","3","",""
"","html-keyboard-response","240","192546","0.0-240.0","3R6P78PK7LX954PNAJHVUVEW7LEGTB","AF0M3066S5UF1","37SDSEDIN9ORHL92Y0GV7TIFJ2X187","","null","<img src=""img/land5.png"" style=""width:200px;border:14px solid red;"">","null","","","","","","","","","",""
"","image-keyboard-response","241","193170","0.0-241.0","3R6P78PK7LX954PNAJHVUVEW7LEGTB","AF0M3066S5UF1","37SDSEDIN9ORHL92Y0GV7TIFJ2X187","","623.2999999523163","img/land6.png","76","623.8999998569489","3","1","2","2","0.8,0.2,0.2,0.2,0.8,0.2,0.2,0.2,0.8","0.2,0.8,0.2,0.2,0.2,0.8,0.8,0.2,0.2","3","",""
"","html-keyboard-response","242","193471","0.0-242.0","3R6P78PK7LX954PNAJHVUVEW7LEGTB","AF0M3066S5UF1","37SDSEDIN9ORHL92Y0GV7TIFJ2X187","","null","<img src=""img/land6.png"" style=""width:200px; border:14px solid green;"">","null","","","","","","","","","",""
"","image-keyboard-response","243","194080","0.0-243.0","3R6P78PK7LX954PNAJHVUVEW7LEGTB","AF0M3066S5UF1","37SDSEDIN9ORHL92Y0GV7TIFJ2X187","","607.6999998092651","img/land5.png","75","608.4000000953674","2","1","1","2","0.8,0.2,0.2,0.2,0.8,0.2,0.2,0.2,0.8","0.2,0.8,0.2,0.2,0.2,0.8,0.8,0.2,0.2","3","",""
"","html-keyboard-response","244","194381","0.0-244.0","3R6P78PK7LX954PNAJHVUVEW7LEGTB","AF0M3066S5UF1","37SDSEDIN9ORHL92Y0GV7TIFJ2X187","","null","<img src=""img/land5.png"" style=""width:200px; border:14px solid green;"">","null","","","","","","","","","",""
"","image-keyboard-response","245","194997","0.0-245.0","3R6P78PK7LX954PNAJHVUVEW7LEGTB","AF0M3066S5UF1","37SDSEDIN9ORHL92Y0GV7TIFJ2X187","","615","img/land4.png","74","615.4000000953674","1","1","3","2","0.8,0.2,0.2,0.2,0.8,0.2,0.2,0.2,0.8","0.2,0.8,0.2,0.2,0.2,0.8,0.8,0.2,0.2","3","",""
"","html-keyboard-response","246","195298","0.0-246.0","3R6P78PK7LX954PNAJHVUVEW7LEGTB","AF0M3066S5UF1","37SDSEDIN9ORHL92Y0GV7TIFJ2X187","","null","<img src=""img/land4.png"" style=""width:200px; border:14px solid green;"">","null","","","","","","","","","",""
"","image-keyboard-response","247","195939","0.0-247.0","3R6P78PK7LX954PNAJHVUVEW7LEGTB","AF0M3066S5UF1","37SDSEDIN9ORHL92Y0GV7TIFJ2X187","","640.7999999523163","img/land5.png","75","641.4000000953674","2","1","1","2","0.8,0.2,0.2,0.2,0.8,0.2,0.2,0.2,0.8","0.2,0.8,0.2,0.2,0.2,0.8,0.8,0.2,0.2","3","",""
"","html-keyboard-response","248","196241","0.0-248.0","3R6P78PK7LX954PNAJHVUVEW7LEGTB","AF0M3066S5UF1","37SDSEDIN9ORHL92Y0GV7TIFJ2X187","","null","<img src=""img/land5.png"" style=""width:200px; border:14px solid green;"">","null","","","","","","","","","",""
"","image-keyboard-response","249","196705","0.0-249.0","3R6P78PK7LX954PNAJHVUVEW7LEGTB","AF0M3066S5UF1","37SDSEDIN9ORHL92Y0GV7TIFJ2X187","","462.7999999523163","img/land4.png","74","463.59999990463257","1","0","3","2","0.8,0.2,0.2,0.2,0.8,0.2,0.2,0.2,0.8","0.2,0.8,0.2,0.2,0.2,0.8,0.8,0.2,0.2","3","",""
"","html-keyboard-response","250","197006","0.0-250.0","3R6P78PK7LX954PNAJHVUVEW7LEGTB","AF0M3066S5UF1","37SDSEDIN9ORHL92Y0GV7TIFJ2X187","","null","<img src=""img/land4.png"" style=""width:200px;border:14px solid red;"">","null","","","","","","","","","",""
"","image-keyboard-response","251","197348","0.0-251.0","3R6P78PK7LX954PNAJHVUVEW7LEGTB","AF0M3066S5UF1","37SDSEDIN9ORHL92Y0GV7TIFJ2X187","","341.40000009536743","img/land4.png","74","342.09999990463257","1","1","3","2","0.8,0.2,0.2,0.2,0.8,0.2,0.2,0.2,0.8","0.2,0.8,0.2,0.2,0.2,0.8,0.8,0.2,0.2","3","",""
"","html-keyboard-response","252","197650","0.0-252.0","3R6P78PK7LX954PNAJHVUVEW7LEGTB","AF0M3066S5UF1","37SDSEDIN9ORHL92Y0GV7TIFJ2X187","","null","<img src=""img/land4.png"" style=""width:200px; border:14px solid green;"">","null","","","","","","","","","",""
"","image-keyboard-response","253","198357","0.0-253.0","3R6P78PK7LX954PNAJHVUVEW7LEGTB","AF0M3066S5UF1","37SDSEDIN9ORHL92Y0GV7TIFJ2X187","","705.6999998092651","img/land6.png","76","706.2999999523163","3","1","2","2","0.8,0.2,0.2,0.2,0.8,0.2,0.2,0.2,0.8","0.2,0.8,0.2,0.2,0.2,0.8,0.8,0.2,0.2","3","",""
"","html-keyboard-response","254","198659","0.0-254.0","3R6P78PK7LX954PNAJHVUVEW7LEGTB","AF0M3066S5UF1","37SDSEDIN9ORHL92Y0GV7TIFJ2X187","","null","<img src=""img/land6.png"" style=""width:200px; border:14px solid green;"">","null","","","","","","","","","",""
"","image-keyboard-response","255","199281","0.0-255.0","3R6P78PK7LX954PNAJHVUVEW7LEGTB","AF0M3066S5UF1","37SDSEDIN9ORHL92Y0GV7TIFJ2X187","","621.2000000476837","img/land5.png","75","621.7999999523163","2","1","1","2","0.8,0.2,0.2,0.2,0.8,0.2,0.2,0.2,0.8","0.2,0.8,0.2,0.2,0.2,0.8,0.8,0.2,0.2","3","",""
"","html-keyboard-response","256","199582","0.0-256.0","3R6P78PK7LX954PNAJHVUVEW7LEGTB","AF0M3066S5UF1","37SDSEDIN9ORHL92Y0GV7TIFJ2X187","","null","<img src=""img/land5.png"" style=""width:200px; border:14px solid green;"">","null","","","","","","","","","",""
"","image-keyboard-response","257","200239","0.0-257.0","3R6P78PK7LX954PNAJHVUVEW7LEGTB","AF0M3066S5UF1","37SDSEDIN9ORHL92Y0GV7TIFJ2X187","","655.7000000476837","img/land6.png","76","656.2000000476837","3","1","2","2","0.8,0.2,0.2,0.2,0.8,0.2,0.2,0.2,0.8","0.2,0.8,0.2,0.2,0.2,0.8,0.8,0.2,0.2","3","",""
"","html-keyboard-response","258","200540","0.0-258.0","3R6P78PK7LX954PNAJHVUVEW7LEGTB","AF0M3066S5UF1","37SDSEDIN9ORHL92Y0GV7TIFJ2X187","","null","<img src=""img/land6.png"" style=""width:200px; border:14px solid green;"">","null","","","","","","","","","",""
"","image-keyboard-response","259","200858","0.0-259.0","3R6P78PK7LX954PNAJHVUVEW7LEGTB","AF0M3066S5UF1","37SDSEDIN9ORHL92Y0GV7TIFJ2X187","","316.69999980926514","img/land6.png","76","317.2000000476837","3","1","2","2","0.8,0.2,0.2,0.2,0.8,0.2,0.2,0.2,0.8","0.2,0.8,0.2,0.2,0.2,0.8,0.8,0.2,0.2","3","",""
"","html-keyboard-response","260","201159","0.0-260.0","3R6P78PK7LX954PNAJHVUVEW7LEGTB","AF0M3066S5UF1","37SDSEDIN9ORHL92Y0GV7TIFJ2X187","","null","<img src=""img/land6.png"" style=""width:200px; border:14px solid green;"">","null","","","","","","","","","",""
"","image-keyboard-response","261","201732","0.0-261.0","3R6P78PK7LX954PNAJHVUVEW7LEGTB","AF0M3066S5UF1","37SDSEDIN9ORHL92Y0GV7TIFJ2X187","","571.7999999523163","img/land5.png","75","572.2999999523163","2","1","1","2","0.8,0.2,0.2,0.2,0.8,0.2,0.2,0.2,0.8","0.2,0.8,0.2,0.2,0.2,0.8,0.8,0.2,0.2","3","",""
"","html-keyboard-response","262","202034","0.0-262.0","3R6P78PK7LX954PNAJHVUVEW7LEGTB","AF0M3066S5UF1","37SDSEDIN9ORHL92Y0GV7TIFJ2X187","","null","<img src=""img/land5.png"" style=""width:200px; border:14px solid green;"">","null","","","","","","","","","",""
"","image-keyboard-response","263","202372","0.0-263.0","3R6P78PK7LX954PNAJHVUVEW7LEGTB","AF0M3066S5UF1","37SDSEDIN9ORHL92Y0GV7TIFJ2X187","","337.5","img/land5.png","75","338.2000000476837","2","1","1","2","0.8,0.2,0.2,0.2,0.8,0.2,0.2,0.2,0.8","0.2,0.8,0.2,0.2,0.2,0.8,0.8,0.2,0.2","3","",""
"","html-keyboard-response","264","202673","0.0-264.0","3R6P78PK7LX954PNAJHVUVEW7LEGTB","AF0M3066S5UF1","37SDSEDIN9ORHL92Y0GV7TIFJ2X187","","null","<img src=""img/land5.png"" style=""width:200px; border:14px solid green;"">","null","","","","","","","","","",""
"","image-keyboard-response","265","203001","0.0-265.0","3R6P78PK7LX954PNAJHVUVEW7LEGTB","AF0M3066S5UF1","37SDSEDIN9ORHL92Y0GV7TIFJ2X187","","327","img/land5.png","75","327.5","2","0","1","2","0.8,0.2,0.2,0.2,0.8,0.2,0.2,0.2,0.8","0.2,0.8,0.2,0.2,0.2,0.8,0.8,0.2,0.2","3","",""
"","html-keyboard-response","266","203303","0.0-266.0","3R6P78PK7LX954PNAJHVUVEW7LEGTB","AF0M3066S5UF1","37SDSEDIN9ORHL92Y0GV7TIFJ2X187","","null","<img src=""img/land5.png"" style=""width:200px;border:14px solid red;"">","null","","","","","","","","","",""
"","image-keyboard-response","267","203640","0.0-267.0","3R6P78PK7LX954PNAJHVUVEW7LEGTB","AF0M3066S5UF1","37SDSEDIN9ORHL92Y0GV7TIFJ2X187","","336.7999999523163","img/land5.png","75","337.40000009536743","2","0","1","2","0.8,0.2,0.2,0.2,0.8,0.2,0.2,0.2,0.8","0.2,0.8,0.2,0.2,0.2,0.8,0.8,0.2,0.2","3","",""
"","html-keyboard-response","268","203942","0.0-268.0","3R6P78PK7LX954PNAJHVUVEW7LEGTB","AF0M3066S5UF1","37SDSEDIN9ORHL92Y0GV7TIFJ2X187","","null","<img src=""img/land5.png"" style=""width:200px;border:14px solid red;"">","null","","","","","","","","","",""
"","image-keyboard-response","269","204291","0.0-269.0","3R6P78PK7LX954PNAJHVUVEW7LEGTB","AF0M3066S5UF1","37SDSEDIN9ORHL92Y0GV7TIFJ2X187","","348.90000009536743","img/land5.png","75","349.5","2","1","1","2","0.8,0.2,0.2,0.2,0.8,0.2,0.2,0.2,0.8","0.2,0.8,0.2,0.2,0.2,0.8,0.8,0.2,0.2","3","",""
"","html-keyboard-response","270","204594","0.0-270.0","3R6P78PK7LX954PNAJHVUVEW7LEGTB","AF0M3066S5UF1","37SDSEDIN9ORHL92Y0GV7TIFJ2X187","","null","<img src=""img/land5.png"" style=""width:200px; border:14px solid green;"">","null","","","","","","","","","",""
"","image-keyboard-response","271","205283","0.0-271.0","3R6P78PK7LX954PNAJHVUVEW7LEGTB","AF0M3066S5UF1","37SDSEDIN9ORHL92Y0GV7TIFJ2X187","","688.5999999046326","img/land6.png","76","689.2000000476837","3","0","2","2","0.8,0.2,0.2,0.2,0.8,0.2,0.2,0.2,0.8","0.2,0.8,0.2,0.2,0.2,0.8,0.8,0.2,0.2","3","",""
"","html-keyboard-response","272","205585","0.0-272.0","3R6P78PK7LX954PNAJHVUVEW7LEGTB","AF0M3066S5UF1","37SDSEDIN9ORHL92Y0GV7TIFJ2X187","","null","<img src=""img/land6.png"" style=""width:200px;border:14px solid red;"">","null","","","","","","","","","",""
"","image-keyboard-response","273","206158","0.0-273.0","3R6P78PK7LX954PNAJHVUVEW7LEGTB","AF0M3066S5UF1","37SDSEDIN9ORHL92Y0GV7TIFJ2X187","","571.8999998569489","img/land5.png","75","572.4000000953674","2","1","1","2","0.8,0.2,0.2,0.2,0.8,0.2,0.2,0.2,0.8","0.2,0.8,0.2,0.2,0.2,0.8,0.8,0.2,0.2","3","",""
"","html-keyboard-response","274","206459","0.0-274.0","3R6P78PK7LX954PNAJHVUVEW7LEGTB","AF0M3066S5UF1","37SDSEDIN9ORHL92Y0GV7TIFJ2X187","","null","<img src=""img/land5.png"" style=""width:200px; border:14px solid green;"">","null","","","","","","","","","",""
"","image-keyboard-response","275","206874","0.0-275.0","3R6P78PK7LX954PNAJHVUVEW7LEGTB","AF0M3066S5UF1","37SDSEDIN9ORHL92Y0GV7TIFJ2X187","","413.09999990463257","img/land6.png","76","413.90000009536743","3","1","2","2","0.8,0.2,0.2,0.2,0.8,0.2,0.2,0.2,0.8","0.2,0.8,0.2,0.2,0.2,0.8,0.8,0.2,0.2","3","",""
"","html-keyboard-response","276","207180","0.0-276.0","3R6P78PK7LX954PNAJHVUVEW7LEGTB","AF0M3066S5UF1","37SDSEDIN9ORHL92Y0GV7TIFJ2X187","","null","<img src=""img/land6.png"" style=""width:200px; border:14px solid green;"">","null","","","","","","","","","",""
"","image-keyboard-response","277","207848","0.0-277.0","3R6P78PK7LX954PNAJHVUVEW7LEGTB","AF0M3066S5UF1","37SDSEDIN9ORHL92Y0GV7TIFJ2X187","","667","img/land4.png","74","667.5999999046326","1","1","3","2","0.8,0.2,0.2,0.2,0.8,0.2,0.2,0.2,0.8","0.2,0.8,0.2,0.2,0.2,0.8,0.8,0.2,0.2","3","",""
"","html-keyboard-response","278","208150","0.0-278.0","3R6P78PK7LX954PNAJHVUVEW7LEGTB","AF0M3066S5UF1","37SDSEDIN9ORHL92Y0GV7TIFJ2X187","","null","<img src=""img/land4.png"" style=""width:200px; border:14px solid green;"">","null","","","","","","","","","",""
"","image-keyboard-response","279","208740","0.0-279.0","3R6P78PK7LX954PNAJHVUVEW7LEGTB","AF0M3066S5UF1","37SDSEDIN9ORHL92Y0GV7TIFJ2X187","","588.6000001430511","img/land5.png","75","589.2000000476837","2","1","1","2","0.8,0.2,0.2,0.2,0.8,0.2,0.2,0.2,0.8","0.2,0.8,0.2,0.2,0.2,0.8,0.8,0.2,0.2","3","",""
"","html-keyboard-response","280","209051","0.0-280.0","3R6P78PK7LX954PNAJHVUVEW7LEGTB","AF0M3066S5UF1","37SDSEDIN9ORHL92Y0GV7TIFJ2X187","","null","<img src=""img/land5.png"" style=""width:200px; border:14px solid green;"">","null","","","","","","","","","",""
"","image-keyboard-response","281","209438","0.0-281.0","3R6P78PK7LX954PNAJHVUVEW7LEGTB","AF0M3066S5UF1","37SDSEDIN9ORHL92Y0GV7TIFJ2X187","","386.5","img/land5.png","75","387","2","1","1","2","0.8,0.2,0.2,0.2,0.8,0.2,0.2,0.2,0.8","0.2,0.8,0.2,0.2,0.2,0.8,0.8,0.2,0.2","3","",""
"","html-keyboard-response","282","209740","0.0-282.0","3R6P78PK7LX954PNAJHVUVEW7LEGTB","AF0M3066S5UF1","37SDSEDIN9ORHL92Y0GV7TIFJ2X187","","null","<img src=""img/land5.png"" style=""width:200px; border:14px solid green;"">","null","","","","","","","","","",""
"","image-keyboard-response","283","210050","0.0-283.0","3R6P78PK7LX954PNAJHVUVEW7LEGTB","AF0M3066S5UF1","37SDSEDIN9ORHL92Y0GV7TIFJ2X187","","309.40000009536743","img/land5.png","75","309.89999985694885","2","1","1","2","0.8,0.2,0.2,0.2,0.8,0.2,0.2,0.2,0.8","0.2,0.8,0.2,0.2,0.2,0.8,0.8,0.2,0.2","3","",""
"","html-keyboard-response","284","210351","0.0-284.0","3R6P78PK7LX954PNAJHVUVEW7LEGTB","AF0M3066S5UF1","37SDSEDIN9ORHL92Y0GV7TIFJ2X187","","null","<img src=""img/land5.png"" style=""width:200px; border:14px solid green;"">","null","","","","","","","","","",""
"","image-keyboard-response","285","211057","0.0-285.0","3R6P78PK7LX954PNAJHVUVEW7LEGTB","AF0M3066S5UF1","37SDSEDIN9ORHL92Y0GV7TIFJ2X187","","705.8999998569489","img/land6.png","76","706.3999998569489","3","1","2","2","0.8,0.2,0.2,0.2,0.8,0.2,0.2,0.2,0.8","0.2,0.8,0.2,0.2,0.2,0.8,0.8,0.2,0.2","3","",""
"","html-keyboard-response","286","211359","0.0-286.0","3R6P78PK7LX954PNAJHVUVEW7LEGTB","AF0M3066S5UF1","37SDSEDIN9ORHL92Y0GV7TIFJ2X187","","null","<img src=""img/land6.png"" style=""width:200px; border:14px solid green;"">","null","","","","","","","","","",""
"","image-keyboard-response","287","211900","0.0-287.0","3R6P78PK7LX954PNAJHVUVEW7LEGTB","AF0M3066S5UF1","37SDSEDIN9ORHL92Y0GV7TIFJ2X187","","540.6999998092651","img/land5.png","75","541.2999999523163","2","1","1","2","0.8,0.2,0.2,0.2,0.8,0.2,0.2,0.2,0.8","0.2,0.8,0.2,0.2,0.2,0.8,0.8,0.2,0.2","3","",""
"","html-keyboard-response","288","212202","0.0-288.0","3R6P78PK7LX954PNAJHVUVEW7LEGTB","AF0M3066S5UF1","37SDSEDIN9ORHL92Y0GV7TIFJ2X187","","null","<img src=""img/land5.png"" style=""width:200px; border:14px solid green;"">","null","","","","","","","","","",""
"","image-keyboard-response","289","212669","0.0-289.0","3R6P78PK7LX954PNAJHVUVEW7LEGTB","AF0M3066S5UF1","37SDSEDIN9ORHL92Y0GV7TIFJ2X187","","466.7999999523163","img/land6.png","76","467.2999999523163","3","1","2","2","0.8,0.2,0.2,0.2,0.8,0.2,0.2,0.2,0.8","0.2,0.8,0.2,0.2,0.2,0.8,0.8,0.2,0.2","3","",""
"","html-keyboard-response","290","212971","0.0-290.0","3R6P78PK7LX954PNAJHVUVEW7LEGTB","AF0M3066S5UF1","37SDSEDIN9ORHL92Y0GV7TIFJ2X187","","null","<img src=""img/land6.png"" style=""width:200px; border:14px solid green;"">","null","","","","","","","","","",""
"","image-keyboard-response","291","213577","0.0-291.0","3R6P78PK7LX954PNAJHVUVEW7LEGTB","AF0M3066S5UF1","37SDSEDIN9ORHL92Y0GV7TIFJ2X187","","605.7000000476837","img/land5.png","75","606.2999999523163","2","1","1","2","0.8,0.2,0.2,0.2,0.8,0.2,0.2,0.2,0.8","0.2,0.8,0.2,0.2,0.2,0.8,0.8,0.2,0.2","3","",""
"","html-keyboard-response","292","213878","0.0-292.0","3R6P78PK7LX954PNAJHVUVEW7LEGTB","AF0M3066S5UF1","37SDSEDIN9ORHL92Y0GV7TIFJ2X187","","null","<img src=""img/land5.png"" style=""width:200px; border:14px solid green;"">","null","","","","","","","","","",""
"","image-keyboard-response","293","214328","0.0-293.0","3R6P78PK7LX954PNAJHVUVEW7LEGTB","AF0M3066S5UF1","37SDSEDIN9ORHL92Y0GV7TIFJ2X187","","449.10000014305115","img/land6.png","76","449.59999990463257","3","1","2","2","0.8,0.2,0.2,0.2,0.8,0.2,0.2,0.2,0.8","0.2,0.8,0.2,0.2,0.2,0.8,0.8,0.2,0.2","3","",""
"","html-keyboard-response","294","214629","0.0-294.0","3R6P78PK7LX954PNAJHVUVEW7LEGTB","AF0M3066S5UF1","37SDSEDIN9ORHL92Y0GV7TIFJ2X187","","null","<img src=""img/land6.png"" style=""width:200px; border:14px solid green;"">","null","","","","","","","","","",""
"","image-keyboard-response","295","215269","0.0-295.0","3R6P78PK7LX954PNAJHVUVEW7LEGTB","AF0M3066S5UF1","37SDSEDIN9ORHL92Y0GV7TIFJ2X187","","638.7000000476837","img/land4.png","74","639.2999999523163","1","1","3","2","0.8,0.2,0.2,0.2,0.8,0.2,0.2,0.2,0.8","0.2,0.8,0.2,0.2,0.2,0.8,0.8,0.2,0.2","3","",""
"","html-keyboard-response","296","215571","0.0-296.0","3R6P78PK7LX954PNAJHVUVEW7LEGTB","AF0M3066S5UF1","37SDSEDIN9ORHL92Y0GV7TIFJ2X187","","null","<img src=""img/land4.png"" style=""width:200px; border:14px solid green;"">","null","","","","","","","","","",""
"","image-keyboard-response","297","215873","0.0-297.0","3R6P78PK7LX954PNAJHVUVEW7LEGTB","AF0M3066S5UF1","37SDSEDIN9ORHL92Y0GV7TIFJ2X187","","301.5","img/land4.png","74","302.09999990463257","1","1","3","2","0.8,0.2,0.2,0.2,0.8,0.2,0.2,0.2,0.8","0.2,0.8,0.2,0.2,0.2,0.8,0.8,0.2,0.2","3","",""
"","html-keyboard-response","298","216174","0.0-298.0","3R6P78PK7LX954PNAJHVUVEW7LEGTB","AF0M3066S5UF1","37SDSEDIN9ORHL92Y0GV7TIFJ2X187","","null","<img src=""img/land4.png"" style=""width:200px; border:14px solid green;"">","null","","","","","","","","","",""
"","image-keyboard-response","299","216800","0.0-299.0","3R6P78PK7LX954PNAJHVUVEW7LEGTB","AF0M3066S5UF1","37SDSEDIN9ORHL92Y0GV7TIFJ2X187","","624.5999999046326","img/land6.png","76","625.0999999046326","3","1","2","2","0.8,0.2,0.2,0.2,0.8,0.2,0.2,0.2,0.8","0.2,0.8,0.2,0.2,0.2,0.8,0.8,0.2,0.2","3","",""
"","html-keyboard-response","300","217101","0.0-300.0","3R6P78PK7LX954PNAJHVUVEW7LEGTB","AF0M3066S5UF1","37SDSEDIN9ORHL92Y0GV7TIFJ2X187","","null","<img src=""img/land6.png"" style=""width:200px; border:14px solid green;"">","null","","","","","","","","","",""
"","image-keyboard-response","301","217706","0.0-301.0","3R6P78PK7LX954PNAJHVUVEW7LEGTB","AF0M3066S5UF1","37SDSEDIN9ORHL92Y0GV7TIFJ2X187","","604.3000001907349","img/land5.png","75","604.9000000953674","2","1","1","2","0.8,0.2,0.2,0.2,0.8,0.2,0.2,0.2,0.8","0.2,0.8,0.2,0.2,0.2,0.8,0.8,0.2,0.2","3","",""
"","html-keyboard-response","302","218007","0.0-302.0","3R6P78PK7LX954PNAJHVUVEW7LEGTB","AF0M3066S5UF1","37SDSEDIN9ORHL92Y0GV7TIFJ2X187","","null","<img src=""img/land5.png"" style=""width:200px; border:14px solid green;"">","null","","","","","","","","","",""
"","image-keyboard-response","303","218391","0.0-303.0","3R6P78PK7LX954PNAJHVUVEW7LEGTB","AF0M3066S5UF1","37SDSEDIN9ORHL92Y0GV7TIFJ2X187","","383.10000014305115","img/land5.png","75","383.7999999523163","2","1","1","2","0.8,0.2,0.2,0.2,0.8,0.2,0.2,0.2,0.8","0.2,0.8,0.2,0.2,0.2,0.8,0.8,0.2,0.2","3","",""
"","html-keyboard-response","304","218694","0.0-304.0","3R6P78PK7LX954PNAJHVUVEW7LEGTB","AF0M3066S5UF1","37SDSEDIN9ORHL92Y0GV7TIFJ2X187","","null","<img src=""img/land5.png"" style=""width:200px; border:14px solid green;"">","null","","","","","","","","","",""
"","image-keyboard-response","305","219051","0.0-305.0","3R6P78PK7LX954PNAJHVUVEW7LEGTB","AF0M3066S5UF1","37SDSEDIN9ORHL92Y0GV7TIFJ2X187","","356.7999999523163","img/land5.png","75","357.39999985694885","2","1","1","2","0.8,0.2,0.2,0.2,0.8,0.2,0.2,0.2,0.8","0.2,0.8,0.2,0.2,0.2,0.8,0.8,0.2,0.2","3","",""
"","html-keyboard-response","306","219354","0.0-306.0","3R6P78PK7LX954PNAJHVUVEW7LEGTB","AF0M3066S5UF1","37SDSEDIN9ORHL92Y0GV7TIFJ2X187","","null","<img src=""img/land5.png"" style=""width:200px; border:14px solid green;"">","null","","","","","","","","","",""
"","image-keyboard-response","307","219708","0.0-307.0","3R6P78PK7LX954PNAJHVUVEW7LEGTB","AF0M3066S5UF1","37SDSEDIN9ORHL92Y0GV7TIFJ2X187","","353.2999999523163","img/land5.png","75","353.89999985694885","2","1","1","2","0.8,0.2,0.2,0.2,0.8,0.2,0.2,0.2,0.8","0.2,0.8,0.2,0.2,0.2,0.8,0.8,0.2,0.2","3","",""
"","html-keyboard-response","308","220021","0.0-308.0","3R6P78PK7LX954PNAJHVUVEW7LEGTB","AF0M3066S5UF1","37SDSEDIN9ORHL92Y0GV7TIFJ2X187","","null","<img src=""img/land5.png"" style=""width:200px; border:14px solid green;"">","null","","","","","","","","","",""
"","image-keyboard-response","309","220717","0.0-309.0","3R6P78PK7LX954PNAJHVUVEW7LEGTB","AF0M3066S5UF1","37SDSEDIN9ORHL92Y0GV7TIFJ2X187","","695.5","img/land6.png","76","696.1000001430511","3","1","2","2","0.8,0.2,0.2,0.2,0.8,0.2,0.2,0.2,0.8","0.2,0.8,0.2,0.2,0.2,0.8,0.8,0.2,0.2","3","",""
"","html-keyboard-response","310","221018","0.0-310.0","3R6P78PK7LX954PNAJHVUVEW7LEGTB","AF0M3066S5UF1","37SDSEDIN9ORHL92Y0GV7TIFJ2X187","","null","<img src=""img/land6.png"" style=""width:200px; border:14px solid green;"">","null","","","","","","","","","",""
"","image-keyboard-response","311","221689","0.0-311.0","3R6P78PK7LX954PNAJHVUVEW7LEGTB","AF0M3066S5UF1","37SDSEDIN9ORHL92Y0GV7TIFJ2X187","","670.4000000953674","img/land5.png","75","671.0999999046326","2","0","1","2","0.8,0.2,0.2,0.2,0.8,0.2,0.2,0.2,0.8","0.2,0.8,0.2,0.2,0.2,0.8,0.8,0.2,0.2","3","",""
"","html-keyboard-response","312","221991","0.0-312.0","3R6P78PK7LX954PNAJHVUVEW7LEGTB","AF0M3066S5UF1","37SDSEDIN9ORHL92Y0GV7TIFJ2X187","","null","<img src=""img/land5.png"" style=""width:200px;border:14px solid red;"">","null","","","","","","","","","",""
"","image-keyboard-response","313","222285","0.0-313.0","3R6P78PK7LX954PNAJHVUVEW7LEGTB","AF0M3066S5UF1","37SDSEDIN9ORHL92Y0GV7TIFJ2X187","","293.2999999523163","img/land5.png","75","293.90000009536743","2","1","1","2","0.8,0.2,0.2,0.2,0.8,0.2,0.2,0.2,0.8","0.2,0.8,0.2,0.2,0.2,0.8,0.8,0.2,0.2","3","",""
"","html-keyboard-response","314","222586","0.0-314.0","3R6P78PK7LX954PNAJHVUVEW7LEGTB","AF0M3066S5UF1","37SDSEDIN9ORHL92Y0GV7TIFJ2X187","","null","<img src=""img/land5.png"" style=""width:200px; border:14px solid green;"">","null","","","","","","","","","",""
"","image-keyboard-response","315","223240","0.0-315.0","3R6P78PK7LX954PNAJHVUVEW7LEGTB","AF0M3066S5UF1","37SDSEDIN9ORHL92Y0GV7TIFJ2X187","","653.2000000476837","img/land6.png","76","653.6999998092651","3","0","2","2","0.8,0.2,0.2,0.2,0.8,0.2,0.2,0.2,0.8","0.2,0.8,0.2,0.2,0.2,0.8,0.8,0.2,0.2","3","",""
"","html-keyboard-response","316","223541","0.0-316.0","3R6P78PK7LX954PNAJHVUVEW7LEGTB","AF0M3066S5UF1","37SDSEDIN9ORHL92Y0GV7TIFJ2X187","","null","<img src=""img/land6.png"" style=""width:200px;border:14px solid red;"">","null","","","","","","","","","",""
"","image-keyboard-response","317","223862","0.0-317.0","3R6P78PK7LX954PNAJHVUVEW7LEGTB","AF0M3066S5UF1","37SDSEDIN9ORHL92Y0GV7TIFJ2X187","","319.7999999523163","img/land6.png","76","320.5","3","0","2","2","0.8,0.2,0.2,0.2,0.8,0.2,0.2,0.2,0.8","0.2,0.8,0.2,0.2,0.2,0.8,0.8,0.2,0.2","3","",""
"","html-keyboard-response","318","224163","0.0-318.0","3R6P78PK7LX954PNAJHVUVEW7LEGTB","AF0M3066S5UF1","37SDSEDIN9ORHL92Y0GV7TIFJ2X187","","null","<img src=""img/land6.png"" style=""width:200px;border:14px solid red;"">","null","","","","","","","","","",""
"","image-keyboard-response","319","224804","0.0-319.0","3R6P78PK7LX954PNAJHVUVEW7LEGTB","AF0M3066S5UF1","37SDSEDIN9ORHL92Y0GV7TIFJ2X187","","639.6000001430511","img/land4.png","74","640.2999999523163","1","1","3","2","0.8,0.2,0.2,0.2,0.8,0.2,0.2,0.2,0.8","0.2,0.8,0.2,0.2,0.2,0.8,0.8,0.2,0.2","3","",""
"","html-keyboard-response","320","225119","0.0-320.0","3R6P78PK7LX954PNAJHVUVEW7LEGTB","AF0M3066S5UF1","37SDSEDIN9ORHL92Y0GV7TIFJ2X187","","null","<img src=""img/land4.png"" style=""width:200px; border:14px solid green;"">","null","","","","","","","","","",""
"","image-keyboard-response","321","225710","0.0-321.0","3R6P78PK7LX954PNAJHVUVEW7LEGTB","AF0M3066S5UF1","37SDSEDIN9ORHL92Y0GV7TIFJ2X187","","590.2999999523163","img/land6.png","76","591","3","1","2","2","0.8,0.2,0.2,0.2,0.8,0.2,0.2,0.2,0.8","0.2,0.8,0.2,0.2,0.2,0.8,0.8,0.2,0.2","3","",""
"","html-keyboard-response","322","226012","0.0-322.0","3R6P78PK7LX954PNAJHVUVEW7LEGTB","AF0M3066S5UF1","37SDSEDIN9ORHL92Y0GV7TIFJ2X187","","null","<img src=""img/land6.png"" style=""width:200px; border:14px solid green;"">","null","","","","","","","","","",""
"","image-keyboard-response","323","226384","0.0-323.0","3R6P78PK7LX954PNAJHVUVEW7LEGTB","AF0M3066S5UF1","37SDSEDIN9ORHL92Y0GV7TIFJ2X187","","371","img/land6.png","76","371.39999985694885","3","1","2","2","0.8,0.2,0.2,0.2,0.8,0.2,0.2,0.2,0.8","0.2,0.8,0.2,0.2,0.2,0.8,0.8,0.2,0.2","3","",""
"","html-keyboard-response","324","226685","0.0-324.0","3R6P78PK7LX954PNAJHVUVEW7LEGTB","AF0M3066S5UF1","37SDSEDIN9ORHL92Y0GV7TIFJ2X187","","null","<img src=""img/land6.png"" style=""width:200px; border:14px solid green;"">","null","","","","","","","","","",""
"","image-keyboard-response","325","227311","0.0-325.0","3R6P78PK7LX954PNAJHVUVEW7LEGTB","AF0M3066S5UF1","37SDSEDIN9ORHL92Y0GV7TIFJ2X187","","625.3000001907349","img/land5.png","75","625.9000000953674","2","0","1","2","0.8,0.2,0.2,0.2,0.8,0.2,0.2,0.2,0.8","0.2,0.8,0.2,0.2,0.2,0.8,0.8,0.2,0.2","3","",""
"","html-keyboard-response","326","227612","0.0-326.0","3R6P78PK7LX954PNAJHVUVEW7LEGTB","AF0M3066S5UF1","37SDSEDIN9ORHL92Y0GV7TIFJ2X187","","null","<img src=""img/land5.png"" style=""width:200px;border:14px solid red;"">","null","","","","","","","","","",""
"","image-keyboard-response","327","227866","0.0-327.0","3R6P78PK7LX954PNAJHVUVEW7LEGTB","AF0M3066S5UF1","37SDSEDIN9ORHL92Y0GV7TIFJ2X187","","253.59999990463257","img/land5.png","75","254.30000019073486","2","1","1","2","0.8,0.2,0.2,0.2,0.8,0.2,0.2,0.2,0.8","0.2,0.8,0.2,0.2,0.2,0.8,0.8,0.2,0.2","3","",""
"","html-keyboard-response","328","228168","0.0-328.0","3R6P78PK7LX954PNAJHVUVEW7LEGTB","AF0M3066S5UF1","37SDSEDIN9ORHL92Y0GV7TIFJ2X187","","null","<img src=""img/land5.png"" style=""width:200px; border:14px solid green;"">","null","","","","","","","","","",""
"","image-keyboard-response","329","228521","0.0-329.0","3R6P78PK7LX954PNAJHVUVEW7LEGTB","AF0M3066S5UF1","37SDSEDIN9ORHL92Y0GV7TIFJ2X187","","352.2999999523163","img/land5.png","75","352.7999999523163","2","1","1","2","0.8,0.2,0.2,0.2,0.8,0.2,0.2,0.2,0.8","0.2,0.8,0.2,0.2,0.2,0.8,0.8,0.2,0.2","3","",""
"","html-keyboard-response","330","228822","0.0-330.0","3R6P78PK7LX954PNAJHVUVEW7LEGTB","AF0M3066S5UF1","37SDSEDIN9ORHL92Y0GV7TIFJ2X187","","null","<img src=""img/land5.png"" style=""width:200px; border:14px solid green;"">","null","","","","","","","","","",""
"","image-keyboard-response","331","229401","0.0-331.0","3R6P78PK7LX954PNAJHVUVEW7LEGTB","AF0M3066S5UF1","37SDSEDIN9ORHL92Y0GV7TIFJ2X187","","578.6999998092651","img/land4.png","74","579.0999999046326","1","0","3","2","0.8,0.2,0.2,0.2,0.8,0.2,0.2,0.2,0.8","0.2,0.8,0.2,0.2,0.2,0.8,0.8,0.2,0.2","3","",""
"","html-keyboard-response","332","229702","0.0-332.0","3R6P78PK7LX954PNAJHVUVEW7LEGTB","AF0M3066S5UF1","37SDSEDIN9ORHL92Y0GV7TIFJ2X187","","null","<img src=""img/land4.png"" style=""width:200px;border:14px solid red;"">","null","","","","","","","","","",""
"","image-keyboard-response","333","230019","0.0-333.0","3R6P78PK7LX954PNAJHVUVEW7LEGTB","AF0M3066S5UF1","37SDSEDIN9ORHL92Y0GV7TIFJ2X187","","315.89999985694885","img/land4.png","74","316.5","1","1","3","2","0.8,0.2,0.2,0.2,0.8,0.2,0.2,0.2,0.8","0.2,0.8,0.2,0.2,0.2,0.8,0.8,0.2,0.2","3","",""
"","html-keyboard-response","334","230320","0.0-334.0","3R6P78PK7LX954PNAJHVUVEW7LEGTB","AF0M3066S5UF1","37SDSEDIN9ORHL92Y0GV7TIFJ2X187","","null","<img src=""img/land4.png"" style=""width:200px; border:14px solid green;"">","null","","","","","","","","","",""
"","image-keyboard-response","335","230729","0.0-335.0","3R6P78PK7LX954PNAJHVUVEW7LEGTB","AF0M3066S5UF1","37SDSEDIN9ORHL92Y0GV7TIFJ2X187","","408.80000019073486","img/land4.png","74","409.2999999523163","1","1","3","2","0.8,0.2,0.2,0.2,0.8,0.2,0.2,0.2,0.8","0.2,0.8,0.2,0.2,0.2,0.8,0.8,0.2,0.2","3","",""
"","html-keyboard-response","336","231031","0.0-336.0","3R6P78PK7LX954PNAJHVUVEW7LEGTB","AF0M3066S5UF1","37SDSEDIN9ORHL92Y0GV7TIFJ2X187","","null","<img src=""img/land4.png"" style=""width:200px; border:14px solid green;"">","null","","","","","","","","","",""
"","image-keyboard-response","337","231427","0.0-337.0","3R6P78PK7LX954PNAJHVUVEW7LEGTB","AF0M3066S5UF1","37SDSEDIN9ORHL92Y0GV7TIFJ2X187","","395.2000000476837","img/land4.png","74","395.7999999523163","1","1","3","2","0.8,0.2,0.2,0.2,0.8,0.2,0.2,0.2,0.8","0.2,0.8,0.2,0.2,0.2,0.8,0.8,0.2,0.2","3","",""
"","html-keyboard-response","338","231729","0.0-338.0","3R6P78PK7LX954PNAJHVUVEW7LEGTB","AF0M3066S5UF1","37SDSEDIN9ORHL92Y0GV7TIFJ2X187","","null","<img src=""img/land4.png"" style=""width:200px; border:14px solid green;"">","null","","","","","","","","","",""
"","image-keyboard-response","339","232126","0.0-339.0","3R6P78PK7LX954PNAJHVUVEW7LEGTB","AF0M3066S5UF1","37SDSEDIN9ORHL92Y0GV7TIFJ2X187","","396.2000000476837","img/land4.png","74","396.80000019073486","1","0","3","2","0.8,0.2,0.2,0.2,0.8,0.2,0.2,0.2,0.8","0.2,0.8,0.2,0.2,0.2,0.8,0.8,0.2,0.2","3","",""
"","html-keyboard-response","340","232428","0.0-340.0","3R6P78PK7LX954PNAJHVUVEW7LEGTB","AF0M3066S5UF1","37SDSEDIN9ORHL92Y0GV7TIFJ2X187","","null","<img src=""img/land4.png"" style=""width:200px;border:14px solid red;"">","null","","","","","","","","","",""
"","image-keyboard-response","341","232814","0.0-341.0","3R6P78PK7LX954PNAJHVUVEW7LEGTB","AF0M3066S5UF1","37SDSEDIN9ORHL92Y0GV7TIFJ2X187","","385.10000014305115","img/land4.png","74","385.7999999523163","1","1","3","2","0.8,0.2,0.2,0.2,0.8,0.2,0.2,0.2,0.8","0.2,0.8,0.2,0.2,0.2,0.8,0.8,0.2,0.2","3","",""
"","html-keyboard-response","342","233115","0.0-342.0","3R6P78PK7LX954PNAJHVUVEW7LEGTB","AF0M3066S5UF1","37SDSEDIN9ORHL92Y0GV7TIFJ2X187","","null","<img src=""img/land4.png"" style=""width:200px; border:14px solid green;"">","null","","","","","","","","","",""
"","image-keyboard-response","343","233924","0.0-343.0","3R6P78PK7LX954PNAJHVUVEW7LEGTB","AF0M3066S5UF1","37SDSEDIN9ORHL92Y0GV7TIFJ2X187","","807.5","img/land5.png","75","808.4000000953674","2","1","1","2","0.8,0.2,0.2,0.2,0.8,0.2,0.2,0.2,0.8","0.2,0.8,0.2,0.2,0.2,0.8,0.8,0.2,0.2","3","",""
"","html-keyboard-response","344","234226","0.0-344.0","3R6P78PK7LX954PNAJHVUVEW7LEGTB","AF0M3066S5UF1","37SDSEDIN9ORHL92Y0GV7TIFJ2X187","","null","<img src=""img/land5.png"" style=""width:200px; border:14px solid green;"">","null","","","","","","","","","",""
"","image-keyboard-response","345","234604","0.0-345.0","3R6P78PK7LX954PNAJHVUVEW7LEGTB","AF0M3066S5UF1","37SDSEDIN9ORHL92Y0GV7TIFJ2X187","","377.10000014305115","img/land5.png","75","378.10000014305115","2","0","1","2","0.8,0.2,0.2,0.2,0.8,0.2,0.2,0.2,0.8","0.2,0.8,0.2,0.2,0.2,0.8,0.8,0.2,0.2","3","",""
"","html-keyboard-response","346","234906","0.0-346.0","3R6P78PK7LX954PNAJHVUVEW7LEGTB","AF0M3066S5UF1","37SDSEDIN9ORHL92Y0GV7TIFJ2X187","","null","<img src=""img/land5.png"" style=""width:200px;border:14px solid red;"">","null","","","","","","","","","",""
"","image-keyboard-response","347","235246","0.0-347.0","3R6P78PK7LX954PNAJHVUVEW7LEGTB","AF0M3066S5UF1","37SDSEDIN9ORHL92Y0GV7TIFJ2X187","","338.10000014305115","img/land5.png","75","339.40000009536743","2","1","1","2","0.8,0.2,0.2,0.2,0.8,0.2,0.2,0.2,0.8","0.2,0.8,0.2,0.2,0.2,0.8,0.8,0.2,0.2","3","",""
"","html-keyboard-response","348","235549","0.0-348.0","3R6P78PK7LX954PNAJHVUVEW7LEGTB","AF0M3066S5UF1","37SDSEDIN9ORHL92Y0GV7TIFJ2X187","","null","<img src=""img/land5.png"" style=""width:200px; border:14px solid green;"">","null","","","","","","","","","",""
"","image-keyboard-response","349","236173","0.0-349.0","3R6P78PK7LX954PNAJHVUVEW7LEGTB","AF0M3066S5UF1","37SDSEDIN9ORHL92Y0GV7TIFJ2X187","","623","img/land6.png","76","623.5999999046326","3","1","2","2","0.8,0.2,0.2,0.2,0.8,0.2,0.2,0.2,0.8","0.2,0.8,0.2,0.2,0.2,0.8,0.8,0.2,0.2","3","",""
"","html-keyboard-response","350","236474","0.0-350.0","3R6P78PK7LX954PNAJHVUVEW7LEGTB","AF0M3066S5UF1","37SDSEDIN9ORHL92Y0GV7TIFJ2X187","","null","<img src=""img/land6.png"" style=""width:200px; border:14px solid green;"">","null","","","","","","","","","",""
"","image-keyboard-response","351","237049","0.0-351.0","3R6P78PK7LX954PNAJHVUVEW7LEGTB","AF0M3066S5UF1","37SDSEDIN9ORHL92Y0GV7TIFJ2X187","","573.8000001907349","img/land5.png","75","574.3999998569489","2","1","1","2","0.8,0.2,0.2,0.2,0.8,0.2,0.2,0.2,0.8","0.2,0.8,0.2,0.2,0.2,0.8,0.8,0.2,0.2","3","",""
"","html-keyboard-response","352","237351","0.0-352.0","3R6P78PK7LX954PNAJHVUVEW7LEGTB","AF0M3066S5UF1","37SDSEDIN9ORHL92Y0GV7TIFJ2X187","","null","<img src=""img/land5.png"" style=""width:200px; border:14px solid green;"">","null","","","","","","","","","",""
"","image-keyboard-response","353","237704","0.0-353.0","3R6P78PK7LX954PNAJHVUVEW7LEGTB","AF0M3066S5UF1","37SDSEDIN9ORHL92Y0GV7TIFJ2X187","","352.10000014305115","img/land5.png","75","352.59999990463257","2","1","1","2","0.8,0.2,0.2,0.2,0.8,0.2,0.2,0.2,0.8","0.2,0.8,0.2,0.2,0.2,0.8,0.8,0.2,0.2","3","",""
"","html-keyboard-response","354","238006","0.0-354.0","3R6P78PK7LX954PNAJHVUVEW7LEGTB","AF0M3066S5UF1","37SDSEDIN9ORHL92Y0GV7TIFJ2X187","","null","<img src=""img/land5.png"" style=""width:200px; border:14px solid green;"">","null","","","","","","","","","",""
"","image-keyboard-response","355","238333","0.0-355.0","3R6P78PK7LX954PNAJHVUVEW7LEGTB","AF0M3066S5UF1","37SDSEDIN9ORHL92Y0GV7TIFJ2X187","","326.40000009536743","img/land5.png","75","327","2","1","1","2","0.8,0.2,0.2,0.2,0.8,0.2,0.2,0.2,0.8","0.2,0.8,0.2,0.2,0.2,0.8,0.8,0.2,0.2","3","",""
"","html-keyboard-response","356","238634","0.0-356.0","3R6P78PK7LX954PNAJHVUVEW7LEGTB","AF0M3066S5UF1","37SDSEDIN9ORHL92Y0GV7TIFJ2X187","","null","<img src=""img/land5.png"" style=""width:200px; border:14px solid green;"">","null","","","","","","","","","",""
