"success","trial_type","trial_index","time_elapsed","internal_node_id","assignmentID","mturkID","hitID","view_history","rt","stimulus","key_press","reactionTime","a","r","s","cond","reward_cond","reward_cond_actual","reward_matrix_idx","responses","question_order"
"true","fullscreen","0","2621","0.0-0.0","37C0GNLMHGP0RM4KCG8UD0JLAEY6DD","AFK9ALQK5GPNG","3HUR21WDDUBEMSLDIXZW1FAIHVWXYO","","","","","","","","","","","","","",""
"","instructions","1","12129","0.0-1.0","37C0GNLMHGP0RM4KCG8UD0JLAEY6DD","AFK9ALQK5GPNG","3HUR21WDDUBEMSLDIXZW1FAIHVWXYO","[{""page_index"":0,""viewing_time"":2668},{""page_index"":1,""viewing_time"":1012},{""page_index"":2,""viewing_time"":1212},{""page_index"":3,""viewing_time"":1274},{""page_index"":4,""viewing_time"":1063},{""page_index"":5,""viewing_time"":997},{""page_index"":6,""viewing_time"":1281}]","9508","","","","","","","","","","","",""
"","image-keyboard-response","2","13310","0.0-2.0","37C0GNLMHGP0RM4KCG8UD0JLAEY6DD","AFK9ALQK5GPNG","3HUR21WDDUBEMSLDIXZW1FAIHVWXYO","","1178","img/land4.png","74","1179","1","0","1","1","0.8,0.2,0.2,0.2,0.8,0.2,0.2,0.2,0.8","0.8,0.2,0.2,0.2,0.8,0.2,0.2,0.2,0.8","1","",""
"","html-keyboard-response","3","13615","0.0-3.0","37C0GNLMHGP0RM4KCG8UD0JLAEY6DD","AFK9ALQK5GPNG","3HUR21WDDUBEMSLDIXZW1FAIHVWXYO","","null","<img src=""img/land4.png"" style=""width:200px;border:14px solid red;"">","null","","","","","","","","","",""
"","image-keyboard-response","4","13937","0.0-4.0","37C0GNLMHGP0RM4KCG8UD0JLAEY6DD","AFK9ALQK5GPNG","3HUR21WDDUBEMSLDIXZW1FAIHVWXYO","","321","img/land3.png","75","321","2","1","2","1","0.8,0.2,0.2,0.2,0.8,0.2,0.2,0.2,0.8","0.8,0.2,0.2,0.2,0.8,0.2,0.2,0.2,0.8","1","",""
"","html-keyboard-response","5","14251","0.0-5.0","37C0GNLMHGP0RM4KCG8UD0JLAEY6DD","AFK9ALQK5GPNG","3HUR21WDDUBEMSLDIXZW1FAIHVWXYO","","null","<img src=""img/land3.png"" style=""width:200px; border:14px solid green;"">","null","","","","","","","","","",""
"","image-keyboard-response","6","14722","0.0-6.0","37C0GNLMHGP0RM4KCG8UD0JLAEY6DD","AFK9ALQK5GPNG","3HUR21WDDUBEMSLDIXZW1FAIHVWXYO","","471","img/land4.png","74","471","1","1","1","1","0.8,0.2,0.2,0.2,0.8,0.2,0.2,0.2,0.8","0.8,0.2,0.2,0.2,0.8,0.2,0.2,0.2,0.8","1","",""
"","html-keyboard-response","7","15026","0.0-7.0","37C0GNLMHGP0RM4KCG8UD0JLAEY6DD","AFK9ALQK5GPNG","3HUR21WDDUBEMSLDIXZW1FAIHVWXYO","","null","<img src=""img/land4.png"" style=""width:200px; border:14px solid green;"">","null","","","","","","","","","",""
"","image-keyboard-response","8","15428","0.0-8.0","37C0GNLMHGP0RM4KCG8UD0JLAEY6DD","AFK9ALQK5GPNG","3HUR21WDDUBEMSLDIXZW1FAIHVWXYO","","402","img/land4.png","74","404","1","1","1","1","0.8,0.2,0.2,0.2,0.8,0.2,0.2,0.2,0.8","0.8,0.2,0.2,0.2,0.8,0.2,0.2,0.2,0.8","1","",""
"","html-keyboard-response","9","15739","0.0-9.0","37C0GNLMHGP0RM4KCG8UD0JLAEY6DD","AFK9ALQK5GPNG","3HUR21WDDUBEMSLDIXZW1FAIHVWXYO","","null","<img src=""img/land4.png"" style=""width:200px; border:14px solid green;"">","null","","","","","","","","","",""
"","image-keyboard-response","10","16336","0.0-10.0","37C0GNLMHGP0RM4KCG8UD0JLAEY6DD","AFK9ALQK5GPNG","3HUR21WDDUBEMSLDIXZW1FAIHVWXYO","","597","img/land6.png","76","598","3","1","3","1","0.8,0.2,0.2,0.2,0.8,0.2,0.2,0.2,0.8","0.8,0.2,0.2,0.2,0.8,0.2,0.2,0.2,0.8","1","",""
"","html-keyboard-response","11","16642","0.0-11.0","37C0GNLMHGP0RM4KCG8UD0JLAEY6DD","AFK9ALQK5GPNG","3HUR21WDDUBEMSLDIXZW1FAIHVWXYO","","null","<img src=""img/land6.png"" style=""width:200px; border:14px solid green;"">","null","","","","","","","","","",""
"","image-keyboard-response","12","16998","0.0-12.0","37C0GNLMHGP0RM4KCG8UD0JLAEY6DD","AFK9ALQK5GPNG","3HUR21WDDUBEMSLDIXZW1FAIHVWXYO","","354","img/land6.png","76","356","3","1","3","1","0.8,0.2,0.2,0.2,0.8,0.2,0.2,0.2,0.8","0.8,0.2,0.2,0.2,0.8,0.2,0.2,0.2,0.8","1","",""
"","html-keyboard-response","13","17309","0.0-13.0","37C0GNLMHGP0RM4KCG8UD0JLAEY6DD","AFK9ALQK5GPNG","3HUR21WDDUBEMSLDIXZW1FAIHVWXYO","","null","<img src=""img/land6.png"" style=""width:200px; border:14px solid green;"">","null","","","","","","","","","",""
"","image-keyboard-response","14","17839","0.0-14.0","37C0GNLMHGP0RM4KCG8UD0JLAEY6DD","AFK9ALQK5GPNG","3HUR21WDDUBEMSLDIXZW1FAIHVWXYO","","529","img/land3.png","75","530","2","1","2","1","0.8,0.2,0.2,0.2,0.8,0.2,0.2,0.2,0.8","0.8,0.2,0.2,0.2,0.8,0.2,0.2,0.2,0.8","1","",""
"","html-keyboard-response","15","18142","0.0-15.0","37C0GNLMHGP0RM4KCG8UD0JLAEY6DD","AFK9ALQK5GPNG","3HUR21WDDUBEMSLDIXZW1FAIHVWXYO","","null","<img src=""img/land3.png"" style=""width:200px; border:14px solid green;"">","null","","","","","","","","","",""
"","image-keyboard-response","16","18525","0.0-16.0","37C0GNLMHGP0RM4KCG8UD0JLAEY6DD","AFK9ALQK5GPNG","3HUR21WDDUBEMSLDIXZW1FAIHVWXYO","","382","img/land3.png","75","382","2","1","2","1","0.8,0.2,0.2,0.2,0.8,0.2,0.2,0.2,0.8","0.8,0.2,0.2,0.2,0.8,0.2,0.2,0.2,0.8","1","",""
"","html-keyboard-response","17","18829","0.0-17.0","37C0GNLMHGP0RM4KCG8UD0JLAEY6DD","AFK9ALQK5GPNG","3HUR21WDDUBEMSLDIXZW1FAIHVWXYO","","null","<img src=""img/land3.png"" style=""width:200px; border:14px solid green;"">","null","","","","","","","","","",""
"","image-keyboard-response","18","19453","0.0-18.0","37C0GNLMHGP0RM4KCG8UD0JLAEY6DD","AFK9ALQK5GPNG","3HUR21WDDUBEMSLDIXZW1FAIHVWXYO","","622","img/land4.png","74","623","1","0","1","1","0.8,0.2,0.2,0.2,0.8,0.2,0.2,0.2,0.8","0.8,0.2,0.2,0.2,0.8,0.2,0.2,0.2,0.8","1","",""
"","html-keyboard-response","19","19763","0.0-19.0","37C0GNLMHGP0RM4KCG8UD0JLAEY6DD","AFK9ALQK5GPNG","3HUR21WDDUBEMSLDIXZW1FAIHVWXYO","","null","<img src=""img/land4.png"" style=""width:200px;border:14px solid red;"">","null","","","","","","","","","",""
"","image-keyboard-response","20","20250","0.0-20.0","37C0GNLMHGP0RM4KCG8UD0JLAEY6DD","AFK9ALQK5GPNG","3HUR21WDDUBEMSLDIXZW1FAIHVWXYO","","486","img/land4.png","75","487","2","0","1","1","0.8,0.2,0.2,0.2,0.8,0.2,0.2,0.2,0.8","0.8,0.2,0.2,0.2,0.8,0.2,0.2,0.2,0.8","1","",""
"","html-keyboard-response","21","20558","0.0-21.0","37C0GNLMHGP0RM4KCG8UD0JLAEY6DD","AFK9ALQK5GPNG","3HUR21WDDUBEMSLDIXZW1FAIHVWXYO","","null","<img src=""img/land4.png"" style=""width:200px;border:14px solid red;"">","null","","","","","","","","","",""
"","image-keyboard-response","22","21175","0.0-22.0","37C0GNLMHGP0RM4KCG8UD0JLAEY6DD","AFK9ALQK5GPNG","3HUR21WDDUBEMSLDIXZW1FAIHVWXYO","","616","img/land6.png","76","617","3","1","3","1","0.8,0.2,0.2,0.2,0.8,0.2,0.2,0.2,0.8","0.8,0.2,0.2,0.2,0.8,0.2,0.2,0.2,0.8","1","",""
"","html-keyboard-response","23","21492","0.0-23.0","37C0GNLMHGP0RM4KCG8UD0JLAEY6DD","AFK9ALQK5GPNG","3HUR21WDDUBEMSLDIXZW1FAIHVWXYO","","null","<img src=""img/land6.png"" style=""width:200px; border:14px solid green;"">","null","","","","","","","","","",""
"","image-keyboard-response","24","21865","0.0-24.0","37C0GNLMHGP0RM4KCG8UD0JLAEY6DD","AFK9ALQK5GPNG","3HUR21WDDUBEMSLDIXZW1FAIHVWXYO","","373","img/land6.png","76","374","3","1","3","1","0.8,0.2,0.2,0.2,0.8,0.2,0.2,0.2,0.8","0.8,0.2,0.2,0.2,0.8,0.2,0.2,0.2,0.8","1","",""
"","html-keyboard-response","25","22181","0.0-25.0","37C0GNLMHGP0RM4KCG8UD0JLAEY6DD","AFK9ALQK5GPNG","3HUR21WDDUBEMSLDIXZW1FAIHVWXYO","","null","<img src=""img/land6.png"" style=""width:200px; border:14px solid green;"">","null","","","","","","","","","",""
"","image-keyboard-response","26","22707","0.0-26.0","37C0GNLMHGP0RM4KCG8UD0JLAEY6DD","AFK9ALQK5GPNG","3HUR21WDDUBEMSLDIXZW1FAIHVWXYO","","526","img/land4.png","76","526","3","0","1","1","0.8,0.2,0.2,0.2,0.8,0.2,0.2,0.2,0.8","0.8,0.2,0.2,0.2,0.8,0.2,0.2,0.2,0.8","1","",""
"","html-keyboard-response","27","23014","0.0-27.0","37C0GNLMHGP0RM4KCG8UD0JLAEY6DD","AFK9ALQK5GPNG","3HUR21WDDUBEMSLDIXZW1FAIHVWXYO","","null","<img src=""img/land4.png"" style=""width:200px;border:14px solid red;"">","null","","","","","","","","","",""
"","image-keyboard-response","28","23564","0.0-28.0","37C0GNLMHGP0RM4KCG8UD0JLAEY6DD","AFK9ALQK5GPNG","3HUR21WDDUBEMSLDIXZW1FAIHVWXYO","","549","img/land6.png","76","551","3","1","3","1","0.8,0.2,0.2,0.2,0.8,0.2,0.2,0.2,0.8","0.8,0.2,0.2,0.2,0.8,0.2,0.2,0.2,0.8","1","",""
"","html-keyboard-response","29","23868","0.0-29.0","37C0GNLMHGP0RM4KCG8UD0JLAEY6DD","AFK9ALQK5GPNG","3HUR21WDDUBEMSLDIXZW1FAIHVWXYO","","null","<img src=""img/land6.png"" style=""width:200px; border:14px solid green;"">","null","","","","","","","","","",""
"","image-keyboard-response","30","24315","0.0-30.0","37C0GNLMHGP0RM4KCG8UD0JLAEY6DD","AFK9ALQK5GPNG","3HUR21WDDUBEMSLDIXZW1FAIHVWXYO","","447","img/land6.png","76","447","3","1","3","1","0.8,0.2,0.2,0.2,0.8,0.2,0.2,0.2,0.8","0.8,0.2,0.2,0.2,0.8,0.2,0.2,0.2,0.8","1","",""
"","html-keyboard-response","31","24626","0.0-31.0","37C0GNLMHGP0RM4KCG8UD0JLAEY6DD","AFK9ALQK5GPNG","3HUR21WDDUBEMSLDIXZW1FAIHVWXYO","","null","<img src=""img/land6.png"" style=""width:200px; border:14px solid green;"">","null","","","","","","","","","",""
"","image-keyboard-response","32","25170","0.0-32.0","37C0GNLMHGP0RM4KCG8UD0JLAEY6DD","AFK9ALQK5GPNG","3HUR21WDDUBEMSLDIXZW1FAIHVWXYO","","544","img/land3.png","75","545","2","1","2","1","0.8,0.2,0.2,0.2,0.8,0.2,0.2,0.2,0.8","0.8,0.2,0.2,0.2,0.8,0.2,0.2,0.2,0.8","1","",""
"","html-keyboard-response","33","25478","0.0-33.0","37C0GNLMHGP0RM4KCG8UD0JLAEY6DD","AFK9ALQK5GPNG","3HUR21WDDUBEMSLDIXZW1FAIHVWXYO","","null","<img src=""img/land3.png"" style=""width:200px; border:14px solid green;"">","null","","","","","","","","","",""
"","image-keyboard-response","34","26209","0.0-34.0","37C0GNLMHGP0RM4KCG8UD0JLAEY6DD","AFK9ALQK5GPNG","3HUR21WDDUBEMSLDIXZW1FAIHVWXYO","","729","img/land6.png","76","729","3","1","3","1","0.8,0.2,0.2,0.2,0.8,0.2,0.2,0.2,0.8","0.8,0.2,0.2,0.2,0.8,0.2,0.2,0.2,0.8","1","",""
"","html-keyboard-response","35","26517","0.0-35.0","37C0GNLMHGP0RM4KCG8UD0JLAEY6DD","AFK9ALQK5GPNG","3HUR21WDDUBEMSLDIXZW1FAIHVWXYO","","null","<img src=""img/land6.png"" style=""width:200px; border:14px solid green;"">","null","","","","","","","","","",""
"","image-keyboard-response","36","27150","0.0-36.0","37C0GNLMHGP0RM4KCG8UD0JLAEY6DD","AFK9ALQK5GPNG","3HUR21WDDUBEMSLDIXZW1FAIHVWXYO","","632","img/land4.png","75","633","2","1","1","1","0.8,0.2,0.2,0.2,0.8,0.2,0.2,0.2,0.8","0.8,0.2,0.2,0.2,0.8,0.2,0.2,0.2,0.8","1","",""
"","html-keyboard-response","37","27465","0.0-37.0","37C0GNLMHGP0RM4KCG8UD0JLAEY6DD","AFK9ALQK5GPNG","3HUR21WDDUBEMSLDIXZW1FAIHVWXYO","","null","<img src=""img/land4.png"" style=""width:200px; border:14px solid green;"">","null","","","","","","","","","",""
"","image-keyboard-response","38","27974","0.0-38.0","37C0GNLMHGP0RM4KCG8UD0JLAEY6DD","AFK9ALQK5GPNG","3HUR21WDDUBEMSLDIXZW1FAIHVWXYO","","509","img/land4.png","75","509","2","0","1","1","0.8,0.2,0.2,0.2,0.8,0.2,0.2,0.2,0.8","0.8,0.2,0.2,0.2,0.8,0.2,0.2,0.2,0.8","1","",""
"","html-keyboard-response","39","28284","0.0-39.0","37C0GNLMHGP0RM4KCG8UD0JLAEY6DD","AFK9ALQK5GPNG","3HUR21WDDUBEMSLDIXZW1FAIHVWXYO","","null","<img src=""img/land4.png"" style=""width:200px;border:14px solid red;"">","null","","","","","","","","","",""
"","image-keyboard-response","40","28822","0.0-40.0","37C0GNLMHGP0RM4KCG8UD0JLAEY6DD","AFK9ALQK5GPNG","3HUR21WDDUBEMSLDIXZW1FAIHVWXYO","","537","img/land6.png","76","539","3","0","3","1","0.8,0.2,0.2,0.2,0.8,0.2,0.2,0.2,0.8","0.8,0.2,0.2,0.2,0.8,0.2,0.2,0.2,0.8","1","",""
"","html-keyboard-response","41","29135","0.0-41.0","37C0GNLMHGP0RM4KCG8UD0JLAEY6DD","AFK9ALQK5GPNG","3HUR21WDDUBEMSLDIXZW1FAIHVWXYO","","null","<img src=""img/land6.png"" style=""width:200px;border:14px solid red;"">","null","","","","","","","","","",""
"","image-keyboard-response","42","29773","0.0-42.0","37C0GNLMHGP0RM4KCG8UD0JLAEY6DD","AFK9ALQK5GPNG","3HUR21WDDUBEMSLDIXZW1FAIHVWXYO","","637","img/land3.png","75","637","2","1","2","1","0.8,0.2,0.2,0.2,0.8,0.2,0.2,0.2,0.8","0.8,0.2,0.2,0.2,0.8,0.2,0.2,0.2,0.8","1","",""
"","html-keyboard-response","43","30090","0.0-43.0","37C0GNLMHGP0RM4KCG8UD0JLAEY6DD","AFK9ALQK5GPNG","3HUR21WDDUBEMSLDIXZW1FAIHVWXYO","","null","<img src=""img/land3.png"" style=""width:200px; border:14px solid green;"">","null","","","","","","","","","",""
"","image-keyboard-response","44","30917","0.0-44.0","37C0GNLMHGP0RM4KCG8UD0JLAEY6DD","AFK9ALQK5GPNG","3HUR21WDDUBEMSLDIXZW1FAIHVWXYO","","827","img/land6.png","76","828","3","1","3","1","0.8,0.2,0.2,0.2,0.8,0.2,0.2,0.2,0.8","0.8,0.2,0.2,0.2,0.8,0.2,0.2,0.2,0.8","1","",""
"","html-keyboard-response","45","31227","0.0-45.0","37C0GNLMHGP0RM4KCG8UD0JLAEY6DD","AFK9ALQK5GPNG","3HUR21WDDUBEMSLDIXZW1FAIHVWXYO","","null","<img src=""img/land6.png"" style=""width:200px; border:14px solid green;"">","null","","","","","","","","","",""
"","image-keyboard-response","46","31759","0.0-46.0","37C0GNLMHGP0RM4KCG8UD0JLAEY6DD","AFK9ALQK5GPNG","3HUR21WDDUBEMSLDIXZW1FAIHVWXYO","","531","img/land4.png","75","531","2","0","1","1","0.8,0.2,0.2,0.2,0.8,0.2,0.2,0.2,0.8","0.8,0.2,0.2,0.2,0.8,0.2,0.2,0.2,0.8","1","",""
"","html-keyboard-response","47","32073","0.0-47.0","37C0GNLMHGP0RM4KCG8UD0JLAEY6DD","AFK9ALQK5GPNG","3HUR21WDDUBEMSLDIXZW1FAIHVWXYO","","null","<img src=""img/land4.png"" style=""width:200px;border:14px solid red;"">","null","","","","","","","","","",""
"","image-keyboard-response","48","32852","0.0-48.0","37C0GNLMHGP0RM4KCG8UD0JLAEY6DD","AFK9ALQK5GPNG","3HUR21WDDUBEMSLDIXZW1FAIHVWXYO","","777","img/land3.png","75","777","2","0","2","1","0.8,0.2,0.2,0.2,0.8,0.2,0.2,0.2,0.8","0.8,0.2,0.2,0.2,0.8,0.2,0.2,0.2,0.8","1","",""
"","html-keyboard-response","49","33154","0.0-49.0","37C0GNLMHGP0RM4KCG8UD0JLAEY6DD","AFK9ALQK5GPNG","3HUR21WDDUBEMSLDIXZW1FAIHVWXYO","","null","<img src=""img/land3.png"" style=""width:200px;border:14px solid red;"">","null","","","","","","","","","",""
"","image-keyboard-response","50","33790","0.0-50.0","37C0GNLMHGP0RM4KCG8UD0JLAEY6DD","AFK9ALQK5GPNG","3HUR21WDDUBEMSLDIXZW1FAIHVWXYO","","636","img/land4.png","76","636","3","0","1","1","0.8,0.2,0.2,0.2,0.8,0.2,0.2,0.2,0.8","0.8,0.2,0.2,0.2,0.8,0.2,0.2,0.2,0.8","1","",""
"","html-keyboard-response","51","34103","0.0-51.0","37C0GNLMHGP0RM4KCG8UD0JLAEY6DD","AFK9ALQK5GPNG","3HUR21WDDUBEMSLDIXZW1FAIHVWXYO","","null","<img src=""img/land4.png"" style=""width:200px;border:14px solid red;"">","null","","","","","","","","","",""
"","image-keyboard-response","52","35400","0.0-52.0","37C0GNLMHGP0RM4KCG8UD0JLAEY6DD","AFK9ALQK5GPNG","3HUR21WDDUBEMSLDIXZW1FAIHVWXYO","","1296","img/land4.png","75","1296","2","1","1","1","0.8,0.2,0.2,0.2,0.8,0.2,0.2,0.2,0.8","0.8,0.2,0.2,0.2,0.8,0.2,0.2,0.2,0.8","1","",""
"","html-keyboard-response","53","35705","0.0-53.0","37C0GNLMHGP0RM4KCG8UD0JLAEY6DD","AFK9ALQK5GPNG","3HUR21WDDUBEMSLDIXZW1FAIHVWXYO","","null","<img src=""img/land4.png"" style=""width:200px; border:14px solid green;"">","null","","","","","","","","","",""
"","image-keyboard-response","54","36098","0.0-54.0","37C0GNLMHGP0RM4KCG8UD0JLAEY6DD","AFK9ALQK5GPNG","3HUR21WDDUBEMSLDIXZW1FAIHVWXYO","","392","img/land4.png","75","392","2","0","1","1","0.8,0.2,0.2,0.2,0.8,0.2,0.2,0.2,0.8","0.8,0.2,0.2,0.2,0.8,0.2,0.2,0.2,0.8","1","",""
"","html-keyboard-response","55","36410","0.0-55.0","37C0GNLMHGP0RM4KCG8UD0JLAEY6DD","AFK9ALQK5GPNG","3HUR21WDDUBEMSLDIXZW1FAIHVWXYO","","null","<img src=""img/land4.png"" style=""width:200px;border:14px solid red;"">","null","","","","","","","","","",""
"","image-keyboard-response","56","37261","0.0-56.0","37C0GNLMHGP0RM4KCG8UD0JLAEY6DD","AFK9ALQK5GPNG","3HUR21WDDUBEMSLDIXZW1FAIHVWXYO","","849","img/land6.png","74","850","1","0","3","1","0.8,0.2,0.2,0.2,0.8,0.2,0.2,0.2,0.8","0.8,0.2,0.2,0.2,0.8,0.2,0.2,0.2,0.8","1","",""
"","html-keyboard-response","57","37573","0.0-57.0","37C0GNLMHGP0RM4KCG8UD0JLAEY6DD","AFK9ALQK5GPNG","3HUR21WDDUBEMSLDIXZW1FAIHVWXYO","","null","<img src=""img/land6.png"" style=""width:200px;border:14px solid red;"">","null","","","","","","","","","",""
"","image-keyboard-response","58","38523","0.0-58.0","37C0GNLMHGP0RM4KCG8UD0JLAEY6DD","AFK9ALQK5GPNG","3HUR21WDDUBEMSLDIXZW1FAIHVWXYO","","949","img/land3.png","76","949","3","0","2","1","0.8,0.2,0.2,0.2,0.8,0.2,0.2,0.2,0.8","0.8,0.2,0.2,0.2,0.8,0.2,0.2,0.2,0.8","1","",""
"","html-keyboard-response","59","38839","0.0-59.0","37C0GNLMHGP0RM4KCG8UD0JLAEY6DD","AFK9ALQK5GPNG","3HUR21WDDUBEMSLDIXZW1FAIHVWXYO","","null","<img src=""img/land3.png"" style=""width:200px;border:14px solid red;"">","null","","","","","","","","","",""
"","image-keyboard-response","60","39292","0.0-60.0","37C0GNLMHGP0RM4KCG8UD0JLAEY6DD","AFK9ALQK5GPNG","3HUR21WDDUBEMSLDIXZW1FAIHVWXYO","","453","img/land3.png","74","454","1","0","2","1","0.8,0.2,0.2,0.2,0.8,0.2,0.2,0.2,0.8","0.8,0.2,0.2,0.2,0.8,0.2,0.2,0.2,0.8","1","",""
"","html-keyboard-response","61","39604","0.0-61.0","37C0GNLMHGP0RM4KCG8UD0JLAEY6DD","AFK9ALQK5GPNG","3HUR21WDDUBEMSLDIXZW1FAIHVWXYO","","null","<img src=""img/land3.png"" style=""width:200px;border:14px solid red;"">","null","","","","","","","","","",""
"","image-keyboard-response","62","40324","0.0-62.0","37C0GNLMHGP0RM4KCG8UD0JLAEY6DD","AFK9ALQK5GPNG","3HUR21WDDUBEMSLDIXZW1FAIHVWXYO","","719","img/land4.png","75","721","2","0","1","1","0.8,0.2,0.2,0.2,0.8,0.2,0.2,0.2,0.8","0.8,0.2,0.2,0.2,0.8,0.2,0.2,0.2,0.8","1","",""
"","html-keyboard-response","63","40637","0.0-63.0","37C0GNLMHGP0RM4KCG8UD0JLAEY6DD","AFK9ALQK5GPNG","3HUR21WDDUBEMSLDIXZW1FAIHVWXYO","","null","<img src=""img/land4.png"" style=""width:200px;border:14px solid red;"">","null","","","","","","","","","",""
"","image-keyboard-response","64","41014","0.0-64.0","37C0GNLMHGP0RM4KCG8UD0JLAEY6DD","AFK9ALQK5GPNG","3HUR21WDDUBEMSLDIXZW1FAIHVWXYO","","377","img/land4.png","76","377","3","1","1","1","0.8,0.2,0.2,0.2,0.8,0.2,0.2,0.2,0.8","0.8,0.2,0.2,0.2,0.8,0.2,0.2,0.2,0.8","1","",""
"","html-keyboard-response","65","41330","0.0-65.0","37C0GNLMHGP0RM4KCG8UD0JLAEY6DD","AFK9ALQK5GPNG","3HUR21WDDUBEMSLDIXZW1FAIHVWXYO","","null","<img src=""img/land4.png"" style=""width:200px; border:14px solid green;"">","null","","","","","","","","","",""
"","image-keyboard-response","66","42293","0.0-66.0","37C0GNLMHGP0RM4KCG8UD0JLAEY6DD","AFK9ALQK5GPNG","3HUR21WDDUBEMSLDIXZW1FAIHVWXYO","","961","img/land6.png","76","963","3","0","3","1","0.8,0.2,0.2,0.2,0.8,0.2,0.2,0.2,0.8","0.8,0.2,0.2,0.2,0.8,0.2,0.2,0.2,0.8","1","",""
"","html-keyboard-response","67","42602","0.0-67.0","37C0GNLMHGP0RM4KCG8UD0JLAEY6DD","AFK9ALQK5GPNG","3HUR21WDDUBEMSLDIXZW1FAIHVWXYO","","null","<img src=""img/land6.png"" style=""width:200px;border:14px solid red;"">","null","","","","","","","","","",""
"","image-keyboard-response","68","43231","0.0-68.0","37C0GNLMHGP0RM4KCG8UD0JLAEY6DD","AFK9ALQK5GPNG","3HUR21WDDUBEMSLDIXZW1FAIHVWXYO","","628","img/land6.png","76","629","3","1","3","1","0.8,0.2,0.2,0.2,0.8,0.2,0.2,0.2,0.8","0.8,0.2,0.2,0.2,0.8,0.2,0.2,0.2,0.8","1","",""
"","html-keyboard-response","69","43544","0.0-69.0","37C0GNLMHGP0RM4KCG8UD0JLAEY6DD","AFK9ALQK5GPNG","3HUR21WDDUBEMSLDIXZW1FAIHVWXYO","","null","<img src=""img/land6.png"" style=""width:200px; border:14px solid green;"">","null","","","","","","","","","",""
"","image-keyboard-response","70","44010","0.0-70.0","37C0GNLMHGP0RM4KCG8UD0JLAEY6DD","AFK9ALQK5GPNG","3HUR21WDDUBEMSLDIXZW1FAIHVWXYO","","466","img/land6.png","76","467","3","1","3","1","0.8,0.2,0.2,0.2,0.8,0.2,0.2,0.2,0.8","0.8,0.2,0.2,0.2,0.8,0.2,0.2,0.2,0.8","1","",""
"","html-keyboard-response","71","44321","0.0-71.0","37C0GNLMHGP0RM4KCG8UD0JLAEY6DD","AFK9ALQK5GPNG","3HUR21WDDUBEMSLDIXZW1FAIHVWXYO","","null","<img src=""img/land6.png"" style=""width:200px; border:14px solid green;"">","null","","","","","","","","","",""
"","image-keyboard-response","72","44776","0.0-72.0","37C0GNLMHGP0RM4KCG8UD0JLAEY6DD","AFK9ALQK5GPNG","3HUR21WDDUBEMSLDIXZW1FAIHVWXYO","","454","img/land3.png","75","455","2","1","2","1","0.8,0.2,0.2,0.2,0.8,0.2,0.2,0.2,0.8","0.8,0.2,0.2,0.2,0.8,0.2,0.2,0.2,0.8","1","",""
"","html-keyboard-response","73","45091","0.0-73.0","37C0GNLMHGP0RM4KCG8UD0JLAEY6DD","AFK9ALQK5GPNG","3HUR21WDDUBEMSLDIXZW1FAIHVWXYO","","null","<img src=""img/land3.png"" style=""width:200px; border:14px solid green;"">","null","","","","","","","","","",""
"","image-keyboard-response","74","45505","0.0-74.0","37C0GNLMHGP0RM4KCG8UD0JLAEY6DD","AFK9ALQK5GPNG","3HUR21WDDUBEMSLDIXZW1FAIHVWXYO","","414","img/land3.png","75","414","2","1","2","1","0.8,0.2,0.2,0.2,0.8,0.2,0.2,0.2,0.8","0.8,0.2,0.2,0.2,0.8,0.2,0.2,0.2,0.8","1","",""
"","html-keyboard-response","75","45821","0.0-75.0","37C0GNLMHGP0RM4KCG8UD0JLAEY6DD","AFK9ALQK5GPNG","3HUR21WDDUBEMSLDIXZW1FAIHVWXYO","","null","<img src=""img/land3.png"" style=""width:200px; border:14px solid green;"">","null","","","","","","","","","",""
"","image-keyboard-response","76","46460","0.0-76.0","37C0GNLMHGP0RM4KCG8UD0JLAEY6DD","AFK9ALQK5GPNG","3HUR21WDDUBEMSLDIXZW1FAIHVWXYO","","637","img/land3.png","75","639","2","1","2","1","0.8,0.2,0.2,0.2,0.8,0.2,0.2,0.2,0.8","0.8,0.2,0.2,0.2,0.8,0.2,0.2,0.2,0.8","1","",""
"","html-keyboard-response","77","46764","0.0-77.0","37C0GNLMHGP0RM4KCG8UD0JLAEY6DD","AFK9ALQK5GPNG","3HUR21WDDUBEMSLDIXZW1FAIHVWXYO","","null","<img src=""img/land3.png"" style=""width:200px; border:14px solid green;"">","null","","","","","","","","","",""
"","image-keyboard-response","78","47316","0.0-78.0","37C0GNLMHGP0RM4KCG8UD0JLAEY6DD","AFK9ALQK5GPNG","3HUR21WDDUBEMSLDIXZW1FAIHVWXYO","","552","img/land6.png","76","552","3","1","3","1","0.8,0.2,0.2,0.2,0.8,0.2,0.2,0.2,0.8","0.8,0.2,0.2,0.2,0.8,0.2,0.2,0.2,0.8","1","",""
"","html-keyboard-response","79","47628","0.0-79.0","37C0GNLMHGP0RM4KCG8UD0JLAEY6DD","AFK9ALQK5GPNG","3HUR21WDDUBEMSLDIXZW1FAIHVWXYO","","null","<img src=""img/land6.png"" style=""width:200px; border:14px solid green;"">","null","","","","","","","","","",""
"","image-keyboard-response","80","48115","0.0-80.0","37C0GNLMHGP0RM4KCG8UD0JLAEY6DD","AFK9ALQK5GPNG","3HUR21WDDUBEMSLDIXZW1FAIHVWXYO","","486","img/land3.png","75","487","2","1","2","1","0.8,0.2,0.2,0.2,0.8,0.2,0.2,0.2,0.8","0.8,0.2,0.2,0.2,0.8,0.2,0.2,0.2,0.8","1","",""
"","html-keyboard-response","81","48429","0.0-81.0","37C0GNLMHGP0RM4KCG8UD0JLAEY6DD","AFK9ALQK5GPNG","3HUR21WDDUBEMSLDIXZW1FAIHVWXYO","","null","<img src=""img/land3.png"" style=""width:200px; border:14px solid green;"">","null","","","","","","","","","",""
"","image-keyboard-response","82","48892","0.0-82.0","37C0GNLMHGP0RM4KCG8UD0JLAEY6DD","AFK9ALQK5GPNG","3HUR21WDDUBEMSLDIXZW1FAIHVWXYO","","464","img/land6.png","76","464","3","1","3","1","0.8,0.2,0.2,0.2,0.8,0.2,0.2,0.2,0.8","0.8,0.2,0.2,0.2,0.8,0.2,0.2,0.2,0.8","1","",""
"","html-keyboard-response","83","49202","0.0-83.0","37C0GNLMHGP0RM4KCG8UD0JLAEY6DD","AFK9ALQK5GPNG","3HUR21WDDUBEMSLDIXZW1FAIHVWXYO","","null","<img src=""img/land6.png"" style=""width:200px; border:14px solid green;"">","null","","","","","","","","","",""
"","image-keyboard-response","84","49580","0.0-84.0","37C0GNLMHGP0RM4KCG8UD0JLAEY6DD","AFK9ALQK5GPNG","3HUR21WDDUBEMSLDIXZW1FAIHVWXYO","","377","img/land3.png","75","377","2","1","2","1","0.8,0.2,0.2,0.2,0.8,0.2,0.2,0.2,0.8","0.8,0.2,0.2,0.2,0.8,0.2,0.2,0.2,0.8","1","",""
"","html-keyboard-response","85","49887","0.0-85.0","37C0GNLMHGP0RM4KCG8UD0JLAEY6DD","AFK9ALQK5GPNG","3HUR21WDDUBEMSLDIXZW1FAIHVWXYO","","null","<img src=""img/land3.png"" style=""width:200px; border:14px solid green;"">","null","","","","","","","","","",""
"","image-keyboard-response","86","50737","0.0-86.0","37C0GNLMHGP0RM4KCG8UD0JLAEY6DD","AFK9ALQK5GPNG","3HUR21WDDUBEMSLDIXZW1FAIHVWXYO","","849","img/land4.png","75","850","2","0","1","1","0.8,0.2,0.2,0.2,0.8,0.2,0.2,0.2,0.8","0.8,0.2,0.2,0.2,0.8,0.2,0.2,0.2,0.8","1","",""
"","html-keyboard-response","87","51046","0.0-87.0","37C0GNLMHGP0RM4KCG8UD0JLAEY6DD","AFK9ALQK5GPNG","3HUR21WDDUBEMSLDIXZW1FAIHVWXYO","","null","<img src=""img/land4.png"" style=""width:200px;border:14px solid red;"">","null","","","","","","","","","",""
"","image-keyboard-response","88","51724","0.0-88.0","37C0GNLMHGP0RM4KCG8UD0JLAEY6DD","AFK9ALQK5GPNG","3HUR21WDDUBEMSLDIXZW1FAIHVWXYO","","678","img/land3.png","75","679","2","1","2","1","0.8,0.2,0.2,0.2,0.8,0.2,0.2,0.2,0.8","0.8,0.2,0.2,0.2,0.8,0.2,0.2,0.2,0.8","1","",""
"","html-keyboard-response","89","52027","0.0-89.0","37C0GNLMHGP0RM4KCG8UD0JLAEY6DD","AFK9ALQK5GPNG","3HUR21WDDUBEMSLDIXZW1FAIHVWXYO","","null","<img src=""img/land3.png"" style=""width:200px; border:14px solid green;"">","null","","","","","","","","","",""
"","image-keyboard-response","90","52497","0.0-90.0","37C0GNLMHGP0RM4KCG8UD0JLAEY6DD","AFK9ALQK5GPNG","3HUR21WDDUBEMSLDIXZW1FAIHVWXYO","","469","img/land6.png","76","470","3","1","3","1","0.8,0.2,0.2,0.2,0.8,0.2,0.2,0.2,0.8","0.8,0.2,0.2,0.2,0.8,0.2,0.2,0.2,0.8","1","",""
"","html-keyboard-response","91","52813","0.0-91.0","37C0GNLMHGP0RM4KCG8UD0JLAEY6DD","AFK9ALQK5GPNG","3HUR21WDDUBEMSLDIXZW1FAIHVWXYO","","null","<img src=""img/land6.png"" style=""width:200px; border:14px solid green;"">","null","","","","","","","","","",""
"","image-keyboard-response","92","53254","0.0-92.0","37C0GNLMHGP0RM4KCG8UD0JLAEY6DD","AFK9ALQK5GPNG","3HUR21WDDUBEMSLDIXZW1FAIHVWXYO","","440","img/land6.png","76","442","3","1","3","1","0.8,0.2,0.2,0.2,0.8,0.2,0.2,0.2,0.8","0.8,0.2,0.2,0.2,0.8,0.2,0.2,0.2,0.8","1","",""
"","html-keyboard-response","93","53563","0.0-93.0","37C0GNLMHGP0RM4KCG8UD0JLAEY6DD","AFK9ALQK5GPNG","3HUR21WDDUBEMSLDIXZW1FAIHVWXYO","","null","<img src=""img/land6.png"" style=""width:200px; border:14px solid green;"">","null","","","","","","","","","",""
"","image-keyboard-response","94","53986","0.0-94.0","37C0GNLMHGP0RM4KCG8UD0JLAEY6DD","AFK9ALQK5GPNG","3HUR21WDDUBEMSLDIXZW1FAIHVWXYO","","423","img/land3.png","75","423","2","1","2","1","0.8,0.2,0.2,0.2,0.8,0.2,0.2,0.2,0.8","0.8,0.2,0.2,0.2,0.8,0.2,0.2,0.2,0.8","1","",""
"","html-keyboard-response","95","54289","0.0-95.0","37C0GNLMHGP0RM4KCG8UD0JLAEY6DD","AFK9ALQK5GPNG","3HUR21WDDUBEMSLDIXZW1FAIHVWXYO","","null","<img src=""img/land3.png"" style=""width:200px; border:14px solid green;"">","null","","","","","","","","","",""
"","image-keyboard-response","96","54691","0.0-96.0","37C0GNLMHGP0RM4KCG8UD0JLAEY6DD","AFK9ALQK5GPNG","3HUR21WDDUBEMSLDIXZW1FAIHVWXYO","","401","img/land3.png","75","402","2","1","2","1","0.8,0.2,0.2,0.2,0.8,0.2,0.2,0.2,0.8","0.8,0.2,0.2,0.2,0.8,0.2,0.2,0.2,0.8","1","",""
"","html-keyboard-response","97","55006","0.0-97.0","37C0GNLMHGP0RM4KCG8UD0JLAEY6DD","AFK9ALQK5GPNG","3HUR21WDDUBEMSLDIXZW1FAIHVWXYO","","null","<img src=""img/land3.png"" style=""width:200px; border:14px solid green;"">","null","","","","","","","","","",""
"","image-keyboard-response","98","55506","0.0-98.0","37C0GNLMHGP0RM4KCG8UD0JLAEY6DD","AFK9ALQK5GPNG","3HUR21WDDUBEMSLDIXZW1FAIHVWXYO","","498","img/land6.png","76","498","3","1","3","1","0.8,0.2,0.2,0.2,0.8,0.2,0.2,0.2,0.8","0.8,0.2,0.2,0.2,0.8,0.2,0.2,0.2,0.8","1","",""
"","html-keyboard-response","99","55814","0.0-99.0","37C0GNLMHGP0RM4KCG8UD0JLAEY6DD","AFK9ALQK5GPNG","3HUR21WDDUBEMSLDIXZW1FAIHVWXYO","","null","<img src=""img/land6.png"" style=""width:200px; border:14px solid green;"">","null","","","","","","","","","",""
"","image-keyboard-response","100","56789","0.0-100.0","37C0GNLMHGP0RM4KCG8UD0JLAEY6DD","AFK9ALQK5GPNG","3HUR21WDDUBEMSLDIXZW1FAIHVWXYO","","976","img/land4.png","74","976","1","1","1","1","0.8,0.2,0.2,0.2,0.8,0.2,0.2,0.2,0.8","0.8,0.2,0.2,0.2,0.8,0.2,0.2,0.2,0.8","1","",""
"","html-keyboard-response","101","57127","0.0-101.0","37C0GNLMHGP0RM4KCG8UD0JLAEY6DD","AFK9ALQK5GPNG","3HUR21WDDUBEMSLDIXZW1FAIHVWXYO","","null","<img src=""img/land4.png"" style=""width:200px; border:14px solid green;"">","null","","","","","","","","","",""
"","image-keyboard-response","102","57561","0.0-102.0","37C0GNLMHGP0RM4KCG8UD0JLAEY6DD","AFK9ALQK5GPNG","3HUR21WDDUBEMSLDIXZW1FAIHVWXYO","","433","img/land4.png","74","433","1","1","1","1","0.8,0.2,0.2,0.2,0.8,0.2,0.2,0.2,0.8","0.8,0.2,0.2,0.2,0.8,0.2,0.2,0.2,0.8","1","",""
"","html-keyboard-response","103","57866","0.0-103.0","37C0GNLMHGP0RM4KCG8UD0JLAEY6DD","AFK9ALQK5GPNG","3HUR21WDDUBEMSLDIXZW1FAIHVWXYO","","null","<img src=""img/land4.png"" style=""width:200px; border:14px solid green;"">","null","","","","","","","","","",""
"","image-keyboard-response","104","58293","0.0-104.0","37C0GNLMHGP0RM4KCG8UD0JLAEY6DD","AFK9ALQK5GPNG","3HUR21WDDUBEMSLDIXZW1FAIHVWXYO","","426","img/land4.png","74","427","1","1","1","1","0.8,0.2,0.2,0.2,0.8,0.2,0.2,0.2,0.8","0.8,0.2,0.2,0.2,0.8,0.2,0.2,0.2,0.8","1","",""
"","html-keyboard-response","105","58602","0.0-105.0","37C0GNLMHGP0RM4KCG8UD0JLAEY6DD","AFK9ALQK5GPNG","3HUR21WDDUBEMSLDIXZW1FAIHVWXYO","","null","<img src=""img/land4.png"" style=""width:200px; border:14px solid green;"">","null","","","","","","","","","",""
"","image-keyboard-response","106","59110","0.0-106.0","37C0GNLMHGP0RM4KCG8UD0JLAEY6DD","AFK9ALQK5GPNG","3HUR21WDDUBEMSLDIXZW1FAIHVWXYO","","507","img/land3.png","75","508","2","1","2","1","0.8,0.2,0.2,0.2,0.8,0.2,0.2,0.2,0.8","0.8,0.2,0.2,0.2,0.8,0.2,0.2,0.2,0.8","1","",""
"","html-keyboard-response","107","59422","0.0-107.0","37C0GNLMHGP0RM4KCG8UD0JLAEY6DD","AFK9ALQK5GPNG","3HUR21WDDUBEMSLDIXZW1FAIHVWXYO","","null","<img src=""img/land3.png"" style=""width:200px; border:14px solid green;"">","null","","","","","","","","","",""
"","image-keyboard-response","108","59922","0.0-108.0","37C0GNLMHGP0RM4KCG8UD0JLAEY6DD","AFK9ALQK5GPNG","3HUR21WDDUBEMSLDIXZW1FAIHVWXYO","","499","img/land4.png","74","499","1","1","1","1","0.8,0.2,0.2,0.2,0.8,0.2,0.2,0.2,0.8","0.8,0.2,0.2,0.2,0.8,0.2,0.2,0.2,0.8","1","",""
"","html-keyboard-response","109","60223","0.0-109.0","37C0GNLMHGP0RM4KCG8UD0JLAEY6DD","AFK9ALQK5GPNG","3HUR21WDDUBEMSLDIXZW1FAIHVWXYO","","null","<img src=""img/land4.png"" style=""width:200px; border:14px solid green;"">","null","","","","","","","","","",""
"","image-keyboard-response","110","60680","0.0-110.0","37C0GNLMHGP0RM4KCG8UD0JLAEY6DD","AFK9ALQK5GPNG","3HUR21WDDUBEMSLDIXZW1FAIHVWXYO","","457","img/land3.png","75","457","2","1","2","1","0.8,0.2,0.2,0.2,0.8,0.2,0.2,0.2,0.8","0.8,0.2,0.2,0.2,0.8,0.2,0.2,0.2,0.8","1","",""
"","html-keyboard-response","111","60986","0.0-111.0","37C0GNLMHGP0RM4KCG8UD0JLAEY6DD","AFK9ALQK5GPNG","3HUR21WDDUBEMSLDIXZW1FAIHVWXYO","","null","<img src=""img/land3.png"" style=""width:200px; border:14px solid green;"">","null","","","","","","","","","",""
"","image-keyboard-response","112","61666","0.0-112.0","37C0GNLMHGP0RM4KCG8UD0JLAEY6DD","AFK9ALQK5GPNG","3HUR21WDDUBEMSLDIXZW1FAIHVWXYO","","679","img/land3.png","75","679","2","0","2","1","0.8,0.2,0.2,0.2,0.8,0.2,0.2,0.2,0.8","0.8,0.2,0.2,0.2,0.8,0.2,0.2,0.2,0.8","1","",""
"","html-keyboard-response","113","61969","0.0-113.0","37C0GNLMHGP0RM4KCG8UD0JLAEY6DD","AFK9ALQK5GPNG","3HUR21WDDUBEMSLDIXZW1FAIHVWXYO","","null","<img src=""img/land3.png"" style=""width:200px;border:14px solid red;"">","null","","","","","","","","","",""
"","image-keyboard-response","114","62521","0.0-114.0","37C0GNLMHGP0RM4KCG8UD0JLAEY6DD","AFK9ALQK5GPNG","3HUR21WDDUBEMSLDIXZW1FAIHVWXYO","","550","img/land6.png","76","550","3","1","3","1","0.8,0.2,0.2,0.2,0.8,0.2,0.2,0.2,0.8","0.8,0.2,0.2,0.2,0.8,0.2,0.2,0.2,0.8","1","",""
"","html-keyboard-response","115","62821","0.0-115.0","37C0GNLMHGP0RM4KCG8UD0JLAEY6DD","AFK9ALQK5GPNG","3HUR21WDDUBEMSLDIXZW1FAIHVWXYO","","null","<img src=""img/land6.png"" style=""width:200px; border:14px solid green;"">","null","","","","","","","","","",""
"","image-keyboard-response","116","63400","0.0-116.0","37C0GNLMHGP0RM4KCG8UD0JLAEY6DD","AFK9ALQK5GPNG","3HUR21WDDUBEMSLDIXZW1FAIHVWXYO","","578","img/land3.png","75","579","2","1","2","1","0.8,0.2,0.2,0.2,0.8,0.2,0.2,0.2,0.8","0.8,0.2,0.2,0.2,0.8,0.2,0.2,0.2,0.8","1","",""
"","html-keyboard-response","117","63715","0.0-117.0","37C0GNLMHGP0RM4KCG8UD0JLAEY6DD","AFK9ALQK5GPNG","3HUR21WDDUBEMSLDIXZW1FAIHVWXYO","","null","<img src=""img/land3.png"" style=""width:200px; border:14px solid green;"">","null","","","","","","","","","",""
"","image-keyboard-response","118","64411","0.0-118.0","37C0GNLMHGP0RM4KCG8UD0JLAEY6DD","AFK9ALQK5GPNG","3HUR21WDDUBEMSLDIXZW1FAIHVWXYO","","696","img/land4.png","74","697","1","1","1","1","0.8,0.2,0.2,0.2,0.8,0.2,0.2,0.2,0.8","0.8,0.2,0.2,0.2,0.8,0.2,0.2,0.2,0.8","1","",""
"","html-keyboard-response","119","64714","0.0-119.0","37C0GNLMHGP0RM4KCG8UD0JLAEY6DD","AFK9ALQK5GPNG","3HUR21WDDUBEMSLDIXZW1FAIHVWXYO","","null","<img src=""img/land4.png"" style=""width:200px; border:14px solid green;"">","null","","","","","","","","","",""
"","image-keyboard-response","120","65051","0.0-120.0","37C0GNLMHGP0RM4KCG8UD0JLAEY6DD","AFK9ALQK5GPNG","3HUR21WDDUBEMSLDIXZW1FAIHVWXYO","","336","img/land4.png","74","336","1","1","1","1","0.8,0.2,0.2,0.2,0.8,0.2,0.2,0.2,0.8","0.8,0.2,0.2,0.2,0.8,0.2,0.2,0.2,0.8","1","",""
"","html-keyboard-response","121","65368","0.0-121.0","37C0GNLMHGP0RM4KCG8UD0JLAEY6DD","AFK9ALQK5GPNG","3HUR21WDDUBEMSLDIXZW1FAIHVWXYO","","null","<img src=""img/land4.png"" style=""width:200px; border:14px solid green;"">","null","","","","","","","","","",""
"","image-keyboard-response","122","65944","0.0-122.0","37C0GNLMHGP0RM4KCG8UD0JLAEY6DD","AFK9ALQK5GPNG","3HUR21WDDUBEMSLDIXZW1FAIHVWXYO","","575","img/land6.png","76","576","3","0","3","1","0.8,0.2,0.2,0.2,0.8,0.2,0.2,0.2,0.8","0.8,0.2,0.2,0.2,0.8,0.2,0.2,0.2,0.8","1","",""
"","html-keyboard-response","123","66259","0.0-123.0","37C0GNLMHGP0RM4KCG8UD0JLAEY6DD","AFK9ALQK5GPNG","3HUR21WDDUBEMSLDIXZW1FAIHVWXYO","","null","<img src=""img/land6.png"" style=""width:200px;border:14px solid red;"">","null","","","","","","","","","",""
"","image-keyboard-response","124","66629","0.0-124.0","37C0GNLMHGP0RM4KCG8UD0JLAEY6DD","AFK9ALQK5GPNG","3HUR21WDDUBEMSLDIXZW1FAIHVWXYO","","369","img/land6.png","76","371","3","1","3","1","0.8,0.2,0.2,0.2,0.8,0.2,0.2,0.2,0.8","0.8,0.2,0.2,0.2,0.8,0.2,0.2,0.2,0.8","1","",""
"","html-keyboard-response","125","66931","0.0-125.0","37C0GNLMHGP0RM4KCG8UD0JLAEY6DD","AFK9ALQK5GPNG","3HUR21WDDUBEMSLDIXZW1FAIHVWXYO","","null","<img src=""img/land6.png"" style=""width:200px; border:14px solid green;"">","null","","","","","","","","","",""
"","image-keyboard-response","126","67578","0.0-126.0","37C0GNLMHGP0RM4KCG8UD0JLAEY6DD","AFK9ALQK5GPNG","3HUR21WDDUBEMSLDIXZW1FAIHVWXYO","","646","img/land4.png","74","647","1","1","1","1","0.8,0.2,0.2,0.2,0.8,0.2,0.2,0.2,0.8","0.8,0.2,0.2,0.2,0.8,0.2,0.2,0.2,0.8","1","",""
"","html-keyboard-response","127","67884","0.0-127.0","37C0GNLMHGP0RM4KCG8UD0JLAEY6DD","AFK9ALQK5GPNG","3HUR21WDDUBEMSLDIXZW1FAIHVWXYO","","null","<img src=""img/land4.png"" style=""width:200px; border:14px solid green;"">","null","","","","","","","","","",""
"","image-keyboard-response","128","68392","0.0-128.0","37C0GNLMHGP0RM4KCG8UD0JLAEY6DD","AFK9ALQK5GPNG","3HUR21WDDUBEMSLDIXZW1FAIHVWXYO","","507","img/land6.png","76","508","3","1","3","1","0.8,0.2,0.2,0.2,0.8,0.2,0.2,0.2,0.8","0.8,0.2,0.2,0.2,0.8,0.2,0.2,0.2,0.8","1","",""
"","html-keyboard-response","129","68709","0.0-129.0","37C0GNLMHGP0RM4KCG8UD0JLAEY6DD","AFK9ALQK5GPNG","3HUR21WDDUBEMSLDIXZW1FAIHVWXYO","","null","<img src=""img/land6.png"" style=""width:200px; border:14px solid green;"">","null","","","","","","","","","",""
"","image-keyboard-response","130","69178","0.0-130.0","37C0GNLMHGP0RM4KCG8UD0JLAEY6DD","AFK9ALQK5GPNG","3HUR21WDDUBEMSLDIXZW1FAIHVWXYO","","469","img/land3.png","75","470","2","1","2","1","0.8,0.2,0.2,0.2,0.8,0.2,0.2,0.2,0.8","0.8,0.2,0.2,0.2,0.8,0.2,0.2,0.2,0.8","1","",""
"","html-keyboard-response","131","69484","0.0-131.0","37C0GNLMHGP0RM4KCG8UD0JLAEY6DD","AFK9ALQK5GPNG","3HUR21WDDUBEMSLDIXZW1FAIHVWXYO","","null","<img src=""img/land3.png"" style=""width:200px; border:14px solid green;"">","null","","","","","","","","","",""
"","image-keyboard-response","132","69849","0.0-132.0","37C0GNLMHGP0RM4KCG8UD0JLAEY6DD","AFK9ALQK5GPNG","3HUR21WDDUBEMSLDIXZW1FAIHVWXYO","","364","img/land3.png","76","366","3","0","2","1","0.8,0.2,0.2,0.2,0.8,0.2,0.2,0.2,0.8","0.8,0.2,0.2,0.2,0.8,0.2,0.2,0.2,0.8","1","",""
"","html-keyboard-response","133","70160","0.0-133.0","37C0GNLMHGP0RM4KCG8UD0JLAEY6DD","AFK9ALQK5GPNG","3HUR21WDDUBEMSLDIXZW1FAIHVWXYO","","null","<img src=""img/land3.png"" style=""width:200px;border:14px solid red;"">","null","","","","","","","","","",""
"","image-keyboard-response","134","70602","0.0-134.0","37C0GNLMHGP0RM4KCG8UD0JLAEY6DD","AFK9ALQK5GPNG","3HUR21WDDUBEMSLDIXZW1FAIHVWXYO","","441","img/land3.png","75","443","2","1","2","1","0.8,0.2,0.2,0.2,0.8,0.2,0.2,0.2,0.8","0.8,0.2,0.2,0.2,0.8,0.2,0.2,0.2,0.8","1","",""
"","html-keyboard-response","135","70916","0.0-135.0","37C0GNLMHGP0RM4KCG8UD0JLAEY6DD","AFK9ALQK5GPNG","3HUR21WDDUBEMSLDIXZW1FAIHVWXYO","","null","<img src=""img/land3.png"" style=""width:200px; border:14px solid green;"">","null","","","","","","","","","",""
"","image-keyboard-response","136","71742","0.0-136.0","37C0GNLMHGP0RM4KCG8UD0JLAEY6DD","AFK9ALQK5GPNG","3HUR21WDDUBEMSLDIXZW1FAIHVWXYO","","825","img/land4.png","74","825","1","1","1","1","0.8,0.2,0.2,0.2,0.8,0.2,0.2,0.2,0.8","0.8,0.2,0.2,0.2,0.8,0.2,0.2,0.2,0.8","1","",""
"","html-keyboard-response","137","72056","0.0-137.0","37C0GNLMHGP0RM4KCG8UD0JLAEY6DD","AFK9ALQK5GPNG","3HUR21WDDUBEMSLDIXZW1FAIHVWXYO","","null","<img src=""img/land4.png"" style=""width:200px; border:14px solid green;"">","null","","","","","","","","","",""
"","image-keyboard-response","138","72682","0.0-138.0","37C0GNLMHGP0RM4KCG8UD0JLAEY6DD","AFK9ALQK5GPNG","3HUR21WDDUBEMSLDIXZW1FAIHVWXYO","","626","img/land6.png","76","627","3","1","3","1","0.8,0.2,0.2,0.2,0.8,0.2,0.2,0.2,0.8","0.8,0.2,0.2,0.2,0.8,0.2,0.2,0.2,0.8","1","",""
"","html-keyboard-response","139","72997","0.0-139.0","37C0GNLMHGP0RM4KCG8UD0JLAEY6DD","AFK9ALQK5GPNG","3HUR21WDDUBEMSLDIXZW1FAIHVWXYO","","null","<img src=""img/land6.png"" style=""width:200px; border:14px solid green;"">","null","","","","","","","","","",""
"","image-keyboard-response","140","73413","0.0-140.0","37C0GNLMHGP0RM4KCG8UD0JLAEY6DD","AFK9ALQK5GPNG","3HUR21WDDUBEMSLDIXZW1FAIHVWXYO","","416","img/land6.png","76","416","3","0","3","1","0.8,0.2,0.2,0.2,0.8,0.2,0.2,0.2,0.8","0.8,0.2,0.2,0.2,0.8,0.2,0.2,0.2,0.8","1","",""
"","html-keyboard-response","141","73721","0.0-141.0","37C0GNLMHGP0RM4KCG8UD0JLAEY6DD","AFK9ALQK5GPNG","3HUR21WDDUBEMSLDIXZW1FAIHVWXYO","","null","<img src=""img/land6.png"" style=""width:200px;border:14px solid red;"">","null","","","","","","","","","",""
"","image-keyboard-response","142","74226","0.0-142.0","37C0GNLMHGP0RM4KCG8UD0JLAEY6DD","AFK9ALQK5GPNG","3HUR21WDDUBEMSLDIXZW1FAIHVWXYO","","504","img/land3.png","75","505","2","1","2","1","0.8,0.2,0.2,0.2,0.8,0.2,0.2,0.2,0.8","0.8,0.2,0.2,0.2,0.8,0.2,0.2,0.2,0.8","1","",""
"","html-keyboard-response","143","74539","0.0-143.0","37C0GNLMHGP0RM4KCG8UD0JLAEY6DD","AFK9ALQK5GPNG","3HUR21WDDUBEMSLDIXZW1FAIHVWXYO","","null","<img src=""img/land3.png"" style=""width:200px; border:14px solid green;"">","null","","","","","","","","","",""
"","image-keyboard-response","144","75032","0.0-144.0","37C0GNLMHGP0RM4KCG8UD0JLAEY6DD","AFK9ALQK5GPNG","3HUR21WDDUBEMSLDIXZW1FAIHVWXYO","","493","img/land3.png","75","494","2","1","2","1","0.8,0.2,0.2,0.2,0.8,0.2,0.2,0.2,0.8","0.8,0.2,0.2,0.2,0.8,0.2,0.2,0.2,0.8","1","",""
"","html-keyboard-response","145","75344","0.0-145.0","37C0GNLMHGP0RM4KCG8UD0JLAEY6DD","AFK9ALQK5GPNG","3HUR21WDDUBEMSLDIXZW1FAIHVWXYO","","null","<img src=""img/land3.png"" style=""width:200px; border:14px solid green;"">","null","","","","","","","","","",""
"","image-keyboard-response","146","75995","0.0-146.0","37C0GNLMHGP0RM4KCG8UD0JLAEY6DD","AFK9ALQK5GPNG","3HUR21WDDUBEMSLDIXZW1FAIHVWXYO","","650","img/land3.png","75","651","2","1","2","1","0.8,0.2,0.2,0.2,0.8,0.2,0.2,0.2,0.8","0.8,0.2,0.2,0.2,0.8,0.2,0.2,0.2,0.8","1","",""
"","html-keyboard-response","147","76306","0.0-147.0","37C0GNLMHGP0RM4KCG8UD0JLAEY6DD","AFK9ALQK5GPNG","3HUR21WDDUBEMSLDIXZW1FAIHVWXYO","","null","<img src=""img/land3.png"" style=""width:200px; border:14px solid green;"">","null","","","","","","","","","",""
"","image-keyboard-response","148","76916","0.0-148.0","37C0GNLMHGP0RM4KCG8UD0JLAEY6DD","AFK9ALQK5GPNG","3HUR21WDDUBEMSLDIXZW1FAIHVWXYO","","610","img/land4.png","74","611","1","0","1","1","0.8,0.2,0.2,0.2,0.8,0.2,0.2,0.2,0.8","0.8,0.2,0.2,0.2,0.8,0.2,0.2,0.2,0.8","1","",""
"","html-keyboard-response","149","77220","0.0-149.0","37C0GNLMHGP0RM4KCG8UD0JLAEY6DD","AFK9ALQK5GPNG","3HUR21WDDUBEMSLDIXZW1FAIHVWXYO","","null","<img src=""img/land4.png"" style=""width:200px;border:14px solid red;"">","null","","","","","","","","","",""
"","image-keyboard-response","150","77796","0.0-150.0","37C0GNLMHGP0RM4KCG8UD0JLAEY6DD","AFK9ALQK5GPNG","3HUR21WDDUBEMSLDIXZW1FAIHVWXYO","","576","img/land6.png","76","577","3","1","3","1","0.8,0.2,0.2,0.2,0.8,0.2,0.2,0.2,0.8","0.8,0.2,0.2,0.2,0.8,0.2,0.2,0.2,0.8","1","",""
"","html-keyboard-response","151","78110","0.0-151.0","37C0GNLMHGP0RM4KCG8UD0JLAEY6DD","AFK9ALQK5GPNG","3HUR21WDDUBEMSLDIXZW1FAIHVWXYO","","null","<img src=""img/land6.png"" style=""width:200px; border:14px solid green;"">","null","","","","","","","","","",""
"","image-keyboard-response","152","78587","0.0-152.0","37C0GNLMHGP0RM4KCG8UD0JLAEY6DD","AFK9ALQK5GPNG","3HUR21WDDUBEMSLDIXZW1FAIHVWXYO","","477","img/land3.png","75","478","2","1","2","1","0.8,0.2,0.2,0.2,0.8,0.2,0.2,0.2,0.8","0.8,0.2,0.2,0.2,0.8,0.2,0.2,0.2,0.8","1","",""
"","html-keyboard-response","153","78902","0.0-153.0","37C0GNLMHGP0RM4KCG8UD0JLAEY6DD","AFK9ALQK5GPNG","3HUR21WDDUBEMSLDIXZW1FAIHVWXYO","","null","<img src=""img/land3.png"" style=""width:200px; border:14px solid green;"">","null","","","","","","","","","",""
"","image-keyboard-response","154","79697","0.0-154.0","37C0GNLMHGP0RM4KCG8UD0JLAEY6DD","AFK9ALQK5GPNG","3HUR21WDDUBEMSLDIXZW1FAIHVWXYO","","794","img/land3.png","75","795","2","1","2","1","0.8,0.2,0.2,0.2,0.8,0.2,0.2,0.2,0.8","0.8,0.2,0.2,0.2,0.8,0.2,0.2,0.2,0.8","1","",""
"","html-keyboard-response","155","80010","0.0-155.0","37C0GNLMHGP0RM4KCG8UD0JLAEY6DD","AFK9ALQK5GPNG","3HUR21WDDUBEMSLDIXZW1FAIHVWXYO","","null","<img src=""img/land3.png"" style=""width:200px; border:14px solid green;"">","null","","","","","","","","","",""
"","image-keyboard-response","156","80651","0.0-156.0","37C0GNLMHGP0RM4KCG8UD0JLAEY6DD","AFK9ALQK5GPNG","3HUR21WDDUBEMSLDIXZW1FAIHVWXYO","","639","img/land4.png","74","641","1","1","1","1","0.8,0.2,0.2,0.2,0.8,0.2,0.2,0.2,0.8","0.8,0.2,0.2,0.2,0.8,0.2,0.2,0.2,0.8","1","",""
"","html-keyboard-response","157","80957","0.0-157.0","37C0GNLMHGP0RM4KCG8UD0JLAEY6DD","AFK9ALQK5GPNG","3HUR21WDDUBEMSLDIXZW1FAIHVWXYO","","null","<img src=""img/land4.png"" style=""width:200px; border:14px solid green;"">","null","","","","","","","","","",""
"","image-keyboard-response","158","81500","0.0-158.0","37C0GNLMHGP0RM4KCG8UD0JLAEY6DD","AFK9ALQK5GPNG","3HUR21WDDUBEMSLDIXZW1FAIHVWXYO","","541","img/land4.png","74","542","1","0","1","1","0.8,0.2,0.2,0.2,0.8,0.2,0.2,0.2,0.8","0.8,0.2,0.2,0.2,0.8,0.2,0.2,0.2,0.8","1","",""
"","html-keyboard-response","159","81814","0.0-159.0","37C0GNLMHGP0RM4KCG8UD0JLAEY6DD","AFK9ALQK5GPNG","3HUR21WDDUBEMSLDIXZW1FAIHVWXYO","","null","<img src=""img/land4.png"" style=""width:200px;border:14px solid red;"">","null","","","","","","","","","",""
"","image-keyboard-response","160","82478","0.0-160.0","37C0GNLMHGP0RM4KCG8UD0JLAEY6DD","AFK9ALQK5GPNG","3HUR21WDDUBEMSLDIXZW1FAIHVWXYO","","663","img/land3.png","75","664","2","1","2","1","0.8,0.2,0.2,0.2,0.8,0.2,0.2,0.2,0.8","0.8,0.2,0.2,0.2,0.8,0.2,0.2,0.2,0.8","1","",""
"","html-keyboard-response","161","82789","0.0-161.0","37C0GNLMHGP0RM4KCG8UD0JLAEY6DD","AFK9ALQK5GPNG","3HUR21WDDUBEMSLDIXZW1FAIHVWXYO","","null","<img src=""img/land3.png"" style=""width:200px; border:14px solid green;"">","null","","","","","","","","","",""
"","image-keyboard-response","162","83394","0.0-162.0","37C0GNLMHGP0RM4KCG8UD0JLAEY6DD","AFK9ALQK5GPNG","3HUR21WDDUBEMSLDIXZW1FAIHVWXYO","","602","img/land6.png","76","604","3","1","3","1","0.8,0.2,0.2,0.2,0.8,0.2,0.2,0.2,0.8","0.8,0.2,0.2,0.2,0.8,0.2,0.2,0.2,0.8","1","",""
"","html-keyboard-response","163","83703","0.0-163.0","37C0GNLMHGP0RM4KCG8UD0JLAEY6DD","AFK9ALQK5GPNG","3HUR21WDDUBEMSLDIXZW1FAIHVWXYO","","null","<img src=""img/land6.png"" style=""width:200px; border:14px solid green;"">","null","","","","","","","","","",""
"","image-keyboard-response","164","84180","0.0-164.0","37C0GNLMHGP0RM4KCG8UD0JLAEY6DD","AFK9ALQK5GPNG","3HUR21WDDUBEMSLDIXZW1FAIHVWXYO","","477","img/land6.png","76","477","3","1","3","1","0.8,0.2,0.2,0.2,0.8,0.2,0.2,0.2,0.8","0.8,0.2,0.2,0.2,0.8,0.2,0.2,0.2,0.8","1","",""
"","html-keyboard-response","165","84486","0.0-165.0","37C0GNLMHGP0RM4KCG8UD0JLAEY6DD","AFK9ALQK5GPNG","3HUR21WDDUBEMSLDIXZW1FAIHVWXYO","","null","<img src=""img/land6.png"" style=""width:200px; border:14px solid green;"">","null","","","","","","","","","",""
"","image-keyboard-response","166","85137","0.0-166.0","37C0GNLMHGP0RM4KCG8UD0JLAEY6DD","AFK9ALQK5GPNG","3HUR21WDDUBEMSLDIXZW1FAIHVWXYO","","649","img/land4.png","74","650","1","1","1","1","0.8,0.2,0.2,0.2,0.8,0.2,0.2,0.2,0.8","0.8,0.2,0.2,0.2,0.8,0.2,0.2,0.2,0.8","1","",""
"","html-keyboard-response","167","85442","0.0-167.0","37C0GNLMHGP0RM4KCG8UD0JLAEY6DD","AFK9ALQK5GPNG","3HUR21WDDUBEMSLDIXZW1FAIHVWXYO","","null","<img src=""img/land4.png"" style=""width:200px; border:14px solid green;"">","null","","","","","","","","","",""
"","image-keyboard-response","168","85956","0.0-168.0","37C0GNLMHGP0RM4KCG8UD0JLAEY6DD","AFK9ALQK5GPNG","3HUR21WDDUBEMSLDIXZW1FAIHVWXYO","","514","img/land4.png","74","514","1","1","1","1","0.8,0.2,0.2,0.2,0.8,0.2,0.2,0.2,0.8","0.8,0.2,0.2,0.2,0.8,0.2,0.2,0.2,0.8","1","",""
"","html-keyboard-response","169","86256","0.0-169.0","37C0GNLMHGP0RM4KCG8UD0JLAEY6DD","AFK9ALQK5GPNG","3HUR21WDDUBEMSLDIXZW1FAIHVWXYO","","null","<img src=""img/land4.png"" style=""width:200px; border:14px solid green;"">","null","","","","","","","","","",""
"","image-keyboard-response","170","86861","0.0-170.0","37C0GNLMHGP0RM4KCG8UD0JLAEY6DD","AFK9ALQK5GPNG","3HUR21WDDUBEMSLDIXZW1FAIHVWXYO","","604","img/land6.png","76","604","3","0","3","1","0.8,0.2,0.2,0.2,0.8,0.2,0.2,0.2,0.8","0.8,0.2,0.2,0.2,0.8,0.2,0.2,0.2,0.8","1","",""
"","html-keyboard-response","171","87164","0.0-171.0","37C0GNLMHGP0RM4KCG8UD0JLAEY6DD","AFK9ALQK5GPNG","3HUR21WDDUBEMSLDIXZW1FAIHVWXYO","","null","<img src=""img/land6.png"" style=""width:200px;border:14px solid red;"">","null","","","","","","","","","",""
"","image-keyboard-response","172","87699","0.0-172.0","37C0GNLMHGP0RM4KCG8UD0JLAEY6DD","AFK9ALQK5GPNG","3HUR21WDDUBEMSLDIXZW1FAIHVWXYO","","534","img/land3.png","75","534","2","1","2","1","0.8,0.2,0.2,0.2,0.8,0.2,0.2,0.2,0.8","0.8,0.2,0.2,0.2,0.8,0.2,0.2,0.2,0.8","1","",""
"","html-keyboard-response","173","87999","0.0-173.0","37C0GNLMHGP0RM4KCG8UD0JLAEY6DD","AFK9ALQK5GPNG","3HUR21WDDUBEMSLDIXZW1FAIHVWXYO","","null","<img src=""img/land3.png"" style=""width:200px; border:14px solid green;"">","null","","","","","","","","","",""
"","image-keyboard-response","174","88901","0.0-174.0","37C0GNLMHGP0RM4KCG8UD0JLAEY6DD","AFK9ALQK5GPNG","3HUR21WDDUBEMSLDIXZW1FAIHVWXYO","","900","img/land6.png","74","901","1","0","3","1","0.8,0.2,0.2,0.2,0.8,0.2,0.2,0.2,0.8","0.8,0.2,0.2,0.2,0.8,0.2,0.2,0.2,0.8","1","",""
"","html-keyboard-response","175","89209","0.0-175.0","37C0GNLMHGP0RM4KCG8UD0JLAEY6DD","AFK9ALQK5GPNG","3HUR21WDDUBEMSLDIXZW1FAIHVWXYO","","null","<img src=""img/land6.png"" style=""width:200px;border:14px solid red;"">","null","","","","","","","","","",""
"","image-keyboard-response","176","89942","0.0-176.0","37C0GNLMHGP0RM4KCG8UD0JLAEY6DD","AFK9ALQK5GPNG","3HUR21WDDUBEMSLDIXZW1FAIHVWXYO","","733","img/land4.png","74","733","1","1","1","1","0.8,0.2,0.2,0.2,0.8,0.2,0.2,0.2,0.8","0.8,0.2,0.2,0.2,0.8,0.2,0.2,0.2,0.8","1","",""
"","html-keyboard-response","177","90258","0.0-177.0","37C0GNLMHGP0RM4KCG8UD0JLAEY6DD","AFK9ALQK5GPNG","3HUR21WDDUBEMSLDIXZW1FAIHVWXYO","","null","<img src=""img/land4.png"" style=""width:200px; border:14px solid green;"">","null","","","","","","","","","",""
"","image-keyboard-response","178","90847","0.0-178.0","37C0GNLMHGP0RM4KCG8UD0JLAEY6DD","AFK9ALQK5GPNG","3HUR21WDDUBEMSLDIXZW1FAIHVWXYO","","588","img/land6.png","76","589","3","1","3","1","0.8,0.2,0.2,0.2,0.8,0.2,0.2,0.2,0.8","0.8,0.2,0.2,0.2,0.8,0.2,0.2,0.2,0.8","1","",""
"","html-keyboard-response","179","91153","0.0-179.0","37C0GNLMHGP0RM4KCG8UD0JLAEY6DD","AFK9ALQK5GPNG","3HUR21WDDUBEMSLDIXZW1FAIHVWXYO","","null","<img src=""img/land6.png"" style=""width:200px; border:14px solid green;"">","null","","","","","","","","","",""
"","image-keyboard-response","180","91915","0.0-180.0","37C0GNLMHGP0RM4KCG8UD0JLAEY6DD","AFK9ALQK5GPNG","3HUR21WDDUBEMSLDIXZW1FAIHVWXYO","","760","img/land4.png","74","762","1","1","1","1","0.8,0.2,0.2,0.2,0.8,0.2,0.2,0.2,0.8","0.8,0.2,0.2,0.2,0.8,0.2,0.2,0.2,0.8","1","",""
"","html-keyboard-response","181","92226","0.0-181.0","37C0GNLMHGP0RM4KCG8UD0JLAEY6DD","AFK9ALQK5GPNG","3HUR21WDDUBEMSLDIXZW1FAIHVWXYO","","null","<img src=""img/land4.png"" style=""width:200px; border:14px solid green;"">","null","","","","","","","","","",""
"","html-keyboard-response","182","94069","0.0-182.0","37C0GNLMHGP0RM4KCG8UD0JLAEY6DD","AFK9ALQK5GPNG","3HUR21WDDUBEMSLDIXZW1FAIHVWXYO","","","","","","","","","","","","","",""
"","image-keyboard-response","183","94829","0.0-183.0","37C0GNLMHGP0RM4KCG8UD0JLAEY6DD","AFK9ALQK5GPNG","3HUR21WDDUBEMSLDIXZW1FAIHVWXYO","","759","img/land2.png","75","760","2","1","1","2","0.8,0.2,0.2,0.2,0.8,0.2,0.2,0.2,0.8","0.2,0.8,0.2,0.2,0.2,0.8,0.8,0.2,0.2","3","",""
"","html-keyboard-response","184","95136","0.0-184.0","37C0GNLMHGP0RM4KCG8UD0JLAEY6DD","AFK9ALQK5GPNG","3HUR21WDDUBEMSLDIXZW1FAIHVWXYO","","null","<img src=""img/land2.png"" style=""width:200px; border:14px solid green;"">","null","","","","","","","","","",""
"","image-keyboard-response","185","95540","0.0-185.0","37C0GNLMHGP0RM4KCG8UD0JLAEY6DD","AFK9ALQK5GPNG","3HUR21WDDUBEMSLDIXZW1FAIHVWXYO","","402","img/land2.png","75","403","2","1","1","2","0.8,0.2,0.2,0.2,0.8,0.2,0.2,0.2,0.8","0.2,0.8,0.2,0.2,0.2,0.8,0.8,0.2,0.2","3","",""
"","html-keyboard-response","186","95852","0.0-186.0","37C0GNLMHGP0RM4KCG8UD0JLAEY6DD","AFK9ALQK5GPNG","3HUR21WDDUBEMSLDIXZW1FAIHVWXYO","","null","<img src=""img/land2.png"" style=""width:200px; border:14px solid green;"">","null","","","","","","","","","",""
"","image-keyboard-response","187","96456","0.0-187.0","37C0GNLMHGP0RM4KCG8UD0JLAEY6DD","AFK9ALQK5GPNG","3HUR21WDDUBEMSLDIXZW1FAIHVWXYO","","602","img/land2.png","75","604","2","1","1","2","0.8,0.2,0.2,0.2,0.8,0.2,0.2,0.2,0.8","0.2,0.8,0.2,0.2,0.2,0.8,0.8,0.2,0.2","3","",""
"","html-keyboard-response","188","96774","0.0-188.0","37C0GNLMHGP0RM4KCG8UD0JLAEY6DD","AFK9ALQK5GPNG","3HUR21WDDUBEMSLDIXZW1FAIHVWXYO","","null","<img src=""img/land2.png"" style=""width:200px; border:14px solid green;"">","null","","","","","","","","","",""
"","image-keyboard-response","189","97433","0.0-189.0","37C0GNLMHGP0RM4KCG8UD0JLAEY6DD","AFK9ALQK5GPNG","3HUR21WDDUBEMSLDIXZW1FAIHVWXYO","","657","img/land1.png","76","658","3","1","2","2","0.8,0.2,0.2,0.2,0.8,0.2,0.2,0.2,0.8","0.2,0.8,0.2,0.2,0.2,0.8,0.8,0.2,0.2","3","",""
"","html-keyboard-response","190","97733","0.0-190.0","37C0GNLMHGP0RM4KCG8UD0JLAEY6DD","AFK9ALQK5GPNG","3HUR21WDDUBEMSLDIXZW1FAIHVWXYO","","null","<img src=""img/land1.png"" style=""width:200px; border:14px solid green;"">","null","","","","","","","","","",""
"","image-keyboard-response","191","98228","0.0-191.0","37C0GNLMHGP0RM4KCG8UD0JLAEY6DD","AFK9ALQK5GPNG","3HUR21WDDUBEMSLDIXZW1FAIHVWXYO","","494","img/land2.png","75","494","2","1","1","2","0.8,0.2,0.2,0.2,0.8,0.2,0.2,0.2,0.8","0.2,0.8,0.2,0.2,0.2,0.8,0.8,0.2,0.2","3","",""
"","html-keyboard-response","192","98534","0.0-192.0","37C0GNLMHGP0RM4KCG8UD0JLAEY6DD","AFK9ALQK5GPNG","3HUR21WDDUBEMSLDIXZW1FAIHVWXYO","","null","<img src=""img/land2.png"" style=""width:200px; border:14px solid green;"">","null","","","","","","","","","",""
"","image-keyboard-response","193","99040","0.0-193.0","37C0GNLMHGP0RM4KCG8UD0JLAEY6DD","AFK9ALQK5GPNG","3HUR21WDDUBEMSLDIXZW1FAIHVWXYO","","505","img/land2.png","75","507","2","1","1","2","0.8,0.2,0.2,0.2,0.8,0.2,0.2,0.2,0.8","0.2,0.8,0.2,0.2,0.2,0.8,0.8,0.2,0.2","3","",""
"","html-keyboard-response","194","99344","0.0-194.0","37C0GNLMHGP0RM4KCG8UD0JLAEY6DD","AFK9ALQK5GPNG","3HUR21WDDUBEMSLDIXZW1FAIHVWXYO","","null","<img src=""img/land2.png"" style=""width:200px; border:14px solid green;"">","null","","","","","","","","","",""
"","image-keyboard-response","195","99920","0.0-195.0","37C0GNLMHGP0RM4KCG8UD0JLAEY6DD","AFK9ALQK5GPNG","3HUR21WDDUBEMSLDIXZW1FAIHVWXYO","","574","img/land5.png","74","574","1","0","3","2","0.8,0.2,0.2,0.2,0.8,0.2,0.2,0.2,0.8","0.2,0.8,0.2,0.2,0.2,0.8,0.8,0.2,0.2","3","",""
"","html-keyboard-response","196","100222","0.0-196.0","37C0GNLMHGP0RM4KCG8UD0JLAEY6DD","AFK9ALQK5GPNG","3HUR21WDDUBEMSLDIXZW1FAIHVWXYO","","null","<img src=""img/land5.png"" style=""width:200px;border:14px solid red;"">","null","","","","","","","","","",""
"","image-keyboard-response","197","100681","0.0-197.0","37C0GNLMHGP0RM4KCG8UD0JLAEY6DD","AFK9ALQK5GPNG","3HUR21WDDUBEMSLDIXZW1FAIHVWXYO","","459","img/land5.png","75","459","2","1","3","2","0.8,0.2,0.2,0.2,0.8,0.2,0.2,0.2,0.8","0.2,0.8,0.2,0.2,0.2,0.8,0.8,0.2,0.2","3","",""
"","html-keyboard-response","198","100983","0.0-198.0","37C0GNLMHGP0RM4KCG8UD0JLAEY6DD","AFK9ALQK5GPNG","3HUR21WDDUBEMSLDIXZW1FAIHVWXYO","","null","<img src=""img/land5.png"" style=""width:200px; border:14px solid green;"">","null","","","","","","","","","",""
"","image-keyboard-response","199","101439","0.0-199.0","37C0GNLMHGP0RM4KCG8UD0JLAEY6DD","AFK9ALQK5GPNG","3HUR21WDDUBEMSLDIXZW1FAIHVWXYO","","455","img/land2.png","75","457","2","1","1","2","0.8,0.2,0.2,0.2,0.8,0.2,0.2,0.2,0.8","0.2,0.8,0.2,0.2,0.2,0.8,0.8,0.2,0.2","3","",""
"","html-keyboard-response","200","101751","0.0-200.0","37C0GNLMHGP0RM4KCG8UD0JLAEY6DD","AFK9ALQK5GPNG","3HUR21WDDUBEMSLDIXZW1FAIHVWXYO","","null","<img src=""img/land2.png"" style=""width:200px; border:14px solid green;"">","null","","","","","","","","","",""
"","image-keyboard-response","201","102292","0.0-201.0","37C0GNLMHGP0RM4KCG8UD0JLAEY6DD","AFK9ALQK5GPNG","3HUR21WDDUBEMSLDIXZW1FAIHVWXYO","","540","img/land5.png","75","540","2","1","3","2","0.8,0.2,0.2,0.2,0.8,0.2,0.2,0.2,0.8","0.2,0.8,0.2,0.2,0.2,0.8,0.8,0.2,0.2","3","",""
"","html-keyboard-response","202","102603","0.0-202.0","37C0GNLMHGP0RM4KCG8UD0JLAEY6DD","AFK9ALQK5GPNG","3HUR21WDDUBEMSLDIXZW1FAIHVWXYO","","null","<img src=""img/land5.png"" style=""width:200px; border:14px solid green;"">","null","","","","","","","","","",""
"","image-keyboard-response","203","103063","0.0-203.0","37C0GNLMHGP0RM4KCG8UD0JLAEY6DD","AFK9ALQK5GPNG","3HUR21WDDUBEMSLDIXZW1FAIHVWXYO","","460","img/land2.png","75","461","2","1","1","2","0.8,0.2,0.2,0.2,0.8,0.2,0.2,0.2,0.8","0.2,0.8,0.2,0.2,0.2,0.8,0.8,0.2,0.2","3","",""
"","html-keyboard-response","204","103378","0.0-204.0","37C0GNLMHGP0RM4KCG8UD0JLAEY6DD","AFK9ALQK5GPNG","3HUR21WDDUBEMSLDIXZW1FAIHVWXYO","","null","<img src=""img/land2.png"" style=""width:200px; border:14px solid green;"">","null","","","","","","","","","",""
"","image-keyboard-response","205","103752","0.0-205.0","37C0GNLMHGP0RM4KCG8UD0JLAEY6DD","AFK9ALQK5GPNG","3HUR21WDDUBEMSLDIXZW1FAIHVWXYO","","374","img/land2.png","75","374","2","1","1","2","0.8,0.2,0.2,0.2,0.8,0.2,0.2,0.2,0.8","0.2,0.8,0.2,0.2,0.2,0.8,0.8,0.2,0.2","3","",""
"","html-keyboard-response","206","104059","0.0-206.0","37C0GNLMHGP0RM4KCG8UD0JLAEY6DD","AFK9ALQK5GPNG","3HUR21WDDUBEMSLDIXZW1FAIHVWXYO","","null","<img src=""img/land2.png"" style=""width:200px; border:14px solid green;"">","null","","","","","","","","","",""
"","image-keyboard-response","207","104418","0.0-207.0","37C0GNLMHGP0RM4KCG8UD0JLAEY6DD","AFK9ALQK5GPNG","3HUR21WDDUBEMSLDIXZW1FAIHVWXYO","","358","img/land2.png","75","359","2","1","1","2","0.8,0.2,0.2,0.2,0.8,0.2,0.2,0.2,0.8","0.2,0.8,0.2,0.2,0.2,0.8,0.8,0.2,0.2","3","",""
"","html-keyboard-response","208","104722","0.0-208.0","37C0GNLMHGP0RM4KCG8UD0JLAEY6DD","AFK9ALQK5GPNG","3HUR21WDDUBEMSLDIXZW1FAIHVWXYO","","null","<img src=""img/land2.png"" style=""width:200px; border:14px solid green;"">","null","","","","","","","","","",""
"","image-keyboard-response","209","105092","0.0-209.0","37C0GNLMHGP0RM4KCG8UD0JLAEY6DD","AFK9ALQK5GPNG","3HUR21WDDUBEMSLDIXZW1FAIHVWXYO","","369","img/land2.png","75","369","2","0","1","2","0.8,0.2,0.2,0.2,0.8,0.2,0.2,0.2,0.8","0.2,0.8,0.2,0.2,0.2,0.8,0.8,0.2,0.2","3","",""
"","html-keyboard-response","210","105403","0.0-210.0","37C0GNLMHGP0RM4KCG8UD0JLAEY6DD","AFK9ALQK5GPNG","3HUR21WDDUBEMSLDIXZW1FAIHVWXYO","","null","<img src=""img/land2.png"" style=""width:200px;border:14px solid red;"">","null","","","","","","","","","",""
"","image-keyboard-response","211","106071","0.0-211.0","37C0GNLMHGP0RM4KCG8UD0JLAEY6DD","AFK9ALQK5GPNG","3HUR21WDDUBEMSLDIXZW1FAIHVWXYO","","668","img/land1.png","76","669","3","1","2","2","0.8,0.2,0.2,0.2,0.8,0.2,0.2,0.2,0.8","0.2,0.8,0.2,0.2,0.2,0.8,0.8,0.2,0.2","3","",""
"","html-keyboard-response","212","106374","0.0-212.0","37C0GNLMHGP0RM4KCG8UD0JLAEY6DD","AFK9ALQK5GPNG","3HUR21WDDUBEMSLDIXZW1FAIHVWXYO","","null","<img src=""img/land1.png"" style=""width:200px; border:14px solid green;"">","null","","","","","","","","","",""
"","image-keyboard-response","213","106852","0.0-213.0","37C0GNLMHGP0RM4KCG8UD0JLAEY6DD","AFK9ALQK5GPNG","3HUR21WDDUBEMSLDIXZW1FAIHVWXYO","","477","img/land2.png","75","478","2","0","1","2","0.8,0.2,0.2,0.2,0.8,0.2,0.2,0.2,0.8","0.2,0.8,0.2,0.2,0.2,0.8,0.8,0.2,0.2","3","",""
"","html-keyboard-response","214","107164","0.0-214.0","37C0GNLMHGP0RM4KCG8UD0JLAEY6DD","AFK9ALQK5GPNG","3HUR21WDDUBEMSLDIXZW1FAIHVWXYO","","null","<img src=""img/land2.png"" style=""width:200px;border:14px solid red;"">","null","","","","","","","","","",""
"","image-keyboard-response","215","107831","0.0-215.0","37C0GNLMHGP0RM4KCG8UD0JLAEY6DD","AFK9ALQK5GPNG","3HUR21WDDUBEMSLDIXZW1FAIHVWXYO","","665","img/land2.png","76","667","3","0","1","2","0.8,0.2,0.2,0.2,0.8,0.2,0.2,0.2,0.8","0.2,0.8,0.2,0.2,0.2,0.8,0.8,0.2,0.2","3","",""
"","html-keyboard-response","216","108132","0.0-216.0","37C0GNLMHGP0RM4KCG8UD0JLAEY6DD","AFK9ALQK5GPNG","3HUR21WDDUBEMSLDIXZW1FAIHVWXYO","","null","<img src=""img/land2.png"" style=""width:200px;border:14px solid red;"">","null","","","","","","","","","",""
"","image-keyboard-response","217","108661","0.0-217.0","37C0GNLMHGP0RM4KCG8UD0JLAEY6DD","AFK9ALQK5GPNG","3HUR21WDDUBEMSLDIXZW1FAIHVWXYO","","528","img/land2.png","74","528","1","1","1","2","0.8,0.2,0.2,0.2,0.8,0.2,0.2,0.2,0.8","0.2,0.8,0.2,0.2,0.2,0.8,0.8,0.2,0.2","3","",""
"","html-keyboard-response","218","108976","0.0-218.0","37C0GNLMHGP0RM4KCG8UD0JLAEY6DD","AFK9ALQK5GPNG","3HUR21WDDUBEMSLDIXZW1FAIHVWXYO","","null","<img src=""img/land2.png"" style=""width:200px; border:14px solid green;"">","null","","","","","","","","","",""
"","image-keyboard-response","219","109764","0.0-219.0","37C0GNLMHGP0RM4KCG8UD0JLAEY6DD","AFK9ALQK5GPNG","3HUR21WDDUBEMSLDIXZW1FAIHVWXYO","","787","img/land1.png","76","789","3","1","2","2","0.8,0.2,0.2,0.2,0.8,0.2,0.2,0.2,0.8","0.2,0.8,0.2,0.2,0.2,0.8,0.8,0.2,0.2","3","",""
"","html-keyboard-response","220","110079","0.0-220.0","37C0GNLMHGP0RM4KCG8UD0JLAEY6DD","AFK9ALQK5GPNG","3HUR21WDDUBEMSLDIXZW1FAIHVWXYO","","null","<img src=""img/land1.png"" style=""width:200px; border:14px solid green;"">","null","","","","","","","","","",""
"","image-keyboard-response","221","110519","0.0-221.0","37C0GNLMHGP0RM4KCG8UD0JLAEY6DD","AFK9ALQK5GPNG","3HUR21WDDUBEMSLDIXZW1FAIHVWXYO","","439","img/land2.png","74","440","1","0","1","2","0.8,0.2,0.2,0.2,0.8,0.2,0.2,0.2,0.8","0.2,0.8,0.2,0.2,0.2,0.8,0.8,0.2,0.2","3","",""
"","html-keyboard-response","222","110823","0.0-222.0","37C0GNLMHGP0RM4KCG8UD0JLAEY6DD","AFK9ALQK5GPNG","3HUR21WDDUBEMSLDIXZW1FAIHVWXYO","","null","<img src=""img/land2.png"" style=""width:200px;border:14px solid red;"">","null","","","","","","","","","",""
"","image-keyboard-response","223","111193","0.0-223.0","37C0GNLMHGP0RM4KCG8UD0JLAEY6DD","AFK9ALQK5GPNG","3HUR21WDDUBEMSLDIXZW1FAIHVWXYO","","369","img/land2.png","75","370","2","1","1","2","0.8,0.2,0.2,0.2,0.8,0.2,0.2,0.2,0.8","0.2,0.8,0.2,0.2,0.2,0.8,0.8,0.2,0.2","3","",""
"","html-keyboard-response","224","111497","0.0-224.0","37C0GNLMHGP0RM4KCG8UD0JLAEY6DD","AFK9ALQK5GPNG","3HUR21WDDUBEMSLDIXZW1FAIHVWXYO","","null","<img src=""img/land2.png"" style=""width:200px; border:14px solid green;"">","null","","","","","","","","","",""
"","image-keyboard-response","225","111989","0.0-225.0","37C0GNLMHGP0RM4KCG8UD0JLAEY6DD","AFK9ALQK5GPNG","3HUR21WDDUBEMSLDIXZW1FAIHVWXYO","","492","img/land2.png","75","493","2","1","1","2","0.8,0.2,0.2,0.2,0.8,0.2,0.2,0.2,0.8","0.2,0.8,0.2,0.2,0.2,0.8,0.8,0.2,0.2","3","",""
"","html-keyboard-response","226","112297","0.0-226.0","37C0GNLMHGP0RM4KCG8UD0JLAEY6DD","AFK9ALQK5GPNG","3HUR21WDDUBEMSLDIXZW1FAIHVWXYO","","null","<img src=""img/land2.png"" style=""width:200px; border:14px solid green;"">","null","","","","","","","","","",""
"","image-keyboard-response","227","113005","0.0-227.0","37C0GNLMHGP0RM4KCG8UD0JLAEY6DD","AFK9ALQK5GPNG","3HUR21WDDUBEMSLDIXZW1FAIHVWXYO","","706","img/land2.png","75","706","2","1","1","2","0.8,0.2,0.2,0.2,0.8,0.2,0.2,0.2,0.8","0.2,0.8,0.2,0.2,0.2,0.8,0.8,0.2,0.2","3","",""
"","html-keyboard-response","228","113315","0.0-228.0","37C0GNLMHGP0RM4KCG8UD0JLAEY6DD","AFK9ALQK5GPNG","3HUR21WDDUBEMSLDIXZW1FAIHVWXYO","","null","<img src=""img/land2.png"" style=""width:200px; border:14px solid green;"">","null","","","","","","","","","",""
"","image-keyboard-response","229","114151","0.0-229.0","37C0GNLMHGP0RM4KCG8UD0JLAEY6DD","AFK9ALQK5GPNG","3HUR21WDDUBEMSLDIXZW1FAIHVWXYO","","834","img/land5.png","75","835","2","0","3","2","0.8,0.2,0.2,0.2,0.8,0.2,0.2,0.2,0.8","0.2,0.8,0.2,0.2,0.2,0.8,0.8,0.2,0.2","3","",""
"","html-keyboard-response","230","114461","0.0-230.0","37C0GNLMHGP0RM4KCG8UD0JLAEY6DD","AFK9ALQK5GPNG","3HUR21WDDUBEMSLDIXZW1FAIHVWXYO","","null","<img src=""img/land5.png"" style=""width:200px;border:14px solid red;"">","null","","","","","","","","","",""
"","image-keyboard-response","231","114952","0.0-231.0","37C0GNLMHGP0RM4KCG8UD0JLAEY6DD","AFK9ALQK5GPNG","3HUR21WDDUBEMSLDIXZW1FAIHVWXYO","","491","img/land2.png","75","491","2","0","1","2","0.8,0.2,0.2,0.2,0.8,0.2,0.2,0.2,0.8","0.2,0.8,0.2,0.2,0.2,0.8,0.8,0.2,0.2","3","",""
"","html-keyboard-response","232","115253","0.0-232.0","37C0GNLMHGP0RM4KCG8UD0JLAEY6DD","AFK9ALQK5GPNG","3HUR21WDDUBEMSLDIXZW1FAIHVWXYO","","null","<img src=""img/land2.png"" style=""width:200px;border:14px solid red;"">","null","","","","","","","","","",""
"","image-keyboard-response","233","115671","0.0-233.0","37C0GNLMHGP0RM4KCG8UD0JLAEY6DD","AFK9ALQK5GPNG","3HUR21WDDUBEMSLDIXZW1FAIHVWXYO","","416","img/land2.png","75","418","2","1","1","2","0.8,0.2,0.2,0.2,0.8,0.2,0.2,0.2,0.8","0.2,0.8,0.2,0.2,0.2,0.8,0.8,0.2,0.2","3","",""
"","html-keyboard-response","234","115986","0.0-234.0","37C0GNLMHGP0RM4KCG8UD0JLAEY6DD","AFK9ALQK5GPNG","3HUR21WDDUBEMSLDIXZW1FAIHVWXYO","","null","<img src=""img/land2.png"" style=""width:200px; border:14px solid green;"">","null","","","","","","","","","",""
"","image-keyboard-response","235","116555","0.0-235.0","37C0GNLMHGP0RM4KCG8UD0JLAEY6DD","AFK9ALQK5GPNG","3HUR21WDDUBEMSLDIXZW1FAIHVWXYO","","568","img/land1.png","76","569","3","1","2","2","0.8,0.2,0.2,0.2,0.8,0.2,0.2,0.2,0.8","0.2,0.8,0.2,0.2,0.2,0.8,0.8,0.2,0.2","3","",""
"","html-keyboard-response","236","116860","0.0-236.0","37C0GNLMHGP0RM4KCG8UD0JLAEY6DD","AFK9ALQK5GPNG","3HUR21WDDUBEMSLDIXZW1FAIHVWXYO","","null","<img src=""img/land1.png"" style=""width:200px; border:14px solid green;"">","null","","","","","","","","","",""
"","image-keyboard-response","237","117426","0.0-237.0","37C0GNLMHGP0RM4KCG8UD0JLAEY6DD","AFK9ALQK5GPNG","3HUR21WDDUBEMSLDIXZW1FAIHVWXYO","","565","img/land5.png","75","566","2","0","3","2","0.8,0.2,0.2,0.2,0.8,0.2,0.2,0.2,0.8","0.2,0.8,0.2,0.2,0.2,0.8,0.8,0.2,0.2","3","",""
"","html-keyboard-response","238","117728","0.0-238.0","37C0GNLMHGP0RM4KCG8UD0JLAEY6DD","AFK9ALQK5GPNG","3HUR21WDDUBEMSLDIXZW1FAIHVWXYO","","null","<img src=""img/land5.png"" style=""width:200px;border:14px solid red;"">","null","","","","","","","","","",""
"","image-keyboard-response","239","118456","0.0-239.0","37C0GNLMHGP0RM4KCG8UD0JLAEY6DD","AFK9ALQK5GPNG","3HUR21WDDUBEMSLDIXZW1FAIHVWXYO","","726","img/land1.png","76","728","3","0","2","2","0.8,0.2,0.2,0.2,0.8,0.2,0.2,0.2,0.8","0.2,0.8,0.2,0.2,0.2,0.8,0.8,0.2,0.2","3","",""
"","html-keyboard-response","240","118766","0.0-240.0","37C0GNLMHGP0RM4KCG8UD0JLAEY6DD","AFK9ALQK5GPNG","3HUR21WDDUBEMSLDIXZW1FAIHVWXYO","","null","<img src=""img/land1.png"" style=""width:200px;border:14px solid red;"">","null","","","","","","","","","",""
"","image-keyboard-response","241","119588","0.0-241.0","37C0GNLMHGP0RM4KCG8UD0JLAEY6DD","AFK9ALQK5GPNG","3HUR21WDDUBEMSLDIXZW1FAIHVWXYO","","821","img/land2.png","75","822","2","1","1","2","0.8,0.2,0.2,0.2,0.8,0.2,0.2,0.2,0.8","0.2,0.8,0.2,0.2,0.2,0.8,0.8,0.2,0.2","3","",""
"","html-keyboard-response","242","119890","0.0-242.0","37C0GNLMHGP0RM4KCG8UD0JLAEY6DD","AFK9ALQK5GPNG","3HUR21WDDUBEMSLDIXZW1FAIHVWXYO","","null","<img src=""img/land2.png"" style=""width:200px; border:14px solid green;"">","null","","","","","","","","","",""
"","image-keyboard-response","243","120274","0.0-243.0","37C0GNLMHGP0RM4KCG8UD0JLAEY6DD","AFK9ALQK5GPNG","3HUR21WDDUBEMSLDIXZW1FAIHVWXYO","","384","img/land2.png","75","384","2","1","1","2","0.8,0.2,0.2,0.2,0.8,0.2,0.2,0.2,0.8","0.2,0.8,0.2,0.2,0.2,0.8,0.8,0.2,0.2","3","",""
"","html-keyboard-response","244","120586","0.0-244.0","37C0GNLMHGP0RM4KCG8UD0JLAEY6DD","AFK9ALQK5GPNG","3HUR21WDDUBEMSLDIXZW1FAIHVWXYO","","null","<img src=""img/land2.png"" style=""width:200px; border:14px solid green;"">","null","","","","","","","","","",""
"","image-keyboard-response","245","120968","0.0-245.0","37C0GNLMHGP0RM4KCG8UD0JLAEY6DD","AFK9ALQK5GPNG","3HUR21WDDUBEMSLDIXZW1FAIHVWXYO","","381","img/land2.png","75","382","2","1","1","2","0.8,0.2,0.2,0.2,0.8,0.2,0.2,0.2,0.8","0.2,0.8,0.2,0.2,0.2,0.8,0.8,0.2,0.2","3","",""
"","html-keyboard-response","246","121279","0.0-246.0","37C0GNLMHGP0RM4KCG8UD0JLAEY6DD","AFK9ALQK5GPNG","3HUR21WDDUBEMSLDIXZW1FAIHVWXYO","","null","<img src=""img/land2.png"" style=""width:200px; border:14px solid green;"">","null","","","","","","","","","",""
"","image-keyboard-response","247","121678","0.0-247.0","37C0GNLMHGP0RM4KCG8UD0JLAEY6DD","AFK9ALQK5GPNG","3HUR21WDDUBEMSLDIXZW1FAIHVWXYO","","399","img/land2.png","75","400","2","1","1","2","0.8,0.2,0.2,0.2,0.8,0.2,0.2,0.2,0.8","0.2,0.8,0.2,0.2,0.2,0.8,0.8,0.2,0.2","3","",""
"","html-keyboard-response","248","121989","0.0-248.0","37C0GNLMHGP0RM4KCG8UD0JLAEY6DD","AFK9ALQK5GPNG","3HUR21WDDUBEMSLDIXZW1FAIHVWXYO","","null","<img src=""img/land2.png"" style=""width:200px; border:14px solid green;"">","null","","","","","","","","","",""
"","image-keyboard-response","249","122449","0.0-249.0","37C0GNLMHGP0RM4KCG8UD0JLAEY6DD","AFK9ALQK5GPNG","3HUR21WDDUBEMSLDIXZW1FAIHVWXYO","","458","img/land5.png","74","460","1","1","3","2","0.8,0.2,0.2,0.2,0.8,0.2,0.2,0.2,0.8","0.2,0.8,0.2,0.2,0.2,0.8,0.8,0.2,0.2","3","",""
"","html-keyboard-response","250","122756","0.0-250.0","37C0GNLMHGP0RM4KCG8UD0JLAEY6DD","AFK9ALQK5GPNG","3HUR21WDDUBEMSLDIXZW1FAIHVWXYO","","null","<img src=""img/land5.png"" style=""width:200px; border:14px solid green;"">","null","","","","","","","","","",""
"","image-keyboard-response","251","123211","0.0-251.0","37C0GNLMHGP0RM4KCG8UD0JLAEY6DD","AFK9ALQK5GPNG","3HUR21WDDUBEMSLDIXZW1FAIHVWXYO","","454","img/land2.png","75","454","2","1","1","2","0.8,0.2,0.2,0.2,0.8,0.2,0.2,0.2,0.8","0.2,0.8,0.2,0.2,0.2,0.8,0.8,0.2,0.2","3","",""
"","html-keyboard-response","252","123522","0.0-252.0","37C0GNLMHGP0RM4KCG8UD0JLAEY6DD","AFK9ALQK5GPNG","3HUR21WDDUBEMSLDIXZW1FAIHVWXYO","","null","<img src=""img/land2.png"" style=""width:200px; border:14px solid green;"">","null","","","","","","","","","",""
"","image-keyboard-response","253","123897","0.0-253.0","37C0GNLMHGP0RM4KCG8UD0JLAEY6DD","AFK9ALQK5GPNG","3HUR21WDDUBEMSLDIXZW1FAIHVWXYO","","374","img/land5.png","74","375","1","0","3","2","0.8,0.2,0.2,0.2,0.8,0.2,0.2,0.2,0.8","0.2,0.8,0.2,0.2,0.2,0.8,0.8,0.2,0.2","3","",""
"","html-keyboard-response","254","124210","0.0-254.0","37C0GNLMHGP0RM4KCG8UD0JLAEY6DD","AFK9ALQK5GPNG","3HUR21WDDUBEMSLDIXZW1FAIHVWXYO","","null","<img src=""img/land5.png"" style=""width:200px;border:14px solid red;"">","null","","","","","","","","","",""
"","image-keyboard-response","255","124559","0.0-255.0","37C0GNLMHGP0RM4KCG8UD0JLAEY6DD","AFK9ALQK5GPNG","3HUR21WDDUBEMSLDIXZW1FAIHVWXYO","","348","img/land2.png","75","349","2","0","1","2","0.8,0.2,0.2,0.2,0.8,0.2,0.2,0.2,0.8","0.2,0.8,0.2,0.2,0.2,0.8,0.8,0.2,0.2","3","",""
"","html-keyboard-response","256","124860","0.0-256.0","37C0GNLMHGP0RM4KCG8UD0JLAEY6DD","AFK9ALQK5GPNG","3HUR21WDDUBEMSLDIXZW1FAIHVWXYO","","null","<img src=""img/land2.png"" style=""width:200px;border:14px solid red;"">","null","","","","","","","","","",""
"","image-keyboard-response","257","125460","0.0-257.0","37C0GNLMHGP0RM4KCG8UD0JLAEY6DD","AFK9ALQK5GPNG","3HUR21WDDUBEMSLDIXZW1FAIHVWXYO","","600","img/land5.png","74","600","1","0","3","2","0.8,0.2,0.2,0.2,0.8,0.2,0.2,0.2,0.8","0.2,0.8,0.2,0.2,0.2,0.8,0.8,0.2,0.2","3","",""
"","html-keyboard-response","258","125776","0.0-258.0","37C0GNLMHGP0RM4KCG8UD0JLAEY6DD","AFK9ALQK5GPNG","3HUR21WDDUBEMSLDIXZW1FAIHVWXYO","","null","<img src=""img/land5.png"" style=""width:200px;border:14px solid red;"">","null","","","","","","","","","",""
"","image-keyboard-response","259","126297","0.0-259.0","37C0GNLMHGP0RM4KCG8UD0JLAEY6DD","AFK9ALQK5GPNG","3HUR21WDDUBEMSLDIXZW1FAIHVWXYO","","520","img/land5.png","76","520","3","1","3","2","0.8,0.2,0.2,0.2,0.8,0.2,0.2,0.2,0.8","0.2,0.8,0.2,0.2,0.2,0.8,0.8,0.2,0.2","3","",""
"","html-keyboard-response","260","126602","0.0-260.0","37C0GNLMHGP0RM4KCG8UD0JLAEY6DD","AFK9ALQK5GPNG","3HUR21WDDUBEMSLDIXZW1FAIHVWXYO","","null","<img src=""img/land5.png"" style=""width:200px; border:14px solid green;"">","null","","","","","","","","","",""
"","image-keyboard-response","261","127243","0.0-261.0","37C0GNLMHGP0RM4KCG8UD0JLAEY6DD","AFK9ALQK5GPNG","3HUR21WDDUBEMSLDIXZW1FAIHVWXYO","","640","img/land1.png","76","641","3","1","2","2","0.8,0.2,0.2,0.2,0.8,0.2,0.2,0.2,0.8","0.2,0.8,0.2,0.2,0.2,0.8,0.8,0.2,0.2","3","",""
"","html-keyboard-response","262","127548","0.0-262.0","37C0GNLMHGP0RM4KCG8UD0JLAEY6DD","AFK9ALQK5GPNG","3HUR21WDDUBEMSLDIXZW1FAIHVWXYO","","null","<img src=""img/land1.png"" style=""width:200px; border:14px solid green;"">","null","","","","","","","","","",""
"","image-keyboard-response","263","128085","0.0-263.0","37C0GNLMHGP0RM4KCG8UD0JLAEY6DD","AFK9ALQK5GPNG","3HUR21WDDUBEMSLDIXZW1FAIHVWXYO","","537","img/land2.png","75","537","2","1","1","2","0.8,0.2,0.2,0.2,0.8,0.2,0.2,0.2,0.8","0.2,0.8,0.2,0.2,0.2,0.8,0.8,0.2,0.2","3","",""
"","html-keyboard-response","264","128388","0.0-264.0","37C0GNLMHGP0RM4KCG8UD0JLAEY6DD","AFK9ALQK5GPNG","3HUR21WDDUBEMSLDIXZW1FAIHVWXYO","","null","<img src=""img/land2.png"" style=""width:200px; border:14px solid green;"">","null","","","","","","","","","",""
"","image-keyboard-response","265","128743","0.0-265.0","37C0GNLMHGP0RM4KCG8UD0JLAEY6DD","AFK9ALQK5GPNG","3HUR21WDDUBEMSLDIXZW1FAIHVWXYO","","355","img/land2.png","75","355","2","0","1","2","0.8,0.2,0.2,0.2,0.8,0.2,0.2,0.2,0.8","0.2,0.8,0.2,0.2,0.2,0.8,0.8,0.2,0.2","3","",""
"","html-keyboard-response","266","129053","0.0-266.0","37C0GNLMHGP0RM4KCG8UD0JLAEY6DD","AFK9ALQK5GPNG","3HUR21WDDUBEMSLDIXZW1FAIHVWXYO","","null","<img src=""img/land2.png"" style=""width:200px;border:14px solid red;"">","null","","","","","","","","","",""
"","image-keyboard-response","267","129485","0.0-267.0","37C0GNLMHGP0RM4KCG8UD0JLAEY6DD","AFK9ALQK5GPNG","3HUR21WDDUBEMSLDIXZW1FAIHVWXYO","","432","img/land2.png","75","433","2","1","1","2","0.8,0.2,0.2,0.2,0.8,0.2,0.2,0.2,0.8","0.2,0.8,0.2,0.2,0.2,0.8,0.8,0.2,0.2","3","",""
"","html-keyboard-response","268","129798","0.0-268.0","37C0GNLMHGP0RM4KCG8UD0JLAEY6DD","AFK9ALQK5GPNG","3HUR21WDDUBEMSLDIXZW1FAIHVWXYO","","null","<img src=""img/land2.png"" style=""width:200px; border:14px solid green;"">","null","","","","","","","","","",""
"","image-keyboard-response","269","130272","0.0-269.0","37C0GNLMHGP0RM4KCG8UD0JLAEY6DD","AFK9ALQK5GPNG","3HUR21WDDUBEMSLDIXZW1FAIHVWXYO","","473","img/land5.png","76","473","3","0","3","2","0.8,0.2,0.2,0.2,0.8,0.2,0.2,0.2,0.8","0.2,0.8,0.2,0.2,0.2,0.8,0.8,0.2,0.2","3","",""
"","html-keyboard-response","270","130577","0.0-270.0","37C0GNLMHGP0RM4KCG8UD0JLAEY6DD","AFK9ALQK5GPNG","3HUR21WDDUBEMSLDIXZW1FAIHVWXYO","","null","<img src=""img/land5.png"" style=""width:200px;border:14px solid red;"">","null","","","","","","","","","",""
"","image-keyboard-response","271","131073","0.0-271.0","37C0GNLMHGP0RM4KCG8UD0JLAEY6DD","AFK9ALQK5GPNG","3HUR21WDDUBEMSLDIXZW1FAIHVWXYO","","495","img/land2.png","75","495","2","0","1","2","0.8,0.2,0.2,0.2,0.8,0.2,0.2,0.2,0.8","0.2,0.8,0.2,0.2,0.2,0.8,0.8,0.2,0.2","3","",""
"","html-keyboard-response","272","131384","0.0-272.0","37C0GNLMHGP0RM4KCG8UD0JLAEY6DD","AFK9ALQK5GPNG","3HUR21WDDUBEMSLDIXZW1FAIHVWXYO","","null","<img src=""img/land2.png"" style=""width:200px;border:14px solid red;"">","null","","","","","","","","","",""
"","image-keyboard-response","273","131838","0.0-273.0","37C0GNLMHGP0RM4KCG8UD0JLAEY6DD","AFK9ALQK5GPNG","3HUR21WDDUBEMSLDIXZW1FAIHVWXYO","","453","img/land2.png","75","454","2","1","1","2","0.8,0.2,0.2,0.2,0.8,0.2,0.2,0.2,0.8","0.2,0.8,0.2,0.2,0.2,0.8,0.8,0.2,0.2","3","",""
"","html-keyboard-response","274","132146","0.0-274.0","37C0GNLMHGP0RM4KCG8UD0JLAEY6DD","AFK9ALQK5GPNG","3HUR21WDDUBEMSLDIXZW1FAIHVWXYO","","null","<img src=""img/land2.png"" style=""width:200px; border:14px solid green;"">","null","","","","","","","","","",""
"","image-keyboard-response","275","132671","0.0-275.0","37C0GNLMHGP0RM4KCG8UD0JLAEY6DD","AFK9ALQK5GPNG","3HUR21WDDUBEMSLDIXZW1FAIHVWXYO","","524","img/land2.png","75","525","2","0","1","2","0.8,0.2,0.2,0.2,0.8,0.2,0.2,0.2,0.8","0.2,0.8,0.2,0.2,0.2,0.8,0.8,0.2,0.2","3","",""
"","html-keyboard-response","276","132979","0.0-276.0","37C0GNLMHGP0RM4KCG8UD0JLAEY6DD","AFK9ALQK5GPNG","3HUR21WDDUBEMSLDIXZW1FAIHVWXYO","","null","<img src=""img/land2.png"" style=""width:200px;border:14px solid red;"">","null","","","","","","","","","",""
"","image-keyboard-response","277","133642","0.0-277.0","37C0GNLMHGP0RM4KCG8UD0JLAEY6DD","AFK9ALQK5GPNG","3HUR21WDDUBEMSLDIXZW1FAIHVWXYO","","663","img/land5.png","76","663","3","0","3","2","0.8,0.2,0.2,0.2,0.8,0.2,0.2,0.2,0.8","0.2,0.8,0.2,0.2,0.2,0.8,0.8,0.2,0.2","3","",""
"","html-keyboard-response","278","133958","0.0-278.0","37C0GNLMHGP0RM4KCG8UD0JLAEY6DD","AFK9ALQK5GPNG","3HUR21WDDUBEMSLDIXZW1FAIHVWXYO","","null","<img src=""img/land5.png"" style=""width:200px;border:14px solid red;"">","null","","","","","","","","","",""
"","image-keyboard-response","279","134528","0.0-279.0","37C0GNLMHGP0RM4KCG8UD0JLAEY6DD","AFK9ALQK5GPNG","3HUR21WDDUBEMSLDIXZW1FAIHVWXYO","","570","img/land2.png","75","570","2","1","1","2","0.8,0.2,0.2,0.2,0.8,0.2,0.2,0.2,0.8","0.2,0.8,0.2,0.2,0.2,0.8,0.8,0.2,0.2","3","",""
"","html-keyboard-response","280","134842","0.0-280.0","37C0GNLMHGP0RM4KCG8UD0JLAEY6DD","AFK9ALQK5GPNG","3HUR21WDDUBEMSLDIXZW1FAIHVWXYO","","null","<img src=""img/land2.png"" style=""width:200px; border:14px solid green;"">","null","","","","","","","","","",""
"","image-keyboard-response","281","135242","0.0-281.0","37C0GNLMHGP0RM4KCG8UD0JLAEY6DD","AFK9ALQK5GPNG","3HUR21WDDUBEMSLDIXZW1FAIHVWXYO","","401","img/land2.png","75","401","2","0","1","2","0.8,0.2,0.2,0.2,0.8,0.2,0.2,0.2,0.8","0.2,0.8,0.2,0.2,0.2,0.8,0.8,0.2,0.2","3","",""
"","html-keyboard-response","282","135544","0.0-282.0","37C0GNLMHGP0RM4KCG8UD0JLAEY6DD","AFK9ALQK5GPNG","3HUR21WDDUBEMSLDIXZW1FAIHVWXYO","","null","<img src=""img/land2.png"" style=""width:200px;border:14px solid red;"">","null","","","","","","","","","",""
"","image-keyboard-response","283","136050","0.0-283.0","37C0GNLMHGP0RM4KCG8UD0JLAEY6DD","AFK9ALQK5GPNG","3HUR21WDDUBEMSLDIXZW1FAIHVWXYO","","505","img/land5.png","75","505","2","0","3","2","0.8,0.2,0.2,0.2,0.8,0.2,0.2,0.2,0.8","0.2,0.8,0.2,0.2,0.2,0.8,0.8,0.2,0.2","3","",""
"","html-keyboard-response","284","136358","0.0-284.0","37C0GNLMHGP0RM4KCG8UD0JLAEY6DD","AFK9ALQK5GPNG","3HUR21WDDUBEMSLDIXZW1FAIHVWXYO","","null","<img src=""img/land5.png"" style=""width:200px;border:14px solid red;"">","null","","","","","","","","","",""
"","image-keyboard-response","285","136823","0.0-285.0","37C0GNLMHGP0RM4KCG8UD0JLAEY6DD","AFK9ALQK5GPNG","3HUR21WDDUBEMSLDIXZW1FAIHVWXYO","","463","img/land2.png","75","464","2","0","1","2","0.8,0.2,0.2,0.2,0.8,0.2,0.2,0.2,0.8","0.2,0.8,0.2,0.2,0.2,0.8,0.8,0.2,0.2","3","",""
"","html-keyboard-response","286","137136","0.0-286.0","37C0GNLMHGP0RM4KCG8UD0JLAEY6DD","AFK9ALQK5GPNG","3HUR21WDDUBEMSLDIXZW1FAIHVWXYO","","null","<img src=""img/land2.png"" style=""width:200px;border:14px solid red;"">","null","","","","","","","","","",""
"","image-keyboard-response","287","137649","0.0-287.0","37C0GNLMHGP0RM4KCG8UD0JLAEY6DD","AFK9ALQK5GPNG","3HUR21WDDUBEMSLDIXZW1FAIHVWXYO","","513","img/land1.png","76","514","3","1","2","2","0.8,0.2,0.2,0.2,0.8,0.2,0.2,0.2,0.8","0.2,0.8,0.2,0.2,0.2,0.8,0.8,0.2,0.2","3","",""
"","html-keyboard-response","288","137961","0.0-288.0","37C0GNLMHGP0RM4KCG8UD0JLAEY6DD","AFK9ALQK5GPNG","3HUR21WDDUBEMSLDIXZW1FAIHVWXYO","","null","<img src=""img/land1.png"" style=""width:200px; border:14px solid green;"">","null","","","","","","","","","",""
"","image-keyboard-response","289","138609","0.0-289.0","37C0GNLMHGP0RM4KCG8UD0JLAEY6DD","AFK9ALQK5GPNG","3HUR21WDDUBEMSLDIXZW1FAIHVWXYO","","647","img/land2.png","75","647","2","1","1","2","0.8,0.2,0.2,0.2,0.8,0.2,0.2,0.2,0.8","0.2,0.8,0.2,0.2,0.2,0.8,0.8,0.2,0.2","3","",""
"","html-keyboard-response","290","138915","0.0-290.0","37C0GNLMHGP0RM4KCG8UD0JLAEY6DD","AFK9ALQK5GPNG","3HUR21WDDUBEMSLDIXZW1FAIHVWXYO","","null","<img src=""img/land2.png"" style=""width:200px; border:14px solid green;"">","null","","","","","","","","","",""
"","image-keyboard-response","291","139352","0.0-291.0","37C0GNLMHGP0RM4KCG8UD0JLAEY6DD","AFK9ALQK5GPNG","3HUR21WDDUBEMSLDIXZW1FAIHVWXYO","","435","img/land1.png","76","436","3","0","2","2","0.8,0.2,0.2,0.2,0.8,0.2,0.2,0.2,0.8","0.2,0.8,0.2,0.2,0.2,0.8,0.8,0.2,0.2","3","",""
"","html-keyboard-response","292","139668","0.0-292.0","37C0GNLMHGP0RM4KCG8UD0JLAEY6DD","AFK9ALQK5GPNG","3HUR21WDDUBEMSLDIXZW1FAIHVWXYO","","null","<img src=""img/land1.png"" style=""width:200px;border:14px solid red;"">","null","","","","","","","","","",""
"","image-keyboard-response","293","140224","0.0-293.0","37C0GNLMHGP0RM4KCG8UD0JLAEY6DD","AFK9ALQK5GPNG","3HUR21WDDUBEMSLDIXZW1FAIHVWXYO","","556","img/land1.png","75","556","2","0","2","2","0.8,0.2,0.2,0.2,0.8,0.2,0.2,0.2,0.8","0.2,0.8,0.2,0.2,0.2,0.8,0.8,0.2,0.2","3","",""
"","html-keyboard-response","294","140529","0.0-294.0","37C0GNLMHGP0RM4KCG8UD0JLAEY6DD","AFK9ALQK5GPNG","3HUR21WDDUBEMSLDIXZW1FAIHVWXYO","","null","<img src=""img/land1.png"" style=""width:200px;border:14px solid red;"">","null","","","","","","","","","",""
"","image-keyboard-response","295","140997","0.0-295.0","37C0GNLMHGP0RM4KCG8UD0JLAEY6DD","AFK9ALQK5GPNG","3HUR21WDDUBEMSLDIXZW1FAIHVWXYO","","467","img/land5.png","76","467","3","0","3","2","0.8,0.2,0.2,0.2,0.8,0.2,0.2,0.2,0.8","0.2,0.8,0.2,0.2,0.2,0.8,0.8,0.2,0.2","3","",""
"","html-keyboard-response","296","141312","0.0-296.0","37C0GNLMHGP0RM4KCG8UD0JLAEY6DD","AFK9ALQK5GPNG","3HUR21WDDUBEMSLDIXZW1FAIHVWXYO","","null","<img src=""img/land5.png"" style=""width:200px;border:14px solid red;"">","null","","","","","","","","","",""
"","image-keyboard-response","297","141753","0.0-297.0","37C0GNLMHGP0RM4KCG8UD0JLAEY6DD","AFK9ALQK5GPNG","3HUR21WDDUBEMSLDIXZW1FAIHVWXYO","","440","img/land5.png","75","440","2","0","3","2","0.8,0.2,0.2,0.2,0.8,0.2,0.2,0.2,0.8","0.2,0.8,0.2,0.2,0.2,0.8,0.8,0.2,0.2","3","",""
"","html-keyboard-response","298","142066","0.0-298.0","37C0GNLMHGP0RM4KCG8UD0JLAEY6DD","AFK9ALQK5GPNG","3HUR21WDDUBEMSLDIXZW1FAIHVWXYO","","null","<img src=""img/land5.png"" style=""width:200px;border:14px solid red;"">","null","","","","","","","","","",""
"","image-keyboard-response","299","142630","0.0-299.0","37C0GNLMHGP0RM4KCG8UD0JLAEY6DD","AFK9ALQK5GPNG","3HUR21WDDUBEMSLDIXZW1FAIHVWXYO","","563","img/land2.png","75","563","2","1","1","2","0.8,0.2,0.2,0.2,0.8,0.2,0.2,0.2,0.8","0.2,0.8,0.2,0.2,0.2,0.8,0.8,0.2,0.2","3","",""
"","html-keyboard-response","300","142937","0.0-300.0","37C0GNLMHGP0RM4KCG8UD0JLAEY6DD","AFK9ALQK5GPNG","3HUR21WDDUBEMSLDIXZW1FAIHVWXYO","","null","<img src=""img/land2.png"" style=""width:200px; border:14px solid green;"">","null","","","","","","","","","",""
"","image-keyboard-response","301","143543","0.0-301.0","37C0GNLMHGP0RM4KCG8UD0JLAEY6DD","AFK9ALQK5GPNG","3HUR21WDDUBEMSLDIXZW1FAIHVWXYO","","606","img/land2.png","75","606","2","1","1","2","0.8,0.2,0.2,0.2,0.8,0.2,0.2,0.2,0.8","0.2,0.8,0.2,0.2,0.2,0.8,0.8,0.2,0.2","3","",""
"","html-keyboard-response","302","143846","0.0-302.0","37C0GNLMHGP0RM4KCG8UD0JLAEY6DD","AFK9ALQK5GPNG","3HUR21WDDUBEMSLDIXZW1FAIHVWXYO","","null","<img src=""img/land2.png"" style=""width:200px; border:14px solid green;"">","null","","","","","","","","","",""
"","image-keyboard-response","303","144254","0.0-303.0","37C0GNLMHGP0RM4KCG8UD0JLAEY6DD","AFK9ALQK5GPNG","3HUR21WDDUBEMSLDIXZW1FAIHVWXYO","","407","img/land2.png","75","408","2","1","1","2","0.8,0.2,0.2,0.2,0.8,0.2,0.2,0.2,0.8","0.2,0.8,0.2,0.2,0.2,0.8,0.8,0.2,0.2","3","",""
"","html-keyboard-response","304","144564","0.0-304.0","37C0GNLMHGP0RM4KCG8UD0JLAEY6DD","AFK9ALQK5GPNG","3HUR21WDDUBEMSLDIXZW1FAIHVWXYO","","null","<img src=""img/land2.png"" style=""width:200px; border:14px solid green;"">","null","","","","","","","","","",""
"","image-keyboard-response","305","144952","0.0-305.0","37C0GNLMHGP0RM4KCG8UD0JLAEY6DD","AFK9ALQK5GPNG","3HUR21WDDUBEMSLDIXZW1FAIHVWXYO","","386","img/land2.png","75","388","2","1","1","2","0.8,0.2,0.2,0.2,0.8,0.2,0.2,0.2,0.8","0.2,0.8,0.2,0.2,0.2,0.8,0.8,0.2,0.2","3","",""
"","html-keyboard-response","306","145261","0.0-306.0","37C0GNLMHGP0RM4KCG8UD0JLAEY6DD","AFK9ALQK5GPNG","3HUR21WDDUBEMSLDIXZW1FAIHVWXYO","","null","<img src=""img/land2.png"" style=""width:200px; border:14px solid green;"">","null","","","","","","","","","",""
"","image-keyboard-response","307","146025","0.0-307.0","37C0GNLMHGP0RM4KCG8UD0JLAEY6DD","AFK9ALQK5GPNG","3HUR21WDDUBEMSLDIXZW1FAIHVWXYO","","764","img/land5.png","75","764","2","0","3","2","0.8,0.2,0.2,0.2,0.8,0.2,0.2,0.2,0.8","0.2,0.8,0.2,0.2,0.2,0.8,0.8,0.2,0.2","3","",""
"","html-keyboard-response","308","146330","0.0-308.0","37C0GNLMHGP0RM4KCG8UD0JLAEY6DD","AFK9ALQK5GPNG","3HUR21WDDUBEMSLDIXZW1FAIHVWXYO","","null","<img src=""img/land5.png"" style=""width:200px;border:14px solid red;"">","null","","","","","","","","","",""
"","image-keyboard-response","309","146808","0.0-309.0","37C0GNLMHGP0RM4KCG8UD0JLAEY6DD","AFK9ALQK5GPNG","3HUR21WDDUBEMSLDIXZW1FAIHVWXYO","","478","img/land2.png","76","479","3","0","1","2","0.8,0.2,0.2,0.2,0.8,0.2,0.2,0.2,0.8","0.2,0.8,0.2,0.2,0.2,0.8,0.8,0.2,0.2","3","",""
"","html-keyboard-response","310","147110","0.0-310.0","37C0GNLMHGP0RM4KCG8UD0JLAEY6DD","AFK9ALQK5GPNG","3HUR21WDDUBEMSLDIXZW1FAIHVWXYO","","null","<img src=""img/land2.png"" style=""width:200px;border:14px solid red;"">","null","","","","","","","","","",""
"","image-keyboard-response","311","147504","0.0-311.0","37C0GNLMHGP0RM4KCG8UD0JLAEY6DD","AFK9ALQK5GPNG","3HUR21WDDUBEMSLDIXZW1FAIHVWXYO","","394","img/land2.png","75","395","2","1","1","2","0.8,0.2,0.2,0.2,0.8,0.2,0.2,0.2,0.8","0.2,0.8,0.2,0.2,0.2,0.8,0.8,0.2,0.2","3","",""
"","html-keyboard-response","312","147818","0.0-312.0","37C0GNLMHGP0RM4KCG8UD0JLAEY6DD","AFK9ALQK5GPNG","3HUR21WDDUBEMSLDIXZW1FAIHVWXYO","","null","<img src=""img/land2.png"" style=""width:200px; border:14px solid green;"">","null","","","","","","","","","",""
"","image-keyboard-response","313","148488","0.0-313.0","37C0GNLMHGP0RM4KCG8UD0JLAEY6DD","AFK9ALQK5GPNG","3HUR21WDDUBEMSLDIXZW1FAIHVWXYO","","669","img/land1.png","76","670","3","0","2","2","0.8,0.2,0.2,0.2,0.8,0.2,0.2,0.2,0.8","0.2,0.8,0.2,0.2,0.2,0.8,0.8,0.2,0.2","3","",""
"","html-keyboard-response","314","148804","0.0-314.0","37C0GNLMHGP0RM4KCG8UD0JLAEY6DD","AFK9ALQK5GPNG","3HUR21WDDUBEMSLDIXZW1FAIHVWXYO","","null","<img src=""img/land1.png"" style=""width:200px;border:14px solid red;"">","null","","","","","","","","","",""
"","image-keyboard-response","315","149221","0.0-315.0","37C0GNLMHGP0RM4KCG8UD0JLAEY6DD","AFK9ALQK5GPNG","3HUR21WDDUBEMSLDIXZW1FAIHVWXYO","","417","img/land1.png","76","417","3","1","2","2","0.8,0.2,0.2,0.2,0.8,0.2,0.2,0.2,0.8","0.2,0.8,0.2,0.2,0.2,0.8,0.8,0.2,0.2","3","",""
"","html-keyboard-response","316","149534","0.0-316.0","37C0GNLMHGP0RM4KCG8UD0JLAEY6DD","AFK9ALQK5GPNG","3HUR21WDDUBEMSLDIXZW1FAIHVWXYO","","null","<img src=""img/land1.png"" style=""width:200px; border:14px solid green;"">","null","","","","","","","","","",""
"","image-keyboard-response","317","150028","0.0-317.0","37C0GNLMHGP0RM4KCG8UD0JLAEY6DD","AFK9ALQK5GPNG","3HUR21WDDUBEMSLDIXZW1FAIHVWXYO","","492","img/land2.png","75","493","2","1","1","2","0.8,0.2,0.2,0.2,0.8,0.2,0.2,0.2,0.8","0.2,0.8,0.2,0.2,0.2,0.8,0.8,0.2,0.2","3","",""
"","html-keyboard-response","318","150343","0.0-318.0","37C0GNLMHGP0RM4KCG8UD0JLAEY6DD","AFK9ALQK5GPNG","3HUR21WDDUBEMSLDIXZW1FAIHVWXYO","","null","<img src=""img/land2.png"" style=""width:200px; border:14px solid green;"">","null","","","","","","","","","",""
"","image-keyboard-response","319","151267","0.0-319.0","37C0GNLMHGP0RM4KCG8UD0JLAEY6DD","AFK9ALQK5GPNG","3HUR21WDDUBEMSLDIXZW1FAIHVWXYO","","923","img/land5.png","75","923","2","0","3","2","0.8,0.2,0.2,0.2,0.8,0.2,0.2,0.2,0.8","0.2,0.8,0.2,0.2,0.2,0.8,0.8,0.2,0.2","3","",""
"","html-keyboard-response","320","151580","0.0-320.0","37C0GNLMHGP0RM4KCG8UD0JLAEY6DD","AFK9ALQK5GPNG","3HUR21WDDUBEMSLDIXZW1FAIHVWXYO","","null","<img src=""img/land5.png"" style=""width:200px;border:14px solid red;"">","null","","","","","","","","","",""
"","image-keyboard-response","321","152183","0.0-321.0","37C0GNLMHGP0RM4KCG8UD0JLAEY6DD","AFK9ALQK5GPNG","3HUR21WDDUBEMSLDIXZW1FAIHVWXYO","","602","img/land1.png","76","602","3","1","2","2","0.8,0.2,0.2,0.2,0.8,0.2,0.2,0.2,0.8","0.2,0.8,0.2,0.2,0.2,0.8,0.8,0.2,0.2","3","",""
"","html-keyboard-response","322","152491","0.0-322.0","37C0GNLMHGP0RM4KCG8UD0JLAEY6DD","AFK9ALQK5GPNG","3HUR21WDDUBEMSLDIXZW1FAIHVWXYO","","null","<img src=""img/land1.png"" style=""width:200px; border:14px solid green;"">","null","","","","","","","","","",""
"","image-keyboard-response","323","153050","0.0-323.0","37C0GNLMHGP0RM4KCG8UD0JLAEY6DD","AFK9ALQK5GPNG","3HUR21WDDUBEMSLDIXZW1FAIHVWXYO","","557","img/land2.png","75","558","2","1","1","2","0.8,0.2,0.2,0.2,0.8,0.2,0.2,0.2,0.8","0.2,0.8,0.2,0.2,0.2,0.8,0.8,0.2,0.2","3","",""
"","html-keyboard-response","324","153365","0.0-324.0","37C0GNLMHGP0RM4KCG8UD0JLAEY6DD","AFK9ALQK5GPNG","3HUR21WDDUBEMSLDIXZW1FAIHVWXYO","","null","<img src=""img/land2.png"" style=""width:200px; border:14px solid green;"">","null","","","","","","","","","",""
"","image-keyboard-response","325","154205","0.0-325.0","37C0GNLMHGP0RM4KCG8UD0JLAEY6DD","AFK9ALQK5GPNG","3HUR21WDDUBEMSLDIXZW1FAIHVWXYO","","839","img/land1.png","76","840","3","1","2","2","0.8,0.2,0.2,0.2,0.8,0.2,0.2,0.2,0.8","0.2,0.8,0.2,0.2,0.2,0.8,0.8,0.2,0.2","3","",""
"","html-keyboard-response","326","154510","0.0-326.0","37C0GNLMHGP0RM4KCG8UD0JLAEY6DD","AFK9ALQK5GPNG","3HUR21WDDUBEMSLDIXZW1FAIHVWXYO","","null","<img src=""img/land1.png"" style=""width:200px; border:14px solid green;"">","null","","","","","","","","","",""
"","image-keyboard-response","327","154972","0.0-327.0","37C0GNLMHGP0RM4KCG8UD0JLAEY6DD","AFK9ALQK5GPNG","3HUR21WDDUBEMSLDIXZW1FAIHVWXYO","","461","img/land2.png","75","462","2","0","1","2","0.8,0.2,0.2,0.2,0.8,0.2,0.2,0.2,0.8","0.2,0.8,0.2,0.2,0.2,0.8,0.8,0.2,0.2","3","",""
"","html-keyboard-response","328","155279","0.0-328.0","37C0GNLMHGP0RM4KCG8UD0JLAEY6DD","AFK9ALQK5GPNG","3HUR21WDDUBEMSLDIXZW1FAIHVWXYO","","null","<img src=""img/land2.png"" style=""width:200px;border:14px solid red;"">","null","","","","","","","","","",""
"","image-keyboard-response","329","155626","0.0-329.0","37C0GNLMHGP0RM4KCG8UD0JLAEY6DD","AFK9ALQK5GPNG","3HUR21WDDUBEMSLDIXZW1FAIHVWXYO","","346","img/land2.png","75","348","2","1","1","2","0.8,0.2,0.2,0.2,0.8,0.2,0.2,0.2,0.8","0.2,0.8,0.2,0.2,0.2,0.8,0.8,0.2,0.2","3","",""
"","html-keyboard-response","330","155932","0.0-330.0","37C0GNLMHGP0RM4KCG8UD0JLAEY6DD","AFK9ALQK5GPNG","3HUR21WDDUBEMSLDIXZW1FAIHVWXYO","","null","<img src=""img/land2.png"" style=""width:200px; border:14px solid green;"">","null","","","","","","","","","",""
"","image-keyboard-response","331","156391","0.0-331.0","37C0GNLMHGP0RM4KCG8UD0JLAEY6DD","AFK9ALQK5GPNG","3HUR21WDDUBEMSLDIXZW1FAIHVWXYO","","458","img/land2.png","75","458","2","1","1","2","0.8,0.2,0.2,0.2,0.8,0.2,0.2,0.2,0.8","0.2,0.8,0.2,0.2,0.2,0.8,0.8,0.2,0.2","3","",""
"","html-keyboard-response","332","156694","0.0-332.0","37C0GNLMHGP0RM4KCG8UD0JLAEY6DD","AFK9ALQK5GPNG","3HUR21WDDUBEMSLDIXZW1FAIHVWXYO","","null","<img src=""img/land2.png"" style=""width:200px; border:14px solid green;"">","null","","","","","","","","","",""
"","image-keyboard-response","333","157376","0.0-333.0","37C0GNLMHGP0RM4KCG8UD0JLAEY6DD","AFK9ALQK5GPNG","3HUR21WDDUBEMSLDIXZW1FAIHVWXYO","","682","img/land5.png","75","683","2","0","3","2","0.8,0.2,0.2,0.2,0.8,0.2,0.2,0.2,0.8","0.2,0.8,0.2,0.2,0.2,0.8,0.8,0.2,0.2","3","",""
"","html-keyboard-response","334","157688","0.0-334.0","37C0GNLMHGP0RM4KCG8UD0JLAEY6DD","AFK9ALQK5GPNG","3HUR21WDDUBEMSLDIXZW1FAIHVWXYO","","null","<img src=""img/land5.png"" style=""width:200px;border:14px solid red;"">","null","","","","","","","","","",""
"","image-keyboard-response","335","158123","0.0-335.0","37C0GNLMHGP0RM4KCG8UD0JLAEY6DD","AFK9ALQK5GPNG","3HUR21WDDUBEMSLDIXZW1FAIHVWXYO","","433","img/land1.png","76","434","3","1","2","2","0.8,0.2,0.2,0.2,0.8,0.2,0.2,0.2,0.8","0.2,0.8,0.2,0.2,0.2,0.8,0.8,0.2,0.2","3","",""
"","html-keyboard-response","336","158436","0.0-336.0","37C0GNLMHGP0RM4KCG8UD0JLAEY6DD","AFK9ALQK5GPNG","3HUR21WDDUBEMSLDIXZW1FAIHVWXYO","","null","<img src=""img/land1.png"" style=""width:200px; border:14px solid green;"">","null","","","","","","","","","",""
"","image-keyboard-response","337","159267","0.0-337.0","37C0GNLMHGP0RM4KCG8UD0JLAEY6DD","AFK9ALQK5GPNG","3HUR21WDDUBEMSLDIXZW1FAIHVWXYO","","830","img/land2.png","75","831","2","1","1","2","0.8,0.2,0.2,0.2,0.8,0.2,0.2,0.2,0.8","0.2,0.8,0.2,0.2,0.2,0.8,0.8,0.2,0.2","3","",""
"","html-keyboard-response","338","159577","0.0-338.0","37C0GNLMHGP0RM4KCG8UD0JLAEY6DD","AFK9ALQK5GPNG","3HUR21WDDUBEMSLDIXZW1FAIHVWXYO","","null","<img src=""img/land2.png"" style=""width:200px; border:14px solid green;"">","null","","","","","","","","","",""
"","image-keyboard-response","339","159940","0.0-339.0","37C0GNLMHGP0RM4KCG8UD0JLAEY6DD","AFK9ALQK5GPNG","3HUR21WDDUBEMSLDIXZW1FAIHVWXYO","","362","img/land2.png","75","362","2","1","1","2","0.8,0.2,0.2,0.2,0.8,0.2,0.2,0.2,0.8","0.2,0.8,0.2,0.2,0.2,0.8,0.8,0.2,0.2","3","",""
"","html-keyboard-response","340","160253","0.0-340.0","37C0GNLMHGP0RM4KCG8UD0JLAEY6DD","AFK9ALQK5GPNG","3HUR21WDDUBEMSLDIXZW1FAIHVWXYO","","null","<img src=""img/land2.png"" style=""width:200px; border:14px solid green;"">","null","","","","","","","","","",""
"","image-keyboard-response","341","160827","0.0-341.0","37C0GNLMHGP0RM4KCG8UD0JLAEY6DD","AFK9ALQK5GPNG","3HUR21WDDUBEMSLDIXZW1FAIHVWXYO","","572","img/land5.png","74","574","1","1","3","2","0.8,0.2,0.2,0.2,0.8,0.2,0.2,0.2,0.8","0.2,0.8,0.2,0.2,0.2,0.8,0.8,0.2,0.2","3","",""
"","html-keyboard-response","342","161129","0.0-342.0","37C0GNLMHGP0RM4KCG8UD0JLAEY6DD","AFK9ALQK5GPNG","3HUR21WDDUBEMSLDIXZW1FAIHVWXYO","","null","<img src=""img/land5.png"" style=""width:200px; border:14px solid green;"">","null","","","","","","","","","",""
"","image-keyboard-response","343","161703","0.0-343.0","37C0GNLMHGP0RM4KCG8UD0JLAEY6DD","AFK9ALQK5GPNG","3HUR21WDDUBEMSLDIXZW1FAIHVWXYO","","573","img/land2.png","75","573","2","1","1","2","0.8,0.2,0.2,0.2,0.8,0.2,0.2,0.2,0.8","0.2,0.8,0.2,0.2,0.2,0.8,0.8,0.2,0.2","3","",""
"","html-keyboard-response","344","162011","0.0-344.0","37C0GNLMHGP0RM4KCG8UD0JLAEY6DD","AFK9ALQK5GPNG","3HUR21WDDUBEMSLDIXZW1FAIHVWXYO","","null","<img src=""img/land2.png"" style=""width:200px; border:14px solid green;"">","null","","","","","","","","","",""
"","image-keyboard-response","345","162372","0.0-345.0","37C0GNLMHGP0RM4KCG8UD0JLAEY6DD","AFK9ALQK5GPNG","3HUR21WDDUBEMSLDIXZW1FAIHVWXYO","","358","img/land2.png","75","360","2","1","1","2","0.8,0.2,0.2,0.2,0.8,0.2,0.2,0.2,0.8","0.2,0.8,0.2,0.2,0.2,0.8,0.8,0.2,0.2","3","",""
"","html-keyboard-response","346","162675","0.0-346.0","37C0GNLMHGP0RM4KCG8UD0JLAEY6DD","AFK9ALQK5GPNG","3HUR21WDDUBEMSLDIXZW1FAIHVWXYO","","null","<img src=""img/land2.png"" style=""width:200px; border:14px solid green;"">","null","","","","","","","","","",""
"","image-keyboard-response","347","163003","0.0-347.0","37C0GNLMHGP0RM4KCG8UD0JLAEY6DD","AFK9ALQK5GPNG","3HUR21WDDUBEMSLDIXZW1FAIHVWXYO","","328","img/land2.png","75","328","2","1","1","2","0.8,0.2,0.2,0.2,0.8,0.2,0.2,0.2,0.8","0.2,0.8,0.2,0.2,0.2,0.8,0.8,0.2,0.2","3","",""
"","html-keyboard-response","348","163305","0.0-348.0","37C0GNLMHGP0RM4KCG8UD0JLAEY6DD","AFK9ALQK5GPNG","3HUR21WDDUBEMSLDIXZW1FAIHVWXYO","","null","<img src=""img/land2.png"" style=""width:200px; border:14px solid green;"">","null","","","","","","","","","",""
"","image-keyboard-response","349","163611","0.0-349.0","37C0GNLMHGP0RM4KCG8UD0JLAEY6DD","AFK9ALQK5GPNG","3HUR21WDDUBEMSLDIXZW1FAIHVWXYO","","307","img/land2.png","75","308","2","0","1","2","0.8,0.2,0.2,0.2,0.8,0.2,0.2,0.2,0.8","0.2,0.8,0.2,0.2,0.2,0.8,0.8,0.2,0.2","3","",""
"","html-keyboard-response","350","163913","0.0-350.0","37C0GNLMHGP0RM4KCG8UD0JLAEY6DD","AFK9ALQK5GPNG","3HUR21WDDUBEMSLDIXZW1FAIHVWXYO","","null","<img src=""img/land2.png"" style=""width:200px;border:14px solid red;"">","null","","","","","","","","","",""
"","image-keyboard-response","351","164456","0.0-351.0","37C0GNLMHGP0RM4KCG8UD0JLAEY6DD","AFK9ALQK5GPNG","3HUR21WDDUBEMSLDIXZW1FAIHVWXYO","","542","img/land1.png","76","544","3","1","2","2","0.8,0.2,0.2,0.2,0.8,0.2,0.2,0.2,0.8","0.2,0.8,0.2,0.2,0.2,0.8,0.8,0.2,0.2","3","",""
"","html-keyboard-response","352","164764","0.0-352.0","37C0GNLMHGP0RM4KCG8UD0JLAEY6DD","AFK9ALQK5GPNG","3HUR21WDDUBEMSLDIXZW1FAIHVWXYO","","null","<img src=""img/land1.png"" style=""width:200px; border:14px solid green;"">","null","","","","","","","","","",""
"","image-keyboard-response","353","165261","0.0-353.0","37C0GNLMHGP0RM4KCG8UD0JLAEY6DD","AFK9ALQK5GPNG","3HUR21WDDUBEMSLDIXZW1FAIHVWXYO","","496","img/land2.png","75","497","2","0","1","2","0.8,0.2,0.2,0.2,0.8,0.2,0.2,0.2,0.8","0.2,0.8,0.2,0.2,0.2,0.8,0.8,0.2,0.2","3","",""
"","html-keyboard-response","354","165563","0.0-354.0","37C0GNLMHGP0RM4KCG8UD0JLAEY6DD","AFK9ALQK5GPNG","3HUR21WDDUBEMSLDIXZW1FAIHVWXYO","","null","<img src=""img/land2.png"" style=""width:200px;border:14px solid red;"">","null","","","","","","","","","",""
"","image-keyboard-response","355","166074","0.0-355.0","37C0GNLMHGP0RM4KCG8UD0JLAEY6DD","AFK9ALQK5GPNG","3HUR21WDDUBEMSLDIXZW1FAIHVWXYO","","508","img/land5.png","74","510","1","1","3","2","0.8,0.2,0.2,0.2,0.8,0.2,0.2,0.2,0.8","0.2,0.8,0.2,0.2,0.2,0.8,0.8,0.2,0.2","3","",""
"","html-keyboard-response","356","166386","0.0-356.0","37C0GNLMHGP0RM4KCG8UD0JLAEY6DD","AFK9ALQK5GPNG","3HUR21WDDUBEMSLDIXZW1FAIHVWXYO","","null","<img src=""img/land5.png"" style=""width:200px; border:14px solid green;"">","null","","","","","","","","","",""
"","image-keyboard-response","357","166806","0.0-357.0","37C0GNLMHGP0RM4KCG8UD0JLAEY6DD","AFK9ALQK5GPNG","3HUR21WDDUBEMSLDIXZW1FAIHVWXYO","","420","img/land2.png","75","420","2","1","1","2","0.8,0.2,0.2,0.2,0.8,0.2,0.2,0.2,0.8","0.2,0.8,0.2,0.2,0.2,0.8,0.8,0.2,0.2","3","",""
"","html-keyboard-response","358","167120","0.0-358.0","37C0GNLMHGP0RM4KCG8UD0JLAEY6DD","AFK9ALQK5GPNG","3HUR21WDDUBEMSLDIXZW1FAIHVWXYO","","null","<img src=""img/land2.png"" style=""width:200px; border:14px solid green;"">","null","","","","","","","","","",""
"","image-keyboard-response","359","167516","0.0-359.0","37C0GNLMHGP0RM4KCG8UD0JLAEY6DD","AFK9ALQK5GPNG","3HUR21WDDUBEMSLDIXZW1FAIHVWXYO","","395","img/land5.png","74","395","1","1","3","2","0.8,0.2,0.2,0.2,0.8,0.2,0.2,0.2,0.8","0.2,0.8,0.2,0.2,0.2,0.8,0.8,0.2,0.2","3","",""
"","html-keyboard-response","360","167817","0.0-360.0","37C0GNLMHGP0RM4KCG8UD0JLAEY6DD","AFK9ALQK5GPNG","3HUR21WDDUBEMSLDIXZW1FAIHVWXYO","","null","<img src=""img/land5.png"" style=""width:200px; border:14px solid green;"">","null","","","","","","","","","",""
"","image-keyboard-response","361","168338","0.0-361.0","37C0GNLMHGP0RM4KCG8UD0JLAEY6DD","AFK9ALQK5GPNG","3HUR21WDDUBEMSLDIXZW1FAIHVWXYO","","519","img/land5.png","74","520","1","1","3","2","0.8,0.2,0.2,0.2,0.8,0.2,0.2,0.2,0.8","0.2,0.8,0.2,0.2,0.2,0.8,0.8,0.2,0.2","3","",""
"","html-keyboard-response","362","168647","0.0-362.0","37C0GNLMHGP0RM4KCG8UD0JLAEY6DD","AFK9ALQK5GPNG","3HUR21WDDUBEMSLDIXZW1FAIHVWXYO","","null","<img src=""img/land5.png"" style=""width:200px; border:14px solid green;"">","null","","","","","","","","","",""
"","image-keyboard-response","363","169086","0.0-363.0","37C0GNLMHGP0RM4KCG8UD0JLAEY6DD","AFK9ALQK5GPNG","3HUR21WDDUBEMSLDIXZW1FAIHVWXYO","","438","img/land2.png","75","439","2","1","1","2","0.8,0.2,0.2,0.2,0.8,0.2,0.2,0.2,0.8","0.2,0.8,0.2,0.2,0.2,0.8,0.8,0.2,0.2","3","",""
"","html-keyboard-response","364","169397","0.0-364.0","37C0GNLMHGP0RM4KCG8UD0JLAEY6DD","AFK9ALQK5GPNG","3HUR21WDDUBEMSLDIXZW1FAIHVWXYO","","null","<img src=""img/land2.png"" style=""width:200px; border:14px solid green;"">","null","","","","","","","","","",""
"","image-keyboard-response","365","169729","0.0-365.0","37C0GNLMHGP0RM4KCG8UD0JLAEY6DD","AFK9ALQK5GPNG","3HUR21WDDUBEMSLDIXZW1FAIHVWXYO","","332","img/land2.png","75","332","2","1","1","2","0.8,0.2,0.2,0.2,0.8,0.2,0.2,0.2,0.8","0.2,0.8,0.2,0.2,0.2,0.8,0.8,0.2,0.2","3","",""
"","html-keyboard-response","366","170032","0.0-366.0","37C0GNLMHGP0RM4KCG8UD0JLAEY6DD","AFK9ALQK5GPNG","3HUR21WDDUBEMSLDIXZW1FAIHVWXYO","","null","<img src=""img/land2.png"" style=""width:200px; border:14px solid green;"">","null","","","","","","","","","",""
"","image-keyboard-response","367","170376","0.0-367.0","37C0GNLMHGP0RM4KCG8UD0JLAEY6DD","AFK9ALQK5GPNG","3HUR21WDDUBEMSLDIXZW1FAIHVWXYO","","343","img/land2.png","75","344","2","0","1","2","0.8,0.2,0.2,0.2,0.8,0.2,0.2,0.2,0.8","0.2,0.8,0.2,0.2,0.2,0.8,0.8,0.2,0.2","3","",""
"","html-keyboard-response","368","170688","0.0-368.0","37C0GNLMHGP0RM4KCG8UD0JLAEY6DD","AFK9ALQK5GPNG","3HUR21WDDUBEMSLDIXZW1FAIHVWXYO","","null","<img src=""img/land2.png"" style=""width:200px;border:14px solid red;"">","null","","","","","","","","","",""
"","image-keyboard-response","369","171052","0.0-369.0","37C0GNLMHGP0RM4KCG8UD0JLAEY6DD","AFK9ALQK5GPNG","3HUR21WDDUBEMSLDIXZW1FAIHVWXYO","","363","img/land2.png","75","364","2","1","1","2","0.8,0.2,0.2,0.2,0.8,0.2,0.2,0.2,0.8","0.2,0.8,0.2,0.2,0.2,0.8,0.8,0.2,0.2","3","",""
"","html-keyboard-response","370","171365","0.0-370.0","37C0GNLMHGP0RM4KCG8UD0JLAEY6DD","AFK9ALQK5GPNG","3HUR21WDDUBEMSLDIXZW1FAIHVWXYO","","null","<img src=""img/land2.png"" style=""width:200px; border:14px solid green;"">","null","","","","","","","","","",""
"","image-keyboard-response","371","171856","0.0-371.0","37C0GNLMHGP0RM4KCG8UD0JLAEY6DD","AFK9ALQK5GPNG","3HUR21WDDUBEMSLDIXZW1FAIHVWXYO","","491","img/land2.png","75","491","2","1","1","2","0.8,0.2,0.2,0.2,0.8,0.2,0.2,0.2,0.8","0.2,0.8,0.2,0.2,0.2,0.8,0.8,0.2,0.2","3","",""
