"success","trial_type","trial_index","time_elapsed","internal_node_id","assignmentID","mturkID","hitID","view_history","rt","stimulus","key_press","reactionTime","a","r","s","cond","reward_cond","reward_cond_actual","reward_matrix_idx","responses","question_order"
"true","fullscreen","0","2753","0.0-0.0","3QY7M81QH88R9SOZN7Z9NRE7PYKK78","AH1GZQFB3F9NH","3YKP7CX6G21OU5MBQSHEZ5ZTUTWB7P","","","","","","","","","","","","","",""
"","instructions","1","21353","0.0-1.0","3QY7M81QH88R9SOZN7Z9NRE7PYKK78","AH1GZQFB3F9NH","3YKP7CX6G21OU5MBQSHEZ5ZTUTWB7P","[{""page_index"":0,""viewing_time"":5946},{""page_index"":1,""viewing_time"":1985},{""page_index"":2,""viewing_time"":1184},{""page_index"":3,""viewing_time"":3462},{""page_index"":4,""viewing_time"":2009},{""page_index"":5,""viewing_time"":1944},{""page_index"":6,""viewing_time"":2056}]","18587","","","","","","","","","","","",""
"","image-keyboard-response","2","23053","0.0-2.0","3QY7M81QH88R9SOZN7Z9NRE7PYKK78","AH1GZQFB3F9NH","3YKP7CX6G21OU5MBQSHEZ5ZTUTWB7P","","1685","img/land6.png","74","1693","1","0","2","2","0.8,0.2,0.2,0.2,0.8,0.2,0.2,0.2,0.8","0.8,0.2,0.2,0.2,0.8,0.2,0.2,0.2,0.8","1","",""
"","html-keyboard-response","3","23364","0.0-3.0","3QY7M81QH88R9SOZN7Z9NRE7PYKK78","AH1GZQFB3F9NH","3YKP7CX6G21OU5MBQSHEZ5ZTUTWB7P","","null","<img src=""img/land6.png"" style=""width:200px;border:14px solid red;"">","null","","","","","","","","","",""
"","image-keyboard-response","4","24795","0.0-4.0","3QY7M81QH88R9SOZN7Z9NRE7PYKK78","AH1GZQFB3F9NH","3YKP7CX6G21OU5MBQSHEZ5ZTUTWB7P","","1427","img/land1.png","75","1429","2","0","1","2","0.8,0.2,0.2,0.2,0.8,0.2,0.2,0.2,0.8","0.8,0.2,0.2,0.2,0.8,0.2,0.2,0.2,0.8","1","",""
"","html-keyboard-response","5","25102","0.0-5.0","3QY7M81QH88R9SOZN7Z9NRE7PYKK78","AH1GZQFB3F9NH","3YKP7CX6G21OU5MBQSHEZ5ZTUTWB7P","","null","<img src=""img/land1.png"" style=""width:200px;border:14px solid red;"">","null","","","","","","","","","",""
"","image-keyboard-response","6","26067","0.0-6.0","3QY7M81QH88R9SOZN7Z9NRE7PYKK78","AH1GZQFB3F9NH","3YKP7CX6G21OU5MBQSHEZ5ZTUTWB7P","","960","img/land1.png","75","964","2","0","1","2","0.8,0.2,0.2,0.2,0.8,0.2,0.2,0.2,0.8","0.8,0.2,0.2,0.2,0.8,0.2,0.2,0.2,0.8","1","",""
"","html-keyboard-response","7","26374","0.0-7.0","3QY7M81QH88R9SOZN7Z9NRE7PYKK78","AH1GZQFB3F9NH","3YKP7CX6G21OU5MBQSHEZ5ZTUTWB7P","","null","<img src=""img/land1.png"" style=""width:200px;border:14px solid red;"">","null","","","","","","","","","",""
"","image-keyboard-response","8","26795","0.0-8.0","3QY7M81QH88R9SOZN7Z9NRE7PYKK78","AH1GZQFB3F9NH","3YKP7CX6G21OU5MBQSHEZ5ZTUTWB7P","","415","img/land1.png","76","417","3","0","1","2","0.8,0.2,0.2,0.2,0.8,0.2,0.2,0.2,0.8","0.8,0.2,0.2,0.2,0.8,0.2,0.2,0.2,0.8","1","",""
"","html-keyboard-response","9","27107","0.0-9.0","3QY7M81QH88R9SOZN7Z9NRE7PYKK78","AH1GZQFB3F9NH","3YKP7CX6G21OU5MBQSHEZ5ZTUTWB7P","","null","<img src=""img/land1.png"" style=""width:200px;border:14px solid red;"">","null","","","","","","","","","",""
"","image-keyboard-response","10","27547","0.0-10.0","3QY7M81QH88R9SOZN7Z9NRE7PYKK78","AH1GZQFB3F9NH","3YKP7CX6G21OU5MBQSHEZ5ZTUTWB7P","","431","img/land1.png","74","436","1","0","1","2","0.8,0.2,0.2,0.2,0.8,0.2,0.2,0.2,0.8","0.8,0.2,0.2,0.2,0.8,0.2,0.2,0.2,0.8","1","",""
"","html-keyboard-response","11","27854","0.0-11.0","3QY7M81QH88R9SOZN7Z9NRE7PYKK78","AH1GZQFB3F9NH","3YKP7CX6G21OU5MBQSHEZ5ZTUTWB7P","","null","<img src=""img/land1.png"" style=""width:200px;border:14px solid red;"">","null","","","","","","","","","",""
"","image-keyboard-response","12","28755","0.0-12.0","3QY7M81QH88R9SOZN7Z9NRE7PYKK78","AH1GZQFB3F9NH","3YKP7CX6G21OU5MBQSHEZ5ZTUTWB7P","","896","img/land6.png","75","899","2","1","2","2","0.8,0.2,0.2,0.2,0.8,0.2,0.2,0.2,0.8","0.8,0.2,0.2,0.2,0.8,0.2,0.2,0.2,0.8","1","",""
"","html-keyboard-response","13","29060","0.0-13.0","3QY7M81QH88R9SOZN7Z9NRE7PYKK78","AH1GZQFB3F9NH","3YKP7CX6G21OU5MBQSHEZ5ZTUTWB7P","","null","<img src=""img/land6.png"" style=""width:200px; border:14px solid green;"">","null","","","","","","","","","",""
"","image-keyboard-response","14","30602","0.0-14.0","3QY7M81QH88R9SOZN7Z9NRE7PYKK78","AH1GZQFB3F9NH","3YKP7CX6G21OU5MBQSHEZ5ZTUTWB7P","","1538","img/land6.png","75","1541","2","0","2","2","0.8,0.2,0.2,0.2,0.8,0.2,0.2,0.2,0.8","0.8,0.2,0.2,0.2,0.8,0.2,0.2,0.2,0.8","1","",""
"","html-keyboard-response","15","30908","0.0-15.0","3QY7M81QH88R9SOZN7Z9NRE7PYKK78","AH1GZQFB3F9NH","3YKP7CX6G21OU5MBQSHEZ5ZTUTWB7P","","null","<img src=""img/land6.png"" style=""width:200px;border:14px solid red;"">","null","","","","","","","","","",""
"","image-keyboard-response","16","31563","0.0-16.0","3QY7M81QH88R9SOZN7Z9NRE7PYKK78","AH1GZQFB3F9NH","3YKP7CX6G21OU5MBQSHEZ5ZTUTWB7P","","651","img/land6.png","74","653","1","0","2","2","0.8,0.2,0.2,0.2,0.8,0.2,0.2,0.2,0.8","0.8,0.2,0.2,0.2,0.8,0.2,0.2,0.2,0.8","1","",""
"","html-keyboard-response","17","31868","0.0-17.0","3QY7M81QH88R9SOZN7Z9NRE7PYKK78","AH1GZQFB3F9NH","3YKP7CX6G21OU5MBQSHEZ5ZTUTWB7P","","null","<img src=""img/land6.png"" style=""width:200px;border:14px solid red;"">","null","","","","","","","","","",""
"","image-keyboard-response","18","32723","0.0-18.0","3QY7M81QH88R9SOZN7Z9NRE7PYKK78","AH1GZQFB3F9NH","3YKP7CX6G21OU5MBQSHEZ5ZTUTWB7P","","850","img/land1.png","75","853","2","0","1","2","0.8,0.2,0.2,0.2,0.8,0.2,0.2,0.2,0.8","0.8,0.2,0.2,0.2,0.8,0.2,0.2,0.2,0.8","1","",""
"","html-keyboard-response","19","33028","0.0-19.0","3QY7M81QH88R9SOZN7Z9NRE7PYKK78","AH1GZQFB3F9NH","3YKP7CX6G21OU5MBQSHEZ5ZTUTWB7P","","null","<img src=""img/land1.png"" style=""width:200px;border:14px solid red;"">","null","","","","","","","","","",""
"","image-keyboard-response","20","33667","0.0-20.0","3QY7M81QH88R9SOZN7Z9NRE7PYKK78","AH1GZQFB3F9NH","3YKP7CX6G21OU5MBQSHEZ5ZTUTWB7P","","634","img/land1.png","76","638","3","0","1","2","0.8,0.2,0.2,0.2,0.8,0.2,0.2,0.2,0.8","0.8,0.2,0.2,0.2,0.8,0.2,0.2,0.2,0.8","1","",""
"","html-keyboard-response","21","33973","0.0-21.0","3QY7M81QH88R9SOZN7Z9NRE7PYKK78","AH1GZQFB3F9NH","3YKP7CX6G21OU5MBQSHEZ5ZTUTWB7P","","null","<img src=""img/land1.png"" style=""width:200px;border:14px solid red;"">","null","","","","","","","","","",""
"","image-keyboard-response","22","34707","0.0-22.0","3QY7M81QH88R9SOZN7Z9NRE7PYKK78","AH1GZQFB3F9NH","3YKP7CX6G21OU5MBQSHEZ5ZTUTWB7P","","729","img/land6.png","74","734","1","0","2","2","0.8,0.2,0.2,0.2,0.8,0.2,0.2,0.2,0.8","0.8,0.2,0.2,0.2,0.8,0.2,0.2,0.2,0.8","1","",""
"","html-keyboard-response","23","35014","0.0-23.0","3QY7M81QH88R9SOZN7Z9NRE7PYKK78","AH1GZQFB3F9NH","3YKP7CX6G21OU5MBQSHEZ5ZTUTWB7P","","null","<img src=""img/land6.png"" style=""width:200px;border:14px solid red;"">","null","","","","","","","","","",""
"","image-keyboard-response","24","35555","0.0-24.0","3QY7M81QH88R9SOZN7Z9NRE7PYKK78","AH1GZQFB3F9NH","3YKP7CX6G21OU5MBQSHEZ5ZTUTWB7P","","536","img/land1.png","75","540","2","0","1","2","0.8,0.2,0.2,0.2,0.8,0.2,0.2,0.2,0.8","0.8,0.2,0.2,0.2,0.8,0.2,0.2,0.2,0.8","1","",""
"","html-keyboard-response","25","35859","0.0-25.0","3QY7M81QH88R9SOZN7Z9NRE7PYKK78","AH1GZQFB3F9NH","3YKP7CX6G21OU5MBQSHEZ5ZTUTWB7P","","null","<img src=""img/land1.png"" style=""width:200px;border:14px solid red;"">","null","","","","","","","","","",""
"","image-keyboard-response","26","36138","0.0-26.0","3QY7M81QH88R9SOZN7Z9NRE7PYKK78","AH1GZQFB3F9NH","3YKP7CX6G21OU5MBQSHEZ5ZTUTWB7P","","275","img/land1.png","75","277","2","1","1","2","0.8,0.2,0.2,0.2,0.8,0.2,0.2,0.2,0.8","0.8,0.2,0.2,0.2,0.8,0.2,0.2,0.2,0.8","1","",""
"","html-keyboard-response","27","36443","0.0-27.0","3QY7M81QH88R9SOZN7Z9NRE7PYKK78","AH1GZQFB3F9NH","3YKP7CX6G21OU5MBQSHEZ5ZTUTWB7P","","null","<img src=""img/land1.png"" style=""width:200px; border:14px solid green;"">","null","","","","","","","","","",""
"","image-keyboard-response","28","38171","0.0-28.0","3QY7M81QH88R9SOZN7Z9NRE7PYKK78","AH1GZQFB3F9NH","3YKP7CX6G21OU5MBQSHEZ5ZTUTWB7P","","1724","img/land5.png","74","1727","1","0","3","2","0.8,0.2,0.2,0.2,0.8,0.2,0.2,0.2,0.8","0.8,0.2,0.2,0.2,0.8,0.2,0.2,0.2,0.8","1","",""
"","html-keyboard-response","29","38475","0.0-29.0","3QY7M81QH88R9SOZN7Z9NRE7PYKK78","AH1GZQFB3F9NH","3YKP7CX6G21OU5MBQSHEZ5ZTUTWB7P","","null","<img src=""img/land5.png"" style=""width:200px;border:14px solid red;"">","null","","","","","","","","","",""
"","image-keyboard-response","30","39506","0.0-30.0","3QY7M81QH88R9SOZN7Z9NRE7PYKK78","AH1GZQFB3F9NH","3YKP7CX6G21OU5MBQSHEZ5ZTUTWB7P","","1026","img/land5.png","74","1029","1","0","3","2","0.8,0.2,0.2,0.2,0.8,0.2,0.2,0.2,0.8","0.8,0.2,0.2,0.2,0.8,0.2,0.2,0.2,0.8","1","",""
"","html-keyboard-response","31","39812","0.0-31.0","3QY7M81QH88R9SOZN7Z9NRE7PYKK78","AH1GZQFB3F9NH","3YKP7CX6G21OU5MBQSHEZ5ZTUTWB7P","","null","<img src=""img/land5.png"" style=""width:200px;border:14px solid red;"">","null","","","","","","","","","",""
"","image-keyboard-response","32","40083","0.0-32.0","3QY7M81QH88R9SOZN7Z9NRE7PYKK78","AH1GZQFB3F9NH","3YKP7CX6G21OU5MBQSHEZ5ZTUTWB7P","","268","img/land6.png","76","270","3","0","2","2","0.8,0.2,0.2,0.2,0.8,0.2,0.2,0.2,0.8","0.8,0.2,0.2,0.2,0.8,0.2,0.2,0.2,0.8","1","",""
"","html-keyboard-response","33","40387","0.0-33.0","3QY7M81QH88R9SOZN7Z9NRE7PYKK78","AH1GZQFB3F9NH","3YKP7CX6G21OU5MBQSHEZ5ZTUTWB7P","","null","<img src=""img/land6.png"" style=""width:200px;border:14px solid red;"">","null","","","","","","","","","",""
"","image-keyboard-response","34","41203","0.0-34.0","3QY7M81QH88R9SOZN7Z9NRE7PYKK78","AH1GZQFB3F9NH","3YKP7CX6G21OU5MBQSHEZ5ZTUTWB7P","","811","img/land1.png","75","814","2","0","1","2","0.8,0.2,0.2,0.2,0.8,0.2,0.2,0.2,0.8","0.8,0.2,0.2,0.2,0.8,0.2,0.2,0.2,0.8","1","",""
"","html-keyboard-response","35","41508","0.0-35.0","3QY7M81QH88R9SOZN7Z9NRE7PYKK78","AH1GZQFB3F9NH","3YKP7CX6G21OU5MBQSHEZ5ZTUTWB7P","","null","<img src=""img/land1.png"" style=""width:200px;border:14px solid red;"">","null","","","","","","","","","",""
"","image-keyboard-response","36","41787","0.0-36.0","3QY7M81QH88R9SOZN7Z9NRE7PYKK78","AH1GZQFB3F9NH","3YKP7CX6G21OU5MBQSHEZ5ZTUTWB7P","","274","img/land1.png","75","279","2","0","1","2","0.8,0.2,0.2,0.2,0.8,0.2,0.2,0.2,0.8","0.8,0.2,0.2,0.2,0.8,0.2,0.2,0.2,0.8","1","",""
"","html-keyboard-response","37","42092","0.0-37.0","3QY7M81QH88R9SOZN7Z9NRE7PYKK78","AH1GZQFB3F9NH","3YKP7CX6G21OU5MBQSHEZ5ZTUTWB7P","","null","<img src=""img/land1.png"" style=""width:200px;border:14px solid red;"">","null","","","","","","","","","",""
"","image-keyboard-response","38","42746","0.0-38.0","3QY7M81QH88R9SOZN7Z9NRE7PYKK78","AH1GZQFB3F9NH","3YKP7CX6G21OU5MBQSHEZ5ZTUTWB7P","","652","img/land1.png","76","654","3","0","1","2","0.8,0.2,0.2,0.2,0.8,0.2,0.2,0.2,0.8","0.8,0.2,0.2,0.2,0.8,0.2,0.2,0.2,0.8","1","",""
"","html-keyboard-response","39","43051","0.0-39.0","3QY7M81QH88R9SOZN7Z9NRE7PYKK78","AH1GZQFB3F9NH","3YKP7CX6G21OU5MBQSHEZ5ZTUTWB7P","","null","<img src=""img/land1.png"" style=""width:200px;border:14px solid red;"">","null","","","","","","","","","",""
"","image-keyboard-response","40","43835","0.0-40.0","3QY7M81QH88R9SOZN7Z9NRE7PYKK78","AH1GZQFB3F9NH","3YKP7CX6G21OU5MBQSHEZ5ZTUTWB7P","","779","img/land6.png","74","783","1","0","2","2","0.8,0.2,0.2,0.2,0.8,0.2,0.2,0.2,0.8","0.8,0.2,0.2,0.2,0.8,0.2,0.2,0.2,0.8","1","",""
"","html-keyboard-response","41","44139","0.0-41.0","3QY7M81QH88R9SOZN7Z9NRE7PYKK78","AH1GZQFB3F9NH","3YKP7CX6G21OU5MBQSHEZ5ZTUTWB7P","","null","<img src=""img/land6.png"" style=""width:200px;border:14px solid red;"">","null","","","","","","","","","",""
"","image-keyboard-response","42","44746","0.0-42.0","3QY7M81QH88R9SOZN7Z9NRE7PYKK78","AH1GZQFB3F9NH","3YKP7CX6G21OU5MBQSHEZ5ZTUTWB7P","","603","img/land1.png","75","607","2","1","1","2","0.8,0.2,0.2,0.2,0.8,0.2,0.2,0.2,0.8","0.8,0.2,0.2,0.2,0.8,0.2,0.2,0.2,0.8","1","",""
"","html-keyboard-response","43","45052","0.0-43.0","3QY7M81QH88R9SOZN7Z9NRE7PYKK78","AH1GZQFB3F9NH","3YKP7CX6G21OU5MBQSHEZ5ZTUTWB7P","","null","<img src=""img/land1.png"" style=""width:200px; border:14px solid green;"">","null","","","","","","","","","",""
"","image-keyboard-response","44","46666","0.0-44.0","3QY7M81QH88R9SOZN7Z9NRE7PYKK78","AH1GZQFB3F9NH","3YKP7CX6G21OU5MBQSHEZ5ZTUTWB7P","","1611","img/land1.png","75","1613","2","0","1","2","0.8,0.2,0.2,0.2,0.8,0.2,0.2,0.2,0.8","0.8,0.2,0.2,0.2,0.8,0.2,0.2,0.2,0.8","1","",""
"","html-keyboard-response","45","46971","0.0-45.0","3QY7M81QH88R9SOZN7Z9NRE7PYKK78","AH1GZQFB3F9NH","3YKP7CX6G21OU5MBQSHEZ5ZTUTWB7P","","null","<img src=""img/land1.png"" style=""width:200px;border:14px solid red;"">","null","","","","","","","","","",""
"","image-keyboard-response","46","48330","0.0-46.0","3QY7M81QH88R9SOZN7Z9NRE7PYKK78","AH1GZQFB3F9NH","3YKP7CX6G21OU5MBQSHEZ5ZTUTWB7P","","1356","img/land5.png","74","1358","1","0","3","2","0.8,0.2,0.2,0.2,0.8,0.2,0.2,0.2,0.8","0.8,0.2,0.2,0.2,0.8,0.2,0.2,0.2,0.8","1","",""
"","html-keyboard-response","47","48635","0.0-47.0","3QY7M81QH88R9SOZN7Z9NRE7PYKK78","AH1GZQFB3F9NH","3YKP7CX6G21OU5MBQSHEZ5ZTUTWB7P","","null","<img src=""img/land5.png"" style=""width:200px;border:14px solid red;"">","null","","","","","","","","","",""
"","image-keyboard-response","48","49514","0.0-48.0","3QY7M81QH88R9SOZN7Z9NRE7PYKK78","AH1GZQFB3F9NH","3YKP7CX6G21OU5MBQSHEZ5ZTUTWB7P","","874","img/land1.png","75","877","2","0","1","2","0.8,0.2,0.2,0.2,0.8,0.2,0.2,0.2,0.8","0.8,0.2,0.2,0.2,0.8,0.2,0.2,0.2,0.8","1","",""
"","html-keyboard-response","49","49820","0.0-49.0","3QY7M81QH88R9SOZN7Z9NRE7PYKK78","AH1GZQFB3F9NH","3YKP7CX6G21OU5MBQSHEZ5ZTUTWB7P","","null","<img src=""img/land1.png"" style=""width:200px;border:14px solid red;"">","null","","","","","","","","","",""
"","image-keyboard-response","50","49931","0.0-50.0","3QY7M81QH88R9SOZN7Z9NRE7PYKK78","AH1GZQFB3F9NH","3YKP7CX6G21OU5MBQSHEZ5ZTUTWB7P","","106","img/land1.png","75","109","2","1","1","2","0.8,0.2,0.2,0.2,0.8,0.2,0.2,0.2,0.8","0.8,0.2,0.2,0.2,0.8,0.2,0.2,0.2,0.8","1","",""
"","html-keyboard-response","51","50235","0.0-51.0","3QY7M81QH88R9SOZN7Z9NRE7PYKK78","AH1GZQFB3F9NH","3YKP7CX6G21OU5MBQSHEZ5ZTUTWB7P","","null","<img src=""img/land1.png"" style=""width:200px; border:14px solid green;"">","null","","","","","","","","","",""
"","image-keyboard-response","52","51450","0.0-52.0","3QY7M81QH88R9SOZN7Z9NRE7PYKK78","AH1GZQFB3F9NH","3YKP7CX6G21OU5MBQSHEZ5ZTUTWB7P","","1211","img/land5.png","76","1214","3","1","3","2","0.8,0.2,0.2,0.2,0.8,0.2,0.2,0.2,0.8","0.8,0.2,0.2,0.2,0.8,0.2,0.2,0.2,0.8","1","",""
"","html-keyboard-response","53","51755","0.0-53.0","3QY7M81QH88R9SOZN7Z9NRE7PYKK78","AH1GZQFB3F9NH","3YKP7CX6G21OU5MBQSHEZ5ZTUTWB7P","","null","<img src=""img/land5.png"" style=""width:200px; border:14px solid green;"">","null","","","","","","","","","",""
"","image-keyboard-response","54","52658","0.0-54.0","3QY7M81QH88R9SOZN7Z9NRE7PYKK78","AH1GZQFB3F9NH","3YKP7CX6G21OU5MBQSHEZ5ZTUTWB7P","","899","img/land1.png","75","902","2","0","1","2","0.8,0.2,0.2,0.2,0.8,0.2,0.2,0.2,0.8","0.8,0.2,0.2,0.2,0.8,0.2,0.2,0.2,0.8","1","",""
"","html-keyboard-response","55","52963","0.0-55.0","3QY7M81QH88R9SOZN7Z9NRE7PYKK78","AH1GZQFB3F9NH","3YKP7CX6G21OU5MBQSHEZ5ZTUTWB7P","","null","<img src=""img/land1.png"" style=""width:200px;border:14px solid red;"">","null","","","","","","","","","",""
"","image-keyboard-response","56","53267","0.0-56.0","3QY7M81QH88R9SOZN7Z9NRE7PYKK78","AH1GZQFB3F9NH","3YKP7CX6G21OU5MBQSHEZ5ZTUTWB7P","","300","img/land1.png","75","303","2","0","1","2","0.8,0.2,0.2,0.2,0.8,0.2,0.2,0.2,0.8","0.8,0.2,0.2,0.2,0.8,0.2,0.2,0.2,0.8","1","",""
"","html-keyboard-response","57","53571","0.0-57.0","3QY7M81QH88R9SOZN7Z9NRE7PYKK78","AH1GZQFB3F9NH","3YKP7CX6G21OU5MBQSHEZ5ZTUTWB7P","","null","<img src=""img/land1.png"" style=""width:200px;border:14px solid red;"">","null","","","","","","","","","",""
"","image-keyboard-response","58","54059","0.0-58.0","3QY7M81QH88R9SOZN7Z9NRE7PYKK78","AH1GZQFB3F9NH","3YKP7CX6G21OU5MBQSHEZ5ZTUTWB7P","","481","img/land1.png","75","486","2","0","1","2","0.8,0.2,0.2,0.2,0.8,0.2,0.2,0.2,0.8","0.8,0.2,0.2,0.2,0.8,0.2,0.2,0.2,0.8","1","",""
"","html-keyboard-response","59","54364","0.0-59.0","3QY7M81QH88R9SOZN7Z9NRE7PYKK78","AH1GZQFB3F9NH","3YKP7CX6G21OU5MBQSHEZ5ZTUTWB7P","","null","<img src=""img/land1.png"" style=""width:200px;border:14px solid red;"">","null","","","","","","","","","",""
"","image-keyboard-response","60","55148","0.0-60.0","3QY7M81QH88R9SOZN7Z9NRE7PYKK78","AH1GZQFB3F9NH","3YKP7CX6G21OU5MBQSHEZ5ZTUTWB7P","","779","img/land6.png","76","782","3","0","2","2","0.8,0.2,0.2,0.2,0.8,0.2,0.2,0.2,0.8","0.8,0.2,0.2,0.2,0.8,0.2,0.2,0.2,0.8","1","",""
"","html-keyboard-response","61","55453","0.0-61.0","3QY7M81QH88R9SOZN7Z9NRE7PYKK78","AH1GZQFB3F9NH","3YKP7CX6G21OU5MBQSHEZ5ZTUTWB7P","","null","<img src=""img/land6.png"" style=""width:200px;border:14px solid red;"">","null","","","","","","","","","",""
"","image-keyboard-response","62","56346","0.0-62.0","3QY7M81QH88R9SOZN7Z9NRE7PYKK78","AH1GZQFB3F9NH","3YKP7CX6G21OU5MBQSHEZ5ZTUTWB7P","","890","img/land1.png","75","893","2","0","1","2","0.8,0.2,0.2,0.2,0.8,0.2,0.2,0.2,0.8","0.8,0.2,0.2,0.2,0.8,0.2,0.2,0.2,0.8","1","",""
"","html-keyboard-response","63","56652","0.0-63.0","3QY7M81QH88R9SOZN7Z9NRE7PYKK78","AH1GZQFB3F9NH","3YKP7CX6G21OU5MBQSHEZ5ZTUTWB7P","","null","<img src=""img/land1.png"" style=""width:200px;border:14px solid red;"">","null","","","","","","","","","",""
"","image-keyboard-response","64","57234","0.0-64.0","3QY7M81QH88R9SOZN7Z9NRE7PYKK78","AH1GZQFB3F9NH","3YKP7CX6G21OU5MBQSHEZ5ZTUTWB7P","","578","img/land1.png","75","583","2","1","1","2","0.8,0.2,0.2,0.2,0.8,0.2,0.2,0.2,0.8","0.8,0.2,0.2,0.2,0.8,0.2,0.2,0.2,0.8","1","",""
"","html-keyboard-response","65","57540","0.0-65.0","3QY7M81QH88R9SOZN7Z9NRE7PYKK78","AH1GZQFB3F9NH","3YKP7CX6G21OU5MBQSHEZ5ZTUTWB7P","","null","<img src=""img/land1.png"" style=""width:200px; border:14px solid green;"">","null","","","","","","","","","",""
"","image-keyboard-response","66","58723","0.0-66.0","3QY7M81QH88R9SOZN7Z9NRE7PYKK78","AH1GZQFB3F9NH","3YKP7CX6G21OU5MBQSHEZ5ZTUTWB7P","","1178","img/land1.png","75","1182","2","0","1","2","0.8,0.2,0.2,0.2,0.8,0.2,0.2,0.2,0.8","0.8,0.2,0.2,0.2,0.8,0.2,0.2,0.2,0.8","1","",""
"","html-keyboard-response","67","59028","0.0-67.0","3QY7M81QH88R9SOZN7Z9NRE7PYKK78","AH1GZQFB3F9NH","3YKP7CX6G21OU5MBQSHEZ5ZTUTWB7P","","null","<img src=""img/land1.png"" style=""width:200px;border:14px solid red;"">","null","","","","","","","","","",""
"","image-keyboard-response","68","59955","0.0-68.0","3QY7M81QH88R9SOZN7Z9NRE7PYKK78","AH1GZQFB3F9NH","3YKP7CX6G21OU5MBQSHEZ5ZTUTWB7P","","923","img/land6.png","76","925","3","0","2","2","0.8,0.2,0.2,0.2,0.8,0.2,0.2,0.2,0.8","0.8,0.2,0.2,0.2,0.8,0.2,0.2,0.2,0.8","1","",""
"","html-keyboard-response","69","60260","0.0-69.0","3QY7M81QH88R9SOZN7Z9NRE7PYKK78","AH1GZQFB3F9NH","3YKP7CX6G21OU5MBQSHEZ5ZTUTWB7P","","null","<img src=""img/land6.png"" style=""width:200px;border:14px solid red;"">","null","","","","","","","","","",""
"","image-keyboard-response","70","60962","0.0-70.0","3QY7M81QH88R9SOZN7Z9NRE7PYKK78","AH1GZQFB3F9NH","3YKP7CX6G21OU5MBQSHEZ5ZTUTWB7P","","698","img/land6.png","76","700","3","0","2","2","0.8,0.2,0.2,0.2,0.8,0.2,0.2,0.2,0.8","0.8,0.2,0.2,0.2,0.8,0.2,0.2,0.2,0.8","1","",""
"","html-keyboard-response","71","61267","0.0-71.0","3QY7M81QH88R9SOZN7Z9NRE7PYKK78","AH1GZQFB3F9NH","3YKP7CX6G21OU5MBQSHEZ5ZTUTWB7P","","null","<img src=""img/land6.png"" style=""width:200px;border:14px solid red;"">","null","","","","","","","","","",""
"","image-keyboard-response","72","62259","0.0-72.0","3QY7M81QH88R9SOZN7Z9NRE7PYKK78","AH1GZQFB3F9NH","3YKP7CX6G21OU5MBQSHEZ5ZTUTWB7P","","988","img/land1.png","74","990","1","1","1","2","0.8,0.2,0.2,0.2,0.8,0.2,0.2,0.2,0.8","0.8,0.2,0.2,0.2,0.8,0.2,0.2,0.2,0.8","1","",""
"","html-keyboard-response","73","62563","0.0-73.0","3QY7M81QH88R9SOZN7Z9NRE7PYKK78","AH1GZQFB3F9NH","3YKP7CX6G21OU5MBQSHEZ5ZTUTWB7P","","null","<img src=""img/land1.png"" style=""width:200px; border:14px solid green;"">","null","","","","","","","","","",""
"","image-keyboard-response","74","64123","0.0-74.0","3QY7M81QH88R9SOZN7Z9NRE7PYKK78","AH1GZQFB3F9NH","3YKP7CX6G21OU5MBQSHEZ5ZTUTWB7P","","1556","img/land1.png","74","1558","1","1","1","2","0.8,0.2,0.2,0.2,0.8,0.2,0.2,0.2,0.8","0.8,0.2,0.2,0.2,0.8,0.2,0.2,0.2,0.8","1","",""
"","html-keyboard-response","75","64427","0.0-75.0","3QY7M81QH88R9SOZN7Z9NRE7PYKK78","AH1GZQFB3F9NH","3YKP7CX6G21OU5MBQSHEZ5ZTUTWB7P","","null","<img src=""img/land1.png"" style=""width:200px; border:14px solid green;"">","null","","","","","","","","","",""
"","image-keyboard-response","76","65179","0.0-76.0","3QY7M81QH88R9SOZN7Z9NRE7PYKK78","AH1GZQFB3F9NH","3YKP7CX6G21OU5MBQSHEZ5ZTUTWB7P","","747","img/land1.png","74","749","1","1","1","2","0.8,0.2,0.2,0.2,0.8,0.2,0.2,0.2,0.8","0.8,0.2,0.2,0.2,0.8,0.2,0.2,0.2,0.8","1","",""
"","html-keyboard-response","77","65483","0.0-77.0","3QY7M81QH88R9SOZN7Z9NRE7PYKK78","AH1GZQFB3F9NH","3YKP7CX6G21OU5MBQSHEZ5ZTUTWB7P","","null","<img src=""img/land1.png"" style=""width:200px; border:14px solid green;"">","null","","","","","","","","","",""
"","image-keyboard-response","78","66586","0.0-78.0","3QY7M81QH88R9SOZN7Z9NRE7PYKK78","AH1GZQFB3F9NH","3YKP7CX6G21OU5MBQSHEZ5ZTUTWB7P","","1099","img/land6.png","75","1101","2","1","2","2","0.8,0.2,0.2,0.2,0.8,0.2,0.2,0.2,0.8","0.8,0.2,0.2,0.2,0.8,0.2,0.2,0.2,0.8","1","",""
"","html-keyboard-response","79","66892","0.0-79.0","3QY7M81QH88R9SOZN7Z9NRE7PYKK78","AH1GZQFB3F9NH","3YKP7CX6G21OU5MBQSHEZ5ZTUTWB7P","","null","<img src=""img/land6.png"" style=""width:200px; border:14px solid green;"">","null","","","","","","","","","",""
"","image-keyboard-response","80","67919","0.0-80.0","3QY7M81QH88R9SOZN7Z9NRE7PYKK78","AH1GZQFB3F9NH","3YKP7CX6G21OU5MBQSHEZ5ZTUTWB7P","","1019","img/land1.png","74","1028","1","1","1","2","0.8,0.2,0.2,0.2,0.8,0.2,0.2,0.2,0.8","0.8,0.2,0.2,0.2,0.8,0.2,0.2,0.2,0.8","1","",""
"","html-keyboard-response","81","68237","0.0-81.0","3QY7M81QH88R9SOZN7Z9NRE7PYKK78","AH1GZQFB3F9NH","3YKP7CX6G21OU5MBQSHEZ5ZTUTWB7P","","null","<img src=""img/land1.png"" style=""width:200px; border:14px solid green;"">","null","","","","","","","","","",""
"","image-keyboard-response","82","69443","0.0-82.0","3QY7M81QH88R9SOZN7Z9NRE7PYKK78","AH1GZQFB3F9NH","3YKP7CX6G21OU5MBQSHEZ5ZTUTWB7P","","1200","img/land1.png","74","1203","1","1","1","2","0.8,0.2,0.2,0.2,0.8,0.2,0.2,0.2,0.8","0.8,0.2,0.2,0.2,0.8,0.2,0.2,0.2,0.8","1","",""
"","html-keyboard-response","83","69749","0.0-83.0","3QY7M81QH88R9SOZN7Z9NRE7PYKK78","AH1GZQFB3F9NH","3YKP7CX6G21OU5MBQSHEZ5ZTUTWB7P","","null","<img src=""img/land1.png"" style=""width:200px; border:14px solid green;"">","null","","","","","","","","","",""
"","image-keyboard-response","84","70314","0.0-84.0","3QY7M81QH88R9SOZN7Z9NRE7PYKK78","AH1GZQFB3F9NH","3YKP7CX6G21OU5MBQSHEZ5ZTUTWB7P","","559","img/land1.png","74","562","1","1","1","2","0.8,0.2,0.2,0.2,0.8,0.2,0.2,0.2,0.8","0.8,0.2,0.2,0.2,0.8,0.2,0.2,0.2,0.8","1","",""
"","html-keyboard-response","85","70621","0.0-85.0","3QY7M81QH88R9SOZN7Z9NRE7PYKK78","AH1GZQFB3F9NH","3YKP7CX6G21OU5MBQSHEZ5ZTUTWB7P","","null","<img src=""img/land1.png"" style=""width:200px; border:14px solid green;"">","null","","","","","","","","","",""
"","image-keyboard-response","86","71464","0.0-86.0","3QY7M81QH88R9SOZN7Z9NRE7PYKK78","AH1GZQFB3F9NH","3YKP7CX6G21OU5MBQSHEZ5ZTUTWB7P","","835","img/land5.png","75","845","2","0","3","2","0.8,0.2,0.2,0.2,0.8,0.2,0.2,0.2,0.8","0.8,0.2,0.2,0.2,0.8,0.2,0.2,0.2,0.8","1","",""
"","html-keyboard-response","87","71782","0.0-87.0","3QY7M81QH88R9SOZN7Z9NRE7PYKK78","AH1GZQFB3F9NH","3YKP7CX6G21OU5MBQSHEZ5ZTUTWB7P","","null","<img src=""img/land5.png"" style=""width:200px;border:14px solid red;"">","null","","","","","","","","","",""
"","image-keyboard-response","88","72699","0.0-88.0","3QY7M81QH88R9SOZN7Z9NRE7PYKK78","AH1GZQFB3F9NH","3YKP7CX6G21OU5MBQSHEZ5ZTUTWB7P","","909","img/land6.png","75","913","2","1","2","2","0.8,0.2,0.2,0.2,0.8,0.2,0.2,0.2,0.8","0.8,0.2,0.2,0.2,0.8,0.2,0.2,0.2,0.8","1","",""
"","html-keyboard-response","89","73006","0.0-89.0","3QY7M81QH88R9SOZN7Z9NRE7PYKK78","AH1GZQFB3F9NH","3YKP7CX6G21OU5MBQSHEZ5ZTUTWB7P","","null","<img src=""img/land6.png"" style=""width:200px; border:14px solid green;"">","null","","","","","","","","","",""
"","image-keyboard-response","90","73755","0.0-90.0","3QY7M81QH88R9SOZN7Z9NRE7PYKK78","AH1GZQFB3F9NH","3YKP7CX6G21OU5MBQSHEZ5ZTUTWB7P","","744","img/land1.png","74","747","1","0","1","2","0.8,0.2,0.2,0.2,0.8,0.2,0.2,0.2,0.8","0.8,0.2,0.2,0.2,0.8,0.2,0.2,0.2,0.8","1","",""
"","html-keyboard-response","91","74062","0.0-91.0","3QY7M81QH88R9SOZN7Z9NRE7PYKK78","AH1GZQFB3F9NH","3YKP7CX6G21OU5MBQSHEZ5ZTUTWB7P","","null","<img src=""img/land1.png"" style=""width:200px;border:14px solid red;"">","null","","","","","","","","","",""
"","image-keyboard-response","92","74483","0.0-92.0","3QY7M81QH88R9SOZN7Z9NRE7PYKK78","AH1GZQFB3F9NH","3YKP7CX6G21OU5MBQSHEZ5ZTUTWB7P","","415","img/land1.png","74","418","1","0","1","2","0.8,0.2,0.2,0.2,0.8,0.2,0.2,0.2,0.8","0.8,0.2,0.2,0.2,0.8,0.2,0.2,0.2,0.8","1","",""
"","html-keyboard-response","93","74788","0.0-93.0","3QY7M81QH88R9SOZN7Z9NRE7PYKK78","AH1GZQFB3F9NH","3YKP7CX6G21OU5MBQSHEZ5ZTUTWB7P","","null","<img src=""img/land1.png"" style=""width:200px;border:14px solid red;"">","null","","","","","","","","","",""
"","image-keyboard-response","94","75611","0.0-94.0","3QY7M81QH88R9SOZN7Z9NRE7PYKK78","AH1GZQFB3F9NH","3YKP7CX6G21OU5MBQSHEZ5ZTUTWB7P","","818","img/land1.png","74","821","1","1","1","2","0.8,0.2,0.2,0.2,0.8,0.2,0.2,0.2,0.8","0.8,0.2,0.2,0.2,0.8,0.2,0.2,0.2,0.8","1","",""
"","html-keyboard-response","95","75915","0.0-95.0","3QY7M81QH88R9SOZN7Z9NRE7PYKK78","AH1GZQFB3F9NH","3YKP7CX6G21OU5MBQSHEZ5ZTUTWB7P","","null","<img src=""img/land1.png"" style=""width:200px; border:14px solid green;"">","null","","","","","","","","","",""
"","image-keyboard-response","96","77259","0.0-96.0","3QY7M81QH88R9SOZN7Z9NRE7PYKK78","AH1GZQFB3F9NH","3YKP7CX6G21OU5MBQSHEZ5ZTUTWB7P","","1338","img/land1.png","74","1343","1","1","1","2","0.8,0.2,0.2,0.2,0.8,0.2,0.2,0.2,0.8","0.8,0.2,0.2,0.2,0.8,0.2,0.2,0.2,0.8","1","",""
"","html-keyboard-response","97","77564","0.0-97.0","3QY7M81QH88R9SOZN7Z9NRE7PYKK78","AH1GZQFB3F9NH","3YKP7CX6G21OU5MBQSHEZ5ZTUTWB7P","","null","<img src=""img/land1.png"" style=""width:200px; border:14px solid green;"">","null","","","","","","","","","",""
"","image-keyboard-response","98","78395","0.0-98.0","3QY7M81QH88R9SOZN7Z9NRE7PYKK78","AH1GZQFB3F9NH","3YKP7CX6G21OU5MBQSHEZ5ZTUTWB7P","","825","img/land5.png","75","830","2","0","3","2","0.8,0.2,0.2,0.2,0.8,0.2,0.2,0.2,0.8","0.8,0.2,0.2,0.2,0.8,0.2,0.2,0.2,0.8","1","",""
"","html-keyboard-response","99","78701","0.0-99.0","3QY7M81QH88R9SOZN7Z9NRE7PYKK78","AH1GZQFB3F9NH","3YKP7CX6G21OU5MBQSHEZ5ZTUTWB7P","","null","<img src=""img/land5.png"" style=""width:200px;border:14px solid red;"">","null","","","","","","","","","",""
"","image-keyboard-response","100","80706","0.0-100.0","3QY7M81QH88R9SOZN7Z9NRE7PYKK78","AH1GZQFB3F9NH","3YKP7CX6G21OU5MBQSHEZ5ZTUTWB7P","","","img/land6.png","","2005","-1","0","2","2","0.8,0.2,0.2,0.2,0.8,0.2,0.2,0.2,0.8","0.8,0.2,0.2,0.2,0.8,0.2,0.2,0.2,0.8","1","",""
"","html-keyboard-response","101","81014","0.0-101.0","3QY7M81QH88R9SOZN7Z9NRE7PYKK78","AH1GZQFB3F9NH","3YKP7CX6G21OU5MBQSHEZ5ZTUTWB7P","","null","<img src=""img/land6.png"" style=""width:200px;border:14px solid red;"">","null","","","","","","","","","",""
"","image-keyboard-response","102","81443","0.0-102.0","3QY7M81QH88R9SOZN7Z9NRE7PYKK78","AH1GZQFB3F9NH","3YKP7CX6G21OU5MBQSHEZ5ZTUTWB7P","","423","img/land6.png","75","427","2","1","2","2","0.8,0.2,0.2,0.2,0.8,0.2,0.2,0.2,0.8","0.8,0.2,0.2,0.2,0.8,0.2,0.2,0.2,0.8","1","",""
"","html-keyboard-response","103","81749","0.0-103.0","3QY7M81QH88R9SOZN7Z9NRE7PYKK78","AH1GZQFB3F9NH","3YKP7CX6G21OU5MBQSHEZ5ZTUTWB7P","","null","<img src=""img/land6.png"" style=""width:200px; border:14px solid green;"">","null","","","","","","","","","",""
"","image-keyboard-response","104","82971","0.0-104.0","3QY7M81QH88R9SOZN7Z9NRE7PYKK78","AH1GZQFB3F9NH","3YKP7CX6G21OU5MBQSHEZ5ZTUTWB7P","","1218","img/land1.png","75","1221","2","0","1","2","0.8,0.2,0.2,0.2,0.8,0.2,0.2,0.2,0.8","0.8,0.2,0.2,0.2,0.8,0.2,0.2,0.2,0.8","1","",""
"","html-keyboard-response","105","83275","0.0-105.0","3QY7M81QH88R9SOZN7Z9NRE7PYKK78","AH1GZQFB3F9NH","3YKP7CX6G21OU5MBQSHEZ5ZTUTWB7P","","null","<img src=""img/land1.png"" style=""width:200px;border:14px solid red;"">","null","","","","","","","","","",""
"","image-keyboard-response","106","83995","0.0-106.0","3QY7M81QH88R9SOZN7Z9NRE7PYKK78","AH1GZQFB3F9NH","3YKP7CX6G21OU5MBQSHEZ5ZTUTWB7P","","715","img/land5.png","75","718","2","0","3","2","0.8,0.2,0.2,0.2,0.8,0.2,0.2,0.2,0.8","0.8,0.2,0.2,0.2,0.8,0.2,0.2,0.2,0.8","1","",""
"","html-keyboard-response","107","84300","0.0-107.0","3QY7M81QH88R9SOZN7Z9NRE7PYKK78","AH1GZQFB3F9NH","3YKP7CX6G21OU5MBQSHEZ5ZTUTWB7P","","null","<img src=""img/land5.png"" style=""width:200px;border:14px solid red;"">","null","","","","","","","","","",""
"","image-keyboard-response","108","84666","0.0-108.0","3QY7M81QH88R9SOZN7Z9NRE7PYKK78","AH1GZQFB3F9NH","3YKP7CX6G21OU5MBQSHEZ5ZTUTWB7P","","362","img/land5.png","74","364","1","0","3","2","0.8,0.2,0.2,0.2,0.8,0.2,0.2,0.2,0.8","0.8,0.2,0.2,0.2,0.8,0.2,0.2,0.2,0.8","1","",""
"","html-keyboard-response","109","84971","0.0-109.0","3QY7M81QH88R9SOZN7Z9NRE7PYKK78","AH1GZQFB3F9NH","3YKP7CX6G21OU5MBQSHEZ5ZTUTWB7P","","null","<img src=""img/land5.png"" style=""width:200px;border:14px solid red;"">","null","","","","","","","","","",""
"","image-keyboard-response","110","85628","0.0-110.0","3QY7M81QH88R9SOZN7Z9NRE7PYKK78","AH1GZQFB3F9NH","3YKP7CX6G21OU5MBQSHEZ5ZTUTWB7P","","650","img/land1.png","75","654","2","1","1","2","0.8,0.2,0.2,0.2,0.8,0.2,0.2,0.2,0.8","0.8,0.2,0.2,0.2,0.8,0.2,0.2,0.2,0.8","1","",""
"","html-keyboard-response","111","85932","0.0-111.0","3QY7M81QH88R9SOZN7Z9NRE7PYKK78","AH1GZQFB3F9NH","3YKP7CX6G21OU5MBQSHEZ5ZTUTWB7P","","null","<img src=""img/land1.png"" style=""width:200px; border:14px solid green;"">","null","","","","","","","","","",""
"","image-keyboard-response","112","86706","0.0-112.0","3QY7M81QH88R9SOZN7Z9NRE7PYKK78","AH1GZQFB3F9NH","3YKP7CX6G21OU5MBQSHEZ5ZTUTWB7P","","770","img/land1.png","75","773","2","0","1","2","0.8,0.2,0.2,0.2,0.8,0.2,0.2,0.2,0.8","0.8,0.2,0.2,0.2,0.8,0.2,0.2,0.2,0.8","1","",""
"","html-keyboard-response","113","87012","0.0-113.0","3QY7M81QH88R9SOZN7Z9NRE7PYKK78","AH1GZQFB3F9NH","3YKP7CX6G21OU5MBQSHEZ5ZTUTWB7P","","null","<img src=""img/land1.png"" style=""width:200px;border:14px solid red;"">","null","","","","","","","","","",""
"","image-keyboard-response","114","87458","0.0-114.0","3QY7M81QH88R9SOZN7Z9NRE7PYKK78","AH1GZQFB3F9NH","3YKP7CX6G21OU5MBQSHEZ5ZTUTWB7P","","442","img/land1.png","75","445","2","0","1","2","0.8,0.2,0.2,0.2,0.8,0.2,0.2,0.2,0.8","0.8,0.2,0.2,0.2,0.8,0.2,0.2,0.2,0.8","1","",""
"","html-keyboard-response","115","87763","0.0-115.0","3QY7M81QH88R9SOZN7Z9NRE7PYKK78","AH1GZQFB3F9NH","3YKP7CX6G21OU5MBQSHEZ5ZTUTWB7P","","null","<img src=""img/land1.png"" style=""width:200px;border:14px solid red;"">","null","","","","","","","","","",""
"","image-keyboard-response","116","88212","0.0-116.0","3QY7M81QH88R9SOZN7Z9NRE7PYKK78","AH1GZQFB3F9NH","3YKP7CX6G21OU5MBQSHEZ5ZTUTWB7P","","442","img/land1.png","75","447","2","0","1","2","0.8,0.2,0.2,0.2,0.8,0.2,0.2,0.2,0.8","0.8,0.2,0.2,0.2,0.8,0.2,0.2,0.2,0.8","1","",""
"","html-keyboard-response","117","88516","0.0-117.0","3QY7M81QH88R9SOZN7Z9NRE7PYKK78","AH1GZQFB3F9NH","3YKP7CX6G21OU5MBQSHEZ5ZTUTWB7P","","null","<img src=""img/land1.png"" style=""width:200px;border:14px solid red;"">","null","","","","","","","","","",""
"","image-keyboard-response","118","89267","0.0-118.0","3QY7M81QH88R9SOZN7Z9NRE7PYKK78","AH1GZQFB3F9NH","3YKP7CX6G21OU5MBQSHEZ5ZTUTWB7P","","746","img/land1.png","75","750","2","0","1","2","0.8,0.2,0.2,0.2,0.8,0.2,0.2,0.2,0.8","0.8,0.2,0.2,0.2,0.8,0.2,0.2,0.2,0.8","1","",""
"","html-keyboard-response","119","89572","0.0-119.0","3QY7M81QH88R9SOZN7Z9NRE7PYKK78","AH1GZQFB3F9NH","3YKP7CX6G21OU5MBQSHEZ5ZTUTWB7P","","null","<img src=""img/land1.png"" style=""width:200px;border:14px solid red;"">","null","","","","","","","","","",""
"","image-keyboard-response","120","90419","0.0-120.0","3QY7M81QH88R9SOZN7Z9NRE7PYKK78","AH1GZQFB3F9NH","3YKP7CX6G21OU5MBQSHEZ5ZTUTWB7P","","843","img/land1.png","75","846","2","0","1","2","0.8,0.2,0.2,0.2,0.8,0.2,0.2,0.2,0.8","0.8,0.2,0.2,0.2,0.8,0.2,0.2,0.2,0.8","1","",""
"","html-keyboard-response","121","90723","0.0-121.0","3QY7M81QH88R9SOZN7Z9NRE7PYKK78","AH1GZQFB3F9NH","3YKP7CX6G21OU5MBQSHEZ5ZTUTWB7P","","null","<img src=""img/land1.png"" style=""width:200px;border:14px solid red;"">","null","","","","","","","","","",""
"","image-keyboard-response","122","91650","0.0-122.0","3QY7M81QH88R9SOZN7Z9NRE7PYKK78","AH1GZQFB3F9NH","3YKP7CX6G21OU5MBQSHEZ5ZTUTWB7P","","923","img/land1.png","74","925","1","0","1","2","0.8,0.2,0.2,0.2,0.8,0.2,0.2,0.2,0.8","0.8,0.2,0.2,0.2,0.8,0.2,0.2,0.2,0.8","1","",""
"","html-keyboard-response","123","91956","0.0-123.0","3QY7M81QH88R9SOZN7Z9NRE7PYKK78","AH1GZQFB3F9NH","3YKP7CX6G21OU5MBQSHEZ5ZTUTWB7P","","null","<img src=""img/land1.png"" style=""width:200px;border:14px solid red;"">","null","","","","","","","","","",""
"","image-keyboard-response","124","92299","0.0-124.0","3QY7M81QH88R9SOZN7Z9NRE7PYKK78","AH1GZQFB3F9NH","3YKP7CX6G21OU5MBQSHEZ5ZTUTWB7P","","339","img/land1.png","75","343","2","0","1","2","0.8,0.2,0.2,0.2,0.8,0.2,0.2,0.2,0.8","0.8,0.2,0.2,0.2,0.8,0.2,0.2,0.2,0.8","1","",""
"","html-keyboard-response","125","92604","0.0-125.0","3QY7M81QH88R9SOZN7Z9NRE7PYKK78","AH1GZQFB3F9NH","3YKP7CX6G21OU5MBQSHEZ5ZTUTWB7P","","null","<img src=""img/land1.png"" style=""width:200px;border:14px solid red;"">","null","","","","","","","","","",""
"","image-keyboard-response","126","92939","0.0-126.0","3QY7M81QH88R9SOZN7Z9NRE7PYKK78","AH1GZQFB3F9NH","3YKP7CX6G21OU5MBQSHEZ5ZTUTWB7P","","331","img/land1.png","76","334","3","0","1","2","0.8,0.2,0.2,0.2,0.8,0.2,0.2,0.2,0.8","0.8,0.2,0.2,0.2,0.8,0.2,0.2,0.2,0.8","1","",""
"","html-keyboard-response","127","93243","0.0-127.0","3QY7M81QH88R9SOZN7Z9NRE7PYKK78","AH1GZQFB3F9NH","3YKP7CX6G21OU5MBQSHEZ5ZTUTWB7P","","null","<img src=""img/land1.png"" style=""width:200px;border:14px solid red;"">","null","","","","","","","","","",""
"","image-keyboard-response","128","93700","0.0-128.0","3QY7M81QH88R9SOZN7Z9NRE7PYKK78","AH1GZQFB3F9NH","3YKP7CX6G21OU5MBQSHEZ5ZTUTWB7P","","451","img/land1.png","75","454","2","0","1","2","0.8,0.2,0.2,0.2,0.8,0.2,0.2,0.2,0.8","0.8,0.2,0.2,0.2,0.8,0.2,0.2,0.2,0.8","1","",""
"","html-keyboard-response","129","94004","0.0-129.0","3QY7M81QH88R9SOZN7Z9NRE7PYKK78","AH1GZQFB3F9NH","3YKP7CX6G21OU5MBQSHEZ5ZTUTWB7P","","null","<img src=""img/land1.png"" style=""width:200px;border:14px solid red;"">","null","","","","","","","","","",""
"","image-keyboard-response","130","94467","0.0-130.0","3QY7M81QH88R9SOZN7Z9NRE7PYKK78","AH1GZQFB3F9NH","3YKP7CX6G21OU5MBQSHEZ5ZTUTWB7P","","459","img/land1.png","75","462","2","0","1","2","0.8,0.2,0.2,0.2,0.8,0.2,0.2,0.2,0.8","0.8,0.2,0.2,0.2,0.8,0.2,0.2,0.2,0.8","1","",""
"","html-keyboard-response","131","94771","0.0-131.0","3QY7M81QH88R9SOZN7Z9NRE7PYKK78","AH1GZQFB3F9NH","3YKP7CX6G21OU5MBQSHEZ5ZTUTWB7P","","null","<img src=""img/land1.png"" style=""width:200px;border:14px solid red;"">","null","","","","","","","","","",""
"","image-keyboard-response","132","95414","0.0-132.0","3QY7M81QH88R9SOZN7Z9NRE7PYKK78","AH1GZQFB3F9NH","3YKP7CX6G21OU5MBQSHEZ5ZTUTWB7P","","638","img/land5.png","75","642","2","1","3","2","0.8,0.2,0.2,0.2,0.8,0.2,0.2,0.2,0.8","0.8,0.2,0.2,0.2,0.8,0.2,0.2,0.2,0.8","1","",""
"","html-keyboard-response","133","95719","0.0-133.0","3QY7M81QH88R9SOZN7Z9NRE7PYKK78","AH1GZQFB3F9NH","3YKP7CX6G21OU5MBQSHEZ5ZTUTWB7P","","null","<img src=""img/land5.png"" style=""width:200px; border:14px solid green;"">","null","","","","","","","","","",""
"","image-keyboard-response","134","97138","0.0-134.0","3QY7M81QH88R9SOZN7Z9NRE7PYKK78","AH1GZQFB3F9NH","3YKP7CX6G21OU5MBQSHEZ5ZTUTWB7P","","1415","img/land1.png","75","1420","2","1","1","2","0.8,0.2,0.2,0.2,0.8,0.2,0.2,0.2,0.8","0.8,0.2,0.2,0.2,0.8,0.2,0.2,0.2,0.8","1","",""
"","html-keyboard-response","135","97444","0.0-135.0","3QY7M81QH88R9SOZN7Z9NRE7PYKK78","AH1GZQFB3F9NH","3YKP7CX6G21OU5MBQSHEZ5ZTUTWB7P","","null","<img src=""img/land1.png"" style=""width:200px; border:14px solid green;"">","null","","","","","","","","","",""
"","image-keyboard-response","136","98275","0.0-136.0","3QY7M81QH88R9SOZN7Z9NRE7PYKK78","AH1GZQFB3F9NH","3YKP7CX6G21OU5MBQSHEZ5ZTUTWB7P","","827","img/land1.png","75","831","2","0","1","2","0.8,0.2,0.2,0.2,0.8,0.2,0.2,0.2,0.8","0.8,0.2,0.2,0.2,0.8,0.2,0.2,0.2,0.8","1","",""
"","html-keyboard-response","137","98579","0.0-137.0","3QY7M81QH88R9SOZN7Z9NRE7PYKK78","AH1GZQFB3F9NH","3YKP7CX6G21OU5MBQSHEZ5ZTUTWB7P","","null","<img src=""img/land1.png"" style=""width:200px;border:14px solid red;"">","null","","","","","","","","","",""
"","image-keyboard-response","138","99275","0.0-138.0","3QY7M81QH88R9SOZN7Z9NRE7PYKK78","AH1GZQFB3F9NH","3YKP7CX6G21OU5MBQSHEZ5ZTUTWB7P","","691","img/land1.png","74","694","1","1","1","2","0.8,0.2,0.2,0.2,0.8,0.2,0.2,0.2,0.8","0.8,0.2,0.2,0.2,0.8,0.2,0.2,0.2,0.8","1","",""
"","html-keyboard-response","139","99579","0.0-139.0","3QY7M81QH88R9SOZN7Z9NRE7PYKK78","AH1GZQFB3F9NH","3YKP7CX6G21OU5MBQSHEZ5ZTUTWB7P","","null","<img src=""img/land1.png"" style=""width:200px; border:14px solid green;"">","null","","","","","","","","","",""
"","image-keyboard-response","140","100588","0.0-140.0","3QY7M81QH88R9SOZN7Z9NRE7PYKK78","AH1GZQFB3F9NH","3YKP7CX6G21OU5MBQSHEZ5ZTUTWB7P","","1004","img/land1.png","74","1008","1","0","1","2","0.8,0.2,0.2,0.2,0.8,0.2,0.2,0.2,0.8","0.8,0.2,0.2,0.2,0.8,0.2,0.2,0.2,0.8","1","",""
"","html-keyboard-response","141","100892","0.0-141.0","3QY7M81QH88R9SOZN7Z9NRE7PYKK78","AH1GZQFB3F9NH","3YKP7CX6G21OU5MBQSHEZ5ZTUTWB7P","","null","<img src=""img/land1.png"" style=""width:200px;border:14px solid red;"">","null","","","","","","","","","",""
"","image-keyboard-response","142","101603","0.0-142.0","3QY7M81QH88R9SOZN7Z9NRE7PYKK78","AH1GZQFB3F9NH","3YKP7CX6G21OU5MBQSHEZ5ZTUTWB7P","","707","img/land5.png","75","710","2","0","3","2","0.8,0.2,0.2,0.2,0.8,0.2,0.2,0.2,0.8","0.8,0.2,0.2,0.2,0.8,0.2,0.2,0.2,0.8","1","",""
"","html-keyboard-response","143","101908","0.0-143.0","3QY7M81QH88R9SOZN7Z9NRE7PYKK78","AH1GZQFB3F9NH","3YKP7CX6G21OU5MBQSHEZ5ZTUTWB7P","","null","<img src=""img/land5.png"" style=""width:200px;border:14px solid red;"">","null","","","","","","","","","",""
"","image-keyboard-response","144","102483","0.0-144.0","3QY7M81QH88R9SOZN7Z9NRE7PYKK78","AH1GZQFB3F9NH","3YKP7CX6G21OU5MBQSHEZ5ZTUTWB7P","","571","img/land1.png","75","574","2","0","1","2","0.8,0.2,0.2,0.2,0.8,0.2,0.2,0.2,0.8","0.8,0.2,0.2,0.2,0.8,0.2,0.2,0.2,0.8","1","",""
"","html-keyboard-response","145","102788","0.0-145.0","3QY7M81QH88R9SOZN7Z9NRE7PYKK78","AH1GZQFB3F9NH","3YKP7CX6G21OU5MBQSHEZ5ZTUTWB7P","","null","<img src=""img/land1.png"" style=""width:200px;border:14px solid red;"">","null","","","","","","","","","",""
"","image-keyboard-response","146","103860","0.0-146.0","3QY7M81QH88R9SOZN7Z9NRE7PYKK78","AH1GZQFB3F9NH","3YKP7CX6G21OU5MBQSHEZ5ZTUTWB7P","","1067","img/land6.png","76","1070","3","0","2","2","0.8,0.2,0.2,0.2,0.8,0.2,0.2,0.2,0.8","0.8,0.2,0.2,0.2,0.8,0.2,0.2,0.2,0.8","1","",""
"","html-keyboard-response","147","104165","0.0-147.0","3QY7M81QH88R9SOZN7Z9NRE7PYKK78","AH1GZQFB3F9NH","3YKP7CX6G21OU5MBQSHEZ5ZTUTWB7P","","null","<img src=""img/land6.png"" style=""width:200px;border:14px solid red;"">","null","","","","","","","","","",""
"","image-keyboard-response","148","104779","0.0-148.0","3QY7M81QH88R9SOZN7Z9NRE7PYKK78","AH1GZQFB3F9NH","3YKP7CX6G21OU5MBQSHEZ5ZTUTWB7P","","610","img/land1.png","75","613","2","0","1","2","0.8,0.2,0.2,0.2,0.8,0.2,0.2,0.2,0.8","0.8,0.2,0.2,0.2,0.8,0.2,0.2,0.2,0.8","1","",""
"","html-keyboard-response","149","105083","0.0-149.0","3QY7M81QH88R9SOZN7Z9NRE7PYKK78","AH1GZQFB3F9NH","3YKP7CX6G21OU5MBQSHEZ5ZTUTWB7P","","null","<img src=""img/land1.png"" style=""width:200px;border:14px solid red;"">","null","","","","","","","","","",""
"","image-keyboard-response","150","105619","0.0-150.0","3QY7M81QH88R9SOZN7Z9NRE7PYKK78","AH1GZQFB3F9NH","3YKP7CX6G21OU5MBQSHEZ5ZTUTWB7P","","531","img/land1.png","75","534","2","0","1","2","0.8,0.2,0.2,0.2,0.8,0.2,0.2,0.2,0.8","0.8,0.2,0.2,0.2,0.8,0.2,0.2,0.2,0.8","1","",""
"","html-keyboard-response","151","105924","0.0-151.0","3QY7M81QH88R9SOZN7Z9NRE7PYKK78","AH1GZQFB3F9NH","3YKP7CX6G21OU5MBQSHEZ5ZTUTWB7P","","null","<img src=""img/land1.png"" style=""width:200px;border:14px solid red;"">","null","","","","","","","","","",""
"","image-keyboard-response","152","106427","0.0-152.0","3QY7M81QH88R9SOZN7Z9NRE7PYKK78","AH1GZQFB3F9NH","3YKP7CX6G21OU5MBQSHEZ5ZTUTWB7P","","498","img/land1.png","75","502","2","1","1","2","0.8,0.2,0.2,0.2,0.8,0.2,0.2,0.2,0.8","0.8,0.2,0.2,0.2,0.8,0.2,0.2,0.2,0.8","1","",""
"","html-keyboard-response","153","106732","0.0-153.0","3QY7M81QH88R9SOZN7Z9NRE7PYKK78","AH1GZQFB3F9NH","3YKP7CX6G21OU5MBQSHEZ5ZTUTWB7P","","null","<img src=""img/land1.png"" style=""width:200px; border:14px solid green;"">","null","","","","","","","","","",""
"","image-keyboard-response","154","107586","0.0-154.0","3QY7M81QH88R9SOZN7Z9NRE7PYKK78","AH1GZQFB3F9NH","3YKP7CX6G21OU5MBQSHEZ5ZTUTWB7P","","851","img/land5.png","74","854","1","0","3","2","0.8,0.2,0.2,0.2,0.8,0.2,0.2,0.2,0.8","0.8,0.2,0.2,0.2,0.8,0.2,0.2,0.2,0.8","1","",""
"","html-keyboard-response","155","107892","0.0-155.0","3QY7M81QH88R9SOZN7Z9NRE7PYKK78","AH1GZQFB3F9NH","3YKP7CX6G21OU5MBQSHEZ5ZTUTWB7P","","null","<img src=""img/land5.png"" style=""width:200px;border:14px solid red;"">","null","","","","","","","","","",""
"","image-keyboard-response","156","108587","0.0-156.0","3QY7M81QH88R9SOZN7Z9NRE7PYKK78","AH1GZQFB3F9NH","3YKP7CX6G21OU5MBQSHEZ5ZTUTWB7P","","691","img/land1.png","74","695","1","1","1","2","0.8,0.2,0.2,0.2,0.8,0.2,0.2,0.2,0.8","0.8,0.2,0.2,0.2,0.8,0.2,0.2,0.2,0.8","1","",""
"","html-keyboard-response","157","108893","0.0-157.0","3QY7M81QH88R9SOZN7Z9NRE7PYKK78","AH1GZQFB3F9NH","3YKP7CX6G21OU5MBQSHEZ5ZTUTWB7P","","null","<img src=""img/land1.png"" style=""width:200px; border:14px solid green;"">","null","","","","","","","","","",""
"","image-keyboard-response","158","109179","0.0-158.0","3QY7M81QH88R9SOZN7Z9NRE7PYKK78","AH1GZQFB3F9NH","3YKP7CX6G21OU5MBQSHEZ5ZTUTWB7P","","282","img/land1.png","75","285","2","1","1","2","0.8,0.2,0.2,0.2,0.8,0.2,0.2,0.2,0.8","0.8,0.2,0.2,0.2,0.8,0.2,0.2,0.2,0.8","1","",""
"","html-keyboard-response","159","109485","0.0-159.0","3QY7M81QH88R9SOZN7Z9NRE7PYKK78","AH1GZQFB3F9NH","3YKP7CX6G21OU5MBQSHEZ5ZTUTWB7P","","null","<img src=""img/land1.png"" style=""width:200px; border:14px solid green;"">","null","","","","","","","","","",""
"","image-keyboard-response","160","110258","0.0-160.0","3QY7M81QH88R9SOZN7Z9NRE7PYKK78","AH1GZQFB3F9NH","3YKP7CX6G21OU5MBQSHEZ5ZTUTWB7P","","770","img/land5.png","75","773","2","0","3","2","0.8,0.2,0.2,0.2,0.8,0.2,0.2,0.2,0.8","0.8,0.2,0.2,0.2,0.8,0.2,0.2,0.2,0.8","1","",""
"","html-keyboard-response","161","110565","0.0-161.0","3QY7M81QH88R9SOZN7Z9NRE7PYKK78","AH1GZQFB3F9NH","3YKP7CX6G21OU5MBQSHEZ5ZTUTWB7P","","null","<img src=""img/land5.png"" style=""width:200px;border:14px solid red;"">","null","","","","","","","","","",""
"","image-keyboard-response","162","111179","0.0-162.0","3QY7M81QH88R9SOZN7Z9NRE7PYKK78","AH1GZQFB3F9NH","3YKP7CX6G21OU5MBQSHEZ5ZTUTWB7P","","610","img/land1.png","74","613","1","1","1","2","0.8,0.2,0.2,0.2,0.8,0.2,0.2,0.2,0.8","0.8,0.2,0.2,0.2,0.8,0.2,0.2,0.2,0.8","1","",""
"","html-keyboard-response","163","111484","0.0-163.0","3QY7M81QH88R9SOZN7Z9NRE7PYKK78","AH1GZQFB3F9NH","3YKP7CX6G21OU5MBQSHEZ5ZTUTWB7P","","null","<img src=""img/land1.png"" style=""width:200px; border:14px solid green;"">","null","","","","","","","","","",""
"","image-keyboard-response","164","112946","0.0-164.0","3QY7M81QH88R9SOZN7Z9NRE7PYKK78","AH1GZQFB3F9NH","3YKP7CX6G21OU5MBQSHEZ5ZTUTWB7P","","1459","img/land6.png","75","1462","2","0","2","2","0.8,0.2,0.2,0.2,0.8,0.2,0.2,0.2,0.8","0.8,0.2,0.2,0.2,0.8,0.2,0.2,0.2,0.8","1","",""
"","html-keyboard-response","165","113252","0.0-165.0","3QY7M81QH88R9SOZN7Z9NRE7PYKK78","AH1GZQFB3F9NH","3YKP7CX6G21OU5MBQSHEZ5ZTUTWB7P","","null","<img src=""img/land6.png"" style=""width:200px;border:14px solid red;"">","null","","","","","","","","","",""
"","image-keyboard-response","166","114075","0.0-166.0","3QY7M81QH88R9SOZN7Z9NRE7PYKK78","AH1GZQFB3F9NH","3YKP7CX6G21OU5MBQSHEZ5ZTUTWB7P","","819","img/land1.png","74","823","1","1","1","2","0.8,0.2,0.2,0.2,0.8,0.2,0.2,0.2,0.8","0.8,0.2,0.2,0.2,0.8,0.2,0.2,0.2,0.8","1","",""
"","html-keyboard-response","167","114381","0.0-167.0","3QY7M81QH88R9SOZN7Z9NRE7PYKK78","AH1GZQFB3F9NH","3YKP7CX6G21OU5MBQSHEZ5ZTUTWB7P","","null","<img src=""img/land1.png"" style=""width:200px; border:14px solid green;"">","null","","","","","","","","","",""
"","image-keyboard-response","168","114988","0.0-168.0","3QY7M81QH88R9SOZN7Z9NRE7PYKK78","AH1GZQFB3F9NH","3YKP7CX6G21OU5MBQSHEZ5ZTUTWB7P","","602","img/land1.png","74","606","1","1","1","2","0.8,0.2,0.2,0.2,0.8,0.2,0.2,0.2,0.8","0.8,0.2,0.2,0.2,0.8,0.2,0.2,0.2,0.8","1","",""
"","html-keyboard-response","169","115293","0.0-169.0","3QY7M81QH88R9SOZN7Z9NRE7PYKK78","AH1GZQFB3F9NH","3YKP7CX6G21OU5MBQSHEZ5ZTUTWB7P","","null","<img src=""img/land1.png"" style=""width:200px; border:14px solid green;"">","null","","","","","","","","","",""
"","image-keyboard-response","170","116411","0.0-170.0","3QY7M81QH88R9SOZN7Z9NRE7PYKK78","AH1GZQFB3F9NH","3YKP7CX6G21OU5MBQSHEZ5ZTUTWB7P","","1113","img/land5.png","76","1117","3","1","3","2","0.8,0.2,0.2,0.2,0.8,0.2,0.2,0.2,0.8","0.8,0.2,0.2,0.2,0.8,0.2,0.2,0.2,0.8","1","",""
"","html-keyboard-response","171","116716","0.0-171.0","3QY7M81QH88R9SOZN7Z9NRE7PYKK78","AH1GZQFB3F9NH","3YKP7CX6G21OU5MBQSHEZ5ZTUTWB7P","","null","<img src=""img/land5.png"" style=""width:200px; border:14px solid green;"">","null","","","","","","","","","",""
"","image-keyboard-response","172","117475","0.0-172.0","3QY7M81QH88R9SOZN7Z9NRE7PYKK78","AH1GZQFB3F9NH","3YKP7CX6G21OU5MBQSHEZ5ZTUTWB7P","","754","img/land1.png","74","757","1","1","1","2","0.8,0.2,0.2,0.2,0.8,0.2,0.2,0.2,0.8","0.8,0.2,0.2,0.2,0.8,0.2,0.2,0.2,0.8","1","",""
"","html-keyboard-response","173","117780","0.0-173.0","3QY7M81QH88R9SOZN7Z9NRE7PYKK78","AH1GZQFB3F9NH","3YKP7CX6G21OU5MBQSHEZ5ZTUTWB7P","","null","<img src=""img/land1.png"" style=""width:200px; border:14px solid green;"">","null","","","","","","","","","",""
"","image-keyboard-response","174","118331","0.0-174.0","3QY7M81QH88R9SOZN7Z9NRE7PYKK78","AH1GZQFB3F9NH","3YKP7CX6G21OU5MBQSHEZ5ZTUTWB7P","","547","img/land1.png","74","550","1","1","1","2","0.8,0.2,0.2,0.2,0.8,0.2,0.2,0.2,0.8","0.8,0.2,0.2,0.2,0.8,0.2,0.2,0.2,0.8","1","",""
"","html-keyboard-response","175","118636","0.0-175.0","3QY7M81QH88R9SOZN7Z9NRE7PYKK78","AH1GZQFB3F9NH","3YKP7CX6G21OU5MBQSHEZ5ZTUTWB7P","","null","<img src=""img/land1.png"" style=""width:200px; border:14px solid green;"">","null","","","","","","","","","",""
"","image-keyboard-response","176","119403","0.0-176.0","3QY7M81QH88R9SOZN7Z9NRE7PYKK78","AH1GZQFB3F9NH","3YKP7CX6G21OU5MBQSHEZ5ZTUTWB7P","","763","img/land5.png","76","766","3","1","3","2","0.8,0.2,0.2,0.2,0.8,0.2,0.2,0.2,0.8","0.8,0.2,0.2,0.2,0.8,0.2,0.2,0.2,0.8","1","",""
"","html-keyboard-response","177","119708","0.0-177.0","3QY7M81QH88R9SOZN7Z9NRE7PYKK78","AH1GZQFB3F9NH","3YKP7CX6G21OU5MBQSHEZ5ZTUTWB7P","","null","<img src=""img/land5.png"" style=""width:200px; border:14px solid green;"">","null","","","","","","","","","",""
"","image-keyboard-response","178","121011","0.0-178.0","3QY7M81QH88R9SOZN7Z9NRE7PYKK78","AH1GZQFB3F9NH","3YKP7CX6G21OU5MBQSHEZ5ZTUTWB7P","","1299","img/land6.png","75","1303","2","1","2","2","0.8,0.2,0.2,0.2,0.8,0.2,0.2,0.2,0.8","0.8,0.2,0.2,0.2,0.8,0.2,0.2,0.2,0.8","1","",""
"","html-keyboard-response","179","121317","0.0-179.0","3QY7M81QH88R9SOZN7Z9NRE7PYKK78","AH1GZQFB3F9NH","3YKP7CX6G21OU5MBQSHEZ5ZTUTWB7P","","null","<img src=""img/land6.png"" style=""width:200px; border:14px solid green;"">","null","","","","","","","","","",""
"","image-keyboard-response","180","122338","0.0-180.0","3QY7M81QH88R9SOZN7Z9NRE7PYKK78","AH1GZQFB3F9NH","3YKP7CX6G21OU5MBQSHEZ5ZTUTWB7P","","1018","img/land5.png","76","1021","3","1","3","2","0.8,0.2,0.2,0.2,0.8,0.2,0.2,0.2,0.8","0.8,0.2,0.2,0.2,0.8,0.2,0.2,0.2,0.8","1","",""
"","html-keyboard-response","181","122643","0.0-181.0","3QY7M81QH88R9SOZN7Z9NRE7PYKK78","AH1GZQFB3F9NH","3YKP7CX6G21OU5MBQSHEZ5ZTUTWB7P","","null","<img src=""img/land5.png"" style=""width:200px; border:14px solid green;"">","null","","","","","","","","","",""
"","image-keyboard-response","182","123443","0.0-182.0","3QY7M81QH88R9SOZN7Z9NRE7PYKK78","AH1GZQFB3F9NH","3YKP7CX6G21OU5MBQSHEZ5ZTUTWB7P","","796","img/land1.png","74","797","1","1","1","2","0.8,0.2,0.2,0.2,0.8,0.2,0.2,0.2,0.8","0.8,0.2,0.2,0.2,0.8,0.2,0.2,0.2,0.8","1","",""
"","html-keyboard-response","183","123748","0.0-183.0","3QY7M81QH88R9SOZN7Z9NRE7PYKK78","AH1GZQFB3F9NH","3YKP7CX6G21OU5MBQSHEZ5ZTUTWB7P","","null","<img src=""img/land1.png"" style=""width:200px; border:14px solid green;"">","null","","","","","","","","","",""
"","image-keyboard-response","184","125752","0.0-184.0","3QY7M81QH88R9SOZN7Z9NRE7PYKK78","AH1GZQFB3F9NH","3YKP7CX6G21OU5MBQSHEZ5ZTUTWB7P","","","img/land5.png","","2004","-1","0","3","2","0.8,0.2,0.2,0.2,0.8,0.2,0.2,0.2,0.8","0.8,0.2,0.2,0.2,0.8,0.2,0.2,0.2,0.8","1","",""
"","html-keyboard-response","185","126058","0.0-185.0","3QY7M81QH88R9SOZN7Z9NRE7PYKK78","AH1GZQFB3F9NH","3YKP7CX6G21OU5MBQSHEZ5ZTUTWB7P","","null","<img src=""img/land5.png"" style=""width:200px;border:14px solid red;"">","null","","","","","","","","","",""
"","image-keyboard-response","186","126739","0.0-186.0","3QY7M81QH88R9SOZN7Z9NRE7PYKK78","AH1GZQFB3F9NH","3YKP7CX6G21OU5MBQSHEZ5ZTUTWB7P","","679","img/land1.png","74","682","1","1","1","2","0.8,0.2,0.2,0.2,0.8,0.2,0.2,0.2,0.8","0.8,0.2,0.2,0.2,0.8,0.2,0.2,0.2,0.8","1","",""
"","html-keyboard-response","187","127045","0.0-187.0","3QY7M81QH88R9SOZN7Z9NRE7PYKK78","AH1GZQFB3F9NH","3YKP7CX6G21OU5MBQSHEZ5ZTUTWB7P","","null","<img src=""img/land1.png"" style=""width:200px; border:14px solid green;"">","null","","","","","","","","","",""
"","image-keyboard-response","188","128019","0.0-188.0","3QY7M81QH88R9SOZN7Z9NRE7PYKK78","AH1GZQFB3F9NH","3YKP7CX6G21OU5MBQSHEZ5ZTUTWB7P","","970","img/land5.png","75","974","2","0","3","2","0.8,0.2,0.2,0.2,0.8,0.2,0.2,0.2,0.8","0.8,0.2,0.2,0.2,0.8,0.2,0.2,0.2,0.8","1","",""
"","html-keyboard-response","189","128324","0.0-189.0","3QY7M81QH88R9SOZN7Z9NRE7PYKK78","AH1GZQFB3F9NH","3YKP7CX6G21OU5MBQSHEZ5ZTUTWB7P","","null","<img src=""img/land5.png"" style=""width:200px;border:14px solid red;"">","null","","","","","","","","","",""
"","image-keyboard-response","190","128771","0.0-190.0","3QY7M81QH88R9SOZN7Z9NRE7PYKK78","AH1GZQFB3F9NH","3YKP7CX6G21OU5MBQSHEZ5ZTUTWB7P","","443","img/land5.png","76","447","3","1","3","2","0.8,0.2,0.2,0.2,0.8,0.2,0.2,0.2,0.8","0.8,0.2,0.2,0.2,0.8,0.2,0.2,0.2,0.8","1","",""
"","html-keyboard-response","191","129076","0.0-191.0","3QY7M81QH88R9SOZN7Z9NRE7PYKK78","AH1GZQFB3F9NH","3YKP7CX6G21OU5MBQSHEZ5ZTUTWB7P","","null","<img src=""img/land5.png"" style=""width:200px; border:14px solid green;"">","null","","","","","","","","","",""
"","image-keyboard-response","192","130363","0.0-192.0","3QY7M81QH88R9SOZN7Z9NRE7PYKK78","AH1GZQFB3F9NH","3YKP7CX6G21OU5MBQSHEZ5ZTUTWB7P","","1283","img/land6.png","75","1286","2","1","2","2","0.8,0.2,0.2,0.2,0.8,0.2,0.2,0.2,0.8","0.8,0.2,0.2,0.2,0.8,0.2,0.2,0.2,0.8","1","",""
"","html-keyboard-response","193","130668","0.0-193.0","3QY7M81QH88R9SOZN7Z9NRE7PYKK78","AH1GZQFB3F9NH","3YKP7CX6G21OU5MBQSHEZ5ZTUTWB7P","","null","<img src=""img/land6.png"" style=""width:200px; border:14px solid green;"">","null","","","","","","","","","",""
"","image-keyboard-response","194","131714","0.0-194.0","3QY7M81QH88R9SOZN7Z9NRE7PYKK78","AH1GZQFB3F9NH","3YKP7CX6G21OU5MBQSHEZ5ZTUTWB7P","","1043","img/land5.png","76","1047","3","1","3","2","0.8,0.2,0.2,0.2,0.8,0.2,0.2,0.2,0.8","0.8,0.2,0.2,0.2,0.8,0.2,0.2,0.2,0.8","1","",""
"","html-keyboard-response","195","132025","0.0-195.0","3QY7M81QH88R9SOZN7Z9NRE7PYKK78","AH1GZQFB3F9NH","3YKP7CX6G21OU5MBQSHEZ5ZTUTWB7P","","null","<img src=""img/land5.png"" style=""width:200px; border:14px solid green;"">","null","","","","","","","","","",""
"","image-keyboard-response","196","132644","0.0-196.0","3QY7M81QH88R9SOZN7Z9NRE7PYKK78","AH1GZQFB3F9NH","3YKP7CX6G21OU5MBQSHEZ5ZTUTWB7P","","597","img/land5.png","76","604","3","1","3","2","0.8,0.2,0.2,0.2,0.8,0.2,0.2,0.2,0.8","0.8,0.2,0.2,0.2,0.8,0.2,0.2,0.2,0.8","1","",""
"","html-keyboard-response","197","132954","0.0-197.0","3QY7M81QH88R9SOZN7Z9NRE7PYKK78","AH1GZQFB3F9NH","3YKP7CX6G21OU5MBQSHEZ5ZTUTWB7P","","null","<img src=""img/land5.png"" style=""width:200px; border:14px solid green;"">","null","","","","","","","","","",""
"","image-keyboard-response","198","133490","0.0-198.0","3QY7M81QH88R9SOZN7Z9NRE7PYKK78","AH1GZQFB3F9NH","3YKP7CX6G21OU5MBQSHEZ5ZTUTWB7P","","531","img/land6.png","75","535","2","1","2","2","0.8,0.2,0.2,0.2,0.8,0.2,0.2,0.2,0.8","0.8,0.2,0.2,0.2,0.8,0.2,0.2,0.2,0.8","1","",""
"","html-keyboard-response","199","133797","0.0-199.0","3QY7M81QH88R9SOZN7Z9NRE7PYKK78","AH1GZQFB3F9NH","3YKP7CX6G21OU5MBQSHEZ5ZTUTWB7P","","null","<img src=""img/land6.png"" style=""width:200px; border:14px solid green;"">","null","","","","","","","","","",""
"","image-keyboard-response","200","134723","0.0-200.0","3QY7M81QH88R9SOZN7Z9NRE7PYKK78","AH1GZQFB3F9NH","3YKP7CX6G21OU5MBQSHEZ5ZTUTWB7P","","921","img/land5.png","76","924","3","1","3","2","0.8,0.2,0.2,0.2,0.8,0.2,0.2,0.2,0.8","0.8,0.2,0.2,0.2,0.8,0.2,0.2,0.2,0.8","1","",""
"","html-keyboard-response","201","135030","0.0-201.0","3QY7M81QH88R9SOZN7Z9NRE7PYKK78","AH1GZQFB3F9NH","3YKP7CX6G21OU5MBQSHEZ5ZTUTWB7P","","null","<img src=""img/land5.png"" style=""width:200px; border:14px solid green;"">","null","","","","","","","","","",""
"","image-keyboard-response","202","135635","0.0-202.0","3QY7M81QH88R9SOZN7Z9NRE7PYKK78","AH1GZQFB3F9NH","3YKP7CX6G21OU5MBQSHEZ5ZTUTWB7P","","599","img/land1.png","74","604","1","0","1","2","0.8,0.2,0.2,0.2,0.8,0.2,0.2,0.2,0.8","0.8,0.2,0.2,0.2,0.8,0.2,0.2,0.2,0.8","1","",""
"","html-keyboard-response","203","135941","0.0-203.0","3QY7M81QH88R9SOZN7Z9NRE7PYKK78","AH1GZQFB3F9NH","3YKP7CX6G21OU5MBQSHEZ5ZTUTWB7P","","null","<img src=""img/land1.png"" style=""width:200px;border:14px solid red;"">","null","","","","","","","","","",""
"","image-keyboard-response","204","136355","0.0-204.0","3QY7M81QH88R9SOZN7Z9NRE7PYKK78","AH1GZQFB3F9NH","3YKP7CX6G21OU5MBQSHEZ5ZTUTWB7P","","407","img/land1.png","74","412","1","1","1","2","0.8,0.2,0.2,0.2,0.8,0.2,0.2,0.2,0.8","0.8,0.2,0.2,0.2,0.8,0.2,0.2,0.2,0.8","1","",""
"","html-keyboard-response","205","136661","0.0-205.0","3QY7M81QH88R9SOZN7Z9NRE7PYKK78","AH1GZQFB3F9NH","3YKP7CX6G21OU5MBQSHEZ5ZTUTWB7P","","null","<img src=""img/land1.png"" style=""width:200px; border:14px solid green;"">","null","","","","","","","","","",""
"","image-keyboard-response","206","138666","0.0-206.0","3QY7M81QH88R9SOZN7Z9NRE7PYKK78","AH1GZQFB3F9NH","3YKP7CX6G21OU5MBQSHEZ5ZTUTWB7P","","","img/land6.png","","2004","-1","0","2","2","0.8,0.2,0.2,0.2,0.8,0.2,0.2,0.2,0.8","0.8,0.2,0.2,0.2,0.8,0.2,0.2,0.2,0.8","1","",""
"","html-keyboard-response","207","138972","0.0-207.0","3QY7M81QH88R9SOZN7Z9NRE7PYKK78","AH1GZQFB3F9NH","3YKP7CX6G21OU5MBQSHEZ5ZTUTWB7P","","null","<img src=""img/land6.png"" style=""width:200px;border:14px solid red;"">","null","","","","","","","","","",""
"","image-keyboard-response","208","139244","0.0-208.0","3QY7M81QH88R9SOZN7Z9NRE7PYKK78","AH1GZQFB3F9NH","3YKP7CX6G21OU5MBQSHEZ5ZTUTWB7P","","268","img/land6.png","75","270","2","1","2","2","0.8,0.2,0.2,0.2,0.8,0.2,0.2,0.2,0.8","0.8,0.2,0.2,0.2,0.8,0.2,0.2,0.2,0.8","1","",""
"","html-keyboard-response","209","139549","0.0-209.0","3QY7M81QH88R9SOZN7Z9NRE7PYKK78","AH1GZQFB3F9NH","3YKP7CX6G21OU5MBQSHEZ5ZTUTWB7P","","null","<img src=""img/land6.png"" style=""width:200px; border:14px solid green;"">","null","","","","","","","","","",""
"","image-keyboard-response","210","140227","0.0-210.0","3QY7M81QH88R9SOZN7Z9NRE7PYKK78","AH1GZQFB3F9NH","3YKP7CX6G21OU5MBQSHEZ5ZTUTWB7P","","674","img/land1.png","74","677","1","1","1","2","0.8,0.2,0.2,0.2,0.8,0.2,0.2,0.2,0.8","0.8,0.2,0.2,0.2,0.8,0.2,0.2,0.2,0.8","1","",""
"","html-keyboard-response","211","140533","0.0-211.0","3QY7M81QH88R9SOZN7Z9NRE7PYKK78","AH1GZQFB3F9NH","3YKP7CX6G21OU5MBQSHEZ5ZTUTWB7P","","null","<img src=""img/land1.png"" style=""width:200px; border:14px solid green;"">","null","","","","","","","","","",""
"","image-keyboard-response","212","140978","0.0-212.0","3QY7M81QH88R9SOZN7Z9NRE7PYKK78","AH1GZQFB3F9NH","3YKP7CX6G21OU5MBQSHEZ5ZTUTWB7P","","441","img/land1.png","74","445","1","1","1","2","0.8,0.2,0.2,0.2,0.8,0.2,0.2,0.2,0.8","0.8,0.2,0.2,0.2,0.8,0.2,0.2,0.2,0.8","1","",""
"","html-keyboard-response","213","141283","0.0-213.0","3QY7M81QH88R9SOZN7Z9NRE7PYKK78","AH1GZQFB3F9NH","3YKP7CX6G21OU5MBQSHEZ5ZTUTWB7P","","null","<img src=""img/land1.png"" style=""width:200px; border:14px solid green;"">","null","","","","","","","","","",""
"","image-keyboard-response","214","141883","0.0-214.0","3QY7M81QH88R9SOZN7Z9NRE7PYKK78","AH1GZQFB3F9NH","3YKP7CX6G21OU5MBQSHEZ5ZTUTWB7P","","594","img/land6.png","75","598","2","1","2","2","0.8,0.2,0.2,0.2,0.8,0.2,0.2,0.2,0.8","0.8,0.2,0.2,0.2,0.8,0.2,0.2,0.2,0.8","1","",""
"","html-keyboard-response","215","142188","0.0-215.0","3QY7M81QH88R9SOZN7Z9NRE7PYKK78","AH1GZQFB3F9NH","3YKP7CX6G21OU5MBQSHEZ5ZTUTWB7P","","null","<img src=""img/land6.png"" style=""width:200px; border:14px solid green;"">","null","","","","","","","","","",""
"","image-keyboard-response","216","142947","0.0-216.0","3QY7M81QH88R9SOZN7Z9NRE7PYKK78","AH1GZQFB3F9NH","3YKP7CX6G21OU5MBQSHEZ5ZTUTWB7P","","753","img/land5.png","76","757","3","1","3","2","0.8,0.2,0.2,0.2,0.8,0.2,0.2,0.2,0.8","0.8,0.2,0.2,0.2,0.8,0.2,0.2,0.2,0.8","1","",""
"","html-keyboard-response","217","143255","0.0-217.0","3QY7M81QH88R9SOZN7Z9NRE7PYKK78","AH1GZQFB3F9NH","3YKP7CX6G21OU5MBQSHEZ5ZTUTWB7P","","null","<img src=""img/land5.png"" style=""width:200px; border:14px solid green;"">","null","","","","","","","","","",""
"","image-keyboard-response","218","143907","0.0-218.0","3QY7M81QH88R9SOZN7Z9NRE7PYKK78","AH1GZQFB3F9NH","3YKP7CX6G21OU5MBQSHEZ5ZTUTWB7P","","648","img/land5.png","76","651","3","1","3","2","0.8,0.2,0.2,0.2,0.8,0.2,0.2,0.2,0.8","0.8,0.2,0.2,0.2,0.8,0.2,0.2,0.2,0.8","1","",""
"","html-keyboard-response","219","144213","0.0-219.0","3QY7M81QH88R9SOZN7Z9NRE7PYKK78","AH1GZQFB3F9NH","3YKP7CX6G21OU5MBQSHEZ5ZTUTWB7P","","null","<img src=""img/land5.png"" style=""width:200px; border:14px solid green;"">","null","","","","","","","","","",""
"","image-keyboard-response","220","144987","0.0-220.0","3QY7M81QH88R9SOZN7Z9NRE7PYKK78","AH1GZQFB3F9NH","3YKP7CX6G21OU5MBQSHEZ5ZTUTWB7P","","770","img/land6.png","75","773","2","1","2","2","0.8,0.2,0.2,0.2,0.8,0.2,0.2,0.2,0.8","0.8,0.2,0.2,0.2,0.8,0.2,0.2,0.2,0.8","1","",""
"","html-keyboard-response","221","145293","0.0-221.0","3QY7M81QH88R9SOZN7Z9NRE7PYKK78","AH1GZQFB3F9NH","3YKP7CX6G21OU5MBQSHEZ5ZTUTWB7P","","null","<img src=""img/land6.png"" style=""width:200px; border:14px solid green;"">","null","","","","","","","","","",""
"","image-keyboard-response","222","146067","0.0-222.0","3QY7M81QH88R9SOZN7Z9NRE7PYKK78","AH1GZQFB3F9NH","3YKP7CX6G21OU5MBQSHEZ5ZTUTWB7P","","770","img/land6.png","75","773","2","1","2","2","0.8,0.2,0.2,0.2,0.8,0.2,0.2,0.2,0.8","0.8,0.2,0.2,0.2,0.8,0.2,0.2,0.2,0.8","1","",""
"","html-keyboard-response","223","146372","0.0-223.0","3QY7M81QH88R9SOZN7Z9NRE7PYKK78","AH1GZQFB3F9NH","3YKP7CX6G21OU5MBQSHEZ5ZTUTWB7P","","null","<img src=""img/land6.png"" style=""width:200px; border:14px solid green;"">","null","","","","","","","","","",""
"","image-keyboard-response","224","147036","0.0-224.0","3QY7M81QH88R9SOZN7Z9NRE7PYKK78","AH1GZQFB3F9NH","3YKP7CX6G21OU5MBQSHEZ5ZTUTWB7P","","659","img/land1.png","74","663","1","1","1","2","0.8,0.2,0.2,0.2,0.8,0.2,0.2,0.2,0.8","0.8,0.2,0.2,0.2,0.8,0.2,0.2,0.2,0.8","1","",""
"","html-keyboard-response","225","147341","0.0-225.0","3QY7M81QH88R9SOZN7Z9NRE7PYKK78","AH1GZQFB3F9NH","3YKP7CX6G21OU5MBQSHEZ5ZTUTWB7P","","null","<img src=""img/land1.png"" style=""width:200px; border:14px solid green;"">","null","","","","","","","","","",""
"","image-keyboard-response","226","148123","0.0-226.0","3QY7M81QH88R9SOZN7Z9NRE7PYKK78","AH1GZQFB3F9NH","3YKP7CX6G21OU5MBQSHEZ5ZTUTWB7P","","779","img/land6.png","75","782","2","1","2","2","0.8,0.2,0.2,0.2,0.8,0.2,0.2,0.2,0.8","0.8,0.2,0.2,0.2,0.8,0.2,0.2,0.2,0.8","1","",""
"","html-keyboard-response","227","148428","0.0-227.0","3QY7M81QH88R9SOZN7Z9NRE7PYKK78","AH1GZQFB3F9NH","3YKP7CX6G21OU5MBQSHEZ5ZTUTWB7P","","null","<img src=""img/land6.png"" style=""width:200px; border:14px solid green;"">","null","","","","","","","","","",""
"","image-keyboard-response","228","149403","0.0-228.0","3QY7M81QH88R9SOZN7Z9NRE7PYKK78","AH1GZQFB3F9NH","3YKP7CX6G21OU5MBQSHEZ5ZTUTWB7P","","971","img/land5.png","76","974","3","1","3","2","0.8,0.2,0.2,0.2,0.8,0.2,0.2,0.2,0.8","0.8,0.2,0.2,0.2,0.8,0.2,0.2,0.2,0.8","1","",""
"","html-keyboard-response","229","149708","0.0-229.0","3QY7M81QH88R9SOZN7Z9NRE7PYKK78","AH1GZQFB3F9NH","3YKP7CX6G21OU5MBQSHEZ5ZTUTWB7P","","null","<img src=""img/land5.png"" style=""width:200px; border:14px solid green;"">","null","","","","","","","","","",""
"","image-keyboard-response","230","150547","0.0-230.0","3QY7M81QH88R9SOZN7Z9NRE7PYKK78","AH1GZQFB3F9NH","3YKP7CX6G21OU5MBQSHEZ5ZTUTWB7P","","835","img/land1.png","74","838","1","1","1","2","0.8,0.2,0.2,0.2,0.8,0.2,0.2,0.2,0.8","0.8,0.2,0.2,0.2,0.8,0.2,0.2,0.2,0.8","1","",""
"","html-keyboard-response","231","150852","0.0-231.0","3QY7M81QH88R9SOZN7Z9NRE7PYKK78","AH1GZQFB3F9NH","3YKP7CX6G21OU5MBQSHEZ5ZTUTWB7P","","null","<img src=""img/land1.png"" style=""width:200px; border:14px solid green;"">","null","","","","","","","","","",""
"","image-keyboard-response","232","151475","0.0-232.0","3QY7M81QH88R9SOZN7Z9NRE7PYKK78","AH1GZQFB3F9NH","3YKP7CX6G21OU5MBQSHEZ5ZTUTWB7P","","619","img/land6.png","75","622","2","1","2","2","0.8,0.2,0.2,0.2,0.8,0.2,0.2,0.2,0.8","0.8,0.2,0.2,0.2,0.8,0.2,0.2,0.2,0.8","1","",""
"","html-keyboard-response","233","151780","0.0-233.0","3QY7M81QH88R9SOZN7Z9NRE7PYKK78","AH1GZQFB3F9NH","3YKP7CX6G21OU5MBQSHEZ5ZTUTWB7P","","null","<img src=""img/land6.png"" style=""width:200px; border:14px solid green;"">","null","","","","","","","","","",""
"","image-keyboard-response","234","152651","0.0-234.0","3QY7M81QH88R9SOZN7Z9NRE7PYKK78","AH1GZQFB3F9NH","3YKP7CX6G21OU5MBQSHEZ5ZTUTWB7P","","867","img/land5.png","76","869","3","1","3","2","0.8,0.2,0.2,0.2,0.8,0.2,0.2,0.2,0.8","0.8,0.2,0.2,0.2,0.8,0.2,0.2,0.2,0.8","1","",""
"","html-keyboard-response","235","152956","0.0-235.0","3QY7M81QH88R9SOZN7Z9NRE7PYKK78","AH1GZQFB3F9NH","3YKP7CX6G21OU5MBQSHEZ5ZTUTWB7P","","null","<img src=""img/land5.png"" style=""width:200px; border:14px solid green;"">","null","","","","","","","","","",""
"","image-keyboard-response","236","153603","0.0-236.0","3QY7M81QH88R9SOZN7Z9NRE7PYKK78","AH1GZQFB3F9NH","3YKP7CX6G21OU5MBQSHEZ5ZTUTWB7P","","643","img/land5.png","76","646","3","1","3","2","0.8,0.2,0.2,0.2,0.8,0.2,0.2,0.2,0.8","0.8,0.2,0.2,0.2,0.8,0.2,0.2,0.2,0.8","1","",""
"","html-keyboard-response","237","153908","0.0-237.0","3QY7M81QH88R9SOZN7Z9NRE7PYKK78","AH1GZQFB3F9NH","3YKP7CX6G21OU5MBQSHEZ5ZTUTWB7P","","null","<img src=""img/land5.png"" style=""width:200px; border:14px solid green;"">","null","","","","","","","","","",""
"","image-keyboard-response","238","154451","0.0-238.0","3QY7M81QH88R9SOZN7Z9NRE7PYKK78","AH1GZQFB3F9NH","3YKP7CX6G21OU5MBQSHEZ5ZTUTWB7P","","538","img/land6.png","75","541","2","0","2","2","0.8,0.2,0.2,0.2,0.8,0.2,0.2,0.2,0.8","0.8,0.2,0.2,0.2,0.8,0.2,0.2,0.2,0.8","1","",""
"","html-keyboard-response","239","154756","0.0-239.0","3QY7M81QH88R9SOZN7Z9NRE7PYKK78","AH1GZQFB3F9NH","3YKP7CX6G21OU5MBQSHEZ5ZTUTWB7P","","null","<img src=""img/land6.png"" style=""width:200px;border:14px solid red;"">","null","","","","","","","","","",""
"","image-keyboard-response","240","155188","0.0-240.0","3QY7M81QH88R9SOZN7Z9NRE7PYKK78","AH1GZQFB3F9NH","3YKP7CX6G21OU5MBQSHEZ5ZTUTWB7P","","426","img/land6.png","75","430","2","1","2","2","0.8,0.2,0.2,0.2,0.8,0.2,0.2,0.2,0.8","0.8,0.2,0.2,0.2,0.8,0.2,0.2,0.2,0.8","1","",""
"","html-keyboard-response","241","155492","0.0-241.0","3QY7M81QH88R9SOZN7Z9NRE7PYKK78","AH1GZQFB3F9NH","3YKP7CX6G21OU5MBQSHEZ5ZTUTWB7P","","null","<img src=""img/land6.png"" style=""width:200px; border:14px solid green;"">","null","","","","","","","","","",""
"","image-keyboard-response","242","156059","0.0-242.0","3QY7M81QH88R9SOZN7Z9NRE7PYKK78","AH1GZQFB3F9NH","3YKP7CX6G21OU5MBQSHEZ5ZTUTWB7P","","563","img/land1.png","74","565","1","1","1","2","0.8,0.2,0.2,0.2,0.8,0.2,0.2,0.2,0.8","0.8,0.2,0.2,0.2,0.8,0.2,0.2,0.2,0.8","1","",""
"","html-keyboard-response","243","156366","0.0-243.0","3QY7M81QH88R9SOZN7Z9NRE7PYKK78","AH1GZQFB3F9NH","3YKP7CX6G21OU5MBQSHEZ5ZTUTWB7P","","null","<img src=""img/land1.png"" style=""width:200px; border:14px solid green;"">","null","","","","","","","","","",""
"","image-keyboard-response","244","157227","0.0-244.0","3QY7M81QH88R9SOZN7Z9NRE7PYKK78","AH1GZQFB3F9NH","3YKP7CX6G21OU5MBQSHEZ5ZTUTWB7P","","857","img/land6.png","75","860","2","0","2","2","0.8,0.2,0.2,0.2,0.8,0.2,0.2,0.2,0.8","0.8,0.2,0.2,0.2,0.8,0.2,0.2,0.2,0.8","1","",""
"","html-keyboard-response","245","157533","0.0-245.0","3QY7M81QH88R9SOZN7Z9NRE7PYKK78","AH1GZQFB3F9NH","3YKP7CX6G21OU5MBQSHEZ5ZTUTWB7P","","null","<img src=""img/land6.png"" style=""width:200px;border:14px solid red;"">","null","","","","","","","","","",""
"","image-keyboard-response","246","157715","0.0-246.0","3QY7M81QH88R9SOZN7Z9NRE7PYKK78","AH1GZQFB3F9NH","3YKP7CX6G21OU5MBQSHEZ5ZTUTWB7P","","178","img/land5.png","76","181","3","1","3","2","0.8,0.2,0.2,0.2,0.8,0.2,0.2,0.2,0.8","0.8,0.2,0.2,0.2,0.8,0.2,0.2,0.2,0.8","1","",""
"","html-keyboard-response","247","158020","0.0-247.0","3QY7M81QH88R9SOZN7Z9NRE7PYKK78","AH1GZQFB3F9NH","3YKP7CX6G21OU5MBQSHEZ5ZTUTWB7P","","null","<img src=""img/land5.png"" style=""width:200px; border:14px solid green;"">","null","","","","","","","","","",""
"","image-keyboard-response","248","159100","0.0-248.0","3QY7M81QH88R9SOZN7Z9NRE7PYKK78","AH1GZQFB3F9NH","3YKP7CX6G21OU5MBQSHEZ5ZTUTWB7P","","1076","img/land1.png","74","1078","1","0","1","2","0.8,0.2,0.2,0.2,0.8,0.2,0.2,0.2,0.8","0.8,0.2,0.2,0.2,0.8,0.2,0.2,0.2,0.8","1","",""
"","html-keyboard-response","249","159404","0.0-249.0","3QY7M81QH88R9SOZN7Z9NRE7PYKK78","AH1GZQFB3F9NH","3YKP7CX6G21OU5MBQSHEZ5ZTUTWB7P","","null","<img src=""img/land1.png"" style=""width:200px;border:14px solid red;"">","null","","","","","","","","","",""
"","image-keyboard-response","250","159803","0.0-250.0","3QY7M81QH88R9SOZN7Z9NRE7PYKK78","AH1GZQFB3F9NH","3YKP7CX6G21OU5MBQSHEZ5ZTUTWB7P","","394","img/land1.png","74","397","1","1","1","2","0.8,0.2,0.2,0.2,0.8,0.2,0.2,0.2,0.8","0.8,0.2,0.2,0.2,0.8,0.2,0.2,0.2,0.8","1","",""
"","html-keyboard-response","251","160108","0.0-251.0","3QY7M81QH88R9SOZN7Z9NRE7PYKK78","AH1GZQFB3F9NH","3YKP7CX6G21OU5MBQSHEZ5ZTUTWB7P","","null","<img src=""img/land1.png"" style=""width:200px; border:14px solid green;"">","null","","","","","","","","","",""
"","image-keyboard-response","252","160875","0.0-252.0","3QY7M81QH88R9SOZN7Z9NRE7PYKK78","AH1GZQFB3F9NH","3YKP7CX6G21OU5MBQSHEZ5ZTUTWB7P","","762","img/land1.png","74","765","1","1","1","2","0.8,0.2,0.2,0.2,0.8,0.2,0.2,0.2,0.8","0.8,0.2,0.2,0.2,0.8,0.2,0.2,0.2,0.8","1","",""
"","html-keyboard-response","253","161181","0.0-253.0","3QY7M81QH88R9SOZN7Z9NRE7PYKK78","AH1GZQFB3F9NH","3YKP7CX6G21OU5MBQSHEZ5ZTUTWB7P","","null","<img src=""img/land1.png"" style=""width:200px; border:14px solid green;"">","null","","","","","","","","","",""
"","image-keyboard-response","254","161732","0.0-254.0","3QY7M81QH88R9SOZN7Z9NRE7PYKK78","AH1GZQFB3F9NH","3YKP7CX6G21OU5MBQSHEZ5ZTUTWB7P","","546","img/land1.png","74","551","1","1","1","2","0.8,0.2,0.2,0.2,0.8,0.2,0.2,0.2,0.8","0.8,0.2,0.2,0.2,0.8,0.2,0.2,0.2,0.8","1","",""
"","html-keyboard-response","255","162037","0.0-255.0","3QY7M81QH88R9SOZN7Z9NRE7PYKK78","AH1GZQFB3F9NH","3YKP7CX6G21OU5MBQSHEZ5ZTUTWB7P","","null","<img src=""img/land1.png"" style=""width:200px; border:14px solid green;"">","null","","","","","","","","","",""
"","image-keyboard-response","256","162531","0.0-256.0","3QY7M81QH88R9SOZN7Z9NRE7PYKK78","AH1GZQFB3F9NH","3YKP7CX6G21OU5MBQSHEZ5ZTUTWB7P","","490","img/land1.png","74","493","1","1","1","2","0.8,0.2,0.2,0.2,0.8,0.2,0.2,0.2,0.8","0.8,0.2,0.2,0.2,0.8,0.2,0.2,0.2,0.8","1","",""
"","html-keyboard-response","257","162836","0.0-257.0","3QY7M81QH88R9SOZN7Z9NRE7PYKK78","AH1GZQFB3F9NH","3YKP7CX6G21OU5MBQSHEZ5ZTUTWB7P","","null","<img src=""img/land1.png"" style=""width:200px; border:14px solid green;"">","null","","","","","","","","","",""
"","image-keyboard-response","258","163316","0.0-258.0","3QY7M81QH88R9SOZN7Z9NRE7PYKK78","AH1GZQFB3F9NH","3YKP7CX6G21OU5MBQSHEZ5ZTUTWB7P","","475","img/land1.png","74","479","1","1","1","2","0.8,0.2,0.2,0.2,0.8,0.2,0.2,0.2,0.8","0.8,0.2,0.2,0.2,0.8,0.2,0.2,0.2,0.8","1","",""
"","html-keyboard-response","259","163622","0.0-259.0","3QY7M81QH88R9SOZN7Z9NRE7PYKK78","AH1GZQFB3F9NH","3YKP7CX6G21OU5MBQSHEZ5ZTUTWB7P","","null","<img src=""img/land1.png"" style=""width:200px; border:14px solid green;"">","null","","","","","","","","","",""
"","image-keyboard-response","260","164092","0.0-260.0","3QY7M81QH88R9SOZN7Z9NRE7PYKK78","AH1GZQFB3F9NH","3YKP7CX6G21OU5MBQSHEZ5ZTUTWB7P","","466","img/land1.png","74","469","1","1","1","2","0.8,0.2,0.2,0.2,0.8,0.2,0.2,0.2,0.8","0.8,0.2,0.2,0.2,0.8,0.2,0.2,0.2,0.8","1","",""
"","html-keyboard-response","261","164397","0.0-261.0","3QY7M81QH88R9SOZN7Z9NRE7PYKK78","AH1GZQFB3F9NH","3YKP7CX6G21OU5MBQSHEZ5ZTUTWB7P","","null","<img src=""img/land1.png"" style=""width:200px; border:14px solid green;"">","null","","","","","","","","","",""
"","image-keyboard-response","262","164907","0.0-262.0","3QY7M81QH88R9SOZN7Z9NRE7PYKK78","AH1GZQFB3F9NH","3YKP7CX6G21OU5MBQSHEZ5ZTUTWB7P","","506","img/land1.png","74","510","1","1","1","2","0.8,0.2,0.2,0.2,0.8,0.2,0.2,0.2,0.8","0.8,0.2,0.2,0.2,0.8,0.2,0.2,0.2,0.8","1","",""
"","html-keyboard-response","263","165213","0.0-263.0","3QY7M81QH88R9SOZN7Z9NRE7PYKK78","AH1GZQFB3F9NH","3YKP7CX6G21OU5MBQSHEZ5ZTUTWB7P","","null","<img src=""img/land1.png"" style=""width:200px; border:14px solid green;"">","null","","","","","","","","","",""
"","image-keyboard-response","264","165619","0.0-264.0","3QY7M81QH88R9SOZN7Z9NRE7PYKK78","AH1GZQFB3F9NH","3YKP7CX6G21OU5MBQSHEZ5ZTUTWB7P","","402","img/land1.png","74","405","1","1","1","2","0.8,0.2,0.2,0.2,0.8,0.2,0.2,0.2,0.8","0.8,0.2,0.2,0.2,0.8,0.2,0.2,0.2,0.8","1","",""
"","html-keyboard-response","265","165924","0.0-265.0","3QY7M81QH88R9SOZN7Z9NRE7PYKK78","AH1GZQFB3F9NH","3YKP7CX6G21OU5MBQSHEZ5ZTUTWB7P","","null","<img src=""img/land1.png"" style=""width:200px; border:14px solid green;"">","null","","","","","","","","","",""
"","image-keyboard-response","266","166339","0.0-266.0","3QY7M81QH88R9SOZN7Z9NRE7PYKK78","AH1GZQFB3F9NH","3YKP7CX6G21OU5MBQSHEZ5ZTUTWB7P","","410","img/land1.png","74","413","1","1","1","2","0.8,0.2,0.2,0.2,0.8,0.2,0.2,0.2,0.8","0.8,0.2,0.2,0.2,0.8,0.2,0.2,0.2,0.8","1","",""
"","html-keyboard-response","267","166645","0.0-267.0","3QY7M81QH88R9SOZN7Z9NRE7PYKK78","AH1GZQFB3F9NH","3YKP7CX6G21OU5MBQSHEZ5ZTUTWB7P","","null","<img src=""img/land1.png"" style=""width:200px; border:14px solid green;"">","null","","","","","","","","","",""
"","image-keyboard-response","268","167043","0.0-268.0","3QY7M81QH88R9SOZN7Z9NRE7PYKK78","AH1GZQFB3F9NH","3YKP7CX6G21OU5MBQSHEZ5ZTUTWB7P","","394","img/land1.png","74","398","1","1","1","2","0.8,0.2,0.2,0.2,0.8,0.2,0.2,0.2,0.8","0.8,0.2,0.2,0.2,0.8,0.2,0.2,0.2,0.8","1","",""
"","html-keyboard-response","269","167349","0.0-269.0","3QY7M81QH88R9SOZN7Z9NRE7PYKK78","AH1GZQFB3F9NH","3YKP7CX6G21OU5MBQSHEZ5ZTUTWB7P","","null","<img src=""img/land1.png"" style=""width:200px; border:14px solid green;"">","null","","","","","","","","","",""
"","image-keyboard-response","270","168076","0.0-270.0","3QY7M81QH88R9SOZN7Z9NRE7PYKK78","AH1GZQFB3F9NH","3YKP7CX6G21OU5MBQSHEZ5ZTUTWB7P","","722","img/land6.png","75","725","2","0","2","2","0.8,0.2,0.2,0.2,0.8,0.2,0.2,0.2,0.8","0.8,0.2,0.2,0.2,0.8,0.2,0.2,0.2,0.8","1","",""
"","html-keyboard-response","271","168381","0.0-271.0","3QY7M81QH88R9SOZN7Z9NRE7PYKK78","AH1GZQFB3F9NH","3YKP7CX6G21OU5MBQSHEZ5ZTUTWB7P","","null","<img src=""img/land6.png"" style=""width:200px;border:14px solid red;"">","null","","","","","","","","","",""
"","image-keyboard-response","272","168827","0.0-272.0","3QY7M81QH88R9SOZN7Z9NRE7PYKK78","AH1GZQFB3F9NH","3YKP7CX6G21OU5MBQSHEZ5ZTUTWB7P","","442","img/land1.png","76","445","3","0","1","2","0.8,0.2,0.2,0.2,0.8,0.2,0.2,0.2,0.8","0.8,0.2,0.2,0.2,0.8,0.2,0.2,0.2,0.8","1","",""
"","html-keyboard-response","273","169133","0.0-273.0","3QY7M81QH88R9SOZN7Z9NRE7PYKK78","AH1GZQFB3F9NH","3YKP7CX6G21OU5MBQSHEZ5ZTUTWB7P","","null","<img src=""img/land1.png"" style=""width:200px;border:14px solid red;"">","null","","","","","","","","","",""
"","image-keyboard-response","274","169660","0.0-274.0","3QY7M81QH88R9SOZN7Z9NRE7PYKK78","AH1GZQFB3F9NH","3YKP7CX6G21OU5MBQSHEZ5ZTUTWB7P","","522","img/land1.png","74","525","1","0","1","2","0.8,0.2,0.2,0.2,0.8,0.2,0.2,0.2,0.8","0.8,0.2,0.2,0.2,0.8,0.2,0.2,0.2,0.8","1","",""
"","html-keyboard-response","275","169965","0.0-275.0","3QY7M81QH88R9SOZN7Z9NRE7PYKK78","AH1GZQFB3F9NH","3YKP7CX6G21OU5MBQSHEZ5ZTUTWB7P","","null","<img src=""img/land1.png"" style=""width:200px;border:14px solid red;"">","null","","","","","","","","","",""
"","image-keyboard-response","276","170228","0.0-276.0","3QY7M81QH88R9SOZN7Z9NRE7PYKK78","AH1GZQFB3F9NH","3YKP7CX6G21OU5MBQSHEZ5ZTUTWB7P","","259","img/land5.png","74","262","1","0","3","2","0.8,0.2,0.2,0.2,0.8,0.2,0.2,0.2,0.8","0.8,0.2,0.2,0.2,0.8,0.2,0.2,0.2,0.8","1","",""
"","html-keyboard-response","277","170533","0.0-277.0","3QY7M81QH88R9SOZN7Z9NRE7PYKK78","AH1GZQFB3F9NH","3YKP7CX6G21OU5MBQSHEZ5ZTUTWB7P","","null","<img src=""img/land5.png"" style=""width:200px;border:14px solid red;"">","null","","","","","","","","","",""
"","image-keyboard-response","278","170995","0.0-278.0","3QY7M81QH88R9SOZN7Z9NRE7PYKK78","AH1GZQFB3F9NH","3YKP7CX6G21OU5MBQSHEZ5ZTUTWB7P","","457","img/land5.png","76","461","3","1","3","2","0.8,0.2,0.2,0.2,0.8,0.2,0.2,0.2,0.8","0.8,0.2,0.2,0.2,0.8,0.2,0.2,0.2,0.8","1","",""
"","html-keyboard-response","279","171301","0.0-279.0","3QY7M81QH88R9SOZN7Z9NRE7PYKK78","AH1GZQFB3F9NH","3YKP7CX6G21OU5MBQSHEZ5ZTUTWB7P","","null","<img src=""img/land5.png"" style=""width:200px; border:14px solid green;"">","null","","","","","","","","","",""
"","image-keyboard-response","280","172195","0.0-280.0","3QY7M81QH88R9SOZN7Z9NRE7PYKK78","AH1GZQFB3F9NH","3YKP7CX6G21OU5MBQSHEZ5ZTUTWB7P","","890","img/land1.png","74","893","1","1","1","2","0.8,0.2,0.2,0.2,0.8,0.2,0.2,0.2,0.8","0.8,0.2,0.2,0.2,0.8,0.2,0.2,0.2,0.8","1","",""
"","html-keyboard-response","281","172500","0.0-281.0","3QY7M81QH88R9SOZN7Z9NRE7PYKK78","AH1GZQFB3F9NH","3YKP7CX6G21OU5MBQSHEZ5ZTUTWB7P","","null","<img src=""img/land1.png"" style=""width:200px; border:14px solid green;"">","null","","","","","","","","","",""
"","image-keyboard-response","282","172923","0.0-282.0","3QY7M81QH88R9SOZN7Z9NRE7PYKK78","AH1GZQFB3F9NH","3YKP7CX6G21OU5MBQSHEZ5ZTUTWB7P","","418","img/land1.png","74","422","1","0","1","2","0.8,0.2,0.2,0.2,0.8,0.2,0.2,0.2,0.8","0.8,0.2,0.2,0.2,0.8,0.2,0.2,0.2,0.8","1","",""
"","html-keyboard-response","283","173229","0.0-283.0","3QY7M81QH88R9SOZN7Z9NRE7PYKK78","AH1GZQFB3F9NH","3YKP7CX6G21OU5MBQSHEZ5ZTUTWB7P","","null","<img src=""img/land1.png"" style=""width:200px;border:14px solid red;"">","null","","","","","","","","","",""
"","image-keyboard-response","284","173796","0.0-284.0","3QY7M81QH88R9SOZN7Z9NRE7PYKK78","AH1GZQFB3F9NH","3YKP7CX6G21OU5MBQSHEZ5ZTUTWB7P","","561","img/land1.png","74","565","1","1","1","2","0.8,0.2,0.2,0.2,0.8,0.2,0.2,0.2,0.8","0.8,0.2,0.2,0.2,0.8,0.2,0.2,0.2,0.8","1","",""
"","html-keyboard-response","285","174100","0.0-285.0","3QY7M81QH88R9SOZN7Z9NRE7PYKK78","AH1GZQFB3F9NH","3YKP7CX6G21OU5MBQSHEZ5ZTUTWB7P","","null","<img src=""img/land1.png"" style=""width:200px; border:14px solid green;"">","null","","","","","","","","","",""
"","image-keyboard-response","286","174587","0.0-286.0","3QY7M81QH88R9SOZN7Z9NRE7PYKK78","AH1GZQFB3F9NH","3YKP7CX6G21OU5MBQSHEZ5ZTUTWB7P","","483","img/land1.png","74","486","1","1","1","2","0.8,0.2,0.2,0.2,0.8,0.2,0.2,0.2,0.8","0.8,0.2,0.2,0.2,0.8,0.2,0.2,0.2,0.8","1","",""
"","html-keyboard-response","287","174892","0.0-287.0","3QY7M81QH88R9SOZN7Z9NRE7PYKK78","AH1GZQFB3F9NH","3YKP7CX6G21OU5MBQSHEZ5ZTUTWB7P","","null","<img src=""img/land1.png"" style=""width:200px; border:14px solid green;"">","null","","","","","","","","","",""
"","image-keyboard-response","288","175378","0.0-288.0","3QY7M81QH88R9SOZN7Z9NRE7PYKK78","AH1GZQFB3F9NH","3YKP7CX6G21OU5MBQSHEZ5ZTUTWB7P","","481","img/land1.png","74","484","1","1","1","2","0.8,0.2,0.2,0.2,0.8,0.2,0.2,0.2,0.8","0.8,0.2,0.2,0.2,0.8,0.2,0.2,0.2,0.8","1","",""
"","html-keyboard-response","289","175681","0.0-289.0","3QY7M81QH88R9SOZN7Z9NRE7PYKK78","AH1GZQFB3F9NH","3YKP7CX6G21OU5MBQSHEZ5ZTUTWB7P","","null","<img src=""img/land1.png"" style=""width:200px; border:14px solid green;"">","null","","","","","","","","","",""
"","image-keyboard-response","290","176060","0.0-290.0","3QY7M81QH88R9SOZN7Z9NRE7PYKK78","AH1GZQFB3F9NH","3YKP7CX6G21OU5MBQSHEZ5ZTUTWB7P","","374","img/land1.png","74","378","1","0","1","2","0.8,0.2,0.2,0.2,0.8,0.2,0.2,0.2,0.8","0.8,0.2,0.2,0.2,0.8,0.2,0.2,0.2,0.8","1","",""
"","html-keyboard-response","291","176364","0.0-291.0","3QY7M81QH88R9SOZN7Z9NRE7PYKK78","AH1GZQFB3F9NH","3YKP7CX6G21OU5MBQSHEZ5ZTUTWB7P","","null","<img src=""img/land1.png"" style=""width:200px;border:14px solid red;"">","null","","","","","","","","","",""
"","image-keyboard-response","292","176803","0.0-292.0","3QY7M81QH88R9SOZN7Z9NRE7PYKK78","AH1GZQFB3F9NH","3YKP7CX6G21OU5MBQSHEZ5ZTUTWB7P","","434","img/land1.png","74","437","1","0","1","2","0.8,0.2,0.2,0.2,0.8,0.2,0.2,0.2,0.8","0.8,0.2,0.2,0.2,0.8,0.2,0.2,0.2,0.8","1","",""
"","html-keyboard-response","293","177109","0.0-293.0","3QY7M81QH88R9SOZN7Z9NRE7PYKK78","AH1GZQFB3F9NH","3YKP7CX6G21OU5MBQSHEZ5ZTUTWB7P","","null","<img src=""img/land1.png"" style=""width:200px;border:14px solid red;"">","null","","","","","","","","","",""
"","image-keyboard-response","294","177506","0.0-294.0","3QY7M81QH88R9SOZN7Z9NRE7PYKK78","AH1GZQFB3F9NH","3YKP7CX6G21OU5MBQSHEZ5ZTUTWB7P","","393","img/land1.png","74","397","1","1","1","2","0.8,0.2,0.2,0.2,0.8,0.2,0.2,0.2,0.8","0.8,0.2,0.2,0.2,0.8,0.2,0.2,0.2,0.8","1","",""
"","html-keyboard-response","295","177812","0.0-295.0","3QY7M81QH88R9SOZN7Z9NRE7PYKK78","AH1GZQFB3F9NH","3YKP7CX6G21OU5MBQSHEZ5ZTUTWB7P","","null","<img src=""img/land1.png"" style=""width:200px; border:14px solid green;"">","null","","","","","","","","","",""
"","image-keyboard-response","296","179556","0.0-296.0","3QY7M81QH88R9SOZN7Z9NRE7PYKK78","AH1GZQFB3F9NH","3YKP7CX6G21OU5MBQSHEZ5ZTUTWB7P","","1738","img/land5.png","76","1741","3","1","3","2","0.8,0.2,0.2,0.2,0.8,0.2,0.2,0.2,0.8","0.8,0.2,0.2,0.2,0.8,0.2,0.2,0.2,0.8","1","",""
"","html-keyboard-response","297","179860","0.0-297.0","3QY7M81QH88R9SOZN7Z9NRE7PYKK78","AH1GZQFB3F9NH","3YKP7CX6G21OU5MBQSHEZ5ZTUTWB7P","","null","<img src=""img/land5.png"" style=""width:200px; border:14px solid green;"">","null","","","","","","","","","",""
"","image-keyboard-response","298","180675","0.0-298.0","3QY7M81QH88R9SOZN7Z9NRE7PYKK78","AH1GZQFB3F9NH","3YKP7CX6G21OU5MBQSHEZ5ZTUTWB7P","","811","img/land1.png","74","814","1","1","1","2","0.8,0.2,0.2,0.2,0.8,0.2,0.2,0.2,0.8","0.8,0.2,0.2,0.2,0.8,0.2,0.2,0.2,0.8","1","",""
"","html-keyboard-response","299","180981","0.0-299.0","3QY7M81QH88R9SOZN7Z9NRE7PYKK78","AH1GZQFB3F9NH","3YKP7CX6G21OU5MBQSHEZ5ZTUTWB7P","","null","<img src=""img/land1.png"" style=""width:200px; border:14px solid green;"">","null","","","","","","","","","",""
"","image-keyboard-response","300","181668","0.0-300.0","3QY7M81QH88R9SOZN7Z9NRE7PYKK78","AH1GZQFB3F9NH","3YKP7CX6G21OU5MBQSHEZ5ZTUTWB7P","","683","img/land1.png","74","685","1","1","1","2","0.8,0.2,0.2,0.2,0.8,0.2,0.2,0.2,0.8","0.8,0.2,0.2,0.2,0.8,0.2,0.2,0.2,0.8","1","",""
"","html-keyboard-response","301","181973","0.0-301.0","3QY7M81QH88R9SOZN7Z9NRE7PYKK78","AH1GZQFB3F9NH","3YKP7CX6G21OU5MBQSHEZ5ZTUTWB7P","","null","<img src=""img/land1.png"" style=""width:200px; border:14px solid green;"">","null","","","","","","","","","",""
"","image-keyboard-response","302","183251","0.0-302.0","3QY7M81QH88R9SOZN7Z9NRE7PYKK78","AH1GZQFB3F9NH","3YKP7CX6G21OU5MBQSHEZ5ZTUTWB7P","","1273","img/land4.png","75","1277","2","0","1","1","0.8,0.2,0.2,0.2,0.8,0.2,0.2,0.2,0.8","0.8,0.2,0.2,0.2,0.8,0.2,0.2,0.2,0.8","1","",""
"","html-keyboard-response","303","183557","0.0-303.0","3QY7M81QH88R9SOZN7Z9NRE7PYKK78","AH1GZQFB3F9NH","3YKP7CX6G21OU5MBQSHEZ5ZTUTWB7P","","null","<img src=""img/land4.png"" style=""width:200px;border:14px solid red;"">","null","","","","","","","","","",""
"","image-keyboard-response","304","184875","0.0-304.0","3QY7M81QH88R9SOZN7Z9NRE7PYKK78","AH1GZQFB3F9NH","3YKP7CX6G21OU5MBQSHEZ5ZTUTWB7P","","1315","img/land3.png","75","1318","2","0","3","1","0.8,0.2,0.2,0.2,0.8,0.2,0.2,0.2,0.8","0.8,0.2,0.2,0.2,0.8,0.2,0.2,0.2,0.8","1","",""
"","html-keyboard-response","305","185181","0.0-305.0","3QY7M81QH88R9SOZN7Z9NRE7PYKK78","AH1GZQFB3F9NH","3YKP7CX6G21OU5MBQSHEZ5ZTUTWB7P","","null","<img src=""img/land3.png"" style=""width:200px;border:14px solid red;"">","null","","","","","","","","","",""
"","image-keyboard-response","306","186291","0.0-306.0","3QY7M81QH88R9SOZN7Z9NRE7PYKK78","AH1GZQFB3F9NH","3YKP7CX6G21OU5MBQSHEZ5ZTUTWB7P","","1105","img/land3.png","74","1109","1","0","3","1","0.8,0.2,0.2,0.2,0.8,0.2,0.2,0.2,0.8","0.8,0.2,0.2,0.2,0.8,0.2,0.2,0.2,0.8","1","",""
"","html-keyboard-response","307","186596","0.0-307.0","3QY7M81QH88R9SOZN7Z9NRE7PYKK78","AH1GZQFB3F9NH","3YKP7CX6G21OU5MBQSHEZ5ZTUTWB7P","","null","<img src=""img/land3.png"" style=""width:200px;border:14px solid red;"">","null","","","","","","","","","",""
"","image-keyboard-response","308","187277","0.0-308.0","3QY7M81QH88R9SOZN7Z9NRE7PYKK78","AH1GZQFB3F9NH","3YKP7CX6G21OU5MBQSHEZ5ZTUTWB7P","","675","img/land3.png","76","680","3","1","3","1","0.8,0.2,0.2,0.2,0.8,0.2,0.2,0.2,0.8","0.8,0.2,0.2,0.2,0.8,0.2,0.2,0.2,0.8","1","",""
"","html-keyboard-response","309","187582","0.0-309.0","3QY7M81QH88R9SOZN7Z9NRE7PYKK78","AH1GZQFB3F9NH","3YKP7CX6G21OU5MBQSHEZ5ZTUTWB7P","","null","<img src=""img/land3.png"" style=""width:200px; border:14px solid green;"">","null","","","","","","","","","",""
"","image-keyboard-response","310","188235","0.0-310.0","3QY7M81QH88R9SOZN7Z9NRE7PYKK78","AH1GZQFB3F9NH","3YKP7CX6G21OU5MBQSHEZ5ZTUTWB7P","","649","img/land3.png","76","652","3","1","3","1","0.8,0.2,0.2,0.2,0.8,0.2,0.2,0.2,0.8","0.8,0.2,0.2,0.2,0.8,0.2,0.2,0.2,0.8","1","",""
"","html-keyboard-response","311","188541","0.0-311.0","3QY7M81QH88R9SOZN7Z9NRE7PYKK78","AH1GZQFB3F9NH","3YKP7CX6G21OU5MBQSHEZ5ZTUTWB7P","","null","<img src=""img/land3.png"" style=""width:200px; border:14px solid green;"">","null","","","","","","","","","",""
"","image-keyboard-response","312","189044","0.0-312.0","3QY7M81QH88R9SOZN7Z9NRE7PYKK78","AH1GZQFB3F9NH","3YKP7CX6G21OU5MBQSHEZ5ZTUTWB7P","","498","img/land3.png","76","501","3","1","3","1","0.8,0.2,0.2,0.2,0.8,0.2,0.2,0.2,0.8","0.8,0.2,0.2,0.2,0.8,0.2,0.2,0.2,0.8","1","",""
"","html-keyboard-response","313","189349","0.0-313.0","3QY7M81QH88R9SOZN7Z9NRE7PYKK78","AH1GZQFB3F9NH","3YKP7CX6G21OU5MBQSHEZ5ZTUTWB7P","","null","<img src=""img/land3.png"" style=""width:200px; border:14px solid green;"">","null","","","","","","","","","",""
"","image-keyboard-response","314","190843","0.0-314.0","3QY7M81QH88R9SOZN7Z9NRE7PYKK78","AH1GZQFB3F9NH","3YKP7CX6G21OU5MBQSHEZ5ZTUTWB7P","","1490","img/land2.png","76","1493","3","1","2","1","0.8,0.2,0.2,0.2,0.8,0.2,0.2,0.2,0.8","0.8,0.2,0.2,0.2,0.8,0.2,0.2,0.2,0.8","1","",""
"","html-keyboard-response","315","191148","0.0-315.0","3QY7M81QH88R9SOZN7Z9NRE7PYKK78","AH1GZQFB3F9NH","3YKP7CX6G21OU5MBQSHEZ5ZTUTWB7P","","null","<img src=""img/land2.png"" style=""width:200px; border:14px solid green;"">","null","","","","","","","","","",""
"","image-keyboard-response","316","192027","0.0-316.0","3QY7M81QH88R9SOZN7Z9NRE7PYKK78","AH1GZQFB3F9NH","3YKP7CX6G21OU5MBQSHEZ5ZTUTWB7P","","875","img/land3.png","76","878","3","0","3","1","0.8,0.2,0.2,0.2,0.8,0.2,0.2,0.2,0.8","0.8,0.2,0.2,0.2,0.8,0.2,0.2,0.2,0.8","1","",""
"","html-keyboard-response","317","192365","0.0-317.0","3QY7M81QH88R9SOZN7Z9NRE7PYKK78","AH1GZQFB3F9NH","3YKP7CX6G21OU5MBQSHEZ5ZTUTWB7P","","null","<img src=""img/land3.png"" style=""width:200px;border:14px solid red;"">","null","","","","","","","","","",""
"","image-keyboard-response","318","193268","0.0-318.0","3QY7M81QH88R9SOZN7Z9NRE7PYKK78","AH1GZQFB3F9NH","3YKP7CX6G21OU5MBQSHEZ5ZTUTWB7P","","898","img/land4.png","75","901","2","0","1","1","0.8,0.2,0.2,0.2,0.8,0.2,0.2,0.2,0.8","0.8,0.2,0.2,0.2,0.8,0.2,0.2,0.2,0.8","1","",""
"","html-keyboard-response","319","193573","0.0-319.0","3QY7M81QH88R9SOZN7Z9NRE7PYKK78","AH1GZQFB3F9NH","3YKP7CX6G21OU5MBQSHEZ5ZTUTWB7P","","null","<img src=""img/land4.png"" style=""width:200px;border:14px solid red;"">","null","","","","","","","","","",""
"","image-keyboard-response","320","194468","0.0-320.0","3QY7M81QH88R9SOZN7Z9NRE7PYKK78","AH1GZQFB3F9NH","3YKP7CX6G21OU5MBQSHEZ5ZTUTWB7P","","890","img/land3.png","76","893","3","1","3","1","0.8,0.2,0.2,0.2,0.8,0.2,0.2,0.2,0.8","0.8,0.2,0.2,0.2,0.8,0.2,0.2,0.2,0.8","1","",""
"","html-keyboard-response","321","194773","0.0-321.0","3QY7M81QH88R9SOZN7Z9NRE7PYKK78","AH1GZQFB3F9NH","3YKP7CX6G21OU5MBQSHEZ5ZTUTWB7P","","null","<img src=""img/land3.png"" style=""width:200px; border:14px solid green;"">","null","","","","","","","","","",""
"","image-keyboard-response","322","195811","0.0-322.0","3QY7M81QH88R9SOZN7Z9NRE7PYKK78","AH1GZQFB3F9NH","3YKP7CX6G21OU5MBQSHEZ5ZTUTWB7P","","1034","img/land2.png","76","1038","3","0","2","1","0.8,0.2,0.2,0.2,0.8,0.2,0.2,0.2,0.8","0.8,0.2,0.2,0.2,0.8,0.2,0.2,0.2,0.8","1","",""
"","html-keyboard-response","323","196117","0.0-323.0","3QY7M81QH88R9SOZN7Z9NRE7PYKK78","AH1GZQFB3F9NH","3YKP7CX6G21OU5MBQSHEZ5ZTUTWB7P","","null","<img src=""img/land2.png"" style=""width:200px;border:14px solid red;"">","null","","","","","","","","","",""
"","image-keyboard-response","324","196859","0.0-324.0","3QY7M81QH88R9SOZN7Z9NRE7PYKK78","AH1GZQFB3F9NH","3YKP7CX6G21OU5MBQSHEZ5ZTUTWB7P","","738","img/land4.png","75","741","2","0","1","1","0.8,0.2,0.2,0.2,0.8,0.2,0.2,0.2,0.8","0.8,0.2,0.2,0.2,0.8,0.2,0.2,0.2,0.8","1","",""
"","html-keyboard-response","325","197165","0.0-325.0","3QY7M81QH88R9SOZN7Z9NRE7PYKK78","AH1GZQFB3F9NH","3YKP7CX6G21OU5MBQSHEZ5ZTUTWB7P","","null","<img src=""img/land4.png"" style=""width:200px;border:14px solid red;"">","null","","","","","","","","","",""
"","image-keyboard-response","326","197564","0.0-326.0","3QY7M81QH88R9SOZN7Z9NRE7PYKK78","AH1GZQFB3F9NH","3YKP7CX6G21OU5MBQSHEZ5ZTUTWB7P","","395","img/land4.png","75","397","2","0","1","1","0.8,0.2,0.2,0.2,0.8,0.2,0.2,0.2,0.8","0.8,0.2,0.2,0.2,0.8,0.2,0.2,0.2,0.8","1","",""
"","html-keyboard-response","327","197869","0.0-327.0","3QY7M81QH88R9SOZN7Z9NRE7PYKK78","AH1GZQFB3F9NH","3YKP7CX6G21OU5MBQSHEZ5ZTUTWB7P","","null","<img src=""img/land4.png"" style=""width:200px;border:14px solid red;"">","null","","","","","","","","","",""
"","image-keyboard-response","328","198572","0.0-328.0","3QY7M81QH88R9SOZN7Z9NRE7PYKK78","AH1GZQFB3F9NH","3YKP7CX6G21OU5MBQSHEZ5ZTUTWB7P","","697","img/land4.png","76","701","3","0","1","1","0.8,0.2,0.2,0.2,0.8,0.2,0.2,0.2,0.8","0.8,0.2,0.2,0.2,0.8,0.2,0.2,0.2,0.8","1","",""
"","html-keyboard-response","329","198877","0.0-329.0","3QY7M81QH88R9SOZN7Z9NRE7PYKK78","AH1GZQFB3F9NH","3YKP7CX6G21OU5MBQSHEZ5ZTUTWB7P","","null","<img src=""img/land4.png"" style=""width:200px;border:14px solid red;"">","null","","","","","","","","","",""
"","image-keyboard-response","330","199452","0.0-330.0","3QY7M81QH88R9SOZN7Z9NRE7PYKK78","AH1GZQFB3F9NH","3YKP7CX6G21OU5MBQSHEZ5ZTUTWB7P","","569","img/land4.png","74","574","1","1","1","1","0.8,0.2,0.2,0.2,0.8,0.2,0.2,0.2,0.8","0.8,0.2,0.2,0.2,0.8,0.2,0.2,0.2,0.8","1","",""
"","html-keyboard-response","331","199757","0.0-331.0","3QY7M81QH88R9SOZN7Z9NRE7PYKK78","AH1GZQFB3F9NH","3YKP7CX6G21OU5MBQSHEZ5ZTUTWB7P","","null","<img src=""img/land4.png"" style=""width:200px; border:14px solid green;"">","null","","","","","","","","","",""
"","image-keyboard-response","332","200659","0.0-332.0","3QY7M81QH88R9SOZN7Z9NRE7PYKK78","AH1GZQFB3F9NH","3YKP7CX6G21OU5MBQSHEZ5ZTUTWB7P","","897","img/land4.png","74","901","1","1","1","1","0.8,0.2,0.2,0.2,0.8,0.2,0.2,0.2,0.8","0.8,0.2,0.2,0.2,0.8,0.2,0.2,0.2,0.8","1","",""
"","html-keyboard-response","333","200965","0.0-333.0","3QY7M81QH88R9SOZN7Z9NRE7PYKK78","AH1GZQFB3F9NH","3YKP7CX6G21OU5MBQSHEZ5ZTUTWB7P","","null","<img src=""img/land4.png"" style=""width:200px; border:14px solid green;"">","null","","","","","","","","","",""
"","image-keyboard-response","334","201595","0.0-334.0","3QY7M81QH88R9SOZN7Z9NRE7PYKK78","AH1GZQFB3F9NH","3YKP7CX6G21OU5MBQSHEZ5ZTUTWB7P","","626","img/land4.png","74","630","1","1","1","1","0.8,0.2,0.2,0.2,0.8,0.2,0.2,0.2,0.8","0.8,0.2,0.2,0.2,0.8,0.2,0.2,0.2,0.8","1","",""
"","html-keyboard-response","335","201901","0.0-335.0","3QY7M81QH88R9SOZN7Z9NRE7PYKK78","AH1GZQFB3F9NH","3YKP7CX6G21OU5MBQSHEZ5ZTUTWB7P","","null","<img src=""img/land4.png"" style=""width:200px; border:14px solid green;"">","null","","","","","","","","","",""
"","image-keyboard-response","336","203237","0.0-336.0","3QY7M81QH88R9SOZN7Z9NRE7PYKK78","AH1GZQFB3F9NH","3YKP7CX6G21OU5MBQSHEZ5ZTUTWB7P","","1331","img/land3.png","75","1336","2","0","3","1","0.8,0.2,0.2,0.2,0.8,0.2,0.2,0.2,0.8","0.8,0.2,0.2,0.2,0.8,0.2,0.2,0.2,0.8","1","",""
"","html-keyboard-response","337","203542","0.0-337.0","3QY7M81QH88R9SOZN7Z9NRE7PYKK78","AH1GZQFB3F9NH","3YKP7CX6G21OU5MBQSHEZ5ZTUTWB7P","","null","<img src=""img/land3.png"" style=""width:200px;border:14px solid red;"">","null","","","","","","","","","",""
"","image-keyboard-response","338","204460","0.0-338.0","3QY7M81QH88R9SOZN7Z9NRE7PYKK78","AH1GZQFB3F9NH","3YKP7CX6G21OU5MBQSHEZ5ZTUTWB7P","","913","img/land4.png","75","917","2","0","1","1","0.8,0.2,0.2,0.2,0.8,0.2,0.2,0.2,0.8","0.8,0.2,0.2,0.2,0.8,0.2,0.2,0.2,0.8","1","",""
"","html-keyboard-response","339","204766","0.0-339.0","3QY7M81QH88R9SOZN7Z9NRE7PYKK78","AH1GZQFB3F9NH","3YKP7CX6G21OU5MBQSHEZ5ZTUTWB7P","","null","<img src=""img/land4.png"" style=""width:200px;border:14px solid red;"">","null","","","","","","","","","",""
"","image-keyboard-response","340","205788","0.0-340.0","3QY7M81QH88R9SOZN7Z9NRE7PYKK78","AH1GZQFB3F9NH","3YKP7CX6G21OU5MBQSHEZ5ZTUTWB7P","","1015","img/land2.png","76","1019","3","0","2","1","0.8,0.2,0.2,0.2,0.8,0.2,0.2,0.2,0.8","0.8,0.2,0.2,0.2,0.8,0.2,0.2,0.2,0.8","1","",""
"","html-keyboard-response","341","206094","0.0-341.0","3QY7M81QH88R9SOZN7Z9NRE7PYKK78","AH1GZQFB3F9NH","3YKP7CX6G21OU5MBQSHEZ5ZTUTWB7P","","null","<img src=""img/land2.png"" style=""width:200px;border:14px solid red;"">","null","","","","","","","","","",""
"","image-keyboard-response","342","207084","0.0-342.0","3QY7M81QH88R9SOZN7Z9NRE7PYKK78","AH1GZQFB3F9NH","3YKP7CX6G21OU5MBQSHEZ5ZTUTWB7P","","984","img/land3.png","76","988","3","0","3","1","0.8,0.2,0.2,0.2,0.8,0.2,0.2,0.2,0.8","0.8,0.2,0.2,0.2,0.8,0.2,0.2,0.2,0.8","1","",""
"","html-keyboard-response","343","207389","0.0-343.0","3QY7M81QH88R9SOZN7Z9NRE7PYKK78","AH1GZQFB3F9NH","3YKP7CX6G21OU5MBQSHEZ5ZTUTWB7P","","null","<img src=""img/land3.png"" style=""width:200px;border:14px solid red;"">","null","","","","","","","","","",""
"","image-keyboard-response","344","207971","0.0-344.0","3QY7M81QH88R9SOZN7Z9NRE7PYKK78","AH1GZQFB3F9NH","3YKP7CX6G21OU5MBQSHEZ5ZTUTWB7P","","578","img/land4.png","75","582","2","0","1","1","0.8,0.2,0.2,0.2,0.8,0.2,0.2,0.2,0.8","0.8,0.2,0.2,0.2,0.8,0.2,0.2,0.2,0.8","1","",""
"","html-keyboard-response","345","208276","0.0-345.0","3QY7M81QH88R9SOZN7Z9NRE7PYKK78","AH1GZQFB3F9NH","3YKP7CX6G21OU5MBQSHEZ5ZTUTWB7P","","null","<img src=""img/land4.png"" style=""width:200px;border:14px solid red;"">","null","","","","","","","","","",""
"","image-keyboard-response","346","208963","0.0-346.0","3QY7M81QH88R9SOZN7Z9NRE7PYKK78","AH1GZQFB3F9NH","3YKP7CX6G21OU5MBQSHEZ5ZTUTWB7P","","683","img/land2.png","76","687","3","0","2","1","0.8,0.2,0.2,0.2,0.8,0.2,0.2,0.2,0.8","0.8,0.2,0.2,0.2,0.8,0.2,0.2,0.2,0.8","1","",""
"","html-keyboard-response","347","209269","0.0-347.0","3QY7M81QH88R9SOZN7Z9NRE7PYKK78","AH1GZQFB3F9NH","3YKP7CX6G21OU5MBQSHEZ5ZTUTWB7P","","null","<img src=""img/land2.png"" style=""width:200px;border:14px solid red;"">","null","","","","","","","","","",""
"","image-keyboard-response","348","209828","0.0-348.0","3QY7M81QH88R9SOZN7Z9NRE7PYKK78","AH1GZQFB3F9NH","3YKP7CX6G21OU5MBQSHEZ5ZTUTWB7P","","553","img/land4.png","74","558","1","1","1","1","0.8,0.2,0.2,0.2,0.8,0.2,0.2,0.2,0.8","0.8,0.2,0.2,0.2,0.8,0.2,0.2,0.2,0.8","1","",""
"","html-keyboard-response","349","210132","0.0-349.0","3QY7M81QH88R9SOZN7Z9NRE7PYKK78","AH1GZQFB3F9NH","3YKP7CX6G21OU5MBQSHEZ5ZTUTWB7P","","null","<img src=""img/land4.png"" style=""width:200px; border:14px solid green;"">","null","","","","","","","","","",""
"","image-keyboard-response","350","210619","0.0-350.0","3QY7M81QH88R9SOZN7Z9NRE7PYKK78","AH1GZQFB3F9NH","3YKP7CX6G21OU5MBQSHEZ5ZTUTWB7P","","481","img/land4.png","74","486","1","1","1","1","0.8,0.2,0.2,0.2,0.8,0.2,0.2,0.2,0.8","0.8,0.2,0.2,0.2,0.8,0.2,0.2,0.2,0.8","1","",""
"","html-keyboard-response","351","210925","0.0-351.0","3QY7M81QH88R9SOZN7Z9NRE7PYKK78","AH1GZQFB3F9NH","3YKP7CX6G21OU5MBQSHEZ5ZTUTWB7P","","null","<img src=""img/land4.png"" style=""width:200px; border:14px solid green;"">","null","","","","","","","","","",""
"","image-keyboard-response","352","211444","0.0-352.0","3QY7M81QH88R9SOZN7Z9NRE7PYKK78","AH1GZQFB3F9NH","3YKP7CX6G21OU5MBQSHEZ5ZTUTWB7P","","514","img/land4.png","74","518","1","0","1","1","0.8,0.2,0.2,0.2,0.8,0.2,0.2,0.2,0.8","0.8,0.2,0.2,0.2,0.8,0.2,0.2,0.2,0.8","1","",""
"","html-keyboard-response","353","211750","0.0-353.0","3QY7M81QH88R9SOZN7Z9NRE7PYKK78","AH1GZQFB3F9NH","3YKP7CX6G21OU5MBQSHEZ5ZTUTWB7P","","null","<img src=""img/land4.png"" style=""width:200px;border:14px solid red;"">","null","","","","","","","","","",""
"","image-keyboard-response","354","212803","0.0-354.0","3QY7M81QH88R9SOZN7Z9NRE7PYKK78","AH1GZQFB3F9NH","3YKP7CX6G21OU5MBQSHEZ5ZTUTWB7P","","1050","img/land2.png","74","1052","1","1","2","1","0.8,0.2,0.2,0.2,0.8,0.2,0.2,0.2,0.8","0.8,0.2,0.2,0.2,0.8,0.2,0.2,0.2,0.8","1","",""
"","html-keyboard-response","355","213114","0.0-355.0","3QY7M81QH88R9SOZN7Z9NRE7PYKK78","AH1GZQFB3F9NH","3YKP7CX6G21OU5MBQSHEZ5ZTUTWB7P","","null","<img src=""img/land2.png"" style=""width:200px; border:14px solid green;"">","null","","","","","","","","","",""
"","image-keyboard-response","356","213539","0.0-356.0","3QY7M81QH88R9SOZN7Z9NRE7PYKK78","AH1GZQFB3F9NH","3YKP7CX6G21OU5MBQSHEZ5ZTUTWB7P","","422","img/land2.png","74","424","1","0","2","1","0.8,0.2,0.2,0.2,0.8,0.2,0.2,0.2,0.8","0.8,0.2,0.2,0.2,0.8,0.2,0.2,0.2,0.8","1","",""
"","html-keyboard-response","357","213845","0.0-357.0","3QY7M81QH88R9SOZN7Z9NRE7PYKK78","AH1GZQFB3F9NH","3YKP7CX6G21OU5MBQSHEZ5ZTUTWB7P","","null","<img src=""img/land2.png"" style=""width:200px;border:14px solid red;"">","null","","","","","","","","","",""
"","image-keyboard-response","358","215124","0.0-358.0","3QY7M81QH88R9SOZN7Z9NRE7PYKK78","AH1GZQFB3F9NH","3YKP7CX6G21OU5MBQSHEZ5ZTUTWB7P","","1273","img/land3.png","75","1277","2","0","3","1","0.8,0.2,0.2,0.2,0.8,0.2,0.2,0.2,0.8","0.8,0.2,0.2,0.2,0.8,0.2,0.2,0.2,0.8","1","",""
"","html-keyboard-response","359","215429","0.0-359.0","3QY7M81QH88R9SOZN7Z9NRE7PYKK78","AH1GZQFB3F9NH","3YKP7CX6G21OU5MBQSHEZ5ZTUTWB7P","","null","<img src=""img/land3.png"" style=""width:200px;border:14px solid red;"">","null","","","","","","","","","",""
"","image-keyboard-response","360","215651","0.0-360.0","3QY7M81QH88R9SOZN7Z9NRE7PYKK78","AH1GZQFB3F9NH","3YKP7CX6G21OU5MBQSHEZ5ZTUTWB7P","","219","img/land3.png","76","221","3","0","3","1","0.8,0.2,0.2,0.2,0.8,0.2,0.2,0.2,0.8","0.8,0.2,0.2,0.2,0.8,0.2,0.2,0.2,0.8","1","",""
"","html-keyboard-response","361","215957","0.0-361.0","3QY7M81QH88R9SOZN7Z9NRE7PYKK78","AH1GZQFB3F9NH","3YKP7CX6G21OU5MBQSHEZ5ZTUTWB7P","","null","<img src=""img/land3.png"" style=""width:200px;border:14px solid red;"">","null","","","","","","","","","",""
"","image-keyboard-response","362","216507","0.0-362.0","3QY7M81QH88R9SOZN7Z9NRE7PYKK78","AH1GZQFB3F9NH","3YKP7CX6G21OU5MBQSHEZ5ZTUTWB7P","","546","img/land2.png","74","550","1","1","2","1","0.8,0.2,0.2,0.2,0.8,0.2,0.2,0.2,0.8","0.8,0.2,0.2,0.2,0.8,0.2,0.2,0.2,0.8","1","",""
"","html-keyboard-response","363","216813","0.0-363.0","3QY7M81QH88R9SOZN7Z9NRE7PYKK78","AH1GZQFB3F9NH","3YKP7CX6G21OU5MBQSHEZ5ZTUTWB7P","","null","<img src=""img/land2.png"" style=""width:200px; border:14px solid green;"">","null","","","","","","","","","",""
"","image-keyboard-response","364","217316","0.0-364.0","3QY7M81QH88R9SOZN7Z9NRE7PYKK78","AH1GZQFB3F9NH","3YKP7CX6G21OU5MBQSHEZ5ZTUTWB7P","","497","img/land2.png","74","501","1","0","2","1","0.8,0.2,0.2,0.2,0.8,0.2,0.2,0.2,0.8","0.8,0.2,0.2,0.2,0.8,0.2,0.2,0.2,0.8","1","",""
"","html-keyboard-response","365","217620","0.0-365.0","3QY7M81QH88R9SOZN7Z9NRE7PYKK78","AH1GZQFB3F9NH","3YKP7CX6G21OU5MBQSHEZ5ZTUTWB7P","","null","<img src=""img/land2.png"" style=""width:200px;border:14px solid red;"">","null","","","","","","","","","",""
"","image-keyboard-response","366","218004","0.0-366.0","3QY7M81QH88R9SOZN7Z9NRE7PYKK78","AH1GZQFB3F9NH","3YKP7CX6G21OU5MBQSHEZ5ZTUTWB7P","","378","img/land2.png","75","381","2","0","2","1","0.8,0.2,0.2,0.2,0.8,0.2,0.2,0.2,0.8","0.8,0.2,0.2,0.2,0.8,0.2,0.2,0.2,0.8","1","",""
"","html-keyboard-response","367","218309","0.0-367.0","3QY7M81QH88R9SOZN7Z9NRE7PYKK78","AH1GZQFB3F9NH","3YKP7CX6G21OU5MBQSHEZ5ZTUTWB7P","","null","<img src=""img/land2.png"" style=""width:200px;border:14px solid red;"">","null","","","","","","","","","",""
"","image-keyboard-response","368","218851","0.0-368.0","3QY7M81QH88R9SOZN7Z9NRE7PYKK78","AH1GZQFB3F9NH","3YKP7CX6G21OU5MBQSHEZ5ZTUTWB7P","","538","img/land2.png","75","542","2","1","2","1","0.8,0.2,0.2,0.2,0.8,0.2,0.2,0.2,0.8","0.8,0.2,0.2,0.2,0.8,0.2,0.2,0.2,0.8","1","",""
"","html-keyboard-response","369","219157","0.0-369.0","3QY7M81QH88R9SOZN7Z9NRE7PYKK78","AH1GZQFB3F9NH","3YKP7CX6G21OU5MBQSHEZ5ZTUTWB7P","","null","<img src=""img/land2.png"" style=""width:200px; border:14px solid green;"">","null","","","","","","","","","",""
"","image-keyboard-response","370","220395","0.0-370.0","3QY7M81QH88R9SOZN7Z9NRE7PYKK78","AH1GZQFB3F9NH","3YKP7CX6G21OU5MBQSHEZ5ZTUTWB7P","","1233","img/land4.png","74","1237","1","0","1","1","0.8,0.2,0.2,0.2,0.8,0.2,0.2,0.2,0.8","0.8,0.2,0.2,0.2,0.8,0.2,0.2,0.2,0.8","1","",""
"","html-keyboard-response","371","220700","0.0-371.0","3QY7M81QH88R9SOZN7Z9NRE7PYKK78","AH1GZQFB3F9NH","3YKP7CX6G21OU5MBQSHEZ5ZTUTWB7P","","null","<img src=""img/land4.png"" style=""width:200px;border:14px solid red;"">","null","","","","","","","","","",""
