"success","trial_type","trial_index","time_elapsed","internal_node_id","assignmentID","mturkID","hitID","view_history","rt","stimulus","key_press","reactionTime","a","r","s","cond","reward_cond","reward_cond_actual","reward_matrix_idx","responses","question_order"
"true","fullscreen","0","5288","0.0-0.0","3Y5140Z9DY2P932BJQ8EAXQFXV9IPO","AH7CPLVO15FM5","36U4VBVNQOZD8NFWZXWF9CIHKRIURB","","","","","","","","","","","","","",""
"","instructions","1","58697","0.0-1.0","3Y5140Z9DY2P932BJQ8EAXQFXV9IPO","AH7CPLVO15FM5","36U4VBVNQOZD8NFWZXWF9CIHKRIURB","[{""page_index"":0,""viewing_time"":8290},{""page_index"":1,""viewing_time"":5763.899999856949},{""page_index"":2,""viewing_time"":2723.9000000953674},{""page_index"":3,""viewing_time"":12170.099999904633},{""page_index"":4,""viewing_time"":6884},{""page_index"":5,""viewing_time"":13019.900000095367},{""page_index"":6,""viewing_time"":4556.099999904633}]","53408.09999990463","","","","","","","","","","","",""
"","image-keyboard-response","2","59612","0.0-2.0","3Y5140Z9DY2P932BJQ8EAXQFXV9IPO","AH7CPLVO15FM5","36U4VBVNQOZD8NFWZXWF9CIHKRIURB","","914.5999999046326","img/land4.png","75","915.2999999523163","2","0","1","2","0.8,0.2,0.2,0.2,0.8,0.2,0.2,0.2,0.8","0.8,0.2,0.2,0.2,0.8,0.2,0.2,0.2,0.8","1","",""
"","html-keyboard-response","3","59914","0.0-3.0","3Y5140Z9DY2P932BJQ8EAXQFXV9IPO","AH7CPLVO15FM5","36U4VBVNQOZD8NFWZXWF9CIHKRIURB","","null","<img src=""img/land4.png"" style=""width:200px;border:14px solid red;"">","null","","","","","","","","","",""
"","image-keyboard-response","4","61236","0.0-4.0","3Y5140Z9DY2P932BJQ8EAXQFXV9IPO","AH7CPLVO15FM5","36U4VBVNQOZD8NFWZXWF9CIHKRIURB","","1321.5999999046326","img/land1.png","75","1322.1000001430511","2","1","3","2","0.8,0.2,0.2,0.2,0.8,0.2,0.2,0.2,0.8","0.8,0.2,0.2,0.2,0.8,0.2,0.2,0.2,0.8","1","",""
"","html-keyboard-response","5","61538","0.0-5.0","3Y5140Z9DY2P932BJQ8EAXQFXV9IPO","AH7CPLVO15FM5","36U4VBVNQOZD8NFWZXWF9CIHKRIURB","","null","<img src=""img/land1.png"" style=""width:200px; border:14px solid green;"">","null","","","","","","","","","",""
"","image-keyboard-response","6","62764","0.0-6.0","3Y5140Z9DY2P932BJQ8EAXQFXV9IPO","AH7CPLVO15FM5","36U4VBVNQOZD8NFWZXWF9CIHKRIURB","","1225.1999998092651","img/land4.png","74","1225.7999999523163","1","1","1","2","0.8,0.2,0.2,0.2,0.8,0.2,0.2,0.2,0.8","0.8,0.2,0.2,0.2,0.8,0.2,0.2,0.2,0.8","1","",""
"","html-keyboard-response","7","63065","0.0-7.0","3Y5140Z9DY2P932BJQ8EAXQFXV9IPO","AH7CPLVO15FM5","36U4VBVNQOZD8NFWZXWF9CIHKRIURB","","null","<img src=""img/land4.png"" style=""width:200px; border:14px solid green;"">","null","","","","","","","","","",""
"","image-keyboard-response","8","64252","0.0-8.0","3Y5140Z9DY2P932BJQ8EAXQFXV9IPO","AH7CPLVO15FM5","36U4VBVNQOZD8NFWZXWF9CIHKRIURB","","1186.2999999523163","img/land4.png","74","1186.7999999523163","1","1","1","2","0.8,0.2,0.2,0.2,0.8,0.2,0.2,0.2,0.8","0.8,0.2,0.2,0.2,0.8,0.2,0.2,0.2,0.8","1","",""
"","html-keyboard-response","9","64554","0.0-9.0","3Y5140Z9DY2P932BJQ8EAXQFXV9IPO","AH7CPLVO15FM5","36U4VBVNQOZD8NFWZXWF9CIHKRIURB","","null","<img src=""img/land4.png"" style=""width:200px; border:14px solid green;"">","null","","","","","","","","","",""
"","image-keyboard-response","10","65380","0.0-10.0","3Y5140Z9DY2P932BJQ8EAXQFXV9IPO","AH7CPLVO15FM5","36U4VBVNQOZD8NFWZXWF9CIHKRIURB","","825.4000000953674","img/land4.png","74","825.7000000476837","1","1","1","2","0.8,0.2,0.2,0.2,0.8,0.2,0.2,0.2,0.8","0.8,0.2,0.2,0.2,0.8,0.2,0.2,0.2,0.8","1","",""
"","html-keyboard-response","11","65681","0.0-11.0","3Y5140Z9DY2P932BJQ8EAXQFXV9IPO","AH7CPLVO15FM5","36U4VBVNQOZD8NFWZXWF9CIHKRIURB","","null","<img src=""img/land4.png"" style=""width:200px; border:14px solid green;"">","null","","","","","","","","","",""
"","image-keyboard-response","12","66508","0.0-12.0","3Y5140Z9DY2P932BJQ8EAXQFXV9IPO","AH7CPLVO15FM5","36U4VBVNQOZD8NFWZXWF9CIHKRIURB","","826.2999999523163","img/land4.png","74","826.7999999523163","1","0","1","2","0.8,0.2,0.2,0.2,0.8,0.2,0.2,0.2,0.8","0.8,0.2,0.2,0.2,0.8,0.2,0.2,0.2,0.8","1","",""
"","html-keyboard-response","13","66810","0.0-13.0","3Y5140Z9DY2P932BJQ8EAXQFXV9IPO","AH7CPLVO15FM5","36U4VBVNQOZD8NFWZXWF9CIHKRIURB","","null","<img src=""img/land4.png"" style=""width:200px;border:14px solid red;"">","null","","","","","","","","","",""
"","image-keyboard-response","14","67828","0.0-14.0","3Y5140Z9DY2P932BJQ8EAXQFXV9IPO","AH7CPLVO15FM5","36U4VBVNQOZD8NFWZXWF9CIHKRIURB","","1017.7999999523163","img/land6.png","76","1018.5","3","0","2","2","0.8,0.2,0.2,0.2,0.8,0.2,0.2,0.2,0.8","0.8,0.2,0.2,0.2,0.8,0.2,0.2,0.2,0.8","1","",""
"","html-keyboard-response","15","68130","0.0-15.0","3Y5140Z9DY2P932BJQ8EAXQFXV9IPO","AH7CPLVO15FM5","36U4VBVNQOZD8NFWZXWF9CIHKRIURB","","null","<img src=""img/land6.png"" style=""width:200px;border:14px solid red;"">","null","","","","","","","","","",""
"","image-keyboard-response","16","68740","0.0-16.0","3Y5140Z9DY2P932BJQ8EAXQFXV9IPO","AH7CPLVO15FM5","36U4VBVNQOZD8NFWZXWF9CIHKRIURB","","610","img/land6.png","75","610.5999999046326","2","0","2","2","0.8,0.2,0.2,0.2,0.8,0.2,0.2,0.2,0.8","0.8,0.2,0.2,0.2,0.8,0.2,0.2,0.2,0.8","1","",""
"","html-keyboard-response","17","69043","0.0-17.0","3Y5140Z9DY2P932BJQ8EAXQFXV9IPO","AH7CPLVO15FM5","36U4VBVNQOZD8NFWZXWF9CIHKRIURB","","null","<img src=""img/land6.png"" style=""width:200px;border:14px solid red;"">","null","","","","","","","","","",""
"","image-keyboard-response","18","70076","0.0-18.0","3Y5140Z9DY2P932BJQ8EAXQFXV9IPO","AH7CPLVO15FM5","36U4VBVNQOZD8NFWZXWF9CIHKRIURB","","1033.2000000476837","img/land1.png","75","1033.5999999046326","2","0","3","2","0.8,0.2,0.2,0.2,0.8,0.2,0.2,0.2,0.8","0.8,0.2,0.2,0.2,0.8,0.2,0.2,0.2,0.8","1","",""
"","html-keyboard-response","19","70378","0.0-19.0","3Y5140Z9DY2P932BJQ8EAXQFXV9IPO","AH7CPLVO15FM5","36U4VBVNQOZD8NFWZXWF9CIHKRIURB","","null","<img src=""img/land1.png"" style=""width:200px;border:14px solid red;"">","null","","","","","","","","","",""
"","image-keyboard-response","20","72148","0.0-20.0","3Y5140Z9DY2P932BJQ8EAXQFXV9IPO","AH7CPLVO15FM5","36U4VBVNQOZD8NFWZXWF9CIHKRIURB","","1769.7999999523163","img/land6.png","75","1770.2000000476837","2","1","2","2","0.8,0.2,0.2,0.2,0.8,0.2,0.2,0.2,0.8","0.8,0.2,0.2,0.2,0.8,0.2,0.2,0.2,0.8","1","",""
"","html-keyboard-response","21","72451","0.0-21.0","3Y5140Z9DY2P932BJQ8EAXQFXV9IPO","AH7CPLVO15FM5","36U4VBVNQOZD8NFWZXWF9CIHKRIURB","","null","<img src=""img/land6.png"" style=""width:200px; border:14px solid green;"">","null","","","","","","","","","",""
"","image-keyboard-response","22","73396","0.0-22.0","3Y5140Z9DY2P932BJQ8EAXQFXV9IPO","AH7CPLVO15FM5","36U4VBVNQOZD8NFWZXWF9CIHKRIURB","","945.1999998092651","img/land4.png","74","945.7000000476837","1","1","1","2","0.8,0.2,0.2,0.2,0.8,0.2,0.2,0.2,0.8","0.8,0.2,0.2,0.2,0.8,0.2,0.2,0.2,0.8","1","",""
"","html-keyboard-response","23","73698","0.0-23.0","3Y5140Z9DY2P932BJQ8EAXQFXV9IPO","AH7CPLVO15FM5","36U4VBVNQOZD8NFWZXWF9CIHKRIURB","","null","<img src=""img/land4.png"" style=""width:200px; border:14px solid green;"">","null","","","","","","","","","",""
"","image-keyboard-response","24","74636","0.0-24.0","3Y5140Z9DY2P932BJQ8EAXQFXV9IPO","AH7CPLVO15FM5","36U4VBVNQOZD8NFWZXWF9CIHKRIURB","","937.2999999523163","img/land4.png","74","937.6999998092651","1","1","1","2","0.8,0.2,0.2,0.2,0.8,0.2,0.2,0.2,0.8","0.8,0.2,0.2,0.2,0.8,0.2,0.2,0.2,0.8","1","",""
"","html-keyboard-response","25","74946","0.0-25.0","3Y5140Z9DY2P932BJQ8EAXQFXV9IPO","AH7CPLVO15FM5","36U4VBVNQOZD8NFWZXWF9CIHKRIURB","","null","<img src=""img/land4.png"" style=""width:200px; border:14px solid green;"">","null","","","","","","","","","",""
"","image-keyboard-response","26","76076","0.0-26.0","3Y5140Z9DY2P932BJQ8EAXQFXV9IPO","AH7CPLVO15FM5","36U4VBVNQOZD8NFWZXWF9CIHKRIURB","","1128.8999998569489","img/land1.png","76","1129.5","3","1","3","2","0.8,0.2,0.2,0.2,0.8,0.2,0.2,0.2,0.8","0.8,0.2,0.2,0.2,0.8,0.2,0.2,0.2,0.8","1","",""
"","html-keyboard-response","27","76377","0.0-27.0","3Y5140Z9DY2P932BJQ8EAXQFXV9IPO","AH7CPLVO15FM5","36U4VBVNQOZD8NFWZXWF9CIHKRIURB","","null","<img src=""img/land1.png"" style=""width:200px; border:14px solid green;"">","null","","","","","","","","","",""
"","image-keyboard-response","28","77388","0.0-28.0","3Y5140Z9DY2P932BJQ8EAXQFXV9IPO","AH7CPLVO15FM5","36U4VBVNQOZD8NFWZXWF9CIHKRIURB","","1011.0999999046326","img/land4.png","74","1011.5","1","1","1","2","0.8,0.2,0.2,0.2,0.8,0.2,0.2,0.2,0.8","0.8,0.2,0.2,0.2,0.8,0.2,0.2,0.2,0.8","1","",""
"","html-keyboard-response","29","77690","0.0-29.0","3Y5140Z9DY2P932BJQ8EAXQFXV9IPO","AH7CPLVO15FM5","36U4VBVNQOZD8NFWZXWF9CIHKRIURB","","null","<img src=""img/land4.png"" style=""width:200px; border:14px solid green;"">","null","","","","","","","","","",""
"","image-keyboard-response","30","78500","0.0-30.0","3Y5140Z9DY2P932BJQ8EAXQFXV9IPO","AH7CPLVO15FM5","36U4VBVNQOZD8NFWZXWF9CIHKRIURB","","810","img/land4.png","74","810.3999998569489","1","1","1","2","0.8,0.2,0.2,0.2,0.8,0.2,0.2,0.2,0.8","0.8,0.2,0.2,0.2,0.8,0.2,0.2,0.2,0.8","1","",""
"","html-keyboard-response","31","78801","0.0-31.0","3Y5140Z9DY2P932BJQ8EAXQFXV9IPO","AH7CPLVO15FM5","36U4VBVNQOZD8NFWZXWF9CIHKRIURB","","null","<img src=""img/land4.png"" style=""width:200px; border:14px solid green;"">","null","","","","","","","","","",""
"","image-keyboard-response","32","79468","0.0-32.0","3Y5140Z9DY2P932BJQ8EAXQFXV9IPO","AH7CPLVO15FM5","36U4VBVNQOZD8NFWZXWF9CIHKRIURB","","666.1999998092651","img/land4.png","74","666.6000001430511","1","1","1","2","0.8,0.2,0.2,0.2,0.8,0.2,0.2,0.2,0.8","0.8,0.2,0.2,0.2,0.8,0.2,0.2,0.2,0.8","1","",""
"","html-keyboard-response","33","79769","0.0-33.0","3Y5140Z9DY2P932BJQ8EAXQFXV9IPO","AH7CPLVO15FM5","36U4VBVNQOZD8NFWZXWF9CIHKRIURB","","null","<img src=""img/land4.png"" style=""width:200px; border:14px solid green;"">","null","","","","","","","","","",""
"","image-keyboard-response","34","80476","0.0-34.0","3Y5140Z9DY2P932BJQ8EAXQFXV9IPO","AH7CPLVO15FM5","36U4VBVNQOZD8NFWZXWF9CIHKRIURB","","706.7999999523163","img/land4.png","74","707.2000000476837","1","1","1","2","0.8,0.2,0.2,0.2,0.8,0.2,0.2,0.2,0.8","0.8,0.2,0.2,0.2,0.8,0.2,0.2,0.2,0.8","1","",""
"","html-keyboard-response","35","80779","0.0-35.0","3Y5140Z9DY2P932BJQ8EAXQFXV9IPO","AH7CPLVO15FM5","36U4VBVNQOZD8NFWZXWF9CIHKRIURB","","null","<img src=""img/land4.png"" style=""width:200px; border:14px solid green;"">","null","","","","","","","","","",""
"","image-keyboard-response","36","81500","0.0-36.0","3Y5140Z9DY2P932BJQ8EAXQFXV9IPO","AH7CPLVO15FM5","36U4VBVNQOZD8NFWZXWF9CIHKRIURB","","720.7999999523163","img/land4.png","74","721.3000001907349","1","0","1","2","0.8,0.2,0.2,0.2,0.8,0.2,0.2,0.2,0.8","0.8,0.2,0.2,0.2,0.8,0.2,0.2,0.2,0.8","1","",""
"","html-keyboard-response","37","81802","0.0-37.0","3Y5140Z9DY2P932BJQ8EAXQFXV9IPO","AH7CPLVO15FM5","36U4VBVNQOZD8NFWZXWF9CIHKRIURB","","null","<img src=""img/land4.png"" style=""width:200px;border:14px solid red;"">","null","","","","","","","","","",""
"","image-keyboard-response","38","82780","0.0-38.0","3Y5140Z9DY2P932BJQ8EAXQFXV9IPO","AH7CPLVO15FM5","36U4VBVNQOZD8NFWZXWF9CIHKRIURB","","977.6999998092651","img/land4.png","74","978.1000001430511","1","1","1","2","0.8,0.2,0.2,0.2,0.8,0.2,0.2,0.2,0.8","0.8,0.2,0.2,0.2,0.8,0.2,0.2,0.2,0.8","1","",""
"","html-keyboard-response","39","83082","0.0-39.0","3Y5140Z9DY2P932BJQ8EAXQFXV9IPO","AH7CPLVO15FM5","36U4VBVNQOZD8NFWZXWF9CIHKRIURB","","null","<img src=""img/land4.png"" style=""width:200px; border:14px solid green;"">","null","","","","","","","","","",""
"","image-keyboard-response","40","83748","0.0-40.0","3Y5140Z9DY2P932BJQ8EAXQFXV9IPO","AH7CPLVO15FM5","36U4VBVNQOZD8NFWZXWF9CIHKRIURB","","665.9000000953674","img/land4.png","74","666.2999999523163","1","1","1","2","0.8,0.2,0.2,0.2,0.8,0.2,0.2,0.2,0.8","0.8,0.2,0.2,0.2,0.8,0.2,0.2,0.2,0.8","1","",""
"","html-keyboard-response","41","84049","0.0-41.0","3Y5140Z9DY2P932BJQ8EAXQFXV9IPO","AH7CPLVO15FM5","36U4VBVNQOZD8NFWZXWF9CIHKRIURB","","null","<img src=""img/land4.png"" style=""width:200px; border:14px solid green;"">","null","","","","","","","","","",""
"","image-keyboard-response","42","84652","0.0-42.0","3Y5140Z9DY2P932BJQ8EAXQFXV9IPO","AH7CPLVO15FM5","36U4VBVNQOZD8NFWZXWF9CIHKRIURB","","602.9000000953674","img/land4.png","74","603.4000000953674","1","0","1","2","0.8,0.2,0.2,0.2,0.8,0.2,0.2,0.2,0.8","0.8,0.2,0.2,0.2,0.8,0.2,0.2,0.2,0.8","1","",""
"","html-keyboard-response","43","84953","0.0-43.0","3Y5140Z9DY2P932BJQ8EAXQFXV9IPO","AH7CPLVO15FM5","36U4VBVNQOZD8NFWZXWF9CIHKRIURB","","null","<img src=""img/land4.png"" style=""width:200px;border:14px solid red;"">","null","","","","","","","","","",""
"","image-keyboard-response","44","85652","0.0-44.0","3Y5140Z9DY2P932BJQ8EAXQFXV9IPO","AH7CPLVO15FM5","36U4VBVNQOZD8NFWZXWF9CIHKRIURB","","698.2999999523163","img/land4.png","74","698.7000000476837","1","1","1","2","0.8,0.2,0.2,0.2,0.8,0.2,0.2,0.2,0.8","0.8,0.2,0.2,0.2,0.8,0.2,0.2,0.2,0.8","1","",""
"","html-keyboard-response","45","85953","0.0-45.0","3Y5140Z9DY2P932BJQ8EAXQFXV9IPO","AH7CPLVO15FM5","36U4VBVNQOZD8NFWZXWF9CIHKRIURB","","null","<img src=""img/land4.png"" style=""width:200px; border:14px solid green;"">","null","","","","","","","","","",""
"","image-keyboard-response","46","86572","0.0-46.0","3Y5140Z9DY2P932BJQ8EAXQFXV9IPO","AH7CPLVO15FM5","36U4VBVNQOZD8NFWZXWF9CIHKRIURB","","618.7999999523163","img/land4.png","74","619.0999999046326","1","1","1","2","0.8,0.2,0.2,0.2,0.8,0.2,0.2,0.2,0.8","0.8,0.2,0.2,0.2,0.8,0.2,0.2,0.2,0.8","1","",""
"","html-keyboard-response","47","86875","0.0-47.0","3Y5140Z9DY2P932BJQ8EAXQFXV9IPO","AH7CPLVO15FM5","36U4VBVNQOZD8NFWZXWF9CIHKRIURB","","null","<img src=""img/land4.png"" style=""width:200px; border:14px solid green;"">","null","","","","","","","","","",""
"","image-keyboard-response","48","87628","0.0-48.0","3Y5140Z9DY2P932BJQ8EAXQFXV9IPO","AH7CPLVO15FM5","36U4VBVNQOZD8NFWZXWF9CIHKRIURB","","752.0999999046326","img/land4.png","74","752.6000001430511","1","1","1","2","0.8,0.2,0.2,0.2,0.8,0.2,0.2,0.2,0.8","0.8,0.2,0.2,0.2,0.8,0.2,0.2,0.2,0.8","1","",""
"","html-keyboard-response","49","87929","0.0-49.0","3Y5140Z9DY2P932BJQ8EAXQFXV9IPO","AH7CPLVO15FM5","36U4VBVNQOZD8NFWZXWF9CIHKRIURB","","null","<img src=""img/land4.png"" style=""width:200px; border:14px solid green;"">","null","","","","","","","","","",""
"","image-keyboard-response","50","88652","0.0-50.0","3Y5140Z9DY2P932BJQ8EAXQFXV9IPO","AH7CPLVO15FM5","36U4VBVNQOZD8NFWZXWF9CIHKRIURB","","722.5999999046326","img/land4.png","74","723","1","1","1","2","0.8,0.2,0.2,0.2,0.8,0.2,0.2,0.2,0.8","0.8,0.2,0.2,0.2,0.8,0.2,0.2,0.2,0.8","1","",""
"","html-keyboard-response","51","88953","0.0-51.0","3Y5140Z9DY2P932BJQ8EAXQFXV9IPO","AH7CPLVO15FM5","36U4VBVNQOZD8NFWZXWF9CIHKRIURB","","null","<img src=""img/land4.png"" style=""width:200px; border:14px solid green;"">","null","","","","","","","","","",""
"","image-keyboard-response","52","89604","0.0-52.0","3Y5140Z9DY2P932BJQ8EAXQFXV9IPO","AH7CPLVO15FM5","36U4VBVNQOZD8NFWZXWF9CIHKRIURB","","650.5999999046326","img/land4.png","74","651.0999999046326","1","0","1","2","0.8,0.2,0.2,0.2,0.8,0.2,0.2,0.2,0.8","0.8,0.2,0.2,0.2,0.8,0.2,0.2,0.2,0.8","1","",""
"","html-keyboard-response","53","89906","0.0-53.0","3Y5140Z9DY2P932BJQ8EAXQFXV9IPO","AH7CPLVO15FM5","36U4VBVNQOZD8NFWZXWF9CIHKRIURB","","null","<img src=""img/land4.png"" style=""width:200px;border:14px solid red;"">","null","","","","","","","","","",""
"","image-keyboard-response","54","90580","0.0-54.0","3Y5140Z9DY2P932BJQ8EAXQFXV9IPO","AH7CPLVO15FM5","36U4VBVNQOZD8NFWZXWF9CIHKRIURB","","674","img/land4.png","74","674.5","1","1","1","2","0.8,0.2,0.2,0.2,0.8,0.2,0.2,0.2,0.8","0.8,0.2,0.2,0.2,0.8,0.2,0.2,0.2,0.8","1","",""
"","html-keyboard-response","55","90882","0.0-55.0","3Y5140Z9DY2P932BJQ8EAXQFXV9IPO","AH7CPLVO15FM5","36U4VBVNQOZD8NFWZXWF9CIHKRIURB","","null","<img src=""img/land4.png"" style=""width:200px; border:14px solid green;"">","null","","","","","","","","","",""
"","image-keyboard-response","56","91468","0.0-56.0","3Y5140Z9DY2P932BJQ8EAXQFXV9IPO","AH7CPLVO15FM5","36U4VBVNQOZD8NFWZXWF9CIHKRIURB","","585.7000000476837","img/land4.png","74","586.2000000476837","1","1","1","2","0.8,0.2,0.2,0.2,0.8,0.2,0.2,0.2,0.8","0.8,0.2,0.2,0.2,0.8,0.2,0.2,0.2,0.8","1","",""
"","html-keyboard-response","57","91769","0.0-57.0","3Y5140Z9DY2P932BJQ8EAXQFXV9IPO","AH7CPLVO15FM5","36U4VBVNQOZD8NFWZXWF9CIHKRIURB","","null","<img src=""img/land4.png"" style=""width:200px; border:14px solid green;"">","null","","","","","","","","","",""
"","image-keyboard-response","58","92332","0.0-58.0","3Y5140Z9DY2P932BJQ8EAXQFXV9IPO","AH7CPLVO15FM5","36U4VBVNQOZD8NFWZXWF9CIHKRIURB","","562.3999998569489","img/land4.png","74","562.8999998569489","1","1","1","2","0.8,0.2,0.2,0.2,0.8,0.2,0.2,0.2,0.8","0.8,0.2,0.2,0.2,0.8,0.2,0.2,0.2,0.8","1","",""
"","html-keyboard-response","59","92634","0.0-59.0","3Y5140Z9DY2P932BJQ8EAXQFXV9IPO","AH7CPLVO15FM5","36U4VBVNQOZD8NFWZXWF9CIHKRIURB","","null","<img src=""img/land4.png"" style=""width:200px; border:14px solid green;"">","null","","","","","","","","","",""
"","image-keyboard-response","60","93476","0.0-60.0","3Y5140Z9DY2P932BJQ8EAXQFXV9IPO","AH7CPLVO15FM5","36U4VBVNQOZD8NFWZXWF9CIHKRIURB","","841.5999999046326","img/land4.png","75","842.2000000476837","2","0","1","2","0.8,0.2,0.2,0.2,0.8,0.2,0.2,0.2,0.8","0.8,0.2,0.2,0.2,0.8,0.2,0.2,0.2,0.8","1","",""
"","html-keyboard-response","61","93787","0.0-61.0","3Y5140Z9DY2P932BJQ8EAXQFXV9IPO","AH7CPLVO15FM5","36U4VBVNQOZD8NFWZXWF9CIHKRIURB","","null","<img src=""img/land4.png"" style=""width:200px;border:14px solid red;"">","null","","","","","","","","","",""
"","image-keyboard-response","62","94372","0.0-62.0","3Y5140Z9DY2P932BJQ8EAXQFXV9IPO","AH7CPLVO15FM5","36U4VBVNQOZD8NFWZXWF9CIHKRIURB","","584.8999998569489","img/land4.png","74","585.3999998569489","1","1","1","2","0.8,0.2,0.2,0.2,0.8,0.2,0.2,0.2,0.8","0.8,0.2,0.2,0.2,0.8,0.2,0.2,0.2,0.8","1","",""
"","html-keyboard-response","63","94687","0.0-63.0","3Y5140Z9DY2P932BJQ8EAXQFXV9IPO","AH7CPLVO15FM5","36U4VBVNQOZD8NFWZXWF9CIHKRIURB","","null","<img src=""img/land4.png"" style=""width:200px; border:14px solid green;"">","null","","","","","","","","","",""
"","image-keyboard-response","64","95708","0.0-64.0","3Y5140Z9DY2P932BJQ8EAXQFXV9IPO","AH7CPLVO15FM5","36U4VBVNQOZD8NFWZXWF9CIHKRIURB","","1021","img/land4.png","75","1021.3999998569489","2","1","1","2","0.8,0.2,0.2,0.2,0.8,0.2,0.2,0.2,0.8","0.8,0.2,0.2,0.2,0.8,0.2,0.2,0.2,0.8","1","",""
"","html-keyboard-response","65","96010","0.0-65.0","3Y5140Z9DY2P932BJQ8EAXQFXV9IPO","AH7CPLVO15FM5","36U4VBVNQOZD8NFWZXWF9CIHKRIURB","","null","<img src=""img/land4.png"" style=""width:200px; border:14px solid green;"">","null","","","","","","","","","",""
"","image-keyboard-response","66","97332","0.0-66.0","3Y5140Z9DY2P932BJQ8EAXQFXV9IPO","AH7CPLVO15FM5","36U4VBVNQOZD8NFWZXWF9CIHKRIURB","","1321.0999999046326","img/land6.png","75","1321.7999999523163","2","1","2","2","0.8,0.2,0.2,0.2,0.8,0.2,0.2,0.2,0.8","0.8,0.2,0.2,0.2,0.8,0.2,0.2,0.2,0.8","1","",""
"","html-keyboard-response","67","97633","0.0-67.0","3Y5140Z9DY2P932BJQ8EAXQFXV9IPO","AH7CPLVO15FM5","36U4VBVNQOZD8NFWZXWF9CIHKRIURB","","null","<img src=""img/land6.png"" style=""width:200px; border:14px solid green;"">","null","","","","","","","","","",""
"","image-keyboard-response","68","98628","0.0-68.0","3Y5140Z9DY2P932BJQ8EAXQFXV9IPO","AH7CPLVO15FM5","36U4VBVNQOZD8NFWZXWF9CIHKRIURB","","994.2000000476837","img/land4.png","74","994.7000000476837","1","1","1","2","0.8,0.2,0.2,0.2,0.8,0.2,0.2,0.2,0.8","0.8,0.2,0.2,0.2,0.8,0.2,0.2,0.2,0.8","1","",""
"","html-keyboard-response","69","98929","0.0-69.0","3Y5140Z9DY2P932BJQ8EAXQFXV9IPO","AH7CPLVO15FM5","36U4VBVNQOZD8NFWZXWF9CIHKRIURB","","null","<img src=""img/land4.png"" style=""width:200px; border:14px solid green;"">","null","","","","","","","","","",""
"","image-keyboard-response","70","99725","0.0-70.0","3Y5140Z9DY2P932BJQ8EAXQFXV9IPO","AH7CPLVO15FM5","36U4VBVNQOZD8NFWZXWF9CIHKRIURB","","794.5","img/land4.png","74","795","1","1","1","2","0.8,0.2,0.2,0.2,0.8,0.2,0.2,0.2,0.8","0.8,0.2,0.2,0.2,0.8,0.2,0.2,0.2,0.8","1","",""
"","html-keyboard-response","71","100025","0.0-71.0","3Y5140Z9DY2P932BJQ8EAXQFXV9IPO","AH7CPLVO15FM5","36U4VBVNQOZD8NFWZXWF9CIHKRIURB","","null","<img src=""img/land4.png"" style=""width:200px; border:14px solid green;"">","null","","","","","","","","","",""
"","image-keyboard-response","72","100764","0.0-72.0","3Y5140Z9DY2P932BJQ8EAXQFXV9IPO","AH7CPLVO15FM5","36U4VBVNQOZD8NFWZXWF9CIHKRIURB","","738.4000000953674","img/land4.png","74","738.9000000953674","1","1","1","2","0.8,0.2,0.2,0.2,0.8,0.2,0.2,0.2,0.8","0.8,0.2,0.2,0.2,0.8,0.2,0.2,0.2,0.8","1","",""
"","html-keyboard-response","73","101066","0.0-73.0","3Y5140Z9DY2P932BJQ8EAXQFXV9IPO","AH7CPLVO15FM5","36U4VBVNQOZD8NFWZXWF9CIHKRIURB","","null","<img src=""img/land4.png"" style=""width:200px; border:14px solid green;"">","null","","","","","","","","","",""
"","image-keyboard-response","74","101852","0.0-74.0","3Y5140Z9DY2P932BJQ8EAXQFXV9IPO","AH7CPLVO15FM5","36U4VBVNQOZD8NFWZXWF9CIHKRIURB","","785.7999999523163","img/land4.png","74","786.3999998569489","1","1","1","2","0.8,0.2,0.2,0.2,0.8,0.2,0.2,0.2,0.8","0.8,0.2,0.2,0.2,0.8,0.2,0.2,0.2,0.8","1","",""
"","html-keyboard-response","75","102154","0.0-75.0","3Y5140Z9DY2P932BJQ8EAXQFXV9IPO","AH7CPLVO15FM5","36U4VBVNQOZD8NFWZXWF9CIHKRIURB","","null","<img src=""img/land4.png"" style=""width:200px; border:14px solid green;"">","null","","","","","","","","","",""
"","image-keyboard-response","76","103164","0.0-76.0","3Y5140Z9DY2P932BJQ8EAXQFXV9IPO","AH7CPLVO15FM5","36U4VBVNQOZD8NFWZXWF9CIHKRIURB","","1009.7999999523163","img/land6.png","76","1010.1000001430511","3","1","2","2","0.8,0.2,0.2,0.2,0.8,0.2,0.2,0.2,0.8","0.8,0.2,0.2,0.2,0.8,0.2,0.2,0.2,0.8","1","",""
"","html-keyboard-response","77","103465","0.0-77.0","3Y5140Z9DY2P932BJQ8EAXQFXV9IPO","AH7CPLVO15FM5","36U4VBVNQOZD8NFWZXWF9CIHKRIURB","","null","<img src=""img/land6.png"" style=""width:200px; border:14px solid green;"">","null","","","","","","","","","",""
"","image-keyboard-response","78","104372","0.0-78.0","3Y5140Z9DY2P932BJQ8EAXQFXV9IPO","AH7CPLVO15FM5","36U4VBVNQOZD8NFWZXWF9CIHKRIURB","","906.1999998092651","img/land6.png","76","906.6000001430511","3","0","2","2","0.8,0.2,0.2,0.2,0.8,0.2,0.2,0.2,0.8","0.8,0.2,0.2,0.2,0.8,0.2,0.2,0.2,0.8","1","",""
"","html-keyboard-response","79","104673","0.0-79.0","3Y5140Z9DY2P932BJQ8EAXQFXV9IPO","AH7CPLVO15FM5","36U4VBVNQOZD8NFWZXWF9CIHKRIURB","","null","<img src=""img/land6.png"" style=""width:200px;border:14px solid red;"">","null","","","","","","","","","",""
"","image-keyboard-response","80","105868","0.0-80.0","3Y5140Z9DY2P932BJQ8EAXQFXV9IPO","AH7CPLVO15FM5","36U4VBVNQOZD8NFWZXWF9CIHKRIURB","","1194.6000001430511","img/land4.png","74","1195","1","1","1","2","0.8,0.2,0.2,0.2,0.8,0.2,0.2,0.2,0.8","0.8,0.2,0.2,0.2,0.8,0.2,0.2,0.2,0.8","1","",""
"","html-keyboard-response","81","106169","0.0-81.0","3Y5140Z9DY2P932BJQ8EAXQFXV9IPO","AH7CPLVO15FM5","36U4VBVNQOZD8NFWZXWF9CIHKRIURB","","null","<img src=""img/land4.png"" style=""width:200px; border:14px solid green;"">","null","","","","","","","","","",""
"","image-keyboard-response","82","106756","0.0-82.0","3Y5140Z9DY2P932BJQ8EAXQFXV9IPO","AH7CPLVO15FM5","36U4VBVNQOZD8NFWZXWF9CIHKRIURB","","586.5","img/land4.png","74","587","1","1","1","2","0.8,0.2,0.2,0.2,0.8,0.2,0.2,0.2,0.8","0.8,0.2,0.2,0.2,0.8,0.2,0.2,0.2,0.8","1","",""
"","html-keyboard-response","83","107058","0.0-83.0","3Y5140Z9DY2P932BJQ8EAXQFXV9IPO","AH7CPLVO15FM5","36U4VBVNQOZD8NFWZXWF9CIHKRIURB","","null","<img src=""img/land4.png"" style=""width:200px; border:14px solid green;"">","null","","","","","","","","","",""
"","image-keyboard-response","84","108308","0.0-84.0","3Y5140Z9DY2P932BJQ8EAXQFXV9IPO","AH7CPLVO15FM5","36U4VBVNQOZD8NFWZXWF9CIHKRIURB","","1249.6000001430511","img/land1.png","76","1250.1999998092651","3","1","3","2","0.8,0.2,0.2,0.2,0.8,0.2,0.2,0.2,0.8","0.8,0.2,0.2,0.2,0.8,0.2,0.2,0.2,0.8","1","",""
"","html-keyboard-response","85","108609","0.0-85.0","3Y5140Z9DY2P932BJQ8EAXQFXV9IPO","AH7CPLVO15FM5","36U4VBVNQOZD8NFWZXWF9CIHKRIURB","","null","<img src=""img/land1.png"" style=""width:200px; border:14px solid green;"">","null","","","","","","","","","",""
"","image-keyboard-response","86","109484","0.0-86.0","3Y5140Z9DY2P932BJQ8EAXQFXV9IPO","AH7CPLVO15FM5","36U4VBVNQOZD8NFWZXWF9CIHKRIURB","","874.8999998569489","img/land4.png","74","875.3999998569489","1","1","1","2","0.8,0.2,0.2,0.2,0.8,0.2,0.2,0.2,0.8","0.8,0.2,0.2,0.2,0.8,0.2,0.2,0.2,0.8","1","",""
"","html-keyboard-response","87","109786","0.0-87.0","3Y5140Z9DY2P932BJQ8EAXQFXV9IPO","AH7CPLVO15FM5","36U4VBVNQOZD8NFWZXWF9CIHKRIURB","","null","<img src=""img/land4.png"" style=""width:200px; border:14px solid green;"">","null","","","","","","","","","",""
"","image-keyboard-response","88","110300","0.0-88.0","3Y5140Z9DY2P932BJQ8EAXQFXV9IPO","AH7CPLVO15FM5","36U4VBVNQOZD8NFWZXWF9CIHKRIURB","","513.6000001430511","img/land4.png","74","514.0999999046326","1","1","1","2","0.8,0.2,0.2,0.2,0.8,0.2,0.2,0.2,0.8","0.8,0.2,0.2,0.2,0.8,0.2,0.2,0.2,0.8","1","",""
"","html-keyboard-response","89","110601","0.0-89.0","3Y5140Z9DY2P932BJQ8EAXQFXV9IPO","AH7CPLVO15FM5","36U4VBVNQOZD8NFWZXWF9CIHKRIURB","","null","<img src=""img/land4.png"" style=""width:200px; border:14px solid green;"">","null","","","","","","","","","",""
"","image-keyboard-response","90","111212","0.0-90.0","3Y5140Z9DY2P932BJQ8EAXQFXV9IPO","AH7CPLVO15FM5","36U4VBVNQOZD8NFWZXWF9CIHKRIURB","","610.8999998569489","img/land4.png","74","611.3999998569489","1","1","1","2","0.8,0.2,0.2,0.2,0.8,0.2,0.2,0.2,0.8","0.8,0.2,0.2,0.2,0.8,0.2,0.2,0.2,0.8","1","",""
"","html-keyboard-response","91","111513","0.0-91.0","3Y5140Z9DY2P932BJQ8EAXQFXV9IPO","AH7CPLVO15FM5","36U4VBVNQOZD8NFWZXWF9CIHKRIURB","","null","<img src=""img/land4.png"" style=""width:200px; border:14px solid green;"">","null","","","","","","","","","",""
"","image-keyboard-response","92","112140","0.0-92.0","3Y5140Z9DY2P932BJQ8EAXQFXV9IPO","AH7CPLVO15FM5","36U4VBVNQOZD8NFWZXWF9CIHKRIURB","","626.0999999046326","img/land4.png","74","626.6000001430511","1","1","1","2","0.8,0.2,0.2,0.2,0.8,0.2,0.2,0.2,0.8","0.8,0.2,0.2,0.2,0.8,0.2,0.2,0.2,0.8","1","",""
"","html-keyboard-response","93","112442","0.0-93.0","3Y5140Z9DY2P932BJQ8EAXQFXV9IPO","AH7CPLVO15FM5","36U4VBVNQOZD8NFWZXWF9CIHKRIURB","","null","<img src=""img/land4.png"" style=""width:200px; border:14px solid green;"">","null","","","","","","","","","",""
"","image-keyboard-response","94","113172","0.0-94.0","3Y5140Z9DY2P932BJQ8EAXQFXV9IPO","AH7CPLVO15FM5","36U4VBVNQOZD8NFWZXWF9CIHKRIURB","","730.1000001430511","img/land4.png","74","730.5","1","1","1","2","0.8,0.2,0.2,0.2,0.8,0.2,0.2,0.2,0.8","0.8,0.2,0.2,0.2,0.8,0.2,0.2,0.2,0.8","1","",""
"","html-keyboard-response","95","113474","0.0-95.0","3Y5140Z9DY2P932BJQ8EAXQFXV9IPO","AH7CPLVO15FM5","36U4VBVNQOZD8NFWZXWF9CIHKRIURB","","null","<img src=""img/land4.png"" style=""width:200px; border:14px solid green;"">","null","","","","","","","","","",""
"","image-keyboard-response","96","114556","0.0-96.0","3Y5140Z9DY2P932BJQ8EAXQFXV9IPO","AH7CPLVO15FM5","36U4VBVNQOZD8NFWZXWF9CIHKRIURB","","1081.5","img/land1.png","76","1082","3","1","3","2","0.8,0.2,0.2,0.2,0.8,0.2,0.2,0.2,0.8","0.8,0.2,0.2,0.2,0.8,0.2,0.2,0.2,0.8","1","",""
"","html-keyboard-response","97","114858","0.0-97.0","3Y5140Z9DY2P932BJQ8EAXQFXV9IPO","AH7CPLVO15FM5","36U4VBVNQOZD8NFWZXWF9CIHKRIURB","","null","<img src=""img/land1.png"" style=""width:200px; border:14px solid green;"">","null","","","","","","","","","",""
"","image-keyboard-response","98","115676","0.0-98.0","3Y5140Z9DY2P932BJQ8EAXQFXV9IPO","AH7CPLVO15FM5","36U4VBVNQOZD8NFWZXWF9CIHKRIURB","","817.7000000476837","img/land4.png","74","818.0999999046326","1","1","1","2","0.8,0.2,0.2,0.2,0.8,0.2,0.2,0.2,0.8","0.8,0.2,0.2,0.2,0.8,0.2,0.2,0.2,0.8","1","",""
"","html-keyboard-response","99","115977","0.0-99.0","3Y5140Z9DY2P932BJQ8EAXQFXV9IPO","AH7CPLVO15FM5","36U4VBVNQOZD8NFWZXWF9CIHKRIURB","","null","<img src=""img/land4.png"" style=""width:200px; border:14px solid green;"">","null","","","","","","","","","",""
"","image-keyboard-response","100","116508","0.0-100.0","3Y5140Z9DY2P932BJQ8EAXQFXV9IPO","AH7CPLVO15FM5","36U4VBVNQOZD8NFWZXWF9CIHKRIURB","","530.7000000476837","img/land6.png","74","531.0999999046326","1","0","2","2","0.8,0.2,0.2,0.2,0.8,0.2,0.2,0.2,0.8","0.8,0.2,0.2,0.2,0.8,0.2,0.2,0.2,0.8","1","",""
"","html-keyboard-response","101","116809","0.0-101.0","3Y5140Z9DY2P932BJQ8EAXQFXV9IPO","AH7CPLVO15FM5","36U4VBVNQOZD8NFWZXWF9CIHKRIURB","","null","<img src=""img/land6.png"" style=""width:200px;border:14px solid red;"">","null","","","","","","","","","",""
"","image-keyboard-response","102","118316","0.0-102.0","3Y5140Z9DY2P932BJQ8EAXQFXV9IPO","AH7CPLVO15FM5","36U4VBVNQOZD8NFWZXWF9CIHKRIURB","","1506.2999999523163","img/land1.png","76","1506.7999999523163","3","0","3","2","0.8,0.2,0.2,0.2,0.8,0.2,0.2,0.2,0.8","0.8,0.2,0.2,0.2,0.8,0.2,0.2,0.2,0.8","1","",""
"","html-keyboard-response","103","118620","0.0-103.0","3Y5140Z9DY2P932BJQ8EAXQFXV9IPO","AH7CPLVO15FM5","36U4VBVNQOZD8NFWZXWF9CIHKRIURB","","null","<img src=""img/land1.png"" style=""width:200px;border:14px solid red;"">","null","","","","","","","","","",""
"","image-keyboard-response","104","119484","0.0-104.0","3Y5140Z9DY2P932BJQ8EAXQFXV9IPO","AH7CPLVO15FM5","36U4VBVNQOZD8NFWZXWF9CIHKRIURB","","863.5999999046326","img/land4.png","74","864","1","1","1","2","0.8,0.2,0.2,0.2,0.8,0.2,0.2,0.2,0.8","0.8,0.2,0.2,0.2,0.8,0.2,0.2,0.2,0.8","1","",""
"","html-keyboard-response","105","119786","0.0-105.0","3Y5140Z9DY2P932BJQ8EAXQFXV9IPO","AH7CPLVO15FM5","36U4VBVNQOZD8NFWZXWF9CIHKRIURB","","null","<img src=""img/land4.png"" style=""width:200px; border:14px solid green;"">","null","","","","","","","","","",""
"","image-keyboard-response","106","121013","0.0-106.0","3Y5140Z9DY2P932BJQ8EAXQFXV9IPO","AH7CPLVO15FM5","36U4VBVNQOZD8NFWZXWF9CIHKRIURB","","1225.8999998569489","img/land6.png","76","1226.3999998569489","3","0","2","2","0.8,0.2,0.2,0.2,0.8,0.2,0.2,0.2,0.8","0.8,0.2,0.2,0.2,0.8,0.2,0.2,0.2,0.8","1","",""
"","html-keyboard-response","107","121315","0.0-107.0","3Y5140Z9DY2P932BJQ8EAXQFXV9IPO","AH7CPLVO15FM5","36U4VBVNQOZD8NFWZXWF9CIHKRIURB","","null","<img src=""img/land6.png"" style=""width:200px;border:14px solid red;"">","null","","","","","","","","","",""
"","image-keyboard-response","108","122117","0.0-108.0","3Y5140Z9DY2P932BJQ8EAXQFXV9IPO","AH7CPLVO15FM5","36U4VBVNQOZD8NFWZXWF9CIHKRIURB","","801.7999999523163","img/land6.png","74","802.2999999523163","1","0","2","2","0.8,0.2,0.2,0.2,0.8,0.2,0.2,0.2,0.8","0.8,0.2,0.2,0.2,0.8,0.2,0.2,0.2,0.8","1","",""
"","html-keyboard-response","109","122431","0.0-109.0","3Y5140Z9DY2P932BJQ8EAXQFXV9IPO","AH7CPLVO15FM5","36U4VBVNQOZD8NFWZXWF9CIHKRIURB","","null","<img src=""img/land6.png"" style=""width:200px;border:14px solid red;"">","null","","","","","","","","","",""
"","image-keyboard-response","110","122973","0.0-110.0","3Y5140Z9DY2P932BJQ8EAXQFXV9IPO","AH7CPLVO15FM5","36U4VBVNQOZD8NFWZXWF9CIHKRIURB","","541.7999999523163","img/land6.png","75","542.1000001430511","2","1","2","2","0.8,0.2,0.2,0.2,0.8,0.2,0.2,0.2,0.8","0.8,0.2,0.2,0.2,0.8,0.2,0.2,0.2,0.8","1","",""
"","html-keyboard-response","111","123274","0.0-111.0","3Y5140Z9DY2P932BJQ8EAXQFXV9IPO","AH7CPLVO15FM5","36U4VBVNQOZD8NFWZXWF9CIHKRIURB","","null","<img src=""img/land6.png"" style=""width:200px; border:14px solid green;"">","null","","","","","","","","","",""
"","image-keyboard-response","112","124693","0.0-112.0","3Y5140Z9DY2P932BJQ8EAXQFXV9IPO","AH7CPLVO15FM5","36U4VBVNQOZD8NFWZXWF9CIHKRIURB","","1418.1999998092651","img/land1.png","75","1418.6000001430511","2","1","3","2","0.8,0.2,0.2,0.2,0.8,0.2,0.2,0.2,0.8","0.8,0.2,0.2,0.2,0.8,0.2,0.2,0.2,0.8","1","",""
"","html-keyboard-response","113","124994","0.0-113.0","3Y5140Z9DY2P932BJQ8EAXQFXV9IPO","AH7CPLVO15FM5","36U4VBVNQOZD8NFWZXWF9CIHKRIURB","","null","<img src=""img/land1.png"" style=""width:200px; border:14px solid green;"">","null","","","","","","","","","",""
"","image-keyboard-response","114","126045","0.0-114.0","3Y5140Z9DY2P932BJQ8EAXQFXV9IPO","AH7CPLVO15FM5","36U4VBVNQOZD8NFWZXWF9CIHKRIURB","","1050.5999999046326","img/land1.png","75","1051","2","0","3","2","0.8,0.2,0.2,0.2,0.8,0.2,0.2,0.2,0.8","0.8,0.2,0.2,0.2,0.8,0.2,0.2,0.2,0.8","1","",""
"","html-keyboard-response","115","126347","0.0-115.0","3Y5140Z9DY2P932BJQ8EAXQFXV9IPO","AH7CPLVO15FM5","36U4VBVNQOZD8NFWZXWF9CIHKRIURB","","null","<img src=""img/land1.png"" style=""width:200px;border:14px solid red;"">","null","","","","","","","","","",""
"","image-keyboard-response","116","127181","0.0-116.0","3Y5140Z9DY2P932BJQ8EAXQFXV9IPO","AH7CPLVO15FM5","36U4VBVNQOZD8NFWZXWF9CIHKRIURB","","833.7999999523163","img/land4.png","74","834.3000001907349","1","1","1","2","0.8,0.2,0.2,0.2,0.8,0.2,0.2,0.2,0.8","0.8,0.2,0.2,0.2,0.8,0.2,0.2,0.2,0.8","1","",""
"","html-keyboard-response","117","127482","0.0-117.0","3Y5140Z9DY2P932BJQ8EAXQFXV9IPO","AH7CPLVO15FM5","36U4VBVNQOZD8NFWZXWF9CIHKRIURB","","null","<img src=""img/land4.png"" style=""width:200px; border:14px solid green;"">","null","","","","","","","","","",""
"","image-keyboard-response","118","128261","0.0-118.0","3Y5140Z9DY2P932BJQ8EAXQFXV9IPO","AH7CPLVO15FM5","36U4VBVNQOZD8NFWZXWF9CIHKRIURB","","778","img/land4.png","74","778.5","1","0","1","2","0.8,0.2,0.2,0.2,0.8,0.2,0.2,0.2,0.8","0.8,0.2,0.2,0.2,0.8,0.2,0.2,0.2,0.8","1","",""
"","html-keyboard-response","119","128562","0.0-119.0","3Y5140Z9DY2P932BJQ8EAXQFXV9IPO","AH7CPLVO15FM5","36U4VBVNQOZD8NFWZXWF9CIHKRIURB","","null","<img src=""img/land4.png"" style=""width:200px;border:14px solid red;"">","null","","","","","","","","","",""
"","image-keyboard-response","120","129613","0.0-120.0","3Y5140Z9DY2P932BJQ8EAXQFXV9IPO","AH7CPLVO15FM5","36U4VBVNQOZD8NFWZXWF9CIHKRIURB","","1049.8999998569489","img/land1.png","76","1050.2999999523163","3","1","3","2","0.8,0.2,0.2,0.2,0.8,0.2,0.2,0.2,0.8","0.8,0.2,0.2,0.2,0.8,0.2,0.2,0.2,0.8","1","",""
"","html-keyboard-response","121","129914","0.0-121.0","3Y5140Z9DY2P932BJQ8EAXQFXV9IPO","AH7CPLVO15FM5","36U4VBVNQOZD8NFWZXWF9CIHKRIURB","","null","<img src=""img/land1.png"" style=""width:200px; border:14px solid green;"">","null","","","","","","","","","",""
"","image-keyboard-response","122","131429","0.0-122.0","3Y5140Z9DY2P932BJQ8EAXQFXV9IPO","AH7CPLVO15FM5","36U4VBVNQOZD8NFWZXWF9CIHKRIURB","","1514.0999999046326","img/land6.png","75","1514.6000001430511","2","0","2","2","0.8,0.2,0.2,0.2,0.8,0.2,0.2,0.2,0.8","0.8,0.2,0.2,0.2,0.8,0.2,0.2,0.2,0.8","1","",""
"","html-keyboard-response","123","131730","0.0-123.0","3Y5140Z9DY2P932BJQ8EAXQFXV9IPO","AH7CPLVO15FM5","36U4VBVNQOZD8NFWZXWF9CIHKRIURB","","null","<img src=""img/land6.png"" style=""width:200px;border:14px solid red;"">","null","","","","","","","","","",""
"","image-keyboard-response","124","132629","0.0-124.0","3Y5140Z9DY2P932BJQ8EAXQFXV9IPO","AH7CPLVO15FM5","36U4VBVNQOZD8NFWZXWF9CIHKRIURB","","898.4000000953674","img/land4.png","74","898.8999998569489","1","1","1","2","0.8,0.2,0.2,0.2,0.8,0.2,0.2,0.2,0.8","0.8,0.2,0.2,0.2,0.8,0.2,0.2,0.2,0.8","1","",""
"","html-keyboard-response","125","132930","0.0-125.0","3Y5140Z9DY2P932BJQ8EAXQFXV9IPO","AH7CPLVO15FM5","36U4VBVNQOZD8NFWZXWF9CIHKRIURB","","null","<img src=""img/land4.png"" style=""width:200px; border:14px solid green;"">","null","","","","","","","","","",""
"","image-keyboard-response","126","134101","0.0-126.0","3Y5140Z9DY2P932BJQ8EAXQFXV9IPO","AH7CPLVO15FM5","36U4VBVNQOZD8NFWZXWF9CIHKRIURB","","1170.5999999046326","img/land6.png","76","1171.0999999046326","3","0","2","2","0.8,0.2,0.2,0.2,0.8,0.2,0.2,0.2,0.8","0.8,0.2,0.2,0.2,0.8,0.2,0.2,0.2,0.8","1","",""
"","html-keyboard-response","127","134402","0.0-127.0","3Y5140Z9DY2P932BJQ8EAXQFXV9IPO","AH7CPLVO15FM5","36U4VBVNQOZD8NFWZXWF9CIHKRIURB","","null","<img src=""img/land6.png"" style=""width:200px;border:14px solid red;"">","null","","","","","","","","","",""
"","image-keyboard-response","128","134925","0.0-128.0","3Y5140Z9DY2P932BJQ8EAXQFXV9IPO","AH7CPLVO15FM5","36U4VBVNQOZD8NFWZXWF9CIHKRIURB","","522.3999998569489","img/land6.png","75","523","2","1","2","2","0.8,0.2,0.2,0.2,0.8,0.2,0.2,0.2,0.8","0.8,0.2,0.2,0.2,0.8,0.2,0.2,0.2,0.8","1","",""
"","html-keyboard-response","129","135226","0.0-129.0","3Y5140Z9DY2P932BJQ8EAXQFXV9IPO","AH7CPLVO15FM5","36U4VBVNQOZD8NFWZXWF9CIHKRIURB","","null","<img src=""img/land6.png"" style=""width:200px; border:14px solid green;"">","null","","","","","","","","","",""
"","image-keyboard-response","130","136429","0.0-130.0","3Y5140Z9DY2P932BJQ8EAXQFXV9IPO","AH7CPLVO15FM5","36U4VBVNQOZD8NFWZXWF9CIHKRIURB","","1202.2000000476837","img/land1.png","76","1202.5999999046326","3","0","3","2","0.8,0.2,0.2,0.2,0.8,0.2,0.2,0.2,0.8","0.8,0.2,0.2,0.2,0.8,0.2,0.2,0.2,0.8","1","",""
"","html-keyboard-response","131","136731","0.0-131.0","3Y5140Z9DY2P932BJQ8EAXQFXV9IPO","AH7CPLVO15FM5","36U4VBVNQOZD8NFWZXWF9CIHKRIURB","","null","<img src=""img/land1.png"" style=""width:200px;border:14px solid red;"">","null","","","","","","","","","",""
"","image-keyboard-response","132","137493","0.0-132.0","3Y5140Z9DY2P932BJQ8EAXQFXV9IPO","AH7CPLVO15FM5","36U4VBVNQOZD8NFWZXWF9CIHKRIURB","","761.5999999046326","img/land1.png","75","762.0999999046326","2","0","3","2","0.8,0.2,0.2,0.2,0.8,0.2,0.2,0.2,0.8","0.8,0.2,0.2,0.2,0.8,0.2,0.2,0.2,0.8","1","",""
"","html-keyboard-response","133","137794","0.0-133.0","3Y5140Z9DY2P932BJQ8EAXQFXV9IPO","AH7CPLVO15FM5","36U4VBVNQOZD8NFWZXWF9CIHKRIURB","","null","<img src=""img/land1.png"" style=""width:200px;border:14px solid red;"">","null","","","","","","","","","",""
"","image-keyboard-response","134","138605","0.0-134.0","3Y5140Z9DY2P932BJQ8EAXQFXV9IPO","AH7CPLVO15FM5","36U4VBVNQOZD8NFWZXWF9CIHKRIURB","","810","img/land4.png","74","810.4000000953674","1","0","1","2","0.8,0.2,0.2,0.2,0.8,0.2,0.2,0.2,0.8","0.8,0.2,0.2,0.2,0.8,0.2,0.2,0.2,0.8","1","",""
"","html-keyboard-response","135","138920","0.0-135.0","3Y5140Z9DY2P932BJQ8EAXQFXV9IPO","AH7CPLVO15FM5","36U4VBVNQOZD8NFWZXWF9CIHKRIURB","","null","<img src=""img/land4.png"" style=""width:200px;border:14px solid red;"">","null","","","","","","","","","",""
"","image-keyboard-response","136","139685","0.0-136.0","3Y5140Z9DY2P932BJQ8EAXQFXV9IPO","AH7CPLVO15FM5","36U4VBVNQOZD8NFWZXWF9CIHKRIURB","","764.2000000476837","img/land4.png","74","764.6999998092651","1","1","1","2","0.8,0.2,0.2,0.2,0.8,0.2,0.2,0.2,0.8","0.8,0.2,0.2,0.2,0.8,0.2,0.2,0.2,0.8","1","",""
"","html-keyboard-response","137","139986","0.0-137.0","3Y5140Z9DY2P932BJQ8EAXQFXV9IPO","AH7CPLVO15FM5","36U4VBVNQOZD8NFWZXWF9CIHKRIURB","","null","<img src=""img/land4.png"" style=""width:200px; border:14px solid green;"">","null","","","","","","","","","",""
"","image-keyboard-response","138","140589","0.0-138.0","3Y5140Z9DY2P932BJQ8EAXQFXV9IPO","AH7CPLVO15FM5","36U4VBVNQOZD8NFWZXWF9CIHKRIURB","","602","img/land4.png","74","602.5","1","1","1","2","0.8,0.2,0.2,0.2,0.8,0.2,0.2,0.2,0.8","0.8,0.2,0.2,0.2,0.8,0.2,0.2,0.2,0.8","1","",""
"","html-keyboard-response","139","140890","0.0-139.0","3Y5140Z9DY2P932BJQ8EAXQFXV9IPO","AH7CPLVO15FM5","36U4VBVNQOZD8NFWZXWF9CIHKRIURB","","null","<img src=""img/land4.png"" style=""width:200px; border:14px solid green;"">","null","","","","","","","","","",""
"","image-keyboard-response","140","142229","0.0-140.0","3Y5140Z9DY2P932BJQ8EAXQFXV9IPO","AH7CPLVO15FM5","36U4VBVNQOZD8NFWZXWF9CIHKRIURB","","1338.3000001907349","img/land6.png","75","1338.5999999046326","2","1","2","2","0.8,0.2,0.2,0.2,0.8,0.2,0.2,0.2,0.8","0.8,0.2,0.2,0.2,0.8,0.2,0.2,0.2,0.8","1","",""
"","html-keyboard-response","141","142529","0.0-141.0","3Y5140Z9DY2P932BJQ8EAXQFXV9IPO","AH7CPLVO15FM5","36U4VBVNQOZD8NFWZXWF9CIHKRIURB","","null","<img src=""img/land6.png"" style=""width:200px; border:14px solid green;"">","null","","","","","","","","","",""
"","image-keyboard-response","142","143637","0.0-142.0","3Y5140Z9DY2P932BJQ8EAXQFXV9IPO","AH7CPLVO15FM5","36U4VBVNQOZD8NFWZXWF9CIHKRIURB","","1106.7000000476837","img/land1.png","76","1107.0999999046326","3","0","3","2","0.8,0.2,0.2,0.2,0.8,0.2,0.2,0.2,0.8","0.8,0.2,0.2,0.2,0.8,0.2,0.2,0.2,0.8","1","",""
"","html-keyboard-response","143","143938","0.0-143.0","3Y5140Z9DY2P932BJQ8EAXQFXV9IPO","AH7CPLVO15FM5","36U4VBVNQOZD8NFWZXWF9CIHKRIURB","","null","<img src=""img/land1.png"" style=""width:200px;border:14px solid red;"">","null","","","","","","","","","",""
"","image-keyboard-response","144","144901","0.0-144.0","3Y5140Z9DY2P932BJQ8EAXQFXV9IPO","AH7CPLVO15FM5","36U4VBVNQOZD8NFWZXWF9CIHKRIURB","","962.2999999523163","img/land4.png","74","962.7999999523163","1","1","1","2","0.8,0.2,0.2,0.2,0.8,0.2,0.2,0.2,0.8","0.8,0.2,0.2,0.2,0.8,0.2,0.2,0.2,0.8","1","",""
"","html-keyboard-response","145","145202","0.0-145.0","3Y5140Z9DY2P932BJQ8EAXQFXV9IPO","AH7CPLVO15FM5","36U4VBVNQOZD8NFWZXWF9CIHKRIURB","","null","<img src=""img/land4.png"" style=""width:200px; border:14px solid green;"">","null","","","","","","","","","",""
"","image-keyboard-response","146","146037","0.0-146.0","3Y5140Z9DY2P932BJQ8EAXQFXV9IPO","AH7CPLVO15FM5","36U4VBVNQOZD8NFWZXWF9CIHKRIURB","","834.5","img/land4.png","74","835","1","1","1","2","0.8,0.2,0.2,0.2,0.8,0.2,0.2,0.2,0.8","0.8,0.2,0.2,0.2,0.8,0.2,0.2,0.2,0.8","1","",""
"","html-keyboard-response","147","146338","0.0-147.0","3Y5140Z9DY2P932BJQ8EAXQFXV9IPO","AH7CPLVO15FM5","36U4VBVNQOZD8NFWZXWF9CIHKRIURB","","null","<img src=""img/land4.png"" style=""width:200px; border:14px solid green;"">","null","","","","","","","","","",""
"","image-keyboard-response","148","147269","0.0-148.0","3Y5140Z9DY2P932BJQ8EAXQFXV9IPO","AH7CPLVO15FM5","36U4VBVNQOZD8NFWZXWF9CIHKRIURB","","929.7000000476837","img/land6.png","75","930.0999999046326","2","1","2","2","0.8,0.2,0.2,0.2,0.8,0.2,0.2,0.2,0.8","0.8,0.2,0.2,0.2,0.8,0.2,0.2,0.2,0.8","1","",""
"","html-keyboard-response","149","147570","0.0-149.0","3Y5140Z9DY2P932BJQ8EAXQFXV9IPO","AH7CPLVO15FM5","36U4VBVNQOZD8NFWZXWF9CIHKRIURB","","null","<img src=""img/land6.png"" style=""width:200px; border:14px solid green;"">","null","","","","","","","","","",""
"","image-keyboard-response","150","148469","0.0-150.0","3Y5140Z9DY2P932BJQ8EAXQFXV9IPO","AH7CPLVO15FM5","36U4VBVNQOZD8NFWZXWF9CIHKRIURB","","898.5","img/land4.png","74","899","1","1","1","2","0.8,0.2,0.2,0.2,0.8,0.2,0.2,0.2,0.8","0.8,0.2,0.2,0.2,0.8,0.2,0.2,0.2,0.8","1","",""
"","html-keyboard-response","151","148770","0.0-151.0","3Y5140Z9DY2P932BJQ8EAXQFXV9IPO","AH7CPLVO15FM5","36U4VBVNQOZD8NFWZXWF9CIHKRIURB","","null","<img src=""img/land4.png"" style=""width:200px; border:14px solid green;"">","null","","","","","","","","","",""
"","image-keyboard-response","152","149597","0.0-152.0","3Y5140Z9DY2P932BJQ8EAXQFXV9IPO","AH7CPLVO15FM5","36U4VBVNQOZD8NFWZXWF9CIHKRIURB","","826.2999999523163","img/land6.png","75","826.7999999523163","2","1","2","2","0.8,0.2,0.2,0.2,0.8,0.2,0.2,0.2,0.8","0.8,0.2,0.2,0.2,0.8,0.2,0.2,0.2,0.8","1","",""
"","html-keyboard-response","153","149898","0.0-153.0","3Y5140Z9DY2P932BJQ8EAXQFXV9IPO","AH7CPLVO15FM5","36U4VBVNQOZD8NFWZXWF9CIHKRIURB","","null","<img src=""img/land6.png"" style=""width:200px; border:14px solid green;"">","null","","","","","","","","","",""
"","image-keyboard-response","154","150717","0.0-154.0","3Y5140Z9DY2P932BJQ8EAXQFXV9IPO","AH7CPLVO15FM5","36U4VBVNQOZD8NFWZXWF9CIHKRIURB","","817.5999999046326","img/land4.png","74","818","1","1","1","2","0.8,0.2,0.2,0.2,0.8,0.2,0.2,0.2,0.8","0.8,0.2,0.2,0.2,0.8,0.2,0.2,0.2,0.8","1","",""
"","html-keyboard-response","155","151018","0.0-155.0","3Y5140Z9DY2P932BJQ8EAXQFXV9IPO","AH7CPLVO15FM5","36U4VBVNQOZD8NFWZXWF9CIHKRIURB","","null","<img src=""img/land4.png"" style=""width:200px; border:14px solid green;"">","null","","","","","","","","","",""
"","image-keyboard-response","156","151869","0.0-156.0","3Y5140Z9DY2P932BJQ8EAXQFXV9IPO","AH7CPLVO15FM5","36U4VBVNQOZD8NFWZXWF9CIHKRIURB","","850.5","img/land4.png","74","851","1","1","1","2","0.8,0.2,0.2,0.2,0.8,0.2,0.2,0.2,0.8","0.8,0.2,0.2,0.2,0.8,0.2,0.2,0.2,0.8","1","",""
"","html-keyboard-response","157","152170","0.0-157.0","3Y5140Z9DY2P932BJQ8EAXQFXV9IPO","AH7CPLVO15FM5","36U4VBVNQOZD8NFWZXWF9CIHKRIURB","","null","<img src=""img/land4.png"" style=""width:200px; border:14px solid green;"">","null","","","","","","","","","",""
"","image-keyboard-response","158","152885","0.0-158.0","3Y5140Z9DY2P932BJQ8EAXQFXV9IPO","AH7CPLVO15FM5","36U4VBVNQOZD8NFWZXWF9CIHKRIURB","","714","img/land6.png","75","714.4000000953674","2","1","2","2","0.8,0.2,0.2,0.2,0.8,0.2,0.2,0.2,0.8","0.8,0.2,0.2,0.2,0.8,0.2,0.2,0.2,0.8","1","",""
"","html-keyboard-response","159","153186","0.0-159.0","3Y5140Z9DY2P932BJQ8EAXQFXV9IPO","AH7CPLVO15FM5","36U4VBVNQOZD8NFWZXWF9CIHKRIURB","","null","<img src=""img/land6.png"" style=""width:200px; border:14px solid green;"">","null","","","","","","","","","",""
"","image-keyboard-response","160","153949","0.0-160.0","3Y5140Z9DY2P932BJQ8EAXQFXV9IPO","AH7CPLVO15FM5","36U4VBVNQOZD8NFWZXWF9CIHKRIURB","","762.4000000953674","img/land6.png","75","762.7999999523163","2","1","2","2","0.8,0.2,0.2,0.2,0.8,0.2,0.2,0.2,0.8","0.8,0.2,0.2,0.2,0.8,0.2,0.2,0.2,0.8","1","",""
"","html-keyboard-response","161","154251","0.0-161.0","3Y5140Z9DY2P932BJQ8EAXQFXV9IPO","AH7CPLVO15FM5","36U4VBVNQOZD8NFWZXWF9CIHKRIURB","","null","<img src=""img/land6.png"" style=""width:200px; border:14px solid green;"">","null","","","","","","","","","",""
"","image-keyboard-response","162","155149","0.0-162.0","3Y5140Z9DY2P932BJQ8EAXQFXV9IPO","AH7CPLVO15FM5","36U4VBVNQOZD8NFWZXWF9CIHKRIURB","","897.6999998092651","img/land1.png","75","898.0999999046326","2","0","3","2","0.8,0.2,0.2,0.2,0.8,0.2,0.2,0.2,0.8","0.8,0.2,0.2,0.2,0.8,0.2,0.2,0.2,0.8","1","",""
"","html-keyboard-response","163","155450","0.0-163.0","3Y5140Z9DY2P932BJQ8EAXQFXV9IPO","AH7CPLVO15FM5","36U4VBVNQOZD8NFWZXWF9CIHKRIURB","","null","<img src=""img/land1.png"" style=""width:200px;border:14px solid red;"">","null","","","","","","","","","",""
"","image-keyboard-response","164","156517","0.0-164.0","3Y5140Z9DY2P932BJQ8EAXQFXV9IPO","AH7CPLVO15FM5","36U4VBVNQOZD8NFWZXWF9CIHKRIURB","","1066.6999998092651","img/land4.png","74","1067.2000000476837","1","1","1","2","0.8,0.2,0.2,0.2,0.8,0.2,0.2,0.2,0.8","0.8,0.2,0.2,0.2,0.8,0.2,0.2,0.2,0.8","1","",""
"","html-keyboard-response","165","156819","0.0-165.0","3Y5140Z9DY2P932BJQ8EAXQFXV9IPO","AH7CPLVO15FM5","36U4VBVNQOZD8NFWZXWF9CIHKRIURB","","null","<img src=""img/land4.png"" style=""width:200px; border:14px solid green;"">","null","","","","","","","","","",""
"","image-keyboard-response","166","157493","0.0-166.0","3Y5140Z9DY2P932BJQ8EAXQFXV9IPO","AH7CPLVO15FM5","36U4VBVNQOZD8NFWZXWF9CIHKRIURB","","673.5999999046326","img/land4.png","74","673.8999998569489","1","1","1","2","0.8,0.2,0.2,0.2,0.8,0.2,0.2,0.2,0.8","0.8,0.2,0.2,0.2,0.8,0.2,0.2,0.2,0.8","1","",""
"","html-keyboard-response","167","157794","0.0-167.0","3Y5140Z9DY2P932BJQ8EAXQFXV9IPO","AH7CPLVO15FM5","36U4VBVNQOZD8NFWZXWF9CIHKRIURB","","null","<img src=""img/land4.png"" style=""width:200px; border:14px solid green;"">","null","","","","","","","","","",""
"","image-keyboard-response","168","158325","0.0-168.0","3Y5140Z9DY2P932BJQ8EAXQFXV9IPO","AH7CPLVO15FM5","36U4VBVNQOZD8NFWZXWF9CIHKRIURB","","530.7000000476837","img/land4.png","74","531","1","1","1","2","0.8,0.2,0.2,0.2,0.8,0.2,0.2,0.2,0.8","0.8,0.2,0.2,0.2,0.8,0.2,0.2,0.2,0.8","1","",""
"","html-keyboard-response","169","158641","0.0-169.0","3Y5140Z9DY2P932BJQ8EAXQFXV9IPO","AH7CPLVO15FM5","36U4VBVNQOZD8NFWZXWF9CIHKRIURB","","null","<img src=""img/land4.png"" style=""width:200px; border:14px solid green;"">","null","","","","","","","","","",""
"","image-keyboard-response","170","159181","0.0-170.0","3Y5140Z9DY2P932BJQ8EAXQFXV9IPO","AH7CPLVO15FM5","36U4VBVNQOZD8NFWZXWF9CIHKRIURB","","539.5","img/land4.png","74","539.8999998569489","1","1","1","2","0.8,0.2,0.2,0.2,0.8,0.2,0.2,0.2,0.8","0.8,0.2,0.2,0.2,0.8,0.2,0.2,0.2,0.8","1","",""
"","html-keyboard-response","171","159482","0.0-171.0","3Y5140Z9DY2P932BJQ8EAXQFXV9IPO","AH7CPLVO15FM5","36U4VBVNQOZD8NFWZXWF9CIHKRIURB","","null","<img src=""img/land4.png"" style=""width:200px; border:14px solid green;"">","null","","","","","","","","","",""
"","image-keyboard-response","172","160269","0.0-172.0","3Y5140Z9DY2P932BJQ8EAXQFXV9IPO","AH7CPLVO15FM5","36U4VBVNQOZD8NFWZXWF9CIHKRIURB","","786.4000000953674","img/land1.png","74","786.9000000953674","1","0","3","2","0.8,0.2,0.2,0.2,0.8,0.2,0.2,0.2,0.8","0.8,0.2,0.2,0.2,0.8,0.2,0.2,0.2,0.8","1","",""
"","html-keyboard-response","173","160570","0.0-173.0","3Y5140Z9DY2P932BJQ8EAXQFXV9IPO","AH7CPLVO15FM5","36U4VBVNQOZD8NFWZXWF9CIHKRIURB","","null","<img src=""img/land1.png"" style=""width:200px;border:14px solid red;"">","null","","","","","","","","","",""
"","image-keyboard-response","174","161501","0.0-174.0","3Y5140Z9DY2P932BJQ8EAXQFXV9IPO","AH7CPLVO15FM5","36U4VBVNQOZD8NFWZXWF9CIHKRIURB","","930.2999999523163","img/land4.png","74","930.7999999523163","1","1","1","2","0.8,0.2,0.2,0.2,0.8,0.2,0.2,0.2,0.8","0.8,0.2,0.2,0.2,0.8,0.2,0.2,0.2,0.8","1","",""
"","html-keyboard-response","175","161803","0.0-175.0","3Y5140Z9DY2P932BJQ8EAXQFXV9IPO","AH7CPLVO15FM5","36U4VBVNQOZD8NFWZXWF9CIHKRIURB","","null","<img src=""img/land4.png"" style=""width:200px; border:14px solid green;"">","null","","","","","","","","","",""
"","image-keyboard-response","176","162541","0.0-176.0","3Y5140Z9DY2P932BJQ8EAXQFXV9IPO","AH7CPLVO15FM5","36U4VBVNQOZD8NFWZXWF9CIHKRIURB","","737.7999999523163","img/land4.png","74","738.3000001907349","1","0","1","2","0.8,0.2,0.2,0.2,0.8,0.2,0.2,0.2,0.8","0.8,0.2,0.2,0.2,0.8,0.2,0.2,0.2,0.8","1","",""
"","html-keyboard-response","177","162844","0.0-177.0","3Y5140Z9DY2P932BJQ8EAXQFXV9IPO","AH7CPLVO15FM5","36U4VBVNQOZD8NFWZXWF9CIHKRIURB","","null","<img src=""img/land4.png"" style=""width:200px;border:14px solid red;"">","null","","","","","","","","","",""
"","image-keyboard-response","178","163557","0.0-178.0","3Y5140Z9DY2P932BJQ8EAXQFXV9IPO","AH7CPLVO15FM5","36U4VBVNQOZD8NFWZXWF9CIHKRIURB","","713","img/land4.png","74","713.3999998569489","1","1","1","2","0.8,0.2,0.2,0.2,0.8,0.2,0.2,0.2,0.8","0.8,0.2,0.2,0.2,0.8,0.2,0.2,0.2,0.8","1","",""
"","html-keyboard-response","179","163859","0.0-179.0","3Y5140Z9DY2P932BJQ8EAXQFXV9IPO","AH7CPLVO15FM5","36U4VBVNQOZD8NFWZXWF9CIHKRIURB","","null","<img src=""img/land4.png"" style=""width:200px; border:14px solid green;"">","null","","","","","","","","","",""
"","image-keyboard-response","180","164773","0.0-180.0","3Y5140Z9DY2P932BJQ8EAXQFXV9IPO","AH7CPLVO15FM5","36U4VBVNQOZD8NFWZXWF9CIHKRIURB","","912.8999998569489","img/land4.png","74","913.2999999523163","1","1","1","2","0.8,0.2,0.2,0.2,0.8,0.2,0.2,0.2,0.8","0.8,0.2,0.2,0.2,0.8,0.2,0.2,0.2,0.8","1","",""
"","html-keyboard-response","181","165084","0.0-181.0","3Y5140Z9DY2P932BJQ8EAXQFXV9IPO","AH7CPLVO15FM5","36U4VBVNQOZD8NFWZXWF9CIHKRIURB","","null","<img src=""img/land4.png"" style=""width:200px; border:14px solid green;"">","null","","","","","","","","","",""
"","image-keyboard-response","182","165917","0.0-182.0","3Y5140Z9DY2P932BJQ8EAXQFXV9IPO","AH7CPLVO15FM5","36U4VBVNQOZD8NFWZXWF9CIHKRIURB","","832","img/land4.png","74","832.4000000953674","1","1","1","2","0.8,0.2,0.2,0.2,0.8,0.2,0.2,0.2,0.8","0.8,0.2,0.2,0.2,0.8,0.2,0.2,0.2,0.8","1","",""
"","html-keyboard-response","183","166219","0.0-183.0","3Y5140Z9DY2P932BJQ8EAXQFXV9IPO","AH7CPLVO15FM5","36U4VBVNQOZD8NFWZXWF9CIHKRIURB","","null","<img src=""img/land4.png"" style=""width:200px; border:14px solid green;"">","null","","","","","","","","","",""
"","image-keyboard-response","184","167253","0.0-184.0","3Y5140Z9DY2P932BJQ8EAXQFXV9IPO","AH7CPLVO15FM5","36U4VBVNQOZD8NFWZXWF9CIHKRIURB","","1033.6999998092651","img/land6.png","75","1034.1000001430511","2","1","2","2","0.8,0.2,0.2,0.2,0.8,0.2,0.2,0.2,0.8","0.8,0.2,0.2,0.2,0.8,0.2,0.2,0.2,0.8","1","",""
"","html-keyboard-response","185","167554","0.0-185.0","3Y5140Z9DY2P932BJQ8EAXQFXV9IPO","AH7CPLVO15FM5","36U4VBVNQOZD8NFWZXWF9CIHKRIURB","","null","<img src=""img/land6.png"" style=""width:200px; border:14px solid green;"">","null","","","","","","","","","",""
"","image-keyboard-response","186","168685","0.0-186.0","3Y5140Z9DY2P932BJQ8EAXQFXV9IPO","AH7CPLVO15FM5","36U4VBVNQOZD8NFWZXWF9CIHKRIURB","","1130.7000000476837","img/land1.png","75","1131.1000001430511","2","0","3","2","0.8,0.2,0.2,0.2,0.8,0.2,0.2,0.2,0.8","0.8,0.2,0.2,0.2,0.8,0.2,0.2,0.2,0.8","1","",""
"","html-keyboard-response","187","168986","0.0-187.0","3Y5140Z9DY2P932BJQ8EAXQFXV9IPO","AH7CPLVO15FM5","36U4VBVNQOZD8NFWZXWF9CIHKRIURB","","null","<img src=""img/land1.png"" style=""width:200px;border:14px solid red;"">","null","","","","","","","","","",""
"","image-keyboard-response","188","169725","0.0-188.0","3Y5140Z9DY2P932BJQ8EAXQFXV9IPO","AH7CPLVO15FM5","36U4VBVNQOZD8NFWZXWF9CIHKRIURB","","738.4000000953674","img/land1.png","76","738.8999998569489","3","0","3","2","0.8,0.2,0.2,0.2,0.8,0.2,0.2,0.2,0.8","0.8,0.2,0.2,0.2,0.8,0.2,0.2,0.2,0.8","1","",""
"","html-keyboard-response","189","170026","0.0-189.0","3Y5140Z9DY2P932BJQ8EAXQFXV9IPO","AH7CPLVO15FM5","36U4VBVNQOZD8NFWZXWF9CIHKRIURB","","null","<img src=""img/land1.png"" style=""width:200px;border:14px solid red;"">","null","","","","","","","","","",""
"","image-keyboard-response","190","170861","0.0-190.0","3Y5140Z9DY2P932BJQ8EAXQFXV9IPO","AH7CPLVO15FM5","36U4VBVNQOZD8NFWZXWF9CIHKRIURB","","834.2999999523163","img/land4.png","74","834.5999999046326","1","1","1","2","0.8,0.2,0.2,0.2,0.8,0.2,0.2,0.2,0.8","0.8,0.2,0.2,0.2,0.8,0.2,0.2,0.2,0.8","1","",""
"","html-keyboard-response","191","171162","0.0-191.0","3Y5140Z9DY2P932BJQ8EAXQFXV9IPO","AH7CPLVO15FM5","36U4VBVNQOZD8NFWZXWF9CIHKRIURB","","null","<img src=""img/land4.png"" style=""width:200px; border:14px solid green;"">","null","","","","","","","","","",""
"","image-keyboard-response","192","172229","0.0-192.0","3Y5140Z9DY2P932BJQ8EAXQFXV9IPO","AH7CPLVO15FM5","36U4VBVNQOZD8NFWZXWF9CIHKRIURB","","1066.4000000953674","img/land6.png","76","1066.9000000953674","3","0","2","2","0.8,0.2,0.2,0.2,0.8,0.2,0.2,0.2,0.8","0.8,0.2,0.2,0.2,0.8,0.2,0.2,0.2,0.8","1","",""
"","html-keyboard-response","193","172530","0.0-193.0","3Y5140Z9DY2P932BJQ8EAXQFXV9IPO","AH7CPLVO15FM5","36U4VBVNQOZD8NFWZXWF9CIHKRIURB","","null","<img src=""img/land6.png"" style=""width:200px;border:14px solid red;"">","null","","","","","","","","","",""
"","image-keyboard-response","194","173365","0.0-194.0","3Y5140Z9DY2P932BJQ8EAXQFXV9IPO","AH7CPLVO15FM5","36U4VBVNQOZD8NFWZXWF9CIHKRIURB","","834.3999998569489","img/land4.png","74","834.9000000953674","1","1","1","2","0.8,0.2,0.2,0.2,0.8,0.2,0.2,0.2,0.8","0.8,0.2,0.2,0.2,0.8,0.2,0.2,0.2,0.8","1","",""
"","html-keyboard-response","195","173666","0.0-195.0","3Y5140Z9DY2P932BJQ8EAXQFXV9IPO","AH7CPLVO15FM5","36U4VBVNQOZD8NFWZXWF9CIHKRIURB","","null","<img src=""img/land4.png"" style=""width:200px; border:14px solid green;"">","null","","","","","","","","","",""
"","image-keyboard-response","196","174621","0.0-196.0","3Y5140Z9DY2P932BJQ8EAXQFXV9IPO","AH7CPLVO15FM5","36U4VBVNQOZD8NFWZXWF9CIHKRIURB","","954.0999999046326","img/land6.png","75","954.5999999046326","2","1","2","2","0.8,0.2,0.2,0.2,0.8,0.2,0.2,0.2,0.8","0.8,0.2,0.2,0.2,0.8,0.2,0.2,0.2,0.8","1","",""
"","html-keyboard-response","197","174922","0.0-197.0","3Y5140Z9DY2P932BJQ8EAXQFXV9IPO","AH7CPLVO15FM5","36U4VBVNQOZD8NFWZXWF9CIHKRIURB","","null","<img src=""img/land6.png"" style=""width:200px; border:14px solid green;"">","null","","","","","","","","","",""
"","image-keyboard-response","198","175813","0.0-198.0","3Y5140Z9DY2P932BJQ8EAXQFXV9IPO","AH7CPLVO15FM5","36U4VBVNQOZD8NFWZXWF9CIHKRIURB","","891.1999998092651","img/land4.png","74","891.6000001430511","1","1","1","2","0.8,0.2,0.2,0.2,0.8,0.2,0.2,0.2,0.8","0.8,0.2,0.2,0.2,0.8,0.2,0.2,0.2,0.8","1","",""
"","html-keyboard-response","199","176115","0.0-199.0","3Y5140Z9DY2P932BJQ8EAXQFXV9IPO","AH7CPLVO15FM5","36U4VBVNQOZD8NFWZXWF9CIHKRIURB","","null","<img src=""img/land4.png"" style=""width:200px; border:14px solid green;"">","null","","","","","","","","","",""
"","image-keyboard-response","200","177037","0.0-200.0","3Y5140Z9DY2P932BJQ8EAXQFXV9IPO","AH7CPLVO15FM5","36U4VBVNQOZD8NFWZXWF9CIHKRIURB","","921.7000000476837","img/land6.png","75","922.2000000476837","2","1","2","2","0.8,0.2,0.2,0.2,0.8,0.2,0.2,0.2,0.8","0.8,0.2,0.2,0.2,0.8,0.2,0.2,0.2,0.8","1","",""
"","html-keyboard-response","201","177338","0.0-201.0","3Y5140Z9DY2P932BJQ8EAXQFXV9IPO","AH7CPLVO15FM5","36U4VBVNQOZD8NFWZXWF9CIHKRIURB","","null","<img src=""img/land6.png"" style=""width:200px; border:14px solid green;"">","null","","","","","","","","","",""
"","image-keyboard-response","202","178037","0.0-202.0","3Y5140Z9DY2P932BJQ8EAXQFXV9IPO","AH7CPLVO15FM5","36U4VBVNQOZD8NFWZXWF9CIHKRIURB","","697.7999999523163","img/land4.png","74","698.2999999523163","1","1","1","2","0.8,0.2,0.2,0.2,0.8,0.2,0.2,0.2,0.8","0.8,0.2,0.2,0.2,0.8,0.2,0.2,0.2,0.8","1","",""
"","html-keyboard-response","203","178339","0.0-203.0","3Y5140Z9DY2P932BJQ8EAXQFXV9IPO","AH7CPLVO15FM5","36U4VBVNQOZD8NFWZXWF9CIHKRIURB","","null","<img src=""img/land4.png"" style=""width:200px; border:14px solid green;"">","null","","","","","","","","","",""
"","image-keyboard-response","204","179053","0.0-204.0","3Y5140Z9DY2P932BJQ8EAXQFXV9IPO","AH7CPLVO15FM5","36U4VBVNQOZD8NFWZXWF9CIHKRIURB","","713.2000000476837","img/land4.png","74","713.7000000476837","1","1","1","2","0.8,0.2,0.2,0.2,0.8,0.2,0.2,0.2,0.8","0.8,0.2,0.2,0.2,0.8,0.2,0.2,0.2,0.8","1","",""
"","html-keyboard-response","205","179355","0.0-205.0","3Y5140Z9DY2P932BJQ8EAXQFXV9IPO","AH7CPLVO15FM5","36U4VBVNQOZD8NFWZXWF9CIHKRIURB","","null","<img src=""img/land4.png"" style=""width:200px; border:14px solid green;"">","null","","","","","","","","","",""
"","image-keyboard-response","206","180100","0.0-206.0","3Y5140Z9DY2P932BJQ8EAXQFXV9IPO","AH7CPLVO15FM5","36U4VBVNQOZD8NFWZXWF9CIHKRIURB","","745.5999999046326","img/land4.png","74","746.3000001907349","1","1","1","2","0.8,0.2,0.2,0.2,0.8,0.2,0.2,0.2,0.8","0.8,0.2,0.2,0.2,0.8,0.2,0.2,0.2,0.8","1","",""
"","html-keyboard-response","207","180401","0.0-207.0","3Y5140Z9DY2P932BJQ8EAXQFXV9IPO","AH7CPLVO15FM5","36U4VBVNQOZD8NFWZXWF9CIHKRIURB","","null","<img src=""img/land4.png"" style=""width:200px; border:14px solid green;"">","null","","","","","","","","","",""
"","image-keyboard-response","208","181068","0.0-208.0","3Y5140Z9DY2P932BJQ8EAXQFXV9IPO","AH7CPLVO15FM5","36U4VBVNQOZD8NFWZXWF9CIHKRIURB","","666.2999999523163","img/land4.png","74","666.7999999523163","1","1","1","2","0.8,0.2,0.2,0.2,0.8,0.2,0.2,0.2,0.8","0.8,0.2,0.2,0.2,0.8,0.2,0.2,0.2,0.8","1","",""
"","html-keyboard-response","209","181369","0.0-209.0","3Y5140Z9DY2P932BJQ8EAXQFXV9IPO","AH7CPLVO15FM5","36U4VBVNQOZD8NFWZXWF9CIHKRIURB","","null","<img src=""img/land4.png"" style=""width:200px; border:14px solid green;"">","null","","","","","","","","","",""
"","image-keyboard-response","210","182596","0.0-210.0","3Y5140Z9DY2P932BJQ8EAXQFXV9IPO","AH7CPLVO15FM5","36U4VBVNQOZD8NFWZXWF9CIHKRIURB","","1226.2000000476837","img/land4.png","75","1226.7999999523163","2","1","1","2","0.8,0.2,0.2,0.2,0.8,0.2,0.2,0.2,0.8","0.8,0.2,0.2,0.2,0.8,0.2,0.2,0.2,0.8","1","",""
"","html-keyboard-response","211","182898","0.0-211.0","3Y5140Z9DY2P932BJQ8EAXQFXV9IPO","AH7CPLVO15FM5","36U4VBVNQOZD8NFWZXWF9CIHKRIURB","","null","<img src=""img/land4.png"" style=""width:200px; border:14px solid green;"">","null","","","","","","","","","",""
"","image-keyboard-response","212","184028","0.0-212.0","3Y5140Z9DY2P932BJQ8EAXQFXV9IPO","AH7CPLVO15FM5","36U4VBVNQOZD8NFWZXWF9CIHKRIURB","","1129.5999999046326","img/land1.png","74","1130.2000000476837","1","0","3","2","0.8,0.2,0.2,0.2,0.8,0.2,0.2,0.2,0.8","0.8,0.2,0.2,0.2,0.8,0.2,0.2,0.2,0.8","1","",""
"","html-keyboard-response","213","184330","0.0-213.0","3Y5140Z9DY2P932BJQ8EAXQFXV9IPO","AH7CPLVO15FM5","36U4VBVNQOZD8NFWZXWF9CIHKRIURB","","null","<img src=""img/land1.png"" style=""width:200px;border:14px solid red;"">","null","","","","","","","","","",""
"","image-keyboard-response","214","185892","0.0-214.0","3Y5140Z9DY2P932BJQ8EAXQFXV9IPO","AH7CPLVO15FM5","36U4VBVNQOZD8NFWZXWF9CIHKRIURB","","1562","img/land6.png","76","1562.3999998569489","3","0","2","2","0.8,0.2,0.2,0.2,0.8,0.2,0.2,0.2,0.8","0.8,0.2,0.2,0.2,0.8,0.2,0.2,0.2,0.8","1","",""
"","html-keyboard-response","215","186193","0.0-215.0","3Y5140Z9DY2P932BJQ8EAXQFXV9IPO","AH7CPLVO15FM5","36U4VBVNQOZD8NFWZXWF9CIHKRIURB","","null","<img src=""img/land6.png"" style=""width:200px;border:14px solid red;"">","null","","","","","","","","","",""
"","image-keyboard-response","216","187468","0.0-216.0","3Y5140Z9DY2P932BJQ8EAXQFXV9IPO","AH7CPLVO15FM5","36U4VBVNQOZD8NFWZXWF9CIHKRIURB","","1274.6999998092651","img/land1.png","76","1275.1000001430511","3","1","3","2","0.8,0.2,0.2,0.2,0.8,0.2,0.2,0.2,0.8","0.8,0.2,0.2,0.2,0.8,0.2,0.2,0.2,0.8","1","",""
"","html-keyboard-response","217","187770","0.0-217.0","3Y5140Z9DY2P932BJQ8EAXQFXV9IPO","AH7CPLVO15FM5","36U4VBVNQOZD8NFWZXWF9CIHKRIURB","","null","<img src=""img/land1.png"" style=""width:200px; border:14px solid green;"">","null","","","","","","","","","",""
"","image-keyboard-response","218","188972","0.0-218.0","3Y5140Z9DY2P932BJQ8EAXQFXV9IPO","AH7CPLVO15FM5","36U4VBVNQOZD8NFWZXWF9CIHKRIURB","","1202","img/land6.png","75","1202.2999999523163","2","1","2","2","0.8,0.2,0.2,0.2,0.8,0.2,0.2,0.2,0.8","0.8,0.2,0.2,0.2,0.8,0.2,0.2,0.2,0.8","1","",""
"","html-keyboard-response","219","189273","0.0-219.0","3Y5140Z9DY2P932BJQ8EAXQFXV9IPO","AH7CPLVO15FM5","36U4VBVNQOZD8NFWZXWF9CIHKRIURB","","null","<img src=""img/land6.png"" style=""width:200px; border:14px solid green;"">","null","","","","","","","","","",""
"","image-keyboard-response","220","190180","0.0-220.0","3Y5140Z9DY2P932BJQ8EAXQFXV9IPO","AH7CPLVO15FM5","36U4VBVNQOZD8NFWZXWF9CIHKRIURB","","906.3999998569489","img/land4.png","74","906.8999998569489","1","1","1","2","0.8,0.2,0.2,0.2,0.8,0.2,0.2,0.2,0.8","0.8,0.2,0.2,0.2,0.8,0.2,0.2,0.2,0.8","1","",""
"","html-keyboard-response","221","190482","0.0-221.0","3Y5140Z9DY2P932BJQ8EAXQFXV9IPO","AH7CPLVO15FM5","36U4VBVNQOZD8NFWZXWF9CIHKRIURB","","null","<img src=""img/land4.png"" style=""width:200px; border:14px solid green;"">","null","","","","","","","","","",""
"","image-keyboard-response","222","191244","0.0-222.0","3Y5140Z9DY2P932BJQ8EAXQFXV9IPO","AH7CPLVO15FM5","36U4VBVNQOZD8NFWZXWF9CIHKRIURB","","762","img/land4.png","74","762.4000000953674","1","1","1","2","0.8,0.2,0.2,0.2,0.8,0.2,0.2,0.2,0.8","0.8,0.2,0.2,0.2,0.8,0.2,0.2,0.2,0.8","1","",""
"","html-keyboard-response","223","191546","0.0-223.0","3Y5140Z9DY2P932BJQ8EAXQFXV9IPO","AH7CPLVO15FM5","36U4VBVNQOZD8NFWZXWF9CIHKRIURB","","null","<img src=""img/land4.png"" style=""width:200px; border:14px solid green;"">","null","","","","","","","","","",""
"","image-keyboard-response","224","192284","0.0-224.0","3Y5140Z9DY2P932BJQ8EAXQFXV9IPO","AH7CPLVO15FM5","36U4VBVNQOZD8NFWZXWF9CIHKRIURB","","737.5999999046326","img/land4.png","74","738.0999999046326","1","0","1","2","0.8,0.2,0.2,0.2,0.8,0.2,0.2,0.2,0.8","0.8,0.2,0.2,0.2,0.8,0.2,0.2,0.2,0.8","1","",""
"","html-keyboard-response","225","192596","0.0-225.0","3Y5140Z9DY2P932BJQ8EAXQFXV9IPO","AH7CPLVO15FM5","36U4VBVNQOZD8NFWZXWF9CIHKRIURB","","null","<img src=""img/land4.png"" style=""width:200px;border:14px solid red;"">","null","","","","","","","","","",""
"","image-keyboard-response","226","193436","0.0-226.0","3Y5140Z9DY2P932BJQ8EAXQFXV9IPO","AH7CPLVO15FM5","36U4VBVNQOZD8NFWZXWF9CIHKRIURB","","839.9000000953674","img/land4.png","74","840.2999999523163","1","0","1","2","0.8,0.2,0.2,0.2,0.8,0.2,0.2,0.2,0.8","0.8,0.2,0.2,0.2,0.8,0.2,0.2,0.2,0.8","1","",""
"","html-keyboard-response","227","193738","0.0-227.0","3Y5140Z9DY2P932BJQ8EAXQFXV9IPO","AH7CPLVO15FM5","36U4VBVNQOZD8NFWZXWF9CIHKRIURB","","null","<img src=""img/land4.png"" style=""width:200px;border:14px solid red;"">","null","","","","","","","","","",""
"","image-keyboard-response","228","194908","0.0-228.0","3Y5140Z9DY2P932BJQ8EAXQFXV9IPO","AH7CPLVO15FM5","36U4VBVNQOZD8NFWZXWF9CIHKRIURB","","1169.9000000953674","img/land4.png","74","1170.2000000476837","1","1","1","2","0.8,0.2,0.2,0.2,0.8,0.2,0.2,0.2,0.8","0.8,0.2,0.2,0.2,0.8,0.2,0.2,0.2,0.8","1","",""
"","html-keyboard-response","229","195209","0.0-229.0","3Y5140Z9DY2P932BJQ8EAXQFXV9IPO","AH7CPLVO15FM5","36U4VBVNQOZD8NFWZXWF9CIHKRIURB","","null","<img src=""img/land4.png"" style=""width:200px; border:14px solid green;"">","null","","","","","","","","","",""
"","image-keyboard-response","230","196276","0.0-230.0","3Y5140Z9DY2P932BJQ8EAXQFXV9IPO","AH7CPLVO15FM5","36U4VBVNQOZD8NFWZXWF9CIHKRIURB","","1066.3999998569489","img/land6.png","76","1066.9000000953674","3","0","2","2","0.8,0.2,0.2,0.2,0.8,0.2,0.2,0.2,0.8","0.8,0.2,0.2,0.2,0.8,0.2,0.2,0.2,0.8","1","",""
"","html-keyboard-response","231","196577","0.0-231.0","3Y5140Z9DY2P932BJQ8EAXQFXV9IPO","AH7CPLVO15FM5","36U4VBVNQOZD8NFWZXWF9CIHKRIURB","","null","<img src=""img/land6.png"" style=""width:200px;border:14px solid red;"">","null","","","","","","","","","",""
"","image-keyboard-response","232","197796","0.0-232.0","3Y5140Z9DY2P932BJQ8EAXQFXV9IPO","AH7CPLVO15FM5","36U4VBVNQOZD8NFWZXWF9CIHKRIURB","","1218.5999999046326","img/land1.png","76","1219","3","1","3","2","0.8,0.2,0.2,0.2,0.8,0.2,0.2,0.2,0.8","0.8,0.2,0.2,0.2,0.8,0.2,0.2,0.2,0.8","1","",""
"","html-keyboard-response","233","198097","0.0-233.0","3Y5140Z9DY2P932BJQ8EAXQFXV9IPO","AH7CPLVO15FM5","36U4VBVNQOZD8NFWZXWF9CIHKRIURB","","null","<img src=""img/land1.png"" style=""width:200px; border:14px solid green;"">","null","","","","","","","","","",""
"","image-keyboard-response","234","198996","0.0-234.0","3Y5140Z9DY2P932BJQ8EAXQFXV9IPO","AH7CPLVO15FM5","36U4VBVNQOZD8NFWZXWF9CIHKRIURB","","898.7000000476837","img/land4.png","74","899.0999999046326","1","0","1","2","0.8,0.2,0.2,0.2,0.8,0.2,0.2,0.2,0.8","0.8,0.2,0.2,0.2,0.8,0.2,0.2,0.2,0.8","1","",""
"","html-keyboard-response","235","199298","0.0-235.0","3Y5140Z9DY2P932BJQ8EAXQFXV9IPO","AH7CPLVO15FM5","36U4VBVNQOZD8NFWZXWF9CIHKRIURB","","null","<img src=""img/land4.png"" style=""width:200px;border:14px solid red;"">","null","","","","","","","","","",""
"","image-keyboard-response","236","200492","0.0-236.0","3Y5140Z9DY2P932BJQ8EAXQFXV9IPO","AH7CPLVO15FM5","36U4VBVNQOZD8NFWZXWF9CIHKRIURB","","1194.1000001430511","img/land4.png","75","1194.5","2","0","1","2","0.8,0.2,0.2,0.2,0.8,0.2,0.2,0.2,0.8","0.8,0.2,0.2,0.2,0.8,0.2,0.2,0.2,0.8","1","",""
"","html-keyboard-response","237","200794","0.0-237.0","3Y5140Z9DY2P932BJQ8EAXQFXV9IPO","AH7CPLVO15FM5","36U4VBVNQOZD8NFWZXWF9CIHKRIURB","","null","<img src=""img/land4.png"" style=""width:200px;border:14px solid red;"">","null","","","","","","","","","",""
"","image-keyboard-response","238","201380","0.0-238.0","3Y5140Z9DY2P932BJQ8EAXQFXV9IPO","AH7CPLVO15FM5","36U4VBVNQOZD8NFWZXWF9CIHKRIURB","","586","img/land4.png","74","586.5","1","0","1","2","0.8,0.2,0.2,0.2,0.8,0.2,0.2,0.2,0.8","0.8,0.2,0.2,0.2,0.8,0.2,0.2,0.2,0.8","1","",""
"","html-keyboard-response","239","201682","0.0-239.0","3Y5140Z9DY2P932BJQ8EAXQFXV9IPO","AH7CPLVO15FM5","36U4VBVNQOZD8NFWZXWF9CIHKRIURB","","null","<img src=""img/land4.png"" style=""width:200px;border:14px solid red;"">","null","","","","","","","","","",""
"","image-keyboard-response","240","202252","0.0-240.0","3Y5140Z9DY2P932BJQ8EAXQFXV9IPO","AH7CPLVO15FM5","36U4VBVNQOZD8NFWZXWF9CIHKRIURB","","569.1000001430511","img/land4.png","74","569.3999998569489","1","0","1","2","0.8,0.2,0.2,0.2,0.8,0.2,0.2,0.2,0.8","0.8,0.2,0.2,0.2,0.8,0.2,0.2,0.2,0.8","1","",""
"","html-keyboard-response","241","202553","0.0-241.0","3Y5140Z9DY2P932BJQ8EAXQFXV9IPO","AH7CPLVO15FM5","36U4VBVNQOZD8NFWZXWF9CIHKRIURB","","null","<img src=""img/land4.png"" style=""width:200px;border:14px solid red;"">","null","","","","","","","","","",""
"","image-keyboard-response","242","204300","0.0-242.0","3Y5140Z9DY2P932BJQ8EAXQFXV9IPO","AH7CPLVO15FM5","36U4VBVNQOZD8NFWZXWF9CIHKRIURB","","1746.7999999523163","img/land6.png","75","1747.2999999523163","2","0","2","2","0.8,0.2,0.2,0.2,0.8,0.2,0.2,0.2,0.8","0.8,0.2,0.2,0.2,0.8,0.2,0.2,0.2,0.8","1","",""
"","html-keyboard-response","243","204601","0.0-243.0","3Y5140Z9DY2P932BJQ8EAXQFXV9IPO","AH7CPLVO15FM5","36U4VBVNQOZD8NFWZXWF9CIHKRIURB","","null","<img src=""img/land6.png"" style=""width:200px;border:14px solid red;"">","null","","","","","","","","","",""
"","image-keyboard-response","244","204940","0.0-244.0","3Y5140Z9DY2P932BJQ8EAXQFXV9IPO","AH7CPLVO15FM5","36U4VBVNQOZD8NFWZXWF9CIHKRIURB","","338.2999999523163","img/land4.png","74","338.7000000476837","1","1","1","2","0.8,0.2,0.2,0.2,0.8,0.2,0.2,0.2,0.8","0.8,0.2,0.2,0.2,0.8,0.2,0.2,0.2,0.8","1","",""
"","html-keyboard-response","245","205241","0.0-245.0","3Y5140Z9DY2P932BJQ8EAXQFXV9IPO","AH7CPLVO15FM5","36U4VBVNQOZD8NFWZXWF9CIHKRIURB","","null","<img src=""img/land4.png"" style=""width:200px; border:14px solid green;"">","null","","","","","","","","","",""
"","image-keyboard-response","246","206116","0.0-246.0","3Y5140Z9DY2P932BJQ8EAXQFXV9IPO","AH7CPLVO15FM5","36U4VBVNQOZD8NFWZXWF9CIHKRIURB","","874.4000000953674","img/land4.png","74","874.7999999523163","1","0","1","2","0.8,0.2,0.2,0.2,0.8,0.2,0.2,0.2,0.8","0.8,0.2,0.2,0.2,0.8,0.2,0.2,0.2,0.8","1","",""
"","html-keyboard-response","247","206417","0.0-247.0","3Y5140Z9DY2P932BJQ8EAXQFXV9IPO","AH7CPLVO15FM5","36U4VBVNQOZD8NFWZXWF9CIHKRIURB","","null","<img src=""img/land4.png"" style=""width:200px;border:14px solid red;"">","null","","","","","","","","","",""
"","image-keyboard-response","248","207396","0.0-248.0","3Y5140Z9DY2P932BJQ8EAXQFXV9IPO","AH7CPLVO15FM5","36U4VBVNQOZD8NFWZXWF9CIHKRIURB","","978.7999999523163","img/land6.png","75","979.2999999523163","2","0","2","2","0.8,0.2,0.2,0.2,0.8,0.2,0.2,0.2,0.8","0.8,0.2,0.2,0.2,0.8,0.2,0.2,0.2,0.8","1","",""
"","html-keyboard-response","249","207697","0.0-249.0","3Y5140Z9DY2P932BJQ8EAXQFXV9IPO","AH7CPLVO15FM5","36U4VBVNQOZD8NFWZXWF9CIHKRIURB","","null","<img src=""img/land6.png"" style=""width:200px;border:14px solid red;"">","null","","","","","","","","","",""
"","image-keyboard-response","250","208164","0.0-250.0","3Y5140Z9DY2P932BJQ8EAXQFXV9IPO","AH7CPLVO15FM5","36U4VBVNQOZD8NFWZXWF9CIHKRIURB","","466.2000000476837","img/land4.png","76","466.7000000476837","3","0","1","2","0.8,0.2,0.2,0.2,0.8,0.2,0.2,0.2,0.8","0.8,0.2,0.2,0.2,0.8,0.2,0.2,0.2,0.8","1","",""
"","html-keyboard-response","251","208465","0.0-251.0","3Y5140Z9DY2P932BJQ8EAXQFXV9IPO","AH7CPLVO15FM5","36U4VBVNQOZD8NFWZXWF9CIHKRIURB","","null","<img src=""img/land4.png"" style=""width:200px;border:14px solid red;"">","null","","","","","","","","","",""
"","image-keyboard-response","252","209300","0.0-252.0","3Y5140Z9DY2P932BJQ8EAXQFXV9IPO","AH7CPLVO15FM5","36U4VBVNQOZD8NFWZXWF9CIHKRIURB","","834.5","img/land4.png","75","834.8999998569489","2","0","1","2","0.8,0.2,0.2,0.2,0.8,0.2,0.2,0.2,0.8","0.8,0.2,0.2,0.2,0.8,0.2,0.2,0.2,0.8","1","",""
"","html-keyboard-response","253","209601","0.0-253.0","3Y5140Z9DY2P932BJQ8EAXQFXV9IPO","AH7CPLVO15FM5","36U4VBVNQOZD8NFWZXWF9CIHKRIURB","","null","<img src=""img/land4.png"" style=""width:200px;border:14px solid red;"">","null","","","","","","","","","",""
"","image-keyboard-response","254","210796","0.0-254.0","3Y5140Z9DY2P932BJQ8EAXQFXV9IPO","AH7CPLVO15FM5","36U4VBVNQOZD8NFWZXWF9CIHKRIURB","","1194.2999999523163","img/land4.png","74","1194.8999998569489","1","1","1","2","0.8,0.2,0.2,0.2,0.8,0.2,0.2,0.2,0.8","0.8,0.2,0.2,0.2,0.8,0.2,0.2,0.2,0.8","1","",""
"","html-keyboard-response","255","211099","0.0-255.0","3Y5140Z9DY2P932BJQ8EAXQFXV9IPO","AH7CPLVO15FM5","36U4VBVNQOZD8NFWZXWF9CIHKRIURB","","null","<img src=""img/land4.png"" style=""width:200px; border:14px solid green;"">","null","","","","","","","","","",""
"","image-keyboard-response","256","211628","0.0-256.0","3Y5140Z9DY2P932BJQ8EAXQFXV9IPO","AH7CPLVO15FM5","36U4VBVNQOZD8NFWZXWF9CIHKRIURB","","529","img/land4.png","74","529.5","1","1","1","2","0.8,0.2,0.2,0.2,0.8,0.2,0.2,0.2,0.8","0.8,0.2,0.2,0.2,0.8,0.2,0.2,0.2,0.8","1","",""
"","html-keyboard-response","257","211929","0.0-257.0","3Y5140Z9DY2P932BJQ8EAXQFXV9IPO","AH7CPLVO15FM5","36U4VBVNQOZD8NFWZXWF9CIHKRIURB","","null","<img src=""img/land4.png"" style=""width:200px; border:14px solid green;"">","null","","","","","","","","","",""
"","image-keyboard-response","258","212548","0.0-258.0","3Y5140Z9DY2P932BJQ8EAXQFXV9IPO","AH7CPLVO15FM5","36U4VBVNQOZD8NFWZXWF9CIHKRIURB","","618.1000001430511","img/land4.png","74","618.6999998092651","1","1","1","2","0.8,0.2,0.2,0.2,0.8,0.2,0.2,0.2,0.8","0.8,0.2,0.2,0.2,0.8,0.2,0.2,0.2,0.8","1","",""
"","html-keyboard-response","259","212850","0.0-259.0","3Y5140Z9DY2P932BJQ8EAXQFXV9IPO","AH7CPLVO15FM5","36U4VBVNQOZD8NFWZXWF9CIHKRIURB","","null","<img src=""img/land4.png"" style=""width:200px; border:14px solid green;"">","null","","","","","","","","","",""
"","image-keyboard-response","260","214044","0.0-260.0","3Y5140Z9DY2P932BJQ8EAXQFXV9IPO","AH7CPLVO15FM5","36U4VBVNQOZD8NFWZXWF9CIHKRIURB","","1193.5999999046326","img/land1.png","75","1194","2","0","3","2","0.8,0.2,0.2,0.2,0.8,0.2,0.2,0.2,0.8","0.8,0.2,0.2,0.2,0.8,0.2,0.2,0.2,0.8","1","",""
"","html-keyboard-response","261","214346","0.0-261.0","3Y5140Z9DY2P932BJQ8EAXQFXV9IPO","AH7CPLVO15FM5","36U4VBVNQOZD8NFWZXWF9CIHKRIURB","","null","<img src=""img/land1.png"" style=""width:200px;border:14px solid red;"">","null","","","","","","","","","",""
"","image-keyboard-response","262","215324","0.0-262.0","3Y5140Z9DY2P932BJQ8EAXQFXV9IPO","AH7CPLVO15FM5","36U4VBVNQOZD8NFWZXWF9CIHKRIURB","","978","img/land1.png","76","978.5","3","1","3","2","0.8,0.2,0.2,0.2,0.8,0.2,0.2,0.2,0.8","0.8,0.2,0.2,0.2,0.8,0.2,0.2,0.2,0.8","1","",""
"","html-keyboard-response","263","215626","0.0-263.0","3Y5140Z9DY2P932BJQ8EAXQFXV9IPO","AH7CPLVO15FM5","36U4VBVNQOZD8NFWZXWF9CIHKRIURB","","null","<img src=""img/land1.png"" style=""width:200px; border:14px solid green;"">","null","","","","","","","","","",""
"","image-keyboard-response","264","216644","0.0-264.0","3Y5140Z9DY2P932BJQ8EAXQFXV9IPO","AH7CPLVO15FM5","36U4VBVNQOZD8NFWZXWF9CIHKRIURB","","1018","img/land1.png","76","1018.5","3","1","3","2","0.8,0.2,0.2,0.2,0.8,0.2,0.2,0.2,0.8","0.8,0.2,0.2,0.2,0.8,0.2,0.2,0.2,0.8","1","",""
"","html-keyboard-response","265","216946","0.0-265.0","3Y5140Z9DY2P932BJQ8EAXQFXV9IPO","AH7CPLVO15FM5","36U4VBVNQOZD8NFWZXWF9CIHKRIURB","","null","<img src=""img/land1.png"" style=""width:200px; border:14px solid green;"">","null","","","","","","","","","",""
"","image-keyboard-response","266","217948","0.0-266.0","3Y5140Z9DY2P932BJQ8EAXQFXV9IPO","AH7CPLVO15FM5","36U4VBVNQOZD8NFWZXWF9CIHKRIURB","","1001.7999999523163","img/land4.png","74","1002.2000000476837","1","1","1","2","0.8,0.2,0.2,0.2,0.8,0.2,0.2,0.2,0.8","0.8,0.2,0.2,0.2,0.8,0.2,0.2,0.2,0.8","1","",""
"","html-keyboard-response","267","218250","0.0-267.0","3Y5140Z9DY2P932BJQ8EAXQFXV9IPO","AH7CPLVO15FM5","36U4VBVNQOZD8NFWZXWF9CIHKRIURB","","null","<img src=""img/land4.png"" style=""width:200px; border:14px solid green;"">","null","","","","","","","","","",""
"","image-keyboard-response","268","219100","0.0-268.0","3Y5140Z9DY2P932BJQ8EAXQFXV9IPO","AH7CPLVO15FM5","36U4VBVNQOZD8NFWZXWF9CIHKRIURB","","849.9000000953674","img/land1.png","76","850.3999998569489","3","1","3","2","0.8,0.2,0.2,0.2,0.8,0.2,0.2,0.2,0.8","0.8,0.2,0.2,0.2,0.8,0.2,0.2,0.2,0.8","1","",""
"","html-keyboard-response","269","219401","0.0-269.0","3Y5140Z9DY2P932BJQ8EAXQFXV9IPO","AH7CPLVO15FM5","36U4VBVNQOZD8NFWZXWF9CIHKRIURB","","null","<img src=""img/land1.png"" style=""width:200px; border:14px solid green;"">","null","","","","","","","","","",""
"","image-keyboard-response","270","220292","0.0-270.0","3Y5140Z9DY2P932BJQ8EAXQFXV9IPO","AH7CPLVO15FM5","36U4VBVNQOZD8NFWZXWF9CIHKRIURB","","890.3000001907349","img/land6.png","75","890.7999999523163","2","1","2","2","0.8,0.2,0.2,0.2,0.8,0.2,0.2,0.2,0.8","0.8,0.2,0.2,0.2,0.8,0.2,0.2,0.2,0.8","1","",""
"","html-keyboard-response","271","220593","0.0-271.0","3Y5140Z9DY2P932BJQ8EAXQFXV9IPO","AH7CPLVO15FM5","36U4VBVNQOZD8NFWZXWF9CIHKRIURB","","null","<img src=""img/land6.png"" style=""width:200px; border:14px solid green;"">","null","","","","","","","","","",""
"","image-keyboard-response","272","221556","0.0-272.0","3Y5140Z9DY2P932BJQ8EAXQFXV9IPO","AH7CPLVO15FM5","36U4VBVNQOZD8NFWZXWF9CIHKRIURB","","962.5","img/land4.png","74","963.1000001430511","1","1","1","2","0.8,0.2,0.2,0.2,0.8,0.2,0.2,0.2,0.8","0.8,0.2,0.2,0.2,0.8,0.2,0.2,0.2,0.8","1","",""
"","html-keyboard-response","273","221858","0.0-273.0","3Y5140Z9DY2P932BJQ8EAXQFXV9IPO","AH7CPLVO15FM5","36U4VBVNQOZD8NFWZXWF9CIHKRIURB","","null","<img src=""img/land4.png"" style=""width:200px; border:14px solid green;"">","null","","","","","","","","","",""
"","image-keyboard-response","274","222684","0.0-274.0","3Y5140Z9DY2P932BJQ8EAXQFXV9IPO","AH7CPLVO15FM5","36U4VBVNQOZD8NFWZXWF9CIHKRIURB","","825.7000000476837","img/land6.png","75","826.0999999046326","2","0","2","2","0.8,0.2,0.2,0.2,0.8,0.2,0.2,0.2,0.8","0.8,0.2,0.2,0.2,0.8,0.2,0.2,0.2,0.8","1","",""
"","html-keyboard-response","275","222985","0.0-275.0","3Y5140Z9DY2P932BJQ8EAXQFXV9IPO","AH7CPLVO15FM5","36U4VBVNQOZD8NFWZXWF9CIHKRIURB","","null","<img src=""img/land6.png"" style=""width:200px;border:14px solid red;"">","null","","","","","","","","","",""
"","image-keyboard-response","276","224580","0.0-276.0","3Y5140Z9DY2P932BJQ8EAXQFXV9IPO","AH7CPLVO15FM5","36U4VBVNQOZD8NFWZXWF9CIHKRIURB","","1594.4000000953674","img/land1.png","76","1594.7999999523163","3","1","3","2","0.8,0.2,0.2,0.2,0.8,0.2,0.2,0.2,0.8","0.8,0.2,0.2,0.2,0.8,0.2,0.2,0.2,0.8","1","",""
"","html-keyboard-response","277","224881","0.0-277.0","3Y5140Z9DY2P932BJQ8EAXQFXV9IPO","AH7CPLVO15FM5","36U4VBVNQOZD8NFWZXWF9CIHKRIURB","","null","<img src=""img/land1.png"" style=""width:200px; border:14px solid green;"">","null","","","","","","","","","",""
"","image-keyboard-response","278","226196","0.0-278.0","3Y5140Z9DY2P932BJQ8EAXQFXV9IPO","AH7CPLVO15FM5","36U4VBVNQOZD8NFWZXWF9CIHKRIURB","","1314.5","img/land6.png","76","1314.8999998569489","3","0","2","2","0.8,0.2,0.2,0.2,0.8,0.2,0.2,0.2,0.8","0.8,0.2,0.2,0.2,0.8,0.2,0.2,0.2,0.8","1","",""
"","html-keyboard-response","279","226498","0.0-279.0","3Y5140Z9DY2P932BJQ8EAXQFXV9IPO","AH7CPLVO15FM5","36U4VBVNQOZD8NFWZXWF9CIHKRIURB","","null","<img src=""img/land6.png"" style=""width:200px;border:14px solid red;"">","null","","","","","","","","","",""
"","image-keyboard-response","280","227868","0.0-280.0","3Y5140Z9DY2P932BJQ8EAXQFXV9IPO","AH7CPLVO15FM5","36U4VBVNQOZD8NFWZXWF9CIHKRIURB","","1369","img/land1.png","76","1369.4000000953674","3","1","3","2","0.8,0.2,0.2,0.2,0.8,0.2,0.2,0.2,0.8","0.8,0.2,0.2,0.2,0.8,0.2,0.2,0.2,0.8","1","",""
"","html-keyboard-response","281","228169","0.0-281.0","3Y5140Z9DY2P932BJQ8EAXQFXV9IPO","AH7CPLVO15FM5","36U4VBVNQOZD8NFWZXWF9CIHKRIURB","","null","<img src=""img/land1.png"" style=""width:200px; border:14px solid green;"">","null","","","","","","","","","",""
"","image-keyboard-response","282","230060","0.0-282.0","3Y5140Z9DY2P932BJQ8EAXQFXV9IPO","AH7CPLVO15FM5","36U4VBVNQOZD8NFWZXWF9CIHKRIURB","","1889.6999998092651","img/land1.png","76","1890.1000001430511","3","0","3","2","0.8,0.2,0.2,0.2,0.8,0.2,0.2,0.2,0.8","0.8,0.2,0.2,0.2,0.8,0.2,0.2,0.2,0.8","1","",""
"","html-keyboard-response","283","230361","0.0-283.0","3Y5140Z9DY2P932BJQ8EAXQFXV9IPO","AH7CPLVO15FM5","36U4VBVNQOZD8NFWZXWF9CIHKRIURB","","null","<img src=""img/land1.png"" style=""width:200px;border:14px solid red;"">","null","","","","","","","","","",""
"","image-keyboard-response","284","231700","0.0-284.0","3Y5140Z9DY2P932BJQ8EAXQFXV9IPO","AH7CPLVO15FM5","36U4VBVNQOZD8NFWZXWF9CIHKRIURB","","1338.4000000953674","img/land1.png","76","1338.8999998569489","3","1","3","2","0.8,0.2,0.2,0.2,0.8,0.2,0.2,0.2,0.8","0.8,0.2,0.2,0.2,0.8,0.2,0.2,0.2,0.8","1","",""
"","html-keyboard-response","285","232001","0.0-285.0","3Y5140Z9DY2P932BJQ8EAXQFXV9IPO","AH7CPLVO15FM5","36U4VBVNQOZD8NFWZXWF9CIHKRIURB","","null","<img src=""img/land1.png"" style=""width:200px; border:14px solid green;"">","null","","","","","","","","","",""
"","image-keyboard-response","286","233220","0.0-286.0","3Y5140Z9DY2P932BJQ8EAXQFXV9IPO","AH7CPLVO15FM5","36U4VBVNQOZD8NFWZXWF9CIHKRIURB","","1218.7000000476837","img/land1.png","76","1219.0999999046326","3","0","3","2","0.8,0.2,0.2,0.2,0.8,0.2,0.2,0.2,0.8","0.8,0.2,0.2,0.2,0.8,0.2,0.2,0.2,0.8","1","",""
"","html-keyboard-response","287","233521","0.0-287.0","3Y5140Z9DY2P932BJQ8EAXQFXV9IPO","AH7CPLVO15FM5","36U4VBVNQOZD8NFWZXWF9CIHKRIURB","","null","<img src=""img/land1.png"" style=""width:200px;border:14px solid red;"">","null","","","","","","","","","",""
"","image-keyboard-response","288","234540","0.0-288.0","3Y5140Z9DY2P932BJQ8EAXQFXV9IPO","AH7CPLVO15FM5","36U4VBVNQOZD8NFWZXWF9CIHKRIURB","","1018.5","img/land4.png","74","1019.1000001430511","1","1","1","2","0.8,0.2,0.2,0.2,0.8,0.2,0.2,0.2,0.8","0.8,0.2,0.2,0.2,0.8,0.2,0.2,0.2,0.8","1","",""
"","html-keyboard-response","289","234842","0.0-289.0","3Y5140Z9DY2P932BJQ8EAXQFXV9IPO","AH7CPLVO15FM5","36U4VBVNQOZD8NFWZXWF9CIHKRIURB","","null","<img src=""img/land4.png"" style=""width:200px; border:14px solid green;"">","null","","","","","","","","","",""
"","image-keyboard-response","290","235492","0.0-290.0","3Y5140Z9DY2P932BJQ8EAXQFXV9IPO","AH7CPLVO15FM5","36U4VBVNQOZD8NFWZXWF9CIHKRIURB","","649.5999999046326","img/land4.png","74","650.1000001430511","1","1","1","2","0.8,0.2,0.2,0.2,0.8,0.2,0.2,0.2,0.8","0.8,0.2,0.2,0.2,0.8,0.2,0.2,0.2,0.8","1","",""
"","html-keyboard-response","291","235794","0.0-291.0","3Y5140Z9DY2P932BJQ8EAXQFXV9IPO","AH7CPLVO15FM5","36U4VBVNQOZD8NFWZXWF9CIHKRIURB","","null","<img src=""img/land4.png"" style=""width:200px; border:14px solid green;"">","null","","","","","","","","","",""
"","image-keyboard-response","292","236460","0.0-292.0","3Y5140Z9DY2P932BJQ8EAXQFXV9IPO","AH7CPLVO15FM5","36U4VBVNQOZD8NFWZXWF9CIHKRIURB","","666.0999999046326","img/land4.png","74","666.6000001430511","1","1","1","2","0.8,0.2,0.2,0.2,0.8,0.2,0.2,0.2,0.8","0.8,0.2,0.2,0.2,0.8,0.2,0.2,0.2,0.8","1","",""
"","html-keyboard-response","293","236761","0.0-293.0","3Y5140Z9DY2P932BJQ8EAXQFXV9IPO","AH7CPLVO15FM5","36U4VBVNQOZD8NFWZXWF9CIHKRIURB","","null","<img src=""img/land4.png"" style=""width:200px; border:14px solid green;"">","null","","","","","","","","","",""
"","image-keyboard-response","294","237812","0.0-294.0","3Y5140Z9DY2P932BJQ8EAXQFXV9IPO","AH7CPLVO15FM5","36U4VBVNQOZD8NFWZXWF9CIHKRIURB","","1050.2999999523163","img/land1.png","76","1050.7000000476837","3","1","3","2","0.8,0.2,0.2,0.2,0.8,0.2,0.2,0.2,0.8","0.8,0.2,0.2,0.2,0.8,0.2,0.2,0.2,0.8","1","",""
"","html-keyboard-response","295","238114","0.0-295.0","3Y5140Z9DY2P932BJQ8EAXQFXV9IPO","AH7CPLVO15FM5","36U4VBVNQOZD8NFWZXWF9CIHKRIURB","","null","<img src=""img/land1.png"" style=""width:200px; border:14px solid green;"">","null","","","","","","","","","",""
"","image-keyboard-response","296","238948","0.0-296.0","3Y5140Z9DY2P932BJQ8EAXQFXV9IPO","AH7CPLVO15FM5","36U4VBVNQOZD8NFWZXWF9CIHKRIURB","","833.6000001430511","img/land4.png","74","834.1000001430511","1","1","1","2","0.8,0.2,0.2,0.2,0.8,0.2,0.2,0.2,0.8","0.8,0.2,0.2,0.2,0.8,0.2,0.2,0.2,0.8","1","",""
"","html-keyboard-response","297","239249","0.0-297.0","3Y5140Z9DY2P932BJQ8EAXQFXV9IPO","AH7CPLVO15FM5","36U4VBVNQOZD8NFWZXWF9CIHKRIURB","","null","<img src=""img/land4.png"" style=""width:200px; border:14px solid green;"">","null","","","","","","","","","",""
"","image-keyboard-response","298","240196","0.0-298.0","3Y5140Z9DY2P932BJQ8EAXQFXV9IPO","AH7CPLVO15FM5","36U4VBVNQOZD8NFWZXWF9CIHKRIURB","","946.4000000953674","img/land1.png","76","946.7999999523163","3","1","3","2","0.8,0.2,0.2,0.2,0.8,0.2,0.2,0.2,0.8","0.8,0.2,0.2,0.2,0.8,0.2,0.2,0.2,0.8","1","",""
"","html-keyboard-response","299","240499","0.0-299.0","3Y5140Z9DY2P932BJQ8EAXQFXV9IPO","AH7CPLVO15FM5","36U4VBVNQOZD8NFWZXWF9CIHKRIURB","","null","<img src=""img/land1.png"" style=""width:200px; border:14px solid green;"">","null","","","","","","","","","",""
"","image-keyboard-response","300","241148","0.0-300.0","3Y5140Z9DY2P932BJQ8EAXQFXV9IPO","AH7CPLVO15FM5","36U4VBVNQOZD8NFWZXWF9CIHKRIURB","","649.0999999046326","img/land4.png","74","649.5999999046326","1","1","1","2","0.8,0.2,0.2,0.2,0.8,0.2,0.2,0.2,0.8","0.8,0.2,0.2,0.2,0.8,0.2,0.2,0.2,0.8","1","",""
"","html-keyboard-response","301","241449","0.0-301.0","3Y5140Z9DY2P932BJQ8EAXQFXV9IPO","AH7CPLVO15FM5","36U4VBVNQOZD8NFWZXWF9CIHKRIURB","","null","<img src=""img/land4.png"" style=""width:200px; border:14px solid green;"">","null","","","","","","","","","",""
"","image-keyboard-response","302","243451","0.0-302.0","3Y5140Z9DY2P932BJQ8EAXQFXV9IPO","AH7CPLVO15FM5","36U4VBVNQOZD8NFWZXWF9CIHKRIURB","","","img/land5.png","","2001.1999998092651","-1","0","2","1","0.8,0.2,0.2,0.2,0.8,0.2,0.2,0.2,0.8","0.8,0.2,0.2,0.2,0.8,0.2,0.2,0.2,0.8","1","",""
"","html-keyboard-response","303","243752","0.0-303.0","3Y5140Z9DY2P932BJQ8EAXQFXV9IPO","AH7CPLVO15FM5","36U4VBVNQOZD8NFWZXWF9CIHKRIURB","","null","<img src=""img/land5.png"" style=""width:200px;border:14px solid red;"">","null","","","","","","","","","",""
"","image-keyboard-response","304","244588","0.0-304.0","3Y5140Z9DY2P932BJQ8EAXQFXV9IPO","AH7CPLVO15FM5","36U4VBVNQOZD8NFWZXWF9CIHKRIURB","","836.0999999046326","img/land5.png","74","836.5","1","0","2","1","0.8,0.2,0.2,0.2,0.8,0.2,0.2,0.2,0.8","0.8,0.2,0.2,0.2,0.8,0.2,0.2,0.2,0.8","1","",""
"","html-keyboard-response","305","244889","0.0-305.0","3Y5140Z9DY2P932BJQ8EAXQFXV9IPO","AH7CPLVO15FM5","36U4VBVNQOZD8NFWZXWF9CIHKRIURB","","null","<img src=""img/land5.png"" style=""width:200px;border:14px solid red;"">","null","","","","","","","","","",""
"","image-keyboard-response","306","246890","0.0-306.0","3Y5140Z9DY2P932BJQ8EAXQFXV9IPO","AH7CPLVO15FM5","36U4VBVNQOZD8NFWZXWF9CIHKRIURB","","","img/land2.png","","2000.7000000476837","-1","0","3","1","0.8,0.2,0.2,0.2,0.8,0.2,0.2,0.2,0.8","0.8,0.2,0.2,0.2,0.8,0.2,0.2,0.2,0.8","1","",""
"","html-keyboard-response","307","247191","0.0-307.0","3Y5140Z9DY2P932BJQ8EAXQFXV9IPO","AH7CPLVO15FM5","36U4VBVNQOZD8NFWZXWF9CIHKRIURB","","null","<img src=""img/land2.png"" style=""width:200px;border:14px solid red;"">","null","","","","","","","","","",""
"","image-keyboard-response","308","247212","0.0-308.0","3Y5140Z9DY2P932BJQ8EAXQFXV9IPO","AH7CPLVO15FM5","36U4VBVNQOZD8NFWZXWF9CIHKRIURB","","20.299999952316284","img/land2.png","74","20.700000047683716","1","0","3","1","0.8,0.2,0.2,0.2,0.8,0.2,0.2,0.2,0.8","0.8,0.2,0.2,0.2,0.8,0.2,0.2,0.2,0.8","1","",""
"","html-keyboard-response","309","247514","0.0-309.0","3Y5140Z9DY2P932BJQ8EAXQFXV9IPO","AH7CPLVO15FM5","36U4VBVNQOZD8NFWZXWF9CIHKRIURB","","null","<img src=""img/land2.png"" style=""width:200px;border:14px solid red;"">","null","","","","","","","","","",""
"","image-keyboard-response","310","248388","0.0-310.0","3Y5140Z9DY2P932BJQ8EAXQFXV9IPO","AH7CPLVO15FM5","36U4VBVNQOZD8NFWZXWF9CIHKRIURB","","873.5999999046326","img/land5.png","75","874.1000001430511","2","1","2","1","0.8,0.2,0.2,0.2,0.8,0.2,0.2,0.2,0.8","0.8,0.2,0.2,0.2,0.8,0.2,0.2,0.2,0.8","1","",""
"","html-keyboard-response","311","248689","0.0-311.0","3Y5140Z9DY2P932BJQ8EAXQFXV9IPO","AH7CPLVO15FM5","36U4VBVNQOZD8NFWZXWF9CIHKRIURB","","null","<img src=""img/land5.png"" style=""width:200px; border:14px solid green;"">","null","","","","","","","","","",""
"","image-keyboard-response","312","249540","0.0-312.0","3Y5140Z9DY2P932BJQ8EAXQFXV9IPO","AH7CPLVO15FM5","36U4VBVNQOZD8NFWZXWF9CIHKRIURB","","850.1000001430511","img/land5.png","75","850.5","2","1","2","1","0.8,0.2,0.2,0.2,0.8,0.2,0.2,0.2,0.8","0.8,0.2,0.2,0.2,0.8,0.2,0.2,0.2,0.8","1","",""
"","html-keyboard-response","313","249842","0.0-313.0","3Y5140Z9DY2P932BJQ8EAXQFXV9IPO","AH7CPLVO15FM5","36U4VBVNQOZD8NFWZXWF9CIHKRIURB","","null","<img src=""img/land5.png"" style=""width:200px; border:14px solid green;"">","null","","","","","","","","","",""
"","image-keyboard-response","314","250756","0.0-314.0","3Y5140Z9DY2P932BJQ8EAXQFXV9IPO","AH7CPLVO15FM5","36U4VBVNQOZD8NFWZXWF9CIHKRIURB","","913.5","img/land3.png","76","913.9000000953674","3","0","1","1","0.8,0.2,0.2,0.2,0.8,0.2,0.2,0.2,0.8","0.8,0.2,0.2,0.2,0.8,0.2,0.2,0.2,0.8","1","",""
"","html-keyboard-response","315","251058","0.0-315.0","3Y5140Z9DY2P932BJQ8EAXQFXV9IPO","AH7CPLVO15FM5","36U4VBVNQOZD8NFWZXWF9CIHKRIURB","","null","<img src=""img/land3.png"" style=""width:200px;border:14px solid red;"">","null","","","","","","","","","",""
"","image-keyboard-response","316","252332","0.0-316.0","3Y5140Z9DY2P932BJQ8EAXQFXV9IPO","AH7CPLVO15FM5","36U4VBVNQOZD8NFWZXWF9CIHKRIURB","","1274.0999999046326","img/land2.png","76","1274.6000001430511","3","1","3","1","0.8,0.2,0.2,0.2,0.8,0.2,0.2,0.2,0.8","0.8,0.2,0.2,0.2,0.8,0.2,0.2,0.2,0.8","1","",""
"","html-keyboard-response","317","252633","0.0-317.0","3Y5140Z9DY2P932BJQ8EAXQFXV9IPO","AH7CPLVO15FM5","36U4VBVNQOZD8NFWZXWF9CIHKRIURB","","null","<img src=""img/land2.png"" style=""width:200px; border:14px solid green;"">","null","","","","","","","","","",""
"","image-keyboard-response","318","253700","0.0-318.0","3Y5140Z9DY2P932BJQ8EAXQFXV9IPO","AH7CPLVO15FM5","36U4VBVNQOZD8NFWZXWF9CIHKRIURB","","1066.7999999523163","img/land2.png","76","1067.0999999046326","3","1","3","1","0.8,0.2,0.2,0.2,0.8,0.2,0.2,0.2,0.8","0.8,0.2,0.2,0.2,0.8,0.2,0.2,0.2,0.8","1","",""
"","html-keyboard-response","319","254002","0.0-319.0","3Y5140Z9DY2P932BJQ8EAXQFXV9IPO","AH7CPLVO15FM5","36U4VBVNQOZD8NFWZXWF9CIHKRIURB","","null","<img src=""img/land2.png"" style=""width:200px; border:14px solid green;"">","null","","","","","","","","","",""
"","image-keyboard-response","320","254844","0.0-320.0","3Y5140Z9DY2P932BJQ8EAXQFXV9IPO","AH7CPLVO15FM5","36U4VBVNQOZD8NFWZXWF9CIHKRIURB","","841.5","img/land3.png","74","841.8000001907349","1","1","1","1","0.8,0.2,0.2,0.2,0.8,0.2,0.2,0.2,0.8","0.8,0.2,0.2,0.2,0.8,0.2,0.2,0.2,0.8","1","",""
"","html-keyboard-response","321","255146","0.0-321.0","3Y5140Z9DY2P932BJQ8EAXQFXV9IPO","AH7CPLVO15FM5","36U4VBVNQOZD8NFWZXWF9CIHKRIURB","","null","<img src=""img/land3.png"" style=""width:200px; border:14px solid green;"">","null","","","","","","","","","",""
"","image-keyboard-response","322","256100","0.0-322.0","3Y5140Z9DY2P932BJQ8EAXQFXV9IPO","AH7CPLVO15FM5","36U4VBVNQOZD8NFWZXWF9CIHKRIURB","","953.5999999046326","img/land5.png","75","954.1000001430511","2","1","2","1","0.8,0.2,0.2,0.2,0.8,0.2,0.2,0.2,0.8","0.8,0.2,0.2,0.2,0.8,0.2,0.2,0.2,0.8","1","",""
"","html-keyboard-response","323","256402","0.0-323.0","3Y5140Z9DY2P932BJQ8EAXQFXV9IPO","AH7CPLVO15FM5","36U4VBVNQOZD8NFWZXWF9CIHKRIURB","","null","<img src=""img/land5.png"" style=""width:200px; border:14px solid green;"">","null","","","","","","","","","",""
"","image-keyboard-response","324","257436","0.0-324.0","3Y5140Z9DY2P932BJQ8EAXQFXV9IPO","AH7CPLVO15FM5","36U4VBVNQOZD8NFWZXWF9CIHKRIURB","","1033.7999999523163","img/land2.png","76","1034.2999999523163","3","1","3","1","0.8,0.2,0.2,0.2,0.8,0.2,0.2,0.2,0.8","0.8,0.2,0.2,0.2,0.8,0.2,0.2,0.2,0.8","1","",""
"","html-keyboard-response","325","257739","0.0-325.0","3Y5140Z9DY2P932BJQ8EAXQFXV9IPO","AH7CPLVO15FM5","36U4VBVNQOZD8NFWZXWF9CIHKRIURB","","null","<img src=""img/land2.png"" style=""width:200px; border:14px solid green;"">","null","","","","","","","","","",""
"","image-keyboard-response","326","258580","0.0-326.0","3Y5140Z9DY2P932BJQ8EAXQFXV9IPO","AH7CPLVO15FM5","36U4VBVNQOZD8NFWZXWF9CIHKRIURB","","840.7999999523163","img/land3.png","74","841.3000001907349","1","1","1","1","0.8,0.2,0.2,0.2,0.8,0.2,0.2,0.2,0.8","0.8,0.2,0.2,0.2,0.8,0.2,0.2,0.2,0.8","1","",""
"","html-keyboard-response","327","258881","0.0-327.0","3Y5140Z9DY2P932BJQ8EAXQFXV9IPO","AH7CPLVO15FM5","36U4VBVNQOZD8NFWZXWF9CIHKRIURB","","null","<img src=""img/land3.png"" style=""width:200px; border:14px solid green;"">","null","","","","","","","","","",""
"","image-keyboard-response","328","259628","0.0-328.0","3Y5140Z9DY2P932BJQ8EAXQFXV9IPO","AH7CPLVO15FM5","36U4VBVNQOZD8NFWZXWF9CIHKRIURB","","746.7000000476837","img/land3.png","74","747.2000000476837","1","1","1","1","0.8,0.2,0.2,0.2,0.8,0.2,0.2,0.2,0.8","0.8,0.2,0.2,0.2,0.8,0.2,0.2,0.2,0.8","1","",""
"","html-keyboard-response","329","259930","0.0-329.0","3Y5140Z9DY2P932BJQ8EAXQFXV9IPO","AH7CPLVO15FM5","36U4VBVNQOZD8NFWZXWF9CIHKRIURB","","null","<img src=""img/land3.png"" style=""width:200px; border:14px solid green;"">","null","","","","","","","","","",""
"","image-keyboard-response","330","260612","0.0-330.0","3Y5140Z9DY2P932BJQ8EAXQFXV9IPO","AH7CPLVO15FM5","36U4VBVNQOZD8NFWZXWF9CIHKRIURB","","682","img/land3.png","74","682.5","1","1","1","1","0.8,0.2,0.2,0.2,0.8,0.2,0.2,0.2,0.8","0.8,0.2,0.2,0.2,0.8,0.2,0.2,0.2,0.8","1","",""
"","html-keyboard-response","331","260914","0.0-331.0","3Y5140Z9DY2P932BJQ8EAXQFXV9IPO","AH7CPLVO15FM5","36U4VBVNQOZD8NFWZXWF9CIHKRIURB","","null","<img src=""img/land3.png"" style=""width:200px; border:14px solid green;"">","null","","","","","","","","","",""
"","image-keyboard-response","332","261900","0.0-332.0","3Y5140Z9DY2P932BJQ8EAXQFXV9IPO","AH7CPLVO15FM5","36U4VBVNQOZD8NFWZXWF9CIHKRIURB","","985.6000001430511","img/land2.png","76","986.0999999046326","3","1","3","1","0.8,0.2,0.2,0.2,0.8,0.2,0.2,0.2,0.8","0.8,0.2,0.2,0.2,0.8,0.2,0.2,0.2,0.8","1","",""
"","html-keyboard-response","333","262202","0.0-333.0","3Y5140Z9DY2P932BJQ8EAXQFXV9IPO","AH7CPLVO15FM5","36U4VBVNQOZD8NFWZXWF9CIHKRIURB","","null","<img src=""img/land2.png"" style=""width:200px; border:14px solid green;"">","null","","","","","","","","","",""
"","image-keyboard-response","334","262940","0.0-334.0","3Y5140Z9DY2P932BJQ8EAXQFXV9IPO","AH7CPLVO15FM5","36U4VBVNQOZD8NFWZXWF9CIHKRIURB","","738.1000001430511","img/land3.png","74","738.5999999046326","1","0","1","1","0.8,0.2,0.2,0.2,0.8,0.2,0.2,0.2,0.8","0.8,0.2,0.2,0.2,0.8,0.2,0.2,0.2,0.8","1","",""
"","html-keyboard-response","335","263254","0.0-335.0","3Y5140Z9DY2P932BJQ8EAXQFXV9IPO","AH7CPLVO15FM5","36U4VBVNQOZD8NFWZXWF9CIHKRIURB","","null","<img src=""img/land3.png"" style=""width:200px;border:14px solid red;"">","null","","","","","","","","","",""
"","image-keyboard-response","336","264404","0.0-336.0","3Y5140Z9DY2P932BJQ8EAXQFXV9IPO","AH7CPLVO15FM5","36U4VBVNQOZD8NFWZXWF9CIHKRIURB","","1150.2999999523163","img/land2.png","76","1150.8999998569489","3","1","3","1","0.8,0.2,0.2,0.2,0.8,0.2,0.2,0.2,0.8","0.8,0.2,0.2,0.2,0.8,0.2,0.2,0.2,0.8","1","",""
"","html-keyboard-response","337","264705","0.0-337.0","3Y5140Z9DY2P932BJQ8EAXQFXV9IPO","AH7CPLVO15FM5","36U4VBVNQOZD8NFWZXWF9CIHKRIURB","","null","<img src=""img/land2.png"" style=""width:200px; border:14px solid green;"">","null","","","","","","","","","",""
"","image-keyboard-response","338","265468","0.0-338.0","3Y5140Z9DY2P932BJQ8EAXQFXV9IPO","AH7CPLVO15FM5","36U4VBVNQOZD8NFWZXWF9CIHKRIURB","","762.2000000476837","img/land3.png","75","762.5999999046326","2","0","1","1","0.8,0.2,0.2,0.2,0.8,0.2,0.2,0.2,0.8","0.8,0.2,0.2,0.2,0.8,0.2,0.2,0.2,0.8","1","",""
"","html-keyboard-response","339","265769","0.0-339.0","3Y5140Z9DY2P932BJQ8EAXQFXV9IPO","AH7CPLVO15FM5","36U4VBVNQOZD8NFWZXWF9CIHKRIURB","","null","<img src=""img/land3.png"" style=""width:200px;border:14px solid red;"">","null","","","","","","","","","",""
"","image-keyboard-response","340","266668","0.0-340.0","3Y5140Z9DY2P932BJQ8EAXQFXV9IPO","AH7CPLVO15FM5","36U4VBVNQOZD8NFWZXWF9CIHKRIURB","","898.2000000476837","img/land2.png","76","898.5999999046326","3","1","3","1","0.8,0.2,0.2,0.2,0.8,0.2,0.2,0.2,0.8","0.8,0.2,0.2,0.2,0.8,0.2,0.2,0.2,0.8","1","",""
"","html-keyboard-response","341","266969","0.0-341.0","3Y5140Z9DY2P932BJQ8EAXQFXV9IPO","AH7CPLVO15FM5","36U4VBVNQOZD8NFWZXWF9CIHKRIURB","","null","<img src=""img/land2.png"" style=""width:200px; border:14px solid green;"">","null","","","","","","","","","",""
"","image-keyboard-response","342","268284","0.0-342.0","3Y5140Z9DY2P932BJQ8EAXQFXV9IPO","AH7CPLVO15FM5","36U4VBVNQOZD8NFWZXWF9CIHKRIURB","","1314.1000001430511","img/land5.png","75","1314.5999999046326","2","0","2","1","0.8,0.2,0.2,0.2,0.8,0.2,0.2,0.2,0.8","0.8,0.2,0.2,0.2,0.8,0.2,0.2,0.2,0.8","1","",""
"","html-keyboard-response","343","268585","0.0-343.0","3Y5140Z9DY2P932BJQ8EAXQFXV9IPO","AH7CPLVO15FM5","36U4VBVNQOZD8NFWZXWF9CIHKRIURB","","null","<img src=""img/land5.png"" style=""width:200px;border:14px solid red;"">","null","","","","","","","","","",""
"","image-keyboard-response","344","269580","0.0-344.0","3Y5140Z9DY2P932BJQ8EAXQFXV9IPO","AH7CPLVO15FM5","36U4VBVNQOZD8NFWZXWF9CIHKRIURB","","995","img/land5.png","74","995.6000001430511","1","0","2","1","0.8,0.2,0.2,0.2,0.8,0.2,0.2,0.2,0.8","0.8,0.2,0.2,0.2,0.8,0.2,0.2,0.2,0.8","1","",""
"","html-keyboard-response","345","269881","0.0-345.0","3Y5140Z9DY2P932BJQ8EAXQFXV9IPO","AH7CPLVO15FM5","36U4VBVNQOZD8NFWZXWF9CIHKRIURB","","null","<img src=""img/land5.png"" style=""width:200px;border:14px solid red;"">","null","","","","","","","","","",""
"","image-keyboard-response","346","270924","0.0-346.0","3Y5140Z9DY2P932BJQ8EAXQFXV9IPO","AH7CPLVO15FM5","36U4VBVNQOZD8NFWZXWF9CIHKRIURB","","1042.2999999523163","img/land3.png","76","1042.6999998092651","3","0","1","1","0.8,0.2,0.2,0.2,0.8,0.2,0.2,0.2,0.8","0.8,0.2,0.2,0.2,0.8,0.2,0.2,0.2,0.8","1","",""
"","html-keyboard-response","347","271225","0.0-347.0","3Y5140Z9DY2P932BJQ8EAXQFXV9IPO","AH7CPLVO15FM5","36U4VBVNQOZD8NFWZXWF9CIHKRIURB","","null","<img src=""img/land3.png"" style=""width:200px;border:14px solid red;"">","null","","","","","","","","","",""
"","image-keyboard-response","348","272964","0.0-348.0","3Y5140Z9DY2P932BJQ8EAXQFXV9IPO","AH7CPLVO15FM5","36U4VBVNQOZD8NFWZXWF9CIHKRIURB","","1738.1000001430511","img/land2.png","74","1738.6999998092651","1","1","3","1","0.8,0.2,0.2,0.2,0.8,0.2,0.2,0.2,0.8","0.8,0.2,0.2,0.2,0.8,0.2,0.2,0.2,0.8","1","",""
"","html-keyboard-response","349","273266","0.0-349.0","3Y5140Z9DY2P932BJQ8EAXQFXV9IPO","AH7CPLVO15FM5","36U4VBVNQOZD8NFWZXWF9CIHKRIURB","","null","<img src=""img/land2.png"" style=""width:200px; border:14px solid green;"">","null","","","","","","","","","",""
"","image-keyboard-response","350","274084","0.0-350.0","3Y5140Z9DY2P932BJQ8EAXQFXV9IPO","AH7CPLVO15FM5","36U4VBVNQOZD8NFWZXWF9CIHKRIURB","","818.2000000476837","img/land3.png","76","818.5999999046326","3","0","1","1","0.8,0.2,0.2,0.2,0.8,0.2,0.2,0.2,0.8","0.8,0.2,0.2,0.2,0.8,0.2,0.2,0.2,0.8","1","",""
"","html-keyboard-response","351","274386","0.0-351.0","3Y5140Z9DY2P932BJQ8EAXQFXV9IPO","AH7CPLVO15FM5","36U4VBVNQOZD8NFWZXWF9CIHKRIURB","","null","<img src=""img/land3.png"" style=""width:200px;border:14px solid red;"">","null","","","","","","","","","",""
"","image-keyboard-response","352","275172","0.0-352.0","3Y5140Z9DY2P932BJQ8EAXQFXV9IPO","AH7CPLVO15FM5","36U4VBVNQOZD8NFWZXWF9CIHKRIURB","","785.8999998569489","img/land3.png","74","786.3999998569489","1","1","1","1","0.8,0.2,0.2,0.2,0.8,0.2,0.2,0.2,0.8","0.8,0.2,0.2,0.2,0.8,0.2,0.2,0.2,0.8","1","",""
"","html-keyboard-response","353","275483","0.0-353.0","3Y5140Z9DY2P932BJQ8EAXQFXV9IPO","AH7CPLVO15FM5","36U4VBVNQOZD8NFWZXWF9CIHKRIURB","","null","<img src=""img/land3.png"" style=""width:200px; border:14px solid green;"">","null","","","","","","","","","",""
"","image-keyboard-response","354","276068","0.0-354.0","3Y5140Z9DY2P932BJQ8EAXQFXV9IPO","AH7CPLVO15FM5","36U4VBVNQOZD8NFWZXWF9CIHKRIURB","","584.9000000953674","img/land3.png","75","585.3999998569489","2","0","1","1","0.8,0.2,0.2,0.2,0.8,0.2,0.2,0.2,0.8","0.8,0.2,0.2,0.2,0.8,0.2,0.2,0.2,0.8","1","",""
"","html-keyboard-response","355","276370","0.0-355.0","3Y5140Z9DY2P932BJQ8EAXQFXV9IPO","AH7CPLVO15FM5","36U4VBVNQOZD8NFWZXWF9CIHKRIURB","","null","<img src=""img/land3.png"" style=""width:200px;border:14px solid red;"">","null","","","","","","","","","",""
