"success","trial_type","trial_index","time_elapsed","internal_node_id","assignmentID","mturkID","hitID","view_history","rt","stimulus","key_press","reactionTime","a","r","s","cond","reward_cond","reward_cond_actual","reward_matrix_idx","responses","question_order"
"true","fullscreen","0","3598","0.0-0.0","369J354OFEW336EBE692JLMIN8QG6D","AJ7MWBQFNH3E4","3UDTAB6HH6LRO17U79I9TKUGYFV09C","","","","","","","","","","","","","",""
"","instructions","1","28709","0.0-1.0","369J354OFEW336EBE692JLMIN8QG6D","AJ7MWBQFNH3E4","3UDTAB6HH6LRO17U79I9TKUGYFV09C","[{""page_index"":0,""viewing_time"":12926},{""page_index"":1,""viewing_time"":3001.2999999523163},{""page_index"":2,""viewing_time"":1544.8000000715256},{""page_index"":3,""viewing_time"":2888.7999999523163},{""page_index"":4,""viewing_time"":2135.8000000715256},{""page_index"":5,""viewing_time"":1533.3999999761581},{""page_index"":6,""viewing_time"":1075.6000000238419}]","25108.700000047684","","","","","","","","","","","",""
"","image-keyboard-response","2","30370","0.0-2.0","369J354OFEW336EBE692JLMIN8QG6D","AJ7MWBQFNH3E4","3UDTAB6HH6LRO17U79I9TKUGYFV09C","","1658.3000000715256","img/land1.png","75","1660.7999999523163","2","1","3","1","0.8,0.2,0.2,0.2,0.8,0.2,0.2,0.2,0.8","0.8,0.2,0.2,0.2,0.8,0.2,0.2,0.2,0.8","1","",""
"","html-keyboard-response","3","30677","0.0-3.0","369J354OFEW336EBE692JLMIN8QG6D","AJ7MWBQFNH3E4","3UDTAB6HH6LRO17U79I9TKUGYFV09C","","null","<img src=""img/land1.png"" style=""width:200px; border:14px solid green;"">","null","","","","","","","","","",""
"","image-keyboard-response","4","32693","0.0-4.0","369J354OFEW336EBE692JLMIN8QG6D","AJ7MWBQFNH3E4","3UDTAB6HH6LRO17U79I9TKUGYFV09C","","","img/land2.png","","2015.6000000238419","-1","0","1","1","0.8,0.2,0.2,0.2,0.8,0.2,0.2,0.2,0.8","0.8,0.2,0.2,0.2,0.8,0.2,0.2,0.2,0.8","1","",""
"","html-keyboard-response","5","33004","0.0-5.0","369J354OFEW336EBE692JLMIN8QG6D","AJ7MWBQFNH3E4","3UDTAB6HH6LRO17U79I9TKUGYFV09C","","null","<img src=""img/land2.png"" style=""width:200px;border:14px solid red;"">","null","","","","","","","","","",""
"","image-keyboard-response","6","34385","0.0-6.0","369J354OFEW336EBE692JLMIN8QG6D","AJ7MWBQFNH3E4","3UDTAB6HH6LRO17U79I9TKUGYFV09C","","1379.7000000476837","img/land2.png","75","1381.4000000953674","2","0","1","1","0.8,0.2,0.2,0.2,0.8,0.2,0.2,0.2,0.8","0.8,0.2,0.2,0.2,0.8,0.2,0.2,0.2,0.8","1","",""
"","html-keyboard-response","7","34691","0.0-7.0","369J354OFEW336EBE692JLMIN8QG6D","AJ7MWBQFNH3E4","3UDTAB6HH6LRO17U79I9TKUGYFV09C","","null","<img src=""img/land2.png"" style=""width:200px;border:14px solid red;"">","null","","","","","","","","","",""
"","image-keyboard-response","8","35479","0.0-8.0","369J354OFEW336EBE692JLMIN8QG6D","AJ7MWBQFNH3E4","3UDTAB6HH6LRO17U79I9TKUGYFV09C","","785.6000000238419","img/land1.png","74","787.2000000476837","1","1","3","1","0.8,0.2,0.2,0.2,0.8,0.2,0.2,0.2,0.8","0.8,0.2,0.2,0.2,0.8,0.2,0.2,0.2,0.8","1","",""
"","html-keyboard-response","9","35789","0.0-9.0","369J354OFEW336EBE692JLMIN8QG6D","AJ7MWBQFNH3E4","3UDTAB6HH6LRO17U79I9TKUGYFV09C","","null","<img src=""img/land1.png"" style=""width:200px; border:14px solid green;"">","null","","","","","","","","","",""
"","image-keyboard-response","10","36603","0.0-10.0","369J354OFEW336EBE692JLMIN8QG6D","AJ7MWBQFNH3E4","3UDTAB6HH6LRO17U79I9TKUGYFV09C","","812.2999999523163","img/land3.png","75","813.6999999284744","2","1","2","1","0.8,0.2,0.2,0.2,0.8,0.2,0.2,0.2,0.8","0.8,0.2,0.2,0.2,0.8,0.2,0.2,0.2,0.8","1","",""
"","html-keyboard-response","11","36913","0.0-11.0","369J354OFEW336EBE692JLMIN8QG6D","AJ7MWBQFNH3E4","3UDTAB6HH6LRO17U79I9TKUGYFV09C","","null","<img src=""img/land3.png"" style=""width:200px; border:14px solid green;"">","null","","","","","","","","","",""
"","image-keyboard-response","12","37812","0.0-12.0","369J354OFEW336EBE692JLMIN8QG6D","AJ7MWBQFNH3E4","3UDTAB6HH6LRO17U79I9TKUGYFV09C","","896.7000000476837","img/land1.png","76","898.3999999761581","3","1","3","1","0.8,0.2,0.2,0.2,0.8,0.2,0.2,0.2,0.8","0.8,0.2,0.2,0.2,0.8,0.2,0.2,0.2,0.8","1","",""
"","html-keyboard-response","13","38120","0.0-13.0","369J354OFEW336EBE692JLMIN8QG6D","AJ7MWBQFNH3E4","3UDTAB6HH6LRO17U79I9TKUGYFV09C","","null","<img src=""img/land1.png"" style=""width:200px; border:14px solid green;"">","null","","","","","","","","","",""
"","image-keyboard-response","14","38691","0.0-14.0","369J354OFEW336EBE692JLMIN8QG6D","AJ7MWBQFNH3E4","3UDTAB6HH6LRO17U79I9TKUGYFV09C","","569.5","img/land3.png","75","571","2","1","2","1","0.8,0.2,0.2,0.2,0.8,0.2,0.2,0.2,0.8","0.8,0.2,0.2,0.2,0.8,0.2,0.2,0.2,0.8","1","",""
"","html-keyboard-response","15","38996","0.0-15.0","369J354OFEW336EBE692JLMIN8QG6D","AJ7MWBQFNH3E4","3UDTAB6HH6LRO17U79I9TKUGYFV09C","","null","<img src=""img/land3.png"" style=""width:200px; border:14px solid green;"">","null","","","","","","","","","",""
"","image-keyboard-response","16","39615","0.0-16.0","369J354OFEW336EBE692JLMIN8QG6D","AJ7MWBQFNH3E4","3UDTAB6HH6LRO17U79I9TKUGYFV09C","","617","img/land3.png","75","618.6000000238419","2","0","2","1","0.8,0.2,0.2,0.2,0.8,0.2,0.2,0.2,0.8","0.8,0.2,0.2,0.2,0.8,0.2,0.2,0.2,0.8","1","",""
"","html-keyboard-response","17","39934","0.0-17.0","369J354OFEW336EBE692JLMIN8QG6D","AJ7MWBQFNH3E4","3UDTAB6HH6LRO17U79I9TKUGYFV09C","","null","<img src=""img/land3.png"" style=""width:200px;border:14px solid red;"">","null","","","","","","","","","",""
"","image-keyboard-response","18","40610","0.0-18.0","369J354OFEW336EBE692JLMIN8QG6D","AJ7MWBQFNH3E4","3UDTAB6HH6LRO17U79I9TKUGYFV09C","","675","img/land2.png","74","676.5","1","1","1","1","0.8,0.2,0.2,0.2,0.8,0.2,0.2,0.2,0.8","0.8,0.2,0.2,0.2,0.8,0.2,0.2,0.2,0.8","1","",""
"","html-keyboard-response","19","40920","0.0-19.0","369J354OFEW336EBE692JLMIN8QG6D","AJ7MWBQFNH3E4","3UDTAB6HH6LRO17U79I9TKUGYFV09C","","null","<img src=""img/land2.png"" style=""width:200px; border:14px solid green;"">","null","","","","","","","","","",""
"","image-keyboard-response","20","41658","0.0-20.0","369J354OFEW336EBE692JLMIN8QG6D","AJ7MWBQFNH3E4","3UDTAB6HH6LRO17U79I9TKUGYFV09C","","736.6000000238419","img/land1.png","76","738","3","0","3","1","0.8,0.2,0.2,0.2,0.8,0.2,0.2,0.2,0.8","0.8,0.2,0.2,0.2,0.8,0.2,0.2,0.2,0.8","1","",""
"","html-keyboard-response","21","41962","0.0-21.0","369J354OFEW336EBE692JLMIN8QG6D","AJ7MWBQFNH3E4","3UDTAB6HH6LRO17U79I9TKUGYFV09C","","null","<img src=""img/land1.png"" style=""width:200px;border:14px solid red;"">","null","","","","","","","","","",""
"","image-keyboard-response","22","42811","0.0-22.0","369J354OFEW336EBE692JLMIN8QG6D","AJ7MWBQFNH3E4","3UDTAB6HH6LRO17U79I9TKUGYFV09C","","847","img/land1.png","76","848.1000000238419","3","1","3","1","0.8,0.2,0.2,0.2,0.8,0.2,0.2,0.2,0.8","0.8,0.2,0.2,0.2,0.8,0.2,0.2,0.2,0.8","1","",""
"","html-keyboard-response","23","43122","0.0-23.0","369J354OFEW336EBE692JLMIN8QG6D","AJ7MWBQFNH3E4","3UDTAB6HH6LRO17U79I9TKUGYFV09C","","null","<img src=""img/land1.png"" style=""width:200px; border:14px solid green;"">","null","","","","","","","","","",""
"","image-keyboard-response","24","44189","0.0-24.0","369J354OFEW336EBE692JLMIN8QG6D","AJ7MWBQFNH3E4","3UDTAB6HH6LRO17U79I9TKUGYFV09C","","1065.3000000715256","img/land2.png","75","1066.5","2","0","1","1","0.8,0.2,0.2,0.2,0.8,0.2,0.2,0.2,0.8","0.8,0.2,0.2,0.2,0.8,0.2,0.2,0.2,0.8","1","",""
"","html-keyboard-response","25","44493","0.0-25.0","369J354OFEW336EBE692JLMIN8QG6D","AJ7MWBQFNH3E4","3UDTAB6HH6LRO17U79I9TKUGYFV09C","","null","<img src=""img/land2.png"" style=""width:200px;border:14px solid red;"">","null","","","","","","","","","",""
"","image-keyboard-response","26","45234","0.0-26.0","369J354OFEW336EBE692JLMIN8QG6D","AJ7MWBQFNH3E4","3UDTAB6HH6LRO17U79I9TKUGYFV09C","","738.7000000476837","img/land3.png","74","740","1","0","2","1","0.8,0.2,0.2,0.2,0.8,0.2,0.2,0.2,0.8","0.8,0.2,0.2,0.2,0.8,0.2,0.2,0.2,0.8","1","",""
"","html-keyboard-response","27","45535","0.0-27.0","369J354OFEW336EBE692JLMIN8QG6D","AJ7MWBQFNH3E4","3UDTAB6HH6LRO17U79I9TKUGYFV09C","","null","<img src=""img/land3.png"" style=""width:200px;border:14px solid red;"">","null","","","","","","","","","",""
"","image-keyboard-response","28","46548","0.0-28.0","369J354OFEW336EBE692JLMIN8QG6D","AJ7MWBQFNH3E4","3UDTAB6HH6LRO17U79I9TKUGYFV09C","","1011.3999999761581","img/land1.png","76","1012.7999999523163","3","1","3","1","0.8,0.2,0.2,0.2,0.8,0.2,0.2,0.2,0.8","0.8,0.2,0.2,0.2,0.8,0.2,0.2,0.2,0.8","1","",""
"","html-keyboard-response","29","46855","0.0-29.0","369J354OFEW336EBE692JLMIN8QG6D","AJ7MWBQFNH3E4","3UDTAB6HH6LRO17U79I9TKUGYFV09C","","null","<img src=""img/land1.png"" style=""width:200px; border:14px solid green;"">","null","","","","","","","","","",""
"","image-keyboard-response","30","47746","0.0-30.0","369J354OFEW336EBE692JLMIN8QG6D","AJ7MWBQFNH3E4","3UDTAB6HH6LRO17U79I9TKUGYFV09C","","889.3999999761581","img/land3.png","75","890.8999999761581","2","1","2","1","0.8,0.2,0.2,0.2,0.8,0.2,0.2,0.2,0.8","0.8,0.2,0.2,0.2,0.8,0.2,0.2,0.2,0.8","1","",""
"","html-keyboard-response","31","48053","0.0-31.0","369J354OFEW336EBE692JLMIN8QG6D","AJ7MWBQFNH3E4","3UDTAB6HH6LRO17U79I9TKUGYFV09C","","null","<img src=""img/land3.png"" style=""width:200px; border:14px solid green;"">","null","","","","","","","","","",""
"","image-keyboard-response","32","49215","0.0-32.0","369J354OFEW336EBE692JLMIN8QG6D","AJ7MWBQFNH3E4","3UDTAB6HH6LRO17U79I9TKUGYFV09C","","1160","img/land2.png","74","1162","1","1","1","1","0.8,0.2,0.2,0.2,0.8,0.2,0.2,0.2,0.8","0.8,0.2,0.2,0.2,0.8,0.2,0.2,0.2,0.8","1","",""
"","html-keyboard-response","33","49522","0.0-33.0","369J354OFEW336EBE692JLMIN8QG6D","AJ7MWBQFNH3E4","3UDTAB6HH6LRO17U79I9TKUGYFV09C","","null","<img src=""img/land2.png"" style=""width:200px; border:14px solid green;"">","null","","","","","","","","","",""
"","image-keyboard-response","34","50488","0.0-34.0","369J354OFEW336EBE692JLMIN8QG6D","AJ7MWBQFNH3E4","3UDTAB6HH6LRO17U79I9TKUGYFV09C","","964","img/land2.png","74","966","1","1","1","1","0.8,0.2,0.2,0.2,0.8,0.2,0.2,0.2,0.8","0.8,0.2,0.2,0.2,0.8,0.2,0.2,0.2,0.8","1","",""
"","html-keyboard-response","35","50793","0.0-35.0","369J354OFEW336EBE692JLMIN8QG6D","AJ7MWBQFNH3E4","3UDTAB6HH6LRO17U79I9TKUGYFV09C","","null","<img src=""img/land2.png"" style=""width:200px; border:14px solid green;"">","null","","","","","","","","","",""
"","image-keyboard-response","36","51587","0.0-36.0","369J354OFEW336EBE692JLMIN8QG6D","AJ7MWBQFNH3E4","3UDTAB6HH6LRO17U79I9TKUGYFV09C","","792.9000000953674","img/land2.png","74","794.1999999284744","1","1","1","1","0.8,0.2,0.2,0.2,0.8,0.2,0.2,0.2,0.8","0.8,0.2,0.2,0.2,0.8,0.2,0.2,0.2,0.8","1","",""
"","html-keyboard-response","37","51892","0.0-37.0","369J354OFEW336EBE692JLMIN8QG6D","AJ7MWBQFNH3E4","3UDTAB6HH6LRO17U79I9TKUGYFV09C","","null","<img src=""img/land2.png"" style=""width:200px; border:14px solid green;"">","null","","","","","","","","","",""
"","image-keyboard-response","38","52557","0.0-38.0","369J354OFEW336EBE692JLMIN8QG6D","AJ7MWBQFNH3E4","3UDTAB6HH6LRO17U79I9TKUGYFV09C","","662.6000000238419","img/land1.png","76","664.7999999523163","3","1","3","1","0.8,0.2,0.2,0.2,0.8,0.2,0.2,0.2,0.8","0.8,0.2,0.2,0.2,0.8,0.2,0.2,0.2,0.8","1","",""
"","html-keyboard-response","39","52864","0.0-39.0","369J354OFEW336EBE692JLMIN8QG6D","AJ7MWBQFNH3E4","3UDTAB6HH6LRO17U79I9TKUGYFV09C","","null","<img src=""img/land1.png"" style=""width:200px; border:14px solid green;"">","null","","","","","","","","","",""
"","image-keyboard-response","40","53535","0.0-40.0","369J354OFEW336EBE692JLMIN8QG6D","AJ7MWBQFNH3E4","3UDTAB6HH6LRO17U79I9TKUGYFV09C","","669.1000000238419","img/land1.png","76","670.5999999046326","3","1","3","1","0.8,0.2,0.2,0.2,0.8,0.2,0.2,0.2,0.8","0.8,0.2,0.2,0.2,0.8,0.2,0.2,0.2,0.8","1","",""
"","html-keyboard-response","41","53838","0.0-41.0","369J354OFEW336EBE692JLMIN8QG6D","AJ7MWBQFNH3E4","3UDTAB6HH6LRO17U79I9TKUGYFV09C","","null","<img src=""img/land1.png"" style=""width:200px; border:14px solid green;"">","null","","","","","","","","","",""
"","image-keyboard-response","42","54499","0.0-42.0","369J354OFEW336EBE692JLMIN8QG6D","AJ7MWBQFNH3E4","3UDTAB6HH6LRO17U79I9TKUGYFV09C","","659.3999999761581","img/land1.png","76","660.9000000953674","3","1","3","1","0.8,0.2,0.2,0.2,0.8,0.2,0.2,0.2,0.8","0.8,0.2,0.2,0.2,0.8,0.2,0.2,0.2,0.8","1","",""
"","html-keyboard-response","43","54801","0.0-43.0","369J354OFEW336EBE692JLMIN8QG6D","AJ7MWBQFNH3E4","3UDTAB6HH6LRO17U79I9TKUGYFV09C","","null","<img src=""img/land1.png"" style=""width:200px; border:14px solid green;"">","null","","","","","","","","","",""
"","image-keyboard-response","44","55321","0.0-44.0","369J354OFEW336EBE692JLMIN8QG6D","AJ7MWBQFNH3E4","3UDTAB6HH6LRO17U79I9TKUGYFV09C","","519.3000000715256","img/land3.png","75","520.3999999761581","2","0","2","1","0.8,0.2,0.2,0.2,0.8,0.2,0.2,0.2,0.8","0.8,0.2,0.2,0.2,0.8,0.2,0.2,0.2,0.8","1","",""
"","html-keyboard-response","45","55639","0.0-45.0","369J354OFEW336EBE692JLMIN8QG6D","AJ7MWBQFNH3E4","3UDTAB6HH6LRO17U79I9TKUGYFV09C","","null","<img src=""img/land3.png"" style=""width:200px;border:14px solid red;"">","null","","","","","","","","","",""
"","image-keyboard-response","46","56406","0.0-46.0","369J354OFEW336EBE692JLMIN8QG6D","AJ7MWBQFNH3E4","3UDTAB6HH6LRO17U79I9TKUGYFV09C","","764.2000000476837","img/land3.png","75","765.5","2","1","2","1","0.8,0.2,0.2,0.2,0.8,0.2,0.2,0.2,0.8","0.8,0.2,0.2,0.2,0.8,0.2,0.2,0.2,0.8","1","",""
"","html-keyboard-response","47","56710","0.0-47.0","369J354OFEW336EBE692JLMIN8QG6D","AJ7MWBQFNH3E4","3UDTAB6HH6LRO17U79I9TKUGYFV09C","","null","<img src=""img/land3.png"" style=""width:200px; border:14px solid green;"">","null","","","","","","","","","",""
"","image-keyboard-response","48","57536","0.0-48.0","369J354OFEW336EBE692JLMIN8QG6D","AJ7MWBQFNH3E4","3UDTAB6HH6LRO17U79I9TKUGYFV09C","","824.6999999284744","img/land3.png","75","825.7999999523163","2","0","2","1","0.8,0.2,0.2,0.2,0.8,0.2,0.2,0.2,0.8","0.8,0.2,0.2,0.2,0.8,0.2,0.2,0.2,0.8","1","",""
"","html-keyboard-response","49","57845","0.0-49.0","369J354OFEW336EBE692JLMIN8QG6D","AJ7MWBQFNH3E4","3UDTAB6HH6LRO17U79I9TKUGYFV09C","","null","<img src=""img/land3.png"" style=""width:200px;border:14px solid red;"">","null","","","","","","","","","",""
"","image-keyboard-response","50","58269","0.0-50.0","369J354OFEW336EBE692JLMIN8QG6D","AJ7MWBQFNH3E4","3UDTAB6HH6LRO17U79I9TKUGYFV09C","","422.2999999523163","img/land3.png","75","423.5","2","0","2","1","0.8,0.2,0.2,0.2,0.8,0.2,0.2,0.2,0.8","0.8,0.2,0.2,0.2,0.8,0.2,0.2,0.2,0.8","1","",""
"","html-keyboard-response","51","58583","0.0-51.0","369J354OFEW336EBE692JLMIN8QG6D","AJ7MWBQFNH3E4","3UDTAB6HH6LRO17U79I9TKUGYFV09C","","null","<img src=""img/land3.png"" style=""width:200px;border:14px solid red;"">","null","","","","","","","","","",""
"","image-keyboard-response","52","59045","0.0-52.0","369J354OFEW336EBE692JLMIN8QG6D","AJ7MWBQFNH3E4","3UDTAB6HH6LRO17U79I9TKUGYFV09C","","453.7000000476837","img/land3.png","75","454.8000000715256","2","1","2","1","0.8,0.2,0.2,0.2,0.8,0.2,0.2,0.2,0.8","0.8,0.2,0.2,0.2,0.8,0.2,0.2,0.2,0.8","1","",""
"","html-keyboard-response","53","59351","0.0-53.0","369J354OFEW336EBE692JLMIN8QG6D","AJ7MWBQFNH3E4","3UDTAB6HH6LRO17U79I9TKUGYFV09C","","null","<img src=""img/land3.png"" style=""width:200px; border:14px solid green;"">","null","","","","","","","","","",""
"","image-keyboard-response","54","60142","0.0-54.0","369J354OFEW336EBE692JLMIN8QG6D","AJ7MWBQFNH3E4","3UDTAB6HH6LRO17U79I9TKUGYFV09C","","787.6999999284744","img/land2.png","74","790.7999999523163","1","1","1","1","0.8,0.2,0.2,0.2,0.8,0.2,0.2,0.2,0.8","0.8,0.2,0.2,0.2,0.8,0.2,0.2,0.2,0.8","1","",""
"","html-keyboard-response","55","60447","0.0-55.0","369J354OFEW336EBE692JLMIN8QG6D","AJ7MWBQFNH3E4","3UDTAB6HH6LRO17U79I9TKUGYFV09C","","null","<img src=""img/land2.png"" style=""width:200px; border:14px solid green;"">","null","","","","","","","","","",""
"","image-keyboard-response","56","60914","0.0-56.0","369J354OFEW336EBE692JLMIN8QG6D","AJ7MWBQFNH3E4","3UDTAB6HH6LRO17U79I9TKUGYFV09C","","465.5","img/land2.png","74","466.89999997615814","1","1","1","1","0.8,0.2,0.2,0.2,0.8,0.2,0.2,0.2,0.8","0.8,0.2,0.2,0.2,0.8,0.2,0.2,0.2,0.8","1","",""
"","html-keyboard-response","57","61224","0.0-57.0","369J354OFEW336EBE692JLMIN8QG6D","AJ7MWBQFNH3E4","3UDTAB6HH6LRO17U79I9TKUGYFV09C","","null","<img src=""img/land2.png"" style=""width:200px; border:14px solid green;"">","null","","","","","","","","","",""
"","image-keyboard-response","58","61603","0.0-58.0","369J354OFEW336EBE692JLMIN8QG6D","AJ7MWBQFNH3E4","3UDTAB6HH6LRO17U79I9TKUGYFV09C","","377.10000002384186","img/land2.png","74","378.3000000715256","1","1","1","1","0.8,0.2,0.2,0.2,0.8,0.2,0.2,0.2,0.8","0.8,0.2,0.2,0.2,0.8,0.2,0.2,0.2,0.8","1","",""
"","html-keyboard-response","59","61906","0.0-59.0","369J354OFEW336EBE692JLMIN8QG6D","AJ7MWBQFNH3E4","3UDTAB6HH6LRO17U79I9TKUGYFV09C","","null","<img src=""img/land2.png"" style=""width:200px; border:14px solid green;"">","null","","","","","","","","","",""
"","image-keyboard-response","60","62471","0.0-60.0","369J354OFEW336EBE692JLMIN8QG6D","AJ7MWBQFNH3E4","3UDTAB6HH6LRO17U79I9TKUGYFV09C","","563.2999999523163","img/land1.png","76","564.5","3","1","3","1","0.8,0.2,0.2,0.2,0.8,0.2,0.2,0.2,0.8","0.8,0.2,0.2,0.2,0.8,0.2,0.2,0.2,0.8","1","",""
"","html-keyboard-response","61","62776","0.0-61.0","369J354OFEW336EBE692JLMIN8QG6D","AJ7MWBQFNH3E4","3UDTAB6HH6LRO17U79I9TKUGYFV09C","","null","<img src=""img/land1.png"" style=""width:200px; border:14px solid green;"">","null","","","","","","","","","",""
"","image-keyboard-response","62","63281","0.0-62.0","369J354OFEW336EBE692JLMIN8QG6D","AJ7MWBQFNH3E4","3UDTAB6HH6LRO17U79I9TKUGYFV09C","","503.8000000715256","img/land1.png","76","505.39999997615814","3","1","3","1","0.8,0.2,0.2,0.2,0.8,0.2,0.2,0.2,0.8","0.8,0.2,0.2,0.2,0.8,0.2,0.2,0.2,0.8","1","",""
"","html-keyboard-response","63","63592","0.0-63.0","369J354OFEW336EBE692JLMIN8QG6D","AJ7MWBQFNH3E4","3UDTAB6HH6LRO17U79I9TKUGYFV09C","","null","<img src=""img/land1.png"" style=""width:200px; border:14px solid green;"">","null","","","","","","","","","",""
"","image-keyboard-response","64","64180","0.0-64.0","369J354OFEW336EBE692JLMIN8QG6D","AJ7MWBQFNH3E4","3UDTAB6HH6LRO17U79I9TKUGYFV09C","","585","img/land2.png","75","588.0999999046326","2","0","1","1","0.8,0.2,0.2,0.2,0.8,0.2,0.2,0.2,0.8","0.8,0.2,0.2,0.2,0.8,0.2,0.2,0.2,0.8","1","",""
"","html-keyboard-response","65","64487","0.0-65.0","369J354OFEW336EBE692JLMIN8QG6D","AJ7MWBQFNH3E4","3UDTAB6HH6LRO17U79I9TKUGYFV09C","","null","<img src=""img/land2.png"" style=""width:200px;border:14px solid red;"">","null","","","","","","","","","",""
"","image-keyboard-response","66","65028","0.0-66.0","369J354OFEW336EBE692JLMIN8QG6D","AJ7MWBQFNH3E4","3UDTAB6HH6LRO17U79I9TKUGYFV09C","","539.2999999523163","img/land3.png","75","540.6000000238419","2","0","2","1","0.8,0.2,0.2,0.2,0.8,0.2,0.2,0.2,0.8","0.8,0.2,0.2,0.2,0.8,0.2,0.2,0.2,0.8","1","",""
"","html-keyboard-response","67","65336","0.0-67.0","369J354OFEW336EBE692JLMIN8QG6D","AJ7MWBQFNH3E4","3UDTAB6HH6LRO17U79I9TKUGYFV09C","","null","<img src=""img/land3.png"" style=""width:200px;border:14px solid red;"">","null","","","","","","","","","",""
"","image-keyboard-response","68","65833","0.0-68.0","369J354OFEW336EBE692JLMIN8QG6D","AJ7MWBQFNH3E4","3UDTAB6HH6LRO17U79I9TKUGYFV09C","","495.10000002384186","img/land3.png","75","496.60000002384186","2","1","2","1","0.8,0.2,0.2,0.2,0.8,0.2,0.2,0.2,0.8","0.8,0.2,0.2,0.2,0.8,0.2,0.2,0.2,0.8","1","",""
"","html-keyboard-response","69","66143","0.0-69.0","369J354OFEW336EBE692JLMIN8QG6D","AJ7MWBQFNH3E4","3UDTAB6HH6LRO17U79I9TKUGYFV09C","","null","<img src=""img/land3.png"" style=""width:200px; border:14px solid green;"">","null","","","","","","","","","",""
"","image-keyboard-response","70","66942","0.0-70.0","369J354OFEW336EBE692JLMIN8QG6D","AJ7MWBQFNH3E4","3UDTAB6HH6LRO17U79I9TKUGYFV09C","","796.7999999523163","img/land2.png","74","798.8999999761581","1","1","1","1","0.8,0.2,0.2,0.2,0.8,0.2,0.2,0.2,0.8","0.8,0.2,0.2,0.2,0.8,0.2,0.2,0.2,0.8","1","",""
"","html-keyboard-response","71","67257","0.0-71.0","369J354OFEW336EBE692JLMIN8QG6D","AJ7MWBQFNH3E4","3UDTAB6HH6LRO17U79I9TKUGYFV09C","","null","<img src=""img/land2.png"" style=""width:200px; border:14px solid green;"">","null","","","","","","","","","",""
"","image-keyboard-response","72","67950","0.0-72.0","369J354OFEW336EBE692JLMIN8QG6D","AJ7MWBQFNH3E4","3UDTAB6HH6LRO17U79I9TKUGYFV09C","","691.3999999761581","img/land1.png","76","692.8999999761581","3","1","3","1","0.8,0.2,0.2,0.2,0.8,0.2,0.2,0.2,0.8","0.8,0.2,0.2,0.2,0.8,0.2,0.2,0.2,0.8","1","",""
"","html-keyboard-response","73","68253","0.0-73.0","369J354OFEW336EBE692JLMIN8QG6D","AJ7MWBQFNH3E4","3UDTAB6HH6LRO17U79I9TKUGYFV09C","","null","<img src=""img/land1.png"" style=""width:200px; border:14px solid green;"">","null","","","","","","","","","",""
"","image-keyboard-response","74","69068","0.0-74.0","369J354OFEW336EBE692JLMIN8QG6D","AJ7MWBQFNH3E4","3UDTAB6HH6LRO17U79I9TKUGYFV09C","","813.8000000715256","img/land2.png","74","815","1","1","1","1","0.8,0.2,0.2,0.2,0.8,0.2,0.2,0.2,0.8","0.8,0.2,0.2,0.2,0.8,0.2,0.2,0.2,0.8","1","",""
"","html-keyboard-response","75","69374","0.0-75.0","369J354OFEW336EBE692JLMIN8QG6D","AJ7MWBQFNH3E4","3UDTAB6HH6LRO17U79I9TKUGYFV09C","","null","<img src=""img/land2.png"" style=""width:200px; border:14px solid green;"">","null","","","","","","","","","",""
"","image-keyboard-response","76","69823","0.0-76.0","369J354OFEW336EBE692JLMIN8QG6D","AJ7MWBQFNH3E4","3UDTAB6HH6LRO17U79I9TKUGYFV09C","","447.5","img/land2.png","74","449.10000002384186","1","1","1","1","0.8,0.2,0.2,0.2,0.8,0.2,0.2,0.2,0.8","0.8,0.2,0.2,0.2,0.8,0.2,0.2,0.2,0.8","1","",""
"","html-keyboard-response","77","70126","0.0-77.0","369J354OFEW336EBE692JLMIN8QG6D","AJ7MWBQFNH3E4","3UDTAB6HH6LRO17U79I9TKUGYFV09C","","null","<img src=""img/land2.png"" style=""width:200px; border:14px solid green;"">","null","","","","","","","","","",""
"","image-keyboard-response","78","70579","0.0-78.0","369J354OFEW336EBE692JLMIN8QG6D","AJ7MWBQFNH3E4","3UDTAB6HH6LRO17U79I9TKUGYFV09C","","450","img/land3.png","75","452.2000000476837","2","0","2","1","0.8,0.2,0.2,0.2,0.8,0.2,0.2,0.2,0.8","0.8,0.2,0.2,0.2,0.8,0.2,0.2,0.2,0.8","1","",""
"","html-keyboard-response","79","70889","0.0-79.0","369J354OFEW336EBE692JLMIN8QG6D","AJ7MWBQFNH3E4","3UDTAB6HH6LRO17U79I9TKUGYFV09C","","null","<img src=""img/land3.png"" style=""width:200px;border:14px solid red;"">","null","","","","","","","","","",""
"","image-keyboard-response","80","71772","0.0-80.0","369J354OFEW336EBE692JLMIN8QG6D","AJ7MWBQFNH3E4","3UDTAB6HH6LRO17U79I9TKUGYFV09C","","881.5999999046326","img/land2.png","74","883.2000000476837","1","1","1","1","0.8,0.2,0.2,0.2,0.8,0.2,0.2,0.2,0.8","0.8,0.2,0.2,0.2,0.8,0.2,0.2,0.2,0.8","1","",""
"","html-keyboard-response","81","72074","0.0-81.0","369J354OFEW336EBE692JLMIN8QG6D","AJ7MWBQFNH3E4","3UDTAB6HH6LRO17U79I9TKUGYFV09C","","null","<img src=""img/land2.png"" style=""width:200px; border:14px solid green;"">","null","","","","","","","","","",""
"","image-keyboard-response","82","72760","0.0-82.0","369J354OFEW336EBE692JLMIN8QG6D","AJ7MWBQFNH3E4","3UDTAB6HH6LRO17U79I9TKUGYFV09C","","684.3999999761581","img/land3.png","75","685.5999999046326","2","1","2","1","0.8,0.2,0.2,0.2,0.8,0.2,0.2,0.2,0.8","0.8,0.2,0.2,0.2,0.8,0.2,0.2,0.2,0.8","1","",""
"","html-keyboard-response","83","73067","0.0-83.0","369J354OFEW336EBE692JLMIN8QG6D","AJ7MWBQFNH3E4","3UDTAB6HH6LRO17U79I9TKUGYFV09C","","null","<img src=""img/land3.png"" style=""width:200px; border:14px solid green;"">","null","","","","","","","","","",""
"","image-keyboard-response","84","73555","0.0-84.0","369J354OFEW336EBE692JLMIN8QG6D","AJ7MWBQFNH3E4","3UDTAB6HH6LRO17U79I9TKUGYFV09C","","487.2999999523163","img/land1.png","76","488.60000002384186","3","1","3","1","0.8,0.2,0.2,0.2,0.8,0.2,0.2,0.2,0.8","0.8,0.2,0.2,0.2,0.8,0.2,0.2,0.2,0.8","1","",""
"","html-keyboard-response","85","73871","0.0-85.0","369J354OFEW336EBE692JLMIN8QG6D","AJ7MWBQFNH3E4","3UDTAB6HH6LRO17U79I9TKUGYFV09C","","null","<img src=""img/land1.png"" style=""width:200px; border:14px solid green;"">","null","","","","","","","","","",""
"","image-keyboard-response","86","74344","0.0-86.0","369J354OFEW336EBE692JLMIN8QG6D","AJ7MWBQFNH3E4","3UDTAB6HH6LRO17U79I9TKUGYFV09C","","471.5","img/land3.png","74","472.60000002384186","1","0","2","1","0.8,0.2,0.2,0.2,0.8,0.2,0.2,0.2,0.8","0.8,0.2,0.2,0.2,0.8,0.2,0.2,0.2,0.8","1","",""
"","html-keyboard-response","87","74655","0.0-87.0","369J354OFEW336EBE692JLMIN8QG6D","AJ7MWBQFNH3E4","3UDTAB6HH6LRO17U79I9TKUGYFV09C","","null","<img src=""img/land3.png"" style=""width:200px;border:14px solid red;"">","null","","","","","","","","","",""
"","image-keyboard-response","88","75032","0.0-88.0","369J354OFEW336EBE692JLMIN8QG6D","AJ7MWBQFNH3E4","3UDTAB6HH6LRO17U79I9TKUGYFV09C","","376.2000000476837","img/land3.png","75","377.2999999523163","2","1","2","1","0.8,0.2,0.2,0.2,0.8,0.2,0.2,0.2,0.8","0.8,0.2,0.2,0.2,0.8,0.2,0.2,0.2,0.8","1","",""
"","html-keyboard-response","89","75340","0.0-89.0","369J354OFEW336EBE692JLMIN8QG6D","AJ7MWBQFNH3E4","3UDTAB6HH6LRO17U79I9TKUGYFV09C","","null","<img src=""img/land3.png"" style=""width:200px; border:14px solid green;"">","null","","","","","","","","","",""
"","image-keyboard-response","90","75814","0.0-90.0","369J354OFEW336EBE692JLMIN8QG6D","AJ7MWBQFNH3E4","3UDTAB6HH6LRO17U79I9TKUGYFV09C","","471.5","img/land3.png","75","472.7000000476837","2","1","2","1","0.8,0.2,0.2,0.2,0.8,0.2,0.2,0.2,0.8","0.8,0.2,0.2,0.2,0.8,0.2,0.2,0.2,0.8","1","",""
"","html-keyboard-response","91","76121","0.0-91.0","369J354OFEW336EBE692JLMIN8QG6D","AJ7MWBQFNH3E4","3UDTAB6HH6LRO17U79I9TKUGYFV09C","","null","<img src=""img/land3.png"" style=""width:200px; border:14px solid green;"">","null","","","","","","","","","",""
"","image-keyboard-response","92","76960","0.0-92.0","369J354OFEW336EBE692JLMIN8QG6D","AJ7MWBQFNH3E4","3UDTAB6HH6LRO17U79I9TKUGYFV09C","","837.8999999761581","img/land1.png","76","839.2999999523163","3","1","3","1","0.8,0.2,0.2,0.2,0.8,0.2,0.2,0.2,0.8","0.8,0.2,0.2,0.2,0.8,0.2,0.2,0.2,0.8","1","",""
"","html-keyboard-response","93","77274","0.0-93.0","369J354OFEW336EBE692JLMIN8QG6D","AJ7MWBQFNH3E4","3UDTAB6HH6LRO17U79I9TKUGYFV09C","","null","<img src=""img/land1.png"" style=""width:200px; border:14px solid green;"">","null","","","","","","","","","",""
"","image-keyboard-response","94","77830","0.0-94.0","369J354OFEW336EBE692JLMIN8QG6D","AJ7MWBQFNH3E4","3UDTAB6HH6LRO17U79I9TKUGYFV09C","","552.3000000715256","img/land3.png","75","555.8000000715256","2","1","2","1","0.8,0.2,0.2,0.2,0.8,0.2,0.2,0.2,0.8","0.8,0.2,0.2,0.2,0.8,0.2,0.2,0.2,0.8","1","",""
"","html-keyboard-response","95","78147","0.0-95.0","369J354OFEW336EBE692JLMIN8QG6D","AJ7MWBQFNH3E4","3UDTAB6HH6LRO17U79I9TKUGYFV09C","","null","<img src=""img/land3.png"" style=""width:200px; border:14px solid green;"">","null","","","","","","","","","",""
"","image-keyboard-response","96","78709","0.0-96.0","369J354OFEW336EBE692JLMIN8QG6D","AJ7MWBQFNH3E4","3UDTAB6HH6LRO17U79I9TKUGYFV09C","","560.7999999523163","img/land1.png","76","562.0999999046326","3","1","3","1","0.8,0.2,0.2,0.2,0.8,0.2,0.2,0.2,0.8","0.8,0.2,0.2,0.2,0.8,0.2,0.2,0.2,0.8","1","",""
"","html-keyboard-response","97","79018","0.0-97.0","369J354OFEW336EBE692JLMIN8QG6D","AJ7MWBQFNH3E4","3UDTAB6HH6LRO17U79I9TKUGYFV09C","","null","<img src=""img/land1.png"" style=""width:200px; border:14px solid green;"">","null","","","","","","","","","",""
"","image-keyboard-response","98","79539","0.0-98.0","369J354OFEW336EBE692JLMIN8QG6D","AJ7MWBQFNH3E4","3UDTAB6HH6LRO17U79I9TKUGYFV09C","","519.7999999523163","img/land3.png","75","521","2","1","2","1","0.8,0.2,0.2,0.2,0.8,0.2,0.2,0.2,0.8","0.8,0.2,0.2,0.2,0.8,0.2,0.2,0.2,0.8","1","",""
"","html-keyboard-response","99","79854","0.0-99.0","369J354OFEW336EBE692JLMIN8QG6D","AJ7MWBQFNH3E4","3UDTAB6HH6LRO17U79I9TKUGYFV09C","","null","<img src=""img/land3.png"" style=""width:200px; border:14px solid green;"">","null","","","","","","","","","",""
"","image-keyboard-response","100","80432","0.0-100.0","369J354OFEW336EBE692JLMIN8QG6D","AJ7MWBQFNH3E4","3UDTAB6HH6LRO17U79I9TKUGYFV09C","","575.8999999761581","img/land1.png","76","577.1999999284744","3","1","3","1","0.8,0.2,0.2,0.2,0.8,0.2,0.2,0.2,0.8","0.8,0.2,0.2,0.2,0.8,0.2,0.2,0.2,0.8","1","",""
"","html-keyboard-response","101","80735","0.0-101.0","369J354OFEW336EBE692JLMIN8QG6D","AJ7MWBQFNH3E4","3UDTAB6HH6LRO17U79I9TKUGYFV09C","","null","<img src=""img/land1.png"" style=""width:200px; border:14px solid green;"">","null","","","","","","","","","",""
"","image-keyboard-response","102","81156","0.0-102.0","369J354OFEW336EBE692JLMIN8QG6D","AJ7MWBQFNH3E4","3UDTAB6HH6LRO17U79I9TKUGYFV09C","","420.39999997615814","img/land1.png","76","421.60000002384186","3","1","3","1","0.8,0.2,0.2,0.2,0.8,0.2,0.2,0.2,0.8","0.8,0.2,0.2,0.2,0.8,0.2,0.2,0.2,0.8","1","",""
"","html-keyboard-response","103","81463","0.0-103.0","369J354OFEW336EBE692JLMIN8QG6D","AJ7MWBQFNH3E4","3UDTAB6HH6LRO17U79I9TKUGYFV09C","","null","<img src=""img/land1.png"" style=""width:200px; border:14px solid green;"">","null","","","","","","","","","",""
"","image-keyboard-response","104","81912","0.0-104.0","369J354OFEW336EBE692JLMIN8QG6D","AJ7MWBQFNH3E4","3UDTAB6HH6LRO17U79I9TKUGYFV09C","","446.7999999523163","img/land2.png","74","448.89999997615814","1","1","1","1","0.8,0.2,0.2,0.2,0.8,0.2,0.2,0.2,0.8","0.8,0.2,0.2,0.2,0.8,0.2,0.2,0.2,0.8","1","",""
"","html-keyboard-response","105","82222","0.0-105.0","369J354OFEW336EBE692JLMIN8QG6D","AJ7MWBQFNH3E4","3UDTAB6HH6LRO17U79I9TKUGYFV09C","","null","<img src=""img/land2.png"" style=""width:200px; border:14px solid green;"">","null","","","","","","","","","",""
"","image-keyboard-response","106","82656","0.0-106.0","369J354OFEW336EBE692JLMIN8QG6D","AJ7MWBQFNH3E4","3UDTAB6HH6LRO17U79I9TKUGYFV09C","","432.2000000476837","img/land2.png","74","433.6999999284744","1","1","1","1","0.8,0.2,0.2,0.2,0.8,0.2,0.2,0.2,0.8","0.8,0.2,0.2,0.2,0.8,0.2,0.2,0.2,0.8","1","",""
"","html-keyboard-response","107","82965","0.0-107.0","369J354OFEW336EBE692JLMIN8QG6D","AJ7MWBQFNH3E4","3UDTAB6HH6LRO17U79I9TKUGYFV09C","","null","<img src=""img/land2.png"" style=""width:200px; border:14px solid green;"">","null","","","","","","","","","",""
"","image-keyboard-response","108","83570","0.0-108.0","369J354OFEW336EBE692JLMIN8QG6D","AJ7MWBQFNH3E4","3UDTAB6HH6LRO17U79I9TKUGYFV09C","","603.8000000715256","img/land1.png","76","604.8999999761581","3","1","3","1","0.8,0.2,0.2,0.2,0.8,0.2,0.2,0.2,0.8","0.8,0.2,0.2,0.2,0.8,0.2,0.2,0.2,0.8","1","",""
"","html-keyboard-response","109","83880","0.0-109.0","369J354OFEW336EBE692JLMIN8QG6D","AJ7MWBQFNH3E4","3UDTAB6HH6LRO17U79I9TKUGYFV09C","","null","<img src=""img/land1.png"" style=""width:200px; border:14px solid green;"">","null","","","","","","","","","",""
"","image-keyboard-response","110","84419","0.0-110.0","369J354OFEW336EBE692JLMIN8QG6D","AJ7MWBQFNH3E4","3UDTAB6HH6LRO17U79I9TKUGYFV09C","","538.1000000238419","img/land3.png","75","539.6000000238419","2","1","2","1","0.8,0.2,0.2,0.2,0.8,0.2,0.2,0.2,0.8","0.8,0.2,0.2,0.2,0.8,0.2,0.2,0.2,0.8","1","",""
"","html-keyboard-response","111","84727","0.0-111.0","369J354OFEW336EBE692JLMIN8QG6D","AJ7MWBQFNH3E4","3UDTAB6HH6LRO17U79I9TKUGYFV09C","","null","<img src=""img/land3.png"" style=""width:200px; border:14px solid green;"">","null","","","","","","","","","",""
"","image-keyboard-response","112","85372","0.0-112.0","369J354OFEW336EBE692JLMIN8QG6D","AJ7MWBQFNH3E4","3UDTAB6HH6LRO17U79I9TKUGYFV09C","","642.5999999046326","img/land2.png","74","644.6999999284744","1","1","1","1","0.8,0.2,0.2,0.2,0.8,0.2,0.2,0.2,0.8","0.8,0.2,0.2,0.2,0.8,0.2,0.2,0.2,0.8","1","",""
"","html-keyboard-response","113","85677","0.0-113.0","369J354OFEW336EBE692JLMIN8QG6D","AJ7MWBQFNH3E4","3UDTAB6HH6LRO17U79I9TKUGYFV09C","","null","<img src=""img/land2.png"" style=""width:200px; border:14px solid green;"">","null","","","","","","","","","",""
"","image-keyboard-response","114","86262","0.0-114.0","369J354OFEW336EBE692JLMIN8QG6D","AJ7MWBQFNH3E4","3UDTAB6HH6LRO17U79I9TKUGYFV09C","","582.6000000238419","img/land3.png","75","583.8999999761581","2","1","2","1","0.8,0.2,0.2,0.2,0.8,0.2,0.2,0.2,0.8","0.8,0.2,0.2,0.2,0.8,0.2,0.2,0.2,0.8","1","",""
"","html-keyboard-response","115","86574","0.0-115.0","369J354OFEW336EBE692JLMIN8QG6D","AJ7MWBQFNH3E4","3UDTAB6HH6LRO17U79I9TKUGYFV09C","","null","<img src=""img/land3.png"" style=""width:200px; border:14px solid green;"">","null","","","","","","","","","",""
"","image-keyboard-response","116","87395","0.0-116.0","369J354OFEW336EBE692JLMIN8QG6D","AJ7MWBQFNH3E4","3UDTAB6HH6LRO17U79I9TKUGYFV09C","","819.1000000238419","img/land2.png","74","820.2999999523163","1","1","1","1","0.8,0.2,0.2,0.2,0.8,0.2,0.2,0.2,0.8","0.8,0.2,0.2,0.2,0.8,0.2,0.2,0.2,0.8","1","",""
"","html-keyboard-response","117","87710","0.0-117.0","369J354OFEW336EBE692JLMIN8QG6D","AJ7MWBQFNH3E4","3UDTAB6HH6LRO17U79I9TKUGYFV09C","","null","<img src=""img/land2.png"" style=""width:200px; border:14px solid green;"">","null","","","","","","","","","",""
"","image-keyboard-response","118","88264","0.0-118.0","369J354OFEW336EBE692JLMIN8QG6D","AJ7MWBQFNH3E4","3UDTAB6HH6LRO17U79I9TKUGYFV09C","","551.7000000476837","img/land3.png","75","553.4000000953674","2","1","2","1","0.8,0.2,0.2,0.2,0.8,0.2,0.2,0.2,0.8","0.8,0.2,0.2,0.2,0.8,0.2,0.2,0.2,0.8","1","",""
"","html-keyboard-response","119","88566","0.0-119.0","369J354OFEW336EBE692JLMIN8QG6D","AJ7MWBQFNH3E4","3UDTAB6HH6LRO17U79I9TKUGYFV09C","","null","<img src=""img/land3.png"" style=""width:200px; border:14px solid green;"">","null","","","","","","","","","",""
"","image-keyboard-response","120","89164","0.0-120.0","369J354OFEW336EBE692JLMIN8QG6D","AJ7MWBQFNH3E4","3UDTAB6HH6LRO17U79I9TKUGYFV09C","","595.7000000476837","img/land3.png","75","597.2000000476837","2","0","2","1","0.8,0.2,0.2,0.2,0.8,0.2,0.2,0.2,0.8","0.8,0.2,0.2,0.2,0.8,0.2,0.2,0.2,0.8","1","",""
"","html-keyboard-response","121","89469","0.0-121.0","369J354OFEW336EBE692JLMIN8QG6D","AJ7MWBQFNH3E4","3UDTAB6HH6LRO17U79I9TKUGYFV09C","","null","<img src=""img/land3.png"" style=""width:200px;border:14px solid red;"">","null","","","","","","","","","",""
"","image-keyboard-response","122","90109","0.0-122.0","369J354OFEW336EBE692JLMIN8QG6D","AJ7MWBQFNH3E4","3UDTAB6HH6LRO17U79I9TKUGYFV09C","","637.8999999761581","img/land1.png","76","640","3","0","3","1","0.8,0.2,0.2,0.2,0.8,0.2,0.2,0.2,0.8","0.8,0.2,0.2,0.2,0.8,0.2,0.2,0.2,0.8","1","",""
"","html-keyboard-response","123","90417","0.0-123.0","369J354OFEW336EBE692JLMIN8QG6D","AJ7MWBQFNH3E4","3UDTAB6HH6LRO17U79I9TKUGYFV09C","","null","<img src=""img/land1.png"" style=""width:200px;border:14px solid red;"">","null","","","","","","","","","",""
"","image-keyboard-response","124","91066","0.0-124.0","369J354OFEW336EBE692JLMIN8QG6D","AJ7MWBQFNH3E4","3UDTAB6HH6LRO17U79I9TKUGYFV09C","","647.2999999523163","img/land2.png","74","648.5","1","1","1","1","0.8,0.2,0.2,0.2,0.8,0.2,0.2,0.2,0.8","0.8,0.2,0.2,0.2,0.8,0.2,0.2,0.2,0.8","1","",""
"","html-keyboard-response","125","91377","0.0-125.0","369J354OFEW336EBE692JLMIN8QG6D","AJ7MWBQFNH3E4","3UDTAB6HH6LRO17U79I9TKUGYFV09C","","null","<img src=""img/land2.png"" style=""width:200px; border:14px solid green;"">","null","","","","","","","","","",""
"","image-keyboard-response","126","91896","0.0-126.0","369J354OFEW336EBE692JLMIN8QG6D","AJ7MWBQFNH3E4","3UDTAB6HH6LRO17U79I9TKUGYFV09C","","517.1000000238419","img/land3.png","74","518.2999999523163","1","0","2","1","0.8,0.2,0.2,0.2,0.8,0.2,0.2,0.2,0.8","0.8,0.2,0.2,0.2,0.8,0.2,0.2,0.2,0.8","1","",""
"","html-keyboard-response","127","92199","0.0-127.0","369J354OFEW336EBE692JLMIN8QG6D","AJ7MWBQFNH3E4","3UDTAB6HH6LRO17U79I9TKUGYFV09C","","null","<img src=""img/land3.png"" style=""width:200px;border:14px solid red;"">","null","","","","","","","","","",""
"","image-keyboard-response","128","93034","0.0-128.0","369J354OFEW336EBE692JLMIN8QG6D","AJ7MWBQFNH3E4","3UDTAB6HH6LRO17U79I9TKUGYFV09C","","832.9000000953674","img/land1.png","76","834.4000000953674","3","1","3","1","0.8,0.2,0.2,0.2,0.8,0.2,0.2,0.2,0.8","0.8,0.2,0.2,0.2,0.8,0.2,0.2,0.2,0.8","1","",""
"","html-keyboard-response","129","93338","0.0-129.0","369J354OFEW336EBE692JLMIN8QG6D","AJ7MWBQFNH3E4","3UDTAB6HH6LRO17U79I9TKUGYFV09C","","null","<img src=""img/land1.png"" style=""width:200px; border:14px solid green;"">","null","","","","","","","","","",""
"","image-keyboard-response","130","94163","0.0-130.0","369J354OFEW336EBE692JLMIN8QG6D","AJ7MWBQFNH3E4","3UDTAB6HH6LRO17U79I9TKUGYFV09C","","823.7000000476837","img/land2.png","74","825.1000000238419","1","1","1","1","0.8,0.2,0.2,0.2,0.8,0.2,0.2,0.2,0.8","0.8,0.2,0.2,0.2,0.8,0.2,0.2,0.2,0.8","1","",""
"","html-keyboard-response","131","94470","0.0-131.0","369J354OFEW336EBE692JLMIN8QG6D","AJ7MWBQFNH3E4","3UDTAB6HH6LRO17U79I9TKUGYFV09C","","null","<img src=""img/land2.png"" style=""width:200px; border:14px solid green;"">","null","","","","","","","","","",""
"","image-keyboard-response","132","94833","0.0-132.0","369J354OFEW336EBE692JLMIN8QG6D","AJ7MWBQFNH3E4","3UDTAB6HH6LRO17U79I9TKUGYFV09C","","362","img/land2.png","74","363.2000000476837","1","1","1","1","0.8,0.2,0.2,0.2,0.8,0.2,0.2,0.2,0.8","0.8,0.2,0.2,0.2,0.8,0.2,0.2,0.2,0.8","1","",""
"","html-keyboard-response","133","95140","0.0-133.0","369J354OFEW336EBE692JLMIN8QG6D","AJ7MWBQFNH3E4","3UDTAB6HH6LRO17U79I9TKUGYFV09C","","null","<img src=""img/land2.png"" style=""width:200px; border:14px solid green;"">","null","","","","","","","","","",""
"","image-keyboard-response","134","95703","0.0-134.0","369J354OFEW336EBE692JLMIN8QG6D","AJ7MWBQFNH3E4","3UDTAB6HH6LRO17U79I9TKUGYFV09C","","561.7999999523163","img/land1.png","76","563.3000000715256","3","1","3","1","0.8,0.2,0.2,0.2,0.8,0.2,0.2,0.2,0.8","0.8,0.2,0.2,0.2,0.8,0.2,0.2,0.2,0.8","1","",""
"","html-keyboard-response","135","96012","0.0-135.0","369J354OFEW336EBE692JLMIN8QG6D","AJ7MWBQFNH3E4","3UDTAB6HH6LRO17U79I9TKUGYFV09C","","null","<img src=""img/land1.png"" style=""width:200px; border:14px solid green;"">","null","","","","","","","","","",""
"","image-keyboard-response","136","96563","0.0-136.0","369J354OFEW336EBE692JLMIN8QG6D","AJ7MWBQFNH3E4","3UDTAB6HH6LRO17U79I9TKUGYFV09C","","550.1000000238419","img/land3.png","75","551.3000000715256","2","1","2","1","0.8,0.2,0.2,0.2,0.8,0.2,0.2,0.2,0.8","0.8,0.2,0.2,0.2,0.8,0.2,0.2,0.2,0.8","1","",""
"","html-keyboard-response","137","96872","0.0-137.0","369J354OFEW336EBE692JLMIN8QG6D","AJ7MWBQFNH3E4","3UDTAB6HH6LRO17U79I9TKUGYFV09C","","null","<img src=""img/land3.png"" style=""width:200px; border:14px solid green;"">","null","","","","","","","","","",""
"","image-keyboard-response","138","97261","0.0-138.0","369J354OFEW336EBE692JLMIN8QG6D","AJ7MWBQFNH3E4","3UDTAB6HH6LRO17U79I9TKUGYFV09C","","387.60000002384186","img/land3.png","75","388.7999999523163","2","1","2","1","0.8,0.2,0.2,0.2,0.8,0.2,0.2,0.2,0.8","0.8,0.2,0.2,0.2,0.8,0.2,0.2,0.2,0.8","1","",""
"","html-keyboard-response","139","97570","0.0-139.0","369J354OFEW336EBE692JLMIN8QG6D","AJ7MWBQFNH3E4","3UDTAB6HH6LRO17U79I9TKUGYFV09C","","null","<img src=""img/land3.png"" style=""width:200px; border:14px solid green;"">","null","","","","","","","","","",""
"","image-keyboard-response","140","97950","0.0-140.0","369J354OFEW336EBE692JLMIN8QG6D","AJ7MWBQFNH3E4","3UDTAB6HH6LRO17U79I9TKUGYFV09C","","377.7000000476837","img/land3.png","75","378.89999997615814","2","0","2","1","0.8,0.2,0.2,0.2,0.8,0.2,0.2,0.2,0.8","0.8,0.2,0.2,0.2,0.8,0.2,0.2,0.2,0.8","1","",""
"","html-keyboard-response","141","98256","0.0-141.0","369J354OFEW336EBE692JLMIN8QG6D","AJ7MWBQFNH3E4","3UDTAB6HH6LRO17U79I9TKUGYFV09C","","null","<img src=""img/land3.png"" style=""width:200px;border:14px solid red;"">","null","","","","","","","","","",""
"","image-keyboard-response","142","98834","0.0-142.0","369J354OFEW336EBE692JLMIN8QG6D","AJ7MWBQFNH3E4","3UDTAB6HH6LRO17U79I9TKUGYFV09C","","570.2999999523163","img/land1.png","76","576.3999999761581","3","1","3","1","0.8,0.2,0.2,0.2,0.8,0.2,0.2,0.2,0.8","0.8,0.2,0.2,0.2,0.8,0.2,0.2,0.2,0.8","1","",""
"","html-keyboard-response","143","99141","0.0-143.0","369J354OFEW336EBE692JLMIN8QG6D","AJ7MWBQFNH3E4","3UDTAB6HH6LRO17U79I9TKUGYFV09C","","null","<img src=""img/land1.png"" style=""width:200px; border:14px solid green;"">","null","","","","","","","","","",""
"","image-keyboard-response","144","99729","0.0-144.0","369J354OFEW336EBE692JLMIN8QG6D","AJ7MWBQFNH3E4","3UDTAB6HH6LRO17U79I9TKUGYFV09C","","581.2000000476837","img/land2.png","74","586.7000000476837","1","1","1","1","0.8,0.2,0.2,0.2,0.8,0.2,0.2,0.2,0.8","0.8,0.2,0.2,0.2,0.8,0.2,0.2,0.2,0.8","1","",""
"","html-keyboard-response","145","100032","0.0-145.0","369J354OFEW336EBE692JLMIN8QG6D","AJ7MWBQFNH3E4","3UDTAB6HH6LRO17U79I9TKUGYFV09C","","null","<img src=""img/land2.png"" style=""width:200px; border:14px solid green;"">","null","","","","","","","","","",""
"","image-keyboard-response","146","100447","0.0-146.0","369J354OFEW336EBE692JLMIN8QG6D","AJ7MWBQFNH3E4","3UDTAB6HH6LRO17U79I9TKUGYFV09C","","413.8000000715256","img/land2.png","74","415.10000002384186","1","1","1","1","0.8,0.2,0.2,0.2,0.8,0.2,0.2,0.2,0.8","0.8,0.2,0.2,0.2,0.8,0.2,0.2,0.2,0.8","1","",""
"","html-keyboard-response","147","100753","0.0-147.0","369J354OFEW336EBE692JLMIN8QG6D","AJ7MWBQFNH3E4","3UDTAB6HH6LRO17U79I9TKUGYFV09C","","null","<img src=""img/land2.png"" style=""width:200px; border:14px solid green;"">","null","","","","","","","","","",""
"","image-keyboard-response","148","101123","0.0-148.0","369J354OFEW336EBE692JLMIN8QG6D","AJ7MWBQFNH3E4","3UDTAB6HH6LRO17U79I9TKUGYFV09C","","367.2999999523163","img/land2.png","74","369.39999997615814","1","1","1","1","0.8,0.2,0.2,0.2,0.8,0.2,0.2,0.2,0.8","0.8,0.2,0.2,0.2,0.8,0.2,0.2,0.2,0.8","1","",""
"","html-keyboard-response","149","101427","0.0-149.0","369J354OFEW336EBE692JLMIN8QG6D","AJ7MWBQFNH3E4","3UDTAB6HH6LRO17U79I9TKUGYFV09C","","null","<img src=""img/land2.png"" style=""width:200px; border:14px solid green;"">","null","","","","","","","","","",""
"","image-keyboard-response","150","101972","0.0-150.0","369J354OFEW336EBE692JLMIN8QG6D","AJ7MWBQFNH3E4","3UDTAB6HH6LRO17U79I9TKUGYFV09C","","543.2999999523163","img/land1.png","76","545","3","1","3","1","0.8,0.2,0.2,0.2,0.8,0.2,0.2,0.2,0.8","0.8,0.2,0.2,0.2,0.8,0.2,0.2,0.2,0.8","1","",""
"","html-keyboard-response","151","102286","0.0-151.0","369J354OFEW336EBE692JLMIN8QG6D","AJ7MWBQFNH3E4","3UDTAB6HH6LRO17U79I9TKUGYFV09C","","null","<img src=""img/land1.png"" style=""width:200px; border:14px solid green;"">","null","","","","","","","","","",""
"","image-keyboard-response","152","102861","0.0-152.0","369J354OFEW336EBE692JLMIN8QG6D","AJ7MWBQFNH3E4","3UDTAB6HH6LRO17U79I9TKUGYFV09C","","572.8999999761581","img/land2.png","75","574.4000000953674","2","0","1","1","0.8,0.2,0.2,0.2,0.8,0.2,0.2,0.2,0.8","0.8,0.2,0.2,0.2,0.8,0.2,0.2,0.2,0.8","1","",""
"","html-keyboard-response","153","103169","0.0-153.0","369J354OFEW336EBE692JLMIN8QG6D","AJ7MWBQFNH3E4","3UDTAB6HH6LRO17U79I9TKUGYFV09C","","null","<img src=""img/land2.png"" style=""width:200px;border:14px solid red;"">","null","","","","","","","","","",""
"","image-keyboard-response","154","103986","0.0-154.0","369J354OFEW336EBE692JLMIN8QG6D","AJ7MWBQFNH3E4","3UDTAB6HH6LRO17U79I9TKUGYFV09C","","815.0999999046326","img/land1.png","76","816.7000000476837","3","1","3","1","0.8,0.2,0.2,0.2,0.8,0.2,0.2,0.2,0.8","0.8,0.2,0.2,0.2,0.8,0.2,0.2,0.2,0.8","1","",""
"","html-keyboard-response","155","104290","0.0-155.0","369J354OFEW336EBE692JLMIN8QG6D","AJ7MWBQFNH3E4","3UDTAB6HH6LRO17U79I9TKUGYFV09C","","null","<img src=""img/land1.png"" style=""width:200px; border:14px solid green;"">","null","","","","","","","","","",""
"","image-keyboard-response","156","104700","0.0-156.0","369J354OFEW336EBE692JLMIN8QG6D","AJ7MWBQFNH3E4","3UDTAB6HH6LRO17U79I9TKUGYFV09C","","407.7999999523163","img/land1.png","76","409.3000000715256","3","1","3","1","0.8,0.2,0.2,0.2,0.8,0.2,0.2,0.2,0.8","0.8,0.2,0.2,0.2,0.8,0.2,0.2,0.2,0.8","1","",""
"","html-keyboard-response","157","105021","0.0-157.0","369J354OFEW336EBE692JLMIN8QG6D","AJ7MWBQFNH3E4","3UDTAB6HH6LRO17U79I9TKUGYFV09C","","null","<img src=""img/land1.png"" style=""width:200px; border:14px solid green;"">","null","","","","","","","","","",""
"","image-keyboard-response","158","105418","0.0-158.0","369J354OFEW336EBE692JLMIN8QG6D","AJ7MWBQFNH3E4","3UDTAB6HH6LRO17U79I9TKUGYFV09C","","394.7999999523163","img/land1.png","76","396.1999999284744","3","0","3","1","0.8,0.2,0.2,0.2,0.8,0.2,0.2,0.2,0.8","0.8,0.2,0.2,0.2,0.8,0.2,0.2,0.2,0.8","1","",""
"","html-keyboard-response","159","105726","0.0-159.0","369J354OFEW336EBE692JLMIN8QG6D","AJ7MWBQFNH3E4","3UDTAB6HH6LRO17U79I9TKUGYFV09C","","null","<img src=""img/land1.png"" style=""width:200px;border:14px solid red;"">","null","","","","","","","","","",""
"","image-keyboard-response","160","106338","0.0-160.0","369J354OFEW336EBE692JLMIN8QG6D","AJ7MWBQFNH3E4","3UDTAB6HH6LRO17U79I9TKUGYFV09C","","610.2000000476837","img/land2.png","74","611.6000000238419","1","1","1","1","0.8,0.2,0.2,0.2,0.8,0.2,0.2,0.2,0.8","0.8,0.2,0.2,0.2,0.8,0.2,0.2,0.2,0.8","1","",""
"","html-keyboard-response","161","106653","0.0-161.0","369J354OFEW336EBE692JLMIN8QG6D","AJ7MWBQFNH3E4","3UDTAB6HH6LRO17U79I9TKUGYFV09C","","null","<img src=""img/land2.png"" style=""width:200px; border:14px solid green;"">","null","","","","","","","","","",""
"","image-keyboard-response","162","107257","0.0-162.0","369J354OFEW336EBE692JLMIN8QG6D","AJ7MWBQFNH3E4","3UDTAB6HH6LRO17U79I9TKUGYFV09C","","602.3999999761581","img/land1.png","76","603.6000000238419","3","1","3","1","0.8,0.2,0.2,0.2,0.8,0.2,0.2,0.2,0.8","0.8,0.2,0.2,0.2,0.8,0.2,0.2,0.2,0.8","1","",""
"","html-keyboard-response","163","107563","0.0-163.0","369J354OFEW336EBE692JLMIN8QG6D","AJ7MWBQFNH3E4","3UDTAB6HH6LRO17U79I9TKUGYFV09C","","null","<img src=""img/land1.png"" style=""width:200px; border:14px solid green;"">","null","","","","","","","","","",""
"","image-keyboard-response","164","108060","0.0-164.0","369J354OFEW336EBE692JLMIN8QG6D","AJ7MWBQFNH3E4","3UDTAB6HH6LRO17U79I9TKUGYFV09C","","496.1999999284744","img/land2.png","74","497.39999997615814","1","1","1","1","0.8,0.2,0.2,0.2,0.8,0.2,0.2,0.2,0.8","0.8,0.2,0.2,0.2,0.8,0.2,0.2,0.2,0.8","1","",""
"","html-keyboard-response","165","108370","0.0-165.0","369J354OFEW336EBE692JLMIN8QG6D","AJ7MWBQFNH3E4","3UDTAB6HH6LRO17U79I9TKUGYFV09C","","null","<img src=""img/land2.png"" style=""width:200px; border:14px solid green;"">","null","","","","","","","","","",""
"","image-keyboard-response","166","108852","0.0-166.0","369J354OFEW336EBE692JLMIN8QG6D","AJ7MWBQFNH3E4","3UDTAB6HH6LRO17U79I9TKUGYFV09C","","479","img/land1.png","76","480.7999999523163","3","1","3","1","0.8,0.2,0.2,0.2,0.8,0.2,0.2,0.2,0.8","0.8,0.2,0.2,0.2,0.8,0.2,0.2,0.2,0.8","1","",""
"","html-keyboard-response","167","109160","0.0-167.0","369J354OFEW336EBE692JLMIN8QG6D","AJ7MWBQFNH3E4","3UDTAB6HH6LRO17U79I9TKUGYFV09C","","null","<img src=""img/land1.png"" style=""width:200px; border:14px solid green;"">","null","","","","","","","","","",""
"","image-keyboard-response","168","109724","0.0-168.0","369J354OFEW336EBE692JLMIN8QG6D","AJ7MWBQFNH3E4","3UDTAB6HH6LRO17U79I9TKUGYFV09C","","562.5","img/land2.png","74","563.5","1","1","1","1","0.8,0.2,0.2,0.2,0.8,0.2,0.2,0.2,0.8","0.8,0.2,0.2,0.2,0.8,0.2,0.2,0.2,0.8","1","",""
"","html-keyboard-response","169","110042","0.0-169.0","369J354OFEW336EBE692JLMIN8QG6D","AJ7MWBQFNH3E4","3UDTAB6HH6LRO17U79I9TKUGYFV09C","","null","<img src=""img/land2.png"" style=""width:200px; border:14px solid green;"">","null","","","","","","","","","",""
"","image-keyboard-response","170","110569","0.0-170.0","369J354OFEW336EBE692JLMIN8QG6D","AJ7MWBQFNH3E4","3UDTAB6HH6LRO17U79I9TKUGYFV09C","","525.2000000476837","img/land3.png","75","527.7000000476837","2","1","2","1","0.8,0.2,0.2,0.2,0.8,0.2,0.2,0.2,0.8","0.8,0.2,0.2,0.2,0.8,0.2,0.2,0.2,0.8","1","",""
"","html-keyboard-response","171","110879","0.0-171.0","369J354OFEW336EBE692JLMIN8QG6D","AJ7MWBQFNH3E4","3UDTAB6HH6LRO17U79I9TKUGYFV09C","","null","<img src=""img/land3.png"" style=""width:200px; border:14px solid green;"">","null","","","","","","","","","",""
"","image-keyboard-response","172","111428","0.0-172.0","369J354OFEW336EBE692JLMIN8QG6D","AJ7MWBQFNH3E4","3UDTAB6HH6LRO17U79I9TKUGYFV09C","","547.2999999523163","img/land1.png","74","548.7999999523163","1","0","3","1","0.8,0.2,0.2,0.2,0.8,0.2,0.2,0.2,0.8","0.8,0.2,0.2,0.2,0.8,0.2,0.2,0.2,0.8","1","",""
"","html-keyboard-response","173","111738","0.0-173.0","369J354OFEW336EBE692JLMIN8QG6D","AJ7MWBQFNH3E4","3UDTAB6HH6LRO17U79I9TKUGYFV09C","","null","<img src=""img/land1.png"" style=""width:200px;border:14px solid red;"">","null","","","","","","","","","",""
"","image-keyboard-response","174","111812","0.0-174.0","369J354OFEW336EBE692JLMIN8QG6D","AJ7MWBQFNH3E4","3UDTAB6HH6LRO17U79I9TKUGYFV09C","","72.60000002384186","img/land1.png","76","73.70000004768372","3","1","3","1","0.8,0.2,0.2,0.2,0.8,0.2,0.2,0.2,0.8","0.8,0.2,0.2,0.2,0.8,0.2,0.2,0.2,0.8","1","",""
"","html-keyboard-response","175","112118","0.0-175.0","369J354OFEW336EBE692JLMIN8QG6D","AJ7MWBQFNH3E4","3UDTAB6HH6LRO17U79I9TKUGYFV09C","","null","<img src=""img/land1.png"" style=""width:200px; border:14px solid green;"">","null","","","","","","","","","",""
"","image-keyboard-response","176","112702","0.0-176.0","369J354OFEW336EBE692JLMIN8QG6D","AJ7MWBQFNH3E4","3UDTAB6HH6LRO17U79I9TKUGYFV09C","","581.7000000476837","img/land3.png","75","584","2","1","2","1","0.8,0.2,0.2,0.2,0.8,0.2,0.2,0.2,0.8","0.8,0.2,0.2,0.2,0.8,0.2,0.2,0.2,0.8","1","",""
"","html-keyboard-response","177","113009","0.0-177.0","369J354OFEW336EBE692JLMIN8QG6D","AJ7MWBQFNH3E4","3UDTAB6HH6LRO17U79I9TKUGYFV09C","","null","<img src=""img/land3.png"" style=""width:200px; border:14px solid green;"">","null","","","","","","","","","",""
"","image-keyboard-response","178","113476","0.0-178.0","369J354OFEW336EBE692JLMIN8QG6D","AJ7MWBQFNH3E4","3UDTAB6HH6LRO17U79I9TKUGYFV09C","","465.2000000476837","img/land3.png","75","466.7999999523163","2","0","2","1","0.8,0.2,0.2,0.2,0.8,0.2,0.2,0.2,0.8","0.8,0.2,0.2,0.2,0.8,0.2,0.2,0.2,0.8","1","",""
"","html-keyboard-response","179","113778","0.0-179.0","369J354OFEW336EBE692JLMIN8QG6D","AJ7MWBQFNH3E4","3UDTAB6HH6LRO17U79I9TKUGYFV09C","","null","<img src=""img/land3.png"" style=""width:200px;border:14px solid red;"">","null","","","","","","","","","",""
"","image-keyboard-response","180","114536","0.0-180.0","369J354OFEW336EBE692JLMIN8QG6D","AJ7MWBQFNH3E4","3UDTAB6HH6LRO17U79I9TKUGYFV09C","","755.6000000238419","img/land2.png","74","757.0999999046326","1","1","1","1","0.8,0.2,0.2,0.2,0.8,0.2,0.2,0.2,0.8","0.8,0.2,0.2,0.2,0.8,0.2,0.2,0.2,0.8","1","",""
"","html-keyboard-response","181","114847","0.0-181.0","369J354OFEW336EBE692JLMIN8QG6D","AJ7MWBQFNH3E4","3UDTAB6HH6LRO17U79I9TKUGYFV09C","","null","<img src=""img/land2.png"" style=""width:200px; border:14px solid green;"">","null","","","","","","","","","",""
"","html-keyboard-response","182","118361","0.0-182.0","369J354OFEW336EBE692JLMIN8QG6D","AJ7MWBQFNH3E4","3UDTAB6HH6LRO17U79I9TKUGYFV09C","","","","","","","","","","","","","",""
"","image-keyboard-response","183","119529","0.0-183.0","369J354OFEW336EBE692JLMIN8QG6D","AJ7MWBQFNH3E4","3UDTAB6HH6LRO17U79I9TKUGYFV09C","","1171.6000000238419","img/land6.png","74","1173.8999999761581","1","1","2","2","0.8,0.2,0.2,0.2,0.8,0.2,0.2,0.2,0.8","0.2,0.2,0.8,0.8,0.2,0.2,0.2,0.8,0.2","2","",""
"","html-keyboard-response","184","119833","0.0-184.0","369J354OFEW336EBE692JLMIN8QG6D","AJ7MWBQFNH3E4","3UDTAB6HH6LRO17U79I9TKUGYFV09C","","null","<img src=""img/land6.png"" style=""width:200px; border:14px solid green;"">","null","","","","","","","","","",""
"","image-keyboard-response","185","120737","0.0-185.0","369J354OFEW336EBE692JLMIN8QG6D","AJ7MWBQFNH3E4","3UDTAB6HH6LRO17U79I9TKUGYFV09C","","902.2999999523163","img/land4.png","75","903.7000000476837","2","0","1","2","0.8,0.2,0.2,0.2,0.8,0.2,0.2,0.2,0.8","0.2,0.2,0.8,0.8,0.2,0.2,0.2,0.8,0.2","2","",""
"","html-keyboard-response","186","121043","0.0-186.0","369J354OFEW336EBE692JLMIN8QG6D","AJ7MWBQFNH3E4","3UDTAB6HH6LRO17U79I9TKUGYFV09C","","null","<img src=""img/land4.png"" style=""width:200px;border:14px solid red;"">","null","","","","","","","","","",""
"","image-keyboard-response","187","121801","0.0-187.0","369J354OFEW336EBE692JLMIN8QG6D","AJ7MWBQFNH3E4","3UDTAB6HH6LRO17U79I9TKUGYFV09C","","756.3999999761581","img/land5.png","76","757.7000000476837","3","0","3","2","0.8,0.2,0.2,0.2,0.8,0.2,0.2,0.2,0.8","0.2,0.2,0.8,0.8,0.2,0.2,0.2,0.8,0.2","2","",""
"","html-keyboard-response","188","122106","0.0-188.0","369J354OFEW336EBE692JLMIN8QG6D","AJ7MWBQFNH3E4","3UDTAB6HH6LRO17U79I9TKUGYFV09C","","null","<img src=""img/land5.png"" style=""width:200px;border:14px solid red;"">","null","","","","","","","","","",""
"","image-keyboard-response","189","122621","0.0-189.0","369J354OFEW336EBE692JLMIN8QG6D","AJ7MWBQFNH3E4","3UDTAB6HH6LRO17U79I9TKUGYFV09C","","513.3000000715256","img/land6.png","74","515","1","1","2","2","0.8,0.2,0.2,0.2,0.8,0.2,0.2,0.2,0.8","0.2,0.2,0.8,0.8,0.2,0.2,0.2,0.8,0.2","2","",""
"","html-keyboard-response","190","122930","0.0-190.0","369J354OFEW336EBE692JLMIN8QG6D","AJ7MWBQFNH3E4","3UDTAB6HH6LRO17U79I9TKUGYFV09C","","null","<img src=""img/land6.png"" style=""width:200px; border:14px solid green;"">","null","","","","","","","","","",""
"","image-keyboard-response","191","123780","0.0-191.0","369J354OFEW336EBE692JLMIN8QG6D","AJ7MWBQFNH3E4","3UDTAB6HH6LRO17U79I9TKUGYFV09C","","847.7999999523163","img/land4.png","76","849.2999999523163","3","1","1","2","0.8,0.2,0.2,0.2,0.8,0.2,0.2,0.2,0.8","0.2,0.2,0.8,0.8,0.2,0.2,0.2,0.8,0.2","2","",""
"","html-keyboard-response","192","124082","0.0-192.0","369J354OFEW336EBE692JLMIN8QG6D","AJ7MWBQFNH3E4","3UDTAB6HH6LRO17U79I9TKUGYFV09C","","null","<img src=""img/land4.png"" style=""width:200px; border:14px solid green;"">","null","","","","","","","","","",""
"","image-keyboard-response","193","124828","0.0-193.0","369J354OFEW336EBE692JLMIN8QG6D","AJ7MWBQFNH3E4","3UDTAB6HH6LRO17U79I9TKUGYFV09C","","744.3999999761581","img/land5.png","75","746.2000000476837","2","0","3","2","0.8,0.2,0.2,0.2,0.8,0.2,0.2,0.2,0.8","0.2,0.2,0.8,0.8,0.2,0.2,0.2,0.8,0.2","2","",""
"","html-keyboard-response","194","125137","0.0-194.0","369J354OFEW336EBE692JLMIN8QG6D","AJ7MWBQFNH3E4","3UDTAB6HH6LRO17U79I9TKUGYFV09C","","null","<img src=""img/land5.png"" style=""width:200px;border:14px solid red;"">","null","","","","","","","","","",""
"","image-keyboard-response","195","125791","0.0-195.0","369J354OFEW336EBE692JLMIN8QG6D","AJ7MWBQFNH3E4","3UDTAB6HH6LRO17U79I9TKUGYFV09C","","652.6000000238419","img/land6.png","74","653.8999999761581","1","1","2","2","0.8,0.2,0.2,0.2,0.8,0.2,0.2,0.2,0.8","0.2,0.2,0.8,0.8,0.2,0.2,0.2,0.8,0.2","2","",""
"","html-keyboard-response","196","126102","0.0-196.0","369J354OFEW336EBE692JLMIN8QG6D","AJ7MWBQFNH3E4","3UDTAB6HH6LRO17U79I9TKUGYFV09C","","null","<img src=""img/land6.png"" style=""width:200px; border:14px solid green;"">","null","","","","","","","","","",""
"","image-keyboard-response","197","126621","0.0-197.0","369J354OFEW336EBE692JLMIN8QG6D","AJ7MWBQFNH3E4","3UDTAB6HH6LRO17U79I9TKUGYFV09C","","518.1000000238419","img/land4.png","76","519.5","3","1","1","2","0.8,0.2,0.2,0.2,0.8,0.2,0.2,0.2,0.8","0.2,0.2,0.8,0.8,0.2,0.2,0.2,0.8,0.2","2","",""
"","html-keyboard-response","198","126930","0.0-198.0","369J354OFEW336EBE692JLMIN8QG6D","AJ7MWBQFNH3E4","3UDTAB6HH6LRO17U79I9TKUGYFV09C","","null","<img src=""img/land4.png"" style=""width:200px; border:14px solid green;"">","null","","","","","","","","","",""
"","image-keyboard-response","199","127384","0.0-199.0","369J354OFEW336EBE692JLMIN8QG6D","AJ7MWBQFNH3E4","3UDTAB6HH6LRO17U79I9TKUGYFV09C","","452.5","img/land4.png","76","453.60000002384186","3","1","1","2","0.8,0.2,0.2,0.2,0.8,0.2,0.2,0.2,0.8","0.2,0.2,0.8,0.8,0.2,0.2,0.2,0.8,0.2","2","",""
"","html-keyboard-response","200","127697","0.0-200.0","369J354OFEW336EBE692JLMIN8QG6D","AJ7MWBQFNH3E4","3UDTAB6HH6LRO17U79I9TKUGYFV09C","","null","<img src=""img/land4.png"" style=""width:200px; border:14px solid green;"">","null","","","","","","","","","",""
"","image-keyboard-response","201","128516","0.0-201.0","369J354OFEW336EBE692JLMIN8QG6D","AJ7MWBQFNH3E4","3UDTAB6HH6LRO17U79I9TKUGYFV09C","","816.7000000476837","img/land6.png","74","818.2999999523163","1","1","2","2","0.8,0.2,0.2,0.2,0.8,0.2,0.2,0.2,0.8","0.2,0.2,0.8,0.8,0.2,0.2,0.2,0.8,0.2","2","",""
"","html-keyboard-response","202","128825","0.0-202.0","369J354OFEW336EBE692JLMIN8QG6D","AJ7MWBQFNH3E4","3UDTAB6HH6LRO17U79I9TKUGYFV09C","","null","<img src=""img/land6.png"" style=""width:200px; border:14px solid green;"">","null","","","","","","","","","",""
"","image-keyboard-response","203","129479","0.0-203.0","369J354OFEW336EBE692JLMIN8QG6D","AJ7MWBQFNH3E4","3UDTAB6HH6LRO17U79I9TKUGYFV09C","","652.5","img/land4.png","76","654","3","1","1","2","0.8,0.2,0.2,0.2,0.8,0.2,0.2,0.2,0.8","0.2,0.2,0.8,0.8,0.2,0.2,0.2,0.8,0.2","2","",""
"","html-keyboard-response","204","129786","0.0-204.0","369J354OFEW336EBE692JLMIN8QG6D","AJ7MWBQFNH3E4","3UDTAB6HH6LRO17U79I9TKUGYFV09C","","null","<img src=""img/land4.png"" style=""width:200px; border:14px solid green;"">","null","","","","","","","","","",""
"","image-keyboard-response","205","130191","0.0-205.0","369J354OFEW336EBE692JLMIN8QG6D","AJ7MWBQFNH3E4","3UDTAB6HH6LRO17U79I9TKUGYFV09C","","404","img/land4.png","76","405.3000000715256","3","1","1","2","0.8,0.2,0.2,0.2,0.8,0.2,0.2,0.2,0.8","0.2,0.2,0.8,0.8,0.2,0.2,0.2,0.8,0.2","2","",""
"","html-keyboard-response","206","130500","0.0-206.0","369J354OFEW336EBE692JLMIN8QG6D","AJ7MWBQFNH3E4","3UDTAB6HH6LRO17U79I9TKUGYFV09C","","null","<img src=""img/land4.png"" style=""width:200px; border:14px solid green;"">","null","","","","","","","","","",""
"","image-keyboard-response","207","130888","0.0-207.0","369J354OFEW336EBE692JLMIN8QG6D","AJ7MWBQFNH3E4","3UDTAB6HH6LRO17U79I9TKUGYFV09C","","386.39999997615814","img/land4.png","76","387.89999997615814","3","1","1","2","0.8,0.2,0.2,0.2,0.8,0.2,0.2,0.2,0.8","0.2,0.2,0.8,0.8,0.2,0.2,0.2,0.8,0.2","2","",""
"","html-keyboard-response","208","131192","0.0-208.0","369J354OFEW336EBE692JLMIN8QG6D","AJ7MWBQFNH3E4","3UDTAB6HH6LRO17U79I9TKUGYFV09C","","null","<img src=""img/land4.png"" style=""width:200px; border:14px solid green;"">","null","","","","","","","","","",""
"","image-keyboard-response","209","131566","0.0-209.0","369J354OFEW336EBE692JLMIN8QG6D","AJ7MWBQFNH3E4","3UDTAB6HH6LRO17U79I9TKUGYFV09C","","372.10000002384186","img/land4.png","76","373.5","3","1","1","2","0.8,0.2,0.2,0.2,0.8,0.2,0.2,0.2,0.8","0.2,0.2,0.8,0.8,0.2,0.2,0.2,0.8,0.2","2","",""
"","html-keyboard-response","210","131873","0.0-210.0","369J354OFEW336EBE692JLMIN8QG6D","AJ7MWBQFNH3E4","3UDTAB6HH6LRO17U79I9TKUGYFV09C","","null","<img src=""img/land4.png"" style=""width:200px; border:14px solid green;"">","null","","","","","","","","","",""
"","image-keyboard-response","211","132359","0.0-211.0","369J354OFEW336EBE692JLMIN8QG6D","AJ7MWBQFNH3E4","3UDTAB6HH6LRO17U79I9TKUGYFV09C","","484.5","img/land5.png","75","485.89999997615814","2","1","3","2","0.8,0.2,0.2,0.2,0.8,0.2,0.2,0.2,0.8","0.2,0.2,0.8,0.8,0.2,0.2,0.2,0.8,0.2","2","",""
"","html-keyboard-response","212","132670","0.0-212.0","369J354OFEW336EBE692JLMIN8QG6D","AJ7MWBQFNH3E4","3UDTAB6HH6LRO17U79I9TKUGYFV09C","","null","<img src=""img/land5.png"" style=""width:200px; border:14px solid green;"">","null","","","","","","","","","",""
"","image-keyboard-response","213","133724","0.0-213.0","369J354OFEW336EBE692JLMIN8QG6D","AJ7MWBQFNH3E4","3UDTAB6HH6LRO17U79I9TKUGYFV09C","","1052.9000000953674","img/land4.png","76","1054.5","3","1","1","2","0.8,0.2,0.2,0.2,0.8,0.2,0.2,0.2,0.8","0.2,0.2,0.8,0.8,0.2,0.2,0.2,0.8,0.2","2","",""
"","html-keyboard-response","214","134038","0.0-214.0","369J354OFEW336EBE692JLMIN8QG6D","AJ7MWBQFNH3E4","3UDTAB6HH6LRO17U79I9TKUGYFV09C","","null","<img src=""img/land4.png"" style=""width:200px; border:14px solid green;"">","null","","","","","","","","","",""
"","image-keyboard-response","215","134654","0.0-215.0","369J354OFEW336EBE692JLMIN8QG6D","AJ7MWBQFNH3E4","3UDTAB6HH6LRO17U79I9TKUGYFV09C","","614","img/land5.png","75","615.5","2","1","3","2","0.8,0.2,0.2,0.2,0.8,0.2,0.2,0.2,0.8","0.2,0.2,0.8,0.8,0.2,0.2,0.2,0.8,0.2","2","",""
"","html-keyboard-response","216","134962","0.0-216.0","369J354OFEW336EBE692JLMIN8QG6D","AJ7MWBQFNH3E4","3UDTAB6HH6LRO17U79I9TKUGYFV09C","","null","<img src=""img/land5.png"" style=""width:200px; border:14px solid green;"">","null","","","","","","","","","",""
"","image-keyboard-response","217","135572","0.0-217.0","369J354OFEW336EBE692JLMIN8QG6D","AJ7MWBQFNH3E4","3UDTAB6HH6LRO17U79I9TKUGYFV09C","","607.8000000715256","img/land6.png","74","609.5","1","0","2","2","0.8,0.2,0.2,0.2,0.8,0.2,0.2,0.2,0.8","0.2,0.2,0.8,0.8,0.2,0.2,0.2,0.8,0.2","2","",""
"","html-keyboard-response","218","135889","0.0-218.0","369J354OFEW336EBE692JLMIN8QG6D","AJ7MWBQFNH3E4","3UDTAB6HH6LRO17U79I9TKUGYFV09C","","null","<img src=""img/land6.png"" style=""width:200px;border:14px solid red;"">","null","","","","","","","","","",""
"","image-keyboard-response","219","136716","0.0-219.0","369J354OFEW336EBE692JLMIN8QG6D","AJ7MWBQFNH3E4","3UDTAB6HH6LRO17U79I9TKUGYFV09C","","825.1000000238419","img/land5.png","75","826.6000000238419","2","1","3","2","0.8,0.2,0.2,0.2,0.8,0.2,0.2,0.2,0.8","0.2,0.2,0.8,0.8,0.2,0.2,0.2,0.8,0.2","2","",""
"","html-keyboard-response","220","137030","0.0-220.0","369J354OFEW336EBE692JLMIN8QG6D","AJ7MWBQFNH3E4","3UDTAB6HH6LRO17U79I9TKUGYFV09C","","null","<img src=""img/land5.png"" style=""width:200px; border:14px solid green;"">","null","","","","","","","","","",""
"","image-keyboard-response","221","137516","0.0-221.0","369J354OFEW336EBE692JLMIN8QG6D","AJ7MWBQFNH3E4","3UDTAB6HH6LRO17U79I9TKUGYFV09C","","484","img/land4.png","76","485.8000000715256","3","1","1","2","0.8,0.2,0.2,0.2,0.8,0.2,0.2,0.2,0.8","0.2,0.2,0.8,0.8,0.2,0.2,0.2,0.8,0.2","2","",""
"","html-keyboard-response","222","137830","0.0-222.0","369J354OFEW336EBE692JLMIN8QG6D","AJ7MWBQFNH3E4","3UDTAB6HH6LRO17U79I9TKUGYFV09C","","null","<img src=""img/land4.png"" style=""width:200px; border:14px solid green;"">","null","","","","","","","","","",""
"","image-keyboard-response","223","138345","0.0-223.0","369J354OFEW336EBE692JLMIN8QG6D","AJ7MWBQFNH3E4","3UDTAB6HH6LRO17U79I9TKUGYFV09C","","513.2000000476837","img/land5.png","75","514.7999999523163","2","1","3","2","0.8,0.2,0.2,0.2,0.8,0.2,0.2,0.2,0.8","0.2,0.2,0.8,0.8,0.2,0.2,0.2,0.8,0.2","2","",""
"","html-keyboard-response","224","138653","0.0-224.0","369J354OFEW336EBE692JLMIN8QG6D","AJ7MWBQFNH3E4","3UDTAB6HH6LRO17U79I9TKUGYFV09C","","null","<img src=""img/land5.png"" style=""width:200px; border:14px solid green;"">","null","","","","","","","","","",""
"","image-keyboard-response","225","139038","0.0-225.0","369J354OFEW336EBE692JLMIN8QG6D","AJ7MWBQFNH3E4","3UDTAB6HH6LRO17U79I9TKUGYFV09C","","383.39999997615814","img/land5.png","75","385","2","1","3","2","0.8,0.2,0.2,0.2,0.8,0.2,0.2,0.2,0.8","0.2,0.2,0.8,0.8,0.2,0.2,0.2,0.8,0.2","2","",""
"","html-keyboard-response","226","139345","0.0-226.0","369J354OFEW336EBE692JLMIN8QG6D","AJ7MWBQFNH3E4","3UDTAB6HH6LRO17U79I9TKUGYFV09C","","null","<img src=""img/land5.png"" style=""width:200px; border:14px solid green;"">","null","","","","","","","","","",""
"","image-keyboard-response","227","139858","0.0-227.0","369J354OFEW336EBE692JLMIN8QG6D","AJ7MWBQFNH3E4","3UDTAB6HH6LRO17U79I9TKUGYFV09C","","510.6999999284744","img/land4.png","76","512.5","3","1","1","2","0.8,0.2,0.2,0.2,0.8,0.2,0.2,0.2,0.8","0.2,0.2,0.8,0.8,0.2,0.2,0.2,0.8,0.2","2","",""
"","html-keyboard-response","228","140161","0.0-228.0","369J354OFEW336EBE692JLMIN8QG6D","AJ7MWBQFNH3E4","3UDTAB6HH6LRO17U79I9TKUGYFV09C","","null","<img src=""img/land4.png"" style=""width:200px; border:14px solid green;"">","null","","","","","","","","","",""
"","image-keyboard-response","229","140591","0.0-229.0","369J354OFEW336EBE692JLMIN8QG6D","AJ7MWBQFNH3E4","3UDTAB6HH6LRO17U79I9TKUGYFV09C","","428.1999999284744","img/land4.png","76","429.60000002384186","3","1","1","2","0.8,0.2,0.2,0.2,0.8,0.2,0.2,0.2,0.8","0.2,0.2,0.8,0.8,0.2,0.2,0.2,0.8,0.2","2","",""
"","html-keyboard-response","230","140898","0.0-230.0","369J354OFEW336EBE692JLMIN8QG6D","AJ7MWBQFNH3E4","3UDTAB6HH6LRO17U79I9TKUGYFV09C","","null","<img src=""img/land4.png"" style=""width:200px; border:14px solid green;"">","null","","","","","","","","","",""
"","image-keyboard-response","231","141376","0.0-231.0","369J354OFEW336EBE692JLMIN8QG6D","AJ7MWBQFNH3E4","3UDTAB6HH6LRO17U79I9TKUGYFV09C","","476.2999999523163","img/land5.png","75","477.8000000715256","2","1","3","2","0.8,0.2,0.2,0.2,0.8,0.2,0.2,0.2,0.8","0.2,0.2,0.8,0.8,0.2,0.2,0.2,0.8,0.2","2","",""
"","html-keyboard-response","232","141685","0.0-232.0","369J354OFEW336EBE692JLMIN8QG6D","AJ7MWBQFNH3E4","3UDTAB6HH6LRO17U79I9TKUGYFV09C","","null","<img src=""img/land5.png"" style=""width:200px; border:14px solid green;"">","null","","","","","","","","","",""
"","image-keyboard-response","233","142150","0.0-233.0","369J354OFEW336EBE692JLMIN8QG6D","AJ7MWBQFNH3E4","3UDTAB6HH6LRO17U79I9TKUGYFV09C","","463.6999999284744","img/land6.png","76","464.89999997615814","3","0","2","2","0.8,0.2,0.2,0.2,0.8,0.2,0.2,0.2,0.8","0.2,0.2,0.8,0.8,0.2,0.2,0.2,0.8,0.2","2","",""
"","html-keyboard-response","234","142460","0.0-234.0","369J354OFEW336EBE692JLMIN8QG6D","AJ7MWBQFNH3E4","3UDTAB6HH6LRO17U79I9TKUGYFV09C","","null","<img src=""img/land6.png"" style=""width:200px;border:14px solid red;"">","null","","","","","","","","","",""
"","image-keyboard-response","235","142466","0.0-235.0","369J354OFEW336EBE692JLMIN8QG6D","AJ7MWBQFNH3E4","3UDTAB6HH6LRO17U79I9TKUGYFV09C","","5","img/land5.png","74","6","1","0","3","2","0.8,0.2,0.2,0.2,0.8,0.2,0.2,0.2,0.8","0.2,0.2,0.8,0.8,0.2,0.2,0.2,0.8,0.2","2","",""
"","html-keyboard-response","236","142773","0.0-236.0","369J354OFEW336EBE692JLMIN8QG6D","AJ7MWBQFNH3E4","3UDTAB6HH6LRO17U79I9TKUGYFV09C","","null","<img src=""img/land5.png"" style=""width:200px;border:14px solid red;"">","null","","","","","","","","","",""
"","image-keyboard-response","237","143294","0.0-237.0","369J354OFEW336EBE692JLMIN8QG6D","AJ7MWBQFNH3E4","3UDTAB6HH6LRO17U79I9TKUGYFV09C","","519.2999999523163","img/land4.png","75","520.3999999761581","2","0","1","2","0.8,0.2,0.2,0.2,0.8,0.2,0.2,0.2,0.8","0.2,0.2,0.8,0.8,0.2,0.2,0.2,0.8,0.2","2","",""
"","html-keyboard-response","238","143604","0.0-238.0","369J354OFEW336EBE692JLMIN8QG6D","AJ7MWBQFNH3E4","3UDTAB6HH6LRO17U79I9TKUGYFV09C","","null","<img src=""img/land4.png"" style=""width:200px;border:14px solid red;"">","null","","","","","","","","","",""
"","image-keyboard-response","239","143774","0.0-239.0","369J354OFEW336EBE692JLMIN8QG6D","AJ7MWBQFNH3E4","3UDTAB6HH6LRO17U79I9TKUGYFV09C","","168","img/land5.png","76","169.20000004768372","3","0","3","2","0.8,0.2,0.2,0.2,0.8,0.2,0.2,0.2,0.8","0.2,0.2,0.8,0.8,0.2,0.2,0.2,0.8,0.2","2","",""
"","html-keyboard-response","240","144079","0.0-240.0","369J354OFEW336EBE692JLMIN8QG6D","AJ7MWBQFNH3E4","3UDTAB6HH6LRO17U79I9TKUGYFV09C","","null","<img src=""img/land5.png"" style=""width:200px;border:14px solid red;"">","null","","","","","","","","","",""
"","image-keyboard-response","241","144878","0.0-241.0","369J354OFEW336EBE692JLMIN8QG6D","AJ7MWBQFNH3E4","3UDTAB6HH6LRO17U79I9TKUGYFV09C","","797.2999999523163","img/land4.png","76","798.6000000238419","3","1","1","2","0.8,0.2,0.2,0.2,0.8,0.2,0.2,0.2,0.8","0.2,0.2,0.8,0.8,0.2,0.2,0.2,0.8,0.2","2","",""
"","html-keyboard-response","242","145181","0.0-242.0","369J354OFEW336EBE692JLMIN8QG6D","AJ7MWBQFNH3E4","3UDTAB6HH6LRO17U79I9TKUGYFV09C","","null","<img src=""img/land4.png"" style=""width:200px; border:14px solid green;"">","null","","","","","","","","","",""
"","image-keyboard-response","243","145567","0.0-243.0","369J354OFEW336EBE692JLMIN8QG6D","AJ7MWBQFNH3E4","3UDTAB6HH6LRO17U79I9TKUGYFV09C","","384.2000000476837","img/land4.png","76","385.89999997615814","3","1","1","2","0.8,0.2,0.2,0.2,0.8,0.2,0.2,0.2,0.8","0.2,0.2,0.8,0.8,0.2,0.2,0.2,0.8,0.2","2","",""
"","html-keyboard-response","244","145871","0.0-244.0","369J354OFEW336EBE692JLMIN8QG6D","AJ7MWBQFNH3E4","3UDTAB6HH6LRO17U79I9TKUGYFV09C","","null","<img src=""img/land4.png"" style=""width:200px; border:14px solid green;"">","null","","","","","","","","","",""
"","image-keyboard-response","245","146186","0.0-245.0","369J354OFEW336EBE692JLMIN8QG6D","AJ7MWBQFNH3E4","3UDTAB6HH6LRO17U79I9TKUGYFV09C","","313","img/land4.png","76","314.10000002384186","3","0","1","2","0.8,0.2,0.2,0.2,0.8,0.2,0.2,0.2,0.8","0.2,0.2,0.8,0.8,0.2,0.2,0.2,0.8,0.2","2","",""
"","html-keyboard-response","246","146491","0.0-246.0","369J354OFEW336EBE692JLMIN8QG6D","AJ7MWBQFNH3E4","3UDTAB6HH6LRO17U79I9TKUGYFV09C","","null","<img src=""img/land4.png"" style=""width:200px;border:14px solid red;"">","null","","","","","","","","","",""
"","image-keyboard-response","247","147175","0.0-247.0","369J354OFEW336EBE692JLMIN8QG6D","AJ7MWBQFNH3E4","3UDTAB6HH6LRO17U79I9TKUGYFV09C","","682.3999999761581","img/land6.png","74","683.7999999523163","1","1","2","2","0.8,0.2,0.2,0.2,0.8,0.2,0.2,0.2,0.8","0.2,0.2,0.8,0.8,0.2,0.2,0.2,0.8,0.2","2","",""
"","html-keyboard-response","248","147484","0.0-248.0","369J354OFEW336EBE692JLMIN8QG6D","AJ7MWBQFNH3E4","3UDTAB6HH6LRO17U79I9TKUGYFV09C","","null","<img src=""img/land6.png"" style=""width:200px; border:14px solid green;"">","null","","","","","","","","","",""
"","image-keyboard-response","249","148298","0.0-249.0","369J354OFEW336EBE692JLMIN8QG6D","AJ7MWBQFNH3E4","3UDTAB6HH6LRO17U79I9TKUGYFV09C","","813","img/land4.png","76","814.0999999046326","3","1","1","2","0.8,0.2,0.2,0.2,0.8,0.2,0.2,0.2,0.8","0.2,0.2,0.8,0.8,0.2,0.2,0.2,0.8,0.2","2","",""
"","html-keyboard-response","250","148603","0.0-250.0","369J354OFEW336EBE692JLMIN8QG6D","AJ7MWBQFNH3E4","3UDTAB6HH6LRO17U79I9TKUGYFV09C","","null","<img src=""img/land4.png"" style=""width:200px; border:14px solid green;"">","null","","","","","","","","","",""
"","image-keyboard-response","251","148999","0.0-251.0","369J354OFEW336EBE692JLMIN8QG6D","AJ7MWBQFNH3E4","3UDTAB6HH6LRO17U79I9TKUGYFV09C","","393.60000002384186","img/land4.png","76","395.09999990463257","3","1","1","2","0.8,0.2,0.2,0.2,0.8,0.2,0.2,0.2,0.8","0.2,0.2,0.8,0.8,0.2,0.2,0.2,0.8,0.2","2","",""
"","html-keyboard-response","252","149304","0.0-252.0","369J354OFEW336EBE692JLMIN8QG6D","AJ7MWBQFNH3E4","3UDTAB6HH6LRO17U79I9TKUGYFV09C","","null","<img src=""img/land4.png"" style=""width:200px; border:14px solid green;"">","null","","","","","","","","","",""
"","image-keyboard-response","253","149663","0.0-253.0","369J354OFEW336EBE692JLMIN8QG6D","AJ7MWBQFNH3E4","3UDTAB6HH6LRO17U79I9TKUGYFV09C","","357.5","img/land4.png","76","359.10000002384186","3","1","1","2","0.8,0.2,0.2,0.2,0.8,0.2,0.2,0.2,0.8","0.2,0.2,0.8,0.8,0.2,0.2,0.2,0.8,0.2","2","",""
"","html-keyboard-response","254","149968","0.0-254.0","369J354OFEW336EBE692JLMIN8QG6D","AJ7MWBQFNH3E4","3UDTAB6HH6LRO17U79I9TKUGYFV09C","","null","<img src=""img/land4.png"" style=""width:200px; border:14px solid green;"">","null","","","","","","","","","",""
"","image-keyboard-response","255","150637","0.0-255.0","369J354OFEW336EBE692JLMIN8QG6D","AJ7MWBQFNH3E4","3UDTAB6HH6LRO17U79I9TKUGYFV09C","","667.3999999761581","img/land6.png","74","668.7000000476837","1","1","2","2","0.8,0.2,0.2,0.2,0.8,0.2,0.2,0.2,0.8","0.2,0.2,0.8,0.8,0.2,0.2,0.2,0.8,0.2","2","",""
"","html-keyboard-response","256","150939","0.0-256.0","369J354OFEW336EBE692JLMIN8QG6D","AJ7MWBQFNH3E4","3UDTAB6HH6LRO17U79I9TKUGYFV09C","","null","<img src=""img/land6.png"" style=""width:200px; border:14px solid green;"">","null","","","","","","","","","",""
"","image-keyboard-response","257","151580","0.0-257.0","369J354OFEW336EBE692JLMIN8QG6D","AJ7MWBQFNH3E4","3UDTAB6HH6LRO17U79I9TKUGYFV09C","","639.8999999761581","img/land4.png","76","641.2000000476837","3","0","1","2","0.8,0.2,0.2,0.2,0.8,0.2,0.2,0.2,0.8","0.2,0.2,0.8,0.8,0.2,0.2,0.2,0.8,0.2","2","",""
"","html-keyboard-response","258","151888","0.0-258.0","369J354OFEW336EBE692JLMIN8QG6D","AJ7MWBQFNH3E4","3UDTAB6HH6LRO17U79I9TKUGYFV09C","","null","<img src=""img/land4.png"" style=""width:200px;border:14px solid red;"">","null","","","","","","","","","",""
"","image-keyboard-response","259","152569","0.0-259.0","369J354OFEW336EBE692JLMIN8QG6D","AJ7MWBQFNH3E4","3UDTAB6HH6LRO17U79I9TKUGYFV09C","","680","img/land4.png","76","681.2000000476837","3","1","1","2","0.8,0.2,0.2,0.2,0.8,0.2,0.2,0.2,0.8","0.2,0.2,0.8,0.8,0.2,0.2,0.2,0.8,0.2","2","",""
"","html-keyboard-response","260","152879","0.0-260.0","369J354OFEW336EBE692JLMIN8QG6D","AJ7MWBQFNH3E4","3UDTAB6HH6LRO17U79I9TKUGYFV09C","","null","<img src=""img/land4.png"" style=""width:200px; border:14px solid green;"">","null","","","","","","","","","",""
"","image-keyboard-response","261","153460","0.0-261.0","369J354OFEW336EBE692JLMIN8QG6D","AJ7MWBQFNH3E4","3UDTAB6HH6LRO17U79I9TKUGYFV09C","","579.1000000238419","img/land6.png","74","580.3999999761581","1","1","2","2","0.8,0.2,0.2,0.2,0.8,0.2,0.2,0.2,0.8","0.2,0.2,0.8,0.8,0.2,0.2,0.2,0.8,0.2","2","",""
"","html-keyboard-response","262","153778","0.0-262.0","369J354OFEW336EBE692JLMIN8QG6D","AJ7MWBQFNH3E4","3UDTAB6HH6LRO17U79I9TKUGYFV09C","","null","<img src=""img/land6.png"" style=""width:200px; border:14px solid green;"">","null","","","","","","","","","",""
"","image-keyboard-response","263","154372","0.0-263.0","369J354OFEW336EBE692JLMIN8QG6D","AJ7MWBQFNH3E4","3UDTAB6HH6LRO17U79I9TKUGYFV09C","","593","img/land4.png","76","594.1000000238419","3","1","1","2","0.8,0.2,0.2,0.2,0.8,0.2,0.2,0.2,0.8","0.2,0.2,0.8,0.8,0.2,0.2,0.2,0.8,0.2","2","",""
"","html-keyboard-response","264","154676","0.0-264.0","369J354OFEW336EBE692JLMIN8QG6D","AJ7MWBQFNH3E4","3UDTAB6HH6LRO17U79I9TKUGYFV09C","","null","<img src=""img/land4.png"" style=""width:200px; border:14px solid green;"">","null","","","","","","","","","",""
"","image-keyboard-response","265","155192","0.0-265.0","369J354OFEW336EBE692JLMIN8QG6D","AJ7MWBQFNH3E4","3UDTAB6HH6LRO17U79I9TKUGYFV09C","","514.3999999761581","img/land6.png","74","515.5","1","1","2","2","0.8,0.2,0.2,0.2,0.8,0.2,0.2,0.2,0.8","0.2,0.2,0.8,0.8,0.2,0.2,0.2,0.8,0.2","2","",""
"","html-keyboard-response","266","155495","0.0-266.0","369J354OFEW336EBE692JLMIN8QG6D","AJ7MWBQFNH3E4","3UDTAB6HH6LRO17U79I9TKUGYFV09C","","null","<img src=""img/land6.png"" style=""width:200px; border:14px solid green;"">","null","","","","","","","","","",""
"","image-keyboard-response","267","155982","0.0-267.0","369J354OFEW336EBE692JLMIN8QG6D","AJ7MWBQFNH3E4","3UDTAB6HH6LRO17U79I9TKUGYFV09C","","485.2000000476837","img/land4.png","76","487.2999999523163","3","1","1","2","0.8,0.2,0.2,0.2,0.8,0.2,0.2,0.2,0.8","0.2,0.2,0.8,0.8,0.2,0.2,0.2,0.8,0.2","2","",""
"","html-keyboard-response","268","156287","0.0-268.0","369J354OFEW336EBE692JLMIN8QG6D","AJ7MWBQFNH3E4","3UDTAB6HH6LRO17U79I9TKUGYFV09C","","null","<img src=""img/land4.png"" style=""width:200px; border:14px solid green;"">","null","","","","","","","","","",""
"","image-keyboard-response","269","156831","0.0-269.0","369J354OFEW336EBE692JLMIN8QG6D","AJ7MWBQFNH3E4","3UDTAB6HH6LRO17U79I9TKUGYFV09C","","542.2999999523163","img/land5.png","75","543.8999999761581","2","1","3","2","0.8,0.2,0.2,0.2,0.8,0.2,0.2,0.2,0.8","0.2,0.2,0.8,0.8,0.2,0.2,0.2,0.8,0.2","2","",""
"","html-keyboard-response","270","157139","0.0-270.0","369J354OFEW336EBE692JLMIN8QG6D","AJ7MWBQFNH3E4","3UDTAB6HH6LRO17U79I9TKUGYFV09C","","null","<img src=""img/land5.png"" style=""width:200px; border:14px solid green;"">","null","","","","","","","","","",""
"","image-keyboard-response","271","157684","0.0-271.0","369J354OFEW336EBE692JLMIN8QG6D","AJ7MWBQFNH3E4","3UDTAB6HH6LRO17U79I9TKUGYFV09C","","543.2999999523163","img/land4.png","74","544.5","1","0","1","2","0.8,0.2,0.2,0.2,0.8,0.2,0.2,0.2,0.8","0.2,0.2,0.8,0.8,0.2,0.2,0.2,0.8,0.2","2","",""
"","html-keyboard-response","272","157994","0.0-272.0","369J354OFEW336EBE692JLMIN8QG6D","AJ7MWBQFNH3E4","3UDTAB6HH6LRO17U79I9TKUGYFV09C","","null","<img src=""img/land4.png"" style=""width:200px;border:14px solid red;"">","null","","","","","","","","","",""
"","image-keyboard-response","273","158485","0.0-273.0","369J354OFEW336EBE692JLMIN8QG6D","AJ7MWBQFNH3E4","3UDTAB6HH6LRO17U79I9TKUGYFV09C","","488.89999997615814","img/land4.png","76","490.10000002384186","3","1","1","2","0.8,0.2,0.2,0.2,0.8,0.2,0.2,0.2,0.8","0.2,0.2,0.8,0.8,0.2,0.2,0.2,0.8,0.2","2","",""
"","html-keyboard-response","274","158802","0.0-274.0","369J354OFEW336EBE692JLMIN8QG6D","AJ7MWBQFNH3E4","3UDTAB6HH6LRO17U79I9TKUGYFV09C","","null","<img src=""img/land4.png"" style=""width:200px; border:14px solid green;"">","null","","","","","","","","","",""
"","image-keyboard-response","275","159243","0.0-275.0","369J354OFEW336EBE692JLMIN8QG6D","AJ7MWBQFNH3E4","3UDTAB6HH6LRO17U79I9TKUGYFV09C","","440.10000002384186","img/land4.png","76","441.5","3","1","1","2","0.8,0.2,0.2,0.2,0.8,0.2,0.2,0.2,0.8","0.2,0.2,0.8,0.8,0.2,0.2,0.2,0.8,0.2","2","",""
"","html-keyboard-response","276","159550","0.0-276.0","369J354OFEW336EBE692JLMIN8QG6D","AJ7MWBQFNH3E4","3UDTAB6HH6LRO17U79I9TKUGYFV09C","","null","<img src=""img/land4.png"" style=""width:200px; border:14px solid green;"">","null","","","","","","","","","",""
"","image-keyboard-response","277","160003","0.0-277.0","369J354OFEW336EBE692JLMIN8QG6D","AJ7MWBQFNH3E4","3UDTAB6HH6LRO17U79I9TKUGYFV09C","","450.39999997615814","img/land6.png","74","452","1","1","2","2","0.8,0.2,0.2,0.2,0.8,0.2,0.2,0.2,0.8","0.2,0.2,0.8,0.8,0.2,0.2,0.2,0.8,0.2","2","",""
"","html-keyboard-response","278","160311","0.0-278.0","369J354OFEW336EBE692JLMIN8QG6D","AJ7MWBQFNH3E4","3UDTAB6HH6LRO17U79I9TKUGYFV09C","","null","<img src=""img/land6.png"" style=""width:200px; border:14px solid green;"">","null","","","","","","","","","",""
"","image-keyboard-response","279","160972","0.0-279.0","369J354OFEW336EBE692JLMIN8QG6D","AJ7MWBQFNH3E4","3UDTAB6HH6LRO17U79I9TKUGYFV09C","","659.1999999284744","img/land5.png","75","660.7000000476837","2","1","3","2","0.8,0.2,0.2,0.2,0.8,0.2,0.2,0.2,0.8","0.2,0.2,0.8,0.8,0.2,0.2,0.2,0.8,0.2","2","",""
"","html-keyboard-response","280","161285","0.0-280.0","369J354OFEW336EBE692JLMIN8QG6D","AJ7MWBQFNH3E4","3UDTAB6HH6LRO17U79I9TKUGYFV09C","","null","<img src=""img/land5.png"" style=""width:200px; border:14px solid green;"">","null","","","","","","","","","",""
"","image-keyboard-response","281","161911","0.0-281.0","369J354OFEW336EBE692JLMIN8QG6D","AJ7MWBQFNH3E4","3UDTAB6HH6LRO17U79I9TKUGYFV09C","","624.1000000238419","img/land6.png","74","625.8999999761581","1","1","2","2","0.8,0.2,0.2,0.2,0.8,0.2,0.2,0.2,0.8","0.2,0.2,0.8,0.8,0.2,0.2,0.2,0.8,0.2","2","",""
"","html-keyboard-response","282","162215","0.0-282.0","369J354OFEW336EBE692JLMIN8QG6D","AJ7MWBQFNH3E4","3UDTAB6HH6LRO17U79I9TKUGYFV09C","","null","<img src=""img/land6.png"" style=""width:200px; border:14px solid green;"">","null","","","","","","","","","",""
"","image-keyboard-response","283","163082","0.0-283.0","369J354OFEW336EBE692JLMIN8QG6D","AJ7MWBQFNH3E4","3UDTAB6HH6LRO17U79I9TKUGYFV09C","","862.5","img/land4.png","76","866.8000000715256","3","0","1","2","0.8,0.2,0.2,0.2,0.8,0.2,0.2,0.2,0.8","0.2,0.2,0.8,0.8,0.2,0.2,0.2,0.8,0.2","2","",""
"","html-keyboard-response","284","163392","0.0-284.0","369J354OFEW336EBE692JLMIN8QG6D","AJ7MWBQFNH3E4","3UDTAB6HH6LRO17U79I9TKUGYFV09C","","null","<img src=""img/land4.png"" style=""width:200px;border:14px solid red;"">","null","","","","","","","","","",""
"","image-keyboard-response","285","164049","0.0-285.0","369J354OFEW336EBE692JLMIN8QG6D","AJ7MWBQFNH3E4","3UDTAB6HH6LRO17U79I9TKUGYFV09C","","654.5","img/land5.png","75","657.3000000715256","2","1","3","2","0.8,0.2,0.2,0.2,0.8,0.2,0.2,0.2,0.8","0.2,0.2,0.8,0.8,0.2,0.2,0.2,0.8,0.2","2","",""
"","html-keyboard-response","286","164359","0.0-286.0","369J354OFEW336EBE692JLMIN8QG6D","AJ7MWBQFNH3E4","3UDTAB6HH6LRO17U79I9TKUGYFV09C","","null","<img src=""img/land5.png"" style=""width:200px; border:14px solid green;"">","null","","","","","","","","","",""
"","image-keyboard-response","287","165352","0.0-287.0","369J354OFEW336EBE692JLMIN8QG6D","AJ7MWBQFNH3E4","3UDTAB6HH6LRO17U79I9TKUGYFV09C","","991.1999999284744","img/land4.png","76","992.5","3","1","1","2","0.8,0.2,0.2,0.2,0.8,0.2,0.2,0.2,0.8","0.2,0.2,0.8,0.8,0.2,0.2,0.2,0.8,0.2","2","",""
"","html-keyboard-response","288","165665","0.0-288.0","369J354OFEW336EBE692JLMIN8QG6D","AJ7MWBQFNH3E4","3UDTAB6HH6LRO17U79I9TKUGYFV09C","","null","<img src=""img/land4.png"" style=""width:200px; border:14px solid green;"">","null","","","","","","","","","",""
"","image-keyboard-response","289","166442","0.0-289.0","369J354OFEW336EBE692JLMIN8QG6D","AJ7MWBQFNH3E4","3UDTAB6HH6LRO17U79I9TKUGYFV09C","","775.1999999284744","img/land4.png","76","776.7999999523163","3","0","1","2","0.8,0.2,0.2,0.2,0.8,0.2,0.2,0.2,0.8","0.2,0.2,0.8,0.8,0.2,0.2,0.2,0.8,0.2","2","",""
"","html-keyboard-response","290","166748","0.0-290.0","369J354OFEW336EBE692JLMIN8QG6D","AJ7MWBQFNH3E4","3UDTAB6HH6LRO17U79I9TKUGYFV09C","","null","<img src=""img/land4.png"" style=""width:200px;border:14px solid red;"">","null","","","","","","","","","",""
"","image-keyboard-response","291","167285","0.0-291.0","369J354OFEW336EBE692JLMIN8QG6D","AJ7MWBQFNH3E4","3UDTAB6HH6LRO17U79I9TKUGYFV09C","","534.8999999761581","img/land5.png","74","537.2000000476837","1","1","3","2","0.8,0.2,0.2,0.2,0.8,0.2,0.2,0.2,0.8","0.2,0.2,0.8,0.8,0.2,0.2,0.2,0.8,0.2","2","",""
"","html-keyboard-response","292","167592","0.0-292.0","369J354OFEW336EBE692JLMIN8QG6D","AJ7MWBQFNH3E4","3UDTAB6HH6LRO17U79I9TKUGYFV09C","","null","<img src=""img/land5.png"" style=""width:200px; border:14px solid green;"">","null","","","","","","","","","",""
"","image-keyboard-response","293","168289","0.0-293.0","369J354OFEW336EBE692JLMIN8QG6D","AJ7MWBQFNH3E4","3UDTAB6HH6LRO17U79I9TKUGYFV09C","","695","img/land4.png","76","696.1999999284744","3","0","1","2","0.8,0.2,0.2,0.2,0.8,0.2,0.2,0.2,0.8","0.2,0.2,0.8,0.8,0.2,0.2,0.2,0.8,0.2","2","",""
"","html-keyboard-response","294","168596","0.0-294.0","369J354OFEW336EBE692JLMIN8QG6D","AJ7MWBQFNH3E4","3UDTAB6HH6LRO17U79I9TKUGYFV09C","","null","<img src=""img/land4.png"" style=""width:200px;border:14px solid red;"">","null","","","","","","","","","",""
"","image-keyboard-response","295","168953","0.0-295.0","369J354OFEW336EBE692JLMIN8QG6D","AJ7MWBQFNH3E4","3UDTAB6HH6LRO17U79I9TKUGYFV09C","","355.09999990463257","img/land4.png","76","356.39999997615814","3","1","1","2","0.8,0.2,0.2,0.2,0.8,0.2,0.2,0.2,0.8","0.2,0.2,0.8,0.8,0.2,0.2,0.2,0.8,0.2","2","",""
"","html-keyboard-response","296","169260","0.0-296.0","369J354OFEW336EBE692JLMIN8QG6D","AJ7MWBQFNH3E4","3UDTAB6HH6LRO17U79I9TKUGYFV09C","","null","<img src=""img/land4.png"" style=""width:200px; border:14px solid green;"">","null","","","","","","","","","",""
"","image-keyboard-response","297","169773","0.0-297.0","369J354OFEW336EBE692JLMIN8QG6D","AJ7MWBQFNH3E4","3UDTAB6HH6LRO17U79I9TKUGYFV09C","","511.09999990463257","img/land4.png","76","512.5","3","1","1","2","0.8,0.2,0.2,0.2,0.8,0.2,0.2,0.2,0.8","0.2,0.2,0.8,0.8,0.2,0.2,0.2,0.8,0.2","2","",""
"","html-keyboard-response","298","170077","0.0-298.0","369J354OFEW336EBE692JLMIN8QG6D","AJ7MWBQFNH3E4","3UDTAB6HH6LRO17U79I9TKUGYFV09C","","null","<img src=""img/land4.png"" style=""width:200px; border:14px solid green;"">","null","","","","","","","","","",""
"","image-keyboard-response","299","170577","0.0-299.0","369J354OFEW336EBE692JLMIN8QG6D","AJ7MWBQFNH3E4","3UDTAB6HH6LRO17U79I9TKUGYFV09C","","498.2999999523163","img/land6.png","75","499.39999997615814","2","1","2","2","0.8,0.2,0.2,0.2,0.8,0.2,0.2,0.2,0.8","0.2,0.2,0.8,0.8,0.2,0.2,0.2,0.8,0.2","2","",""
"","html-keyboard-response","300","170888","0.0-300.0","369J354OFEW336EBE692JLMIN8QG6D","AJ7MWBQFNH3E4","3UDTAB6HH6LRO17U79I9TKUGYFV09C","","null","<img src=""img/land6.png"" style=""width:200px; border:14px solid green;"">","null","","","","","","","","","",""
"","image-keyboard-response","301","171835","0.0-301.0","369J354OFEW336EBE692JLMIN8QG6D","AJ7MWBQFNH3E4","3UDTAB6HH6LRO17U79I9TKUGYFV09C","","945.6000000238419","img/land4.png","76","946.8999999761581","3","1","1","2","0.8,0.2,0.2,0.2,0.8,0.2,0.2,0.2,0.8","0.2,0.2,0.8,0.8,0.2,0.2,0.2,0.8,0.2","2","",""
"","html-keyboard-response","302","172137","0.0-302.0","369J354OFEW336EBE692JLMIN8QG6D","AJ7MWBQFNH3E4","3UDTAB6HH6LRO17U79I9TKUGYFV09C","","null","<img src=""img/land4.png"" style=""width:200px; border:14px solid green;"">","null","","","","","","","","","",""
"","image-keyboard-response","303","172575","0.0-303.0","369J354OFEW336EBE692JLMIN8QG6D","AJ7MWBQFNH3E4","3UDTAB6HH6LRO17U79I9TKUGYFV09C","","436.2999999523163","img/land4.png","76","437.5","3","0","1","2","0.8,0.2,0.2,0.2,0.8,0.2,0.2,0.2,0.8","0.2,0.2,0.8,0.8,0.2,0.2,0.2,0.8,0.2","2","",""
"","html-keyboard-response","304","172878","0.0-304.0","369J354OFEW336EBE692JLMIN8QG6D","AJ7MWBQFNH3E4","3UDTAB6HH6LRO17U79I9TKUGYFV09C","","null","<img src=""img/land4.png"" style=""width:200px;border:14px solid red;"">","null","","","","","","","","","",""
"","image-keyboard-response","305","173432","0.0-305.0","369J354OFEW336EBE692JLMIN8QG6D","AJ7MWBQFNH3E4","3UDTAB6HH6LRO17U79I9TKUGYFV09C","","552.5","img/land6.png","74","554.0999999046326","1","1","2","2","0.8,0.2,0.2,0.2,0.8,0.2,0.2,0.2,0.8","0.2,0.2,0.8,0.8,0.2,0.2,0.2,0.8,0.2","2","",""
"","html-keyboard-response","306","173734","0.0-306.0","369J354OFEW336EBE692JLMIN8QG6D","AJ7MWBQFNH3E4","3UDTAB6HH6LRO17U79I9TKUGYFV09C","","null","<img src=""img/land6.png"" style=""width:200px; border:14px solid green;"">","null","","","","","","","","","",""
"","image-keyboard-response","307","174398","0.0-307.0","369J354OFEW336EBE692JLMIN8QG6D","AJ7MWBQFNH3E4","3UDTAB6HH6LRO17U79I9TKUGYFV09C","","662","img/land4.png","76","663.2999999523163","3","0","1","2","0.8,0.2,0.2,0.2,0.8,0.2,0.2,0.2,0.8","0.2,0.2,0.8,0.8,0.2,0.2,0.2,0.8,0.2","2","",""
"","html-keyboard-response","308","174703","0.0-308.0","369J354OFEW336EBE692JLMIN8QG6D","AJ7MWBQFNH3E4","3UDTAB6HH6LRO17U79I9TKUGYFV09C","","null","<img src=""img/land4.png"" style=""width:200px;border:14px solid red;"">","null","","","","","","","","","",""
"","image-keyboard-response","309","175113","0.0-309.0","369J354OFEW336EBE692JLMIN8QG6D","AJ7MWBQFNH3E4","3UDTAB6HH6LRO17U79I9TKUGYFV09C","","408.89999997615814","img/land4.png","76","410.2000000476837","3","1","1","2","0.8,0.2,0.2,0.2,0.8,0.2,0.2,0.2,0.8","0.2,0.2,0.8,0.8,0.2,0.2,0.2,0.8,0.2","2","",""
"","html-keyboard-response","310","175417","0.0-310.0","369J354OFEW336EBE692JLMIN8QG6D","AJ7MWBQFNH3E4","3UDTAB6HH6LRO17U79I9TKUGYFV09C","","null","<img src=""img/land4.png"" style=""width:200px; border:14px solid green;"">","null","","","","","","","","","",""
"","image-keyboard-response","311","175838","0.0-311.0","369J354OFEW336EBE692JLMIN8QG6D","AJ7MWBQFNH3E4","3UDTAB6HH6LRO17U79I9TKUGYFV09C","","418.10000002384186","img/land5.png","75","419.6999999284744","2","1","3","2","0.8,0.2,0.2,0.2,0.8,0.2,0.2,0.2,0.8","0.2,0.2,0.8,0.8,0.2,0.2,0.2,0.8,0.2","2","",""
"","html-keyboard-response","312","176141","0.0-312.0","369J354OFEW336EBE692JLMIN8QG6D","AJ7MWBQFNH3E4","3UDTAB6HH6LRO17U79I9TKUGYFV09C","","null","<img src=""img/land5.png"" style=""width:200px; border:14px solid green;"">","null","","","","","","","","","",""
"","image-keyboard-response","313","176797","0.0-313.0","369J354OFEW336EBE692JLMIN8QG6D","AJ7MWBQFNH3E4","3UDTAB6HH6LRO17U79I9TKUGYFV09C","","653.5","img/land4.png","76","655.0999999046326","3","0","1","2","0.8,0.2,0.2,0.2,0.8,0.2,0.2,0.2,0.8","0.2,0.2,0.8,0.8,0.2,0.2,0.2,0.8,0.2","2","",""
"","html-keyboard-response","314","177106","0.0-314.0","369J354OFEW336EBE692JLMIN8QG6D","AJ7MWBQFNH3E4","3UDTAB6HH6LRO17U79I9TKUGYFV09C","","null","<img src=""img/land4.png"" style=""width:200px;border:14px solid red;"">","null","","","","","","","","","",""
"","image-keyboard-response","315","177516","0.0-315.0","369J354OFEW336EBE692JLMIN8QG6D","AJ7MWBQFNH3E4","3UDTAB6HH6LRO17U79I9TKUGYFV09C","","408.60000002384186","img/land4.png","76","410.10000002384186","3","1","1","2","0.8,0.2,0.2,0.2,0.8,0.2,0.2,0.2,0.8","0.2,0.2,0.8,0.8,0.2,0.2,0.2,0.8,0.2","2","",""
"","html-keyboard-response","316","177819","0.0-316.0","369J354OFEW336EBE692JLMIN8QG6D","AJ7MWBQFNH3E4","3UDTAB6HH6LRO17U79I9TKUGYFV09C","","null","<img src=""img/land4.png"" style=""width:200px; border:14px solid green;"">","null","","","","","","","","","",""
"","image-keyboard-response","317","178314","0.0-317.0","369J354OFEW336EBE692JLMIN8QG6D","AJ7MWBQFNH3E4","3UDTAB6HH6LRO17U79I9TKUGYFV09C","","493.2999999523163","img/land4.png","76","494.60000002384186","3","1","1","2","0.8,0.2,0.2,0.2,0.8,0.2,0.2,0.2,0.8","0.2,0.2,0.8,0.8,0.2,0.2,0.2,0.8,0.2","2","",""
"","html-keyboard-response","318","178619","0.0-318.0","369J354OFEW336EBE692JLMIN8QG6D","AJ7MWBQFNH3E4","3UDTAB6HH6LRO17U79I9TKUGYFV09C","","null","<img src=""img/land4.png"" style=""width:200px; border:14px solid green;"">","null","","","","","","","","","",""
"","image-keyboard-response","319","179014","0.0-319.0","369J354OFEW336EBE692JLMIN8QG6D","AJ7MWBQFNH3E4","3UDTAB6HH6LRO17U79I9TKUGYFV09C","","393.2999999523163","img/land4.png","76","394.60000002384186","3","1","1","2","0.8,0.2,0.2,0.2,0.8,0.2,0.2,0.2,0.8","0.2,0.2,0.8,0.8,0.2,0.2,0.2,0.8,0.2","2","",""
"","html-keyboard-response","320","179322","0.0-320.0","369J354OFEW336EBE692JLMIN8QG6D","AJ7MWBQFNH3E4","3UDTAB6HH6LRO17U79I9TKUGYFV09C","","null","<img src=""img/land4.png"" style=""width:200px; border:14px solid green;"">","null","","","","","","","","","",""
"","image-keyboard-response","321","179714","0.0-321.0","369J354OFEW336EBE692JLMIN8QG6D","AJ7MWBQFNH3E4","3UDTAB6HH6LRO17U79I9TKUGYFV09C","","385.2000000476837","img/land4.png","76","386.5","3","1","1","2","0.8,0.2,0.2,0.2,0.8,0.2,0.2,0.2,0.8","0.2,0.2,0.8,0.8,0.2,0.2,0.2,0.8,0.2","2","",""
"","html-keyboard-response","322","180022","0.0-322.0","369J354OFEW336EBE692JLMIN8QG6D","AJ7MWBQFNH3E4","3UDTAB6HH6LRO17U79I9TKUGYFV09C","","null","<img src=""img/land4.png"" style=""width:200px; border:14px solid green;"">","null","","","","","","","","","",""
"","image-keyboard-response","323","180357","0.0-323.0","369J354OFEW336EBE692JLMIN8QG6D","AJ7MWBQFNH3E4","3UDTAB6HH6LRO17U79I9TKUGYFV09C","","333.6999999284744","img/land4.png","76","335","3","1","1","2","0.8,0.2,0.2,0.2,0.8,0.2,0.2,0.2,0.8","0.2,0.2,0.8,0.8,0.2,0.2,0.2,0.8,0.2","2","",""
"","html-keyboard-response","324","180662","0.0-324.0","369J354OFEW336EBE692JLMIN8QG6D","AJ7MWBQFNH3E4","3UDTAB6HH6LRO17U79I9TKUGYFV09C","","null","<img src=""img/land4.png"" style=""width:200px; border:14px solid green;"">","null","","","","","","","","","",""
"","image-keyboard-response","325","181332","0.0-325.0","369J354OFEW336EBE692JLMIN8QG6D","AJ7MWBQFNH3E4","3UDTAB6HH6LRO17U79I9TKUGYFV09C","","668.3000000715256","img/land5.png","75","669.6999999284744","2","1","3","2","0.8,0.2,0.2,0.2,0.8,0.2,0.2,0.2,0.8","0.2,0.2,0.8,0.8,0.2,0.2,0.2,0.8,0.2","2","",""
"","html-keyboard-response","326","181649","0.0-326.0","369J354OFEW336EBE692JLMIN8QG6D","AJ7MWBQFNH3E4","3UDTAB6HH6LRO17U79I9TKUGYFV09C","","null","<img src=""img/land5.png"" style=""width:200px; border:14px solid green;"">","null","","","","","","","","","",""
"","image-keyboard-response","327","182247","0.0-327.0","369J354OFEW336EBE692JLMIN8QG6D","AJ7MWBQFNH3E4","3UDTAB6HH6LRO17U79I9TKUGYFV09C","","596.3000000715256","img/land6.png","74","598.0999999046326","1","1","2","2","0.8,0.2,0.2,0.2,0.8,0.2,0.2,0.2,0.8","0.2,0.2,0.8,0.8,0.2,0.2,0.2,0.8,0.2","2","",""
"","html-keyboard-response","328","182555","0.0-328.0","369J354OFEW336EBE692JLMIN8QG6D","AJ7MWBQFNH3E4","3UDTAB6HH6LRO17U79I9TKUGYFV09C","","null","<img src=""img/land6.png"" style=""width:200px; border:14px solid green;"">","null","","","","","","","","","",""
"","image-keyboard-response","329","182957","0.0-329.0","369J354OFEW336EBE692JLMIN8QG6D","AJ7MWBQFNH3E4","3UDTAB6HH6LRO17U79I9TKUGYFV09C","","399.7999999523163","img/land6.png","74","401.2000000476837","1","1","2","2","0.8,0.2,0.2,0.2,0.8,0.2,0.2,0.2,0.8","0.2,0.2,0.8,0.8,0.2,0.2,0.2,0.8,0.2","2","",""
"","html-keyboard-response","330","183261","0.0-330.0","369J354OFEW336EBE692JLMIN8QG6D","AJ7MWBQFNH3E4","3UDTAB6HH6LRO17U79I9TKUGYFV09C","","null","<img src=""img/land6.png"" style=""width:200px; border:14px solid green;"">","null","","","","","","","","","",""
"","image-keyboard-response","331","183900","0.0-331.0","369J354OFEW336EBE692JLMIN8QG6D","AJ7MWBQFNH3E4","3UDTAB6HH6LRO17U79I9TKUGYFV09C","","637.2999999523163","img/land4.png","76","639.3999999761581","3","1","1","2","0.8,0.2,0.2,0.2,0.8,0.2,0.2,0.2,0.8","0.2,0.2,0.8,0.8,0.2,0.2,0.2,0.8,0.2","2","",""
"","html-keyboard-response","332","184202","0.0-332.0","369J354OFEW336EBE692JLMIN8QG6D","AJ7MWBQFNH3E4","3UDTAB6HH6LRO17U79I9TKUGYFV09C","","null","<img src=""img/land4.png"" style=""width:200px; border:14px solid green;"">","null","","","","","","","","","",""
"","image-keyboard-response","333","184744","0.0-333.0","369J354OFEW336EBE692JLMIN8QG6D","AJ7MWBQFNH3E4","3UDTAB6HH6LRO17U79I9TKUGYFV09C","","538.2000000476837","img/land6.png","74","541.5","1","1","2","2","0.8,0.2,0.2,0.2,0.8,0.2,0.2,0.2,0.8","0.2,0.2,0.8,0.8,0.2,0.2,0.2,0.8,0.2","2","",""
"","html-keyboard-response","334","185049","0.0-334.0","369J354OFEW336EBE692JLMIN8QG6D","AJ7MWBQFNH3E4","3UDTAB6HH6LRO17U79I9TKUGYFV09C","","null","<img src=""img/land6.png"" style=""width:200px; border:14px solid green;"">","null","","","","","","","","","",""
"","image-keyboard-response","335","185913","0.0-335.0","369J354OFEW336EBE692JLMIN8QG6D","AJ7MWBQFNH3E4","3UDTAB6HH6LRO17U79I9TKUGYFV09C","","862.6000000238419","img/land4.png","76","864.2000000476837","3","1","1","2","0.8,0.2,0.2,0.2,0.8,0.2,0.2,0.2,0.8","0.2,0.2,0.8,0.8,0.2,0.2,0.2,0.8,0.2","2","",""
"","html-keyboard-response","336","186216","0.0-336.0","369J354OFEW336EBE692JLMIN8QG6D","AJ7MWBQFNH3E4","3UDTAB6HH6LRO17U79I9TKUGYFV09C","","null","<img src=""img/land4.png"" style=""width:200px; border:14px solid green;"">","null","","","","","","","","","",""
"","image-keyboard-response","337","186641","0.0-337.0","369J354OFEW336EBE692JLMIN8QG6D","AJ7MWBQFNH3E4","3UDTAB6HH6LRO17U79I9TKUGYFV09C","","423.90000009536743","img/land4.png","76","425.2999999523163","3","1","1","2","0.8,0.2,0.2,0.2,0.8,0.2,0.2,0.2,0.8","0.2,0.2,0.8,0.8,0.2,0.2,0.2,0.8,0.2","2","",""
"","html-keyboard-response","338","186949","0.0-338.0","369J354OFEW336EBE692JLMIN8QG6D","AJ7MWBQFNH3E4","3UDTAB6HH6LRO17U79I9TKUGYFV09C","","null","<img src=""img/land4.png"" style=""width:200px; border:14px solid green;"">","null","","","","","","","","","",""
"","image-keyboard-response","339","187555","0.0-339.0","369J354OFEW336EBE692JLMIN8QG6D","AJ7MWBQFNH3E4","3UDTAB6HH6LRO17U79I9TKUGYFV09C","","604.8000000715256","img/land5.png","75","606.2999999523163","2","1","3","2","0.8,0.2,0.2,0.2,0.8,0.2,0.2,0.2,0.8","0.2,0.2,0.8,0.8,0.2,0.2,0.2,0.8,0.2","2","",""
"","html-keyboard-response","340","187859","0.0-340.0","369J354OFEW336EBE692JLMIN8QG6D","AJ7MWBQFNH3E4","3UDTAB6HH6LRO17U79I9TKUGYFV09C","","null","<img src=""img/land5.png"" style=""width:200px; border:14px solid green;"">","null","","","","","","","","","",""
"","image-keyboard-response","341","188310","0.0-341.0","369J354OFEW336EBE692JLMIN8QG6D","AJ7MWBQFNH3E4","3UDTAB6HH6LRO17U79I9TKUGYFV09C","","449.6999999284744","img/land5.png","75","450.8000000715256","2","1","3","2","0.8,0.2,0.2,0.2,0.8,0.2,0.2,0.2,0.8","0.2,0.2,0.8,0.8,0.2,0.2,0.2,0.8,0.2","2","",""
"","html-keyboard-response","342","188615","0.0-342.0","369J354OFEW336EBE692JLMIN8QG6D","AJ7MWBQFNH3E4","3UDTAB6HH6LRO17U79I9TKUGYFV09C","","null","<img src=""img/land5.png"" style=""width:200px; border:14px solid green;"">","null","","","","","","","","","",""
"","image-keyboard-response","343","189273","0.0-343.0","369J354OFEW336EBE692JLMIN8QG6D","AJ7MWBQFNH3E4","3UDTAB6HH6LRO17U79I9TKUGYFV09C","","657.0999999046326","img/land4.png","76","658.2999999523163","3","1","1","2","0.8,0.2,0.2,0.2,0.8,0.2,0.2,0.2,0.8","0.2,0.2,0.8,0.8,0.2,0.2,0.2,0.8,0.2","2","",""
"","html-keyboard-response","344","189580","0.0-344.0","369J354OFEW336EBE692JLMIN8QG6D","AJ7MWBQFNH3E4","3UDTAB6HH6LRO17U79I9TKUGYFV09C","","null","<img src=""img/land4.png"" style=""width:200px; border:14px solid green;"">","null","","","","","","","","","",""
"","image-keyboard-response","345","190078","0.0-345.0","369J354OFEW336EBE692JLMIN8QG6D","AJ7MWBQFNH3E4","3UDTAB6HH6LRO17U79I9TKUGYFV09C","","496.60000002384186","img/land4.png","76","498.10000002384186","3","1","1","2","0.8,0.2,0.2,0.2,0.8,0.2,0.2,0.2,0.8","0.2,0.2,0.8,0.8,0.2,0.2,0.2,0.8,0.2","2","",""
"","html-keyboard-response","346","190397","0.0-346.0","369J354OFEW336EBE692JLMIN8QG6D","AJ7MWBQFNH3E4","3UDTAB6HH6LRO17U79I9TKUGYFV09C","","null","<img src=""img/land4.png"" style=""width:200px; border:14px solid green;"">","null","","","","","","","","","",""
"","image-keyboard-response","347","190983","0.0-347.0","369J354OFEW336EBE692JLMIN8QG6D","AJ7MWBQFNH3E4","3UDTAB6HH6LRO17U79I9TKUGYFV09C","","584","img/land5.png","75","585.6999999284744","2","1","3","2","0.8,0.2,0.2,0.2,0.8,0.2,0.2,0.2,0.8","0.2,0.2,0.8,0.8,0.2,0.2,0.2,0.8,0.2","2","",""
"","html-keyboard-response","348","191287","0.0-348.0","369J354OFEW336EBE692JLMIN8QG6D","AJ7MWBQFNH3E4","3UDTAB6HH6LRO17U79I9TKUGYFV09C","","null","<img src=""img/land5.png"" style=""width:200px; border:14px solid green;"">","null","","","","","","","","","",""
"","image-keyboard-response","349","191902","0.0-349.0","369J354OFEW336EBE692JLMIN8QG6D","AJ7MWBQFNH3E4","3UDTAB6HH6LRO17U79I9TKUGYFV09C","","612.3999999761581","img/land6.png","74","614.5","1","1","2","2","0.8,0.2,0.2,0.2,0.8,0.2,0.2,0.2,0.8","0.2,0.2,0.8,0.8,0.2,0.2,0.2,0.8,0.2","2","",""
"","html-keyboard-response","350","192215","0.0-350.0","369J354OFEW336EBE692JLMIN8QG6D","AJ7MWBQFNH3E4","3UDTAB6HH6LRO17U79I9TKUGYFV09C","","null","<img src=""img/land6.png"" style=""width:200px; border:14px solid green;"">","null","","","","","","","","","",""
"","image-keyboard-response","351","192622","0.0-351.0","369J354OFEW336EBE692JLMIN8QG6D","AJ7MWBQFNH3E4","3UDTAB6HH6LRO17U79I9TKUGYFV09C","","405","img/land6.png","74","406.5","1","1","2","2","0.8,0.2,0.2,0.2,0.8,0.2,0.2,0.2,0.8","0.2,0.2,0.8,0.8,0.2,0.2,0.2,0.8,0.2","2","",""
"","html-keyboard-response","352","192928","0.0-352.0","369J354OFEW336EBE692JLMIN8QG6D","AJ7MWBQFNH3E4","3UDTAB6HH6LRO17U79I9TKUGYFV09C","","null","<img src=""img/land6.png"" style=""width:200px; border:14px solid green;"">","null","","","","","","","","","",""
"","image-keyboard-response","353","193575","0.0-353.0","369J354OFEW336EBE692JLMIN8QG6D","AJ7MWBQFNH3E4","3UDTAB6HH6LRO17U79I9TKUGYFV09C","","645.2000000476837","img/land5.png","75","646.8999999761581","2","1","3","2","0.8,0.2,0.2,0.2,0.8,0.2,0.2,0.2,0.8","0.2,0.2,0.8,0.8,0.2,0.2,0.2,0.8,0.2","2","",""
"","html-keyboard-response","354","193881","0.0-354.0","369J354OFEW336EBE692JLMIN8QG6D","AJ7MWBQFNH3E4","3UDTAB6HH6LRO17U79I9TKUGYFV09C","","null","<img src=""img/land5.png"" style=""width:200px; border:14px solid green;"">","null","","","","","","","","","",""
"","image-keyboard-response","355","194618","0.0-355.0","369J354OFEW336EBE692JLMIN8QG6D","AJ7MWBQFNH3E4","3UDTAB6HH6LRO17U79I9TKUGYFV09C","","735.8999999761581","img/land6.png","74","737.5","1","1","2","2","0.8,0.2,0.2,0.2,0.8,0.2,0.2,0.2,0.8","0.2,0.2,0.8,0.8,0.2,0.2,0.2,0.8,0.2","2","",""
"","html-keyboard-response","356","194929","0.0-356.0","369J354OFEW336EBE692JLMIN8QG6D","AJ7MWBQFNH3E4","3UDTAB6HH6LRO17U79I9TKUGYFV09C","","null","<img src=""img/land6.png"" style=""width:200px; border:14px solid green;"">","null","","","","","","","","","",""
