"success","trial_type","trial_index","time_elapsed","internal_node_id","assignmentID","mturkID","hitID","view_history","rt","stimulus","key_press","reactionTime","a","r","s","cond","reward_cond","reward_cond_actual","reward_matrix_idx","responses","question_order"
"true","fullscreen","0","2509","0.0-0.0","3NS0A6KXC5U5RGYMGB6DGJFDSHNZGX","AK2XJWYN3PF2V","37SDSEDIN9ORHL92Y0GV7TIFJ2X187","","","","","","","","","","","","","",""
"","instructions","1","12261","0.0-1.0","3NS0A6KXC5U5RGYMGB6DGJFDSHNZGX","AK2XJWYN3PF2V","37SDSEDIN9ORHL92Y0GV7TIFJ2X187","[{""page_index"":0,""viewing_time"":1550},{""page_index"":1,""viewing_time"":651.8999999761581},{""page_index"":2,""viewing_time"":611.7999999523163},{""page_index"":3,""viewing_time"":1768},{""page_index"":4,""viewing_time"":1726},{""page_index"":5,""viewing_time"":1083.1000000238419},{""page_index"":6,""viewing_time"":2355}]","9746.699999928474","","","","","","","","","","","",""
"","image-keyboard-response","2","12821","0.0-2.0","3NS0A6KXC5U5RGYMGB6DGJFDSHNZGX","AK2XJWYN3PF2V","37SDSEDIN9ORHL92Y0GV7TIFJ2X187","","555.3999999761581","img/land4.png","75","559.1000000238419","2","1","1","2","0.8,0.2,0.2,0.2,0.8,0.2,0.2,0.2,0.8","0.8,0.2,0.2,0.2,0.8,0.2,0.2,0.2,0.8","1","",""
"","html-keyboard-response","3","13127","0.0-3.0","3NS0A6KXC5U5RGYMGB6DGJFDSHNZGX","AK2XJWYN3PF2V","37SDSEDIN9ORHL92Y0GV7TIFJ2X187","","null","<img src=""img/land4.png"" style=""width:200px; border:14px solid green;"">","null","","","","","","","","","",""
"","image-keyboard-response","4","13735","0.0-4.0","3NS0A6KXC5U5RGYMGB6DGJFDSHNZGX","AK2XJWYN3PF2V","37SDSEDIN9ORHL92Y0GV7TIFJ2X187","","605.2000000476837","img/land1.png","74","607.2000000476837","1","0","3","2","0.8,0.2,0.2,0.2,0.8,0.2,0.2,0.2,0.8","0.8,0.2,0.2,0.2,0.8,0.2,0.2,0.2,0.8","1","",""
"","html-keyboard-response","5","14038","0.0-5.0","3NS0A6KXC5U5RGYMGB6DGJFDSHNZGX","AK2XJWYN3PF2V","37SDSEDIN9ORHL92Y0GV7TIFJ2X187","","null","<img src=""img/land1.png"" style=""width:200px;border:14px solid red;"">","null","","","","","","","","","",""
"","image-keyboard-response","6","14979","0.0-6.0","3NS0A6KXC5U5RGYMGB6DGJFDSHNZGX","AK2XJWYN3PF2V","37SDSEDIN9ORHL92Y0GV7TIFJ2X187","","938.3999999761581","img/land2.png","74","940.6999999284744","1","0","2","2","0.8,0.2,0.2,0.2,0.8,0.2,0.2,0.2,0.8","0.8,0.2,0.2,0.2,0.8,0.2,0.2,0.2,0.8","1","",""
"","html-keyboard-response","7","15282","0.0-7.0","3NS0A6KXC5U5RGYMGB6DGJFDSHNZGX","AK2XJWYN3PF2V","37SDSEDIN9ORHL92Y0GV7TIFJ2X187","","null","<img src=""img/land2.png"" style=""width:200px;border:14px solid red;"">","null","","","","","","","","","",""
"","image-keyboard-response","8","15683","0.0-8.0","3NS0A6KXC5U5RGYMGB6DGJFDSHNZGX","AK2XJWYN3PF2V","37SDSEDIN9ORHL92Y0GV7TIFJ2X187","","399.10000002384186","img/land4.png","76","400.5","3","0","1","2","0.8,0.2,0.2,0.2,0.8,0.2,0.2,0.2,0.8","0.8,0.2,0.2,0.2,0.8,0.2,0.2,0.2,0.8","1","",""
"","html-keyboard-response","9","15986","0.0-9.0","3NS0A6KXC5U5RGYMGB6DGJFDSHNZGX","AK2XJWYN3PF2V","37SDSEDIN9ORHL92Y0GV7TIFJ2X187","","null","<img src=""img/land4.png"" style=""width:200px;border:14px solid red;"">","null","","","","","","","","","",""
"","image-keyboard-response","10","16072","0.0-10.0","3NS0A6KXC5U5RGYMGB6DGJFDSHNZGX","AK2XJWYN3PF2V","37SDSEDIN9ORHL92Y0GV7TIFJ2X187","","84.5","img/land4.png","75","85.5","2","0","1","2","0.8,0.2,0.2,0.2,0.8,0.2,0.2,0.2,0.8","0.8,0.2,0.2,0.2,0.8,0.2,0.2,0.2,0.8","1","",""
"","html-keyboard-response","11","16374","0.0-11.0","3NS0A6KXC5U5RGYMGB6DGJFDSHNZGX","AK2XJWYN3PF2V","37SDSEDIN9ORHL92Y0GV7TIFJ2X187","","null","<img src=""img/land4.png"" style=""width:200px;border:14px solid red;"">","null","","","","","","","","","",""
"","image-keyboard-response","12","16545","0.0-12.0","3NS0A6KXC5U5RGYMGB6DGJFDSHNZGX","AK2XJWYN3PF2V","37SDSEDIN9ORHL92Y0GV7TIFJ2X187","","167.80000007152557","img/land4.png","74","169.80000007152557","1","1","1","2","0.8,0.2,0.2,0.2,0.8,0.2,0.2,0.2,0.8","0.8,0.2,0.2,0.2,0.8,0.2,0.2,0.2,0.8","1","",""
"","html-keyboard-response","13","16847","0.0-13.0","3NS0A6KXC5U5RGYMGB6DGJFDSHNZGX","AK2XJWYN3PF2V","37SDSEDIN9ORHL92Y0GV7TIFJ2X187","","null","<img src=""img/land4.png"" style=""width:200px; border:14px solid green;"">","null","","","","","","","","","",""
"","image-keyboard-response","14","17119","0.0-14.0","3NS0A6KXC5U5RGYMGB6DGJFDSHNZGX","AK2XJWYN3PF2V","37SDSEDIN9ORHL92Y0GV7TIFJ2X187","","270","img/land2.png","75","270.89999997615814","2","1","2","2","0.8,0.2,0.2,0.2,0.8,0.2,0.2,0.2,0.8","0.8,0.2,0.2,0.2,0.8,0.2,0.2,0.2,0.8","1","",""
"","html-keyboard-response","15","17422","0.0-15.0","3NS0A6KXC5U5RGYMGB6DGJFDSHNZGX","AK2XJWYN3PF2V","37SDSEDIN9ORHL92Y0GV7TIFJ2X187","","null","<img src=""img/land2.png"" style=""width:200px; border:14px solid green;"">","null","","","","","","","","","",""
"","image-keyboard-response","16","17771","0.0-16.0","3NS0A6KXC5U5RGYMGB6DGJFDSHNZGX","AK2XJWYN3PF2V","37SDSEDIN9ORHL92Y0GV7TIFJ2X187","","346.2999999523163","img/land4.png","75","348.40000009536743","2","0","1","2","0.8,0.2,0.2,0.2,0.8,0.2,0.2,0.2,0.8","0.8,0.2,0.2,0.2,0.8,0.2,0.2,0.2,0.8","1","",""
"","html-keyboard-response","17","18073","0.0-17.0","3NS0A6KXC5U5RGYMGB6DGJFDSHNZGX","AK2XJWYN3PF2V","37SDSEDIN9ORHL92Y0GV7TIFJ2X187","","null","<img src=""img/land4.png"" style=""width:200px;border:14px solid red;"">","null","","","","","","","","","",""
"","image-keyboard-response","18","18194","0.0-18.0","3NS0A6KXC5U5RGYMGB6DGJFDSHNZGX","AK2XJWYN3PF2V","37SDSEDIN9ORHL92Y0GV7TIFJ2X187","","118.30000007152557","img/land4.png","76","120.20000004768372","3","0","1","2","0.8,0.2,0.2,0.2,0.8,0.2,0.2,0.2,0.8","0.8,0.2,0.2,0.2,0.8,0.2,0.2,0.2,0.8","1","",""
"","html-keyboard-response","19","18496","0.0-19.0","3NS0A6KXC5U5RGYMGB6DGJFDSHNZGX","AK2XJWYN3PF2V","37SDSEDIN9ORHL92Y0GV7TIFJ2X187","","null","<img src=""img/land4.png"" style=""width:200px;border:14px solid red;"">","null","","","","","","","","","",""
"","image-keyboard-response","20","18620","0.0-20.0","3NS0A6KXC5U5RGYMGB6DGJFDSHNZGX","AK2XJWYN3PF2V","37SDSEDIN9ORHL92Y0GV7TIFJ2X187","","120.29999995231628","img/land2.png","74","122.60000002384186","1","0","2","2","0.8,0.2,0.2,0.2,0.8,0.2,0.2,0.2,0.8","0.8,0.2,0.2,0.2,0.8,0.2,0.2,0.2,0.8","1","",""
"","html-keyboard-response","21","18924","0.0-21.0","3NS0A6KXC5U5RGYMGB6DGJFDSHNZGX","AK2XJWYN3PF2V","37SDSEDIN9ORHL92Y0GV7TIFJ2X187","","null","<img src=""img/land2.png"" style=""width:200px;border:14px solid red;"">","null","","","","","","","","","",""
"","image-keyboard-response","22","19093","0.0-22.0","3NS0A6KXC5U5RGYMGB6DGJFDSHNZGX","AK2XJWYN3PF2V","37SDSEDIN9ORHL92Y0GV7TIFJ2X187","","165.80000007152557","img/land4.png","74","168","1","1","1","2","0.8,0.2,0.2,0.2,0.8,0.2,0.2,0.2,0.8","0.8,0.2,0.2,0.2,0.8,0.2,0.2,0.2,0.8","1","",""
"","html-keyboard-response","23","19396","0.0-23.0","3NS0A6KXC5U5RGYMGB6DGJFDSHNZGX","AK2XJWYN3PF2V","37SDSEDIN9ORHL92Y0GV7TIFJ2X187","","null","<img src=""img/land4.png"" style=""width:200px; border:14px solid green;"">","null","","","","","","","","","",""
"","image-keyboard-response","24","19514","0.0-24.0","3NS0A6KXC5U5RGYMGB6DGJFDSHNZGX","AK2XJWYN3PF2V","37SDSEDIN9ORHL92Y0GV7TIFJ2X187","","115.5","img/land4.png","74","117.70000004768372","1","1","1","2","0.8,0.2,0.2,0.2,0.8,0.2,0.2,0.2,0.8","0.8,0.2,0.2,0.2,0.8,0.2,0.2,0.2,0.8","1","",""
"","html-keyboard-response","25","19818","0.0-25.0","3NS0A6KXC5U5RGYMGB6DGJFDSHNZGX","AK2XJWYN3PF2V","37SDSEDIN9ORHL92Y0GV7TIFJ2X187","","null","<img src=""img/land4.png"" style=""width:200px; border:14px solid green;"">","null","","","","","","","","","",""
"","image-keyboard-response","26","19865","0.0-26.0","3NS0A6KXC5U5RGYMGB6DGJFDSHNZGX","AK2XJWYN3PF2V","37SDSEDIN9ORHL92Y0GV7TIFJ2X187","","44.5","img/land4.png","74","46.699999928474426","1","1","1","2","0.8,0.2,0.2,0.2,0.8,0.2,0.2,0.2,0.8","0.8,0.2,0.2,0.2,0.8,0.2,0.2,0.2,0.8","1","",""
"","html-keyboard-response","27","20168","0.0-27.0","3NS0A6KXC5U5RGYMGB6DGJFDSHNZGX","AK2XJWYN3PF2V","37SDSEDIN9ORHL92Y0GV7TIFJ2X187","","null","<img src=""img/land4.png"" style=""width:200px; border:14px solid green;"">","null","","","","","","","","","",""
"","image-keyboard-response","28","20294","0.0-28.0","3NS0A6KXC5U5RGYMGB6DGJFDSHNZGX","AK2XJWYN3PF2V","37SDSEDIN9ORHL92Y0GV7TIFJ2X187","","123.60000002384186","img/land4.png","74","125.5","1","1","1","2","0.8,0.2,0.2,0.2,0.8,0.2,0.2,0.2,0.8","0.8,0.2,0.2,0.2,0.8,0.2,0.2,0.2,0.8","1","",""
"","html-keyboard-response","29","20598","0.0-29.0","3NS0A6KXC5U5RGYMGB6DGJFDSHNZGX","AK2XJWYN3PF2V","37SDSEDIN9ORHL92Y0GV7TIFJ2X187","","null","<img src=""img/land4.png"" style=""width:200px; border:14px solid green;"">","null","","","","","","","","","",""
"","image-keyboard-response","30","20685","0.0-30.0","3NS0A6KXC5U5RGYMGB6DGJFDSHNZGX","AK2XJWYN3PF2V","37SDSEDIN9ORHL92Y0GV7TIFJ2X187","","85","img/land4.png","74","87.09999990463257","1","1","1","2","0.8,0.2,0.2,0.2,0.8,0.2,0.2,0.2,0.8","0.8,0.2,0.2,0.2,0.8,0.2,0.2,0.2,0.8","1","",""
"","html-keyboard-response","31","20997","0.0-31.0","3NS0A6KXC5U5RGYMGB6DGJFDSHNZGX","AK2XJWYN3PF2V","37SDSEDIN9ORHL92Y0GV7TIFJ2X187","","null","<img src=""img/land4.png"" style=""width:200px; border:14px solid green;"">","null","","","","","","","","","",""
"","image-keyboard-response","32","21102","0.0-32.0","3NS0A6KXC5U5RGYMGB6DGJFDSHNZGX","AK2XJWYN3PF2V","37SDSEDIN9ORHL92Y0GV7TIFJ2X187","","103.19999992847443","img/land4.png","74","105.09999990463257","1","1","1","2","0.8,0.2,0.2,0.2,0.8,0.2,0.2,0.2,0.8","0.8,0.2,0.2,0.2,0.8,0.2,0.2,0.2,0.8","1","",""
"","html-keyboard-response","33","21406","0.0-33.0","3NS0A6KXC5U5RGYMGB6DGJFDSHNZGX","AK2XJWYN3PF2V","37SDSEDIN9ORHL92Y0GV7TIFJ2X187","","null","<img src=""img/land4.png"" style=""width:200px; border:14px solid green;"">","null","","","","","","","","","",""
"","image-keyboard-response","34","21443","0.0-34.0","3NS0A6KXC5U5RGYMGB6DGJFDSHNZGX","AK2XJWYN3PF2V","37SDSEDIN9ORHL92Y0GV7TIFJ2X187","","35.10000002384186","img/land4.png","74","37","1","1","1","2","0.8,0.2,0.2,0.2,0.8,0.2,0.2,0.2,0.8","0.8,0.2,0.2,0.2,0.8,0.2,0.2,0.2,0.8","1","",""
"","html-keyboard-response","35","21746","0.0-35.0","3NS0A6KXC5U5RGYMGB6DGJFDSHNZGX","AK2XJWYN3PF2V","37SDSEDIN9ORHL92Y0GV7TIFJ2X187","","null","<img src=""img/land4.png"" style=""width:200px; border:14px solid green;"">","null","","","","","","","","","",""
"","image-keyboard-response","36","21794","0.0-36.0","3NS0A6KXC5U5RGYMGB6DGJFDSHNZGX","AK2XJWYN3PF2V","37SDSEDIN9ORHL92Y0GV7TIFJ2X187","","45.09999990463257","img/land2.png","74","47","1","0","2","2","0.8,0.2,0.2,0.2,0.8,0.2,0.2,0.2,0.8","0.8,0.2,0.2,0.2,0.8,0.2,0.2,0.2,0.8","1","",""
"","html-keyboard-response","37","22098","0.0-37.0","3NS0A6KXC5U5RGYMGB6DGJFDSHNZGX","AK2XJWYN3PF2V","37SDSEDIN9ORHL92Y0GV7TIFJ2X187","","null","<img src=""img/land2.png"" style=""width:200px;border:14px solid red;"">","null","","","","","","","","","",""
"","image-keyboard-response","38","22305","0.0-38.0","3NS0A6KXC5U5RGYMGB6DGJFDSHNZGX","AK2XJWYN3PF2V","37SDSEDIN9ORHL92Y0GV7TIFJ2X187","","204.80000007152557","img/land1.png","75","206.89999997615814","2","0","3","2","0.8,0.2,0.2,0.2,0.8,0.2,0.2,0.2,0.8","0.8,0.2,0.2,0.2,0.8,0.2,0.2,0.2,0.8","1","",""
"","html-keyboard-response","39","22609","0.0-39.0","3NS0A6KXC5U5RGYMGB6DGJFDSHNZGX","AK2XJWYN3PF2V","37SDSEDIN9ORHL92Y0GV7TIFJ2X187","","null","<img src=""img/land1.png"" style=""width:200px;border:14px solid red;"">","null","","","","","","","","","",""
"","image-keyboard-response","40","22736","0.0-40.0","3NS0A6KXC5U5RGYMGB6DGJFDSHNZGX","AK2XJWYN3PF2V","37SDSEDIN9ORHL92Y0GV7TIFJ2X187","","124.30000007152557","img/land4.png","74","126.40000009536743","1","1","1","2","0.8,0.2,0.2,0.2,0.8,0.2,0.2,0.2,0.8","0.8,0.2,0.2,0.2,0.8,0.2,0.2,0.2,0.8","1","",""
"","html-keyboard-response","41","23039","0.0-41.0","3NS0A6KXC5U5RGYMGB6DGJFDSHNZGX","AK2XJWYN3PF2V","37SDSEDIN9ORHL92Y0GV7TIFJ2X187","","null","<img src=""img/land4.png"" style=""width:200px; border:14px solid green;"">","null","","","","","","","","","",""
"","image-keyboard-response","42","23082","0.0-42.0","3NS0A6KXC5U5RGYMGB6DGJFDSHNZGX","AK2XJWYN3PF2V","37SDSEDIN9ORHL92Y0GV7TIFJ2X187","","40.39999997615814","img/land4.png","76","42.40000009536743","3","0","1","2","0.8,0.2,0.2,0.2,0.8,0.2,0.2,0.2,0.8","0.8,0.2,0.2,0.2,0.8,0.2,0.2,0.2,0.8","1","",""
"","html-keyboard-response","43","23386","0.0-43.0","3NS0A6KXC5U5RGYMGB6DGJFDSHNZGX","AK2XJWYN3PF2V","37SDSEDIN9ORHL92Y0GV7TIFJ2X187","","null","<img src=""img/land4.png"" style=""width:200px;border:14px solid red;"">","null","","","","","","","","","",""
"","image-keyboard-response","44","23403","0.0-44.0","3NS0A6KXC5U5RGYMGB6DGJFDSHNZGX","AK2XJWYN3PF2V","37SDSEDIN9ORHL92Y0GV7TIFJ2X187","","14.600000023841858","img/land2.png","74","16.600000023841858","1","1","2","2","0.8,0.2,0.2,0.2,0.8,0.2,0.2,0.2,0.8","0.8,0.2,0.2,0.2,0.8,0.2,0.2,0.2,0.8","1","",""
"","html-keyboard-response","45","23707","0.0-45.0","3NS0A6KXC5U5RGYMGB6DGJFDSHNZGX","AK2XJWYN3PF2V","37SDSEDIN9ORHL92Y0GV7TIFJ2X187","","null","<img src=""img/land2.png"" style=""width:200px; border:14px solid green;"">","null","","","","","","","","","",""
"","image-keyboard-response","46","23768","0.0-46.0","3NS0A6KXC5U5RGYMGB6DGJFDSHNZGX","AK2XJWYN3PF2V","37SDSEDIN9ORHL92Y0GV7TIFJ2X187","","58.199999928474426","img/land4.png","74","59.89999997615814","1","1","1","2","0.8,0.2,0.2,0.2,0.8,0.2,0.2,0.2,0.8","0.8,0.2,0.2,0.2,0.8,0.2,0.2,0.2,0.8","1","",""
"","html-keyboard-response","47","24070","0.0-47.0","3NS0A6KXC5U5RGYMGB6DGJFDSHNZGX","AK2XJWYN3PF2V","37SDSEDIN9ORHL92Y0GV7TIFJ2X187","","null","<img src=""img/land4.png"" style=""width:200px; border:14px solid green;"">","null","","","","","","","","","",""
"","image-keyboard-response","48","24103","0.0-48.0","3NS0A6KXC5U5RGYMGB6DGJFDSHNZGX","AK2XJWYN3PF2V","37SDSEDIN9ORHL92Y0GV7TIFJ2X187","","30.700000047683716","img/land4.png","74","32.60000002384186","1","0","1","2","0.8,0.2,0.2,0.2,0.8,0.2,0.2,0.2,0.8","0.8,0.2,0.2,0.2,0.8,0.2,0.2,0.2,0.8","1","",""
"","html-keyboard-response","49","24418","0.0-49.0","3NS0A6KXC5U5RGYMGB6DGJFDSHNZGX","AK2XJWYN3PF2V","37SDSEDIN9ORHL92Y0GV7TIFJ2X187","","null","<img src=""img/land4.png"" style=""width:200px;border:14px solid red;"">","null","","","","","","","","","",""
"","image-keyboard-response","50","24477","0.0-50.0","3NS0A6KXC5U5RGYMGB6DGJFDSHNZGX","AK2XJWYN3PF2V","37SDSEDIN9ORHL92Y0GV7TIFJ2X187","","56.299999952316284","img/land4.png","74","58.300000071525574","1","0","1","2","0.8,0.2,0.2,0.2,0.8,0.2,0.2,0.2,0.8","0.8,0.2,0.2,0.2,0.8,0.2,0.2,0.2,0.8","1","",""
"","html-keyboard-response","51","24780","0.0-51.0","3NS0A6KXC5U5RGYMGB6DGJFDSHNZGX","AK2XJWYN3PF2V","37SDSEDIN9ORHL92Y0GV7TIFJ2X187","","null","<img src=""img/land4.png"" style=""width:200px;border:14px solid red;"">","null","","","","","","","","","",""
"","image-keyboard-response","52","24789","0.0-52.0","3NS0A6KXC5U5RGYMGB6DGJFDSHNZGX","AK2XJWYN3PF2V","37SDSEDIN9ORHL92Y0GV7TIFJ2X187","","6.899999976158142","img/land2.png","74","8.899999976158142","1","0","2","2","0.8,0.2,0.2,0.2,0.8,0.2,0.2,0.2,0.8","0.8,0.2,0.2,0.2,0.8,0.2,0.2,0.2,0.8","1","",""
"","html-keyboard-response","53","25093","0.0-53.0","3NS0A6KXC5U5RGYMGB6DGJFDSHNZGX","AK2XJWYN3PF2V","37SDSEDIN9ORHL92Y0GV7TIFJ2X187","","null","<img src=""img/land2.png"" style=""width:200px;border:14px solid red;"">","null","","","","","","","","","",""
"","image-keyboard-response","54","25193","0.0-54.0","3NS0A6KXC5U5RGYMGB6DGJFDSHNZGX","AK2XJWYN3PF2V","37SDSEDIN9ORHL92Y0GV7TIFJ2X187","","98.09999990463257","img/land4.png","74","100.20000004768372","1","0","1","2","0.8,0.2,0.2,0.2,0.8,0.2,0.2,0.2,0.8","0.8,0.2,0.2,0.2,0.8,0.2,0.2,0.2,0.8","1","",""
"","html-keyboard-response","55","25496","0.0-55.0","3NS0A6KXC5U5RGYMGB6DGJFDSHNZGX","AK2XJWYN3PF2V","37SDSEDIN9ORHL92Y0GV7TIFJ2X187","","null","<img src=""img/land4.png"" style=""width:200px;border:14px solid red;"">","null","","","","","","","","","",""
"","image-keyboard-response","56","25541","0.0-56.0","3NS0A6KXC5U5RGYMGB6DGJFDSHNZGX","AK2XJWYN3PF2V","37SDSEDIN9ORHL92Y0GV7TIFJ2X187","","41.799999952316284","img/land4.png","74","44","1","1","1","2","0.8,0.2,0.2,0.2,0.8,0.2,0.2,0.2,0.8","0.8,0.2,0.2,0.2,0.8,0.2,0.2,0.2,0.8","1","",""
"","html-keyboard-response","57","25844","0.0-57.0","3NS0A6KXC5U5RGYMGB6DGJFDSHNZGX","AK2XJWYN3PF2V","37SDSEDIN9ORHL92Y0GV7TIFJ2X187","","null","<img src=""img/land4.png"" style=""width:200px; border:14px solid green;"">","null","","","","","","","","","",""
"","image-keyboard-response","58","25952","0.0-58.0","3NS0A6KXC5U5RGYMGB6DGJFDSHNZGX","AK2XJWYN3PF2V","37SDSEDIN9ORHL92Y0GV7TIFJ2X187","","105.10000002384186","img/land1.png","74","107.10000002384186","1","1","3","2","0.8,0.2,0.2,0.2,0.8,0.2,0.2,0.2,0.8","0.8,0.2,0.2,0.2,0.8,0.2,0.2,0.2,0.8","1","",""
"","html-keyboard-response","59","26256","0.0-59.0","3NS0A6KXC5U5RGYMGB6DGJFDSHNZGX","AK2XJWYN3PF2V","37SDSEDIN9ORHL92Y0GV7TIFJ2X187","","null","<img src=""img/land1.png"" style=""width:200px; border:14px solid green;"">","null","","","","","","","","","",""
"","image-keyboard-response","60","26341","0.0-60.0","3NS0A6KXC5U5RGYMGB6DGJFDSHNZGX","AK2XJWYN3PF2V","37SDSEDIN9ORHL92Y0GV7TIFJ2X187","","83.10000002384186","img/land4.png","76","85.10000002384186","3","0","1","2","0.8,0.2,0.2,0.2,0.8,0.2,0.2,0.2,0.8","0.8,0.2,0.2,0.2,0.8,0.2,0.2,0.2,0.8","1","",""
"","html-keyboard-response","61","26645","0.0-61.0","3NS0A6KXC5U5RGYMGB6DGJFDSHNZGX","AK2XJWYN3PF2V","37SDSEDIN9ORHL92Y0GV7TIFJ2X187","","null","<img src=""img/land4.png"" style=""width:200px;border:14px solid red;"">","null","","","","","","","","","",""
"","image-keyboard-response","62","26928","0.0-62.0","3NS0A6KXC5U5RGYMGB6DGJFDSHNZGX","AK2XJWYN3PF2V","37SDSEDIN9ORHL92Y0GV7TIFJ2X187","","280.60000002384186","img/land4.png","75","282.59999990463257","2","0","1","2","0.8,0.2,0.2,0.2,0.8,0.2,0.2,0.2,0.8","0.8,0.2,0.2,0.2,0.8,0.2,0.2,0.2,0.8","1","",""
"","html-keyboard-response","63","27231","0.0-63.0","3NS0A6KXC5U5RGYMGB6DGJFDSHNZGX","AK2XJWYN3PF2V","37SDSEDIN9ORHL92Y0GV7TIFJ2X187","","null","<img src=""img/land4.png"" style=""width:200px;border:14px solid red;"">","null","","","","","","","","","",""
"","image-keyboard-response","64","27264","0.0-64.0","3NS0A6KXC5U5RGYMGB6DGJFDSHNZGX","AK2XJWYN3PF2V","37SDSEDIN9ORHL92Y0GV7TIFJ2X187","","29.899999976158142","img/land4.png","75","31.899999976158142","2","0","1","2","0.8,0.2,0.2,0.2,0.8,0.2,0.2,0.2,0.8","0.8,0.2,0.2,0.2,0.8,0.2,0.2,0.2,0.8","1","",""
"","html-keyboard-response","65","27568","0.0-65.0","3NS0A6KXC5U5RGYMGB6DGJFDSHNZGX","AK2XJWYN3PF2V","37SDSEDIN9ORHL92Y0GV7TIFJ2X187","","null","<img src=""img/land4.png"" style=""width:200px;border:14px solid red;"">","null","","","","","","","","","",""
"","image-keyboard-response","66","27876","0.0-66.0","3NS0A6KXC5U5RGYMGB6DGJFDSHNZGX","AK2XJWYN3PF2V","37SDSEDIN9ORHL92Y0GV7TIFJ2X187","","306.10000002384186","img/land1.png","76","308.1999999284744","3","1","3","2","0.8,0.2,0.2,0.2,0.8,0.2,0.2,0.2,0.8","0.8,0.2,0.2,0.2,0.8,0.2,0.2,0.2,0.8","1","",""
"","html-keyboard-response","67","28180","0.0-67.0","3NS0A6KXC5U5RGYMGB6DGJFDSHNZGX","AK2XJWYN3PF2V","37SDSEDIN9ORHL92Y0GV7TIFJ2X187","","null","<img src=""img/land1.png"" style=""width:200px; border:14px solid green;"">","null","","","","","","","","","",""
"","image-keyboard-response","68","28197","0.0-68.0","3NS0A6KXC5U5RGYMGB6DGJFDSHNZGX","AK2XJWYN3PF2V","37SDSEDIN9ORHL92Y0GV7TIFJ2X187","","13.5","img/land1.png","74","15.899999976158142","1","0","3","2","0.8,0.2,0.2,0.2,0.8,0.2,0.2,0.2,0.8","0.8,0.2,0.2,0.2,0.8,0.2,0.2,0.2,0.8","1","",""
"","html-keyboard-response","69","28500","0.0-69.0","3NS0A6KXC5U5RGYMGB6DGJFDSHNZGX","AK2XJWYN3PF2V","37SDSEDIN9ORHL92Y0GV7TIFJ2X187","","null","<img src=""img/land1.png"" style=""width:200px;border:14px solid red;"">","null","","","","","","","","","",""
"","image-keyboard-response","70","28568","0.0-70.0","3NS0A6KXC5U5RGYMGB6DGJFDSHNZGX","AK2XJWYN3PF2V","37SDSEDIN9ORHL92Y0GV7TIFJ2X187","","65.79999995231628","img/land4.png","74","67.79999995231628","1","1","1","2","0.8,0.2,0.2,0.2,0.8,0.2,0.2,0.2,0.8","0.8,0.2,0.2,0.2,0.8,0.2,0.2,0.2,0.8","1","",""
"","html-keyboard-response","71","28872","0.0-71.0","3NS0A6KXC5U5RGYMGB6DGJFDSHNZGX","AK2XJWYN3PF2V","37SDSEDIN9ORHL92Y0GV7TIFJ2X187","","null","<img src=""img/land4.png"" style=""width:200px; border:14px solid green;"">","null","","","","","","","","","",""
"","image-keyboard-response","72","28925","0.0-72.0","3NS0A6KXC5U5RGYMGB6DGJFDSHNZGX","AK2XJWYN3PF2V","37SDSEDIN9ORHL92Y0GV7TIFJ2X187","","50.200000047683716","img/land4.png","76","52.199999928474426","3","0","1","2","0.8,0.2,0.2,0.2,0.8,0.2,0.2,0.2,0.8","0.8,0.2,0.2,0.2,0.8,0.2,0.2,0.2,0.8","1","",""
"","html-keyboard-response","73","29229","0.0-73.0","3NS0A6KXC5U5RGYMGB6DGJFDSHNZGX","AK2XJWYN3PF2V","37SDSEDIN9ORHL92Y0GV7TIFJ2X187","","null","<img src=""img/land4.png"" style=""width:200px;border:14px solid red;"">","null","","","","","","","","","",""
"","image-keyboard-response","74","29540","0.0-74.0","3NS0A6KXC5U5RGYMGB6DGJFDSHNZGX","AK2XJWYN3PF2V","37SDSEDIN9ORHL92Y0GV7TIFJ2X187","","308.90000009536743","img/land4.png","75","311","2","0","1","2","0.8,0.2,0.2,0.2,0.8,0.2,0.2,0.2,0.8","0.8,0.2,0.2,0.2,0.8,0.2,0.2,0.2,0.8","1","",""
"","html-keyboard-response","75","29843","0.0-75.0","3NS0A6KXC5U5RGYMGB6DGJFDSHNZGX","AK2XJWYN3PF2V","37SDSEDIN9ORHL92Y0GV7TIFJ2X187","","null","<img src=""img/land4.png"" style=""width:200px;border:14px solid red;"">","null","","","","","","","","","",""
"","image-keyboard-response","76","29847","0.0-76.0","3NS0A6KXC5U5RGYMGB6DGJFDSHNZGX","AK2XJWYN3PF2V","37SDSEDIN9ORHL92Y0GV7TIFJ2X187","","1.2999999523162842","img/land2.png","74","3.399999976158142","1","0","2","2","0.8,0.2,0.2,0.2,0.8,0.2,0.2,0.2,0.8","0.8,0.2,0.2,0.2,0.8,0.2,0.2,0.2,0.8","1","",""
"","html-keyboard-response","77","30150","0.0-77.0","3NS0A6KXC5U5RGYMGB6DGJFDSHNZGX","AK2XJWYN3PF2V","37SDSEDIN9ORHL92Y0GV7TIFJ2X187","","null","<img src=""img/land2.png"" style=""width:200px;border:14px solid red;"">","null","","","","","","","","","",""
"","image-keyboard-response","78","30408","0.0-78.0","3NS0A6KXC5U5RGYMGB6DGJFDSHNZGX","AK2XJWYN3PF2V","37SDSEDIN9ORHL92Y0GV7TIFJ2X187","","254.79999995231628","img/land4.png","74","257","1","1","1","2","0.8,0.2,0.2,0.2,0.8,0.2,0.2,0.2,0.8","0.8,0.2,0.2,0.2,0.8,0.2,0.2,0.2,0.8","1","",""
"","html-keyboard-response","79","30711","0.0-79.0","3NS0A6KXC5U5RGYMGB6DGJFDSHNZGX","AK2XJWYN3PF2V","37SDSEDIN9ORHL92Y0GV7TIFJ2X187","","null","<img src=""img/land4.png"" style=""width:200px; border:14px solid green;"">","null","","","","","","","","","",""
"","image-keyboard-response","80","30965","0.0-80.0","3NS0A6KXC5U5RGYMGB6DGJFDSHNZGX","AK2XJWYN3PF2V","37SDSEDIN9ORHL92Y0GV7TIFJ2X187","","251.70000004768372","img/land4.png","74","253.90000009536743","1","1","1","2","0.8,0.2,0.2,0.2,0.8,0.2,0.2,0.2,0.8","0.8,0.2,0.2,0.2,0.8,0.2,0.2,0.2,0.8","1","",""
"","html-keyboard-response","81","31268","0.0-81.0","3NS0A6KXC5U5RGYMGB6DGJFDSHNZGX","AK2XJWYN3PF2V","37SDSEDIN9ORHL92Y0GV7TIFJ2X187","","null","<img src=""img/land4.png"" style=""width:200px; border:14px solid green;"">","null","","","","","","","","","",""
"","image-keyboard-response","82","31488","0.0-82.0","3NS0A6KXC5U5RGYMGB6DGJFDSHNZGX","AK2XJWYN3PF2V","37SDSEDIN9ORHL92Y0GV7TIFJ2X187","","216.29999995231628","img/land1.png","74","218.70000004768372","1","0","3","2","0.8,0.2,0.2,0.2,0.8,0.2,0.2,0.2,0.8","0.8,0.2,0.2,0.2,0.8,0.2,0.2,0.2,0.8","1","",""
"","html-keyboard-response","83","31791","0.0-83.0","3NS0A6KXC5U5RGYMGB6DGJFDSHNZGX","AK2XJWYN3PF2V","37SDSEDIN9ORHL92Y0GV7TIFJ2X187","","null","<img src=""img/land1.png"" style=""width:200px;border:14px solid red;"">","null","","","","","","","","","",""
"","image-keyboard-response","84","31937","0.0-84.0","3NS0A6KXC5U5RGYMGB6DGJFDSHNZGX","AK2XJWYN3PF2V","37SDSEDIN9ORHL92Y0GV7TIFJ2X187","","142.60000002384186","img/land4.png","75","144.79999995231628","2","0","1","2","0.8,0.2,0.2,0.2,0.8,0.2,0.2,0.2,0.8","0.8,0.2,0.2,0.2,0.8,0.2,0.2,0.2,0.8","1","",""
"","html-keyboard-response","85","32240","0.0-85.0","3NS0A6KXC5U5RGYMGB6DGJFDSHNZGX","AK2XJWYN3PF2V","37SDSEDIN9ORHL92Y0GV7TIFJ2X187","","null","<img src=""img/land4.png"" style=""width:200px;border:14px solid red;"">","null","","","","","","","","","",""
"","image-keyboard-response","86","32347","0.0-86.0","3NS0A6KXC5U5RGYMGB6DGJFDSHNZGX","AK2XJWYN3PF2V","37SDSEDIN9ORHL92Y0GV7TIFJ2X187","","104.70000004768372","img/land1.png","76","106.39999997615814","3","1","3","2","0.8,0.2,0.2,0.2,0.8,0.2,0.2,0.2,0.8","0.8,0.2,0.2,0.2,0.8,0.2,0.2,0.2,0.8","1","",""
"","html-keyboard-response","87","32649","0.0-87.0","3NS0A6KXC5U5RGYMGB6DGJFDSHNZGX","AK2XJWYN3PF2V","37SDSEDIN9ORHL92Y0GV7TIFJ2X187","","null","<img src=""img/land1.png"" style=""width:200px; border:14px solid green;"">","null","","","","","","","","","",""
"","image-keyboard-response","88","32955","0.0-88.0","3NS0A6KXC5U5RGYMGB6DGJFDSHNZGX","AK2XJWYN3PF2V","37SDSEDIN9ORHL92Y0GV7TIFJ2X187","","302.7999999523163","img/land1.png","74","305.1999999284744","1","0","3","2","0.8,0.2,0.2,0.2,0.8,0.2,0.2,0.2,0.8","0.8,0.2,0.2,0.2,0.8,0.2,0.2,0.2,0.8","1","",""
"","html-keyboard-response","89","33259","0.0-89.0","3NS0A6KXC5U5RGYMGB6DGJFDSHNZGX","AK2XJWYN3PF2V","37SDSEDIN9ORHL92Y0GV7TIFJ2X187","","null","<img src=""img/land1.png"" style=""width:200px;border:14px solid red;"">","null","","","","","","","","","",""
"","image-keyboard-response","90","33401","0.0-90.0","3NS0A6KXC5U5RGYMGB6DGJFDSHNZGX","AK2XJWYN3PF2V","37SDSEDIN9ORHL92Y0GV7TIFJ2X187","","139.79999995231628","img/land1.png","75","141.79999995231628","2","0","3","2","0.8,0.2,0.2,0.2,0.8,0.2,0.2,0.2,0.8","0.8,0.2,0.2,0.2,0.8,0.2,0.2,0.2,0.8","1","",""
"","html-keyboard-response","91","33705","0.0-91.0","3NS0A6KXC5U5RGYMGB6DGJFDSHNZGX","AK2XJWYN3PF2V","37SDSEDIN9ORHL92Y0GV7TIFJ2X187","","null","<img src=""img/land1.png"" style=""width:200px;border:14px solid red;"">","null","","","","","","","","","",""
"","image-keyboard-response","92","33883","0.0-92.0","3NS0A6KXC5U5RGYMGB6DGJFDSHNZGX","AK2XJWYN3PF2V","37SDSEDIN9ORHL92Y0GV7TIFJ2X187","","175.60000002384186","img/land4.png","75","177.70000004768372","2","1","1","2","0.8,0.2,0.2,0.2,0.8,0.2,0.2,0.2,0.8","0.8,0.2,0.2,0.2,0.8,0.2,0.2,0.2,0.8","1","",""
"","html-keyboard-response","93","34187","0.0-93.0","3NS0A6KXC5U5RGYMGB6DGJFDSHNZGX","AK2XJWYN3PF2V","37SDSEDIN9ORHL92Y0GV7TIFJ2X187","","null","<img src=""img/land4.png"" style=""width:200px; border:14px solid green;"">","null","","","","","","","","","",""
"","image-keyboard-response","94","34310","0.0-94.0","3NS0A6KXC5U5RGYMGB6DGJFDSHNZGX","AK2XJWYN3PF2V","37SDSEDIN9ORHL92Y0GV7TIFJ2X187","","121.10000002384186","img/land2.png","75","123.30000007152557","2","1","2","2","0.8,0.2,0.2,0.2,0.8,0.2,0.2,0.2,0.8","0.8,0.2,0.2,0.2,0.8,0.2,0.2,0.2,0.8","1","",""
"","html-keyboard-response","95","34614","0.0-95.0","3NS0A6KXC5U5RGYMGB6DGJFDSHNZGX","AK2XJWYN3PF2V","37SDSEDIN9ORHL92Y0GV7TIFJ2X187","","null","<img src=""img/land2.png"" style=""width:200px; border:14px solid green;"">","null","","","","","","","","","",""
"","image-keyboard-response","96","34792","0.0-96.0","3NS0A6KXC5U5RGYMGB6DGJFDSHNZGX","AK2XJWYN3PF2V","37SDSEDIN9ORHL92Y0GV7TIFJ2X187","","175","img/land1.png","75","177.20000004768372","2","0","3","2","0.8,0.2,0.2,0.2,0.8,0.2,0.2,0.2,0.8","0.8,0.2,0.2,0.2,0.8,0.2,0.2,0.2,0.8","1","",""
"","html-keyboard-response","97","35095","0.0-97.0","3NS0A6KXC5U5RGYMGB6DGJFDSHNZGX","AK2XJWYN3PF2V","37SDSEDIN9ORHL92Y0GV7TIFJ2X187","","null","<img src=""img/land1.png"" style=""width:200px;border:14px solid red;"">","null","","","","","","","","","",""
"","image-keyboard-response","98","35341","0.0-98.0","3NS0A6KXC5U5RGYMGB6DGJFDSHNZGX","AK2XJWYN3PF2V","37SDSEDIN9ORHL92Y0GV7TIFJ2X187","","242.5","img/land4.png","75","244.80000007152557","2","0","1","2","0.8,0.2,0.2,0.2,0.8,0.2,0.2,0.2,0.8","0.8,0.2,0.2,0.2,0.8,0.2,0.2,0.2,0.8","1","",""
"","html-keyboard-response","99","35644","0.0-99.0","3NS0A6KXC5U5RGYMGB6DGJFDSHNZGX","AK2XJWYN3PF2V","37SDSEDIN9ORHL92Y0GV7TIFJ2X187","","null","<img src=""img/land4.png"" style=""width:200px;border:14px solid red;"">","null","","","","","","","","","",""
"","image-keyboard-response","100","35808","0.0-100.0","3NS0A6KXC5U5RGYMGB6DGJFDSHNZGX","AK2XJWYN3PF2V","37SDSEDIN9ORHL92Y0GV7TIFJ2X187","","161.09999990463257","img/land4.png","74","163.20000004768372","1","1","1","2","0.8,0.2,0.2,0.2,0.8,0.2,0.2,0.2,0.8","0.8,0.2,0.2,0.2,0.8,0.2,0.2,0.2,0.8","1","",""
"","html-keyboard-response","101","36112","0.0-101.0","3NS0A6KXC5U5RGYMGB6DGJFDSHNZGX","AK2XJWYN3PF2V","37SDSEDIN9ORHL92Y0GV7TIFJ2X187","","null","<img src=""img/land4.png"" style=""width:200px; border:14px solid green;"">","null","","","","","","","","","",""
"","image-keyboard-response","102","36154","0.0-102.0","3NS0A6KXC5U5RGYMGB6DGJFDSHNZGX","AK2XJWYN3PF2V","37SDSEDIN9ORHL92Y0GV7TIFJ2X187","","39.10000002384186","img/land1.png","74","41.300000071525574","1","0","3","2","0.8,0.2,0.2,0.2,0.8,0.2,0.2,0.2,0.8","0.8,0.2,0.2,0.2,0.8,0.2,0.2,0.2,0.8","1","",""
"","html-keyboard-response","103","36457","0.0-103.0","3NS0A6KXC5U5RGYMGB6DGJFDSHNZGX","AK2XJWYN3PF2V","37SDSEDIN9ORHL92Y0GV7TIFJ2X187","","null","<img src=""img/land1.png"" style=""width:200px;border:14px solid red;"">","null","","","","","","","","","",""
"","image-keyboard-response","104","36640","0.0-104.0","3NS0A6KXC5U5RGYMGB6DGJFDSHNZGX","AK2XJWYN3PF2V","37SDSEDIN9ORHL92Y0GV7TIFJ2X187","","180.39999997615814","img/land2.png","74","182.5","1","1","2","2","0.8,0.2,0.2,0.2,0.8,0.2,0.2,0.2,0.8","0.8,0.2,0.2,0.2,0.8,0.2,0.2,0.2,0.8","1","",""
"","html-keyboard-response","105","36944","0.0-105.0","3NS0A6KXC5U5RGYMGB6DGJFDSHNZGX","AK2XJWYN3PF2V","37SDSEDIN9ORHL92Y0GV7TIFJ2X187","","null","<img src=""img/land2.png"" style=""width:200px; border:14px solid green;"">","null","","","","","","","","","",""
"","image-keyboard-response","106","37143","0.0-106.0","3NS0A6KXC5U5RGYMGB6DGJFDSHNZGX","AK2XJWYN3PF2V","37SDSEDIN9ORHL92Y0GV7TIFJ2X187","","196.30000007152557","img/land1.png","75","198.19999992847443","2","1","3","2","0.8,0.2,0.2,0.2,0.8,0.2,0.2,0.2,0.8","0.8,0.2,0.2,0.2,0.8,0.2,0.2,0.2,0.8","1","",""
"","html-keyboard-response","107","37447","0.0-107.0","3NS0A6KXC5U5RGYMGB6DGJFDSHNZGX","AK2XJWYN3PF2V","37SDSEDIN9ORHL92Y0GV7TIFJ2X187","","null","<img src=""img/land1.png"" style=""width:200px; border:14px solid green;"">","null","","","","","","","","","",""
"","image-keyboard-response","108","37634","0.0-108.0","3NS0A6KXC5U5RGYMGB6DGJFDSHNZGX","AK2XJWYN3PF2V","37SDSEDIN9ORHL92Y0GV7TIFJ2X187","","185","img/land4.png","75","187","2","1","1","2","0.8,0.2,0.2,0.2,0.8,0.2,0.2,0.2,0.8","0.8,0.2,0.2,0.2,0.8,0.2,0.2,0.2,0.8","1","",""
"","html-keyboard-response","109","37938","0.0-109.0","3NS0A6KXC5U5RGYMGB6DGJFDSHNZGX","AK2XJWYN3PF2V","37SDSEDIN9ORHL92Y0GV7TIFJ2X187","","null","<img src=""img/land4.png"" style=""width:200px; border:14px solid green;"">","null","","","","","","","","","",""
"","image-keyboard-response","110","38088","0.0-110.0","3NS0A6KXC5U5RGYMGB6DGJFDSHNZGX","AK2XJWYN3PF2V","37SDSEDIN9ORHL92Y0GV7TIFJ2X187","","148.29999995231628","img/land4.png","76","150.29999995231628","3","0","1","2","0.8,0.2,0.2,0.2,0.8,0.2,0.2,0.2,0.8","0.8,0.2,0.2,0.2,0.8,0.2,0.2,0.2,0.8","1","",""
"","html-keyboard-response","111","38391","0.0-111.0","3NS0A6KXC5U5RGYMGB6DGJFDSHNZGX","AK2XJWYN3PF2V","37SDSEDIN9ORHL92Y0GV7TIFJ2X187","","null","<img src=""img/land4.png"" style=""width:200px;border:14px solid red;"">","null","","","","","","","","","",""
"","image-keyboard-response","112","38549","0.0-112.0","3NS0A6KXC5U5RGYMGB6DGJFDSHNZGX","AK2XJWYN3PF2V","37SDSEDIN9ORHL92Y0GV7TIFJ2X187","","155.29999995231628","img/land4.png","74","157","1","1","1","2","0.8,0.2,0.2,0.2,0.8,0.2,0.2,0.2,0.8","0.8,0.2,0.2,0.2,0.8,0.2,0.2,0.2,0.8","1","",""
"","html-keyboard-response","113","38851","0.0-113.0","3NS0A6KXC5U5RGYMGB6DGJFDSHNZGX","AK2XJWYN3PF2V","37SDSEDIN9ORHL92Y0GV7TIFJ2X187","","null","<img src=""img/land4.png"" style=""width:200px; border:14px solid green;"">","null","","","","","","","","","",""
"","image-keyboard-response","114","38992","0.0-114.0","3NS0A6KXC5U5RGYMGB6DGJFDSHNZGX","AK2XJWYN3PF2V","37SDSEDIN9ORHL92Y0GV7TIFJ2X187","","137.90000009536743","img/land1.png","74","140.10000002384186","1","1","3","2","0.8,0.2,0.2,0.2,0.8,0.2,0.2,0.2,0.8","0.8,0.2,0.2,0.2,0.8,0.2,0.2,0.2,0.8","1","",""
"","html-keyboard-response","115","39295","0.0-115.0","3NS0A6KXC5U5RGYMGB6DGJFDSHNZGX","AK2XJWYN3PF2V","37SDSEDIN9ORHL92Y0GV7TIFJ2X187","","null","<img src=""img/land1.png"" style=""width:200px; border:14px solid green;"">","null","","","","","","","","","",""
"","image-keyboard-response","116","39408","0.0-116.0","3NS0A6KXC5U5RGYMGB6DGJFDSHNZGX","AK2XJWYN3PF2V","37SDSEDIN9ORHL92Y0GV7TIFJ2X187","","109.89999997615814","img/land1.png","74","112.10000002384186","1","0","3","2","0.8,0.2,0.2,0.2,0.8,0.2,0.2,0.2,0.8","0.8,0.2,0.2,0.2,0.8,0.2,0.2,0.2,0.8","1","",""
"","html-keyboard-response","117","39712","0.0-117.0","3NS0A6KXC5U5RGYMGB6DGJFDSHNZGX","AK2XJWYN3PF2V","37SDSEDIN9ORHL92Y0GV7TIFJ2X187","","null","<img src=""img/land1.png"" style=""width:200px;border:14px solid red;"">","null","","","","","","","","","",""
"","image-keyboard-response","118","39795","0.0-118.0","3NS0A6KXC5U5RGYMGB6DGJFDSHNZGX","AK2XJWYN3PF2V","37SDSEDIN9ORHL92Y0GV7TIFJ2X187","","80.60000002384186","img/land4.png","75","82.69999992847443","2","0","1","2","0.8,0.2,0.2,0.2,0.8,0.2,0.2,0.2,0.8","0.8,0.2,0.2,0.2,0.8,0.2,0.2,0.2,0.8","1","",""
"","html-keyboard-response","119","40098","0.0-119.0","3NS0A6KXC5U5RGYMGB6DGJFDSHNZGX","AK2XJWYN3PF2V","37SDSEDIN9ORHL92Y0GV7TIFJ2X187","","null","<img src=""img/land4.png"" style=""width:200px;border:14px solid red;"">","null","","","","","","","","","",""
"","image-keyboard-response","120","40252","0.0-120.0","3NS0A6KXC5U5RGYMGB6DGJFDSHNZGX","AK2XJWYN3PF2V","37SDSEDIN9ORHL92Y0GV7TIFJ2X187","","151.70000004768372","img/land4.png","74","153.79999995231628","1","1","1","2","0.8,0.2,0.2,0.2,0.8,0.2,0.2,0.2,0.8","0.8,0.2,0.2,0.2,0.8,0.2,0.2,0.2,0.8","1","",""
"","html-keyboard-response","121","40555","0.0-121.0","3NS0A6KXC5U5RGYMGB6DGJFDSHNZGX","AK2XJWYN3PF2V","37SDSEDIN9ORHL92Y0GV7TIFJ2X187","","null","<img src=""img/land4.png"" style=""width:200px; border:14px solid green;"">","null","","","","","","","","","",""
"","image-keyboard-response","122","40656","0.0-122.0","3NS0A6KXC5U5RGYMGB6DGJFDSHNZGX","AK2XJWYN3PF2V","37SDSEDIN9ORHL92Y0GV7TIFJ2X187","","99.80000007152557","img/land1.png","76","101","3","1","3","2","0.8,0.2,0.2,0.2,0.8,0.2,0.2,0.2,0.8","0.8,0.2,0.2,0.2,0.8,0.2,0.2,0.2,0.8","1","",""
"","html-keyboard-response","123","40959","0.0-123.0","3NS0A6KXC5U5RGYMGB6DGJFDSHNZGX","AK2XJWYN3PF2V","37SDSEDIN9ORHL92Y0GV7TIFJ2X187","","null","<img src=""img/land1.png"" style=""width:200px; border:14px solid green;"">","null","","","","","","","","","",""
"","image-keyboard-response","124","41068","0.0-124.0","3NS0A6KXC5U5RGYMGB6DGJFDSHNZGX","AK2XJWYN3PF2V","37SDSEDIN9ORHL92Y0GV7TIFJ2X187","","106","img/land4.png","76","107.89999997615814","3","0","1","2","0.8,0.2,0.2,0.2,0.8,0.2,0.2,0.2,0.8","0.8,0.2,0.2,0.2,0.8,0.2,0.2,0.2,0.8","1","",""
"","html-keyboard-response","125","41372","0.0-125.0","3NS0A6KXC5U5RGYMGB6DGJFDSHNZGX","AK2XJWYN3PF2V","37SDSEDIN9ORHL92Y0GV7TIFJ2X187","","null","<img src=""img/land4.png"" style=""width:200px;border:14px solid red;"">","null","","","","","","","","","",""
"","image-keyboard-response","126","41489","0.0-126.0","3NS0A6KXC5U5RGYMGB6DGJFDSHNZGX","AK2XJWYN3PF2V","37SDSEDIN9ORHL92Y0GV7TIFJ2X187","","114.59999990463257","img/land4.png","74","116.70000004768372","1","1","1","2","0.8,0.2,0.2,0.2,0.8,0.2,0.2,0.2,0.8","0.8,0.2,0.2,0.2,0.8,0.2,0.2,0.2,0.8","1","",""
"","html-keyboard-response","127","41793","0.0-127.0","3NS0A6KXC5U5RGYMGB6DGJFDSHNZGX","AK2XJWYN3PF2V","37SDSEDIN9ORHL92Y0GV7TIFJ2X187","","null","<img src=""img/land4.png"" style=""width:200px; border:14px solid green;"">","null","","","","","","","","","",""
"","image-keyboard-response","128","41935","0.0-128.0","3NS0A6KXC5U5RGYMGB6DGJFDSHNZGX","AK2XJWYN3PF2V","37SDSEDIN9ORHL92Y0GV7TIFJ2X187","","138.80000007152557","img/land4.png","74","141.19999992847443","1","1","1","2","0.8,0.2,0.2,0.2,0.8,0.2,0.2,0.2,0.8","0.8,0.2,0.2,0.2,0.8,0.2,0.2,0.2,0.8","1","",""
"","html-keyboard-response","129","42238","0.0-129.0","3NS0A6KXC5U5RGYMGB6DGJFDSHNZGX","AK2XJWYN3PF2V","37SDSEDIN9ORHL92Y0GV7TIFJ2X187","","null","<img src=""img/land4.png"" style=""width:200px; border:14px solid green;"">","null","","","","","","","","","",""
"","image-keyboard-response","130","42248","0.0-130.0","3NS0A6KXC5U5RGYMGB6DGJFDSHNZGX","AK2XJWYN3PF2V","37SDSEDIN9ORHL92Y0GV7TIFJ2X187","","7.100000023841858","img/land1.png","75","9.399999976158142","2","0","3","2","0.8,0.2,0.2,0.2,0.8,0.2,0.2,0.2,0.8","0.8,0.2,0.2,0.2,0.8,0.2,0.2,0.2,0.8","1","",""
"","html-keyboard-response","131","42552","0.0-131.0","3NS0A6KXC5U5RGYMGB6DGJFDSHNZGX","AK2XJWYN3PF2V","37SDSEDIN9ORHL92Y0GV7TIFJ2X187","","null","<img src=""img/land1.png"" style=""width:200px;border:14px solid red;"">","null","","","","","","","","","",""
"","image-keyboard-response","132","42672","0.0-132.0","3NS0A6KXC5U5RGYMGB6DGJFDSHNZGX","AK2XJWYN3PF2V","37SDSEDIN9ORHL92Y0GV7TIFJ2X187","","117.30000007152557","img/land4.png","74","119.30000007152557","1","1","1","2","0.8,0.2,0.2,0.2,0.8,0.2,0.2,0.2,0.8","0.8,0.2,0.2,0.2,0.8,0.2,0.2,0.2,0.8","1","",""
"","html-keyboard-response","133","42975","0.0-133.0","3NS0A6KXC5U5RGYMGB6DGJFDSHNZGX","AK2XJWYN3PF2V","37SDSEDIN9ORHL92Y0GV7TIFJ2X187","","null","<img src=""img/land4.png"" style=""width:200px; border:14px solid green;"">","null","","","","","","","","","",""
"","image-keyboard-response","134","43209","0.0-134.0","3NS0A6KXC5U5RGYMGB6DGJFDSHNZGX","AK2XJWYN3PF2V","37SDSEDIN9ORHL92Y0GV7TIFJ2X187","","229.80000007152557","img/land1.png","76","232","3","0","3","2","0.8,0.2,0.2,0.2,0.8,0.2,0.2,0.2,0.8","0.8,0.2,0.2,0.2,0.8,0.2,0.2,0.2,0.8","1","",""
"","html-keyboard-response","135","43513","0.0-135.0","3NS0A6KXC5U5RGYMGB6DGJFDSHNZGX","AK2XJWYN3PF2V","37SDSEDIN9ORHL92Y0GV7TIFJ2X187","","null","<img src=""img/land1.png"" style=""width:200px;border:14px solid red;"">","null","","","","","","","","","",""
"","image-keyboard-response","136","43665","0.0-136.0","3NS0A6KXC5U5RGYMGB6DGJFDSHNZGX","AK2XJWYN3PF2V","37SDSEDIN9ORHL92Y0GV7TIFJ2X187","","149.39999997615814","img/land1.png","76","151.39999997615814","3","1","3","2","0.8,0.2,0.2,0.2,0.8,0.2,0.2,0.2,0.8","0.8,0.2,0.2,0.2,0.8,0.2,0.2,0.2,0.8","1","",""
"","html-keyboard-response","137","43968","0.0-137.0","3NS0A6KXC5U5RGYMGB6DGJFDSHNZGX","AK2XJWYN3PF2V","37SDSEDIN9ORHL92Y0GV7TIFJ2X187","","null","<img src=""img/land1.png"" style=""width:200px; border:14px solid green;"">","null","","","","","","","","","",""
"","image-keyboard-response","138","44041","0.0-138.0","3NS0A6KXC5U5RGYMGB6DGJFDSHNZGX","AK2XJWYN3PF2V","37SDSEDIN9ORHL92Y0GV7TIFJ2X187","","71","img/land4.png","75","72.79999995231628","2","1","1","2","0.8,0.2,0.2,0.2,0.8,0.2,0.2,0.2,0.8","0.8,0.2,0.2,0.2,0.8,0.2,0.2,0.2,0.8","1","",""
"","html-keyboard-response","139","44345","0.0-139.0","3NS0A6KXC5U5RGYMGB6DGJFDSHNZGX","AK2XJWYN3PF2V","37SDSEDIN9ORHL92Y0GV7TIFJ2X187","","null","<img src=""img/land4.png"" style=""width:200px; border:14px solid green;"">","null","","","","","","","","","",""
"","image-keyboard-response","140","44383","0.0-140.0","3NS0A6KXC5U5RGYMGB6DGJFDSHNZGX","AK2XJWYN3PF2V","37SDSEDIN9ORHL92Y0GV7TIFJ2X187","","35.700000047683716","img/land4.png","74","38","1","1","1","2","0.8,0.2,0.2,0.2,0.8,0.2,0.2,0.2,0.8","0.8,0.2,0.2,0.2,0.8,0.2,0.2,0.2,0.8","1","",""
"","html-keyboard-response","141","44687","0.0-141.0","3NS0A6KXC5U5RGYMGB6DGJFDSHNZGX","AK2XJWYN3PF2V","37SDSEDIN9ORHL92Y0GV7TIFJ2X187","","null","<img src=""img/land4.png"" style=""width:200px; border:14px solid green;"">","null","","","","","","","","","",""
"","image-keyboard-response","142","44816","0.0-142.0","3NS0A6KXC5U5RGYMGB6DGJFDSHNZGX","AK2XJWYN3PF2V","37SDSEDIN9ORHL92Y0GV7TIFJ2X187","","127.39999997615814","img/land4.png","75","128.70000004768372","2","0","1","2","0.8,0.2,0.2,0.2,0.8,0.2,0.2,0.2,0.8","0.8,0.2,0.2,0.2,0.8,0.2,0.2,0.2,0.8","1","",""
"","html-keyboard-response","143","45118","0.0-143.0","3NS0A6KXC5U5RGYMGB6DGJFDSHNZGX","AK2XJWYN3PF2V","37SDSEDIN9ORHL92Y0GV7TIFJ2X187","","null","<img src=""img/land4.png"" style=""width:200px;border:14px solid red;"">","null","","","","","","","","","",""
"","image-keyboard-response","144","45176","0.0-144.0","3NS0A6KXC5U5RGYMGB6DGJFDSHNZGX","AK2XJWYN3PF2V","37SDSEDIN9ORHL92Y0GV7TIFJ2X187","","54.700000047683716","img/land4.png","74","56.700000047683716","1","1","1","2","0.8,0.2,0.2,0.2,0.8,0.2,0.2,0.2,0.8","0.8,0.2,0.2,0.2,0.8,0.2,0.2,0.2,0.8","1","",""
"","html-keyboard-response","145","45479","0.0-145.0","3NS0A6KXC5U5RGYMGB6DGJFDSHNZGX","AK2XJWYN3PF2V","37SDSEDIN9ORHL92Y0GV7TIFJ2X187","","null","<img src=""img/land4.png"" style=""width:200px; border:14px solid green;"">","null","","","","","","","","","",""
"","image-keyboard-response","146","45618","0.0-146.0","3NS0A6KXC5U5RGYMGB6DGJFDSHNZGX","AK2XJWYN3PF2V","37SDSEDIN9ORHL92Y0GV7TIFJ2X187","","138.20000004768372","img/land4.png","74","139.20000004768372","1","1","1","2","0.8,0.2,0.2,0.2,0.8,0.2,0.2,0.2,0.8","0.8,0.2,0.2,0.2,0.8,0.2,0.2,0.2,0.8","1","",""
"","html-keyboard-response","147","45920","0.0-147.0","3NS0A6KXC5U5RGYMGB6DGJFDSHNZGX","AK2XJWYN3PF2V","37SDSEDIN9ORHL92Y0GV7TIFJ2X187","","null","<img src=""img/land4.png"" style=""width:200px; border:14px solid green;"">","null","","","","","","","","","",""
"","image-keyboard-response","148","46082","0.0-148.0","3NS0A6KXC5U5RGYMGB6DGJFDSHNZGX","AK2XJWYN3PF2V","37SDSEDIN9ORHL92Y0GV7TIFJ2X187","","159.40000009536743","img/land2.png","75","161.60000002384186","2","0","2","2","0.8,0.2,0.2,0.2,0.8,0.2,0.2,0.2,0.8","0.8,0.2,0.2,0.2,0.8,0.2,0.2,0.2,0.8","1","",""
"","html-keyboard-response","149","46385","0.0-149.0","3NS0A6KXC5U5RGYMGB6DGJFDSHNZGX","AK2XJWYN3PF2V","37SDSEDIN9ORHL92Y0GV7TIFJ2X187","","null","<img src=""img/land2.png"" style=""width:200px;border:14px solid red;"">","null","","","","","","","","","",""
"","image-keyboard-response","150","46478","0.0-150.0","3NS0A6KXC5U5RGYMGB6DGJFDSHNZGX","AK2XJWYN3PF2V","37SDSEDIN9ORHL92Y0GV7TIFJ2X187","","90.39999997615814","img/land2.png","76","92.29999995231628","3","0","2","2","0.8,0.2,0.2,0.2,0.8,0.2,0.2,0.2,0.8","0.8,0.2,0.2,0.2,0.8,0.2,0.2,0.2,0.8","1","",""
"","html-keyboard-response","151","46782","0.0-151.0","3NS0A6KXC5U5RGYMGB6DGJFDSHNZGX","AK2XJWYN3PF2V","37SDSEDIN9ORHL92Y0GV7TIFJ2X187","","null","<img src=""img/land2.png"" style=""width:200px;border:14px solid red;"">","null","","","","","","","","","",""
"","image-keyboard-response","152","46985","0.0-152.0","3NS0A6KXC5U5RGYMGB6DGJFDSHNZGX","AK2XJWYN3PF2V","37SDSEDIN9ORHL92Y0GV7TIFJ2X187","","200.69999992847443","img/land4.png","76","202.70000004768372","3","0","1","2","0.8,0.2,0.2,0.2,0.8,0.2,0.2,0.2,0.8","0.8,0.2,0.2,0.2,0.8,0.2,0.2,0.2,0.8","1","",""
"","html-keyboard-response","153","47288","0.0-153.0","3NS0A6KXC5U5RGYMGB6DGJFDSHNZGX","AK2XJWYN3PF2V","37SDSEDIN9ORHL92Y0GV7TIFJ2X187","","null","<img src=""img/land4.png"" style=""width:200px;border:14px solid red;"">","null","","","","","","","","","",""
"","image-keyboard-response","154","47413","0.0-154.0","3NS0A6KXC5U5RGYMGB6DGJFDSHNZGX","AK2XJWYN3PF2V","37SDSEDIN9ORHL92Y0GV7TIFJ2X187","","121.5","img/land4.png","74","123.69999992847443","1","1","1","2","0.8,0.2,0.2,0.2,0.8,0.2,0.2,0.2,0.8","0.8,0.2,0.2,0.2,0.8,0.2,0.2,0.2,0.8","1","",""
"","html-keyboard-response","155","47716","0.0-155.0","3NS0A6KXC5U5RGYMGB6DGJFDSHNZGX","AK2XJWYN3PF2V","37SDSEDIN9ORHL92Y0GV7TIFJ2X187","","null","<img src=""img/land4.png"" style=""width:200px; border:14px solid green;"">","null","","","","","","","","","",""
"","image-keyboard-response","156","47914","0.0-156.0","3NS0A6KXC5U5RGYMGB6DGJFDSHNZGX","AK2XJWYN3PF2V","37SDSEDIN9ORHL92Y0GV7TIFJ2X187","","195.89999997615814","img/land4.png","74","197.79999995231628","1","1","1","2","0.8,0.2,0.2,0.2,0.8,0.2,0.2,0.2,0.8","0.8,0.2,0.2,0.2,0.8,0.2,0.2,0.2,0.8","1","",""
"","html-keyboard-response","157","48217","0.0-157.0","3NS0A6KXC5U5RGYMGB6DGJFDSHNZGX","AK2XJWYN3PF2V","37SDSEDIN9ORHL92Y0GV7TIFJ2X187","","null","<img src=""img/land4.png"" style=""width:200px; border:14px solid green;"">","null","","","","","","","","","",""
"","image-keyboard-response","158","48333","0.0-158.0","3NS0A6KXC5U5RGYMGB6DGJFDSHNZGX","AK2XJWYN3PF2V","37SDSEDIN9ORHL92Y0GV7TIFJ2X187","","113","img/land4.png","74","115.10000002384186","1","1","1","2","0.8,0.2,0.2,0.2,0.8,0.2,0.2,0.2,0.8","0.8,0.2,0.2,0.2,0.8,0.2,0.2,0.2,0.8","1","",""
"","html-keyboard-response","159","48636","0.0-159.0","3NS0A6KXC5U5RGYMGB6DGJFDSHNZGX","AK2XJWYN3PF2V","37SDSEDIN9ORHL92Y0GV7TIFJ2X187","","null","<img src=""img/land4.png"" style=""width:200px; border:14px solid green;"">","null","","","","","","","","","",""
"","image-keyboard-response","160","48737","0.0-160.0","3NS0A6KXC5U5RGYMGB6DGJFDSHNZGX","AK2XJWYN3PF2V","37SDSEDIN9ORHL92Y0GV7TIFJ2X187","","98","img/land1.png","74","99.89999997615814","1","0","3","2","0.8,0.2,0.2,0.2,0.8,0.2,0.2,0.2,0.8","0.8,0.2,0.2,0.2,0.8,0.2,0.2,0.2,0.8","1","",""
"","html-keyboard-response","161","49043","0.0-161.0","3NS0A6KXC5U5RGYMGB6DGJFDSHNZGX","AK2XJWYN3PF2V","37SDSEDIN9ORHL92Y0GV7TIFJ2X187","","null","<img src=""img/land1.png"" style=""width:200px;border:14px solid red;"">","null","","","","","","","","","",""
"","image-keyboard-response","162","49195","0.0-162.0","3NS0A6KXC5U5RGYMGB6DGJFDSHNZGX","AK2XJWYN3PF2V","37SDSEDIN9ORHL92Y0GV7TIFJ2X187","","149.59999990463257","img/land4.png","74","151.60000002384186","1","0","1","2","0.8,0.2,0.2,0.2,0.8,0.2,0.2,0.2,0.8","0.8,0.2,0.2,0.2,0.8,0.2,0.2,0.2,0.8","1","",""
"","html-keyboard-response","163","49499","0.0-163.0","3NS0A6KXC5U5RGYMGB6DGJFDSHNZGX","AK2XJWYN3PF2V","37SDSEDIN9ORHL92Y0GV7TIFJ2X187","","null","<img src=""img/land4.png"" style=""width:200px;border:14px solid red;"">","null","","","","","","","","","",""
"","image-keyboard-response","164","49657","0.0-164.0","3NS0A6KXC5U5RGYMGB6DGJFDSHNZGX","AK2XJWYN3PF2V","37SDSEDIN9ORHL92Y0GV7TIFJ2X187","","155","img/land1.png","74","157.30000007152557","1","0","3","2","0.8,0.2,0.2,0.2,0.8,0.2,0.2,0.2,0.8","0.8,0.2,0.2,0.2,0.8,0.2,0.2,0.2,0.8","1","",""
"","html-keyboard-response","165","49960","0.0-165.0","3NS0A6KXC5U5RGYMGB6DGJFDSHNZGX","AK2XJWYN3PF2V","37SDSEDIN9ORHL92Y0GV7TIFJ2X187","","null","<img src=""img/land1.png"" style=""width:200px;border:14px solid red;"">","null","","","","","","","","","",""
"","image-keyboard-response","166","50069","0.0-166.0","3NS0A6KXC5U5RGYMGB6DGJFDSHNZGX","AK2XJWYN3PF2V","37SDSEDIN9ORHL92Y0GV7TIFJ2X187","","105.80000007152557","img/land4.png","74","107.89999997615814","1","1","1","2","0.8,0.2,0.2,0.2,0.8,0.2,0.2,0.2,0.8","0.8,0.2,0.2,0.2,0.8,0.2,0.2,0.2,0.8","1","",""
"","html-keyboard-response","167","50372","0.0-167.0","3NS0A6KXC5U5RGYMGB6DGJFDSHNZGX","AK2XJWYN3PF2V","37SDSEDIN9ORHL92Y0GV7TIFJ2X187","","null","<img src=""img/land4.png"" style=""width:200px; border:14px solid green;"">","null","","","","","","","","","",""
"","image-keyboard-response","168","50546","0.0-168.0","3NS0A6KXC5U5RGYMGB6DGJFDSHNZGX","AK2XJWYN3PF2V","37SDSEDIN9ORHL92Y0GV7TIFJ2X187","","171.80000007152557","img/land4.png","74","173.89999997615814","1","1","1","2","0.8,0.2,0.2,0.2,0.8,0.2,0.2,0.2,0.8","0.8,0.2,0.2,0.2,0.8,0.2,0.2,0.2,0.8","1","",""
"","html-keyboard-response","169","50849","0.0-169.0","3NS0A6KXC5U5RGYMGB6DGJFDSHNZGX","AK2XJWYN3PF2V","37SDSEDIN9ORHL92Y0GV7TIFJ2X187","","null","<img src=""img/land4.png"" style=""width:200px; border:14px solid green;"">","null","","","","","","","","","",""
"","image-keyboard-response","170","51081","0.0-170.0","3NS0A6KXC5U5RGYMGB6DGJFDSHNZGX","AK2XJWYN3PF2V","37SDSEDIN9ORHL92Y0GV7TIFJ2X187","","230","img/land4.png","74","231.29999995231628","1","1","1","2","0.8,0.2,0.2,0.2,0.8,0.2,0.2,0.2,0.8","0.8,0.2,0.2,0.2,0.8,0.2,0.2,0.2,0.8","1","",""
"","html-keyboard-response","171","51384","0.0-171.0","3NS0A6KXC5U5RGYMGB6DGJFDSHNZGX","AK2XJWYN3PF2V","37SDSEDIN9ORHL92Y0GV7TIFJ2X187","","null","<img src=""img/land4.png"" style=""width:200px; border:14px solid green;"">","null","","","","","","","","","",""
"","image-keyboard-response","172","51401","0.0-172.0","3NS0A6KXC5U5RGYMGB6DGJFDSHNZGX","AK2XJWYN3PF2V","37SDSEDIN9ORHL92Y0GV7TIFJ2X187","","14.899999976158142","img/land4.png","74","17","1","1","1","2","0.8,0.2,0.2,0.2,0.8,0.2,0.2,0.2,0.8","0.8,0.2,0.2,0.2,0.8,0.2,0.2,0.2,0.8","1","",""
"","html-keyboard-response","173","51704","0.0-173.0","3NS0A6KXC5U5RGYMGB6DGJFDSHNZGX","AK2XJWYN3PF2V","37SDSEDIN9ORHL92Y0GV7TIFJ2X187","","null","<img src=""img/land4.png"" style=""width:200px; border:14px solid green;"">","null","","","","","","","","","",""
"","image-keyboard-response","174","51888","0.0-174.0","3NS0A6KXC5U5RGYMGB6DGJFDSHNZGX","AK2XJWYN3PF2V","37SDSEDIN9ORHL92Y0GV7TIFJ2X187","","181","img/land2.png","74","183.10000002384186","1","0","2","2","0.8,0.2,0.2,0.2,0.8,0.2,0.2,0.2,0.8","0.8,0.2,0.2,0.2,0.8,0.2,0.2,0.2,0.8","1","",""
"","html-keyboard-response","175","52191","0.0-175.0","3NS0A6KXC5U5RGYMGB6DGJFDSHNZGX","AK2XJWYN3PF2V","37SDSEDIN9ORHL92Y0GV7TIFJ2X187","","null","<img src=""img/land2.png"" style=""width:200px;border:14px solid red;"">","null","","","","","","","","","",""
"","image-keyboard-response","176","52279","0.0-176.0","3NS0A6KXC5U5RGYMGB6DGJFDSHNZGX","AK2XJWYN3PF2V","37SDSEDIN9ORHL92Y0GV7TIFJ2X187","","85.39999997615814","img/land4.png","75","87.39999997615814","2","1","1","2","0.8,0.2,0.2,0.2,0.8,0.2,0.2,0.2,0.8","0.8,0.2,0.2,0.2,0.8,0.2,0.2,0.2,0.8","1","",""
"","html-keyboard-response","177","52582","0.0-177.0","3NS0A6KXC5U5RGYMGB6DGJFDSHNZGX","AK2XJWYN3PF2V","37SDSEDIN9ORHL92Y0GV7TIFJ2X187","","null","<img src=""img/land4.png"" style=""width:200px; border:14px solid green;"">","null","","","","","","","","","",""
"","image-keyboard-response","178","52862","0.0-178.0","3NS0A6KXC5U5RGYMGB6DGJFDSHNZGX","AK2XJWYN3PF2V","37SDSEDIN9ORHL92Y0GV7TIFJ2X187","","277","img/land4.png","75","278.89999997615814","2","0","1","2","0.8,0.2,0.2,0.2,0.8,0.2,0.2,0.2,0.8","0.8,0.2,0.2,0.2,0.8,0.2,0.2,0.2,0.8","1","",""
"","html-keyboard-response","179","53165","0.0-179.0","3NS0A6KXC5U5RGYMGB6DGJFDSHNZGX","AK2XJWYN3PF2V","37SDSEDIN9ORHL92Y0GV7TIFJ2X187","","null","<img src=""img/land4.png"" style=""width:200px;border:14px solid red;"">","null","","","","","","","","","",""
"","image-keyboard-response","180","53308","0.0-180.0","3NS0A6KXC5U5RGYMGB6DGJFDSHNZGX","AK2XJWYN3PF2V","37SDSEDIN9ORHL92Y0GV7TIFJ2X187","","140.20000004768372","img/land2.png","74","142.10000002384186","1","0","2","2","0.8,0.2,0.2,0.2,0.8,0.2,0.2,0.2,0.8","0.8,0.2,0.2,0.2,0.8,0.2,0.2,0.2,0.8","1","",""
"","html-keyboard-response","181","53611","0.0-181.0","3NS0A6KXC5U5RGYMGB6DGJFDSHNZGX","AK2XJWYN3PF2V","37SDSEDIN9ORHL92Y0GV7TIFJ2X187","","null","<img src=""img/land2.png"" style=""width:200px;border:14px solid red;"">","null","","","","","","","","","",""
"","image-keyboard-response","182","54070","0.0-182.0","3NS0A6KXC5U5RGYMGB6DGJFDSHNZGX","AK2XJWYN3PF2V","37SDSEDIN9ORHL92Y0GV7TIFJ2X187","","455.8000000715256","img/land4.png","75","458","2","0","1","2","0.8,0.2,0.2,0.2,0.8,0.2,0.2,0.2,0.8","0.8,0.2,0.2,0.2,0.8,0.2,0.2,0.2,0.8","1","",""
"","html-keyboard-response","183","54374","0.0-183.0","3NS0A6KXC5U5RGYMGB6DGJFDSHNZGX","AK2XJWYN3PF2V","37SDSEDIN9ORHL92Y0GV7TIFJ2X187","","null","<img src=""img/land4.png"" style=""width:200px;border:14px solid red;"">","null","","","","","","","","","",""
"","image-keyboard-response","184","54757","0.0-184.0","3NS0A6KXC5U5RGYMGB6DGJFDSHNZGX","AK2XJWYN3PF2V","37SDSEDIN9ORHL92Y0GV7TIFJ2X187","","379.90000009536743","img/land1.png","75","382","2","0","3","2","0.8,0.2,0.2,0.2,0.8,0.2,0.2,0.2,0.8","0.8,0.2,0.2,0.2,0.8,0.2,0.2,0.2,0.8","1","",""
"","html-keyboard-response","185","55060","0.0-185.0","3NS0A6KXC5U5RGYMGB6DGJFDSHNZGX","AK2XJWYN3PF2V","37SDSEDIN9ORHL92Y0GV7TIFJ2X187","","null","<img src=""img/land1.png"" style=""width:200px;border:14px solid red;"">","null","","","","","","","","","",""
"","image-keyboard-response","186","55343","0.0-186.0","3NS0A6KXC5U5RGYMGB6DGJFDSHNZGX","AK2XJWYN3PF2V","37SDSEDIN9ORHL92Y0GV7TIFJ2X187","","280.39999997615814","img/land2.png","75","282.39999997615814","2","1","2","2","0.8,0.2,0.2,0.2,0.8,0.2,0.2,0.2,0.8","0.8,0.2,0.2,0.2,0.8,0.2,0.2,0.2,0.8","1","",""
"","html-keyboard-response","187","55646","0.0-187.0","3NS0A6KXC5U5RGYMGB6DGJFDSHNZGX","AK2XJWYN3PF2V","37SDSEDIN9ORHL92Y0GV7TIFJ2X187","","null","<img src=""img/land2.png"" style=""width:200px; border:14px solid green;"">","null","","","","","","","","","",""
"","image-keyboard-response","188","56175","0.0-188.0","3NS0A6KXC5U5RGYMGB6DGJFDSHNZGX","AK2XJWYN3PF2V","37SDSEDIN9ORHL92Y0GV7TIFJ2X187","","525.6000000238419","img/land4.png","75","527.7000000476837","2","0","1","2","0.8,0.2,0.2,0.2,0.8,0.2,0.2,0.2,0.8","0.8,0.2,0.2,0.2,0.8,0.2,0.2,0.2,0.8","1","",""
"","html-keyboard-response","189","56478","0.0-189.0","3NS0A6KXC5U5RGYMGB6DGJFDSHNZGX","AK2XJWYN3PF2V","37SDSEDIN9ORHL92Y0GV7TIFJ2X187","","null","<img src=""img/land4.png"" style=""width:200px;border:14px solid red;"">","null","","","","","","","","","",""
"","image-keyboard-response","190","56777","0.0-190.0","3NS0A6KXC5U5RGYMGB6DGJFDSHNZGX","AK2XJWYN3PF2V","37SDSEDIN9ORHL92Y0GV7TIFJ2X187","","295.7999999523163","img/land4.png","76","298.09999990463257","3","0","1","2","0.8,0.2,0.2,0.2,0.8,0.2,0.2,0.2,0.8","0.8,0.2,0.2,0.2,0.8,0.2,0.2,0.2,0.8","1","",""
"","html-keyboard-response","191","57079","0.0-191.0","3NS0A6KXC5U5RGYMGB6DGJFDSHNZGX","AK2XJWYN3PF2V","37SDSEDIN9ORHL92Y0GV7TIFJ2X187","","null","<img src=""img/land4.png"" style=""width:200px;border:14px solid red;"">","null","","","","","","","","","",""
"","image-keyboard-response","192","57709","0.0-192.0","3NS0A6KXC5U5RGYMGB6DGJFDSHNZGX","AK2XJWYN3PF2V","37SDSEDIN9ORHL92Y0GV7TIFJ2X187","","627.5","img/land2.png","76","629.6000000238419","3","0","2","2","0.8,0.2,0.2,0.2,0.8,0.2,0.2,0.2,0.8","0.8,0.2,0.2,0.2,0.8,0.2,0.2,0.2,0.8","1","",""
"","html-keyboard-response","193","58014","0.0-193.0","3NS0A6KXC5U5RGYMGB6DGJFDSHNZGX","AK2XJWYN3PF2V","37SDSEDIN9ORHL92Y0GV7TIFJ2X187","","null","<img src=""img/land2.png"" style=""width:200px;border:14px solid red;"">","null","","","","","","","","","",""
"","image-keyboard-response","194","58188","0.0-194.0","3NS0A6KXC5U5RGYMGB6DGJFDSHNZGX","AK2XJWYN3PF2V","37SDSEDIN9ORHL92Y0GV7TIFJ2X187","","171","img/land4.png","76","173.29999995231628","3","0","1","2","0.8,0.2,0.2,0.2,0.8,0.2,0.2,0.2,0.8","0.8,0.2,0.2,0.2,0.8,0.2,0.2,0.2,0.8","1","",""
"","html-keyboard-response","195","58491","0.0-195.0","3NS0A6KXC5U5RGYMGB6DGJFDSHNZGX","AK2XJWYN3PF2V","37SDSEDIN9ORHL92Y0GV7TIFJ2X187","","null","<img src=""img/land4.png"" style=""width:200px;border:14px solid red;"">","null","","","","","","","","","",""
"","image-keyboard-response","196","58790","0.0-196.0","3NS0A6KXC5U5RGYMGB6DGJFDSHNZGX","AK2XJWYN3PF2V","37SDSEDIN9ORHL92Y0GV7TIFJ2X187","","296","img/land4.png","76","298.1999999284744","3","0","1","2","0.8,0.2,0.2,0.2,0.8,0.2,0.2,0.2,0.8","0.8,0.2,0.2,0.2,0.8,0.2,0.2,0.2,0.8","1","",""
"","html-keyboard-response","197","59093","0.0-197.0","3NS0A6KXC5U5RGYMGB6DGJFDSHNZGX","AK2XJWYN3PF2V","37SDSEDIN9ORHL92Y0GV7TIFJ2X187","","null","<img src=""img/land4.png"" style=""width:200px;border:14px solid red;"">","null","","","","","","","","","",""
"","image-keyboard-response","198","59570","0.0-198.0","3NS0A6KXC5U5RGYMGB6DGJFDSHNZGX","AK2XJWYN3PF2V","37SDSEDIN9ORHL92Y0GV7TIFJ2X187","","474.5","img/land2.png","76","476.60000002384186","3","0","2","2","0.8,0.2,0.2,0.2,0.8,0.2,0.2,0.2,0.8","0.8,0.2,0.2,0.2,0.8,0.2,0.2,0.2,0.8","1","",""
"","html-keyboard-response","199","59875","0.0-199.0","3NS0A6KXC5U5RGYMGB6DGJFDSHNZGX","AK2XJWYN3PF2V","37SDSEDIN9ORHL92Y0GV7TIFJ2X187","","null","<img src=""img/land2.png"" style=""width:200px;border:14px solid red;"">","null","","","","","","","","","",""
"","image-keyboard-response","200","60034","0.0-200.0","3NS0A6KXC5U5RGYMGB6DGJFDSHNZGX","AK2XJWYN3PF2V","37SDSEDIN9ORHL92Y0GV7TIFJ2X187","","157","img/land4.png","76","159.09999990463257","3","0","1","2","0.8,0.2,0.2,0.2,0.8,0.2,0.2,0.2,0.8","0.8,0.2,0.2,0.2,0.8,0.2,0.2,0.2,0.8","1","",""
"","html-keyboard-response","201","60338","0.0-201.0","3NS0A6KXC5U5RGYMGB6DGJFDSHNZGX","AK2XJWYN3PF2V","37SDSEDIN9ORHL92Y0GV7TIFJ2X187","","null","<img src=""img/land4.png"" style=""width:200px;border:14px solid red;"">","null","","","","","","","","","",""
"","image-keyboard-response","202","60468","0.0-202.0","3NS0A6KXC5U5RGYMGB6DGJFDSHNZGX","AK2XJWYN3PF2V","37SDSEDIN9ORHL92Y0GV7TIFJ2X187","","127.29999995231628","img/land4.png","74","129.39999997615814","1","1","1","2","0.8,0.2,0.2,0.2,0.8,0.2,0.2,0.2,0.8","0.8,0.2,0.2,0.2,0.8,0.2,0.2,0.2,0.8","1","",""
"","html-keyboard-response","203","60771","0.0-203.0","3NS0A6KXC5U5RGYMGB6DGJFDSHNZGX","AK2XJWYN3PF2V","37SDSEDIN9ORHL92Y0GV7TIFJ2X187","","null","<img src=""img/land4.png"" style=""width:200px; border:14px solid green;"">","null","","","","","","","","","",""
"","image-keyboard-response","204","60950","0.0-204.0","3NS0A6KXC5U5RGYMGB6DGJFDSHNZGX","AK2XJWYN3PF2V","37SDSEDIN9ORHL92Y0GV7TIFJ2X187","","176.30000007152557","img/land4.png","74","178.5","1","0","1","2","0.8,0.2,0.2,0.2,0.8,0.2,0.2,0.2,0.8","0.8,0.2,0.2,0.2,0.8,0.2,0.2,0.2,0.8","1","",""
"","html-keyboard-response","205","61254","0.0-205.0","3NS0A6KXC5U5RGYMGB6DGJFDSHNZGX","AK2XJWYN3PF2V","37SDSEDIN9ORHL92Y0GV7TIFJ2X187","","null","<img src=""img/land4.png"" style=""width:200px;border:14px solid red;"">","null","","","","","","","","","",""
"","image-keyboard-response","206","61552","0.0-206.0","3NS0A6KXC5U5RGYMGB6DGJFDSHNZGX","AK2XJWYN3PF2V","37SDSEDIN9ORHL92Y0GV7TIFJ2X187","","295.89999997615814","img/land4.png","74","298","1","1","1","2","0.8,0.2,0.2,0.2,0.8,0.2,0.2,0.2,0.8","0.8,0.2,0.2,0.2,0.8,0.2,0.2,0.2,0.8","1","",""
"","html-keyboard-response","207","61855","0.0-207.0","3NS0A6KXC5U5RGYMGB6DGJFDSHNZGX","AK2XJWYN3PF2V","37SDSEDIN9ORHL92Y0GV7TIFJ2X187","","null","<img src=""img/land4.png"" style=""width:200px; border:14px solid green;"">","null","","","","","","","","","",""
"","image-keyboard-response","208","61893","0.0-208.0","3NS0A6KXC5U5RGYMGB6DGJFDSHNZGX","AK2XJWYN3PF2V","37SDSEDIN9ORHL92Y0GV7TIFJ2X187","","35.200000047683716","img/land2.png","74","37.200000047683716","1","1","2","2","0.8,0.2,0.2,0.2,0.8,0.2,0.2,0.2,0.8","0.8,0.2,0.2,0.2,0.8,0.2,0.2,0.2,0.8","1","",""
"","html-keyboard-response","209","62196","0.0-209.0","3NS0A6KXC5U5RGYMGB6DGJFDSHNZGX","AK2XJWYN3PF2V","37SDSEDIN9ORHL92Y0GV7TIFJ2X187","","null","<img src=""img/land2.png"" style=""width:200px; border:14px solid green;"">","null","","","","","","","","","",""
"","image-keyboard-response","210","62219","0.0-210.0","3NS0A6KXC5U5RGYMGB6DGJFDSHNZGX","AK2XJWYN3PF2V","37SDSEDIN9ORHL92Y0GV7TIFJ2X187","","19.600000023841858","img/land2.png","74","22.600000023841858","1","0","2","2","0.8,0.2,0.2,0.2,0.8,0.2,0.2,0.2,0.8","0.8,0.2,0.2,0.2,0.8,0.2,0.2,0.2,0.8","1","",""
"","html-keyboard-response","211","62523","0.0-211.0","3NS0A6KXC5U5RGYMGB6DGJFDSHNZGX","AK2XJWYN3PF2V","37SDSEDIN9ORHL92Y0GV7TIFJ2X187","","null","<img src=""img/land2.png"" style=""width:200px;border:14px solid red;"">","null","","","","","","","","","",""
"","image-keyboard-response","212","62861","0.0-212.0","3NS0A6KXC5U5RGYMGB6DGJFDSHNZGX","AK2XJWYN3PF2V","37SDSEDIN9ORHL92Y0GV7TIFJ2X187","","336","img/land4.png","74","338","1","1","1","2","0.8,0.2,0.2,0.2,0.8,0.2,0.2,0.2,0.8","0.8,0.2,0.2,0.2,0.8,0.2,0.2,0.2,0.8","1","",""
"","html-keyboard-response","213","63165","0.0-213.0","3NS0A6KXC5U5RGYMGB6DGJFDSHNZGX","AK2XJWYN3PF2V","37SDSEDIN9ORHL92Y0GV7TIFJ2X187","","null","<img src=""img/land4.png"" style=""width:200px; border:14px solid green;"">","null","","","","","","","","","",""
"","image-keyboard-response","214","63303","0.0-214.0","3NS0A6KXC5U5RGYMGB6DGJFDSHNZGX","AK2XJWYN3PF2V","37SDSEDIN9ORHL92Y0GV7TIFJ2X187","","135.19999992847443","img/land2.png","75","137.29999995231628","2","1","2","2","0.8,0.2,0.2,0.2,0.8,0.2,0.2,0.2,0.8","0.8,0.2,0.2,0.2,0.8,0.2,0.2,0.2,0.8","1","",""
"","html-keyboard-response","215","63606","0.0-215.0","3NS0A6KXC5U5RGYMGB6DGJFDSHNZGX","AK2XJWYN3PF2V","37SDSEDIN9ORHL92Y0GV7TIFJ2X187","","null","<img src=""img/land2.png"" style=""width:200px; border:14px solid green;"">","null","","","","","","","","","",""
"","image-keyboard-response","216","63612","0.0-216.0","3NS0A6KXC5U5RGYMGB6DGJFDSHNZGX","AK2XJWYN3PF2V","37SDSEDIN9ORHL92Y0GV7TIFJ2X187","","2.8000000715255737","img/land4.png","75","5.299999952316284","2","0","1","2","0.8,0.2,0.2,0.2,0.8,0.2,0.2,0.2,0.8","0.8,0.2,0.2,0.2,0.8,0.2,0.2,0.2,0.8","1","",""
"","html-keyboard-response","217","63915","0.0-217.0","3NS0A6KXC5U5RGYMGB6DGJFDSHNZGX","AK2XJWYN3PF2V","37SDSEDIN9ORHL92Y0GV7TIFJ2X187","","null","<img src=""img/land4.png"" style=""width:200px;border:14px solid red;"">","null","","","","","","","","","",""
"","image-keyboard-response","218","64083","0.0-218.0","3NS0A6KXC5U5RGYMGB6DGJFDSHNZGX","AK2XJWYN3PF2V","37SDSEDIN9ORHL92Y0GV7TIFJ2X187","","165.30000007152557","img/land4.png","74","167.60000002384186","1","0","1","2","0.8,0.2,0.2,0.2,0.8,0.2,0.2,0.2,0.8","0.8,0.2,0.2,0.2,0.8,0.2,0.2,0.2,0.8","1","",""
"","html-keyboard-response","219","64386","0.0-219.0","3NS0A6KXC5U5RGYMGB6DGJFDSHNZGX","AK2XJWYN3PF2V","37SDSEDIN9ORHL92Y0GV7TIFJ2X187","","null","<img src=""img/land4.png"" style=""width:200px;border:14px solid red;"">","null","","","","","","","","","",""
"","image-keyboard-response","220","64570","0.0-220.0","3NS0A6KXC5U5RGYMGB6DGJFDSHNZGX","AK2XJWYN3PF2V","37SDSEDIN9ORHL92Y0GV7TIFJ2X187","","180.70000004768372","img/land1.png","74","182.79999995231628","1","0","3","2","0.8,0.2,0.2,0.2,0.8,0.2,0.2,0.2,0.8","0.8,0.2,0.2,0.2,0.8,0.2,0.2,0.2,0.8","1","",""
"","html-keyboard-response","221","64873","0.0-221.0","3NS0A6KXC5U5RGYMGB6DGJFDSHNZGX","AK2XJWYN3PF2V","37SDSEDIN9ORHL92Y0GV7TIFJ2X187","","null","<img src=""img/land1.png"" style=""width:200px;border:14px solid red;"">","null","","","","","","","","","",""
"","image-keyboard-response","222","64896","0.0-222.0","3NS0A6KXC5U5RGYMGB6DGJFDSHNZGX","AK2XJWYN3PF2V","37SDSEDIN9ORHL92Y0GV7TIFJ2X187","","20.5","img/land2.png","76","22.5","3","0","2","2","0.8,0.2,0.2,0.2,0.8,0.2,0.2,0.2,0.8","0.8,0.2,0.2,0.2,0.8,0.2,0.2,0.2,0.8","1","",""
"","html-keyboard-response","223","65198","0.0-223.0","3NS0A6KXC5U5RGYMGB6DGJFDSHNZGX","AK2XJWYN3PF2V","37SDSEDIN9ORHL92Y0GV7TIFJ2X187","","null","<img src=""img/land2.png"" style=""width:200px;border:14px solid red;"">","null","","","","","","","","","",""
"","image-keyboard-response","224","65246","0.0-224.0","3NS0A6KXC5U5RGYMGB6DGJFDSHNZGX","AK2XJWYN3PF2V","37SDSEDIN9ORHL92Y0GV7TIFJ2X187","","46.60000002384186","img/land4.png","74","47.5","1","1","1","2","0.8,0.2,0.2,0.2,0.8,0.2,0.2,0.2,0.8","0.8,0.2,0.2,0.2,0.8,0.2,0.2,0.2,0.8","1","",""
"","html-keyboard-response","225","65548","0.0-225.0","3NS0A6KXC5U5RGYMGB6DGJFDSHNZGX","AK2XJWYN3PF2V","37SDSEDIN9ORHL92Y0GV7TIFJ2X187","","null","<img src=""img/land4.png"" style=""width:200px; border:14px solid green;"">","null","","","","","","","","","",""
"","image-keyboard-response","226","65654","0.0-226.0","3NS0A6KXC5U5RGYMGB6DGJFDSHNZGX","AK2XJWYN3PF2V","37SDSEDIN9ORHL92Y0GV7TIFJ2X187","","103","img/land4.png","74","105","1","1","1","2","0.8,0.2,0.2,0.2,0.8,0.2,0.2,0.2,0.8","0.8,0.2,0.2,0.2,0.8,0.2,0.2,0.2,0.8","1","",""
"","html-keyboard-response","227","65958","0.0-227.0","3NS0A6KXC5U5RGYMGB6DGJFDSHNZGX","AK2XJWYN3PF2V","37SDSEDIN9ORHL92Y0GV7TIFJ2X187","","null","<img src=""img/land4.png"" style=""width:200px; border:14px solid green;"">","null","","","","","","","","","",""
"","image-keyboard-response","228","66082","0.0-228.0","3NS0A6KXC5U5RGYMGB6DGJFDSHNZGX","AK2XJWYN3PF2V","37SDSEDIN9ORHL92Y0GV7TIFJ2X187","","121.29999995231628","img/land4.png","74","123.30000007152557","1","0","1","2","0.8,0.2,0.2,0.2,0.8,0.2,0.2,0.2,0.8","0.8,0.2,0.2,0.2,0.8,0.2,0.2,0.2,0.8","1","",""
"","html-keyboard-response","229","66384","0.0-229.0","3NS0A6KXC5U5RGYMGB6DGJFDSHNZGX","AK2XJWYN3PF2V","37SDSEDIN9ORHL92Y0GV7TIFJ2X187","","null","<img src=""img/land4.png"" style=""width:200px;border:14px solid red;"">","null","","","","","","","","","",""
"","image-keyboard-response","230","66533","0.0-230.0","3NS0A6KXC5U5RGYMGB6DGJFDSHNZGX","AK2XJWYN3PF2V","37SDSEDIN9ORHL92Y0GV7TIFJ2X187","","147.69999992847443","img/land4.png","75","149","2","0","1","2","0.8,0.2,0.2,0.2,0.8,0.2,0.2,0.2,0.8","0.8,0.2,0.2,0.2,0.8,0.2,0.2,0.2,0.8","1","",""
"","html-keyboard-response","231","66836","0.0-231.0","3NS0A6KXC5U5RGYMGB6DGJFDSHNZGX","AK2XJWYN3PF2V","37SDSEDIN9ORHL92Y0GV7TIFJ2X187","","null","<img src=""img/land4.png"" style=""width:200px;border:14px solid red;"">","null","","","","","","","","","",""
"","image-keyboard-response","232","66844","0.0-232.0","3NS0A6KXC5U5RGYMGB6DGJFDSHNZGX","AK2XJWYN3PF2V","37SDSEDIN9ORHL92Y0GV7TIFJ2X187","","6.599999904632568","img/land4.png","75","7.800000071525574","2","0","1","2","0.8,0.2,0.2,0.2,0.8,0.2,0.2,0.2,0.8","0.8,0.2,0.2,0.2,0.8,0.2,0.2,0.2,0.8","1","",""
"","html-keyboard-response","233","67147","0.0-233.0","3NS0A6KXC5U5RGYMGB6DGJFDSHNZGX","AK2XJWYN3PF2V","37SDSEDIN9ORHL92Y0GV7TIFJ2X187","","null","<img src=""img/land4.png"" style=""width:200px;border:14px solid red;"">","null","","","","","","","","","",""
"","image-keyboard-response","234","67340","0.0-234.0","3NS0A6KXC5U5RGYMGB6DGJFDSHNZGX","AK2XJWYN3PF2V","37SDSEDIN9ORHL92Y0GV7TIFJ2X187","","191.90000009536743","img/land4.png","74","193.10000002384186","1","1","1","2","0.8,0.2,0.2,0.2,0.8,0.2,0.2,0.2,0.8","0.8,0.2,0.2,0.2,0.8,0.2,0.2,0.2,0.8","1","",""
"","html-keyboard-response","235","67642","0.0-235.0","3NS0A6KXC5U5RGYMGB6DGJFDSHNZGX","AK2XJWYN3PF2V","37SDSEDIN9ORHL92Y0GV7TIFJ2X187","","null","<img src=""img/land4.png"" style=""width:200px; border:14px solid green;"">","null","","","","","","","","","",""
"","image-keyboard-response","236","67797","0.0-236.0","3NS0A6KXC5U5RGYMGB6DGJFDSHNZGX","AK2XJWYN3PF2V","37SDSEDIN9ORHL92Y0GV7TIFJ2X187","","153.20000004768372","img/land2.png","74","154.39999997615814","1","0","2","2","0.8,0.2,0.2,0.2,0.8,0.2,0.2,0.2,0.8","0.8,0.2,0.2,0.2,0.8,0.2,0.2,0.2,0.8","1","",""
"","html-keyboard-response","237","68099","0.0-237.0","3NS0A6KXC5U5RGYMGB6DGJFDSHNZGX","AK2XJWYN3PF2V","37SDSEDIN9ORHL92Y0GV7TIFJ2X187","","null","<img src=""img/land2.png"" style=""width:200px;border:14px solid red;"">","null","","","","","","","","","",""
"","image-keyboard-response","238","68199","0.0-238.0","3NS0A6KXC5U5RGYMGB6DGJFDSHNZGX","AK2XJWYN3PF2V","37SDSEDIN9ORHL92Y0GV7TIFJ2X187","","97.89999997615814","img/land1.png","74","99.10000002384186","1","0","3","2","0.8,0.2,0.2,0.2,0.8,0.2,0.2,0.2,0.8","0.8,0.2,0.2,0.2,0.8,0.2,0.2,0.2,0.8","1","",""
"","html-keyboard-response","239","68501","0.0-239.0","3NS0A6KXC5U5RGYMGB6DGJFDSHNZGX","AK2XJWYN3PF2V","37SDSEDIN9ORHL92Y0GV7TIFJ2X187","","null","<img src=""img/land1.png"" style=""width:200px;border:14px solid red;"">","null","","","","","","","","","",""
"","image-keyboard-response","240","68675","0.0-240.0","3NS0A6KXC5U5RGYMGB6DGJFDSHNZGX","AK2XJWYN3PF2V","37SDSEDIN9ORHL92Y0GV7TIFJ2X187","","172.89999997615814","img/land2.png","74","174.10000002384186","1","0","2","2","0.8,0.2,0.2,0.2,0.8,0.2,0.2,0.2,0.8","0.8,0.2,0.2,0.2,0.8,0.2,0.2,0.2,0.8","1","",""
"","html-keyboard-response","241","68976","0.0-241.0","3NS0A6KXC5U5RGYMGB6DGJFDSHNZGX","AK2XJWYN3PF2V","37SDSEDIN9ORHL92Y0GV7TIFJ2X187","","null","<img src=""img/land2.png"" style=""width:200px;border:14px solid red;"">","null","","","","","","","","","",""
"","image-keyboard-response","242","69101","0.0-242.0","3NS0A6KXC5U5RGYMGB6DGJFDSHNZGX","AK2XJWYN3PF2V","37SDSEDIN9ORHL92Y0GV7TIFJ2X187","","123.40000009536743","img/land4.png","74","124.5","1","1","1","2","0.8,0.2,0.2,0.2,0.8,0.2,0.2,0.2,0.8","0.8,0.2,0.2,0.2,0.8,0.2,0.2,0.2,0.8","1","",""
"","html-keyboard-response","243","69403","0.0-243.0","3NS0A6KXC5U5RGYMGB6DGJFDSHNZGX","AK2XJWYN3PF2V","37SDSEDIN9ORHL92Y0GV7TIFJ2X187","","null","<img src=""img/land4.png"" style=""width:200px; border:14px solid green;"">","null","","","","","","","","","",""
"","image-keyboard-response","244","69544","0.0-244.0","3NS0A6KXC5U5RGYMGB6DGJFDSHNZGX","AK2XJWYN3PF2V","37SDSEDIN9ORHL92Y0GV7TIFJ2X187","","139","img/land4.png","74","140.20000004768372","1","1","1","2","0.8,0.2,0.2,0.2,0.8,0.2,0.2,0.2,0.8","0.8,0.2,0.2,0.2,0.8,0.2,0.2,0.2,0.8","1","",""
"","html-keyboard-response","245","69846","0.0-245.0","3NS0A6KXC5U5RGYMGB6DGJFDSHNZGX","AK2XJWYN3PF2V","37SDSEDIN9ORHL92Y0GV7TIFJ2X187","","null","<img src=""img/land4.png"" style=""width:200px; border:14px solid green;"">","null","","","","","","","","","",""
"","image-keyboard-response","246","69959","0.0-246.0","3NS0A6KXC5U5RGYMGB6DGJFDSHNZGX","AK2XJWYN3PF2V","37SDSEDIN9ORHL92Y0GV7TIFJ2X187","","110.79999995231628","img/land4.png","74","112","1","1","1","2","0.8,0.2,0.2,0.2,0.8,0.2,0.2,0.2,0.8","0.8,0.2,0.2,0.2,0.8,0.2,0.2,0.2,0.8","1","",""
"","html-keyboard-response","247","70261","0.0-247.0","3NS0A6KXC5U5RGYMGB6DGJFDSHNZGX","AK2XJWYN3PF2V","37SDSEDIN9ORHL92Y0GV7TIFJ2X187","","null","<img src=""img/land4.png"" style=""width:200px; border:14px solid green;"">","null","","","","","","","","","",""
"","image-keyboard-response","248","70394","0.0-248.0","3NS0A6KXC5U5RGYMGB6DGJFDSHNZGX","AK2XJWYN3PF2V","37SDSEDIN9ORHL92Y0GV7TIFJ2X187","","130.89999997615814","img/land2.png","74","132.69999992847443","1","0","2","2","0.8,0.2,0.2,0.2,0.8,0.2,0.2,0.2,0.8","0.8,0.2,0.2,0.2,0.8,0.2,0.2,0.2,0.8","1","",""
"","html-keyboard-response","249","70696","0.0-249.0","3NS0A6KXC5U5RGYMGB6DGJFDSHNZGX","AK2XJWYN3PF2V","37SDSEDIN9ORHL92Y0GV7TIFJ2X187","","null","<img src=""img/land2.png"" style=""width:200px;border:14px solid red;"">","null","","","","","","","","","",""
"","image-keyboard-response","250","70898","0.0-250.0","3NS0A6KXC5U5RGYMGB6DGJFDSHNZGX","AK2XJWYN3PF2V","37SDSEDIN9ORHL92Y0GV7TIFJ2X187","","200.59999990463257","img/land1.png","76","201.89999997615814","3","1","3","2","0.8,0.2,0.2,0.2,0.8,0.2,0.2,0.2,0.8","0.8,0.2,0.2,0.2,0.8,0.2,0.2,0.2,0.8","1","",""
"","html-keyboard-response","251","71202","0.0-251.0","3NS0A6KXC5U5RGYMGB6DGJFDSHNZGX","AK2XJWYN3PF2V","37SDSEDIN9ORHL92Y0GV7TIFJ2X187","","null","<img src=""img/land1.png"" style=""width:200px; border:14px solid green;"">","null","","","","","","","","","",""
"","image-keyboard-response","252","71625","0.0-252.0","3NS0A6KXC5U5RGYMGB6DGJFDSHNZGX","AK2XJWYN3PF2V","37SDSEDIN9ORHL92Y0GV7TIFJ2X187","","420.1999999284744","img/land1.png","74","422.5","1","0","3","2","0.8,0.2,0.2,0.2,0.8,0.2,0.2,0.2,0.8","0.8,0.2,0.2,0.2,0.8,0.2,0.2,0.2,0.8","1","",""
"","html-keyboard-response","253","71928","0.0-253.0","3NS0A6KXC5U5RGYMGB6DGJFDSHNZGX","AK2XJWYN3PF2V","37SDSEDIN9ORHL92Y0GV7TIFJ2X187","","null","<img src=""img/land1.png"" style=""width:200px;border:14px solid red;"">","null","","","","","","","","","",""
"","image-keyboard-response","254","72082","0.0-254.0","3NS0A6KXC5U5RGYMGB6DGJFDSHNZGX","AK2XJWYN3PF2V","37SDSEDIN9ORHL92Y0GV7TIFJ2X187","","151.20000004768372","img/land1.png","76","153.5","3","1","3","2","0.8,0.2,0.2,0.2,0.8,0.2,0.2,0.2,0.8","0.8,0.2,0.2,0.2,0.8,0.2,0.2,0.2,0.8","1","",""
"","html-keyboard-response","255","72386","0.0-255.0","3NS0A6KXC5U5RGYMGB6DGJFDSHNZGX","AK2XJWYN3PF2V","37SDSEDIN9ORHL92Y0GV7TIFJ2X187","","null","<img src=""img/land1.png"" style=""width:200px; border:14px solid green;"">","null","","","","","","","","","",""
"","image-keyboard-response","256","72552","0.0-256.0","3NS0A6KXC5U5RGYMGB6DGJFDSHNZGX","AK2XJWYN3PF2V","37SDSEDIN9ORHL92Y0GV7TIFJ2X187","","163.70000004768372","img/land2.png","76","166","3","0","2","2","0.8,0.2,0.2,0.2,0.8,0.2,0.2,0.2,0.8","0.8,0.2,0.2,0.2,0.8,0.2,0.2,0.2,0.8","1","",""
"","html-keyboard-response","257","72856","0.0-257.0","3NS0A6KXC5U5RGYMGB6DGJFDSHNZGX","AK2XJWYN3PF2V","37SDSEDIN9ORHL92Y0GV7TIFJ2X187","","null","<img src=""img/land2.png"" style=""width:200px;border:14px solid red;"">","null","","","","","","","","","",""
"","image-keyboard-response","258","73211","0.0-258.0","3NS0A6KXC5U5RGYMGB6DGJFDSHNZGX","AK2XJWYN3PF2V","37SDSEDIN9ORHL92Y0GV7TIFJ2X187","","352.6999999284744","img/land4.png","74","354.60000002384186","1","1","1","2","0.8,0.2,0.2,0.2,0.8,0.2,0.2,0.2,0.8","0.8,0.2,0.2,0.2,0.8,0.2,0.2,0.2,0.8","1","",""
"","html-keyboard-response","259","73514","0.0-259.0","3NS0A6KXC5U5RGYMGB6DGJFDSHNZGX","AK2XJWYN3PF2V","37SDSEDIN9ORHL92Y0GV7TIFJ2X187","","null","<img src=""img/land4.png"" style=""width:200px; border:14px solid green;"">","null","","","","","","","","","",""
"","image-keyboard-response","260","73626","0.0-260.0","3NS0A6KXC5U5RGYMGB6DGJFDSHNZGX","AK2XJWYN3PF2V","37SDSEDIN9ORHL92Y0GV7TIFJ2X187","","109.10000002384186","img/land2.png","74","111.20000004768372","1","0","2","2","0.8,0.2,0.2,0.2,0.8,0.2,0.2,0.2,0.8","0.8,0.2,0.2,0.2,0.8,0.2,0.2,0.2,0.8","1","",""
"","html-keyboard-response","261","73929","0.0-261.0","3NS0A6KXC5U5RGYMGB6DGJFDSHNZGX","AK2XJWYN3PF2V","37SDSEDIN9ORHL92Y0GV7TIFJ2X187","","null","<img src=""img/land2.png"" style=""width:200px;border:14px solid red;"">","null","","","","","","","","","",""
"","image-keyboard-response","262","74219","0.0-262.0","3NS0A6KXC5U5RGYMGB6DGJFDSHNZGX","AK2XJWYN3PF2V","37SDSEDIN9ORHL92Y0GV7TIFJ2X187","","287","img/land2.png","74","289.3000000715256","1","0","2","2","0.8,0.2,0.2,0.2,0.8,0.2,0.2,0.2,0.8","0.8,0.2,0.2,0.2,0.8,0.2,0.2,0.2,0.8","1","",""
"","html-keyboard-response","263","74523","0.0-263.0","3NS0A6KXC5U5RGYMGB6DGJFDSHNZGX","AK2XJWYN3PF2V","37SDSEDIN9ORHL92Y0GV7TIFJ2X187","","null","<img src=""img/land2.png"" style=""width:200px;border:14px solid red;"">","null","","","","","","","","","",""
"","image-keyboard-response","264","74639","0.0-264.0","3NS0A6KXC5U5RGYMGB6DGJFDSHNZGX","AK2XJWYN3PF2V","37SDSEDIN9ORHL92Y0GV7TIFJ2X187","","114.90000009536743","img/land2.png","76","116","3","0","2","2","0.8,0.2,0.2,0.2,0.8,0.2,0.2,0.2,0.8","0.8,0.2,0.2,0.2,0.8,0.2,0.2,0.2,0.8","1","",""
"","html-keyboard-response","265","74941","0.0-265.0","3NS0A6KXC5U5RGYMGB6DGJFDSHNZGX","AK2XJWYN3PF2V","37SDSEDIN9ORHL92Y0GV7TIFJ2X187","","null","<img src=""img/land2.png"" style=""width:200px;border:14px solid red;"">","null","","","","","","","","","",""
"","image-keyboard-response","266","75445","0.0-266.0","3NS0A6KXC5U5RGYMGB6DGJFDSHNZGX","AK2XJWYN3PF2V","37SDSEDIN9ORHL92Y0GV7TIFJ2X187","","501.89999997615814","img/land4.png","74","504.3000000715256","1","1","1","2","0.8,0.2,0.2,0.2,0.8,0.2,0.2,0.2,0.8","0.8,0.2,0.2,0.2,0.8,0.2,0.2,0.2,0.8","1","",""
"","html-keyboard-response","267","75749","0.0-267.0","3NS0A6KXC5U5RGYMGB6DGJFDSHNZGX","AK2XJWYN3PF2V","37SDSEDIN9ORHL92Y0GV7TIFJ2X187","","null","<img src=""img/land4.png"" style=""width:200px; border:14px solid green;"">","null","","","","","","","","","",""
"","image-keyboard-response","268","75903","0.0-268.0","3NS0A6KXC5U5RGYMGB6DGJFDSHNZGX","AK2XJWYN3PF2V","37SDSEDIN9ORHL92Y0GV7TIFJ2X187","","151.70000004768372","img/land1.png","74","153.89999997615814","1","0","3","2","0.8,0.2,0.2,0.2,0.8,0.2,0.2,0.2,0.8","0.8,0.2,0.2,0.2,0.8,0.2,0.2,0.2,0.8","1","",""
"","html-keyboard-response","269","76207","0.0-269.0","3NS0A6KXC5U5RGYMGB6DGJFDSHNZGX","AK2XJWYN3PF2V","37SDSEDIN9ORHL92Y0GV7TIFJ2X187","","null","<img src=""img/land1.png"" style=""width:200px;border:14px solid red;"">","null","","","","","","","","","",""
"","image-keyboard-response","270","76797","0.0-270.0","3NS0A6KXC5U5RGYMGB6DGJFDSHNZGX","AK2XJWYN3PF2V","37SDSEDIN9ORHL92Y0GV7TIFJ2X187","","587.3999999761581","img/land4.png","74","589.7000000476837","1","1","1","2","0.8,0.2,0.2,0.2,0.8,0.2,0.2,0.2,0.8","0.8,0.2,0.2,0.2,0.8,0.2,0.2,0.2,0.8","1","",""
"","html-keyboard-response","271","77100","0.0-271.0","3NS0A6KXC5U5RGYMGB6DGJFDSHNZGX","AK2XJWYN3PF2V","37SDSEDIN9ORHL92Y0GV7TIFJ2X187","","null","<img src=""img/land4.png"" style=""width:200px; border:14px solid green;"">","null","","","","","","","","","",""
"","image-keyboard-response","272","77299","0.0-272.0","3NS0A6KXC5U5RGYMGB6DGJFDSHNZGX","AK2XJWYN3PF2V","37SDSEDIN9ORHL92Y0GV7TIFJ2X187","","196.30000007152557","img/land1.png","75","198.5","2","0","3","2","0.8,0.2,0.2,0.2,0.8,0.2,0.2,0.2,0.8","0.8,0.2,0.2,0.2,0.8,0.2,0.2,0.2,0.8","1","",""
"","html-keyboard-response","273","77603","0.0-273.0","3NS0A6KXC5U5RGYMGB6DGJFDSHNZGX","AK2XJWYN3PF2V","37SDSEDIN9ORHL92Y0GV7TIFJ2X187","","null","<img src=""img/land1.png"" style=""width:200px;border:14px solid red;"">","null","","","","","","","","","",""
"","image-keyboard-response","274","77774","0.0-274.0","3NS0A6KXC5U5RGYMGB6DGJFDSHNZGX","AK2XJWYN3PF2V","37SDSEDIN9ORHL92Y0GV7TIFJ2X187","","168.80000007152557","img/land4.png","75","171.09999990463257","2","0","1","2","0.8,0.2,0.2,0.2,0.8,0.2,0.2,0.2,0.8","0.8,0.2,0.2,0.2,0.8,0.2,0.2,0.2,0.8","1","",""
"","html-keyboard-response","275","78077","0.0-275.0","3NS0A6KXC5U5RGYMGB6DGJFDSHNZGX","AK2XJWYN3PF2V","37SDSEDIN9ORHL92Y0GV7TIFJ2X187","","null","<img src=""img/land4.png"" style=""width:200px;border:14px solid red;"">","null","","","","","","","","","",""
"","image-keyboard-response","276","78284","0.0-276.0","3NS0A6KXC5U5RGYMGB6DGJFDSHNZGX","AK2XJWYN3PF2V","37SDSEDIN9ORHL92Y0GV7TIFJ2X187","","204","img/land2.png","75","206.19999992847443","2","0","2","2","0.8,0.2,0.2,0.2,0.8,0.2,0.2,0.2,0.8","0.8,0.2,0.2,0.2,0.8,0.2,0.2,0.2,0.8","1","",""
"","html-keyboard-response","277","78587","0.0-277.0","3NS0A6KXC5U5RGYMGB6DGJFDSHNZGX","AK2XJWYN3PF2V","37SDSEDIN9ORHL92Y0GV7TIFJ2X187","","null","<img src=""img/land2.png"" style=""width:200px;border:14px solid red;"">","null","","","","","","","","","",""
"","image-keyboard-response","278","78845","0.0-278.0","3NS0A6KXC5U5RGYMGB6DGJFDSHNZGX","AK2XJWYN3PF2V","37SDSEDIN9ORHL92Y0GV7TIFJ2X187","","255.30000007152557","img/land4.png","75","257.39999997615814","2","0","1","2","0.8,0.2,0.2,0.2,0.8,0.2,0.2,0.2,0.8","0.8,0.2,0.2,0.2,0.8,0.2,0.2,0.2,0.8","1","",""
"","html-keyboard-response","279","79148","0.0-279.0","3NS0A6KXC5U5RGYMGB6DGJFDSHNZGX","AK2XJWYN3PF2V","37SDSEDIN9ORHL92Y0GV7TIFJ2X187","","null","<img src=""img/land4.png"" style=""width:200px;border:14px solid red;"">","null","","","","","","","","","",""
"","image-keyboard-response","280","79302","0.0-280.0","3NS0A6KXC5U5RGYMGB6DGJFDSHNZGX","AK2XJWYN3PF2V","37SDSEDIN9ORHL92Y0GV7TIFJ2X187","","149.30000007152557","img/land2.png","75","151.89999997615814","2","1","2","2","0.8,0.2,0.2,0.2,0.8,0.2,0.2,0.2,0.8","0.8,0.2,0.2,0.2,0.8,0.2,0.2,0.2,0.8","1","",""
"","html-keyboard-response","281","79606","0.0-281.0","3NS0A6KXC5U5RGYMGB6DGJFDSHNZGX","AK2XJWYN3PF2V","37SDSEDIN9ORHL92Y0GV7TIFJ2X187","","null","<img src=""img/land2.png"" style=""width:200px; border:14px solid green;"">","null","","","","","","","","","",""
"","image-keyboard-response","282","79729","0.0-282.0","3NS0A6KXC5U5RGYMGB6DGJFDSHNZGX","AK2XJWYN3PF2V","37SDSEDIN9ORHL92Y0GV7TIFJ2X187","","119.89999997615814","img/land4.png","74","122.10000002384186","1","1","1","2","0.8,0.2,0.2,0.2,0.8,0.2,0.2,0.2,0.8","0.8,0.2,0.2,0.2,0.8,0.2,0.2,0.2,0.8","1","",""
"","html-keyboard-response","283","80032","0.0-283.0","3NS0A6KXC5U5RGYMGB6DGJFDSHNZGX","AK2XJWYN3PF2V","37SDSEDIN9ORHL92Y0GV7TIFJ2X187","","null","<img src=""img/land4.png"" style=""width:200px; border:14px solid green;"">","null","","","","","","","","","",""
"","image-keyboard-response","284","80080","0.0-284.0","3NS0A6KXC5U5RGYMGB6DGJFDSHNZGX","AK2XJWYN3PF2V","37SDSEDIN9ORHL92Y0GV7TIFJ2X187","","44.800000071525574","img/land1.png","74","46.89999997615814","1","0","3","2","0.8,0.2,0.2,0.2,0.8,0.2,0.2,0.2,0.8","0.8,0.2,0.2,0.2,0.8,0.2,0.2,0.2,0.8","1","",""
"","html-keyboard-response","285","80384","0.0-285.0","3NS0A6KXC5U5RGYMGB6DGJFDSHNZGX","AK2XJWYN3PF2V","37SDSEDIN9ORHL92Y0GV7TIFJ2X187","","null","<img src=""img/land1.png"" style=""width:200px;border:14px solid red;"">","null","","","","","","","","","",""
"","image-keyboard-response","286","80626","0.0-286.0","3NS0A6KXC5U5RGYMGB6DGJFDSHNZGX","AK2XJWYN3PF2V","37SDSEDIN9ORHL92Y0GV7TIFJ2X187","","239.70000004768372","img/land4.png","74","241.89999997615814","1","1","1","2","0.8,0.2,0.2,0.2,0.8,0.2,0.2,0.2,0.8","0.8,0.2,0.2,0.2,0.8,0.2,0.2,0.2,0.8","1","",""
"","html-keyboard-response","287","80929","0.0-287.0","3NS0A6KXC5U5RGYMGB6DGJFDSHNZGX","AK2XJWYN3PF2V","37SDSEDIN9ORHL92Y0GV7TIFJ2X187","","null","<img src=""img/land4.png"" style=""width:200px; border:14px solid green;"">","null","","","","","","","","","",""
"","image-keyboard-response","288","81137","0.0-288.0","3NS0A6KXC5U5RGYMGB6DGJFDSHNZGX","AK2XJWYN3PF2V","37SDSEDIN9ORHL92Y0GV7TIFJ2X187","","204.70000004768372","img/land4.png","74","206.89999997615814","1","1","1","2","0.8,0.2,0.2,0.2,0.8,0.2,0.2,0.2,0.8","0.8,0.2,0.2,0.2,0.8,0.2,0.2,0.2,0.8","1","",""
"","html-keyboard-response","289","81440","0.0-289.0","3NS0A6KXC5U5RGYMGB6DGJFDSHNZGX","AK2XJWYN3PF2V","37SDSEDIN9ORHL92Y0GV7TIFJ2X187","","null","<img src=""img/land4.png"" style=""width:200px; border:14px solid green;"">","null","","","","","","","","","",""
"","image-keyboard-response","290","81794","0.0-290.0","3NS0A6KXC5U5RGYMGB6DGJFDSHNZGX","AK2XJWYN3PF2V","37SDSEDIN9ORHL92Y0GV7TIFJ2X187","","351.5","img/land4.png","75","353.60000002384186","2","0","1","2","0.8,0.2,0.2,0.2,0.8,0.2,0.2,0.2,0.8","0.8,0.2,0.2,0.2,0.8,0.2,0.2,0.2,0.8","1","",""
"","html-keyboard-response","291","82097","0.0-291.0","3NS0A6KXC5U5RGYMGB6DGJFDSHNZGX","AK2XJWYN3PF2V","37SDSEDIN9ORHL92Y0GV7TIFJ2X187","","null","<img src=""img/land4.png"" style=""width:200px;border:14px solid red;"">","null","","","","","","","","","",""
"","image-keyboard-response","292","82313","0.0-292.0","3NS0A6KXC5U5RGYMGB6DGJFDSHNZGX","AK2XJWYN3PF2V","37SDSEDIN9ORHL92Y0GV7TIFJ2X187","","214","img/land4.png","74","215.90000009536743","1","0","1","2","0.8,0.2,0.2,0.2,0.8,0.2,0.2,0.2,0.8","0.8,0.2,0.2,0.2,0.8,0.2,0.2,0.2,0.8","1","",""
"","html-keyboard-response","293","82616","0.0-293.0","3NS0A6KXC5U5RGYMGB6DGJFDSHNZGX","AK2XJWYN3PF2V","37SDSEDIN9ORHL92Y0GV7TIFJ2X187","","null","<img src=""img/land4.png"" style=""width:200px;border:14px solid red;"">","null","","","","","","","","","",""
"","image-keyboard-response","294","82722","0.0-294.0","3NS0A6KXC5U5RGYMGB6DGJFDSHNZGX","AK2XJWYN3PF2V","37SDSEDIN9ORHL92Y0GV7TIFJ2X187","","103.40000009536743","img/land1.png","76","105.60000002384186","3","1","3","2","0.8,0.2,0.2,0.2,0.8,0.2,0.2,0.2,0.8","0.8,0.2,0.2,0.2,0.8,0.2,0.2,0.2,0.8","1","",""
"","html-keyboard-response","295","83025","0.0-295.0","3NS0A6KXC5U5RGYMGB6DGJFDSHNZGX","AK2XJWYN3PF2V","37SDSEDIN9ORHL92Y0GV7TIFJ2X187","","null","<img src=""img/land1.png"" style=""width:200px; border:14px solid green;"">","null","","","","","","","","","",""
"","image-keyboard-response","296","83169","0.0-296.0","3NS0A6KXC5U5RGYMGB6DGJFDSHNZGX","AK2XJWYN3PF2V","37SDSEDIN9ORHL92Y0GV7TIFJ2X187","","140.60000002384186","img/land2.png","76","142.80000007152557","3","0","2","2","0.8,0.2,0.2,0.2,0.8,0.2,0.2,0.2,0.8","0.8,0.2,0.2,0.2,0.8,0.2,0.2,0.2,0.8","1","",""
"","html-keyboard-response","297","83473","0.0-297.0","3NS0A6KXC5U5RGYMGB6DGJFDSHNZGX","AK2XJWYN3PF2V","37SDSEDIN9ORHL92Y0GV7TIFJ2X187","","null","<img src=""img/land2.png"" style=""width:200px;border:14px solid red;"">","null","","","","","","","","","",""
"","image-keyboard-response","298","83629","0.0-298.0","3NS0A6KXC5U5RGYMGB6DGJFDSHNZGX","AK2XJWYN3PF2V","37SDSEDIN9ORHL92Y0GV7TIFJ2X187","","153.5","img/land4.png","76","155.70000004768372","3","0","1","2","0.8,0.2,0.2,0.2,0.8,0.2,0.2,0.2,0.8","0.8,0.2,0.2,0.2,0.8,0.2,0.2,0.2,0.8","1","",""
"","html-keyboard-response","299","83934","0.0-299.0","3NS0A6KXC5U5RGYMGB6DGJFDSHNZGX","AK2XJWYN3PF2V","37SDSEDIN9ORHL92Y0GV7TIFJ2X187","","null","<img src=""img/land4.png"" style=""width:200px;border:14px solid red;"">","null","","","","","","","","","",""
"","image-keyboard-response","300","84092","0.0-300.0","3NS0A6KXC5U5RGYMGB6DGJFDSHNZGX","AK2XJWYN3PF2V","37SDSEDIN9ORHL92Y0GV7TIFJ2X187","","155.40000009536743","img/land4.png","76","157.5","3","0","1","2","0.8,0.2,0.2,0.2,0.8,0.2,0.2,0.2,0.8","0.8,0.2,0.2,0.2,0.8,0.2,0.2,0.2,0.8","1","",""
"","html-keyboard-response","301","84395","0.0-301.0","3NS0A6KXC5U5RGYMGB6DGJFDSHNZGX","AK2XJWYN3PF2V","37SDSEDIN9ORHL92Y0GV7TIFJ2X187","","null","<img src=""img/land4.png"" style=""width:200px;border:14px solid red;"">","null","","","","","","","","","",""
"","image-keyboard-response","302","84732","0.0-302.0","3NS0A6KXC5U5RGYMGB6DGJFDSHNZGX","AK2XJWYN3PF2V","37SDSEDIN9ORHL92Y0GV7TIFJ2X187","","334.59999990463257","img/land5.png","75","336.60000002384186","2","1","2","1","0.8,0.2,0.2,0.2,0.8,0.2,0.2,0.2,0.8","0.8,0.2,0.2,0.2,0.8,0.2,0.2,0.2,0.8","1","",""
"","html-keyboard-response","303","85036","0.0-303.0","3NS0A6KXC5U5RGYMGB6DGJFDSHNZGX","AK2XJWYN3PF2V","37SDSEDIN9ORHL92Y0GV7TIFJ2X187","","null","<img src=""img/land5.png"" style=""width:200px; border:14px solid green;"">","null","","","","","","","","","",""
"","image-keyboard-response","304","85249","0.0-304.0","3NS0A6KXC5U5RGYMGB6DGJFDSHNZGX","AK2XJWYN3PF2V","37SDSEDIN9ORHL92Y0GV7TIFJ2X187","","210.29999995231628","img/land5.png","74","212.39999997615814","1","0","2","1","0.8,0.2,0.2,0.2,0.8,0.2,0.2,0.2,0.8","0.8,0.2,0.2,0.2,0.8,0.2,0.2,0.2,0.8","1","",""
"","html-keyboard-response","305","85552","0.0-305.0","3NS0A6KXC5U5RGYMGB6DGJFDSHNZGX","AK2XJWYN3PF2V","37SDSEDIN9ORHL92Y0GV7TIFJ2X187","","null","<img src=""img/land5.png"" style=""width:200px;border:14px solid red;"">","null","","","","","","","","","",""
"","image-keyboard-response","306","85678","0.0-306.0","3NS0A6KXC5U5RGYMGB6DGJFDSHNZGX","AK2XJWYN3PF2V","37SDSEDIN9ORHL92Y0GV7TIFJ2X187","","123.20000004768372","img/land6.png","75","125","2","0","1","1","0.8,0.2,0.2,0.2,0.8,0.2,0.2,0.2,0.8","0.8,0.2,0.2,0.2,0.8,0.2,0.2,0.2,0.8","1","",""
"","html-keyboard-response","307","85985","0.0-307.0","3NS0A6KXC5U5RGYMGB6DGJFDSHNZGX","AK2XJWYN3PF2V","37SDSEDIN9ORHL92Y0GV7TIFJ2X187","","null","<img src=""img/land6.png"" style=""width:200px;border:14px solid red;"">","null","","","","","","","","","",""
"","image-keyboard-response","308","86092","0.0-308.0","3NS0A6KXC5U5RGYMGB6DGJFDSHNZGX","AK2XJWYN3PF2V","37SDSEDIN9ORHL92Y0GV7TIFJ2X187","","104","img/land5.png","74","106.19999992847443","1","0","2","1","0.8,0.2,0.2,0.2,0.8,0.2,0.2,0.2,0.8","0.8,0.2,0.2,0.2,0.8,0.2,0.2,0.2,0.8","1","",""
"","html-keyboard-response","309","86395","0.0-309.0","3NS0A6KXC5U5RGYMGB6DGJFDSHNZGX","AK2XJWYN3PF2V","37SDSEDIN9ORHL92Y0GV7TIFJ2X187","","null","<img src=""img/land5.png"" style=""width:200px;border:14px solid red;"">","null","","","","","","","","","",""
"","image-keyboard-response","310","86493","0.0-310.0","3NS0A6KXC5U5RGYMGB6DGJFDSHNZGX","AK2XJWYN3PF2V","37SDSEDIN9ORHL92Y0GV7TIFJ2X187","","97.10000002384186","img/land5.png","75","98.59999990463257","2","0","2","1","0.8,0.2,0.2,0.2,0.8,0.2,0.2,0.2,0.8","0.8,0.2,0.2,0.2,0.8,0.2,0.2,0.2,0.8","1","",""
"","html-keyboard-response","311","86797","0.0-311.0","3NS0A6KXC5U5RGYMGB6DGJFDSHNZGX","AK2XJWYN3PF2V","37SDSEDIN9ORHL92Y0GV7TIFJ2X187","","null","<img src=""img/land5.png"" style=""width:200px;border:14px solid red;"">","null","","","","","","","","","",""
"","image-keyboard-response","312","86918","0.0-312.0","3NS0A6KXC5U5RGYMGB6DGJFDSHNZGX","AK2XJWYN3PF2V","37SDSEDIN9ORHL92Y0GV7TIFJ2X187","","118.20000004768372","img/land5.png","74","120.39999997615814","1","0","2","1","0.8,0.2,0.2,0.2,0.8,0.2,0.2,0.2,0.8","0.8,0.2,0.2,0.2,0.8,0.2,0.2,0.2,0.8","1","",""
"","html-keyboard-response","313","87222","0.0-313.0","3NS0A6KXC5U5RGYMGB6DGJFDSHNZGX","AK2XJWYN3PF2V","37SDSEDIN9ORHL92Y0GV7TIFJ2X187","","null","<img src=""img/land5.png"" style=""width:200px;border:14px solid red;"">","null","","","","","","","","","",""
"","image-keyboard-response","314","87392","0.0-314.0","3NS0A6KXC5U5RGYMGB6DGJFDSHNZGX","AK2XJWYN3PF2V","37SDSEDIN9ORHL92Y0GV7TIFJ2X187","","167.39999997615814","img/land3.png","76","169.59999990463257","3","1","3","1","0.8,0.2,0.2,0.2,0.8,0.2,0.2,0.2,0.8","0.8,0.2,0.2,0.2,0.8,0.2,0.2,0.2,0.8","1","",""
"","html-keyboard-response","315","87696","0.0-315.0","3NS0A6KXC5U5RGYMGB6DGJFDSHNZGX","AK2XJWYN3PF2V","37SDSEDIN9ORHL92Y0GV7TIFJ2X187","","null","<img src=""img/land3.png"" style=""width:200px; border:14px solid green;"">","null","","","","","","","","","",""
"","image-keyboard-response","316","87827","0.0-316.0","3NS0A6KXC5U5RGYMGB6DGJFDSHNZGX","AK2XJWYN3PF2V","37SDSEDIN9ORHL92Y0GV7TIFJ2X187","","128.60000002384186","img/land6.png","75","130.89999997615814","2","0","1","1","0.8,0.2,0.2,0.2,0.8,0.2,0.2,0.2,0.8","0.8,0.2,0.2,0.2,0.8,0.2,0.2,0.2,0.8","1","",""
"","html-keyboard-response","317","88131","0.0-317.0","3NS0A6KXC5U5RGYMGB6DGJFDSHNZGX","AK2XJWYN3PF2V","37SDSEDIN9ORHL92Y0GV7TIFJ2X187","","null","<img src=""img/land6.png"" style=""width:200px;border:14px solid red;"">","null","","","","","","","","","",""
"","image-keyboard-response","318","88243","0.0-318.0","3NS0A6KXC5U5RGYMGB6DGJFDSHNZGX","AK2XJWYN3PF2V","37SDSEDIN9ORHL92Y0GV7TIFJ2X187","","108.90000009536743","img/land6.png","74","111","1","1","1","1","0.8,0.2,0.2,0.2,0.8,0.2,0.2,0.2,0.8","0.8,0.2,0.2,0.2,0.8,0.2,0.2,0.2,0.8","1","",""
"","html-keyboard-response","319","88546","0.0-319.0","3NS0A6KXC5U5RGYMGB6DGJFDSHNZGX","AK2XJWYN3PF2V","37SDSEDIN9ORHL92Y0GV7TIFJ2X187","","null","<img src=""img/land6.png"" style=""width:200px; border:14px solid green;"">","null","","","","","","","","","",""
"","image-keyboard-response","320","88684","0.0-320.0","3NS0A6KXC5U5RGYMGB6DGJFDSHNZGX","AK2XJWYN3PF2V","37SDSEDIN9ORHL92Y0GV7TIFJ2X187","","135.60000002384186","img/land5.png","74","137.70000004768372","1","0","2","1","0.8,0.2,0.2,0.2,0.8,0.2,0.2,0.2,0.8","0.8,0.2,0.2,0.2,0.8,0.2,0.2,0.2,0.8","1","",""
"","html-keyboard-response","321","88988","0.0-321.0","3NS0A6KXC5U5RGYMGB6DGJFDSHNZGX","AK2XJWYN3PF2V","37SDSEDIN9ORHL92Y0GV7TIFJ2X187","","null","<img src=""img/land5.png"" style=""width:200px;border:14px solid red;"">","null","","","","","","","","","",""
"","image-keyboard-response","322","89130","0.0-322.0","3NS0A6KXC5U5RGYMGB6DGJFDSHNZGX","AK2XJWYN3PF2V","37SDSEDIN9ORHL92Y0GV7TIFJ2X187","","139.89999997615814","img/land6.png","76","142","3","0","1","1","0.8,0.2,0.2,0.2,0.8,0.2,0.2,0.2,0.8","0.8,0.2,0.2,0.2,0.8,0.2,0.2,0.2,0.8","1","",""
"","html-keyboard-response","323","89435","0.0-323.0","3NS0A6KXC5U5RGYMGB6DGJFDSHNZGX","AK2XJWYN3PF2V","37SDSEDIN9ORHL92Y0GV7TIFJ2X187","","null","<img src=""img/land6.png"" style=""width:200px;border:14px solid red;"">","null","","","","","","","","","",""
"","image-keyboard-response","324","89772","0.0-324.0","3NS0A6KXC5U5RGYMGB6DGJFDSHNZGX","AK2XJWYN3PF2V","37SDSEDIN9ORHL92Y0GV7TIFJ2X187","","334.59999990463257","img/land3.png","74","336.7000000476837","1","0","3","1","0.8,0.2,0.2,0.2,0.8,0.2,0.2,0.2,0.8","0.8,0.2,0.2,0.2,0.8,0.2,0.2,0.2,0.8","1","",""
"","html-keyboard-response","325","90076","0.0-325.0","3NS0A6KXC5U5RGYMGB6DGJFDSHNZGX","AK2XJWYN3PF2V","37SDSEDIN9ORHL92Y0GV7TIFJ2X187","","null","<img src=""img/land3.png"" style=""width:200px;border:14px solid red;"">","null","","","","","","","","","",""
"","image-keyboard-response","326","90205","0.0-326.0","3NS0A6KXC5U5RGYMGB6DGJFDSHNZGX","AK2XJWYN3PF2V","37SDSEDIN9ORHL92Y0GV7TIFJ2X187","","126.60000002384186","img/land5.png","74","128.79999995231628","1","0","2","1","0.8,0.2,0.2,0.2,0.8,0.2,0.2,0.2,0.8","0.8,0.2,0.2,0.2,0.8,0.2,0.2,0.2,0.8","1","",""
"","html-keyboard-response","327","90508","0.0-327.0","3NS0A6KXC5U5RGYMGB6DGJFDSHNZGX","AK2XJWYN3PF2V","37SDSEDIN9ORHL92Y0GV7TIFJ2X187","","null","<img src=""img/land5.png"" style=""width:200px;border:14px solid red;"">","null","","","","","","","","","",""
"","image-keyboard-response","328","90596","0.0-328.0","3NS0A6KXC5U5RGYMGB6DGJFDSHNZGX","AK2XJWYN3PF2V","37SDSEDIN9ORHL92Y0GV7TIFJ2X187","","84.60000002384186","img/land5.png","75","86.80000007152557","2","1","2","1","0.8,0.2,0.2,0.2,0.8,0.2,0.2,0.2,0.8","0.8,0.2,0.2,0.2,0.8,0.2,0.2,0.2,0.8","1","",""
"","html-keyboard-response","329","90899","0.0-329.0","3NS0A6KXC5U5RGYMGB6DGJFDSHNZGX","AK2XJWYN3PF2V","37SDSEDIN9ORHL92Y0GV7TIFJ2X187","","null","<img src=""img/land5.png"" style=""width:200px; border:14px solid green;"">","null","","","","","","","","","",""
"","image-keyboard-response","330","91030","0.0-330.0","3NS0A6KXC5U5RGYMGB6DGJFDSHNZGX","AK2XJWYN3PF2V","37SDSEDIN9ORHL92Y0GV7TIFJ2X187","","128","img/land3.png","74","130.19999992847443","1","1","3","1","0.8,0.2,0.2,0.2,0.8,0.2,0.2,0.2,0.8","0.8,0.2,0.2,0.2,0.8,0.2,0.2,0.2,0.8","1","",""
"","html-keyboard-response","331","91333","0.0-331.0","3NS0A6KXC5U5RGYMGB6DGJFDSHNZGX","AK2XJWYN3PF2V","37SDSEDIN9ORHL92Y0GV7TIFJ2X187","","null","<img src=""img/land3.png"" style=""width:200px; border:14px solid green;"">","null","","","","","","","","","",""
"","image-keyboard-response","332","91451","0.0-332.0","3NS0A6KXC5U5RGYMGB6DGJFDSHNZGX","AK2XJWYN3PF2V","37SDSEDIN9ORHL92Y0GV7TIFJ2X187","","115.29999995231628","img/land3.png","75","117.69999992847443","2","0","3","1","0.8,0.2,0.2,0.2,0.8,0.2,0.2,0.2,0.8","0.8,0.2,0.2,0.2,0.8,0.2,0.2,0.2,0.8","1","",""
"","html-keyboard-response","333","91755","0.0-333.0","3NS0A6KXC5U5RGYMGB6DGJFDSHNZGX","AK2XJWYN3PF2V","37SDSEDIN9ORHL92Y0GV7TIFJ2X187","","null","<img src=""img/land3.png"" style=""width:200px;border:14px solid red;"">","null","","","","","","","","","",""
"","image-keyboard-response","334","91897","0.0-334.0","3NS0A6KXC5U5RGYMGB6DGJFDSHNZGX","AK2XJWYN3PF2V","37SDSEDIN9ORHL92Y0GV7TIFJ2X187","","139","img/land3.png","74","141.20000004768372","1","0","3","1","0.8,0.2,0.2,0.2,0.8,0.2,0.2,0.2,0.8","0.8,0.2,0.2,0.2,0.8,0.2,0.2,0.2,0.8","1","",""
"","html-keyboard-response","335","92201","0.0-335.0","3NS0A6KXC5U5RGYMGB6DGJFDSHNZGX","AK2XJWYN3PF2V","37SDSEDIN9ORHL92Y0GV7TIFJ2X187","","null","<img src=""img/land3.png"" style=""width:200px;border:14px solid red;"">","null","","","","","","","","","",""
"","image-keyboard-response","336","92351","0.0-336.0","3NS0A6KXC5U5RGYMGB6DGJFDSHNZGX","AK2XJWYN3PF2V","37SDSEDIN9ORHL92Y0GV7TIFJ2X187","","147.29999995231628","img/land6.png","74","149.5","1","1","1","1","0.8,0.2,0.2,0.2,0.8,0.2,0.2,0.2,0.8","0.8,0.2,0.2,0.2,0.8,0.2,0.2,0.2,0.8","1","",""
"","html-keyboard-response","337","92655","0.0-337.0","3NS0A6KXC5U5RGYMGB6DGJFDSHNZGX","AK2XJWYN3PF2V","37SDSEDIN9ORHL92Y0GV7TIFJ2X187","","null","<img src=""img/land6.png"" style=""width:200px; border:14px solid green;"">","null","","","","","","","","","",""
"","image-keyboard-response","338","92756","0.0-338.0","3NS0A6KXC5U5RGYMGB6DGJFDSHNZGX","AK2XJWYN3PF2V","37SDSEDIN9ORHL92Y0GV7TIFJ2X187","","98.10000002384186","img/land5.png","76","100.29999995231628","3","0","2","1","0.8,0.2,0.2,0.2,0.8,0.2,0.2,0.2,0.8","0.8,0.2,0.2,0.2,0.8,0.2,0.2,0.2,0.8","1","",""
"","html-keyboard-response","339","93059","0.0-339.0","3NS0A6KXC5U5RGYMGB6DGJFDSHNZGX","AK2XJWYN3PF2V","37SDSEDIN9ORHL92Y0GV7TIFJ2X187","","null","<img src=""img/land5.png"" style=""width:200px;border:14px solid red;"">","null","","","","","","","","","",""
"","image-keyboard-response","340","93226","0.0-340.0","3NS0A6KXC5U5RGYMGB6DGJFDSHNZGX","AK2XJWYN3PF2V","37SDSEDIN9ORHL92Y0GV7TIFJ2X187","","164.29999995231628","img/land5.png","74","166.39999997615814","1","0","2","1","0.8,0.2,0.2,0.2,0.8,0.2,0.2,0.2,0.8","0.8,0.2,0.2,0.2,0.8,0.2,0.2,0.2,0.8","1","",""
"","html-keyboard-response","341","93530","0.0-341.0","3NS0A6KXC5U5RGYMGB6DGJFDSHNZGX","AK2XJWYN3PF2V","37SDSEDIN9ORHL92Y0GV7TIFJ2X187","","null","<img src=""img/land5.png"" style=""width:200px;border:14px solid red;"">","null","","","","","","","","","",""
"","image-keyboard-response","342","93647","0.0-342.0","3NS0A6KXC5U5RGYMGB6DGJFDSHNZGX","AK2XJWYN3PF2V","37SDSEDIN9ORHL92Y0GV7TIFJ2X187","","114.20000004768372","img/land3.png","75","116.39999997615814","2","0","3","1","0.8,0.2,0.2,0.2,0.8,0.2,0.2,0.2,0.8","0.8,0.2,0.2,0.2,0.8,0.2,0.2,0.2,0.8","1","",""
"","html-keyboard-response","343","93951","0.0-343.0","3NS0A6KXC5U5RGYMGB6DGJFDSHNZGX","AK2XJWYN3PF2V","37SDSEDIN9ORHL92Y0GV7TIFJ2X187","","null","<img src=""img/land3.png"" style=""width:200px;border:14px solid red;"">","null","","","","","","","","","",""
"","image-keyboard-response","344","94149","0.0-344.0","3NS0A6KXC5U5RGYMGB6DGJFDSHNZGX","AK2XJWYN3PF2V","37SDSEDIN9ORHL92Y0GV7TIFJ2X187","","195.89999997615814","img/land6.png","74","198.10000002384186","1","1","1","1","0.8,0.2,0.2,0.2,0.8,0.2,0.2,0.2,0.8","0.8,0.2,0.2,0.2,0.8,0.2,0.2,0.2,0.8","1","",""
"","html-keyboard-response","345","94453","0.0-345.0","3NS0A6KXC5U5RGYMGB6DGJFDSHNZGX","AK2XJWYN3PF2V","37SDSEDIN9ORHL92Y0GV7TIFJ2X187","","null","<img src=""img/land6.png"" style=""width:200px; border:14px solid green;"">","null","","","","","","","","","",""
"","image-keyboard-response","346","94563","0.0-346.0","3NS0A6KXC5U5RGYMGB6DGJFDSHNZGX","AK2XJWYN3PF2V","37SDSEDIN9ORHL92Y0GV7TIFJ2X187","","108.10000002384186","img/land5.png","75","109.79999995231628","2","1","2","1","0.8,0.2,0.2,0.2,0.8,0.2,0.2,0.2,0.8","0.8,0.2,0.2,0.2,0.8,0.2,0.2,0.2,0.8","1","",""
"","html-keyboard-response","347","94866","0.0-347.0","3NS0A6KXC5U5RGYMGB6DGJFDSHNZGX","AK2XJWYN3PF2V","37SDSEDIN9ORHL92Y0GV7TIFJ2X187","","null","<img src=""img/land5.png"" style=""width:200px; border:14px solid green;"">","null","","","","","","","","","",""
"","image-keyboard-response","348","94972","0.0-348.0","3NS0A6KXC5U5RGYMGB6DGJFDSHNZGX","AK2XJWYN3PF2V","37SDSEDIN9ORHL92Y0GV7TIFJ2X187","","103.89999997615814","img/land3.png","74","106.10000002384186","1","1","3","1","0.8,0.2,0.2,0.2,0.8,0.2,0.2,0.2,0.8","0.8,0.2,0.2,0.2,0.8,0.2,0.2,0.2,0.8","1","",""
"","html-keyboard-response","349","95276","0.0-349.0","3NS0A6KXC5U5RGYMGB6DGJFDSHNZGX","AK2XJWYN3PF2V","37SDSEDIN9ORHL92Y0GV7TIFJ2X187","","null","<img src=""img/land3.png"" style=""width:200px; border:14px solid green;"">","null","","","","","","","","","",""
"","image-keyboard-response","350","95409","0.0-350.0","3NS0A6KXC5U5RGYMGB6DGJFDSHNZGX","AK2XJWYN3PF2V","37SDSEDIN9ORHL92Y0GV7TIFJ2X187","","130.20000004768372","img/land3.png","76","132.5","3","0","3","1","0.8,0.2,0.2,0.2,0.8,0.2,0.2,0.2,0.8","0.8,0.2,0.2,0.2,0.8,0.2,0.2,0.2,0.8","1","",""
"","html-keyboard-response","351","95712","0.0-351.0","3NS0A6KXC5U5RGYMGB6DGJFDSHNZGX","AK2XJWYN3PF2V","37SDSEDIN9ORHL92Y0GV7TIFJ2X187","","null","<img src=""img/land3.png"" style=""width:200px;border:14px solid red;"">","null","","","","","","","","","",""
"","image-keyboard-response","352","95899","0.0-352.0","3NS0A6KXC5U5RGYMGB6DGJFDSHNZGX","AK2XJWYN3PF2V","37SDSEDIN9ORHL92Y0GV7TIFJ2X187","","184.19999992847443","img/land3.png","74","186","1","1","3","1","0.8,0.2,0.2,0.2,0.8,0.2,0.2,0.2,0.8","0.8,0.2,0.2,0.2,0.8,0.2,0.2,0.2,0.8","1","",""
"","html-keyboard-response","353","96208","0.0-353.0","3NS0A6KXC5U5RGYMGB6DGJFDSHNZGX","AK2XJWYN3PF2V","37SDSEDIN9ORHL92Y0GV7TIFJ2X187","","null","<img src=""img/land3.png"" style=""width:200px; border:14px solid green;"">","null","","","","","","","","","",""
"","image-keyboard-response","354","96305","0.0-354.0","3NS0A6KXC5U5RGYMGB6DGJFDSHNZGX","AK2XJWYN3PF2V","37SDSEDIN9ORHL92Y0GV7TIFJ2X187","","94.89999997615814","img/land5.png","74","97.10000002384186","1","0","2","1","0.8,0.2,0.2,0.2,0.8,0.2,0.2,0.2,0.8","0.8,0.2,0.2,0.2,0.8,0.2,0.2,0.2,0.8","1","",""
"","html-keyboard-response","355","96609","0.0-355.0","3NS0A6KXC5U5RGYMGB6DGJFDSHNZGX","AK2XJWYN3PF2V","37SDSEDIN9ORHL92Y0GV7TIFJ2X187","","null","<img src=""img/land5.png"" style=""width:200px;border:14px solid red;"">","null","","","","","","","","","",""
"","image-keyboard-response","356","96776","0.0-356.0","3NS0A6KXC5U5RGYMGB6DGJFDSHNZGX","AK2XJWYN3PF2V","37SDSEDIN9ORHL92Y0GV7TIFJ2X187","","164.20000004768372","img/land5.png","76","166.5","3","0","2","1","0.8,0.2,0.2,0.2,0.8,0.2,0.2,0.2,0.8","0.8,0.2,0.2,0.2,0.8,0.2,0.2,0.2,0.8","1","",""
