"success","trial_type","trial_index","time_elapsed","internal_node_id","assignmentID","mturkID","hitID","view_history","rt","stimulus","key_press","reactionTime","a","r","s","cond","reward_cond","reward_cond_actual","reward_matrix_idx","responses","question_order"
"true","fullscreen","0","4004","0.0-0.0","3Q5C1WP23NNAGNOUR4EUKS4CPUC51E","AKNYT1NTK2UFK","3FVBZG9CLJ0K37PD5L6161S4HTM0HN","","","","","","","","","","","","","",""
"","instructions","1","36438","0.0-1.0","3Q5C1WP23NNAGNOUR4EUKS4CPUC51E","AKNYT1NTK2UFK","3FVBZG9CLJ0K37PD5L6161S4HTM0HN","[{""page_index"":0,""viewing_time"":6868.300000000745},{""page_index"":1,""viewing_time"":3539.199999999255},{""page_index"":2,""viewing_time"":2311.400000002235},{""page_index"":3,""viewing_time"":5080.099999997765},{""page_index"":4,""viewing_time"":3607},{""page_index"":5,""viewing_time"":8053.60000000149},{""page_index"":6,""viewing_time"":2970.60000000149}]","32431.5","","","","","","","","","","","",""
"","image-keyboard-response","2","38445","0.0-2.0","3Q5C1WP23NNAGNOUR4EUKS4CPUC51E","AKNYT1NTK2UFK","3FVBZG9CLJ0K37PD5L6161S4HTM0HN","","","img/land2.png","","2005.1000000014901","-1","0","2","2","0.8,0.2,0.2,0.2,0.8,0.2,0.2,0.2,0.8","0.8,0.2,0.2,0.2,0.8,0.2,0.2,0.2,0.8","1","",""
"","html-keyboard-response","3","38748","0.0-3.0","3Q5C1WP23NNAGNOUR4EUKS4CPUC51E","AKNYT1NTK2UFK","3FVBZG9CLJ0K37PD5L6161S4HTM0HN","","null","<img src=""img/land2.png"" style=""width:200px;border:14px solid red;"">","null","","","","","","","","","",""
"","image-keyboard-response","4","39727","0.0-4.0","3Q5C1WP23NNAGNOUR4EUKS4CPUC51E","AKNYT1NTK2UFK","3FVBZG9CLJ0K37PD5L6161S4HTM0HN","","976.6999999992549","img/land2.png","74","978.9000000022352","1","1","2","2","0.8,0.2,0.2,0.2,0.8,0.2,0.2,0.2,0.8","0.8,0.2,0.2,0.2,0.8,0.2,0.2,0.2,0.8","1","",""
"","html-keyboard-response","5","40031","0.0-5.0","3Q5C1WP23NNAGNOUR4EUKS4CPUC51E","AKNYT1NTK2UFK","3FVBZG9CLJ0K37PD5L6161S4HTM0HN","","null","<img src=""img/land2.png"" style=""width:200px; border:14px solid green;"">","null","","","","","","","","","",""
"","image-keyboard-response","6","41080","0.0-6.0","3Q5C1WP23NNAGNOUR4EUKS4CPUC51E","AKNYT1NTK2UFK","3FVBZG9CLJ0K37PD5L6161S4HTM0HN","","1047","img/land4.png","74","1048.5","1","1","1","2","0.8,0.2,0.2,0.2,0.8,0.2,0.2,0.2,0.8","0.8,0.2,0.2,0.2,0.8,0.2,0.2,0.2,0.8","1","",""
"","html-keyboard-response","7","41383","0.0-7.0","3Q5C1WP23NNAGNOUR4EUKS4CPUC51E","AKNYT1NTK2UFK","3FVBZG9CLJ0K37PD5L6161S4HTM0HN","","null","<img src=""img/land4.png"" style=""width:200px; border:14px solid green;"">","null","","","","","","","","","",""
"","image-keyboard-response","8","43386","0.0-8.0","3Q5C1WP23NNAGNOUR4EUKS4CPUC51E","AKNYT1NTK2UFK","3FVBZG9CLJ0K37PD5L6161S4HTM0HN","","","img/land4.png","","2002.8999999985099","-1","0","1","2","0.8,0.2,0.2,0.2,0.8,0.2,0.2,0.2,0.8","0.8,0.2,0.2,0.2,0.8,0.2,0.2,0.2,0.8","1","",""
"","html-keyboard-response","9","43689","0.0-9.0","3Q5C1WP23NNAGNOUR4EUKS4CPUC51E","AKNYT1NTK2UFK","3FVBZG9CLJ0K37PD5L6161S4HTM0HN","","null","<img src=""img/land4.png"" style=""width:200px;border:14px solid red;"">","null","","","","","","","","","",""
"","image-keyboard-response","10","43949","0.0-10.0","3Q5C1WP23NNAGNOUR4EUKS4CPUC51E","AKNYT1NTK2UFK","3FVBZG9CLJ0K37PD5L6161S4HTM0HN","","256.30000000074506","img/land3.png","74","259.3999999985099","1","0","3","2","0.8,0.2,0.2,0.2,0.8,0.2,0.2,0.2,0.8","0.8,0.2,0.2,0.2,0.8,0.2,0.2,0.2,0.8","1","",""
"","html-keyboard-response","11","44264","0.0-11.0","3Q5C1WP23NNAGNOUR4EUKS4CPUC51E","AKNYT1NTK2UFK","3FVBZG9CLJ0K37PD5L6161S4HTM0HN","","null","<img src=""img/land3.png"" style=""width:200px;border:14px solid red;"">","null","","","","","","","","","",""
"","image-keyboard-response","12","44901","0.0-12.0","3Q5C1WP23NNAGNOUR4EUKS4CPUC51E","AKNYT1NTK2UFK","3FVBZG9CLJ0K37PD5L6161S4HTM0HN","","635.2999999970198","img/land2.png","74","636.7000000029802","1","0","2","2","0.8,0.2,0.2,0.2,0.8,0.2,0.2,0.2,0.8","0.8,0.2,0.2,0.2,0.8,0.2,0.2,0.2,0.8","1","",""
"","html-keyboard-response","13","45203","0.0-13.0","3Q5C1WP23NNAGNOUR4EUKS4CPUC51E","AKNYT1NTK2UFK","3FVBZG9CLJ0K37PD5L6161S4HTM0HN","","null","<img src=""img/land2.png"" style=""width:200px;border:14px solid red;"">","null","","","","","","","","","",""
"","image-keyboard-response","14","45969","0.0-14.0","3Q5C1WP23NNAGNOUR4EUKS4CPUC51E","AKNYT1NTK2UFK","3FVBZG9CLJ0K37PD5L6161S4HTM0HN","","764.8999999985099","img/land4.png","74","766.5999999977648","1","1","1","2","0.8,0.2,0.2,0.2,0.8,0.2,0.2,0.2,0.8","0.8,0.2,0.2,0.2,0.8,0.2,0.2,0.2,0.8","1","",""
"","html-keyboard-response","15","46274","0.0-15.0","3Q5C1WP23NNAGNOUR4EUKS4CPUC51E","AKNYT1NTK2UFK","3FVBZG9CLJ0K37PD5L6161S4HTM0HN","","null","<img src=""img/land4.png"" style=""width:200px; border:14px solid green;"">","null","","","","","","","","","",""
"","image-keyboard-response","16","48016","0.0-16.0","3Q5C1WP23NNAGNOUR4EUKS4CPUC51E","AKNYT1NTK2UFK","3FVBZG9CLJ0K37PD5L6161S4HTM0HN","","1737.7999999970198","img/land4.png","74","1740.8999999985099","1","1","1","2","0.8,0.2,0.2,0.2,0.8,0.2,0.2,0.2,0.8","0.8,0.2,0.2,0.2,0.8,0.2,0.2,0.2,0.8","1","",""
"","html-keyboard-response","17","48319","0.0-17.0","3Q5C1WP23NNAGNOUR4EUKS4CPUC51E","AKNYT1NTK2UFK","3FVBZG9CLJ0K37PD5L6161S4HTM0HN","","null","<img src=""img/land4.png"" style=""width:200px; border:14px solid green;"">","null","","","","","","","","","",""
"","image-keyboard-response","18","49052","0.0-18.0","3Q5C1WP23NNAGNOUR4EUKS4CPUC51E","AKNYT1NTK2UFK","3FVBZG9CLJ0K37PD5L6161S4HTM0HN","","730.9000000022352","img/land4.png","74","732.5","1","1","1","2","0.8,0.2,0.2,0.2,0.8,0.2,0.2,0.2,0.8","0.8,0.2,0.2,0.2,0.8,0.2,0.2,0.2,0.8","1","",""
"","html-keyboard-response","19","49354","0.0-19.0","3Q5C1WP23NNAGNOUR4EUKS4CPUC51E","AKNYT1NTK2UFK","3FVBZG9CLJ0K37PD5L6161S4HTM0HN","","null","<img src=""img/land4.png"" style=""width:200px; border:14px solid green;"">","null","","","","","","","","","",""
"","image-keyboard-response","20","50467","0.0-20.0","3Q5C1WP23NNAGNOUR4EUKS4CPUC51E","AKNYT1NTK2UFK","3FVBZG9CLJ0K37PD5L6161S4HTM0HN","","1108.8999999985099","img/land3.png","74","1110.300000000745","1","0","3","2","0.8,0.2,0.2,0.2,0.8,0.2,0.2,0.2,0.8","0.8,0.2,0.2,0.2,0.8,0.2,0.2,0.2,0.8","1","",""
"","html-keyboard-response","21","50773","0.0-21.0","3Q5C1WP23NNAGNOUR4EUKS4CPUC51E","AKNYT1NTK2UFK","3FVBZG9CLJ0K37PD5L6161S4HTM0HN","","null","<img src=""img/land3.png"" style=""width:200px;border:14px solid red;"">","null","","","","","","","","","",""
"","image-keyboard-response","22","51700","0.0-22.0","3Q5C1WP23NNAGNOUR4EUKS4CPUC51E","AKNYT1NTK2UFK","3FVBZG9CLJ0K37PD5L6161S4HTM0HN","","925.3000000007451","img/land4.png","74","927.3000000007451","1","1","1","2","0.8,0.2,0.2,0.2,0.8,0.2,0.2,0.2,0.8","0.8,0.2,0.2,0.2,0.8,0.2,0.2,0.2,0.8","1","",""
"","html-keyboard-response","23","52004","0.0-23.0","3Q5C1WP23NNAGNOUR4EUKS4CPUC51E","AKNYT1NTK2UFK","3FVBZG9CLJ0K37PD5L6161S4HTM0HN","","null","<img src=""img/land4.png"" style=""width:200px; border:14px solid green;"">","null","","","","","","","","","",""
"","image-keyboard-response","24","52824","0.0-24.0","3Q5C1WP23NNAGNOUR4EUKS4CPUC51E","AKNYT1NTK2UFK","3FVBZG9CLJ0K37PD5L6161S4HTM0HN","","817.3999999985099","img/land4.png","74","819.1999999992549","1","1","1","2","0.8,0.2,0.2,0.2,0.8,0.2,0.2,0.2,0.8","0.8,0.2,0.2,0.2,0.8,0.2,0.2,0.2,0.8","1","",""
"","html-keyboard-response","25","53127","0.0-25.0","3Q5C1WP23NNAGNOUR4EUKS4CPUC51E","AKNYT1NTK2UFK","3FVBZG9CLJ0K37PD5L6161S4HTM0HN","","null","<img src=""img/land4.png"" style=""width:200px; border:14px solid green;"">","null","","","","","","","","","",""
"","image-keyboard-response","26","54025","0.0-26.0","3Q5C1WP23NNAGNOUR4EUKS4CPUC51E","AKNYT1NTK2UFK","3FVBZG9CLJ0K37PD5L6161S4HTM0HN","","895.3000000007451","img/land2.png","74","897.5","1","1","2","2","0.8,0.2,0.2,0.2,0.8,0.2,0.2,0.2,0.8","0.8,0.2,0.2,0.2,0.8,0.2,0.2,0.2,0.8","1","",""
"","html-keyboard-response","27","54328","0.0-27.0","3Q5C1WP23NNAGNOUR4EUKS4CPUC51E","AKNYT1NTK2UFK","3FVBZG9CLJ0K37PD5L6161S4HTM0HN","","null","<img src=""img/land2.png"" style=""width:200px; border:14px solid green;"">","null","","","","","","","","","",""
"","image-keyboard-response","28","55204","0.0-28.0","3Q5C1WP23NNAGNOUR4EUKS4CPUC51E","AKNYT1NTK2UFK","3FVBZG9CLJ0K37PD5L6161S4HTM0HN","","873.6000000014901","img/land4.png","74","875.5","1","1","1","2","0.8,0.2,0.2,0.2,0.8,0.2,0.2,0.2,0.8","0.8,0.2,0.2,0.2,0.8,0.2,0.2,0.2,0.8","1","",""
"","html-keyboard-response","29","55506","0.0-29.0","3Q5C1WP23NNAGNOUR4EUKS4CPUC51E","AKNYT1NTK2UFK","3FVBZG9CLJ0K37PD5L6161S4HTM0HN","","null","<img src=""img/land4.png"" style=""width:200px; border:14px solid green;"">","null","","","","","","","","","",""
"","image-keyboard-response","30","56523","0.0-30.0","3Q5C1WP23NNAGNOUR4EUKS4CPUC51E","AKNYT1NTK2UFK","3FVBZG9CLJ0K37PD5L6161S4HTM0HN","","1015.0999999977648","img/land3.png","75","1016.5999999977648","2","1","3","2","0.8,0.2,0.2,0.2,0.8,0.2,0.2,0.2,0.8","0.8,0.2,0.2,0.2,0.8,0.2,0.2,0.2,0.8","1","",""
"","html-keyboard-response","31","56827","0.0-31.0","3Q5C1WP23NNAGNOUR4EUKS4CPUC51E","AKNYT1NTK2UFK","3FVBZG9CLJ0K37PD5L6161S4HTM0HN","","null","<img src=""img/land3.png"" style=""width:200px; border:14px solid green;"">","null","","","","","","","","","",""
"","image-keyboard-response","32","57674","0.0-32.0","3Q5C1WP23NNAGNOUR4EUKS4CPUC51E","AKNYT1NTK2UFK","3FVBZG9CLJ0K37PD5L6161S4HTM0HN","","845","img/land4.png","74","846.1999999992549","1","1","1","2","0.8,0.2,0.2,0.2,0.8,0.2,0.2,0.2,0.8","0.8,0.2,0.2,0.2,0.8,0.2,0.2,0.2,0.8","1","",""
"","html-keyboard-response","33","57976","0.0-33.0","3Q5C1WP23NNAGNOUR4EUKS4CPUC51E","AKNYT1NTK2UFK","3FVBZG9CLJ0K37PD5L6161S4HTM0HN","","null","<img src=""img/land4.png"" style=""width:200px; border:14px solid green;"">","null","","","","","","","","","",""
"","image-keyboard-response","34","58776","0.0-34.0","3Q5C1WP23NNAGNOUR4EUKS4CPUC51E","AKNYT1NTK2UFK","3FVBZG9CLJ0K37PD5L6161S4HTM0HN","","796.8000000007451","img/land4.png","74","798.7999999970198","1","1","1","2","0.8,0.2,0.2,0.2,0.8,0.2,0.2,0.2,0.8","0.8,0.2,0.2,0.2,0.8,0.2,0.2,0.2,0.8","1","",""
"","html-keyboard-response","35","59081","0.0-35.0","3Q5C1WP23NNAGNOUR4EUKS4CPUC51E","AKNYT1NTK2UFK","3FVBZG9CLJ0K37PD5L6161S4HTM0HN","","null","<img src=""img/land4.png"" style=""width:200px; border:14px solid green;"">","null","","","","","","","","","",""
"","image-keyboard-response","36","59791","0.0-36.0","3Q5C1WP23NNAGNOUR4EUKS4CPUC51E","AKNYT1NTK2UFK","3FVBZG9CLJ0K37PD5L6161S4HTM0HN","","707.0999999977648","img/land2.png","74","709.3000000007451","1","0","2","2","0.8,0.2,0.2,0.2,0.8,0.2,0.2,0.2,0.8","0.8,0.2,0.2,0.2,0.8,0.2,0.2,0.2,0.8","1","",""
"","html-keyboard-response","37","60094","0.0-37.0","3Q5C1WP23NNAGNOUR4EUKS4CPUC51E","AKNYT1NTK2UFK","3FVBZG9CLJ0K37PD5L6161S4HTM0HN","","null","<img src=""img/land2.png"" style=""width:200px;border:14px solid red;"">","null","","","","","","","","","",""
"","image-keyboard-response","38","61316","0.0-38.0","3Q5C1WP23NNAGNOUR4EUKS4CPUC51E","AKNYT1NTK2UFK","3FVBZG9CLJ0K37PD5L6161S4HTM0HN","","1218.4000000022352","img/land3.png","75","1220.5999999977648","2","0","3","2","0.8,0.2,0.2,0.2,0.8,0.2,0.2,0.2,0.8","0.8,0.2,0.2,0.2,0.8,0.2,0.2,0.2,0.8","1","",""
"","html-keyboard-response","39","61618","0.0-39.0","3Q5C1WP23NNAGNOUR4EUKS4CPUC51E","AKNYT1NTK2UFK","3FVBZG9CLJ0K37PD5L6161S4HTM0HN","","null","<img src=""img/land3.png"" style=""width:200px;border:14px solid red;"">","null","","","","","","","","","",""
"","image-keyboard-response","40","62333","0.0-40.0","3Q5C1WP23NNAGNOUR4EUKS4CPUC51E","AKNYT1NTK2UFK","3FVBZG9CLJ0K37PD5L6161S4HTM0HN","","712.1999999992549","img/land4.png","74","714.1000000014901","1","1","1","2","0.8,0.2,0.2,0.2,0.8,0.2,0.2,0.2,0.8","0.8,0.2,0.2,0.2,0.8,0.2,0.2,0.2,0.8","1","",""
"","html-keyboard-response","41","62635","0.0-41.0","3Q5C1WP23NNAGNOUR4EUKS4CPUC51E","AKNYT1NTK2UFK","3FVBZG9CLJ0K37PD5L6161S4HTM0HN","","null","<img src=""img/land4.png"" style=""width:200px; border:14px solid green;"">","null","","","","","","","","","",""
"","image-keyboard-response","42","63292","0.0-42.0","3Q5C1WP23NNAGNOUR4EUKS4CPUC51E","AKNYT1NTK2UFK","3FVBZG9CLJ0K37PD5L6161S4HTM0HN","","653.8000000007451","img/land4.png","74","655.6999999992549","1","1","1","2","0.8,0.2,0.2,0.2,0.8,0.2,0.2,0.2,0.8","0.8,0.2,0.2,0.2,0.8,0.2,0.2,0.2,0.8","1","",""
"","html-keyboard-response","43","63597","0.0-43.0","3Q5C1WP23NNAGNOUR4EUKS4CPUC51E","AKNYT1NTK2UFK","3FVBZG9CLJ0K37PD5L6161S4HTM0HN","","null","<img src=""img/land4.png"" style=""width:200px; border:14px solid green;"">","null","","","","","","","","","",""
"","image-keyboard-response","44","64183","0.0-44.0","3Q5C1WP23NNAGNOUR4EUKS4CPUC51E","AKNYT1NTK2UFK","3FVBZG9CLJ0K37PD5L6161S4HTM0HN","","582.5","img/land4.png","74","586.8999999985099","1","1","1","2","0.8,0.2,0.2,0.2,0.8,0.2,0.2,0.2,0.8","0.8,0.2,0.2,0.2,0.8,0.2,0.2,0.2,0.8","1","",""
"","html-keyboard-response","45","64488","0.0-45.0","3Q5C1WP23NNAGNOUR4EUKS4CPUC51E","AKNYT1NTK2UFK","3FVBZG9CLJ0K37PD5L6161S4HTM0HN","","null","<img src=""img/land4.png"" style=""width:200px; border:14px solid green;"">","null","","","","","","","","","",""
"","image-keyboard-response","46","65142","0.0-46.0","3Q5C1WP23NNAGNOUR4EUKS4CPUC51E","AKNYT1NTK2UFK","3FVBZG9CLJ0K37PD5L6161S4HTM0HN","","651.1000000014901","img/land4.png","74","652.8999999985099","1","1","1","2","0.8,0.2,0.2,0.2,0.8,0.2,0.2,0.2,0.8","0.8,0.2,0.2,0.2,0.8,0.2,0.2,0.2,0.8","1","",""
"","html-keyboard-response","47","65444","0.0-47.0","3Q5C1WP23NNAGNOUR4EUKS4CPUC51E","AKNYT1NTK2UFK","3FVBZG9CLJ0K37PD5L6161S4HTM0HN","","null","<img src=""img/land4.png"" style=""width:200px; border:14px solid green;"">","null","","","","","","","","","",""
"","image-keyboard-response","48","66076","0.0-48.0","3Q5C1WP23NNAGNOUR4EUKS4CPUC51E","AKNYT1NTK2UFK","3FVBZG9CLJ0K37PD5L6161S4HTM0HN","","630.6000000014901","img/land4.png","74","631.8999999985099","1","1","1","2","0.8,0.2,0.2,0.2,0.8,0.2,0.2,0.2,0.8","0.8,0.2,0.2,0.2,0.8,0.2,0.2,0.2,0.8","1","",""
"","html-keyboard-response","49","66379","0.0-49.0","3Q5C1WP23NNAGNOUR4EUKS4CPUC51E","AKNYT1NTK2UFK","3FVBZG9CLJ0K37PD5L6161S4HTM0HN","","null","<img src=""img/land4.png"" style=""width:200px; border:14px solid green;"">","null","","","","","","","","","",""
"","image-keyboard-response","50","66931","0.0-50.0","3Q5C1WP23NNAGNOUR4EUKS4CPUC51E","AKNYT1NTK2UFK","3FVBZG9CLJ0K37PD5L6161S4HTM0HN","","550.6000000014901","img/land4.png","74","552.0999999977648","1","1","1","2","0.8,0.2,0.2,0.2,0.8,0.2,0.2,0.2,0.8","0.8,0.2,0.2,0.2,0.8,0.2,0.2,0.2,0.8","1","",""
"","html-keyboard-response","51","67233","0.0-51.0","3Q5C1WP23NNAGNOUR4EUKS4CPUC51E","AKNYT1NTK2UFK","3FVBZG9CLJ0K37PD5L6161S4HTM0HN","","null","<img src=""img/land4.png"" style=""width:200px; border:14px solid green;"">","null","","","","","","","","","",""
"","image-keyboard-response","52","68295","0.0-52.0","3Q5C1WP23NNAGNOUR4EUKS4CPUC51E","AKNYT1NTK2UFK","3FVBZG9CLJ0K37PD5L6161S4HTM0HN","","1060.300000000745","img/land3.png","75","1061.5","2","0","3","2","0.8,0.2,0.2,0.2,0.8,0.2,0.2,0.2,0.8","0.8,0.2,0.2,0.2,0.8,0.2,0.2,0.2,0.8","1","",""
"","html-keyboard-response","53","68598","0.0-53.0","3Q5C1WP23NNAGNOUR4EUKS4CPUC51E","AKNYT1NTK2UFK","3FVBZG9CLJ0K37PD5L6161S4HTM0HN","","null","<img src=""img/land3.png"" style=""width:200px;border:14px solid red;"">","null","","","","","","","","","",""
"","image-keyboard-response","54","69636","0.0-54.0","3Q5C1WP23NNAGNOUR4EUKS4CPUC51E","AKNYT1NTK2UFK","3FVBZG9CLJ0K37PD5L6161S4HTM0HN","","1035.5999999977648","img/land3.png","76","1037.699999999255","3","1","3","2","0.8,0.2,0.2,0.2,0.8,0.2,0.2,0.2,0.8","0.8,0.2,0.2,0.2,0.8,0.2,0.2,0.2,0.8","1","",""
"","html-keyboard-response","55","69940","0.0-55.0","3Q5C1WP23NNAGNOUR4EUKS4CPUC51E","AKNYT1NTK2UFK","3FVBZG9CLJ0K37PD5L6161S4HTM0HN","","null","<img src=""img/land3.png"" style=""width:200px; border:14px solid green;"">","null","","","","","","","","","",""
"","image-keyboard-response","56","70917","0.0-56.0","3Q5C1WP23NNAGNOUR4EUKS4CPUC51E","AKNYT1NTK2UFK","3FVBZG9CLJ0K37PD5L6161S4HTM0HN","","975.1000000014901","img/land4.png","74","976.4000000022352","1","1","1","2","0.8,0.2,0.2,0.2,0.8,0.2,0.2,0.2,0.8","0.8,0.2,0.2,0.2,0.8,0.2,0.2,0.2,0.8","1","",""
"","html-keyboard-response","57","71219","0.0-57.0","3Q5C1WP23NNAGNOUR4EUKS4CPUC51E","AKNYT1NTK2UFK","3FVBZG9CLJ0K37PD5L6161S4HTM0HN","","null","<img src=""img/land4.png"" style=""width:200px; border:14px solid green;"">","null","","","","","","","","","",""
"","image-keyboard-response","58","72107","0.0-58.0","3Q5C1WP23NNAGNOUR4EUKS4CPUC51E","AKNYT1NTK2UFK","3FVBZG9CLJ0K37PD5L6161S4HTM0HN","","886.1000000014901","img/land3.png","76","887.6000000014901","3","1","3","2","0.8,0.2,0.2,0.2,0.8,0.2,0.2,0.2,0.8","0.8,0.2,0.2,0.2,0.8,0.2,0.2,0.2,0.8","1","",""
"","html-keyboard-response","59","72412","0.0-59.0","3Q5C1WP23NNAGNOUR4EUKS4CPUC51E","AKNYT1NTK2UFK","3FVBZG9CLJ0K37PD5L6161S4HTM0HN","","null","<img src=""img/land3.png"" style=""width:200px; border:14px solid green;"">","null","","","","","","","","","",""
"","image-keyboard-response","60","73229","0.0-60.0","3Q5C1WP23NNAGNOUR4EUKS4CPUC51E","AKNYT1NTK2UFK","3FVBZG9CLJ0K37PD5L6161S4HTM0HN","","814.5","img/land4.png","74","816.4000000022352","1","1","1","2","0.8,0.2,0.2,0.2,0.8,0.2,0.2,0.2,0.8","0.8,0.2,0.2,0.2,0.8,0.2,0.2,0.2,0.8","1","",""
"","html-keyboard-response","61","73531","0.0-61.0","3Q5C1WP23NNAGNOUR4EUKS4CPUC51E","AKNYT1NTK2UFK","3FVBZG9CLJ0K37PD5L6161S4HTM0HN","","null","<img src=""img/land4.png"" style=""width:200px; border:14px solid green;"">","null","","","","","","","","","",""
"","image-keyboard-response","62","74616","0.0-62.0","3Q5C1WP23NNAGNOUR4EUKS4CPUC51E","AKNYT1NTK2UFK","3FVBZG9CLJ0K37PD5L6161S4HTM0HN","","1082.5","img/land2.png","74","1084.5","1","0","2","2","0.8,0.2,0.2,0.2,0.8,0.2,0.2,0.2,0.8","0.8,0.2,0.2,0.2,0.8,0.2,0.2,0.2,0.8","1","",""
"","html-keyboard-response","63","74918","0.0-63.0","3Q5C1WP23NNAGNOUR4EUKS4CPUC51E","AKNYT1NTK2UFK","3FVBZG9CLJ0K37PD5L6161S4HTM0HN","","null","<img src=""img/land2.png"" style=""width:200px;border:14px solid red;"">","null","","","","","","","","","",""
"","image-keyboard-response","64","76352","0.0-64.0","3Q5C1WP23NNAGNOUR4EUKS4CPUC51E","AKNYT1NTK2UFK","3FVBZG9CLJ0K37PD5L6161S4HTM0HN","","1431.699999999255","img/land3.png","76","1433.3999999985099","3","1","3","2","0.8,0.2,0.2,0.2,0.8,0.2,0.2,0.2,0.8","0.8,0.2,0.2,0.2,0.8,0.2,0.2,0.2,0.8","1","",""
"","html-keyboard-response","65","76665","0.0-65.0","3Q5C1WP23NNAGNOUR4EUKS4CPUC51E","AKNYT1NTK2UFK","3FVBZG9CLJ0K37PD5L6161S4HTM0HN","","null","<img src=""img/land3.png"" style=""width:200px; border:14px solid green;"">","null","","","","","","","","","",""
"","image-keyboard-response","66","77479","0.0-66.0","3Q5C1WP23NNAGNOUR4EUKS4CPUC51E","AKNYT1NTK2UFK","3FVBZG9CLJ0K37PD5L6161S4HTM0HN","","812.6000000014901","img/land3.png","76","814.1000000014901","3","1","3","2","0.8,0.2,0.2,0.2,0.8,0.2,0.2,0.2,0.8","0.8,0.2,0.2,0.2,0.8,0.2,0.2,0.2,0.8","1","",""
"","html-keyboard-response","67","77782","0.0-67.0","3Q5C1WP23NNAGNOUR4EUKS4CPUC51E","AKNYT1NTK2UFK","3FVBZG9CLJ0K37PD5L6161S4HTM0HN","","null","<img src=""img/land3.png"" style=""width:200px; border:14px solid green;"">","null","","","","","","","","","",""
"","image-keyboard-response","68","78681","0.0-68.0","3Q5C1WP23NNAGNOUR4EUKS4CPUC51E","AKNYT1NTK2UFK","3FVBZG9CLJ0K37PD5L6161S4HTM0HN","","895.9000000022352","img/land4.png","74","898.1999999992549","1","1","1","2","0.8,0.2,0.2,0.2,0.8,0.2,0.2,0.2,0.8","0.8,0.2,0.2,0.2,0.8,0.2,0.2,0.2,0.8","1","",""
"","html-keyboard-response","69","78982","0.0-69.0","3Q5C1WP23NNAGNOUR4EUKS4CPUC51E","AKNYT1NTK2UFK","3FVBZG9CLJ0K37PD5L6161S4HTM0HN","","null","<img src=""img/land4.png"" style=""width:200px; border:14px solid green;"">","null","","","","","","","","","",""
"","image-keyboard-response","70","79887","0.0-70.0","3Q5C1WP23NNAGNOUR4EUKS4CPUC51E","AKNYT1NTK2UFK","3FVBZG9CLJ0K37PD5L6161S4HTM0HN","","901.8999999985099","img/land2.png","75","903.8000000007451","2","1","2","2","0.8,0.2,0.2,0.2,0.8,0.2,0.2,0.2,0.8","0.8,0.2,0.2,0.2,0.8,0.2,0.2,0.2,0.8","1","",""
"","html-keyboard-response","71","80189","0.0-71.0","3Q5C1WP23NNAGNOUR4EUKS4CPUC51E","AKNYT1NTK2UFK","3FVBZG9CLJ0K37PD5L6161S4HTM0HN","","null","<img src=""img/land2.png"" style=""width:200px; border:14px solid green;"">","null","","","","","","","","","",""
"","image-keyboard-response","72","81309","0.0-72.0","3Q5C1WP23NNAGNOUR4EUKS4CPUC51E","AKNYT1NTK2UFK","3FVBZG9CLJ0K37PD5L6161S4HTM0HN","","1117","img/land4.png","74","1118.9000000022352","1","1","1","2","0.8,0.2,0.2,0.2,0.8,0.2,0.2,0.2,0.8","0.8,0.2,0.2,0.2,0.8,0.2,0.2,0.2,0.8","1","",""
"","html-keyboard-response","73","81611","0.0-73.0","3Q5C1WP23NNAGNOUR4EUKS4CPUC51E","AKNYT1NTK2UFK","3FVBZG9CLJ0K37PD5L6161S4HTM0HN","","null","<img src=""img/land4.png"" style=""width:200px; border:14px solid green;"">","null","","","","","","","","","",""
"","image-keyboard-response","74","82542","0.0-74.0","3Q5C1WP23NNAGNOUR4EUKS4CPUC51E","AKNYT1NTK2UFK","3FVBZG9CLJ0K37PD5L6161S4HTM0HN","","928.3999999985099","img/land3.png","76","930.3999999985099","3","1","3","2","0.8,0.2,0.2,0.2,0.8,0.2,0.2,0.2,0.8","0.8,0.2,0.2,0.2,0.8,0.2,0.2,0.2,0.8","1","",""
"","html-keyboard-response","75","82846","0.0-75.0","3Q5C1WP23NNAGNOUR4EUKS4CPUC51E","AKNYT1NTK2UFK","3FVBZG9CLJ0K37PD5L6161S4HTM0HN","","null","<img src=""img/land3.png"" style=""width:200px; border:14px solid green;"">","null","","","","","","","","","",""
"","image-keyboard-response","76","83662","0.0-76.0","3Q5C1WP23NNAGNOUR4EUKS4CPUC51E","AKNYT1NTK2UFK","3FVBZG9CLJ0K37PD5L6161S4HTM0HN","","812.9000000022352","img/land4.png","74","816.1000000014901","1","0","1","2","0.8,0.2,0.2,0.2,0.8,0.2,0.2,0.2,0.8","0.8,0.2,0.2,0.2,0.8,0.2,0.2,0.2,0.8","1","",""
"","html-keyboard-response","77","83965","0.0-77.0","3Q5C1WP23NNAGNOUR4EUKS4CPUC51E","AKNYT1NTK2UFK","3FVBZG9CLJ0K37PD5L6161S4HTM0HN","","null","<img src=""img/land4.png"" style=""width:200px;border:14px solid red;"">","null","","","","","","","","","",""
"","image-keyboard-response","78","84815","0.0-78.0","3Q5C1WP23NNAGNOUR4EUKS4CPUC51E","AKNYT1NTK2UFK","3FVBZG9CLJ0K37PD5L6161S4HTM0HN","","847.3000000007451","img/land4.png","74","849.1999999992549","1","0","1","2","0.8,0.2,0.2,0.2,0.8,0.2,0.2,0.2,0.8","0.8,0.2,0.2,0.2,0.8,0.2,0.2,0.2,0.8","1","",""
"","html-keyboard-response","79","85118","0.0-79.0","3Q5C1WP23NNAGNOUR4EUKS4CPUC51E","AKNYT1NTK2UFK","3FVBZG9CLJ0K37PD5L6161S4HTM0HN","","null","<img src=""img/land4.png"" style=""width:200px;border:14px solid red;"">","null","","","","","","","","","",""
"","image-keyboard-response","80","85799","0.0-80.0","3Q5C1WP23NNAGNOUR4EUKS4CPUC51E","AKNYT1NTK2UFK","3FVBZG9CLJ0K37PD5L6161S4HTM0HN","","679.9000000022352","img/land4.png","74","681.3000000007451","1","0","1","2","0.8,0.2,0.2,0.2,0.8,0.2,0.2,0.2,0.8","0.8,0.2,0.2,0.2,0.8,0.2,0.2,0.2,0.8","1","",""
"","html-keyboard-response","81","86101","0.0-81.0","3Q5C1WP23NNAGNOUR4EUKS4CPUC51E","AKNYT1NTK2UFK","3FVBZG9CLJ0K37PD5L6161S4HTM0HN","","null","<img src=""img/land4.png"" style=""width:200px;border:14px solid red;"">","null","","","","","","","","","",""
"","image-keyboard-response","82","86816","0.0-82.0","3Q5C1WP23NNAGNOUR4EUKS4CPUC51E","AKNYT1NTK2UFK","3FVBZG9CLJ0K37PD5L6161S4HTM0HN","","712.3999999985099","img/land4.png","74","714.3999999985099","1","1","1","2","0.8,0.2,0.2,0.2,0.8,0.2,0.2,0.2,0.8","0.8,0.2,0.2,0.2,0.8,0.2,0.2,0.2,0.8","1","",""
"","html-keyboard-response","83","87120","0.0-83.0","3Q5C1WP23NNAGNOUR4EUKS4CPUC51E","AKNYT1NTK2UFK","3FVBZG9CLJ0K37PD5L6161S4HTM0HN","","null","<img src=""img/land4.png"" style=""width:200px; border:14px solid green;"">","null","","","","","","","","","",""
"","image-keyboard-response","84","88717","0.0-84.0","3Q5C1WP23NNAGNOUR4EUKS4CPUC51E","AKNYT1NTK2UFK","3FVBZG9CLJ0K37PD5L6161S4HTM0HN","","1594.300000000745","img/land2.png","75","1596.6000000014901","2","1","2","2","0.8,0.2,0.2,0.2,0.8,0.2,0.2,0.2,0.8","0.8,0.2,0.2,0.2,0.8,0.2,0.2,0.2,0.8","1","",""
"","html-keyboard-response","85","89020","0.0-85.0","3Q5C1WP23NNAGNOUR4EUKS4CPUC51E","AKNYT1NTK2UFK","3FVBZG9CLJ0K37PD5L6161S4HTM0HN","","null","<img src=""img/land2.png"" style=""width:200px; border:14px solid green;"">","null","","","","","","","","","",""
"","image-keyboard-response","86","89757","0.0-86.0","3Q5C1WP23NNAGNOUR4EUKS4CPUC51E","AKNYT1NTK2UFK","3FVBZG9CLJ0K37PD5L6161S4HTM0HN","","735.6000000014901","img/land2.png","75","737.1000000014901","2","1","2","2","0.8,0.2,0.2,0.2,0.8,0.2,0.2,0.2,0.8","0.8,0.2,0.2,0.2,0.8,0.2,0.2,0.2,0.8","1","",""
"","html-keyboard-response","87","90061","0.0-87.0","3Q5C1WP23NNAGNOUR4EUKS4CPUC51E","AKNYT1NTK2UFK","3FVBZG9CLJ0K37PD5L6161S4HTM0HN","","null","<img src=""img/land2.png"" style=""width:200px; border:14px solid green;"">","null","","","","","","","","","",""
"","image-keyboard-response","88","90672","0.0-88.0","3Q5C1WP23NNAGNOUR4EUKS4CPUC51E","AKNYT1NTK2UFK","3FVBZG9CLJ0K37PD5L6161S4HTM0HN","","607.8000000007451","img/land2.png","75","609.7000000029802","2","0","2","2","0.8,0.2,0.2,0.2,0.8,0.2,0.2,0.2,0.8","0.8,0.2,0.2,0.2,0.8,0.2,0.2,0.2,0.8","1","",""
"","html-keyboard-response","89","90975","0.0-89.0","3Q5C1WP23NNAGNOUR4EUKS4CPUC51E","AKNYT1NTK2UFK","3FVBZG9CLJ0K37PD5L6161S4HTM0HN","","null","<img src=""img/land2.png"" style=""width:200px;border:14px solid red;"">","null","","","","","","","","","",""
"","image-keyboard-response","90","92271","0.0-90.0","3Q5C1WP23NNAGNOUR4EUKS4CPUC51E","AKNYT1NTK2UFK","3FVBZG9CLJ0K37PD5L6161S4HTM0HN","","1293.5","img/land4.png","74","1295.4000000022352","1","1","1","2","0.8,0.2,0.2,0.2,0.8,0.2,0.2,0.2,0.8","0.8,0.2,0.2,0.2,0.8,0.2,0.2,0.2,0.8","1","",""
"","html-keyboard-response","91","92573","0.0-91.0","3Q5C1WP23NNAGNOUR4EUKS4CPUC51E","AKNYT1NTK2UFK","3FVBZG9CLJ0K37PD5L6161S4HTM0HN","","null","<img src=""img/land4.png"" style=""width:200px; border:14px solid green;"">","null","","","","","","","","","",""
"","image-keyboard-response","92","93870","0.0-92.0","3Q5C1WP23NNAGNOUR4EUKS4CPUC51E","AKNYT1NTK2UFK","3FVBZG9CLJ0K37PD5L6161S4HTM0HN","","1294.6000000014901","img/land3.png","75","1296.3999999985099","2","0","3","2","0.8,0.2,0.2,0.2,0.8,0.2,0.2,0.2,0.8","0.8,0.2,0.2,0.2,0.8,0.2,0.2,0.2,0.8","1","",""
"","html-keyboard-response","93","94174","0.0-93.0","3Q5C1WP23NNAGNOUR4EUKS4CPUC51E","AKNYT1NTK2UFK","3FVBZG9CLJ0K37PD5L6161S4HTM0HN","","null","<img src=""img/land3.png"" style=""width:200px;border:14px solid red;"">","null","","","","","","","","","",""
"","image-keyboard-response","94","94656","0.0-94.0","3Q5C1WP23NNAGNOUR4EUKS4CPUC51E","AKNYT1NTK2UFK","3FVBZG9CLJ0K37PD5L6161S4HTM0HN","","479.70000000298023","img/land2.png","76","481.5","3","0","2","2","0.8,0.2,0.2,0.2,0.8,0.2,0.2,0.2,0.8","0.8,0.2,0.2,0.2,0.8,0.2,0.2,0.2,0.8","1","",""
"","html-keyboard-response","95","94958","0.0-95.0","3Q5C1WP23NNAGNOUR4EUKS4CPUC51E","AKNYT1NTK2UFK","3FVBZG9CLJ0K37PD5L6161S4HTM0HN","","null","<img src=""img/land2.png"" style=""width:200px;border:14px solid red;"">","null","","","","","","","","","",""
"","image-keyboard-response","96","96197","0.0-96.0","3Q5C1WP23NNAGNOUR4EUKS4CPUC51E","AKNYT1NTK2UFK","3FVBZG9CLJ0K37PD5L6161S4HTM0HN","","1235.699999999255","img/land3.png","76","1238.300000000745","3","1","3","2","0.8,0.2,0.2,0.2,0.8,0.2,0.2,0.2,0.8","0.8,0.2,0.2,0.2,0.8,0.2,0.2,0.2,0.8","1","",""
"","html-keyboard-response","97","96501","0.0-97.0","3Q5C1WP23NNAGNOUR4EUKS4CPUC51E","AKNYT1NTK2UFK","3FVBZG9CLJ0K37PD5L6161S4HTM0HN","","null","<img src=""img/land3.png"" style=""width:200px; border:14px solid green;"">","null","","","","","","","","","",""
"","image-keyboard-response","98","97316","0.0-98.0","3Q5C1WP23NNAGNOUR4EUKS4CPUC51E","AKNYT1NTK2UFK","3FVBZG9CLJ0K37PD5L6161S4HTM0HN","","812.1000000014901","img/land2.png","75","814.4000000022352","2","1","2","2","0.8,0.2,0.2,0.2,0.8,0.2,0.2,0.2,0.8","0.8,0.2,0.2,0.2,0.8,0.2,0.2,0.2,0.8","1","",""
"","html-keyboard-response","99","97619","0.0-99.0","3Q5C1WP23NNAGNOUR4EUKS4CPUC51E","AKNYT1NTK2UFK","3FVBZG9CLJ0K37PD5L6161S4HTM0HN","","null","<img src=""img/land2.png"" style=""width:200px; border:14px solid green;"">","null","","","","","","","","","",""
"","image-keyboard-response","100","98493","0.0-100.0","3Q5C1WP23NNAGNOUR4EUKS4CPUC51E","AKNYT1NTK2UFK","3FVBZG9CLJ0K37PD5L6161S4HTM0HN","","872","img/land4.png","74","873.5","1","1","1","2","0.8,0.2,0.2,0.2,0.8,0.2,0.2,0.2,0.8","0.8,0.2,0.2,0.2,0.8,0.2,0.2,0.2,0.8","1","",""
"","html-keyboard-response","101","98796","0.0-101.0","3Q5C1WP23NNAGNOUR4EUKS4CPUC51E","AKNYT1NTK2UFK","3FVBZG9CLJ0K37PD5L6161S4HTM0HN","","null","<img src=""img/land4.png"" style=""width:200px; border:14px solid green;"">","null","","","","","","","","","",""
"","image-keyboard-response","102","99385","0.0-102.0","3Q5C1WP23NNAGNOUR4EUKS4CPUC51E","AKNYT1NTK2UFK","3FVBZG9CLJ0K37PD5L6161S4HTM0HN","","583.1999999992549","img/land4.png","74","589","1","1","1","2","0.8,0.2,0.2,0.2,0.8,0.2,0.2,0.2,0.8","0.8,0.2,0.2,0.2,0.8,0.2,0.2,0.2,0.8","1","",""
"","html-keyboard-response","103","99691","0.0-103.0","3Q5C1WP23NNAGNOUR4EUKS4CPUC51E","AKNYT1NTK2UFK","3FVBZG9CLJ0K37PD5L6161S4HTM0HN","","null","<img src=""img/land4.png"" style=""width:200px; border:14px solid green;"">","null","","","","","","","","","",""
"","image-keyboard-response","104","100197","0.0-104.0","3Q5C1WP23NNAGNOUR4EUKS4CPUC51E","AKNYT1NTK2UFK","3FVBZG9CLJ0K37PD5L6161S4HTM0HN","","504.30000000074506","img/land4.png","74","505.69999999925494","1","1","1","2","0.8,0.2,0.2,0.2,0.8,0.2,0.2,0.2,0.8","0.8,0.2,0.2,0.2,0.8,0.2,0.2,0.2,0.8","1","",""
"","html-keyboard-response","105","100500","0.0-105.0","3Q5C1WP23NNAGNOUR4EUKS4CPUC51E","AKNYT1NTK2UFK","3FVBZG9CLJ0K37PD5L6161S4HTM0HN","","null","<img src=""img/land4.png"" style=""width:200px; border:14px solid green;"">","null","","","","","","","","","",""
"","image-keyboard-response","106","101087","0.0-106.0","3Q5C1WP23NNAGNOUR4EUKS4CPUC51E","AKNYT1NTK2UFK","3FVBZG9CLJ0K37PD5L6161S4HTM0HN","","585.5999999977648","img/land4.png","74","587.0999999977648","1","1","1","2","0.8,0.2,0.2,0.2,0.8,0.2,0.2,0.2,0.8","0.8,0.2,0.2,0.2,0.8,0.2,0.2,0.2,0.8","1","",""
"","html-keyboard-response","107","101392","0.0-107.0","3Q5C1WP23NNAGNOUR4EUKS4CPUC51E","AKNYT1NTK2UFK","3FVBZG9CLJ0K37PD5L6161S4HTM0HN","","null","<img src=""img/land4.png"" style=""width:200px; border:14px solid green;"">","null","","","","","","","","","",""
"","image-keyboard-response","108","102449","0.0-108.0","3Q5C1WP23NNAGNOUR4EUKS4CPUC51E","AKNYT1NTK2UFK","3FVBZG9CLJ0K37PD5L6161S4HTM0HN","","1051.199999999255","img/land3.png","76","1056.5","3","1","3","2","0.8,0.2,0.2,0.2,0.8,0.2,0.2,0.2,0.8","0.8,0.2,0.2,0.2,0.8,0.2,0.2,0.2,0.8","1","",""
"","html-keyboard-response","109","102752","0.0-109.0","3Q5C1WP23NNAGNOUR4EUKS4CPUC51E","AKNYT1NTK2UFK","3FVBZG9CLJ0K37PD5L6161S4HTM0HN","","null","<img src=""img/land3.png"" style=""width:200px; border:14px solid green;"">","null","","","","","","","","","",""
"","image-keyboard-response","110","103281","0.0-110.0","3Q5C1WP23NNAGNOUR4EUKS4CPUC51E","AKNYT1NTK2UFK","3FVBZG9CLJ0K37PD5L6161S4HTM0HN","","526.1999999992549","img/land4.png","76","528.1999999992549","3","0","1","2","0.8,0.2,0.2,0.2,0.8,0.2,0.2,0.2,0.8","0.8,0.2,0.2,0.2,0.8,0.2,0.2,0.2,0.8","1","",""
"","html-keyboard-response","111","103583","0.0-111.0","3Q5C1WP23NNAGNOUR4EUKS4CPUC51E","AKNYT1NTK2UFK","3FVBZG9CLJ0K37PD5L6161S4HTM0HN","","null","<img src=""img/land4.png"" style=""width:200px;border:14px solid red;"">","null","","","","","","","","","",""
"","image-keyboard-response","112","104163","0.0-112.0","3Q5C1WP23NNAGNOUR4EUKS4CPUC51E","AKNYT1NTK2UFK","3FVBZG9CLJ0K37PD5L6161S4HTM0HN","","576.6999999992549","img/land4.png","74","578.6999999992549","1","1","1","2","0.8,0.2,0.2,0.2,0.8,0.2,0.2,0.2,0.8","0.8,0.2,0.2,0.2,0.8,0.2,0.2,0.2,0.8","1","",""
"","html-keyboard-response","113","104466","0.0-113.0","3Q5C1WP23NNAGNOUR4EUKS4CPUC51E","AKNYT1NTK2UFK","3FVBZG9CLJ0K37PD5L6161S4HTM0HN","","null","<img src=""img/land4.png"" style=""width:200px; border:14px solid green;"">","null","","","","","","","","","",""
"","image-keyboard-response","114","105369","0.0-114.0","3Q5C1WP23NNAGNOUR4EUKS4CPUC51E","AKNYT1NTK2UFK","3FVBZG9CLJ0K37PD5L6161S4HTM0HN","","900.8000000007451","img/land2.png","75","902.6999999992549","2","0","2","2","0.8,0.2,0.2,0.2,0.8,0.2,0.2,0.2,0.8","0.8,0.2,0.2,0.2,0.8,0.2,0.2,0.2,0.8","1","",""
"","html-keyboard-response","115","105672","0.0-115.0","3Q5C1WP23NNAGNOUR4EUKS4CPUC51E","AKNYT1NTK2UFK","3FVBZG9CLJ0K37PD5L6161S4HTM0HN","","null","<img src=""img/land2.png"" style=""width:200px;border:14px solid red;"">","null","","","","","","","","","",""
"","image-keyboard-response","116","106601","0.0-116.0","3Q5C1WP23NNAGNOUR4EUKS4CPUC51E","AKNYT1NTK2UFK","3FVBZG9CLJ0K37PD5L6161S4HTM0HN","","926.8000000007451","img/land4.png","74","928.6999999992549","1","1","1","2","0.8,0.2,0.2,0.2,0.8,0.2,0.2,0.2,0.8","0.8,0.2,0.2,0.2,0.8,0.2,0.2,0.2,0.8","1","",""
"","html-keyboard-response","117","106904","0.0-117.0","3Q5C1WP23NNAGNOUR4EUKS4CPUC51E","AKNYT1NTK2UFK","3FVBZG9CLJ0K37PD5L6161S4HTM0HN","","null","<img src=""img/land4.png"" style=""width:200px; border:14px solid green;"">","null","","","","","","","","","",""
"","image-keyboard-response","118","107528","0.0-118.0","3Q5C1WP23NNAGNOUR4EUKS4CPUC51E","AKNYT1NTK2UFK","3FVBZG9CLJ0K37PD5L6161S4HTM0HN","","622.5","img/land4.png","74","624.1999999992549","1","1","1","2","0.8,0.2,0.2,0.2,0.8,0.2,0.2,0.2,0.8","0.8,0.2,0.2,0.2,0.8,0.2,0.2,0.2,0.8","1","",""
"","html-keyboard-response","119","107831","0.0-119.0","3Q5C1WP23NNAGNOUR4EUKS4CPUC51E","AKNYT1NTK2UFK","3FVBZG9CLJ0K37PD5L6161S4HTM0HN","","null","<img src=""img/land4.png"" style=""width:200px; border:14px solid green;"">","null","","","","","","","","","",""
"","image-keyboard-response","120","108333","0.0-120.0","3Q5C1WP23NNAGNOUR4EUKS4CPUC51E","AKNYT1NTK2UFK","3FVBZG9CLJ0K37PD5L6161S4HTM0HN","","498.80000000074506","img/land4.png","74","501.69999999925494","1","1","1","2","0.8,0.2,0.2,0.2,0.8,0.2,0.2,0.2,0.8","0.8,0.2,0.2,0.2,0.8,0.2,0.2,0.2,0.8","1","",""
"","html-keyboard-response","121","108636","0.0-121.0","3Q5C1WP23NNAGNOUR4EUKS4CPUC51E","AKNYT1NTK2UFK","3FVBZG9CLJ0K37PD5L6161S4HTM0HN","","null","<img src=""img/land4.png"" style=""width:200px; border:14px solid green;"">","null","","","","","","","","","",""
"","image-keyboard-response","122","109486","0.0-122.0","3Q5C1WP23NNAGNOUR4EUKS4CPUC51E","AKNYT1NTK2UFK","3FVBZG9CLJ0K37PD5L6161S4HTM0HN","","847","img/land2.png","75","849.5999999977648","2","1","2","2","0.8,0.2,0.2,0.2,0.8,0.2,0.2,0.2,0.8","0.8,0.2,0.2,0.2,0.8,0.2,0.2,0.2,0.8","1","",""
"","html-keyboard-response","123","109789","0.0-123.0","3Q5C1WP23NNAGNOUR4EUKS4CPUC51E","AKNYT1NTK2UFK","3FVBZG9CLJ0K37PD5L6161S4HTM0HN","","null","<img src=""img/land2.png"" style=""width:200px; border:14px solid green;"">","null","","","","","","","","","",""
"","image-keyboard-response","124","110452","0.0-124.0","3Q5C1WP23NNAGNOUR4EUKS4CPUC51E","AKNYT1NTK2UFK","3FVBZG9CLJ0K37PD5L6161S4HTM0HN","","659.0999999977648","img/land2.png","75","662.8000000007451","2","1","2","2","0.8,0.2,0.2,0.2,0.8,0.2,0.2,0.2,0.8","0.8,0.2,0.2,0.2,0.8,0.2,0.2,0.2,0.8","1","",""
"","html-keyboard-response","125","110757","0.0-125.0","3Q5C1WP23NNAGNOUR4EUKS4CPUC51E","AKNYT1NTK2UFK","3FVBZG9CLJ0K37PD5L6161S4HTM0HN","","null","<img src=""img/land2.png"" style=""width:200px; border:14px solid green;"">","null","","","","","","","","","",""
"","image-keyboard-response","126","111632","0.0-126.0","3Q5C1WP23NNAGNOUR4EUKS4CPUC51E","AKNYT1NTK2UFK","3FVBZG9CLJ0K37PD5L6161S4HTM0HN","","873.6999999992549","img/land3.png","76","874.8000000007451","3","1","3","2","0.8,0.2,0.2,0.2,0.8,0.2,0.2,0.2,0.8","0.8,0.2,0.2,0.2,0.8,0.2,0.2,0.2,0.8","1","",""
"","html-keyboard-response","127","111934","0.0-127.0","3Q5C1WP23NNAGNOUR4EUKS4CPUC51E","AKNYT1NTK2UFK","3FVBZG9CLJ0K37PD5L6161S4HTM0HN","","null","<img src=""img/land3.png"" style=""width:200px; border:14px solid green;"">","null","","","","","","","","","",""
"","image-keyboard-response","128","112809","0.0-128.0","3Q5C1WP23NNAGNOUR4EUKS4CPUC51E","AKNYT1NTK2UFK","3FVBZG9CLJ0K37PD5L6161S4HTM0HN","","872.4000000022352","img/land4.png","74","874.3999999985099","1","1","1","2","0.8,0.2,0.2,0.2,0.8,0.2,0.2,0.2,0.8","0.8,0.2,0.2,0.2,0.8,0.2,0.2,0.2,0.8","1","",""
"","html-keyboard-response","129","113112","0.0-129.0","3Q5C1WP23NNAGNOUR4EUKS4CPUC51E","AKNYT1NTK2UFK","3FVBZG9CLJ0K37PD5L6161S4HTM0HN","","null","<img src=""img/land4.png"" style=""width:200px; border:14px solid green;"">","null","","","","","","","","","",""
"","image-keyboard-response","130","113872","0.0-130.0","3Q5C1WP23NNAGNOUR4EUKS4CPUC51E","AKNYT1NTK2UFK","3FVBZG9CLJ0K37PD5L6161S4HTM0HN","","758.3000000007451","img/land4.png","74","759.5","1","1","1","2","0.8,0.2,0.2,0.2,0.8,0.2,0.2,0.2,0.8","0.8,0.2,0.2,0.2,0.8,0.2,0.2,0.2,0.8","1","",""
"","html-keyboard-response","131","114176","0.0-131.0","3Q5C1WP23NNAGNOUR4EUKS4CPUC51E","AKNYT1NTK2UFK","3FVBZG9CLJ0K37PD5L6161S4HTM0HN","","null","<img src=""img/land4.png"" style=""width:200px; border:14px solid green;"">","null","","","","","","","","","",""
"","image-keyboard-response","132","115056","0.0-132.0","3Q5C1WP23NNAGNOUR4EUKS4CPUC51E","AKNYT1NTK2UFK","3FVBZG9CLJ0K37PD5L6161S4HTM0HN","","877.9000000022352","img/land2.png","75","879.5","2","1","2","2","0.8,0.2,0.2,0.2,0.8,0.2,0.2,0.2,0.8","0.8,0.2,0.2,0.2,0.8,0.2,0.2,0.2,0.8","1","",""
"","html-keyboard-response","133","115361","0.0-133.0","3Q5C1WP23NNAGNOUR4EUKS4CPUC51E","AKNYT1NTK2UFK","3FVBZG9CLJ0K37PD5L6161S4HTM0HN","","null","<img src=""img/land2.png"" style=""width:200px; border:14px solid green;"">","null","","","","","","","","","",""
"","image-keyboard-response","134","116320","0.0-134.0","3Q5C1WP23NNAGNOUR4EUKS4CPUC51E","AKNYT1NTK2UFK","3FVBZG9CLJ0K37PD5L6161S4HTM0HN","","956.8000000007451","img/land3.png","76","958.1999999992549","3","1","3","2","0.8,0.2,0.2,0.2,0.8,0.2,0.2,0.2,0.8","0.8,0.2,0.2,0.2,0.8,0.2,0.2,0.2,0.8","1","",""
"","html-keyboard-response","135","116624","0.0-135.0","3Q5C1WP23NNAGNOUR4EUKS4CPUC51E","AKNYT1NTK2UFK","3FVBZG9CLJ0K37PD5L6161S4HTM0HN","","null","<img src=""img/land3.png"" style=""width:200px; border:14px solid green;"">","null","","","","","","","","","",""
"","image-keyboard-response","136","117575","0.0-136.0","3Q5C1WP23NNAGNOUR4EUKS4CPUC51E","AKNYT1NTK2UFK","3FVBZG9CLJ0K37PD5L6161S4HTM0HN","","949.3000000007451","img/land4.png","74","950.8000000007451","1","1","1","2","0.8,0.2,0.2,0.2,0.8,0.2,0.2,0.2,0.8","0.8,0.2,0.2,0.2,0.8,0.2,0.2,0.2,0.8","1","",""
"","html-keyboard-response","137","117879","0.0-137.0","3Q5C1WP23NNAGNOUR4EUKS4CPUC51E","AKNYT1NTK2UFK","3FVBZG9CLJ0K37PD5L6161S4HTM0HN","","null","<img src=""img/land4.png"" style=""width:200px; border:14px solid green;"">","null","","","","","","","","","",""
"","image-keyboard-response","138","119150","0.0-138.0","3Q5C1WP23NNAGNOUR4EUKS4CPUC51E","AKNYT1NTK2UFK","3FVBZG9CLJ0K37PD5L6161S4HTM0HN","","1268.300000000745","img/land3.png","76","1270.2000000029802","3","0","3","2","0.8,0.2,0.2,0.2,0.8,0.2,0.2,0.2,0.8","0.8,0.2,0.2,0.2,0.8,0.2,0.2,0.2,0.8","1","",""
"","html-keyboard-response","139","119453","0.0-139.0","3Q5C1WP23NNAGNOUR4EUKS4CPUC51E","AKNYT1NTK2UFK","3FVBZG9CLJ0K37PD5L6161S4HTM0HN","","null","<img src=""img/land3.png"" style=""width:200px;border:14px solid red;"">","null","","","","","","","","","",""
"","image-keyboard-response","140","120385","0.0-140.0","3Q5C1WP23NNAGNOUR4EUKS4CPUC51E","AKNYT1NTK2UFK","3FVBZG9CLJ0K37PD5L6161S4HTM0HN","","929.5","img/land4.png","75","931.3000000007451","2","0","1","2","0.8,0.2,0.2,0.2,0.8,0.2,0.2,0.2,0.8","0.8,0.2,0.2,0.2,0.8,0.2,0.2,0.2,0.8","1","",""
"","html-keyboard-response","141","120689","0.0-141.0","3Q5C1WP23NNAGNOUR4EUKS4CPUC51E","AKNYT1NTK2UFK","3FVBZG9CLJ0K37PD5L6161S4HTM0HN","","null","<img src=""img/land4.png"" style=""width:200px;border:14px solid red;"">","null","","","","","","","","","",""
"","image-keyboard-response","142","121268","0.0-142.0","3Q5C1WP23NNAGNOUR4EUKS4CPUC51E","AKNYT1NTK2UFK","3FVBZG9CLJ0K37PD5L6161S4HTM0HN","","578.3999999985099","img/land4.png","74","579.6999999992549","1","1","1","2","0.8,0.2,0.2,0.2,0.8,0.2,0.2,0.2,0.8","0.8,0.2,0.2,0.2,0.8,0.2,0.2,0.2,0.8","1","",""
"","html-keyboard-response","143","121571","0.0-143.0","3Q5C1WP23NNAGNOUR4EUKS4CPUC51E","AKNYT1NTK2UFK","3FVBZG9CLJ0K37PD5L6161S4HTM0HN","","null","<img src=""img/land4.png"" style=""width:200px; border:14px solid green;"">","null","","","","","","","","","",""
"","image-keyboard-response","144","122035","0.0-144.0","3Q5C1WP23NNAGNOUR4EUKS4CPUC51E","AKNYT1NTK2UFK","3FVBZG9CLJ0K37PD5L6161S4HTM0HN","","461.80000000074506","img/land3.png","74","464.1000000014901","1","0","3","2","0.8,0.2,0.2,0.2,0.8,0.2,0.2,0.2,0.8","0.8,0.2,0.2,0.2,0.8,0.2,0.2,0.2,0.8","1","",""
"","html-keyboard-response","145","122338","0.0-145.0","3Q5C1WP23NNAGNOUR4EUKS4CPUC51E","AKNYT1NTK2UFK","3FVBZG9CLJ0K37PD5L6161S4HTM0HN","","null","<img src=""img/land3.png"" style=""width:200px;border:14px solid red;"">","null","","","","","","","","","",""
"","image-keyboard-response","146","123260","0.0-146.0","3Q5C1WP23NNAGNOUR4EUKS4CPUC51E","AKNYT1NTK2UFK","3FVBZG9CLJ0K37PD5L6161S4HTM0HN","","920.3000000007451","img/land2.png","75","921.5","2","1","2","2","0.8,0.2,0.2,0.2,0.8,0.2,0.2,0.2,0.8","0.8,0.2,0.2,0.2,0.8,0.2,0.2,0.2,0.8","1","",""
"","html-keyboard-response","147","123563","0.0-147.0","3Q5C1WP23NNAGNOUR4EUKS4CPUC51E","AKNYT1NTK2UFK","3FVBZG9CLJ0K37PD5L6161S4HTM0HN","","null","<img src=""img/land2.png"" style=""width:200px; border:14px solid green;"">","null","","","","","","","","","",""
"","image-keyboard-response","148","124289","0.0-148.0","3Q5C1WP23NNAGNOUR4EUKS4CPUC51E","AKNYT1NTK2UFK","3FVBZG9CLJ0K37PD5L6161S4HTM0HN","","723.6999999992549","img/land2.png","75","726.1999999992549","2","0","2","2","0.8,0.2,0.2,0.2,0.8,0.2,0.2,0.2,0.8","0.8,0.2,0.2,0.2,0.8,0.2,0.2,0.2,0.8","1","",""
"","html-keyboard-response","149","124593","0.0-149.0","3Q5C1WP23NNAGNOUR4EUKS4CPUC51E","AKNYT1NTK2UFK","3FVBZG9CLJ0K37PD5L6161S4HTM0HN","","null","<img src=""img/land2.png"" style=""width:200px;border:14px solid red;"">","null","","","","","","","","","",""
"","image-keyboard-response","150","125489","0.0-150.0","3Q5C1WP23NNAGNOUR4EUKS4CPUC51E","AKNYT1NTK2UFK","3FVBZG9CLJ0K37PD5L6161S4HTM0HN","","894.3999999985099","img/land4.png","74","896.3000000007451","1","1","1","2","0.8,0.2,0.2,0.2,0.8,0.2,0.2,0.2,0.8","0.8,0.2,0.2,0.2,0.8,0.2,0.2,0.2,0.8","1","",""
"","html-keyboard-response","151","125824","0.0-151.0","3Q5C1WP23NNAGNOUR4EUKS4CPUC51E","AKNYT1NTK2UFK","3FVBZG9CLJ0K37PD5L6161S4HTM0HN","","null","<img src=""img/land4.png"" style=""width:200px; border:14px solid green;"">","null","","","","","","","","","",""
"","image-keyboard-response","152","127382","0.0-152.0","3Q5C1WP23NNAGNOUR4EUKS4CPUC51E","AKNYT1NTK2UFK","3FVBZG9CLJ0K37PD5L6161S4HTM0HN","","1556.5","img/land3.png","76","1557.800000000745","3","1","3","2","0.8,0.2,0.2,0.2,0.8,0.2,0.2,0.2,0.8","0.8,0.2,0.2,0.2,0.8,0.2,0.2,0.2,0.8","1","",""
"","html-keyboard-response","153","127685","0.0-153.0","3Q5C1WP23NNAGNOUR4EUKS4CPUC51E","AKNYT1NTK2UFK","3FVBZG9CLJ0K37PD5L6161S4HTM0HN","","null","<img src=""img/land3.png"" style=""width:200px; border:14px solid green;"">","null","","","","","","","","","",""
"","image-keyboard-response","154","128636","0.0-154.0","3Q5C1WP23NNAGNOUR4EUKS4CPUC51E","AKNYT1NTK2UFK","3FVBZG9CLJ0K37PD5L6161S4HTM0HN","","948.5","img/land4.png","74","950.5999999977648","1","1","1","2","0.8,0.2,0.2,0.2,0.8,0.2,0.2,0.2,0.8","0.8,0.2,0.2,0.2,0.8,0.2,0.2,0.2,0.8","1","",""
"","html-keyboard-response","155","128939","0.0-155.0","3Q5C1WP23NNAGNOUR4EUKS4CPUC51E","AKNYT1NTK2UFK","3FVBZG9CLJ0K37PD5L6161S4HTM0HN","","null","<img src=""img/land4.png"" style=""width:200px; border:14px solid green;"">","null","","","","","","","","","",""
"","image-keyboard-response","156","129759","0.0-156.0","3Q5C1WP23NNAGNOUR4EUKS4CPUC51E","AKNYT1NTK2UFK","3FVBZG9CLJ0K37PD5L6161S4HTM0HN","","818.6999999992549","img/land4.png","74","820.0999999977648","1","1","1","2","0.8,0.2,0.2,0.2,0.8,0.2,0.2,0.2,0.8","0.8,0.2,0.2,0.2,0.8,0.2,0.2,0.2,0.8","1","",""
"","html-keyboard-response","157","130062","0.0-157.0","3Q5C1WP23NNAGNOUR4EUKS4CPUC51E","AKNYT1NTK2UFK","3FVBZG9CLJ0K37PD5L6161S4HTM0HN","","null","<img src=""img/land4.png"" style=""width:200px; border:14px solid green;"">","null","","","","","","","","","",""
"","image-keyboard-response","158","130986","0.0-158.0","3Q5C1WP23NNAGNOUR4EUKS4CPUC51E","AKNYT1NTK2UFK","3FVBZG9CLJ0K37PD5L6161S4HTM0HN","","923.3000000007451","img/land2.png","75","924.3999999985099","2","1","2","2","0.8,0.2,0.2,0.2,0.8,0.2,0.2,0.2,0.8","0.8,0.2,0.2,0.2,0.8,0.2,0.2,0.2,0.8","1","",""
"","html-keyboard-response","159","131291","0.0-159.0","3Q5C1WP23NNAGNOUR4EUKS4CPUC51E","AKNYT1NTK2UFK","3FVBZG9CLJ0K37PD5L6161S4HTM0HN","","null","<img src=""img/land2.png"" style=""width:200px; border:14px solid green;"">","null","","","","","","","","","",""
"","image-keyboard-response","160","132214","0.0-160.0","3Q5C1WP23NNAGNOUR4EUKS4CPUC51E","AKNYT1NTK2UFK","3FVBZG9CLJ0K37PD5L6161S4HTM0HN","","918.5","img/land4.png","74","922.3999999985099","1","1","1","2","0.8,0.2,0.2,0.2,0.8,0.2,0.2,0.2,0.8","0.8,0.2,0.2,0.2,0.8,0.2,0.2,0.2,0.8","1","",""
"","html-keyboard-response","161","132517","0.0-161.0","3Q5C1WP23NNAGNOUR4EUKS4CPUC51E","AKNYT1NTK2UFK","3FVBZG9CLJ0K37PD5L6161S4HTM0HN","","null","<img src=""img/land4.png"" style=""width:200px; border:14px solid green;"">","null","","","","","","","","","",""
"","image-keyboard-response","162","133147","0.0-162.0","3Q5C1WP23NNAGNOUR4EUKS4CPUC51E","AKNYT1NTK2UFK","3FVBZG9CLJ0K37PD5L6161S4HTM0HN","","628.1999999992549","img/land4.png","74","630","1","1","1","2","0.8,0.2,0.2,0.2,0.8,0.2,0.2,0.2,0.8","0.8,0.2,0.2,0.2,0.8,0.2,0.2,0.2,0.8","1","",""
"","html-keyboard-response","163","133449","0.0-163.0","3Q5C1WP23NNAGNOUR4EUKS4CPUC51E","AKNYT1NTK2UFK","3FVBZG9CLJ0K37PD5L6161S4HTM0HN","","null","<img src=""img/land4.png"" style=""width:200px; border:14px solid green;"">","null","","","","","","","","","",""
"","image-keyboard-response","164","134137","0.0-164.0","3Q5C1WP23NNAGNOUR4EUKS4CPUC51E","AKNYT1NTK2UFK","3FVBZG9CLJ0K37PD5L6161S4HTM0HN","","686.3999999985099","img/land4.png","74","687.5999999977648","1","0","1","2","0.8,0.2,0.2,0.2,0.8,0.2,0.2,0.2,0.8","0.8,0.2,0.2,0.2,0.8,0.2,0.2,0.2,0.8","1","",""
"","html-keyboard-response","165","134440","0.0-165.0","3Q5C1WP23NNAGNOUR4EUKS4CPUC51E","AKNYT1NTK2UFK","3FVBZG9CLJ0K37PD5L6161S4HTM0HN","","null","<img src=""img/land4.png"" style=""width:200px;border:14px solid red;"">","null","","","","","","","","","",""
"","image-keyboard-response","166","136446","0.0-166.0","3Q5C1WP23NNAGNOUR4EUKS4CPUC51E","AKNYT1NTK2UFK","3FVBZG9CLJ0K37PD5L6161S4HTM0HN","","","img/land3.png","","2006.1000000014901","-1","0","3","2","0.8,0.2,0.2,0.2,0.8,0.2,0.2,0.2,0.8","0.8,0.2,0.2,0.2,0.8,0.2,0.2,0.2,0.8","1","",""
"","html-keyboard-response","167","136749","0.0-167.0","3Q5C1WP23NNAGNOUR4EUKS4CPUC51E","AKNYT1NTK2UFK","3FVBZG9CLJ0K37PD5L6161S4HTM0HN","","null","<img src=""img/land3.png"" style=""width:200px;border:14px solid red;"">","null","","","","","","","","","",""
"","image-keyboard-response","168","137463","0.0-168.0","3Q5C1WP23NNAGNOUR4EUKS4CPUC51E","AKNYT1NTK2UFK","3FVBZG9CLJ0K37PD5L6161S4HTM0HN","","712.3000000007451","img/land3.png","76","714.1999999992549","3","1","3","2","0.8,0.2,0.2,0.2,0.8,0.2,0.2,0.2,0.8","0.8,0.2,0.2,0.2,0.8,0.2,0.2,0.2,0.8","1","",""
"","html-keyboard-response","169","137765","0.0-169.0","3Q5C1WP23NNAGNOUR4EUKS4CPUC51E","AKNYT1NTK2UFK","3FVBZG9CLJ0K37PD5L6161S4HTM0HN","","null","<img src=""img/land3.png"" style=""width:200px; border:14px solid green;"">","null","","","","","","","","","",""
"","image-keyboard-response","170","138725","0.0-170.0","3Q5C1WP23NNAGNOUR4EUKS4CPUC51E","AKNYT1NTK2UFK","3FVBZG9CLJ0K37PD5L6161S4HTM0HN","","956.2999999970198","img/land4.png","74","959.4000000022352","1","1","1","2","0.8,0.2,0.2,0.2,0.8,0.2,0.2,0.2,0.8","0.8,0.2,0.2,0.2,0.8,0.2,0.2,0.2,0.8","1","",""
"","html-keyboard-response","171","139029","0.0-171.0","3Q5C1WP23NNAGNOUR4EUKS4CPUC51E","AKNYT1NTK2UFK","3FVBZG9CLJ0K37PD5L6161S4HTM0HN","","null","<img src=""img/land4.png"" style=""width:200px; border:14px solid green;"">","null","","","","","","","","","",""
"","image-keyboard-response","172","139729","0.0-172.0","3Q5C1WP23NNAGNOUR4EUKS4CPUC51E","AKNYT1NTK2UFK","3FVBZG9CLJ0K37PD5L6161S4HTM0HN","","697.8000000007451","img/land4.png","74","699.5999999977648","1","1","1","2","0.8,0.2,0.2,0.2,0.8,0.2,0.2,0.2,0.8","0.8,0.2,0.2,0.2,0.8,0.2,0.2,0.2,0.8","1","",""
"","html-keyboard-response","173","140031","0.0-173.0","3Q5C1WP23NNAGNOUR4EUKS4CPUC51E","AKNYT1NTK2UFK","3FVBZG9CLJ0K37PD5L6161S4HTM0HN","","null","<img src=""img/land4.png"" style=""width:200px; border:14px solid green;"">","null","","","","","","","","","",""
"","image-keyboard-response","174","140664","0.0-174.0","3Q5C1WP23NNAGNOUR4EUKS4CPUC51E","AKNYT1NTK2UFK","3FVBZG9CLJ0K37PD5L6161S4HTM0HN","","630.5","img/land4.png","74","632.5999999977648","1","1","1","2","0.8,0.2,0.2,0.2,0.8,0.2,0.2,0.2,0.8","0.8,0.2,0.2,0.2,0.8,0.2,0.2,0.2,0.8","1","",""
"","html-keyboard-response","175","140968","0.0-175.0","3Q5C1WP23NNAGNOUR4EUKS4CPUC51E","AKNYT1NTK2UFK","3FVBZG9CLJ0K37PD5L6161S4HTM0HN","","null","<img src=""img/land4.png"" style=""width:200px; border:14px solid green;"">","null","","","","","","","","","",""
"","image-keyboard-response","176","141649","0.0-176.0","3Q5C1WP23NNAGNOUR4EUKS4CPUC51E","AKNYT1NTK2UFK","3FVBZG9CLJ0K37PD5L6161S4HTM0HN","","678.1999999992549","img/land4.png","74","681.1999999992549","1","1","1","2","0.8,0.2,0.2,0.2,0.8,0.2,0.2,0.2,0.8","0.8,0.2,0.2,0.2,0.8,0.2,0.2,0.2,0.8","1","",""
"","html-keyboard-response","177","141952","0.0-177.0","3Q5C1WP23NNAGNOUR4EUKS4CPUC51E","AKNYT1NTK2UFK","3FVBZG9CLJ0K37PD5L6161S4HTM0HN","","null","<img src=""img/land4.png"" style=""width:200px; border:14px solid green;"">","null","","","","","","","","","",""
"","image-keyboard-response","178","142830","0.0-178.0","3Q5C1WP23NNAGNOUR4EUKS4CPUC51E","AKNYT1NTK2UFK","3FVBZG9CLJ0K37PD5L6161S4HTM0HN","","876.5","img/land2.png","75","878","2","1","2","2","0.8,0.2,0.2,0.2,0.8,0.2,0.2,0.2,0.8","0.8,0.2,0.2,0.2,0.8,0.2,0.2,0.2,0.8","1","",""
"","html-keyboard-response","179","143134","0.0-179.0","3Q5C1WP23NNAGNOUR4EUKS4CPUC51E","AKNYT1NTK2UFK","3FVBZG9CLJ0K37PD5L6161S4HTM0HN","","null","<img src=""img/land2.png"" style=""width:200px; border:14px solid green;"">","null","","","","","","","","","",""
"","image-keyboard-response","180","144037","0.0-180.0","3Q5C1WP23NNAGNOUR4EUKS4CPUC51E","AKNYT1NTK2UFK","3FVBZG9CLJ0K37PD5L6161S4HTM0HN","","901","img/land4.png","74","902.8999999985099","1","1","1","2","0.8,0.2,0.2,0.2,0.8,0.2,0.2,0.2,0.8","0.8,0.2,0.2,0.2,0.8,0.2,0.2,0.2,0.8","1","",""
"","html-keyboard-response","181","144340","0.0-181.0","3Q5C1WP23NNAGNOUR4EUKS4CPUC51E","AKNYT1NTK2UFK","3FVBZG9CLJ0K37PD5L6161S4HTM0HN","","null","<img src=""img/land4.png"" style=""width:200px; border:14px solid green;"">","null","","","","","","","","","",""
"","image-keyboard-response","182","144813","0.0-182.0","3Q5C1WP23NNAGNOUR4EUKS4CPUC51E","AKNYT1NTK2UFK","3FVBZG9CLJ0K37PD5L6161S4HTM0HN","","469.6000000014901","img/land4.png","74","472.4000000022352","1","1","1","2","0.8,0.2,0.2,0.2,0.8,0.2,0.2,0.2,0.8","0.8,0.2,0.2,0.2,0.8,0.2,0.2,0.2,0.8","1","",""
"","html-keyboard-response","183","145117","0.0-183.0","3Q5C1WP23NNAGNOUR4EUKS4CPUC51E","AKNYT1NTK2UFK","3FVBZG9CLJ0K37PD5L6161S4HTM0HN","","null","<img src=""img/land4.png"" style=""width:200px; border:14px solid green;"">","null","","","","","","","","","",""
"","image-keyboard-response","184","145568","0.0-184.0","3Q5C1WP23NNAGNOUR4EUKS4CPUC51E","AKNYT1NTK2UFK","3FVBZG9CLJ0K37PD5L6161S4HTM0HN","","450","img/land4.png","74","451.1000000014901","1","1","1","2","0.8,0.2,0.2,0.2,0.8,0.2,0.2,0.2,0.8","0.8,0.2,0.2,0.2,0.8,0.2,0.2,0.2,0.8","1","",""
"","html-keyboard-response","185","145871","0.0-185.0","3Q5C1WP23NNAGNOUR4EUKS4CPUC51E","AKNYT1NTK2UFK","3FVBZG9CLJ0K37PD5L6161S4HTM0HN","","null","<img src=""img/land4.png"" style=""width:200px; border:14px solid green;"">","null","","","","","","","","","",""
"","image-keyboard-response","186","146450","0.0-186.0","3Q5C1WP23NNAGNOUR4EUKS4CPUC51E","AKNYT1NTK2UFK","3FVBZG9CLJ0K37PD5L6161S4HTM0HN","","575.5","img/land4.png","74","577.5","1","1","1","2","0.8,0.2,0.2,0.2,0.8,0.2,0.2,0.2,0.8","0.8,0.2,0.2,0.2,0.8,0.2,0.2,0.2,0.8","1","",""
"","html-keyboard-response","187","146752","0.0-187.0","3Q5C1WP23NNAGNOUR4EUKS4CPUC51E","AKNYT1NTK2UFK","3FVBZG9CLJ0K37PD5L6161S4HTM0HN","","null","<img src=""img/land4.png"" style=""width:200px; border:14px solid green;"">","null","","","","","","","","","",""
"","image-keyboard-response","188","147843","0.0-188.0","3Q5C1WP23NNAGNOUR4EUKS4CPUC51E","AKNYT1NTK2UFK","3FVBZG9CLJ0K37PD5L6161S4HTM0HN","","1088.3999999985099","img/land2.png","75","1090.6000000014901","2","0","2","2","0.8,0.2,0.2,0.2,0.8,0.2,0.2,0.2,0.8","0.8,0.2,0.2,0.2,0.8,0.2,0.2,0.2,0.8","1","",""
"","html-keyboard-response","189","148149","0.0-189.0","3Q5C1WP23NNAGNOUR4EUKS4CPUC51E","AKNYT1NTK2UFK","3FVBZG9CLJ0K37PD5L6161S4HTM0HN","","null","<img src=""img/land2.png"" style=""width:200px;border:14px solid red;"">","null","","","","","","","","","",""
"","image-keyboard-response","190","148748","0.0-190.0","3Q5C1WP23NNAGNOUR4EUKS4CPUC51E","AKNYT1NTK2UFK","3FVBZG9CLJ0K37PD5L6161S4HTM0HN","","594.6999999992549","img/land2.png","75","598.5999999977648","2","1","2","2","0.8,0.2,0.2,0.2,0.8,0.2,0.2,0.2,0.8","0.8,0.2,0.2,0.2,0.8,0.2,0.2,0.2,0.8","1","",""
"","html-keyboard-response","191","149051","0.0-191.0","3Q5C1WP23NNAGNOUR4EUKS4CPUC51E","AKNYT1NTK2UFK","3FVBZG9CLJ0K37PD5L6161S4HTM0HN","","null","<img src=""img/land2.png"" style=""width:200px; border:14px solid green;"">","null","","","","","","","","","",""
"","image-keyboard-response","192","149714","0.0-192.0","3Q5C1WP23NNAGNOUR4EUKS4CPUC51E","AKNYT1NTK2UFK","3FVBZG9CLJ0K37PD5L6161S4HTM0HN","","659.8999999985099","img/land2.png","75","662.5","2","0","2","2","0.8,0.2,0.2,0.2,0.8,0.2,0.2,0.2,0.8","0.8,0.2,0.2,0.2,0.8,0.2,0.2,0.2,0.8","1","",""
"","html-keyboard-response","193","150016","0.0-193.0","3Q5C1WP23NNAGNOUR4EUKS4CPUC51E","AKNYT1NTK2UFK","3FVBZG9CLJ0K37PD5L6161S4HTM0HN","","null","<img src=""img/land2.png"" style=""width:200px;border:14px solid red;"">","null","","","","","","","","","",""
"","image-keyboard-response","194","151052","0.0-194.0","3Q5C1WP23NNAGNOUR4EUKS4CPUC51E","AKNYT1NTK2UFK","3FVBZG9CLJ0K37PD5L6161S4HTM0HN","","1033.1000000014901","img/land4.png","74","1035.300000000745","1","1","1","2","0.8,0.2,0.2,0.2,0.8,0.2,0.2,0.2,0.8","0.8,0.2,0.2,0.2,0.8,0.2,0.2,0.2,0.8","1","",""
"","html-keyboard-response","195","151356","0.0-195.0","3Q5C1WP23NNAGNOUR4EUKS4CPUC51E","AKNYT1NTK2UFK","3FVBZG9CLJ0K37PD5L6161S4HTM0HN","","null","<img src=""img/land4.png"" style=""width:200px; border:14px solid green;"">","null","","","","","","","","","",""
"","image-keyboard-response","196","151771","0.0-196.0","3Q5C1WP23NNAGNOUR4EUKS4CPUC51E","AKNYT1NTK2UFK","3FVBZG9CLJ0K37PD5L6161S4HTM0HN","","412.4000000022352","img/land2.png","74","414.6000000014901","1","0","2","2","0.8,0.2,0.2,0.2,0.8,0.2,0.2,0.2,0.8","0.8,0.2,0.2,0.2,0.8,0.2,0.2,0.2,0.8","1","",""
"","html-keyboard-response","197","152074","0.0-197.0","3Q5C1WP23NNAGNOUR4EUKS4CPUC51E","AKNYT1NTK2UFK","3FVBZG9CLJ0K37PD5L6161S4HTM0HN","","null","<img src=""img/land2.png"" style=""width:200px;border:14px solid red;"">","null","","","","","","","","","",""
"","image-keyboard-response","198","152888","0.0-198.0","3Q5C1WP23NNAGNOUR4EUKS4CPUC51E","AKNYT1NTK2UFK","3FVBZG9CLJ0K37PD5L6161S4HTM0HN","","812.1999999992549","img/land4.png","74","813.3000000007451","1","1","1","2","0.8,0.2,0.2,0.2,0.8,0.2,0.2,0.2,0.8","0.8,0.2,0.2,0.2,0.8,0.2,0.2,0.2,0.8","1","",""
"","html-keyboard-response","199","153190","0.0-199.0","3Q5C1WP23NNAGNOUR4EUKS4CPUC51E","AKNYT1NTK2UFK","3FVBZG9CLJ0K37PD5L6161S4HTM0HN","","null","<img src=""img/land4.png"" style=""width:200px; border:14px solid green;"">","null","","","","","","","","","",""
"","image-keyboard-response","200","153899","0.0-200.0","3Q5C1WP23NNAGNOUR4EUKS4CPUC51E","AKNYT1NTK2UFK","3FVBZG9CLJ0K37PD5L6161S4HTM0HN","","707.4000000022352","img/land4.png","74","708.6000000014901","1","0","1","2","0.8,0.2,0.2,0.2,0.8,0.2,0.2,0.2,0.8","0.8,0.2,0.2,0.2,0.8,0.2,0.2,0.2,0.8","1","",""
"","html-keyboard-response","201","154202","0.0-201.0","3Q5C1WP23NNAGNOUR4EUKS4CPUC51E","AKNYT1NTK2UFK","3FVBZG9CLJ0K37PD5L6161S4HTM0HN","","null","<img src=""img/land4.png"" style=""width:200px;border:14px solid red;"">","null","","","","","","","","","",""
"","image-keyboard-response","202","154808","0.0-202.0","3Q5C1WP23NNAGNOUR4EUKS4CPUC51E","AKNYT1NTK2UFK","3FVBZG9CLJ0K37PD5L6161S4HTM0HN","","604.5","img/land4.png","74","605.6999999992549","1","0","1","2","0.8,0.2,0.2,0.2,0.8,0.2,0.2,0.2,0.8","0.8,0.2,0.2,0.2,0.8,0.2,0.2,0.2,0.8","1","",""
"","html-keyboard-response","203","155110","0.0-203.0","3Q5C1WP23NNAGNOUR4EUKS4CPUC51E","AKNYT1NTK2UFK","3FVBZG9CLJ0K37PD5L6161S4HTM0HN","","null","<img src=""img/land4.png"" style=""width:200px;border:14px solid red;"">","null","","","","","","","","","",""
"","image-keyboard-response","204","155897","0.0-204.0","3Q5C1WP23NNAGNOUR4EUKS4CPUC51E","AKNYT1NTK2UFK","3FVBZG9CLJ0K37PD5L6161S4HTM0HN","","784.4000000022352","img/land4.png","74","786.3000000007451","1","1","1","2","0.8,0.2,0.2,0.2,0.8,0.2,0.2,0.2,0.8","0.8,0.2,0.2,0.2,0.8,0.2,0.2,0.2,0.8","1","",""
"","html-keyboard-response","205","156200","0.0-205.0","3Q5C1WP23NNAGNOUR4EUKS4CPUC51E","AKNYT1NTK2UFK","3FVBZG9CLJ0K37PD5L6161S4HTM0HN","","null","<img src=""img/land4.png"" style=""width:200px; border:14px solid green;"">","null","","","","","","","","","",""
"","image-keyboard-response","206","156831","0.0-206.0","3Q5C1WP23NNAGNOUR4EUKS4CPUC51E","AKNYT1NTK2UFK","3FVBZG9CLJ0K37PD5L6161S4HTM0HN","","625","img/land4.png","74","629.8000000007451","1","1","1","2","0.8,0.2,0.2,0.2,0.8,0.2,0.2,0.2,0.8","0.8,0.2,0.2,0.2,0.8,0.2,0.2,0.2,0.8","1","",""
"","html-keyboard-response","207","157133","0.0-207.0","3Q5C1WP23NNAGNOUR4EUKS4CPUC51E","AKNYT1NTK2UFK","3FVBZG9CLJ0K37PD5L6161S4HTM0HN","","null","<img src=""img/land4.png"" style=""width:200px; border:14px solid green;"">","null","","","","","","","","","",""
"","image-keyboard-response","208","158143","0.0-208.0","3Q5C1WP23NNAGNOUR4EUKS4CPUC51E","AKNYT1NTK2UFK","3FVBZG9CLJ0K37PD5L6161S4HTM0HN","","1008.5","img/land3.png","76","1009.6000000014901","3","1","3","2","0.8,0.2,0.2,0.2,0.8,0.2,0.2,0.2,0.8","0.8,0.2,0.2,0.2,0.8,0.2,0.2,0.2,0.8","1","",""
"","html-keyboard-response","209","158446","0.0-209.0","3Q5C1WP23NNAGNOUR4EUKS4CPUC51E","AKNYT1NTK2UFK","3FVBZG9CLJ0K37PD5L6161S4HTM0HN","","null","<img src=""img/land3.png"" style=""width:200px; border:14px solid green;"">","null","","","","","","","","","",""
"","image-keyboard-response","210","159395","0.0-210.0","3Q5C1WP23NNAGNOUR4EUKS4CPUC51E","AKNYT1NTK2UFK","3FVBZG9CLJ0K37PD5L6161S4HTM0HN","","947.5999999977648","img/land4.png","74","949.3999999985099","1","1","1","2","0.8,0.2,0.2,0.2,0.8,0.2,0.2,0.2,0.8","0.8,0.2,0.2,0.2,0.8,0.2,0.2,0.2,0.8","1","",""
"","html-keyboard-response","211","159697","0.0-211.0","3Q5C1WP23NNAGNOUR4EUKS4CPUC51E","AKNYT1NTK2UFK","3FVBZG9CLJ0K37PD5L6161S4HTM0HN","","null","<img src=""img/land4.png"" style=""width:200px; border:14px solid green;"">","null","","","","","","","","","",""
"","image-keyboard-response","212","160316","0.0-212.0","3Q5C1WP23NNAGNOUR4EUKS4CPUC51E","AKNYT1NTK2UFK","3FVBZG9CLJ0K37PD5L6161S4HTM0HN","","616.2000000029802","img/land4.png","74","618.3000000007451","1","1","1","2","0.8,0.2,0.2,0.2,0.8,0.2,0.2,0.2,0.8","0.8,0.2,0.2,0.2,0.8,0.2,0.2,0.2,0.8","1","",""
"","html-keyboard-response","213","160621","0.0-213.0","3Q5C1WP23NNAGNOUR4EUKS4CPUC51E","AKNYT1NTK2UFK","3FVBZG9CLJ0K37PD5L6161S4HTM0HN","","null","<img src=""img/land4.png"" style=""width:200px; border:14px solid green;"">","null","","","","","","","","","",""
"","image-keyboard-response","214","161080","0.0-214.0","3Q5C1WP23NNAGNOUR4EUKS4CPUC51E","AKNYT1NTK2UFK","3FVBZG9CLJ0K37PD5L6161S4HTM0HN","","456.69999999925494","img/land4.png","74","458","1","0","1","2","0.8,0.2,0.2,0.2,0.8,0.2,0.2,0.2,0.8","0.8,0.2,0.2,0.2,0.8,0.2,0.2,0.2,0.8","1","",""
"","html-keyboard-response","215","161382","0.0-215.0","3Q5C1WP23NNAGNOUR4EUKS4CPUC51E","AKNYT1NTK2UFK","3FVBZG9CLJ0K37PD5L6161S4HTM0HN","","null","<img src=""img/land4.png"" style=""width:200px;border:14px solid red;"">","null","","","","","","","","","",""
"","image-keyboard-response","216","162385","0.0-216.0","3Q5C1WP23NNAGNOUR4EUKS4CPUC51E","AKNYT1NTK2UFK","3FVBZG9CLJ0K37PD5L6161S4HTM0HN","","1000.9000000022352","img/land4.png","74","1002.6000000014901","1","1","1","2","0.8,0.2,0.2,0.2,0.8,0.2,0.2,0.2,0.8","0.8,0.2,0.2,0.2,0.8,0.2,0.2,0.2,0.8","1","",""
"","html-keyboard-response","217","162688","0.0-217.0","3Q5C1WP23NNAGNOUR4EUKS4CPUC51E","AKNYT1NTK2UFK","3FVBZG9CLJ0K37PD5L6161S4HTM0HN","","null","<img src=""img/land4.png"" style=""width:200px; border:14px solid green;"">","null","","","","","","","","","",""
"","image-keyboard-response","218","163092","0.0-218.0","3Q5C1WP23NNAGNOUR4EUKS4CPUC51E","AKNYT1NTK2UFK","3FVBZG9CLJ0K37PD5L6161S4HTM0HN","","400.30000000074506","img/land4.png","74","402.9000000022352","1","1","1","2","0.8,0.2,0.2,0.2,0.8,0.2,0.2,0.2,0.8","0.8,0.2,0.2,0.2,0.8,0.2,0.2,0.2,0.8","1","",""
"","html-keyboard-response","219","163395","0.0-219.0","3Q5C1WP23NNAGNOUR4EUKS4CPUC51E","AKNYT1NTK2UFK","3FVBZG9CLJ0K37PD5L6161S4HTM0HN","","null","<img src=""img/land4.png"" style=""width:200px; border:14px solid green;"">","null","","","","","","","","","",""
"","image-keyboard-response","220","163843","0.0-220.0","3Q5C1WP23NNAGNOUR4EUKS4CPUC51E","AKNYT1NTK2UFK","3FVBZG9CLJ0K37PD5L6161S4HTM0HN","","445.8999999985099","img/land4.png","74","447.1000000014901","1","1","1","2","0.8,0.2,0.2,0.2,0.8,0.2,0.2,0.2,0.8","0.8,0.2,0.2,0.2,0.8,0.2,0.2,0.2,0.8","1","",""
"","html-keyboard-response","221","164146","0.0-221.0","3Q5C1WP23NNAGNOUR4EUKS4CPUC51E","AKNYT1NTK2UFK","3FVBZG9CLJ0K37PD5L6161S4HTM0HN","","null","<img src=""img/land4.png"" style=""width:200px; border:14px solid green;"">","null","","","","","","","","","",""
"","image-keyboard-response","222","164625","0.0-222.0","3Q5C1WP23NNAGNOUR4EUKS4CPUC51E","AKNYT1NTK2UFK","3FVBZG9CLJ0K37PD5L6161S4HTM0HN","","476.5","img/land4.png","74","478.5","1","1","1","2","0.8,0.2,0.2,0.2,0.8,0.2,0.2,0.2,0.8","0.8,0.2,0.2,0.2,0.8,0.2,0.2,0.2,0.8","1","",""
"","html-keyboard-response","223","164927","0.0-223.0","3Q5C1WP23NNAGNOUR4EUKS4CPUC51E","AKNYT1NTK2UFK","3FVBZG9CLJ0K37PD5L6161S4HTM0HN","","null","<img src=""img/land4.png"" style=""width:200px; border:14px solid green;"">","null","","","","","","","","","",""
"","image-keyboard-response","224","165366","0.0-224.0","3Q5C1WP23NNAGNOUR4EUKS4CPUC51E","AKNYT1NTK2UFK","3FVBZG9CLJ0K37PD5L6161S4HTM0HN","","434.80000000074506","img/land4.png","74","438.80000000074506","1","1","1","2","0.8,0.2,0.2,0.2,0.8,0.2,0.2,0.2,0.8","0.8,0.2,0.2,0.2,0.8,0.2,0.2,0.2,0.8","1","",""
"","html-keyboard-response","225","165670","0.0-225.0","3Q5C1WP23NNAGNOUR4EUKS4CPUC51E","AKNYT1NTK2UFK","3FVBZG9CLJ0K37PD5L6161S4HTM0HN","","null","<img src=""img/land4.png"" style=""width:200px; border:14px solid green;"">","null","","","","","","","","","",""
"","image-keyboard-response","226","166187","0.0-226.0","3Q5C1WP23NNAGNOUR4EUKS4CPUC51E","AKNYT1NTK2UFK","3FVBZG9CLJ0K37PD5L6161S4HTM0HN","","516.0999999977648","img/land4.png","74","517.1999999992549","1","1","1","2","0.8,0.2,0.2,0.2,0.8,0.2,0.2,0.2,0.8","0.8,0.2,0.2,0.2,0.8,0.2,0.2,0.2,0.8","1","",""
"","html-keyboard-response","227","166489","0.0-227.0","3Q5C1WP23NNAGNOUR4EUKS4CPUC51E","AKNYT1NTK2UFK","3FVBZG9CLJ0K37PD5L6161S4HTM0HN","","null","<img src=""img/land4.png"" style=""width:200px; border:14px solid green;"">","null","","","","","","","","","",""
"","image-keyboard-response","228","166963","0.0-228.0","3Q5C1WP23NNAGNOUR4EUKS4CPUC51E","AKNYT1NTK2UFK","3FVBZG9CLJ0K37PD5L6161S4HTM0HN","","472.30000000074506","img/land4.png","74","473.30000000074506","1","1","1","2","0.8,0.2,0.2,0.2,0.8,0.2,0.2,0.2,0.8","0.8,0.2,0.2,0.2,0.8,0.2,0.2,0.2,0.8","1","",""
"","html-keyboard-response","229","167268","0.0-229.0","3Q5C1WP23NNAGNOUR4EUKS4CPUC51E","AKNYT1NTK2UFK","3FVBZG9CLJ0K37PD5L6161S4HTM0HN","","null","<img src=""img/land4.png"" style=""width:200px; border:14px solid green;"">","null","","","","","","","","","",""
"","image-keyboard-response","230","167739","0.0-230.0","3Q5C1WP23NNAGNOUR4EUKS4CPUC51E","AKNYT1NTK2UFK","3FVBZG9CLJ0K37PD5L6161S4HTM0HN","","469","img/land4.png","74","471","1","1","1","2","0.8,0.2,0.2,0.2,0.8,0.2,0.2,0.2,0.8","0.8,0.2,0.2,0.2,0.8,0.2,0.2,0.2,0.8","1","",""
"","html-keyboard-response","231","168042","0.0-231.0","3Q5C1WP23NNAGNOUR4EUKS4CPUC51E","AKNYT1NTK2UFK","3FVBZG9CLJ0K37PD5L6161S4HTM0HN","","null","<img src=""img/land4.png"" style=""width:200px; border:14px solid green;"">","null","","","","","","","","","",""
"","image-keyboard-response","232","168494","0.0-232.0","3Q5C1WP23NNAGNOUR4EUKS4CPUC51E","AKNYT1NTK2UFK","3FVBZG9CLJ0K37PD5L6161S4HTM0HN","","450.3999999985099","img/land4.png","74","452.1000000014901","1","1","1","2","0.8,0.2,0.2,0.2,0.8,0.2,0.2,0.2,0.8","0.8,0.2,0.2,0.2,0.8,0.2,0.2,0.2,0.8","1","",""
"","html-keyboard-response","233","168798","0.0-233.0","3Q5C1WP23NNAGNOUR4EUKS4CPUC51E","AKNYT1NTK2UFK","3FVBZG9CLJ0K37PD5L6161S4HTM0HN","","null","<img src=""img/land4.png"" style=""width:200px; border:14px solid green;"">","null","","","","","","","","","",""
"","image-keyboard-response","234","169376","0.0-234.0","3Q5C1WP23NNAGNOUR4EUKS4CPUC51E","AKNYT1NTK2UFK","3FVBZG9CLJ0K37PD5L6161S4HTM0HN","","572.6999999992549","img/land4.png","74","577.6999999992549","1","1","1","2","0.8,0.2,0.2,0.2,0.8,0.2,0.2,0.2,0.8","0.8,0.2,0.2,0.2,0.8,0.2,0.2,0.2,0.8","1","",""
"","html-keyboard-response","235","169679","0.0-235.0","3Q5C1WP23NNAGNOUR4EUKS4CPUC51E","AKNYT1NTK2UFK","3FVBZG9CLJ0K37PD5L6161S4HTM0HN","","null","<img src=""img/land4.png"" style=""width:200px; border:14px solid green;"">","null","","","","","","","","","",""
"","image-keyboard-response","236","170183","0.0-236.0","3Q5C1WP23NNAGNOUR4EUKS4CPUC51E","AKNYT1NTK2UFK","3FVBZG9CLJ0K37PD5L6161S4HTM0HN","","502.29999999701977","img/land3.png","74","504.19999999925494","1","0","3","2","0.8,0.2,0.2,0.2,0.8,0.2,0.2,0.2,0.8","0.8,0.2,0.2,0.2,0.8,0.2,0.2,0.2,0.8","1","",""
"","html-keyboard-response","237","170502","0.0-237.0","3Q5C1WP23NNAGNOUR4EUKS4CPUC51E","AKNYT1NTK2UFK","3FVBZG9CLJ0K37PD5L6161S4HTM0HN","","null","<img src=""img/land3.png"" style=""width:200px;border:14px solid red;"">","null","","","","","","","","","",""
"","image-keyboard-response","238","171394","0.0-238.0","3Q5C1WP23NNAGNOUR4EUKS4CPUC51E","AKNYT1NTK2UFK","3FVBZG9CLJ0K37PD5L6161S4HTM0HN","","887","img/land2.png","75","889.5","2","1","2","2","0.8,0.2,0.2,0.2,0.8,0.2,0.2,0.2,0.8","0.8,0.2,0.2,0.2,0.8,0.2,0.2,0.2,0.8","1","",""
"","html-keyboard-response","239","171697","0.0-239.0","3Q5C1WP23NNAGNOUR4EUKS4CPUC51E","AKNYT1NTK2UFK","3FVBZG9CLJ0K37PD5L6161S4HTM0HN","","null","<img src=""img/land2.png"" style=""width:200px; border:14px solid green;"">","null","","","","","","","","","",""
"","image-keyboard-response","240","172729","0.0-240.0","3Q5C1WP23NNAGNOUR4EUKS4CPUC51E","AKNYT1NTK2UFK","3FVBZG9CLJ0K37PD5L6161S4HTM0HN","","1029.800000000745","img/land4.png","74","1031.800000000745","1","0","1","2","0.8,0.2,0.2,0.2,0.8,0.2,0.2,0.2,0.8","0.8,0.2,0.2,0.2,0.8,0.2,0.2,0.2,0.8","1","",""
"","html-keyboard-response","241","173032","0.0-241.0","3Q5C1WP23NNAGNOUR4EUKS4CPUC51E","AKNYT1NTK2UFK","3FVBZG9CLJ0K37PD5L6161S4HTM0HN","","null","<img src=""img/land4.png"" style=""width:200px;border:14px solid red;"">","null","","","","","","","","","",""
"","image-keyboard-response","242","173452","0.0-242.0","3Q5C1WP23NNAGNOUR4EUKS4CPUC51E","AKNYT1NTK2UFK","3FVBZG9CLJ0K37PD5L6161S4HTM0HN","","417.3999999985099","img/land3.png","74","419.6000000014901","1","0","3","2","0.8,0.2,0.2,0.2,0.8,0.2,0.2,0.2,0.8","0.8,0.2,0.2,0.2,0.8,0.2,0.2,0.2,0.8","1","",""
"","html-keyboard-response","243","173755","0.0-243.0","3Q5C1WP23NNAGNOUR4EUKS4CPUC51E","AKNYT1NTK2UFK","3FVBZG9CLJ0K37PD5L6161S4HTM0HN","","null","<img src=""img/land3.png"" style=""width:200px;border:14px solid red;"">","null","","","","","","","","","",""
"","image-keyboard-response","244","174516","0.0-244.0","3Q5C1WP23NNAGNOUR4EUKS4CPUC51E","AKNYT1NTK2UFK","3FVBZG9CLJ0K37PD5L6161S4HTM0HN","","758.8999999985099","img/land4.png","74","760.8999999985099","1","1","1","2","0.8,0.2,0.2,0.2,0.8,0.2,0.2,0.2,0.8","0.8,0.2,0.2,0.2,0.8,0.2,0.2,0.2,0.8","1","",""
"","html-keyboard-response","245","174819","0.0-245.0","3Q5C1WP23NNAGNOUR4EUKS4CPUC51E","AKNYT1NTK2UFK","3FVBZG9CLJ0K37PD5L6161S4HTM0HN","","null","<img src=""img/land4.png"" style=""width:200px; border:14px solid green;"">","null","","","","","","","","","",""
"","image-keyboard-response","246","175714","0.0-246.0","3Q5C1WP23NNAGNOUR4EUKS4CPUC51E","AKNYT1NTK2UFK","3FVBZG9CLJ0K37PD5L6161S4HTM0HN","","892.6999999992549","img/land2.png","75","894.5999999977648","2","1","2","2","0.8,0.2,0.2,0.2,0.8,0.2,0.2,0.2,0.8","0.8,0.2,0.2,0.2,0.8,0.2,0.2,0.2,0.8","1","",""
"","html-keyboard-response","247","176017","0.0-247.0","3Q5C1WP23NNAGNOUR4EUKS4CPUC51E","AKNYT1NTK2UFK","3FVBZG9CLJ0K37PD5L6161S4HTM0HN","","null","<img src=""img/land2.png"" style=""width:200px; border:14px solid green;"">","null","","","","","","","","","",""
"","image-keyboard-response","248","176787","0.0-248.0","3Q5C1WP23NNAGNOUR4EUKS4CPUC51E","AKNYT1NTK2UFK","3FVBZG9CLJ0K37PD5L6161S4HTM0HN","","768","img/land2.png","75","769.7999999970198","2","0","2","2","0.8,0.2,0.2,0.2,0.8,0.2,0.2,0.2,0.8","0.8,0.2,0.2,0.2,0.8,0.2,0.2,0.2,0.8","1","",""
"","html-keyboard-response","249","177090","0.0-249.0","3Q5C1WP23NNAGNOUR4EUKS4CPUC51E","AKNYT1NTK2UFK","3FVBZG9CLJ0K37PD5L6161S4HTM0HN","","null","<img src=""img/land2.png"" style=""width:200px;border:14px solid red;"">","null","","","","","","","","","",""
"","image-keyboard-response","250","177941","0.0-250.0","3Q5C1WP23NNAGNOUR4EUKS4CPUC51E","AKNYT1NTK2UFK","3FVBZG9CLJ0K37PD5L6161S4HTM0HN","","848.9000000022352","img/land4.png","74","851.3999999985099","1","1","1","2","0.8,0.2,0.2,0.2,0.8,0.2,0.2,0.2,0.8","0.8,0.2,0.2,0.2,0.8,0.2,0.2,0.2,0.8","1","",""
"","html-keyboard-response","251","178245","0.0-251.0","3Q5C1WP23NNAGNOUR4EUKS4CPUC51E","AKNYT1NTK2UFK","3FVBZG9CLJ0K37PD5L6161S4HTM0HN","","null","<img src=""img/land4.png"" style=""width:200px; border:14px solid green;"">","null","","","","","","","","","",""
"","image-keyboard-response","252","179148","0.0-252.0","3Q5C1WP23NNAGNOUR4EUKS4CPUC51E","AKNYT1NTK2UFK","3FVBZG9CLJ0K37PD5L6161S4HTM0HN","","899.5","img/land3.png","76","903","3","0","3","2","0.8,0.2,0.2,0.2,0.8,0.2,0.2,0.2,0.8","0.8,0.2,0.2,0.2,0.8,0.2,0.2,0.2,0.8","1","",""
"","html-keyboard-response","253","179451","0.0-253.0","3Q5C1WP23NNAGNOUR4EUKS4CPUC51E","AKNYT1NTK2UFK","3FVBZG9CLJ0K37PD5L6161S4HTM0HN","","null","<img src=""img/land3.png"" style=""width:200px;border:14px solid red;"">","null","","","","","","","","","",""
"","image-keyboard-response","254","180406","0.0-254.0","3Q5C1WP23NNAGNOUR4EUKS4CPUC51E","AKNYT1NTK2UFK","3FVBZG9CLJ0K37PD5L6161S4HTM0HN","","952.5","img/land4.png","74","954.8999999985099","1","1","1","2","0.8,0.2,0.2,0.2,0.8,0.2,0.2,0.2,0.8","0.8,0.2,0.2,0.2,0.8,0.2,0.2,0.2,0.8","1","",""
"","html-keyboard-response","255","180709","0.0-255.0","3Q5C1WP23NNAGNOUR4EUKS4CPUC51E","AKNYT1NTK2UFK","3FVBZG9CLJ0K37PD5L6161S4HTM0HN","","null","<img src=""img/land4.png"" style=""width:200px; border:14px solid green;"">","null","","","","","","","","","",""
"","image-keyboard-response","256","181636","0.0-256.0","3Q5C1WP23NNAGNOUR4EUKS4CPUC51E","AKNYT1NTK2UFK","3FVBZG9CLJ0K37PD5L6161S4HTM0HN","","924.3000000007451","img/land2.png","75","926.3000000007451","2","0","2","2","0.8,0.2,0.2,0.2,0.8,0.2,0.2,0.2,0.8","0.8,0.2,0.2,0.2,0.8,0.2,0.2,0.2,0.8","1","",""
"","html-keyboard-response","257","181938","0.0-257.0","3Q5C1WP23NNAGNOUR4EUKS4CPUC51E","AKNYT1NTK2UFK","3FVBZG9CLJ0K37PD5L6161S4HTM0HN","","null","<img src=""img/land2.png"" style=""width:200px;border:14px solid red;"">","null","","","","","","","","","",""
"","image-keyboard-response","258","182811","0.0-258.0","3Q5C1WP23NNAGNOUR4EUKS4CPUC51E","AKNYT1NTK2UFK","3FVBZG9CLJ0K37PD5L6161S4HTM0HN","","870.1000000014901","img/land4.png","74","872","1","1","1","2","0.8,0.2,0.2,0.2,0.8,0.2,0.2,0.2,0.8","0.8,0.2,0.2,0.2,0.8,0.2,0.2,0.2,0.8","1","",""
"","html-keyboard-response","259","183113","0.0-259.0","3Q5C1WP23NNAGNOUR4EUKS4CPUC51E","AKNYT1NTK2UFK","3FVBZG9CLJ0K37PD5L6161S4HTM0HN","","null","<img src=""img/land4.png"" style=""width:200px; border:14px solid green;"">","null","","","","","","","","","",""
"","image-keyboard-response","260","184167","0.0-260.0","3Q5C1WP23NNAGNOUR4EUKS4CPUC51E","AKNYT1NTK2UFK","3FVBZG9CLJ0K37PD5L6161S4HTM0HN","","1051.800000000745","img/land3.png","76","1053.0999999977648","3","0","3","2","0.8,0.2,0.2,0.2,0.8,0.2,0.2,0.2,0.8","0.8,0.2,0.2,0.2,0.8,0.2,0.2,0.2,0.8","1","",""
"","html-keyboard-response","261","184470","0.0-261.0","3Q5C1WP23NNAGNOUR4EUKS4CPUC51E","AKNYT1NTK2UFK","3FVBZG9CLJ0K37PD5L6161S4HTM0HN","","null","<img src=""img/land3.png"" style=""width:200px;border:14px solid red;"">","null","","","","","","","","","",""
"","image-keyboard-response","262","185977","0.0-262.0","3Q5C1WP23NNAGNOUR4EUKS4CPUC51E","AKNYT1NTK2UFK","3FVBZG9CLJ0K37PD5L6161S4HTM0HN","","1504.199999999255","img/land4.png","74","1506.5","1","0","1","2","0.8,0.2,0.2,0.2,0.8,0.2,0.2,0.2,0.8","0.8,0.2,0.2,0.2,0.8,0.2,0.2,0.2,0.8","1","",""
"","html-keyboard-response","263","186279","0.0-263.0","3Q5C1WP23NNAGNOUR4EUKS4CPUC51E","AKNYT1NTK2UFK","3FVBZG9CLJ0K37PD5L6161S4HTM0HN","","null","<img src=""img/land4.png"" style=""width:200px;border:14px solid red;"">","null","","","","","","","","","",""
"","image-keyboard-response","264","186962","0.0-264.0","3Q5C1WP23NNAGNOUR4EUKS4CPUC51E","AKNYT1NTK2UFK","3FVBZG9CLJ0K37PD5L6161S4HTM0HN","","681.6999999992549","img/land4.png","74","682.6999999992549","1","1","1","2","0.8,0.2,0.2,0.2,0.8,0.2,0.2,0.2,0.8","0.8,0.2,0.2,0.2,0.8,0.2,0.2,0.2,0.8","1","",""
"","html-keyboard-response","265","187265","0.0-265.0","3Q5C1WP23NNAGNOUR4EUKS4CPUC51E","AKNYT1NTK2UFK","3FVBZG9CLJ0K37PD5L6161S4HTM0HN","","null","<img src=""img/land4.png"" style=""width:200px; border:14px solid green;"">","null","","","","","","","","","",""
"","image-keyboard-response","266","188033","0.0-266.0","3Q5C1WP23NNAGNOUR4EUKS4CPUC51E","AKNYT1NTK2UFK","3FVBZG9CLJ0K37PD5L6161S4HTM0HN","","765.2000000029802","img/land4.png","74","767.5","1","0","1","2","0.8,0.2,0.2,0.2,0.8,0.2,0.2,0.2,0.8","0.8,0.2,0.2,0.2,0.8,0.2,0.2,0.2,0.8","1","",""
"","html-keyboard-response","267","188337","0.0-267.0","3Q5C1WP23NNAGNOUR4EUKS4CPUC51E","AKNYT1NTK2UFK","3FVBZG9CLJ0K37PD5L6161S4HTM0HN","","null","<img src=""img/land4.png"" style=""width:200px;border:14px solid red;"">","null","","","","","","","","","",""
"","image-keyboard-response","268","189286","0.0-268.0","3Q5C1WP23NNAGNOUR4EUKS4CPUC51E","AKNYT1NTK2UFK","3FVBZG9CLJ0K37PD5L6161S4HTM0HN","","947.1000000014901","img/land2.png","75","948.5","2","1","2","2","0.8,0.2,0.2,0.2,0.8,0.2,0.2,0.2,0.8","0.8,0.2,0.2,0.2,0.8,0.2,0.2,0.2,0.8","1","",""
"","html-keyboard-response","269","189588","0.0-269.0","3Q5C1WP23NNAGNOUR4EUKS4CPUC51E","AKNYT1NTK2UFK","3FVBZG9CLJ0K37PD5L6161S4HTM0HN","","null","<img src=""img/land2.png"" style=""width:200px; border:14px solid green;"">","null","","","","","","","","","",""
"","image-keyboard-response","270","190521","0.0-270.0","3Q5C1WP23NNAGNOUR4EUKS4CPUC51E","AKNYT1NTK2UFK","3FVBZG9CLJ0K37PD5L6161S4HTM0HN","","930.8000000007451","img/land3.png","76","932.8000000007451","3","1","3","2","0.8,0.2,0.2,0.2,0.8,0.2,0.2,0.2,0.8","0.8,0.2,0.2,0.2,0.8,0.2,0.2,0.2,0.8","1","",""
"","html-keyboard-response","271","190824","0.0-271.0","3Q5C1WP23NNAGNOUR4EUKS4CPUC51E","AKNYT1NTK2UFK","3FVBZG9CLJ0K37PD5L6161S4HTM0HN","","null","<img src=""img/land3.png"" style=""width:200px; border:14px solid green;"">","null","","","","","","","","","",""
"","image-keyboard-response","272","191719","0.0-272.0","3Q5C1WP23NNAGNOUR4EUKS4CPUC51E","AKNYT1NTK2UFK","3FVBZG9CLJ0K37PD5L6161S4HTM0HN","","891.5999999977648","img/land4.png","74","893.8000000007451","1","1","1","2","0.8,0.2,0.2,0.2,0.8,0.2,0.2,0.2,0.8","0.8,0.2,0.2,0.2,0.8,0.2,0.2,0.2,0.8","1","",""
"","html-keyboard-response","273","192022","0.0-273.0","3Q5C1WP23NNAGNOUR4EUKS4CPUC51E","AKNYT1NTK2UFK","3FVBZG9CLJ0K37PD5L6161S4HTM0HN","","null","<img src=""img/land4.png"" style=""width:200px; border:14px solid green;"">","null","","","","","","","","","",""
"","image-keyboard-response","274","193006","0.0-274.0","3Q5C1WP23NNAGNOUR4EUKS4CPUC51E","AKNYT1NTK2UFK","3FVBZG9CLJ0K37PD5L6161S4HTM0HN","","981.6999999992549","img/land3.png","76","983.7999999970198","3","1","3","2","0.8,0.2,0.2,0.2,0.8,0.2,0.2,0.2,0.8","0.8,0.2,0.2,0.2,0.8,0.2,0.2,0.2,0.8","1","",""
"","html-keyboard-response","275","193309","0.0-275.0","3Q5C1WP23NNAGNOUR4EUKS4CPUC51E","AKNYT1NTK2UFK","3FVBZG9CLJ0K37PD5L6161S4HTM0HN","","null","<img src=""img/land3.png"" style=""width:200px; border:14px solid green;"">","null","","","","","","","","","",""
"","image-keyboard-response","276","194234","0.0-276.0","3Q5C1WP23NNAGNOUR4EUKS4CPUC51E","AKNYT1NTK2UFK","3FVBZG9CLJ0K37PD5L6161S4HTM0HN","","921.6000000014901","img/land4.png","74","923.8000000007451","1","1","1","2","0.8,0.2,0.2,0.2,0.8,0.2,0.2,0.2,0.8","0.8,0.2,0.2,0.2,0.8,0.2,0.2,0.2,0.8","1","",""
"","html-keyboard-response","277","194537","0.0-277.0","3Q5C1WP23NNAGNOUR4EUKS4CPUC51E","AKNYT1NTK2UFK","3FVBZG9CLJ0K37PD5L6161S4HTM0HN","","null","<img src=""img/land4.png"" style=""width:200px; border:14px solid green;"">","null","","","","","","","","","",""
"","image-keyboard-response","278","194983","0.0-278.0","3Q5C1WP23NNAGNOUR4EUKS4CPUC51E","AKNYT1NTK2UFK","3FVBZG9CLJ0K37PD5L6161S4HTM0HN","","442.8999999985099","img/land4.png","74","444.9000000022352","1","0","1","2","0.8,0.2,0.2,0.2,0.8,0.2,0.2,0.2,0.8","0.8,0.2,0.2,0.2,0.8,0.2,0.2,0.2,0.8","1","",""
"","html-keyboard-response","279","195285","0.0-279.0","3Q5C1WP23NNAGNOUR4EUKS4CPUC51E","AKNYT1NTK2UFK","3FVBZG9CLJ0K37PD5L6161S4HTM0HN","","null","<img src=""img/land4.png"" style=""width:200px;border:14px solid red;"">","null","","","","","","","","","",""
"","image-keyboard-response","280","196215","0.0-280.0","3Q5C1WP23NNAGNOUR4EUKS4CPUC51E","AKNYT1NTK2UFK","3FVBZG9CLJ0K37PD5L6161S4HTM0HN","","928.1000000014901","img/land4.png","74","929.5","1","1","1","2","0.8,0.2,0.2,0.2,0.8,0.2,0.2,0.2,0.8","0.8,0.2,0.2,0.2,0.8,0.2,0.2,0.2,0.8","1","",""
"","html-keyboard-response","281","196519","0.0-281.0","3Q5C1WP23NNAGNOUR4EUKS4CPUC51E","AKNYT1NTK2UFK","3FVBZG9CLJ0K37PD5L6161S4HTM0HN","","null","<img src=""img/land4.png"" style=""width:200px; border:14px solid green;"">","null","","","","","","","","","",""
"","image-keyboard-response","282","196885","0.0-282.0","3Q5C1WP23NNAGNOUR4EUKS4CPUC51E","AKNYT1NTK2UFK","3FVBZG9CLJ0K37PD5L6161S4HTM0HN","","363.5","img/land3.png","74","365.80000000074506","1","0","3","2","0.8,0.2,0.2,0.2,0.8,0.2,0.2,0.2,0.8","0.8,0.2,0.2,0.2,0.8,0.2,0.2,0.2,0.8","1","",""
"","html-keyboard-response","283","197188","0.0-283.0","3Q5C1WP23NNAGNOUR4EUKS4CPUC51E","AKNYT1NTK2UFK","3FVBZG9CLJ0K37PD5L6161S4HTM0HN","","null","<img src=""img/land3.png"" style=""width:200px;border:14px solid red;"">","null","","","","","","","","","",""
"","image-keyboard-response","284","197977","0.0-284.0","3Q5C1WP23NNAGNOUR4EUKS4CPUC51E","AKNYT1NTK2UFK","3FVBZG9CLJ0K37PD5L6161S4HTM0HN","","786.5","img/land4.png","74","788.0999999977648","1","1","1","2","0.8,0.2,0.2,0.2,0.8,0.2,0.2,0.2,0.8","0.8,0.2,0.2,0.2,0.8,0.2,0.2,0.2,0.8","1","",""
"","html-keyboard-response","285","198279","0.0-285.0","3Q5C1WP23NNAGNOUR4EUKS4CPUC51E","AKNYT1NTK2UFK","3FVBZG9CLJ0K37PD5L6161S4HTM0HN","","null","<img src=""img/land4.png"" style=""width:200px; border:14px solid green;"">","null","","","","","","","","","",""
"","image-keyboard-response","286","198779","0.0-286.0","3Q5C1WP23NNAGNOUR4EUKS4CPUC51E","AKNYT1NTK2UFK","3FVBZG9CLJ0K37PD5L6161S4HTM0HN","","497","img/land4.png","74","499.3999999985099","1","1","1","2","0.8,0.2,0.2,0.2,0.8,0.2,0.2,0.2,0.8","0.8,0.2,0.2,0.2,0.8,0.2,0.2,0.2,0.8","1","",""
"","html-keyboard-response","287","199082","0.0-287.0","3Q5C1WP23NNAGNOUR4EUKS4CPUC51E","AKNYT1NTK2UFK","3FVBZG9CLJ0K37PD5L6161S4HTM0HN","","null","<img src=""img/land4.png"" style=""width:200px; border:14px solid green;"">","null","","","","","","","","","",""
"","image-keyboard-response","288","199957","0.0-288.0","3Q5C1WP23NNAGNOUR4EUKS4CPUC51E","AKNYT1NTK2UFK","3FVBZG9CLJ0K37PD5L6161S4HTM0HN","","872.7000000029802","img/land3.png","76","874.6000000014901","3","0","3","2","0.8,0.2,0.2,0.2,0.8,0.2,0.2,0.2,0.8","0.8,0.2,0.2,0.2,0.8,0.2,0.2,0.2,0.8","1","",""
"","html-keyboard-response","289","200259","0.0-289.0","3Q5C1WP23NNAGNOUR4EUKS4CPUC51E","AKNYT1NTK2UFK","3FVBZG9CLJ0K37PD5L6161S4HTM0HN","","null","<img src=""img/land3.png"" style=""width:200px;border:14px solid red;"">","null","","","","","","","","","",""
"","image-keyboard-response","290","201527","0.0-290.0","3Q5C1WP23NNAGNOUR4EUKS4CPUC51E","AKNYT1NTK2UFK","3FVBZG9CLJ0K37PD5L6161S4HTM0HN","","1266.5","img/land4.png","74","1268.699999999255","1","1","1","2","0.8,0.2,0.2,0.2,0.8,0.2,0.2,0.2,0.8","0.8,0.2,0.2,0.2,0.8,0.2,0.2,0.2,0.8","1","",""
"","html-keyboard-response","291","201831","0.0-291.0","3Q5C1WP23NNAGNOUR4EUKS4CPUC51E","AKNYT1NTK2UFK","3FVBZG9CLJ0K37PD5L6161S4HTM0HN","","null","<img src=""img/land4.png"" style=""width:200px; border:14px solid green;"">","null","","","","","","","","","",""
"","image-keyboard-response","292","202275","0.0-292.0","3Q5C1WP23NNAGNOUR4EUKS4CPUC51E","AKNYT1NTK2UFK","3FVBZG9CLJ0K37PD5L6161S4HTM0HN","","438.29999999701977","img/land4.png","74","443.6000000014901","1","1","1","2","0.8,0.2,0.2,0.2,0.8,0.2,0.2,0.2,0.8","0.8,0.2,0.2,0.2,0.8,0.2,0.2,0.2,0.8","1","",""
"","html-keyboard-response","293","202578","0.0-293.0","3Q5C1WP23NNAGNOUR4EUKS4CPUC51E","AKNYT1NTK2UFK","3FVBZG9CLJ0K37PD5L6161S4HTM0HN","","null","<img src=""img/land4.png"" style=""width:200px; border:14px solid green;"">","null","","","","","","","","","",""
"","image-keyboard-response","294","203578","0.0-294.0","3Q5C1WP23NNAGNOUR4EUKS4CPUC51E","AKNYT1NTK2UFK","3FVBZG9CLJ0K37PD5L6161S4HTM0HN","","998.5","img/land3.png","76","999.8000000007451","3","0","3","2","0.8,0.2,0.2,0.2,0.8,0.2,0.2,0.2,0.8","0.8,0.2,0.2,0.2,0.8,0.2,0.2,0.2,0.8","1","",""
"","html-keyboard-response","295","203881","0.0-295.0","3Q5C1WP23NNAGNOUR4EUKS4CPUC51E","AKNYT1NTK2UFK","3FVBZG9CLJ0K37PD5L6161S4HTM0HN","","null","<img src=""img/land3.png"" style=""width:200px;border:14px solid red;"">","null","","","","","","","","","",""
"","image-keyboard-response","296","204749","0.0-296.0","3Q5C1WP23NNAGNOUR4EUKS4CPUC51E","AKNYT1NTK2UFK","3FVBZG9CLJ0K37PD5L6161S4HTM0HN","","866.5999999977648","img/land2.png","75","867.8000000007451","2","0","2","2","0.8,0.2,0.2,0.2,0.8,0.2,0.2,0.2,0.8","0.8,0.2,0.2,0.2,0.8,0.2,0.2,0.2,0.8","1","",""
"","html-keyboard-response","297","205053","0.0-297.0","3Q5C1WP23NNAGNOUR4EUKS4CPUC51E","AKNYT1NTK2UFK","3FVBZG9CLJ0K37PD5L6161S4HTM0HN","","null","<img src=""img/land2.png"" style=""width:200px;border:14px solid red;"">","null","","","","","","","","","",""
"","image-keyboard-response","298","205923","0.0-298.0","3Q5C1WP23NNAGNOUR4EUKS4CPUC51E","AKNYT1NTK2UFK","3FVBZG9CLJ0K37PD5L6161S4HTM0HN","","868.5","img/land4.png","74","870.0999999977648","1","0","1","2","0.8,0.2,0.2,0.2,0.8,0.2,0.2,0.2,0.8","0.8,0.2,0.2,0.2,0.8,0.2,0.2,0.2,0.8","1","",""
"","html-keyboard-response","299","206226","0.0-299.0","3Q5C1WP23NNAGNOUR4EUKS4CPUC51E","AKNYT1NTK2UFK","3FVBZG9CLJ0K37PD5L6161S4HTM0HN","","null","<img src=""img/land4.png"" style=""width:200px;border:14px solid red;"">","null","","","","","","","","","",""
"","image-keyboard-response","300","206779","0.0-300.0","3Q5C1WP23NNAGNOUR4EUKS4CPUC51E","AKNYT1NTK2UFK","3FVBZG9CLJ0K37PD5L6161S4HTM0HN","","548","img/land4.png","74","551.8999999985099","1","1","1","2","0.8,0.2,0.2,0.2,0.8,0.2,0.2,0.2,0.8","0.8,0.2,0.2,0.2,0.8,0.2,0.2,0.2,0.8","1","",""
"","html-keyboard-response","301","207082","0.0-301.0","3Q5C1WP23NNAGNOUR4EUKS4CPUC51E","AKNYT1NTK2UFK","3FVBZG9CLJ0K37PD5L6161S4HTM0HN","","null","<img src=""img/land4.png"" style=""width:200px; border:14px solid green;"">","null","","","","","","","","","",""
"","image-keyboard-response","302","209087","0.0-302.0","3Q5C1WP23NNAGNOUR4EUKS4CPUC51E","AKNYT1NTK2UFK","3FVBZG9CLJ0K37PD5L6161S4HTM0HN","","","img/land5.png","","2004.5","-1","0","2","1","0.8,0.2,0.2,0.2,0.8,0.2,0.2,0.2,0.8","0.8,0.2,0.2,0.2,0.8,0.2,0.2,0.2,0.8","1","",""
"","html-keyboard-response","303","209390","0.0-303.0","3Q5C1WP23NNAGNOUR4EUKS4CPUC51E","AKNYT1NTK2UFK","3FVBZG9CLJ0K37PD5L6161S4HTM0HN","","null","<img src=""img/land5.png"" style=""width:200px;border:14px solid red;"">","null","","","","","","","","","",""
"","image-keyboard-response","304","210308","0.0-304.0","3Q5C1WP23NNAGNOUR4EUKS4CPUC51E","AKNYT1NTK2UFK","3FVBZG9CLJ0K37PD5L6161S4HTM0HN","","916","img/land6.png","74","917.3000000007451","1","0","3","1","0.8,0.2,0.2,0.2,0.8,0.2,0.2,0.2,0.8","0.8,0.2,0.2,0.2,0.8,0.2,0.2,0.2,0.8","1","",""
"","html-keyboard-response","305","210610","0.0-305.0","3Q5C1WP23NNAGNOUR4EUKS4CPUC51E","AKNYT1NTK2UFK","3FVBZG9CLJ0K37PD5L6161S4HTM0HN","","null","<img src=""img/land6.png"" style=""width:200px;border:14px solid red;"">","null","","","","","","","","","",""
"","image-keyboard-response","306","211510","0.0-306.0","3Q5C1WP23NNAGNOUR4EUKS4CPUC51E","AKNYT1NTK2UFK","3FVBZG9CLJ0K37PD5L6161S4HTM0HN","","897.6000000014901","img/land1.png","75","899.3000000007451","2","0","1","1","0.8,0.2,0.2,0.2,0.8,0.2,0.2,0.2,0.8","0.8,0.2,0.2,0.2,0.8,0.2,0.2,0.2,0.8","1","",""
"","html-keyboard-response","307","211812","0.0-307.0","3Q5C1WP23NNAGNOUR4EUKS4CPUC51E","AKNYT1NTK2UFK","3FVBZG9CLJ0K37PD5L6161S4HTM0HN","","null","<img src=""img/land1.png"" style=""width:200px;border:14px solid red;"">","null","","","","","","","","","",""
"","image-keyboard-response","308","212495","0.0-308.0","3Q5C1WP23NNAGNOUR4EUKS4CPUC51E","AKNYT1NTK2UFK","3FVBZG9CLJ0K37PD5L6161S4HTM0HN","","681.3000000007451","img/land1.png","76","682.3999999985099","3","0","1","1","0.8,0.2,0.2,0.2,0.8,0.2,0.2,0.2,0.8","0.8,0.2,0.2,0.2,0.8,0.2,0.2,0.2,0.8","1","",""
"","html-keyboard-response","309","212798","0.0-309.0","3Q5C1WP23NNAGNOUR4EUKS4CPUC51E","AKNYT1NTK2UFK","3FVBZG9CLJ0K37PD5L6161S4HTM0HN","","null","<img src=""img/land1.png"" style=""width:200px;border:14px solid red;"">","null","","","","","","","","","",""
"","image-keyboard-response","310","214039","0.0-310.0","3Q5C1WP23NNAGNOUR4EUKS4CPUC51E","AKNYT1NTK2UFK","3FVBZG9CLJ0K37PD5L6161S4HTM0HN","","1238.8999999985099","img/land6.png","76","1241","3","1","3","1","0.8,0.2,0.2,0.2,0.8,0.2,0.2,0.2,0.8","0.8,0.2,0.2,0.2,0.8,0.2,0.2,0.2,0.8","1","",""
"","html-keyboard-response","311","214342","0.0-311.0","3Q5C1WP23NNAGNOUR4EUKS4CPUC51E","AKNYT1NTK2UFK","3FVBZG9CLJ0K37PD5L6161S4HTM0HN","","null","<img src=""img/land6.png"" style=""width:200px; border:14px solid green;"">","null","","","","","","","","","",""
"","image-keyboard-response","312","214830","0.0-312.0","3Q5C1WP23NNAGNOUR4EUKS4CPUC51E","AKNYT1NTK2UFK","3FVBZG9CLJ0K37PD5L6161S4HTM0HN","","486.20000000298023","img/land6.png","76","487.5","3","1","3","1","0.8,0.2,0.2,0.2,0.8,0.2,0.2,0.2,0.8","0.8,0.2,0.2,0.2,0.8,0.2,0.2,0.2,0.8","1","",""
"","html-keyboard-response","313","215133","0.0-313.0","3Q5C1WP23NNAGNOUR4EUKS4CPUC51E","AKNYT1NTK2UFK","3FVBZG9CLJ0K37PD5L6161S4HTM0HN","","null","<img src=""img/land6.png"" style=""width:200px; border:14px solid green;"">","null","","","","","","","","","",""
"","image-keyboard-response","314","216013","0.0-314.0","3Q5C1WP23NNAGNOUR4EUKS4CPUC51E","AKNYT1NTK2UFK","3FVBZG9CLJ0K37PD5L6161S4HTM0HN","","878.6999999992549","img/land5.png","75","879.9000000022352","2","1","2","1","0.8,0.2,0.2,0.2,0.8,0.2,0.2,0.2,0.8","0.8,0.2,0.2,0.2,0.8,0.2,0.2,0.2,0.8","1","",""
"","html-keyboard-response","315","216316","0.0-315.0","3Q5C1WP23NNAGNOUR4EUKS4CPUC51E","AKNYT1NTK2UFK","3FVBZG9CLJ0K37PD5L6161S4HTM0HN","","null","<img src=""img/land5.png"" style=""width:200px; border:14px solid green;"">","null","","","","","","","","","",""
"","image-keyboard-response","316","216798","0.0-316.0","3Q5C1WP23NNAGNOUR4EUKS4CPUC51E","AKNYT1NTK2UFK","3FVBZG9CLJ0K37PD5L6161S4HTM0HN","","479.80000000074506","img/land1.png","75","481.1000000014901","2","0","1","1","0.8,0.2,0.2,0.2,0.8,0.2,0.2,0.2,0.8","0.8,0.2,0.2,0.2,0.8,0.2,0.2,0.2,0.8","1","",""
"","html-keyboard-response","317","217101","0.0-317.0","3Q5C1WP23NNAGNOUR4EUKS4CPUC51E","AKNYT1NTK2UFK","3FVBZG9CLJ0K37PD5L6161S4HTM0HN","","null","<img src=""img/land1.png"" style=""width:200px;border:14px solid red;"">","null","","","","","","","","","",""
"","image-keyboard-response","318","217950","0.0-318.0","3Q5C1WP23NNAGNOUR4EUKS4CPUC51E","AKNYT1NTK2UFK","3FVBZG9CLJ0K37PD5L6161S4HTM0HN","","847.8999999985099","img/land6.png","75","849.1000000014901","2","0","3","1","0.8,0.2,0.2,0.2,0.8,0.2,0.2,0.2,0.8","0.8,0.2,0.2,0.2,0.8,0.2,0.2,0.2,0.8","1","",""
"","html-keyboard-response","319","218254","0.0-319.0","3Q5C1WP23NNAGNOUR4EUKS4CPUC51E","AKNYT1NTK2UFK","3FVBZG9CLJ0K37PD5L6161S4HTM0HN","","null","<img src=""img/land6.png"" style=""width:200px;border:14px solid red;"">","null","","","","","","","","","",""
"","image-keyboard-response","320","218864","0.0-320.0","3Q5C1WP23NNAGNOUR4EUKS4CPUC51E","AKNYT1NTK2UFK","3FVBZG9CLJ0K37PD5L6161S4HTM0HN","","607.5","img/land6.png","75","609.3000000007451","2","1","3","1","0.8,0.2,0.2,0.2,0.8,0.2,0.2,0.2,0.8","0.8,0.2,0.2,0.2,0.8,0.2,0.2,0.2,0.8","1","",""
"","html-keyboard-response","321","219166","0.0-321.0","3Q5C1WP23NNAGNOUR4EUKS4CPUC51E","AKNYT1NTK2UFK","3FVBZG9CLJ0K37PD5L6161S4HTM0HN","","null","<img src=""img/land6.png"" style=""width:200px; border:14px solid green;"">","null","","","","","","","","","",""
"","image-keyboard-response","322","219881","0.0-322.0","3Q5C1WP23NNAGNOUR4EUKS4CPUC51E","AKNYT1NTK2UFK","3FVBZG9CLJ0K37PD5L6161S4HTM0HN","","713.4000000022352","img/land6.png","75","714.7999999970198","2","0","3","1","0.8,0.2,0.2,0.2,0.8,0.2,0.2,0.2,0.8","0.8,0.2,0.2,0.2,0.8,0.2,0.2,0.2,0.8","1","",""
"","html-keyboard-response","323","220192","0.0-323.0","3Q5C1WP23NNAGNOUR4EUKS4CPUC51E","AKNYT1NTK2UFK","3FVBZG9CLJ0K37PD5L6161S4HTM0HN","","null","<img src=""img/land6.png"" style=""width:200px;border:14px solid red;"">","null","","","","","","","","","",""
"","image-keyboard-response","324","221505","0.0-324.0","3Q5C1WP23NNAGNOUR4EUKS4CPUC51E","AKNYT1NTK2UFK","3FVBZG9CLJ0K37PD5L6161S4HTM0HN","","1311.6000000014901","img/land5.png","75","1313","2","1","2","1","0.8,0.2,0.2,0.2,0.8,0.2,0.2,0.2,0.8","0.8,0.2,0.2,0.2,0.8,0.2,0.2,0.2,0.8","1","",""
"","html-keyboard-response","325","221812","0.0-325.0","3Q5C1WP23NNAGNOUR4EUKS4CPUC51E","AKNYT1NTK2UFK","3FVBZG9CLJ0K37PD5L6161S4HTM0HN","","null","<img src=""img/land5.png"" style=""width:200px; border:14px solid green;"">","null","","","","","","","","","",""
"","image-keyboard-response","326","222281","0.0-326.0","3Q5C1WP23NNAGNOUR4EUKS4CPUC51E","AKNYT1NTK2UFK","3FVBZG9CLJ0K37PD5L6161S4HTM0HN","","467.8999999985099","img/land6.png","75","469.1000000014901","2","0","3","1","0.8,0.2,0.2,0.2,0.8,0.2,0.2,0.2,0.8","0.8,0.2,0.2,0.2,0.8,0.2,0.2,0.2,0.8","1","",""
"","html-keyboard-response","327","222584","0.0-327.0","3Q5C1WP23NNAGNOUR4EUKS4CPUC51E","AKNYT1NTK2UFK","3FVBZG9CLJ0K37PD5L6161S4HTM0HN","","null","<img src=""img/land6.png"" style=""width:200px;border:14px solid red;"">","null","","","","","","","","","",""
"","image-keyboard-response","328","223215","0.0-328.0","3Q5C1WP23NNAGNOUR4EUKS4CPUC51E","AKNYT1NTK2UFK","3FVBZG9CLJ0K37PD5L6161S4HTM0HN","","628.7000000029802","img/land6.png","76","630.5","3","1","3","1","0.8,0.2,0.2,0.2,0.8,0.2,0.2,0.2,0.8","0.8,0.2,0.2,0.2,0.8,0.2,0.2,0.2,0.8","1","",""
"","html-keyboard-response","329","223517","0.0-329.0","3Q5C1WP23NNAGNOUR4EUKS4CPUC51E","AKNYT1NTK2UFK","3FVBZG9CLJ0K37PD5L6161S4HTM0HN","","null","<img src=""img/land6.png"" style=""width:200px; border:14px solid green;"">","null","","","","","","","","","",""
"","image-keyboard-response","330","223974","0.0-330.0","3Q5C1WP23NNAGNOUR4EUKS4CPUC51E","AKNYT1NTK2UFK","3FVBZG9CLJ0K37PD5L6161S4HTM0HN","","455.3999999985099","img/land5.png","76","456.69999999925494","3","0","2","1","0.8,0.2,0.2,0.2,0.8,0.2,0.2,0.2,0.8","0.8,0.2,0.2,0.2,0.8,0.2,0.2,0.2,0.8","1","",""
"","html-keyboard-response","331","224278","0.0-331.0","3Q5C1WP23NNAGNOUR4EUKS4CPUC51E","AKNYT1NTK2UFK","3FVBZG9CLJ0K37PD5L6161S4HTM0HN","","null","<img src=""img/land5.png"" style=""width:200px;border:14px solid red;"">","null","","","","","","","","","",""
"","image-keyboard-response","332","224878","0.0-332.0","3Q5C1WP23NNAGNOUR4EUKS4CPUC51E","AKNYT1NTK2UFK","3FVBZG9CLJ0K37PD5L6161S4HTM0HN","","597.6000000014901","img/land5.png","75","599.1999999992549","2","0","2","1","0.8,0.2,0.2,0.2,0.8,0.2,0.2,0.2,0.8","0.8,0.2,0.2,0.2,0.8,0.2,0.2,0.2,0.8","1","",""
"","html-keyboard-response","333","225181","0.0-333.0","3Q5C1WP23NNAGNOUR4EUKS4CPUC51E","AKNYT1NTK2UFK","3FVBZG9CLJ0K37PD5L6161S4HTM0HN","","null","<img src=""img/land5.png"" style=""width:200px;border:14px solid red;"">","null","","","","","","","","","",""
"","image-keyboard-response","334","225685","0.0-334.0","3Q5C1WP23NNAGNOUR4EUKS4CPUC51E","AKNYT1NTK2UFK","3FVBZG9CLJ0K37PD5L6161S4HTM0HN","","501.6000000014901","img/land5.png","75","503.3999999985099","2","1","2","1","0.8,0.2,0.2,0.2,0.8,0.2,0.2,0.2,0.8","0.8,0.2,0.2,0.2,0.8,0.2,0.2,0.2,0.8","1","",""
"","html-keyboard-response","335","225989","0.0-335.0","3Q5C1WP23NNAGNOUR4EUKS4CPUC51E","AKNYT1NTK2UFK","3FVBZG9CLJ0K37PD5L6161S4HTM0HN","","null","<img src=""img/land5.png"" style=""width:200px; border:14px solid green;"">","null","","","","","","","","","",""
"","image-keyboard-response","336","226944","0.0-336.0","3Q5C1WP23NNAGNOUR4EUKS4CPUC51E","AKNYT1NTK2UFK","3FVBZG9CLJ0K37PD5L6161S4HTM0HN","","953.1000000014901","img/land1.png","74","955.1999999992549","1","1","1","1","0.8,0.2,0.2,0.2,0.8,0.2,0.2,0.2,0.8","0.8,0.2,0.2,0.2,0.8,0.2,0.2,0.2,0.8","1","",""
"","html-keyboard-response","337","227248","0.0-337.0","3Q5C1WP23NNAGNOUR4EUKS4CPUC51E","AKNYT1NTK2UFK","3FVBZG9CLJ0K37PD5L6161S4HTM0HN","","null","<img src=""img/land1.png"" style=""width:200px; border:14px solid green;"">","null","","","","","","","","","",""
"","image-keyboard-response","338","227638","0.0-338.0","3Q5C1WP23NNAGNOUR4EUKS4CPUC51E","AKNYT1NTK2UFK","3FVBZG9CLJ0K37PD5L6161S4HTM0HN","","387.4000000022352","img/land5.png","74","389.5","1","0","2","1","0.8,0.2,0.2,0.2,0.8,0.2,0.2,0.2,0.8","0.8,0.2,0.2,0.2,0.8,0.2,0.2,0.2,0.8","1","",""
"","html-keyboard-response","339","227942","0.0-339.0","3Q5C1WP23NNAGNOUR4EUKS4CPUC51E","AKNYT1NTK2UFK","3FVBZG9CLJ0K37PD5L6161S4HTM0HN","","null","<img src=""img/land5.png"" style=""width:200px;border:14px solid red;"">","null","","","","","","","","","",""
"","image-keyboard-response","340","228345","0.0-340.0","3Q5C1WP23NNAGNOUR4EUKS4CPUC51E","AKNYT1NTK2UFK","3FVBZG9CLJ0K37PD5L6161S4HTM0HN","","401.6000000014901","img/land1.png","75","403.19999999925494","2","1","1","1","0.8,0.2,0.2,0.2,0.8,0.2,0.2,0.2,0.8","0.8,0.2,0.2,0.2,0.8,0.2,0.2,0.2,0.8","1","",""
"","html-keyboard-response","341","228652","0.0-341.0","3Q5C1WP23NNAGNOUR4EUKS4CPUC51E","AKNYT1NTK2UFK","3FVBZG9CLJ0K37PD5L6161S4HTM0HN","","null","<img src=""img/land1.png"" style=""width:200px; border:14px solid green;"">","null","","","","","","","","","",""
"","image-keyboard-response","342","229138","0.0-342.0","3Q5C1WP23NNAGNOUR4EUKS4CPUC51E","AKNYT1NTK2UFK","3FVBZG9CLJ0K37PD5L6161S4HTM0HN","","484.6000000014901","img/land1.png","74","486","1","1","1","1","0.8,0.2,0.2,0.2,0.8,0.2,0.2,0.2,0.8","0.8,0.2,0.2,0.2,0.8,0.2,0.2,0.2,0.8","1","",""
"","html-keyboard-response","343","229442","0.0-343.0","3Q5C1WP23NNAGNOUR4EUKS4CPUC51E","AKNYT1NTK2UFK","3FVBZG9CLJ0K37PD5L6161S4HTM0HN","","null","<img src=""img/land1.png"" style=""width:200px; border:14px solid green;"">","null","","","","","","","","","",""
"","image-keyboard-response","344","229855","0.0-344.0","3Q5C1WP23NNAGNOUR4EUKS4CPUC51E","AKNYT1NTK2UFK","3FVBZG9CLJ0K37PD5L6161S4HTM0HN","","410.5","img/land5.png","74","412.3999999985099","1","0","2","1","0.8,0.2,0.2,0.2,0.8,0.2,0.2,0.2,0.8","0.8,0.2,0.2,0.2,0.8,0.2,0.2,0.2,0.8","1","",""
"","html-keyboard-response","345","230158","0.0-345.0","3Q5C1WP23NNAGNOUR4EUKS4CPUC51E","AKNYT1NTK2UFK","3FVBZG9CLJ0K37PD5L6161S4HTM0HN","","null","<img src=""img/land5.png"" style=""width:200px;border:14px solid red;"">","null","","","","","","","","","",""
"","image-keyboard-response","346","231058","0.0-346.0","3Q5C1WP23NNAGNOUR4EUKS4CPUC51E","AKNYT1NTK2UFK","3FVBZG9CLJ0K37PD5L6161S4HTM0HN","","897","img/land1.png","74","899.0999999977648","1","1","1","1","0.8,0.2,0.2,0.2,0.8,0.2,0.2,0.2,0.8","0.8,0.2,0.2,0.2,0.8,0.2,0.2,0.2,0.8","1","",""
"","html-keyboard-response","347","231362","0.0-347.0","3Q5C1WP23NNAGNOUR4EUKS4CPUC51E","AKNYT1NTK2UFK","3FVBZG9CLJ0K37PD5L6161S4HTM0HN","","null","<img src=""img/land1.png"" style=""width:200px; border:14px solid green;"">","null","","","","","","","","","",""
"","image-keyboard-response","348","231756","0.0-348.0","3Q5C1WP23NNAGNOUR4EUKS4CPUC51E","AKNYT1NTK2UFK","3FVBZG9CLJ0K37PD5L6161S4HTM0HN","","389.5","img/land5.png","74","390.80000000074506","1","0","2","1","0.8,0.2,0.2,0.2,0.8,0.2,0.2,0.2,0.8","0.8,0.2,0.2,0.2,0.8,0.2,0.2,0.2,0.8","1","",""
"","html-keyboard-response","349","232059","0.0-349.0","3Q5C1WP23NNAGNOUR4EUKS4CPUC51E","AKNYT1NTK2UFK","3FVBZG9CLJ0K37PD5L6161S4HTM0HN","","null","<img src=""img/land5.png"" style=""width:200px;border:14px solid red;"">","null","","","","","","","","","",""
"","image-keyboard-response","350","233015","0.0-350.0","3Q5C1WP23NNAGNOUR4EUKS4CPUC51E","AKNYT1NTK2UFK","3FVBZG9CLJ0K37PD5L6161S4HTM0HN","","953.8999999985099","img/land6.png","75","955.6999999992549","2","0","3","1","0.8,0.2,0.2,0.2,0.8,0.2,0.2,0.2,0.8","0.8,0.2,0.2,0.2,0.8,0.2,0.2,0.2,0.8","1","",""
"","html-keyboard-response","351","233318","0.0-351.0","3Q5C1WP23NNAGNOUR4EUKS4CPUC51E","AKNYT1NTK2UFK","3FVBZG9CLJ0K37PD5L6161S4HTM0HN","","null","<img src=""img/land6.png"" style=""width:200px;border:14px solid red;"">","null","","","","","","","","","",""
"","image-keyboard-response","352","234452","0.0-352.0","3Q5C1WP23NNAGNOUR4EUKS4CPUC51E","AKNYT1NTK2UFK","3FVBZG9CLJ0K37PD5L6161S4HTM0HN","","1132.0999999977648","img/land5.png","76","1134.1000000014901","3","0","2","1","0.8,0.2,0.2,0.2,0.8,0.2,0.2,0.2,0.8","0.8,0.2,0.2,0.2,0.8,0.2,0.2,0.2,0.8","1","",""
"","html-keyboard-response","353","234755","0.0-353.0","3Q5C1WP23NNAGNOUR4EUKS4CPUC51E","AKNYT1NTK2UFK","3FVBZG9CLJ0K37PD5L6161S4HTM0HN","","null","<img src=""img/land5.png"" style=""width:200px;border:14px solid red;"">","null","","","","","","","","","",""
"","image-keyboard-response","354","235266","0.0-354.0","3Q5C1WP23NNAGNOUR4EUKS4CPUC51E","AKNYT1NTK2UFK","3FVBZG9CLJ0K37PD5L6161S4HTM0HN","","508.5","img/land6.png","75","510.5","2","0","3","1","0.8,0.2,0.2,0.2,0.8,0.2,0.2,0.2,0.8","0.8,0.2,0.2,0.2,0.8,0.2,0.2,0.2,0.8","1","",""
"","html-keyboard-response","355","235568","0.0-355.0","3Q5C1WP23NNAGNOUR4EUKS4CPUC51E","AKNYT1NTK2UFK","3FVBZG9CLJ0K37PD5L6161S4HTM0HN","","null","<img src=""img/land6.png"" style=""width:200px;border:14px solid red;"">","null","","","","","","","","","",""
"","image-keyboard-response","356","235984","0.0-356.0","3Q5C1WP23NNAGNOUR4EUKS4CPUC51E","AKNYT1NTK2UFK","3FVBZG9CLJ0K37PD5L6161S4HTM0HN","","413.5","img/land6.png","75","415.19999999925494","2","0","3","1","0.8,0.2,0.2,0.2,0.8,0.2,0.2,0.2,0.8","0.8,0.2,0.2,0.2,0.8,0.2,0.2,0.2,0.8","1","",""
