"success","trial_type","trial_index","time_elapsed","internal_node_id","assignmentID","mturkID","hitID","view_history","rt","stimulus","key_press","reactionTime","a","r","s","cond","reward_cond","reward_cond_actual","reward_matrix_idx","responses","question_order"
"true","fullscreen","0","3600","0.0-0.0","3STRJBFXOXDE7QL60A2ASN6PDKSTKN","AKOAKQ1J9B9ET","3CMIQF80GNCSUBAVQ09COGUWLHYQ60","","","","","","","","","","","","","",""
"","instructions","1","87021","0.0-1.0","3STRJBFXOXDE7QL60A2ASN6PDKSTKN","AKOAKQ1J9B9ET","3CMIQF80GNCSUBAVQ09COGUWLHYQ60","[{""page_index"":0,""viewing_time"":18672.29999999702},{""page_index"":1,""viewing_time"":983.6000000089407},{""page_index"":2,""viewing_time"":3946.7000000029802},{""page_index"":3,""viewing_time"":10141.29999999702},{""page_index"":4,""viewing_time"":19424},{""page_index"":5,""viewing_time"":23327.89999999106},{""page_index"":6,""viewing_time"":6919.9000000059605}]","83416.40000000596","","","","","","","","","","","",""
"","image-keyboard-response","2","88430","0.0-2.0","3STRJBFXOXDE7QL60A2ASN6PDKSTKN","AKOAKQ1J9B9ET","3CMIQF80GNCSUBAVQ09COGUWLHYQ60","","1408.0999999940395","img/land3.png","74","1409.4000000059605","1","1","3","1","1,0,0,0.25,0.5,0.25,0.25,0.25,0.5","1,0,0,0.25,0.5,0.25,0.25,0.25,0.5","1","",""
"","html-keyboard-response","3","88733","0.0-3.0","3STRJBFXOXDE7QL60A2ASN6PDKSTKN","AKOAKQ1J9B9ET","3CMIQF80GNCSUBAVQ09COGUWLHYQ60","","null","<img src=""img/land3.png"" style=""width:200px; border:14px solid green;"">","null","","","","","","","","","",""
"","image-keyboard-response","4","89589","0.0-4.0","3STRJBFXOXDE7QL60A2ASN6PDKSTKN","AKOAKQ1J9B9ET","3CMIQF80GNCSUBAVQ09COGUWLHYQ60","","854.3999999910593","img/land3.png","75","856.6000000089407","2","1","3","1","1,0,0,0.25,0.5,0.25,0.25,0.25,0.5","1,0,0,0.25,0.5,0.25,0.25,0.25,0.5","1","",""
"","html-keyboard-response","5","89893","0.0-5.0","3STRJBFXOXDE7QL60A2ASN6PDKSTKN","AKOAKQ1J9B9ET","3CMIQF80GNCSUBAVQ09COGUWLHYQ60","","null","<img src=""img/land3.png"" style=""width:200px; border:14px solid green;"">","null","","","","","","","","","",""
"","image-keyboard-response","6","91206","0.0-6.0","3STRJBFXOXDE7QL60A2ASN6PDKSTKN","AKOAKQ1J9B9ET","3CMIQF80GNCSUBAVQ09COGUWLHYQ60","","1311.2000000029802","img/land1.png","74","1312.300000011921","1","1","1","1","1,0,0,0.25,0.5,0.25,0.25,0.25,0.5","1,0,0,0.25,0.5,0.25,0.25,0.25,0.5","1","",""
"","html-keyboard-response","7","91507","0.0-7.0","3STRJBFXOXDE7QL60A2ASN6PDKSTKN","AKOAKQ1J9B9ET","3CMIQF80GNCSUBAVQ09COGUWLHYQ60","","null","<img src=""img/land1.png"" style=""width:200px; border:14px solid green;"">","null","","","","","","","","","",""
"","image-keyboard-response","8","92129","0.0-8.0","3STRJBFXOXDE7QL60A2ASN6PDKSTKN","AKOAKQ1J9B9ET","3CMIQF80GNCSUBAVQ09COGUWLHYQ60","","618.7999999970198","img/land1.png","74","621","1","1","1","1","1,0,0,0.25,0.5,0.25,0.25,0.25,0.5","1,0,0,0.25,0.5,0.25,0.25,0.25,0.5","1","",""
"","html-keyboard-response","9","92431","0.0-9.0","3STRJBFXOXDE7QL60A2ASN6PDKSTKN","AKOAKQ1J9B9ET","3CMIQF80GNCSUBAVQ09COGUWLHYQ60","","null","<img src=""img/land1.png"" style=""width:200px; border:14px solid green;"">","null","","","","","","","","","",""
"","image-keyboard-response","10","93560","0.0-10.0","3STRJBFXOXDE7QL60A2ASN6PDKSTKN","AKOAKQ1J9B9ET","3CMIQF80GNCSUBAVQ09COGUWLHYQ60","","1126.7999999970198","img/land2.png","74","1128.5999999940395","1","0","2","1","1,0,0,0.25,0.5,0.25,0.25,0.25,0.5","1,0,0,0.25,0.5,0.25,0.25,0.25,0.5","1","",""
"","html-keyboard-response","11","93863","0.0-11.0","3STRJBFXOXDE7QL60A2ASN6PDKSTKN","AKOAKQ1J9B9ET","3CMIQF80GNCSUBAVQ09COGUWLHYQ60","","null","<img src=""img/land2.png"" style=""width:200px;border:14px solid red;"">","null","","","","","","","","","",""
"","image-keyboard-response","12","95055","0.0-12.0","3STRJBFXOXDE7QL60A2ASN6PDKSTKN","AKOAKQ1J9B9ET","3CMIQF80GNCSUBAVQ09COGUWLHYQ60","","1189.2000000029802","img/land2.png","74","1190.9000000059605","1","0","2","1","1,0,0,0.25,0.5,0.25,0.25,0.25,0.5","1,0,0,0.25,0.5,0.25,0.25,0.25,0.5","1","",""
"","html-keyboard-response","13","95357","0.0-13.0","3STRJBFXOXDE7QL60A2ASN6PDKSTKN","AKOAKQ1J9B9ET","3CMIQF80GNCSUBAVQ09COGUWLHYQ60","","null","<img src=""img/land2.png"" style=""width:200px;border:14px solid red;"">","null","","","","","","","","","",""
"","image-keyboard-response","14","96013","0.0-14.0","3STRJBFXOXDE7QL60A2ASN6PDKSTKN","AKOAKQ1J9B9ET","3CMIQF80GNCSUBAVQ09COGUWLHYQ60","","654.0999999940395","img/land3.png","75","655.8999999910593","2","0","3","1","1,0,0,0.25,0.5,0.25,0.25,0.25,0.5","1,0,0,0.25,0.5,0.25,0.25,0.25,0.5","1","",""
"","html-keyboard-response","15","96315","0.0-15.0","3STRJBFXOXDE7QL60A2ASN6PDKSTKN","AKOAKQ1J9B9ET","3CMIQF80GNCSUBAVQ09COGUWLHYQ60","","null","<img src=""img/land3.png"" style=""width:200px;border:14px solid red;"">","null","","","","","","","","","",""
"","image-keyboard-response","16","96693","0.0-16.0","3STRJBFXOXDE7QL60A2ASN6PDKSTKN","AKOAKQ1J9B9ET","3CMIQF80GNCSUBAVQ09COGUWLHYQ60","","376.20000000298023","img/land1.png","74","377.70000000298023","1","1","1","1","1,0,0,0.25,0.5,0.25,0.25,0.25,0.5","1,0,0,0.25,0.5,0.25,0.25,0.25,0.5","1","",""
"","html-keyboard-response","17","96995","0.0-17.0","3STRJBFXOXDE7QL60A2ASN6PDKSTKN","AKOAKQ1J9B9ET","3CMIQF80GNCSUBAVQ09COGUWLHYQ60","","null","<img src=""img/land1.png"" style=""width:200px; border:14px solid green;"">","null","","","","","","","","","",""
"","image-keyboard-response","18","97340","0.0-18.0","3STRJBFXOXDE7QL60A2ASN6PDKSTKN","AKOAKQ1J9B9ET","3CMIQF80GNCSUBAVQ09COGUWLHYQ60","","342.20000000298023","img/land3.png","74","344.29999999701977","1","0","3","1","1,0,0,0.25,0.5,0.25,0.25,0.25,0.5","1,0,0,0.25,0.5,0.25,0.25,0.25,0.5","1","",""
"","html-keyboard-response","19","97642","0.0-19.0","3STRJBFXOXDE7QL60A2ASN6PDKSTKN","AKOAKQ1J9B9ET","3CMIQF80GNCSUBAVQ09COGUWLHYQ60","","null","<img src=""img/land3.png"" style=""width:200px;border:14px solid red;"">","null","","","","","","","","","",""
"","image-keyboard-response","20","98039","0.0-20.0","3STRJBFXOXDE7QL60A2ASN6PDKSTKN","AKOAKQ1J9B9ET","3CMIQF80GNCSUBAVQ09COGUWLHYQ60","","394.3999999910593","img/land1.png","74","396.59999999403954","1","1","1","1","1,0,0,0.25,0.5,0.25,0.25,0.25,0.5","1,0,0,0.25,0.5,0.25,0.25,0.25,0.5","1","",""
"","html-keyboard-response","21","98341","0.0-21.0","3STRJBFXOXDE7QL60A2ASN6PDKSTKN","AKOAKQ1J9B9ET","3CMIQF80GNCSUBAVQ09COGUWLHYQ60","","null","<img src=""img/land1.png"" style=""width:200px; border:14px solid green;"">","null","","","","","","","","","",""
"","image-keyboard-response","22","98721","0.0-22.0","3STRJBFXOXDE7QL60A2ASN6PDKSTKN","AKOAKQ1J9B9ET","3CMIQF80GNCSUBAVQ09COGUWLHYQ60","","377.59999999403954","img/land1.png","74","379.1000000089407","1","1","1","1","1,0,0,0.25,0.5,0.25,0.25,0.25,0.5","1,0,0,0.25,0.5,0.25,0.25,0.25,0.5","1","",""
"","html-keyboard-response","23","99023","0.0-23.0","3STRJBFXOXDE7QL60A2ASN6PDKSTKN","AKOAKQ1J9B9ET","3CMIQF80GNCSUBAVQ09COGUWLHYQ60","","null","<img src=""img/land1.png"" style=""width:200px; border:14px solid green;"">","null","","","","","","","","","",""
"","image-keyboard-response","24","99353","0.0-24.0","3STRJBFXOXDE7QL60A2ASN6PDKSTKN","AKOAKQ1J9B9ET","3CMIQF80GNCSUBAVQ09COGUWLHYQ60","","327.59999999403954","img/land2.png","74","329.19999998807907","1","0","2","1","1,0,0,0.25,0.5,0.25,0.25,0.25,0.5","1,0,0,0.25,0.5,0.25,0.25,0.25,0.5","1","",""
"","html-keyboard-response","25","99657","0.0-25.0","3STRJBFXOXDE7QL60A2ASN6PDKSTKN","AKOAKQ1J9B9ET","3CMIQF80GNCSUBAVQ09COGUWLHYQ60","","null","<img src=""img/land2.png"" style=""width:200px;border:14px solid red;"">","null","","","","","","","","","",""
"","image-keyboard-response","26","99687","0.0-26.0","3STRJBFXOXDE7QL60A2ASN6PDKSTKN","AKOAKQ1J9B9ET","3CMIQF80GNCSUBAVQ09COGUWLHYQ60","","28.900000005960464","img/land2.png","74","30.099999994039536","1","1","2","1","1,0,0,0.25,0.5,0.25,0.25,0.25,0.5","1,0,0,0.25,0.5,0.25,0.25,0.25,0.5","1","",""
"","html-keyboard-response","27","99989","0.0-27.0","3STRJBFXOXDE7QL60A2ASN6PDKSTKN","AKOAKQ1J9B9ET","3CMIQF80GNCSUBAVQ09COGUWLHYQ60","","null","<img src=""img/land2.png"" style=""width:200px; border:14px solid green;"">","null","","","","","","","","","",""
"","image-keyboard-response","28","100334","0.0-28.0","3STRJBFXOXDE7QL60A2ASN6PDKSTKN","AKOAKQ1J9B9ET","3CMIQF80GNCSUBAVQ09COGUWLHYQ60","","342.70000000298023","img/land2.png","74","344.40000000596046","1","0","2","1","1,0,0,0.25,0.5,0.25,0.25,0.25,0.5","1,0,0,0.25,0.5,0.25,0.25,0.25,0.5","1","",""
"","html-keyboard-response","29","100637","0.0-29.0","3STRJBFXOXDE7QL60A2ASN6PDKSTKN","AKOAKQ1J9B9ET","3CMIQF80GNCSUBAVQ09COGUWLHYQ60","","null","<img src=""img/land2.png"" style=""width:200px;border:14px solid red;"">","null","","","","","","","","","",""
"","image-keyboard-response","30","100856","0.0-30.0","3STRJBFXOXDE7QL60A2ASN6PDKSTKN","AKOAKQ1J9B9ET","3CMIQF80GNCSUBAVQ09COGUWLHYQ60","","216.3999999910593","img/land3.png","75","218","2","0","3","1","1,0,0,0.25,0.5,0.25,0.25,0.25,0.5","1,0,0,0.25,0.5,0.25,0.25,0.25,0.5","1","",""
"","html-keyboard-response","31","101158","0.0-31.0","3STRJBFXOXDE7QL60A2ASN6PDKSTKN","AKOAKQ1J9B9ET","3CMIQF80GNCSUBAVQ09COGUWLHYQ60","","null","<img src=""img/land3.png"" style=""width:200px;border:14px solid red;"">","null","","","","","","","","","",""
"","image-keyboard-response","32","101464","0.0-32.0","3STRJBFXOXDE7QL60A2ASN6PDKSTKN","AKOAKQ1J9B9ET","3CMIQF80GNCSUBAVQ09COGUWLHYQ60","","304.70000000298023","img/land2.png","74","306.29999999701977","1","0","2","1","1,0,0,0.25,0.5,0.25,0.25,0.25,0.5","1,0,0,0.25,0.5,0.25,0.25,0.25,0.5","1","",""
"","html-keyboard-response","33","101773","0.0-33.0","3STRJBFXOXDE7QL60A2ASN6PDKSTKN","AKOAKQ1J9B9ET","3CMIQF80GNCSUBAVQ09COGUWLHYQ60","","null","<img src=""img/land2.png"" style=""width:200px;border:14px solid red;"">","null","","","","","","","","","",""
"","image-keyboard-response","34","102287","0.0-34.0","3STRJBFXOXDE7QL60A2ASN6PDKSTKN","AKOAKQ1J9B9ET","3CMIQF80GNCSUBAVQ09COGUWLHYQ60","","511.8999999910593","img/land1.png","75","513.6999999880791","2","0","1","1","1,0,0,0.25,0.5,0.25,0.25,0.25,0.5","1,0,0,0.25,0.5,0.25,0.25,0.25,0.5","1","",""
"","html-keyboard-response","35","102590","0.0-35.0","3STRJBFXOXDE7QL60A2ASN6PDKSTKN","AKOAKQ1J9B9ET","3CMIQF80GNCSUBAVQ09COGUWLHYQ60","","null","<img src=""img/land1.png"" style=""width:200px;border:14px solid red;"">","null","","","","","","","","","",""
"","image-keyboard-response","36","102809","0.0-36.0","3STRJBFXOXDE7QL60A2ASN6PDKSTKN","AKOAKQ1J9B9ET","3CMIQF80GNCSUBAVQ09COGUWLHYQ60","","217.20000000298023","img/land3.png","74","218.5","1","0","3","1","1,0,0,0.25,0.5,0.25,0.25,0.25,0.5","1,0,0,0.25,0.5,0.25,0.25,0.25,0.5","1","",""
"","html-keyboard-response","37","103111","0.0-37.0","3STRJBFXOXDE7QL60A2ASN6PDKSTKN","AKOAKQ1J9B9ET","3CMIQF80GNCSUBAVQ09COGUWLHYQ60","","null","<img src=""img/land3.png"" style=""width:200px;border:14px solid red;"">","null","","","","","","","","","",""
"","image-keyboard-response","38","103961","0.0-38.0","3STRJBFXOXDE7QL60A2ASN6PDKSTKN","AKOAKQ1J9B9ET","3CMIQF80GNCSUBAVQ09COGUWLHYQ60","","848.4000000059605","img/land1.png","75","850","2","0","1","1","1,0,0,0.25,0.5,0.25,0.25,0.25,0.5","1,0,0,0.25,0.5,0.25,0.25,0.25,0.5","1","",""
"","html-keyboard-response","39","104264","0.0-39.0","3STRJBFXOXDE7QL60A2ASN6PDKSTKN","AKOAKQ1J9B9ET","3CMIQF80GNCSUBAVQ09COGUWLHYQ60","","null","<img src=""img/land1.png"" style=""width:200px;border:14px solid red;"">","null","","","","","","","","","",""
"","image-keyboard-response","40","104443","0.0-40.0","3STRJBFXOXDE7QL60A2ASN6PDKSTKN","AKOAKQ1J9B9ET","3CMIQF80GNCSUBAVQ09COGUWLHYQ60","","176.40000000596046","img/land3.png","74","178.20000000298023","1","0","3","1","1,0,0,0.25,0.5,0.25,0.25,0.25,0.5","1,0,0,0.25,0.5,0.25,0.25,0.25,0.5","1","",""
"","html-keyboard-response","41","104745","0.0-41.0","3STRJBFXOXDE7QL60A2ASN6PDKSTKN","AKOAKQ1J9B9ET","3CMIQF80GNCSUBAVQ09COGUWLHYQ60","","null","<img src=""img/land3.png"" style=""width:200px;border:14px solid red;"">","null","","","","","","","","","",""
"","image-keyboard-response","42","105056","0.0-42.0","3STRJBFXOXDE7QL60A2ASN6PDKSTKN","AKOAKQ1J9B9ET","3CMIQF80GNCSUBAVQ09COGUWLHYQ60","","309.70000000298023","img/land1.png","74","311.5","1","1","1","1","1,0,0,0.25,0.5,0.25,0.25,0.25,0.5","1,0,0,0.25,0.5,0.25,0.25,0.25,0.5","1","",""
"","html-keyboard-response","43","105359","0.0-43.0","3STRJBFXOXDE7QL60A2ASN6PDKSTKN","AKOAKQ1J9B9ET","3CMIQF80GNCSUBAVQ09COGUWLHYQ60","","null","<img src=""img/land1.png"" style=""width:200px; border:14px solid green;"">","null","","","","","","","","","",""
"","image-keyboard-response","44","105601","0.0-44.0","3STRJBFXOXDE7QL60A2ASN6PDKSTKN","AKOAKQ1J9B9ET","3CMIQF80GNCSUBAVQ09COGUWLHYQ60","","239.70000000298023","img/land2.png","74","241","1","0","2","1","1,0,0,0.25,0.5,0.25,0.25,0.25,0.5","1,0,0,0.25,0.5,0.25,0.25,0.25,0.5","1","",""
"","html-keyboard-response","45","105903","0.0-45.0","3STRJBFXOXDE7QL60A2ASN6PDKSTKN","AKOAKQ1J9B9ET","3CMIQF80GNCSUBAVQ09COGUWLHYQ60","","null","<img src=""img/land2.png"" style=""width:200px;border:14px solid red;"">","null","","","","","","","","","",""
"","image-keyboard-response","46","106761","0.0-46.0","3STRJBFXOXDE7QL60A2ASN6PDKSTKN","AKOAKQ1J9B9ET","3CMIQF80GNCSUBAVQ09COGUWLHYQ60","","856.2000000029802","img/land1.png","74","857.7000000029802","1","1","1","1","1,0,0,0.25,0.5,0.25,0.25,0.25,0.5","1,0,0,0.25,0.5,0.25,0.25,0.25,0.5","1","",""
"","html-keyboard-response","47","107062","0.0-47.0","3STRJBFXOXDE7QL60A2ASN6PDKSTKN","AKOAKQ1J9B9ET","3CMIQF80GNCSUBAVQ09COGUWLHYQ60","","null","<img src=""img/land1.png"" style=""width:200px; border:14px solid green;"">","null","","","","","","","","","",""
"","image-keyboard-response","48","107507","0.0-48.0","3STRJBFXOXDE7QL60A2ASN6PDKSTKN","AKOAKQ1J9B9ET","3CMIQF80GNCSUBAVQ09COGUWLHYQ60","","443.40000000596046","img/land2.png","75","444.5","2","0","2","1","1,0,0,0.25,0.5,0.25,0.25,0.25,0.5","1,0,0,0.25,0.5,0.25,0.25,0.25,0.5","1","",""
"","html-keyboard-response","49","107811","0.0-49.0","3STRJBFXOXDE7QL60A2ASN6PDKSTKN","AKOAKQ1J9B9ET","3CMIQF80GNCSUBAVQ09COGUWLHYQ60","","null","<img src=""img/land2.png"" style=""width:200px;border:14px solid red;"">","null","","","","","","","","","",""
"","image-keyboard-response","50","108149","0.0-50.0","3STRJBFXOXDE7QL60A2ASN6PDKSTKN","AKOAKQ1J9B9ET","3CMIQF80GNCSUBAVQ09COGUWLHYQ60","","336.1000000089407","img/land2.png","74","337.79999999701977","1","0","2","1","1,0,0,0.25,0.5,0.25,0.25,0.25,0.5","1,0,0,0.25,0.5,0.25,0.25,0.25,0.5","1","",""
"","html-keyboard-response","51","108451","0.0-51.0","3STRJBFXOXDE7QL60A2ASN6PDKSTKN","AKOAKQ1J9B9ET","3CMIQF80GNCSUBAVQ09COGUWLHYQ60","","null","<img src=""img/land2.png"" style=""width:200px;border:14px solid red;"">","null","","","","","","","","","",""
"","image-keyboard-response","52","108775","0.0-52.0","3STRJBFXOXDE7QL60A2ASN6PDKSTKN","AKOAKQ1J9B9ET","3CMIQF80GNCSUBAVQ09COGUWLHYQ60","","321.30000001192093","img/land1.png","74","323.40000000596046","1","1","1","1","1,0,0,0.25,0.5,0.25,0.25,0.25,0.5","1,0,0,0.25,0.5,0.25,0.25,0.25,0.5","1","",""
"","html-keyboard-response","53","109078","0.0-53.0","3STRJBFXOXDE7QL60A2ASN6PDKSTKN","AKOAKQ1J9B9ET","3CMIQF80GNCSUBAVQ09COGUWLHYQ60","","null","<img src=""img/land1.png"" style=""width:200px; border:14px solid green;"">","null","","","","","","","","","",""
"","image-keyboard-response","54","109437","0.0-54.0","3STRJBFXOXDE7QL60A2ASN6PDKSTKN","AKOAKQ1J9B9ET","3CMIQF80GNCSUBAVQ09COGUWLHYQ60","","357.20000000298023","img/land2.png","74","359","1","0","2","1","1,0,0,0.25,0.5,0.25,0.25,0.25,0.5","1,0,0,0.25,0.5,0.25,0.25,0.25,0.5","1","",""
"","html-keyboard-response","55","109740","0.0-55.0","3STRJBFXOXDE7QL60A2ASN6PDKSTKN","AKOAKQ1J9B9ET","3CMIQF80GNCSUBAVQ09COGUWLHYQ60","","null","<img src=""img/land2.png"" style=""width:200px;border:14px solid red;"">","null","","","","","","","","","",""
"","image-keyboard-response","56","110102","0.0-56.0","3STRJBFXOXDE7QL60A2ASN6PDKSTKN","AKOAKQ1J9B9ET","3CMIQF80GNCSUBAVQ09COGUWLHYQ60","","360.29999999701977","img/land1.png","74","361.70000000298023","1","1","1","1","1,0,0,0.25,0.5,0.25,0.25,0.25,0.5","1,0,0,0.25,0.5,0.25,0.25,0.25,0.5","1","",""
"","html-keyboard-response","57","110404","0.0-57.0","3STRJBFXOXDE7QL60A2ASN6PDKSTKN","AKOAKQ1J9B9ET","3CMIQF80GNCSUBAVQ09COGUWLHYQ60","","null","<img src=""img/land1.png"" style=""width:200px; border:14px solid green;"">","null","","","","","","","","","",""
"","image-keyboard-response","58","110707","0.0-58.0","3STRJBFXOXDE7QL60A2ASN6PDKSTKN","AKOAKQ1J9B9ET","3CMIQF80GNCSUBAVQ09COGUWLHYQ60","","300.6000000089407","img/land1.png","74","301.8999999910593","1","1","1","1","1,0,0,0.25,0.5,0.25,0.25,0.25,0.5","1,0,0,0.25,0.5,0.25,0.25,0.25,0.5","1","",""
"","html-keyboard-response","59","111010","0.0-59.0","3STRJBFXOXDE7QL60A2ASN6PDKSTKN","AKOAKQ1J9B9ET","3CMIQF80GNCSUBAVQ09COGUWLHYQ60","","null","<img src=""img/land1.png"" style=""width:200px; border:14px solid green;"">","null","","","","","","","","","",""
"","image-keyboard-response","60","111292","0.0-60.0","3STRJBFXOXDE7QL60A2ASN6PDKSTKN","AKOAKQ1J9B9ET","3CMIQF80GNCSUBAVQ09COGUWLHYQ60","","280.19999998807907","img/land3.png","74","281.90000000596046","1","0","3","1","1,0,0,0.25,0.5,0.25,0.25,0.25,0.5","1,0,0,0.25,0.5,0.25,0.25,0.25,0.5","1","",""
"","html-keyboard-response","61","111595","0.0-61.0","3STRJBFXOXDE7QL60A2ASN6PDKSTKN","AKOAKQ1J9B9ET","3CMIQF80GNCSUBAVQ09COGUWLHYQ60","","null","<img src=""img/land3.png"" style=""width:200px;border:14px solid red;"">","null","","","","","","","","","",""
"","image-keyboard-response","62","111977","0.0-62.0","3STRJBFXOXDE7QL60A2ASN6PDKSTKN","AKOAKQ1J9B9ET","3CMIQF80GNCSUBAVQ09COGUWLHYQ60","","378.70000000298023","img/land1.png","75","380.8999999910593","2","0","1","1","1,0,0,0.25,0.5,0.25,0.25,0.25,0.5","1,0,0,0.25,0.5,0.25,0.25,0.25,0.5","1","",""
"","html-keyboard-response","63","112280","0.0-63.0","3STRJBFXOXDE7QL60A2ASN6PDKSTKN","AKOAKQ1J9B9ET","3CMIQF80GNCSUBAVQ09COGUWLHYQ60","","null","<img src=""img/land1.png"" style=""width:200px;border:14px solid red;"">","null","","","","","","","","","",""
"","image-keyboard-response","64","112446","0.0-64.0","3STRJBFXOXDE7QL60A2ASN6PDKSTKN","AKOAKQ1J9B9ET","3CMIQF80GNCSUBAVQ09COGUWLHYQ60","","164.20000000298023","img/land2.png","75","165.40000000596046","2","1","2","1","1,0,0,0.25,0.5,0.25,0.25,0.25,0.5","1,0,0,0.25,0.5,0.25,0.25,0.25,0.5","1","",""
"","html-keyboard-response","65","112747","0.0-65.0","3STRJBFXOXDE7QL60A2ASN6PDKSTKN","AKOAKQ1J9B9ET","3CMIQF80GNCSUBAVQ09COGUWLHYQ60","","null","<img src=""img/land2.png"" style=""width:200px; border:14px solid green;"">","null","","","","","","","","","",""
"","image-keyboard-response","66","113127","0.0-66.0","3STRJBFXOXDE7QL60A2ASN6PDKSTKN","AKOAKQ1J9B9ET","3CMIQF80GNCSUBAVQ09COGUWLHYQ60","","377.69999998807907","img/land3.png","75","379.20000000298023","2","1","3","1","1,0,0,0.25,0.5,0.25,0.25,0.25,0.5","1,0,0,0.25,0.5,0.25,0.25,0.25,0.5","1","",""
"","html-keyboard-response","67","113430","0.0-67.0","3STRJBFXOXDE7QL60A2ASN6PDKSTKN","AKOAKQ1J9B9ET","3CMIQF80GNCSUBAVQ09COGUWLHYQ60","","null","<img src=""img/land3.png"" style=""width:200px; border:14px solid green;"">","null","","","","","","","","","",""
"","image-keyboard-response","68","113649","0.0-68.0","3STRJBFXOXDE7QL60A2ASN6PDKSTKN","AKOAKQ1J9B9ET","3CMIQF80GNCSUBAVQ09COGUWLHYQ60","","218","img/land3.png","74","219.19999998807907","1","0","3","1","1,0,0,0.25,0.5,0.25,0.25,0.25,0.5","1,0,0,0.25,0.5,0.25,0.25,0.25,0.5","1","",""
"","html-keyboard-response","69","113952","0.0-69.0","3STRJBFXOXDE7QL60A2ASN6PDKSTKN","AKOAKQ1J9B9ET","3CMIQF80GNCSUBAVQ09COGUWLHYQ60","","null","<img src=""img/land3.png"" style=""width:200px;border:14px solid red;"">","null","","","","","","","","","",""
"","image-keyboard-response","70","114286","0.0-70.0","3STRJBFXOXDE7QL60A2ASN6PDKSTKN","AKOAKQ1J9B9ET","3CMIQF80GNCSUBAVQ09COGUWLHYQ60","","333.40000000596046","img/land1.png","74","334.40000000596046","1","1","1","1","1,0,0,0.25,0.5,0.25,0.25,0.25,0.5","1,0,0,0.25,0.5,0.25,0.25,0.25,0.5","1","",""
"","html-keyboard-response","71","114589","0.0-71.0","3STRJBFXOXDE7QL60A2ASN6PDKSTKN","AKOAKQ1J9B9ET","3CMIQF80GNCSUBAVQ09COGUWLHYQ60","","null","<img src=""img/land1.png"" style=""width:200px; border:14px solid green;"">","null","","","","","","","","","",""
"","image-keyboard-response","72","114873","0.0-72.0","3STRJBFXOXDE7QL60A2ASN6PDKSTKN","AKOAKQ1J9B9ET","3CMIQF80GNCSUBAVQ09COGUWLHYQ60","","283","img/land2.png","74","284.29999999701977","1","0","2","1","1,0,0,0.25,0.5,0.25,0.25,0.25,0.5","1,0,0,0.25,0.5,0.25,0.25,0.25,0.5","1","",""
"","html-keyboard-response","73","115176","0.0-73.0","3STRJBFXOXDE7QL60A2ASN6PDKSTKN","AKOAKQ1J9B9ET","3CMIQF80GNCSUBAVQ09COGUWLHYQ60","","null","<img src=""img/land2.png"" style=""width:200px;border:14px solid red;"">","null","","","","","","","","","",""
"","image-keyboard-response","74","115338","0.0-74.0","3STRJBFXOXDE7QL60A2ASN6PDKSTKN","AKOAKQ1J9B9ET","3CMIQF80GNCSUBAVQ09COGUWLHYQ60","","160","img/land1.png","74","161.79999999701977","1","1","1","1","1,0,0,0.25,0.5,0.25,0.25,0.25,0.5","1,0,0,0.25,0.5,0.25,0.25,0.25,0.5","1","",""
"","html-keyboard-response","75","115640","0.0-75.0","3STRJBFXOXDE7QL60A2ASN6PDKSTKN","AKOAKQ1J9B9ET","3CMIQF80GNCSUBAVQ09COGUWLHYQ60","","null","<img src=""img/land1.png"" style=""width:200px; border:14px solid green;"">","null","","","","","","","","","",""
"","image-keyboard-response","76","115888","0.0-76.0","3STRJBFXOXDE7QL60A2ASN6PDKSTKN","AKOAKQ1J9B9ET","3CMIQF80GNCSUBAVQ09COGUWLHYQ60","","245.29999999701977","img/land1.png","74","247.1000000089407","1","1","1","1","1,0,0,0.25,0.5,0.25,0.25,0.25,0.5","1,0,0,0.25,0.5,0.25,0.25,0.25,0.5","1","",""
"","html-keyboard-response","77","116190","0.0-77.0","3STRJBFXOXDE7QL60A2ASN6PDKSTKN","AKOAKQ1J9B9ET","3CMIQF80GNCSUBAVQ09COGUWLHYQ60","","null","<img src=""img/land1.png"" style=""width:200px; border:14px solid green;"">","null","","","","","","","","","",""
"","image-keyboard-response","78","116288","0.0-78.0","3STRJBFXOXDE7QL60A2ASN6PDKSTKN","AKOAKQ1J9B9ET","3CMIQF80GNCSUBAVQ09COGUWLHYQ60","","96.90000000596046","img/land1.png","74","98","1","1","1","1","1,0,0,0.25,0.5,0.25,0.25,0.25,0.5","1,0,0,0.25,0.5,0.25,0.25,0.25,0.5","1","",""
"","html-keyboard-response","79","116591","0.0-79.0","3STRJBFXOXDE7QL60A2ASN6PDKSTKN","AKOAKQ1J9B9ET","3CMIQF80GNCSUBAVQ09COGUWLHYQ60","","null","<img src=""img/land1.png"" style=""width:200px; border:14px solid green;"">","null","","","","","","","","","",""
"","image-keyboard-response","80","116779","0.0-80.0","3STRJBFXOXDE7QL60A2ASN6PDKSTKN","AKOAKQ1J9B9ET","3CMIQF80GNCSUBAVQ09COGUWLHYQ60","","186.3999999910593","img/land2.png","75","188","2","0","2","1","1,0,0,0.25,0.5,0.25,0.25,0.25,0.5","1,0,0,0.25,0.5,0.25,0.25,0.25,0.5","1","",""
"","html-keyboard-response","81","117082","0.0-81.0","3STRJBFXOXDE7QL60A2ASN6PDKSTKN","AKOAKQ1J9B9ET","3CMIQF80GNCSUBAVQ09COGUWLHYQ60","","null","<img src=""img/land2.png"" style=""width:200px;border:14px solid red;"">","null","","","","","","","","","",""
"","image-keyboard-response","82","117259","0.0-82.0","3STRJBFXOXDE7QL60A2ASN6PDKSTKN","AKOAKQ1J9B9ET","3CMIQF80GNCSUBAVQ09COGUWLHYQ60","","174.20000000298023","img/land3.png","74","176.70000000298023","1","0","3","1","1,0,0,0.25,0.5,0.25,0.25,0.25,0.5","1,0,0,0.25,0.5,0.25,0.25,0.25,0.5","1","",""
"","html-keyboard-response","83","117562","0.0-83.0","3STRJBFXOXDE7QL60A2ASN6PDKSTKN","AKOAKQ1J9B9ET","3CMIQF80GNCSUBAVQ09COGUWLHYQ60","","null","<img src=""img/land3.png"" style=""width:200px;border:14px solid red;"">","null","","","","","","","","","",""
"","image-keyboard-response","84","117757","0.0-84.0","3STRJBFXOXDE7QL60A2ASN6PDKSTKN","AKOAKQ1J9B9ET","3CMIQF80GNCSUBAVQ09COGUWLHYQ60","","193.79999999701977","img/land3.png","74","195.30000001192093","1","0","3","1","1,0,0,0.25,0.5,0.25,0.25,0.25,0.5","1,0,0,0.25,0.5,0.25,0.25,0.25,0.5","1","",""
"","html-keyboard-response","85","118060","0.0-85.0","3STRJBFXOXDE7QL60A2ASN6PDKSTKN","AKOAKQ1J9B9ET","3CMIQF80GNCSUBAVQ09COGUWLHYQ60","","null","<img src=""img/land3.png"" style=""width:200px;border:14px solid red;"">","null","","","","","","","","","",""
"","image-keyboard-response","86","118237","0.0-86.0","3STRJBFXOXDE7QL60A2ASN6PDKSTKN","AKOAKQ1J9B9ET","3CMIQF80GNCSUBAVQ09COGUWLHYQ60","","176.20000000298023","img/land3.png","74","177.40000000596046","1","0","3","1","1,0,0,0.25,0.5,0.25,0.25,0.25,0.5","1,0,0,0.25,0.5,0.25,0.25,0.25,0.5","1","",""
"","html-keyboard-response","87","118540","0.0-87.0","3STRJBFXOXDE7QL60A2ASN6PDKSTKN","AKOAKQ1J9B9ET","3CMIQF80GNCSUBAVQ09COGUWLHYQ60","","null","<img src=""img/land3.png"" style=""width:200px;border:14px solid red;"">","null","","","","","","","","","",""
"","image-keyboard-response","88","118643","0.0-88.0","3STRJBFXOXDE7QL60A2ASN6PDKSTKN","AKOAKQ1J9B9ET","3CMIQF80GNCSUBAVQ09COGUWLHYQ60","","100.80000001192093","img/land2.png","74","102.3999999910593","1","0","2","1","1,0,0,0.25,0.5,0.25,0.25,0.25,0.5","1,0,0,0.25,0.5,0.25,0.25,0.25,0.5","1","",""
"","html-keyboard-response","89","118946","0.0-89.0","3STRJBFXOXDE7QL60A2ASN6PDKSTKN","AKOAKQ1J9B9ET","3CMIQF80GNCSUBAVQ09COGUWLHYQ60","","null","<img src=""img/land2.png"" style=""width:200px;border:14px solid red;"">","null","","","","","","","","","",""
"","image-keyboard-response","90","119244","0.0-90.0","3STRJBFXOXDE7QL60A2ASN6PDKSTKN","AKOAKQ1J9B9ET","3CMIQF80GNCSUBAVQ09COGUWLHYQ60","","296.70000000298023","img/land2.png","74","297.59999999403954","1","0","2","1","1,0,0,0.25,0.5,0.25,0.25,0.25,0.5","1,0,0,0.25,0.5,0.25,0.25,0.25,0.5","1","",""
"","html-keyboard-response","91","119547","0.0-91.0","3STRJBFXOXDE7QL60A2ASN6PDKSTKN","AKOAKQ1J9B9ET","3CMIQF80GNCSUBAVQ09COGUWLHYQ60","","null","<img src=""img/land2.png"" style=""width:200px;border:14px solid red;"">","null","","","","","","","","","",""
"","image-keyboard-response","92","119832","0.0-92.0","3STRJBFXOXDE7QL60A2ASN6PDKSTKN","AKOAKQ1J9B9ET","3CMIQF80GNCSUBAVQ09COGUWLHYQ60","","282.90000000596046","img/land1.png","74","284.5","1","1","1","1","1,0,0,0.25,0.5,0.25,0.25,0.25,0.5","1,0,0,0.25,0.5,0.25,0.25,0.25,0.5","1","",""
"","html-keyboard-response","93","120135","0.0-93.0","3STRJBFXOXDE7QL60A2ASN6PDKSTKN","AKOAKQ1J9B9ET","3CMIQF80GNCSUBAVQ09COGUWLHYQ60","","null","<img src=""img/land1.png"" style=""width:200px; border:14px solid green;"">","null","","","","","","","","","",""
"","image-keyboard-response","94","120451","0.0-94.0","3STRJBFXOXDE7QL60A2ASN6PDKSTKN","AKOAKQ1J9B9ET","3CMIQF80GNCSUBAVQ09COGUWLHYQ60","","314.29999999701977","img/land3.png","75","315.70000000298023","2","0","3","1","1,0,0,0.25,0.5,0.25,0.25,0.25,0.5","1,0,0,0.25,0.5,0.25,0.25,0.25,0.5","1","",""
"","html-keyboard-response","95","120753","0.0-95.0","3STRJBFXOXDE7QL60A2ASN6PDKSTKN","AKOAKQ1J9B9ET","3CMIQF80GNCSUBAVQ09COGUWLHYQ60","","null","<img src=""img/land3.png"" style=""width:200px;border:14px solid red;"">","null","","","","","","","","","",""
"","image-keyboard-response","96","121110","0.0-96.0","3STRJBFXOXDE7QL60A2ASN6PDKSTKN","AKOAKQ1J9B9ET","3CMIQF80GNCSUBAVQ09COGUWLHYQ60","","354.5","img/land2.png","74","356","1","0","2","1","1,0,0,0.25,0.5,0.25,0.25,0.25,0.5","1,0,0,0.25,0.5,0.25,0.25,0.25,0.5","1","",""
"","html-keyboard-response","97","121412","0.0-97.0","3STRJBFXOXDE7QL60A2ASN6PDKSTKN","AKOAKQ1J9B9ET","3CMIQF80GNCSUBAVQ09COGUWLHYQ60","","null","<img src=""img/land2.png"" style=""width:200px;border:14px solid red;"">","null","","","","","","","","","",""
"","image-keyboard-response","98","121531","0.0-98.0","3STRJBFXOXDE7QL60A2ASN6PDKSTKN","AKOAKQ1J9B9ET","3CMIQF80GNCSUBAVQ09COGUWLHYQ60","","117.59999999403954","img/land3.png","74","119.40000000596046","1","0","3","1","1,0,0,0.25,0.5,0.25,0.25,0.25,0.5","1,0,0,0.25,0.5,0.25,0.25,0.25,0.5","1","",""
"","html-keyboard-response","99","121834","0.0-99.0","3STRJBFXOXDE7QL60A2ASN6PDKSTKN","AKOAKQ1J9B9ET","3CMIQF80GNCSUBAVQ09COGUWLHYQ60","","null","<img src=""img/land3.png"" style=""width:200px;border:14px solid red;"">","null","","","","","","","","","",""
"","image-keyboard-response","100","122023","0.0-100.0","3STRJBFXOXDE7QL60A2ASN6PDKSTKN","AKOAKQ1J9B9ET","3CMIQF80GNCSUBAVQ09COGUWLHYQ60","","186.70000000298023","img/land3.png","74","188.59999999403954","1","0","3","1","1,0,0,0.25,0.5,0.25,0.25,0.25,0.5","1,0,0,0.25,0.5,0.25,0.25,0.25,0.5","1","",""
"","html-keyboard-response","101","122327","0.0-101.0","3STRJBFXOXDE7QL60A2ASN6PDKSTKN","AKOAKQ1J9B9ET","3CMIQF80GNCSUBAVQ09COGUWLHYQ60","","null","<img src=""img/land3.png"" style=""width:200px;border:14px solid red;"">","null","","","","","","","","","",""
"","image-keyboard-response","102","122602","0.0-102.0","3STRJBFXOXDE7QL60A2ASN6PDKSTKN","AKOAKQ1J9B9ET","3CMIQF80GNCSUBAVQ09COGUWLHYQ60","","273.1000000089407","img/land2.png","75","274.79999999701977","2","0","2","1","1,0,0,0.25,0.5,0.25,0.25,0.25,0.5","1,0,0,0.25,0.5,0.25,0.25,0.25,0.5","1","",""
"","html-keyboard-response","103","122909","0.0-103.0","3STRJBFXOXDE7QL60A2ASN6PDKSTKN","AKOAKQ1J9B9ET","3CMIQF80GNCSUBAVQ09COGUWLHYQ60","","null","<img src=""img/land2.png"" style=""width:200px;border:14px solid red;"">","null","","","","","","","","","",""
"","image-keyboard-response","104","123347","0.0-104.0","3STRJBFXOXDE7QL60A2ASN6PDKSTKN","AKOAKQ1J9B9ET","3CMIQF80GNCSUBAVQ09COGUWLHYQ60","","436.59999999403954","img/land1.png","74","438.09999999403954","1","1","1","1","1,0,0,0.25,0.5,0.25,0.25,0.25,0.5","1,0,0,0.25,0.5,0.25,0.25,0.25,0.5","1","",""
"","html-keyboard-response","105","123650","0.0-105.0","3STRJBFXOXDE7QL60A2ASN6PDKSTKN","AKOAKQ1J9B9ET","3CMIQF80GNCSUBAVQ09COGUWLHYQ60","","null","<img src=""img/land1.png"" style=""width:200px; border:14px solid green;"">","null","","","","","","","","","",""
"","image-keyboard-response","106","123815","0.0-106.0","3STRJBFXOXDE7QL60A2ASN6PDKSTKN","AKOAKQ1J9B9ET","3CMIQF80GNCSUBAVQ09COGUWLHYQ60","","162.5","img/land3.png","75","164.20000000298023","2","0","3","1","1,0,0,0.25,0.5,0.25,0.25,0.25,0.5","1,0,0,0.25,0.5,0.25,0.25,0.25,0.5","1","",""
"","html-keyboard-response","107","124117","0.0-107.0","3STRJBFXOXDE7QL60A2ASN6PDKSTKN","AKOAKQ1J9B9ET","3CMIQF80GNCSUBAVQ09COGUWLHYQ60","","null","<img src=""img/land3.png"" style=""width:200px;border:14px solid red;"">","null","","","","","","","","","",""
"","image-keyboard-response","108","124221","0.0-108.0","3STRJBFXOXDE7QL60A2ASN6PDKSTKN","AKOAKQ1J9B9ET","3CMIQF80GNCSUBAVQ09COGUWLHYQ60","","103.29999999701977","img/land1.png","74","104","1","1","1","1","1,0,0,0.25,0.5,0.25,0.25,0.25,0.5","1,0,0,0.25,0.5,0.25,0.25,0.25,0.5","1","",""
"","html-keyboard-response","109","124524","0.0-109.0","3STRJBFXOXDE7QL60A2ASN6PDKSTKN","AKOAKQ1J9B9ET","3CMIQF80GNCSUBAVQ09COGUWLHYQ60","","null","<img src=""img/land1.png"" style=""width:200px; border:14px solid green;"">","null","","","","","","","","","",""
"","image-keyboard-response","110","124528","0.0-110.0","3STRJBFXOXDE7QL60A2ASN6PDKSTKN","AKOAKQ1J9B9ET","3CMIQF80GNCSUBAVQ09COGUWLHYQ60","","2.5999999940395355","img/land1.png","74","4","1","1","1","1","1,0,0,0.25,0.5,0.25,0.25,0.25,0.5","1,0,0,0.25,0.5,0.25,0.25,0.25,0.5","1","",""
"","html-keyboard-response","111","124832","0.0-111.0","3STRJBFXOXDE7QL60A2ASN6PDKSTKN","AKOAKQ1J9B9ET","3CMIQF80GNCSUBAVQ09COGUWLHYQ60","","null","<img src=""img/land1.png"" style=""width:200px; border:14px solid green;"">","null","","","","","","","","","",""
"","image-keyboard-response","112","125007","0.0-112.0","3STRJBFXOXDE7QL60A2ASN6PDKSTKN","AKOAKQ1J9B9ET","3CMIQF80GNCSUBAVQ09COGUWLHYQ60","","173.79999999701977","img/land2.png","75","175.1000000089407","2","0","2","1","1,0,0,0.25,0.5,0.25,0.25,0.25,0.5","1,0,0,0.25,0.5,0.25,0.25,0.25,0.5","1","",""
"","html-keyboard-response","113","125310","0.0-113.0","3STRJBFXOXDE7QL60A2ASN6PDKSTKN","AKOAKQ1J9B9ET","3CMIQF80GNCSUBAVQ09COGUWLHYQ60","","null","<img src=""img/land2.png"" style=""width:200px;border:14px solid red;"">","null","","","","","","","","","",""
"","image-keyboard-response","114","125385","0.0-114.0","3STRJBFXOXDE7QL60A2ASN6PDKSTKN","AKOAKQ1J9B9ET","3CMIQF80GNCSUBAVQ09COGUWLHYQ60","","72.8999999910593","img/land2.png","75","74.40000000596046","2","0","2","1","1,0,0,0.25,0.5,0.25,0.25,0.25,0.5","1,0,0,0.25,0.5,0.25,0.25,0.25,0.5","1","",""
"","html-keyboard-response","115","125688","0.0-115.0","3STRJBFXOXDE7QL60A2ASN6PDKSTKN","AKOAKQ1J9B9ET","3CMIQF80GNCSUBAVQ09COGUWLHYQ60","","null","<img src=""img/land2.png"" style=""width:200px;border:14px solid red;"">","null","","","","","","","","","",""
"","image-keyboard-response","116","125693","0.0-116.0","3STRJBFXOXDE7QL60A2ASN6PDKSTKN","AKOAKQ1J9B9ET","3CMIQF80GNCSUBAVQ09COGUWLHYQ60","","1.9000000059604645","img/land2.png","74","5.200000002980232","1","1","2","1","1,0,0,0.25,0.5,0.25,0.25,0.25,0.5","1,0,0,0.25,0.5,0.25,0.25,0.25,0.5","1","",""
"","html-keyboard-response","117","125996","0.0-117.0","3STRJBFXOXDE7QL60A2ASN6PDKSTKN","AKOAKQ1J9B9ET","3CMIQF80GNCSUBAVQ09COGUWLHYQ60","","null","<img src=""img/land2.png"" style=""width:200px; border:14px solid green;"">","null","","","","","","","","","",""
"","image-keyboard-response","118","126121","0.0-118.0","3STRJBFXOXDE7QL60A2ASN6PDKSTKN","AKOAKQ1J9B9ET","3CMIQF80GNCSUBAVQ09COGUWLHYQ60","","123.5","img/land1.png","74","125.20000000298023","1","1","1","1","1,0,0,0.25,0.5,0.25,0.25,0.25,0.5","1,0,0,0.25,0.5,0.25,0.25,0.25,0.5","1","",""
"","html-keyboard-response","119","126424","0.0-119.0","3STRJBFXOXDE7QL60A2ASN6PDKSTKN","AKOAKQ1J9B9ET","3CMIQF80GNCSUBAVQ09COGUWLHYQ60","","null","<img src=""img/land1.png"" style=""width:200px; border:14px solid green;"">","null","","","","","","","","","",""
"","image-keyboard-response","120","126540","0.0-120.0","3STRJBFXOXDE7QL60A2ASN6PDKSTKN","AKOAKQ1J9B9ET","3CMIQF80GNCSUBAVQ09COGUWLHYQ60","","113.5","img/land2.png","74","115.20000000298023","1","0","2","1","1,0,0,0.25,0.5,0.25,0.25,0.25,0.5","1,0,0,0.25,0.5,0.25,0.25,0.25,0.5","1","",""
"","html-keyboard-response","121","126843","0.0-121.0","3STRJBFXOXDE7QL60A2ASN6PDKSTKN","AKOAKQ1J9B9ET","3CMIQF80GNCSUBAVQ09COGUWLHYQ60","","null","<img src=""img/land2.png"" style=""width:200px;border:14px solid red;"">","null","","","","","","","","","",""
"","image-keyboard-response","122","126894","0.0-122.0","3STRJBFXOXDE7QL60A2ASN6PDKSTKN","AKOAKQ1J9B9ET","3CMIQF80GNCSUBAVQ09COGUWLHYQ60","","49.29999999701977","img/land1.png","74","50.900000005960464","1","1","1","1","1,0,0,0.25,0.5,0.25,0.25,0.25,0.5","1,0,0,0.25,0.5,0.25,0.25,0.25,0.5","1","",""
"","html-keyboard-response","123","127196","0.0-123.0","3STRJBFXOXDE7QL60A2ASN6PDKSTKN","AKOAKQ1J9B9ET","3CMIQF80GNCSUBAVQ09COGUWLHYQ60","","null","<img src=""img/land1.png"" style=""width:200px; border:14px solid green;"">","null","","","","","","","","","",""
"","image-keyboard-response","124","127327","0.0-124.0","3STRJBFXOXDE7QL60A2ASN6PDKSTKN","AKOAKQ1J9B9ET","3CMIQF80GNCSUBAVQ09COGUWLHYQ60","","128.09999999403954","img/land1.png","74","130","1","1","1","1","1,0,0,0.25,0.5,0.25,0.25,0.25,0.5","1,0,0,0.25,0.5,0.25,0.25,0.25,0.5","1","",""
"","html-keyboard-response","125","127632","0.0-125.0","3STRJBFXOXDE7QL60A2ASN6PDKSTKN","AKOAKQ1J9B9ET","3CMIQF80GNCSUBAVQ09COGUWLHYQ60","","null","<img src=""img/land1.png"" style=""width:200px; border:14px solid green;"">","null","","","","","","","","","",""
"","image-keyboard-response","126","127695","0.0-126.0","3STRJBFXOXDE7QL60A2ASN6PDKSTKN","AKOAKQ1J9B9ET","3CMIQF80GNCSUBAVQ09COGUWLHYQ60","","58.900000005960464","img/land1.png","75","62.79999999701977","2","0","1","1","1,0,0,0.25,0.5,0.25,0.25,0.25,0.5","1,0,0,0.25,0.5,0.25,0.25,0.25,0.5","1","",""
"","html-keyboard-response","127","127997","0.0-127.0","3STRJBFXOXDE7QL60A2ASN6PDKSTKN","AKOAKQ1J9B9ET","3CMIQF80GNCSUBAVQ09COGUWLHYQ60","","null","<img src=""img/land1.png"" style=""width:200px;border:14px solid red;"">","null","","","","","","","","","",""
"","image-keyboard-response","128","128102","0.0-128.0","3STRJBFXOXDE7QL60A2ASN6PDKSTKN","AKOAKQ1J9B9ET","3CMIQF80GNCSUBAVQ09COGUWLHYQ60","","101","img/land1.png","74","103.69999998807907","1","1","1","1","1,0,0,0.25,0.5,0.25,0.25,0.25,0.5","1,0,0,0.25,0.5,0.25,0.25,0.25,0.5","1","",""
"","html-keyboard-response","129","128403","0.0-129.0","3STRJBFXOXDE7QL60A2ASN6PDKSTKN","AKOAKQ1J9B9ET","3CMIQF80GNCSUBAVQ09COGUWLHYQ60","","null","<img src=""img/land1.png"" style=""width:200px; border:14px solid green;"">","null","","","","","","","","","",""
"","image-keyboard-response","130","128492","0.0-130.0","3STRJBFXOXDE7QL60A2ASN6PDKSTKN","AKOAKQ1J9B9ET","3CMIQF80GNCSUBAVQ09COGUWLHYQ60","","87.5","img/land3.png","74","88.8999999910593","1","0","3","1","1,0,0,0.25,0.5,0.25,0.25,0.25,0.5","1,0,0,0.25,0.5,0.25,0.25,0.25,0.5","1","",""
"","html-keyboard-response","131","128795","0.0-131.0","3STRJBFXOXDE7QL60A2ASN6PDKSTKN","AKOAKQ1J9B9ET","3CMIQF80GNCSUBAVQ09COGUWLHYQ60","","null","<img src=""img/land3.png"" style=""width:200px;border:14px solid red;"">","null","","","","","","","","","",""
"","image-keyboard-response","132","128844","0.0-132.0","3STRJBFXOXDE7QL60A2ASN6PDKSTKN","AKOAKQ1J9B9ET","3CMIQF80GNCSUBAVQ09COGUWLHYQ60","","44.80000001192093","img/land3.png","74","46.5","1","0","3","1","1,0,0,0.25,0.5,0.25,0.25,0.25,0.5","1,0,0,0.25,0.5,0.25,0.25,0.25,0.5","1","",""
"","html-keyboard-response","133","129146","0.0-133.0","3STRJBFXOXDE7QL60A2ASN6PDKSTKN","AKOAKQ1J9B9ET","3CMIQF80GNCSUBAVQ09COGUWLHYQ60","","null","<img src=""img/land3.png"" style=""width:200px;border:14px solid red;"">","null","","","","","","","","","",""
"","image-keyboard-response","134","129167","0.0-134.0","3STRJBFXOXDE7QL60A2ASN6PDKSTKN","AKOAKQ1J9B9ET","3CMIQF80GNCSUBAVQ09COGUWLHYQ60","","18.099999994039536","img/land1.png","74","20","1","1","1","1","1,0,0,0.25,0.5,0.25,0.25,0.25,0.5","1,0,0,0.25,0.5,0.25,0.25,0.25,0.5","1","",""
"","html-keyboard-response","135","129470","0.0-135.0","3STRJBFXOXDE7QL60A2ASN6PDKSTKN","AKOAKQ1J9B9ET","3CMIQF80GNCSUBAVQ09COGUWLHYQ60","","null","<img src=""img/land1.png"" style=""width:200px; border:14px solid green;"">","null","","","","","","","","","",""
"","image-keyboard-response","136","129477","0.0-136.0","3STRJBFXOXDE7QL60A2ASN6PDKSTKN","AKOAKQ1J9B9ET","3CMIQF80GNCSUBAVQ09COGUWLHYQ60","","4.399999991059303","img/land2.png","74","6","1","0","2","1","1,0,0,0.25,0.5,0.25,0.25,0.25,0.5","1,0,0,0.25,0.5,0.25,0.25,0.25,0.5","1","",""
"","html-keyboard-response","137","129781","0.0-137.0","3STRJBFXOXDE7QL60A2ASN6PDKSTKN","AKOAKQ1J9B9ET","3CMIQF80GNCSUBAVQ09COGUWLHYQ60","","null","<img src=""img/land2.png"" style=""width:200px;border:14px solid red;"">","null","","","","","","","","","",""
"","image-keyboard-response","138","130050","0.0-138.0","3STRJBFXOXDE7QL60A2ASN6PDKSTKN","AKOAKQ1J9B9ET","3CMIQF80GNCSUBAVQ09COGUWLHYQ60","","266.80000001192093","img/land3.png","74","268.69999998807907","1","0","3","1","1,0,0,0.25,0.5,0.25,0.25,0.25,0.5","1,0,0,0.25,0.5,0.25,0.25,0.25,0.5","1","",""
"","html-keyboard-response","139","130352","0.0-139.0","3STRJBFXOXDE7QL60A2ASN6PDKSTKN","AKOAKQ1J9B9ET","3CMIQF80GNCSUBAVQ09COGUWLHYQ60","","null","<img src=""img/land3.png"" style=""width:200px;border:14px solid red;"">","null","","","","","","","","","",""
"","image-keyboard-response","140","130695","0.0-140.0","3STRJBFXOXDE7QL60A2ASN6PDKSTKN","AKOAKQ1J9B9ET","3CMIQF80GNCSUBAVQ09COGUWLHYQ60","","339.8999999910593","img/land1.png","75","341.90000000596046","2","0","1","1","1,0,0,0.25,0.5,0.25,0.25,0.25,0.5","1,0,0,0.25,0.5,0.25,0.25,0.25,0.5","1","",""
"","html-keyboard-response","141","130997","0.0-141.0","3STRJBFXOXDE7QL60A2ASN6PDKSTKN","AKOAKQ1J9B9ET","3CMIQF80GNCSUBAVQ09COGUWLHYQ60","","null","<img src=""img/land1.png"" style=""width:200px;border:14px solid red;"">","null","","","","","","","","","",""
"","image-keyboard-response","142","131101","0.0-142.0","3STRJBFXOXDE7QL60A2ASN6PDKSTKN","AKOAKQ1J9B9ET","3CMIQF80GNCSUBAVQ09COGUWLHYQ60","","101.3999999910593","img/land2.png","75","103","2","0","2","1","1,0,0,0.25,0.5,0.25,0.25,0.25,0.5","1,0,0,0.25,0.5,0.25,0.25,0.25,0.5","1","",""
"","html-keyboard-response","143","131403","0.0-143.0","3STRJBFXOXDE7QL60A2ASN6PDKSTKN","AKOAKQ1J9B9ET","3CMIQF80GNCSUBAVQ09COGUWLHYQ60","","null","<img src=""img/land2.png"" style=""width:200px;border:14px solid red;"">","null","","","","","","","","","",""
"","image-keyboard-response","144","131826","0.0-144.0","3STRJBFXOXDE7QL60A2ASN6PDKSTKN","AKOAKQ1J9B9ET","3CMIQF80GNCSUBAVQ09COGUWLHYQ60","","420.90000000596046","img/land2.png","75","422.6000000089407","2","1","2","1","1,0,0,0.25,0.5,0.25,0.25,0.25,0.5","1,0,0,0.25,0.5,0.25,0.25,0.25,0.5","1","",""
"","html-keyboard-response","145","132129","0.0-145.0","3STRJBFXOXDE7QL60A2ASN6PDKSTKN","AKOAKQ1J9B9ET","3CMIQF80GNCSUBAVQ09COGUWLHYQ60","","null","<img src=""img/land2.png"" style=""width:200px; border:14px solid green;"">","null","","","","","","","","","",""
"","image-keyboard-response","146","132278","0.0-146.0","3STRJBFXOXDE7QL60A2ASN6PDKSTKN","AKOAKQ1J9B9ET","3CMIQF80GNCSUBAVQ09COGUWLHYQ60","","145.29999999701977","img/land1.png","75","148.8999999910593","2","0","1","1","1,0,0,0.25,0.5,0.25,0.25,0.25,0.5","1,0,0,0.25,0.5,0.25,0.25,0.25,0.5","1","",""
"","html-keyboard-response","147","132585","0.0-147.0","3STRJBFXOXDE7QL60A2ASN6PDKSTKN","AKOAKQ1J9B9ET","3CMIQF80GNCSUBAVQ09COGUWLHYQ60","","null","<img src=""img/land1.png"" style=""width:200px;border:14px solid red;"">","null","","","","","","","","","",""
"","image-keyboard-response","148","132961","0.0-148.0","3STRJBFXOXDE7QL60A2ASN6PDKSTKN","AKOAKQ1J9B9ET","3CMIQF80GNCSUBAVQ09COGUWLHYQ60","","373.70000000298023","img/land2.png","75","375.29999999701977","2","1","2","1","1,0,0,0.25,0.5,0.25,0.25,0.25,0.5","1,0,0,0.25,0.5,0.25,0.25,0.25,0.5","1","",""
"","html-keyboard-response","149","133263","0.0-149.0","3STRJBFXOXDE7QL60A2ASN6PDKSTKN","AKOAKQ1J9B9ET","3CMIQF80GNCSUBAVQ09COGUWLHYQ60","","null","<img src=""img/land2.png"" style=""width:200px; border:14px solid green;"">","null","","","","","","","","","",""
"","image-keyboard-response","150","133410","0.0-150.0","3STRJBFXOXDE7QL60A2ASN6PDKSTKN","AKOAKQ1J9B9ET","3CMIQF80GNCSUBAVQ09COGUWLHYQ60","","144.90000000596046","img/land3.png","75","146.20000000298023","2","0","3","1","1,0,0,0.25,0.5,0.25,0.25,0.25,0.5","1,0,0,0.25,0.5,0.25,0.25,0.25,0.5","1","",""
"","html-keyboard-response","151","133712","0.0-151.0","3STRJBFXOXDE7QL60A2ASN6PDKSTKN","AKOAKQ1J9B9ET","3CMIQF80GNCSUBAVQ09COGUWLHYQ60","","null","<img src=""img/land3.png"" style=""width:200px;border:14px solid red;"">","null","","","","","","","","","",""
"","image-keyboard-response","152","134100","0.0-152.0","3STRJBFXOXDE7QL60A2ASN6PDKSTKN","AKOAKQ1J9B9ET","3CMIQF80GNCSUBAVQ09COGUWLHYQ60","","386.20000000298023","img/land3.png","75","387.79999999701977","2","0","3","1","1,0,0,0.25,0.5,0.25,0.25,0.25,0.5","1,0,0,0.25,0.5,0.25,0.25,0.25,0.5","1","",""
"","html-keyboard-response","153","134403","0.0-153.0","3STRJBFXOXDE7QL60A2ASN6PDKSTKN","AKOAKQ1J9B9ET","3CMIQF80GNCSUBAVQ09COGUWLHYQ60","","null","<img src=""img/land3.png"" style=""width:200px;border:14px solid red;"">","null","","","","","","","","","",""
"","image-keyboard-response","154","134615","0.0-154.0","3STRJBFXOXDE7QL60A2ASN6PDKSTKN","AKOAKQ1J9B9ET","3CMIQF80GNCSUBAVQ09COGUWLHYQ60","","210.79999999701977","img/land2.png","74","212","1","1","2","1","1,0,0,0.25,0.5,0.25,0.25,0.25,0.5","1,0,0,0.25,0.5,0.25,0.25,0.25,0.5","1","",""
"","html-keyboard-response","155","134918","0.0-155.0","3STRJBFXOXDE7QL60A2ASN6PDKSTKN","AKOAKQ1J9B9ET","3CMIQF80GNCSUBAVQ09COGUWLHYQ60","","null","<img src=""img/land2.png"" style=""width:200px; border:14px solid green;"">","null","","","","","","","","","",""
"","image-keyboard-response","156","135305","0.0-156.0","3STRJBFXOXDE7QL60A2ASN6PDKSTKN","AKOAKQ1J9B9ET","3CMIQF80GNCSUBAVQ09COGUWLHYQ60","","385.20000000298023","img/land3.png","74","386.90000000596046","1","0","3","1","1,0,0,0.25,0.5,0.25,0.25,0.25,0.5","1,0,0,0.25,0.5,0.25,0.25,0.25,0.5","1","",""
"","html-keyboard-response","157","135617","0.0-157.0","3STRJBFXOXDE7QL60A2ASN6PDKSTKN","AKOAKQ1J9B9ET","3CMIQF80GNCSUBAVQ09COGUWLHYQ60","","null","<img src=""img/land3.png"" style=""width:200px;border:14px solid red;"">","null","","","","","","","","","",""
"","image-keyboard-response","158","135671","0.0-158.0","3STRJBFXOXDE7QL60A2ASN6PDKSTKN","AKOAKQ1J9B9ET","3CMIQF80GNCSUBAVQ09COGUWLHYQ60","","53.29999999701977","img/land3.png","74","54.29999999701977","1","0","3","1","1,0,0,0.25,0.5,0.25,0.25,0.25,0.5","1,0,0,0.25,0.5,0.25,0.25,0.25,0.5","1","",""
"","html-keyboard-response","159","135974","0.0-159.0","3STRJBFXOXDE7QL60A2ASN6PDKSTKN","AKOAKQ1J9B9ET","3CMIQF80GNCSUBAVQ09COGUWLHYQ60","","null","<img src=""img/land3.png"" style=""width:200px;border:14px solid red;"">","null","","","","","","","","","",""
"","image-keyboard-response","160","136028","0.0-160.0","3STRJBFXOXDE7QL60A2ASN6PDKSTKN","AKOAKQ1J9B9ET","3CMIQF80GNCSUBAVQ09COGUWLHYQ60","","51.5","img/land3.png","75","53","2","0","3","1","1,0,0,0.25,0.5,0.25,0.25,0.25,0.5","1,0,0,0.25,0.5,0.25,0.25,0.25,0.5","1","",""
"","html-keyboard-response","161","136330","0.0-161.0","3STRJBFXOXDE7QL60A2ASN6PDKSTKN","AKOAKQ1J9B9ET","3CMIQF80GNCSUBAVQ09COGUWLHYQ60","","null","<img src=""img/land3.png"" style=""width:200px;border:14px solid red;"">","null","","","","","","","","","",""
"","image-keyboard-response","162","136801","0.0-162.0","3STRJBFXOXDE7QL60A2ASN6PDKSTKN","AKOAKQ1J9B9ET","3CMIQF80GNCSUBAVQ09COGUWLHYQ60","","469.1000000089407","img/land3.png","74","470.09999999403954","1","0","3","1","1,0,0,0.25,0.5,0.25,0.25,0.25,0.5","1,0,0,0.25,0.5,0.25,0.25,0.25,0.5","1","",""
"","html-keyboard-response","163","137115","0.0-163.0","3STRJBFXOXDE7QL60A2ASN6PDKSTKN","AKOAKQ1J9B9ET","3CMIQF80GNCSUBAVQ09COGUWLHYQ60","","null","<img src=""img/land3.png"" style=""width:200px;border:14px solid red;"">","null","","","","","","","","","",""
"","image-keyboard-response","164","137166","0.0-164.0","3STRJBFXOXDE7QL60A2ASN6PDKSTKN","AKOAKQ1J9B9ET","3CMIQF80GNCSUBAVQ09COGUWLHYQ60","","49.20000000298023","img/land3.png","75","50.8999999910593","2","0","3","1","1,0,0,0.25,0.5,0.25,0.25,0.25,0.5","1,0,0,0.25,0.5,0.25,0.25,0.25,0.5","1","",""
"","html-keyboard-response","165","137470","0.0-165.0","3STRJBFXOXDE7QL60A2ASN6PDKSTKN","AKOAKQ1J9B9ET","3CMIQF80GNCSUBAVQ09COGUWLHYQ60","","null","<img src=""img/land3.png"" style=""width:200px;border:14px solid red;"">","null","","","","","","","","","",""
"","image-keyboard-response","166","137488","0.0-166.0","3STRJBFXOXDE7QL60A2ASN6PDKSTKN","AKOAKQ1J9B9ET","3CMIQF80GNCSUBAVQ09COGUWLHYQ60","","16.5","img/land2.png","74","18","1","1","2","1","1,0,0,0.25,0.5,0.25,0.25,0.25,0.5","1,0,0,0.25,0.5,0.25,0.25,0.25,0.5","1","",""
"","html-keyboard-response","167","137790","0.0-167.0","3STRJBFXOXDE7QL60A2ASN6PDKSTKN","AKOAKQ1J9B9ET","3CMIQF80GNCSUBAVQ09COGUWLHYQ60","","null","<img src=""img/land2.png"" style=""width:200px; border:14px solid green;"">","null","","","","","","","","","",""
"","image-keyboard-response","168","138045","0.0-168.0","3STRJBFXOXDE7QL60A2ASN6PDKSTKN","AKOAKQ1J9B9ET","3CMIQF80GNCSUBAVQ09COGUWLHYQ60","","252.59999999403954","img/land2.png","75","254.20000000298023","2","1","2","1","1,0,0,0.25,0.5,0.25,0.25,0.25,0.5","1,0,0,0.25,0.5,0.25,0.25,0.25,0.5","1","",""
"","html-keyboard-response","169","138347","0.0-169.0","3STRJBFXOXDE7QL60A2ASN6PDKSTKN","AKOAKQ1J9B9ET","3CMIQF80GNCSUBAVQ09COGUWLHYQ60","","null","<img src=""img/land2.png"" style=""width:200px; border:14px solid green;"">","null","","","","","","","","","",""
"","image-keyboard-response","170","138585","0.0-170.0","3STRJBFXOXDE7QL60A2ASN6PDKSTKN","AKOAKQ1J9B9ET","3CMIQF80GNCSUBAVQ09COGUWLHYQ60","","236.20000000298023","img/land3.png","74","237.79999999701977","1","0","3","1","1,0,0,0.25,0.5,0.25,0.25,0.25,0.5","1,0,0,0.25,0.5,0.25,0.25,0.25,0.5","1","",""
"","html-keyboard-response","171","138888","0.0-171.0","3STRJBFXOXDE7QL60A2ASN6PDKSTKN","AKOAKQ1J9B9ET","3CMIQF80GNCSUBAVQ09COGUWLHYQ60","","null","<img src=""img/land3.png"" style=""width:200px;border:14px solid red;"">","null","","","","","","","","","",""
"","image-keyboard-response","172","138904","0.0-172.0","3STRJBFXOXDE7QL60A2ASN6PDKSTKN","AKOAKQ1J9B9ET","3CMIQF80GNCSUBAVQ09COGUWLHYQ60","","14.299999997019768","img/land3.png","74","15.700000002980232","1","0","3","1","1,0,0,0.25,0.5,0.25,0.25,0.25,0.5","1,0,0,0.25,0.5,0.25,0.25,0.25,0.5","1","",""
"","html-keyboard-response","173","139206","0.0-173.0","3STRJBFXOXDE7QL60A2ASN6PDKSTKN","AKOAKQ1J9B9ET","3CMIQF80GNCSUBAVQ09COGUWLHYQ60","","null","<img src=""img/land3.png"" style=""width:200px;border:14px solid red;"">","null","","","","","","","","","",""
"","image-keyboard-response","174","139270","0.0-174.0","3STRJBFXOXDE7QL60A2ASN6PDKSTKN","AKOAKQ1J9B9ET","3CMIQF80GNCSUBAVQ09COGUWLHYQ60","","61.6000000089407","img/land3.png","74","63.29999999701977","1","0","3","1","1,0,0,0.25,0.5,0.25,0.25,0.25,0.5","1,0,0,0.25,0.5,0.25,0.25,0.25,0.5","1","",""
"","html-keyboard-response","175","139572","0.0-175.0","3STRJBFXOXDE7QL60A2ASN6PDKSTKN","AKOAKQ1J9B9ET","3CMIQF80GNCSUBAVQ09COGUWLHYQ60","","null","<img src=""img/land3.png"" style=""width:200px;border:14px solid red;"">","null","","","","","","","","","",""
"","image-keyboard-response","176","139952","0.0-176.0","3STRJBFXOXDE7QL60A2ASN6PDKSTKN","AKOAKQ1J9B9ET","3CMIQF80GNCSUBAVQ09COGUWLHYQ60","","377.29999999701977","img/land2.png","75","379.40000000596046","2","1","2","1","1,0,0,0.25,0.5,0.25,0.25,0.25,0.5","1,0,0,0.25,0.5,0.25,0.25,0.25,0.5","1","",""
"","html-keyboard-response","177","140268","0.0-177.0","3STRJBFXOXDE7QL60A2ASN6PDKSTKN","AKOAKQ1J9B9ET","3CMIQF80GNCSUBAVQ09COGUWLHYQ60","","null","<img src=""img/land2.png"" style=""width:200px; border:14px solid green;"">","null","","","","","","","","","",""
"","image-keyboard-response","178","140514","0.0-178.0","3STRJBFXOXDE7QL60A2ASN6PDKSTKN","AKOAKQ1J9B9ET","3CMIQF80GNCSUBAVQ09COGUWLHYQ60","","243.6000000089407","img/land1.png","75","245.5","2","0","1","1","1,0,0,0.25,0.5,0.25,0.25,0.25,0.5","1,0,0,0.25,0.5,0.25,0.25,0.25,0.5","1","",""
"","html-keyboard-response","179","140817","0.0-179.0","3STRJBFXOXDE7QL60A2ASN6PDKSTKN","AKOAKQ1J9B9ET","3CMIQF80GNCSUBAVQ09COGUWLHYQ60","","null","<img src=""img/land1.png"" style=""width:200px;border:14px solid red;"">","null","","","","","","","","","",""
"","image-keyboard-response","180","140872","0.0-180.0","3STRJBFXOXDE7QL60A2ASN6PDKSTKN","AKOAKQ1J9B9ET","3CMIQF80GNCSUBAVQ09COGUWLHYQ60","","54","img/land2.png","75","55.5","2","1","2","1","1,0,0,0.25,0.5,0.25,0.25,0.25,0.5","1,0,0,0.25,0.5,0.25,0.25,0.25,0.5","1","",""
"","html-keyboard-response","181","141174","0.0-181.0","3STRJBFXOXDE7QL60A2ASN6PDKSTKN","AKOAKQ1J9B9ET","3CMIQF80GNCSUBAVQ09COGUWLHYQ60","","null","<img src=""img/land2.png"" style=""width:200px; border:14px solid green;"">","null","","","","","","","","","",""
"","html-keyboard-response","182","143772","0.0-182.0","3STRJBFXOXDE7QL60A2ASN6PDKSTKN","AKOAKQ1J9B9ET","3CMIQF80GNCSUBAVQ09COGUWLHYQ60","","","","","","","","","","","","","",""
"","image-keyboard-response","183","145570","0.0-183.0","3STRJBFXOXDE7QL60A2ASN6PDKSTKN","AKOAKQ1J9B9ET","3CMIQF80GNCSUBAVQ09COGUWLHYQ60","","1796.2999999970198","img/land4.png","74","1797.9000000059605","1","0","1","2","1,0,0,0.25,0.5,0.25,0.25,0.25,0.5","0,1,0,0.5,0.25,0.25,0.25,0.25,0.5","3","",""
"","html-keyboard-response","184","145872","0.0-184.0","3STRJBFXOXDE7QL60A2ASN6PDKSTKN","AKOAKQ1J9B9ET","3CMIQF80GNCSUBAVQ09COGUWLHYQ60","","null","<img src=""img/land4.png"" style=""width:200px;border:14px solid red;"">","null","","","","","","","","","",""
"","image-keyboard-response","185","146176","0.0-185.0","3STRJBFXOXDE7QL60A2ASN6PDKSTKN","AKOAKQ1J9B9ET","3CMIQF80GNCSUBAVQ09COGUWLHYQ60","","302.1000000089407","img/land4.png","75","303.5","2","1","1","2","1,0,0,0.25,0.5,0.25,0.25,0.25,0.5","0,1,0,0.5,0.25,0.25,0.25,0.25,0.5","3","",""
"","html-keyboard-response","186","146479","0.0-186.0","3STRJBFXOXDE7QL60A2ASN6PDKSTKN","AKOAKQ1J9B9ET","3CMIQF80GNCSUBAVQ09COGUWLHYQ60","","null","<img src=""img/land4.png"" style=""width:200px; border:14px solid green;"">","null","","","","","","","","","",""
"","image-keyboard-response","187","146723","0.0-187.0","3STRJBFXOXDE7QL60A2ASN6PDKSTKN","AKOAKQ1J9B9ET","3CMIQF80GNCSUBAVQ09COGUWLHYQ60","","241.59999999403954","img/land4.png","75","243.90000000596046","2","1","1","2","1,0,0,0.25,0.5,0.25,0.25,0.25,0.5","0,1,0,0.5,0.25,0.25,0.25,0.25,0.5","3","",""
"","html-keyboard-response","188","147026","0.0-188.0","3STRJBFXOXDE7QL60A2ASN6PDKSTKN","AKOAKQ1J9B9ET","3CMIQF80GNCSUBAVQ09COGUWLHYQ60","","null","<img src=""img/land4.png"" style=""width:200px; border:14px solid green;"">","null","","","","","","","","","",""
"","image-keyboard-response","189","147055","0.0-189.0","3STRJBFXOXDE7QL60A2ASN6PDKSTKN","AKOAKQ1J9B9ET","3CMIQF80GNCSUBAVQ09COGUWLHYQ60","","26.600000008940697","img/land4.png","75","28.299999997019768","2","1","1","2","1,0,0,0.25,0.5,0.25,0.25,0.25,0.5","0,1,0,0.5,0.25,0.25,0.25,0.25,0.5","3","",""
"","html-keyboard-response","190","147357","0.0-190.0","3STRJBFXOXDE7QL60A2ASN6PDKSTKN","AKOAKQ1J9B9ET","3CMIQF80GNCSUBAVQ09COGUWLHYQ60","","null","<img src=""img/land4.png"" style=""width:200px; border:14px solid green;"">","null","","","","","","","","","",""
"","image-keyboard-response","191","147516","0.0-191.0","3STRJBFXOXDE7QL60A2ASN6PDKSTKN","AKOAKQ1J9B9ET","3CMIQF80GNCSUBAVQ09COGUWLHYQ60","","156.59999999403954","img/land4.png","75","158.5","2","1","1","2","1,0,0,0.25,0.5,0.25,0.25,0.25,0.5","0,1,0,0.5,0.25,0.25,0.25,0.25,0.5","3","",""
"","html-keyboard-response","192","147820","0.0-192.0","3STRJBFXOXDE7QL60A2ASN6PDKSTKN","AKOAKQ1J9B9ET","3CMIQF80GNCSUBAVQ09COGUWLHYQ60","","null","<img src=""img/land4.png"" style=""width:200px; border:14px solid green;"">","null","","","","","","","","","",""
"","image-keyboard-response","193","148224","0.0-193.0","3STRJBFXOXDE7QL60A2ASN6PDKSTKN","AKOAKQ1J9B9ET","3CMIQF80GNCSUBAVQ09COGUWLHYQ60","","402.5","img/land5.png","75","403.80000001192093","2","0","2","2","1,0,0,0.25,0.5,0.25,0.25,0.25,0.5","0,1,0,0.5,0.25,0.25,0.25,0.25,0.5","3","",""
"","html-keyboard-response","194","148528","0.0-194.0","3STRJBFXOXDE7QL60A2ASN6PDKSTKN","AKOAKQ1J9B9ET","3CMIQF80GNCSUBAVQ09COGUWLHYQ60","","null","<img src=""img/land5.png"" style=""width:200px;border:14px solid red;"">","null","","","","","","","","","",""
"","image-keyboard-response","195","148576","0.0-195.0","3STRJBFXOXDE7QL60A2ASN6PDKSTKN","AKOAKQ1J9B9ET","3CMIQF80GNCSUBAVQ09COGUWLHYQ60","","46.1000000089407","img/land4.png","75","47.8999999910593","2","1","1","2","1,0,0,0.25,0.5,0.25,0.25,0.25,0.5","0,1,0,0.5,0.25,0.25,0.25,0.25,0.5","3","",""
"","html-keyboard-response","196","148878","0.0-196.0","3STRJBFXOXDE7QL60A2ASN6PDKSTKN","AKOAKQ1J9B9ET","3CMIQF80GNCSUBAVQ09COGUWLHYQ60","","null","<img src=""img/land4.png"" style=""width:200px; border:14px solid green;"">","null","","","","","","","","","",""
"","image-keyboard-response","197","148961","0.0-197.0","3STRJBFXOXDE7QL60A2ASN6PDKSTKN","AKOAKQ1J9B9ET","3CMIQF80GNCSUBAVQ09COGUWLHYQ60","","80.09999999403954","img/land4.png","74","81.90000000596046","1","0","1","2","1,0,0,0.25,0.5,0.25,0.25,0.25,0.5","0,1,0,0.5,0.25,0.25,0.25,0.25,0.5","3","",""
"","html-keyboard-response","198","149263","0.0-198.0","3STRJBFXOXDE7QL60A2ASN6PDKSTKN","AKOAKQ1J9B9ET","3CMIQF80GNCSUBAVQ09COGUWLHYQ60","","null","<img src=""img/land4.png"" style=""width:200px;border:14px solid red;"">","null","","","","","","","","","",""
"","image-keyboard-response","199","149411","0.0-199.0","3STRJBFXOXDE7QL60A2ASN6PDKSTKN","AKOAKQ1J9B9ET","3CMIQF80GNCSUBAVQ09COGUWLHYQ60","","146","img/land4.png","74","147.70000000298023","1","0","1","2","1,0,0,0.25,0.5,0.25,0.25,0.25,0.5","0,1,0,0.5,0.25,0.25,0.25,0.25,0.5","3","",""
"","html-keyboard-response","200","149717","0.0-200.0","3STRJBFXOXDE7QL60A2ASN6PDKSTKN","AKOAKQ1J9B9ET","3CMIQF80GNCSUBAVQ09COGUWLHYQ60","","null","<img src=""img/land4.png"" style=""width:200px;border:14px solid red;"">","null","","","","","","","","","",""
"","image-keyboard-response","201","149834","0.0-201.0","3STRJBFXOXDE7QL60A2ASN6PDKSTKN","AKOAKQ1J9B9ET","3CMIQF80GNCSUBAVQ09COGUWLHYQ60","","115.8999999910593","img/land4.png","75","117.09999999403954","2","1","1","2","1,0,0,0.25,0.5,0.25,0.25,0.25,0.5","0,1,0,0.5,0.25,0.25,0.25,0.25,0.5","3","",""
"","html-keyboard-response","202","150137","0.0-202.0","3STRJBFXOXDE7QL60A2ASN6PDKSTKN","AKOAKQ1J9B9ET","3CMIQF80GNCSUBAVQ09COGUWLHYQ60","","null","<img src=""img/land4.png"" style=""width:200px; border:14px solid green;"">","null","","","","","","","","","",""
"","image-keyboard-response","203","150142","0.0-203.0","3STRJBFXOXDE7QL60A2ASN6PDKSTKN","AKOAKQ1J9B9ET","3CMIQF80GNCSUBAVQ09COGUWLHYQ60","","2.7000000029802322","img/land4.png","75","4.700000002980232","2","1","1","2","1,0,0,0.25,0.5,0.25,0.25,0.25,0.5","0,1,0,0.5,0.25,0.25,0.25,0.25,0.5","3","",""
"","html-keyboard-response","204","150444","0.0-204.0","3STRJBFXOXDE7QL60A2ASN6PDKSTKN","AKOAKQ1J9B9ET","3CMIQF80GNCSUBAVQ09COGUWLHYQ60","","null","<img src=""img/land4.png"" style=""width:200px; border:14px solid green;"">","null","","","","","","","","","",""
"","image-keyboard-response","205","150641","0.0-205.0","3STRJBFXOXDE7QL60A2ASN6PDKSTKN","AKOAKQ1J9B9ET","3CMIQF80GNCSUBAVQ09COGUWLHYQ60","","194.6000000089407","img/land6.png","75","196.40000000596046","2","1","3","2","1,0,0,0.25,0.5,0.25,0.25,0.25,0.5","0,1,0,0.5,0.25,0.25,0.25,0.25,0.5","3","",""
"","html-keyboard-response","206","150943","0.0-206.0","3STRJBFXOXDE7QL60A2ASN6PDKSTKN","AKOAKQ1J9B9ET","3CMIQF80GNCSUBAVQ09COGUWLHYQ60","","null","<img src=""img/land6.png"" style=""width:200px; border:14px solid green;"">","null","","","","","","","","","",""
"","image-keyboard-response","207","151128","0.0-207.0","3STRJBFXOXDE7QL60A2ASN6PDKSTKN","AKOAKQ1J9B9ET","3CMIQF80GNCSUBAVQ09COGUWLHYQ60","","182.29999999701977","img/land4.png","75","184.19999998807907","2","1","1","2","1,0,0,0.25,0.5,0.25,0.25,0.25,0.5","0,1,0,0.5,0.25,0.25,0.25,0.25,0.5","3","",""
"","html-keyboard-response","208","151430","0.0-208.0","3STRJBFXOXDE7QL60A2ASN6PDKSTKN","AKOAKQ1J9B9ET","3CMIQF80GNCSUBAVQ09COGUWLHYQ60","","null","<img src=""img/land4.png"" style=""width:200px; border:14px solid green;"">","null","","","","","","","","","",""
"","image-keyboard-response","209","151843","0.0-209.0","3STRJBFXOXDE7QL60A2ASN6PDKSTKN","AKOAKQ1J9B9ET","3CMIQF80GNCSUBAVQ09COGUWLHYQ60","","411.29999999701977","img/land6.png","75","412.8999999910593","2","1","3","2","1,0,0,0.25,0.5,0.25,0.25,0.25,0.5","0,1,0,0.5,0.25,0.25,0.25,0.25,0.5","3","",""
"","html-keyboard-response","210","152154","0.0-210.0","3STRJBFXOXDE7QL60A2ASN6PDKSTKN","AKOAKQ1J9B9ET","3CMIQF80GNCSUBAVQ09COGUWLHYQ60","","null","<img src=""img/land6.png"" style=""width:200px; border:14px solid green;"">","null","","","","","","","","","",""
"","image-keyboard-response","211","152247","0.0-211.0","3STRJBFXOXDE7QL60A2ASN6PDKSTKN","AKOAKQ1J9B9ET","3CMIQF80GNCSUBAVQ09COGUWLHYQ60","","91.20000000298023","img/land5.png","74","92.80000001192093","1","0","2","2","1,0,0,0.25,0.5,0.25,0.25,0.25,0.5","0,1,0,0.5,0.25,0.25,0.25,0.25,0.5","3","",""
"","html-keyboard-response","212","152550","0.0-212.0","3STRJBFXOXDE7QL60A2ASN6PDKSTKN","AKOAKQ1J9B9ET","3CMIQF80GNCSUBAVQ09COGUWLHYQ60","","null","<img src=""img/land5.png"" style=""width:200px;border:14px solid red;"">","null","","","","","","","","","",""
"","image-keyboard-response","213","152595","0.0-213.0","3STRJBFXOXDE7QL60A2ASN6PDKSTKN","AKOAKQ1J9B9ET","3CMIQF80GNCSUBAVQ09COGUWLHYQ60","","43.1000000089407","img/land6.png","74","44.70000000298023","1","0","3","2","1,0,0,0.25,0.5,0.25,0.25,0.25,0.5","0,1,0,0.5,0.25,0.25,0.25,0.25,0.5","3","",""
"","html-keyboard-response","214","152898","0.0-214.0","3STRJBFXOXDE7QL60A2ASN6PDKSTKN","AKOAKQ1J9B9ET","3CMIQF80GNCSUBAVQ09COGUWLHYQ60","","null","<img src=""img/land6.png"" style=""width:200px;border:14px solid red;"">","null","","","","","","","","","",""
"","image-keyboard-response","215","152932","0.0-215.0","3STRJBFXOXDE7QL60A2ASN6PDKSTKN","AKOAKQ1J9B9ET","3CMIQF80GNCSUBAVQ09COGUWLHYQ60","","32","img/land6.png","74","33.79999999701977","1","0","3","2","1,0,0,0.25,0.5,0.25,0.25,0.25,0.5","0,1,0,0.5,0.25,0.25,0.25,0.25,0.5","3","",""
"","html-keyboard-response","216","153234","0.0-216.0","3STRJBFXOXDE7QL60A2ASN6PDKSTKN","AKOAKQ1J9B9ET","3CMIQF80GNCSUBAVQ09COGUWLHYQ60","","null","<img src=""img/land6.png"" style=""width:200px;border:14px solid red;"">","null","","","","","","","","","",""
"","image-keyboard-response","217","153350","0.0-217.0","3STRJBFXOXDE7QL60A2ASN6PDKSTKN","AKOAKQ1J9B9ET","3CMIQF80GNCSUBAVQ09COGUWLHYQ60","","114.3999999910593","img/land5.png","75","115.69999998807907","2","0","2","2","1,0,0,0.25,0.5,0.25,0.25,0.25,0.5","0,1,0,0.5,0.25,0.25,0.25,0.25,0.5","3","",""
"","html-keyboard-response","218","153652","0.0-218.0","3STRJBFXOXDE7QL60A2ASN6PDKSTKN","AKOAKQ1J9B9ET","3CMIQF80GNCSUBAVQ09COGUWLHYQ60","","null","<img src=""img/land5.png"" style=""width:200px;border:14px solid red;"">","null","","","","","","","","","",""
"","image-keyboard-response","219","153905","0.0-219.0","3STRJBFXOXDE7QL60A2ASN6PDKSTKN","AKOAKQ1J9B9ET","3CMIQF80GNCSUBAVQ09COGUWLHYQ60","","251.30000001192093","img/land5.png","75","252.5","2","0","2","2","1,0,0,0.25,0.5,0.25,0.25,0.25,0.5","0,1,0,0.5,0.25,0.25,0.25,0.25,0.5","3","",""
"","html-keyboard-response","220","154207","0.0-220.0","3STRJBFXOXDE7QL60A2ASN6PDKSTKN","AKOAKQ1J9B9ET","3CMIQF80GNCSUBAVQ09COGUWLHYQ60","","null","<img src=""img/land5.png"" style=""width:200px;border:14px solid red;"">","null","","","","","","","","","",""
"","image-keyboard-response","221","154262","0.0-221.0","3STRJBFXOXDE7QL60A2ASN6PDKSTKN","AKOAKQ1J9B9ET","3CMIQF80GNCSUBAVQ09COGUWLHYQ60","","53.29999999701977","img/land4.png","74","54.900000005960464","1","0","1","2","1,0,0,0.25,0.5,0.25,0.25,0.25,0.5","0,1,0,0.5,0.25,0.25,0.25,0.25,0.5","3","",""
"","html-keyboard-response","222","154565","0.0-222.0","3STRJBFXOXDE7QL60A2ASN6PDKSTKN","AKOAKQ1J9B9ET","3CMIQF80GNCSUBAVQ09COGUWLHYQ60","","null","<img src=""img/land4.png"" style=""width:200px;border:14px solid red;"">","null","","","","","","","","","",""
"","image-keyboard-response","223","154662","0.0-223.0","3STRJBFXOXDE7QL60A2ASN6PDKSTKN","AKOAKQ1J9B9ET","3CMIQF80GNCSUBAVQ09COGUWLHYQ60","","94.90000000596046","img/land4.png","74","96.59999999403954","1","0","1","2","1,0,0,0.25,0.5,0.25,0.25,0.25,0.5","0,1,0,0.5,0.25,0.25,0.25,0.25,0.5","3","",""
"","html-keyboard-response","224","154964","0.0-224.0","3STRJBFXOXDE7QL60A2ASN6PDKSTKN","AKOAKQ1J9B9ET","3CMIQF80GNCSUBAVQ09COGUWLHYQ60","","null","<img src=""img/land4.png"" style=""width:200px;border:14px solid red;"">","null","","","","","","","","","",""
"","image-keyboard-response","225","155141","0.0-225.0","3STRJBFXOXDE7QL60A2ASN6PDKSTKN","AKOAKQ1J9B9ET","3CMIQF80GNCSUBAVQ09COGUWLHYQ60","","174.30000001192093","img/land4.png","75","176.1000000089407","2","1","1","2","1,0,0,0.25,0.5,0.25,0.25,0.25,0.5","0,1,0,0.5,0.25,0.25,0.25,0.25,0.5","3","",""
"","html-keyboard-response","226","155443","0.0-226.0","3STRJBFXOXDE7QL60A2ASN6PDKSTKN","AKOAKQ1J9B9ET","3CMIQF80GNCSUBAVQ09COGUWLHYQ60","","null","<img src=""img/land4.png"" style=""width:200px; border:14px solid green;"">","null","","","","","","","","","",""
"","image-keyboard-response","227","155589","0.0-227.0","3STRJBFXOXDE7QL60A2ASN6PDKSTKN","AKOAKQ1J9B9ET","3CMIQF80GNCSUBAVQ09COGUWLHYQ60","","143.5","img/land5.png","74","145.29999999701977","1","1","2","2","1,0,0,0.25,0.5,0.25,0.25,0.25,0.5","0,1,0,0.5,0.25,0.25,0.25,0.25,0.5","3","",""
"","html-keyboard-response","228","155892","0.0-228.0","3STRJBFXOXDE7QL60A2ASN6PDKSTKN","AKOAKQ1J9B9ET","3CMIQF80GNCSUBAVQ09COGUWLHYQ60","","null","<img src=""img/land5.png"" style=""width:200px; border:14px solid green;"">","null","","","","","","","","","",""
"","image-keyboard-response","229","155934","0.0-229.0","3STRJBFXOXDE7QL60A2ASN6PDKSTKN","AKOAKQ1J9B9ET","3CMIQF80GNCSUBAVQ09COGUWLHYQ60","","40.3999999910593","img/land5.png","74","42","1","0","2","2","1,0,0,0.25,0.5,0.25,0.25,0.25,0.5","0,1,0,0.5,0.25,0.25,0.25,0.25,0.5","3","",""
"","html-keyboard-response","230","156237","0.0-230.0","3STRJBFXOXDE7QL60A2ASN6PDKSTKN","AKOAKQ1J9B9ET","3CMIQF80GNCSUBAVQ09COGUWLHYQ60","","null","<img src=""img/land5.png"" style=""width:200px;border:14px solid red;"">","null","","","","","","","","","",""
"","image-keyboard-response","231","156411","0.0-231.0","3STRJBFXOXDE7QL60A2ASN6PDKSTKN","AKOAKQ1J9B9ET","3CMIQF80GNCSUBAVQ09COGUWLHYQ60","","171.79999999701977","img/land4.png","75","173.29999999701977","2","1","1","2","1,0,0,0.25,0.5,0.25,0.25,0.25,0.5","0,1,0,0.5,0.25,0.25,0.25,0.25,0.5","3","",""
"","html-keyboard-response","232","156712","0.0-232.0","3STRJBFXOXDE7QL60A2ASN6PDKSTKN","AKOAKQ1J9B9ET","3CMIQF80GNCSUBAVQ09COGUWLHYQ60","","null","<img src=""img/land4.png"" style=""width:200px; border:14px solid green;"">","null","","","","","","","","","",""
"","image-keyboard-response","233","156819","0.0-233.0","3STRJBFXOXDE7QL60A2ASN6PDKSTKN","AKOAKQ1J9B9ET","3CMIQF80GNCSUBAVQ09COGUWLHYQ60","","104.29999999701977","img/land4.png","75","105.5","2","1","1","2","1,0,0,0.25,0.5,0.25,0.25,0.25,0.5","0,1,0,0.5,0.25,0.25,0.25,0.25,0.5","3","",""
"","html-keyboard-response","234","157120","0.0-234.0","3STRJBFXOXDE7QL60A2ASN6PDKSTKN","AKOAKQ1J9B9ET","3CMIQF80GNCSUBAVQ09COGUWLHYQ60","","null","<img src=""img/land4.png"" style=""width:200px; border:14px solid green;"">","null","","","","","","","","","",""
"","image-keyboard-response","235","157185","0.0-235.0","3STRJBFXOXDE7QL60A2ASN6PDKSTKN","AKOAKQ1J9B9ET","3CMIQF80GNCSUBAVQ09COGUWLHYQ60","","63.1000000089407","img/land4.png","75","64.6000000089407","2","1","1","2","1,0,0,0.25,0.5,0.25,0.25,0.25,0.5","0,1,0,0.5,0.25,0.25,0.25,0.25,0.5","3","",""
"","html-keyboard-response","236","157487","0.0-236.0","3STRJBFXOXDE7QL60A2ASN6PDKSTKN","AKOAKQ1J9B9ET","3CMIQF80GNCSUBAVQ09COGUWLHYQ60","","null","<img src=""img/land4.png"" style=""width:200px; border:14px solid green;"">","null","","","","","","","","","",""
"","image-keyboard-response","237","157721","0.0-237.0","3STRJBFXOXDE7QL60A2ASN6PDKSTKN","AKOAKQ1J9B9ET","3CMIQF80GNCSUBAVQ09COGUWLHYQ60","","231.70000000298023","img/land4.png","74","233.40000000596046","1","0","1","2","1,0,0,0.25,0.5,0.25,0.25,0.25,0.5","0,1,0,0.5,0.25,0.25,0.25,0.25,0.5","3","",""
"","html-keyboard-response","238","158024","0.0-238.0","3STRJBFXOXDE7QL60A2ASN6PDKSTKN","AKOAKQ1J9B9ET","3CMIQF80GNCSUBAVQ09COGUWLHYQ60","","null","<img src=""img/land4.png"" style=""width:200px;border:14px solid red;"">","null","","","","","","","","","",""
"","image-keyboard-response","239","158085","0.0-239.0","3STRJBFXOXDE7QL60A2ASN6PDKSTKN","AKOAKQ1J9B9ET","3CMIQF80GNCSUBAVQ09COGUWLHYQ60","","59.79999999701977","img/land6.png","74","61.29999999701977","1","1","3","2","1,0,0,0.25,0.5,0.25,0.25,0.25,0.5","0,1,0,0.5,0.25,0.25,0.25,0.25,0.5","3","",""
"","html-keyboard-response","240","158387","0.0-240.0","3STRJBFXOXDE7QL60A2ASN6PDKSTKN","AKOAKQ1J9B9ET","3CMIQF80GNCSUBAVQ09COGUWLHYQ60","","null","<img src=""img/land6.png"" style=""width:200px; border:14px solid green;"">","null","","","","","","","","","",""
"","image-keyboard-response","241","158444","0.0-241.0","3STRJBFXOXDE7QL60A2ASN6PDKSTKN","AKOAKQ1J9B9ET","3CMIQF80GNCSUBAVQ09COGUWLHYQ60","","54.29999999701977","img/land4.png","75","55.8999999910593","2","1","1","2","1,0,0,0.25,0.5,0.25,0.25,0.25,0.5","0,1,0,0.5,0.25,0.25,0.25,0.25,0.5","3","",""
"","html-keyboard-response","242","158746","0.0-242.0","3STRJBFXOXDE7QL60A2ASN6PDKSTKN","AKOAKQ1J9B9ET","3CMIQF80GNCSUBAVQ09COGUWLHYQ60","","null","<img src=""img/land4.png"" style=""width:200px; border:14px solid green;"">","null","","","","","","","","","",""
"","image-keyboard-response","243","159070","0.0-243.0","3STRJBFXOXDE7QL60A2ASN6PDKSTKN","AKOAKQ1J9B9ET","3CMIQF80GNCSUBAVQ09COGUWLHYQ60","","321.5","img/land6.png","74","323.09999999403954","1","0","3","2","1,0,0,0.25,0.5,0.25,0.25,0.25,0.5","0,1,0,0.5,0.25,0.25,0.25,0.25,0.5","3","",""
"","html-keyboard-response","244","159372","0.0-244.0","3STRJBFXOXDE7QL60A2ASN6PDKSTKN","AKOAKQ1J9B9ET","3CMIQF80GNCSUBAVQ09COGUWLHYQ60","","null","<img src=""img/land6.png"" style=""width:200px;border:14px solid red;"">","null","","","","","","","","","",""
"","image-keyboard-response","245","159560","0.0-245.0","3STRJBFXOXDE7QL60A2ASN6PDKSTKN","AKOAKQ1J9B9ET","3CMIQF80GNCSUBAVQ09COGUWLHYQ60","","185.90000000596046","img/land4.png","75","187.5","2","1","1","2","1,0,0,0.25,0.5,0.25,0.25,0.25,0.5","0,1,0,0.5,0.25,0.25,0.25,0.25,0.5","3","",""
"","html-keyboard-response","246","159863","0.0-246.0","3STRJBFXOXDE7QL60A2ASN6PDKSTKN","AKOAKQ1J9B9ET","3CMIQF80GNCSUBAVQ09COGUWLHYQ60","","null","<img src=""img/land4.png"" style=""width:200px; border:14px solid green;"">","null","","","","","","","","","",""
"","image-keyboard-response","247","159883","0.0-247.0","3STRJBFXOXDE7QL60A2ASN6PDKSTKN","AKOAKQ1J9B9ET","3CMIQF80GNCSUBAVQ09COGUWLHYQ60","","18.200000002980232","img/land4.png","75","19.600000008940697","2","1","1","2","1,0,0,0.25,0.5,0.25,0.25,0.25,0.5","0,1,0,0.5,0.25,0.25,0.25,0.25,0.5","3","",""
"","html-keyboard-response","248","160185","0.0-248.0","3STRJBFXOXDE7QL60A2ASN6PDKSTKN","AKOAKQ1J9B9ET","3CMIQF80GNCSUBAVQ09COGUWLHYQ60","","null","<img src=""img/land4.png"" style=""width:200px; border:14px solid green;"">","null","","","","","","","","","",""
"","image-keyboard-response","249","160400","0.0-249.0","3STRJBFXOXDE7QL60A2ASN6PDKSTKN","AKOAKQ1J9B9ET","3CMIQF80GNCSUBAVQ09COGUWLHYQ60","","213.29999999701977","img/land4.png","74","215.09999999403954","1","0","1","2","1,0,0,0.25,0.5,0.25,0.25,0.25,0.5","0,1,0,0.5,0.25,0.25,0.25,0.25,0.5","3","",""
"","html-keyboard-response","250","160702","0.0-250.0","3STRJBFXOXDE7QL60A2ASN6PDKSTKN","AKOAKQ1J9B9ET","3CMIQF80GNCSUBAVQ09COGUWLHYQ60","","null","<img src=""img/land4.png"" style=""width:200px;border:14px solid red;"">","null","","","","","","","","","",""
"","image-keyboard-response","251","160740","0.0-251.0","3STRJBFXOXDE7QL60A2ASN6PDKSTKN","AKOAKQ1J9B9ET","3CMIQF80GNCSUBAVQ09COGUWLHYQ60","","35.900000005960464","img/land5.png","74","37.5","1","0","2","2","1,0,0,0.25,0.5,0.25,0.25,0.25,0.5","0,1,0,0.5,0.25,0.25,0.25,0.25,0.5","3","",""
"","html-keyboard-response","252","161045","0.0-252.0","3STRJBFXOXDE7QL60A2ASN6PDKSTKN","AKOAKQ1J9B9ET","3CMIQF80GNCSUBAVQ09COGUWLHYQ60","","null","<img src=""img/land5.png"" style=""width:200px;border:14px solid red;"">","null","","","","","","","","","",""
"","image-keyboard-response","253","161054","0.0-253.0","3STRJBFXOXDE7QL60A2ASN6PDKSTKN","AKOAKQ1J9B9ET","3CMIQF80GNCSUBAVQ09COGUWLHYQ60","","6.700000002980232","img/land6.png","75","7.799999997019768","2","0","3","2","1,0,0,0.25,0.5,0.25,0.25,0.25,0.5","0,1,0,0.5,0.25,0.25,0.25,0.25,0.5","3","",""
"","html-keyboard-response","254","161358","0.0-254.0","3STRJBFXOXDE7QL60A2ASN6PDKSTKN","AKOAKQ1J9B9ET","3CMIQF80GNCSUBAVQ09COGUWLHYQ60","","null","<img src=""img/land6.png"" style=""width:200px;border:14px solid red;"">","null","","","","","","","","","",""
"","image-keyboard-response","255","161419","0.0-255.0","3STRJBFXOXDE7QL60A2ASN6PDKSTKN","AKOAKQ1J9B9ET","3CMIQF80GNCSUBAVQ09COGUWLHYQ60","","58.400000005960464","img/land6.png","75","60.400000005960464","2","0","3","2","1,0,0,0.25,0.5,0.25,0.25,0.25,0.5","0,1,0,0.5,0.25,0.25,0.25,0.25,0.5","3","",""
"","html-keyboard-response","256","161722","0.0-256.0","3STRJBFXOXDE7QL60A2ASN6PDKSTKN","AKOAKQ1J9B9ET","3CMIQF80GNCSUBAVQ09COGUWLHYQ60","","null","<img src=""img/land6.png"" style=""width:200px;border:14px solid red;"">","null","","","","","","","","","",""
"","image-keyboard-response","257","161854","0.0-257.0","3STRJBFXOXDE7QL60A2ASN6PDKSTKN","AKOAKQ1J9B9ET","3CMIQF80GNCSUBAVQ09COGUWLHYQ60","","130.20000000298023","img/land6.png","75","131.8999999910593","2","0","3","2","1,0,0,0.25,0.5,0.25,0.25,0.25,0.5","0,1,0,0.5,0.25,0.25,0.25,0.25,0.5","3","",""
"","html-keyboard-response","258","162156","0.0-258.0","3STRJBFXOXDE7QL60A2ASN6PDKSTKN","AKOAKQ1J9B9ET","3CMIQF80GNCSUBAVQ09COGUWLHYQ60","","null","<img src=""img/land6.png"" style=""width:200px;border:14px solid red;"">","null","","","","","","","","","",""
"","image-keyboard-response","259","162216","0.0-259.0","3STRJBFXOXDE7QL60A2ASN6PDKSTKN","AKOAKQ1J9B9ET","3CMIQF80GNCSUBAVQ09COGUWLHYQ60","","58.29999999701977","img/land4.png","75","59.900000005960464","2","1","1","2","1,0,0,0.25,0.5,0.25,0.25,0.25,0.5","0,1,0,0.5,0.25,0.25,0.25,0.25,0.5","3","",""
"","html-keyboard-response","260","162520","0.0-260.0","3STRJBFXOXDE7QL60A2ASN6PDKSTKN","AKOAKQ1J9B9ET","3CMIQF80GNCSUBAVQ09COGUWLHYQ60","","null","<img src=""img/land4.png"" style=""width:200px; border:14px solid green;"">","null","","","","","","","","","",""
"","image-keyboard-response","261","162581","0.0-261.0","3STRJBFXOXDE7QL60A2ASN6PDKSTKN","AKOAKQ1J9B9ET","3CMIQF80GNCSUBAVQ09COGUWLHYQ60","","58.400000005960464","img/land4.png","75","60.400000005960464","2","1","1","2","1,0,0,0.25,0.5,0.25,0.25,0.25,0.5","0,1,0,0.5,0.25,0.25,0.25,0.25,0.5","3","",""
"","html-keyboard-response","262","162884","0.0-262.0","3STRJBFXOXDE7QL60A2ASN6PDKSTKN","AKOAKQ1J9B9ET","3CMIQF80GNCSUBAVQ09COGUWLHYQ60","","null","<img src=""img/land4.png"" style=""width:200px; border:14px solid green;"">","null","","","","","","","","","",""
"","image-keyboard-response","263","163096","0.0-263.0","3STRJBFXOXDE7QL60A2ASN6PDKSTKN","AKOAKQ1J9B9ET","3CMIQF80GNCSUBAVQ09COGUWLHYQ60","","209.29999999701977","img/land4.png","75","211.20000000298023","2","1","1","2","1,0,0,0.25,0.5,0.25,0.25,0.25,0.5","0,1,0,0.5,0.25,0.25,0.25,0.25,0.5","3","",""
"","html-keyboard-response","264","163400","0.0-264.0","3STRJBFXOXDE7QL60A2ASN6PDKSTKN","AKOAKQ1J9B9ET","3CMIQF80GNCSUBAVQ09COGUWLHYQ60","","null","<img src=""img/land4.png"" style=""width:200px; border:14px solid green;"">","null","","","","","","","","","",""
"","image-keyboard-response","265","163570","0.0-265.0","3STRJBFXOXDE7QL60A2ASN6PDKSTKN","AKOAKQ1J9B9ET","3CMIQF80GNCSUBAVQ09COGUWLHYQ60","","168.09999999403954","img/land4.png","75","169.8999999910593","2","1","1","2","1,0,0,0.25,0.5,0.25,0.25,0.25,0.5","0,1,0,0.5,0.25,0.25,0.25,0.25,0.5","3","",""
"","html-keyboard-response","266","163873","0.0-266.0","3STRJBFXOXDE7QL60A2ASN6PDKSTKN","AKOAKQ1J9B9ET","3CMIQF80GNCSUBAVQ09COGUWLHYQ60","","null","<img src=""img/land4.png"" style=""width:200px; border:14px solid green;"">","null","","","","","","","","","",""
"","image-keyboard-response","267","163990","0.0-267.0","3STRJBFXOXDE7QL60A2ASN6PDKSTKN","AKOAKQ1J9B9ET","3CMIQF80GNCSUBAVQ09COGUWLHYQ60","","115.20000000298023","img/land5.png","75","117.29999999701977","2","0","2","2","1,0,0,0.25,0.5,0.25,0.25,0.25,0.5","0,1,0,0.5,0.25,0.25,0.25,0.25,0.5","3","",""
"","html-keyboard-response","268","164292","0.0-268.0","3STRJBFXOXDE7QL60A2ASN6PDKSTKN","AKOAKQ1J9B9ET","3CMIQF80GNCSUBAVQ09COGUWLHYQ60","","null","<img src=""img/land5.png"" style=""width:200px;border:14px solid red;"">","null","","","","","","","","","",""
"","image-keyboard-response","269","164299","0.0-269.0","3STRJBFXOXDE7QL60A2ASN6PDKSTKN","AKOAKQ1J9B9ET","3CMIQF80GNCSUBAVQ09COGUWLHYQ60","","4.5","img/land4.png","75","5.9000000059604645","2","1","1","2","1,0,0,0.25,0.5,0.25,0.25,0.25,0.5","0,1,0,0.5,0.25,0.25,0.25,0.25,0.5","3","",""
"","html-keyboard-response","270","164601","0.0-270.0","3STRJBFXOXDE7QL60A2ASN6PDKSTKN","AKOAKQ1J9B9ET","3CMIQF80GNCSUBAVQ09COGUWLHYQ60","","null","<img src=""img/land4.png"" style=""width:200px; border:14px solid green;"">","null","","","","","","","","","",""
"","image-keyboard-response","271","164982","0.0-271.0","3STRJBFXOXDE7QL60A2ASN6PDKSTKN","AKOAKQ1J9B9ET","3CMIQF80GNCSUBAVQ09COGUWLHYQ60","","379.5","img/land6.png","75","380.90000000596046","2","0","3","2","1,0,0,0.25,0.5,0.25,0.25,0.25,0.5","0,1,0,0.5,0.25,0.25,0.25,0.25,0.5","3","",""
"","html-keyboard-response","272","165284","0.0-272.0","3STRJBFXOXDE7QL60A2ASN6PDKSTKN","AKOAKQ1J9B9ET","3CMIQF80GNCSUBAVQ09COGUWLHYQ60","","null","<img src=""img/land6.png"" style=""width:200px;border:14px solid red;"">","null","","","","","","","","","",""
"","image-keyboard-response","273","165417","0.0-273.0","3STRJBFXOXDE7QL60A2ASN6PDKSTKN","AKOAKQ1J9B9ET","3CMIQF80GNCSUBAVQ09COGUWLHYQ60","","131.09999999403954","img/land4.png","75","132.79999999701977","2","1","1","2","1,0,0,0.25,0.5,0.25,0.25,0.25,0.5","0,1,0,0.5,0.25,0.25,0.25,0.25,0.5","3","",""
"","html-keyboard-response","274","165720","0.0-274.0","3STRJBFXOXDE7QL60A2ASN6PDKSTKN","AKOAKQ1J9B9ET","3CMIQF80GNCSUBAVQ09COGUWLHYQ60","","null","<img src=""img/land4.png"" style=""width:200px; border:14px solid green;"">","null","","","","","","","","","",""
"","image-keyboard-response","275","165735","0.0-275.0","3STRJBFXOXDE7QL60A2ASN6PDKSTKN","AKOAKQ1J9B9ET","3CMIQF80GNCSUBAVQ09COGUWLHYQ60","","13.700000002980232","img/land4.png","75","15.299999997019768","2","1","1","2","1,0,0,0.25,0.5,0.25,0.25,0.25,0.5","0,1,0,0.5,0.25,0.25,0.25,0.25,0.5","3","",""
"","html-keyboard-response","276","166038","0.0-276.0","3STRJBFXOXDE7QL60A2ASN6PDKSTKN","AKOAKQ1J9B9ET","3CMIQF80GNCSUBAVQ09COGUWLHYQ60","","null","<img src=""img/land4.png"" style=""width:200px; border:14px solid green;"">","null","","","","","","","","","",""
"","image-keyboard-response","277","166051","0.0-277.0","3STRJBFXOXDE7QL60A2ASN6PDKSTKN","AKOAKQ1J9B9ET","3CMIQF80GNCSUBAVQ09COGUWLHYQ60","","11.399999991059303","img/land4.png","75","12.700000002980232","2","1","1","2","1,0,0,0.25,0.5,0.25,0.25,0.25,0.5","0,1,0,0.5,0.25,0.25,0.25,0.25,0.5","3","",""
"","html-keyboard-response","278","166354","0.0-278.0","3STRJBFXOXDE7QL60A2ASN6PDKSTKN","AKOAKQ1J9B9ET","3CMIQF80GNCSUBAVQ09COGUWLHYQ60","","null","<img src=""img/land4.png"" style=""width:200px; border:14px solid green;"">","null","","","","","","","","","",""
"","image-keyboard-response","279","166548","0.0-279.0","3STRJBFXOXDE7QL60A2ASN6PDKSTKN","AKOAKQ1J9B9ET","3CMIQF80GNCSUBAVQ09COGUWLHYQ60","","191.80000001192093","img/land5.png","75","193.5","2","0","2","2","1,0,0,0.25,0.5,0.25,0.25,0.25,0.5","0,1,0,0.5,0.25,0.25,0.25,0.25,0.5","3","",""
"","html-keyboard-response","280","166850","0.0-280.0","3STRJBFXOXDE7QL60A2ASN6PDKSTKN","AKOAKQ1J9B9ET","3CMIQF80GNCSUBAVQ09COGUWLHYQ60","","null","<img src=""img/land5.png"" style=""width:200px;border:14px solid red;"">","null","","","","","","","","","",""
"","image-keyboard-response","281","167228","0.0-281.0","3STRJBFXOXDE7QL60A2ASN6PDKSTKN","AKOAKQ1J9B9ET","3CMIQF80GNCSUBAVQ09COGUWLHYQ60","","376.70000000298023","img/land4.png","75","377.90000000596046","2","1","1","2","1,0,0,0.25,0.5,0.25,0.25,0.25,0.5","0,1,0,0.5,0.25,0.25,0.25,0.25,0.5","3","",""
"","html-keyboard-response","282","167531","0.0-282.0","3STRJBFXOXDE7QL60A2ASN6PDKSTKN","AKOAKQ1J9B9ET","3CMIQF80GNCSUBAVQ09COGUWLHYQ60","","null","<img src=""img/land4.png"" style=""width:200px; border:14px solid green;"">","null","","","","","","","","","",""
"","image-keyboard-response","283","167721","0.0-283.0","3STRJBFXOXDE7QL60A2ASN6PDKSTKN","AKOAKQ1J9B9ET","3CMIQF80GNCSUBAVQ09COGUWLHYQ60","","188","img/land4.png","75","189.59999999403954","2","1","1","2","1,0,0,0.25,0.5,0.25,0.25,0.25,0.5","0,1,0,0.5,0.25,0.25,0.25,0.25,0.5","3","",""
"","html-keyboard-response","284","168037","0.0-284.0","3STRJBFXOXDE7QL60A2ASN6PDKSTKN","AKOAKQ1J9B9ET","3CMIQF80GNCSUBAVQ09COGUWLHYQ60","","null","<img src=""img/land4.png"" style=""width:200px; border:14px solid green;"">","null","","","","","","","","","",""
"","image-keyboard-response","285","168429","0.0-285.0","3STRJBFXOXDE7QL60A2ASN6PDKSTKN","AKOAKQ1J9B9ET","3CMIQF80GNCSUBAVQ09COGUWLHYQ60","","390.30000001192093","img/land5.png","75","391.70000000298023","2","0","2","2","1,0,0,0.25,0.5,0.25,0.25,0.25,0.5","0,1,0,0.5,0.25,0.25,0.25,0.25,0.5","3","",""
"","html-keyboard-response","286","168731","0.0-286.0","3STRJBFXOXDE7QL60A2ASN6PDKSTKN","AKOAKQ1J9B9ET","3CMIQF80GNCSUBAVQ09COGUWLHYQ60","","null","<img src=""img/land5.png"" style=""width:200px;border:14px solid red;"">","null","","","","","","","","","",""
"","image-keyboard-response","287","169626","0.0-287.0","3STRJBFXOXDE7QL60A2ASN6PDKSTKN","AKOAKQ1J9B9ET","3CMIQF80GNCSUBAVQ09COGUWLHYQ60","","893.2999999970198","img/land4.png","74","894.9000000059605","1","0","1","2","1,0,0,0.25,0.5,0.25,0.25,0.25,0.5","0,1,0,0.5,0.25,0.25,0.25,0.25,0.5","3","",""
"","html-keyboard-response","288","169930","0.0-288.0","3STRJBFXOXDE7QL60A2ASN6PDKSTKN","AKOAKQ1J9B9ET","3CMIQF80GNCSUBAVQ09COGUWLHYQ60","","null","<img src=""img/land4.png"" style=""width:200px;border:14px solid red;"">","null","","","","","","","","","",""
"","image-keyboard-response","289","169971","0.0-289.0","3STRJBFXOXDE7QL60A2ASN6PDKSTKN","AKOAKQ1J9B9ET","3CMIQF80GNCSUBAVQ09COGUWLHYQ60","","39.29999999701977","img/land4.png","75","40.79999999701977","2","1","1","2","1,0,0,0.25,0.5,0.25,0.25,0.25,0.5","0,1,0,0.5,0.25,0.25,0.25,0.25,0.5","3","",""
"","html-keyboard-response","290","170275","0.0-290.0","3STRJBFXOXDE7QL60A2ASN6PDKSTKN","AKOAKQ1J9B9ET","3CMIQF80GNCSUBAVQ09COGUWLHYQ60","","null","<img src=""img/land4.png"" style=""width:200px; border:14px solid green;"">","null","","","","","","","","","",""
"","image-keyboard-response","291","170373","0.0-291.0","3STRJBFXOXDE7QL60A2ASN6PDKSTKN","AKOAKQ1J9B9ET","3CMIQF80GNCSUBAVQ09COGUWLHYQ60","","95.79999999701977","img/land5.png","75","97.5","2","0","2","2","1,0,0,0.25,0.5,0.25,0.25,0.25,0.5","0,1,0,0.5,0.25,0.25,0.25,0.25,0.5","3","",""
"","html-keyboard-response","292","170675","0.0-292.0","3STRJBFXOXDE7QL60A2ASN6PDKSTKN","AKOAKQ1J9B9ET","3CMIQF80GNCSUBAVQ09COGUWLHYQ60","","null","<img src=""img/land5.png"" style=""width:200px;border:14px solid red;"">","null","","","","","","","","","",""
"","image-keyboard-response","293","170755","0.0-293.0","3STRJBFXOXDE7QL60A2ASN6PDKSTKN","AKOAKQ1J9B9ET","3CMIQF80GNCSUBAVQ09COGUWLHYQ60","","78.09999999403954","img/land6.png","74","79.70000000298023","1","0","3","2","1,0,0,0.25,0.5,0.25,0.25,0.25,0.5","0,1,0,0.5,0.25,0.25,0.25,0.25,0.5","3","",""
"","html-keyboard-response","294","171058","0.0-294.0","3STRJBFXOXDE7QL60A2ASN6PDKSTKN","AKOAKQ1J9B9ET","3CMIQF80GNCSUBAVQ09COGUWLHYQ60","","null","<img src=""img/land6.png"" style=""width:200px;border:14px solid red;"">","null","","","","","","","","","",""
"","image-keyboard-response","295","171093","0.0-295.0","3STRJBFXOXDE7QL60A2ASN6PDKSTKN","AKOAKQ1J9B9ET","3CMIQF80GNCSUBAVQ09COGUWLHYQ60","","33.6000000089407","img/land4.png","74","35.099999994039536","1","0","1","2","1,0,0,0.25,0.5,0.25,0.25,0.25,0.5","0,1,0,0.5,0.25,0.25,0.25,0.25,0.5","3","",""
"","html-keyboard-response","296","171396","0.0-296.0","3STRJBFXOXDE7QL60A2ASN6PDKSTKN","AKOAKQ1J9B9ET","3CMIQF80GNCSUBAVQ09COGUWLHYQ60","","null","<img src=""img/land4.png"" style=""width:200px;border:14px solid red;"">","null","","","","","","","","","",""
"","image-keyboard-response","297","171435","0.0-297.0","3STRJBFXOXDE7QL60A2ASN6PDKSTKN","AKOAKQ1J9B9ET","3CMIQF80GNCSUBAVQ09COGUWLHYQ60","","36.5","img/land4.png","74","38.20000000298023","1","0","1","2","1,0,0,0.25,0.5,0.25,0.25,0.25,0.5","0,1,0,0.5,0.25,0.25,0.25,0.25,0.5","3","",""
"","html-keyboard-response","298","171737","0.0-298.0","3STRJBFXOXDE7QL60A2ASN6PDKSTKN","AKOAKQ1J9B9ET","3CMIQF80GNCSUBAVQ09COGUWLHYQ60","","null","<img src=""img/land4.png"" style=""width:200px;border:14px solid red;"">","null","","","","","","","","","",""
"","image-keyboard-response","299","171815","0.0-299.0","3STRJBFXOXDE7QL60A2ASN6PDKSTKN","AKOAKQ1J9B9ET","3CMIQF80GNCSUBAVQ09COGUWLHYQ60","","75.1000000089407","img/land4.png","75","76.69999998807907","2","1","1","2","1,0,0,0.25,0.5,0.25,0.25,0.25,0.5","0,1,0,0.5,0.25,0.25,0.25,0.25,0.5","3","",""
"","html-keyboard-response","300","172117","0.0-300.0","3STRJBFXOXDE7QL60A2ASN6PDKSTKN","AKOAKQ1J9B9ET","3CMIQF80GNCSUBAVQ09COGUWLHYQ60","","null","<img src=""img/land4.png"" style=""width:200px; border:14px solid green;"">","null","","","","","","","","","",""
"","image-keyboard-response","301","172288","0.0-301.0","3STRJBFXOXDE7QL60A2ASN6PDKSTKN","AKOAKQ1J9B9ET","3CMIQF80GNCSUBAVQ09COGUWLHYQ60","","168.59999999403954","img/land4.png","75","170.29999999701977","2","1","1","2","1,0,0,0.25,0.5,0.25,0.25,0.25,0.5","0,1,0,0.5,0.25,0.25,0.25,0.25,0.5","3","",""
"","html-keyboard-response","302","172591","0.0-302.0","3STRJBFXOXDE7QL60A2ASN6PDKSTKN","AKOAKQ1J9B9ET","3CMIQF80GNCSUBAVQ09COGUWLHYQ60","","null","<img src=""img/land4.png"" style=""width:200px; border:14px solid green;"">","null","","","","","","","","","",""
"","image-keyboard-response","303","172891","0.0-303.0","3STRJBFXOXDE7QL60A2ASN6PDKSTKN","AKOAKQ1J9B9ET","3CMIQF80GNCSUBAVQ09COGUWLHYQ60","","297.29999999701977","img/land6.png","75","299.09999999403954","2","0","3","2","1,0,0,0.25,0.5,0.25,0.25,0.25,0.5","0,1,0,0.5,0.25,0.25,0.25,0.25,0.5","3","",""
"","html-keyboard-response","304","173194","0.0-304.0","3STRJBFXOXDE7QL60A2ASN6PDKSTKN","AKOAKQ1J9B9ET","3CMIQF80GNCSUBAVQ09COGUWLHYQ60","","null","<img src=""img/land6.png"" style=""width:200px;border:14px solid red;"">","null","","","","","","","","","",""
"","image-keyboard-response","305","173291","0.0-305.0","3STRJBFXOXDE7QL60A2ASN6PDKSTKN","AKOAKQ1J9B9ET","3CMIQF80GNCSUBAVQ09COGUWLHYQ60","","95.40000000596046","img/land4.png","74","97.5","1","0","1","2","1,0,0,0.25,0.5,0.25,0.25,0.25,0.5","0,1,0,0.5,0.25,0.25,0.25,0.25,0.5","3","",""
"","html-keyboard-response","306","173593","0.0-306.0","3STRJBFXOXDE7QL60A2ASN6PDKSTKN","AKOAKQ1J9B9ET","3CMIQF80GNCSUBAVQ09COGUWLHYQ60","","null","<img src=""img/land4.png"" style=""width:200px;border:14px solid red;"">","null","","","","","","","","","",""
"","image-keyboard-response","307","173677","0.0-307.0","3STRJBFXOXDE7QL60A2ASN6PDKSTKN","AKOAKQ1J9B9ET","3CMIQF80GNCSUBAVQ09COGUWLHYQ60","","81.8999999910593","img/land4.png","74","83.30000001192093","1","0","1","2","1,0,0,0.25,0.5,0.25,0.25,0.25,0.5","0,1,0,0.5,0.25,0.25,0.25,0.25,0.5","3","",""
"","html-keyboard-response","308","173980","0.0-308.0","3STRJBFXOXDE7QL60A2ASN6PDKSTKN","AKOAKQ1J9B9ET","3CMIQF80GNCSUBAVQ09COGUWLHYQ60","","null","<img src=""img/land4.png"" style=""width:200px;border:14px solid red;"">","null","","","","","","","","","",""
"","image-keyboard-response","309","174047","0.0-309.0","3STRJBFXOXDE7QL60A2ASN6PDKSTKN","AKOAKQ1J9B9ET","3CMIQF80GNCSUBAVQ09COGUWLHYQ60","","65.29999999701977","img/land4.png","75","66.90000000596046","2","1","1","2","1,0,0,0.25,0.5,0.25,0.25,0.25,0.5","0,1,0,0.5,0.25,0.25,0.25,0.25,0.5","3","",""
"","html-keyboard-response","310","174350","0.0-310.0","3STRJBFXOXDE7QL60A2ASN6PDKSTKN","AKOAKQ1J9B9ET","3CMIQF80GNCSUBAVQ09COGUWLHYQ60","","null","<img src=""img/land4.png"" style=""width:200px; border:14px solid green;"">","null","","","","","","","","","",""
"","image-keyboard-response","311","174410","0.0-311.0","3STRJBFXOXDE7QL60A2ASN6PDKSTKN","AKOAKQ1J9B9ET","3CMIQF80GNCSUBAVQ09COGUWLHYQ60","","56.900000005960464","img/land4.png","75","58.900000005960464","2","1","1","2","1,0,0,0.25,0.5,0.25,0.25,0.25,0.5","0,1,0,0.5,0.25,0.25,0.25,0.25,0.5","3","",""
"","html-keyboard-response","312","174714","0.0-312.0","3STRJBFXOXDE7QL60A2ASN6PDKSTKN","AKOAKQ1J9B9ET","3CMIQF80GNCSUBAVQ09COGUWLHYQ60","","null","<img src=""img/land4.png"" style=""width:200px; border:14px solid green;"">","null","","","","","","","","","",""
"","image-keyboard-response","313","174808","0.0-313.0","3STRJBFXOXDE7QL60A2ASN6PDKSTKN","AKOAKQ1J9B9ET","3CMIQF80GNCSUBAVQ09COGUWLHYQ60","","92.20000000298023","img/land6.png","75","93.8999999910593","2","0","3","2","1,0,0,0.25,0.5,0.25,0.25,0.25,0.5","0,1,0,0.5,0.25,0.25,0.25,0.25,0.5","3","",""
"","html-keyboard-response","314","175111","0.0-314.0","3STRJBFXOXDE7QL60A2ASN6PDKSTKN","AKOAKQ1J9B9ET","3CMIQF80GNCSUBAVQ09COGUWLHYQ60","","null","<img src=""img/land6.png"" style=""width:200px;border:14px solid red;"">","null","","","","","","","","","",""
"","image-keyboard-response","315","175320","0.0-315.0","3STRJBFXOXDE7QL60A2ASN6PDKSTKN","AKOAKQ1J9B9ET","3CMIQF80GNCSUBAVQ09COGUWLHYQ60","","206.3999999910593","img/land4.png","74","208.09999999403954","1","0","1","2","1,0,0,0.25,0.5,0.25,0.25,0.25,0.5","0,1,0,0.5,0.25,0.25,0.25,0.25,0.5","3","",""
"","html-keyboard-response","316","175622","0.0-316.0","3STRJBFXOXDE7QL60A2ASN6PDKSTKN","AKOAKQ1J9B9ET","3CMIQF80GNCSUBAVQ09COGUWLHYQ60","","null","<img src=""img/land4.png"" style=""width:200px;border:14px solid red;"">","null","","","","","","","","","",""
"","image-keyboard-response","317","175688","0.0-317.0","3STRJBFXOXDE7QL60A2ASN6PDKSTKN","AKOAKQ1J9B9ET","3CMIQF80GNCSUBAVQ09COGUWLHYQ60","","64.09999999403954","img/land4.png","75","65.70000000298023","2","1","1","2","1,0,0,0.25,0.5,0.25,0.25,0.25,0.5","0,1,0,0.5,0.25,0.25,0.25,0.25,0.5","3","",""
"","html-keyboard-response","318","175990","0.0-318.0","3STRJBFXOXDE7QL60A2ASN6PDKSTKN","AKOAKQ1J9B9ET","3CMIQF80GNCSUBAVQ09COGUWLHYQ60","","null","<img src=""img/land4.png"" style=""width:200px; border:14px solid green;"">","null","","","","","","","","","",""
"","image-keyboard-response","319","176054","0.0-319.0","3STRJBFXOXDE7QL60A2ASN6PDKSTKN","AKOAKQ1J9B9ET","3CMIQF80GNCSUBAVQ09COGUWLHYQ60","","61.70000000298023","img/land6.png","75","63.5","2","1","3","2","1,0,0,0.25,0.5,0.25,0.25,0.25,0.5","0,1,0,0.5,0.25,0.25,0.25,0.25,0.5","3","",""
"","html-keyboard-response","320","176357","0.0-320.0","3STRJBFXOXDE7QL60A2ASN6PDKSTKN","AKOAKQ1J9B9ET","3CMIQF80GNCSUBAVQ09COGUWLHYQ60","","null","<img src=""img/land6.png"" style=""width:200px; border:14px solid green;"">","null","","","","","","","","","",""
"","image-keyboard-response","321","176479","0.0-321.0","3STRJBFXOXDE7QL60A2ASN6PDKSTKN","AKOAKQ1J9B9ET","3CMIQF80GNCSUBAVQ09COGUWLHYQ60","","120.19999998807907","img/land4.png","75","122","2","1","1","2","1,0,0,0.25,0.5,0.25,0.25,0.25,0.5","0,1,0,0.5,0.25,0.25,0.25,0.25,0.5","3","",""
"","html-keyboard-response","322","176782","0.0-322.0","3STRJBFXOXDE7QL60A2ASN6PDKSTKN","AKOAKQ1J9B9ET","3CMIQF80GNCSUBAVQ09COGUWLHYQ60","","null","<img src=""img/land4.png"" style=""width:200px; border:14px solid green;"">","null","","","","","","","","","",""
"","image-keyboard-response","323","177402","0.0-323.0","3STRJBFXOXDE7QL60A2ASN6PDKSTKN","AKOAKQ1J9B9ET","3CMIQF80GNCSUBAVQ09COGUWLHYQ60","","617.7999999970198","img/land6.png","74","619.5","1","0","3","2","1,0,0,0.25,0.5,0.25,0.25,0.25,0.5","0,1,0,0.5,0.25,0.25,0.25,0.25,0.5","3","",""
"","html-keyboard-response","324","177704","0.0-324.0","3STRJBFXOXDE7QL60A2ASN6PDKSTKN","AKOAKQ1J9B9ET","3CMIQF80GNCSUBAVQ09COGUWLHYQ60","","null","<img src=""img/land6.png"" style=""width:200px;border:14px solid red;"">","null","","","","","","","","","",""
"","image-keyboard-response","325","177751","0.0-325.0","3STRJBFXOXDE7QL60A2ASN6PDKSTKN","AKOAKQ1J9B9ET","3CMIQF80GNCSUBAVQ09COGUWLHYQ60","","44.70000000298023","img/land6.png","74","46.29999999701977","1","0","3","2","1,0,0,0.25,0.5,0.25,0.25,0.25,0.5","0,1,0,0.5,0.25,0.25,0.25,0.25,0.5","3","",""
"","html-keyboard-response","326","178053","0.0-326.0","3STRJBFXOXDE7QL60A2ASN6PDKSTKN","AKOAKQ1J9B9ET","3CMIQF80GNCSUBAVQ09COGUWLHYQ60","","null","<img src=""img/land6.png"" style=""width:200px;border:14px solid red;"">","null","","","","","","","","","",""
"","image-keyboard-response","327","178088","0.0-327.0","3STRJBFXOXDE7QL60A2ASN6PDKSTKN","AKOAKQ1J9B9ET","3CMIQF80GNCSUBAVQ09COGUWLHYQ60","","32.599999994039536","img/land6.png","75","34.30000001192093","2","0","3","2","1,0,0,0.25,0.5,0.25,0.25,0.25,0.5","0,1,0,0.5,0.25,0.25,0.25,0.25,0.5","3","",""
"","html-keyboard-response","328","178391","0.0-328.0","3STRJBFXOXDE7QL60A2ASN6PDKSTKN","AKOAKQ1J9B9ET","3CMIQF80GNCSUBAVQ09COGUWLHYQ60","","null","<img src=""img/land6.png"" style=""width:200px;border:14px solid red;"">","null","","","","","","","","","",""
"","image-keyboard-response","329","178394","0.0-329.0","3STRJBFXOXDE7QL60A2ASN6PDKSTKN","AKOAKQ1J9B9ET","3CMIQF80GNCSUBAVQ09COGUWLHYQ60","","1.0999999940395355","img/land4.png","75","2.6000000089406967","2","1","1","2","1,0,0,0.25,0.5,0.25,0.25,0.25,0.5","0,1,0,0.5,0.25,0.25,0.25,0.25,0.5","3","",""
"","html-keyboard-response","330","178697","0.0-330.0","3STRJBFXOXDE7QL60A2ASN6PDKSTKN","AKOAKQ1J9B9ET","3CMIQF80GNCSUBAVQ09COGUWLHYQ60","","null","<img src=""img/land4.png"" style=""width:200px; border:14px solid green;"">","null","","","","","","","","","",""
"","image-keyboard-response","331","178773","0.0-331.0","3STRJBFXOXDE7QL60A2ASN6PDKSTKN","AKOAKQ1J9B9ET","3CMIQF80GNCSUBAVQ09COGUWLHYQ60","","74","img/land4.png","75","75.79999999701977","2","1","1","2","1,0,0,0.25,0.5,0.25,0.25,0.25,0.5","0,1,0,0.5,0.25,0.25,0.25,0.25,0.5","3","",""
"","html-keyboard-response","332","179076","0.0-332.0","3STRJBFXOXDE7QL60A2ASN6PDKSTKN","AKOAKQ1J9B9ET","3CMIQF80GNCSUBAVQ09COGUWLHYQ60","","null","<img src=""img/land4.png"" style=""width:200px; border:14px solid green;"">","null","","","","","","","","","",""
"","image-keyboard-response","333","179217","0.0-333.0","3STRJBFXOXDE7QL60A2ASN6PDKSTKN","AKOAKQ1J9B9ET","3CMIQF80GNCSUBAVQ09COGUWLHYQ60","","139.29999999701977","img/land5.png","75","141","2","1","2","2","1,0,0,0.25,0.5,0.25,0.25,0.25,0.5","0,1,0,0.5,0.25,0.25,0.25,0.25,0.5","3","",""
"","html-keyboard-response","334","179520","0.0-334.0","3STRJBFXOXDE7QL60A2ASN6PDKSTKN","AKOAKQ1J9B9ET","3CMIQF80GNCSUBAVQ09COGUWLHYQ60","","null","<img src=""img/land5.png"" style=""width:200px; border:14px solid green;"">","null","","","","","","","","","",""
"","image-keyboard-response","335","179615","0.0-335.0","3STRJBFXOXDE7QL60A2ASN6PDKSTKN","AKOAKQ1J9B9ET","3CMIQF80GNCSUBAVQ09COGUWLHYQ60","","92.79999999701977","img/land5.png","75","94.40000000596046","2","0","2","2","1,0,0,0.25,0.5,0.25,0.25,0.25,0.5","0,1,0,0.5,0.25,0.25,0.25,0.25,0.5","3","",""
"","html-keyboard-response","336","179918","0.0-336.0","3STRJBFXOXDE7QL60A2ASN6PDKSTKN","AKOAKQ1J9B9ET","3CMIQF80GNCSUBAVQ09COGUWLHYQ60","","null","<img src=""img/land5.png"" style=""width:200px;border:14px solid red;"">","null","","","","","","","","","",""
"","image-keyboard-response","337","180048","0.0-337.0","3STRJBFXOXDE7QL60A2ASN6PDKSTKN","AKOAKQ1J9B9ET","3CMIQF80GNCSUBAVQ09COGUWLHYQ60","","128.29999999701977","img/land6.png","74","130","1","0","3","2","1,0,0,0.25,0.5,0.25,0.25,0.25,0.5","0,1,0,0.5,0.25,0.25,0.25,0.25,0.5","3","",""
"","html-keyboard-response","338","180352","0.0-338.0","3STRJBFXOXDE7QL60A2ASN6PDKSTKN","AKOAKQ1J9B9ET","3CMIQF80GNCSUBAVQ09COGUWLHYQ60","","null","<img src=""img/land6.png"" style=""width:200px;border:14px solid red;"">","null","","","","","","","","","",""
"","image-keyboard-response","339","180442","0.0-339.0","3STRJBFXOXDE7QL60A2ASN6PDKSTKN","AKOAKQ1J9B9ET","3CMIQF80GNCSUBAVQ09COGUWLHYQ60","","87.79999999701977","img/land6.png","74","90","1","1","3","2","1,0,0,0.25,0.5,0.25,0.25,0.25,0.5","0,1,0,0.5,0.25,0.25,0.25,0.25,0.5","3","",""
"","html-keyboard-response","340","180746","0.0-340.0","3STRJBFXOXDE7QL60A2ASN6PDKSTKN","AKOAKQ1J9B9ET","3CMIQF80GNCSUBAVQ09COGUWLHYQ60","","null","<img src=""img/land6.png"" style=""width:200px; border:14px solid green;"">","null","","","","","","","","","",""
"","image-keyboard-response","341","180758","0.0-341.0","3STRJBFXOXDE7QL60A2ASN6PDKSTKN","AKOAKQ1J9B9ET","3CMIQF80GNCSUBAVQ09COGUWLHYQ60","","9.799999997019768","img/land4.png","74","11.100000008940697","1","0","1","2","1,0,0,0.25,0.5,0.25,0.25,0.25,0.5","0,1,0,0.5,0.25,0.25,0.25,0.25,0.5","3","",""
"","html-keyboard-response","342","181060","0.0-342.0","3STRJBFXOXDE7QL60A2ASN6PDKSTKN","AKOAKQ1J9B9ET","3CMIQF80GNCSUBAVQ09COGUWLHYQ60","","null","<img src=""img/land4.png"" style=""width:200px;border:14px solid red;"">","null","","","","","","","","","",""
"","image-keyboard-response","343","181196","0.0-343.0","3STRJBFXOXDE7QL60A2ASN6PDKSTKN","AKOAKQ1J9B9ET","3CMIQF80GNCSUBAVQ09COGUWLHYQ60","","134","img/land4.png","75","135.40000000596046","2","1","1","2","1,0,0,0.25,0.5,0.25,0.25,0.25,0.5","0,1,0,0.5,0.25,0.25,0.25,0.25,0.5","3","",""
"","html-keyboard-response","344","181499","0.0-344.0","3STRJBFXOXDE7QL60A2ASN6PDKSTKN","AKOAKQ1J9B9ET","3CMIQF80GNCSUBAVQ09COGUWLHYQ60","","null","<img src=""img/land4.png"" style=""width:200px; border:14px solid green;"">","null","","","","","","","","","",""
"","image-keyboard-response","345","181606","0.0-345.0","3STRJBFXOXDE7QL60A2ASN6PDKSTKN","AKOAKQ1J9B9ET","3CMIQF80GNCSUBAVQ09COGUWLHYQ60","","104.8999999910593","img/land4.png","74","106.5","1","0","1","2","1,0,0,0.25,0.5,0.25,0.25,0.25,0.5","0,1,0,0.5,0.25,0.25,0.25,0.25,0.5","3","",""
"","html-keyboard-response","346","181909","0.0-346.0","3STRJBFXOXDE7QL60A2ASN6PDKSTKN","AKOAKQ1J9B9ET","3CMIQF80GNCSUBAVQ09COGUWLHYQ60","","null","<img src=""img/land4.png"" style=""width:200px;border:14px solid red;"">","null","","","","","","","","","",""
"","image-keyboard-response","347","181912","0.0-347.0","3STRJBFXOXDE7QL60A2ASN6PDKSTKN","AKOAKQ1J9B9ET","3CMIQF80GNCSUBAVQ09COGUWLHYQ60","","1","img/land4.png","75","2.8999999910593033","2","1","1","2","1,0,0,0.25,0.5,0.25,0.25,0.25,0.5","0,1,0,0.5,0.25,0.25,0.25,0.25,0.5","3","",""
"","html-keyboard-response","348","182214","0.0-348.0","3STRJBFXOXDE7QL60A2ASN6PDKSTKN","AKOAKQ1J9B9ET","3CMIQF80GNCSUBAVQ09COGUWLHYQ60","","null","<img src=""img/land4.png"" style=""width:200px; border:14px solid green;"">","null","","","","","","","","","",""
"","image-keyboard-response","349","182404","0.0-349.0","3STRJBFXOXDE7QL60A2ASN6PDKSTKN","AKOAKQ1J9B9ET","3CMIQF80GNCSUBAVQ09COGUWLHYQ60","","187.79999999701977","img/land6.png","75","189.5","2","1","3","2","1,0,0,0.25,0.5,0.25,0.25,0.25,0.5","0,1,0,0.5,0.25,0.25,0.25,0.25,0.5","3","",""
"","html-keyboard-response","350","182707","0.0-350.0","3STRJBFXOXDE7QL60A2ASN6PDKSTKN","AKOAKQ1J9B9ET","3CMIQF80GNCSUBAVQ09COGUWLHYQ60","","null","<img src=""img/land6.png"" style=""width:200px; border:14px solid green;"">","null","","","","","","","","","",""
"","image-keyboard-response","351","182802","0.0-351.0","3STRJBFXOXDE7QL60A2ASN6PDKSTKN","AKOAKQ1J9B9ET","3CMIQF80GNCSUBAVQ09COGUWLHYQ60","","93.1000000089407","img/land4.png","74","94.70000000298023","1","0","1","2","1,0,0,0.25,0.5,0.25,0.25,0.25,0.5","0,1,0,0.5,0.25,0.25,0.25,0.25,0.5","3","",""
"","html-keyboard-response","352","183104","0.0-352.0","3STRJBFXOXDE7QL60A2ASN6PDKSTKN","AKOAKQ1J9B9ET","3CMIQF80GNCSUBAVQ09COGUWLHYQ60","","null","<img src=""img/land4.png"" style=""width:200px;border:14px solid red;"">","null","","","","","","","","","",""
"","image-keyboard-response","353","183443","0.0-353.0","3STRJBFXOXDE7QL60A2ASN6PDKSTKN","AKOAKQ1J9B9ET","3CMIQF80GNCSUBAVQ09COGUWLHYQ60","","336.70000000298023","img/land4.png","75","338.30000001192093","2","1","1","2","1,0,0,0.25,0.5,0.25,0.25,0.25,0.5","0,1,0,0.5,0.25,0.25,0.25,0.25,0.5","3","",""
"","html-keyboard-response","354","183746","0.0-354.0","3STRJBFXOXDE7QL60A2ASN6PDKSTKN","AKOAKQ1J9B9ET","3CMIQF80GNCSUBAVQ09COGUWLHYQ60","","null","<img src=""img/land4.png"" style=""width:200px; border:14px solid green;"">","null","","","","","","","","","",""
"","image-keyboard-response","355","183939","0.0-355.0","3STRJBFXOXDE7QL60A2ASN6PDKSTKN","AKOAKQ1J9B9ET","3CMIQF80GNCSUBAVQ09COGUWLHYQ60","","191","img/land4.png","74","192.69999998807907","1","0","1","2","1,0,0,0.25,0.5,0.25,0.25,0.25,0.5","0,1,0,0.5,0.25,0.25,0.25,0.25,0.5","3","",""
"","html-keyboard-response","356","184242","0.0-356.0","3STRJBFXOXDE7QL60A2ASN6PDKSTKN","AKOAKQ1J9B9ET","3CMIQF80GNCSUBAVQ09COGUWLHYQ60","","null","<img src=""img/land4.png"" style=""width:200px;border:14px solid red;"">","null","","","","","","","","","",""
"","image-keyboard-response","357","184267","0.0-357.0","3STRJBFXOXDE7QL60A2ASN6PDKSTKN","AKOAKQ1J9B9ET","3CMIQF80GNCSUBAVQ09COGUWLHYQ60","","23","img/land4.png","74","24.700000002980232","1","0","1","2","1,0,0,0.25,0.5,0.25,0.25,0.25,0.5","0,1,0,0.5,0.25,0.25,0.25,0.25,0.5","3","",""
"","html-keyboard-response","358","184570","0.0-358.0","3STRJBFXOXDE7QL60A2ASN6PDKSTKN","AKOAKQ1J9B9ET","3CMIQF80GNCSUBAVQ09COGUWLHYQ60","","null","<img src=""img/land4.png"" style=""width:200px;border:14px solid red;"">","null","","","","","","","","","",""
