"success","trial_type","trial_index","time_elapsed","internal_node_id","assignmentID","mturkID","hitID","view_history","rt","stimulus","key_press","reactionTime","a","r","s","cond","reward_cond","reward_cond_actual","reward_matrix_idx","responses","question_order"
"true","fullscreen","0","9712","0.0-0.0","3F6HPJW4JEMBIRLA691HFBRU07HW29","AKX4H8RT7BL7H","3WPCIUYH1AU470H2HRBLZRFBM95TDS","","","","","","","","","","","","","",""
"","instructions","1","37749","0.0-1.0","3F6HPJW4JEMBIRLA691HFBRU07HW29","AKX4H8RT7BL7H","3WPCIUYH1AU470H2HRBLZRFBM95TDS","[{""page_index"":0,""viewing_time"":14997.5},{""page_index"":1,""viewing_time"":1001.1000003814697},{""page_index"":2,""viewing_time"":550.1999998092651},{""page_index"":3,""viewing_time"":2500.1000003814697},{""page_index"":4,""viewing_time"":1350},{""page_index"":5,""viewing_time"":1099.8999996185303},{""page_index"":6,""viewing_time"":6537.800000190735}]","28037.20000076294","","","","","","","","","","","",""
"","image-keyboard-response","2","39258","0.0-2.0","3F6HPJW4JEMBIRLA691HFBRU07HW29","AKX4H8RT7BL7H","3WPCIUYH1AU470H2HRBLZRFBM95TDS","","","img/land2.png","","1508.5999994277954","-1","0","2","2","1,0.7,0.7,0.7,1,0.7,0.7,0.7,1","1,0.7,0.7,0.7,1,0.7,0.7,0.7,1","","",""
"","html-keyboard-response","3","39565","0.0-3.0","3F6HPJW4JEMBIRLA691HFBRU07HW29","AKX4H8RT7BL7H","3WPCIUYH1AU470H2HRBLZRFBM95TDS","","null","<img src=""img/land2.png"" style=""width:200px;border:14px solid red;"">","null","","","","","","","","","",""
"","image-keyboard-response","4","40525","0.0-4.0","3F6HPJW4JEMBIRLA691HFBRU07HW29","AKX4H8RT7BL7H","3WPCIUYH1AU470H2HRBLZRFBM95TDS","","959.2000007629395","img/land3.png","76","960.3000001907349","3","1","3","2","1,0.7,0.7,0.7,1,0.7,0.7,0.7,1","1,0.7,0.7,0.7,1,0.7,0.7,0.7,1","","",""
"","html-keyboard-response","5","40832","0.0-5.0","3F6HPJW4JEMBIRLA691HFBRU07HW29","AKX4H8RT7BL7H","3WPCIUYH1AU470H2HRBLZRFBM95TDS","","null","<img src=""img/land3.png"" style=""width:200px; border:14px solid green;"">","null","","","","","","","","","",""
"","image-keyboard-response","6","41597","0.0-6.0","3F6HPJW4JEMBIRLA691HFBRU07HW29","AKX4H8RT7BL7H","3WPCIUYH1AU470H2HRBLZRFBM95TDS","","762.8000001907349","img/land2.png","75","764.0999994277954","2","1","2","2","1,0.7,0.7,0.7,1,0.7,0.7,0.7,1","1,0.7,0.7,0.7,1,0.7,0.7,0.7,1","","",""
"","html-keyboard-response","7","41904","0.0-7.0","3F6HPJW4JEMBIRLA691HFBRU07HW29","AKX4H8RT7BL7H","3WPCIUYH1AU470H2HRBLZRFBM95TDS","","null","<img src=""img/land2.png"" style=""width:200px; border:14px solid green;"">","null","","","","","","","","","",""
"","image-keyboard-response","8","43410","0.0-8.0","3F6HPJW4JEMBIRLA691HFBRU07HW29","AKX4H8RT7BL7H","3WPCIUYH1AU470H2HRBLZRFBM95TDS","","","img/land2.png","","1506.9000005722046","-1","0","2","2","1,0.7,0.7,0.7,1,0.7,0.7,0.7,1","1,0.7,0.7,0.7,1,0.7,0.7,0.7,1","","",""
"","html-keyboard-response","9","43719","0.0-9.0","3F6HPJW4JEMBIRLA691HFBRU07HW29","AKX4H8RT7BL7H","3WPCIUYH1AU470H2HRBLZRFBM95TDS","","null","<img src=""img/land2.png"" style=""width:200px;border:14px solid red;"">","null","","","","","","","","","",""
"","image-keyboard-response","10","44510","0.0-10.0","3F6HPJW4JEMBIRLA691HFBRU07HW29","AKX4H8RT7BL7H","3WPCIUYH1AU470H2HRBLZRFBM95TDS","","789.0999994277954","img/land1.png","74","790.8000001907349","1","1","1","2","1,0.7,0.7,0.7,1,0.7,0.7,0.7,1","1,0.7,0.7,0.7,1,0.7,0.7,0.7,1","","",""
"","html-keyboard-response","11","44817","0.0-11.0","3F6HPJW4JEMBIRLA691HFBRU07HW29","AKX4H8RT7BL7H","3WPCIUYH1AU470H2HRBLZRFBM95TDS","","null","<img src=""img/land1.png"" style=""width:200px; border:14px solid green;"">","null","","","","","","","","","",""
"","image-keyboard-response","12","45791","0.0-12.0","3F6HPJW4JEMBIRLA691HFBRU07HW29","AKX4H8RT7BL7H","3WPCIUYH1AU470H2HRBLZRFBM95TDS","","973.5","img/land3.png","76","974.6000003814697","3","1","3","2","1,0.7,0.7,0.7,1,0.7,0.7,0.7,1","1,0.7,0.7,0.7,1,0.7,0.7,0.7,1","","",""
"","html-keyboard-response","13","46098","0.0-13.0","3F6HPJW4JEMBIRLA691HFBRU07HW29","AKX4H8RT7BL7H","3WPCIUYH1AU470H2HRBLZRFBM95TDS","","null","<img src=""img/land3.png"" style=""width:200px; border:14px solid green;"">","null","","","","","","","","","",""
"","image-keyboard-response","14","46828","0.0-14.0","3F6HPJW4JEMBIRLA691HFBRU07HW29","AKX4H8RT7BL7H","3WPCIUYH1AU470H2HRBLZRFBM95TDS","","728.5","img/land2.png","75","729.6000003814697","2","1","2","2","1,0.7,0.7,0.7,1,0.7,0.7,0.7,1","1,0.7,0.7,0.7,1,0.7,0.7,0.7,1","","",""
"","html-keyboard-response","15","47131","0.0-15.0","3F6HPJW4JEMBIRLA691HFBRU07HW29","AKX4H8RT7BL7H","3WPCIUYH1AU470H2HRBLZRFBM95TDS","","null","<img src=""img/land2.png"" style=""width:200px; border:14px solid green;"">","null","","","","","","","","","",""
"","image-keyboard-response","16","48009","0.0-16.0","3F6HPJW4JEMBIRLA691HFBRU07HW29","AKX4H8RT7BL7H","3WPCIUYH1AU470H2HRBLZRFBM95TDS","","877.2000007629395","img/land1.png","76","878.0999994277954","3","1","1","2","1,0.7,0.7,0.7,1,0.7,0.7,0.7,1","1,0.7,0.7,0.7,1,0.7,0.7,0.7,1","","",""
"","html-keyboard-response","17","48316","0.0-17.0","3F6HPJW4JEMBIRLA691HFBRU07HW29","AKX4H8RT7BL7H","3WPCIUYH1AU470H2HRBLZRFBM95TDS","","null","<img src=""img/land1.png"" style=""width:200px; border:14px solid green;"">","null","","","","","","","","","",""
"","image-keyboard-response","18","49147","0.0-18.0","3F6HPJW4JEMBIRLA691HFBRU07HW29","AKX4H8RT7BL7H","3WPCIUYH1AU470H2HRBLZRFBM95TDS","","830.1999998092651","img/land2.png","75","831.5","2","1","2","2","1,0.7,0.7,0.7,1,0.7,0.7,0.7,1","1,0.7,0.7,0.7,1,0.7,0.7,0.7,1","","",""
"","html-keyboard-response","19","49451","0.0-19.0","3F6HPJW4JEMBIRLA691HFBRU07HW29","AKX4H8RT7BL7H","3WPCIUYH1AU470H2HRBLZRFBM95TDS","","null","<img src=""img/land2.png"" style=""width:200px; border:14px solid green;"">","null","","","","","","","","","",""
"","image-keyboard-response","20","50731","0.0-20.0","3F6HPJW4JEMBIRLA691HFBRU07HW29","AKX4H8RT7BL7H","3WPCIUYH1AU470H2HRBLZRFBM95TDS","","1279.1999998092651","img/land2.png","75","1280.2999992370605","2","1","2","2","1,0.7,0.7,0.7,1,0.7,0.7,0.7,1","1,0.7,0.7,0.7,1,0.7,0.7,0.7,1","","",""
"","html-keyboard-response","21","51039","0.0-21.0","3F6HPJW4JEMBIRLA691HFBRU07HW29","AKX4H8RT7BL7H","3WPCIUYH1AU470H2HRBLZRFBM95TDS","","null","<img src=""img/land2.png"" style=""width:200px; border:14px solid green;"">","null","","","","","","","","","",""
"","image-keyboard-response","22","51778","0.0-22.0","3F6HPJW4JEMBIRLA691HFBRU07HW29","AKX4H8RT7BL7H","3WPCIUYH1AU470H2HRBLZRFBM95TDS","","737","img/land3.png","76","738.3999996185303","3","1","3","2","1,0.7,0.7,0.7,1,0.7,0.7,0.7,1","1,0.7,0.7,0.7,1,0.7,0.7,0.7,1","","",""
"","html-keyboard-response","23","52080","0.0-23.0","3F6HPJW4JEMBIRLA691HFBRU07HW29","AKX4H8RT7BL7H","3WPCIUYH1AU470H2HRBLZRFBM95TDS","","null","<img src=""img/land3.png"" style=""width:200px; border:14px solid green;"">","null","","","","","","","","","",""
"","image-keyboard-response","24","53288","0.0-24.0","3F6HPJW4JEMBIRLA691HFBRU07HW29","AKX4H8RT7BL7H","3WPCIUYH1AU470H2HRBLZRFBM95TDS","","1205.2999992370605","img/land3.png","76","1206.8999996185303","3","1","3","2","1,0.7,0.7,0.7,1,0.7,0.7,0.7,1","1,0.7,0.7,0.7,1,0.7,0.7,0.7,1","","",""
"","html-keyboard-response","25","53590","0.0-25.0","3F6HPJW4JEMBIRLA691HFBRU07HW29","AKX4H8RT7BL7H","3WPCIUYH1AU470H2HRBLZRFBM95TDS","","null","<img src=""img/land3.png"" style=""width:200px; border:14px solid green;"">","null","","","","","","","","","",""
"","image-keyboard-response","26","54574","0.0-26.0","3F6HPJW4JEMBIRLA691HFBRU07HW29","AKX4H8RT7BL7H","3WPCIUYH1AU470H2HRBLZRFBM95TDS","","982.5","img/land1.png","74","984.0999994277954","1","1","1","2","1,0.7,0.7,0.7,1,0.7,0.7,0.7,1","1,0.7,0.7,0.7,1,0.7,0.7,0.7,1","","",""
"","html-keyboard-response","27","54881","0.0-27.0","3F6HPJW4JEMBIRLA691HFBRU07HW29","AKX4H8RT7BL7H","3WPCIUYH1AU470H2HRBLZRFBM95TDS","","null","<img src=""img/land1.png"" style=""width:200px; border:14px solid green;"">","null","","","","","","","","","",""
"","image-keyboard-response","28","55774","0.0-28.0","3F6HPJW4JEMBIRLA691HFBRU07HW29","AKX4H8RT7BL7H","3WPCIUYH1AU470H2HRBLZRFBM95TDS","","891.3999996185303","img/land3.png","76","892.9000005722046","3","1","3","2","1,0.7,0.7,0.7,1,0.7,0.7,0.7,1","1,0.7,0.7,0.7,1,0.7,0.7,0.7,1","","",""
"","html-keyboard-response","29","56080","0.0-29.0","3F6HPJW4JEMBIRLA691HFBRU07HW29","AKX4H8RT7BL7H","3WPCIUYH1AU470H2HRBLZRFBM95TDS","","null","<img src=""img/land3.png"" style=""width:200px; border:14px solid green;"">","null","","","","","","","","","",""
"","image-keyboard-response","30","57027","0.0-30.0","3F6HPJW4JEMBIRLA691HFBRU07HW29","AKX4H8RT7BL7H","3WPCIUYH1AU470H2HRBLZRFBM95TDS","","944.5","img/land1.png","75","946.4000005722046","2","1","1","2","1,0.7,0.7,0.7,1,0.7,0.7,0.7,1","1,0.7,0.7,0.7,1,0.7,0.7,0.7,1","","",""
"","html-keyboard-response","31","57328","0.0-31.0","3F6HPJW4JEMBIRLA691HFBRU07HW29","AKX4H8RT7BL7H","3WPCIUYH1AU470H2HRBLZRFBM95TDS","","null","<img src=""img/land1.png"" style=""width:200px; border:14px solid green;"">","null","","","","","","","","","",""
"","image-keyboard-response","32","57917","0.0-32.0","3F6HPJW4JEMBIRLA691HFBRU07HW29","AKX4H8RT7BL7H","3WPCIUYH1AU470H2HRBLZRFBM95TDS","","586.8000001907349","img/land3.png","76","588.5999994277954","3","1","3","2","1,0.7,0.7,0.7,1,0.7,0.7,0.7,1","1,0.7,0.7,0.7,1,0.7,0.7,0.7,1","","",""
"","html-keyboard-response","33","58222","0.0-33.0","3F6HPJW4JEMBIRLA691HFBRU07HW29","AKX4H8RT7BL7H","3WPCIUYH1AU470H2HRBLZRFBM95TDS","","null","<img src=""img/land3.png"" style=""width:200px; border:14px solid green;"">","null","","","","","","","","","",""
"","image-keyboard-response","34","58747","0.0-34.0","3F6HPJW4JEMBIRLA691HFBRU07HW29","AKX4H8RT7BL7H","3WPCIUYH1AU470H2HRBLZRFBM95TDS","","523","img/land3.png","76","524.6999998092651","3","1","3","2","1,0.7,0.7,0.7,1,0.7,0.7,0.7,1","1,0.7,0.7,0.7,1,0.7,0.7,0.7,1","","",""
"","html-keyboard-response","35","59054","0.0-35.0","3F6HPJW4JEMBIRLA691HFBRU07HW29","AKX4H8RT7BL7H","3WPCIUYH1AU470H2HRBLZRFBM95TDS","","null","<img src=""img/land3.png"" style=""width:200px; border:14px solid green;"">","null","","","","","","","","","",""
"","image-keyboard-response","36","59889","0.0-36.0","3F6HPJW4JEMBIRLA691HFBRU07HW29","AKX4H8RT7BL7H","3WPCIUYH1AU470H2HRBLZRFBM95TDS","","833","img/land2.png","75","834.3000001907349","2","1","2","2","1,0.7,0.7,0.7,1,0.7,0.7,0.7,1","1,0.7,0.7,0.7,1,0.7,0.7,0.7,1","","",""
"","html-keyboard-response","37","60195","0.0-37.0","3F6HPJW4JEMBIRLA691HFBRU07HW29","AKX4H8RT7BL7H","3WPCIUYH1AU470H2HRBLZRFBM95TDS","","null","<img src=""img/land2.png"" style=""width:200px; border:14px solid green;"">","null","","","","","","","","","",""
"","image-keyboard-response","38","61130","0.0-38.0","3F6HPJW4JEMBIRLA691HFBRU07HW29","AKX4H8RT7BL7H","3WPCIUYH1AU470H2HRBLZRFBM95TDS","","933.3000001907349","img/land3.png","76","935","3","1","3","2","1,0.7,0.7,0.7,1,0.7,0.7,0.7,1","1,0.7,0.7,0.7,1,0.7,0.7,0.7,1","","",""
"","html-keyboard-response","39","61435","0.0-39.0","3F6HPJW4JEMBIRLA691HFBRU07HW29","AKX4H8RT7BL7H","3WPCIUYH1AU470H2HRBLZRFBM95TDS","","null","<img src=""img/land3.png"" style=""width:200px; border:14px solid green;"">","null","","","","","","","","","",""
"","image-keyboard-response","40","62377","0.0-40.0","3F6HPJW4JEMBIRLA691HFBRU07HW29","AKX4H8RT7BL7H","3WPCIUYH1AU470H2HRBLZRFBM95TDS","","941.1000003814697","img/land1.png","74","942.3999996185303","1","1","1","2","1,0.7,0.7,0.7,1,0.7,0.7,0.7,1","1,0.7,0.7,0.7,1,0.7,0.7,0.7,1","","",""
"","html-keyboard-response","41","62682","0.0-41.0","3F6HPJW4JEMBIRLA691HFBRU07HW29","AKX4H8RT7BL7H","3WPCIUYH1AU470H2HRBLZRFBM95TDS","","null","<img src=""img/land1.png"" style=""width:200px; border:14px solid green;"">","null","","","","","","","","","",""
"","image-keyboard-response","42","63460","0.0-42.0","3F6HPJW4JEMBIRLA691HFBRU07HW29","AKX4H8RT7BL7H","3WPCIUYH1AU470H2HRBLZRFBM95TDS","","775.3000001907349","img/land3.png","76","777.3000001907349","3","1","3","2","1,0.7,0.7,0.7,1,0.7,0.7,0.7,1","1,0.7,0.7,0.7,1,0.7,0.7,0.7,1","","",""
"","html-keyboard-response","43","63765","0.0-43.0","3F6HPJW4JEMBIRLA691HFBRU07HW29","AKX4H8RT7BL7H","3WPCIUYH1AU470H2HRBLZRFBM95TDS","","null","<img src=""img/land3.png"" style=""width:200px; border:14px solid green;"">","null","","","","","","","","","",""
"","image-keyboard-response","44","64603","0.0-44.0","3F6HPJW4JEMBIRLA691HFBRU07HW29","AKX4H8RT7BL7H","3WPCIUYH1AU470H2HRBLZRFBM95TDS","","837.4000005722046","img/land2.png","75","838.3000001907349","2","1","2","2","1,0.7,0.7,0.7,1,0.7,0.7,0.7,1","1,0.7,0.7,0.7,1,0.7,0.7,0.7,1","","",""
"","html-keyboard-response","45","64911","0.0-45.0","3F6HPJW4JEMBIRLA691HFBRU07HW29","AKX4H8RT7BL7H","3WPCIUYH1AU470H2HRBLZRFBM95TDS","","null","<img src=""img/land2.png"" style=""width:200px; border:14px solid green;"">","null","","","","","","","","","",""
"","image-keyboard-response","46","65686","0.0-46.0","3F6HPJW4JEMBIRLA691HFBRU07HW29","AKX4H8RT7BL7H","3WPCIUYH1AU470H2HRBLZRFBM95TDS","","773.9000005722046","img/land3.png","76","775.3999996185303","3","1","3","2","1,0.7,0.7,0.7,1,0.7,0.7,0.7,1","1,0.7,0.7,0.7,1,0.7,0.7,0.7,1","","",""
"","html-keyboard-response","47","65993","0.0-47.0","3F6HPJW4JEMBIRLA691HFBRU07HW29","AKX4H8RT7BL7H","3WPCIUYH1AU470H2HRBLZRFBM95TDS","","null","<img src=""img/land3.png"" style=""width:200px; border:14px solid green;"">","null","","","","","","","","","",""
"","image-keyboard-response","48","66559","0.0-48.0","3F6HPJW4JEMBIRLA691HFBRU07HW29","AKX4H8RT7BL7H","3WPCIUYH1AU470H2HRBLZRFBM95TDS","","564.1000003814697","img/land3.png","76","565.9000005722046","3","1","3","2","1,0.7,0.7,0.7,1,0.7,0.7,0.7,1","1,0.7,0.7,0.7,1,0.7,0.7,0.7,1","","",""
"","html-keyboard-response","49","66866","0.0-49.0","3F6HPJW4JEMBIRLA691HFBRU07HW29","AKX4H8RT7BL7H","3WPCIUYH1AU470H2HRBLZRFBM95TDS","","null","<img src=""img/land3.png"" style=""width:200px; border:14px solid green;"">","null","","","","","","","","","",""
"","image-keyboard-response","50","67409","0.0-50.0","3F6HPJW4JEMBIRLA691HFBRU07HW29","AKX4H8RT7BL7H","3WPCIUYH1AU470H2HRBLZRFBM95TDS","","540.6999998092651","img/land3.png","76","542.4000005722046","3","1","3","2","1,0.7,0.7,0.7,1,0.7,0.7,0.7,1","1,0.7,0.7,0.7,1,0.7,0.7,0.7,1","","",""
"","html-keyboard-response","51","67717","0.0-51.0","3F6HPJW4JEMBIRLA691HFBRU07HW29","AKX4H8RT7BL7H","3WPCIUYH1AU470H2HRBLZRFBM95TDS","","null","<img src=""img/land3.png"" style=""width:200px; border:14px solid green;"">","null","","","","","","","","","",""
"","image-keyboard-response","52","68475","0.0-52.0","3F6HPJW4JEMBIRLA691HFBRU07HW29","AKX4H8RT7BL7H","3WPCIUYH1AU470H2HRBLZRFBM95TDS","","757","img/land2.png","75","758.0999994277954","2","1","2","2","1,0.7,0.7,0.7,1,0.7,0.7,0.7,1","1,0.7,0.7,0.7,1,0.7,0.7,0.7,1","","",""
"","html-keyboard-response","53","68781","0.0-53.0","3F6HPJW4JEMBIRLA691HFBRU07HW29","AKX4H8RT7BL7H","3WPCIUYH1AU470H2HRBLZRFBM95TDS","","null","<img src=""img/land2.png"" style=""width:200px; border:14px solid green;"">","null","","","","","","","","","",""
"","image-keyboard-response","54","69381","0.0-54.0","3F6HPJW4JEMBIRLA691HFBRU07HW29","AKX4H8RT7BL7H","3WPCIUYH1AU470H2HRBLZRFBM95TDS","","597.8999996185303","img/land1.png","74","599.5999994277954","1","1","1","2","1,0.7,0.7,0.7,1,0.7,0.7,0.7,1","1,0.7,0.7,0.7,1,0.7,0.7,0.7,1","","",""
"","html-keyboard-response","55","69688","0.0-55.0","3F6HPJW4JEMBIRLA691HFBRU07HW29","AKX4H8RT7BL7H","3WPCIUYH1AU470H2HRBLZRFBM95TDS","","null","<img src=""img/land1.png"" style=""width:200px; border:14px solid green;"">","null","","","","","","","","","",""
"","image-keyboard-response","56","70465","0.0-56.0","3F6HPJW4JEMBIRLA691HFBRU07HW29","AKX4H8RT7BL7H","3WPCIUYH1AU470H2HRBLZRFBM95TDS","","775.9000005722046","img/land3.png","76","776.9000005722046","3","1","3","2","1,0.7,0.7,0.7,1,0.7,0.7,0.7,1","1,0.7,0.7,0.7,1,0.7,0.7,0.7,1","","",""
"","html-keyboard-response","57","70772","0.0-57.0","3F6HPJW4JEMBIRLA691HFBRU07HW29","AKX4H8RT7BL7H","3WPCIUYH1AU470H2HRBLZRFBM95TDS","","null","<img src=""img/land3.png"" style=""width:200px; border:14px solid green;"">","null","","","","","","","","","",""
"","image-keyboard-response","58","71279","0.0-58.0","3F6HPJW4JEMBIRLA691HFBRU07HW29","AKX4H8RT7BL7H","3WPCIUYH1AU470H2HRBLZRFBM95TDS","","504.80000019073486","img/land3.png","76","506.4000005722046","3","1","3","2","1,0.7,0.7,0.7,1,0.7,0.7,0.7,1","1,0.7,0.7,0.7,1,0.7,0.7,0.7,1","","",""
"","html-keyboard-response","59","71585","0.0-59.0","3F6HPJW4JEMBIRLA691HFBRU07HW29","AKX4H8RT7BL7H","3WPCIUYH1AU470H2HRBLZRFBM95TDS","","null","<img src=""img/land3.png"" style=""width:200px; border:14px solid green;"">","null","","","","","","","","","",""
"","image-keyboard-response","60","72358","0.0-60.0","3F6HPJW4JEMBIRLA691HFBRU07HW29","AKX4H8RT7BL7H","3WPCIUYH1AU470H2HRBLZRFBM95TDS","","772.5","img/land1.png","75","773.2999992370605","2","1","1","2","1,0.7,0.7,0.7,1,0.7,0.7,0.7,1","1,0.7,0.7,0.7,1,0.7,0.7,0.7,1","","",""
"","html-keyboard-response","61","72661","0.0-61.0","3F6HPJW4JEMBIRLA691HFBRU07HW29","AKX4H8RT7BL7H","3WPCIUYH1AU470H2HRBLZRFBM95TDS","","null","<img src=""img/land1.png"" style=""width:200px; border:14px solid green;"">","null","","","","","","","","","",""
"","image-keyboard-response","62","73271","0.0-62.0","3F6HPJW4JEMBIRLA691HFBRU07HW29","AKX4H8RT7BL7H","3WPCIUYH1AU470H2HRBLZRFBM95TDS","","607.3000001907349","img/land3.png","76","609.1999998092651","3","1","3","2","1,0.7,0.7,0.7,1,0.7,0.7,0.7,1","1,0.7,0.7,0.7,1,0.7,0.7,0.7,1","","",""
"","html-keyboard-response","63","73576","0.0-63.0","3F6HPJW4JEMBIRLA691HFBRU07HW29","AKX4H8RT7BL7H","3WPCIUYH1AU470H2HRBLZRFBM95TDS","","null","<img src=""img/land3.png"" style=""width:200px; border:14px solid green;"">","null","","","","","","","","","",""
"","image-keyboard-response","64","74175","0.0-64.0","3F6HPJW4JEMBIRLA691HFBRU07HW29","AKX4H8RT7BL7H","3WPCIUYH1AU470H2HRBLZRFBM95TDS","","598.9000005722046","img/land3.png","76","599.6999998092651","3","1","3","2","1,0.7,0.7,0.7,1,0.7,0.7,0.7,1","1,0.7,0.7,0.7,1,0.7,0.7,0.7,1","","",""
"","html-keyboard-response","65","74480","0.0-65.0","3F6HPJW4JEMBIRLA691HFBRU07HW29","AKX4H8RT7BL7H","3WPCIUYH1AU470H2HRBLZRFBM95TDS","","null","<img src=""img/land3.png"" style=""width:200px; border:14px solid green;"">","null","","","","","","","","","",""
"","image-keyboard-response","66","75032","0.0-66.0","3F6HPJW4JEMBIRLA691HFBRU07HW29","AKX4H8RT7BL7H","3WPCIUYH1AU470H2HRBLZRFBM95TDS","","550","img/land3.png","76","551.9000005722046","3","1","3","2","1,0.7,0.7,0.7,1,0.7,0.7,0.7,1","1,0.7,0.7,0.7,1,0.7,0.7,0.7,1","","",""
"","html-keyboard-response","67","75339","0.0-67.0","3F6HPJW4JEMBIRLA691HFBRU07HW29","AKX4H8RT7BL7H","3WPCIUYH1AU470H2HRBLZRFBM95TDS","","null","<img src=""img/land3.png"" style=""width:200px; border:14px solid green;"">","null","","","","","","","","","",""
"","image-keyboard-response","68","75967","0.0-68.0","3F6HPJW4JEMBIRLA691HFBRU07HW29","AKX4H8RT7BL7H","3WPCIUYH1AU470H2HRBLZRFBM95TDS","","625.3999996185303","img/land3.png","76","626.8999996185303","3","1","3","2","1,0.7,0.7,0.7,1,0.7,0.7,0.7,1","1,0.7,0.7,0.7,1,0.7,0.7,0.7,1","","",""
"","html-keyboard-response","69","76272","0.0-69.0","3F6HPJW4JEMBIRLA691HFBRU07HW29","AKX4H8RT7BL7H","3WPCIUYH1AU470H2HRBLZRFBM95TDS","","null","<img src=""img/land3.png"" style=""width:200px; border:14px solid green;"">","null","","","","","","","","","",""
"","image-keyboard-response","70","76792","0.0-70.0","3F6HPJW4JEMBIRLA691HFBRU07HW29","AKX4H8RT7BL7H","3WPCIUYH1AU470H2HRBLZRFBM95TDS","","517.8000001907349","img/land3.png","76","519.8000001907349","3","1","3","2","1,0.7,0.7,0.7,1,0.7,0.7,0.7,1","1,0.7,0.7,0.7,1,0.7,0.7,0.7,1","","",""
"","html-keyboard-response","71","77095","0.0-71.0","3F6HPJW4JEMBIRLA691HFBRU07HW29","AKX4H8RT7BL7H","3WPCIUYH1AU470H2HRBLZRFBM95TDS","","null","<img src=""img/land3.png"" style=""width:200px; border:14px solid green;"">","null","","","","","","","","","",""
"","image-keyboard-response","72","77741","0.0-72.0","3F6HPJW4JEMBIRLA691HFBRU07HW29","AKX4H8RT7BL7H","3WPCIUYH1AU470H2HRBLZRFBM95TDS","","644.6000003814697","img/land3.png","76","646","3","1","3","2","1,0.7,0.7,0.7,1,0.7,0.7,0.7,1","1,0.7,0.7,0.7,1,0.7,0.7,0.7,1","","",""
"","html-keyboard-response","73","78048","0.0-73.0","3F6HPJW4JEMBIRLA691HFBRU07HW29","AKX4H8RT7BL7H","3WPCIUYH1AU470H2HRBLZRFBM95TDS","","null","<img src=""img/land3.png"" style=""width:200px; border:14px solid green;"">","null","","","","","","","","","",""
"","image-keyboard-response","74","78654","0.0-74.0","3F6HPJW4JEMBIRLA691HFBRU07HW29","AKX4H8RT7BL7H","3WPCIUYH1AU470H2HRBLZRFBM95TDS","","605.5999994277954","img/land2.png","75","606.5999994277954","2","1","2","2","1,0.7,0.7,0.7,1,0.7,0.7,0.7,1","1,0.7,0.7,0.7,1,0.7,0.7,0.7,1","","",""
"","html-keyboard-response","75","78960","0.0-75.0","3F6HPJW4JEMBIRLA691HFBRU07HW29","AKX4H8RT7BL7H","3WPCIUYH1AU470H2HRBLZRFBM95TDS","","null","<img src=""img/land2.png"" style=""width:200px; border:14px solid green;"">","null","","","","","","","","","",""
"","image-keyboard-response","76","79635","0.0-76.0","3F6HPJW4JEMBIRLA691HFBRU07HW29","AKX4H8RT7BL7H","3WPCIUYH1AU470H2HRBLZRFBM95TDS","","673.1000003814697","img/land3.png","76","674.8999996185303","3","1","3","2","1,0.7,0.7,0.7,1,0.7,0.7,0.7,1","1,0.7,0.7,0.7,1,0.7,0.7,0.7,1","","",""
"","html-keyboard-response","77","79942","0.0-77.0","3F6HPJW4JEMBIRLA691HFBRU07HW29","AKX4H8RT7BL7H","3WPCIUYH1AU470H2HRBLZRFBM95TDS","","null","<img src=""img/land3.png"" style=""width:200px; border:14px solid green;"">","null","","","","","","","","","",""
"","image-keyboard-response","78","80509","0.0-78.0","3F6HPJW4JEMBIRLA691HFBRU07HW29","AKX4H8RT7BL7H","3WPCIUYH1AU470H2HRBLZRFBM95TDS","","565","img/land3.png","76","566","3","1","3","2","1,0.7,0.7,0.7,1,0.7,0.7,0.7,1","1,0.7,0.7,0.7,1,0.7,0.7,0.7,1","","",""
"","html-keyboard-response","79","80816","0.0-79.0","3F6HPJW4JEMBIRLA691HFBRU07HW29","AKX4H8RT7BL7H","3WPCIUYH1AU470H2HRBLZRFBM95TDS","","null","<img src=""img/land3.png"" style=""width:200px; border:14px solid green;"">","null","","","","","","","","","",""
"","image-keyboard-response","80","81373","0.0-80.0","3F6HPJW4JEMBIRLA691HFBRU07HW29","AKX4H8RT7BL7H","3WPCIUYH1AU470H2HRBLZRFBM95TDS","","554.9000005722046","img/land3.png","76","556.7999992370605","3","1","3","2","1,0.7,0.7,0.7,1,0.7,0.7,0.7,1","1,0.7,0.7,0.7,1,0.7,0.7,0.7,1","","",""
"","html-keyboard-response","81","81679","0.0-81.0","3F6HPJW4JEMBIRLA691HFBRU07HW29","AKX4H8RT7BL7H","3WPCIUYH1AU470H2HRBLZRFBM95TDS","","null","<img src=""img/land3.png"" style=""width:200px; border:14px solid green;"">","null","","","","","","","","","",""
"","image-keyboard-response","82","82091","0.0-82.0","3F6HPJW4JEMBIRLA691HFBRU07HW29","AKX4H8RT7BL7H","3WPCIUYH1AU470H2HRBLZRFBM95TDS","","410.8999996185303","img/land3.png","76","411.70000076293945","3","1","3","2","1,0.7,0.7,0.7,1,0.7,0.7,0.7,1","1,0.7,0.7,0.7,1,0.7,0.7,0.7,1","","",""
"","html-keyboard-response","83","82396","0.0-83.0","3F6HPJW4JEMBIRLA691HFBRU07HW29","AKX4H8RT7BL7H","3WPCIUYH1AU470H2HRBLZRFBM95TDS","","null","<img src=""img/land3.png"" style=""width:200px; border:14px solid green;"">","null","","","","","","","","","",""
"","image-keyboard-response","84","82713","0.0-84.0","3F6HPJW4JEMBIRLA691HFBRU07HW29","AKX4H8RT7BL7H","3WPCIUYH1AU470H2HRBLZRFBM95TDS","","315.0999994277954","img/land3.png","76","316.9000005722046","3","1","3","2","1,0.7,0.7,0.7,1,0.7,0.7,0.7,1","1,0.7,0.7,0.7,1,0.7,0.7,0.7,1","","",""
"","html-keyboard-response","85","83018","0.0-85.0","3F6HPJW4JEMBIRLA691HFBRU07HW29","AKX4H8RT7BL7H","3WPCIUYH1AU470H2HRBLZRFBM95TDS","","null","<img src=""img/land3.png"" style=""width:200px; border:14px solid green;"">","null","","","","","","","","","",""
"","image-keyboard-response","86","83359","0.0-86.0","3F6HPJW4JEMBIRLA691HFBRU07HW29","AKX4H8RT7BL7H","3WPCIUYH1AU470H2HRBLZRFBM95TDS","","339.69999980926514","img/land3.png","76","341.19999980926514","3","1","3","2","1,0.7,0.7,0.7,1,0.7,0.7,0.7,1","1,0.7,0.7,0.7,1,0.7,0.7,0.7,1","","",""
"","html-keyboard-response","87","83666","0.0-87.0","3F6HPJW4JEMBIRLA691HFBRU07HW29","AKX4H8RT7BL7H","3WPCIUYH1AU470H2HRBLZRFBM95TDS","","null","<img src=""img/land3.png"" style=""width:200px; border:14px solid green;"">","null","","","","","","","","","",""
"","image-keyboard-response","88","84421","0.0-88.0","3F6HPJW4JEMBIRLA691HFBRU07HW29","AKX4H8RT7BL7H","3WPCIUYH1AU470H2HRBLZRFBM95TDS","","752.4000005722046","img/land1.png","74","754.5","1","1","1","2","1,0.7,0.7,0.7,1,0.7,0.7,0.7,1","1,0.7,0.7,0.7,1,0.7,0.7,0.7,1","","",""
"","html-keyboard-response","89","84724","0.0-89.0","3F6HPJW4JEMBIRLA691HFBRU07HW29","AKX4H8RT7BL7H","3WPCIUYH1AU470H2HRBLZRFBM95TDS","","null","<img src=""img/land1.png"" style=""width:200px; border:14px solid green;"">","null","","","","","","","","","",""
"","image-keyboard-response","90","85477","0.0-90.0","3F6HPJW4JEMBIRLA691HFBRU07HW29","AKX4H8RT7BL7H","3WPCIUYH1AU470H2HRBLZRFBM95TDS","","751","img/land2.png","75","752.7000007629395","2","1","2","2","1,0.7,0.7,0.7,1,0.7,0.7,0.7,1","1,0.7,0.7,0.7,1,0.7,0.7,0.7,1","","",""
"","html-keyboard-response","91","85784","0.0-91.0","3F6HPJW4JEMBIRLA691HFBRU07HW29","AKX4H8RT7BL7H","3WPCIUYH1AU470H2HRBLZRFBM95TDS","","null","<img src=""img/land2.png"" style=""width:200px; border:14px solid green;"">","null","","","","","","","","","",""
"","image-keyboard-response","92","86433","0.0-92.0","3F6HPJW4JEMBIRLA691HFBRU07HW29","AKX4H8RT7BL7H","3WPCIUYH1AU470H2HRBLZRFBM95TDS","","648.5999994277954","img/land3.png","76","649.6000003814697","3","1","3","2","1,0.7,0.7,0.7,1,0.7,0.7,0.7,1","1,0.7,0.7,0.7,1,0.7,0.7,0.7,1","","",""
"","html-keyboard-response","93","86740","0.0-93.0","3F6HPJW4JEMBIRLA691HFBRU07HW29","AKX4H8RT7BL7H","3WPCIUYH1AU470H2HRBLZRFBM95TDS","","null","<img src=""img/land3.png"" style=""width:200px; border:14px solid green;"">","null","","","","","","","","","",""
"","image-keyboard-response","94","87397","0.0-94.0","3F6HPJW4JEMBIRLA691HFBRU07HW29","AKX4H8RT7BL7H","3WPCIUYH1AU470H2HRBLZRFBM95TDS","","654.8999996185303","img/land2.png","75","656.6999998092651","2","1","2","2","1,0.7,0.7,0.7,1,0.7,0.7,0.7,1","1,0.7,0.7,0.7,1,0.7,0.7,0.7,1","","",""
"","html-keyboard-response","95","87702","0.0-95.0","3F6HPJW4JEMBIRLA691HFBRU07HW29","AKX4H8RT7BL7H","3WPCIUYH1AU470H2HRBLZRFBM95TDS","","null","<img src=""img/land2.png"" style=""width:200px; border:14px solid green;"">","null","","","","","","","","","",""
"","image-keyboard-response","96","88561","0.0-96.0","3F6HPJW4JEMBIRLA691HFBRU07HW29","AKX4H8RT7BL7H","3WPCIUYH1AU470H2HRBLZRFBM95TDS","","856.9000005722046","img/land3.png","76","858.7999992370605","3","1","3","2","1,0.7,0.7,0.7,1,0.7,0.7,0.7,1","1,0.7,0.7,0.7,1,0.7,0.7,0.7,1","","",""
"","html-keyboard-response","97","88868","0.0-97.0","3F6HPJW4JEMBIRLA691HFBRU07HW29","AKX4H8RT7BL7H","3WPCIUYH1AU470H2HRBLZRFBM95TDS","","null","<img src=""img/land3.png"" style=""width:200px; border:14px solid green;"">","null","","","","","","","","","",""
"","image-keyboard-response","98","89429","0.0-98.0","3F6HPJW4JEMBIRLA691HFBRU07HW29","AKX4H8RT7BL7H","3WPCIUYH1AU470H2HRBLZRFBM95TDS","","557.9000005722046","img/land3.png","76","559.8000001907349","3","1","3","2","1,0.7,0.7,0.7,1,0.7,0.7,0.7,1","1,0.7,0.7,0.7,1,0.7,0.7,0.7,1","","",""
"","html-keyboard-response","99","89737","0.0-99.0","3F6HPJW4JEMBIRLA691HFBRU07HW29","AKX4H8RT7BL7H","3WPCIUYH1AU470H2HRBLZRFBM95TDS","","null","<img src=""img/land3.png"" style=""width:200px; border:14px solid green;"">","null","","","","","","","","","",""
"","image-keyboard-response","100","90082","0.0-100.0","3F6HPJW4JEMBIRLA691HFBRU07HW29","AKX4H8RT7BL7H","3WPCIUYH1AU470H2HRBLZRFBM95TDS","","344.8999996185303","img/land3.png","76","345.80000019073486","3","1","3","2","1,0.7,0.7,0.7,1,0.7,0.7,0.7,1","1,0.7,0.7,0.7,1,0.7,0.7,0.7,1","","",""
"","html-keyboard-response","101","90388","0.0-101.0","3F6HPJW4JEMBIRLA691HFBRU07HW29","AKX4H8RT7BL7H","3WPCIUYH1AU470H2HRBLZRFBM95TDS","","null","<img src=""img/land3.png"" style=""width:200px; border:14px solid green;"">","null","","","","","","","","","",""
"","image-keyboard-response","102","90664","0.0-102.0","3F6HPJW4JEMBIRLA691HFBRU07HW29","AKX4H8RT7BL7H","3WPCIUYH1AU470H2HRBLZRFBM95TDS","","273.5","img/land3.png","76","275.19999980926514","3","1","3","2","1,0.7,0.7,0.7,1,0.7,0.7,0.7,1","1,0.7,0.7,0.7,1,0.7,0.7,0.7,1","","",""
"","html-keyboard-response","103","90971","0.0-103.0","3F6HPJW4JEMBIRLA691HFBRU07HW29","AKX4H8RT7BL7H","3WPCIUYH1AU470H2HRBLZRFBM95TDS","","null","<img src=""img/land3.png"" style=""width:200px; border:14px solid green;"">","null","","","","","","","","","",""
"","image-keyboard-response","104","91273","0.0-104.0","3F6HPJW4JEMBIRLA691HFBRU07HW29","AKX4H8RT7BL7H","3WPCIUYH1AU470H2HRBLZRFBM95TDS","","300.30000019073486","img/land3.png","76","302.20000076293945","3","1","3","2","1,0.7,0.7,0.7,1,0.7,0.7,0.7,1","1,0.7,0.7,0.7,1,0.7,0.7,0.7,1","","",""
"","html-keyboard-response","105","91578","0.0-105.0","3F6HPJW4JEMBIRLA691HFBRU07HW29","AKX4H8RT7BL7H","3WPCIUYH1AU470H2HRBLZRFBM95TDS","","null","<img src=""img/land3.png"" style=""width:200px; border:14px solid green;"">","null","","","","","","","","","",""
"","image-keyboard-response","106","92007","0.0-106.0","3F6HPJW4JEMBIRLA691HFBRU07HW29","AKX4H8RT7BL7H","3WPCIUYH1AU470H2HRBLZRFBM95TDS","","427","img/land3.png","76","428.5","3","1","3","2","1,0.7,0.7,0.7,1,0.7,0.7,0.7,1","1,0.7,0.7,0.7,1,0.7,0.7,0.7,1","","",""
"","html-keyboard-response","107","92311","0.0-107.0","3F6HPJW4JEMBIRLA691HFBRU07HW29","AKX4H8RT7BL7H","3WPCIUYH1AU470H2HRBLZRFBM95TDS","","null","<img src=""img/land3.png"" style=""width:200px; border:14px solid green;"">","null","","","","","","","","","",""
"","image-keyboard-response","108","93047","0.0-108.0","3F6HPJW4JEMBIRLA691HFBRU07HW29","AKX4H8RT7BL7H","3WPCIUYH1AU470H2HRBLZRFBM95TDS","","735.1000003814697","img/land1.png","74","736.3000001907349","1","1","1","2","1,0.7,0.7,0.7,1,0.7,0.7,0.7,1","1,0.7,0.7,0.7,1,0.7,0.7,0.7,1","","",""
"","html-keyboard-response","109","93355","0.0-109.0","3F6HPJW4JEMBIRLA691HFBRU07HW29","AKX4H8RT7BL7H","3WPCIUYH1AU470H2HRBLZRFBM95TDS","","null","<img src=""img/land1.png"" style=""width:200px; border:14px solid green;"">","null","","","","","","","","","",""
"","image-keyboard-response","110","93992","0.0-110.0","3F6HPJW4JEMBIRLA691HFBRU07HW29","AKX4H8RT7BL7H","3WPCIUYH1AU470H2HRBLZRFBM95TDS","","635.0999994277954","img/land3.png","76","636.5","3","1","3","2","1,0.7,0.7,0.7,1,0.7,0.7,0.7,1","1,0.7,0.7,0.7,1,0.7,0.7,0.7,1","","",""
"","html-keyboard-response","111","94298","0.0-111.0","3F6HPJW4JEMBIRLA691HFBRU07HW29","AKX4H8RT7BL7H","3WPCIUYH1AU470H2HRBLZRFBM95TDS","","null","<img src=""img/land3.png"" style=""width:200px; border:14px solid green;"">","null","","","","","","","","","",""
"","image-keyboard-response","112","94874","0.0-112.0","3F6HPJW4JEMBIRLA691HFBRU07HW29","AKX4H8RT7BL7H","3WPCIUYH1AU470H2HRBLZRFBM95TDS","","573.8000001907349","img/land3.png","76","575.5","3","1","3","2","1,0.7,0.7,0.7,1,0.7,0.7,0.7,1","1,0.7,0.7,0.7,1,0.7,0.7,0.7,1","","",""
"","html-keyboard-response","113","95178","0.0-113.0","3F6HPJW4JEMBIRLA691HFBRU07HW29","AKX4H8RT7BL7H","3WPCIUYH1AU470H2HRBLZRFBM95TDS","","null","<img src=""img/land3.png"" style=""width:200px; border:14px solid green;"">","null","","","","","","","","","",""
"","image-keyboard-response","114","95622","0.0-114.0","3F6HPJW4JEMBIRLA691HFBRU07HW29","AKX4H8RT7BL7H","3WPCIUYH1AU470H2HRBLZRFBM95TDS","","443","img/land3.png","76","444.30000019073486","3","1","3","2","1,0.7,0.7,0.7,1,0.7,0.7,0.7,1","1,0.7,0.7,0.7,1,0.7,0.7,0.7,1","","",""
"","html-keyboard-response","115","95927","0.0-115.0","3F6HPJW4JEMBIRLA691HFBRU07HW29","AKX4H8RT7BL7H","3WPCIUYH1AU470H2HRBLZRFBM95TDS","","null","<img src=""img/land3.png"" style=""width:200px; border:14px solid green;"">","null","","","","","","","","","",""
"","image-keyboard-response","116","96542","0.0-116.0","3F6HPJW4JEMBIRLA691HFBRU07HW29","AKX4H8RT7BL7H","3WPCIUYH1AU470H2HRBLZRFBM95TDS","","613.8999996185303","img/land1.png","74","614.6999998092651","1","1","1","2","1,0.7,0.7,0.7,1,0.7,0.7,0.7,1","1,0.7,0.7,0.7,1,0.7,0.7,0.7,1","","",""
"","html-keyboard-response","117","96847","0.0-117.0","3F6HPJW4JEMBIRLA691HFBRU07HW29","AKX4H8RT7BL7H","3WPCIUYH1AU470H2HRBLZRFBM95TDS","","null","<img src=""img/land1.png"" style=""width:200px; border:14px solid green;"">","null","","","","","","","","","",""
"","image-keyboard-response","118","97406","0.0-118.0","3F6HPJW4JEMBIRLA691HFBRU07HW29","AKX4H8RT7BL7H","3WPCIUYH1AU470H2HRBLZRFBM95TDS","","557.5999994277954","img/land3.png","76","559.5","3","1","3","2","1,0.7,0.7,0.7,1,0.7,0.7,0.7,1","1,0.7,0.7,0.7,1,0.7,0.7,0.7,1","","",""
"","html-keyboard-response","119","97714","0.0-119.0","3F6HPJW4JEMBIRLA691HFBRU07HW29","AKX4H8RT7BL7H","3WPCIUYH1AU470H2HRBLZRFBM95TDS","","null","<img src=""img/land3.png"" style=""width:200px; border:14px solid green;"">","null","","","","","","","","","",""
"","image-keyboard-response","120","98422","0.0-120.0","3F6HPJW4JEMBIRLA691HFBRU07HW29","AKX4H8RT7BL7H","3WPCIUYH1AU470H2HRBLZRFBM95TDS","","707.4000005722046","img/land2.png","75","708.3999996185303","2","1","2","2","1,0.7,0.7,0.7,1,0.7,0.7,0.7,1","1,0.7,0.7,0.7,1,0.7,0.7,0.7,1","","",""
"","html-keyboard-response","121","98730","0.0-121.0","3F6HPJW4JEMBIRLA691HFBRU07HW29","AKX4H8RT7BL7H","3WPCIUYH1AU470H2HRBLZRFBM95TDS","","null","<img src=""img/land2.png"" style=""width:200px; border:14px solid green;"">","null","","","","","","","","","",""
"","image-keyboard-response","122","99311","0.0-122.0","3F6HPJW4JEMBIRLA691HFBRU07HW29","AKX4H8RT7BL7H","3WPCIUYH1AU470H2HRBLZRFBM95TDS","","578.9000005722046","img/land3.png","76","580.6000003814697","3","1","3","2","1,0.7,0.7,0.7,1,0.7,0.7,0.7,1","1,0.7,0.7,0.7,1,0.7,0.7,0.7,1","","",""
"","html-keyboard-response","123","99614","0.0-123.0","3F6HPJW4JEMBIRLA691HFBRU07HW29","AKX4H8RT7BL7H","3WPCIUYH1AU470H2HRBLZRFBM95TDS","","null","<img src=""img/land3.png"" style=""width:200px; border:14px solid green;"">","null","","","","","","","","","",""
"","image-keyboard-response","124","99902","0.0-124.0","3F6HPJW4JEMBIRLA691HFBRU07HW29","AKX4H8RT7BL7H","3WPCIUYH1AU470H2HRBLZRFBM95TDS","","287","img/land3.png","76","287.69999980926514","3","1","3","2","1,0.7,0.7,0.7,1,0.7,0.7,0.7,1","1,0.7,0.7,0.7,1,0.7,0.7,0.7,1","","",""
"","html-keyboard-response","125","100208","0.0-125.0","3F6HPJW4JEMBIRLA691HFBRU07HW29","AKX4H8RT7BL7H","3WPCIUYH1AU470H2HRBLZRFBM95TDS","","null","<img src=""img/land3.png"" style=""width:200px; border:14px solid green;"">","null","","","","","","","","","",""
"","image-keyboard-response","126","100530","0.0-126.0","3F6HPJW4JEMBIRLA691HFBRU07HW29","AKX4H8RT7BL7H","3WPCIUYH1AU470H2HRBLZRFBM95TDS","","319.8999996185303","img/land3.png","76","321.5999994277954","3","1","3","2","1,0.7,0.7,0.7,1,0.7,0.7,0.7,1","1,0.7,0.7,0.7,1,0.7,0.7,0.7,1","","",""
"","html-keyboard-response","127","100837","0.0-127.0","3F6HPJW4JEMBIRLA691HFBRU07HW29","AKX4H8RT7BL7H","3WPCIUYH1AU470H2HRBLZRFBM95TDS","","null","<img src=""img/land3.png"" style=""width:200px; border:14px solid green;"">","null","","","","","","","","","",""
"","image-keyboard-response","128","101110","0.0-128.0","3F6HPJW4JEMBIRLA691HFBRU07HW29","AKX4H8RT7BL7H","3WPCIUYH1AU470H2HRBLZRFBM95TDS","","270.1000003814697","img/land2.png","76","272","3","0","2","2","1,0.7,0.7,0.7,1,0.7,0.7,0.7,1","1,0.7,0.7,0.7,1,0.7,0.7,0.7,1","","",""
"","html-keyboard-response","129","101412","0.0-129.0","3F6HPJW4JEMBIRLA691HFBRU07HW29","AKX4H8RT7BL7H","3WPCIUYH1AU470H2HRBLZRFBM95TDS","","null","<img src=""img/land2.png"" style=""width:200px;border:14px solid red;"">","null","","","","","","","","","",""
"","image-keyboard-response","130","102273","0.0-130.0","3F6HPJW4JEMBIRLA691HFBRU07HW29","AKX4H8RT7BL7H","3WPCIUYH1AU470H2HRBLZRFBM95TDS","","858.5","img/land1.png","74","860.3999996185303","1","1","1","2","1,0.7,0.7,0.7,1,0.7,0.7,0.7,1","1,0.7,0.7,0.7,1,0.7,0.7,0.7,1","","",""
"","html-keyboard-response","131","102576","0.0-131.0","3F6HPJW4JEMBIRLA691HFBRU07HW29","AKX4H8RT7BL7H","3WPCIUYH1AU470H2HRBLZRFBM95TDS","","null","<img src=""img/land1.png"" style=""width:200px; border:14px solid green;"">","null","","","","","","","","","",""
"","image-keyboard-response","132","103463","0.0-132.0","3F6HPJW4JEMBIRLA691HFBRU07HW29","AKX4H8RT7BL7H","3WPCIUYH1AU470H2HRBLZRFBM95TDS","","885.4000005722046","img/land3.png","76","887.1000003814697","3","1","3","2","1,0.7,0.7,0.7,1,0.7,0.7,0.7,1","1,0.7,0.7,0.7,1,0.7,0.7,0.7,1","","",""
"","html-keyboard-response","133","103769","0.0-133.0","3F6HPJW4JEMBIRLA691HFBRU07HW29","AKX4H8RT7BL7H","3WPCIUYH1AU470H2HRBLZRFBM95TDS","","null","<img src=""img/land3.png"" style=""width:200px; border:14px solid green;"">","null","","","","","","","","","",""
"","image-keyboard-response","134","104122","0.0-134.0","3F6HPJW4JEMBIRLA691HFBRU07HW29","AKX4H8RT7BL7H","3WPCIUYH1AU470H2HRBLZRFBM95TDS","","351.70000076293945","img/land3.png","76","352.6000003814697","3","1","3","2","1,0.7,0.7,0.7,1,0.7,0.7,0.7,1","1,0.7,0.7,0.7,1,0.7,0.7,0.7,1","","",""
"","html-keyboard-response","135","104425","0.0-135.0","3F6HPJW4JEMBIRLA691HFBRU07HW29","AKX4H8RT7BL7H","3WPCIUYH1AU470H2HRBLZRFBM95TDS","","null","<img src=""img/land3.png"" style=""width:200px; border:14px solid green;"">","null","","","","","","","","","",""
"","image-keyboard-response","136","105009","0.0-136.0","3F6HPJW4JEMBIRLA691HFBRU07HW29","AKX4H8RT7BL7H","3WPCIUYH1AU470H2HRBLZRFBM95TDS","","581.1999998092651","img/land2.png","75","582.8999996185303","2","1","2","2","1,0.7,0.7,0.7,1,0.7,0.7,0.7,1","1,0.7,0.7,0.7,1,0.7,0.7,0.7,1","","",""
"","html-keyboard-response","137","105315","0.0-137.0","3F6HPJW4JEMBIRLA691HFBRU07HW29","AKX4H8RT7BL7H","3WPCIUYH1AU470H2HRBLZRFBM95TDS","","null","<img src=""img/land2.png"" style=""width:200px; border:14px solid green;"">","null","","","","","","","","","",""
"","image-keyboard-response","138","105886","0.0-138.0","3F6HPJW4JEMBIRLA691HFBRU07HW29","AKX4H8RT7BL7H","3WPCIUYH1AU470H2HRBLZRFBM95TDS","","568.5","img/land2.png","75","570","2","1","2","2","1,0.7,0.7,0.7,1,0.7,0.7,0.7,1","1,0.7,0.7,0.7,1,0.7,0.7,0.7,1","","",""
"","html-keyboard-response","139","106191","0.0-139.0","3F6HPJW4JEMBIRLA691HFBRU07HW29","AKX4H8RT7BL7H","3WPCIUYH1AU470H2HRBLZRFBM95TDS","","null","<img src=""img/land2.png"" style=""width:200px; border:14px solid green;"">","null","","","","","","","","","",""
"","image-keyboard-response","140","107064","0.0-140.0","3F6HPJW4JEMBIRLA691HFBRU07HW29","AKX4H8RT7BL7H","3WPCIUYH1AU470H2HRBLZRFBM95TDS","","870.9000005722046","img/land1.png","74","872.7999992370605","1","1","1","2","1,0.7,0.7,0.7,1,0.7,0.7,0.7,1","1,0.7,0.7,0.7,1,0.7,0.7,0.7,1","","",""
"","html-keyboard-response","141","107369","0.0-141.0","3F6HPJW4JEMBIRLA691HFBRU07HW29","AKX4H8RT7BL7H","3WPCIUYH1AU470H2HRBLZRFBM95TDS","","null","<img src=""img/land1.png"" style=""width:200px; border:14px solid green;"">","null","","","","","","","","","",""
"","image-keyboard-response","142","108059","0.0-142.0","3F6HPJW4JEMBIRLA691HFBRU07HW29","AKX4H8RT7BL7H","3WPCIUYH1AU470H2HRBLZRFBM95TDS","","687.5999994277954","img/land3.png","76","689.5","3","1","3","2","1,0.7,0.7,0.7,1,0.7,0.7,0.7,1","1,0.7,0.7,0.7,1,0.7,0.7,0.7,1","","",""
"","html-keyboard-response","143","108366","0.0-143.0","3F6HPJW4JEMBIRLA691HFBRU07HW29","AKX4H8RT7BL7H","3WPCIUYH1AU470H2HRBLZRFBM95TDS","","null","<img src=""img/land3.png"" style=""width:200px; border:14px solid green;"">","null","","","","","","","","","",""
"","image-keyboard-response","144","109132","0.0-144.0","3F6HPJW4JEMBIRLA691HFBRU07HW29","AKX4H8RT7BL7H","3WPCIUYH1AU470H2HRBLZRFBM95TDS","","763.5","img/land2.png","75","765.1000003814697","2","1","2","2","1,0.7,0.7,0.7,1,0.7,0.7,0.7,1","1,0.7,0.7,0.7,1,0.7,0.7,0.7,1","","",""
"","html-keyboard-response","145","109439","0.0-145.0","3F6HPJW4JEMBIRLA691HFBRU07HW29","AKX4H8RT7BL7H","3WPCIUYH1AU470H2HRBLZRFBM95TDS","","null","<img src=""img/land2.png"" style=""width:200px; border:14px solid green;"">","null","","","","","","","","","",""
"","image-keyboard-response","146","110081","0.0-146.0","3F6HPJW4JEMBIRLA691HFBRU07HW29","AKX4H8RT7BL7H","3WPCIUYH1AU470H2HRBLZRFBM95TDS","","639.6999998092651","img/land3.png","76","641.5","3","1","3","2","1,0.7,0.7,0.7,1,0.7,0.7,0.7,1","1,0.7,0.7,0.7,1,0.7,0.7,0.7,1","","",""
"","html-keyboard-response","147","110387","0.0-147.0","3F6HPJW4JEMBIRLA691HFBRU07HW29","AKX4H8RT7BL7H","3WPCIUYH1AU470H2HRBLZRFBM95TDS","","null","<img src=""img/land3.png"" style=""width:200px; border:14px solid green;"">","null","","","","","","","","","",""
"","image-keyboard-response","148","111014","0.0-148.0","3F6HPJW4JEMBIRLA691HFBRU07HW29","AKX4H8RT7BL7H","3WPCIUYH1AU470H2HRBLZRFBM95TDS","","626.1999998092651","img/land1.png","74","627.6999998092651","1","1","1","2","1,0.7,0.7,0.7,1,0.7,0.7,0.7,1","1,0.7,0.7,0.7,1,0.7,0.7,0.7,1","","",""
"","html-keyboard-response","149","111317","0.0-149.0","3F6HPJW4JEMBIRLA691HFBRU07HW29","AKX4H8RT7BL7H","3WPCIUYH1AU470H2HRBLZRFBM95TDS","","null","<img src=""img/land1.png"" style=""width:200px; border:14px solid green;"">","null","","","","","","","","","",""
"","image-keyboard-response","150","111902","0.0-150.0","3F6HPJW4JEMBIRLA691HFBRU07HW29","AKX4H8RT7BL7H","3WPCIUYH1AU470H2HRBLZRFBM95TDS","","582.5999994277954","img/land3.png","76","584.5999994277954","3","1","3","2","1,0.7,0.7,0.7,1,0.7,0.7,0.7,1","1,0.7,0.7,0.7,1,0.7,0.7,0.7,1","","",""
"","html-keyboard-response","151","112209","0.0-151.0","3F6HPJW4JEMBIRLA691HFBRU07HW29","AKX4H8RT7BL7H","3WPCIUYH1AU470H2HRBLZRFBM95TDS","","null","<img src=""img/land3.png"" style=""width:200px; border:14px solid green;"">","null","","","","","","","","","",""
"","image-keyboard-response","152","112925","0.0-152.0","3F6HPJW4JEMBIRLA691HFBRU07HW29","AKX4H8RT7BL7H","3WPCIUYH1AU470H2HRBLZRFBM95TDS","","714.3999996185303","img/land1.png","74","715.6999998092651","1","1","1","2","1,0.7,0.7,0.7,1,0.7,0.7,0.7,1","1,0.7,0.7,0.7,1,0.7,0.7,0.7,1","","",""
"","html-keyboard-response","153","113232","0.0-153.0","3F6HPJW4JEMBIRLA691HFBRU07HW29","AKX4H8RT7BL7H","3WPCIUYH1AU470H2HRBLZRFBM95TDS","","null","<img src=""img/land1.png"" style=""width:200px; border:14px solid green;"">","null","","","","","","","","","",""
"","image-keyboard-response","154","113871","0.0-154.0","3F6HPJW4JEMBIRLA691HFBRU07HW29","AKX4H8RT7BL7H","3WPCIUYH1AU470H2HRBLZRFBM95TDS","","637.1999998092651","img/land2.png","75","638.6000003814697","2","1","2","2","1,0.7,0.7,0.7,1,0.7,0.7,0.7,1","1,0.7,0.7,0.7,1,0.7,0.7,0.7,1","","",""
"","html-keyboard-response","155","114174","0.0-155.0","3F6HPJW4JEMBIRLA691HFBRU07HW29","AKX4H8RT7BL7H","3WPCIUYH1AU470H2HRBLZRFBM95TDS","","null","<img src=""img/land2.png"" style=""width:200px; border:14px solid green;"">","null","","","","","","","","","",""
"","image-keyboard-response","156","114727","0.0-156.0","3F6HPJW4JEMBIRLA691HFBRU07HW29","AKX4H8RT7BL7H","3WPCIUYH1AU470H2HRBLZRFBM95TDS","","552.1999998092651","img/land3.png","76","553.0999994277954","3","1","3","2","1,0.7,0.7,0.7,1,0.7,0.7,0.7,1","1,0.7,0.7,0.7,1,0.7,0.7,0.7,1","","",""
"","html-keyboard-response","157","115031","0.0-157.0","3F6HPJW4JEMBIRLA691HFBRU07HW29","AKX4H8RT7BL7H","3WPCIUYH1AU470H2HRBLZRFBM95TDS","","null","<img src=""img/land3.png"" style=""width:200px; border:14px solid green;"">","null","","","","","","","","","",""
"","image-keyboard-response","158","115544","0.0-158.0","3F6HPJW4JEMBIRLA691HFBRU07HW29","AKX4H8RT7BL7H","3WPCIUYH1AU470H2HRBLZRFBM95TDS","","511.69999980926514","img/land3.png","76","513","3","1","3","2","1,0.7,0.7,0.7,1,0.7,0.7,0.7,1","1,0.7,0.7,0.7,1,0.7,0.7,0.7,1","","",""
"","html-keyboard-response","159","115850","0.0-159.0","3F6HPJW4JEMBIRLA691HFBRU07HW29","AKX4H8RT7BL7H","3WPCIUYH1AU470H2HRBLZRFBM95TDS","","null","<img src=""img/land3.png"" style=""width:200px; border:14px solid green;"">","null","","","","","","","","","",""
"","image-keyboard-response","160","116560","0.0-160.0","3F6HPJW4JEMBIRLA691HFBRU07HW29","AKX4H8RT7BL7H","3WPCIUYH1AU470H2HRBLZRFBM95TDS","","708.8000001907349","img/land2.png","75","709.7000007629395","2","1","2","2","1,0.7,0.7,0.7,1,0.7,0.7,0.7,1","1,0.7,0.7,0.7,1,0.7,0.7,0.7,1","","",""
"","html-keyboard-response","161","116867","0.0-161.0","3F6HPJW4JEMBIRLA691HFBRU07HW29","AKX4H8RT7BL7H","3WPCIUYH1AU470H2HRBLZRFBM95TDS","","null","<img src=""img/land2.png"" style=""width:200px; border:14px solid green;"">","null","","","","","","","","","",""
"","image-keyboard-response","162","117297","0.0-162.0","3F6HPJW4JEMBIRLA691HFBRU07HW29","AKX4H8RT7BL7H","3WPCIUYH1AU470H2HRBLZRFBM95TDS","","428.29999923706055","img/land2.png","75","430.0999994277954","2","1","2","2","1,0.7,0.7,0.7,1,0.7,0.7,0.7,1","1,0.7,0.7,0.7,1,0.7,0.7,0.7,1","","",""
"","html-keyboard-response","163","117603","0.0-163.0","3F6HPJW4JEMBIRLA691HFBRU07HW29","AKX4H8RT7BL7H","3WPCIUYH1AU470H2HRBLZRFBM95TDS","","null","<img src=""img/land2.png"" style=""width:200px; border:14px solid green;"">","null","","","","","","","","","",""
"","image-keyboard-response","164","117965","0.0-164.0","3F6HPJW4JEMBIRLA691HFBRU07HW29","AKX4H8RT7BL7H","3WPCIUYH1AU470H2HRBLZRFBM95TDS","","360","img/land2.png","75","361.4000005722046","2","1","2","2","1,0.7,0.7,0.7,1,0.7,0.7,0.7,1","1,0.7,0.7,0.7,1,0.7,0.7,0.7,1","","",""
"","html-keyboard-response","165","118270","0.0-165.0","3F6HPJW4JEMBIRLA691HFBRU07HW29","AKX4H8RT7BL7H","3WPCIUYH1AU470H2HRBLZRFBM95TDS","","null","<img src=""img/land2.png"" style=""width:200px; border:14px solid green;"">","null","","","","","","","","","",""
"","image-keyboard-response","166","118824","0.0-166.0","3F6HPJW4JEMBIRLA691HFBRU07HW29","AKX4H8RT7BL7H","3WPCIUYH1AU470H2HRBLZRFBM95TDS","","553.0999994277954","img/land3.png","76","554.1999998092651","3","1","3","2","1,0.7,0.7,0.7,1,0.7,0.7,0.7,1","1,0.7,0.7,0.7,1,0.7,0.7,0.7,1","","",""
"","html-keyboard-response","167","119128","0.0-167.0","3F6HPJW4JEMBIRLA691HFBRU07HW29","AKX4H8RT7BL7H","3WPCIUYH1AU470H2HRBLZRFBM95TDS","","null","<img src=""img/land3.png"" style=""width:200px; border:14px solid green;"">","null","","","","","","","","","",""
"","image-keyboard-response","168","119689","0.0-168.0","3F6HPJW4JEMBIRLA691HFBRU07HW29","AKX4H8RT7BL7H","3WPCIUYH1AU470H2HRBLZRFBM95TDS","","560.1999998092651","img/land2.png","76","561","3","1","2","2","1,0.7,0.7,0.7,1,0.7,0.7,0.7,1","1,0.7,0.7,0.7,1,0.7,0.7,0.7,1","","",""
"","html-keyboard-response","169","119996","0.0-169.0","3F6HPJW4JEMBIRLA691HFBRU07HW29","AKX4H8RT7BL7H","3WPCIUYH1AU470H2HRBLZRFBM95TDS","","null","<img src=""img/land2.png"" style=""width:200px; border:14px solid green;"">","null","","","","","","","","","",""
"","image-keyboard-response","170","121003","0.0-170.0","3F6HPJW4JEMBIRLA691HFBRU07HW29","AKX4H8RT7BL7H","3WPCIUYH1AU470H2HRBLZRFBM95TDS","","1005","img/land3.png","76","1007","3","1","3","2","1,0.7,0.7,0.7,1,0.7,0.7,0.7,1","1,0.7,0.7,0.7,1,0.7,0.7,0.7,1","","",""
"","html-keyboard-response","171","121307","0.0-171.0","3F6HPJW4JEMBIRLA691HFBRU07HW29","AKX4H8RT7BL7H","3WPCIUYH1AU470H2HRBLZRFBM95TDS","","null","<img src=""img/land3.png"" style=""width:200px; border:14px solid green;"">","null","","","","","","","","","",""
"","image-keyboard-response","172","122101","0.0-172.0","3F6HPJW4JEMBIRLA691HFBRU07HW29","AKX4H8RT7BL7H","3WPCIUYH1AU470H2HRBLZRFBM95TDS","","792.5999994277954","img/land1.png","75","794.3999996185303","2","1","1","2","1,0.7,0.7,0.7,1,0.7,0.7,0.7,1","1,0.7,0.7,0.7,1,0.7,0.7,0.7,1","","",""
"","html-keyboard-response","173","122403","0.0-173.0","3F6HPJW4JEMBIRLA691HFBRU07HW29","AKX4H8RT7BL7H","3WPCIUYH1AU470H2HRBLZRFBM95TDS","","null","<img src=""img/land1.png"" style=""width:200px; border:14px solid green;"">","null","","","","","","","","","",""
"","image-keyboard-response","174","123255","0.0-174.0","3F6HPJW4JEMBIRLA691HFBRU07HW29","AKX4H8RT7BL7H","3WPCIUYH1AU470H2HRBLZRFBM95TDS","","849.3999996185303","img/land3.png","76","851.1000003814697","3","1","3","2","1,0.7,0.7,0.7,1,0.7,0.7,0.7,1","1,0.7,0.7,0.7,1,0.7,0.7,0.7,1","","",""
"","html-keyboard-response","175","123561","0.0-175.0","3F6HPJW4JEMBIRLA691HFBRU07HW29","AKX4H8RT7BL7H","3WPCIUYH1AU470H2HRBLZRFBM95TDS","","null","<img src=""img/land3.png"" style=""width:200px; border:14px solid green;"">","null","","","","","","","","","",""
"","image-keyboard-response","176","123943","0.0-176.0","3F6HPJW4JEMBIRLA691HFBRU07HW29","AKX4H8RT7BL7H","3WPCIUYH1AU470H2HRBLZRFBM95TDS","","380.30000019073486","img/land3.png","76","382.30000019073486","3","1","3","2","1,0.7,0.7,0.7,1,0.7,0.7,0.7,1","1,0.7,0.7,0.7,1,0.7,0.7,0.7,1","","",""
"","html-keyboard-response","177","124251","0.0-177.0","3F6HPJW4JEMBIRLA691HFBRU07HW29","AKX4H8RT7BL7H","3WPCIUYH1AU470H2HRBLZRFBM95TDS","","null","<img src=""img/land3.png"" style=""width:200px; border:14px solid green;"">","null","","","","","","","","","",""
"","image-keyboard-response","178","124714","0.0-178.0","3F6HPJW4JEMBIRLA691HFBRU07HW29","AKX4H8RT7BL7H","3WPCIUYH1AU470H2HRBLZRFBM95TDS","","461.80000019073486","img/land3.png","76","463.4000005722046","3","1","3","2","1,0.7,0.7,0.7,1,0.7,0.7,0.7,1","1,0.7,0.7,0.7,1,0.7,0.7,0.7,1","","",""
"","html-keyboard-response","179","125020","0.0-179.0","3F6HPJW4JEMBIRLA691HFBRU07HW29","AKX4H8RT7BL7H","3WPCIUYH1AU470H2HRBLZRFBM95TDS","","null","<img src=""img/land3.png"" style=""width:200px; border:14px solid green;"">","null","","","","","","","","","",""
"","image-keyboard-response","180","125469","0.0-180.0","3F6HPJW4JEMBIRLA691HFBRU07HW29","AKX4H8RT7BL7H","3WPCIUYH1AU470H2HRBLZRFBM95TDS","","447.30000019073486","img/land3.png","76","449.1000003814697","3","1","3","2","1,0.7,0.7,0.7,1,0.7,0.7,0.7,1","1,0.7,0.7,0.7,1,0.7,0.7,0.7,1","","",""
"","html-keyboard-response","181","125776","0.0-181.0","3F6HPJW4JEMBIRLA691HFBRU07HW29","AKX4H8RT7BL7H","3WPCIUYH1AU470H2HRBLZRFBM95TDS","","null","<img src=""img/land3.png"" style=""width:200px; border:14px solid green;"">","null","","","","","","","","","",""
"","image-keyboard-response","182","126154","0.0-182.0","3F6HPJW4JEMBIRLA691HFBRU07HW29","AKX4H8RT7BL7H","3WPCIUYH1AU470H2HRBLZRFBM95TDS","","375.9000005722046","img/land3.png","76","377.30000019073486","3","1","3","2","1,0.7,0.7,0.7,1,0.7,0.7,0.7,1","1,0.7,0.7,0.7,1,0.7,0.7,0.7,1","","",""
"","html-keyboard-response","183","126461","0.0-183.0","3F6HPJW4JEMBIRLA691HFBRU07HW29","AKX4H8RT7BL7H","3WPCIUYH1AU470H2HRBLZRFBM95TDS","","null","<img src=""img/land3.png"" style=""width:200px; border:14px solid green;"">","null","","","","","","","","","",""
"","image-keyboard-response","184","126923","0.0-184.0","3F6HPJW4JEMBIRLA691HFBRU07HW29","AKX4H8RT7BL7H","3WPCIUYH1AU470H2HRBLZRFBM95TDS","","460.5","img/land3.png","76","461.80000019073486","3","1","3","2","1,0.7,0.7,0.7,1,0.7,0.7,0.7,1","1,0.7,0.7,0.7,1,0.7,0.7,0.7,1","","",""
"","html-keyboard-response","185","127231","0.0-185.0","3F6HPJW4JEMBIRLA691HFBRU07HW29","AKX4H8RT7BL7H","3WPCIUYH1AU470H2HRBLZRFBM95TDS","","null","<img src=""img/land3.png"" style=""width:200px; border:14px solid green;"">","null","","","","","","","","","",""
"","image-keyboard-response","186","127586","0.0-186.0","3F6HPJW4JEMBIRLA691HFBRU07HW29","AKX4H8RT7BL7H","3WPCIUYH1AU470H2HRBLZRFBM95TDS","","353.19999980926514","img/land3.png","76","355","3","1","3","2","1,0.7,0.7,0.7,1,0.7,0.7,0.7,1","1,0.7,0.7,0.7,1,0.7,0.7,0.7,1","","",""
"","html-keyboard-response","187","127889","0.0-187.0","3F6HPJW4JEMBIRLA691HFBRU07HW29","AKX4H8RT7BL7H","3WPCIUYH1AU470H2HRBLZRFBM95TDS","","null","<img src=""img/land3.png"" style=""width:200px; border:14px solid green;"">","null","","","","","","","","","",""
"","image-keyboard-response","188","128305","0.0-188.0","3F6HPJW4JEMBIRLA691HFBRU07HW29","AKX4H8RT7BL7H","3WPCIUYH1AU470H2HRBLZRFBM95TDS","","415.19999980926514","img/land3.png","76","416.20000076293945","3","1","3","2","1,0.7,0.7,0.7,1,0.7,0.7,0.7,1","1,0.7,0.7,0.7,1,0.7,0.7,0.7,1","","",""
"","html-keyboard-response","189","128611","0.0-189.0","3F6HPJW4JEMBIRLA691HFBRU07HW29","AKX4H8RT7BL7H","3WPCIUYH1AU470H2HRBLZRFBM95TDS","","null","<img src=""img/land3.png"" style=""width:200px; border:14px solid green;"">","null","","","","","","","","","",""
"","image-keyboard-response","190","129557","0.0-190.0","3F6HPJW4JEMBIRLA691HFBRU07HW29","AKX4H8RT7BL7H","3WPCIUYH1AU470H2HRBLZRFBM95TDS","","944.8000001907349","img/land2.png","75","946.5","2","1","2","2","1,0.7,0.7,0.7,1,0.7,0.7,0.7,1","1,0.7,0.7,0.7,1,0.7,0.7,0.7,1","","",""
"","html-keyboard-response","191","129864","0.0-191.0","3F6HPJW4JEMBIRLA691HFBRU07HW29","AKX4H8RT7BL7H","3WPCIUYH1AU470H2HRBLZRFBM95TDS","","null","<img src=""img/land2.png"" style=""width:200px; border:14px solid green;"">","null","","","","","","","","","",""
"","image-keyboard-response","192","130388","0.0-192.0","3F6HPJW4JEMBIRLA691HFBRU07HW29","AKX4H8RT7BL7H","3WPCIUYH1AU470H2HRBLZRFBM95TDS","","522.8000001907349","img/land3.png","76","523.9000005722046","3","1","3","2","1,0.7,0.7,0.7,1,0.7,0.7,0.7,1","1,0.7,0.7,0.7,1,0.7,0.7,0.7,1","","",""
"","html-keyboard-response","193","130695","0.0-193.0","3F6HPJW4JEMBIRLA691HFBRU07HW29","AKX4H8RT7BL7H","3WPCIUYH1AU470H2HRBLZRFBM95TDS","","null","<img src=""img/land3.png"" style=""width:200px; border:14px solid green;"">","null","","","","","","","","","",""
"","image-keyboard-response","194","131105","0.0-194.0","3F6HPJW4JEMBIRLA691HFBRU07HW29","AKX4H8RT7BL7H","3WPCIUYH1AU470H2HRBLZRFBM95TDS","","407.8999996185303","img/land3.png","76","409.5","3","1","3","2","1,0.7,0.7,0.7,1,0.7,0.7,0.7,1","1,0.7,0.7,0.7,1,0.7,0.7,0.7,1","","",""
"","html-keyboard-response","195","131408","0.0-195.0","3F6HPJW4JEMBIRLA691HFBRU07HW29","AKX4H8RT7BL7H","3WPCIUYH1AU470H2HRBLZRFBM95TDS","","null","<img src=""img/land3.png"" style=""width:200px; border:14px solid green;"">","null","","","","","","","","","",""
"","image-keyboard-response","196","132481","0.0-196.0","3F6HPJW4JEMBIRLA691HFBRU07HW29","AKX4H8RT7BL7H","3WPCIUYH1AU470H2HRBLZRFBM95TDS","","1070.6000003814697","img/land2.png","75","1072.5","2","1","2","2","1,0.7,0.7,0.7,1,0.7,0.7,0.7,1","1,0.7,0.7,0.7,1,0.7,0.7,0.7,1","","",""
"","html-keyboard-response","197","132787","0.0-197.0","3F6HPJW4JEMBIRLA691HFBRU07HW29","AKX4H8RT7BL7H","3WPCIUYH1AU470H2HRBLZRFBM95TDS","","null","<img src=""img/land2.png"" style=""width:200px; border:14px solid green;"">","null","","","","","","","","","",""
"","image-keyboard-response","198","133410","0.0-198.0","3F6HPJW4JEMBIRLA691HFBRU07HW29","AKX4H8RT7BL7H","3WPCIUYH1AU470H2HRBLZRFBM95TDS","","620.8000001907349","img/land2.png","75","622.5","2","1","2","2","1,0.7,0.7,0.7,1,0.7,0.7,0.7,1","1,0.7,0.7,0.7,1,0.7,0.7,0.7,1","","",""
"","html-keyboard-response","199","133716","0.0-199.0","3F6HPJW4JEMBIRLA691HFBRU07HW29","AKX4H8RT7BL7H","3WPCIUYH1AU470H2HRBLZRFBM95TDS","","null","<img src=""img/land2.png"" style=""width:200px; border:14px solid green;"">","null","","","","","","","","","",""
"","image-keyboard-response","200","134392","0.0-200.0","3F6HPJW4JEMBIRLA691HFBRU07HW29","AKX4H8RT7BL7H","3WPCIUYH1AU470H2HRBLZRFBM95TDS","","674.6000003814697","img/land3.png","76","675.5","3","1","3","2","1,0.7,0.7,0.7,1,0.7,0.7,0.7,1","1,0.7,0.7,0.7,1,0.7,0.7,0.7,1","","",""
"","html-keyboard-response","201","134699","0.0-201.0","3F6HPJW4JEMBIRLA691HFBRU07HW29","AKX4H8RT7BL7H","3WPCIUYH1AU470H2HRBLZRFBM95TDS","","null","<img src=""img/land3.png"" style=""width:200px; border:14px solid green;"">","null","","","","","","","","","",""
"","image-keyboard-response","202","135355","0.0-202.0","3F6HPJW4JEMBIRLA691HFBRU07HW29","AKX4H8RT7BL7H","3WPCIUYH1AU470H2HRBLZRFBM95TDS","","653.6999998092651","img/land1.png","74","655.6999998092651","1","1","1","2","1,0.7,0.7,0.7,1,0.7,0.7,0.7,1","1,0.7,0.7,0.7,1,0.7,0.7,0.7,1","","",""
"","html-keyboard-response","203","135662","0.0-203.0","3F6HPJW4JEMBIRLA691HFBRU07HW29","AKX4H8RT7BL7H","3WPCIUYH1AU470H2HRBLZRFBM95TDS","","null","<img src=""img/land1.png"" style=""width:200px; border:14px solid green;"">","null","","","","","","","","","",""
"","image-keyboard-response","204","136365","0.0-204.0","3F6HPJW4JEMBIRLA691HFBRU07HW29","AKX4H8RT7BL7H","3WPCIUYH1AU470H2HRBLZRFBM95TDS","","702","img/land1.png","74","703","1","1","1","2","1,0.7,0.7,0.7,1,0.7,0.7,0.7,1","1,0.7,0.7,0.7,1,0.7,0.7,0.7,1","","",""
"","html-keyboard-response","205","136670","0.0-205.0","3F6HPJW4JEMBIRLA691HFBRU07HW29","AKX4H8RT7BL7H","3WPCIUYH1AU470H2HRBLZRFBM95TDS","","null","<img src=""img/land1.png"" style=""width:200px; border:14px solid green;"">","null","","","","","","","","","",""
"","image-keyboard-response","206","137576","0.0-206.0","3F6HPJW4JEMBIRLA691HFBRU07HW29","AKX4H8RT7BL7H","3WPCIUYH1AU470H2HRBLZRFBM95TDS","","904.3999996185303","img/land3.png","76","906","3","1","3","2","1,0.7,0.7,0.7,1,0.7,0.7,0.7,1","1,0.7,0.7,0.7,1,0.7,0.7,0.7,1","","",""
"","html-keyboard-response","207","137882","0.0-207.0","3F6HPJW4JEMBIRLA691HFBRU07HW29","AKX4H8RT7BL7H","3WPCIUYH1AU470H2HRBLZRFBM95TDS","","null","<img src=""img/land3.png"" style=""width:200px; border:14px solid green;"">","null","","","","","","","","","",""
"","image-keyboard-response","208","138471","0.0-208.0","3F6HPJW4JEMBIRLA691HFBRU07HW29","AKX4H8RT7BL7H","3WPCIUYH1AU470H2HRBLZRFBM95TDS","","587.4000005722046","img/land3.png","76","588.5","3","1","3","2","1,0.7,0.7,0.7,1,0.7,0.7,0.7,1","1,0.7,0.7,0.7,1,0.7,0.7,0.7,1","","",""
"","html-keyboard-response","209","138777","0.0-209.0","3F6HPJW4JEMBIRLA691HFBRU07HW29","AKX4H8RT7BL7H","3WPCIUYH1AU470H2HRBLZRFBM95TDS","","null","<img src=""img/land3.png"" style=""width:200px; border:14px solid green;"">","null","","","","","","","","","",""
"","image-keyboard-response","210","139221","0.0-210.0","3F6HPJW4JEMBIRLA691HFBRU07HW29","AKX4H8RT7BL7H","3WPCIUYH1AU470H2HRBLZRFBM95TDS","","441.30000019073486","img/land3.png","76","443.1000003814697","3","1","3","2","1,0.7,0.7,0.7,1,0.7,0.7,0.7,1","1,0.7,0.7,0.7,1,0.7,0.7,0.7,1","","",""
"","html-keyboard-response","211","139528","0.0-211.0","3F6HPJW4JEMBIRLA691HFBRU07HW29","AKX4H8RT7BL7H","3WPCIUYH1AU470H2HRBLZRFBM95TDS","","null","<img src=""img/land3.png"" style=""width:200px; border:14px solid green;"">","null","","","","","","","","","",""
"","image-keyboard-response","212","140119","0.0-212.0","3F6HPJW4JEMBIRLA691HFBRU07HW29","AKX4H8RT7BL7H","3WPCIUYH1AU470H2HRBLZRFBM95TDS","","589.6000003814697","img/land3.png","76","591.5","3","1","3","2","1,0.7,0.7,0.7,1,0.7,0.7,0.7,1","1,0.7,0.7,0.7,1,0.7,0.7,0.7,1","","",""
"","html-keyboard-response","213","140426","0.0-213.0","3F6HPJW4JEMBIRLA691HFBRU07HW29","AKX4H8RT7BL7H","3WPCIUYH1AU470H2HRBLZRFBM95TDS","","null","<img src=""img/land3.png"" style=""width:200px; border:14px solid green;"">","null","","","","","","","","","",""
"","image-keyboard-response","214","141166","0.0-214.0","3F6HPJW4JEMBIRLA691HFBRU07HW29","AKX4H8RT7BL7H","3WPCIUYH1AU470H2HRBLZRFBM95TDS","","737.5","img/land1.png","74","739.3000001907349","1","1","1","2","1,0.7,0.7,0.7,1,0.7,0.7,0.7,1","1,0.7,0.7,0.7,1,0.7,0.7,0.7,1","","",""
"","html-keyboard-response","215","141473","0.0-215.0","3F6HPJW4JEMBIRLA691HFBRU07HW29","AKX4H8RT7BL7H","3WPCIUYH1AU470H2HRBLZRFBM95TDS","","null","<img src=""img/land1.png"" style=""width:200px; border:14px solid green;"">","null","","","","","","","","","",""
"","image-keyboard-response","216","142227","0.0-216.0","3F6HPJW4JEMBIRLA691HFBRU07HW29","AKX4H8RT7BL7H","3WPCIUYH1AU470H2HRBLZRFBM95TDS","","751.1999998092651","img/land3.png","76","753","3","1","3","2","1,0.7,0.7,0.7,1,0.7,0.7,0.7,1","1,0.7,0.7,0.7,1,0.7,0.7,0.7,1","","",""
"","html-keyboard-response","217","142532","0.0-217.0","3F6HPJW4JEMBIRLA691HFBRU07HW29","AKX4H8RT7BL7H","3WPCIUYH1AU470H2HRBLZRFBM95TDS","","null","<img src=""img/land3.png"" style=""width:200px; border:14px solid green;"">","null","","","","","","","","","",""
"","image-keyboard-response","218","143147","0.0-218.0","3F6HPJW4JEMBIRLA691HFBRU07HW29","AKX4H8RT7BL7H","3WPCIUYH1AU470H2HRBLZRFBM95TDS","","612.8000001907349","img/land1.png","74","614.5","1","1","1","2","1,0.7,0.7,0.7,1,0.7,0.7,0.7,1","1,0.7,0.7,0.7,1,0.7,0.7,0.7,1","","",""
"","html-keyboard-response","219","143454","0.0-219.0","3F6HPJW4JEMBIRLA691HFBRU07HW29","AKX4H8RT7BL7H","3WPCIUYH1AU470H2HRBLZRFBM95TDS","","null","<img src=""img/land1.png"" style=""width:200px; border:14px solid green;"">","null","","","","","","","","","",""
"","image-keyboard-response","220","144061","0.0-220.0","3F6HPJW4JEMBIRLA691HFBRU07HW29","AKX4H8RT7BL7H","3WPCIUYH1AU470H2HRBLZRFBM95TDS","","605.1999998092651","img/land3.png","76","606.8999996185303","3","1","3","2","1,0.7,0.7,0.7,1,0.7,0.7,0.7,1","1,0.7,0.7,0.7,1,0.7,0.7,0.7,1","","",""
"","html-keyboard-response","221","144368","0.0-221.0","3F6HPJW4JEMBIRLA691HFBRU07HW29","AKX4H8RT7BL7H","3WPCIUYH1AU470H2HRBLZRFBM95TDS","","null","<img src=""img/land3.png"" style=""width:200px; border:14px solid green;"">","null","","","","","","","","","",""
"","image-keyboard-response","222","144882","0.0-222.0","3F6HPJW4JEMBIRLA691HFBRU07HW29","AKX4H8RT7BL7H","3WPCIUYH1AU470H2HRBLZRFBM95TDS","","511.80000019073486","img/land3.png","76","513.6000003814697","3","1","3","2","1,0.7,0.7,0.7,1,0.7,0.7,0.7,1","1,0.7,0.7,0.7,1,0.7,0.7,0.7,1","","",""
"","html-keyboard-response","223","145185","0.0-223.0","3F6HPJW4JEMBIRLA691HFBRU07HW29","AKX4H8RT7BL7H","3WPCIUYH1AU470H2HRBLZRFBM95TDS","","null","<img src=""img/land3.png"" style=""width:200px; border:14px solid green;"">","null","","","","","","","","","",""
"","image-keyboard-response","224","145544","0.0-224.0","3F6HPJW4JEMBIRLA691HFBRU07HW29","AKX4H8RT7BL7H","3WPCIUYH1AU470H2HRBLZRFBM95TDS","","356.19999980926514","img/land3.png","76","358","3","1","3","2","1,0.7,0.7,0.7,1,0.7,0.7,0.7,1","1,0.7,0.7,0.7,1,0.7,0.7,0.7,1","","",""
"","html-keyboard-response","225","145851","0.0-225.0","3F6HPJW4JEMBIRLA691HFBRU07HW29","AKX4H8RT7BL7H","3WPCIUYH1AU470H2HRBLZRFBM95TDS","","null","<img src=""img/land3.png"" style=""width:200px; border:14px solid green;"">","null","","","","","","","","","",""
"","image-keyboard-response","226","146585","0.0-226.0","3F6HPJW4JEMBIRLA691HFBRU07HW29","AKX4H8RT7BL7H","3WPCIUYH1AU470H2HRBLZRFBM95TDS","","733","img/land2.png","75","733.8000001907349","2","1","2","2","1,0.7,0.7,0.7,1,0.7,0.7,0.7,1","1,0.7,0.7,0.7,1,0.7,0.7,0.7,1","","",""
"","html-keyboard-response","227","146891","0.0-227.0","3F6HPJW4JEMBIRLA691HFBRU07HW29","AKX4H8RT7BL7H","3WPCIUYH1AU470H2HRBLZRFBM95TDS","","null","<img src=""img/land2.png"" style=""width:200px; border:14px solid green;"">","null","","","","","","","","","",""
"","image-keyboard-response","228","147439","0.0-228.0","3F6HPJW4JEMBIRLA691HFBRU07HW29","AKX4H8RT7BL7H","3WPCIUYH1AU470H2HRBLZRFBM95TDS","","546.1000003814697","img/land3.png","76","548","3","1","3","2","1,0.7,0.7,0.7,1,0.7,0.7,0.7,1","1,0.7,0.7,0.7,1,0.7,0.7,0.7,1","","",""
"","html-keyboard-response","229","147746","0.0-229.0","3F6HPJW4JEMBIRLA691HFBRU07HW29","AKX4H8RT7BL7H","3WPCIUYH1AU470H2HRBLZRFBM95TDS","","null","<img src=""img/land3.png"" style=""width:200px; border:14px solid green;"">","null","","","","","","","","","",""
"","image-keyboard-response","230","148638","0.0-230.0","3F6HPJW4JEMBIRLA691HFBRU07HW29","AKX4H8RT7BL7H","3WPCIUYH1AU470H2HRBLZRFBM95TDS","","890.6999998092651","img/land2.png","75","891.6000003814697","2","1","2","2","1,0.7,0.7,0.7,1,0.7,0.7,0.7,1","1,0.7,0.7,0.7,1,0.7,0.7,0.7,1","","",""
"","html-keyboard-response","231","148941","0.0-231.0","3F6HPJW4JEMBIRLA691HFBRU07HW29","AKX4H8RT7BL7H","3WPCIUYH1AU470H2HRBLZRFBM95TDS","","null","<img src=""img/land2.png"" style=""width:200px; border:14px solid green;"">","null","","","","","","","","","",""
"","image-keyboard-response","232","149573","0.0-232.0","3F6HPJW4JEMBIRLA691HFBRU07HW29","AKX4H8RT7BL7H","3WPCIUYH1AU470H2HRBLZRFBM95TDS","","629.6000003814697","img/land1.png","74","631.4000005722046","1","1","1","2","1,0.7,0.7,0.7,1,0.7,0.7,0.7,1","1,0.7,0.7,0.7,1,0.7,0.7,0.7,1","","",""
"","html-keyboard-response","233","149880","0.0-233.0","3F6HPJW4JEMBIRLA691HFBRU07HW29","AKX4H8RT7BL7H","3WPCIUYH1AU470H2HRBLZRFBM95TDS","","null","<img src=""img/land1.png"" style=""width:200px; border:14px solid green;"">","null","","","","","","","","","",""
"","image-keyboard-response","234","150540","0.0-234.0","3F6HPJW4JEMBIRLA691HFBRU07HW29","AKX4H8RT7BL7H","3WPCIUYH1AU470H2HRBLZRFBM95TDS","","658.7000007629395","img/land1.png","74","659.8000001907349","1","1","1","2","1,0.7,0.7,0.7,1,0.7,0.7,0.7,1","1,0.7,0.7,0.7,1,0.7,0.7,0.7,1","","",""
"","html-keyboard-response","235","150843","0.0-235.0","3F6HPJW4JEMBIRLA691HFBRU07HW29","AKX4H8RT7BL7H","3WPCIUYH1AU470H2HRBLZRFBM95TDS","","null","<img src=""img/land1.png"" style=""width:200px; border:14px solid green;"">","null","","","","","","","","","",""
"","image-keyboard-response","236","151573","0.0-236.0","3F6HPJW4JEMBIRLA691HFBRU07HW29","AKX4H8RT7BL7H","3WPCIUYH1AU470H2HRBLZRFBM95TDS","","727.4000005722046","img/land3.png","76","729.1999998092651","3","1","3","2","1,0.7,0.7,0.7,1,0.7,0.7,0.7,1","1,0.7,0.7,0.7,1,0.7,0.7,0.7,1","","",""
"","html-keyboard-response","237","151879","0.0-237.0","3F6HPJW4JEMBIRLA691HFBRU07HW29","AKX4H8RT7BL7H","3WPCIUYH1AU470H2HRBLZRFBM95TDS","","null","<img src=""img/land3.png"" style=""width:200px; border:14px solid green;"">","null","","","","","","","","","",""
"","image-keyboard-response","238","152453","0.0-238.0","3F6HPJW4JEMBIRLA691HFBRU07HW29","AKX4H8RT7BL7H","3WPCIUYH1AU470H2HRBLZRFBM95TDS","","572.3999996185303","img/land3.png","76","573.3999996185303","3","1","3","2","1,0.7,0.7,0.7,1,0.7,0.7,0.7,1","1,0.7,0.7,0.7,1,0.7,0.7,0.7,1","","",""
"","html-keyboard-response","239","152760","0.0-239.0","3F6HPJW4JEMBIRLA691HFBRU07HW29","AKX4H8RT7BL7H","3WPCIUYH1AU470H2HRBLZRFBM95TDS","","null","<img src=""img/land3.png"" style=""width:200px; border:14px solid green;"">","null","","","","","","","","","",""
"","image-keyboard-response","240","153610","0.0-240.0","3F6HPJW4JEMBIRLA691HFBRU07HW29","AKX4H8RT7BL7H","3WPCIUYH1AU470H2HRBLZRFBM95TDS","","848.6000003814697","img/land1.png","74","850.4000005722046","1","1","1","2","1,0.7,0.7,0.7,1,0.7,0.7,0.7,1","1,0.7,0.7,0.7,1,0.7,0.7,0.7,1","","",""
"","html-keyboard-response","241","153917","0.0-241.0","3F6HPJW4JEMBIRLA691HFBRU07HW29","AKX4H8RT7BL7H","3WPCIUYH1AU470H2HRBLZRFBM95TDS","","null","<img src=""img/land1.png"" style=""width:200px; border:14px solid green;"">","null","","","","","","","","","",""
"","image-keyboard-response","242","154458","0.0-242.0","3F6HPJW4JEMBIRLA691HFBRU07HW29","AKX4H8RT7BL7H","3WPCIUYH1AU470H2HRBLZRFBM95TDS","","540.6000003814697","img/land1.png","74","541.1999998092651","1","1","1","2","1,0.7,0.7,0.7,1,0.7,0.7,0.7,1","1,0.7,0.7,0.7,1,0.7,0.7,0.7,1","","",""
"","html-keyboard-response","243","154765","0.0-243.0","3F6HPJW4JEMBIRLA691HFBRU07HW29","AKX4H8RT7BL7H","3WPCIUYH1AU470H2HRBLZRFBM95TDS","","null","<img src=""img/land1.png"" style=""width:200px; border:14px solid green;"">","null","","","","","","","","","",""
"","image-keyboard-response","244","155586","0.0-244.0","3F6HPJW4JEMBIRLA691HFBRU07HW29","AKX4H8RT7BL7H","3WPCIUYH1AU470H2HRBLZRFBM95TDS","","819","img/land2.png","75","820.8000001907349","2","1","2","2","1,0.7,0.7,0.7,1,0.7,0.7,0.7,1","1,0.7,0.7,0.7,1,0.7,0.7,0.7,1","","",""
"","html-keyboard-response","245","155892","0.0-245.0","3F6HPJW4JEMBIRLA691HFBRU07HW29","AKX4H8RT7BL7H","3WPCIUYH1AU470H2HRBLZRFBM95TDS","","null","<img src=""img/land2.png"" style=""width:200px; border:14px solid green;"">","null","","","","","","","","","",""
"","image-keyboard-response","246","156698","0.0-246.0","3F6HPJW4JEMBIRLA691HFBRU07HW29","AKX4H8RT7BL7H","3WPCIUYH1AU470H2HRBLZRFBM95TDS","","804.6000003814697","img/land3.png","76","805.5","3","1","3","2","1,0.7,0.7,0.7,1,0.7,0.7,0.7,1","1,0.7,0.7,0.7,1,0.7,0.7,0.7,1","","",""
"","html-keyboard-response","247","157002","0.0-247.0","3F6HPJW4JEMBIRLA691HFBRU07HW29","AKX4H8RT7BL7H","3WPCIUYH1AU470H2HRBLZRFBM95TDS","","null","<img src=""img/land3.png"" style=""width:200px; border:14px solid green;"">","null","","","","","","","","","",""
"","image-keyboard-response","248","157703","0.0-248.0","3F6HPJW4JEMBIRLA691HFBRU07HW29","AKX4H8RT7BL7H","3WPCIUYH1AU470H2HRBLZRFBM95TDS","","699.5","img/land3.png","76","700.8000001907349","3","1","3","2","1,0.7,0.7,0.7,1,0.7,0.7,0.7,1","1,0.7,0.7,0.7,1,0.7,0.7,0.7,1","","",""
"","html-keyboard-response","249","158006","0.0-249.0","3F6HPJW4JEMBIRLA691HFBRU07HW29","AKX4H8RT7BL7H","3WPCIUYH1AU470H2HRBLZRFBM95TDS","","null","<img src=""img/land3.png"" style=""width:200px; border:14px solid green;"">","null","","","","","","","","","",""
"","image-keyboard-response","250","159064","0.0-250.0","3F6HPJW4JEMBIRLA691HFBRU07HW29","AKX4H8RT7BL7H","3WPCIUYH1AU470H2HRBLZRFBM95TDS","","1055.0999994277954","img/land1.png","74","1056.6000003814697","1","1","1","2","1,0.7,0.7,0.7,1,0.7,0.7,0.7,1","1,0.7,0.7,0.7,1,0.7,0.7,0.7,1","","",""
"","html-keyboard-response","251","159368","0.0-251.0","3F6HPJW4JEMBIRLA691HFBRU07HW29","AKX4H8RT7BL7H","3WPCIUYH1AU470H2HRBLZRFBM95TDS","","null","<img src=""img/land1.png"" style=""width:200px; border:14px solid green;"">","null","","","","","","","","","",""
"","image-keyboard-response","252","160255","0.0-252.0","3F6HPJW4JEMBIRLA691HFBRU07HW29","AKX4H8RT7BL7H","3WPCIUYH1AU470H2HRBLZRFBM95TDS","","885.1000003814697","img/land3.png","76","886.8000001907349","3","1","3","2","1,0.7,0.7,0.7,1,0.7,0.7,0.7,1","1,0.7,0.7,0.7,1,0.7,0.7,0.7,1","","",""
"","html-keyboard-response","253","160563","0.0-253.0","3F6HPJW4JEMBIRLA691HFBRU07HW29","AKX4H8RT7BL7H","3WPCIUYH1AU470H2HRBLZRFBM95TDS","","null","<img src=""img/land3.png"" style=""width:200px; border:14px solid green;"">","null","","","","","","","","","",""
"","image-keyboard-response","254","161033","0.0-254.0","3F6HPJW4JEMBIRLA691HFBRU07HW29","AKX4H8RT7BL7H","3WPCIUYH1AU470H2HRBLZRFBM95TDS","","467.69999980926514","img/land3.png","76","469.5","3","1","3","2","1,0.7,0.7,0.7,1,0.7,0.7,0.7,1","1,0.7,0.7,0.7,1,0.7,0.7,0.7,1","","",""
"","html-keyboard-response","255","161341","0.0-255.0","3F6HPJW4JEMBIRLA691HFBRU07HW29","AKX4H8RT7BL7H","3WPCIUYH1AU470H2HRBLZRFBM95TDS","","null","<img src=""img/land3.png"" style=""width:200px; border:14px solid green;"">","null","","","","","","","","","",""
"","image-keyboard-response","256","161898","0.0-256.0","3F6HPJW4JEMBIRLA691HFBRU07HW29","AKX4H8RT7BL7H","3WPCIUYH1AU470H2HRBLZRFBM95TDS","","554.8999996185303","img/land3.png","76","556.8000001907349","3","1","3","2","1,0.7,0.7,0.7,1,0.7,0.7,0.7,1","1,0.7,0.7,0.7,1,0.7,0.7,0.7,1","","",""
"","html-keyboard-response","257","162202","0.0-257.0","3F6HPJW4JEMBIRLA691HFBRU07HW29","AKX4H8RT7BL7H","3WPCIUYH1AU470H2HRBLZRFBM95TDS","","null","<img src=""img/land3.png"" style=""width:200px; border:14px solid green;"">","null","","","","","","","","","",""
"","image-keyboard-response","258","162790","0.0-258.0","3F6HPJW4JEMBIRLA691HFBRU07HW29","AKX4H8RT7BL7H","3WPCIUYH1AU470H2HRBLZRFBM95TDS","","585.8000001907349","img/land3.png","76","587.6000003814697","3","1","3","2","1,0.7,0.7,0.7,1,0.7,0.7,0.7,1","1,0.7,0.7,0.7,1,0.7,0.7,0.7,1","","",""
"","html-keyboard-response","259","163095","0.0-259.0","3F6HPJW4JEMBIRLA691HFBRU07HW29","AKX4H8RT7BL7H","3WPCIUYH1AU470H2HRBLZRFBM95TDS","","null","<img src=""img/land3.png"" style=""width:200px; border:14px solid green;"">","null","","","","","","","","","",""
"","image-keyboard-response","260","163577","0.0-260.0","3F6HPJW4JEMBIRLA691HFBRU07HW29","AKX4H8RT7BL7H","3WPCIUYH1AU470H2HRBLZRFBM95TDS","","480.19999980926514","img/land3.png","76","482","3","1","3","2","1,0.7,0.7,0.7,1,0.7,0.7,0.7,1","1,0.7,0.7,0.7,1,0.7,0.7,0.7,1","","",""
"","html-keyboard-response","261","163884","0.0-261.0","3F6HPJW4JEMBIRLA691HFBRU07HW29","AKX4H8RT7BL7H","3WPCIUYH1AU470H2HRBLZRFBM95TDS","","null","<img src=""img/land3.png"" style=""width:200px; border:14px solid green;"">","null","","","","","","","","","",""
"","image-keyboard-response","262","164282","0.0-262.0","3F6HPJW4JEMBIRLA691HFBRU07HW29","AKX4H8RT7BL7H","3WPCIUYH1AU470H2HRBLZRFBM95TDS","","395.9000005722046","img/land3.png","76","396.8999996185303","3","1","3","2","1,0.7,0.7,0.7,1,0.7,0.7,0.7,1","1,0.7,0.7,0.7,1,0.7,0.7,0.7,1","","",""
"","html-keyboard-response","263","164588","0.0-263.0","3F6HPJW4JEMBIRLA691HFBRU07HW29","AKX4H8RT7BL7H","3WPCIUYH1AU470H2HRBLZRFBM95TDS","","null","<img src=""img/land3.png"" style=""width:200px; border:14px solid green;"">","null","","","","","","","","","",""
"","image-keyboard-response","264","165286","0.0-264.0","3F6HPJW4JEMBIRLA691HFBRU07HW29","AKX4H8RT7BL7H","3WPCIUYH1AU470H2HRBLZRFBM95TDS","","695.4000005722046","img/land1.png","74","697.2999992370605","1","1","1","2","1,0.7,0.7,0.7,1,0.7,0.7,0.7,1","1,0.7,0.7,0.7,1,0.7,0.7,0.7,1","","",""
"","html-keyboard-response","265","165593","0.0-265.0","3F6HPJW4JEMBIRLA691HFBRU07HW29","AKX4H8RT7BL7H","3WPCIUYH1AU470H2HRBLZRFBM95TDS","","null","<img src=""img/land1.png"" style=""width:200px; border:14px solid green;"">","null","","","","","","","","","",""
"","image-keyboard-response","266","166162","0.0-266.0","3F6HPJW4JEMBIRLA691HFBRU07HW29","AKX4H8RT7BL7H","3WPCIUYH1AU470H2HRBLZRFBM95TDS","","568.5","img/land3.png","76","569.2999992370605","3","1","3","2","1,0.7,0.7,0.7,1,0.7,0.7,0.7,1","1,0.7,0.7,0.7,1,0.7,0.7,0.7,1","","",""
"","html-keyboard-response","267","166466","0.0-267.0","3F6HPJW4JEMBIRLA691HFBRU07HW29","AKX4H8RT7BL7H","3WPCIUYH1AU470H2HRBLZRFBM95TDS","","null","<img src=""img/land3.png"" style=""width:200px; border:14px solid green;"">","null","","","","","","","","","",""
"","image-keyboard-response","268","166945","0.0-268.0","3F6HPJW4JEMBIRLA691HFBRU07HW29","AKX4H8RT7BL7H","3WPCIUYH1AU470H2HRBLZRFBM95TDS","","477.0999994277954","img/land3.png","76","479.1000003814697","3","1","3","2","1,0.7,0.7,0.7,1,0.7,0.7,0.7,1","1,0.7,0.7,0.7,1,0.7,0.7,0.7,1","","",""
"","html-keyboard-response","269","167250","0.0-269.0","3F6HPJW4JEMBIRLA691HFBRU07HW29","AKX4H8RT7BL7H","3WPCIUYH1AU470H2HRBLZRFBM95TDS","","null","<img src=""img/land3.png"" style=""width:200px; border:14px solid green;"">","null","","","","","","","","","",""
"","image-keyboard-response","270","168008","0.0-270.0","3F6HPJW4JEMBIRLA691HFBRU07HW29","AKX4H8RT7BL7H","3WPCIUYH1AU470H2HRBLZRFBM95TDS","","756.5","img/land1.png","74","758.1999998092651","1","1","1","2","1,0.7,0.7,0.7,1,0.7,0.7,0.7,1","1,0.7,0.7,0.7,1,0.7,0.7,0.7,1","","",""
"","html-keyboard-response","271","168313","0.0-271.0","3F6HPJW4JEMBIRLA691HFBRU07HW29","AKX4H8RT7BL7H","3WPCIUYH1AU470H2HRBLZRFBM95TDS","","null","<img src=""img/land1.png"" style=""width:200px; border:14px solid green;"">","null","","","","","","","","","",""
"","image-keyboard-response","272","168979","0.0-272.0","3F6HPJW4JEMBIRLA691HFBRU07HW29","AKX4H8RT7BL7H","3WPCIUYH1AU470H2HRBLZRFBM95TDS","","663.5","img/land1.png","74","665.3000001907349","1","1","1","2","1,0.7,0.7,0.7,1,0.7,0.7,0.7,1","1,0.7,0.7,0.7,1,0.7,0.7,0.7,1","","",""
"","html-keyboard-response","273","169286","0.0-273.0","3F6HPJW4JEMBIRLA691HFBRU07HW29","AKX4H8RT7BL7H","3WPCIUYH1AU470H2HRBLZRFBM95TDS","","null","<img src=""img/land1.png"" style=""width:200px; border:14px solid green;"">","null","","","","","","","","","",""
"","image-keyboard-response","274","170026","0.0-274.0","3F6HPJW4JEMBIRLA691HFBRU07HW29","AKX4H8RT7BL7H","3WPCIUYH1AU470H2HRBLZRFBM95TDS","","737.8000001907349","img/land2.png","75","739.6999998092651","2","1","2","2","1,0.7,0.7,0.7,1,0.7,0.7,0.7,1","1,0.7,0.7,0.7,1,0.7,0.7,0.7,1","","",""
"","html-keyboard-response","275","170333","0.0-275.0","3F6HPJW4JEMBIRLA691HFBRU07HW29","AKX4H8RT7BL7H","3WPCIUYH1AU470H2HRBLZRFBM95TDS","","null","<img src=""img/land2.png"" style=""width:200px; border:14px solid green;"">","null","","","","","","","","","",""
"","image-keyboard-response","276","170986","0.0-276.0","3F6HPJW4JEMBIRLA691HFBRU07HW29","AKX4H8RT7BL7H","3WPCIUYH1AU470H2HRBLZRFBM95TDS","","651.1999998092651","img/land1.png","74","652.8000001907349","1","1","1","2","1,0.7,0.7,0.7,1,0.7,0.7,0.7,1","1,0.7,0.7,0.7,1,0.7,0.7,0.7,1","","",""
"","html-keyboard-response","277","171292","0.0-277.0","3F6HPJW4JEMBIRLA691HFBRU07HW29","AKX4H8RT7BL7H","3WPCIUYH1AU470H2HRBLZRFBM95TDS","","null","<img src=""img/land1.png"" style=""width:200px; border:14px solid green;"">","null","","","","","","","","","",""
"","image-keyboard-response","278","171905","0.0-278.0","3F6HPJW4JEMBIRLA691HFBRU07HW29","AKX4H8RT7BL7H","3WPCIUYH1AU470H2HRBLZRFBM95TDS","","610.8999996185303","img/land3.png","76","612.6999998092651","3","1","3","2","1,0.7,0.7,0.7,1,0.7,0.7,0.7,1","1,0.7,0.7,0.7,1,0.7,0.7,0.7,1","","",""
"","html-keyboard-response","279","172209","0.0-279.0","3F6HPJW4JEMBIRLA691HFBRU07HW29","AKX4H8RT7BL7H","3WPCIUYH1AU470H2HRBLZRFBM95TDS","","null","<img src=""img/land3.png"" style=""width:200px; border:14px solid green;"">","null","","","","","","","","","",""
"","image-keyboard-response","280","172860","0.0-280.0","3F6HPJW4JEMBIRLA691HFBRU07HW29","AKX4H8RT7BL7H","3WPCIUYH1AU470H2HRBLZRFBM95TDS","","649","img/land1.png","74","650.6000003814697","1","1","1","2","1,0.7,0.7,0.7,1,0.7,0.7,0.7,1","1,0.7,0.7,0.7,1,0.7,0.7,0.7,1","","",""
"","html-keyboard-response","281","173165","0.0-281.0","3F6HPJW4JEMBIRLA691HFBRU07HW29","AKX4H8RT7BL7H","3WPCIUYH1AU470H2HRBLZRFBM95TDS","","null","<img src=""img/land1.png"" style=""width:200px; border:14px solid green;"">","null","","","","","","","","","",""
"","image-keyboard-response","282","173712","0.0-282.0","3F6HPJW4JEMBIRLA691HFBRU07HW29","AKX4H8RT7BL7H","3WPCIUYH1AU470H2HRBLZRFBM95TDS","","545.2999992370605","img/land3.png","76","546.7000007629395","3","1","3","2","1,0.7,0.7,0.7,1,0.7,0.7,0.7,1","1,0.7,0.7,0.7,1,0.7,0.7,0.7,1","","",""
"","html-keyboard-response","283","174017","0.0-283.0","3F6HPJW4JEMBIRLA691HFBRU07HW29","AKX4H8RT7BL7H","3WPCIUYH1AU470H2HRBLZRFBM95TDS","","null","<img src=""img/land3.png"" style=""width:200px; border:14px solid green;"">","null","","","","","","","","","",""
"","image-keyboard-response","284","174967","0.0-284.0","3F6HPJW4JEMBIRLA691HFBRU07HW29","AKX4H8RT7BL7H","3WPCIUYH1AU470H2HRBLZRFBM95TDS","","948.0999994277954","img/land1.png","74","949.9000005722046","1","1","1","2","1,0.7,0.7,0.7,1,0.7,0.7,0.7,1","1,0.7,0.7,0.7,1,0.7,0.7,0.7,1","","",""
"","html-keyboard-response","285","175274","0.0-285.0","3F6HPJW4JEMBIRLA691HFBRU07HW29","AKX4H8RT7BL7H","3WPCIUYH1AU470H2HRBLZRFBM95TDS","","null","<img src=""img/land1.png"" style=""width:200px; border:14px solid green;"">","null","","","","","","","","","",""
"","image-keyboard-response","286","175910","0.0-286.0","3F6HPJW4JEMBIRLA691HFBRU07HW29","AKX4H8RT7BL7H","3WPCIUYH1AU470H2HRBLZRFBM95TDS","","633.4000005722046","img/land3.png","76","634.8999996185303","3","1","3","2","1,0.7,0.7,0.7,1,0.7,0.7,0.7,1","1,0.7,0.7,0.7,1,0.7,0.7,0.7,1","","",""
"","html-keyboard-response","287","176216","0.0-287.0","3F6HPJW4JEMBIRLA691HFBRU07HW29","AKX4H8RT7BL7H","3WPCIUYH1AU470H2HRBLZRFBM95TDS","","null","<img src=""img/land3.png"" style=""width:200px; border:14px solid green;"">","null","","","","","","","","","",""
"","image-keyboard-response","288","176749","0.0-288.0","3F6HPJW4JEMBIRLA691HFBRU07HW29","AKX4H8RT7BL7H","3WPCIUYH1AU470H2HRBLZRFBM95TDS","","531.1000003814697","img/land3.png","76","532.7999992370605","3","1","3","2","1,0.7,0.7,0.7,1,0.7,0.7,0.7,1","1,0.7,0.7,0.7,1,0.7,0.7,0.7,1","","",""
"","html-keyboard-response","289","177056","0.0-289.0","3F6HPJW4JEMBIRLA691HFBRU07HW29","AKX4H8RT7BL7H","3WPCIUYH1AU470H2HRBLZRFBM95TDS","","null","<img src=""img/land3.png"" style=""width:200px; border:14px solid green;"">","null","","","","","","","","","",""
"","image-keyboard-response","290","177532","0.0-290.0","3F6HPJW4JEMBIRLA691HFBRU07HW29","AKX4H8RT7BL7H","3WPCIUYH1AU470H2HRBLZRFBM95TDS","","473.80000019073486","img/land3.png","76","475.5","3","1","3","2","1,0.7,0.7,0.7,1,0.7,0.7,0.7,1","1,0.7,0.7,0.7,1,0.7,0.7,0.7,1","","",""
"","html-keyboard-response","291","177834","0.0-291.0","3F6HPJW4JEMBIRLA691HFBRU07HW29","AKX4H8RT7BL7H","3WPCIUYH1AU470H2HRBLZRFBM95TDS","","null","<img src=""img/land3.png"" style=""width:200px; border:14px solid green;"">","null","","","","","","","","","",""
"","image-keyboard-response","292","178221","0.0-292.0","3F6HPJW4JEMBIRLA691HFBRU07HW29","AKX4H8RT7BL7H","3WPCIUYH1AU470H2HRBLZRFBM95TDS","","385.80000019073486","img/land3.png","76","386.6000003814697","3","1","3","2","1,0.7,0.7,0.7,1,0.7,0.7,0.7,1","1,0.7,0.7,0.7,1,0.7,0.7,0.7,1","","",""
"","html-keyboard-response","293","178528","0.0-293.0","3F6HPJW4JEMBIRLA691HFBRU07HW29","AKX4H8RT7BL7H","3WPCIUYH1AU470H2HRBLZRFBM95TDS","","null","<img src=""img/land3.png"" style=""width:200px; border:14px solid green;"">","null","","","","","","","","","",""
"","image-keyboard-response","294","178844","0.0-294.0","3F6HPJW4JEMBIRLA691HFBRU07HW29","AKX4H8RT7BL7H","3WPCIUYH1AU470H2HRBLZRFBM95TDS","","314","img/land3.png","76","315.8999996185303","3","1","3","2","1,0.7,0.7,0.7,1,0.7,0.7,0.7,1","1,0.7,0.7,0.7,1,0.7,0.7,0.7,1","","",""
"","html-keyboard-response","295","179151","0.0-295.0","3F6HPJW4JEMBIRLA691HFBRU07HW29","AKX4H8RT7BL7H","3WPCIUYH1AU470H2HRBLZRFBM95TDS","","null","<img src=""img/land3.png"" style=""width:200px; border:14px solid green;"">","null","","","","","","","","","",""
"","image-keyboard-response","296","179898","0.0-296.0","3F6HPJW4JEMBIRLA691HFBRU07HW29","AKX4H8RT7BL7H","3WPCIUYH1AU470H2HRBLZRFBM95TDS","","745.8000001907349","img/land2.png","75","746.9000005722046","2","1","2","2","1,0.7,0.7,0.7,1,0.7,0.7,0.7,1","1,0.7,0.7,0.7,1,0.7,0.7,0.7,1","","",""
"","html-keyboard-response","297","180205","0.0-297.0","3F6HPJW4JEMBIRLA691HFBRU07HW29","AKX4H8RT7BL7H","3WPCIUYH1AU470H2HRBLZRFBM95TDS","","null","<img src=""img/land2.png"" style=""width:200px; border:14px solid green;"">","null","","","","","","","","","",""
"","image-keyboard-response","298","180762","0.0-298.0","3F6HPJW4JEMBIRLA691HFBRU07HW29","AKX4H8RT7BL7H","3WPCIUYH1AU470H2HRBLZRFBM95TDS","","555.1999998092651","img/land3.png","76","557.1999998092651","3","1","3","2","1,0.7,0.7,0.7,1,0.7,0.7,0.7,1","1,0.7,0.7,0.7,1,0.7,0.7,0.7,1","","",""
"","html-keyboard-response","299","181069","0.0-299.0","3F6HPJW4JEMBIRLA691HFBRU07HW29","AKX4H8RT7BL7H","3WPCIUYH1AU470H2HRBLZRFBM95TDS","","null","<img src=""img/land3.png"" style=""width:200px; border:14px solid green;"">","null","","","","","","","","","",""
"","image-keyboard-response","300","181337","0.0-300.0","3F6HPJW4JEMBIRLA691HFBRU07HW29","AKX4H8RT7BL7H","3WPCIUYH1AU470H2HRBLZRFBM95TDS","","265.69999980926514","img/land3.png","76","267.5","3","1","3","2","1,0.7,0.7,0.7,1,0.7,0.7,0.7,1","1,0.7,0.7,0.7,1,0.7,0.7,0.7,1","","",""
"","html-keyboard-response","301","181641","0.0-301.0","3F6HPJW4JEMBIRLA691HFBRU07HW29","AKX4H8RT7BL7H","3WPCIUYH1AU470H2HRBLZRFBM95TDS","","null","<img src=""img/land3.png"" style=""width:200px; border:14px solid green;"">","null","","","","","","","","","",""
"","html-keyboard-response","302","202380","0.0-302.0","3F6HPJW4JEMBIRLA691HFBRU07HW29","AKX4H8RT7BL7H","3WPCIUYH1AU470H2HRBLZRFBM95TDS","","","","","","","","","","","","","",""
"","image-keyboard-response","303","203886","0.0-303.0","3F6HPJW4JEMBIRLA691HFBRU07HW29","AKX4H8RT7BL7H","3WPCIUYH1AU470H2HRBLZRFBM95TDS","","","img/land4.png","","1507.1000003814697","-1","0","1","2","1,0.7,0.7,0.7,1,0.7,0.7,0.7,1","1,0.7,0.7,0.7,1,0.7,0.7,0.7,1","","",""
"","html-keyboard-response","304","204194","0.0-304.0","3F6HPJW4JEMBIRLA691HFBRU07HW29","AKX4H8RT7BL7H","3WPCIUYH1AU470H2HRBLZRFBM95TDS","","null","<img src=""img/land4.png"" style=""width:200px;border:14px solid red;"">","null","","","","","","","","","",""
"","image-keyboard-response","305","205182","0.0-305.0","3F6HPJW4JEMBIRLA691HFBRU07HW29","AKX4H8RT7BL7H","3WPCIUYH1AU470H2HRBLZRFBM95TDS","","986","img/land6.png","75","988","2","1","3","2","1,0.7,0.7,0.7,1,0.7,0.7,0.7,1","1,0.7,0.7,0.7,1,0.7,0.7,0.7,1","","",""
"","html-keyboard-response","306","205490","0.0-306.0","3F6HPJW4JEMBIRLA691HFBRU07HW29","AKX4H8RT7BL7H","3WPCIUYH1AU470H2HRBLZRFBM95TDS","","null","<img src=""img/land6.png"" style=""width:200px; border:14px solid green;"">","null","","","","","","","","","",""
"","image-keyboard-response","307","206207","0.0-307.0","3F6HPJW4JEMBIRLA691HFBRU07HW29","AKX4H8RT7BL7H","3WPCIUYH1AU470H2HRBLZRFBM95TDS","","714.5999994277954","img/land6.png","75","716.5","2","0","3","2","1,0.7,0.7,0.7,1,0.7,0.7,0.7,1","1,0.7,0.7,0.7,1,0.7,0.7,0.7,1","","",""
"","html-keyboard-response","308","206515","0.0-308.0","3F6HPJW4JEMBIRLA691HFBRU07HW29","AKX4H8RT7BL7H","3WPCIUYH1AU470H2HRBLZRFBM95TDS","","null","<img src=""img/land6.png"" style=""width:200px;border:14px solid red;"">","null","","","","","","","","","",""
"","image-keyboard-response","309","207432","0.0-309.0","3F6HPJW4JEMBIRLA691HFBRU07HW29","AKX4H8RT7BL7H","3WPCIUYH1AU470H2HRBLZRFBM95TDS","","915.3000001907349","img/land6.png","74","917.3999996185303","1","1","3","2","1,0.7,0.7,0.7,1,0.7,0.7,0.7,1","1,0.7,0.7,0.7,1,0.7,0.7,0.7,1","","",""
"","html-keyboard-response","310","207740","0.0-310.0","3F6HPJW4JEMBIRLA691HFBRU07HW29","AKX4H8RT7BL7H","3WPCIUYH1AU470H2HRBLZRFBM95TDS","","null","<img src=""img/land6.png"" style=""width:200px; border:14px solid green;"">","null","","","","","","","","","",""
"","image-keyboard-response","311","209024","0.0-311.0","3F6HPJW4JEMBIRLA691HFBRU07HW29","AKX4H8RT7BL7H","3WPCIUYH1AU470H2HRBLZRFBM95TDS","","1282.6000003814697","img/land5.png","76","1283.5","3","0","2","2","1,0.7,0.7,0.7,1,0.7,0.7,0.7,1","1,0.7,0.7,0.7,1,0.7,0.7,0.7,1","","",""
"","html-keyboard-response","312","209331","0.0-312.0","3F6HPJW4JEMBIRLA691HFBRU07HW29","AKX4H8RT7BL7H","3WPCIUYH1AU470H2HRBLZRFBM95TDS","","null","<img src=""img/land5.png"" style=""width:200px;border:14px solid red;"">","null","","","","","","","","","",""
"","image-keyboard-response","313","210584","0.0-313.0","3F6HPJW4JEMBIRLA691HFBRU07HW29","AKX4H8RT7BL7H","3WPCIUYH1AU470H2HRBLZRFBM95TDS","","1250.3000001907349","img/land6.png","74","1252.1999998092651","1","0","3","2","1,0.7,0.7,0.7,1,0.7,0.7,0.7,1","1,0.7,0.7,0.7,1,0.7,0.7,0.7,1","","",""
"","html-keyboard-response","314","210891","0.0-314.0","3F6HPJW4JEMBIRLA691HFBRU07HW29","AKX4H8RT7BL7H","3WPCIUYH1AU470H2HRBLZRFBM95TDS","","null","<img src=""img/land6.png"" style=""width:200px;border:14px solid red;"">","null","","","","","","","","","",""
"","image-keyboard-response","315","211822","0.0-315.0","3F6HPJW4JEMBIRLA691HFBRU07HW29","AKX4H8RT7BL7H","3WPCIUYH1AU470H2HRBLZRFBM95TDS","","928.4000005722046","img/land6.png","75","930.4000005722046","2","1","3","2","1,0.7,0.7,0.7,1,0.7,0.7,0.7,1","1,0.7,0.7,0.7,1,0.7,0.7,0.7,1","","",""
"","html-keyboard-response","316","212128","0.0-316.0","3F6HPJW4JEMBIRLA691HFBRU07HW29","AKX4H8RT7BL7H","3WPCIUYH1AU470H2HRBLZRFBM95TDS","","null","<img src=""img/land6.png"" style=""width:200px; border:14px solid green;"">","null","","","","","","","","","",""
"","image-keyboard-response","317","212670","0.0-317.0","3F6HPJW4JEMBIRLA691HFBRU07HW29","AKX4H8RT7BL7H","3WPCIUYH1AU470H2HRBLZRFBM95TDS","","540.8000001907349","img/land6.png","75","542.1999998092651","2","0","3","2","1,0.7,0.7,0.7,1,0.7,0.7,0.7,1","1,0.7,0.7,0.7,1,0.7,0.7,0.7,1","","",""
"","html-keyboard-response","318","212977","0.0-318.0","3F6HPJW4JEMBIRLA691HFBRU07HW29","AKX4H8RT7BL7H","3WPCIUYH1AU470H2HRBLZRFBM95TDS","","null","<img src=""img/land6.png"" style=""width:200px;border:14px solid red;"">","null","","","","","","","","","",""
"","image-keyboard-response","319","214365","0.0-319.0","3F6HPJW4JEMBIRLA691HFBRU07HW29","AKX4H8RT7BL7H","3WPCIUYH1AU470H2HRBLZRFBM95TDS","","1385.4000005722046","img/land4.png","76","1387.7000007629395","3","1","1","2","1,0.7,0.7,0.7,1,0.7,0.7,0.7,1","1,0.7,0.7,0.7,1,0.7,0.7,0.7,1","","",""
"","html-keyboard-response","320","214672","0.0-320.0","3F6HPJW4JEMBIRLA691HFBRU07HW29","AKX4H8RT7BL7H","3WPCIUYH1AU470H2HRBLZRFBM95TDS","","null","<img src=""img/land4.png"" style=""width:200px; border:14px solid green;"">","null","","","","","","","","","",""
"","image-keyboard-response","321","215337","0.0-321.0","3F6HPJW4JEMBIRLA691HFBRU07HW29","AKX4H8RT7BL7H","3WPCIUYH1AU470H2HRBLZRFBM95TDS","","663.6999998092651","img/land4.png","76","665.0999994277954","3","1","1","2","1,0.7,0.7,0.7,1,0.7,0.7,0.7,1","1,0.7,0.7,0.7,1,0.7,0.7,0.7,1","","",""
"","html-keyboard-response","322","215643","0.0-322.0","3F6HPJW4JEMBIRLA691HFBRU07HW29","AKX4H8RT7BL7H","3WPCIUYH1AU470H2HRBLZRFBM95TDS","","null","<img src=""img/land4.png"" style=""width:200px; border:14px solid green;"">","null","","","","","","","","","",""
"","image-keyboard-response","323","216515","0.0-323.0","3F6HPJW4JEMBIRLA691HFBRU07HW29","AKX4H8RT7BL7H","3WPCIUYH1AU470H2HRBLZRFBM95TDS","","870.4000005722046","img/land5.png","74","872.5","1","0","2","2","1,0.7,0.7,0.7,1,0.7,0.7,0.7,1","1,0.7,0.7,0.7,1,0.7,0.7,0.7,1","","",""
"","html-keyboard-response","324","216823","0.0-324.0","3F6HPJW4JEMBIRLA691HFBRU07HW29","AKX4H8RT7BL7H","3WPCIUYH1AU470H2HRBLZRFBM95TDS","","null","<img src=""img/land5.png"" style=""width:200px;border:14px solid red;"">","null","","","","","","","","","",""
"","image-keyboard-response","325","217756","0.0-325.0","3F6HPJW4JEMBIRLA691HFBRU07HW29","AKX4H8RT7BL7H","3WPCIUYH1AU470H2HRBLZRFBM95TDS","","931","img/land4.png","76","932.3999996185303","3","1","1","2","1,0.7,0.7,0.7,1,0.7,0.7,0.7,1","1,0.7,0.7,0.7,1,0.7,0.7,0.7,1","","",""
"","html-keyboard-response","326","218058","0.0-326.0","3F6HPJW4JEMBIRLA691HFBRU07HW29","AKX4H8RT7BL7H","3WPCIUYH1AU470H2HRBLZRFBM95TDS","","null","<img src=""img/land4.png"" style=""width:200px; border:14px solid green;"">","null","","","","","","","","","",""
"","image-keyboard-response","327","218613","0.0-327.0","3F6HPJW4JEMBIRLA691HFBRU07HW29","AKX4H8RT7BL7H","3WPCIUYH1AU470H2HRBLZRFBM95TDS","","552.6000003814697","img/land4.png","76","554.4000005722046","3","1","1","2","1,0.7,0.7,0.7,1,0.7,0.7,0.7,1","1,0.7,0.7,0.7,1,0.7,0.7,0.7,1","","",""
"","html-keyboard-response","328","218918","0.0-328.0","3F6HPJW4JEMBIRLA691HFBRU07HW29","AKX4H8RT7BL7H","3WPCIUYH1AU470H2HRBLZRFBM95TDS","","null","<img src=""img/land4.png"" style=""width:200px; border:14px solid green;"">","null","","","","","","","","","",""
"","image-keyboard-response","329","219777","0.0-329.0","3F6HPJW4JEMBIRLA691HFBRU07HW29","AKX4H8RT7BL7H","3WPCIUYH1AU470H2HRBLZRFBM95TDS","","857.6999998092651","img/land6.png","75","859.1999998092651","2","1","3","2","1,0.7,0.7,0.7,1,0.7,0.7,0.7,1","1,0.7,0.7,0.7,1,0.7,0.7,0.7,1","","",""
"","html-keyboard-response","330","220080","0.0-330.0","3F6HPJW4JEMBIRLA691HFBRU07HW29","AKX4H8RT7BL7H","3WPCIUYH1AU470H2HRBLZRFBM95TDS","","null","<img src=""img/land6.png"" style=""width:200px; border:14px solid green;"">","null","","","","","","","","","",""
"","image-keyboard-response","331","221091","0.0-331.0","3F6HPJW4JEMBIRLA691HFBRU07HW29","AKX4H8RT7BL7H","3WPCIUYH1AU470H2HRBLZRFBM95TDS","","1009.5","img/land5.png","74","1011.1999998092651","1","0","2","2","1,0.7,0.7,0.7,1,0.7,0.7,0.7,1","1,0.7,0.7,0.7,1,0.7,0.7,0.7,1","","",""
"","html-keyboard-response","332","221399","0.0-332.0","3F6HPJW4JEMBIRLA691HFBRU07HW29","AKX4H8RT7BL7H","3WPCIUYH1AU470H2HRBLZRFBM95TDS","","null","<img src=""img/land5.png"" style=""width:200px;border:14px solid red;"">","null","","","","","","","","","",""
"","image-keyboard-response","333","222736","0.0-333.0","3F6HPJW4JEMBIRLA691HFBRU07HW29","AKX4H8RT7BL7H","3WPCIUYH1AU470H2HRBLZRFBM95TDS","","1334.6999998092651","img/land6.png","75","1336.9000005722046","2","1","3","2","1,0.7,0.7,0.7,1,0.7,0.7,0.7,1","1,0.7,0.7,0.7,1,0.7,0.7,0.7,1","","",""
"","html-keyboard-response","334","223043","0.0-334.0","3F6HPJW4JEMBIRLA691HFBRU07HW29","AKX4H8RT7BL7H","3WPCIUYH1AU470H2HRBLZRFBM95TDS","","null","<img src=""img/land6.png"" style=""width:200px; border:14px solid green;"">","null","","","","","","","","","",""
"","image-keyboard-response","335","224327","0.0-335.0","3F6HPJW4JEMBIRLA691HFBRU07HW29","AKX4H8RT7BL7H","3WPCIUYH1AU470H2HRBLZRFBM95TDS","","1281.7000007629395","img/land5.png","75","1283.5","2","1","2","2","1,0.7,0.7,0.7,1,0.7,0.7,0.7,1","1,0.7,0.7,0.7,1,0.7,0.7,0.7,1","","",""
"","html-keyboard-response","336","224635","0.0-336.0","3F6HPJW4JEMBIRLA691HFBRU07HW29","AKX4H8RT7BL7H","3WPCIUYH1AU470H2HRBLZRFBM95TDS","","null","<img src=""img/land5.png"" style=""width:200px; border:14px solid green;"">","null","","","","","","","","","",""
"","image-keyboard-response","337","225293","0.0-337.0","3F6HPJW4JEMBIRLA691HFBRU07HW29","AKX4H8RT7BL7H","3WPCIUYH1AU470H2HRBLZRFBM95TDS","","655.8999996185303","img/land5.png","75","657.9000005722046","2","1","2","2","1,0.7,0.7,0.7,1,0.7,0.7,0.7,1","1,0.7,0.7,0.7,1,0.7,0.7,0.7,1","","",""
"","html-keyboard-response","338","225596","0.0-338.0","3F6HPJW4JEMBIRLA691HFBRU07HW29","AKX4H8RT7BL7H","3WPCIUYH1AU470H2HRBLZRFBM95TDS","","null","<img src=""img/land5.png"" style=""width:200px; border:14px solid green;"">","null","","","","","","","","","",""
"","image-keyboard-response","339","226195","0.0-339.0","3F6HPJW4JEMBIRLA691HFBRU07HW29","AKX4H8RT7BL7H","3WPCIUYH1AU470H2HRBLZRFBM95TDS","","596.8999996185303","img/land5.png","75","598.6999998092651","2","1","2","2","1,0.7,0.7,0.7,1,0.7,0.7,0.7,1","1,0.7,0.7,0.7,1,0.7,0.7,0.7,1","","",""
"","html-keyboard-response","340","226498","0.0-340.0","3F6HPJW4JEMBIRLA691HFBRU07HW29","AKX4H8RT7BL7H","3WPCIUYH1AU470H2HRBLZRFBM95TDS","","null","<img src=""img/land5.png"" style=""width:200px; border:14px solid green;"">","null","","","","","","","","","",""
"","image-keyboard-response","341","227429","0.0-341.0","3F6HPJW4JEMBIRLA691HFBRU07HW29","AKX4H8RT7BL7H","3WPCIUYH1AU470H2HRBLZRFBM95TDS","","929.1999998092651","img/land6.png","75","931","2","0","3","2","1,0.7,0.7,0.7,1,0.7,0.7,0.7,1","1,0.7,0.7,0.7,1,0.7,0.7,0.7,1","","",""
"","html-keyboard-response","342","227732","0.0-342.0","3F6HPJW4JEMBIRLA691HFBRU07HW29","AKX4H8RT7BL7H","3WPCIUYH1AU470H2HRBLZRFBM95TDS","","null","<img src=""img/land6.png"" style=""width:200px;border:14px solid red;"">","null","","","","","","","","","",""
"","image-keyboard-response","343","228742","0.0-343.0","3F6HPJW4JEMBIRLA691HFBRU07HW29","AKX4H8RT7BL7H","3WPCIUYH1AU470H2HRBLZRFBM95TDS","","1007.5999994277954","img/land5.png","75","1009.5","2","1","2","2","1,0.7,0.7,0.7,1,0.7,0.7,0.7,1","1,0.7,0.7,0.7,1,0.7,0.7,0.7,1","","",""
"","html-keyboard-response","344","229048","0.0-344.0","3F6HPJW4JEMBIRLA691HFBRU07HW29","AKX4H8RT7BL7H","3WPCIUYH1AU470H2HRBLZRFBM95TDS","","null","<img src=""img/land5.png"" style=""width:200px; border:14px solid green;"">","null","","","","","","","","","",""
"","image-keyboard-response","345","229433","0.0-345.0","3F6HPJW4JEMBIRLA691HFBRU07HW29","AKX4H8RT7BL7H","3WPCIUYH1AU470H2HRBLZRFBM95TDS","","384.19999980926514","img/land5.png","75","385.4000005722046","2","1","2","2","1,0.7,0.7,0.7,1,0.7,0.7,0.7,1","1,0.7,0.7,0.7,1,0.7,0.7,0.7,1","","",""
"","html-keyboard-response","346","229740","0.0-346.0","3F6HPJW4JEMBIRLA691HFBRU07HW29","AKX4H8RT7BL7H","3WPCIUYH1AU470H2HRBLZRFBM95TDS","","null","<img src=""img/land5.png"" style=""width:200px; border:14px solid green;"">","null","","","","","","","","","",""
"","image-keyboard-response","347","230445","0.0-347.0","3F6HPJW4JEMBIRLA691HFBRU07HW29","AKX4H8RT7BL7H","3WPCIUYH1AU470H2HRBLZRFBM95TDS","","703.4000005722046","img/land6.png","76","705.3000001907349","3","1","3","2","1,0.7,0.7,0.7,1,0.7,0.7,0.7,1","1,0.7,0.7,0.7,1,0.7,0.7,0.7,1","","",""
"","html-keyboard-response","348","230749","0.0-348.0","3F6HPJW4JEMBIRLA691HFBRU07HW29","AKX4H8RT7BL7H","3WPCIUYH1AU470H2HRBLZRFBM95TDS","","null","<img src=""img/land6.png"" style=""width:200px; border:14px solid green;"">","null","","","","","","","","","",""
"","image-keyboard-response","349","231843","0.0-349.0","3F6HPJW4JEMBIRLA691HFBRU07HW29","AKX4H8RT7BL7H","3WPCIUYH1AU470H2HRBLZRFBM95TDS","","1091.8000001907349","img/land4.png","76","1093.9000005722046","3","1","1","2","1,0.7,0.7,0.7,1,0.7,0.7,0.7,1","1,0.7,0.7,0.7,1,0.7,0.7,0.7,1","","",""
"","html-keyboard-response","350","232151","0.0-350.0","3F6HPJW4JEMBIRLA691HFBRU07HW29","AKX4H8RT7BL7H","3WPCIUYH1AU470H2HRBLZRFBM95TDS","","null","<img src=""img/land4.png"" style=""width:200px; border:14px solid green;"">","null","","","","","","","","","",""
"","image-keyboard-response","351","232490","0.0-351.0","3F6HPJW4JEMBIRLA691HFBRU07HW29","AKX4H8RT7BL7H","3WPCIUYH1AU470H2HRBLZRFBM95TDS","","337.69999980926514","img/land4.png","76","338.80000019073486","3","1","1","2","1,0.7,0.7,0.7,1,0.7,0.7,0.7,1","1,0.7,0.7,0.7,1,0.7,0.7,0.7,1","","",""
"","html-keyboard-response","352","232796","0.0-352.0","3F6HPJW4JEMBIRLA691HFBRU07HW29","AKX4H8RT7BL7H","3WPCIUYH1AU470H2HRBLZRFBM95TDS","","null","<img src=""img/land4.png"" style=""width:200px; border:14px solid green;"">","null","","","","","","","","","",""
"","image-keyboard-response","353","233223","0.0-353.0","3F6HPJW4JEMBIRLA691HFBRU07HW29","AKX4H8RT7BL7H","3WPCIUYH1AU470H2HRBLZRFBM95TDS","","425.30000019073486","img/land4.png","76","427.1000003814697","3","0","1","2","1,0.7,0.7,0.7,1,0.7,0.7,0.7,1","1,0.7,0.7,0.7,1,0.7,0.7,0.7,1","","",""
"","html-keyboard-response","354","233530","0.0-354.0","3F6HPJW4JEMBIRLA691HFBRU07HW29","AKX4H8RT7BL7H","3WPCIUYH1AU470H2HRBLZRFBM95TDS","","null","<img src=""img/land4.png"" style=""width:200px;border:14px solid red;"">","null","","","","","","","","","",""
"","image-keyboard-response","355","234068","0.0-355.0","3F6HPJW4JEMBIRLA691HFBRU07HW29","AKX4H8RT7BL7H","3WPCIUYH1AU470H2HRBLZRFBM95TDS","","537.1999998092651","img/land4.png","76","537.8000001907349","3","0","1","2","1,0.7,0.7,0.7,1,0.7,0.7,0.7,1","1,0.7,0.7,0.7,1,0.7,0.7,0.7,1","","",""
"","html-keyboard-response","356","234374","0.0-356.0","3F6HPJW4JEMBIRLA691HFBRU07HW29","AKX4H8RT7BL7H","3WPCIUYH1AU470H2HRBLZRFBM95TDS","","null","<img src=""img/land4.png"" style=""width:200px;border:14px solid red;"">","null","","","","","","","","","",""
"","image-keyboard-response","357","235328","0.0-357.0","3F6HPJW4JEMBIRLA691HFBRU07HW29","AKX4H8RT7BL7H","3WPCIUYH1AU470H2HRBLZRFBM95TDS","","951.5","img/land5.png","74","953.5","1","1","2","2","1,0.7,0.7,0.7,1,0.7,0.7,0.7,1","1,0.7,0.7,0.7,1,0.7,0.7,0.7,1","","",""
"","html-keyboard-response","358","235631","0.0-358.0","3F6HPJW4JEMBIRLA691HFBRU07HW29","AKX4H8RT7BL7H","3WPCIUYH1AU470H2HRBLZRFBM95TDS","","null","<img src=""img/land5.png"" style=""width:200px; border:14px solid green;"">","null","","","","","","","","","",""
"","image-keyboard-response","359","236746","0.0-359.0","3F6HPJW4JEMBIRLA691HFBRU07HW29","AKX4H8RT7BL7H","3WPCIUYH1AU470H2HRBLZRFBM95TDS","","1113.8999996185303","img/land6.png","75","1115","2","1","3","2","1,0.7,0.7,0.7,1,0.7,0.7,0.7,1","1,0.7,0.7,0.7,1,0.7,0.7,0.7,1","","",""
"","html-keyboard-response","360","237053","0.0-360.0","3F6HPJW4JEMBIRLA691HFBRU07HW29","AKX4H8RT7BL7H","3WPCIUYH1AU470H2HRBLZRFBM95TDS","","null","<img src=""img/land6.png"" style=""width:200px; border:14px solid green;"">","null","","","","","","","","","",""
"","image-keyboard-response","361","237803","0.0-361.0","3F6HPJW4JEMBIRLA691HFBRU07HW29","AKX4H8RT7BL7H","3WPCIUYH1AU470H2HRBLZRFBM95TDS","","749.3000001907349","img/land4.png","76","750.3999996185303","3","1","1","2","1,0.7,0.7,0.7,1,0.7,0.7,0.7,1","1,0.7,0.7,0.7,1,0.7,0.7,0.7,1","","",""
"","html-keyboard-response","362","238110","0.0-362.0","3F6HPJW4JEMBIRLA691HFBRU07HW29","AKX4H8RT7BL7H","3WPCIUYH1AU470H2HRBLZRFBM95TDS","","null","<img src=""img/land4.png"" style=""width:200px; border:14px solid green;"">","null","","","","","","","","","",""
"","image-keyboard-response","363","238892","0.0-363.0","3F6HPJW4JEMBIRLA691HFBRU07HW29","AKX4H8RT7BL7H","3WPCIUYH1AU470H2HRBLZRFBM95TDS","","780.6000003814697","img/land6.png","75","781.8000001907349","2","0","3","2","1,0.7,0.7,0.7,1,0.7,0.7,0.7,1","1,0.7,0.7,0.7,1,0.7,0.7,0.7,1","","",""
"","html-keyboard-response","364","239195","0.0-364.0","3F6HPJW4JEMBIRLA691HFBRU07HW29","AKX4H8RT7BL7H","3WPCIUYH1AU470H2HRBLZRFBM95TDS","","null","<img src=""img/land6.png"" style=""width:200px;border:14px solid red;"">","null","","","","","","","","","",""
