"success","trial_type","trial_index","time_elapsed","internal_node_id","assignmentID","mturkID","hitID","view_history","rt","stimulus","key_press","reactionTime","a","r","s","cond","reward_cond","reward_cond_actual","reward_matrix_idx","responses","question_order"
"true","fullscreen","0","9073","0.0-0.0","3R2PKQ87NXUJO05YRAGMTTWKSLXIMH","ALNPW5WIO0I","3JUDR1D0D6D4CARU3YX9Y3DK5DJ2QK","","","","","","","","","","","","","",""
"","instructions","1","38778","0.0-1.0","3R2PKQ87NXUJO05YRAGMTTWKSLXIMH","ALNPW5WIO0I","3JUDR1D0D6D4CARU3YX9Y3DK5DJ2QK","[{""page_index"":0,""viewing_time"":12607},{""page_index"":1,""viewing_time"":3181},{""page_index"":2,""viewing_time"":1098},{""page_index"":3,""viewing_time"":1911},{""page_index"":4,""viewing_time"":4034},{""page_index"":5,""viewing_time"":4778},{""page_index"":6,""viewing_time"":2088}]","29698","","","","","","","","","","","",""
"","image-keyboard-response","2","40789","0.0-2.0","3R2PKQ87NXUJO05YRAGMTTWKSLXIMH","ALNPW5WIO0I","3JUDR1D0D6D4CARU3YX9Y3DK5DJ2QK","","","img/land6.png","","2009","-1","0","1","2","0.8,0.2,0.2,0.2,0.8,0.2,0.2,0.2,0.8","0.8,0.2,0.2,0.2,0.8,0.2,0.2,0.2,0.8","1","",""
"","html-keyboard-response","3","41095","0.0-3.0","3R2PKQ87NXUJO05YRAGMTTWKSLXIMH","ALNPW5WIO0I","3JUDR1D0D6D4CARU3YX9Y3DK5DJ2QK","","null","<img src=""img/land6.png"" style=""width:200px;border:14px solid red;"">","null","","","","","","","","","",""
"","image-keyboard-response","4","41490","0.0-4.0","3R2PKQ87NXUJO05YRAGMTTWKSLXIMH","ALNPW5WIO0I","3JUDR1D0D6D4CARU3YX9Y3DK5DJ2QK","","391","img/land2.png","74","393","1","0","3","2","0.8,0.2,0.2,0.2,0.8,0.2,0.2,0.2,0.8","0.8,0.2,0.2,0.2,0.8,0.2,0.2,0.2,0.8","1","",""
"","html-keyboard-response","5","41794","0.0-5.0","3R2PKQ87NXUJO05YRAGMTTWKSLXIMH","ALNPW5WIO0I","3JUDR1D0D6D4CARU3YX9Y3DK5DJ2QK","","null","<img src=""img/land2.png"" style=""width:200px;border:14px solid red;"">","null","","","","","","","","","",""
"","image-keyboard-response","6","42491","0.0-6.0","3R2PKQ87NXUJO05YRAGMTTWKSLXIMH","ALNPW5WIO0I","3JUDR1D0D6D4CARU3YX9Y3DK5DJ2QK","","693","img/land6.png","75","694","2","1","1","2","0.8,0.2,0.2,0.2,0.8,0.2,0.2,0.2,0.8","0.8,0.2,0.2,0.2,0.8,0.2,0.2,0.2,0.8","1","",""
"","html-keyboard-response","7","42793","0.0-7.0","3R2PKQ87NXUJO05YRAGMTTWKSLXIMH","ALNPW5WIO0I","3JUDR1D0D6D4CARU3YX9Y3DK5DJ2QK","","null","<img src=""img/land6.png"" style=""width:200px; border:14px solid green;"">","null","","","","","","","","","",""
"","image-keyboard-response","8","42889","0.0-8.0","3R2PKQ87NXUJO05YRAGMTTWKSLXIMH","ALNPW5WIO0I","3JUDR1D0D6D4CARU3YX9Y3DK5DJ2QK","","92","img/land2.png","75","94","2","1","3","2","0.8,0.2,0.2,0.2,0.8,0.2,0.2,0.2,0.8","0.8,0.2,0.2,0.2,0.8,0.2,0.2,0.2,0.8","1","",""
"","html-keyboard-response","9","43190","0.0-9.0","3R2PKQ87NXUJO05YRAGMTTWKSLXIMH","ALNPW5WIO0I","3JUDR1D0D6D4CARU3YX9Y3DK5DJ2QK","","null","<img src=""img/land2.png"" style=""width:200px; border:14px solid green;"">","null","","","","","","","","","",""
"","image-keyboard-response","10","43830","0.0-10.0","3R2PKQ87NXUJO05YRAGMTTWKSLXIMH","ALNPW5WIO0I","3JUDR1D0D6D4CARU3YX9Y3DK5DJ2QK","","639","img/land6.png","75","639","2","0","1","2","0.8,0.2,0.2,0.2,0.8,0.2,0.2,0.2,0.8","0.8,0.2,0.2,0.2,0.8,0.2,0.2,0.2,0.8","1","",""
"","html-keyboard-response","11","44133","0.0-11.0","3R2PKQ87NXUJO05YRAGMTTWKSLXIMH","ALNPW5WIO0I","3JUDR1D0D6D4CARU3YX9Y3DK5DJ2QK","","null","<img src=""img/land6.png"" style=""width:200px;border:14px solid red;"">","null","","","","","","","","","",""
"","image-keyboard-response","12","45051","0.0-12.0","3R2PKQ87NXUJO05YRAGMTTWKSLXIMH","ALNPW5WIO0I","3JUDR1D0D6D4CARU3YX9Y3DK5DJ2QK","","914","img/land6.png","75","916","2","0","1","2","0.8,0.2,0.2,0.2,0.8,0.2,0.2,0.2,0.8","0.8,0.2,0.2,0.2,0.8,0.2,0.2,0.2,0.8","1","",""
"","html-keyboard-response","13","45358","0.0-13.0","3R2PKQ87NXUJO05YRAGMTTWKSLXIMH","ALNPW5WIO0I","3JUDR1D0D6D4CARU3YX9Y3DK5DJ2QK","","null","<img src=""img/land6.png"" style=""width:200px;border:14px solid red;"">","null","","","","","","","","","",""
"","image-keyboard-response","14","45559","0.0-14.0","3R2PKQ87NXUJO05YRAGMTTWKSLXIMH","ALNPW5WIO0I","3JUDR1D0D6D4CARU3YX9Y3DK5DJ2QK","","199","img/land1.png","74","201","1","0","2","2","0.8,0.2,0.2,0.2,0.8,0.2,0.2,0.2,0.8","0.8,0.2,0.2,0.2,0.8,0.2,0.2,0.2,0.8","1","",""
"","html-keyboard-response","15","45862","0.0-15.0","3R2PKQ87NXUJO05YRAGMTTWKSLXIMH","ALNPW5WIO0I","3JUDR1D0D6D4CARU3YX9Y3DK5DJ2QK","","null","<img src=""img/land1.png"" style=""width:200px;border:14px solid red;"">","null","","","","","","","","","",""
"","image-keyboard-response","16","45961","0.0-16.0","3R2PKQ87NXUJO05YRAGMTTWKSLXIMH","ALNPW5WIO0I","3JUDR1D0D6D4CARU3YX9Y3DK5DJ2QK","","96","img/land6.png","75","98","2","0","1","2","0.8,0.2,0.2,0.2,0.8,0.2,0.2,0.2,0.8","0.8,0.2,0.2,0.2,0.8,0.2,0.2,0.2,0.8","1","",""
"","html-keyboard-response","17","46265","0.0-17.0","3R2PKQ87NXUJO05YRAGMTTWKSLXIMH","ALNPW5WIO0I","3JUDR1D0D6D4CARU3YX9Y3DK5DJ2QK","","null","<img src=""img/land6.png"" style=""width:200px;border:14px solid red;"">","null","","","","","","","","","",""
"","image-keyboard-response","18","46366","0.0-18.0","3R2PKQ87NXUJO05YRAGMTTWKSLXIMH","ALNPW5WIO0I","3JUDR1D0D6D4CARU3YX9Y3DK5DJ2QK","","99","img/land2.png","75","100","2","0","3","2","0.8,0.2,0.2,0.2,0.8,0.2,0.2,0.2,0.8","0.8,0.2,0.2,0.2,0.8,0.2,0.2,0.2,0.8","1","",""
"","html-keyboard-response","19","46669","0.0-19.0","3R2PKQ87NXUJO05YRAGMTTWKSLXIMH","ALNPW5WIO0I","3JUDR1D0D6D4CARU3YX9Y3DK5DJ2QK","","null","<img src=""img/land2.png"" style=""width:200px;border:14px solid red;"">","null","","","","","","","","","",""
"","image-keyboard-response","20","46781","0.0-20.0","3R2PKQ87NXUJO05YRAGMTTWKSLXIMH","ALNPW5WIO0I","3JUDR1D0D6D4CARU3YX9Y3DK5DJ2QK","","109","img/land6.png","75","111","2","0","1","2","0.8,0.2,0.2,0.2,0.8,0.2,0.2,0.2,0.8","0.8,0.2,0.2,0.2,0.8,0.2,0.2,0.2,0.8","1","",""
"","html-keyboard-response","21","47084","0.0-21.0","3R2PKQ87NXUJO05YRAGMTTWKSLXIMH","ALNPW5WIO0I","3JUDR1D0D6D4CARU3YX9Y3DK5DJ2QK","","null","<img src=""img/land6.png"" style=""width:200px;border:14px solid red;"">","null","","","","","","","","","",""
"","image-keyboard-response","22","47820","0.0-22.0","3R2PKQ87NXUJO05YRAGMTTWKSLXIMH","ALNPW5WIO0I","3JUDR1D0D6D4CARU3YX9Y3DK5DJ2QK","","732","img/land2.png","74","734","1","0","3","2","0.8,0.2,0.2,0.2,0.8,0.2,0.2,0.2,0.8","0.8,0.2,0.2,0.2,0.8,0.2,0.2,0.2,0.8","1","",""
"","html-keyboard-response","23","48122","0.0-23.0","3R2PKQ87NXUJO05YRAGMTTWKSLXIMH","ALNPW5WIO0I","3JUDR1D0D6D4CARU3YX9Y3DK5DJ2QK","","null","<img src=""img/land2.png"" style=""width:200px;border:14px solid red;"">","null","","","","","","","","","",""
"","image-keyboard-response","24","48178","0.0-24.0","3R2PKQ87NXUJO05YRAGMTTWKSLXIMH","ALNPW5WIO0I","3JUDR1D0D6D4CARU3YX9Y3DK5DJ2QK","","53","img/land6.png","74","54","1","0","1","2","0.8,0.2,0.2,0.2,0.8,0.2,0.2,0.2,0.8","0.8,0.2,0.2,0.2,0.8,0.2,0.2,0.2,0.8","1","",""
"","html-keyboard-response","25","48480","0.0-25.0","3R2PKQ87NXUJO05YRAGMTTWKSLXIMH","ALNPW5WIO0I","3JUDR1D0D6D4CARU3YX9Y3DK5DJ2QK","","null","<img src=""img/land6.png"" style=""width:200px;border:14px solid red;"">","null","","","","","","","","","",""
"","image-keyboard-response","26","48757","0.0-26.0","3R2PKQ87NXUJO05YRAGMTTWKSLXIMH","ALNPW5WIO0I","3JUDR1D0D6D4CARU3YX9Y3DK5DJ2QK","","274","img/land6.png","74","277","1","1","1","2","0.8,0.2,0.2,0.2,0.8,0.2,0.2,0.2,0.8","0.8,0.2,0.2,0.2,0.8,0.2,0.2,0.2,0.8","1","",""
"","html-keyboard-response","27","49061","0.0-27.0","3R2PKQ87NXUJO05YRAGMTTWKSLXIMH","ALNPW5WIO0I","3JUDR1D0D6D4CARU3YX9Y3DK5DJ2QK","","null","<img src=""img/land6.png"" style=""width:200px; border:14px solid green;"">","null","","","","","","","","","",""
"","image-keyboard-response","28","49081","0.0-28.0","3R2PKQ87NXUJO05YRAGMTTWKSLXIMH","ALNPW5WIO0I","3JUDR1D0D6D4CARU3YX9Y3DK5DJ2QK","","17","img/land1.png","76","19","3","1","2","2","0.8,0.2,0.2,0.2,0.8,0.2,0.2,0.2,0.8","0.8,0.2,0.2,0.2,0.8,0.2,0.2,0.2,0.8","1","",""
"","html-keyboard-response","29","49383","0.0-29.0","3R2PKQ87NXUJO05YRAGMTTWKSLXIMH","ALNPW5WIO0I","3JUDR1D0D6D4CARU3YX9Y3DK5DJ2QK","","null","<img src=""img/land1.png"" style=""width:200px; border:14px solid green;"">","null","","","","","","","","","",""
"","image-keyboard-response","30","50242","0.0-30.0","3R2PKQ87NXUJO05YRAGMTTWKSLXIMH","ALNPW5WIO0I","3JUDR1D0D6D4CARU3YX9Y3DK5DJ2QK","","854","img/land2.png","76","857","3","1","3","2","0.8,0.2,0.2,0.2,0.8,0.2,0.2,0.2,0.8","0.8,0.2,0.2,0.2,0.8,0.2,0.2,0.2,0.8","1","",""
"","html-keyboard-response","31","50549","0.0-31.0","3R2PKQ87NXUJO05YRAGMTTWKSLXIMH","ALNPW5WIO0I","3JUDR1D0D6D4CARU3YX9Y3DK5DJ2QK","","null","<img src=""img/land2.png"" style=""width:200px; border:14px solid green;"">","null","","","","","","","","","",""
"","image-keyboard-response","32","50738","0.0-32.0","3R2PKQ87NXUJO05YRAGMTTWKSLXIMH","ALNPW5WIO0I","3JUDR1D0D6D4CARU3YX9Y3DK5DJ2QK","","188","img/land1.png","75","189","2","0","2","2","0.8,0.2,0.2,0.2,0.8,0.2,0.2,0.2,0.8","0.8,0.2,0.2,0.2,0.8,0.2,0.2,0.2,0.8","1","",""
"","html-keyboard-response","33","51040","0.0-33.0","3R2PKQ87NXUJO05YRAGMTTWKSLXIMH","ALNPW5WIO0I","3JUDR1D0D6D4CARU3YX9Y3DK5DJ2QK","","null","<img src=""img/land1.png"" style=""width:200px;border:14px solid red;"">","null","","","","","","","","","",""
"","image-keyboard-response","34","51160","0.0-34.0","3R2PKQ87NXUJO05YRAGMTTWKSLXIMH","ALNPW5WIO0I","3JUDR1D0D6D4CARU3YX9Y3DK5DJ2QK","","116","img/land6.png","75","117","2","1","1","2","0.8,0.2,0.2,0.2,0.8,0.2,0.2,0.2,0.8","0.8,0.2,0.2,0.2,0.8,0.2,0.2,0.2,0.8","1","",""
"","html-keyboard-response","35","51462","0.0-35.0","3R2PKQ87NXUJO05YRAGMTTWKSLXIMH","ALNPW5WIO0I","3JUDR1D0D6D4CARU3YX9Y3DK5DJ2QK","","null","<img src=""img/land6.png"" style=""width:200px; border:14px solid green;"">","null","","","","","","","","","",""
"","image-keyboard-response","36","51567","0.0-36.0","3R2PKQ87NXUJO05YRAGMTTWKSLXIMH","ALNPW5WIO0I","3JUDR1D0D6D4CARU3YX9Y3DK5DJ2QK","","100","img/land2.png","74","103","1","0","3","2","0.8,0.2,0.2,0.2,0.8,0.2,0.2,0.2,0.8","0.8,0.2,0.2,0.2,0.8,0.2,0.2,0.2,0.8","1","",""
"","html-keyboard-response","37","51869","0.0-37.0","3R2PKQ87NXUJO05YRAGMTTWKSLXIMH","ALNPW5WIO0I","3JUDR1D0D6D4CARU3YX9Y3DK5DJ2QK","","null","<img src=""img/land2.png"" style=""width:200px;border:14px solid red;"">","null","","","","","","","","","",""
"","image-keyboard-response","38","52542","0.0-38.0","3R2PKQ87NXUJO05YRAGMTTWKSLXIMH","ALNPW5WIO0I","3JUDR1D0D6D4CARU3YX9Y3DK5DJ2QK","","670","img/land6.png","75","671","2","0","1","2","0.8,0.2,0.2,0.2,0.8,0.2,0.2,0.2,0.8","0.8,0.2,0.2,0.2,0.8,0.2,0.2,0.2,0.8","1","",""
"","html-keyboard-response","39","52845","0.0-39.0","3R2PKQ87NXUJO05YRAGMTTWKSLXIMH","ALNPW5WIO0I","3JUDR1D0D6D4CARU3YX9Y3DK5DJ2QK","","null","<img src=""img/land6.png"" style=""width:200px;border:14px solid red;"">","null","","","","","","","","","",""
"","image-keyboard-response","40","52941","0.0-40.0","3R2PKQ87NXUJO05YRAGMTTWKSLXIMH","ALNPW5WIO0I","3JUDR1D0D6D4CARU3YX9Y3DK5DJ2QK","","90","img/land6.png","76","94","3","0","1","2","0.8,0.2,0.2,0.2,0.8,0.2,0.2,0.2,0.8","0.8,0.2,0.2,0.2,0.8,0.2,0.2,0.2,0.8","1","",""
"","html-keyboard-response","41","53245","0.0-41.0","3R2PKQ87NXUJO05YRAGMTTWKSLXIMH","ALNPW5WIO0I","3JUDR1D0D6D4CARU3YX9Y3DK5DJ2QK","","null","<img src=""img/land6.png"" style=""width:200px;border:14px solid red;"">","null","","","","","","","","","",""
"","image-keyboard-response","42","53339","0.0-42.0","3R2PKQ87NXUJO05YRAGMTTWKSLXIMH","ALNPW5WIO0I","3JUDR1D0D6D4CARU3YX9Y3DK5DJ2QK","","92","img/land1.png","76","94","3","0","2","2","0.8,0.2,0.2,0.2,0.8,0.2,0.2,0.2,0.8","0.8,0.2,0.2,0.2,0.8,0.2,0.2,0.2,0.8","1","",""
"","html-keyboard-response","43","53641","0.0-43.0","3R2PKQ87NXUJO05YRAGMTTWKSLXIMH","ALNPW5WIO0I","3JUDR1D0D6D4CARU3YX9Y3DK5DJ2QK","","null","<img src=""img/land1.png"" style=""width:200px;border:14px solid red;"">","null","","","","","","","","","",""
"","image-keyboard-response","44","54439","0.0-44.0","3R2PKQ87NXUJO05YRAGMTTWKSLXIMH","ALNPW5WIO0I","3JUDR1D0D6D4CARU3YX9Y3DK5DJ2QK","","796","img/land6.png","75","797","2","0","1","2","0.8,0.2,0.2,0.2,0.8,0.2,0.2,0.2,0.8","0.8,0.2,0.2,0.2,0.8,0.2,0.2,0.2,0.8","1","",""
"","html-keyboard-response","45","54744","0.0-45.0","3R2PKQ87NXUJO05YRAGMTTWKSLXIMH","ALNPW5WIO0I","3JUDR1D0D6D4CARU3YX9Y3DK5DJ2QK","","null","<img src=""img/land6.png"" style=""width:200px;border:14px solid red;"">","null","","","","","","","","","",""
"","image-keyboard-response","46","54872","0.0-46.0","3R2PKQ87NXUJO05YRAGMTTWKSLXIMH","ALNPW5WIO0I","3JUDR1D0D6D4CARU3YX9Y3DK5DJ2QK","","119","img/land6.png","74","120","1","0","1","2","0.8,0.2,0.2,0.2,0.8,0.2,0.2,0.2,0.8","0.8,0.2,0.2,0.2,0.8,0.2,0.2,0.2,0.8","1","",""
"","html-keyboard-response","47","55173","0.0-47.0","3R2PKQ87NXUJO05YRAGMTTWKSLXIMH","ALNPW5WIO0I","3JUDR1D0D6D4CARU3YX9Y3DK5DJ2QK","","null","<img src=""img/land6.png"" style=""width:200px;border:14px solid red;"">","null","","","","","","","","","",""
"","image-keyboard-response","48","55680","0.0-48.0","3R2PKQ87NXUJO05YRAGMTTWKSLXIMH","ALNPW5WIO0I","3JUDR1D0D6D4CARU3YX9Y3DK5DJ2QK","","505","img/land6.png","75","506","2","0","1","2","0.8,0.2,0.2,0.2,0.8,0.2,0.2,0.2,0.8","0.8,0.2,0.2,0.2,0.8,0.2,0.2,0.2,0.8","1","",""
"","html-keyboard-response","49","55985","0.0-49.0","3R2PKQ87NXUJO05YRAGMTTWKSLXIMH","ALNPW5WIO0I","3JUDR1D0D6D4CARU3YX9Y3DK5DJ2QK","","null","<img src=""img/land6.png"" style=""width:200px;border:14px solid red;"">","null","","","","","","","","","",""
"","image-keyboard-response","50","56610","0.0-50.0","3R2PKQ87NXUJO05YRAGMTTWKSLXIMH","ALNPW5WIO0I","3JUDR1D0D6D4CARU3YX9Y3DK5DJ2QK","","624","img/land6.png","74","625","1","0","1","2","0.8,0.2,0.2,0.2,0.8,0.2,0.2,0.2,0.8","0.8,0.2,0.2,0.2,0.8,0.2,0.2,0.2,0.8","1","",""
"","html-keyboard-response","51","56914","0.0-51.0","3R2PKQ87NXUJO05YRAGMTTWKSLXIMH","ALNPW5WIO0I","3JUDR1D0D6D4CARU3YX9Y3DK5DJ2QK","","null","<img src=""img/land6.png"" style=""width:200px;border:14px solid red;"">","null","","","","","","","","","",""
"","image-keyboard-response","52","57082","0.0-52.0","3R2PKQ87NXUJO05YRAGMTTWKSLXIMH","ALNPW5WIO0I","3JUDR1D0D6D4CARU3YX9Y3DK5DJ2QK","","165","img/land1.png","76","167","3","0","2","2","0.8,0.2,0.2,0.2,0.8,0.2,0.2,0.2,0.8","0.8,0.2,0.2,0.2,0.8,0.2,0.2,0.2,0.8","1","",""
"","html-keyboard-response","53","57385","0.0-53.0","3R2PKQ87NXUJO05YRAGMTTWKSLXIMH","ALNPW5WIO0I","3JUDR1D0D6D4CARU3YX9Y3DK5DJ2QK","","null","<img src=""img/land1.png"" style=""width:200px;border:14px solid red;"">","null","","","","","","","","","",""
"","image-keyboard-response","54","58057","0.0-54.0","3R2PKQ87NXUJO05YRAGMTTWKSLXIMH","ALNPW5WIO0I","3JUDR1D0D6D4CARU3YX9Y3DK5DJ2QK","","668","img/land6.png","75","670","2","0","1","2","0.8,0.2,0.2,0.2,0.8,0.2,0.2,0.2,0.8","0.8,0.2,0.2,0.2,0.8,0.2,0.2,0.2,0.8","1","",""
"","html-keyboard-response","55","58360","0.0-55.0","3R2PKQ87NXUJO05YRAGMTTWKSLXIMH","ALNPW5WIO0I","3JUDR1D0D6D4CARU3YX9Y3DK5DJ2QK","","null","<img src=""img/land6.png"" style=""width:200px;border:14px solid red;"">","null","","","","","","","","","",""
"","image-keyboard-response","56","58675","0.0-56.0","3R2PKQ87NXUJO05YRAGMTTWKSLXIMH","ALNPW5WIO0I","3JUDR1D0D6D4CARU3YX9Y3DK5DJ2QK","","308","img/land6.png","75","314","2","1","1","2","0.8,0.2,0.2,0.2,0.8,0.2,0.2,0.2,0.8","0.8,0.2,0.2,0.2,0.8,0.2,0.2,0.2,0.8","1","",""
"","html-keyboard-response","57","58979","0.0-57.0","3R2PKQ87NXUJO05YRAGMTTWKSLXIMH","ALNPW5WIO0I","3JUDR1D0D6D4CARU3YX9Y3DK5DJ2QK","","null","<img src=""img/land6.png"" style=""width:200px; border:14px solid green;"">","null","","","","","","","","","",""
"","image-keyboard-response","58","59480","0.0-58.0","3R2PKQ87NXUJO05YRAGMTTWKSLXIMH","ALNPW5WIO0I","3JUDR1D0D6D4CARU3YX9Y3DK5DJ2QK","","499","img/land2.png","74","500","1","0","3","2","0.8,0.2,0.2,0.2,0.8,0.2,0.2,0.2,0.8","0.8,0.2,0.2,0.2,0.8,0.2,0.2,0.2,0.8","1","",""
"","html-keyboard-response","59","59784","0.0-59.0","3R2PKQ87NXUJO05YRAGMTTWKSLXIMH","ALNPW5WIO0I","3JUDR1D0D6D4CARU3YX9Y3DK5DJ2QK","","null","<img src=""img/land2.png"" style=""width:200px;border:14px solid red;"">","null","","","","","","","","","",""
"","image-keyboard-response","60","60078","0.0-60.0","3R2PKQ87NXUJO05YRAGMTTWKSLXIMH","ALNPW5WIO0I","3JUDR1D0D6D4CARU3YX9Y3DK5DJ2QK","","291","img/land2.png","76","293","3","1","3","2","0.8,0.2,0.2,0.2,0.8,0.2,0.2,0.2,0.8","0.8,0.2,0.2,0.2,0.8,0.2,0.2,0.2,0.8","1","",""
"","html-keyboard-response","61","60381","0.0-61.0","3R2PKQ87NXUJO05YRAGMTTWKSLXIMH","ALNPW5WIO0I","3JUDR1D0D6D4CARU3YX9Y3DK5DJ2QK","","null","<img src=""img/land2.png"" style=""width:200px; border:14px solid green;"">","null","","","","","","","","","",""
"","image-keyboard-response","62","60896","0.0-62.0","3R2PKQ87NXUJO05YRAGMTTWKSLXIMH","ALNPW5WIO0I","3JUDR1D0D6D4CARU3YX9Y3DK5DJ2QK","","512","img/land2.png","74","514","1","0","3","2","0.8,0.2,0.2,0.2,0.8,0.2,0.2,0.2,0.8","0.8,0.2,0.2,0.2,0.8,0.2,0.2,0.2,0.8","1","",""
"","html-keyboard-response","63","61198","0.0-63.0","3R2PKQ87NXUJO05YRAGMTTWKSLXIMH","ALNPW5WIO0I","3JUDR1D0D6D4CARU3YX9Y3DK5DJ2QK","","null","<img src=""img/land2.png"" style=""width:200px;border:14px solid red;"">","null","","","","","","","","","",""
"","image-keyboard-response","64","61362","0.0-64.0","3R2PKQ87NXUJO05YRAGMTTWKSLXIMH","ALNPW5WIO0I","3JUDR1D0D6D4CARU3YX9Y3DK5DJ2QK","","162","img/land6.png","76","163","3","0","1","2","0.8,0.2,0.2,0.2,0.8,0.2,0.2,0.2,0.8","0.8,0.2,0.2,0.2,0.8,0.2,0.2,0.2,0.8","1","",""
"","html-keyboard-response","65","61666","0.0-65.0","3R2PKQ87NXUJO05YRAGMTTWKSLXIMH","ALNPW5WIO0I","3JUDR1D0D6D4CARU3YX9Y3DK5DJ2QK","","null","<img src=""img/land6.png"" style=""width:200px;border:14px solid red;"">","null","","","","","","","","","",""
"","image-keyboard-response","66","62372","0.0-66.0","3R2PKQ87NXUJO05YRAGMTTWKSLXIMH","ALNPW5WIO0I","3JUDR1D0D6D4CARU3YX9Y3DK5DJ2QK","","703","img/land2.png","76","705","3","1","3","2","0.8,0.2,0.2,0.2,0.8,0.2,0.2,0.2,0.8","0.8,0.2,0.2,0.2,0.8,0.2,0.2,0.2,0.8","1","",""
"","html-keyboard-response","67","62675","0.0-67.0","3R2PKQ87NXUJO05YRAGMTTWKSLXIMH","ALNPW5WIO0I","3JUDR1D0D6D4CARU3YX9Y3DK5DJ2QK","","null","<img src=""img/land2.png"" style=""width:200px; border:14px solid green;"">","null","","","","","","","","","",""
"","image-keyboard-response","68","63276","0.0-68.0","3R2PKQ87NXUJO05YRAGMTTWKSLXIMH","ALNPW5WIO0I","3JUDR1D0D6D4CARU3YX9Y3DK5DJ2QK","","600","img/land6.png","76","601","3","0","1","2","0.8,0.2,0.2,0.2,0.8,0.2,0.2,0.2,0.8","0.8,0.2,0.2,0.2,0.8,0.2,0.2,0.2,0.8","1","",""
"","html-keyboard-response","69","63578","0.0-69.0","3R2PKQ87NXUJO05YRAGMTTWKSLXIMH","ALNPW5WIO0I","3JUDR1D0D6D4CARU3YX9Y3DK5DJ2QK","","null","<img src=""img/land6.png"" style=""width:200px;border:14px solid red;"">","null","","","","","","","","","",""
"","image-keyboard-response","70","63797","0.0-70.0","3R2PKQ87NXUJO05YRAGMTTWKSLXIMH","ALNPW5WIO0I","3JUDR1D0D6D4CARU3YX9Y3DK5DJ2QK","","218","img/land6.png","75","218","2","0","1","2","0.8,0.2,0.2,0.2,0.8,0.2,0.2,0.2,0.8","0.8,0.2,0.2,0.2,0.8,0.2,0.2,0.2,0.8","1","",""
"","html-keyboard-response","71","64100","0.0-71.0","3R2PKQ87NXUJO05YRAGMTTWKSLXIMH","ALNPW5WIO0I","3JUDR1D0D6D4CARU3YX9Y3DK5DJ2QK","","null","<img src=""img/land6.png"" style=""width:200px;border:14px solid red;"">","null","","","","","","","","","",""
"","image-keyboard-response","72","64814","0.0-72.0","3R2PKQ87NXUJO05YRAGMTTWKSLXIMH","ALNPW5WIO0I","3JUDR1D0D6D4CARU3YX9Y3DK5DJ2QK","","712","img/land6.png","76","713","3","0","1","2","0.8,0.2,0.2,0.2,0.8,0.2,0.2,0.2,0.8","0.8,0.2,0.2,0.2,0.8,0.2,0.2,0.2,0.8","1","",""
"","html-keyboard-response","73","65116","0.0-73.0","3R2PKQ87NXUJO05YRAGMTTWKSLXIMH","ALNPW5WIO0I","3JUDR1D0D6D4CARU3YX9Y3DK5DJ2QK","","null","<img src=""img/land6.png"" style=""width:200px;border:14px solid red;"">","null","","","","","","","","","",""
"","image-keyboard-response","74","65159","0.0-74.0","3R2PKQ87NXUJO05YRAGMTTWKSLXIMH","ALNPW5WIO0I","3JUDR1D0D6D4CARU3YX9Y3DK5DJ2QK","","41","img/land6.png","75","42","2","0","1","2","0.8,0.2,0.2,0.2,0.8,0.2,0.2,0.2,0.8","0.8,0.2,0.2,0.2,0.8,0.2,0.2,0.2,0.8","1","",""
"","html-keyboard-response","75","65459","0.0-75.0","3R2PKQ87NXUJO05YRAGMTTWKSLXIMH","ALNPW5WIO0I","3JUDR1D0D6D4CARU3YX9Y3DK5DJ2QK","","null","<img src=""img/land6.png"" style=""width:200px;border:14px solid red;"">","null","","","","","","","","","",""
"","image-keyboard-response","76","65628","0.0-76.0","3R2PKQ87NXUJO05YRAGMTTWKSLXIMH","ALNPW5WIO0I","3JUDR1D0D6D4CARU3YX9Y3DK5DJ2QK","","167","img/land6.png","75","168","2","0","1","2","0.8,0.2,0.2,0.2,0.8,0.2,0.2,0.2,0.8","0.8,0.2,0.2,0.2,0.8,0.2,0.2,0.2,0.8","1","",""
"","html-keyboard-response","77","65930","0.0-77.0","3R2PKQ87NXUJO05YRAGMTTWKSLXIMH","ALNPW5WIO0I","3JUDR1D0D6D4CARU3YX9Y3DK5DJ2QK","","null","<img src=""img/land6.png"" style=""width:200px;border:14px solid red;"">","null","","","","","","","","","",""
"","image-keyboard-response","78","66312","0.0-78.0","3R2PKQ87NXUJO05YRAGMTTWKSLXIMH","ALNPW5WIO0I","3JUDR1D0D6D4CARU3YX9Y3DK5DJ2QK","","377","img/land1.png","74","380","1","0","2","2","0.8,0.2,0.2,0.2,0.8,0.2,0.2,0.2,0.8","0.8,0.2,0.2,0.2,0.8,0.2,0.2,0.2,0.8","1","",""
"","html-keyboard-response","79","66615","0.0-79.0","3R2PKQ87NXUJO05YRAGMTTWKSLXIMH","ALNPW5WIO0I","3JUDR1D0D6D4CARU3YX9Y3DK5DJ2QK","","null","<img src=""img/land1.png"" style=""width:200px;border:14px solid red;"">","null","","","","","","","","","",""
"","image-keyboard-response","80","67076","0.0-80.0","3R2PKQ87NXUJO05YRAGMTTWKSLXIMH","ALNPW5WIO0I","3JUDR1D0D6D4CARU3YX9Y3DK5DJ2QK","","459","img/land1.png","74","460","1","0","2","2","0.8,0.2,0.2,0.2,0.8,0.2,0.2,0.2,0.8","0.8,0.2,0.2,0.2,0.8,0.2,0.2,0.2,0.8","1","",""
"","html-keyboard-response","81","67379","0.0-81.0","3R2PKQ87NXUJO05YRAGMTTWKSLXIMH","ALNPW5WIO0I","3JUDR1D0D6D4CARU3YX9Y3DK5DJ2QK","","null","<img src=""img/land1.png"" style=""width:200px;border:14px solid red;"">","null","","","","","","","","","",""
"","image-keyboard-response","82","67558","0.0-82.0","3R2PKQ87NXUJO05YRAGMTTWKSLXIMH","ALNPW5WIO0I","3JUDR1D0D6D4CARU3YX9Y3DK5DJ2QK","","176","img/land6.png","75","177","2","1","1","2","0.8,0.2,0.2,0.2,0.8,0.2,0.2,0.2,0.8","0.8,0.2,0.2,0.2,0.8,0.2,0.2,0.2,0.8","1","",""
"","html-keyboard-response","83","67862","0.0-83.0","3R2PKQ87NXUJO05YRAGMTTWKSLXIMH","ALNPW5WIO0I","3JUDR1D0D6D4CARU3YX9Y3DK5DJ2QK","","null","<img src=""img/land6.png"" style=""width:200px; border:14px solid green;"">","null","","","","","","","","","",""
"","image-keyboard-response","84","68208","0.0-84.0","3R2PKQ87NXUJO05YRAGMTTWKSLXIMH","ALNPW5WIO0I","3JUDR1D0D6D4CARU3YX9Y3DK5DJ2QK","","343","img/land6.png","76","345","3","0","1","2","0.8,0.2,0.2,0.2,0.8,0.2,0.2,0.2,0.8","0.8,0.2,0.2,0.2,0.8,0.2,0.2,0.2,0.8","1","",""
"","html-keyboard-response","85","68510","0.0-85.0","3R2PKQ87NXUJO05YRAGMTTWKSLXIMH","ALNPW5WIO0I","3JUDR1D0D6D4CARU3YX9Y3DK5DJ2QK","","null","<img src=""img/land6.png"" style=""width:200px;border:14px solid red;"">","null","","","","","","","","","",""
"","image-keyboard-response","86","69020","0.0-86.0","3R2PKQ87NXUJO05YRAGMTTWKSLXIMH","ALNPW5WIO0I","3JUDR1D0D6D4CARU3YX9Y3DK5DJ2QK","","503","img/land1.png","76","509","3","0","2","2","0.8,0.2,0.2,0.2,0.8,0.2,0.2,0.2,0.8","0.8,0.2,0.2,0.2,0.8,0.2,0.2,0.2,0.8","1","",""
"","html-keyboard-response","87","69324","0.0-87.0","3R2PKQ87NXUJO05YRAGMTTWKSLXIMH","ALNPW5WIO0I","3JUDR1D0D6D4CARU3YX9Y3DK5DJ2QK","","null","<img src=""img/land1.png"" style=""width:200px;border:14px solid red;"">","null","","","","","","","","","",""
"","image-keyboard-response","88","69721","0.0-88.0","3R2PKQ87NXUJO05YRAGMTTWKSLXIMH","ALNPW5WIO0I","3JUDR1D0D6D4CARU3YX9Y3DK5DJ2QK","","396","img/land6.png","75","398","2","0","1","2","0.8,0.2,0.2,0.2,0.8,0.2,0.2,0.2,0.8","0.8,0.2,0.2,0.2,0.8,0.2,0.2,0.2,0.8","1","",""
"","html-keyboard-response","89","70027","0.0-89.0","3R2PKQ87NXUJO05YRAGMTTWKSLXIMH","ALNPW5WIO0I","3JUDR1D0D6D4CARU3YX9Y3DK5DJ2QK","","null","<img src=""img/land6.png"" style=""width:200px;border:14px solid red;"">","null","","","","","","","","","",""
"","image-keyboard-response","90","70381","0.0-90.0","3R2PKQ87NXUJO05YRAGMTTWKSLXIMH","ALNPW5WIO0I","3JUDR1D0D6D4CARU3YX9Y3DK5DJ2QK","","351","img/land6.png","76","354","3","0","1","2","0.8,0.2,0.2,0.2,0.8,0.2,0.2,0.2,0.8","0.8,0.2,0.2,0.2,0.8,0.2,0.2,0.2,0.8","1","",""
"","html-keyboard-response","91","70732","0.0-91.0","3R2PKQ87NXUJO05YRAGMTTWKSLXIMH","ALNPW5WIO0I","3JUDR1D0D6D4CARU3YX9Y3DK5DJ2QK","","null","<img src=""img/land6.png"" style=""width:200px;border:14px solid red;"">","null","","","","","","","","","",""
"","image-keyboard-response","92","70743","0.0-92.0","3R2PKQ87NXUJO05YRAGMTTWKSLXIMH","ALNPW5WIO0I","3JUDR1D0D6D4CARU3YX9Y3DK5DJ2QK","","9","img/land1.png","76","10","3","0","2","2","0.8,0.2,0.2,0.2,0.8,0.2,0.2,0.2,0.8","0.8,0.2,0.2,0.2,0.8,0.2,0.2,0.2,0.8","1","",""
"","html-keyboard-response","93","71045","0.0-93.0","3R2PKQ87NXUJO05YRAGMTTWKSLXIMH","ALNPW5WIO0I","3JUDR1D0D6D4CARU3YX9Y3DK5DJ2QK","","null","<img src=""img/land1.png"" style=""width:200px;border:14px solid red;"">","null","","","","","","","","","",""
"","image-keyboard-response","94","71466","0.0-94.0","3R2PKQ87NXUJO05YRAGMTTWKSLXIMH","ALNPW5WIO0I","3JUDR1D0D6D4CARU3YX9Y3DK5DJ2QK","","418","img/land6.png","75","420","2","0","1","2","0.8,0.2,0.2,0.2,0.8,0.2,0.2,0.2,0.8","0.8,0.2,0.2,0.2,0.8,0.2,0.2,0.2,0.8","1","",""
"","html-keyboard-response","95","71767","0.0-95.0","3R2PKQ87NXUJO05YRAGMTTWKSLXIMH","ALNPW5WIO0I","3JUDR1D0D6D4CARU3YX9Y3DK5DJ2QK","","null","<img src=""img/land6.png"" style=""width:200px;border:14px solid red;"">","null","","","","","","","","","",""
"","image-keyboard-response","96","72500","0.0-96.0","3R2PKQ87NXUJO05YRAGMTTWKSLXIMH","ALNPW5WIO0I","3JUDR1D0D6D4CARU3YX9Y3DK5DJ2QK","","729","img/land2.png","75","732","2","0","3","2","0.8,0.2,0.2,0.2,0.8,0.2,0.2,0.2,0.8","0.8,0.2,0.2,0.2,0.8,0.2,0.2,0.2,0.8","1","",""
"","html-keyboard-response","97","72804","0.0-97.0","3R2PKQ87NXUJO05YRAGMTTWKSLXIMH","ALNPW5WIO0I","3JUDR1D0D6D4CARU3YX9Y3DK5DJ2QK","","null","<img src=""img/land2.png"" style=""width:200px;border:14px solid red;"">","null","","","","","","","","","",""
"","image-keyboard-response","98","72999","0.0-98.0","3R2PKQ87NXUJO05YRAGMTTWKSLXIMH","ALNPW5WIO0I","3JUDR1D0D6D4CARU3YX9Y3DK5DJ2QK","","195","img/land2.png","76","195","3","1","3","2","0.8,0.2,0.2,0.2,0.8,0.2,0.2,0.2,0.8","0.8,0.2,0.2,0.2,0.8,0.2,0.2,0.2,0.8","1","",""
"","html-keyboard-response","99","73302","0.0-99.0","3R2PKQ87NXUJO05YRAGMTTWKSLXIMH","ALNPW5WIO0I","3JUDR1D0D6D4CARU3YX9Y3DK5DJ2QK","","null","<img src=""img/land2.png"" style=""width:200px; border:14px solid green;"">","null","","","","","","","","","",""
"","image-keyboard-response","100","73508","0.0-100.0","3R2PKQ87NXUJO05YRAGMTTWKSLXIMH","ALNPW5WIO0I","3JUDR1D0D6D4CARU3YX9Y3DK5DJ2QK","","202","img/land1.png","75","205","2","1","2","2","0.8,0.2,0.2,0.2,0.8,0.2,0.2,0.2,0.8","0.8,0.2,0.2,0.2,0.8,0.2,0.2,0.2,0.8","1","",""
"","html-keyboard-response","101","73812","0.0-101.0","3R2PKQ87NXUJO05YRAGMTTWKSLXIMH","ALNPW5WIO0I","3JUDR1D0D6D4CARU3YX9Y3DK5DJ2QK","","null","<img src=""img/land1.png"" style=""width:200px; border:14px solid green;"">","null","","","","","","","","","",""
"","image-keyboard-response","102","74244","0.0-102.0","3R2PKQ87NXUJO05YRAGMTTWKSLXIMH","ALNPW5WIO0I","3JUDR1D0D6D4CARU3YX9Y3DK5DJ2QK","","428","img/land2.png","75","430","2","0","3","2","0.8,0.2,0.2,0.2,0.8,0.2,0.2,0.2,0.8","0.8,0.2,0.2,0.2,0.8,0.2,0.2,0.2,0.8","1","",""
"","html-keyboard-response","103","74544","0.0-103.0","3R2PKQ87NXUJO05YRAGMTTWKSLXIMH","ALNPW5WIO0I","3JUDR1D0D6D4CARU3YX9Y3DK5DJ2QK","","null","<img src=""img/land2.png"" style=""width:200px;border:14px solid red;"">","null","","","","","","","","","",""
"","image-keyboard-response","104","74677","0.0-104.0","3R2PKQ87NXUJO05YRAGMTTWKSLXIMH","ALNPW5WIO0I","3JUDR1D0D6D4CARU3YX9Y3DK5DJ2QK","","125","img/land6.png","74","126","1","1","1","2","0.8,0.2,0.2,0.2,0.8,0.2,0.2,0.2,0.8","0.8,0.2,0.2,0.2,0.8,0.2,0.2,0.2,0.8","1","",""
"","html-keyboard-response","105","74981","0.0-105.0","3R2PKQ87NXUJO05YRAGMTTWKSLXIMH","ALNPW5WIO0I","3JUDR1D0D6D4CARU3YX9Y3DK5DJ2QK","","null","<img src=""img/land6.png"" style=""width:200px; border:14px solid green;"">","null","","","","","","","","","",""
"","image-keyboard-response","106","75823","0.0-106.0","3R2PKQ87NXUJO05YRAGMTTWKSLXIMH","ALNPW5WIO0I","3JUDR1D0D6D4CARU3YX9Y3DK5DJ2QK","","840","img/land2.png","75","841","2","1","3","2","0.8,0.2,0.2,0.2,0.8,0.2,0.2,0.2,0.8","0.8,0.2,0.2,0.2,0.8,0.2,0.2,0.2,0.8","1","",""
"","html-keyboard-response","107","76128","0.0-107.0","3R2PKQ87NXUJO05YRAGMTTWKSLXIMH","ALNPW5WIO0I","3JUDR1D0D6D4CARU3YX9Y3DK5DJ2QK","","null","<img src=""img/land2.png"" style=""width:200px; border:14px solid green;"">","null","","","","","","","","","",""
"","image-keyboard-response","108","76228","0.0-108.0","3R2PKQ87NXUJO05YRAGMTTWKSLXIMH","ALNPW5WIO0I","3JUDR1D0D6D4CARU3YX9Y3DK5DJ2QK","","98","img/land6.png","76","100","3","0","1","2","0.8,0.2,0.2,0.2,0.8,0.2,0.2,0.2,0.8","0.8,0.2,0.2,0.2,0.8,0.2,0.2,0.2,0.8","1","",""
"","html-keyboard-response","109","76619","0.0-109.0","3R2PKQ87NXUJO05YRAGMTTWKSLXIMH","ALNPW5WIO0I","3JUDR1D0D6D4CARU3YX9Y3DK5DJ2QK","","null","<img src=""img/land6.png"" style=""width:200px;border:14px solid red;"">","null","","","","","","","","","",""
"","image-keyboard-response","110","77309","0.0-110.0","3R2PKQ87NXUJO05YRAGMTTWKSLXIMH","ALNPW5WIO0I","3JUDR1D0D6D4CARU3YX9Y3DK5DJ2QK","","689","img/land6.png","75","690","2","0","1","2","0.8,0.2,0.2,0.2,0.8,0.2,0.2,0.2,0.8","0.8,0.2,0.2,0.2,0.8,0.2,0.2,0.2,0.8","1","",""
"","html-keyboard-response","111","77612","0.0-111.0","3R2PKQ87NXUJO05YRAGMTTWKSLXIMH","ALNPW5WIO0I","3JUDR1D0D6D4CARU3YX9Y3DK5DJ2QK","","null","<img src=""img/land6.png"" style=""width:200px;border:14px solid red;"">","null","","","","","","","","","",""
"","image-keyboard-response","112","78031","0.0-112.0","3R2PKQ87NXUJO05YRAGMTTWKSLXIMH","ALNPW5WIO0I","3JUDR1D0D6D4CARU3YX9Y3DK5DJ2QK","","415","img/land6.png","74","417","1","0","1","2","0.8,0.2,0.2,0.2,0.8,0.2,0.2,0.2,0.8","0.8,0.2,0.2,0.2,0.8,0.2,0.2,0.2,0.8","1","",""
"","html-keyboard-response","113","78334","0.0-113.0","3R2PKQ87NXUJO05YRAGMTTWKSLXIMH","ALNPW5WIO0I","3JUDR1D0D6D4CARU3YX9Y3DK5DJ2QK","","null","<img src=""img/land6.png"" style=""width:200px;border:14px solid red;"">","null","","","","","","","","","",""
"","image-keyboard-response","114","78661","0.0-114.0","3R2PKQ87NXUJO05YRAGMTTWKSLXIMH","ALNPW5WIO0I","3JUDR1D0D6D4CARU3YX9Y3DK5DJ2QK","","325","img/land2.png","75","327","2","1","3","2","0.8,0.2,0.2,0.2,0.8,0.2,0.2,0.2,0.8","0.8,0.2,0.2,0.2,0.8,0.2,0.2,0.2,0.8","1","",""
"","html-keyboard-response","115","78965","0.0-115.0","3R2PKQ87NXUJO05YRAGMTTWKSLXIMH","ALNPW5WIO0I","3JUDR1D0D6D4CARU3YX9Y3DK5DJ2QK","","null","<img src=""img/land2.png"" style=""width:200px; border:14px solid green;"">","null","","","","","","","","","",""
"","image-keyboard-response","116","79048","0.0-116.0","3R2PKQ87NXUJO05YRAGMTTWKSLXIMH","ALNPW5WIO0I","3JUDR1D0D6D4CARU3YX9Y3DK5DJ2QK","","81","img/land1.png","75","82","2","1","2","2","0.8,0.2,0.2,0.2,0.8,0.2,0.2,0.2,0.8","0.8,0.2,0.2,0.2,0.8,0.2,0.2,0.2,0.8","1","",""
"","html-keyboard-response","117","79351","0.0-117.0","3R2PKQ87NXUJO05YRAGMTTWKSLXIMH","ALNPW5WIO0I","3JUDR1D0D6D4CARU3YX9Y3DK5DJ2QK","","null","<img src=""img/land1.png"" style=""width:200px; border:14px solid green;"">","null","","","","","","","","","",""
"","image-keyboard-response","118","79893","0.0-118.0","3R2PKQ87NXUJO05YRAGMTTWKSLXIMH","ALNPW5WIO0I","3JUDR1D0D6D4CARU3YX9Y3DK5DJ2QK","","537","img/land1.png","74","539","1","0","2","2","0.8,0.2,0.2,0.2,0.8,0.2,0.2,0.2,0.8","0.8,0.2,0.2,0.2,0.8,0.2,0.2,0.2,0.8","1","",""
"","html-keyboard-response","119","80195","0.0-119.0","3R2PKQ87NXUJO05YRAGMTTWKSLXIMH","ALNPW5WIO0I","3JUDR1D0D6D4CARU3YX9Y3DK5DJ2QK","","null","<img src=""img/land1.png"" style=""width:200px;border:14px solid red;"">","null","","","","","","","","","",""
"","image-keyboard-response","120","80239","0.0-120.0","3R2PKQ87NXUJO05YRAGMTTWKSLXIMH","ALNPW5WIO0I","3JUDR1D0D6D4CARU3YX9Y3DK5DJ2QK","","41","img/land6.png","74","44","1","1","1","2","0.8,0.2,0.2,0.2,0.8,0.2,0.2,0.2,0.8","0.8,0.2,0.2,0.2,0.8,0.2,0.2,0.2,0.8","1","",""
"","html-keyboard-response","121","80543","0.0-121.0","3R2PKQ87NXUJO05YRAGMTTWKSLXIMH","ALNPW5WIO0I","3JUDR1D0D6D4CARU3YX9Y3DK5DJ2QK","","null","<img src=""img/land6.png"" style=""width:200px; border:14px solid green;"">","null","","","","","","","","","",""
"","image-keyboard-response","122","80894","0.0-122.0","3R2PKQ87NXUJO05YRAGMTTWKSLXIMH","ALNPW5WIO0I","3JUDR1D0D6D4CARU3YX9Y3DK5DJ2QK","","349","img/land2.png","75","350","2","1","3","2","0.8,0.2,0.2,0.2,0.8,0.2,0.2,0.2,0.8","0.8,0.2,0.2,0.2,0.8,0.2,0.2,0.2,0.8","1","",""
"","html-keyboard-response","123","81196","0.0-123.0","3R2PKQ87NXUJO05YRAGMTTWKSLXIMH","ALNPW5WIO0I","3JUDR1D0D6D4CARU3YX9Y3DK5DJ2QK","","null","<img src=""img/land2.png"" style=""width:200px; border:14px solid green;"">","null","","","","","","","","","",""
"","image-keyboard-response","124","81398","0.0-124.0","3R2PKQ87NXUJO05YRAGMTTWKSLXIMH","ALNPW5WIO0I","3JUDR1D0D6D4CARU3YX9Y3DK5DJ2QK","","199","img/land1.png","74","201","1","1","2","2","0.8,0.2,0.2,0.2,0.8,0.2,0.2,0.2,0.8","0.8,0.2,0.2,0.2,0.8,0.2,0.2,0.2,0.8","1","",""
"","html-keyboard-response","125","81701","0.0-125.0","3R2PKQ87NXUJO05YRAGMTTWKSLXIMH","ALNPW5WIO0I","3JUDR1D0D6D4CARU3YX9Y3DK5DJ2QK","","null","<img src=""img/land1.png"" style=""width:200px; border:14px solid green;"">","null","","","","","","","","","",""
"","image-keyboard-response","126","81815","0.0-126.0","3R2PKQ87NXUJO05YRAGMTTWKSLXIMH","ALNPW5WIO0I","3JUDR1D0D6D4CARU3YX9Y3DK5DJ2QK","","111","img/land6.png","74","113","1","0","1","2","0.8,0.2,0.2,0.2,0.8,0.2,0.2,0.2,0.8","0.8,0.2,0.2,0.2,0.8,0.2,0.2,0.2,0.8","1","",""
"","html-keyboard-response","127","82117","0.0-127.0","3R2PKQ87NXUJO05YRAGMTTWKSLXIMH","ALNPW5WIO0I","3JUDR1D0D6D4CARU3YX9Y3DK5DJ2QK","","null","<img src=""img/land6.png"" style=""width:200px;border:14px solid red;"">","null","","","","","","","","","",""
"","image-keyboard-response","128","82249","0.0-128.0","3R2PKQ87NXUJO05YRAGMTTWKSLXIMH","ALNPW5WIO0I","3JUDR1D0D6D4CARU3YX9Y3DK5DJ2QK","","131","img/land6.png","74","132","1","0","1","2","0.8,0.2,0.2,0.2,0.8,0.2,0.2,0.2,0.8","0.8,0.2,0.2,0.2,0.8,0.2,0.2,0.2,0.8","1","",""
"","html-keyboard-response","129","82552","0.0-129.0","3R2PKQ87NXUJO05YRAGMTTWKSLXIMH","ALNPW5WIO0I","3JUDR1D0D6D4CARU3YX9Y3DK5DJ2QK","","null","<img src=""img/land6.png"" style=""width:200px;border:14px solid red;"">","null","","","","","","","","","",""
"","image-keyboard-response","130","82624","0.0-130.0","3R2PKQ87NXUJO05YRAGMTTWKSLXIMH","ALNPW5WIO0I","3JUDR1D0D6D4CARU3YX9Y3DK5DJ2QK","","69","img/land6.png","75","70","2","0","1","2","0.8,0.2,0.2,0.2,0.8,0.2,0.2,0.2,0.8","0.8,0.2,0.2,0.2,0.8,0.2,0.2,0.2,0.8","1","",""
"","html-keyboard-response","131","82927","0.0-131.0","3R2PKQ87NXUJO05YRAGMTTWKSLXIMH","ALNPW5WIO0I","3JUDR1D0D6D4CARU3YX9Y3DK5DJ2QK","","null","<img src=""img/land6.png"" style=""width:200px;border:14px solid red;"">","null","","","","","","","","","",""
"","image-keyboard-response","132","83208","0.0-132.0","3R2PKQ87NXUJO05YRAGMTTWKSLXIMH","ALNPW5WIO0I","3JUDR1D0D6D4CARU3YX9Y3DK5DJ2QK","","279","img/land6.png","76","281","3","0","1","2","0.8,0.2,0.2,0.2,0.8,0.2,0.2,0.2,0.8","0.8,0.2,0.2,0.2,0.8,0.2,0.2,0.2,0.8","1","",""
"","html-keyboard-response","133","83514","0.0-133.0","3R2PKQ87NXUJO05YRAGMTTWKSLXIMH","ALNPW5WIO0I","3JUDR1D0D6D4CARU3YX9Y3DK5DJ2QK","","null","<img src=""img/land6.png"" style=""width:200px;border:14px solid red;"">","null","","","","","","","","","",""
"","image-keyboard-response","134","84044","0.0-134.0","3R2PKQ87NXUJO05YRAGMTTWKSLXIMH","ALNPW5WIO0I","3JUDR1D0D6D4CARU3YX9Y3DK5DJ2QK","","527","img/land6.png","75","528","2","1","1","2","0.8,0.2,0.2,0.2,0.8,0.2,0.2,0.2,0.8","0.8,0.2,0.2,0.2,0.8,0.2,0.2,0.2,0.8","1","",""
"","html-keyboard-response","135","84347","0.0-135.0","3R2PKQ87NXUJO05YRAGMTTWKSLXIMH","ALNPW5WIO0I","3JUDR1D0D6D4CARU3YX9Y3DK5DJ2QK","","null","<img src=""img/land6.png"" style=""width:200px; border:14px solid green;"">","null","","","","","","","","","",""
"","image-keyboard-response","136","84383","0.0-136.0","3R2PKQ87NXUJO05YRAGMTTWKSLXIMH","ALNPW5WIO0I","3JUDR1D0D6D4CARU3YX9Y3DK5DJ2QK","","30","img/land6.png","75","33","2","0","1","2","0.8,0.2,0.2,0.2,0.8,0.2,0.2,0.2,0.8","0.8,0.2,0.2,0.2,0.8,0.2,0.2,0.2,0.8","1","",""
"","html-keyboard-response","137","84685","0.0-137.0","3R2PKQ87NXUJO05YRAGMTTWKSLXIMH","ALNPW5WIO0I","3JUDR1D0D6D4CARU3YX9Y3DK5DJ2QK","","null","<img src=""img/land6.png"" style=""width:200px;border:14px solid red;"">","null","","","","","","","","","",""
"","image-keyboard-response","138","85115","0.0-138.0","3R2PKQ87NXUJO05YRAGMTTWKSLXIMH","ALNPW5WIO0I","3JUDR1D0D6D4CARU3YX9Y3DK5DJ2QK","","428","img/land6.png","75","429","2","0","1","2","0.8,0.2,0.2,0.2,0.8,0.2,0.2,0.2,0.8","0.8,0.2,0.2,0.2,0.8,0.2,0.2,0.2,0.8","1","",""
"","html-keyboard-response","139","85418","0.0-139.0","3R2PKQ87NXUJO05YRAGMTTWKSLXIMH","ALNPW5WIO0I","3JUDR1D0D6D4CARU3YX9Y3DK5DJ2QK","","null","<img src=""img/land6.png"" style=""width:200px;border:14px solid red;"">","null","","","","","","","","","",""
"","image-keyboard-response","140","85436","0.0-140.0","3R2PKQ87NXUJO05YRAGMTTWKSLXIMH","ALNPW5WIO0I","3JUDR1D0D6D4CARU3YX9Y3DK5DJ2QK","","14","img/land6.png","74","17","1","1","1","2","0.8,0.2,0.2,0.2,0.8,0.2,0.2,0.2,0.8","0.8,0.2,0.2,0.2,0.8,0.2,0.2,0.2,0.8","1","",""
"","html-keyboard-response","141","85738","0.0-141.0","3R2PKQ87NXUJO05YRAGMTTWKSLXIMH","ALNPW5WIO0I","3JUDR1D0D6D4CARU3YX9Y3DK5DJ2QK","","null","<img src=""img/land6.png"" style=""width:200px; border:14px solid green;"">","null","","","","","","","","","",""
"","image-keyboard-response","142","87349","0.0-142.0","3R2PKQ87NXUJO05YRAGMTTWKSLXIMH","ALNPW5WIO0I","3JUDR1D0D6D4CARU3YX9Y3DK5DJ2QK","","1609","img/land2.png","75","1610","2","0","3","2","0.8,0.2,0.2,0.2,0.8,0.2,0.2,0.2,0.8","0.8,0.2,0.2,0.2,0.8,0.2,0.2,0.2,0.8","1","",""
"","html-keyboard-response","143","87652","0.0-143.0","3R2PKQ87NXUJO05YRAGMTTWKSLXIMH","ALNPW5WIO0I","3JUDR1D0D6D4CARU3YX9Y3DK5DJ2QK","","null","<img src=""img/land2.png"" style=""width:200px;border:14px solid red;"">","null","","","","","","","","","",""
"","image-keyboard-response","144","87749","0.0-144.0","3R2PKQ87NXUJO05YRAGMTTWKSLXIMH","ALNPW5WIO0I","3JUDR1D0D6D4CARU3YX9Y3DK5DJ2QK","","95","img/land1.png","74","97","1","1","2","2","0.8,0.2,0.2,0.2,0.8,0.2,0.2,0.2,0.8","0.8,0.2,0.2,0.2,0.8,0.2,0.2,0.2,0.8","1","",""
"","html-keyboard-response","145","88055","0.0-145.0","3R2PKQ87NXUJO05YRAGMTTWKSLXIMH","ALNPW5WIO0I","3JUDR1D0D6D4CARU3YX9Y3DK5DJ2QK","","null","<img src=""img/land1.png"" style=""width:200px; border:14px solid green;"">","null","","","","","","","","","",""
"","image-keyboard-response","146","88177","0.0-146.0","3R2PKQ87NXUJO05YRAGMTTWKSLXIMH","ALNPW5WIO0I","3JUDR1D0D6D4CARU3YX9Y3DK5DJ2QK","","120","img/land2.png","75","121","2","0","3","2","0.8,0.2,0.2,0.2,0.8,0.2,0.2,0.2,0.8","0.8,0.2,0.2,0.2,0.8,0.2,0.2,0.2,0.8","1","",""
"","html-keyboard-response","147","88479","0.0-147.0","3R2PKQ87NXUJO05YRAGMTTWKSLXIMH","ALNPW5WIO0I","3JUDR1D0D6D4CARU3YX9Y3DK5DJ2QK","","null","<img src=""img/land2.png"" style=""width:200px;border:14px solid red;"">","null","","","","","","","","","",""
"","image-keyboard-response","148","88636","0.0-148.0","3R2PKQ87NXUJO05YRAGMTTWKSLXIMH","ALNPW5WIO0I","3JUDR1D0D6D4CARU3YX9Y3DK5DJ2QK","","152","img/land6.png","76","155","3","0","1","2","0.8,0.2,0.2,0.2,0.8,0.2,0.2,0.2,0.8","0.8,0.2,0.2,0.2,0.8,0.2,0.2,0.2,0.8","1","",""
"","html-keyboard-response","149","88938","0.0-149.0","3R2PKQ87NXUJO05YRAGMTTWKSLXIMH","ALNPW5WIO0I","3JUDR1D0D6D4CARU3YX9Y3DK5DJ2QK","","null","<img src=""img/land6.png"" style=""width:200px;border:14px solid red;"">","null","","","","","","","","","",""
"","image-keyboard-response","150","89593","0.0-150.0","3R2PKQ87NXUJO05YRAGMTTWKSLXIMH","ALNPW5WIO0I","3JUDR1D0D6D4CARU3YX9Y3DK5DJ2QK","","652","img/land6.png","75","654","2","0","1","2","0.8,0.2,0.2,0.2,0.8,0.2,0.2,0.2,0.8","0.8,0.2,0.2,0.2,0.8,0.2,0.2,0.2,0.8","1","",""
"","html-keyboard-response","151","89894","0.0-151.0","3R2PKQ87NXUJO05YRAGMTTWKSLXIMH","ALNPW5WIO0I","3JUDR1D0D6D4CARU3YX9Y3DK5DJ2QK","","null","<img src=""img/land6.png"" style=""width:200px;border:14px solid red;"">","null","","","","","","","","","",""
"","image-keyboard-response","152","89947","0.0-152.0","3R2PKQ87NXUJO05YRAGMTTWKSLXIMH","ALNPW5WIO0I","3JUDR1D0D6D4CARU3YX9Y3DK5DJ2QK","","49","img/land6.png","75","51","2","0","1","2","0.8,0.2,0.2,0.2,0.8,0.2,0.2,0.2,0.8","0.8,0.2,0.2,0.2,0.8,0.2,0.2,0.2,0.8","1","",""
"","html-keyboard-response","153","90251","0.0-153.0","3R2PKQ87NXUJO05YRAGMTTWKSLXIMH","ALNPW5WIO0I","3JUDR1D0D6D4CARU3YX9Y3DK5DJ2QK","","null","<img src=""img/land6.png"" style=""width:200px;border:14px solid red;"">","null","","","","","","","","","",""
"","image-keyboard-response","154","90366","0.0-154.0","3R2PKQ87NXUJO05YRAGMTTWKSLXIMH","ALNPW5WIO0I","3JUDR1D0D6D4CARU3YX9Y3DK5DJ2QK","","112","img/land6.png","75","114","2","0","1","2","0.8,0.2,0.2,0.2,0.8,0.2,0.2,0.2,0.8","0.8,0.2,0.2,0.2,0.8,0.2,0.2,0.2,0.8","1","",""
"","html-keyboard-response","155","90668","0.0-155.0","3R2PKQ87NXUJO05YRAGMTTWKSLXIMH","ALNPW5WIO0I","3JUDR1D0D6D4CARU3YX9Y3DK5DJ2QK","","null","<img src=""img/land6.png"" style=""width:200px;border:14px solid red;"">","null","","","","","","","","","",""
"","image-keyboard-response","156","91017","0.0-156.0","3R2PKQ87NXUJO05YRAGMTTWKSLXIMH","ALNPW5WIO0I","3JUDR1D0D6D4CARU3YX9Y3DK5DJ2QK","","344","img/land1.png","75","348","2","1","2","2","0.8,0.2,0.2,0.2,0.8,0.2,0.2,0.2,0.8","0.8,0.2,0.2,0.2,0.8,0.2,0.2,0.2,0.8","1","",""
"","html-keyboard-response","157","91324","0.0-157.0","3R2PKQ87NXUJO05YRAGMTTWKSLXIMH","ALNPW5WIO0I","3JUDR1D0D6D4CARU3YX9Y3DK5DJ2QK","","null","<img src=""img/land1.png"" style=""width:200px; border:14px solid green;"">","null","","","","","","","","","",""
"","image-keyboard-response","158","91755","0.0-158.0","3R2PKQ87NXUJO05YRAGMTTWKSLXIMH","ALNPW5WIO0I","3JUDR1D0D6D4CARU3YX9Y3DK5DJ2QK","","429","img/land1.png","76","430","3","0","2","2","0.8,0.2,0.2,0.2,0.8,0.2,0.2,0.2,0.8","0.8,0.2,0.2,0.2,0.8,0.2,0.2,0.2,0.8","1","",""
"","html-keyboard-response","159","92058","0.0-159.0","3R2PKQ87NXUJO05YRAGMTTWKSLXIMH","ALNPW5WIO0I","3JUDR1D0D6D4CARU3YX9Y3DK5DJ2QK","","null","<img src=""img/land1.png"" style=""width:200px;border:14px solid red;"">","null","","","","","","","","","",""
"","image-keyboard-response","160","92065","0.0-160.0","3R2PKQ87NXUJO05YRAGMTTWKSLXIMH","ALNPW5WIO0I","3JUDR1D0D6D4CARU3YX9Y3DK5DJ2QK","","5","img/land6.png","76","6","3","0","1","2","0.8,0.2,0.2,0.2,0.8,0.2,0.2,0.2,0.8","0.8,0.2,0.2,0.2,0.8,0.2,0.2,0.2,0.8","1","",""
"","html-keyboard-response","161","92367","0.0-161.0","3R2PKQ87NXUJO05YRAGMTTWKSLXIMH","ALNPW5WIO0I","3JUDR1D0D6D4CARU3YX9Y3DK5DJ2QK","","null","<img src=""img/land6.png"" style=""width:200px;border:14px solid red;"">","null","","","","","","","","","",""
"","image-keyboard-response","162","92775","0.0-162.0","3R2PKQ87NXUJO05YRAGMTTWKSLXIMH","ALNPW5WIO0I","3JUDR1D0D6D4CARU3YX9Y3DK5DJ2QK","","407","img/land2.png","75","408","2","0","3","2","0.8,0.2,0.2,0.2,0.8,0.2,0.2,0.2,0.8","0.8,0.2,0.2,0.2,0.8,0.2,0.2,0.2,0.8","1","",""
"","html-keyboard-response","163","93076","0.0-163.0","3R2PKQ87NXUJO05YRAGMTTWKSLXIMH","ALNPW5WIO0I","3JUDR1D0D6D4CARU3YX9Y3DK5DJ2QK","","null","<img src=""img/land2.png"" style=""width:200px;border:14px solid red;"">","null","","","","","","","","","",""
"","image-keyboard-response","164","93176","0.0-164.0","3R2PKQ87NXUJO05YRAGMTTWKSLXIMH","ALNPW5WIO0I","3JUDR1D0D6D4CARU3YX9Y3DK5DJ2QK","","98","img/land1.png","76","99","3","0","2","2","0.8,0.2,0.2,0.2,0.8,0.2,0.2,0.2,0.8","0.8,0.2,0.2,0.2,0.8,0.2,0.2,0.2,0.8","1","",""
"","html-keyboard-response","165","93477","0.0-165.0","3R2PKQ87NXUJO05YRAGMTTWKSLXIMH","ALNPW5WIO0I","3JUDR1D0D6D4CARU3YX9Y3DK5DJ2QK","","null","<img src=""img/land1.png"" style=""width:200px;border:14px solid red;"">","null","","","","","","","","","",""
"","image-keyboard-response","166","93648","0.0-166.0","3R2PKQ87NXUJO05YRAGMTTWKSLXIMH","ALNPW5WIO0I","3JUDR1D0D6D4CARU3YX9Y3DK5DJ2QK","","170","img/land6.png","75","170","2","0","1","2","0.8,0.2,0.2,0.2,0.8,0.2,0.2,0.2,0.8","0.8,0.2,0.2,0.2,0.8,0.2,0.2,0.2,0.8","1","",""
"","html-keyboard-response","167","93949","0.0-167.0","3R2PKQ87NXUJO05YRAGMTTWKSLXIMH","ALNPW5WIO0I","3JUDR1D0D6D4CARU3YX9Y3DK5DJ2QK","","null","<img src=""img/land6.png"" style=""width:200px;border:14px solid red;"">","null","","","","","","","","","",""
"","image-keyboard-response","168","94818","0.0-168.0","3R2PKQ87NXUJO05YRAGMTTWKSLXIMH","ALNPW5WIO0I","3JUDR1D0D6D4CARU3YX9Y3DK5DJ2QK","","867","img/land2.png","75","868","2","0","3","2","0.8,0.2,0.2,0.2,0.8,0.2,0.2,0.2,0.8","0.8,0.2,0.2,0.2,0.8,0.2,0.2,0.2,0.8","1","",""
"","html-keyboard-response","169","95119","0.0-169.0","3R2PKQ87NXUJO05YRAGMTTWKSLXIMH","ALNPW5WIO0I","3JUDR1D0D6D4CARU3YX9Y3DK5DJ2QK","","null","<img src=""img/land2.png"" style=""width:200px;border:14px solid red;"">","null","","","","","","","","","",""
"","image-keyboard-response","170","95715","0.0-170.0","3R2PKQ87NXUJO05YRAGMTTWKSLXIMH","ALNPW5WIO0I","3JUDR1D0D6D4CARU3YX9Y3DK5DJ2QK","","594","img/land6.png","75","595","2","0","1","2","0.8,0.2,0.2,0.2,0.8,0.2,0.2,0.2,0.8","0.8,0.2,0.2,0.2,0.8,0.2,0.2,0.2,0.8","1","",""
"","html-keyboard-response","171","96016","0.0-171.0","3R2PKQ87NXUJO05YRAGMTTWKSLXIMH","ALNPW5WIO0I","3JUDR1D0D6D4CARU3YX9Y3DK5DJ2QK","","null","<img src=""img/land6.png"" style=""width:200px;border:14px solid red;"">","null","","","","","","","","","",""
"","image-keyboard-response","172","96166","0.0-172.0","3R2PKQ87NXUJO05YRAGMTTWKSLXIMH","ALNPW5WIO0I","3JUDR1D0D6D4CARU3YX9Y3DK5DJ2QK","","148","img/land2.png","74","149","1","0","3","2","0.8,0.2,0.2,0.2,0.8,0.2,0.2,0.2,0.8","0.8,0.2,0.2,0.2,0.8,0.2,0.2,0.2,0.8","1","",""
"","html-keyboard-response","173","96468","0.0-173.0","3R2PKQ87NXUJO05YRAGMTTWKSLXIMH","ALNPW5WIO0I","3JUDR1D0D6D4CARU3YX9Y3DK5DJ2QK","","null","<img src=""img/land2.png"" style=""width:200px;border:14px solid red;"">","null","","","","","","","","","",""
"","image-keyboard-response","174","96655","0.0-174.0","3R2PKQ87NXUJO05YRAGMTTWKSLXIMH","ALNPW5WIO0I","3JUDR1D0D6D4CARU3YX9Y3DK5DJ2QK","","184","img/land6.png","75","185","2","1","1","2","0.8,0.2,0.2,0.2,0.8,0.2,0.2,0.2,0.8","0.8,0.2,0.2,0.2,0.8,0.2,0.2,0.2,0.8","1","",""
"","html-keyboard-response","175","96959","0.0-175.0","3R2PKQ87NXUJO05YRAGMTTWKSLXIMH","ALNPW5WIO0I","3JUDR1D0D6D4CARU3YX9Y3DK5DJ2QK","","null","<img src=""img/land6.png"" style=""width:200px; border:14px solid green;"">","null","","","","","","","","","",""
"","image-keyboard-response","176","97155","0.0-176.0","3R2PKQ87NXUJO05YRAGMTTWKSLXIMH","ALNPW5WIO0I","3JUDR1D0D6D4CARU3YX9Y3DK5DJ2QK","","191","img/land1.png","75","194","2","1","2","2","0.8,0.2,0.2,0.2,0.8,0.2,0.2,0.2,0.8","0.8,0.2,0.2,0.2,0.8,0.2,0.2,0.2,0.8","1","",""
"","html-keyboard-response","177","97457","0.0-177.0","3R2PKQ87NXUJO05YRAGMTTWKSLXIMH","ALNPW5WIO0I","3JUDR1D0D6D4CARU3YX9Y3DK5DJ2QK","","null","<img src=""img/land1.png"" style=""width:200px; border:14px solid green;"">","null","","","","","","","","","",""
"","image-keyboard-response","178","97959","0.0-178.0","3R2PKQ87NXUJO05YRAGMTTWKSLXIMH","ALNPW5WIO0I","3JUDR1D0D6D4CARU3YX9Y3DK5DJ2QK","","500","img/land6.png","75","502","2","0","1","2","0.8,0.2,0.2,0.2,0.8,0.2,0.2,0.2,0.8","0.8,0.2,0.2,0.2,0.8,0.2,0.2,0.2,0.8","1","",""
"","html-keyboard-response","179","98261","0.0-179.0","3R2PKQ87NXUJO05YRAGMTTWKSLXIMH","ALNPW5WIO0I","3JUDR1D0D6D4CARU3YX9Y3DK5DJ2QK","","null","<img src=""img/land6.png"" style=""width:200px;border:14px solid red;"">","null","","","","","","","","","",""
"","image-keyboard-response","180","98934","0.0-180.0","3R2PKQ87NXUJO05YRAGMTTWKSLXIMH","ALNPW5WIO0I","3JUDR1D0D6D4CARU3YX9Y3DK5DJ2QK","","668","img/land6.png","75","671","2","1","1","2","0.8,0.2,0.2,0.2,0.8,0.2,0.2,0.2,0.8","0.8,0.2,0.2,0.2,0.8,0.2,0.2,0.2,0.8","1","",""
"","html-keyboard-response","181","99235","0.0-181.0","3R2PKQ87NXUJO05YRAGMTTWKSLXIMH","ALNPW5WIO0I","3JUDR1D0D6D4CARU3YX9Y3DK5DJ2QK","","null","<img src=""img/land6.png"" style=""width:200px; border:14px solid green;"">","null","","","","","","","","","",""
"","image-keyboard-response","182","99566","0.0-182.0","3R2PKQ87NXUJO05YRAGMTTWKSLXIMH","ALNPW5WIO0I","3JUDR1D0D6D4CARU3YX9Y3DK5DJ2QK","","327","img/land6.png","76","330","3","1","1","2","0.8,0.2,0.2,0.2,0.8,0.2,0.2,0.2,0.8","0.8,0.2,0.2,0.2,0.8,0.2,0.2,0.2,0.8","1","",""
"","html-keyboard-response","183","99869","0.0-183.0","3R2PKQ87NXUJO05YRAGMTTWKSLXIMH","ALNPW5WIO0I","3JUDR1D0D6D4CARU3YX9Y3DK5DJ2QK","","null","<img src=""img/land6.png"" style=""width:200px; border:14px solid green;"">","null","","","","","","","","","",""
"","image-keyboard-response","184","100037","0.0-184.0","3R2PKQ87NXUJO05YRAGMTTWKSLXIMH","ALNPW5WIO0I","3JUDR1D0D6D4CARU3YX9Y3DK5DJ2QK","","164","img/land1.png","75","167","2","1","2","2","0.8,0.2,0.2,0.2,0.8,0.2,0.2,0.2,0.8","0.8,0.2,0.2,0.2,0.8,0.2,0.2,0.2,0.8","1","",""
"","html-keyboard-response","185","100338","0.0-185.0","3R2PKQ87NXUJO05YRAGMTTWKSLXIMH","ALNPW5WIO0I","3JUDR1D0D6D4CARU3YX9Y3DK5DJ2QK","","null","<img src=""img/land1.png"" style=""width:200px; border:14px solid green;"">","null","","","","","","","","","",""
"","image-keyboard-response","186","100546","0.0-186.0","3R2PKQ87NXUJO05YRAGMTTWKSLXIMH","ALNPW5WIO0I","3JUDR1D0D6D4CARU3YX9Y3DK5DJ2QK","","203","img/land1.png","75","206","2","1","2","2","0.8,0.2,0.2,0.2,0.8,0.2,0.2,0.2,0.8","0.8,0.2,0.2,0.2,0.8,0.2,0.2,0.2,0.8","1","",""
"","html-keyboard-response","187","100848","0.0-187.0","3R2PKQ87NXUJO05YRAGMTTWKSLXIMH","ALNPW5WIO0I","3JUDR1D0D6D4CARU3YX9Y3DK5DJ2QK","","null","<img src=""img/land1.png"" style=""width:200px; border:14px solid green;"">","null","","","","","","","","","",""
"","image-keyboard-response","188","101083","0.0-188.0","3R2PKQ87NXUJO05YRAGMTTWKSLXIMH","ALNPW5WIO0I","3JUDR1D0D6D4CARU3YX9Y3DK5DJ2QK","","233","img/land6.png","75","234","2","1","1","2","0.8,0.2,0.2,0.2,0.8,0.2,0.2,0.2,0.8","0.8,0.2,0.2,0.2,0.8,0.2,0.2,0.2,0.8","1","",""
"","html-keyboard-response","189","101386","0.0-189.0","3R2PKQ87NXUJO05YRAGMTTWKSLXIMH","ALNPW5WIO0I","3JUDR1D0D6D4CARU3YX9Y3DK5DJ2QK","","null","<img src=""img/land6.png"" style=""width:200px; border:14px solid green;"">","null","","","","","","","","","",""
"","image-keyboard-response","190","101781","0.0-190.0","3R2PKQ87NXUJO05YRAGMTTWKSLXIMH","ALNPW5WIO0I","3JUDR1D0D6D4CARU3YX9Y3DK5DJ2QK","","392","img/land6.png","75","393","2","0","1","2","0.8,0.2,0.2,0.2,0.8,0.2,0.2,0.2,0.8","0.8,0.2,0.2,0.2,0.8,0.2,0.2,0.2,0.8","1","",""
"","html-keyboard-response","191","102084","0.0-191.0","3R2PKQ87NXUJO05YRAGMTTWKSLXIMH","ALNPW5WIO0I","3JUDR1D0D6D4CARU3YX9Y3DK5DJ2QK","","null","<img src=""img/land6.png"" style=""width:200px;border:14px solid red;"">","null","","","","","","","","","",""
"","image-keyboard-response","192","102086","0.0-192.0","3R2PKQ87NXUJO05YRAGMTTWKSLXIMH","ALNPW5WIO0I","3JUDR1D0D6D4CARU3YX9Y3DK5DJ2QK","","0","img/land6.png","74","1","1","1","1","2","0.8,0.2,0.2,0.2,0.8,0.2,0.2,0.2,0.8","0.8,0.2,0.2,0.2,0.8,0.2,0.2,0.2,0.8","1","",""
"","html-keyboard-response","193","102389","0.0-193.0","3R2PKQ87NXUJO05YRAGMTTWKSLXIMH","ALNPW5WIO0I","3JUDR1D0D6D4CARU3YX9Y3DK5DJ2QK","","null","<img src=""img/land6.png"" style=""width:200px; border:14px solid green;"">","null","","","","","","","","","",""
"","image-keyboard-response","194","102403","0.0-194.0","3R2PKQ87NXUJO05YRAGMTTWKSLXIMH","ALNPW5WIO0I","3JUDR1D0D6D4CARU3YX9Y3DK5DJ2QK","","13","img/land6.png","76","13","3","0","1","2","0.8,0.2,0.2,0.2,0.8,0.2,0.2,0.2,0.8","0.8,0.2,0.2,0.2,0.8,0.2,0.2,0.2,0.8","1","",""
"","html-keyboard-response","195","102704","0.0-195.0","3R2PKQ87NXUJO05YRAGMTTWKSLXIMH","ALNPW5WIO0I","3JUDR1D0D6D4CARU3YX9Y3DK5DJ2QK","","null","<img src=""img/land6.png"" style=""width:200px;border:14px solid red;"">","null","","","","","","","","","",""
"","image-keyboard-response","196","103186","0.0-196.0","3R2PKQ87NXUJO05YRAGMTTWKSLXIMH","ALNPW5WIO0I","3JUDR1D0D6D4CARU3YX9Y3DK5DJ2QK","","480","img/land6.png","76","481","3","0","1","2","0.8,0.2,0.2,0.2,0.8,0.2,0.2,0.2,0.8","0.8,0.2,0.2,0.2,0.8,0.2,0.2,0.2,0.8","1","",""
"","html-keyboard-response","197","103489","0.0-197.0","3R2PKQ87NXUJO05YRAGMTTWKSLXIMH","ALNPW5WIO0I","3JUDR1D0D6D4CARU3YX9Y3DK5DJ2QK","","null","<img src=""img/land6.png"" style=""width:200px;border:14px solid red;"">","null","","","","","","","","","",""
"","image-keyboard-response","198","104337","0.0-198.0","3R2PKQ87NXUJO05YRAGMTTWKSLXIMH","ALNPW5WIO0I","3JUDR1D0D6D4CARU3YX9Y3DK5DJ2QK","","845","img/land6.png","75","847","2","0","1","2","0.8,0.2,0.2,0.2,0.8,0.2,0.2,0.2,0.8","0.8,0.2,0.2,0.2,0.8,0.2,0.2,0.2,0.8","1","",""
"","html-keyboard-response","199","104639","0.0-199.0","3R2PKQ87NXUJO05YRAGMTTWKSLXIMH","ALNPW5WIO0I","3JUDR1D0D6D4CARU3YX9Y3DK5DJ2QK","","null","<img src=""img/land6.png"" style=""width:200px;border:14px solid red;"">","null","","","","","","","","","",""
"","image-keyboard-response","200","104743","0.0-200.0","3R2PKQ87NXUJO05YRAGMTTWKSLXIMH","ALNPW5WIO0I","3JUDR1D0D6D4CARU3YX9Y3DK5DJ2QK","","101","img/land6.png","74","104","1","1","1","2","0.8,0.2,0.2,0.2,0.8,0.2,0.2,0.2,0.8","0.8,0.2,0.2,0.2,0.8,0.2,0.2,0.2,0.8","1","",""
"","html-keyboard-response","201","105045","0.0-201.0","3R2PKQ87NXUJO05YRAGMTTWKSLXIMH","ALNPW5WIO0I","3JUDR1D0D6D4CARU3YX9Y3DK5DJ2QK","","null","<img src=""img/land6.png"" style=""width:200px; border:14px solid green;"">","null","","","","","","","","","",""
"","image-keyboard-response","202","105565","0.0-202.0","3R2PKQ87NXUJO05YRAGMTTWKSLXIMH","ALNPW5WIO0I","3JUDR1D0D6D4CARU3YX9Y3DK5DJ2QK","","517","img/land2.png","74","519","1","0","3","2","0.8,0.2,0.2,0.2,0.8,0.2,0.2,0.2,0.8","0.8,0.2,0.2,0.2,0.8,0.2,0.2,0.2,0.8","1","",""
"","html-keyboard-response","203","105868","0.0-203.0","3R2PKQ87NXUJO05YRAGMTTWKSLXIMH","ALNPW5WIO0I","3JUDR1D0D6D4CARU3YX9Y3DK5DJ2QK","","null","<img src=""img/land2.png"" style=""width:200px;border:14px solid red;"">","null","","","","","","","","","",""
"","image-keyboard-response","204","105998","0.0-204.0","3R2PKQ87NXUJO05YRAGMTTWKSLXIMH","ALNPW5WIO0I","3JUDR1D0D6D4CARU3YX9Y3DK5DJ2QK","","128","img/land6.png","76","130","3","1","1","2","0.8,0.2,0.2,0.2,0.8,0.2,0.2,0.2,0.8","0.8,0.2,0.2,0.2,0.8,0.2,0.2,0.2,0.8","1","",""
"","html-keyboard-response","205","106300","0.0-205.0","3R2PKQ87NXUJO05YRAGMTTWKSLXIMH","ALNPW5WIO0I","3JUDR1D0D6D4CARU3YX9Y3DK5DJ2QK","","null","<img src=""img/land6.png"" style=""width:200px; border:14px solid green;"">","null","","","","","","","","","",""
"","image-keyboard-response","206","106512","0.0-206.0","3R2PKQ87NXUJO05YRAGMTTWKSLXIMH","ALNPW5WIO0I","3JUDR1D0D6D4CARU3YX9Y3DK5DJ2QK","","210","img/land1.png","76","211","3","0","2","2","0.8,0.2,0.2,0.2,0.8,0.2,0.2,0.2,0.8","0.8,0.2,0.2,0.2,0.8,0.2,0.2,0.2,0.8","1","",""
"","html-keyboard-response","207","106814","0.0-207.0","3R2PKQ87NXUJO05YRAGMTTWKSLXIMH","ALNPW5WIO0I","3JUDR1D0D6D4CARU3YX9Y3DK5DJ2QK","","null","<img src=""img/land1.png"" style=""width:200px;border:14px solid red;"">","null","","","","","","","","","",""
"","image-keyboard-response","208","107445","0.0-208.0","3R2PKQ87NXUJO05YRAGMTTWKSLXIMH","ALNPW5WIO0I","3JUDR1D0D6D4CARU3YX9Y3DK5DJ2QK","","629","img/land6.png","76","630","3","1","1","2","0.8,0.2,0.2,0.2,0.8,0.2,0.2,0.2,0.8","0.8,0.2,0.2,0.2,0.8,0.2,0.2,0.2,0.8","1","",""
"","html-keyboard-response","209","107747","0.0-209.0","3R2PKQ87NXUJO05YRAGMTTWKSLXIMH","ALNPW5WIO0I","3JUDR1D0D6D4CARU3YX9Y3DK5DJ2QK","","null","<img src=""img/land6.png"" style=""width:200px; border:14px solid green;"">","null","","","","","","","","","",""
"","image-keyboard-response","210","107772","0.0-210.0","3R2PKQ87NXUJO05YRAGMTTWKSLXIMH","ALNPW5WIO0I","3JUDR1D0D6D4CARU3YX9Y3DK5DJ2QK","","21","img/land6.png","75","23","2","0","1","2","0.8,0.2,0.2,0.2,0.8,0.2,0.2,0.2,0.8","0.8,0.2,0.2,0.2,0.8,0.2,0.2,0.2,0.8","1","",""
"","html-keyboard-response","211","108075","0.0-211.0","3R2PKQ87NXUJO05YRAGMTTWKSLXIMH","ALNPW5WIO0I","3JUDR1D0D6D4CARU3YX9Y3DK5DJ2QK","","null","<img src=""img/land6.png"" style=""width:200px;border:14px solid red;"">","null","","","","","","","","","",""
"","image-keyboard-response","212","108612","0.0-212.0","3R2PKQ87NXUJO05YRAGMTTWKSLXIMH","ALNPW5WIO0I","3JUDR1D0D6D4CARU3YX9Y3DK5DJ2QK","","535","img/land1.png","75","536","2","1","2","2","0.8,0.2,0.2,0.2,0.8,0.2,0.2,0.2,0.8","0.8,0.2,0.2,0.2,0.8,0.2,0.2,0.2,0.8","1","",""
"","html-keyboard-response","213","108923","0.0-213.0","3R2PKQ87NXUJO05YRAGMTTWKSLXIMH","ALNPW5WIO0I","3JUDR1D0D6D4CARU3YX9Y3DK5DJ2QK","","null","<img src=""img/land1.png"" style=""width:200px; border:14px solid green;"">","null","","","","","","","","","",""
"","image-keyboard-response","214","109145","0.0-214.0","3R2PKQ87NXUJO05YRAGMTTWKSLXIMH","ALNPW5WIO0I","3JUDR1D0D6D4CARU3YX9Y3DK5DJ2QK","","219","img/land1.png","74","221","1","0","2","2","0.8,0.2,0.2,0.2,0.8,0.2,0.2,0.2,0.8","0.8,0.2,0.2,0.2,0.8,0.2,0.2,0.2,0.8","1","",""
"","html-keyboard-response","215","109446","0.0-215.0","3R2PKQ87NXUJO05YRAGMTTWKSLXIMH","ALNPW5WIO0I","3JUDR1D0D6D4CARU3YX9Y3DK5DJ2QK","","null","<img src=""img/land1.png"" style=""width:200px;border:14px solid red;"">","null","","","","","","","","","",""
"","image-keyboard-response","216","109840","0.0-216.0","3R2PKQ87NXUJO05YRAGMTTWKSLXIMH","ALNPW5WIO0I","3JUDR1D0D6D4CARU3YX9Y3DK5DJ2QK","","390","img/land6.png","74","392","1","1","1","2","0.8,0.2,0.2,0.2,0.8,0.2,0.2,0.2,0.8","0.8,0.2,0.2,0.2,0.8,0.2,0.2,0.2,0.8","1","",""
"","html-keyboard-response","217","110143","0.0-217.0","3R2PKQ87NXUJO05YRAGMTTWKSLXIMH","ALNPW5WIO0I","3JUDR1D0D6D4CARU3YX9Y3DK5DJ2QK","","null","<img src=""img/land6.png"" style=""width:200px; border:14px solid green;"">","null","","","","","","","","","",""
"","image-keyboard-response","218","110278","0.0-218.0","3R2PKQ87NXUJO05YRAGMTTWKSLXIMH","ALNPW5WIO0I","3JUDR1D0D6D4CARU3YX9Y3DK5DJ2QK","","131","img/land2.png","74","134","1","0","3","2","0.8,0.2,0.2,0.2,0.8,0.2,0.2,0.2,0.8","0.8,0.2,0.2,0.2,0.8,0.2,0.2,0.2,0.8","1","",""
"","html-keyboard-response","219","110580","0.0-219.0","3R2PKQ87NXUJO05YRAGMTTWKSLXIMH","ALNPW5WIO0I","3JUDR1D0D6D4CARU3YX9Y3DK5DJ2QK","","null","<img src=""img/land2.png"" style=""width:200px;border:14px solid red;"">","null","","","","","","","","","",""
"","image-keyboard-response","220","110746","0.0-220.0","3R2PKQ87NXUJO05YRAGMTTWKSLXIMH","ALNPW5WIO0I","3JUDR1D0D6D4CARU3YX9Y3DK5DJ2QK","","162","img/land6.png","74","164","1","1","1","2","0.8,0.2,0.2,0.2,0.8,0.2,0.2,0.2,0.8","0.8,0.2,0.2,0.2,0.8,0.2,0.2,0.2,0.8","1","",""
"","html-keyboard-response","221","111048","0.0-221.0","3R2PKQ87NXUJO05YRAGMTTWKSLXIMH","ALNPW5WIO0I","3JUDR1D0D6D4CARU3YX9Y3DK5DJ2QK","","null","<img src=""img/land6.png"" style=""width:200px; border:14px solid green;"">","null","","","","","","","","","",""
"","image-keyboard-response","222","111436","0.0-222.0","3R2PKQ87NXUJO05YRAGMTTWKSLXIMH","ALNPW5WIO0I","3JUDR1D0D6D4CARU3YX9Y3DK5DJ2QK","","385","img/land6.png","75","387","2","0","1","2","0.8,0.2,0.2,0.2,0.8,0.2,0.2,0.2,0.8","0.8,0.2,0.2,0.2,0.8,0.2,0.2,0.2,0.8","1","",""
"","html-keyboard-response","223","111738","0.0-223.0","3R2PKQ87NXUJO05YRAGMTTWKSLXIMH","ALNPW5WIO0I","3JUDR1D0D6D4CARU3YX9Y3DK5DJ2QK","","null","<img src=""img/land6.png"" style=""width:200px;border:14px solid red;"">","null","","","","","","","","","",""
"","image-keyboard-response","224","112330","0.0-224.0","3R2PKQ87NXUJO05YRAGMTTWKSLXIMH","ALNPW5WIO0I","3JUDR1D0D6D4CARU3YX9Y3DK5DJ2QK","","589","img/land6.png","75","591","2","0","1","2","0.8,0.2,0.2,0.2,0.8,0.2,0.2,0.2,0.8","0.8,0.2,0.2,0.2,0.8,0.2,0.2,0.2,0.8","1","",""
"","html-keyboard-response","225","112636","0.0-225.0","3R2PKQ87NXUJO05YRAGMTTWKSLXIMH","ALNPW5WIO0I","3JUDR1D0D6D4CARU3YX9Y3DK5DJ2QK","","null","<img src=""img/land6.png"" style=""width:200px;border:14px solid red;"">","null","","","","","","","","","",""
"","image-keyboard-response","226","112915","0.0-226.0","3R2PKQ87NXUJO05YRAGMTTWKSLXIMH","ALNPW5WIO0I","3JUDR1D0D6D4CARU3YX9Y3DK5DJ2QK","","277","img/land6.png","76","280","3","0","1","2","0.8,0.2,0.2,0.2,0.8,0.2,0.2,0.2,0.8","0.8,0.2,0.2,0.2,0.8,0.2,0.2,0.2,0.8","1","",""
"","html-keyboard-response","227","113217","0.0-227.0","3R2PKQ87NXUJO05YRAGMTTWKSLXIMH","ALNPW5WIO0I","3JUDR1D0D6D4CARU3YX9Y3DK5DJ2QK","","null","<img src=""img/land6.png"" style=""width:200px;border:14px solid red;"">","null","","","","","","","","","",""
"","image-keyboard-response","228","113326","0.0-228.0","3R2PKQ87NXUJO05YRAGMTTWKSLXIMH","ALNPW5WIO0I","3JUDR1D0D6D4CARU3YX9Y3DK5DJ2QK","","106","img/land6.png","76","108","3","0","1","2","0.8,0.2,0.2,0.2,0.8,0.2,0.2,0.2,0.8","0.8,0.2,0.2,0.2,0.8,0.2,0.2,0.2,0.8","1","",""
"","html-keyboard-response","229","113629","0.0-229.0","3R2PKQ87NXUJO05YRAGMTTWKSLXIMH","ALNPW5WIO0I","3JUDR1D0D6D4CARU3YX9Y3DK5DJ2QK","","null","<img src=""img/land6.png"" style=""width:200px;border:14px solid red;"">","null","","","","","","","","","",""
"","image-keyboard-response","230","113746","0.0-230.0","3R2PKQ87NXUJO05YRAGMTTWKSLXIMH","ALNPW5WIO0I","3JUDR1D0D6D4CARU3YX9Y3DK5DJ2QK","","115","img/land6.png","75","117","2","0","1","2","0.8,0.2,0.2,0.2,0.8,0.2,0.2,0.2,0.8","0.8,0.2,0.2,0.2,0.8,0.2,0.2,0.2,0.8","1","",""
"","html-keyboard-response","231","114051","0.0-231.0","3R2PKQ87NXUJO05YRAGMTTWKSLXIMH","ALNPW5WIO0I","3JUDR1D0D6D4CARU3YX9Y3DK5DJ2QK","","null","<img src=""img/land6.png"" style=""width:200px;border:14px solid red;"">","null","","","","","","","","","",""
"","image-keyboard-response","232","114804","0.0-232.0","3R2PKQ87NXUJO05YRAGMTTWKSLXIMH","ALNPW5WIO0I","3JUDR1D0D6D4CARU3YX9Y3DK5DJ2QK","","751","img/land6.png","75","754","2","0","1","2","0.8,0.2,0.2,0.2,0.8,0.2,0.2,0.2,0.8","0.8,0.2,0.2,0.2,0.8,0.2,0.2,0.2,0.8","1","",""
"","html-keyboard-response","233","115107","0.0-233.0","3R2PKQ87NXUJO05YRAGMTTWKSLXIMH","ALNPW5WIO0I","3JUDR1D0D6D4CARU3YX9Y3DK5DJ2QK","","null","<img src=""img/land6.png"" style=""width:200px;border:14px solid red;"">","null","","","","","","","","","",""
"","image-keyboard-response","234","115124","0.0-234.0","3R2PKQ87NXUJO05YRAGMTTWKSLXIMH","ALNPW5WIO0I","3JUDR1D0D6D4CARU3YX9Y3DK5DJ2QK","","15","img/land6.png","74","16","1","1","1","2","0.8,0.2,0.2,0.2,0.8,0.2,0.2,0.2,0.8","0.8,0.2,0.2,0.2,0.8,0.2,0.2,0.2,0.8","1","",""
"","html-keyboard-response","235","115427","0.0-235.0","3R2PKQ87NXUJO05YRAGMTTWKSLXIMH","ALNPW5WIO0I","3JUDR1D0D6D4CARU3YX9Y3DK5DJ2QK","","null","<img src=""img/land6.png"" style=""width:200px; border:14px solid green;"">","null","","","","","","","","","",""
"","image-keyboard-response","236","116237","0.0-236.0","3R2PKQ87NXUJO05YRAGMTTWKSLXIMH","ALNPW5WIO0I","3JUDR1D0D6D4CARU3YX9Y3DK5DJ2QK","","808","img/land6.png","74","810","1","1","1","2","0.8,0.2,0.2,0.2,0.8,0.2,0.2,0.2,0.8","0.8,0.2,0.2,0.2,0.8,0.2,0.2,0.2,0.8","1","",""
"","html-keyboard-response","237","116539","0.0-237.0","3R2PKQ87NXUJO05YRAGMTTWKSLXIMH","ALNPW5WIO0I","3JUDR1D0D6D4CARU3YX9Y3DK5DJ2QK","","null","<img src=""img/land6.png"" style=""width:200px; border:14px solid green;"">","null","","","","","","","","","",""
"","image-keyboard-response","238","116796","0.0-238.0","3R2PKQ87NXUJO05YRAGMTTWKSLXIMH","ALNPW5WIO0I","3JUDR1D0D6D4CARU3YX9Y3DK5DJ2QK","","254","img/land6.png","74","255","1","1","1","2","0.8,0.2,0.2,0.2,0.8,0.2,0.2,0.2,0.8","0.8,0.2,0.2,0.2,0.8,0.2,0.2,0.2,0.8","1","",""
"","html-keyboard-response","239","117098","0.0-239.0","3R2PKQ87NXUJO05YRAGMTTWKSLXIMH","ALNPW5WIO0I","3JUDR1D0D6D4CARU3YX9Y3DK5DJ2QK","","null","<img src=""img/land6.png"" style=""width:200px; border:14px solid green;"">","null","","","","","","","","","",""
"","image-keyboard-response","240","117968","0.0-240.0","3R2PKQ87NXUJO05YRAGMTTWKSLXIMH","ALNPW5WIO0I","3JUDR1D0D6D4CARU3YX9Y3DK5DJ2QK","","866","img/land6.png","75","869","2","1","1","2","0.8,0.2,0.2,0.2,0.8,0.2,0.2,0.2,0.8","0.8,0.2,0.2,0.2,0.8,0.2,0.2,0.2,0.8","1","",""
"","html-keyboard-response","241","118271","0.0-241.0","3R2PKQ87NXUJO05YRAGMTTWKSLXIMH","ALNPW5WIO0I","3JUDR1D0D6D4CARU3YX9Y3DK5DJ2QK","","null","<img src=""img/land6.png"" style=""width:200px; border:14px solid green;"">","null","","","","","","","","","",""
"","image-keyboard-response","242","118355","0.0-242.0","3R2PKQ87NXUJO05YRAGMTTWKSLXIMH","ALNPW5WIO0I","3JUDR1D0D6D4CARU3YX9Y3DK5DJ2QK","","81","img/land6.png","75","83","2","0","1","2","0.8,0.2,0.2,0.2,0.8,0.2,0.2,0.2,0.8","0.8,0.2,0.2,0.2,0.8,0.2,0.2,0.2,0.8","1","",""
"","html-keyboard-response","243","118659","0.0-243.0","3R2PKQ87NXUJO05YRAGMTTWKSLXIMH","ALNPW5WIO0I","3JUDR1D0D6D4CARU3YX9Y3DK5DJ2QK","","null","<img src=""img/land6.png"" style=""width:200px;border:14px solid red;"">","null","","","","","","","","","",""
"","image-keyboard-response","244","119321","0.0-244.0","3R2PKQ87NXUJO05YRAGMTTWKSLXIMH","ALNPW5WIO0I","3JUDR1D0D6D4CARU3YX9Y3DK5DJ2QK","","656","img/land6.png","75","660","2","0","1","2","0.8,0.2,0.2,0.2,0.8,0.2,0.2,0.2,0.8","0.8,0.2,0.2,0.2,0.8,0.2,0.2,0.2,0.8","1","",""
"","html-keyboard-response","245","119624","0.0-245.0","3R2PKQ87NXUJO05YRAGMTTWKSLXIMH","ALNPW5WIO0I","3JUDR1D0D6D4CARU3YX9Y3DK5DJ2QK","","null","<img src=""img/land6.png"" style=""width:200px;border:14px solid red;"">","null","","","","","","","","","",""
"","image-keyboard-response","246","119778","0.0-246.0","3R2PKQ87NXUJO05YRAGMTTWKSLXIMH","ALNPW5WIO0I","3JUDR1D0D6D4CARU3YX9Y3DK5DJ2QK","","152","img/land1.png","75","154","2","0","2","2","0.8,0.2,0.2,0.2,0.8,0.2,0.2,0.2,0.8","0.8,0.2,0.2,0.2,0.8,0.2,0.2,0.2,0.8","1","",""
"","html-keyboard-response","247","120080","0.0-247.0","3R2PKQ87NXUJO05YRAGMTTWKSLXIMH","ALNPW5WIO0I","3JUDR1D0D6D4CARU3YX9Y3DK5DJ2QK","","null","<img src=""img/land1.png"" style=""width:200px;border:14px solid red;"">","null","","","","","","","","","",""
"","image-keyboard-response","248","120137","0.0-248.0","3R2PKQ87NXUJO05YRAGMTTWKSLXIMH","ALNPW5WIO0I","3JUDR1D0D6D4CARU3YX9Y3DK5DJ2QK","","54","img/land1.png","75","56","2","1","2","2","0.8,0.2,0.2,0.2,0.8,0.2,0.2,0.2,0.8","0.8,0.2,0.2,0.2,0.8,0.2,0.2,0.2,0.8","1","",""
"","html-keyboard-response","249","120444","0.0-249.0","3R2PKQ87NXUJO05YRAGMTTWKSLXIMH","ALNPW5WIO0I","3JUDR1D0D6D4CARU3YX9Y3DK5DJ2QK","","null","<img src=""img/land1.png"" style=""width:200px; border:14px solid green;"">","null","","","","","","","","","",""
"","image-keyboard-response","250","120603","0.0-250.0","3R2PKQ87NXUJO05YRAGMTTWKSLXIMH","ALNPW5WIO0I","3JUDR1D0D6D4CARU3YX9Y3DK5DJ2QK","","157","img/land6.png","76","158","3","0","1","2","0.8,0.2,0.2,0.2,0.8,0.2,0.2,0.2,0.8","0.8,0.2,0.2,0.2,0.8,0.2,0.2,0.2,0.8","1","",""
"","html-keyboard-response","251","120905","0.0-251.0","3R2PKQ87NXUJO05YRAGMTTWKSLXIMH","ALNPW5WIO0I","3JUDR1D0D6D4CARU3YX9Y3DK5DJ2QK","","null","<img src=""img/land6.png"" style=""width:200px;border:14px solid red;"">","null","","","","","","","","","",""
"","image-keyboard-response","252","121036","0.0-252.0","3R2PKQ87NXUJO05YRAGMTTWKSLXIMH","ALNPW5WIO0I","3JUDR1D0D6D4CARU3YX9Y3DK5DJ2QK","","128","img/land2.png","76","129","3","1","3","2","0.8,0.2,0.2,0.2,0.8,0.2,0.2,0.2,0.8","0.8,0.2,0.2,0.2,0.8,0.2,0.2,0.2,0.8","1","",""
"","html-keyboard-response","253","121338","0.0-253.0","3R2PKQ87NXUJO05YRAGMTTWKSLXIMH","ALNPW5WIO0I","3JUDR1D0D6D4CARU3YX9Y3DK5DJ2QK","","null","<img src=""img/land2.png"" style=""width:200px; border:14px solid green;"">","null","","","","","","","","","",""
"","image-keyboard-response","254","121518","0.0-254.0","3R2PKQ87NXUJO05YRAGMTTWKSLXIMH","ALNPW5WIO0I","3JUDR1D0D6D4CARU3YX9Y3DK5DJ2QK","","174","img/land1.png","76","178","3","0","2","2","0.8,0.2,0.2,0.2,0.8,0.2,0.2,0.2,0.8","0.8,0.2,0.2,0.2,0.8,0.2,0.2,0.2,0.8","1","",""
"","html-keyboard-response","255","121819","0.0-255.0","3R2PKQ87NXUJO05YRAGMTTWKSLXIMH","ALNPW5WIO0I","3JUDR1D0D6D4CARU3YX9Y3DK5DJ2QK","","null","<img src=""img/land1.png"" style=""width:200px;border:14px solid red;"">","null","","","","","","","","","",""
"","image-keyboard-response","256","121939","0.0-256.0","3R2PKQ87NXUJO05YRAGMTTWKSLXIMH","ALNPW5WIO0I","3JUDR1D0D6D4CARU3YX9Y3DK5DJ2QK","","117","img/land2.png","76","119","3","1","3","2","0.8,0.2,0.2,0.2,0.8,0.2,0.2,0.2,0.8","0.8,0.2,0.2,0.2,0.8,0.2,0.2,0.2,0.8","1","",""
"","html-keyboard-response","257","122246","0.0-257.0","3R2PKQ87NXUJO05YRAGMTTWKSLXIMH","ALNPW5WIO0I","3JUDR1D0D6D4CARU3YX9Y3DK5DJ2QK","","null","<img src=""img/land2.png"" style=""width:200px; border:14px solid green;"">","null","","","","","","","","","",""
"","image-keyboard-response","258","122342","0.0-258.0","3R2PKQ87NXUJO05YRAGMTTWKSLXIMH","ALNPW5WIO0I","3JUDR1D0D6D4CARU3YX9Y3DK5DJ2QK","","92","img/land2.png","76","94","3","0","3","2","0.8,0.2,0.2,0.2,0.8,0.2,0.2,0.2,0.8","0.8,0.2,0.2,0.2,0.8,0.2,0.2,0.2,0.8","1","",""
"","html-keyboard-response","259","122644","0.0-259.0","3R2PKQ87NXUJO05YRAGMTTWKSLXIMH","ALNPW5WIO0I","3JUDR1D0D6D4CARU3YX9Y3DK5DJ2QK","","null","<img src=""img/land2.png"" style=""width:200px;border:14px solid red;"">","null","","","","","","","","","",""
"","image-keyboard-response","260","122844","0.0-260.0","3R2PKQ87NXUJO05YRAGMTTWKSLXIMH","ALNPW5WIO0I","3JUDR1D0D6D4CARU3YX9Y3DK5DJ2QK","","198","img/land1.png","76","200","3","0","2","2","0.8,0.2,0.2,0.2,0.8,0.2,0.2,0.2,0.8","0.8,0.2,0.2,0.2,0.8,0.2,0.2,0.2,0.8","1","",""
"","html-keyboard-response","261","123145","0.0-261.0","3R2PKQ87NXUJO05YRAGMTTWKSLXIMH","ALNPW5WIO0I","3JUDR1D0D6D4CARU3YX9Y3DK5DJ2QK","","null","<img src=""img/land1.png"" style=""width:200px;border:14px solid red;"">","null","","","","","","","","","",""
"","image-keyboard-response","262","123276","0.0-262.0","3R2PKQ87NXUJO05YRAGMTTWKSLXIMH","ALNPW5WIO0I","3JUDR1D0D6D4CARU3YX9Y3DK5DJ2QK","","128","img/land2.png","75","129","2","0","3","2","0.8,0.2,0.2,0.2,0.8,0.2,0.2,0.2,0.8","0.8,0.2,0.2,0.2,0.8,0.2,0.2,0.2,0.8","1","",""
"","html-keyboard-response","263","123577","0.0-263.0","3R2PKQ87NXUJO05YRAGMTTWKSLXIMH","ALNPW5WIO0I","3JUDR1D0D6D4CARU3YX9Y3DK5DJ2QK","","null","<img src=""img/land2.png"" style=""width:200px;border:14px solid red;"">","null","","","","","","","","","",""
"","image-keyboard-response","264","124095","0.0-264.0","3R2PKQ87NXUJO05YRAGMTTWKSLXIMH","ALNPW5WIO0I","3JUDR1D0D6D4CARU3YX9Y3DK5DJ2QK","","516","img/land6.png","76","518","3","0","1","2","0.8,0.2,0.2,0.2,0.8,0.2,0.2,0.2,0.8","0.8,0.2,0.2,0.2,0.8,0.2,0.2,0.2,0.8","1","",""
"","html-keyboard-response","265","124401","0.0-265.0","3R2PKQ87NXUJO05YRAGMTTWKSLXIMH","ALNPW5WIO0I","3JUDR1D0D6D4CARU3YX9Y3DK5DJ2QK","","null","<img src=""img/land6.png"" style=""width:200px;border:14px solid red;"">","null","","","","","","","","","",""
"","image-keyboard-response","266","124536","0.0-266.0","3R2PKQ87NXUJO05YRAGMTTWKSLXIMH","ALNPW5WIO0I","3JUDR1D0D6D4CARU3YX9Y3DK5DJ2QK","","132","img/land2.png","76","133","3","0","3","2","0.8,0.2,0.2,0.2,0.8,0.2,0.2,0.2,0.8","0.8,0.2,0.2,0.2,0.8,0.2,0.2,0.2,0.8","1","",""
"","html-keyboard-response","267","124838","0.0-267.0","3R2PKQ87NXUJO05YRAGMTTWKSLXIMH","ALNPW5WIO0I","3JUDR1D0D6D4CARU3YX9Y3DK5DJ2QK","","null","<img src=""img/land2.png"" style=""width:200px;border:14px solid red;"">","null","","","","","","","","","",""
"","image-keyboard-response","268","125205","0.0-268.0","3R2PKQ87NXUJO05YRAGMTTWKSLXIMH","ALNPW5WIO0I","3JUDR1D0D6D4CARU3YX9Y3DK5DJ2QK","","366","img/land2.png","75","366","2","0","3","2","0.8,0.2,0.2,0.2,0.8,0.2,0.2,0.2,0.8","0.8,0.2,0.2,0.2,0.8,0.2,0.2,0.2,0.8","1","",""
"","html-keyboard-response","269","125508","0.0-269.0","3R2PKQ87NXUJO05YRAGMTTWKSLXIMH","ALNPW5WIO0I","3JUDR1D0D6D4CARU3YX9Y3DK5DJ2QK","","null","<img src=""img/land2.png"" style=""width:200px;border:14px solid red;"">","null","","","","","","","","","",""
"","image-keyboard-response","270","125664","0.0-270.0","3R2PKQ87NXUJO05YRAGMTTWKSLXIMH","ALNPW5WIO0I","3JUDR1D0D6D4CARU3YX9Y3DK5DJ2QK","","153","img/land6.png","74","155","1","1","1","2","0.8,0.2,0.2,0.2,0.8,0.2,0.2,0.2,0.8","0.8,0.2,0.2,0.2,0.8,0.2,0.2,0.2,0.8","1","",""
"","html-keyboard-response","271","125966","0.0-271.0","3R2PKQ87NXUJO05YRAGMTTWKSLXIMH","ALNPW5WIO0I","3JUDR1D0D6D4CARU3YX9Y3DK5DJ2QK","","null","<img src=""img/land6.png"" style=""width:200px; border:14px solid green;"">","null","","","","","","","","","",""
"","image-keyboard-response","272","126159","0.0-272.0","3R2PKQ87NXUJO05YRAGMTTWKSLXIMH","ALNPW5WIO0I","3JUDR1D0D6D4CARU3YX9Y3DK5DJ2QK","","191","img/land6.png","74","194","1","1","1","2","0.8,0.2,0.2,0.2,0.8,0.2,0.2,0.2,0.8","0.8,0.2,0.2,0.2,0.8,0.2,0.2,0.2,0.8","1","",""
"","html-keyboard-response","273","126464","0.0-273.0","3R2PKQ87NXUJO05YRAGMTTWKSLXIMH","ALNPW5WIO0I","3JUDR1D0D6D4CARU3YX9Y3DK5DJ2QK","","null","<img src=""img/land6.png"" style=""width:200px; border:14px solid green;"">","null","","","","","","","","","",""
"","image-keyboard-response","274","126757","0.0-274.0","3R2PKQ87NXUJO05YRAGMTTWKSLXIMH","ALNPW5WIO0I","3JUDR1D0D6D4CARU3YX9Y3DK5DJ2QK","","291","img/land1.png","74","292","1","0","2","2","0.8,0.2,0.2,0.2,0.8,0.2,0.2,0.2,0.8","0.8,0.2,0.2,0.2,0.8,0.2,0.2,0.2,0.8","1","",""
"","html-keyboard-response","275","127058","0.0-275.0","3R2PKQ87NXUJO05YRAGMTTWKSLXIMH","ALNPW5WIO0I","3JUDR1D0D6D4CARU3YX9Y3DK5DJ2QK","","null","<img src=""img/land1.png"" style=""width:200px;border:14px solid red;"">","null","","","","","","","","","",""
"","image-keyboard-response","276","127494","0.0-276.0","3R2PKQ87NXUJO05YRAGMTTWKSLXIMH","ALNPW5WIO0I","3JUDR1D0D6D4CARU3YX9Y3DK5DJ2QK","","433","img/land6.png","74","435","1","1","1","2","0.8,0.2,0.2,0.2,0.8,0.2,0.2,0.2,0.8","0.8,0.2,0.2,0.2,0.8,0.2,0.2,0.2,0.8","1","",""
"","html-keyboard-response","277","127797","0.0-277.0","3R2PKQ87NXUJO05YRAGMTTWKSLXIMH","ALNPW5WIO0I","3JUDR1D0D6D4CARU3YX9Y3DK5DJ2QK","","null","<img src=""img/land6.png"" style=""width:200px; border:14px solid green;"">","null","","","","","","","","","",""
"","image-keyboard-response","278","128339","0.0-278.0","3R2PKQ87NXUJO05YRAGMTTWKSLXIMH","ALNPW5WIO0I","3JUDR1D0D6D4CARU3YX9Y3DK5DJ2QK","","539","img/land6.png","75","541","2","1","1","2","0.8,0.2,0.2,0.2,0.8,0.2,0.2,0.2,0.8","0.8,0.2,0.2,0.2,0.8,0.2,0.2,0.2,0.8","1","",""
"","html-keyboard-response","279","128643","0.0-279.0","3R2PKQ87NXUJO05YRAGMTTWKSLXIMH","ALNPW5WIO0I","3JUDR1D0D6D4CARU3YX9Y3DK5DJ2QK","","null","<img src=""img/land6.png"" style=""width:200px; border:14px solid green;"">","null","","","","","","","","","",""
"","image-keyboard-response","280","129501","0.0-280.0","3R2PKQ87NXUJO05YRAGMTTWKSLXIMH","ALNPW5WIO0I","3JUDR1D0D6D4CARU3YX9Y3DK5DJ2QK","","852","img/land6.png","76","856","3","0","1","2","0.8,0.2,0.2,0.2,0.8,0.2,0.2,0.2,0.8","0.8,0.2,0.2,0.2,0.8,0.2,0.2,0.2,0.8","1","",""
"","html-keyboard-response","281","129804","0.0-281.0","3R2PKQ87NXUJO05YRAGMTTWKSLXIMH","ALNPW5WIO0I","3JUDR1D0D6D4CARU3YX9Y3DK5DJ2QK","","null","<img src=""img/land6.png"" style=""width:200px;border:14px solid red;"">","null","","","","","","","","","",""
"","image-keyboard-response","282","130252","0.0-282.0","3R2PKQ87NXUJO05YRAGMTTWKSLXIMH","ALNPW5WIO0I","3JUDR1D0D6D4CARU3YX9Y3DK5DJ2QK","","438","img/land6.png","76","443","3","0","1","2","0.8,0.2,0.2,0.2,0.8,0.2,0.2,0.2,0.8","0.8,0.2,0.2,0.2,0.8,0.2,0.2,0.2,0.8","1","",""
"","html-keyboard-response","283","130554","0.0-283.0","3R2PKQ87NXUJO05YRAGMTTWKSLXIMH","ALNPW5WIO0I","3JUDR1D0D6D4CARU3YX9Y3DK5DJ2QK","","null","<img src=""img/land6.png"" style=""width:200px;border:14px solid red;"">","null","","","","","","","","","",""
"","image-keyboard-response","284","130585","0.0-284.0","3R2PKQ87NXUJO05YRAGMTTWKSLXIMH","ALNPW5WIO0I","3JUDR1D0D6D4CARU3YX9Y3DK5DJ2QK","","28","img/land6.png","74","29","1","1","1","2","0.8,0.2,0.2,0.2,0.8,0.2,0.2,0.2,0.8","0.8,0.2,0.2,0.2,0.8,0.2,0.2,0.2,0.8","1","",""
"","html-keyboard-response","285","130886","0.0-285.0","3R2PKQ87NXUJO05YRAGMTTWKSLXIMH","ALNPW5WIO0I","3JUDR1D0D6D4CARU3YX9Y3DK5DJ2QK","","null","<img src=""img/land6.png"" style=""width:200px; border:14px solid green;"">","null","","","","","","","","","",""
"","image-keyboard-response","286","130918","0.0-286.0","3R2PKQ87NXUJO05YRAGMTTWKSLXIMH","ALNPW5WIO0I","3JUDR1D0D6D4CARU3YX9Y3DK5DJ2QK","","26","img/land6.png","74","27","1","1","1","2","0.8,0.2,0.2,0.2,0.8,0.2,0.2,0.2,0.8","0.8,0.2,0.2,0.2,0.8,0.2,0.2,0.2,0.8","1","",""
"","html-keyboard-response","287","131221","0.0-287.0","3R2PKQ87NXUJO05YRAGMTTWKSLXIMH","ALNPW5WIO0I","3JUDR1D0D6D4CARU3YX9Y3DK5DJ2QK","","null","<img src=""img/land6.png"" style=""width:200px; border:14px solid green;"">","null","","","","","","","","","",""
"","image-keyboard-response","288","131298","0.0-288.0","3R2PKQ87NXUJO05YRAGMTTWKSLXIMH","ALNPW5WIO0I","3JUDR1D0D6D4CARU3YX9Y3DK5DJ2QK","","74","img/land6.png","75","76","2","0","1","2","0.8,0.2,0.2,0.2,0.8,0.2,0.2,0.2,0.8","0.8,0.2,0.2,0.2,0.8,0.2,0.2,0.2,0.8","1","",""
"","html-keyboard-response","289","131600","0.0-289.0","3R2PKQ87NXUJO05YRAGMTTWKSLXIMH","ALNPW5WIO0I","3JUDR1D0D6D4CARU3YX9Y3DK5DJ2QK","","null","<img src=""img/land6.png"" style=""width:200px;border:14px solid red;"">","null","","","","","","","","","",""
"","image-keyboard-response","290","132141","0.0-290.0","3R2PKQ87NXUJO05YRAGMTTWKSLXIMH","ALNPW5WIO0I","3JUDR1D0D6D4CARU3YX9Y3DK5DJ2QK","","539","img/land2.png","75","539","2","0","3","2","0.8,0.2,0.2,0.2,0.8,0.2,0.2,0.2,0.8","0.8,0.2,0.2,0.2,0.8,0.2,0.2,0.2,0.8","1","",""
"","html-keyboard-response","291","132443","0.0-291.0","3R2PKQ87NXUJO05YRAGMTTWKSLXIMH","ALNPW5WIO0I","3JUDR1D0D6D4CARU3YX9Y3DK5DJ2QK","","null","<img src=""img/land2.png"" style=""width:200px;border:14px solid red;"">","null","","","","","","","","","",""
"","image-keyboard-response","292","132495","0.0-292.0","3R2PKQ87NXUJO05YRAGMTTWKSLXIMH","ALNPW5WIO0I","3JUDR1D0D6D4CARU3YX9Y3DK5DJ2QK","","51","img/land6.png","76","51","3","0","1","2","0.8,0.2,0.2,0.2,0.8,0.2,0.2,0.2,0.8","0.8,0.2,0.2,0.2,0.8,0.2,0.2,0.2,0.8","1","",""
"","html-keyboard-response","293","132798","0.0-293.0","3R2PKQ87NXUJO05YRAGMTTWKSLXIMH","ALNPW5WIO0I","3JUDR1D0D6D4CARU3YX9Y3DK5DJ2QK","","null","<img src=""img/land6.png"" style=""width:200px;border:14px solid red;"">","null","","","","","","","","","",""
"","image-keyboard-response","294","132893","0.0-294.0","3R2PKQ87NXUJO05YRAGMTTWKSLXIMH","ALNPW5WIO0I","3JUDR1D0D6D4CARU3YX9Y3DK5DJ2QK","","93","img/land6.png","74","94","1","1","1","2","0.8,0.2,0.2,0.2,0.8,0.2,0.2,0.2,0.8","0.8,0.2,0.2,0.2,0.8,0.2,0.2,0.2,0.8","1","",""
"","html-keyboard-response","295","133195","0.0-295.0","3R2PKQ87NXUJO05YRAGMTTWKSLXIMH","ALNPW5WIO0I","3JUDR1D0D6D4CARU3YX9Y3DK5DJ2QK","","null","<img src=""img/land6.png"" style=""width:200px; border:14px solid green;"">","null","","","","","","","","","",""
"","image-keyboard-response","296","133216","0.0-296.0","3R2PKQ87NXUJO05YRAGMTTWKSLXIMH","ALNPW5WIO0I","3JUDR1D0D6D4CARU3YX9Y3DK5DJ2QK","","16","img/land1.png","76","19","3","0","2","2","0.8,0.2,0.2,0.2,0.8,0.2,0.2,0.2,0.8","0.8,0.2,0.2,0.2,0.8,0.2,0.2,0.2,0.8","1","",""
"","html-keyboard-response","297","133517","0.0-297.0","3R2PKQ87NXUJO05YRAGMTTWKSLXIMH","ALNPW5WIO0I","3JUDR1D0D6D4CARU3YX9Y3DK5DJ2QK","","null","<img src=""img/land1.png"" style=""width:200px;border:14px solid red;"">","null","","","","","","","","","",""
"","image-keyboard-response","298","134251","0.0-298.0","3R2PKQ87NXUJO05YRAGMTTWKSLXIMH","ALNPW5WIO0I","3JUDR1D0D6D4CARU3YX9Y3DK5DJ2QK","","730","img/land1.png","74","732","1","1","2","2","0.8,0.2,0.2,0.2,0.8,0.2,0.2,0.2,0.8","0.8,0.2,0.2,0.2,0.8,0.2,0.2,0.2,0.8","1","",""
"","html-keyboard-response","299","134551","0.0-299.0","3R2PKQ87NXUJO05YRAGMTTWKSLXIMH","ALNPW5WIO0I","3JUDR1D0D6D4CARU3YX9Y3DK5DJ2QK","","null","<img src=""img/land1.png"" style=""width:200px; border:14px solid green;"">","null","","","","","","","","","",""
"","image-keyboard-response","300","134628","0.0-300.0","3R2PKQ87NXUJO05YRAGMTTWKSLXIMH","ALNPW5WIO0I","3JUDR1D0D6D4CARU3YX9Y3DK5DJ2QK","","74","img/land6.png","76","76","3","0","1","2","0.8,0.2,0.2,0.2,0.8,0.2,0.2,0.2,0.8","0.8,0.2,0.2,0.2,0.8,0.2,0.2,0.2,0.8","1","",""
"","html-keyboard-response","301","134931","0.0-301.0","3R2PKQ87NXUJO05YRAGMTTWKSLXIMH","ALNPW5WIO0I","3JUDR1D0D6D4CARU3YX9Y3DK5DJ2QK","","null","<img src=""img/land6.png"" style=""width:200px;border:14px solid red;"">","null","","","","","","","","","",""
"","image-keyboard-response","302","134977","0.0-302.0","3R2PKQ87NXUJO05YRAGMTTWKSLXIMH","ALNPW5WIO0I","3JUDR1D0D6D4CARU3YX9Y3DK5DJ2QK","","43","img/land5.png","76","44","3","0","2","1","0.8,0.2,0.2,0.2,0.8,0.2,0.2,0.2,0.8","0.8,0.2,0.2,0.2,0.8,0.2,0.2,0.2,0.8","1","",""
"","html-keyboard-response","303","135281","0.0-303.0","3R2PKQ87NXUJO05YRAGMTTWKSLXIMH","ALNPW5WIO0I","3JUDR1D0D6D4CARU3YX9Y3DK5DJ2QK","","null","<img src=""img/land5.png"" style=""width:200px;border:14px solid red;"">","null","","","","","","","","","",""
"","image-keyboard-response","304","135979","0.0-304.0","3R2PKQ87NXUJO05YRAGMTTWKSLXIMH","ALNPW5WIO0I","3JUDR1D0D6D4CARU3YX9Y3DK5DJ2QK","","697","img/land4.png","76","697","3","0","1","1","0.8,0.2,0.2,0.2,0.8,0.2,0.2,0.2,0.8","0.8,0.2,0.2,0.2,0.8,0.2,0.2,0.2,0.8","1","",""
"","html-keyboard-response","305","136283","0.0-305.0","3R2PKQ87NXUJO05YRAGMTTWKSLXIMH","ALNPW5WIO0I","3JUDR1D0D6D4CARU3YX9Y3DK5DJ2QK","","null","<img src=""img/land4.png"" style=""width:200px;border:14px solid red;"">","null","","","","","","","","","",""
"","image-keyboard-response","306","136405","0.0-306.0","3R2PKQ87NXUJO05YRAGMTTWKSLXIMH","ALNPW5WIO0I","3JUDR1D0D6D4CARU3YX9Y3DK5DJ2QK","","119","img/land3.png","74","120","1","1","3","1","0.8,0.2,0.2,0.2,0.8,0.2,0.2,0.2,0.8","0.8,0.2,0.2,0.2,0.8,0.2,0.2,0.2,0.8","1","",""
"","html-keyboard-response","307","136708","0.0-307.0","3R2PKQ87NXUJO05YRAGMTTWKSLXIMH","ALNPW5WIO0I","3JUDR1D0D6D4CARU3YX9Y3DK5DJ2QK","","null","<img src=""img/land3.png"" style=""width:200px; border:14px solid green;"">","null","","","","","","","","","",""
"","image-keyboard-response","308","136878","0.0-308.0","3R2PKQ87NXUJO05YRAGMTTWKSLXIMH","ALNPW5WIO0I","3JUDR1D0D6D4CARU3YX9Y3DK5DJ2QK","","168","img/land4.png","74","170","1","1","1","1","0.8,0.2,0.2,0.2,0.8,0.2,0.2,0.2,0.8","0.8,0.2,0.2,0.2,0.8,0.2,0.2,0.2,0.8","1","",""
"","html-keyboard-response","309","137180","0.0-309.0","3R2PKQ87NXUJO05YRAGMTTWKSLXIMH","ALNPW5WIO0I","3JUDR1D0D6D4CARU3YX9Y3DK5DJ2QK","","null","<img src=""img/land4.png"" style=""width:200px; border:14px solid green;"">","null","","","","","","","","","",""
"","image-keyboard-response","310","137220","0.0-310.0","3R2PKQ87NXUJO05YRAGMTTWKSLXIMH","ALNPW5WIO0I","3JUDR1D0D6D4CARU3YX9Y3DK5DJ2QK","","39","img/land4.png","75","40","2","0","1","1","0.8,0.2,0.2,0.2,0.8,0.2,0.2,0.2,0.8","0.8,0.2,0.2,0.2,0.8,0.2,0.2,0.2,0.8","1","",""
"","html-keyboard-response","311","137524","0.0-311.0","3R2PKQ87NXUJO05YRAGMTTWKSLXIMH","ALNPW5WIO0I","3JUDR1D0D6D4CARU3YX9Y3DK5DJ2QK","","null","<img src=""img/land4.png"" style=""width:200px;border:14px solid red;"">","null","","","","","","","","","",""
"","image-keyboard-response","312","137925","0.0-312.0","3R2PKQ87NXUJO05YRAGMTTWKSLXIMH","ALNPW5WIO0I","3JUDR1D0D6D4CARU3YX9Y3DK5DJ2QK","","397","img/land4.png","74","398","1","1","1","1","0.8,0.2,0.2,0.2,0.8,0.2,0.2,0.2,0.8","0.8,0.2,0.2,0.2,0.8,0.2,0.2,0.2,0.8","1","",""
"","html-keyboard-response","313","138227","0.0-313.0","3R2PKQ87NXUJO05YRAGMTTWKSLXIMH","ALNPW5WIO0I","3JUDR1D0D6D4CARU3YX9Y3DK5DJ2QK","","null","<img src=""img/land4.png"" style=""width:200px; border:14px solid green;"">","null","","","","","","","","","",""
"","image-keyboard-response","314","138589","0.0-314.0","3R2PKQ87NXUJO05YRAGMTTWKSLXIMH","ALNPW5WIO0I","3JUDR1D0D6D4CARU3YX9Y3DK5DJ2QK","","359","img/land3.png","75","361","2","1","3","1","0.8,0.2,0.2,0.2,0.8,0.2,0.2,0.2,0.8","0.8,0.2,0.2,0.2,0.8,0.2,0.2,0.2,0.8","1","",""
"","html-keyboard-response","315","138893","0.0-315.0","3R2PKQ87NXUJO05YRAGMTTWKSLXIMH","ALNPW5WIO0I","3JUDR1D0D6D4CARU3YX9Y3DK5DJ2QK","","null","<img src=""img/land3.png"" style=""width:200px; border:14px solid green;"">","null","","","","","","","","","",""
"","image-keyboard-response","316","139557","0.0-316.0","3R2PKQ87NXUJO05YRAGMTTWKSLXIMH","ALNPW5WIO0I","3JUDR1D0D6D4CARU3YX9Y3DK5DJ2QK","","662","img/land5.png","74","664","1","0","2","1","0.8,0.2,0.2,0.2,0.8,0.2,0.2,0.2,0.8","0.8,0.2,0.2,0.2,0.8,0.2,0.2,0.2,0.8","1","",""
"","html-keyboard-response","317","139862","0.0-317.0","3R2PKQ87NXUJO05YRAGMTTWKSLXIMH","ALNPW5WIO0I","3JUDR1D0D6D4CARU3YX9Y3DK5DJ2QK","","null","<img src=""img/land5.png"" style=""width:200px;border:14px solid red;"">","null","","","","","","","","","",""
"","image-keyboard-response","318","140287","0.0-318.0","3R2PKQ87NXUJO05YRAGMTTWKSLXIMH","ALNPW5WIO0I","3JUDR1D0D6D4CARU3YX9Y3DK5DJ2QK","","420","img/land5.png","74","422","1","1","2","1","0.8,0.2,0.2,0.2,0.8,0.2,0.2,0.2,0.8","0.8,0.2,0.2,0.2,0.8,0.2,0.2,0.2,0.8","1","",""
"","html-keyboard-response","319","140590","0.0-319.0","3R2PKQ87NXUJO05YRAGMTTWKSLXIMH","ALNPW5WIO0I","3JUDR1D0D6D4CARU3YX9Y3DK5DJ2QK","","null","<img src=""img/land5.png"" style=""width:200px; border:14px solid green;"">","null","","","","","","","","","",""
"","image-keyboard-response","320","141730","0.0-320.0","3R2PKQ87NXUJO05YRAGMTTWKSLXIMH","ALNPW5WIO0I","3JUDR1D0D6D4CARU3YX9Y3DK5DJ2QK","","1137","img/land5.png","74","1138","1","1","2","1","0.8,0.2,0.2,0.2,0.8,0.2,0.2,0.2,0.8","0.8,0.2,0.2,0.2,0.8,0.2,0.2,0.2,0.8","1","",""
"","html-keyboard-response","321","142033","0.0-321.0","3R2PKQ87NXUJO05YRAGMTTWKSLXIMH","ALNPW5WIO0I","3JUDR1D0D6D4CARU3YX9Y3DK5DJ2QK","","null","<img src=""img/land5.png"" style=""width:200px; border:14px solid green;"">","null","","","","","","","","","",""
"","image-keyboard-response","322","142105","0.0-322.0","3R2PKQ87NXUJO05YRAGMTTWKSLXIMH","ALNPW5WIO0I","3JUDR1D0D6D4CARU3YX9Y3DK5DJ2QK","","71","img/land4.png","75","72","2","0","1","1","0.8,0.2,0.2,0.2,0.8,0.2,0.2,0.2,0.8","0.8,0.2,0.2,0.2,0.8,0.2,0.2,0.2,0.8","1","",""
"","html-keyboard-response","323","142408","0.0-323.0","3R2PKQ87NXUJO05YRAGMTTWKSLXIMH","ALNPW5WIO0I","3JUDR1D0D6D4CARU3YX9Y3DK5DJ2QK","","null","<img src=""img/land4.png"" style=""width:200px;border:14px solid red;"">","null","","","","","","","","","",""
"","image-keyboard-response","324","142578","0.0-324.0","3R2PKQ87NXUJO05YRAGMTTWKSLXIMH","ALNPW5WIO0I","3JUDR1D0D6D4CARU3YX9Y3DK5DJ2QK","","165","img/land5.png","76","168","3","1","2","1","0.8,0.2,0.2,0.2,0.8,0.2,0.2,0.2,0.8","0.8,0.2,0.2,0.2,0.8,0.2,0.2,0.2,0.8","1","",""
"","html-keyboard-response","325","142883","0.0-325.0","3R2PKQ87NXUJO05YRAGMTTWKSLXIMH","ALNPW5WIO0I","3JUDR1D0D6D4CARU3YX9Y3DK5DJ2QK","","null","<img src=""img/land5.png"" style=""width:200px; border:14px solid green;"">","null","","","","","","","","","",""
"","image-keyboard-response","326","143528","0.0-326.0","3R2PKQ87NXUJO05YRAGMTTWKSLXIMH","ALNPW5WIO0I","3JUDR1D0D6D4CARU3YX9Y3DK5DJ2QK","","641","img/land5.png","75","644","2","1","2","1","0.8,0.2,0.2,0.2,0.8,0.2,0.2,0.2,0.8","0.8,0.2,0.2,0.2,0.8,0.2,0.2,0.2,0.8","1","",""
"","html-keyboard-response","327","143830","0.0-327.0","3R2PKQ87NXUJO05YRAGMTTWKSLXIMH","ALNPW5WIO0I","3JUDR1D0D6D4CARU3YX9Y3DK5DJ2QK","","null","<img src=""img/land5.png"" style=""width:200px; border:14px solid green;"">","null","","","","","","","","","",""
"","image-keyboard-response","328","144066","0.0-328.0","3R2PKQ87NXUJO05YRAGMTTWKSLXIMH","ALNPW5WIO0I","3JUDR1D0D6D4CARU3YX9Y3DK5DJ2QK","","233","img/land3.png","74","235","1","1","3","1","0.8,0.2,0.2,0.2,0.8,0.2,0.2,0.2,0.8","0.8,0.2,0.2,0.2,0.8,0.2,0.2,0.2,0.8","1","",""
"","html-keyboard-response","329","144367","0.0-329.0","3R2PKQ87NXUJO05YRAGMTTWKSLXIMH","ALNPW5WIO0I","3JUDR1D0D6D4CARU3YX9Y3DK5DJ2QK","","null","<img src=""img/land3.png"" style=""width:200px; border:14px solid green;"">","null","","","","","","","","","",""
"","image-keyboard-response","330","145205","0.0-330.0","3R2PKQ87NXUJO05YRAGMTTWKSLXIMH","ALNPW5WIO0I","3JUDR1D0D6D4CARU3YX9Y3DK5DJ2QK","","834","img/land3.png","75","836","2","0","3","1","0.8,0.2,0.2,0.2,0.8,0.2,0.2,0.2,0.8","0.8,0.2,0.2,0.2,0.8,0.2,0.2,0.2,0.8","1","",""
"","html-keyboard-response","331","145511","0.0-331.0","3R2PKQ87NXUJO05YRAGMTTWKSLXIMH","ALNPW5WIO0I","3JUDR1D0D6D4CARU3YX9Y3DK5DJ2QK","","null","<img src=""img/land3.png"" style=""width:200px;border:14px solid red;"">","null","","","","","","","","","",""
"","image-keyboard-response","332","145590","0.0-332.0","3R2PKQ87NXUJO05YRAGMTTWKSLXIMH","ALNPW5WIO0I","3JUDR1D0D6D4CARU3YX9Y3DK5DJ2QK","","74","img/land4.png","74","77","1","1","1","1","0.8,0.2,0.2,0.2,0.8,0.2,0.2,0.2,0.8","0.8,0.2,0.2,0.2,0.8,0.2,0.2,0.2,0.8","1","",""
"","html-keyboard-response","333","145893","0.0-333.0","3R2PKQ87NXUJO05YRAGMTTWKSLXIMH","ALNPW5WIO0I","3JUDR1D0D6D4CARU3YX9Y3DK5DJ2QK","","null","<img src=""img/land4.png"" style=""width:200px; border:14px solid green;"">","null","","","","","","","","","",""
"","image-keyboard-response","334","145999","0.0-334.0","3R2PKQ87NXUJO05YRAGMTTWKSLXIMH","ALNPW5WIO0I","3JUDR1D0D6D4CARU3YX9Y3DK5DJ2QK","","104","img/land3.png","75","106","2","1","3","1","0.8,0.2,0.2,0.2,0.8,0.2,0.2,0.2,0.8","0.8,0.2,0.2,0.2,0.8,0.2,0.2,0.2,0.8","1","",""
"","html-keyboard-response","335","146303","0.0-335.0","3R2PKQ87NXUJO05YRAGMTTWKSLXIMH","ALNPW5WIO0I","3JUDR1D0D6D4CARU3YX9Y3DK5DJ2QK","","null","<img src=""img/land3.png"" style=""width:200px; border:14px solid green;"">","null","","","","","","","","","",""
"","image-keyboard-response","336","146385","0.0-336.0","3R2PKQ87NXUJO05YRAGMTTWKSLXIMH","ALNPW5WIO0I","3JUDR1D0D6D4CARU3YX9Y3DK5DJ2QK","","79","img/land4.png","76","82","3","1","1","1","0.8,0.2,0.2,0.2,0.8,0.2,0.2,0.2,0.8","0.8,0.2,0.2,0.2,0.8,0.2,0.2,0.2,0.8","1","",""
"","html-keyboard-response","337","146688","0.0-337.0","3R2PKQ87NXUJO05YRAGMTTWKSLXIMH","ALNPW5WIO0I","3JUDR1D0D6D4CARU3YX9Y3DK5DJ2QK","","null","<img src=""img/land4.png"" style=""width:200px; border:14px solid green;"">","null","","","","","","","","","",""
"","image-keyboard-response","338","146848","0.0-338.0","3R2PKQ87NXUJO05YRAGMTTWKSLXIMH","ALNPW5WIO0I","3JUDR1D0D6D4CARU3YX9Y3DK5DJ2QK","","157","img/land3.png","75","159","2","1","3","1","0.8,0.2,0.2,0.2,0.8,0.2,0.2,0.2,0.8","0.8,0.2,0.2,0.2,0.8,0.2,0.2,0.2,0.8","1","",""
"","html-keyboard-response","339","147159","0.0-339.0","3R2PKQ87NXUJO05YRAGMTTWKSLXIMH","ALNPW5WIO0I","3JUDR1D0D6D4CARU3YX9Y3DK5DJ2QK","","null","<img src=""img/land3.png"" style=""width:200px; border:14px solid green;"">","null","","","","","","","","","",""
"","image-keyboard-response","340","147330","0.0-340.0","3R2PKQ87NXUJO05YRAGMTTWKSLXIMH","ALNPW5WIO0I","3JUDR1D0D6D4CARU3YX9Y3DK5DJ2QK","","162","img/land5.png","74","167","1","0","2","1","0.8,0.2,0.2,0.2,0.8,0.2,0.2,0.2,0.8","0.8,0.2,0.2,0.2,0.8,0.2,0.2,0.2,0.8","1","",""
"","html-keyboard-response","341","147644","0.0-341.0","3R2PKQ87NXUJO05YRAGMTTWKSLXIMH","ALNPW5WIO0I","3JUDR1D0D6D4CARU3YX9Y3DK5DJ2QK","","null","<img src=""img/land5.png"" style=""width:200px;border:14px solid red;"">","null","","","","","","","","","",""
"","image-keyboard-response","342","148311","0.0-342.0","3R2PKQ87NXUJO05YRAGMTTWKSLXIMH","ALNPW5WIO0I","3JUDR1D0D6D4CARU3YX9Y3DK5DJ2QK","","664","img/land4.png","76","667","3","0","1","1","0.8,0.2,0.2,0.2,0.8,0.2,0.2,0.2,0.8","0.8,0.2,0.2,0.2,0.8,0.2,0.2,0.2,0.8","1","",""
"","html-keyboard-response","343","148616","0.0-343.0","3R2PKQ87NXUJO05YRAGMTTWKSLXIMH","ALNPW5WIO0I","3JUDR1D0D6D4CARU3YX9Y3DK5DJ2QK","","null","<img src=""img/land4.png"" style=""width:200px;border:14px solid red;"">","null","","","","","","","","","",""
"","image-keyboard-response","344","148823","0.0-344.0","3R2PKQ87NXUJO05YRAGMTTWKSLXIMH","ALNPW5WIO0I","3JUDR1D0D6D4CARU3YX9Y3DK5DJ2QK","","203","img/land5.png","74","205","1","0","2","1","0.8,0.2,0.2,0.2,0.8,0.2,0.2,0.2,0.8","0.8,0.2,0.2,0.2,0.8,0.2,0.2,0.2,0.8","1","",""
"","html-keyboard-response","345","149125","0.0-345.0","3R2PKQ87NXUJO05YRAGMTTWKSLXIMH","ALNPW5WIO0I","3JUDR1D0D6D4CARU3YX9Y3DK5DJ2QK","","null","<img src=""img/land5.png"" style=""width:200px;border:14px solid red;"">","null","","","","","","","","","",""
"","image-keyboard-response","346","149441","0.0-346.0","3R2PKQ87NXUJO05YRAGMTTWKSLXIMH","ALNPW5WIO0I","3JUDR1D0D6D4CARU3YX9Y3DK5DJ2QK","","314","img/land3.png","75","315","2","1","3","1","0.8,0.2,0.2,0.2,0.8,0.2,0.2,0.2,0.8","0.8,0.2,0.2,0.2,0.8,0.2,0.2,0.2,0.8","1","",""
"","html-keyboard-response","347","149744","0.0-347.0","3R2PKQ87NXUJO05YRAGMTTWKSLXIMH","ALNPW5WIO0I","3JUDR1D0D6D4CARU3YX9Y3DK5DJ2QK","","null","<img src=""img/land3.png"" style=""width:200px; border:14px solid green;"">","null","","","","","","","","","",""
"","image-keyboard-response","348","149919","0.0-348.0","3R2PKQ87NXUJO05YRAGMTTWKSLXIMH","ALNPW5WIO0I","3JUDR1D0D6D4CARU3YX9Y3DK5DJ2QK","","173","img/land5.png","76","174","3","0","2","1","0.8,0.2,0.2,0.2,0.8,0.2,0.2,0.2,0.8","0.8,0.2,0.2,0.2,0.8,0.2,0.2,0.2,0.8","1","",""
"","html-keyboard-response","349","150223","0.0-349.0","3R2PKQ87NXUJO05YRAGMTTWKSLXIMH","ALNPW5WIO0I","3JUDR1D0D6D4CARU3YX9Y3DK5DJ2QK","","null","<img src=""img/land5.png"" style=""width:200px;border:14px solid red;"">","null","","","","","","","","","",""
"","image-keyboard-response","350","150317","0.0-350.0","3R2PKQ87NXUJO05YRAGMTTWKSLXIMH","ALNPW5WIO0I","3JUDR1D0D6D4CARU3YX9Y3DK5DJ2QK","","91","img/land4.png","74","93","1","1","1","1","0.8,0.2,0.2,0.2,0.8,0.2,0.2,0.2,0.8","0.8,0.2,0.2,0.2,0.8,0.2,0.2,0.2,0.8","1","",""
"","html-keyboard-response","351","150620","0.0-351.0","3R2PKQ87NXUJO05YRAGMTTWKSLXIMH","ALNPW5WIO0I","3JUDR1D0D6D4CARU3YX9Y3DK5DJ2QK","","null","<img src=""img/land4.png"" style=""width:200px; border:14px solid green;"">","null","","","","","","","","","",""
"","image-keyboard-response","352","150663","0.0-352.0","3R2PKQ87NXUJO05YRAGMTTWKSLXIMH","ALNPW5WIO0I","3JUDR1D0D6D4CARU3YX9Y3DK5DJ2QK","","40","img/land4.png","74","42","1","0","1","1","0.8,0.2,0.2,0.2,0.8,0.2,0.2,0.2,0.8","0.8,0.2,0.2,0.2,0.8,0.2,0.2,0.2,0.8","1","",""
"","html-keyboard-response","353","150964","0.0-353.0","3R2PKQ87NXUJO05YRAGMTTWKSLXIMH","ALNPW5WIO0I","3JUDR1D0D6D4CARU3YX9Y3DK5DJ2QK","","null","<img src=""img/land4.png"" style=""width:200px;border:14px solid red;"">","null","","","","","","","","","",""
"","image-keyboard-response","354","151645","0.0-354.0","3R2PKQ87NXUJO05YRAGMTTWKSLXIMH","ALNPW5WIO0I","3JUDR1D0D6D4CARU3YX9Y3DK5DJ2QK","","678","img/land3.png","75","679","2","0","3","1","0.8,0.2,0.2,0.2,0.8,0.2,0.2,0.2,0.8","0.8,0.2,0.2,0.2,0.8,0.2,0.2,0.2,0.8","1","",""
"","html-keyboard-response","355","151949","0.0-355.0","3R2PKQ87NXUJO05YRAGMTTWKSLXIMH","ALNPW5WIO0I","3JUDR1D0D6D4CARU3YX9Y3DK5DJ2QK","","null","<img src=""img/land3.png"" style=""width:200px;border:14px solid red;"">","null","","","","","","","","","",""
"","image-keyboard-response","356","151954","0.0-356.0","3R2PKQ87NXUJO05YRAGMTTWKSLXIMH","ALNPW5WIO0I","3JUDR1D0D6D4CARU3YX9Y3DK5DJ2QK","","3","img/land3.png","76","4","3","1","3","1","0.8,0.2,0.2,0.2,0.8,0.2,0.2,0.2,0.8","0.8,0.2,0.2,0.2,0.8,0.2,0.2,0.2,0.8","1","",""
"","html-keyboard-response","357","152256","0.0-357.0","3R2PKQ87NXUJO05YRAGMTTWKSLXIMH","ALNPW5WIO0I","3JUDR1D0D6D4CARU3YX9Y3DK5DJ2QK","","null","<img src=""img/land3.png"" style=""width:200px; border:14px solid green;"">","null","","","","","","","","","",""
"","image-keyboard-response","358","153065","0.0-358.0","3R2PKQ87NXUJO05YRAGMTTWKSLXIMH","ALNPW5WIO0I","3JUDR1D0D6D4CARU3YX9Y3DK5DJ2QK","","808","img/land5.png","76","809","3","0","2","1","0.8,0.2,0.2,0.2,0.8,0.2,0.2,0.2,0.8","0.8,0.2,0.2,0.2,0.8,0.2,0.2,0.2,0.8","1","",""
"","html-keyboard-response","359","153368","0.0-359.0","3R2PKQ87NXUJO05YRAGMTTWKSLXIMH","ALNPW5WIO0I","3JUDR1D0D6D4CARU3YX9Y3DK5DJ2QK","","null","<img src=""img/land5.png"" style=""width:200px;border:14px solid red;"">","null","","","","","","","","","",""
"","image-keyboard-response","360","153706","0.0-360.0","3R2PKQ87NXUJO05YRAGMTTWKSLXIMH","ALNPW5WIO0I","3JUDR1D0D6D4CARU3YX9Y3DK5DJ2QK","","334","img/land3.png","75","336","2","0","3","1","0.8,0.2,0.2,0.2,0.8,0.2,0.2,0.2,0.8","0.8,0.2,0.2,0.2,0.8,0.2,0.2,0.2,0.8","1","",""
"","html-keyboard-response","361","154007","0.0-361.0","3R2PKQ87NXUJO05YRAGMTTWKSLXIMH","ALNPW5WIO0I","3JUDR1D0D6D4CARU3YX9Y3DK5DJ2QK","","null","<img src=""img/land3.png"" style=""width:200px;border:14px solid red;"">","null","","","","","","","","","",""
"","image-keyboard-response","362","154718","0.0-362.0","3R2PKQ87NXUJO05YRAGMTTWKSLXIMH","ALNPW5WIO0I","3JUDR1D0D6D4CARU3YX9Y3DK5DJ2QK","","709","img/land4.png","76","710","3","0","1","1","0.8,0.2,0.2,0.2,0.8,0.2,0.2,0.2,0.8","0.8,0.2,0.2,0.2,0.8,0.2,0.2,0.2,0.8","1","",""
"","html-keyboard-response","363","155020","0.0-363.0","3R2PKQ87NXUJO05YRAGMTTWKSLXIMH","ALNPW5WIO0I","3JUDR1D0D6D4CARU3YX9Y3DK5DJ2QK","","null","<img src=""img/land4.png"" style=""width:200px;border:14px solid red;"">","null","","","","","","","","","",""
"","image-keyboard-response","364","155026","0.0-364.0","3R2PKQ87NXUJO05YRAGMTTWKSLXIMH","ALNPW5WIO0I","3JUDR1D0D6D4CARU3YX9Y3DK5DJ2QK","","2","img/land4.png","74","4","1","1","1","1","0.8,0.2,0.2,0.2,0.8,0.2,0.2,0.2,0.8","0.8,0.2,0.2,0.2,0.8,0.2,0.2,0.2,0.8","1","",""
"","html-keyboard-response","365","155328","0.0-365.0","3R2PKQ87NXUJO05YRAGMTTWKSLXIMH","ALNPW5WIO0I","3JUDR1D0D6D4CARU3YX9Y3DK5DJ2QK","","null","<img src=""img/land4.png"" style=""width:200px; border:14px solid green;"">","null","","","","","","","","","",""
"","image-keyboard-response","366","155993","0.0-366.0","3R2PKQ87NXUJO05YRAGMTTWKSLXIMH","ALNPW5WIO0I","3JUDR1D0D6D4CARU3YX9Y3DK5DJ2QK","","662","img/land3.png","75","664","2","0","3","1","0.8,0.2,0.2,0.2,0.8,0.2,0.2,0.2,0.8","0.8,0.2,0.2,0.2,0.8,0.2,0.2,0.2,0.8","1","",""
"","html-keyboard-response","367","156295","0.0-367.0","3R2PKQ87NXUJO05YRAGMTTWKSLXIMH","ALNPW5WIO0I","3JUDR1D0D6D4CARU3YX9Y3DK5DJ2QK","","null","<img src=""img/land3.png"" style=""width:200px;border:14px solid red;"">","null","","","","","","","","","",""
"","image-keyboard-response","368","156526","0.0-368.0","3R2PKQ87NXUJO05YRAGMTTWKSLXIMH","ALNPW5WIO0I","3JUDR1D0D6D4CARU3YX9Y3DK5DJ2QK","","229","img/land4.png","75","230","2","1","1","1","0.8,0.2,0.2,0.2,0.8,0.2,0.2,0.2,0.8","0.8,0.2,0.2,0.2,0.8,0.2,0.2,0.2,0.8","1","",""
"","html-keyboard-response","369","156830","0.0-369.0","3R2PKQ87NXUJO05YRAGMTTWKSLXIMH","ALNPW5WIO0I","3JUDR1D0D6D4CARU3YX9Y3DK5DJ2QK","","null","<img src=""img/land4.png"" style=""width:200px; border:14px solid green;"">","null","","","","","","","","","",""
"","image-keyboard-response","370","156975","0.0-370.0","3R2PKQ87NXUJO05YRAGMTTWKSLXIMH","ALNPW5WIO0I","3JUDR1D0D6D4CARU3YX9Y3DK5DJ2QK","","138","img/land3.png","76","142","3","1","3","1","0.8,0.2,0.2,0.2,0.8,0.2,0.2,0.2,0.8","0.8,0.2,0.2,0.2,0.8,0.2,0.2,0.2,0.8","1","",""
"","html-keyboard-response","371","157278","0.0-371.0","3R2PKQ87NXUJO05YRAGMTTWKSLXIMH","ALNPW5WIO0I","3JUDR1D0D6D4CARU3YX9Y3DK5DJ2QK","","null","<img src=""img/land3.png"" style=""width:200px; border:14px solid green;"">","null","","","","","","","","","",""
"","image-keyboard-response","372","157805","0.0-372.0","3R2PKQ87NXUJO05YRAGMTTWKSLXIMH","ALNPW5WIO0I","3JUDR1D0D6D4CARU3YX9Y3DK5DJ2QK","","524","img/land5.png","76","526","3","0","2","1","0.8,0.2,0.2,0.2,0.8,0.2,0.2,0.2,0.8","0.8,0.2,0.2,0.2,0.8,0.2,0.2,0.2,0.8","1","",""
"","html-keyboard-response","373","158109","0.0-373.0","3R2PKQ87NXUJO05YRAGMTTWKSLXIMH","ALNPW5WIO0I","3JUDR1D0D6D4CARU3YX9Y3DK5DJ2QK","","null","<img src=""img/land5.png"" style=""width:200px;border:14px solid red;"">","null","","","","","","","","","",""
"","image-keyboard-response","374","158256","0.0-374.0","3R2PKQ87NXUJO05YRAGMTTWKSLXIMH","ALNPW5WIO0I","3JUDR1D0D6D4CARU3YX9Y3DK5DJ2QK","","141","img/land5.png","74","145","1","0","2","1","0.8,0.2,0.2,0.2,0.8,0.2,0.2,0.2,0.8","0.8,0.2,0.2,0.2,0.8,0.2,0.2,0.2,0.8","1","",""
"","html-keyboard-response","375","158559","0.0-375.0","3R2PKQ87NXUJO05YRAGMTTWKSLXIMH","ALNPW5WIO0I","3JUDR1D0D6D4CARU3YX9Y3DK5DJ2QK","","null","<img src=""img/land5.png"" style=""width:200px;border:14px solid red;"">","null","","","","","","","","","",""
