"success","trial_type","trial_index","time_elapsed","internal_node_id","assignmentID","mturkID","hitID","view_history","rt","stimulus","key_press","reactionTime","a","r","s","cond","reward_cond","reward_cond_actual","reward_matrix_idx","responses","question_order"
"true","fullscreen","0","3448","0.0-0.0","3N2BF7Y2VRGJS5UELSY1THV5SIJMHD","ALVNMQMD3Q3ZE","3THR0FZ95PF7SK0MYRNAOUHTWDJOLG","","","","","","","","","","","","","",""
"","instructions","1","17742","0.0-1.0","3N2BF7Y2VRGJS5UELSY1THV5SIJMHD","ALVNMQMD3Q3ZE","3THR0FZ95PF7SK0MYRNAOUHTWDJOLG","[{""page_index"":0,""viewing_time"":2221.7999999523163},{""page_index"":1,""viewing_time"":993.9000000953674},{""page_index"":2,""viewing_time"":714.2999999523163},{""page_index"":3,""viewing_time"":1904.2999999523163},{""page_index"":4,""viewing_time"":3984},{""page_index"":5,""viewing_time"":1477.2999999523163},{""page_index"":6,""viewing_time"":2996.7000000476837}]","14292.700000047684","","","","","","","","","","","",""
"","image-keyboard-response","2","19217","0.0-2.0","3N2BF7Y2VRGJS5UELSY1THV5SIJMHD","ALVNMQMD3Q3ZE","3THR0FZ95PF7SK0MYRNAOUHTWDJOLG","","1472.4000000953674","img/land3.png","74","1474.2000000476837","1","1","1","1","0.8,0.2,0.2,0.2,0.8,0.2,0.2,0.2,0.8","0.8,0.2,0.2,0.2,0.8,0.2,0.2,0.2,0.8","1","",""
"","html-keyboard-response","3","19531","0.0-3.0","3N2BF7Y2VRGJS5UELSY1THV5SIJMHD","ALVNMQMD3Q3ZE","3THR0FZ95PF7SK0MYRNAOUHTWDJOLG","","null","<img src=""img/land3.png"" style=""width:200px; border:14px solid green;"">","null","","","","","","","","","",""
"","image-keyboard-response","4","19765","0.0-4.0","3N2BF7Y2VRGJS5UELSY1THV5SIJMHD","ALVNMQMD3Q3ZE","3THR0FZ95PF7SK0MYRNAOUHTWDJOLG","","233.29999995231628","img/land1.png","74","234.40000009536743","1","0","2","1","0.8,0.2,0.2,0.2,0.8,0.2,0.2,0.2,0.8","0.8,0.2,0.2,0.2,0.8,0.2,0.2,0.2,0.8","1","",""
"","html-keyboard-response","5","20079","0.0-5.0","3N2BF7Y2VRGJS5UELSY1THV5SIJMHD","ALVNMQMD3Q3ZE","3THR0FZ95PF7SK0MYRNAOUHTWDJOLG","","null","<img src=""img/land1.png"" style=""width:200px;border:14px solid red;"">","null","","","","","","","","","",""
"","image-keyboard-response","6","20486","0.0-6.0","3N2BF7Y2VRGJS5UELSY1THV5SIJMHD","ALVNMQMD3Q3ZE","3THR0FZ95PF7SK0MYRNAOUHTWDJOLG","","405.09999990463257","img/land2.png","75","406","2","0","3","1","0.8,0.2,0.2,0.2,0.8,0.2,0.2,0.2,0.8","0.8,0.2,0.2,0.2,0.8,0.2,0.2,0.2,0.8","1","",""
"","html-keyboard-response","7","20791","0.0-7.0","3N2BF7Y2VRGJS5UELSY1THV5SIJMHD","ALVNMQMD3Q3ZE","3THR0FZ95PF7SK0MYRNAOUHTWDJOLG","","null","<img src=""img/land2.png"" style=""width:200px;border:14px solid red;"">","null","","","","","","","","","",""
"","image-keyboard-response","8","21040","0.0-8.0","3N2BF7Y2VRGJS5UELSY1THV5SIJMHD","ALVNMQMD3Q3ZE","3THR0FZ95PF7SK0MYRNAOUHTWDJOLG","","247.40000009536743","img/land1.png","74","248.29999995231628","1","0","2","1","0.8,0.2,0.2,0.2,0.8,0.2,0.2,0.2,0.8","0.8,0.2,0.2,0.2,0.8,0.2,0.2,0.2,0.8","1","",""
"","html-keyboard-response","9","21347","0.0-9.0","3N2BF7Y2VRGJS5UELSY1THV5SIJMHD","ALVNMQMD3Q3ZE","3THR0FZ95PF7SK0MYRNAOUHTWDJOLG","","null","<img src=""img/land1.png"" style=""width:200px;border:14px solid red;"">","null","","","","","","","","","",""
"","image-keyboard-response","10","21711","0.0-10.0","3N2BF7Y2VRGJS5UELSY1THV5SIJMHD","ALVNMQMD3Q3ZE","3THR0FZ95PF7SK0MYRNAOUHTWDJOLG","","363.09999990463257","img/land2.png","76","364.09999990463257","3","0","3","1","0.8,0.2,0.2,0.2,0.8,0.2,0.2,0.2,0.8","0.8,0.2,0.2,0.2,0.8,0.2,0.2,0.2,0.8","1","",""
"","html-keyboard-response","11","22018","0.0-11.0","3N2BF7Y2VRGJS5UELSY1THV5SIJMHD","ALVNMQMD3Q3ZE","3THR0FZ95PF7SK0MYRNAOUHTWDJOLG","","null","<img src=""img/land2.png"" style=""width:200px;border:14px solid red;"">","null","","","","","","","","","",""
"","image-keyboard-response","12","22287","0.0-12.0","3N2BF7Y2VRGJS5UELSY1THV5SIJMHD","ALVNMQMD3Q3ZE","3THR0FZ95PF7SK0MYRNAOUHTWDJOLG","","267.80000019073486","img/land1.png","75","268.60000014305115","2","1","2","1","0.8,0.2,0.2,0.2,0.8,0.2,0.2,0.2,0.8","0.8,0.2,0.2,0.2,0.8,0.2,0.2,0.2,0.8","1","",""
"","html-keyboard-response","13","22595","0.0-13.0","3N2BF7Y2VRGJS5UELSY1THV5SIJMHD","ALVNMQMD3Q3ZE","3THR0FZ95PF7SK0MYRNAOUHTWDJOLG","","null","<img src=""img/land1.png"" style=""width:200px; border:14px solid green;"">","null","","","","","","","","","",""
"","image-keyboard-response","14","22808","0.0-14.0","3N2BF7Y2VRGJS5UELSY1THV5SIJMHD","ALVNMQMD3Q3ZE","3THR0FZ95PF7SK0MYRNAOUHTWDJOLG","","211.09999990463257","img/land3.png","75","212.20000004768372","2","0","1","1","0.8,0.2,0.2,0.2,0.8,0.2,0.2,0.2,0.8","0.8,0.2,0.2,0.2,0.8,0.2,0.2,0.2,0.8","1","",""
"","html-keyboard-response","15","23113","0.0-15.0","3N2BF7Y2VRGJS5UELSY1THV5SIJMHD","ALVNMQMD3Q3ZE","3THR0FZ95PF7SK0MYRNAOUHTWDJOLG","","null","<img src=""img/land3.png"" style=""width:200px;border:14px solid red;"">","null","","","","","","","","","",""
"","image-keyboard-response","16","23658","0.0-16.0","3N2BF7Y2VRGJS5UELSY1THV5SIJMHD","ALVNMQMD3Q3ZE","3THR0FZ95PF7SK0MYRNAOUHTWDJOLG","","544","img/land2.png","74","544.9000000953674","1","0","3","1","0.8,0.2,0.2,0.2,0.8,0.2,0.2,0.2,0.8","0.8,0.2,0.2,0.2,0.8,0.2,0.2,0.2,0.8","1","",""
"","html-keyboard-response","17","23972","0.0-17.0","3N2BF7Y2VRGJS5UELSY1THV5SIJMHD","ALVNMQMD3Q3ZE","3THR0FZ95PF7SK0MYRNAOUHTWDJOLG","","null","<img src=""img/land2.png"" style=""width:200px;border:14px solid red;"">","null","","","","","","","","","",""
"","image-keyboard-response","18","24127","0.0-18.0","3N2BF7Y2VRGJS5UELSY1THV5SIJMHD","ALVNMQMD3Q3ZE","3THR0FZ95PF7SK0MYRNAOUHTWDJOLG","","153.90000009536743","img/land3.png","74","154.79999995231628","1","0","1","1","0.8,0.2,0.2,0.2,0.8,0.2,0.2,0.2,0.8","0.8,0.2,0.2,0.2,0.8,0.2,0.2,0.2,0.8","1","",""
"","html-keyboard-response","19","24436","0.0-19.0","3N2BF7Y2VRGJS5UELSY1THV5SIJMHD","ALVNMQMD3Q3ZE","3THR0FZ95PF7SK0MYRNAOUHTWDJOLG","","null","<img src=""img/land3.png"" style=""width:200px;border:14px solid red;"">","null","","","","","","","","","",""
"","image-keyboard-response","20","24614","0.0-20.0","3N2BF7Y2VRGJS5UELSY1THV5SIJMHD","ALVNMQMD3Q3ZE","3THR0FZ95PF7SK0MYRNAOUHTWDJOLG","","177","img/land3.png","75","178.5","2","1","1","1","0.8,0.2,0.2,0.2,0.8,0.2,0.2,0.2,0.8","0.8,0.2,0.2,0.2,0.8,0.2,0.2,0.2,0.8","1","",""
"","html-keyboard-response","21","24916","0.0-21.0","3N2BF7Y2VRGJS5UELSY1THV5SIJMHD","ALVNMQMD3Q3ZE","3THR0FZ95PF7SK0MYRNAOUHTWDJOLG","","null","<img src=""img/land3.png"" style=""width:200px; border:14px solid green;"">","null","","","","","","","","","",""
"","image-keyboard-response","22","25284","0.0-22.0","3N2BF7Y2VRGJS5UELSY1THV5SIJMHD","ALVNMQMD3Q3ZE","3THR0FZ95PF7SK0MYRNAOUHTWDJOLG","","367.2999999523163","img/land3.png","75","368.2000000476837","2","1","1","1","0.8,0.2,0.2,0.2,0.8,0.2,0.2,0.2,0.8","0.8,0.2,0.2,0.2,0.8,0.2,0.2,0.2,0.8","1","",""
"","html-keyboard-response","23","25586","0.0-23.0","3N2BF7Y2VRGJS5UELSY1THV5SIJMHD","ALVNMQMD3Q3ZE","3THR0FZ95PF7SK0MYRNAOUHTWDJOLG","","null","<img src=""img/land3.png"" style=""width:200px; border:14px solid green;"">","null","","","","","","","","","",""
"","image-keyboard-response","24","25925","0.0-24.0","3N2BF7Y2VRGJS5UELSY1THV5SIJMHD","ALVNMQMD3Q3ZE","3THR0FZ95PF7SK0MYRNAOUHTWDJOLG","","339","img/land2.png","75","339.60000014305115","2","0","3","1","0.8,0.2,0.2,0.2,0.8,0.2,0.2,0.2,0.8","0.8,0.2,0.2,0.2,0.8,0.2,0.2,0.2,0.8","1","",""
"","html-keyboard-response","25","26233","0.0-25.0","3N2BF7Y2VRGJS5UELSY1THV5SIJMHD","ALVNMQMD3Q3ZE","3THR0FZ95PF7SK0MYRNAOUHTWDJOLG","","null","<img src=""img/land2.png"" style=""width:200px;border:14px solid red;"">","null","","","","","","","","","",""
"","image-keyboard-response","26","26473","0.0-26.0","3N2BF7Y2VRGJS5UELSY1THV5SIJMHD","ALVNMQMD3Q3ZE","3THR0FZ95PF7SK0MYRNAOUHTWDJOLG","","238.70000004768372","img/land1.png","74","239.60000014305115","1","0","2","1","0.8,0.2,0.2,0.2,0.8,0.2,0.2,0.2,0.8","0.8,0.2,0.2,0.2,0.8,0.2,0.2,0.2,0.8","1","",""
"","html-keyboard-response","27","26776","0.0-27.0","3N2BF7Y2VRGJS5UELSY1THV5SIJMHD","ALVNMQMD3Q3ZE","3THR0FZ95PF7SK0MYRNAOUHTWDJOLG","","null","<img src=""img/land1.png"" style=""width:200px;border:14px solid red;"">","null","","","","","","","","","",""
"","image-keyboard-response","28","27066","0.0-28.0","3N2BF7Y2VRGJS5UELSY1THV5SIJMHD","ALVNMQMD3Q3ZE","3THR0FZ95PF7SK0MYRNAOUHTWDJOLG","","289.09999990463257","img/land3.png","76","289.90000009536743","3","1","1","1","0.8,0.2,0.2,0.2,0.8,0.2,0.2,0.2,0.8","0.8,0.2,0.2,0.2,0.8,0.2,0.2,0.2,0.8","1","",""
"","html-keyboard-response","29","27381","0.0-29.0","3N2BF7Y2VRGJS5UELSY1THV5SIJMHD","ALVNMQMD3Q3ZE","3THR0FZ95PF7SK0MYRNAOUHTWDJOLG","","null","<img src=""img/land3.png"" style=""width:200px; border:14px solid green;"">","null","","","","","","","","","",""
"","image-keyboard-response","30","27721","0.0-30.0","3N2BF7Y2VRGJS5UELSY1THV5SIJMHD","ALVNMQMD3Q3ZE","3THR0FZ95PF7SK0MYRNAOUHTWDJOLG","","339.59999990463257","img/land3.png","76","340.7000000476837","3","0","1","1","0.8,0.2,0.2,0.2,0.8,0.2,0.2,0.2,0.8","0.8,0.2,0.2,0.2,0.8,0.2,0.2,0.2,0.8","1","",""
"","html-keyboard-response","31","28023","0.0-31.0","3N2BF7Y2VRGJS5UELSY1THV5SIJMHD","ALVNMQMD3Q3ZE","3THR0FZ95PF7SK0MYRNAOUHTWDJOLG","","null","<img src=""img/land3.png"" style=""width:200px;border:14px solid red;"">","null","","","","","","","","","",""
"","image-keyboard-response","32","28127","0.0-32.0","3N2BF7Y2VRGJS5UELSY1THV5SIJMHD","ALVNMQMD3Q3ZE","3THR0FZ95PF7SK0MYRNAOUHTWDJOLG","","102.89999985694885","img/land1.png","75","103.69999980926514","2","1","2","1","0.8,0.2,0.2,0.2,0.8,0.2,0.2,0.2,0.8","0.8,0.2,0.2,0.2,0.8,0.2,0.2,0.2,0.8","1","",""
"","html-keyboard-response","33","28430","0.0-33.0","3N2BF7Y2VRGJS5UELSY1THV5SIJMHD","ALVNMQMD3Q3ZE","3THR0FZ95PF7SK0MYRNAOUHTWDJOLG","","null","<img src=""img/land1.png"" style=""width:200px; border:14px solid green;"">","null","","","","","","","","","",""
"","image-keyboard-response","34","28696","0.0-34.0","3N2BF7Y2VRGJS5UELSY1THV5SIJMHD","ALVNMQMD3Q3ZE","3THR0FZ95PF7SK0MYRNAOUHTWDJOLG","","265.7000000476837","img/land1.png","75","266.59999990463257","2","1","2","1","0.8,0.2,0.2,0.2,0.8,0.2,0.2,0.2,0.8","0.8,0.2,0.2,0.2,0.8,0.2,0.2,0.2,0.8","1","",""
"","html-keyboard-response","35","29005","0.0-35.0","3N2BF7Y2VRGJS5UELSY1THV5SIJMHD","ALVNMQMD3Q3ZE","3THR0FZ95PF7SK0MYRNAOUHTWDJOLG","","null","<img src=""img/land1.png"" style=""width:200px; border:14px solid green;"">","null","","","","","","","","","",""
"","image-keyboard-response","36","29341","0.0-36.0","3N2BF7Y2VRGJS5UELSY1THV5SIJMHD","ALVNMQMD3Q3ZE","3THR0FZ95PF7SK0MYRNAOUHTWDJOLG","","334.69999980926514","img/land1.png","75","335.5","2","1","2","1","0.8,0.2,0.2,0.2,0.8,0.2,0.2,0.2,0.8","0.8,0.2,0.2,0.2,0.8,0.2,0.2,0.2,0.8","1","",""
"","html-keyboard-response","37","29650","0.0-37.0","3N2BF7Y2VRGJS5UELSY1THV5SIJMHD","ALVNMQMD3Q3ZE","3THR0FZ95PF7SK0MYRNAOUHTWDJOLG","","null","<img src=""img/land1.png"" style=""width:200px; border:14px solid green;"">","null","","","","","","","","","",""
"","image-keyboard-response","38","30093","0.0-38.0","3N2BF7Y2VRGJS5UELSY1THV5SIJMHD","ALVNMQMD3Q3ZE","3THR0FZ95PF7SK0MYRNAOUHTWDJOLG","","441.7999999523163","img/land2.png","75","442.7000000476837","2","0","3","1","0.8,0.2,0.2,0.2,0.8,0.2,0.2,0.2,0.8","0.8,0.2,0.2,0.2,0.8,0.2,0.2,0.2,0.8","1","",""
"","html-keyboard-response","39","30394","0.0-39.0","3N2BF7Y2VRGJS5UELSY1THV5SIJMHD","ALVNMQMD3Q3ZE","3THR0FZ95PF7SK0MYRNAOUHTWDJOLG","","null","<img src=""img/land2.png"" style=""width:200px;border:14px solid red;"">","null","","","","","","","","","",""
"","image-keyboard-response","40","30608","0.0-40.0","3N2BF7Y2VRGJS5UELSY1THV5SIJMHD","ALVNMQMD3Q3ZE","3THR0FZ95PF7SK0MYRNAOUHTWDJOLG","","213","img/land1.png","74","213.70000004768372","1","0","2","1","0.8,0.2,0.2,0.2,0.8,0.2,0.2,0.2,0.8","0.8,0.2,0.2,0.2,0.8,0.2,0.2,0.2,0.8","1","",""
"","html-keyboard-response","41","30910","0.0-41.0","3N2BF7Y2VRGJS5UELSY1THV5SIJMHD","ALVNMQMD3Q3ZE","3THR0FZ95PF7SK0MYRNAOUHTWDJOLG","","null","<img src=""img/land1.png"" style=""width:200px;border:14px solid red;"">","null","","","","","","","","","",""
"","image-keyboard-response","42","31073","0.0-42.0","3N2BF7Y2VRGJS5UELSY1THV5SIJMHD","ALVNMQMD3Q3ZE","3THR0FZ95PF7SK0MYRNAOUHTWDJOLG","","161.29999995231628","img/land1.png","74","162.20000004768372","1","0","2","1","0.8,0.2,0.2,0.2,0.8,0.2,0.2,0.2,0.8","0.8,0.2,0.2,0.2,0.8,0.2,0.2,0.2,0.8","1","",""
"","html-keyboard-response","43","31374","0.0-43.0","3N2BF7Y2VRGJS5UELSY1THV5SIJMHD","ALVNMQMD3Q3ZE","3THR0FZ95PF7SK0MYRNAOUHTWDJOLG","","null","<img src=""img/land1.png"" style=""width:200px;border:14px solid red;"">","null","","","","","","","","","",""
"","image-keyboard-response","44","31485","0.0-44.0","3N2BF7Y2VRGJS5UELSY1THV5SIJMHD","ALVNMQMD3Q3ZE","3THR0FZ95PF7SK0MYRNAOUHTWDJOLG","","110.40000009536743","img/land2.png","76","111.29999995231628","3","1","3","1","0.8,0.2,0.2,0.2,0.8,0.2,0.2,0.2,0.8","0.8,0.2,0.2,0.2,0.8,0.2,0.2,0.2,0.8","1","",""
"","html-keyboard-response","45","31786","0.0-45.0","3N2BF7Y2VRGJS5UELSY1THV5SIJMHD","ALVNMQMD3Q3ZE","3THR0FZ95PF7SK0MYRNAOUHTWDJOLG","","null","<img src=""img/land2.png"" style=""width:200px; border:14px solid green;"">","null","","","","","","","","","",""
"","image-keyboard-response","46","32129","0.0-46.0","3N2BF7Y2VRGJS5UELSY1THV5SIJMHD","ALVNMQMD3Q3ZE","3THR0FZ95PF7SK0MYRNAOUHTWDJOLG","","341.5","img/land1.png","76","342.39999985694885","3","1","2","1","0.8,0.2,0.2,0.2,0.8,0.2,0.2,0.2,0.8","0.8,0.2,0.2,0.2,0.8,0.2,0.2,0.2,0.8","1","",""
"","html-keyboard-response","47","32431","0.0-47.0","3N2BF7Y2VRGJS5UELSY1THV5SIJMHD","ALVNMQMD3Q3ZE","3THR0FZ95PF7SK0MYRNAOUHTWDJOLG","","null","<img src=""img/land1.png"" style=""width:200px; border:14px solid green;"">","null","","","","","","","","","",""
"","image-keyboard-response","48","32664","0.0-48.0","3N2BF7Y2VRGJS5UELSY1THV5SIJMHD","ALVNMQMD3Q3ZE","3THR0FZ95PF7SK0MYRNAOUHTWDJOLG","","231.59999990463257","img/land3.png","76","232.40000009536743","3","0","1","1","0.8,0.2,0.2,0.2,0.8,0.2,0.2,0.2,0.8","0.8,0.2,0.2,0.2,0.8,0.2,0.2,0.2,0.8","1","",""
"","html-keyboard-response","49","32966","0.0-49.0","3N2BF7Y2VRGJS5UELSY1THV5SIJMHD","ALVNMQMD3Q3ZE","3THR0FZ95PF7SK0MYRNAOUHTWDJOLG","","null","<img src=""img/land3.png"" style=""width:200px;border:14px solid red;"">","null","","","","","","","","","",""
"","image-keyboard-response","50","33177","0.0-50.0","3N2BF7Y2VRGJS5UELSY1THV5SIJMHD","ALVNMQMD3Q3ZE","3THR0FZ95PF7SK0MYRNAOUHTWDJOLG","","209.39999985694885","img/land2.png","75","210.30000019073486","2","1","3","1","0.8,0.2,0.2,0.2,0.8,0.2,0.2,0.2,0.8","0.8,0.2,0.2,0.2,0.8,0.2,0.2,0.2,0.8","1","",""
"","html-keyboard-response","51","33478","0.0-51.0","3N2BF7Y2VRGJS5UELSY1THV5SIJMHD","ALVNMQMD3Q3ZE","3THR0FZ95PF7SK0MYRNAOUHTWDJOLG","","null","<img src=""img/land2.png"" style=""width:200px; border:14px solid green;"">","null","","","","","","","","","",""
"","image-keyboard-response","52","33720","0.0-52.0","3N2BF7Y2VRGJS5UELSY1THV5SIJMHD","ALVNMQMD3Q3ZE","3THR0FZ95PF7SK0MYRNAOUHTWDJOLG","","241.09999990463257","img/land1.png","74","241.90000009536743","1","0","2","1","0.8,0.2,0.2,0.2,0.8,0.2,0.2,0.2,0.8","0.8,0.2,0.2,0.2,0.8,0.2,0.2,0.2,0.8","1","",""
"","html-keyboard-response","53","34022","0.0-53.0","3N2BF7Y2VRGJS5UELSY1THV5SIJMHD","ALVNMQMD3Q3ZE","3THR0FZ95PF7SK0MYRNAOUHTWDJOLG","","null","<img src=""img/land1.png"" style=""width:200px;border:14px solid red;"">","null","","","","","","","","","",""
"","image-keyboard-response","54","34116","0.0-54.0","3N2BF7Y2VRGJS5UELSY1THV5SIJMHD","ALVNMQMD3Q3ZE","3THR0FZ95PF7SK0MYRNAOUHTWDJOLG","","92.80000019073486","img/land3.png","75","93.60000014305115","2","0","1","1","0.8,0.2,0.2,0.2,0.8,0.2,0.2,0.2,0.8","0.8,0.2,0.2,0.2,0.8,0.2,0.2,0.2,0.8","1","",""
"","html-keyboard-response","55","34418","0.0-55.0","3N2BF7Y2VRGJS5UELSY1THV5SIJMHD","ALVNMQMD3Q3ZE","3THR0FZ95PF7SK0MYRNAOUHTWDJOLG","","null","<img src=""img/land3.png"" style=""width:200px;border:14px solid red;"">","null","","","","","","","","","",""
"","image-keyboard-response","56","34444","0.0-56.0","3N2BF7Y2VRGJS5UELSY1THV5SIJMHD","ALVNMQMD3Q3ZE","3THR0FZ95PF7SK0MYRNAOUHTWDJOLG","","25.200000047683716","img/land3.png","76","26","3","1","1","1","0.8,0.2,0.2,0.2,0.8,0.2,0.2,0.2,0.8","0.8,0.2,0.2,0.2,0.8,0.2,0.2,0.2,0.8","1","",""
"","html-keyboard-response","57","34746","0.0-57.0","3N2BF7Y2VRGJS5UELSY1THV5SIJMHD","ALVNMQMD3Q3ZE","3THR0FZ95PF7SK0MYRNAOUHTWDJOLG","","null","<img src=""img/land3.png"" style=""width:200px; border:14px solid green;"">","null","","","","","","","","","",""
"","image-keyboard-response","58","35137","0.0-58.0","3N2BF7Y2VRGJS5UELSY1THV5SIJMHD","ALVNMQMD3Q3ZE","3THR0FZ95PF7SK0MYRNAOUHTWDJOLG","","389.60000014305115","img/land2.png","75","390.5","2","0","3","1","0.8,0.2,0.2,0.2,0.8,0.2,0.2,0.2,0.8","0.8,0.2,0.2,0.2,0.8,0.2,0.2,0.2,0.8","1","",""
"","html-keyboard-response","59","35440","0.0-59.0","3N2BF7Y2VRGJS5UELSY1THV5SIJMHD","ALVNMQMD3Q3ZE","3THR0FZ95PF7SK0MYRNAOUHTWDJOLG","","null","<img src=""img/land2.png"" style=""width:200px;border:14px solid red;"">","null","","","","","","","","","",""
"","image-keyboard-response","60","35875","0.0-60.0","3N2BF7Y2VRGJS5UELSY1THV5SIJMHD","ALVNMQMD3Q3ZE","3THR0FZ95PF7SK0MYRNAOUHTWDJOLG","","434.30000019073486","img/land2.png","74","435.10000014305115","1","1","3","1","0.8,0.2,0.2,0.2,0.8,0.2,0.2,0.2,0.8","0.8,0.2,0.2,0.2,0.8,0.2,0.2,0.2,0.8","1","",""
"","html-keyboard-response","61","36185","0.0-61.0","3N2BF7Y2VRGJS5UELSY1THV5SIJMHD","ALVNMQMD3Q3ZE","3THR0FZ95PF7SK0MYRNAOUHTWDJOLG","","null","<img src=""img/land2.png"" style=""width:200px; border:14px solid green;"">","null","","","","","","","","","",""
"","image-keyboard-response","62","36598","0.0-62.0","3N2BF7Y2VRGJS5UELSY1THV5SIJMHD","ALVNMQMD3Q3ZE","3THR0FZ95PF7SK0MYRNAOUHTWDJOLG","","412.40000009536743","img/land3.png","74","413.2000000476837","1","1","1","1","0.8,0.2,0.2,0.2,0.8,0.2,0.2,0.2,0.8","0.8,0.2,0.2,0.2,0.8,0.2,0.2,0.2,0.8","1","",""
"","html-keyboard-response","63","36900","0.0-63.0","3N2BF7Y2VRGJS5UELSY1THV5SIJMHD","ALVNMQMD3Q3ZE","3THR0FZ95PF7SK0MYRNAOUHTWDJOLG","","null","<img src=""img/land3.png"" style=""width:200px; border:14px solid green;"">","null","","","","","","","","","",""
"","image-keyboard-response","64","37172","0.0-64.0","3N2BF7Y2VRGJS5UELSY1THV5SIJMHD","ALVNMQMD3Q3ZE","3THR0FZ95PF7SK0MYRNAOUHTWDJOLG","","271.40000009536743","img/land1.png","74","272.10000014305115","1","1","2","1","0.8,0.2,0.2,0.2,0.8,0.2,0.2,0.2,0.8","0.8,0.2,0.2,0.2,0.8,0.2,0.2,0.2,0.8","1","",""
"","html-keyboard-response","65","37474","0.0-65.0","3N2BF7Y2VRGJS5UELSY1THV5SIJMHD","ALVNMQMD3Q3ZE","3THR0FZ95PF7SK0MYRNAOUHTWDJOLG","","null","<img src=""img/land1.png"" style=""width:200px; border:14px solid green;"">","null","","","","","","","","","",""
"","image-keyboard-response","66","37795","0.0-66.0","3N2BF7Y2VRGJS5UELSY1THV5SIJMHD","ALVNMQMD3Q3ZE","3THR0FZ95PF7SK0MYRNAOUHTWDJOLG","","320","img/land2.png","74","320.90000009536743","1","0","3","1","0.8,0.2,0.2,0.2,0.8,0.2,0.2,0.2,0.8","0.8,0.2,0.2,0.2,0.8,0.2,0.2,0.2,0.8","1","",""
"","html-keyboard-response","67","38097","0.0-67.0","3N2BF7Y2VRGJS5UELSY1THV5SIJMHD","ALVNMQMD3Q3ZE","3THR0FZ95PF7SK0MYRNAOUHTWDJOLG","","null","<img src=""img/land2.png"" style=""width:200px;border:14px solid red;"">","null","","","","","","","","","",""
"","image-keyboard-response","68","38642","0.0-68.0","3N2BF7Y2VRGJS5UELSY1THV5SIJMHD","ALVNMQMD3Q3ZE","3THR0FZ95PF7SK0MYRNAOUHTWDJOLG","","544.6000001430511","img/land2.png","75","545.4000000953674","2","0","3","1","0.8,0.2,0.2,0.2,0.8,0.2,0.2,0.2,0.8","0.8,0.2,0.2,0.2,0.8,0.2,0.2,0.2,0.8","1","",""
"","html-keyboard-response","69","38944","0.0-69.0","3N2BF7Y2VRGJS5UELSY1THV5SIJMHD","ALVNMQMD3Q3ZE","3THR0FZ95PF7SK0MYRNAOUHTWDJOLG","","null","<img src=""img/land2.png"" style=""width:200px;border:14px solid red;"">","null","","","","","","","","","",""
"","image-keyboard-response","70","39156","0.0-70.0","3N2BF7Y2VRGJS5UELSY1THV5SIJMHD","ALVNMQMD3Q3ZE","3THR0FZ95PF7SK0MYRNAOUHTWDJOLG","","210.90000009536743","img/land3.png","74","211.80000019073486","1","1","1","1","0.8,0.2,0.2,0.2,0.8,0.2,0.2,0.2,0.8","0.8,0.2,0.2,0.2,0.8,0.2,0.2,0.2,0.8","1","",""
"","html-keyboard-response","71","39459","0.0-71.0","3N2BF7Y2VRGJS5UELSY1THV5SIJMHD","ALVNMQMD3Q3ZE","3THR0FZ95PF7SK0MYRNAOUHTWDJOLG","","null","<img src=""img/land3.png"" style=""width:200px; border:14px solid green;"">","null","","","","","","","","","",""
"","image-keyboard-response","72","39962","0.0-72.0","3N2BF7Y2VRGJS5UELSY1THV5SIJMHD","ALVNMQMD3Q3ZE","3THR0FZ95PF7SK0MYRNAOUHTWDJOLG","","502.10000014305115","img/land2.png","74","502.90000009536743","1","0","3","1","0.8,0.2,0.2,0.2,0.8,0.2,0.2,0.2,0.8","0.8,0.2,0.2,0.2,0.8,0.2,0.2,0.2,0.8","1","",""
"","html-keyboard-response","73","40265","0.0-73.0","3N2BF7Y2VRGJS5UELSY1THV5SIJMHD","ALVNMQMD3Q3ZE","3THR0FZ95PF7SK0MYRNAOUHTWDJOLG","","null","<img src=""img/land2.png"" style=""width:200px;border:14px solid red;"">","null","","","","","","","","","",""
"","image-keyboard-response","74","40563","0.0-74.0","3N2BF7Y2VRGJS5UELSY1THV5SIJMHD","ALVNMQMD3Q3ZE","3THR0FZ95PF7SK0MYRNAOUHTWDJOLG","","297.90000009536743","img/land3.png","74","298.60000014305115","1","1","1","1","0.8,0.2,0.2,0.2,0.8,0.2,0.2,0.2,0.8","0.8,0.2,0.2,0.2,0.8,0.2,0.2,0.2,0.8","1","",""
"","html-keyboard-response","75","40866","0.0-75.0","3N2BF7Y2VRGJS5UELSY1THV5SIJMHD","ALVNMQMD3Q3ZE","3THR0FZ95PF7SK0MYRNAOUHTWDJOLG","","null","<img src=""img/land3.png"" style=""width:200px; border:14px solid green;"">","null","","","","","","","","","",""
"","image-keyboard-response","76","41151","0.0-76.0","3N2BF7Y2VRGJS5UELSY1THV5SIJMHD","ALVNMQMD3Q3ZE","3THR0FZ95PF7SK0MYRNAOUHTWDJOLG","","284.2000000476837","img/land1.png","74","285","1","0","2","1","0.8,0.2,0.2,0.2,0.8,0.2,0.2,0.2,0.8","0.8,0.2,0.2,0.2,0.8,0.2,0.2,0.2,0.8","1","",""
"","html-keyboard-response","77","41453","0.0-77.0","3N2BF7Y2VRGJS5UELSY1THV5SIJMHD","ALVNMQMD3Q3ZE","3THR0FZ95PF7SK0MYRNAOUHTWDJOLG","","null","<img src=""img/land1.png"" style=""width:200px;border:14px solid red;"">","null","","","","","","","","","",""
"","image-keyboard-response","78","42177","0.0-78.0","3N2BF7Y2VRGJS5UELSY1THV5SIJMHD","ALVNMQMD3Q3ZE","3THR0FZ95PF7SK0MYRNAOUHTWDJOLG","","723.1000001430511","img/land1.png","76","724.0999999046326","3","0","2","1","0.8,0.2,0.2,0.2,0.8,0.2,0.2,0.2,0.8","0.8,0.2,0.2,0.2,0.8,0.2,0.2,0.2,0.8","1","",""
"","html-keyboard-response","79","42479","0.0-79.0","3N2BF7Y2VRGJS5UELSY1THV5SIJMHD","ALVNMQMD3Q3ZE","3THR0FZ95PF7SK0MYRNAOUHTWDJOLG","","null","<img src=""img/land1.png"" style=""width:200px;border:14px solid red;"">","null","","","","","","","","","",""
"","image-keyboard-response","80","42693","0.0-80.0","3N2BF7Y2VRGJS5UELSY1THV5SIJMHD","ALVNMQMD3Q3ZE","3THR0FZ95PF7SK0MYRNAOUHTWDJOLG","","213","img/land2.png","75","214.20000004768372","2","0","3","1","0.8,0.2,0.2,0.2,0.8,0.2,0.2,0.2,0.8","0.8,0.2,0.2,0.2,0.8,0.2,0.2,0.2,0.8","1","",""
"","html-keyboard-response","81","42996","0.0-81.0","3N2BF7Y2VRGJS5UELSY1THV5SIJMHD","ALVNMQMD3Q3ZE","3THR0FZ95PF7SK0MYRNAOUHTWDJOLG","","null","<img src=""img/land2.png"" style=""width:200px;border:14px solid red;"">","null","","","","","","","","","",""
"","image-keyboard-response","82","43147","0.0-82.0","3N2BF7Y2VRGJS5UELSY1THV5SIJMHD","ALVNMQMD3Q3ZE","3THR0FZ95PF7SK0MYRNAOUHTWDJOLG","","150.70000004768372","img/land2.png","74","151.80000019073486","1","0","3","1","0.8,0.2,0.2,0.2,0.8,0.2,0.2,0.2,0.8","0.8,0.2,0.2,0.2,0.8,0.2,0.2,0.2,0.8","1","",""
"","html-keyboard-response","83","43450","0.0-83.0","3N2BF7Y2VRGJS5UELSY1THV5SIJMHD","ALVNMQMD3Q3ZE","3THR0FZ95PF7SK0MYRNAOUHTWDJOLG","","null","<img src=""img/land2.png"" style=""width:200px;border:14px solid red;"">","null","","","","","","","","","",""
"","image-keyboard-response","84","43696","0.0-84.0","3N2BF7Y2VRGJS5UELSY1THV5SIJMHD","ALVNMQMD3Q3ZE","3THR0FZ95PF7SK0MYRNAOUHTWDJOLG","","245.69999980926514","img/land2.png","75","246.29999995231628","2","0","3","1","0.8,0.2,0.2,0.2,0.8,0.2,0.2,0.2,0.8","0.8,0.2,0.2,0.2,0.8,0.2,0.2,0.2,0.8","1","",""
"","html-keyboard-response","85","43998","0.0-85.0","3N2BF7Y2VRGJS5UELSY1THV5SIJMHD","ALVNMQMD3Q3ZE","3THR0FZ95PF7SK0MYRNAOUHTWDJOLG","","null","<img src=""img/land2.png"" style=""width:200px;border:14px solid red;"">","null","","","","","","","","","",""
"","image-keyboard-response","86","44327","0.0-86.0","3N2BF7Y2VRGJS5UELSY1THV5SIJMHD","ALVNMQMD3Q3ZE","3THR0FZ95PF7SK0MYRNAOUHTWDJOLG","","328.90000009536743","img/land2.png","75","329.7000000476837","2","1","3","1","0.8,0.2,0.2,0.2,0.8,0.2,0.2,0.2,0.8","0.8,0.2,0.2,0.2,0.8,0.2,0.2,0.2,0.8","1","",""
"","html-keyboard-response","87","44644","0.0-87.0","3N2BF7Y2VRGJS5UELSY1THV5SIJMHD","ALVNMQMD3Q3ZE","3THR0FZ95PF7SK0MYRNAOUHTWDJOLG","","null","<img src=""img/land2.png"" style=""width:200px; border:14px solid green;"">","null","","","","","","","","","",""
"","image-keyboard-response","88","45040","0.0-88.0","3N2BF7Y2VRGJS5UELSY1THV5SIJMHD","ALVNMQMD3Q3ZE","3THR0FZ95PF7SK0MYRNAOUHTWDJOLG","","394.7000000476837","img/land3.png","75","396.09999990463257","2","0","1","1","0.8,0.2,0.2,0.2,0.8,0.2,0.2,0.2,0.8","0.8,0.2,0.2,0.2,0.8,0.2,0.2,0.2,0.8","1","",""
"","html-keyboard-response","89","45342","0.0-89.0","3N2BF7Y2VRGJS5UELSY1THV5SIJMHD","ALVNMQMD3Q3ZE","3THR0FZ95PF7SK0MYRNAOUHTWDJOLG","","null","<img src=""img/land3.png"" style=""width:200px;border:14px solid red;"">","null","","","","","","","","","",""
"","image-keyboard-response","90","45508","0.0-90.0","3N2BF7Y2VRGJS5UELSY1THV5SIJMHD","ALVNMQMD3Q3ZE","3THR0FZ95PF7SK0MYRNAOUHTWDJOLG","","165.20000004768372","img/land2.png","74","165.90000009536743","1","0","3","1","0.8,0.2,0.2,0.2,0.8,0.2,0.2,0.2,0.8","0.8,0.2,0.2,0.2,0.8,0.2,0.2,0.2,0.8","1","",""
"","html-keyboard-response","91","45810","0.0-91.0","3N2BF7Y2VRGJS5UELSY1THV5SIJMHD","ALVNMQMD3Q3ZE","3THR0FZ95PF7SK0MYRNAOUHTWDJOLG","","null","<img src=""img/land2.png"" style=""width:200px;border:14px solid red;"">","null","","","","","","","","","",""
"","image-keyboard-response","92","46035","0.0-92.0","3N2BF7Y2VRGJS5UELSY1THV5SIJMHD","ALVNMQMD3Q3ZE","3THR0FZ95PF7SK0MYRNAOUHTWDJOLG","","223.5","img/land1.png","74","224.29999995231628","1","1","2","1","0.8,0.2,0.2,0.2,0.8,0.2,0.2,0.2,0.8","0.8,0.2,0.2,0.2,0.8,0.2,0.2,0.2,0.8","1","",""
"","html-keyboard-response","93","46337","0.0-93.0","3N2BF7Y2VRGJS5UELSY1THV5SIJMHD","ALVNMQMD3Q3ZE","3THR0FZ95PF7SK0MYRNAOUHTWDJOLG","","null","<img src=""img/land1.png"" style=""width:200px; border:14px solid green;"">","null","","","","","","","","","",""
"","image-keyboard-response","94","46567","0.0-94.0","3N2BF7Y2VRGJS5UELSY1THV5SIJMHD","ALVNMQMD3Q3ZE","3THR0FZ95PF7SK0MYRNAOUHTWDJOLG","","229.20000004768372","img/land1.png","74","229.90000009536743","1","1","2","1","0.8,0.2,0.2,0.2,0.8,0.2,0.2,0.2,0.8","0.8,0.2,0.2,0.2,0.8,0.2,0.2,0.2,0.8","1","",""
"","html-keyboard-response","95","46873","0.0-95.0","3N2BF7Y2VRGJS5UELSY1THV5SIJMHD","ALVNMQMD3Q3ZE","3THR0FZ95PF7SK0MYRNAOUHTWDJOLG","","null","<img src=""img/land1.png"" style=""width:200px; border:14px solid green;"">","null","","","","","","","","","",""
"","image-keyboard-response","96","47106","0.0-96.0","3N2BF7Y2VRGJS5UELSY1THV5SIJMHD","ALVNMQMD3Q3ZE","3THR0FZ95PF7SK0MYRNAOUHTWDJOLG","","231.69999980926514","img/land2.png","74","232.59999990463257","1","1","3","1","0.8,0.2,0.2,0.2,0.8,0.2,0.2,0.2,0.8","0.8,0.2,0.2,0.2,0.8,0.2,0.2,0.2,0.8","1","",""
"","html-keyboard-response","97","47407","0.0-97.0","3N2BF7Y2VRGJS5UELSY1THV5SIJMHD","ALVNMQMD3Q3ZE","3THR0FZ95PF7SK0MYRNAOUHTWDJOLG","","null","<img src=""img/land2.png"" style=""width:200px; border:14px solid green;"">","null","","","","","","","","","",""
"","image-keyboard-response","98","47587","0.0-98.0","3N2BF7Y2VRGJS5UELSY1THV5SIJMHD","ALVNMQMD3Q3ZE","3THR0FZ95PF7SK0MYRNAOUHTWDJOLG","","178.90000009536743","img/land3.png","74","180","1","1","1","1","0.8,0.2,0.2,0.2,0.8,0.2,0.2,0.2,0.8","0.8,0.2,0.2,0.2,0.8,0.2,0.2,0.2,0.8","1","",""
"","html-keyboard-response","99","47889","0.0-99.0","3N2BF7Y2VRGJS5UELSY1THV5SIJMHD","ALVNMQMD3Q3ZE","3THR0FZ95PF7SK0MYRNAOUHTWDJOLG","","null","<img src=""img/land3.png"" style=""width:200px; border:14px solid green;"">","null","","","","","","","","","",""
"","image-keyboard-response","100","48050","0.0-100.0","3N2BF7Y2VRGJS5UELSY1THV5SIJMHD","ALVNMQMD3Q3ZE","3THR0FZ95PF7SK0MYRNAOUHTWDJOLG","","159.90000009536743","img/land2.png","74","160.59999990463257","1","0","3","1","0.8,0.2,0.2,0.2,0.8,0.2,0.2,0.2,0.8","0.8,0.2,0.2,0.2,0.8,0.2,0.2,0.2,0.8","1","",""
"","html-keyboard-response","101","48352","0.0-101.0","3N2BF7Y2VRGJS5UELSY1THV5SIJMHD","ALVNMQMD3Q3ZE","3THR0FZ95PF7SK0MYRNAOUHTWDJOLG","","null","<img src=""img/land2.png"" style=""width:200px;border:14px solid red;"">","null","","","","","","","","","",""
"","image-keyboard-response","102","48824","0.0-102.0","3N2BF7Y2VRGJS5UELSY1THV5SIJMHD","ALVNMQMD3Q3ZE","3THR0FZ95PF7SK0MYRNAOUHTWDJOLG","","470.30000019073486","img/land1.png","75","471.2000000476837","2","1","2","1","0.8,0.2,0.2,0.2,0.8,0.2,0.2,0.2,0.8","0.8,0.2,0.2,0.2,0.8,0.2,0.2,0.2,0.8","1","",""
"","html-keyboard-response","103","49125","0.0-103.0","3N2BF7Y2VRGJS5UELSY1THV5SIJMHD","ALVNMQMD3Q3ZE","3THR0FZ95PF7SK0MYRNAOUHTWDJOLG","","null","<img src=""img/land1.png"" style=""width:200px; border:14px solid green;"">","null","","","","","","","","","",""
"","image-keyboard-response","104","49220","0.0-104.0","3N2BF7Y2VRGJS5UELSY1THV5SIJMHD","ALVNMQMD3Q3ZE","3THR0FZ95PF7SK0MYRNAOUHTWDJOLG","","93.70000004768372","img/land1.png","74","94.79999995231628","1","0","2","1","0.8,0.2,0.2,0.2,0.8,0.2,0.2,0.2,0.8","0.8,0.2,0.2,0.2,0.8,0.2,0.2,0.2,0.8","1","",""
"","html-keyboard-response","105","49522","0.0-105.0","3N2BF7Y2VRGJS5UELSY1THV5SIJMHD","ALVNMQMD3Q3ZE","3THR0FZ95PF7SK0MYRNAOUHTWDJOLG","","null","<img src=""img/land1.png"" style=""width:200px;border:14px solid red;"">","null","","","","","","","","","",""
"","image-keyboard-response","106","49719","0.0-106.0","3N2BF7Y2VRGJS5UELSY1THV5SIJMHD","ALVNMQMD3Q3ZE","3THR0FZ95PF7SK0MYRNAOUHTWDJOLG","","195.29999995231628","img/land2.png","74","196","1","0","3","1","0.8,0.2,0.2,0.2,0.8,0.2,0.2,0.2,0.8","0.8,0.2,0.2,0.2,0.8,0.2,0.2,0.2,0.8","1","",""
"","html-keyboard-response","107","50020","0.0-107.0","3N2BF7Y2VRGJS5UELSY1THV5SIJMHD","ALVNMQMD3Q3ZE","3THR0FZ95PF7SK0MYRNAOUHTWDJOLG","","null","<img src=""img/land2.png"" style=""width:200px;border:14px solid red;"">","null","","","","","","","","","",""
"","image-keyboard-response","108","50142","0.0-108.0","3N2BF7Y2VRGJS5UELSY1THV5SIJMHD","ALVNMQMD3Q3ZE","3THR0FZ95PF7SK0MYRNAOUHTWDJOLG","","120.09999990463257","img/land1.png","74","121.69999980926514","1","0","2","1","0.8,0.2,0.2,0.2,0.8,0.2,0.2,0.2,0.8","0.8,0.2,0.2,0.2,0.8,0.2,0.2,0.2,0.8","1","",""
"","html-keyboard-response","109","50444","0.0-109.0","3N2BF7Y2VRGJS5UELSY1THV5SIJMHD","ALVNMQMD3Q3ZE","3THR0FZ95PF7SK0MYRNAOUHTWDJOLG","","null","<img src=""img/land1.png"" style=""width:200px;border:14px solid red;"">","null","","","","","","","","","",""
"","image-keyboard-response","110","50650","0.0-110.0","3N2BF7Y2VRGJS5UELSY1THV5SIJMHD","ALVNMQMD3Q3ZE","3THR0FZ95PF7SK0MYRNAOUHTWDJOLG","","204.70000004768372","img/land2.png","74","205.70000004768372","1","0","3","1","0.8,0.2,0.2,0.2,0.8,0.2,0.2,0.2,0.8","0.8,0.2,0.2,0.2,0.8,0.2,0.2,0.2,0.8","1","",""
"","html-keyboard-response","111","50951","0.0-111.0","3N2BF7Y2VRGJS5UELSY1THV5SIJMHD","ALVNMQMD3Q3ZE","3THR0FZ95PF7SK0MYRNAOUHTWDJOLG","","null","<img src=""img/land2.png"" style=""width:200px;border:14px solid red;"">","null","","","","","","","","","",""
"","image-keyboard-response","112","51406","0.0-112.0","3N2BF7Y2VRGJS5UELSY1THV5SIJMHD","ALVNMQMD3Q3ZE","3THR0FZ95PF7SK0MYRNAOUHTWDJOLG","","453.89999985694885","img/land3.png","76","454.7999999523163","3","0","1","1","0.8,0.2,0.2,0.2,0.8,0.2,0.2,0.2,0.8","0.8,0.2,0.2,0.2,0.8,0.2,0.2,0.2,0.8","1","",""
"","html-keyboard-response","113","51709","0.0-113.0","3N2BF7Y2VRGJS5UELSY1THV5SIJMHD","ALVNMQMD3Q3ZE","3THR0FZ95PF7SK0MYRNAOUHTWDJOLG","","null","<img src=""img/land3.png"" style=""width:200px;border:14px solid red;"">","null","","","","","","","","","",""
"","image-keyboard-response","114","51800","0.0-114.0","3N2BF7Y2VRGJS5UELSY1THV5SIJMHD","ALVNMQMD3Q3ZE","3THR0FZ95PF7SK0MYRNAOUHTWDJOLG","","89.70000004768372","img/land2.png","75","90.80000019073486","2","1","3","1","0.8,0.2,0.2,0.2,0.8,0.2,0.2,0.2,0.8","0.8,0.2,0.2,0.2,0.8,0.2,0.2,0.2,0.8","1","",""
"","html-keyboard-response","115","52102","0.0-115.0","3N2BF7Y2VRGJS5UELSY1THV5SIJMHD","ALVNMQMD3Q3ZE","3THR0FZ95PF7SK0MYRNAOUHTWDJOLG","","null","<img src=""img/land2.png"" style=""width:200px; border:14px solid green;"">","null","","","","","","","","","",""
"","image-keyboard-response","116","52193","0.0-116.0","3N2BF7Y2VRGJS5UELSY1THV5SIJMHD","ALVNMQMD3Q3ZE","3THR0FZ95PF7SK0MYRNAOUHTWDJOLG","","89.79999995231628","img/land2.png","74","91.09999990463257","1","0","3","1","0.8,0.2,0.2,0.2,0.8,0.2,0.2,0.2,0.8","0.8,0.2,0.2,0.2,0.8,0.2,0.2,0.2,0.8","1","",""
"","html-keyboard-response","117","52495","0.0-117.0","3N2BF7Y2VRGJS5UELSY1THV5SIJMHD","ALVNMQMD3Q3ZE","3THR0FZ95PF7SK0MYRNAOUHTWDJOLG","","null","<img src=""img/land2.png"" style=""width:200px;border:14px solid red;"">","null","","","","","","","","","",""
"","image-keyboard-response","118","52561","0.0-118.0","3N2BF7Y2VRGJS5UELSY1THV5SIJMHD","ALVNMQMD3Q3ZE","3THR0FZ95PF7SK0MYRNAOUHTWDJOLG","","64.29999995231628","img/land1.png","75","65.79999995231628","2","1","2","1","0.8,0.2,0.2,0.2,0.8,0.2,0.2,0.2,0.8","0.8,0.2,0.2,0.2,0.8,0.2,0.2,0.2,0.8","1","",""
"","html-keyboard-response","119","52864","0.0-119.0","3N2BF7Y2VRGJS5UELSY1THV5SIJMHD","ALVNMQMD3Q3ZE","3THR0FZ95PF7SK0MYRNAOUHTWDJOLG","","null","<img src=""img/land1.png"" style=""width:200px; border:14px solid green;"">","null","","","","","","","","","",""
"","image-keyboard-response","120","52933","0.0-120.0","3N2BF7Y2VRGJS5UELSY1THV5SIJMHD","ALVNMQMD3Q3ZE","3THR0FZ95PF7SK0MYRNAOUHTWDJOLG","","67.90000009536743","img/land1.png","76","69.10000014305115","3","0","2","1","0.8,0.2,0.2,0.2,0.8,0.2,0.2,0.2,0.8","0.8,0.2,0.2,0.2,0.8,0.2,0.2,0.2,0.8","1","",""
"","html-keyboard-response","121","53234","0.0-121.0","3N2BF7Y2VRGJS5UELSY1THV5SIJMHD","ALVNMQMD3Q3ZE","3THR0FZ95PF7SK0MYRNAOUHTWDJOLG","","null","<img src=""img/land1.png"" style=""width:200px;border:14px solid red;"">","null","","","","","","","","","",""
"","image-keyboard-response","122","53321","0.0-122.0","3N2BF7Y2VRGJS5UELSY1THV5SIJMHD","ALVNMQMD3Q3ZE","3THR0FZ95PF7SK0MYRNAOUHTWDJOLG","","85.29999995231628","img/land2.png","75","86","2","0","3","1","0.8,0.2,0.2,0.2,0.8,0.2,0.2,0.2,0.8","0.8,0.2,0.2,0.2,0.8,0.2,0.2,0.2,0.8","1","",""
"","html-keyboard-response","123","53622","0.0-123.0","3N2BF7Y2VRGJS5UELSY1THV5SIJMHD","ALVNMQMD3Q3ZE","3THR0FZ95PF7SK0MYRNAOUHTWDJOLG","","null","<img src=""img/land2.png"" style=""width:200px;border:14px solid red;"">","null","","","","","","","","","",""
"","image-keyboard-response","124","53681","0.0-124.0","3N2BF7Y2VRGJS5UELSY1THV5SIJMHD","ALVNMQMD3Q3ZE","3THR0FZ95PF7SK0MYRNAOUHTWDJOLG","","57.5","img/land3.png","75","58.90000009536743","2","0","1","1","0.8,0.2,0.2,0.2,0.8,0.2,0.2,0.2,0.8","0.8,0.2,0.2,0.2,0.8,0.2,0.2,0.2,0.8","1","",""
"","html-keyboard-response","125","53984","0.0-125.0","3N2BF7Y2VRGJS5UELSY1THV5SIJMHD","ALVNMQMD3Q3ZE","3THR0FZ95PF7SK0MYRNAOUHTWDJOLG","","null","<img src=""img/land3.png"" style=""width:200px;border:14px solid red;"">","null","","","","","","","","","",""
"","image-keyboard-response","126","54638","0.0-126.0","3N2BF7Y2VRGJS5UELSY1THV5SIJMHD","ALVNMQMD3Q3ZE","3THR0FZ95PF7SK0MYRNAOUHTWDJOLG","","653.2999999523163","img/land3.png","74","654.2000000476837","1","1","1","1","0.8,0.2,0.2,0.2,0.8,0.2,0.2,0.2,0.8","0.8,0.2,0.2,0.2,0.8,0.2,0.2,0.2,0.8","1","",""
"","html-keyboard-response","127","54940","0.0-127.0","3N2BF7Y2VRGJS5UELSY1THV5SIJMHD","ALVNMQMD3Q3ZE","3THR0FZ95PF7SK0MYRNAOUHTWDJOLG","","null","<img src=""img/land3.png"" style=""width:200px; border:14px solid green;"">","null","","","","","","","","","",""
"","image-keyboard-response","128","55357","0.0-128.0","3N2BF7Y2VRGJS5UELSY1THV5SIJMHD","ALVNMQMD3Q3ZE","3THR0FZ95PF7SK0MYRNAOUHTWDJOLG","","415.90000009536743","img/land1.png","74","416.7000000476837","1","0","2","1","0.8,0.2,0.2,0.2,0.8,0.2,0.2,0.2,0.8","0.8,0.2,0.2,0.2,0.8,0.2,0.2,0.2,0.8","1","",""
"","html-keyboard-response","129","55659","0.0-129.0","3N2BF7Y2VRGJS5UELSY1THV5SIJMHD","ALVNMQMD3Q3ZE","3THR0FZ95PF7SK0MYRNAOUHTWDJOLG","","null","<img src=""img/land1.png"" style=""width:200px;border:14px solid red;"">","null","","","","","","","","","",""
"","image-keyboard-response","130","56584","0.0-130.0","3N2BF7Y2VRGJS5UELSY1THV5SIJMHD","ALVNMQMD3Q3ZE","3THR0FZ95PF7SK0MYRNAOUHTWDJOLG","","923.9000000953674","img/land3.png","74","924.7000000476837","1","1","1","1","0.8,0.2,0.2,0.2,0.8,0.2,0.2,0.2,0.8","0.8,0.2,0.2,0.2,0.8,0.2,0.2,0.2,0.8","1","",""
"","html-keyboard-response","131","56885","0.0-131.0","3N2BF7Y2VRGJS5UELSY1THV5SIJMHD","ALVNMQMD3Q3ZE","3THR0FZ95PF7SK0MYRNAOUHTWDJOLG","","null","<img src=""img/land3.png"" style=""width:200px; border:14px solid green;"">","null","","","","","","","","","",""
"","image-keyboard-response","132","57356","0.0-132.0","3N2BF7Y2VRGJS5UELSY1THV5SIJMHD","ALVNMQMD3Q3ZE","3THR0FZ95PF7SK0MYRNAOUHTWDJOLG","","469.7000000476837","img/land3.png","74","470.60000014305115","1","1","1","1","0.8,0.2,0.2,0.2,0.8,0.2,0.2,0.2,0.8","0.8,0.2,0.2,0.2,0.8,0.2,0.2,0.2,0.8","1","",""
"","html-keyboard-response","133","57658","0.0-133.0","3N2BF7Y2VRGJS5UELSY1THV5SIJMHD","ALVNMQMD3Q3ZE","3THR0FZ95PF7SK0MYRNAOUHTWDJOLG","","null","<img src=""img/land3.png"" style=""width:200px; border:14px solid green;"">","null","","","","","","","","","",""
"","image-keyboard-response","134","58474","0.0-134.0","3N2BF7Y2VRGJS5UELSY1THV5SIJMHD","ALVNMQMD3Q3ZE","3THR0FZ95PF7SK0MYRNAOUHTWDJOLG","","813.8999998569489","img/land1.png","75","815.6999998092651","2","1","2","1","0.8,0.2,0.2,0.2,0.8,0.2,0.2,0.2,0.8","0.8,0.2,0.2,0.2,0.8,0.2,0.2,0.2,0.8","1","",""
"","html-keyboard-response","135","58775","0.0-135.0","3N2BF7Y2VRGJS5UELSY1THV5SIJMHD","ALVNMQMD3Q3ZE","3THR0FZ95PF7SK0MYRNAOUHTWDJOLG","","null","<img src=""img/land1.png"" style=""width:200px; border:14px solid green;"">","null","","","","","","","","","",""
"","image-keyboard-response","136","59720","0.0-136.0","3N2BF7Y2VRGJS5UELSY1THV5SIJMHD","ALVNMQMD3Q3ZE","3THR0FZ95PF7SK0MYRNAOUHTWDJOLG","","943.7000000476837","img/land1.png","75","944.4000000953674","2","1","2","1","0.8,0.2,0.2,0.2,0.8,0.2,0.2,0.2,0.8","0.8,0.2,0.2,0.2,0.8,0.2,0.2,0.2,0.8","1","",""
"","html-keyboard-response","137","60021","0.0-137.0","3N2BF7Y2VRGJS5UELSY1THV5SIJMHD","ALVNMQMD3Q3ZE","3THR0FZ95PF7SK0MYRNAOUHTWDJOLG","","null","<img src=""img/land1.png"" style=""width:200px; border:14px solid green;"">","null","","","","","","","","","",""
"","image-keyboard-response","138","60612","0.0-138.0","3N2BF7Y2VRGJS5UELSY1THV5SIJMHD","ALVNMQMD3Q3ZE","3THR0FZ95PF7SK0MYRNAOUHTWDJOLG","","589.8000001907349","img/land3.png","74","590.5999999046326","1","1","1","1","0.8,0.2,0.2,0.2,0.8,0.2,0.2,0.2,0.8","0.8,0.2,0.2,0.2,0.8,0.2,0.2,0.2,0.8","1","",""
"","html-keyboard-response","139","60914","0.0-139.0","3N2BF7Y2VRGJS5UELSY1THV5SIJMHD","ALVNMQMD3Q3ZE","3THR0FZ95PF7SK0MYRNAOUHTWDJOLG","","null","<img src=""img/land3.png"" style=""width:200px; border:14px solid green;"">","null","","","","","","","","","",""
"","image-keyboard-response","140","61422","0.0-140.0","3N2BF7Y2VRGJS5UELSY1THV5SIJMHD","ALVNMQMD3Q3ZE","3THR0FZ95PF7SK0MYRNAOUHTWDJOLG","","507.39999985694885","img/land3.png","74","508.30000019073486","1","0","1","1","0.8,0.2,0.2,0.2,0.8,0.2,0.2,0.2,0.8","0.8,0.2,0.2,0.2,0.8,0.2,0.2,0.2,0.8","1","",""
"","html-keyboard-response","141","61725","0.0-141.0","3N2BF7Y2VRGJS5UELSY1THV5SIJMHD","ALVNMQMD3Q3ZE","3THR0FZ95PF7SK0MYRNAOUHTWDJOLG","","null","<img src=""img/land3.png"" style=""width:200px;border:14px solid red;"">","null","","","","","","","","","",""
"","image-keyboard-response","142","62731","0.0-142.0","3N2BF7Y2VRGJS5UELSY1THV5SIJMHD","ALVNMQMD3Q3ZE","3THR0FZ95PF7SK0MYRNAOUHTWDJOLG","","1005.7000000476837","img/land3.png","75","1006.2999999523163","2","0","1","1","0.8,0.2,0.2,0.2,0.8,0.2,0.2,0.2,0.8","0.8,0.2,0.2,0.2,0.8,0.2,0.2,0.2,0.8","1","",""
"","html-keyboard-response","143","63034","0.0-143.0","3N2BF7Y2VRGJS5UELSY1THV5SIJMHD","ALVNMQMD3Q3ZE","3THR0FZ95PF7SK0MYRNAOUHTWDJOLG","","null","<img src=""img/land3.png"" style=""width:200px;border:14px solid red;"">","null","","","","","","","","","",""
"","image-keyboard-response","144","63353","0.0-144.0","3N2BF7Y2VRGJS5UELSY1THV5SIJMHD","ALVNMQMD3Q3ZE","3THR0FZ95PF7SK0MYRNAOUHTWDJOLG","","318.2000000476837","img/land3.png","74","320.30000019073486","1","1","1","1","0.8,0.2,0.2,0.2,0.8,0.2,0.2,0.2,0.8","0.8,0.2,0.2,0.2,0.8,0.2,0.2,0.2,0.8","1","",""
"","html-keyboard-response","145","63656","0.0-145.0","3N2BF7Y2VRGJS5UELSY1THV5SIJMHD","ALVNMQMD3Q3ZE","3THR0FZ95PF7SK0MYRNAOUHTWDJOLG","","null","<img src=""img/land3.png"" style=""width:200px; border:14px solid green;"">","null","","","","","","","","","",""
"","image-keyboard-response","146","63949","0.0-146.0","3N2BF7Y2VRGJS5UELSY1THV5SIJMHD","ALVNMQMD3Q3ZE","3THR0FZ95PF7SK0MYRNAOUHTWDJOLG","","292","img/land3.png","74","292.80000019073486","1","1","1","1","0.8,0.2,0.2,0.2,0.8,0.2,0.2,0.2,0.8","0.8,0.2,0.2,0.2,0.8,0.2,0.2,0.2,0.8","1","",""
"","html-keyboard-response","147","64252","0.0-147.0","3N2BF7Y2VRGJS5UELSY1THV5SIJMHD","ALVNMQMD3Q3ZE","3THR0FZ95PF7SK0MYRNAOUHTWDJOLG","","null","<img src=""img/land3.png"" style=""width:200px; border:14px solid green;"">","null","","","","","","","","","",""
"","image-keyboard-response","148","64607","0.0-148.0","3N2BF7Y2VRGJS5UELSY1THV5SIJMHD","ALVNMQMD3Q3ZE","3THR0FZ95PF7SK0MYRNAOUHTWDJOLG","","354","img/land3.png","74","354.90000009536743","1","1","1","1","0.8,0.2,0.2,0.2,0.8,0.2,0.2,0.2,0.8","0.8,0.2,0.2,0.2,0.8,0.2,0.2,0.2,0.8","1","",""
"","html-keyboard-response","149","64908","0.0-149.0","3N2BF7Y2VRGJS5UELSY1THV5SIJMHD","ALVNMQMD3Q3ZE","3THR0FZ95PF7SK0MYRNAOUHTWDJOLG","","null","<img src=""img/land3.png"" style=""width:200px; border:14px solid green;"">","null","","","","","","","","","",""
"","image-keyboard-response","150","65623","0.0-150.0","3N2BF7Y2VRGJS5UELSY1THV5SIJMHD","ALVNMQMD3Q3ZE","3THR0FZ95PF7SK0MYRNAOUHTWDJOLG","","714.4000000953674","img/land1.png","75","715.2000000476837","2","1","2","1","0.8,0.2,0.2,0.2,0.8,0.2,0.2,0.2,0.8","0.8,0.2,0.2,0.2,0.8,0.2,0.2,0.2,0.8","1","",""
"","html-keyboard-response","151","65925","0.0-151.0","3N2BF7Y2VRGJS5UELSY1THV5SIJMHD","ALVNMQMD3Q3ZE","3THR0FZ95PF7SK0MYRNAOUHTWDJOLG","","null","<img src=""img/land1.png"" style=""width:200px; border:14px solid green;"">","null","","","","","","","","","",""
"","image-keyboard-response","152","66884","0.0-152.0","3N2BF7Y2VRGJS5UELSY1THV5SIJMHD","ALVNMQMD3Q3ZE","3THR0FZ95PF7SK0MYRNAOUHTWDJOLG","","958.3999998569489","img/land1.png","75","959.2999999523163","2","1","2","1","0.8,0.2,0.2,0.2,0.8,0.2,0.2,0.2,0.8","0.8,0.2,0.2,0.2,0.8,0.2,0.2,0.2,0.8","1","",""
"","html-keyboard-response","153","67185","0.0-153.0","3N2BF7Y2VRGJS5UELSY1THV5SIJMHD","ALVNMQMD3Q3ZE","3THR0FZ95PF7SK0MYRNAOUHTWDJOLG","","null","<img src=""img/land1.png"" style=""width:200px; border:14px solid green;"">","null","","","","","","","","","",""
"","image-keyboard-response","154","67891","0.0-154.0","3N2BF7Y2VRGJS5UELSY1THV5SIJMHD","ALVNMQMD3Q3ZE","3THR0FZ95PF7SK0MYRNAOUHTWDJOLG","","704.8999998569489","img/land2.png","74","705.6000001430511","1","1","3","1","0.8,0.2,0.2,0.2,0.8,0.2,0.2,0.2,0.8","0.8,0.2,0.2,0.2,0.8,0.2,0.2,0.2,0.8","1","",""
"","html-keyboard-response","155","68192","0.0-155.0","3N2BF7Y2VRGJS5UELSY1THV5SIJMHD","ALVNMQMD3Q3ZE","3THR0FZ95PF7SK0MYRNAOUHTWDJOLG","","null","<img src=""img/land2.png"" style=""width:200px; border:14px solid green;"">","null","","","","","","","","","",""
"","image-keyboard-response","156","68512","0.0-156.0","3N2BF7Y2VRGJS5UELSY1THV5SIJMHD","ALVNMQMD3Q3ZE","3THR0FZ95PF7SK0MYRNAOUHTWDJOLG","","318.7999999523163","img/land2.png","74","319.7000000476837","1","0","3","1","0.8,0.2,0.2,0.2,0.8,0.2,0.2,0.2,0.8","0.8,0.2,0.2,0.2,0.8,0.2,0.2,0.2,0.8","1","",""
"","html-keyboard-response","157","68828","0.0-157.0","3N2BF7Y2VRGJS5UELSY1THV5SIJMHD","ALVNMQMD3Q3ZE","3THR0FZ95PF7SK0MYRNAOUHTWDJOLG","","null","<img src=""img/land2.png"" style=""width:200px;border:14px solid red;"">","null","","","","","","","","","",""
"","image-keyboard-response","158","69218","0.0-158.0","3N2BF7Y2VRGJS5UELSY1THV5SIJMHD","ALVNMQMD3Q3ZE","3THR0FZ95PF7SK0MYRNAOUHTWDJOLG","","388.5","img/land1.png","75","389.40000009536743","2","1","2","1","0.8,0.2,0.2,0.2,0.8,0.2,0.2,0.2,0.8","0.8,0.2,0.2,0.2,0.8,0.2,0.2,0.2,0.8","1","",""
"","html-keyboard-response","159","69521","0.0-159.0","3N2BF7Y2VRGJS5UELSY1THV5SIJMHD","ALVNMQMD3Q3ZE","3THR0FZ95PF7SK0MYRNAOUHTWDJOLG","","null","<img src=""img/land1.png"" style=""width:200px; border:14px solid green;"">","null","","","","","","","","","",""
"","image-keyboard-response","160","70139","0.0-160.0","3N2BF7Y2VRGJS5UELSY1THV5SIJMHD","ALVNMQMD3Q3ZE","3THR0FZ95PF7SK0MYRNAOUHTWDJOLG","","617.5","img/land2.png","74","618.2000000476837","1","0","3","1","0.8,0.2,0.2,0.2,0.8,0.2,0.2,0.2,0.8","0.8,0.2,0.2,0.2,0.8,0.2,0.2,0.2,0.8","1","",""
"","html-keyboard-response","161","70441","0.0-161.0","3N2BF7Y2VRGJS5UELSY1THV5SIJMHD","ALVNMQMD3Q3ZE","3THR0FZ95PF7SK0MYRNAOUHTWDJOLG","","null","<img src=""img/land2.png"" style=""width:200px;border:14px solid red;"">","null","","","","","","","","","",""
"","image-keyboard-response","162","70621","0.0-162.0","3N2BF7Y2VRGJS5UELSY1THV5SIJMHD","ALVNMQMD3Q3ZE","3THR0FZ95PF7SK0MYRNAOUHTWDJOLG","","178.79999995231628","img/land3.png","75","179.5","2","1","1","1","0.8,0.2,0.2,0.2,0.8,0.2,0.2,0.2,0.8","0.8,0.2,0.2,0.2,0.8,0.2,0.2,0.2,0.8","1","",""
"","html-keyboard-response","163","70922","0.0-163.0","3N2BF7Y2VRGJS5UELSY1THV5SIJMHD","ALVNMQMD3Q3ZE","3THR0FZ95PF7SK0MYRNAOUHTWDJOLG","","null","<img src=""img/land3.png"" style=""width:200px; border:14px solid green;"">","null","","","","","","","","","",""
"","image-keyboard-response","164","71694","0.0-164.0","3N2BF7Y2VRGJS5UELSY1THV5SIJMHD","ALVNMQMD3Q3ZE","3THR0FZ95PF7SK0MYRNAOUHTWDJOLG","","770.4000000953674","img/land2.png","74","771.0999999046326","1","0","3","1","0.8,0.2,0.2,0.2,0.8,0.2,0.2,0.2,0.8","0.8,0.2,0.2,0.2,0.8,0.2,0.2,0.2,0.8","1","",""
"","html-keyboard-response","165","71995","0.0-165.0","3N2BF7Y2VRGJS5UELSY1THV5SIJMHD","ALVNMQMD3Q3ZE","3THR0FZ95PF7SK0MYRNAOUHTWDJOLG","","null","<img src=""img/land2.png"" style=""width:200px;border:14px solid red;"">","null","","","","","","","","","",""
"","image-keyboard-response","166","72063","0.0-166.0","3N2BF7Y2VRGJS5UELSY1THV5SIJMHD","ALVNMQMD3Q3ZE","3THR0FZ95PF7SK0MYRNAOUHTWDJOLG","","66.90000009536743","img/land1.png","74","67.60000014305115","1","1","2","1","0.8,0.2,0.2,0.2,0.8,0.2,0.2,0.2,0.8","0.8,0.2,0.2,0.2,0.8,0.2,0.2,0.2,0.8","1","",""
"","html-keyboard-response","167","72365","0.0-167.0","3N2BF7Y2VRGJS5UELSY1THV5SIJMHD","ALVNMQMD3Q3ZE","3THR0FZ95PF7SK0MYRNAOUHTWDJOLG","","null","<img src=""img/land1.png"" style=""width:200px; border:14px solid green;"">","null","","","","","","","","","",""
"","image-keyboard-response","168","72498","0.0-168.0","3N2BF7Y2VRGJS5UELSY1THV5SIJMHD","ALVNMQMD3Q3ZE","3THR0FZ95PF7SK0MYRNAOUHTWDJOLG","","131.59999990463257","img/land2.png","75","132.60000014305115","2","0","3","1","0.8,0.2,0.2,0.2,0.8,0.2,0.2,0.2,0.8","0.8,0.2,0.2,0.2,0.8,0.2,0.2,0.2,0.8","1","",""
"","html-keyboard-response","169","72799","0.0-169.0","3N2BF7Y2VRGJS5UELSY1THV5SIJMHD","ALVNMQMD3Q3ZE","3THR0FZ95PF7SK0MYRNAOUHTWDJOLG","","null","<img src=""img/land2.png"" style=""width:200px;border:14px solid red;"">","null","","","","","","","","","",""
"","image-keyboard-response","170","73078","0.0-170.0","3N2BF7Y2VRGJS5UELSY1THV5SIJMHD","ALVNMQMD3Q3ZE","3THR0FZ95PF7SK0MYRNAOUHTWDJOLG","","278.7000000476837","img/land2.png","75","279.2999999523163","2","0","3","1","0.8,0.2,0.2,0.2,0.8,0.2,0.2,0.2,0.8","0.8,0.2,0.2,0.2,0.8,0.2,0.2,0.2,0.8","1","",""
"","html-keyboard-response","171","73381","0.0-171.0","3N2BF7Y2VRGJS5UELSY1THV5SIJMHD","ALVNMQMD3Q3ZE","3THR0FZ95PF7SK0MYRNAOUHTWDJOLG","","null","<img src=""img/land2.png"" style=""width:200px;border:14px solid red;"">","null","","","","","","","","","",""
"","image-keyboard-response","172","73386","0.0-172.0","3N2BF7Y2VRGJS5UELSY1THV5SIJMHD","ALVNMQMD3Q3ZE","3THR0FZ95PF7SK0MYRNAOUHTWDJOLG","","3.5","img/land3.png","74","4.200000047683716","1","1","1","1","0.8,0.2,0.2,0.2,0.8,0.2,0.2,0.2,0.8","0.8,0.2,0.2,0.2,0.8,0.2,0.2,0.2,0.8","1","",""
"","html-keyboard-response","173","73687","0.0-173.0","3N2BF7Y2VRGJS5UELSY1THV5SIJMHD","ALVNMQMD3Q3ZE","3THR0FZ95PF7SK0MYRNAOUHTWDJOLG","","null","<img src=""img/land3.png"" style=""width:200px; border:14px solid green;"">","null","","","","","","","","","",""
"","image-keyboard-response","174","73927","0.0-174.0","3N2BF7Y2VRGJS5UELSY1THV5SIJMHD","ALVNMQMD3Q3ZE","3THR0FZ95PF7SK0MYRNAOUHTWDJOLG","","239.40000009536743","img/land1.png","74","240","1","0","2","1","0.8,0.2,0.2,0.2,0.8,0.2,0.2,0.2,0.8","0.8,0.2,0.2,0.2,0.8,0.2,0.2,0.2,0.8","1","",""
"","html-keyboard-response","175","74229","0.0-175.0","3N2BF7Y2VRGJS5UELSY1THV5SIJMHD","ALVNMQMD3Q3ZE","3THR0FZ95PF7SK0MYRNAOUHTWDJOLG","","null","<img src=""img/land1.png"" style=""width:200px;border:14px solid red;"">","null","","","","","","","","","",""
"","image-keyboard-response","176","74399","0.0-176.0","3N2BF7Y2VRGJS5UELSY1THV5SIJMHD","ALVNMQMD3Q3ZE","3THR0FZ95PF7SK0MYRNAOUHTWDJOLG","","169.20000004768372","img/land1.png","76","170","3","0","2","1","0.8,0.2,0.2,0.2,0.8,0.2,0.2,0.2,0.8","0.8,0.2,0.2,0.2,0.8,0.2,0.2,0.2,0.8","1","",""
"","html-keyboard-response","177","74700","0.0-177.0","3N2BF7Y2VRGJS5UELSY1THV5SIJMHD","ALVNMQMD3Q3ZE","3THR0FZ95PF7SK0MYRNAOUHTWDJOLG","","null","<img src=""img/land1.png"" style=""width:200px;border:14px solid red;"">","null","","","","","","","","","",""
"","image-keyboard-response","178","74982","0.0-178.0","3N2BF7Y2VRGJS5UELSY1THV5SIJMHD","ALVNMQMD3Q3ZE","3THR0FZ95PF7SK0MYRNAOUHTWDJOLG","","280.09999990463257","img/land3.png","75","281.2999999523163","2","0","1","1","0.8,0.2,0.2,0.2,0.8,0.2,0.2,0.2,0.8","0.8,0.2,0.2,0.2,0.8,0.2,0.2,0.2,0.8","1","",""
"","html-keyboard-response","179","75286","0.0-179.0","3N2BF7Y2VRGJS5UELSY1THV5SIJMHD","ALVNMQMD3Q3ZE","3THR0FZ95PF7SK0MYRNAOUHTWDJOLG","","null","<img src=""img/land3.png"" style=""width:200px;border:14px solid red;"">","null","","","","","","","","","",""
"","image-keyboard-response","180","75598","0.0-180.0","3N2BF7Y2VRGJS5UELSY1THV5SIJMHD","ALVNMQMD3Q3ZE","3THR0FZ95PF7SK0MYRNAOUHTWDJOLG","","310.5","img/land3.png","75","311.59999990463257","2","1","1","1","0.8,0.2,0.2,0.2,0.8,0.2,0.2,0.2,0.8","0.8,0.2,0.2,0.2,0.8,0.2,0.2,0.2,0.8","1","",""
"","html-keyboard-response","181","75900","0.0-181.0","3N2BF7Y2VRGJS5UELSY1THV5SIJMHD","ALVNMQMD3Q3ZE","3THR0FZ95PF7SK0MYRNAOUHTWDJOLG","","null","<img src=""img/land3.png"" style=""width:200px; border:14px solid green;"">","null","","","","","","","","","",""
"","html-keyboard-response","182","79750","0.0-182.0","3N2BF7Y2VRGJS5UELSY1THV5SIJMHD","ALVNMQMD3Q3ZE","3THR0FZ95PF7SK0MYRNAOUHTWDJOLG","","","","","","","","","","","","","",""
"","image-keyboard-response","183","81320","0.0-183.0","3N2BF7Y2VRGJS5UELSY1THV5SIJMHD","ALVNMQMD3Q3ZE","3THR0FZ95PF7SK0MYRNAOUHTWDJOLG","","1568.8000001907349","img/land5.png","74","1569.8999998569489","1","1","3","2","0.8,0.2,0.2,0.2,0.8,0.2,0.2,0.2,0.8","0.2,0.2,0.8,0.8,0.2,0.2,0.2,0.8,0.2","2","",""
"","html-keyboard-response","184","81623","0.0-184.0","3N2BF7Y2VRGJS5UELSY1THV5SIJMHD","ALVNMQMD3Q3ZE","3THR0FZ95PF7SK0MYRNAOUHTWDJOLG","","null","<img src=""img/land5.png"" style=""width:200px; border:14px solid green;"">","null","","","","","","","","","",""
"","image-keyboard-response","185","81836","0.0-185.0","3N2BF7Y2VRGJS5UELSY1THV5SIJMHD","ALVNMQMD3Q3ZE","3THR0FZ95PF7SK0MYRNAOUHTWDJOLG","","211.29999995231628","img/land4.png","74","212.5","1","0","1","2","0.8,0.2,0.2,0.2,0.8,0.2,0.2,0.2,0.8","0.2,0.2,0.8,0.8,0.2,0.2,0.2,0.8,0.2","2","",""
"","html-keyboard-response","186","82138","0.0-186.0","3N2BF7Y2VRGJS5UELSY1THV5SIJMHD","ALVNMQMD3Q3ZE","3THR0FZ95PF7SK0MYRNAOUHTWDJOLG","","null","<img src=""img/land4.png"" style=""width:200px;border:14px solid red;"">","null","","","","","","","","","",""
"","image-keyboard-response","187","82309","0.0-187.0","3N2BF7Y2VRGJS5UELSY1THV5SIJMHD","ALVNMQMD3Q3ZE","3THR0FZ95PF7SK0MYRNAOUHTWDJOLG","","169.79999995231628","img/land6.png","75","171","2","1","2","2","0.8,0.2,0.2,0.2,0.8,0.2,0.2,0.2,0.8","0.2,0.2,0.8,0.8,0.2,0.2,0.2,0.8,0.2","2","",""
"","html-keyboard-response","188","82612","0.0-188.0","3N2BF7Y2VRGJS5UELSY1THV5SIJMHD","ALVNMQMD3Q3ZE","3THR0FZ95PF7SK0MYRNAOUHTWDJOLG","","null","<img src=""img/land6.png"" style=""width:200px; border:14px solid green;"">","null","","","","","","","","","",""
"","image-keyboard-response","189","82845","0.0-189.0","3N2BF7Y2VRGJS5UELSY1THV5SIJMHD","ALVNMQMD3Q3ZE","3THR0FZ95PF7SK0MYRNAOUHTWDJOLG","","232","img/land4.png","75","233","2","0","1","2","0.8,0.2,0.2,0.2,0.8,0.2,0.2,0.2,0.8","0.2,0.2,0.8,0.8,0.2,0.2,0.2,0.8,0.2","2","",""
"","html-keyboard-response","190","83148","0.0-190.0","3N2BF7Y2VRGJS5UELSY1THV5SIJMHD","ALVNMQMD3Q3ZE","3THR0FZ95PF7SK0MYRNAOUHTWDJOLG","","null","<img src=""img/land4.png"" style=""width:200px;border:14px solid red;"">","null","","","","","","","","","",""
"","image-keyboard-response","191","83313","0.0-191.0","3N2BF7Y2VRGJS5UELSY1THV5SIJMHD","ALVNMQMD3Q3ZE","3THR0FZ95PF7SK0MYRNAOUHTWDJOLG","","163.59999990463257","img/land4.png","74","164.89999985694885","1","1","1","2","0.8,0.2,0.2,0.2,0.8,0.2,0.2,0.2,0.8","0.2,0.2,0.8,0.8,0.2,0.2,0.2,0.8,0.2","2","",""
"","html-keyboard-response","192","83615","0.0-192.0","3N2BF7Y2VRGJS5UELSY1THV5SIJMHD","ALVNMQMD3Q3ZE","3THR0FZ95PF7SK0MYRNAOUHTWDJOLG","","null","<img src=""img/land4.png"" style=""width:200px; border:14px solid green;"">","null","","","","","","","","","",""
"","image-keyboard-response","193","83911","0.0-193.0","3N2BF7Y2VRGJS5UELSY1THV5SIJMHD","ALVNMQMD3Q3ZE","3THR0FZ95PF7SK0MYRNAOUHTWDJOLG","","294.19999980926514","img/land4.png","74","295.5","1","1","1","2","0.8,0.2,0.2,0.2,0.8,0.2,0.2,0.2,0.8","0.2,0.2,0.8,0.8,0.2,0.2,0.2,0.8,0.2","2","",""
"","html-keyboard-response","194","84213","0.0-194.0","3N2BF7Y2VRGJS5UELSY1THV5SIJMHD","ALVNMQMD3Q3ZE","3THR0FZ95PF7SK0MYRNAOUHTWDJOLG","","null","<img src=""img/land4.png"" style=""width:200px; border:14px solid green;"">","null","","","","","","","","","",""
"","image-keyboard-response","195","84430","0.0-195.0","3N2BF7Y2VRGJS5UELSY1THV5SIJMHD","ALVNMQMD3Q3ZE","3THR0FZ95PF7SK0MYRNAOUHTWDJOLG","","215.29999995231628","img/land5.png","74","216.10000014305115","1","0","3","2","0.8,0.2,0.2,0.2,0.8,0.2,0.2,0.2,0.8","0.2,0.2,0.8,0.8,0.2,0.2,0.2,0.8,0.2","2","",""
"","html-keyboard-response","196","84732","0.0-196.0","3N2BF7Y2VRGJS5UELSY1THV5SIJMHD","ALVNMQMD3Q3ZE","3THR0FZ95PF7SK0MYRNAOUHTWDJOLG","","null","<img src=""img/land5.png"" style=""width:200px;border:14px solid red;"">","null","","","","","","","","","",""
"","image-keyboard-response","197","85118","0.0-197.0","3N2BF7Y2VRGJS5UELSY1THV5SIJMHD","ALVNMQMD3Q3ZE","3THR0FZ95PF7SK0MYRNAOUHTWDJOLG","","384.90000009536743","img/land6.png","75","385.69999980926514","2","0","2","2","0.8,0.2,0.2,0.2,0.8,0.2,0.2,0.2,0.8","0.2,0.2,0.8,0.8,0.2,0.2,0.2,0.8,0.2","2","",""
"","html-keyboard-response","198","85420","0.0-198.0","3N2BF7Y2VRGJS5UELSY1THV5SIJMHD","ALVNMQMD3Q3ZE","3THR0FZ95PF7SK0MYRNAOUHTWDJOLG","","null","<img src=""img/land6.png"" style=""width:200px;border:14px solid red;"">","null","","","","","","","","","",""
"","image-keyboard-response","199","85616","0.0-199.0","3N2BF7Y2VRGJS5UELSY1THV5SIJMHD","ALVNMQMD3Q3ZE","3THR0FZ95PF7SK0MYRNAOUHTWDJOLG","","195.89999985694885","img/land4.png","76","196.80000019073486","3","0","1","2","0.8,0.2,0.2,0.2,0.8,0.2,0.2,0.2,0.8","0.2,0.2,0.8,0.8,0.2,0.2,0.2,0.8,0.2","2","",""
"","html-keyboard-response","200","85918","0.0-200.0","3N2BF7Y2VRGJS5UELSY1THV5SIJMHD","ALVNMQMD3Q3ZE","3THR0FZ95PF7SK0MYRNAOUHTWDJOLG","","null","<img src=""img/land4.png"" style=""width:200px;border:14px solid red;"">","null","","","","","","","","","",""
"","image-keyboard-response","201","86035","0.0-201.0","3N2BF7Y2VRGJS5UELSY1THV5SIJMHD","ALVNMQMD3Q3ZE","3THR0FZ95PF7SK0MYRNAOUHTWDJOLG","","116.29999995231628","img/land4.png","75","117","2","0","1","2","0.8,0.2,0.2,0.2,0.8,0.2,0.2,0.2,0.8","0.2,0.2,0.8,0.8,0.2,0.2,0.2,0.8,0.2","2","",""
"","html-keyboard-response","202","86337","0.0-202.0","3N2BF7Y2VRGJS5UELSY1THV5SIJMHD","ALVNMQMD3Q3ZE","3THR0FZ95PF7SK0MYRNAOUHTWDJOLG","","null","<img src=""img/land4.png"" style=""width:200px;border:14px solid red;"">","null","","","","","","","","","",""
"","image-keyboard-response","203","86578","0.0-203.0","3N2BF7Y2VRGJS5UELSY1THV5SIJMHD","ALVNMQMD3Q3ZE","3THR0FZ95PF7SK0MYRNAOUHTWDJOLG","","240.20000004768372","img/land6.png","74","241.09999990463257","1","1","2","2","0.8,0.2,0.2,0.2,0.8,0.2,0.2,0.2,0.8","0.2,0.2,0.8,0.8,0.2,0.2,0.2,0.8,0.2","2","",""
"","html-keyboard-response","204","86881","0.0-204.0","3N2BF7Y2VRGJS5UELSY1THV5SIJMHD","ALVNMQMD3Q3ZE","3THR0FZ95PF7SK0MYRNAOUHTWDJOLG","","null","<img src=""img/land6.png"" style=""width:200px; border:14px solid green;"">","null","","","","","","","","","",""
"","image-keyboard-response","205","87237","0.0-205.0","3N2BF7Y2VRGJS5UELSY1THV5SIJMHD","ALVNMQMD3Q3ZE","3THR0FZ95PF7SK0MYRNAOUHTWDJOLG","","355","img/land4.png","74","355.90000009536743","1","0","1","2","0.8,0.2,0.2,0.2,0.8,0.2,0.2,0.2,0.8","0.2,0.2,0.8,0.8,0.2,0.2,0.2,0.8,0.2","2","",""
"","html-keyboard-response","206","87539","0.0-206.0","3N2BF7Y2VRGJS5UELSY1THV5SIJMHD","ALVNMQMD3Q3ZE","3THR0FZ95PF7SK0MYRNAOUHTWDJOLG","","null","<img src=""img/land4.png"" style=""width:200px;border:14px solid red;"">","null","","","","","","","","","",""
"","image-keyboard-response","207","87836","0.0-207.0","3N2BF7Y2VRGJS5UELSY1THV5SIJMHD","ALVNMQMD3Q3ZE","3THR0FZ95PF7SK0MYRNAOUHTWDJOLG","","295.59999990463257","img/land5.png","74","296.7999999523163","1","0","3","2","0.8,0.2,0.2,0.2,0.8,0.2,0.2,0.2,0.8","0.2,0.2,0.8,0.8,0.2,0.2,0.2,0.8,0.2","2","",""
"","html-keyboard-response","208","88139","0.0-208.0","3N2BF7Y2VRGJS5UELSY1THV5SIJMHD","ALVNMQMD3Q3ZE","3THR0FZ95PF7SK0MYRNAOUHTWDJOLG","","null","<img src=""img/land5.png"" style=""width:200px;border:14px solid red;"">","null","","","","","","","","","",""
"","image-keyboard-response","209","88350","0.0-209.0","3N2BF7Y2VRGJS5UELSY1THV5SIJMHD","ALVNMQMD3Q3ZE","3THR0FZ95PF7SK0MYRNAOUHTWDJOLG","","210.29999995231628","img/land5.png","75","211.29999995231628","2","1","3","2","0.8,0.2,0.2,0.2,0.8,0.2,0.2,0.2,0.8","0.2,0.2,0.8,0.8,0.2,0.2,0.2,0.8,0.2","2","",""
"","html-keyboard-response","210","88652","0.0-210.0","3N2BF7Y2VRGJS5UELSY1THV5SIJMHD","ALVNMQMD3Q3ZE","3THR0FZ95PF7SK0MYRNAOUHTWDJOLG","","null","<img src=""img/land5.png"" style=""width:200px; border:14px solid green;"">","null","","","","","","","","","",""
"","image-keyboard-response","211","89065","0.0-211.0","3N2BF7Y2VRGJS5UELSY1THV5SIJMHD","ALVNMQMD3Q3ZE","3THR0FZ95PF7SK0MYRNAOUHTWDJOLG","","411.7000000476837","img/land4.png","75","412.7999999523163","2","0","1","2","0.8,0.2,0.2,0.2,0.8,0.2,0.2,0.2,0.8","0.2,0.2,0.8,0.8,0.2,0.2,0.2,0.8,0.2","2","",""
"","html-keyboard-response","212","89367","0.0-212.0","3N2BF7Y2VRGJS5UELSY1THV5SIJMHD","ALVNMQMD3Q3ZE","3THR0FZ95PF7SK0MYRNAOUHTWDJOLG","","null","<img src=""img/land4.png"" style=""width:200px;border:14px solid red;"">","null","","","","","","","","","",""
"","image-keyboard-response","213","89437","0.0-213.0","3N2BF7Y2VRGJS5UELSY1THV5SIJMHD","ALVNMQMD3Q3ZE","3THR0FZ95PF7SK0MYRNAOUHTWDJOLG","","68.20000004768372","img/land4.png","75","69.20000004768372","2","0","1","2","0.8,0.2,0.2,0.2,0.8,0.2,0.2,0.2,0.8","0.2,0.2,0.8,0.8,0.2,0.2,0.2,0.8,0.2","2","",""
"","html-keyboard-response","214","89738","0.0-214.0","3N2BF7Y2VRGJS5UELSY1THV5SIJMHD","ALVNMQMD3Q3ZE","3THR0FZ95PF7SK0MYRNAOUHTWDJOLG","","null","<img src=""img/land4.png"" style=""width:200px;border:14px solid red;"">","null","","","","","","","","","",""
"","image-keyboard-response","215","90076","0.0-215.0","3N2BF7Y2VRGJS5UELSY1THV5SIJMHD","ALVNMQMD3Q3ZE","3THR0FZ95PF7SK0MYRNAOUHTWDJOLG","","336.7999999523163","img/land5.png","76","337.59999990463257","3","0","3","2","0.8,0.2,0.2,0.2,0.8,0.2,0.2,0.2,0.8","0.2,0.2,0.8,0.8,0.2,0.2,0.2,0.8,0.2","2","",""
"","html-keyboard-response","216","90378","0.0-216.0","3N2BF7Y2VRGJS5UELSY1THV5SIJMHD","ALVNMQMD3Q3ZE","3THR0FZ95PF7SK0MYRNAOUHTWDJOLG","","null","<img src=""img/land5.png"" style=""width:200px;border:14px solid red;"">","null","","","","","","","","","",""
"","image-keyboard-response","217","90471","0.0-217.0","3N2BF7Y2VRGJS5UELSY1THV5SIJMHD","ALVNMQMD3Q3ZE","3THR0FZ95PF7SK0MYRNAOUHTWDJOLG","","92.09999990463257","img/land4.png","75","92.90000009536743","2","1","1","2","0.8,0.2,0.2,0.2,0.8,0.2,0.2,0.2,0.8","0.2,0.2,0.8,0.8,0.2,0.2,0.2,0.8,0.2","2","",""
"","html-keyboard-response","218","90773","0.0-218.0","3N2BF7Y2VRGJS5UELSY1THV5SIJMHD","ALVNMQMD3Q3ZE","3THR0FZ95PF7SK0MYRNAOUHTWDJOLG","","null","<img src=""img/land4.png"" style=""width:200px; border:14px solid green;"">","null","","","","","","","","","",""
"","image-keyboard-response","219","90905","0.0-219.0","3N2BF7Y2VRGJS5UELSY1THV5SIJMHD","ALVNMQMD3Q3ZE","3THR0FZ95PF7SK0MYRNAOUHTWDJOLG","","128.40000009536743","img/land4.png","75","129.80000019073486","2","0","1","2","0.8,0.2,0.2,0.2,0.8,0.2,0.2,0.2,0.8","0.2,0.2,0.8,0.8,0.2,0.2,0.2,0.8,0.2","2","",""
"","html-keyboard-response","220","91208","0.0-220.0","3N2BF7Y2VRGJS5UELSY1THV5SIJMHD","ALVNMQMD3Q3ZE","3THR0FZ95PF7SK0MYRNAOUHTWDJOLG","","null","<img src=""img/land4.png"" style=""width:200px;border:14px solid red;"">","null","","","","","","","","","",""
"","image-keyboard-response","221","91267","0.0-221.0","3N2BF7Y2VRGJS5UELSY1THV5SIJMHD","ALVNMQMD3Q3ZE","3THR0FZ95PF7SK0MYRNAOUHTWDJOLG","","58.10000014305115","img/land4.png","75","59","2","1","1","2","0.8,0.2,0.2,0.2,0.8,0.2,0.2,0.2,0.8","0.2,0.2,0.8,0.8,0.2,0.2,0.2,0.8,0.2","2","",""
"","html-keyboard-response","222","91569","0.0-222.0","3N2BF7Y2VRGJS5UELSY1THV5SIJMHD","ALVNMQMD3Q3ZE","3THR0FZ95PF7SK0MYRNAOUHTWDJOLG","","null","<img src=""img/land4.png"" style=""width:200px; border:14px solid green;"">","null","","","","","","","","","",""
"","image-keyboard-response","223","92100","0.0-223.0","3N2BF7Y2VRGJS5UELSY1THV5SIJMHD","ALVNMQMD3Q3ZE","3THR0FZ95PF7SK0MYRNAOUHTWDJOLG","","530.0999999046326","img/land6.png","75","531","2","1","2","2","0.8,0.2,0.2,0.2,0.8,0.2,0.2,0.2,0.8","0.2,0.2,0.8,0.8,0.2,0.2,0.2,0.8,0.2","2","",""
"","html-keyboard-response","224","92402","0.0-224.0","3N2BF7Y2VRGJS5UELSY1THV5SIJMHD","ALVNMQMD3Q3ZE","3THR0FZ95PF7SK0MYRNAOUHTWDJOLG","","null","<img src=""img/land6.png"" style=""width:200px; border:14px solid green;"">","null","","","","","","","","","",""
"","image-keyboard-response","225","92642","0.0-225.0","3N2BF7Y2VRGJS5UELSY1THV5SIJMHD","ALVNMQMD3Q3ZE","3THR0FZ95PF7SK0MYRNAOUHTWDJOLG","","238.90000009536743","img/land4.png","74","240","1","0","1","2","0.8,0.2,0.2,0.2,0.8,0.2,0.2,0.2,0.8","0.2,0.2,0.8,0.8,0.2,0.2,0.2,0.8,0.2","2","",""
"","html-keyboard-response","226","92945","0.0-226.0","3N2BF7Y2VRGJS5UELSY1THV5SIJMHD","ALVNMQMD3Q3ZE","3THR0FZ95PF7SK0MYRNAOUHTWDJOLG","","null","<img src=""img/land4.png"" style=""width:200px;border:14px solid red;"">","null","","","","","","","","","",""
"","image-keyboard-response","227","93118","0.0-227.0","3N2BF7Y2VRGJS5UELSY1THV5SIJMHD","ALVNMQMD3Q3ZE","3THR0FZ95PF7SK0MYRNAOUHTWDJOLG","","171.39999985694885","img/land4.png","75","172","2","1","1","2","0.8,0.2,0.2,0.2,0.8,0.2,0.2,0.2,0.8","0.2,0.2,0.8,0.8,0.2,0.2,0.2,0.8,0.2","2","",""
"","html-keyboard-response","228","93420","0.0-228.0","3N2BF7Y2VRGJS5UELSY1THV5SIJMHD","ALVNMQMD3Q3ZE","3THR0FZ95PF7SK0MYRNAOUHTWDJOLG","","null","<img src=""img/land4.png"" style=""width:200px; border:14px solid green;"">","null","","","","","","","","","",""
"","image-keyboard-response","229","93473","0.0-229.0","3N2BF7Y2VRGJS5UELSY1THV5SIJMHD","ALVNMQMD3Q3ZE","3THR0FZ95PF7SK0MYRNAOUHTWDJOLG","","52","img/land4.png","75","52.90000009536743","2","1","1","2","0.8,0.2,0.2,0.2,0.8,0.2,0.2,0.2,0.8","0.2,0.2,0.8,0.8,0.2,0.2,0.2,0.8,0.2","2","",""
"","html-keyboard-response","230","93775","0.0-230.0","3N2BF7Y2VRGJS5UELSY1THV5SIJMHD","ALVNMQMD3Q3ZE","3THR0FZ95PF7SK0MYRNAOUHTWDJOLG","","null","<img src=""img/land4.png"" style=""width:200px; border:14px solid green;"">","null","","","","","","","","","",""
"","image-keyboard-response","231","94250","0.0-231.0","3N2BF7Y2VRGJS5UELSY1THV5SIJMHD","ALVNMQMD3Q3ZE","3THR0FZ95PF7SK0MYRNAOUHTWDJOLG","","473.5","img/land6.png","75","474.5","2","0","2","2","0.8,0.2,0.2,0.2,0.8,0.2,0.2,0.2,0.8","0.2,0.2,0.8,0.8,0.2,0.2,0.2,0.8,0.2","2","",""
"","html-keyboard-response","232","94551","0.0-232.0","3N2BF7Y2VRGJS5UELSY1THV5SIJMHD","ALVNMQMD3Q3ZE","3THR0FZ95PF7SK0MYRNAOUHTWDJOLG","","null","<img src=""img/land6.png"" style=""width:200px;border:14px solid red;"">","null","","","","","","","","","",""
"","image-keyboard-response","233","94741","0.0-233.0","3N2BF7Y2VRGJS5UELSY1THV5SIJMHD","ALVNMQMD3Q3ZE","3THR0FZ95PF7SK0MYRNAOUHTWDJOLG","","188.29999995231628","img/land5.png","74","189.40000009536743","1","0","3","2","0.8,0.2,0.2,0.2,0.8,0.2,0.2,0.2,0.8","0.2,0.2,0.8,0.8,0.2,0.2,0.2,0.8,0.2","2","",""
"","html-keyboard-response","234","95043","0.0-234.0","3N2BF7Y2VRGJS5UELSY1THV5SIJMHD","ALVNMQMD3Q3ZE","3THR0FZ95PF7SK0MYRNAOUHTWDJOLG","","null","<img src=""img/land5.png"" style=""width:200px;border:14px solid red;"">","null","","","","","","","","","",""
"","image-keyboard-response","235","95248","0.0-235.0","3N2BF7Y2VRGJS5UELSY1THV5SIJMHD","ALVNMQMD3Q3ZE","3THR0FZ95PF7SK0MYRNAOUHTWDJOLG","","203.40000009536743","img/land4.png","74","205.09999990463257","1","0","1","2","0.8,0.2,0.2,0.2,0.8,0.2,0.2,0.2,0.8","0.2,0.2,0.8,0.8,0.2,0.2,0.2,0.8,0.2","2","",""
"","html-keyboard-response","236","95549","0.0-236.0","3N2BF7Y2VRGJS5UELSY1THV5SIJMHD","ALVNMQMD3Q3ZE","3THR0FZ95PF7SK0MYRNAOUHTWDJOLG","","null","<img src=""img/land4.png"" style=""width:200px;border:14px solid red;"">","null","","","","","","","","","",""
"","image-keyboard-response","237","95929","0.0-237.0","3N2BF7Y2VRGJS5UELSY1THV5SIJMHD","ALVNMQMD3Q3ZE","3THR0FZ95PF7SK0MYRNAOUHTWDJOLG","","378.40000009536743","img/land5.png","74","379.5","1","0","3","2","0.8,0.2,0.2,0.2,0.8,0.2,0.2,0.2,0.8","0.2,0.2,0.8,0.8,0.2,0.2,0.2,0.8,0.2","2","",""
"","html-keyboard-response","238","96231","0.0-238.0","3N2BF7Y2VRGJS5UELSY1THV5SIJMHD","ALVNMQMD3Q3ZE","3THR0FZ95PF7SK0MYRNAOUHTWDJOLG","","null","<img src=""img/land5.png"" style=""width:200px;border:14px solid red;"">","null","","","","","","","","","",""
"","image-keyboard-response","239","96739","0.0-239.0","3N2BF7Y2VRGJS5UELSY1THV5SIJMHD","ALVNMQMD3Q3ZE","3THR0FZ95PF7SK0MYRNAOUHTWDJOLG","","506.2000000476837","img/land4.png","74","507","1","0","1","2","0.8,0.2,0.2,0.2,0.8,0.2,0.2,0.2,0.8","0.2,0.2,0.8,0.8,0.2,0.2,0.2,0.8,0.2","2","",""
"","html-keyboard-response","240","97041","0.0-240.0","3N2BF7Y2VRGJS5UELSY1THV5SIJMHD","ALVNMQMD3Q3ZE","3THR0FZ95PF7SK0MYRNAOUHTWDJOLG","","null","<img src=""img/land4.png"" style=""width:200px;border:14px solid red;"">","null","","","","","","","","","",""
"","image-keyboard-response","241","97349","0.0-241.0","3N2BF7Y2VRGJS5UELSY1THV5SIJMHD","ALVNMQMD3Q3ZE","3THR0FZ95PF7SK0MYRNAOUHTWDJOLG","","306.5","img/land4.png","75","307.30000019073486","2","0","1","2","0.8,0.2,0.2,0.2,0.8,0.2,0.2,0.2,0.8","0.2,0.2,0.8,0.8,0.2,0.2,0.2,0.8,0.2","2","",""
"","html-keyboard-response","242","97652","0.0-242.0","3N2BF7Y2VRGJS5UELSY1THV5SIJMHD","ALVNMQMD3Q3ZE","3THR0FZ95PF7SK0MYRNAOUHTWDJOLG","","null","<img src=""img/land4.png"" style=""width:200px;border:14px solid red;"">","null","","","","","","","","","",""
"","image-keyboard-response","243","98070","0.0-243.0","3N2BF7Y2VRGJS5UELSY1THV5SIJMHD","ALVNMQMD3Q3ZE","3THR0FZ95PF7SK0MYRNAOUHTWDJOLG","","416.7999999523163","img/land5.png","76","418.09999990463257","3","1","3","2","0.8,0.2,0.2,0.2,0.8,0.2,0.2,0.2,0.8","0.2,0.2,0.8,0.8,0.2,0.2,0.2,0.8,0.2","2","",""
"","html-keyboard-response","244","98372","0.0-244.0","3N2BF7Y2VRGJS5UELSY1THV5SIJMHD","ALVNMQMD3Q3ZE","3THR0FZ95PF7SK0MYRNAOUHTWDJOLG","","null","<img src=""img/land5.png"" style=""width:200px; border:14px solid green;"">","null","","","","","","","","","",""
"","image-keyboard-response","245","98589","0.0-245.0","3N2BF7Y2VRGJS5UELSY1THV5SIJMHD","ALVNMQMD3Q3ZE","3THR0FZ95PF7SK0MYRNAOUHTWDJOLG","","216.19999980926514","img/land4.png","76","217.40000009536743","3","0","1","2","0.8,0.2,0.2,0.2,0.8,0.2,0.2,0.2,0.8","0.2,0.2,0.8,0.8,0.2,0.2,0.2,0.8,0.2","2","",""
"","html-keyboard-response","246","98892","0.0-246.0","3N2BF7Y2VRGJS5UELSY1THV5SIJMHD","ALVNMQMD3Q3ZE","3THR0FZ95PF7SK0MYRNAOUHTWDJOLG","","null","<img src=""img/land4.png"" style=""width:200px;border:14px solid red;"">","null","","","","","","","","","",""
"","image-keyboard-response","247","99036","0.0-247.0","3N2BF7Y2VRGJS5UELSY1THV5SIJMHD","ALVNMQMD3Q3ZE","3THR0FZ95PF7SK0MYRNAOUHTWDJOLG","","142.20000004768372","img/land5.png","75","143.79999995231628","2","0","3","2","0.8,0.2,0.2,0.2,0.8,0.2,0.2,0.2,0.8","0.2,0.2,0.8,0.8,0.2,0.2,0.2,0.8,0.2","2","",""
"","html-keyboard-response","248","99338","0.0-248.0","3N2BF7Y2VRGJS5UELSY1THV5SIJMHD","ALVNMQMD3Q3ZE","3THR0FZ95PF7SK0MYRNAOUHTWDJOLG","","null","<img src=""img/land5.png"" style=""width:200px;border:14px solid red;"">","null","","","","","","","","","",""
"","image-keyboard-response","249","99762","0.0-249.0","3N2BF7Y2VRGJS5UELSY1THV5SIJMHD","ALVNMQMD3Q3ZE","3THR0FZ95PF7SK0MYRNAOUHTWDJOLG","","423.2999999523163","img/land6.png","75","424.5","2","0","2","2","0.8,0.2,0.2,0.2,0.8,0.2,0.2,0.2,0.8","0.2,0.2,0.8,0.8,0.2,0.2,0.2,0.8,0.2","2","",""
"","html-keyboard-response","250","100065","0.0-250.0","3N2BF7Y2VRGJS5UELSY1THV5SIJMHD","ALVNMQMD3Q3ZE","3THR0FZ95PF7SK0MYRNAOUHTWDJOLG","","null","<img src=""img/land6.png"" style=""width:200px;border:14px solid red;"">","null","","","","","","","","","",""
"","image-keyboard-response","251","100176","0.0-251.0","3N2BF7Y2VRGJS5UELSY1THV5SIJMHD","ALVNMQMD3Q3ZE","3THR0FZ95PF7SK0MYRNAOUHTWDJOLG","","109.5","img/land5.png","74","110.40000009536743","1","0","3","2","0.8,0.2,0.2,0.2,0.8,0.2,0.2,0.2,0.8","0.2,0.2,0.8,0.8,0.2,0.2,0.2,0.8,0.2","2","",""
"","html-keyboard-response","252","100477","0.0-252.0","3N2BF7Y2VRGJS5UELSY1THV5SIJMHD","ALVNMQMD3Q3ZE","3THR0FZ95PF7SK0MYRNAOUHTWDJOLG","","null","<img src=""img/land5.png"" style=""width:200px;border:14px solid red;"">","null","","","","","","","","","",""
"","image-keyboard-response","253","100711","0.0-253.0","3N2BF7Y2VRGJS5UELSY1THV5SIJMHD","ALVNMQMD3Q3ZE","3THR0FZ95PF7SK0MYRNAOUHTWDJOLG","","233.29999995231628","img/land4.png","75","234.09999990463257","2","0","1","2","0.8,0.2,0.2,0.2,0.8,0.2,0.2,0.2,0.8","0.2,0.2,0.8,0.8,0.2,0.2,0.2,0.8,0.2","2","",""
"","html-keyboard-response","254","101014","0.0-254.0","3N2BF7Y2VRGJS5UELSY1THV5SIJMHD","ALVNMQMD3Q3ZE","3THR0FZ95PF7SK0MYRNAOUHTWDJOLG","","null","<img src=""img/land4.png"" style=""width:200px;border:14px solid red;"">","null","","","","","","","","","",""
"","image-keyboard-response","255","101382","0.0-255.0","3N2BF7Y2VRGJS5UELSY1THV5SIJMHD","ALVNMQMD3Q3ZE","3THR0FZ95PF7SK0MYRNAOUHTWDJOLG","","365.59999990463257","img/land4.png","75","367.7999999523163","2","1","1","2","0.8,0.2,0.2,0.2,0.8,0.2,0.2,0.2,0.8","0.2,0.2,0.8,0.8,0.2,0.2,0.2,0.8,0.2","2","",""
"","html-keyboard-response","256","101684","0.0-256.0","3N2BF7Y2VRGJS5UELSY1THV5SIJMHD","ALVNMQMD3Q3ZE","3THR0FZ95PF7SK0MYRNAOUHTWDJOLG","","null","<img src=""img/land4.png"" style=""width:200px; border:14px solid green;"">","null","","","","","","","","","",""
"","image-keyboard-response","257","101963","0.0-257.0","3N2BF7Y2VRGJS5UELSY1THV5SIJMHD","ALVNMQMD3Q3ZE","3THR0FZ95PF7SK0MYRNAOUHTWDJOLG","","277.5","img/land6.png","75","278.59999990463257","2","0","2","2","0.8,0.2,0.2,0.2,0.8,0.2,0.2,0.2,0.8","0.2,0.2,0.8,0.8,0.2,0.2,0.2,0.8,0.2","2","",""
"","html-keyboard-response","258","102266","0.0-258.0","3N2BF7Y2VRGJS5UELSY1THV5SIJMHD","ALVNMQMD3Q3ZE","3THR0FZ95PF7SK0MYRNAOUHTWDJOLG","","null","<img src=""img/land6.png"" style=""width:200px;border:14px solid red;"">","null","","","","","","","","","",""
"","image-keyboard-response","259","102478","0.0-259.0","3N2BF7Y2VRGJS5UELSY1THV5SIJMHD","ALVNMQMD3Q3ZE","3THR0FZ95PF7SK0MYRNAOUHTWDJOLG","","210.90000009536743","img/land5.png","74","211.60000014305115","1","0","3","2","0.8,0.2,0.2,0.2,0.8,0.2,0.2,0.2,0.8","0.2,0.2,0.8,0.8,0.2,0.2,0.2,0.8,0.2","2","",""
"","html-keyboard-response","260","102780","0.0-260.0","3N2BF7Y2VRGJS5UELSY1THV5SIJMHD","ALVNMQMD3Q3ZE","3THR0FZ95PF7SK0MYRNAOUHTWDJOLG","","null","<img src=""img/land5.png"" style=""width:200px;border:14px solid red;"">","null","","","","","","","","","",""
"","image-keyboard-response","261","103454","0.0-261.0","3N2BF7Y2VRGJS5UELSY1THV5SIJMHD","ALVNMQMD3Q3ZE","3THR0FZ95PF7SK0MYRNAOUHTWDJOLG","","672.8000001907349","img/land5.png","76","673.7999999523163","3","0","3","2","0.8,0.2,0.2,0.2,0.8,0.2,0.2,0.2,0.8","0.2,0.2,0.8,0.8,0.2,0.2,0.2,0.8,0.2","2","",""
"","html-keyboard-response","262","103756","0.0-262.0","3N2BF7Y2VRGJS5UELSY1THV5SIJMHD","ALVNMQMD3Q3ZE","3THR0FZ95PF7SK0MYRNAOUHTWDJOLG","","null","<img src=""img/land5.png"" style=""width:200px;border:14px solid red;"">","null","","","","","","","","","",""
"","image-keyboard-response","263","103914","0.0-263.0","3N2BF7Y2VRGJS5UELSY1THV5SIJMHD","ALVNMQMD3Q3ZE","3THR0FZ95PF7SK0MYRNAOUHTWDJOLG","","157.10000014305115","img/land6.png","75","158.29999995231628","2","0","2","2","0.8,0.2,0.2,0.2,0.8,0.2,0.2,0.2,0.8","0.2,0.2,0.8,0.8,0.2,0.2,0.2,0.8,0.2","2","",""
"","html-keyboard-response","264","104217","0.0-264.0","3N2BF7Y2VRGJS5UELSY1THV5SIJMHD","ALVNMQMD3Q3ZE","3THR0FZ95PF7SK0MYRNAOUHTWDJOLG","","null","<img src=""img/land6.png"" style=""width:200px;border:14px solid red;"">","null","","","","","","","","","",""
"","image-keyboard-response","265","104397","0.0-265.0","3N2BF7Y2VRGJS5UELSY1THV5SIJMHD","ALVNMQMD3Q3ZE","3THR0FZ95PF7SK0MYRNAOUHTWDJOLG","","179.29999995231628","img/land4.png","75","180.5","2","0","1","2","0.8,0.2,0.2,0.2,0.8,0.2,0.2,0.2,0.8","0.2,0.2,0.8,0.8,0.2,0.2,0.2,0.8,0.2","2","",""
"","html-keyboard-response","266","104700","0.0-266.0","3N2BF7Y2VRGJS5UELSY1THV5SIJMHD","ALVNMQMD3Q3ZE","3THR0FZ95PF7SK0MYRNAOUHTWDJOLG","","null","<img src=""img/land4.png"" style=""width:200px;border:14px solid red;"">","null","","","","","","","","","",""
"","image-keyboard-response","267","105260","0.0-267.0","3N2BF7Y2VRGJS5UELSY1THV5SIJMHD","ALVNMQMD3Q3ZE","3THR0FZ95PF7SK0MYRNAOUHTWDJOLG","","559","img/land6.png","75","559.8999998569489","2","0","2","2","0.8,0.2,0.2,0.2,0.8,0.2,0.2,0.2,0.8","0.2,0.2,0.8,0.8,0.2,0.2,0.2,0.8,0.2","2","",""
"","html-keyboard-response","268","105562","0.0-268.0","3N2BF7Y2VRGJS5UELSY1THV5SIJMHD","ALVNMQMD3Q3ZE","3THR0FZ95PF7SK0MYRNAOUHTWDJOLG","","null","<img src=""img/land6.png"" style=""width:200px;border:14px solid red;"">","null","","","","","","","","","",""
"","image-keyboard-response","269","105885","0.0-269.0","3N2BF7Y2VRGJS5UELSY1THV5SIJMHD","ALVNMQMD3Q3ZE","3THR0FZ95PF7SK0MYRNAOUHTWDJOLG","","321.60000014305115","img/land4.png","76","322.59999990463257","3","1","1","2","0.8,0.2,0.2,0.2,0.8,0.2,0.2,0.2,0.8","0.2,0.2,0.8,0.8,0.2,0.2,0.2,0.8,0.2","2","",""
"","html-keyboard-response","270","106186","0.0-270.0","3N2BF7Y2VRGJS5UELSY1THV5SIJMHD","ALVNMQMD3Q3ZE","3THR0FZ95PF7SK0MYRNAOUHTWDJOLG","","null","<img src=""img/land4.png"" style=""width:200px; border:14px solid green;"">","null","","","","","","","","","",""
"","image-keyboard-response","271","106456","0.0-271.0","3N2BF7Y2VRGJS5UELSY1THV5SIJMHD","ALVNMQMD3Q3ZE","3THR0FZ95PF7SK0MYRNAOUHTWDJOLG","","268.7000000476837","img/land4.png","76","269.5","3","1","1","2","0.8,0.2,0.2,0.2,0.8,0.2,0.2,0.2,0.8","0.2,0.2,0.8,0.8,0.2,0.2,0.2,0.8,0.2","2","",""
"","html-keyboard-response","272","106758","0.0-272.0","3N2BF7Y2VRGJS5UELSY1THV5SIJMHD","ALVNMQMD3Q3ZE","3THR0FZ95PF7SK0MYRNAOUHTWDJOLG","","null","<img src=""img/land4.png"" style=""width:200px; border:14px solid green;"">","null","","","","","","","","","",""
"","image-keyboard-response","273","107050","0.0-273.0","3N2BF7Y2VRGJS5UELSY1THV5SIJMHD","ALVNMQMD3Q3ZE","3THR0FZ95PF7SK0MYRNAOUHTWDJOLG","","290.5","img/land4.png","76","291.5","3","1","1","2","0.8,0.2,0.2,0.2,0.8,0.2,0.2,0.2,0.8","0.2,0.2,0.8,0.8,0.2,0.2,0.2,0.8,0.2","2","",""
"","html-keyboard-response","274","107352","0.0-274.0","3N2BF7Y2VRGJS5UELSY1THV5SIJMHD","ALVNMQMD3Q3ZE","3THR0FZ95PF7SK0MYRNAOUHTWDJOLG","","null","<img src=""img/land4.png"" style=""width:200px; border:14px solid green;"">","null","","","","","","","","","",""
"","image-keyboard-response","275","107653","0.0-275.0","3N2BF7Y2VRGJS5UELSY1THV5SIJMHD","ALVNMQMD3Q3ZE","3THR0FZ95PF7SK0MYRNAOUHTWDJOLG","","298.7999999523163","img/land6.png","76","299.89999985694885","3","0","2","2","0.8,0.2,0.2,0.2,0.8,0.2,0.2,0.2,0.8","0.2,0.2,0.8,0.8,0.2,0.2,0.2,0.8,0.2","2","",""
"","html-keyboard-response","276","107954","0.0-276.0","3N2BF7Y2VRGJS5UELSY1THV5SIJMHD","ALVNMQMD3Q3ZE","3THR0FZ95PF7SK0MYRNAOUHTWDJOLG","","null","<img src=""img/land6.png"" style=""width:200px;border:14px solid red;"">","null","","","","","","","","","",""
"","image-keyboard-response","277","108073","0.0-277.0","3N2BF7Y2VRGJS5UELSY1THV5SIJMHD","ALVNMQMD3Q3ZE","3THR0FZ95PF7SK0MYRNAOUHTWDJOLG","","117.90000009536743","img/land4.png","75","118.70000004768372","2","0","1","2","0.8,0.2,0.2,0.2,0.8,0.2,0.2,0.2,0.8","0.2,0.2,0.8,0.8,0.2,0.2,0.2,0.8,0.2","2","",""
"","html-keyboard-response","278","108376","0.0-278.0","3N2BF7Y2VRGJS5UELSY1THV5SIJMHD","ALVNMQMD3Q3ZE","3THR0FZ95PF7SK0MYRNAOUHTWDJOLG","","null","<img src=""img/land4.png"" style=""width:200px;border:14px solid red;"">","null","","","","","","","","","",""
"","image-keyboard-response","279","109001","0.0-279.0","3N2BF7Y2VRGJS5UELSY1THV5SIJMHD","ALVNMQMD3Q3ZE","3THR0FZ95PF7SK0MYRNAOUHTWDJOLG","","623.7999999523163","img/land4.png","76","624.7999999523163","3","1","1","2","0.8,0.2,0.2,0.2,0.8,0.2,0.2,0.2,0.8","0.2,0.2,0.8,0.8,0.2,0.2,0.2,0.8,0.2","2","",""
"","html-keyboard-response","280","109303","0.0-280.0","3N2BF7Y2VRGJS5UELSY1THV5SIJMHD","ALVNMQMD3Q3ZE","3THR0FZ95PF7SK0MYRNAOUHTWDJOLG","","null","<img src=""img/land4.png"" style=""width:200px; border:14px solid green;"">","null","","","","","","","","","",""
"","image-keyboard-response","281","109363","0.0-281.0","3N2BF7Y2VRGJS5UELSY1THV5SIJMHD","ALVNMQMD3Q3ZE","3THR0FZ95PF7SK0MYRNAOUHTWDJOLG","","58.80000019073486","img/land6.png","76","60","3","0","2","2","0.8,0.2,0.2,0.2,0.8,0.2,0.2,0.2,0.8","0.2,0.2,0.8,0.8,0.2,0.2,0.2,0.8,0.2","2","",""
"","html-keyboard-response","282","109665","0.0-282.0","3N2BF7Y2VRGJS5UELSY1THV5SIJMHD","ALVNMQMD3Q3ZE","3THR0FZ95PF7SK0MYRNAOUHTWDJOLG","","null","<img src=""img/land6.png"" style=""width:200px;border:14px solid red;"">","null","","","","","","","","","",""
"","image-keyboard-response","283","110024","0.0-283.0","3N2BF7Y2VRGJS5UELSY1THV5SIJMHD","ALVNMQMD3Q3ZE","3THR0FZ95PF7SK0MYRNAOUHTWDJOLG","","358.5","img/land6.png","74","359.5","1","1","2","2","0.8,0.2,0.2,0.2,0.8,0.2,0.2,0.2,0.8","0.2,0.2,0.8,0.8,0.2,0.2,0.2,0.8,0.2","2","",""
"","html-keyboard-response","284","110326","0.0-284.0","3N2BF7Y2VRGJS5UELSY1THV5SIJMHD","ALVNMQMD3Q3ZE","3THR0FZ95PF7SK0MYRNAOUHTWDJOLG","","null","<img src=""img/land6.png"" style=""width:200px; border:14px solid green;"">","null","","","","","","","","","",""
"","image-keyboard-response","285","110523","0.0-285.0","3N2BF7Y2VRGJS5UELSY1THV5SIJMHD","ALVNMQMD3Q3ZE","3THR0FZ95PF7SK0MYRNAOUHTWDJOLG","","195.5","img/land6.png","75","196.79999995231628","2","0","2","2","0.8,0.2,0.2,0.2,0.8,0.2,0.2,0.2,0.8","0.2,0.2,0.8,0.8,0.2,0.2,0.2,0.8,0.2","2","",""
"","html-keyboard-response","286","110826","0.0-286.0","3N2BF7Y2VRGJS5UELSY1THV5SIJMHD","ALVNMQMD3Q3ZE","3THR0FZ95PF7SK0MYRNAOUHTWDJOLG","","null","<img src=""img/land6.png"" style=""width:200px;border:14px solid red;"">","null","","","","","","","","","",""
"","image-keyboard-response","287","110975","0.0-287.0","3N2BF7Y2VRGJS5UELSY1THV5SIJMHD","ALVNMQMD3Q3ZE","3THR0FZ95PF7SK0MYRNAOUHTWDJOLG","","147.79999995231628","img/land6.png","76","148.89999985694885","3","1","2","2","0.8,0.2,0.2,0.2,0.8,0.2,0.2,0.2,0.8","0.2,0.2,0.8,0.8,0.2,0.2,0.2,0.8,0.2","2","",""
"","html-keyboard-response","288","111277","0.0-288.0","3N2BF7Y2VRGJS5UELSY1THV5SIJMHD","ALVNMQMD3Q3ZE","3THR0FZ95PF7SK0MYRNAOUHTWDJOLG","","null","<img src=""img/land6.png"" style=""width:200px; border:14px solid green;"">","null","","","","","","","","","",""
"","image-keyboard-response","289","111407","0.0-289.0","3N2BF7Y2VRGJS5UELSY1THV5SIJMHD","ALVNMQMD3Q3ZE","3THR0FZ95PF7SK0MYRNAOUHTWDJOLG","","129.10000014305115","img/land6.png","76","130.29999995231628","3","0","2","2","0.8,0.2,0.2,0.2,0.8,0.2,0.2,0.2,0.8","0.2,0.2,0.8,0.8,0.2,0.2,0.2,0.8,0.2","2","",""
"","html-keyboard-response","290","111709","0.0-290.0","3N2BF7Y2VRGJS5UELSY1THV5SIJMHD","ALVNMQMD3Q3ZE","3THR0FZ95PF7SK0MYRNAOUHTWDJOLG","","null","<img src=""img/land6.png"" style=""width:200px;border:14px solid red;"">","null","","","","","","","","","",""
"","image-keyboard-response","291","111784","0.0-291.0","3N2BF7Y2VRGJS5UELSY1THV5SIJMHD","ALVNMQMD3Q3ZE","3THR0FZ95PF7SK0MYRNAOUHTWDJOLG","","73.79999995231628","img/land4.png","76","74.59999990463257","3","0","1","2","0.8,0.2,0.2,0.2,0.8,0.2,0.2,0.2,0.8","0.2,0.2,0.8,0.8,0.2,0.2,0.2,0.8,0.2","2","",""
"","html-keyboard-response","292","112086","0.0-292.0","3N2BF7Y2VRGJS5UELSY1THV5SIJMHD","ALVNMQMD3Q3ZE","3THR0FZ95PF7SK0MYRNAOUHTWDJOLG","","null","<img src=""img/land4.png"" style=""width:200px;border:14px solid red;"">","null","","","","","","","","","",""
"","image-keyboard-response","293","112300","0.0-293.0","3N2BF7Y2VRGJS5UELSY1THV5SIJMHD","ALVNMQMD3Q3ZE","3THR0FZ95PF7SK0MYRNAOUHTWDJOLG","","212.69999980926514","img/land6.png","74","214.09999990463257","1","1","2","2","0.8,0.2,0.2,0.2,0.8,0.2,0.2,0.2,0.8","0.2,0.2,0.8,0.8,0.2,0.2,0.2,0.8,0.2","2","",""
"","html-keyboard-response","294","112603","0.0-294.0","3N2BF7Y2VRGJS5UELSY1THV5SIJMHD","ALVNMQMD3Q3ZE","3THR0FZ95PF7SK0MYRNAOUHTWDJOLG","","null","<img src=""img/land6.png"" style=""width:200px; border:14px solid green;"">","null","","","","","","","","","",""
"","image-keyboard-response","295","113238","0.0-295.0","3N2BF7Y2VRGJS5UELSY1THV5SIJMHD","ALVNMQMD3Q3ZE","3THR0FZ95PF7SK0MYRNAOUHTWDJOLG","","632.7999999523163","img/land4.png","74","634.0999999046326","1","0","1","2","0.8,0.2,0.2,0.2,0.8,0.2,0.2,0.2,0.8","0.2,0.2,0.8,0.8,0.2,0.2,0.2,0.8,0.2","2","",""
"","html-keyboard-response","296","113539","0.0-296.0","3N2BF7Y2VRGJS5UELSY1THV5SIJMHD","ALVNMQMD3Q3ZE","3THR0FZ95PF7SK0MYRNAOUHTWDJOLG","","null","<img src=""img/land4.png"" style=""width:200px;border:14px solid red;"">","null","","","","","","","","","",""
"","image-keyboard-response","297","113680","0.0-297.0","3N2BF7Y2VRGJS5UELSY1THV5SIJMHD","ALVNMQMD3Q3ZE","3THR0FZ95PF7SK0MYRNAOUHTWDJOLG","","139.10000014305115","img/land6.png","74","140.40000009536743","1","1","2","2","0.8,0.2,0.2,0.2,0.8,0.2,0.2,0.2,0.8","0.2,0.2,0.8,0.8,0.2,0.2,0.2,0.8,0.2","2","",""
"","html-keyboard-response","298","113982","0.0-298.0","3N2BF7Y2VRGJS5UELSY1THV5SIJMHD","ALVNMQMD3Q3ZE","3THR0FZ95PF7SK0MYRNAOUHTWDJOLG","","null","<img src=""img/land6.png"" style=""width:200px; border:14px solid green;"">","null","","","","","","","","","",""
"","image-keyboard-response","299","114103","0.0-299.0","3N2BF7Y2VRGJS5UELSY1THV5SIJMHD","ALVNMQMD3Q3ZE","3THR0FZ95PF7SK0MYRNAOUHTWDJOLG","","120.29999995231628","img/land4.png","75","121.59999990463257","2","0","1","2","0.8,0.2,0.2,0.2,0.8,0.2,0.2,0.2,0.8","0.2,0.2,0.8,0.8,0.2,0.2,0.2,0.8,0.2","2","",""
"","html-keyboard-response","300","114406","0.0-300.0","3N2BF7Y2VRGJS5UELSY1THV5SIJMHD","ALVNMQMD3Q3ZE","3THR0FZ95PF7SK0MYRNAOUHTWDJOLG","","null","<img src=""img/land4.png"" style=""width:200px;border:14px solid red;"">","null","","","","","","","","","",""
"","image-keyboard-response","301","114746","0.0-301.0","3N2BF7Y2VRGJS5UELSY1THV5SIJMHD","ALVNMQMD3Q3ZE","3THR0FZ95PF7SK0MYRNAOUHTWDJOLG","","337.90000009536743","img/land6.png","75","338.90000009536743","2","0","2","2","0.8,0.2,0.2,0.2,0.8,0.2,0.2,0.2,0.8","0.2,0.2,0.8,0.8,0.2,0.2,0.2,0.8,0.2","2","",""
"","html-keyboard-response","302","115048","0.0-302.0","3N2BF7Y2VRGJS5UELSY1THV5SIJMHD","ALVNMQMD3Q3ZE","3THR0FZ95PF7SK0MYRNAOUHTWDJOLG","","null","<img src=""img/land6.png"" style=""width:200px;border:14px solid red;"">","null","","","","","","","","","",""
"","image-keyboard-response","303","115096","0.0-303.0","3N2BF7Y2VRGJS5UELSY1THV5SIJMHD","ALVNMQMD3Q3ZE","3THR0FZ95PF7SK0MYRNAOUHTWDJOLG","","46.700000047683716","img/land5.png","76","47.799999952316284","3","0","3","2","0.8,0.2,0.2,0.2,0.8,0.2,0.2,0.2,0.8","0.2,0.2,0.8,0.8,0.2,0.2,0.2,0.8,0.2","2","",""
"","html-keyboard-response","304","115397","0.0-304.0","3N2BF7Y2VRGJS5UELSY1THV5SIJMHD","ALVNMQMD3Q3ZE","3THR0FZ95PF7SK0MYRNAOUHTWDJOLG","","null","<img src=""img/land5.png"" style=""width:200px;border:14px solid red;"">","null","","","","","","","","","",""
"","image-keyboard-response","305","115819","0.0-305.0","3N2BF7Y2VRGJS5UELSY1THV5SIJMHD","ALVNMQMD3Q3ZE","3THR0FZ95PF7SK0MYRNAOUHTWDJOLG","","420.40000009536743","img/land4.png","75","421.5","2","0","1","2","0.8,0.2,0.2,0.2,0.8,0.2,0.2,0.2,0.8","0.2,0.2,0.8,0.8,0.2,0.2,0.2,0.8,0.2","2","",""
"","html-keyboard-response","306","116121","0.0-306.0","3N2BF7Y2VRGJS5UELSY1THV5SIJMHD","ALVNMQMD3Q3ZE","3THR0FZ95PF7SK0MYRNAOUHTWDJOLG","","null","<img src=""img/land4.png"" style=""width:200px;border:14px solid red;"">","null","","","","","","","","","",""
"","image-keyboard-response","307","116181","0.0-307.0","3N2BF7Y2VRGJS5UELSY1THV5SIJMHD","ALVNMQMD3Q3ZE","3THR0FZ95PF7SK0MYRNAOUHTWDJOLG","","58.40000009536743","img/land5.png","74","59.5","1","0","3","2","0.8,0.2,0.2,0.2,0.8,0.2,0.2,0.2,0.8","0.2,0.2,0.8,0.8,0.2,0.2,0.2,0.8,0.2","2","",""
"","html-keyboard-response","308","116483","0.0-308.0","3N2BF7Y2VRGJS5UELSY1THV5SIJMHD","ALVNMQMD3Q3ZE","3THR0FZ95PF7SK0MYRNAOUHTWDJOLG","","null","<img src=""img/land5.png"" style=""width:200px;border:14px solid red;"">","null","","","","","","","","","",""
"","image-keyboard-response","309","116494","0.0-309.0","3N2BF7Y2VRGJS5UELSY1THV5SIJMHD","ALVNMQMD3Q3ZE","3THR0FZ95PF7SK0MYRNAOUHTWDJOLG","","9.200000047683716","img/land4.png","74","10.599999904632568","1","0","1","2","0.8,0.2,0.2,0.2,0.8,0.2,0.2,0.2,0.8","0.2,0.2,0.8,0.8,0.2,0.2,0.2,0.8,0.2","2","",""
"","html-keyboard-response","310","116797","0.0-310.0","3N2BF7Y2VRGJS5UELSY1THV5SIJMHD","ALVNMQMD3Q3ZE","3THR0FZ95PF7SK0MYRNAOUHTWDJOLG","","null","<img src=""img/land4.png"" style=""width:200px;border:14px solid red;"">","null","","","","","","","","","",""
"","image-keyboard-response","311","116891","0.0-311.0","3N2BF7Y2VRGJS5UELSY1THV5SIJMHD","ALVNMQMD3Q3ZE","3THR0FZ95PF7SK0MYRNAOUHTWDJOLG","","93.09999990463257","img/land6.png","74","94.09999990463257","1","1","2","2","0.8,0.2,0.2,0.2,0.8,0.2,0.2,0.2,0.8","0.2,0.2,0.8,0.8,0.2,0.2,0.2,0.8,0.2","2","",""
"","html-keyboard-response","312","117193","0.0-312.0","3N2BF7Y2VRGJS5UELSY1THV5SIJMHD","ALVNMQMD3Q3ZE","3THR0FZ95PF7SK0MYRNAOUHTWDJOLG","","null","<img src=""img/land6.png"" style=""width:200px; border:14px solid green;"">","null","","","","","","","","","",""
"","image-keyboard-response","313","117579","0.0-313.0","3N2BF7Y2VRGJS5UELSY1THV5SIJMHD","ALVNMQMD3Q3ZE","3THR0FZ95PF7SK0MYRNAOUHTWDJOLG","","385.10000014305115","img/land4.png","74","386.09999990463257","1","0","1","2","0.8,0.2,0.2,0.2,0.8,0.2,0.2,0.2,0.8","0.2,0.2,0.8,0.8,0.2,0.2,0.2,0.8,0.2","2","",""
"","html-keyboard-response","314","117882","0.0-314.0","3N2BF7Y2VRGJS5UELSY1THV5SIJMHD","ALVNMQMD3Q3ZE","3THR0FZ95PF7SK0MYRNAOUHTWDJOLG","","null","<img src=""img/land4.png"" style=""width:200px;border:14px solid red;"">","null","","","","","","","","","",""
"","image-keyboard-response","315","118384","0.0-315.0","3N2BF7Y2VRGJS5UELSY1THV5SIJMHD","ALVNMQMD3Q3ZE","3THR0FZ95PF7SK0MYRNAOUHTWDJOLG","","500.2000000476837","img/land4.png","74","501.59999990463257","1","1","1","2","0.8,0.2,0.2,0.2,0.8,0.2,0.2,0.2,0.8","0.2,0.2,0.8,0.8,0.2,0.2,0.2,0.8,0.2","2","",""
"","html-keyboard-response","316","118686","0.0-316.0","3N2BF7Y2VRGJS5UELSY1THV5SIJMHD","ALVNMQMD3Q3ZE","3THR0FZ95PF7SK0MYRNAOUHTWDJOLG","","null","<img src=""img/land4.png"" style=""width:200px; border:14px solid green;"">","null","","","","","","","","","",""
"","image-keyboard-response","317","119107","0.0-317.0","3N2BF7Y2VRGJS5UELSY1THV5SIJMHD","ALVNMQMD3Q3ZE","3THR0FZ95PF7SK0MYRNAOUHTWDJOLG","","420.2999999523163","img/land4.png","74","421.40000009536743","1","0","1","2","0.8,0.2,0.2,0.2,0.8,0.2,0.2,0.2,0.8","0.2,0.2,0.8,0.8,0.2,0.2,0.2,0.8,0.2","2","",""
"","html-keyboard-response","318","119410","0.0-318.0","3N2BF7Y2VRGJS5UELSY1THV5SIJMHD","ALVNMQMD3Q3ZE","3THR0FZ95PF7SK0MYRNAOUHTWDJOLG","","null","<img src=""img/land4.png"" style=""width:200px;border:14px solid red;"">","null","","","","","","","","","",""
"","image-keyboard-response","319","119603","0.0-319.0","3N2BF7Y2VRGJS5UELSY1THV5SIJMHD","ALVNMQMD3Q3ZE","3THR0FZ95PF7SK0MYRNAOUHTWDJOLG","","192.30000019073486","img/land4.png","74","193.20000004768372","1","1","1","2","0.8,0.2,0.2,0.2,0.8,0.2,0.2,0.2,0.8","0.2,0.2,0.8,0.8,0.2,0.2,0.2,0.8,0.2","2","",""
"","html-keyboard-response","320","119905","0.0-320.0","3N2BF7Y2VRGJS5UELSY1THV5SIJMHD","ALVNMQMD3Q3ZE","3THR0FZ95PF7SK0MYRNAOUHTWDJOLG","","null","<img src=""img/land4.png"" style=""width:200px; border:14px solid green;"">","null","","","","","","","","","",""
"","image-keyboard-response","321","120215","0.0-321.0","3N2BF7Y2VRGJS5UELSY1THV5SIJMHD","ALVNMQMD3Q3ZE","3THR0FZ95PF7SK0MYRNAOUHTWDJOLG","","307.90000009536743","img/land4.png","74","309.2999999523163","1","1","1","2","0.8,0.2,0.2,0.2,0.8,0.2,0.2,0.2,0.8","0.2,0.2,0.8,0.8,0.2,0.2,0.2,0.8,0.2","2","",""
"","html-keyboard-response","322","120516","0.0-322.0","3N2BF7Y2VRGJS5UELSY1THV5SIJMHD","ALVNMQMD3Q3ZE","3THR0FZ95PF7SK0MYRNAOUHTWDJOLG","","null","<img src=""img/land4.png"" style=""width:200px; border:14px solid green;"">","null","","","","","","","","","",""
"","image-keyboard-response","323","120653","0.0-323.0","3N2BF7Y2VRGJS5UELSY1THV5SIJMHD","ALVNMQMD3Q3ZE","3THR0FZ95PF7SK0MYRNAOUHTWDJOLG","","135.90000009536743","img/land4.png","74","137","1","1","1","2","0.8,0.2,0.2,0.2,0.8,0.2,0.2,0.2,0.8","0.2,0.2,0.8,0.8,0.2,0.2,0.2,0.8,0.2","2","",""
"","html-keyboard-response","324","120956","0.0-324.0","3N2BF7Y2VRGJS5UELSY1THV5SIJMHD","ALVNMQMD3Q3ZE","3THR0FZ95PF7SK0MYRNAOUHTWDJOLG","","null","<img src=""img/land4.png"" style=""width:200px; border:14px solid green;"">","null","","","","","","","","","",""
"","image-keyboard-response","325","120988","0.0-325.0","3N2BF7Y2VRGJS5UELSY1THV5SIJMHD","ALVNMQMD3Q3ZE","3THR0FZ95PF7SK0MYRNAOUHTWDJOLG","","30.100000143051147","img/land4.png","74","31.5","1","0","1","2","0.8,0.2,0.2,0.2,0.8,0.2,0.2,0.2,0.8","0.2,0.2,0.8,0.8,0.2,0.2,0.2,0.8,0.2","2","",""
"","html-keyboard-response","326","121290","0.0-326.0","3N2BF7Y2VRGJS5UELSY1THV5SIJMHD","ALVNMQMD3Q3ZE","3THR0FZ95PF7SK0MYRNAOUHTWDJOLG","","null","<img src=""img/land4.png"" style=""width:200px;border:14px solid red;"">","null","","","","","","","","","",""
"","image-keyboard-response","327","121764","0.0-327.0","3N2BF7Y2VRGJS5UELSY1THV5SIJMHD","ALVNMQMD3Q3ZE","3THR0FZ95PF7SK0MYRNAOUHTWDJOLG","","472.7000000476837","img/land5.png","75","473.59999990463257","2","0","3","2","0.8,0.2,0.2,0.2,0.8,0.2,0.2,0.2,0.8","0.2,0.2,0.8,0.8,0.2,0.2,0.2,0.8,0.2","2","",""
"","html-keyboard-response","328","122066","0.0-328.0","3N2BF7Y2VRGJS5UELSY1THV5SIJMHD","ALVNMQMD3Q3ZE","3THR0FZ95PF7SK0MYRNAOUHTWDJOLG","","null","<img src=""img/land5.png"" style=""width:200px;border:14px solid red;"">","null","","","","","","","","","",""
"","image-keyboard-response","329","122086","0.0-329.0","3N2BF7Y2VRGJS5UELSY1THV5SIJMHD","ALVNMQMD3Q3ZE","3THR0FZ95PF7SK0MYRNAOUHTWDJOLG","","19","img/land4.png","76","19.799999952316284","3","0","1","2","0.8,0.2,0.2,0.2,0.8,0.2,0.2,0.2,0.8","0.2,0.2,0.8,0.8,0.2,0.2,0.2,0.8,0.2","2","",""
"","html-keyboard-response","330","122387","0.0-330.0","3N2BF7Y2VRGJS5UELSY1THV5SIJMHD","ALVNMQMD3Q3ZE","3THR0FZ95PF7SK0MYRNAOUHTWDJOLG","","null","<img src=""img/land4.png"" style=""width:200px;border:14px solid red;"">","null","","","","","","","","","",""
"","image-keyboard-response","331","122489","0.0-331.0","3N2BF7Y2VRGJS5UELSY1THV5SIJMHD","ALVNMQMD3Q3ZE","3THR0FZ95PF7SK0MYRNAOUHTWDJOLG","","100.69999980926514","img/land4.png","75","101.90000009536743","2","0","1","2","0.8,0.2,0.2,0.2,0.8,0.2,0.2,0.2,0.8","0.2,0.2,0.8,0.8,0.2,0.2,0.2,0.8,0.2","2","",""
"","html-keyboard-response","332","122792","0.0-332.0","3N2BF7Y2VRGJS5UELSY1THV5SIJMHD","ALVNMQMD3Q3ZE","3THR0FZ95PF7SK0MYRNAOUHTWDJOLG","","null","<img src=""img/land4.png"" style=""width:200px;border:14px solid red;"">","null","","","","","","","","","",""
"","image-keyboard-response","333","123212","0.0-333.0","3N2BF7Y2VRGJS5UELSY1THV5SIJMHD","ALVNMQMD3Q3ZE","3THR0FZ95PF7SK0MYRNAOUHTWDJOLG","","418.10000014305115","img/land4.png","75","419.90000009536743","2","0","1","2","0.8,0.2,0.2,0.2,0.8,0.2,0.2,0.2,0.8","0.2,0.2,0.8,0.8,0.2,0.2,0.2,0.8,0.2","2","",""
"","html-keyboard-response","334","123513","0.0-334.0","3N2BF7Y2VRGJS5UELSY1THV5SIJMHD","ALVNMQMD3Q3ZE","3THR0FZ95PF7SK0MYRNAOUHTWDJOLG","","null","<img src=""img/land4.png"" style=""width:200px;border:14px solid red;"">","null","","","","","","","","","",""
"","image-keyboard-response","335","123739","0.0-335.0","3N2BF7Y2VRGJS5UELSY1THV5SIJMHD","ALVNMQMD3Q3ZE","3THR0FZ95PF7SK0MYRNAOUHTWDJOLG","","223.79999995231628","img/land6.png","75","224.89999985694885","2","0","2","2","0.8,0.2,0.2,0.2,0.8,0.2,0.2,0.2,0.8","0.2,0.2,0.8,0.8,0.2,0.2,0.2,0.8,0.2","2","",""
"","html-keyboard-response","336","124040","0.0-336.0","3N2BF7Y2VRGJS5UELSY1THV5SIJMHD","ALVNMQMD3Q3ZE","3THR0FZ95PF7SK0MYRNAOUHTWDJOLG","","null","<img src=""img/land6.png"" style=""width:200px;border:14px solid red;"">","null","","","","","","","","","",""
"","image-keyboard-response","337","124486","0.0-337.0","3N2BF7Y2VRGJS5UELSY1THV5SIJMHD","ALVNMQMD3Q3ZE","3THR0FZ95PF7SK0MYRNAOUHTWDJOLG","","444.60000014305115","img/land4.png","74","445.59999990463257","1","0","1","2","0.8,0.2,0.2,0.2,0.8,0.2,0.2,0.2,0.8","0.2,0.2,0.8,0.8,0.2,0.2,0.2,0.8,0.2","2","",""
"","html-keyboard-response","338","124788","0.0-338.0","3N2BF7Y2VRGJS5UELSY1THV5SIJMHD","ALVNMQMD3Q3ZE","3THR0FZ95PF7SK0MYRNAOUHTWDJOLG","","null","<img src=""img/land4.png"" style=""width:200px;border:14px solid red;"">","null","","","","","","","","","",""
"","image-keyboard-response","339","125229","0.0-339.0","3N2BF7Y2VRGJS5UELSY1THV5SIJMHD","ALVNMQMD3Q3ZE","3THR0FZ95PF7SK0MYRNAOUHTWDJOLG","","439.60000014305115","img/land5.png","74","440.7000000476837","1","0","3","2","0.8,0.2,0.2,0.2,0.8,0.2,0.2,0.2,0.8","0.2,0.2,0.8,0.8,0.2,0.2,0.2,0.8,0.2","2","",""
"","html-keyboard-response","340","125531","0.0-340.0","3N2BF7Y2VRGJS5UELSY1THV5SIJMHD","ALVNMQMD3Q3ZE","3THR0FZ95PF7SK0MYRNAOUHTWDJOLG","","null","<img src=""img/land5.png"" style=""width:200px;border:14px solid red;"">","null","","","","","","","","","",""
"","image-keyboard-response","341","126170","0.0-341.0","3N2BF7Y2VRGJS5UELSY1THV5SIJMHD","ALVNMQMD3Q3ZE","3THR0FZ95PF7SK0MYRNAOUHTWDJOLG","","637.6000001430511","img/land4.png","76","639","3","1","1","2","0.8,0.2,0.2,0.2,0.8,0.2,0.2,0.2,0.8","0.2,0.2,0.8,0.8,0.2,0.2,0.2,0.8,0.2","2","",""
"","html-keyboard-response","342","126472","0.0-342.0","3N2BF7Y2VRGJS5UELSY1THV5SIJMHD","ALVNMQMD3Q3ZE","3THR0FZ95PF7SK0MYRNAOUHTWDJOLG","","null","<img src=""img/land4.png"" style=""width:200px; border:14px solid green;"">","null","","","","","","","","","",""
"","image-keyboard-response","343","126868","0.0-343.0","3N2BF7Y2VRGJS5UELSY1THV5SIJMHD","ALVNMQMD3Q3ZE","3THR0FZ95PF7SK0MYRNAOUHTWDJOLG","","394.5","img/land5.png","76","395.69999980926514","3","0","3","2","0.8,0.2,0.2,0.2,0.8,0.2,0.2,0.2,0.8","0.2,0.2,0.8,0.8,0.2,0.2,0.2,0.8,0.2","2","",""
"","html-keyboard-response","344","127170","0.0-344.0","3N2BF7Y2VRGJS5UELSY1THV5SIJMHD","ALVNMQMD3Q3ZE","3THR0FZ95PF7SK0MYRNAOUHTWDJOLG","","null","<img src=""img/land5.png"" style=""width:200px;border:14px solid red;"">","null","","","","","","","","","",""
"","image-keyboard-response","345","127549","0.0-345.0","3N2BF7Y2VRGJS5UELSY1THV5SIJMHD","ALVNMQMD3Q3ZE","3THR0FZ95PF7SK0MYRNAOUHTWDJOLG","","378","img/land4.png","75","378.7999999523163","2","0","1","2","0.8,0.2,0.2,0.2,0.8,0.2,0.2,0.2,0.8","0.2,0.2,0.8,0.8,0.2,0.2,0.2,0.8,0.2","2","",""
"","html-keyboard-response","346","127857","0.0-346.0","3N2BF7Y2VRGJS5UELSY1THV5SIJMHD","ALVNMQMD3Q3ZE","3THR0FZ95PF7SK0MYRNAOUHTWDJOLG","","null","<img src=""img/land4.png"" style=""width:200px;border:14px solid red;"">","null","","","","","","","","","",""
"","image-keyboard-response","347","128108","0.0-347.0","3N2BF7Y2VRGJS5UELSY1THV5SIJMHD","ALVNMQMD3Q3ZE","3THR0FZ95PF7SK0MYRNAOUHTWDJOLG","","249.10000014305115","img/land4.png","76","250.60000014305115","3","1","1","2","0.8,0.2,0.2,0.2,0.8,0.2,0.2,0.2,0.8","0.2,0.2,0.8,0.8,0.2,0.2,0.2,0.8,0.2","2","",""
"","html-keyboard-response","348","128411","0.0-348.0","3N2BF7Y2VRGJS5UELSY1THV5SIJMHD","ALVNMQMD3Q3ZE","3THR0FZ95PF7SK0MYRNAOUHTWDJOLG","","null","<img src=""img/land4.png"" style=""width:200px; border:14px solid green;"">","null","","","","","","","","","",""
"","image-keyboard-response","349","128456","0.0-349.0","3N2BF7Y2VRGJS5UELSY1THV5SIJMHD","ALVNMQMD3Q3ZE","3THR0FZ95PF7SK0MYRNAOUHTWDJOLG","","42.59999990463257","img/land4.png","75","43.89999985694885","2","0","1","2","0.8,0.2,0.2,0.2,0.8,0.2,0.2,0.2,0.8","0.2,0.2,0.8,0.8,0.2,0.2,0.2,0.8,0.2","2","",""
"","html-keyboard-response","350","128757","0.0-350.0","3N2BF7Y2VRGJS5UELSY1THV5SIJMHD","ALVNMQMD3Q3ZE","3THR0FZ95PF7SK0MYRNAOUHTWDJOLG","","null","<img src=""img/land4.png"" style=""width:200px;border:14px solid red;"">","null","","","","","","","","","",""
"","image-keyboard-response","351","128809","0.0-351.0","3N2BF7Y2VRGJS5UELSY1THV5SIJMHD","ALVNMQMD3Q3ZE","3THR0FZ95PF7SK0MYRNAOUHTWDJOLG","","50.30000019073486","img/land4.png","75","51.200000047683716","2","0","1","2","0.8,0.2,0.2,0.2,0.8,0.2,0.2,0.2,0.8","0.2,0.2,0.8,0.8,0.2,0.2,0.2,0.8,0.2","2","",""
"","html-keyboard-response","352","129111","0.0-352.0","3N2BF7Y2VRGJS5UELSY1THV5SIJMHD","ALVNMQMD3Q3ZE","3THR0FZ95PF7SK0MYRNAOUHTWDJOLG","","null","<img src=""img/land4.png"" style=""width:200px;border:14px solid red;"">","null","","","","","","","","","",""
"","image-keyboard-response","353","129240","0.0-353.0","3N2BF7Y2VRGJS5UELSY1THV5SIJMHD","ALVNMQMD3Q3ZE","3THR0FZ95PF7SK0MYRNAOUHTWDJOLG","","126.90000009536743","img/land4.png","74","127.90000009536743","1","1","1","2","0.8,0.2,0.2,0.2,0.8,0.2,0.2,0.2,0.8","0.2,0.2,0.8,0.8,0.2,0.2,0.2,0.8,0.2","2","",""
"","html-keyboard-response","354","129541","0.0-354.0","3N2BF7Y2VRGJS5UELSY1THV5SIJMHD","ALVNMQMD3Q3ZE","3THR0FZ95PF7SK0MYRNAOUHTWDJOLG","","null","<img src=""img/land4.png"" style=""width:200px; border:14px solid green;"">","null","","","","","","","","","",""
"","image-keyboard-response","355","129740","0.0-355.0","3N2BF7Y2VRGJS5UELSY1THV5SIJMHD","ALVNMQMD3Q3ZE","3THR0FZ95PF7SK0MYRNAOUHTWDJOLG","","197.29999995231628","img/land4.png","74","198.29999995231628","1","0","1","2","0.8,0.2,0.2,0.2,0.8,0.2,0.2,0.2,0.8","0.2,0.2,0.8,0.8,0.2,0.2,0.2,0.8,0.2","2","",""
"","html-keyboard-response","356","130042","0.0-356.0","3N2BF7Y2VRGJS5UELSY1THV5SIJMHD","ALVNMQMD3Q3ZE","3THR0FZ95PF7SK0MYRNAOUHTWDJOLG","","null","<img src=""img/land4.png"" style=""width:200px;border:14px solid red;"">","null","","","","","","","","","",""
