"success","trial_type","trial_index","time_elapsed","internal_node_id","assignmentID","mturkID","hitID","view_history","rt","stimulus","key_press","reactionTime","a","r","warning","s","reward_cond","responses","question_order"
"true","fullscreen","0","11937","0.0-0.0","3WQQ9FUS6BGUG3PORZEM2ORC9GD8BB","AMHUDJ44HF1ZH","3WPCIUYH1AU470H2HRBLZRFBM3CTDN","","","","","","","","","","","",""
"","instructions","1","75712","0.0-1.0","3WQQ9FUS6BGUG3PORZEM2ORC9GD8BB","AMHUDJ44HF1ZH","3WPCIUYH1AU470H2HRBLZRFBM3CTDN","[{""page_index"":0,""viewing_time"":53141.40000000596},{""page_index"":1,""viewing_time"":1154.300000011921},{""page_index"":2,""viewing_time"":431.59999999403954},{""page_index"":3,""viewing_time"":320.2999999821186},{""page_index"":4,""viewing_time"":2982},{""page_index"":5,""viewing_time"":2772.9000000059605},{""page_index"":6,""viewing_time"":2041.5},{""page_index"":7,""viewing_time"":930}]","63774.40000000596","","","","","","","","","",""
"","image-keyboard-response","2","76714","0.0-2.0","3WQQ9FUS6BGUG3PORZEM2ORC9GD8BB","AMHUDJ44HF1ZH","3WPCIUYH1AU470H2HRBLZRFBM3CTDN","","","img/land5.png","","1002.1999999880791","-1","0","true","2","0.8,0.8,0.2,0.2,0.8,0.8,0.8,0.2,0.8","",""
"","html-keyboard-response","3","77017","0.0-3.0","3WQQ9FUS6BGUG3PORZEM2ORC9GD8BB","AMHUDJ44HF1ZH","3WPCIUYH1AU470H2HRBLZRFBM3CTDN","","null","<img src=""img/land5.png"" style=""width:200px;border:14px solid red;"">","null","","","","","","","",""
"","html-keyboard-response","4","88097","0.0-4.0-0.0","3WQQ9FUS6BGUG3PORZEM2ORC9GD8BB","AMHUDJ44HF1ZH","3WPCIUYH1AU470H2HRBLZRFBM3CTDN","","","","","","","","","","","",""
"","image-keyboard-response","5","88880","0.0-5.0","3WQQ9FUS6BGUG3PORZEM2ORC9GD8BB","AMHUDJ44HF1ZH","3WPCIUYH1AU470H2HRBLZRFBM3CTDN","","781.2999999821186","img/land3.png","75","782.0999999940395","2","1","false","1","0.8,0.8,0.2,0.2,0.8,0.8,0.8,0.2,0.8","",""
"","html-keyboard-response","6","89181","0.0-6.0","3WQQ9FUS6BGUG3PORZEM2ORC9GD8BB","AMHUDJ44HF1ZH","3WPCIUYH1AU470H2HRBLZRFBM3CTDN","","null","<img src=""img/land3.png"" style=""width:200px; border:14px solid green;"">","null","","","","","","","",""
"","image-keyboard-response","7","89845","0.0-8.0","3WQQ9FUS6BGUG3PORZEM2ORC9GD8BB","AMHUDJ44HF1ZH","3WPCIUYH1AU470H2HRBLZRFBM3CTDN","","663.8000000119209","img/land3.png","75","664.2999999821186","2","1","false","1","0.8,0.8,0.2,0.2,0.8,0.8,0.8,0.2,0.8","",""
"","html-keyboard-response","8","90147","0.0-9.0","3WQQ9FUS6BGUG3PORZEM2ORC9GD8BB","AMHUDJ44HF1ZH","3WPCIUYH1AU470H2HRBLZRFBM3CTDN","","null","<img src=""img/land3.png"" style=""width:200px; border:14px solid green;"">","null","","","","","","","",""
"","image-keyboard-response","9","90444","0.0-11.0","3WQQ9FUS6BGUG3PORZEM2ORC9GD8BB","AMHUDJ44HF1ZH","3WPCIUYH1AU470H2HRBLZRFBM3CTDN","","296","img/land3.png","75","296.80000001192093","2","1","false","1","0.8,0.8,0.2,0.2,0.8,0.8,0.8,0.2,0.8","",""
"","html-keyboard-response","10","90746","0.0-12.0","3WQQ9FUS6BGUG3PORZEM2ORC9GD8BB","AMHUDJ44HF1ZH","3WPCIUYH1AU470H2HRBLZRFBM3CTDN","","null","<img src=""img/land3.png"" style=""width:200px; border:14px solid green;"">","null","","","","","","","",""
"","image-keyboard-response","11","91748","0.0-14.0","3WQQ9FUS6BGUG3PORZEM2ORC9GD8BB","AMHUDJ44HF1ZH","3WPCIUYH1AU470H2HRBLZRFBM3CTDN","","","img/land5.png","","1002.3000000119209","-1","0","true","2","0.8,0.8,0.2,0.2,0.8,0.8,0.8,0.2,0.8","",""
"","html-keyboard-response","12","92049","0.0-15.0","3WQQ9FUS6BGUG3PORZEM2ORC9GD8BB","AMHUDJ44HF1ZH","3WPCIUYH1AU470H2HRBLZRFBM3CTDN","","null","<img src=""img/land5.png"" style=""width:200px;border:14px solid red;"">","null","","","","","","","",""
"","html-keyboard-response","13","95240","0.0-16.0-0.0","3WQQ9FUS6BGUG3PORZEM2ORC9GD8BB","AMHUDJ44HF1ZH","3WPCIUYH1AU470H2HRBLZRFBM3CTDN","","","","","","","","","","","",""
"","image-keyboard-response","14","95960","0.0-17.0","3WQQ9FUS6BGUG3PORZEM2ORC9GD8BB","AMHUDJ44HF1ZH","3WPCIUYH1AU470H2HRBLZRFBM3CTDN","","719.0999999940395","img/land9.png","75","719.8000000119209","2","0","false","3","0.8,0.8,0.2,0.2,0.8,0.8,0.8,0.2,0.8","",""
"","html-keyboard-response","15","96261","0.0-18.0","3WQQ9FUS6BGUG3PORZEM2ORC9GD8BB","AMHUDJ44HF1ZH","3WPCIUYH1AU470H2HRBLZRFBM3CTDN","","null","<img src=""img/land9.png"" style=""width:200px;border:14px solid red;"">","null","","","","","","","",""
"","image-keyboard-response","16","96307","0.0-20.0","3WQQ9FUS6BGUG3PORZEM2ORC9GD8BB","AMHUDJ44HF1ZH","3WPCIUYH1AU470H2HRBLZRFBM3CTDN","","45.400000005960464","img/land3.png","76","46","3","1","false","1","0.8,0.8,0.2,0.2,0.8,0.8,0.8,0.2,0.8","",""
"","html-keyboard-response","17","96608","0.0-21.0","3WQQ9FUS6BGUG3PORZEM2ORC9GD8BB","AMHUDJ44HF1ZH","3WPCIUYH1AU470H2HRBLZRFBM3CTDN","","null","<img src=""img/land3.png"" style=""width:200px; border:14px solid green;"">","null","","","","","","","",""
"","image-keyboard-response","18","96732","0.0-23.0","3WQQ9FUS6BGUG3PORZEM2ORC9GD8BB","AMHUDJ44HF1ZH","3WPCIUYH1AU470H2HRBLZRFBM3CTDN","","123.30000001192093","img/land9.png","76","124","3","1","false","3","0.8,0.8,0.2,0.2,0.8,0.8,0.8,0.2,0.8","",""
"","html-keyboard-response","19","97035","0.0-24.0","3WQQ9FUS6BGUG3PORZEM2ORC9GD8BB","AMHUDJ44HF1ZH","3WPCIUYH1AU470H2HRBLZRFBM3CTDN","","null","<img src=""img/land9.png"" style=""width:200px; border:14px solid green;"">","null","","","","","","","",""
"","image-keyboard-response","20","97169","0.0-26.0","3WQQ9FUS6BGUG3PORZEM2ORC9GD8BB","AMHUDJ44HF1ZH","3WPCIUYH1AU470H2HRBLZRFBM3CTDN","","133.30000001192093","img/land5.png","75","133.89999997615814","2","1","false","2","0.8,0.8,0.2,0.2,0.8,0.8,0.8,0.2,0.8","",""
"","html-keyboard-response","21","97470","0.0-27.0","3WQQ9FUS6BGUG3PORZEM2ORC9GD8BB","AMHUDJ44HF1ZH","3WPCIUYH1AU470H2HRBLZRFBM3CTDN","","null","<img src=""img/land5.png"" style=""width:200px; border:14px solid green;"">","null","","","","","","","",""
"","image-keyboard-response","22","97494","0.0-29.0","3WQQ9FUS6BGUG3PORZEM2ORC9GD8BB","AMHUDJ44HF1ZH","3WPCIUYH1AU470H2HRBLZRFBM3CTDN","","23.30000001192093","img/land5.png","76","23.900000005960464","3","0","false","2","0.8,0.8,0.2,0.2,0.8,0.8,0.8,0.2,0.8","",""
"","html-keyboard-response","23","97796","0.0-30.0","3WQQ9FUS6BGUG3PORZEM2ORC9GD8BB","AMHUDJ44HF1ZH","3WPCIUYH1AU470H2HRBLZRFBM3CTDN","","null","<img src=""img/land5.png"" style=""width:200px;border:14px solid red;"">","null","","","","","","","",""
"","image-keyboard-response","24","97814","0.0-32.0","3WQQ9FUS6BGUG3PORZEM2ORC9GD8BB","AMHUDJ44HF1ZH","3WPCIUYH1AU470H2HRBLZRFBM3CTDN","","17.200000017881393","img/land9.png","75","17.80000001192093","2","0","false","3","0.8,0.8,0.2,0.2,0.8,0.8,0.8,0.2,0.8","",""
"","html-keyboard-response","25","98115","0.0-33.0","3WQQ9FUS6BGUG3PORZEM2ORC9GD8BB","AMHUDJ44HF1ZH","3WPCIUYH1AU470H2HRBLZRFBM3CTDN","","null","<img src=""img/land9.png"" style=""width:200px;border:14px solid red;"">","null","","","","","","","",""
"","image-keyboard-response","26","98119","0.0-35.0","3WQQ9FUS6BGUG3PORZEM2ORC9GD8BB","AMHUDJ44HF1ZH","3WPCIUYH1AU470H2HRBLZRFBM3CTDN","","2.5999999940395355","img/land3.png","75","3.199999988079071","2","1","false","1","0.8,0.8,0.2,0.2,0.8,0.8,0.8,0.2,0.8","",""
"","html-keyboard-response","27","98420","0.0-36.0","3WQQ9FUS6BGUG3PORZEM2ORC9GD8BB","AMHUDJ44HF1ZH","3WPCIUYH1AU470H2HRBLZRFBM3CTDN","","null","<img src=""img/land3.png"" style=""width:200px; border:14px solid green;"">","null","","","","","","","",""
"","image-keyboard-response","28","98706","0.0-38.0","3WQQ9FUS6BGUG3PORZEM2ORC9GD8BB","AMHUDJ44HF1ZH","3WPCIUYH1AU470H2HRBLZRFBM3CTDN","","285.59999999403954","img/land9.png","76","286.19999998807907","3","0","false","3","0.8,0.8,0.2,0.2,0.8,0.8,0.8,0.2,0.8","",""
"","html-keyboard-response","29","99007","0.0-39.0","3WQQ9FUS6BGUG3PORZEM2ORC9GD8BB","AMHUDJ44HF1ZH","3WPCIUYH1AU470H2HRBLZRFBM3CTDN","","null","<img src=""img/land9.png"" style=""width:200px;border:14px solid red;"">","null","","","","","","","",""
"","image-keyboard-response","30","99104","0.0-41.0","3WQQ9FUS6BGUG3PORZEM2ORC9GD8BB","AMHUDJ44HF1ZH","3WPCIUYH1AU470H2HRBLZRFBM3CTDN","","95.5","img/land9.png","76","96.09999999403954","3","1","false","3","0.8,0.8,0.2,0.2,0.8,0.8,0.8,0.2,0.8","",""
"","html-keyboard-response","31","99406","0.0-42.0","3WQQ9FUS6BGUG3PORZEM2ORC9GD8BB","AMHUDJ44HF1ZH","3WPCIUYH1AU470H2HRBLZRFBM3CTDN","","null","<img src=""img/land9.png"" style=""width:200px; border:14px solid green;"">","null","","","","","","","",""
"","image-keyboard-response","32","99424","0.0-44.0","3WQQ9FUS6BGUG3PORZEM2ORC9GD8BB","AMHUDJ44HF1ZH","3WPCIUYH1AU470H2HRBLZRFBM3CTDN","","17.30000001192093","img/land5.png","76","17.799999982118607","3","0","false","2","0.8,0.8,0.2,0.2,0.8,0.8,0.8,0.2,0.8","",""
"","html-keyboard-response","33","99726","0.0-45.0","3WQQ9FUS6BGUG3PORZEM2ORC9GD8BB","AMHUDJ44HF1ZH","3WPCIUYH1AU470H2HRBLZRFBM3CTDN","","null","<img src=""img/land5.png"" style=""width:200px;border:14px solid red;"">","null","","","","","","","",""
"","image-keyboard-response","34","99876","0.0-47.0","3WQQ9FUS6BGUG3PORZEM2ORC9GD8BB","AMHUDJ44HF1ZH","3WPCIUYH1AU470H2HRBLZRFBM3CTDN","","149.40000000596046","img/land9.png","76","150","3","1","false","3","0.8,0.8,0.2,0.2,0.8,0.8,0.8,0.2,0.8","",""
"","html-keyboard-response","35","100177","0.0-48.0","3WQQ9FUS6BGUG3PORZEM2ORC9GD8BB","AMHUDJ44HF1ZH","3WPCIUYH1AU470H2HRBLZRFBM3CTDN","","null","<img src=""img/land9.png"" style=""width:200px; border:14px solid green;"">","null","","","","","","","",""
"","image-keyboard-response","36","100464","0.0-50.0","3WQQ9FUS6BGUG3PORZEM2ORC9GD8BB","AMHUDJ44HF1ZH","3WPCIUYH1AU470H2HRBLZRFBM3CTDN","","286.2999999821186","img/land9.png","74","287","1","1","false","3","0.8,0.8,0.2,0.2,0.8,0.8,0.8,0.2,0.8","",""
"","html-keyboard-response","37","100765","0.0-51.0","3WQQ9FUS6BGUG3PORZEM2ORC9GD8BB","AMHUDJ44HF1ZH","3WPCIUYH1AU470H2HRBLZRFBM3CTDN","","null","<img src=""img/land9.png"" style=""width:200px; border:14px solid green;"">","null","","","","","","","",""
"","image-keyboard-response","38","100803","0.0-53.0","3WQQ9FUS6BGUG3PORZEM2ORC9GD8BB","AMHUDJ44HF1ZH","3WPCIUYH1AU470H2HRBLZRFBM3CTDN","","37.099999994039536","img/land3.png","74","37.5","1","1","false","1","0.8,0.8,0.2,0.2,0.8,0.8,0.8,0.2,0.8","",""
"","html-keyboard-response","39","101105","0.0-54.0","3WQQ9FUS6BGUG3PORZEM2ORC9GD8BB","AMHUDJ44HF1ZH","3WPCIUYH1AU470H2HRBLZRFBM3CTDN","","null","<img src=""img/land3.png"" style=""width:200px; border:14px solid green;"">","null","","","","","","","",""
"","image-keyboard-response","40","101110","0.0-56.0","3WQQ9FUS6BGUG3PORZEM2ORC9GD8BB","AMHUDJ44HF1ZH","3WPCIUYH1AU470H2HRBLZRFBM3CTDN","","4.5999999940395355","img/land3.png","74","5.199999988079071","1","1","false","1","0.8,0.8,0.2,0.2,0.8,0.8,0.8,0.2,0.8","",""
"","html-keyboard-response","41","101413","0.0-57.0","3WQQ9FUS6BGUG3PORZEM2ORC9GD8BB","AMHUDJ44HF1ZH","3WPCIUYH1AU470H2HRBLZRFBM3CTDN","","null","<img src=""img/land3.png"" style=""width:200px; border:14px solid green;"">","null","","","","","","","",""
"","image-keyboard-response","42","101555","0.0-59.0","3WQQ9FUS6BGUG3PORZEM2ORC9GD8BB","AMHUDJ44HF1ZH","3WPCIUYH1AU470H2HRBLZRFBM3CTDN","","141.19999998807907","img/land5.png","76","141.7999999821186","3","1","false","2","0.8,0.8,0.2,0.2,0.8,0.8,0.8,0.2,0.8","",""
"","html-keyboard-response","43","101857","0.0-60.0","3WQQ9FUS6BGUG3PORZEM2ORC9GD8BB","AMHUDJ44HF1ZH","3WPCIUYH1AU470H2HRBLZRFBM3CTDN","","null","<img src=""img/land5.png"" style=""width:200px; border:14px solid green;"">","null","","","","","","","",""
"","image-keyboard-response","44","102260","0.0-62.0","3WQQ9FUS6BGUG3PORZEM2ORC9GD8BB","AMHUDJ44HF1ZH","3WPCIUYH1AU470H2HRBLZRFBM3CTDN","","402.09999999403954","img/land9.png","74","402.69999998807907","1","0","false","3","0.8,0.8,0.2,0.2,0.8,0.8,0.8,0.2,0.8","",""
"","html-keyboard-response","45","102561","0.0-63.0","3WQQ9FUS6BGUG3PORZEM2ORC9GD8BB","AMHUDJ44HF1ZH","3WPCIUYH1AU470H2HRBLZRFBM3CTDN","","null","<img src=""img/land9.png"" style=""width:200px;border:14px solid red;"">","null","","","","","","","",""
"","image-keyboard-response","46","102682","0.0-65.0","3WQQ9FUS6BGUG3PORZEM2ORC9GD8BB","AMHUDJ44HF1ZH","3WPCIUYH1AU470H2HRBLZRFBM3CTDN","","120.40000000596046","img/land5.png","76","120.90000000596046","3","0","false","2","0.8,0.8,0.2,0.2,0.8,0.8,0.8,0.2,0.8","",""
"","html-keyboard-response","47","102983","0.0-66.0","3WQQ9FUS6BGUG3PORZEM2ORC9GD8BB","AMHUDJ44HF1ZH","3WPCIUYH1AU470H2HRBLZRFBM3CTDN","","null","<img src=""img/land5.png"" style=""width:200px;border:14px solid red;"">","null","","","","","","","",""
"","image-keyboard-response","48","103082","0.0-68.0","3WQQ9FUS6BGUG3PORZEM2ORC9GD8BB","AMHUDJ44HF1ZH","3WPCIUYH1AU470H2HRBLZRFBM3CTDN","","98.5","img/land3.png","76","99.09999999403954","3","0","false","1","0.8,0.8,0.2,0.2,0.8,0.8,0.8,0.2,0.8","",""
"","html-keyboard-response","49","103384","0.0-69.0","3WQQ9FUS6BGUG3PORZEM2ORC9GD8BB","AMHUDJ44HF1ZH","3WPCIUYH1AU470H2HRBLZRFBM3CTDN","","null","<img src=""img/land3.png"" style=""width:200px;border:14px solid red;"">","null","","","","","","","",""
"","image-keyboard-response","50","103385","0.0-71.0","3WQQ9FUS6BGUG3PORZEM2ORC9GD8BB","AMHUDJ44HF1ZH","3WPCIUYH1AU470H2HRBLZRFBM3CTDN","","0.5999999940395355","img/land5.png","75","1.0999999940395355","2","1","false","2","0.8,0.8,0.2,0.2,0.8,0.8,0.8,0.2,0.8","",""
"","html-keyboard-response","51","103687","0.0-72.0","3WQQ9FUS6BGUG3PORZEM2ORC9GD8BB","AMHUDJ44HF1ZH","3WPCIUYH1AU470H2HRBLZRFBM3CTDN","","null","<img src=""img/land5.png"" style=""width:200px; border:14px solid green;"">","null","","","","","","","",""
"","image-keyboard-response","52","103691","0.0-74.0","3WQQ9FUS6BGUG3PORZEM2ORC9GD8BB","AMHUDJ44HF1ZH","3WPCIUYH1AU470H2HRBLZRFBM3CTDN","","3.5999999940395355","img/land5.png","74","4.300000011920929","1","1","false","2","0.8,0.8,0.2,0.2,0.8,0.8,0.8,0.2,0.8","",""
"","html-keyboard-response","53","103993","0.0-75.0","3WQQ9FUS6BGUG3PORZEM2ORC9GD8BB","AMHUDJ44HF1ZH","3WPCIUYH1AU470H2HRBLZRFBM3CTDN","","null","<img src=""img/land5.png"" style=""width:200px; border:14px solid green;"">","null","","","","","","","",""
"","image-keyboard-response","54","104058","0.0-77.0","3WQQ9FUS6BGUG3PORZEM2ORC9GD8BB","AMHUDJ44HF1ZH","3WPCIUYH1AU470H2HRBLZRFBM3CTDN","","64","img/land5.png","74","64.60000002384186","1","0","false","2","0.8,0.8,0.2,0.2,0.8,0.8,0.8,0.2,0.8","",""
"","html-keyboard-response","55","104359","0.0-78.0","3WQQ9FUS6BGUG3PORZEM2ORC9GD8BB","AMHUDJ44HF1ZH","3WPCIUYH1AU470H2HRBLZRFBM3CTDN","","null","<img src=""img/land5.png"" style=""width:200px;border:14px solid red;"">","null","","","","","","","",""
"","image-keyboard-response","56","104457","0.0-80.0","3WQQ9FUS6BGUG3PORZEM2ORC9GD8BB","AMHUDJ44HF1ZH","3WPCIUYH1AU470H2HRBLZRFBM3CTDN","","97.60000002384186","img/land5.png","74","98.19999998807907","1","0","false","2","0.8,0.8,0.2,0.2,0.8,0.8,0.8,0.2,0.8","",""
"","html-keyboard-response","57","104759","0.0-81.0","3WQQ9FUS6BGUG3PORZEM2ORC9GD8BB","AMHUDJ44HF1ZH","3WPCIUYH1AU470H2HRBLZRFBM3CTDN","","null","<img src=""img/land5.png"" style=""width:200px;border:14px solid red;"">","null","","","","","","","",""
"","image-keyboard-response","58","104898","0.0-83.0","3WQQ9FUS6BGUG3PORZEM2ORC9GD8BB","AMHUDJ44HF1ZH","3WPCIUYH1AU470H2HRBLZRFBM3CTDN","","138.09999999403954","img/land9.png","74","138.7999999821186","1","0","false","3","0.8,0.8,0.2,0.2,0.8,0.8,0.8,0.2,0.8","",""
"","html-keyboard-response","59","105199","0.0-84.0","3WQQ9FUS6BGUG3PORZEM2ORC9GD8BB","AMHUDJ44HF1ZH","3WPCIUYH1AU470H2HRBLZRFBM3CTDN","","null","<img src=""img/land9.png"" style=""width:200px;border:14px solid red;"">","null","","","","","","","",""
"","image-keyboard-response","60","105442","0.0-86.0","3WQQ9FUS6BGUG3PORZEM2ORC9GD8BB","AMHUDJ44HF1ZH","3WPCIUYH1AU470H2HRBLZRFBM3CTDN","","242.10000002384186","img/land3.png","75","243","2","1","false","1","0.8,0.8,0.2,0.2,0.8,0.8,0.8,0.2,0.8","",""
"","html-keyboard-response","61","105744","0.0-87.0","3WQQ9FUS6BGUG3PORZEM2ORC9GD8BB","AMHUDJ44HF1ZH","3WPCIUYH1AU470H2HRBLZRFBM3CTDN","","null","<img src=""img/land3.png"" style=""width:200px; border:14px solid green;"">","null","","","","","","","",""
"","image-keyboard-response","62","105749","0.0-89.0","3WQQ9FUS6BGUG3PORZEM2ORC9GD8BB","AMHUDJ44HF1ZH","3WPCIUYH1AU470H2HRBLZRFBM3CTDN","","4.4000000059604645","img/land3.png","75","5.100000023841858","2","0","false","1","0.8,0.8,0.2,0.2,0.8,0.8,0.8,0.2,0.8","",""
"","html-keyboard-response","63","106050","0.0-90.0","3WQQ9FUS6BGUG3PORZEM2ORC9GD8BB","AMHUDJ44HF1ZH","3WPCIUYH1AU470H2HRBLZRFBM3CTDN","","null","<img src=""img/land3.png"" style=""width:200px;border:14px solid red;"">","null","","","","","","","",""
"","image-keyboard-response","64","106059","0.0-92.0","3WQQ9FUS6BGUG3PORZEM2ORC9GD8BB","AMHUDJ44HF1ZH","3WPCIUYH1AU470H2HRBLZRFBM3CTDN","","8.199999988079071","img/land3.png","75","8.800000011920929","2","1","false","1","0.8,0.8,0.2,0.2,0.8,0.8,0.8,0.2,0.8","",""
"","html-keyboard-response","65","106360","0.0-93.0","3WQQ9FUS6BGUG3PORZEM2ORC9GD8BB","AMHUDJ44HF1ZH","3WPCIUYH1AU470H2HRBLZRFBM3CTDN","","null","<img src=""img/land3.png"" style=""width:200px; border:14px solid green;"">","null","","","","","","","",""
"","image-keyboard-response","66","106535","0.0-95.0","3WQQ9FUS6BGUG3PORZEM2ORC9GD8BB","AMHUDJ44HF1ZH","3WPCIUYH1AU470H2HRBLZRFBM3CTDN","","174","img/land5.png","75","174.5","2","1","false","2","0.8,0.8,0.2,0.2,0.8,0.8,0.8,0.2,0.8","",""
"","html-keyboard-response","67","106836","0.0-96.0","3WQQ9FUS6BGUG3PORZEM2ORC9GD8BB","AMHUDJ44HF1ZH","3WPCIUYH1AU470H2HRBLZRFBM3CTDN","","null","<img src=""img/land5.png"" style=""width:200px; border:14px solid green;"">","null","","","","","","","",""
"","image-keyboard-response","68","107014","0.0-98.0","3WQQ9FUS6BGUG3PORZEM2ORC9GD8BB","AMHUDJ44HF1ZH","3WPCIUYH1AU470H2HRBLZRFBM3CTDN","","177.5","img/land3.png","76","178.09999999403954","3","0","false","1","0.8,0.8,0.2,0.2,0.8,0.8,0.8,0.2,0.8","",""
"","html-keyboard-response","69","107316","0.0-99.0","3WQQ9FUS6BGUG3PORZEM2ORC9GD8BB","AMHUDJ44HF1ZH","3WPCIUYH1AU470H2HRBLZRFBM3CTDN","","null","<img src=""img/land3.png"" style=""width:200px;border:14px solid red;"">","null","","","","","","","",""
"","image-keyboard-response","70","107496","0.0-101.0","3WQQ9FUS6BGUG3PORZEM2ORC9GD8BB","AMHUDJ44HF1ZH","3WPCIUYH1AU470H2HRBLZRFBM3CTDN","","179.5","img/land9.png","74","180.19999998807907","1","1","false","3","0.8,0.8,0.2,0.2,0.8,0.8,0.8,0.2,0.8","",""
"","html-keyboard-response","71","107798","0.0-102.0","3WQQ9FUS6BGUG3PORZEM2ORC9GD8BB","AMHUDJ44HF1ZH","3WPCIUYH1AU470H2HRBLZRFBM3CTDN","","null","<img src=""img/land9.png"" style=""width:200px; border:14px solid green;"">","null","","","","","","","",""
"","image-keyboard-response","72","108065","0.0-104.0","3WQQ9FUS6BGUG3PORZEM2ORC9GD8BB","AMHUDJ44HF1ZH","3WPCIUYH1AU470H2HRBLZRFBM3CTDN","","266.7000000178814","img/land5.png","74","267.2999999821186","1","1","false","2","0.8,0.8,0.2,0.2,0.8,0.8,0.8,0.2,0.8","",""
"","html-keyboard-response","73","108367","0.0-105.0","3WQQ9FUS6BGUG3PORZEM2ORC9GD8BB","AMHUDJ44HF1ZH","3WPCIUYH1AU470H2HRBLZRFBM3CTDN","","null","<img src=""img/land5.png"" style=""width:200px; border:14px solid green;"">","null","","","","","","","",""
"","image-keyboard-response","74","108650","0.0-107.0","3WQQ9FUS6BGUG3PORZEM2ORC9GD8BB","AMHUDJ44HF1ZH","3WPCIUYH1AU470H2HRBLZRFBM3CTDN","","282.7000000178814","img/land5.png","75","283.2999999821186","2","0","false","2","0.8,0.8,0.2,0.2,0.8,0.8,0.8,0.2,0.8","",""
"","html-keyboard-response","75","108951","0.0-108.0","3WQQ9FUS6BGUG3PORZEM2ORC9GD8BB","AMHUDJ44HF1ZH","3WPCIUYH1AU470H2HRBLZRFBM3CTDN","","null","<img src=""img/land5.png"" style=""width:200px;border:14px solid red;"">","null","","","","","","","",""
"","image-keyboard-response","76","109047","0.0-110.0","3WQQ9FUS6BGUG3PORZEM2ORC9GD8BB","AMHUDJ44HF1ZH","3WPCIUYH1AU470H2HRBLZRFBM3CTDN","","95.19999998807907","img/land5.png","75","96","2","1","false","2","0.8,0.8,0.2,0.2,0.8,0.8,0.8,0.2,0.8","",""
"","html-keyboard-response","77","109348","0.0-111.0","3WQQ9FUS6BGUG3PORZEM2ORC9GD8BB","AMHUDJ44HF1ZH","3WPCIUYH1AU470H2HRBLZRFBM3CTDN","","null","<img src=""img/land5.png"" style=""width:200px; border:14px solid green;"">","null","","","","","","","",""
"","image-keyboard-response","78","109473","0.0-113.0","3WQQ9FUS6BGUG3PORZEM2ORC9GD8BB","AMHUDJ44HF1ZH","3WPCIUYH1AU470H2HRBLZRFBM3CTDN","","123.90000000596046","img/land3.png","75","124.59999999403954","2","1","false","1","0.8,0.8,0.2,0.2,0.8,0.8,0.8,0.2,0.8","",""
"","html-keyboard-response","79","109774","0.0-114.0","3WQQ9FUS6BGUG3PORZEM2ORC9GD8BB","AMHUDJ44HF1ZH","3WPCIUYH1AU470H2HRBLZRFBM3CTDN","","null","<img src=""img/land3.png"" style=""width:200px; border:14px solid green;"">","null","","","","","","","",""
"","image-keyboard-response","80","109806","0.0-116.0","3WQQ9FUS6BGUG3PORZEM2ORC9GD8BB","AMHUDJ44HF1ZH","3WPCIUYH1AU470H2HRBLZRFBM3CTDN","","30.69999998807907","img/land9.png","76","31.30000001192093","3","1","false","3","0.8,0.8,0.2,0.2,0.8,0.8,0.8,0.2,0.8","",""
"","html-keyboard-response","81","110107","0.0-117.0","3WQQ9FUS6BGUG3PORZEM2ORC9GD8BB","AMHUDJ44HF1ZH","3WPCIUYH1AU470H2HRBLZRFBM3CTDN","","null","<img src=""img/land9.png"" style=""width:200px; border:14px solid green;"">","null","","","","","","","",""
"","image-keyboard-response","82","110301","0.0-119.0","3WQQ9FUS6BGUG3PORZEM2ORC9GD8BB","AMHUDJ44HF1ZH","3WPCIUYH1AU470H2HRBLZRFBM3CTDN","","193.39999997615814","img/land3.png","75","194","2","1","false","1","0.8,0.8,0.2,0.2,0.8,0.8,0.8,0.2,0.8","",""
"","html-keyboard-response","83","110603","0.0-120.0","3WQQ9FUS6BGUG3PORZEM2ORC9GD8BB","AMHUDJ44HF1ZH","3WPCIUYH1AU470H2HRBLZRFBM3CTDN","","null","<img src=""img/land3.png"" style=""width:200px; border:14px solid green;"">","null","","","","","","","",""
"","image-keyboard-response","84","110815","0.0-122.0","3WQQ9FUS6BGUG3PORZEM2ORC9GD8BB","AMHUDJ44HF1ZH","3WPCIUYH1AU470H2HRBLZRFBM3CTDN","","211.59999999403954","img/land5.png","75","212.19999998807907","2","1","false","2","0.8,0.8,0.2,0.2,0.8,0.8,0.8,0.2,0.8","",""
"","html-keyboard-response","85","111116","0.0-123.0","3WQQ9FUS6BGUG3PORZEM2ORC9GD8BB","AMHUDJ44HF1ZH","3WPCIUYH1AU470H2HRBLZRFBM3CTDN","","null","<img src=""img/land5.png"" style=""width:200px; border:14px solid green;"">","null","","","","","","","",""
"","image-keyboard-response","86","111332","0.0-125.0","3WQQ9FUS6BGUG3PORZEM2ORC9GD8BB","AMHUDJ44HF1ZH","3WPCIUYH1AU470H2HRBLZRFBM3CTDN","","215","img/land5.png","74","215.7000000178814","1","0","false","2","0.8,0.8,0.2,0.2,0.8,0.8,0.8,0.2,0.8","",""
"","html-keyboard-response","87","111633","0.0-126.0","3WQQ9FUS6BGUG3PORZEM2ORC9GD8BB","AMHUDJ44HF1ZH","3WPCIUYH1AU470H2HRBLZRFBM3CTDN","","null","<img src=""img/land5.png"" style=""width:200px;border:14px solid red;"">","null","","","","","","","",""
"","image-keyboard-response","88","111642","0.0-128.0","3WQQ9FUS6BGUG3PORZEM2ORC9GD8BB","AMHUDJ44HF1ZH","3WPCIUYH1AU470H2HRBLZRFBM3CTDN","","8.299999982118607","img/land5.png","76","9","3","1","false","2","0.8,0.8,0.2,0.2,0.8,0.8,0.8,0.2,0.8","",""
"","html-keyboard-response","89","111943","0.0-129.0","3WQQ9FUS6BGUG3PORZEM2ORC9GD8BB","AMHUDJ44HF1ZH","3WPCIUYH1AU470H2HRBLZRFBM3CTDN","","null","<img src=""img/land5.png"" style=""width:200px; border:14px solid green;"">","null","","","","","","","",""
"","image-keyboard-response","90","112200","0.0-131.0","3WQQ9FUS6BGUG3PORZEM2ORC9GD8BB","AMHUDJ44HF1ZH","3WPCIUYH1AU470H2HRBLZRFBM3CTDN","","256","img/land9.png","76","256.60000002384186","3","1","false","3","0.8,0.8,0.2,0.2,0.8,0.8,0.8,0.2,0.8","",""
"","html-keyboard-response","91","112501","0.0-132.0","3WQQ9FUS6BGUG3PORZEM2ORC9GD8BB","AMHUDJ44HF1ZH","3WPCIUYH1AU470H2HRBLZRFBM3CTDN","","null","<img src=""img/land9.png"" style=""width:200px; border:14px solid green;"">","null","","","","","","","",""
"","image-keyboard-response","92","112759","0.0-134.0","3WQQ9FUS6BGUG3PORZEM2ORC9GD8BB","AMHUDJ44HF1ZH","3WPCIUYH1AU470H2HRBLZRFBM3CTDN","","257.2000000178814","img/land9.png","76","257.59999999403954","3","0","false","3","0.8,0.8,0.2,0.2,0.8,0.8,0.8,0.2,0.8","",""
"","html-keyboard-response","93","113060","0.0-135.0","3WQQ9FUS6BGUG3PORZEM2ORC9GD8BB","AMHUDJ44HF1ZH","3WPCIUYH1AU470H2HRBLZRFBM3CTDN","","null","<img src=""img/land9.png"" style=""width:200px;border:14px solid red;"">","null","","","","","","","",""
"","image-keyboard-response","94","113302","0.0-137.0","3WQQ9FUS6BGUG3PORZEM2ORC9GD8BB","AMHUDJ44HF1ZH","3WPCIUYH1AU470H2HRBLZRFBM3CTDN","","241","img/land3.png","75","241.59999999403954","2","1","false","1","0.8,0.8,0.2,0.2,0.8,0.8,0.8,0.2,0.8","",""
"","html-keyboard-response","95","113603","0.0-138.0","3WQQ9FUS6BGUG3PORZEM2ORC9GD8BB","AMHUDJ44HF1ZH","3WPCIUYH1AU470H2HRBLZRFBM3CTDN","","null","<img src=""img/land3.png"" style=""width:200px; border:14px solid green;"">","null","","","","","","","",""
"","image-keyboard-response","96","113768","0.0-140.0","3WQQ9FUS6BGUG3PORZEM2ORC9GD8BB","AMHUDJ44HF1ZH","3WPCIUYH1AU470H2HRBLZRFBM3CTDN","","164.59999999403954","img/land9.png","75","165.09999999403954","2","0","false","3","0.8,0.8,0.2,0.2,0.8,0.8,0.8,0.2,0.8","",""
"","html-keyboard-response","97","114070","0.0-141.0","3WQQ9FUS6BGUG3PORZEM2ORC9GD8BB","AMHUDJ44HF1ZH","3WPCIUYH1AU470H2HRBLZRFBM3CTDN","","null","<img src=""img/land9.png"" style=""width:200px;border:14px solid red;"">","null","","","","","","","",""
"","image-keyboard-response","98","114272","0.0-143.0","3WQQ9FUS6BGUG3PORZEM2ORC9GD8BB","AMHUDJ44HF1ZH","3WPCIUYH1AU470H2HRBLZRFBM3CTDN","","201.89999997615814","img/land9.png","74","202.59999999403954","1","1","false","3","0.8,0.8,0.2,0.2,0.8,0.8,0.8,0.2,0.8","",""
"","html-keyboard-response","99","114573","0.0-144.0","3WQQ9FUS6BGUG3PORZEM2ORC9GD8BB","AMHUDJ44HF1ZH","3WPCIUYH1AU470H2HRBLZRFBM3CTDN","","null","<img src=""img/land9.png"" style=""width:200px; border:14px solid green;"">","null","","","","","","","",""
"","image-keyboard-response","100","114729","0.0-146.0","3WQQ9FUS6BGUG3PORZEM2ORC9GD8BB","AMHUDJ44HF1ZH","3WPCIUYH1AU470H2HRBLZRFBM3CTDN","","155.30000001192093","img/land3.png","74","155.7999999821186","1","1","false","1","0.8,0.8,0.2,0.2,0.8,0.8,0.8,0.2,0.8","",""
"","html-keyboard-response","101","115031","0.0-147.0","3WQQ9FUS6BGUG3PORZEM2ORC9GD8BB","AMHUDJ44HF1ZH","3WPCIUYH1AU470H2HRBLZRFBM3CTDN","","null","<img src=""img/land3.png"" style=""width:200px; border:14px solid green;"">","null","","","","","","","",""
"","image-keyboard-response","102","115186","0.0-149.0","3WQQ9FUS6BGUG3PORZEM2ORC9GD8BB","AMHUDJ44HF1ZH","3WPCIUYH1AU470H2HRBLZRFBM3CTDN","","154.19999998807907","img/land9.png","74","154.7999999821186","1","1","false","3","0.8,0.8,0.2,0.2,0.8,0.8,0.8,0.2,0.8","",""
"","html-keyboard-response","103","115487","0.0-150.0","3WQQ9FUS6BGUG3PORZEM2ORC9GD8BB","AMHUDJ44HF1ZH","3WPCIUYH1AU470H2HRBLZRFBM3CTDN","","null","<img src=""img/land9.png"" style=""width:200px; border:14px solid green;"">","null","","","","","","","",""
"","image-keyboard-response","104","115609","0.0-152.0","3WQQ9FUS6BGUG3PORZEM2ORC9GD8BB","AMHUDJ44HF1ZH","3WPCIUYH1AU470H2HRBLZRFBM3CTDN","","120.90000000596046","img/land3.png","74","121.30000001192093","1","1","false","1","0.8,0.8,0.2,0.2,0.8,0.8,0.8,0.2,0.8","",""
"","html-keyboard-response","105","115910","0.0-153.0","3WQQ9FUS6BGUG3PORZEM2ORC9GD8BB","AMHUDJ44HF1ZH","3WPCIUYH1AU470H2HRBLZRFBM3CTDN","","null","<img src=""img/land3.png"" style=""width:200px; border:14px solid green;"">","null","","","","","","","",""
"","image-keyboard-response","106","116019","0.0-155.0","3WQQ9FUS6BGUG3PORZEM2ORC9GD8BB","AMHUDJ44HF1ZH","3WPCIUYH1AU470H2HRBLZRFBM3CTDN","","108.30000001192093","img/land5.png","74","108.7999999821186","1","0","false","2","0.8,0.8,0.2,0.2,0.8,0.8,0.8,0.2,0.8","",""
"","html-keyboard-response","107","116321","0.0-156.0","3WQQ9FUS6BGUG3PORZEM2ORC9GD8BB","AMHUDJ44HF1ZH","3WPCIUYH1AU470H2HRBLZRFBM3CTDN","","null","<img src=""img/land5.png"" style=""width:200px;border:14px solid red;"">","null","","","","","","","",""
"","image-keyboard-response","108","116455","0.0-158.0","3WQQ9FUS6BGUG3PORZEM2ORC9GD8BB","AMHUDJ44HF1ZH","3WPCIUYH1AU470H2HRBLZRFBM3CTDN","","133.59999999403954","img/land3.png","74","134.09999999403954","1","1","false","1","0.8,0.8,0.2,0.2,0.8,0.8,0.8,0.2,0.8","",""
"","html-keyboard-response","109","116756","0.0-159.0","3WQQ9FUS6BGUG3PORZEM2ORC9GD8BB","AMHUDJ44HF1ZH","3WPCIUYH1AU470H2HRBLZRFBM3CTDN","","null","<img src=""img/land3.png"" style=""width:200px; border:14px solid green;"">","null","","","","","","","",""
"","image-keyboard-response","110","116885","0.0-161.0","3WQQ9FUS6BGUG3PORZEM2ORC9GD8BB","AMHUDJ44HF1ZH","3WPCIUYH1AU470H2HRBLZRFBM3CTDN","","128.59999999403954","img/land3.png","74","129","1","0","false","1","0.8,0.8,0.2,0.2,0.8,0.8,0.8,0.2,0.8","",""
"","html-keyboard-response","111","117187","0.0-162.0","3WQQ9FUS6BGUG3PORZEM2ORC9GD8BB","AMHUDJ44HF1ZH","3WPCIUYH1AU470H2HRBLZRFBM3CTDN","","null","<img src=""img/land3.png"" style=""width:200px;border:14px solid red;"">","null","","","","","","","",""
"","image-keyboard-response","112","117318","0.0-164.0","3WQQ9FUS6BGUG3PORZEM2ORC9GD8BB","AMHUDJ44HF1ZH","3WPCIUYH1AU470H2HRBLZRFBM3CTDN","","130.30000001192093","img/land9.png","74","130.90000000596046","1","1","false","3","0.8,0.8,0.2,0.2,0.8,0.8,0.8,0.2,0.8","",""
"","html-keyboard-response","113","117619","0.0-165.0","3WQQ9FUS6BGUG3PORZEM2ORC9GD8BB","AMHUDJ44HF1ZH","3WPCIUYH1AU470H2HRBLZRFBM3CTDN","","null","<img src=""img/land9.png"" style=""width:200px; border:14px solid green;"">","null","","","","","","","",""
"","image-keyboard-response","114","117790","0.0-167.0","3WQQ9FUS6BGUG3PORZEM2ORC9GD8BB","AMHUDJ44HF1ZH","3WPCIUYH1AU470H2HRBLZRFBM3CTDN","","169.69999998807907","img/land9.png","74","170.30000001192093","1","0","false","3","0.8,0.8,0.2,0.2,0.8,0.8,0.8,0.2,0.8","",""
"","html-keyboard-response","115","118091","0.0-168.0","3WQQ9FUS6BGUG3PORZEM2ORC9GD8BB","AMHUDJ44HF1ZH","3WPCIUYH1AU470H2HRBLZRFBM3CTDN","","null","<img src=""img/land9.png"" style=""width:200px;border:14px solid red;"">","null","","","","","","","",""
"","image-keyboard-response","116","118231","0.0-170.0","3WQQ9FUS6BGUG3PORZEM2ORC9GD8BB","AMHUDJ44HF1ZH","3WPCIUYH1AU470H2HRBLZRFBM3CTDN","","138.40000000596046","img/land3.png","74","139","1","1","false","1","0.8,0.8,0.2,0.2,0.8,0.8,0.8,0.2,0.8","",""
"","html-keyboard-response","117","118532","0.0-171.0","3WQQ9FUS6BGUG3PORZEM2ORC9GD8BB","AMHUDJ44HF1ZH","3WPCIUYH1AU470H2HRBLZRFBM3CTDN","","null","<img src=""img/land3.png"" style=""width:200px; border:14px solid green;"">","null","","","","","","","",""
"","image-keyboard-response","118","118650","0.0-173.0","3WQQ9FUS6BGUG3PORZEM2ORC9GD8BB","AMHUDJ44HF1ZH","3WPCIUYH1AU470H2HRBLZRFBM3CTDN","","117.60000002384186","img/land9.png","74","118.19999998807907","1","1","false","3","0.8,0.8,0.2,0.2,0.8,0.8,0.8,0.2,0.8","",""
"","html-keyboard-response","119","118952","0.0-174.0","3WQQ9FUS6BGUG3PORZEM2ORC9GD8BB","AMHUDJ44HF1ZH","3WPCIUYH1AU470H2HRBLZRFBM3CTDN","","null","<img src=""img/land9.png"" style=""width:200px; border:14px solid green;"">","null","","","","","","","",""
"","image-keyboard-response","120","119092","0.0-176.0","3WQQ9FUS6BGUG3PORZEM2ORC9GD8BB","AMHUDJ44HF1ZH","3WPCIUYH1AU470H2HRBLZRFBM3CTDN","","139.5","img/land9.png","74","140.09999999403954","1","1","false","3","0.8,0.8,0.2,0.2,0.8,0.8,0.8,0.2,0.8","",""
"","html-keyboard-response","121","119394","0.0-177.0","3WQQ9FUS6BGUG3PORZEM2ORC9GD8BB","AMHUDJ44HF1ZH","3WPCIUYH1AU470H2HRBLZRFBM3CTDN","","null","<img src=""img/land9.png"" style=""width:200px; border:14px solid green;"">","null","","","","","","","",""
"","image-keyboard-response","122","119518","0.0-179.0","3WQQ9FUS6BGUG3PORZEM2ORC9GD8BB","AMHUDJ44HF1ZH","3WPCIUYH1AU470H2HRBLZRFBM3CTDN","","123.7000000178814","img/land9.png","74","124.40000000596046","1","1","false","3","0.8,0.8,0.2,0.2,0.8,0.8,0.8,0.2,0.8","",""
"","html-keyboard-response","123","119820","0.0-180.0","3WQQ9FUS6BGUG3PORZEM2ORC9GD8BB","AMHUDJ44HF1ZH","3WPCIUYH1AU470H2HRBLZRFBM3CTDN","","null","<img src=""img/land9.png"" style=""width:200px; border:14px solid green;"">","null","","","","","","","",""
"","image-keyboard-response","124","119954","0.0-182.0","3WQQ9FUS6BGUG3PORZEM2ORC9GD8BB","AMHUDJ44HF1ZH","3WPCIUYH1AU470H2HRBLZRFBM3CTDN","","133.5","img/land9.png","74","134","1","1","false","3","0.8,0.8,0.2,0.2,0.8,0.8,0.8,0.2,0.8","",""
"","html-keyboard-response","125","120255","0.0-183.0","3WQQ9FUS6BGUG3PORZEM2ORC9GD8BB","AMHUDJ44HF1ZH","3WPCIUYH1AU470H2HRBLZRFBM3CTDN","","null","<img src=""img/land9.png"" style=""width:200px; border:14px solid green;"">","null","","","","","","","",""
"","image-keyboard-response","126","120402","0.0-185.0","3WQQ9FUS6BGUG3PORZEM2ORC9GD8BB","AMHUDJ44HF1ZH","3WPCIUYH1AU470H2HRBLZRFBM3CTDN","","145.80000001192093","img/land9.png","74","146.5","1","1","false","3","0.8,0.8,0.2,0.2,0.8,0.8,0.8,0.2,0.8","",""
"","html-keyboard-response","127","120703","0.0-186.0","3WQQ9FUS6BGUG3PORZEM2ORC9GD8BB","AMHUDJ44HF1ZH","3WPCIUYH1AU470H2HRBLZRFBM3CTDN","","null","<img src=""img/land9.png"" style=""width:200px; border:14px solid green;"">","null","","","","","","","",""
"","image-keyboard-response","128","120825","0.0-188.0","3WQQ9FUS6BGUG3PORZEM2ORC9GD8BB","AMHUDJ44HF1ZH","3WPCIUYH1AU470H2HRBLZRFBM3CTDN","","121.40000000596046","img/land3.png","74","121.90000000596046","1","1","false","1","0.8,0.8,0.2,0.2,0.8,0.8,0.8,0.2,0.8","",""
"","html-keyboard-response","129","121126","0.0-189.0","3WQQ9FUS6BGUG3PORZEM2ORC9GD8BB","AMHUDJ44HF1ZH","3WPCIUYH1AU470H2HRBLZRFBM3CTDN","","null","<img src=""img/land3.png"" style=""width:200px; border:14px solid green;"">","null","","","","","","","",""
"","image-keyboard-response","130","121395","0.0-191.0","3WQQ9FUS6BGUG3PORZEM2ORC9GD8BB","AMHUDJ44HF1ZH","3WPCIUYH1AU470H2HRBLZRFBM3CTDN","","267.30000001192093","img/land3.png","74","267.89999997615814","1","0","false","1","0.8,0.8,0.2,0.2,0.8,0.8,0.8,0.2,0.8","",""
"","html-keyboard-response","131","121696","0.0-192.0","3WQQ9FUS6BGUG3PORZEM2ORC9GD8BB","AMHUDJ44HF1ZH","3WPCIUYH1AU470H2HRBLZRFBM3CTDN","","null","<img src=""img/land3.png"" style=""width:200px;border:14px solid red;"">","null","","","","","","","",""
"","image-keyboard-response","132","121865","0.0-194.0","3WQQ9FUS6BGUG3PORZEM2ORC9GD8BB","AMHUDJ44HF1ZH","3WPCIUYH1AU470H2HRBLZRFBM3CTDN","","167.7999999821186","img/land5.png","74","168.40000000596046","1","1","false","2","0.8,0.8,0.2,0.2,0.8,0.8,0.8,0.2,0.8","",""
"","html-keyboard-response","133","122167","0.0-195.0","3WQQ9FUS6BGUG3PORZEM2ORC9GD8BB","AMHUDJ44HF1ZH","3WPCIUYH1AU470H2HRBLZRFBM3CTDN","","null","<img src=""img/land5.png"" style=""width:200px; border:14px solid green;"">","null","","","","","","","",""
"","image-keyboard-response","134","122184","0.0-197.0","3WQQ9FUS6BGUG3PORZEM2ORC9GD8BB","AMHUDJ44HF1ZH","3WPCIUYH1AU470H2HRBLZRFBM3CTDN","","16.799999982118607","img/land9.png","74","17.30000001192093","1","0","false","3","0.8,0.8,0.2,0.2,0.8,0.8,0.8,0.2,0.8","",""
"","html-keyboard-response","135","122486","0.0-198.0","3WQQ9FUS6BGUG3PORZEM2ORC9GD8BB","AMHUDJ44HF1ZH","3WPCIUYH1AU470H2HRBLZRFBM3CTDN","","null","<img src=""img/land9.png"" style=""width:200px;border:14px solid red;"">","null","","","","","","","",""
"","image-keyboard-response","136","122660","0.0-200.0","3WQQ9FUS6BGUG3PORZEM2ORC9GD8BB","AMHUDJ44HF1ZH","3WPCIUYH1AU470H2HRBLZRFBM3CTDN","","173.40000000596046","img/land5.png","74","173.89999997615814","1","0","false","2","0.8,0.8,0.2,0.2,0.8,0.8,0.8,0.2,0.8","",""
"","html-keyboard-response","137","122961","0.0-201.0","3WQQ9FUS6BGUG3PORZEM2ORC9GD8BB","AMHUDJ44HF1ZH","3WPCIUYH1AU470H2HRBLZRFBM3CTDN","","null","<img src=""img/land5.png"" style=""width:200px;border:14px solid red;"">","null","","","","","","","",""
"","image-keyboard-response","138","123114","0.0-203.0","3WQQ9FUS6BGUG3PORZEM2ORC9GD8BB","AMHUDJ44HF1ZH","3WPCIUYH1AU470H2HRBLZRFBM3CTDN","","152.40000000596046","img/land5.png","74","152.90000000596046","1","1","false","2","0.8,0.8,0.2,0.2,0.8,0.8,0.8,0.2,0.8","",""
"","html-keyboard-response","139","123416","0.0-204.0","3WQQ9FUS6BGUG3PORZEM2ORC9GD8BB","AMHUDJ44HF1ZH","3WPCIUYH1AU470H2HRBLZRFBM3CTDN","","null","<img src=""img/land5.png"" style=""width:200px; border:14px solid green;"">","null","","","","","","","",""
"","image-keyboard-response","140","123550","0.0-206.0","3WQQ9FUS6BGUG3PORZEM2ORC9GD8BB","AMHUDJ44HF1ZH","3WPCIUYH1AU470H2HRBLZRFBM3CTDN","","133","img/land3.png","74","133.5","1","1","false","1","0.8,0.8,0.2,0.2,0.8,0.8,0.8,0.2,0.8","",""
"","html-keyboard-response","141","123851","0.0-207.0","3WQQ9FUS6BGUG3PORZEM2ORC9GD8BB","AMHUDJ44HF1ZH","3WPCIUYH1AU470H2HRBLZRFBM3CTDN","","null","<img src=""img/land3.png"" style=""width:200px; border:14px solid green;"">","null","","","","","","","",""
"","image-keyboard-response","142","123974","0.0-209.0","3WQQ9FUS6BGUG3PORZEM2ORC9GD8BB","AMHUDJ44HF1ZH","3WPCIUYH1AU470H2HRBLZRFBM3CTDN","","122","img/land3.png","74","122.5","1","1","false","1","0.8,0.8,0.2,0.2,0.8,0.8,0.8,0.2,0.8","",""
"","html-keyboard-response","143","124275","0.0-210.0","3WQQ9FUS6BGUG3PORZEM2ORC9GD8BB","AMHUDJ44HF1ZH","3WPCIUYH1AU470H2HRBLZRFBM3CTDN","","null","<img src=""img/land3.png"" style=""width:200px; border:14px solid green;"">","null","","","","","","","",""
"","image-keyboard-response","144","124393","0.0-212.0","3WQQ9FUS6BGUG3PORZEM2ORC9GD8BB","AMHUDJ44HF1ZH","3WPCIUYH1AU470H2HRBLZRFBM3CTDN","","117.59999999403954","img/land5.png","74","118.19999998807907","1","0","false","2","0.8,0.8,0.2,0.2,0.8,0.8,0.8,0.2,0.8","",""
"","html-keyboard-response","145","124696","0.0-213.0","3WQQ9FUS6BGUG3PORZEM2ORC9GD8BB","AMHUDJ44HF1ZH","3WPCIUYH1AU470H2HRBLZRFBM3CTDN","","null","<img src=""img/land5.png"" style=""width:200px;border:14px solid red;"">","null","","","","","","","",""
"","image-keyboard-response","146","124795","0.0-215.0","3WQQ9FUS6BGUG3PORZEM2ORC9GD8BB","AMHUDJ44HF1ZH","3WPCIUYH1AU470H2HRBLZRFBM3CTDN","","98.2999999821186","img/land5.png","74","98.80000001192093","1","0","false","2","0.8,0.8,0.2,0.2,0.8,0.8,0.8,0.2,0.8","",""
"","html-keyboard-response","147","125097","0.0-216.0","3WQQ9FUS6BGUG3PORZEM2ORC9GD8BB","AMHUDJ44HF1ZH","3WPCIUYH1AU470H2HRBLZRFBM3CTDN","","null","<img src=""img/land5.png"" style=""width:200px;border:14px solid red;"">","null","","","","","","","",""
"","image-keyboard-response","148","125136","0.0-218.0","3WQQ9FUS6BGUG3PORZEM2ORC9GD8BB","AMHUDJ44HF1ZH","3WPCIUYH1AU470H2HRBLZRFBM3CTDN","","37.900000005960464","img/land3.png","75","38.599999994039536","2","1","false","1","0.8,0.8,0.2,0.2,0.8,0.8,0.8,0.2,0.8","",""
"","html-keyboard-response","149","125436","0.0-219.0","3WQQ9FUS6BGUG3PORZEM2ORC9GD8BB","AMHUDJ44HF1ZH","3WPCIUYH1AU470H2HRBLZRFBM3CTDN","","null","<img src=""img/land3.png"" style=""width:200px; border:14px solid green;"">","null","","","","","","","",""
"","image-keyboard-response","150","125639","0.0-221.0","3WQQ9FUS6BGUG3PORZEM2ORC9GD8BB","AMHUDJ44HF1ZH","3WPCIUYH1AU470H2HRBLZRFBM3CTDN","","201.59999999403954","img/land3.png","75","202.2000000178814","2","1","false","1","0.8,0.8,0.2,0.2,0.8,0.8,0.8,0.2,0.8","",""
"","html-keyboard-response","151","125941","0.0-222.0","3WQQ9FUS6BGUG3PORZEM2ORC9GD8BB","AMHUDJ44HF1ZH","3WPCIUYH1AU470H2HRBLZRFBM3CTDN","","null","<img src=""img/land3.png"" style=""width:200px; border:14px solid green;"">","null","","","","","","","",""
"","image-keyboard-response","152","126056","0.0-224.0","3WQQ9FUS6BGUG3PORZEM2ORC9GD8BB","AMHUDJ44HF1ZH","3WPCIUYH1AU470H2HRBLZRFBM3CTDN","","114.59999999403954","img/land5.png","75","115.19999998807907","2","1","false","2","0.8,0.8,0.2,0.2,0.8,0.8,0.8,0.2,0.8","",""
"","html-keyboard-response","153","126358","0.0-225.0","3WQQ9FUS6BGUG3PORZEM2ORC9GD8BB","AMHUDJ44HF1ZH","3WPCIUYH1AU470H2HRBLZRFBM3CTDN","","null","<img src=""img/land5.png"" style=""width:200px; border:14px solid green;"">","null","","","","","","","",""
"","image-keyboard-response","154","126491","0.0-227.0","3WQQ9FUS6BGUG3PORZEM2ORC9GD8BB","AMHUDJ44HF1ZH","3WPCIUYH1AU470H2HRBLZRFBM3CTDN","","132.80000001192093","img/land3.png","75","133.5","2","1","false","1","0.8,0.8,0.2,0.2,0.8,0.8,0.8,0.2,0.8","",""
"","html-keyboard-response","155","126792","0.0-228.0","3WQQ9FUS6BGUG3PORZEM2ORC9GD8BB","AMHUDJ44HF1ZH","3WPCIUYH1AU470H2HRBLZRFBM3CTDN","","null","<img src=""img/land3.png"" style=""width:200px; border:14px solid green;"">","null","","","","","","","",""
"","image-keyboard-response","156","126918","0.0-230.0","3WQQ9FUS6BGUG3PORZEM2ORC9GD8BB","AMHUDJ44HF1ZH","3WPCIUYH1AU470H2HRBLZRFBM3CTDN","","125.19999998807907","img/land5.png","75","125.90000000596046","2","1","false","2","0.8,0.8,0.2,0.2,0.8,0.8,0.8,0.2,0.8","",""
"","html-keyboard-response","157","127220","0.0-231.0","3WQQ9FUS6BGUG3PORZEM2ORC9GD8BB","AMHUDJ44HF1ZH","3WPCIUYH1AU470H2HRBLZRFBM3CTDN","","null","<img src=""img/land5.png"" style=""width:200px; border:14px solid green;"">","null","","","","","","","",""
"","image-keyboard-response","158","127351","0.0-233.0","3WQQ9FUS6BGUG3PORZEM2ORC9GD8BB","AMHUDJ44HF1ZH","3WPCIUYH1AU470H2HRBLZRFBM3CTDN","","130.09999999403954","img/land9.png","75","130.60000002384186","2","1","false","3","0.8,0.8,0.2,0.2,0.8,0.8,0.8,0.2,0.8","",""
"","html-keyboard-response","159","127652","0.0-234.0","3WQQ9FUS6BGUG3PORZEM2ORC9GD8BB","AMHUDJ44HF1ZH","3WPCIUYH1AU470H2HRBLZRFBM3CTDN","","null","<img src=""img/land9.png"" style=""width:200px; border:14px solid green;"">","null","","","","","","","",""
"","image-keyboard-response","160","127786","0.0-236.0","3WQQ9FUS6BGUG3PORZEM2ORC9GD8BB","AMHUDJ44HF1ZH","3WPCIUYH1AU470H2HRBLZRFBM3CTDN","","134","img/land9.png","75","134.59999999403954","2","0","false","3","0.8,0.8,0.2,0.2,0.8,0.8,0.8,0.2,0.8","",""
"","html-keyboard-response","161","128088","0.0-237.0","3WQQ9FUS6BGUG3PORZEM2ORC9GD8BB","AMHUDJ44HF1ZH","3WPCIUYH1AU470H2HRBLZRFBM3CTDN","","null","<img src=""img/land9.png"" style=""width:200px;border:14px solid red;"">","null","","","","","","","",""
"","image-keyboard-response","162","128357","0.0-239.0","3WQQ9FUS6BGUG3PORZEM2ORC9GD8BB","AMHUDJ44HF1ZH","3WPCIUYH1AU470H2HRBLZRFBM3CTDN","","268.2999999821186","img/land5.png","75","268.7000000178814","2","1","false","2","0.8,0.8,0.2,0.2,0.8,0.8,0.8,0.2,0.8","",""
"","html-keyboard-response","163","128658","0.0-240.0","3WQQ9FUS6BGUG3PORZEM2ORC9GD8BB","AMHUDJ44HF1ZH","3WPCIUYH1AU470H2HRBLZRFBM3CTDN","","null","<img src=""img/land5.png"" style=""width:200px; border:14px solid green;"">","null","","","","","","","",""
"","image-keyboard-response","164","128804","0.0-242.0","3WQQ9FUS6BGUG3PORZEM2ORC9GD8BB","AMHUDJ44HF1ZH","3WPCIUYH1AU470H2HRBLZRFBM3CTDN","","145.5","img/land9.png","75","146.09999999403954","2","0","false","3","0.8,0.8,0.2,0.2,0.8,0.8,0.8,0.2,0.8","",""
"","html-keyboard-response","165","129106","0.0-243.0","3WQQ9FUS6BGUG3PORZEM2ORC9GD8BB","AMHUDJ44HF1ZH","3WPCIUYH1AU470H2HRBLZRFBM3CTDN","","null","<img src=""img/land9.png"" style=""width:200px;border:14px solid red;"">","null","","","","","","","",""
"","image-keyboard-response","166","129201","0.0-245.0","3WQQ9FUS6BGUG3PORZEM2ORC9GD8BB","AMHUDJ44HF1ZH","3WPCIUYH1AU470H2HRBLZRFBM3CTDN","","93.59999999403954","img/land3.png","75","94.19999998807907","2","1","false","1","0.8,0.8,0.2,0.2,0.8,0.8,0.8,0.2,0.8","",""
"","html-keyboard-response","167","129502","0.0-246.0","3WQQ9FUS6BGUG3PORZEM2ORC9GD8BB","AMHUDJ44HF1ZH","3WPCIUYH1AU470H2HRBLZRFBM3CTDN","","null","<img src=""img/land3.png"" style=""width:200px; border:14px solid green;"">","null","","","","","","","",""
"","image-keyboard-response","168","129645","0.0-248.0","3WQQ9FUS6BGUG3PORZEM2ORC9GD8BB","AMHUDJ44HF1ZH","3WPCIUYH1AU470H2HRBLZRFBM3CTDN","","141.89999997615814","img/land9.png","75","142.40000000596046","2","1","false","3","0.8,0.8,0.2,0.2,0.8,0.8,0.8,0.2,0.8","",""
"","html-keyboard-response","169","129947","0.0-249.0","3WQQ9FUS6BGUG3PORZEM2ORC9GD8BB","AMHUDJ44HF1ZH","3WPCIUYH1AU470H2HRBLZRFBM3CTDN","","null","<img src=""img/land9.png"" style=""width:200px; border:14px solid green;"">","null","","","","","","","",""
"","image-keyboard-response","170","130084","0.0-251.0","3WQQ9FUS6BGUG3PORZEM2ORC9GD8BB","AMHUDJ44HF1ZH","3WPCIUYH1AU470H2HRBLZRFBM3CTDN","","136.30000001192093","img/land3.png","75","136.80000001192093","2","0","false","1","0.8,0.8,0.2,0.2,0.8,0.8,0.8,0.2,0.8","",""
"","html-keyboard-response","171","130386","0.0-252.0","3WQQ9FUS6BGUG3PORZEM2ORC9GD8BB","AMHUDJ44HF1ZH","3WPCIUYH1AU470H2HRBLZRFBM3CTDN","","null","<img src=""img/land3.png"" style=""width:200px;border:14px solid red;"">","null","","","","","","","",""
"","image-keyboard-response","172","130532","0.0-254.0","3WQQ9FUS6BGUG3PORZEM2ORC9GD8BB","AMHUDJ44HF1ZH","3WPCIUYH1AU470H2HRBLZRFBM3CTDN","","145.5","img/land5.png","75","146","2","1","false","2","0.8,0.8,0.2,0.2,0.8,0.8,0.8,0.2,0.8","",""
"","html-keyboard-response","173","130834","0.0-255.0","3WQQ9FUS6BGUG3PORZEM2ORC9GD8BB","AMHUDJ44HF1ZH","3WPCIUYH1AU470H2HRBLZRFBM3CTDN","","null","<img src=""img/land5.png"" style=""width:200px; border:14px solid green;"">","null","","","","","","","",""
"","image-keyboard-response","174","130967","0.0-257.0","3WQQ9FUS6BGUG3PORZEM2ORC9GD8BB","AMHUDJ44HF1ZH","3WPCIUYH1AU470H2HRBLZRFBM3CTDN","","133.40000000596046","img/land5.png","75","134","2","1","false","2","0.8,0.8,0.2,0.2,0.8,0.8,0.8,0.2,0.8","",""
"","html-keyboard-response","175","131271","0.0-258.0","3WQQ9FUS6BGUG3PORZEM2ORC9GD8BB","AMHUDJ44HF1ZH","3WPCIUYH1AU470H2HRBLZRFBM3CTDN","","null","<img src=""img/land5.png"" style=""width:200px; border:14px solid green;"">","null","","","","","","","",""
"","image-keyboard-response","176","131480","0.0-260.0","3WQQ9FUS6BGUG3PORZEM2ORC9GD8BB","AMHUDJ44HF1ZH","3WPCIUYH1AU470H2HRBLZRFBM3CTDN","","208","img/land9.png","76","208.69999998807907","3","1","false","3","0.8,0.8,0.2,0.2,0.8,0.8,0.8,0.2,0.8","",""
"","html-keyboard-response","177","131781","0.0-261.0","3WQQ9FUS6BGUG3PORZEM2ORC9GD8BB","AMHUDJ44HF1ZH","3WPCIUYH1AU470H2HRBLZRFBM3CTDN","","null","<img src=""img/land9.png"" style=""width:200px; border:14px solid green;"">","null","","","","","","","",""
"","image-keyboard-response","178","131902","0.0-263.0","3WQQ9FUS6BGUG3PORZEM2ORC9GD8BB","AMHUDJ44HF1ZH","3WPCIUYH1AU470H2HRBLZRFBM3CTDN","","120.2000000178814","img/land9.png","76","120.80000001192093","3","1","false","3","0.8,0.8,0.2,0.2,0.8,0.8,0.8,0.2,0.8","",""
"","html-keyboard-response","179","132205","0.0-264.0","3WQQ9FUS6BGUG3PORZEM2ORC9GD8BB","AMHUDJ44HF1ZH","3WPCIUYH1AU470H2HRBLZRFBM3CTDN","","null","<img src=""img/land9.png"" style=""width:200px; border:14px solid green;"">","null","","","","","","","",""
"","image-keyboard-response","180","132317","0.0-266.0","3WQQ9FUS6BGUG3PORZEM2ORC9GD8BB","AMHUDJ44HF1ZH","3WPCIUYH1AU470H2HRBLZRFBM3CTDN","","111.7999999821186","img/land3.png","76","112.40000000596046","3","0","false","1","0.8,0.8,0.2,0.2,0.8,0.8,0.8,0.2,0.8","",""
"","html-keyboard-response","181","132619","0.0-267.0","3WQQ9FUS6BGUG3PORZEM2ORC9GD8BB","AMHUDJ44HF1ZH","3WPCIUYH1AU470H2HRBLZRFBM3CTDN","","null","<img src=""img/land3.png"" style=""width:200px;border:14px solid red;"">","null","","","","","","","",""
"","image-keyboard-response","182","132728","0.0-269.0","3WQQ9FUS6BGUG3PORZEM2ORC9GD8BB","AMHUDJ44HF1ZH","3WPCIUYH1AU470H2HRBLZRFBM3CTDN","","108.60000002384186","img/land5.png","76","109.19999998807907","3","1","false","2","0.8,0.8,0.2,0.2,0.8,0.8,0.8,0.2,0.8","",""
"","html-keyboard-response","183","133030","0.0-270.0","3WQQ9FUS6BGUG3PORZEM2ORC9GD8BB","AMHUDJ44HF1ZH","3WPCIUYH1AU470H2HRBLZRFBM3CTDN","","null","<img src=""img/land5.png"" style=""width:200px; border:14px solid green;"">","null","","","","","","","",""
"","html-keyboard-response","184","136482","0.0-272.0","3WQQ9FUS6BGUG3PORZEM2ORC9GD8BB","AMHUDJ44HF1ZH","3WPCIUYH1AU470H2HRBLZRFBM3CTDN","","","","","","","","","","","",""
"","image-keyboard-response","185","137484","0.0-273.0","3WQQ9FUS6BGUG3PORZEM2ORC9GD8BB","AMHUDJ44HF1ZH","3WPCIUYH1AU470H2HRBLZRFBM3CTDN","","","img/land8.png","","1001.6999999880791","-1","0","true","2","0.8,0.2,0.2,0.2,0.8,0.2,0.2,0.2,0.8","",""
"","html-keyboard-response","186","137786","0.0-274.0","3WQQ9FUS6BGUG3PORZEM2ORC9GD8BB","AMHUDJ44HF1ZH","3WPCIUYH1AU470H2HRBLZRFBM3CTDN","","null","<img src=""img/land8.png"" style=""width:200px;border:14px solid red;"">","null","","","","","","","",""
"","html-keyboard-response","187","143077","0.0-275.0-0.0","3WQQ9FUS6BGUG3PORZEM2ORC9GD8BB","AMHUDJ44HF1ZH","3WPCIUYH1AU470H2HRBLZRFBM3CTDN","","","","","","","","","","","",""
"","image-keyboard-response","188","143655","0.0-276.0","3WQQ9FUS6BGUG3PORZEM2ORC9GD8BB","AMHUDJ44HF1ZH","3WPCIUYH1AU470H2HRBLZRFBM3CTDN","","577.2999999821186","img/land8.png","75","578.0999999940395","2","0","false","2","0.8,0.2,0.2,0.2,0.8,0.2,0.2,0.2,0.8","",""
"","html-keyboard-response","189","143957","0.0-277.0","3WQQ9FUS6BGUG3PORZEM2ORC9GD8BB","AMHUDJ44HF1ZH","3WPCIUYH1AU470H2HRBLZRFBM3CTDN","","null","<img src=""img/land8.png"" style=""width:200px;border:14px solid red;"">","null","","","","","","","",""
"","image-keyboard-response","190","144044","0.0-279.0","3WQQ9FUS6BGUG3PORZEM2ORC9GD8BB","AMHUDJ44HF1ZH","3WPCIUYH1AU470H2HRBLZRFBM3CTDN","","86.09999999403954","img/land7.png","75","86.59999999403954","2","0","false","1","0.8,0.2,0.2,0.2,0.8,0.2,0.2,0.2,0.8","",""
"","html-keyboard-response","191","144345","0.0-280.0","3WQQ9FUS6BGUG3PORZEM2ORC9GD8BB","AMHUDJ44HF1ZH","3WPCIUYH1AU470H2HRBLZRFBM3CTDN","","null","<img src=""img/land7.png"" style=""width:200px;border:14px solid red;"">","null","","","","","","","",""
"","image-keyboard-response","192","144449","0.0-282.0","3WQQ9FUS6BGUG3PORZEM2ORC9GD8BB","AMHUDJ44HF1ZH","3WPCIUYH1AU470H2HRBLZRFBM3CTDN","","102.30000001192093","img/land4.png","75","102.90000000596046","2","0","false","3","0.8,0.2,0.2,0.2,0.8,0.2,0.2,0.2,0.8","",""
"","html-keyboard-response","193","144750","0.0-283.0","3WQQ9FUS6BGUG3PORZEM2ORC9GD8BB","AMHUDJ44HF1ZH","3WPCIUYH1AU470H2HRBLZRFBM3CTDN","","null","<img src=""img/land4.png"" style=""width:200px;border:14px solid red;"">","null","","","","","","","",""
"","image-keyboard-response","194","144822","0.0-285.0","3WQQ9FUS6BGUG3PORZEM2ORC9GD8BB","AMHUDJ44HF1ZH","3WPCIUYH1AU470H2HRBLZRFBM3CTDN","","70.90000000596046","img/land7.png","75","71.5","2","0","false","1","0.8,0.2,0.2,0.2,0.8,0.2,0.2,0.2,0.8","",""
"","html-keyboard-response","195","145125","0.0-286.0","3WQQ9FUS6BGUG3PORZEM2ORC9GD8BB","AMHUDJ44HF1ZH","3WPCIUYH1AU470H2HRBLZRFBM3CTDN","","null","<img src=""img/land7.png"" style=""width:200px;border:14px solid red;"">","null","","","","","","","",""
"","image-keyboard-response","196","145199","0.0-288.0","3WQQ9FUS6BGUG3PORZEM2ORC9GD8BB","AMHUDJ44HF1ZH","3WPCIUYH1AU470H2HRBLZRFBM3CTDN","","73.40000000596046","img/land4.png","74","74.09999999403954","1","1","false","3","0.8,0.2,0.2,0.2,0.8,0.2,0.2,0.2,0.8","",""
"","html-keyboard-response","197","145505","0.0-289.0","3WQQ9FUS6BGUG3PORZEM2ORC9GD8BB","AMHUDJ44HF1ZH","3WPCIUYH1AU470H2HRBLZRFBM3CTDN","","null","<img src=""img/land4.png"" style=""width:200px; border:14px solid green;"">","null","","","","","","","",""
"","image-keyboard-response","198","145604","0.0-291.0","3WQQ9FUS6BGUG3PORZEM2ORC9GD8BB","AMHUDJ44HF1ZH","3WPCIUYH1AU470H2HRBLZRFBM3CTDN","","98.09999999403954","img/land7.png","74","98.60000002384186","1","0","false","1","0.8,0.2,0.2,0.2,0.8,0.2,0.2,0.2,0.8","",""
"","html-keyboard-response","199","145905","0.0-292.0","3WQQ9FUS6BGUG3PORZEM2ORC9GD8BB","AMHUDJ44HF1ZH","3WPCIUYH1AU470H2HRBLZRFBM3CTDN","","null","<img src=""img/land7.png"" style=""width:200px;border:14px solid red;"">","null","","","","","","","",""
"","image-keyboard-response","200","146016","0.0-294.0","3WQQ9FUS6BGUG3PORZEM2ORC9GD8BB","AMHUDJ44HF1ZH","3WPCIUYH1AU470H2HRBLZRFBM3CTDN","","110.2999999821186","img/land4.png","74","110.80000001192093","1","1","false","3","0.8,0.2,0.2,0.2,0.8,0.2,0.2,0.2,0.8","",""
"","html-keyboard-response","201","146318","0.0-295.0","3WQQ9FUS6BGUG3PORZEM2ORC9GD8BB","AMHUDJ44HF1ZH","3WPCIUYH1AU470H2HRBLZRFBM3CTDN","","null","<img src=""img/land4.png"" style=""width:200px; border:14px solid green;"">","null","","","","","","","",""
"","image-keyboard-response","202","146449","0.0-297.0","3WQQ9FUS6BGUG3PORZEM2ORC9GD8BB","AMHUDJ44HF1ZH","3WPCIUYH1AU470H2HRBLZRFBM3CTDN","","130.19999998807907","img/land8.png","74","130.7000000178814","1","0","false","2","0.8,0.2,0.2,0.2,0.8,0.2,0.2,0.2,0.8","",""
"","html-keyboard-response","203","146750","0.0-298.0","3WQQ9FUS6BGUG3PORZEM2ORC9GD8BB","AMHUDJ44HF1ZH","3WPCIUYH1AU470H2HRBLZRFBM3CTDN","","null","<img src=""img/land8.png"" style=""width:200px;border:14px solid red;"">","null","","","","","","","",""
"","image-keyboard-response","204","146884","0.0-300.0","3WQQ9FUS6BGUG3PORZEM2ORC9GD8BB","AMHUDJ44HF1ZH","3WPCIUYH1AU470H2HRBLZRFBM3CTDN","","133.2999999821186","img/land8.png","74","133.80000001192093","1","0","false","2","0.8,0.2,0.2,0.2,0.8,0.2,0.2,0.2,0.8","",""
"","html-keyboard-response","205","147185","0.0-301.0","3WQQ9FUS6BGUG3PORZEM2ORC9GD8BB","AMHUDJ44HF1ZH","3WPCIUYH1AU470H2HRBLZRFBM3CTDN","","null","<img src=""img/land8.png"" style=""width:200px;border:14px solid red;"">","null","","","","","","","",""
"","image-keyboard-response","206","147353","0.0-303.0","3WQQ9FUS6BGUG3PORZEM2ORC9GD8BB","AMHUDJ44HF1ZH","3WPCIUYH1AU470H2HRBLZRFBM3CTDN","","167.59999999403954","img/land8.png","76","168.10000002384186","3","0","false","2","0.8,0.2,0.2,0.2,0.8,0.2,0.2,0.2,0.8","",""
"","html-keyboard-response","207","147655","0.0-304.0","3WQQ9FUS6BGUG3PORZEM2ORC9GD8BB","AMHUDJ44HF1ZH","3WPCIUYH1AU470H2HRBLZRFBM3CTDN","","null","<img src=""img/land8.png"" style=""width:200px;border:14px solid red;"">","null","","","","","","","",""
"","image-keyboard-response","208","147783","0.0-306.0","3WQQ9FUS6BGUG3PORZEM2ORC9GD8BB","AMHUDJ44HF1ZH","3WPCIUYH1AU470H2HRBLZRFBM3CTDN","","126.80000001192093","img/land7.png","76","127.2999999821186","3","0","false","1","0.8,0.2,0.2,0.2,0.8,0.2,0.2,0.2,0.8","",""
"","html-keyboard-response","209","148085","0.0-307.0","3WQQ9FUS6BGUG3PORZEM2ORC9GD8BB","AMHUDJ44HF1ZH","3WPCIUYH1AU470H2HRBLZRFBM3CTDN","","null","<img src=""img/land7.png"" style=""width:200px;border:14px solid red;"">","null","","","","","","","",""
"","image-keyboard-response","210","148197","0.0-309.0","3WQQ9FUS6BGUG3PORZEM2ORC9GD8BB","AMHUDJ44HF1ZH","3WPCIUYH1AU470H2HRBLZRFBM3CTDN","","110.5","img/land8.png","76","111.09999999403954","3","0","false","2","0.8,0.2,0.2,0.2,0.8,0.2,0.2,0.2,0.8","",""
"","html-keyboard-response","211","148511","0.0-310.0","3WQQ9FUS6BGUG3PORZEM2ORC9GD8BB","AMHUDJ44HF1ZH","3WPCIUYH1AU470H2HRBLZRFBM3CTDN","","null","<img src=""img/land8.png"" style=""width:200px;border:14px solid red;"">","null","","","","","","","",""
"","image-keyboard-response","212","148595","0.0-312.0","3WQQ9FUS6BGUG3PORZEM2ORC9GD8BB","AMHUDJ44HF1ZH","3WPCIUYH1AU470H2HRBLZRFBM3CTDN","","83.2000000178814","img/land7.png","76","83.90000000596046","3","0","false","1","0.8,0.2,0.2,0.2,0.8,0.2,0.2,0.2,0.8","",""
"","html-keyboard-response","213","148897","0.0-313.0","3WQQ9FUS6BGUG3PORZEM2ORC9GD8BB","AMHUDJ44HF1ZH","3WPCIUYH1AU470H2HRBLZRFBM3CTDN","","null","<img src=""img/land7.png"" style=""width:200px;border:14px solid red;"">","null","","","","","","","",""
"","image-keyboard-response","214","149048","0.0-315.0","3WQQ9FUS6BGUG3PORZEM2ORC9GD8BB","AMHUDJ44HF1ZH","3WPCIUYH1AU470H2HRBLZRFBM3CTDN","","150.09999999403954","img/land7.png","75","150.69999998807907","2","0","false","1","0.8,0.2,0.2,0.2,0.8,0.2,0.2,0.2,0.8","",""
"","html-keyboard-response","215","149349","0.0-316.0","3WQQ9FUS6BGUG3PORZEM2ORC9GD8BB","AMHUDJ44HF1ZH","3WPCIUYH1AU470H2HRBLZRFBM3CTDN","","null","<img src=""img/land7.png"" style=""width:200px;border:14px solid red;"">","null","","","","","","","",""
"","image-keyboard-response","216","149473","0.0-318.0","3WQQ9FUS6BGUG3PORZEM2ORC9GD8BB","AMHUDJ44HF1ZH","3WPCIUYH1AU470H2HRBLZRFBM3CTDN","","123.40000000596046","img/land7.png","75","123.90000000596046","2","0","false","1","0.8,0.2,0.2,0.2,0.8,0.2,0.2,0.2,0.8","",""
"","html-keyboard-response","217","149775","0.0-319.0","3WQQ9FUS6BGUG3PORZEM2ORC9GD8BB","AMHUDJ44HF1ZH","3WPCIUYH1AU470H2HRBLZRFBM3CTDN","","null","<img src=""img/land7.png"" style=""width:200px;border:14px solid red;"">","null","","","","","","","",""
"","image-keyboard-response","218","149915","0.0-321.0","3WQQ9FUS6BGUG3PORZEM2ORC9GD8BB","AMHUDJ44HF1ZH","3WPCIUYH1AU470H2HRBLZRFBM3CTDN","","138.69999998807907","img/land7.png","74","139.30000001192093","1","0","false","1","0.8,0.2,0.2,0.2,0.8,0.2,0.2,0.2,0.8","",""
"","html-keyboard-response","219","150216","0.0-322.0","3WQQ9FUS6BGUG3PORZEM2ORC9GD8BB","AMHUDJ44HF1ZH","3WPCIUYH1AU470H2HRBLZRFBM3CTDN","","null","<img src=""img/land7.png"" style=""width:200px;border:14px solid red;"">","null","","","","","","","",""
"","image-keyboard-response","220","150365","0.0-324.0","3WQQ9FUS6BGUG3PORZEM2ORC9GD8BB","AMHUDJ44HF1ZH","3WPCIUYH1AU470H2HRBLZRFBM3CTDN","","148.30000001192093","img/land4.png","74","148.80000001192093","1","0","false","3","0.8,0.2,0.2,0.2,0.8,0.2,0.2,0.2,0.8","",""
"","html-keyboard-response","221","150666","0.0-325.0","3WQQ9FUS6BGUG3PORZEM2ORC9GD8BB","AMHUDJ44HF1ZH","3WPCIUYH1AU470H2HRBLZRFBM3CTDN","","null","<img src=""img/land4.png"" style=""width:200px;border:14px solid red;"">","null","","","","","","","",""
"","image-keyboard-response","222","150791","0.0-327.0","3WQQ9FUS6BGUG3PORZEM2ORC9GD8BB","AMHUDJ44HF1ZH","3WPCIUYH1AU470H2HRBLZRFBM3CTDN","","124","img/land4.png","74","124.59999999403954","1","0","false","3","0.8,0.2,0.2,0.2,0.8,0.2,0.2,0.2,0.8","",""
"","html-keyboard-response","223","151092","0.0-328.0","3WQQ9FUS6BGUG3PORZEM2ORC9GD8BB","AMHUDJ44HF1ZH","3WPCIUYH1AU470H2HRBLZRFBM3CTDN","","null","<img src=""img/land4.png"" style=""width:200px;border:14px solid red;"">","null","","","","","","","",""
"","image-keyboard-response","224","151231","0.0-330.0","3WQQ9FUS6BGUG3PORZEM2ORC9GD8BB","AMHUDJ44HF1ZH","3WPCIUYH1AU470H2HRBLZRFBM3CTDN","","137.30000001192093","img/land8.png","76","137.89999997615814","3","0","false","2","0.8,0.2,0.2,0.2,0.8,0.2,0.2,0.2,0.8","",""
"","html-keyboard-response","225","151532","0.0-331.0","3WQQ9FUS6BGUG3PORZEM2ORC9GD8BB","AMHUDJ44HF1ZH","3WPCIUYH1AU470H2HRBLZRFBM3CTDN","","null","<img src=""img/land8.png"" style=""width:200px;border:14px solid red;"">","null","","","","","","","",""
"","image-keyboard-response","226","151660","0.0-333.0","3WQQ9FUS6BGUG3PORZEM2ORC9GD8BB","AMHUDJ44HF1ZH","3WPCIUYH1AU470H2HRBLZRFBM3CTDN","","127.5","img/land8.png","75","128","2","1","false","2","0.8,0.2,0.2,0.2,0.8,0.2,0.2,0.2,0.8","",""
"","html-keyboard-response","227","151962","0.0-334.0","3WQQ9FUS6BGUG3PORZEM2ORC9GD8BB","AMHUDJ44HF1ZH","3WPCIUYH1AU470H2HRBLZRFBM3CTDN","","null","<img src=""img/land8.png"" style=""width:200px; border:14px solid green;"">","null","","","","","","","",""
"","image-keyboard-response","228","152177","0.0-336.0","3WQQ9FUS6BGUG3PORZEM2ORC9GD8BB","AMHUDJ44HF1ZH","3WPCIUYH1AU470H2HRBLZRFBM3CTDN","","214.30000001192093","img/land4.png","76","215","3","1","false","3","0.8,0.2,0.2,0.2,0.8,0.2,0.2,0.2,0.8","",""
"","html-keyboard-response","229","152479","0.0-337.0","3WQQ9FUS6BGUG3PORZEM2ORC9GD8BB","AMHUDJ44HF1ZH","3WPCIUYH1AU470H2HRBLZRFBM3CTDN","","null","<img src=""img/land4.png"" style=""width:200px; border:14px solid green;"">","null","","","","","","","",""
"","image-keyboard-response","230","152644","0.0-339.0","3WQQ9FUS6BGUG3PORZEM2ORC9GD8BB","AMHUDJ44HF1ZH","3WPCIUYH1AU470H2HRBLZRFBM3CTDN","","165","img/land7.png","76","165.60000002384186","3","1","false","1","0.8,0.2,0.2,0.2,0.8,0.2,0.2,0.2,0.8","",""
"","html-keyboard-response","231","152945","0.0-340.0","3WQQ9FUS6BGUG3PORZEM2ORC9GD8BB","AMHUDJ44HF1ZH","3WPCIUYH1AU470H2HRBLZRFBM3CTDN","","null","<img src=""img/land7.png"" style=""width:200px; border:14px solid green;"">","null","","","","","","","",""
"","image-keyboard-response","232","153159","0.0-342.0","3WQQ9FUS6BGUG3PORZEM2ORC9GD8BB","AMHUDJ44HF1ZH","3WPCIUYH1AU470H2HRBLZRFBM3CTDN","","212.69999998807907","img/land8.png","74","213.40000000596046","1","1","false","2","0.8,0.2,0.2,0.2,0.8,0.2,0.2,0.2,0.8","",""
"","html-keyboard-response","233","153461","0.0-343.0","3WQQ9FUS6BGUG3PORZEM2ORC9GD8BB","AMHUDJ44HF1ZH","3WPCIUYH1AU470H2HRBLZRFBM3CTDN","","null","<img src=""img/land8.png"" style=""width:200px; border:14px solid green;"">","null","","","","","","","",""
"","image-keyboard-response","234","153573","0.0-345.0","3WQQ9FUS6BGUG3PORZEM2ORC9GD8BB","AMHUDJ44HF1ZH","3WPCIUYH1AU470H2HRBLZRFBM3CTDN","","111.09999999403954","img/land8.png","75","111.60000002384186","2","1","false","2","0.8,0.2,0.2,0.2,0.8,0.2,0.2,0.2,0.8","",""
"","html-keyboard-response","235","153875","0.0-346.0","3WQQ9FUS6BGUG3PORZEM2ORC9GD8BB","AMHUDJ44HF1ZH","3WPCIUYH1AU470H2HRBLZRFBM3CTDN","","null","<img src=""img/land8.png"" style=""width:200px; border:14px solid green;"">","null","","","","","","","",""
"","image-keyboard-response","236","154070","0.0-348.0","3WQQ9FUS6BGUG3PORZEM2ORC9GD8BB","AMHUDJ44HF1ZH","3WPCIUYH1AU470H2HRBLZRFBM3CTDN","","195.10000002384186","img/land7.png","76","195.69999998807907","3","0","false","1","0.8,0.2,0.2,0.2,0.8,0.2,0.2,0.2,0.8","",""
"","html-keyboard-response","237","154372","0.0-349.0","3WQQ9FUS6BGUG3PORZEM2ORC9GD8BB","AMHUDJ44HF1ZH","3WPCIUYH1AU470H2HRBLZRFBM3CTDN","","null","<img src=""img/land7.png"" style=""width:200px;border:14px solid red;"">","null","","","","","","","",""
"","image-keyboard-response","238","154445","0.0-351.0","3WQQ9FUS6BGUG3PORZEM2ORC9GD8BB","AMHUDJ44HF1ZH","3WPCIUYH1AU470H2HRBLZRFBM3CTDN","","72.80000001192093","img/land7.png","74","73.2999999821186","1","1","false","1","0.8,0.2,0.2,0.2,0.8,0.2,0.2,0.2,0.8","",""
"","html-keyboard-response","239","154746","0.0-352.0","3WQQ9FUS6BGUG3PORZEM2ORC9GD8BB","AMHUDJ44HF1ZH","3WPCIUYH1AU470H2HRBLZRFBM3CTDN","","null","<img src=""img/land7.png"" style=""width:200px; border:14px solid green;"">","null","","","","","","","",""
"","image-keyboard-response","240","154753","0.0-354.0","3WQQ9FUS6BGUG3PORZEM2ORC9GD8BB","AMHUDJ44HF1ZH","3WPCIUYH1AU470H2HRBLZRFBM3CTDN","","6.199999988079071","img/land7.png","75","6.800000011920929","2","1","false","1","0.8,0.2,0.2,0.2,0.8,0.2,0.2,0.2,0.8","",""
"","html-keyboard-response","241","155054","0.0-355.0","3WQQ9FUS6BGUG3PORZEM2ORC9GD8BB","AMHUDJ44HF1ZH","3WPCIUYH1AU470H2HRBLZRFBM3CTDN","","null","<img src=""img/land7.png"" style=""width:200px; border:14px solid green;"">","null","","","","","","","",""
"","image-keyboard-response","242","155149","0.0-357.0","3WQQ9FUS6BGUG3PORZEM2ORC9GD8BB","AMHUDJ44HF1ZH","3WPCIUYH1AU470H2HRBLZRFBM3CTDN","","93.90000000596046","img/land4.png","75","94.39999997615814","2","0","false","3","0.8,0.2,0.2,0.2,0.8,0.2,0.2,0.2,0.8","",""
"","html-keyboard-response","243","155450","0.0-358.0","3WQQ9FUS6BGUG3PORZEM2ORC9GD8BB","AMHUDJ44HF1ZH","3WPCIUYH1AU470H2HRBLZRFBM3CTDN","","null","<img src=""img/land4.png"" style=""width:200px;border:14px solid red;"">","null","","","","","","","",""
"","image-keyboard-response","244","155705","0.0-360.0","3WQQ9FUS6BGUG3PORZEM2ORC9GD8BB","AMHUDJ44HF1ZH","3WPCIUYH1AU470H2HRBLZRFBM3CTDN","","254.39999997615814","img/land8.png","74","254.90000000596046","1","0","false","2","0.8,0.2,0.2,0.2,0.8,0.2,0.2,0.2,0.8","",""
"","html-keyboard-response","245","156007","0.0-361.0","3WQQ9FUS6BGUG3PORZEM2ORC9GD8BB","AMHUDJ44HF1ZH","3WPCIUYH1AU470H2HRBLZRFBM3CTDN","","null","<img src=""img/land8.png"" style=""width:200px;border:14px solid red;"">","null","","","","","","","",""
"","image-keyboard-response","246","156159","0.0-363.0","3WQQ9FUS6BGUG3PORZEM2ORC9GD8BB","AMHUDJ44HF1ZH","3WPCIUYH1AU470H2HRBLZRFBM3CTDN","","150.90000000596046","img/land7.png","74","151.5","1","1","false","1","0.8,0.2,0.2,0.2,0.8,0.2,0.2,0.2,0.8","",""
"","html-keyboard-response","247","156461","0.0-364.0","3WQQ9FUS6BGUG3PORZEM2ORC9GD8BB","AMHUDJ44HF1ZH","3WPCIUYH1AU470H2HRBLZRFBM3CTDN","","null","<img src=""img/land7.png"" style=""width:200px; border:14px solid green;"">","null","","","","","","","",""
"","image-keyboard-response","248","156571","0.0-366.0","3WQQ9FUS6BGUG3PORZEM2ORC9GD8BB","AMHUDJ44HF1ZH","3WPCIUYH1AU470H2HRBLZRFBM3CTDN","","109.19999998807907","img/land4.png","76","109.69999998807907","3","1","false","3","0.8,0.2,0.2,0.2,0.8,0.2,0.2,0.2,0.8","",""
"","html-keyboard-response","249","156872","0.0-367.0","3WQQ9FUS6BGUG3PORZEM2ORC9GD8BB","AMHUDJ44HF1ZH","3WPCIUYH1AU470H2HRBLZRFBM3CTDN","","null","<img src=""img/land4.png"" style=""width:200px; border:14px solid green;"">","null","","","","","","","",""
"","image-keyboard-response","250","157392","0.0-369.0","3WQQ9FUS6BGUG3PORZEM2ORC9GD8BB","AMHUDJ44HF1ZH","3WPCIUYH1AU470H2HRBLZRFBM3CTDN","","519.0999999940395","img/land4.png","75","519.7999999821186","2","1","false","3","0.8,0.2,0.2,0.2,0.8,0.2,0.2,0.2,0.8","",""
"","html-keyboard-response","251","157693","0.0-370.0","3WQQ9FUS6BGUG3PORZEM2ORC9GD8BB","AMHUDJ44HF1ZH","3WPCIUYH1AU470H2HRBLZRFBM3CTDN","","null","<img src=""img/land4.png"" style=""width:200px; border:14px solid green;"">","null","","","","","","","",""
"","image-keyboard-response","252","157904","0.0-372.0","3WQQ9FUS6BGUG3PORZEM2ORC9GD8BB","AMHUDJ44HF1ZH","3WPCIUYH1AU470H2HRBLZRFBM3CTDN","","209.59999999403954","img/land7.png","75","210.09999999403954","2","0","false","1","0.8,0.2,0.2,0.2,0.8,0.2,0.2,0.2,0.8","",""
"","html-keyboard-response","253","158205","0.0-373.0","3WQQ9FUS6BGUG3PORZEM2ORC9GD8BB","AMHUDJ44HF1ZH","3WPCIUYH1AU470H2HRBLZRFBM3CTDN","","null","<img src=""img/land7.png"" style=""width:200px;border:14px solid red;"">","null","","","","","","","",""
"","image-keyboard-response","254","158350","0.0-375.0","3WQQ9FUS6BGUG3PORZEM2ORC9GD8BB","AMHUDJ44HF1ZH","3WPCIUYH1AU470H2HRBLZRFBM3CTDN","","144.2999999821186","img/land8.png","75","144.90000000596046","2","1","false","2","0.8,0.2,0.2,0.2,0.8,0.2,0.2,0.2,0.8","",""
"","html-keyboard-response","255","158652","0.0-376.0","3WQQ9FUS6BGUG3PORZEM2ORC9GD8BB","AMHUDJ44HF1ZH","3WPCIUYH1AU470H2HRBLZRFBM3CTDN","","null","<img src=""img/land8.png"" style=""width:200px; border:14px solid green;"">","null","","","","","","","",""
"","image-keyboard-response","256","158833","0.0-378.0","3WQQ9FUS6BGUG3PORZEM2ORC9GD8BB","AMHUDJ44HF1ZH","3WPCIUYH1AU470H2HRBLZRFBM3CTDN","","179.59999999403954","img/land4.png","75","180.2999999821186","2","0","false","3","0.8,0.2,0.2,0.2,0.8,0.2,0.2,0.2,0.8","",""
"","html-keyboard-response","257","159134","0.0-379.0","3WQQ9FUS6BGUG3PORZEM2ORC9GD8BB","AMHUDJ44HF1ZH","3WPCIUYH1AU470H2HRBLZRFBM3CTDN","","null","<img src=""img/land4.png"" style=""width:200px;border:14px solid red;"">","null","","","","","","","",""
"","image-keyboard-response","258","159255","0.0-381.0","3WQQ9FUS6BGUG3PORZEM2ORC9GD8BB","AMHUDJ44HF1ZH","3WPCIUYH1AU470H2HRBLZRFBM3CTDN","","121.10000002384186","img/land4.png","75","121.69999998807907","2","0","false","3","0.8,0.2,0.2,0.2,0.8,0.2,0.2,0.2,0.8","",""
"","html-keyboard-response","259","159557","0.0-382.0","3WQQ9FUS6BGUG3PORZEM2ORC9GD8BB","AMHUDJ44HF1ZH","3WPCIUYH1AU470H2HRBLZRFBM3CTDN","","null","<img src=""img/land4.png"" style=""width:200px;border:14px solid red;"">","null","","","","","","","",""
"","image-keyboard-response","260","159683","0.0-384.0","3WQQ9FUS6BGUG3PORZEM2ORC9GD8BB","AMHUDJ44HF1ZH","3WPCIUYH1AU470H2HRBLZRFBM3CTDN","","125.10000002384186","img/land7.png","75","125.59999999403954","2","1","false","1","0.8,0.2,0.2,0.2,0.8,0.2,0.2,0.2,0.8","",""
"","html-keyboard-response","261","159985","0.0-385.0","3WQQ9FUS6BGUG3PORZEM2ORC9GD8BB","AMHUDJ44HF1ZH","3WPCIUYH1AU470H2HRBLZRFBM3CTDN","","null","<img src=""img/land7.png"" style=""width:200px; border:14px solid green;"">","null","","","","","","","",""
"","image-keyboard-response","262","159993","0.0-387.0","3WQQ9FUS6BGUG3PORZEM2ORC9GD8BB","AMHUDJ44HF1ZH","3WPCIUYH1AU470H2HRBLZRFBM3CTDN","","7.200000017881393","img/land7.png","76","7.5999999940395355","3","0","false","1","0.8,0.2,0.2,0.2,0.8,0.2,0.2,0.2,0.8","",""
"","html-keyboard-response","263","160295","0.0-388.0","3WQQ9FUS6BGUG3PORZEM2ORC9GD8BB","AMHUDJ44HF1ZH","3WPCIUYH1AU470H2HRBLZRFBM3CTDN","","null","<img src=""img/land7.png"" style=""width:200px;border:14px solid red;"">","null","","","","","","","",""
"","image-keyboard-response","264","160376","0.0-390.0","3WQQ9FUS6BGUG3PORZEM2ORC9GD8BB","AMHUDJ44HF1ZH","3WPCIUYH1AU470H2HRBLZRFBM3CTDN","","80.59999999403954","img/land4.png","76","81.09999999403954","3","1","false","3","0.8,0.2,0.2,0.2,0.8,0.2,0.2,0.2,0.8","",""
"","html-keyboard-response","265","160677","0.0-391.0","3WQQ9FUS6BGUG3PORZEM2ORC9GD8BB","AMHUDJ44HF1ZH","3WPCIUYH1AU470H2HRBLZRFBM3CTDN","","null","<img src=""img/land4.png"" style=""width:200px; border:14px solid green;"">","null","","","","","","","",""
"","image-keyboard-response","266","160747","0.0-393.0","3WQQ9FUS6BGUG3PORZEM2ORC9GD8BB","AMHUDJ44HF1ZH","3WPCIUYH1AU470H2HRBLZRFBM3CTDN","","69.7999999821186","img/land8.png","75","70.40000000596046","2","1","false","2","0.8,0.2,0.2,0.2,0.8,0.2,0.2,0.2,0.8","",""
"","html-keyboard-response","267","161049","0.0-394.0","3WQQ9FUS6BGUG3PORZEM2ORC9GD8BB","AMHUDJ44HF1ZH","3WPCIUYH1AU470H2HRBLZRFBM3CTDN","","null","<img src=""img/land8.png"" style=""width:200px; border:14px solid green;"">","null","","","","","","","",""
"","image-keyboard-response","268","161316","0.0-396.0","3WQQ9FUS6BGUG3PORZEM2ORC9GD8BB","AMHUDJ44HF1ZH","3WPCIUYH1AU470H2HRBLZRFBM3CTDN","","266.2999999821186","img/land7.png","75","267","2","1","false","1","0.8,0.2,0.2,0.2,0.8,0.2,0.2,0.2,0.8","",""
"","html-keyboard-response","269","161617","0.0-397.0","3WQQ9FUS6BGUG3PORZEM2ORC9GD8BB","AMHUDJ44HF1ZH","3WPCIUYH1AU470H2HRBLZRFBM3CTDN","","null","<img src=""img/land7.png"" style=""width:200px; border:14px solid green;"">","null","","","","","","","",""
"","image-keyboard-response","270","161692","0.0-399.0","3WQQ9FUS6BGUG3PORZEM2ORC9GD8BB","AMHUDJ44HF1ZH","3WPCIUYH1AU470H2HRBLZRFBM3CTDN","","74.2999999821186","img/land4.png","76","74.90000000596046","3","0","false","3","0.8,0.2,0.2,0.2,0.8,0.2,0.2,0.2,0.8","",""
"","html-keyboard-response","271","161994","0.0-400.0","3WQQ9FUS6BGUG3PORZEM2ORC9GD8BB","AMHUDJ44HF1ZH","3WPCIUYH1AU470H2HRBLZRFBM3CTDN","","null","<img src=""img/land4.png"" style=""width:200px;border:14px solid red;"">","null","","","","","","","",""
"","image-keyboard-response","272","162058","0.0-402.0","3WQQ9FUS6BGUG3PORZEM2ORC9GD8BB","AMHUDJ44HF1ZH","3WPCIUYH1AU470H2HRBLZRFBM3CTDN","","63.19999998807907","img/land8.png","76","63.80000001192093","3","0","false","2","0.8,0.2,0.2,0.2,0.8,0.2,0.2,0.2,0.8","",""
"","html-keyboard-response","273","162359","0.0-403.0","3WQQ9FUS6BGUG3PORZEM2ORC9GD8BB","AMHUDJ44HF1ZH","3WPCIUYH1AU470H2HRBLZRFBM3CTDN","","null","<img src=""img/land8.png"" style=""width:200px;border:14px solid red;"">","null","","","","","","","",""
"","image-keyboard-response","274","162367","0.0-405.0","3WQQ9FUS6BGUG3PORZEM2ORC9GD8BB","AMHUDJ44HF1ZH","3WPCIUYH1AU470H2HRBLZRFBM3CTDN","","6.800000011920929","img/land7.png","76","7.4000000059604645","3","0","false","1","0.8,0.2,0.2,0.2,0.8,0.2,0.2,0.2,0.8","",""
"","html-keyboard-response","275","162669","0.0-406.0","3WQQ9FUS6BGUG3PORZEM2ORC9GD8BB","AMHUDJ44HF1ZH","3WPCIUYH1AU470H2HRBLZRFBM3CTDN","","null","<img src=""img/land7.png"" style=""width:200px;border:14px solid red;"">","null","","","","","","","",""
"","image-keyboard-response","276","162688","0.0-408.0","3WQQ9FUS6BGUG3PORZEM2ORC9GD8BB","AMHUDJ44HF1ZH","3WPCIUYH1AU470H2HRBLZRFBM3CTDN","","18.899999976158142","img/land8.png","76","19.5","3","0","false","2","0.8,0.2,0.2,0.2,0.8,0.2,0.2,0.2,0.8","",""
"","html-keyboard-response","277","162990","0.0-409.0","3WQQ9FUS6BGUG3PORZEM2ORC9GD8BB","AMHUDJ44HF1ZH","3WPCIUYH1AU470H2HRBLZRFBM3CTDN","","null","<img src=""img/land8.png"" style=""width:200px;border:14px solid red;"">","null","","","","","","","",""
"","image-keyboard-response","278","162999","0.0-411.0","3WQQ9FUS6BGUG3PORZEM2ORC9GD8BB","AMHUDJ44HF1ZH","3WPCIUYH1AU470H2HRBLZRFBM3CTDN","","8.5","img/land8.png","75","9","2","1","false","2","0.8,0.2,0.2,0.2,0.8,0.2,0.2,0.2,0.8","",""
"","html-keyboard-response","279","163300","0.0-412.0","3WQQ9FUS6BGUG3PORZEM2ORC9GD8BB","AMHUDJ44HF1ZH","3WPCIUYH1AU470H2HRBLZRFBM3CTDN","","null","<img src=""img/land8.png"" style=""width:200px; border:14px solid green;"">","null","","","","","","","",""
"","image-keyboard-response","280","163309","0.0-414.0","3WQQ9FUS6BGUG3PORZEM2ORC9GD8BB","AMHUDJ44HF1ZH","3WPCIUYH1AU470H2HRBLZRFBM3CTDN","","8.199999988079071","img/land8.png","74","8.900000005960464","1","0","false","2","0.8,0.2,0.2,0.2,0.8,0.2,0.2,0.2,0.8","",""
"","html-keyboard-response","281","163610","0.0-415.0","3WQQ9FUS6BGUG3PORZEM2ORC9GD8BB","AMHUDJ44HF1ZH","3WPCIUYH1AU470H2HRBLZRFBM3CTDN","","null","<img src=""img/land8.png"" style=""width:200px;border:14px solid red;"">","null","","","","","","","",""
"","image-keyboard-response","282","163739","0.0-417.0","3WQQ9FUS6BGUG3PORZEM2ORC9GD8BB","AMHUDJ44HF1ZH","3WPCIUYH1AU470H2HRBLZRFBM3CTDN","","128.30000001192093","img/land8.png","76","128.90000000596046","3","0","false","2","0.8,0.2,0.2,0.2,0.8,0.2,0.2,0.2,0.8","",""
"","html-keyboard-response","283","164040","0.0-418.0","3WQQ9FUS6BGUG3PORZEM2ORC9GD8BB","AMHUDJ44HF1ZH","3WPCIUYH1AU470H2HRBLZRFBM3CTDN","","null","<img src=""img/land8.png"" style=""width:200px;border:14px solid red;"">","null","","","","","","","",""
"","image-keyboard-response","284","164079","0.0-420.0","3WQQ9FUS6BGUG3PORZEM2ORC9GD8BB","AMHUDJ44HF1ZH","3WPCIUYH1AU470H2HRBLZRFBM3CTDN","","37.69999998807907","img/land4.png","74","38.19999998807907","1","0","false","3","0.8,0.2,0.2,0.2,0.8,0.2,0.2,0.2,0.8","",""
"","html-keyboard-response","285","164380","0.0-421.0","3WQQ9FUS6BGUG3PORZEM2ORC9GD8BB","AMHUDJ44HF1ZH","3WPCIUYH1AU470H2HRBLZRFBM3CTDN","","null","<img src=""img/land4.png"" style=""width:200px;border:14px solid red;"">","null","","","","","","","",""
"","image-keyboard-response","286","164419","0.0-423.0","3WQQ9FUS6BGUG3PORZEM2ORC9GD8BB","AMHUDJ44HF1ZH","3WPCIUYH1AU470H2HRBLZRFBM3CTDN","","37.5","img/land8.png","76","38.099999994039536","3","1","false","2","0.8,0.2,0.2,0.2,0.8,0.2,0.2,0.2,0.8","",""
"","html-keyboard-response","287","164720","0.0-424.0","3WQQ9FUS6BGUG3PORZEM2ORC9GD8BB","AMHUDJ44HF1ZH","3WPCIUYH1AU470H2HRBLZRFBM3CTDN","","null","<img src=""img/land8.png"" style=""width:200px; border:14px solid green;"">","null","","","","","","","",""
"","image-keyboard-response","288","164844","0.0-426.0","3WQQ9FUS6BGUG3PORZEM2ORC9GD8BB","AMHUDJ44HF1ZH","3WPCIUYH1AU470H2HRBLZRFBM3CTDN","","123.09999999403954","img/land4.png","76","123.59999999403954","3","1","false","3","0.8,0.2,0.2,0.2,0.8,0.2,0.2,0.2,0.8","",""
"","html-keyboard-response","289","165145","0.0-427.0","3WQQ9FUS6BGUG3PORZEM2ORC9GD8BB","AMHUDJ44HF1ZH","3WPCIUYH1AU470H2HRBLZRFBM3CTDN","","null","<img src=""img/land4.png"" style=""width:200px; border:14px solid green;"">","null","","","","","","","",""
"","image-keyboard-response","290","165152","0.0-429.0","3WQQ9FUS6BGUG3PORZEM2ORC9GD8BB","AMHUDJ44HF1ZH","3WPCIUYH1AU470H2HRBLZRFBM3CTDN","","6.100000023841858","img/land4.png","76","6.5999999940395355","3","1","false","3","0.8,0.2,0.2,0.2,0.8,0.2,0.2,0.2,0.8","",""
"","html-keyboard-response","291","165453","0.0-430.0","3WQQ9FUS6BGUG3PORZEM2ORC9GD8BB","AMHUDJ44HF1ZH","3WPCIUYH1AU470H2HRBLZRFBM3CTDN","","null","<img src=""img/land4.png"" style=""width:200px; border:14px solid green;"">","null","","","","","","","",""
"","image-keyboard-response","292","165491","0.0-432.0","3WQQ9FUS6BGUG3PORZEM2ORC9GD8BB","AMHUDJ44HF1ZH","3WPCIUYH1AU470H2HRBLZRFBM3CTDN","","36.89999997615814","img/land4.png","74","37.400000005960464","1","0","false","3","0.8,0.2,0.2,0.2,0.8,0.2,0.2,0.2,0.8","",""
"","html-keyboard-response","293","165792","0.0-433.0","3WQQ9FUS6BGUG3PORZEM2ORC9GD8BB","AMHUDJ44HF1ZH","3WPCIUYH1AU470H2HRBLZRFBM3CTDN","","null","<img src=""img/land4.png"" style=""width:200px;border:14px solid red;"">","null","","","","","","","",""
"","image-keyboard-response","294","165920","0.0-435.0","3WQQ9FUS6BGUG3PORZEM2ORC9GD8BB","AMHUDJ44HF1ZH","3WPCIUYH1AU470H2HRBLZRFBM3CTDN","","127.19999998807907","img/land7.png","76","127.7999999821186","3","1","false","1","0.8,0.2,0.2,0.2,0.8,0.2,0.2,0.2,0.8","",""
"","html-keyboard-response","295","166221","0.0-436.0","3WQQ9FUS6BGUG3PORZEM2ORC9GD8BB","AMHUDJ44HF1ZH","3WPCIUYH1AU470H2HRBLZRFBM3CTDN","","null","<img src=""img/land7.png"" style=""width:200px; border:14px solid green;"">","null","","","","","","","",""
"","image-keyboard-response","296","166262","0.0-438.0","3WQQ9FUS6BGUG3PORZEM2ORC9GD8BB","AMHUDJ44HF1ZH","3WPCIUYH1AU470H2HRBLZRFBM3CTDN","","39.599999994039536","img/land4.png","75","40.099999994039536","2","1","false","3","0.8,0.2,0.2,0.2,0.8,0.2,0.2,0.2,0.8","",""
"","html-keyboard-response","297","166563","0.0-439.0","3WQQ9FUS6BGUG3PORZEM2ORC9GD8BB","AMHUDJ44HF1ZH","3WPCIUYH1AU470H2HRBLZRFBM3CTDN","","null","<img src=""img/land4.png"" style=""width:200px; border:14px solid green;"">","null","","","","","","","",""
"","image-keyboard-response","298","166703","0.0-441.0","3WQQ9FUS6BGUG3PORZEM2ORC9GD8BB","AMHUDJ44HF1ZH","3WPCIUYH1AU470H2HRBLZRFBM3CTDN","","139.80000001192093","img/land8.png","76","140.39999997615814","3","0","false","2","0.8,0.2,0.2,0.2,0.8,0.2,0.2,0.2,0.8","",""
"","html-keyboard-response","299","167004","0.0-442.0","3WQQ9FUS6BGUG3PORZEM2ORC9GD8BB","AMHUDJ44HF1ZH","3WPCIUYH1AU470H2HRBLZRFBM3CTDN","","null","<img src=""img/land8.png"" style=""width:200px;border:14px solid red;"">","null","","","","","","","",""
"","image-keyboard-response","300","167046","0.0-444.0","3WQQ9FUS6BGUG3PORZEM2ORC9GD8BB","AMHUDJ44HF1ZH","3WPCIUYH1AU470H2HRBLZRFBM3CTDN","","41.20000001788139","img/land4.png","75","41.80000001192093","2","0","false","3","0.8,0.2,0.2,0.2,0.8,0.2,0.2,0.2,0.8","",""
"","html-keyboard-response","301","167347","0.0-445.0","3WQQ9FUS6BGUG3PORZEM2ORC9GD8BB","AMHUDJ44HF1ZH","3WPCIUYH1AU470H2HRBLZRFBM3CTDN","","null","<img src=""img/land4.png"" style=""width:200px;border:14px solid red;"">","null","","","","","","","",""
"","image-keyboard-response","302","167493","0.0-447.0","3WQQ9FUS6BGUG3PORZEM2ORC9GD8BB","AMHUDJ44HF1ZH","3WPCIUYH1AU470H2HRBLZRFBM3CTDN","","144.60000002384186","img/land8.png","76","145.19999998807907","3","0","false","2","0.8,0.2,0.2,0.2,0.8,0.2,0.2,0.2,0.8","",""
"","html-keyboard-response","303","167794","0.0-448.0","3WQQ9FUS6BGUG3PORZEM2ORC9GD8BB","AMHUDJ44HF1ZH","3WPCIUYH1AU470H2HRBLZRFBM3CTDN","","null","<img src=""img/land8.png"" style=""width:200px;border:14px solid red;"">","null","","","","","","","",""
"","image-keyboard-response","304","167843","0.0-450.0","3WQQ9FUS6BGUG3PORZEM2ORC9GD8BB","AMHUDJ44HF1ZH","3WPCIUYH1AU470H2HRBLZRFBM3CTDN","","48.400000005960464","img/land8.png","75","49","2","1","false","2","0.8,0.2,0.2,0.2,0.8,0.2,0.2,0.2,0.8","",""
"","html-keyboard-response","305","168144","0.0-451.0","3WQQ9FUS6BGUG3PORZEM2ORC9GD8BB","AMHUDJ44HF1ZH","3WPCIUYH1AU470H2HRBLZRFBM3CTDN","","null","<img src=""img/land8.png"" style=""width:200px; border:14px solid green;"">","null","","","","","","","",""
"","image-keyboard-response","306","168149","0.0-453.0","3WQQ9FUS6BGUG3PORZEM2ORC9GD8BB","AMHUDJ44HF1ZH","3WPCIUYH1AU470H2HRBLZRFBM3CTDN","","3.7000000178813934","img/land8.png","74","4.4000000059604645","1","0","false","2","0.8,0.2,0.2,0.2,0.8,0.2,0.2,0.2,0.8","",""
"","html-keyboard-response","307","168450","0.0-454.0","3WQQ9FUS6BGUG3PORZEM2ORC9GD8BB","AMHUDJ44HF1ZH","3WPCIUYH1AU470H2HRBLZRFBM3CTDN","","null","<img src=""img/land8.png"" style=""width:200px;border:14px solid red;"">","null","","","","","","","",""
"","image-keyboard-response","308","168606","0.0-456.0","3WQQ9FUS6BGUG3PORZEM2ORC9GD8BB","AMHUDJ44HF1ZH","3WPCIUYH1AU470H2HRBLZRFBM3CTDN","","155.5","img/land8.png","74","156","1","0","false","2","0.8,0.2,0.2,0.2,0.8,0.2,0.2,0.2,0.8","",""
"","html-keyboard-response","309","168908","0.0-457.0","3WQQ9FUS6BGUG3PORZEM2ORC9GD8BB","AMHUDJ44HF1ZH","3WPCIUYH1AU470H2HRBLZRFBM3CTDN","","null","<img src=""img/land8.png"" style=""width:200px;border:14px solid red;"">","null","","","","","","","",""
"","image-keyboard-response","310","168955","0.0-459.0","3WQQ9FUS6BGUG3PORZEM2ORC9GD8BB","AMHUDJ44HF1ZH","3WPCIUYH1AU470H2HRBLZRFBM3CTDN","","47","img/land4.png","76","47.69999998807907","3","0","false","3","0.8,0.2,0.2,0.2,0.8,0.2,0.2,0.2,0.8","",""
"","html-keyboard-response","311","169257","0.0-460.0","3WQQ9FUS6BGUG3PORZEM2ORC9GD8BB","AMHUDJ44HF1ZH","3WPCIUYH1AU470H2HRBLZRFBM3CTDN","","null","<img src=""img/land4.png"" style=""width:200px;border:14px solid red;"">","null","","","","","","","",""
"","image-keyboard-response","312","169347","0.0-462.0","3WQQ9FUS6BGUG3PORZEM2ORC9GD8BB","AMHUDJ44HF1ZH","3WPCIUYH1AU470H2HRBLZRFBM3CTDN","","89","img/land7.png","76","89.69999998807907","3","1","false","1","0.8,0.2,0.2,0.2,0.8,0.2,0.2,0.2,0.8","",""
"","html-keyboard-response","313","169648","0.0-463.0","3WQQ9FUS6BGUG3PORZEM2ORC9GD8BB","AMHUDJ44HF1ZH","3WPCIUYH1AU470H2HRBLZRFBM3CTDN","","null","<img src=""img/land7.png"" style=""width:200px; border:14px solid green;"">","null","","","","","","","",""
"","image-keyboard-response","314","169712","0.0-465.0","3WQQ9FUS6BGUG3PORZEM2ORC9GD8BB","AMHUDJ44HF1ZH","3WPCIUYH1AU470H2HRBLZRFBM3CTDN","","62.69999998807907","img/land8.png","74","63.30000001192093","1","0","false","2","0.8,0.2,0.2,0.2,0.8,0.2,0.2,0.2,0.8","",""
"","html-keyboard-response","315","170013","0.0-466.0","3WQQ9FUS6BGUG3PORZEM2ORC9GD8BB","AMHUDJ44HF1ZH","3WPCIUYH1AU470H2HRBLZRFBM3CTDN","","null","<img src=""img/land8.png"" style=""width:200px;border:14px solid red;"">","null","","","","","","","",""
"","image-keyboard-response","316","170119","0.0-468.0","3WQQ9FUS6BGUG3PORZEM2ORC9GD8BB","AMHUDJ44HF1ZH","3WPCIUYH1AU470H2HRBLZRFBM3CTDN","","105.5","img/land7.png","76","106.2000000178814","3","0","false","1","0.8,0.2,0.2,0.2,0.8,0.2,0.2,0.2,0.8","",""
"","html-keyboard-response","317","170420","0.0-469.0","3WQQ9FUS6BGUG3PORZEM2ORC9GD8BB","AMHUDJ44HF1ZH","3WPCIUYH1AU470H2HRBLZRFBM3CTDN","","null","<img src=""img/land7.png"" style=""width:200px;border:14px solid red;"">","null","","","","","","","",""
"","image-keyboard-response","318","170462","0.0-471.0","3WQQ9FUS6BGUG3PORZEM2ORC9GD8BB","AMHUDJ44HF1ZH","3WPCIUYH1AU470H2HRBLZRFBM3CTDN","","41.30000001192093","img/land4.png","75","41.900000005960464","2","0","false","3","0.8,0.2,0.2,0.2,0.8,0.2,0.2,0.2,0.8","",""
"","html-keyboard-response","319","170764","0.0-472.0","3WQQ9FUS6BGUG3PORZEM2ORC9GD8BB","AMHUDJ44HF1ZH","3WPCIUYH1AU470H2HRBLZRFBM3CTDN","","null","<img src=""img/land4.png"" style=""width:200px;border:14px solid red;"">","null","","","","","","","",""
"","image-keyboard-response","320","170791","0.0-474.0","3WQQ9FUS6BGUG3PORZEM2ORC9GD8BB","AMHUDJ44HF1ZH","3WPCIUYH1AU470H2HRBLZRFBM3CTDN","","26.900000005960464","img/land7.png","74","27.5","1","1","false","1","0.8,0.2,0.2,0.2,0.8,0.2,0.2,0.2,0.8","",""
"","html-keyboard-response","321","171093","0.0-475.0","3WQQ9FUS6BGUG3PORZEM2ORC9GD8BB","AMHUDJ44HF1ZH","3WPCIUYH1AU470H2HRBLZRFBM3CTDN","","null","<img src=""img/land7.png"" style=""width:200px; border:14px solid green;"">","null","","","","","","","",""
"","image-keyboard-response","322","171214","0.0-477.0","3WQQ9FUS6BGUG3PORZEM2ORC9GD8BB","AMHUDJ44HF1ZH","3WPCIUYH1AU470H2HRBLZRFBM3CTDN","","120.40000000596046","img/land7.png","75","121.09999999403954","2","1","false","1","0.8,0.2,0.2,0.2,0.8,0.2,0.2,0.2,0.8","",""
"","html-keyboard-response","323","171516","0.0-478.0","3WQQ9FUS6BGUG3PORZEM2ORC9GD8BB","AMHUDJ44HF1ZH","3WPCIUYH1AU470H2HRBLZRFBM3CTDN","","null","<img src=""img/land7.png"" style=""width:200px; border:14px solid green;"">","null","","","","","","","",""
"","image-keyboard-response","324","171562","0.0-480.0","3WQQ9FUS6BGUG3PORZEM2ORC9GD8BB","AMHUDJ44HF1ZH","3WPCIUYH1AU470H2HRBLZRFBM3CTDN","","45.099999994039536","img/land7.png","75","45.70000001788139","2","0","false","1","0.8,0.2,0.2,0.2,0.8,0.2,0.2,0.2,0.8","",""
"","html-keyboard-response","325","171864","0.0-481.0","3WQQ9FUS6BGUG3PORZEM2ORC9GD8BB","AMHUDJ44HF1ZH","3WPCIUYH1AU470H2HRBLZRFBM3CTDN","","null","<img src=""img/land7.png"" style=""width:200px;border:14px solid red;"">","null","","","","","","","",""
"","image-keyboard-response","326","171915","0.0-483.0","3WQQ9FUS6BGUG3PORZEM2ORC9GD8BB","AMHUDJ44HF1ZH","3WPCIUYH1AU470H2HRBLZRFBM3CTDN","","50.900000005960464","img/land4.png","74","51.5","1","0","false","3","0.8,0.2,0.2,0.2,0.8,0.2,0.2,0.2,0.8","",""
"","html-keyboard-response","327","172217","0.0-484.0","3WQQ9FUS6BGUG3PORZEM2ORC9GD8BB","AMHUDJ44HF1ZH","3WPCIUYH1AU470H2HRBLZRFBM3CTDN","","null","<img src=""img/land4.png"" style=""width:200px;border:14px solid red;"">","null","","","","","","","",""
"","image-keyboard-response","328","172336","0.0-486.0","3WQQ9FUS6BGUG3PORZEM2ORC9GD8BB","AMHUDJ44HF1ZH","3WPCIUYH1AU470H2HRBLZRFBM3CTDN","","117.59999999403954","img/land8.png","76","118.30000001192093","3","0","false","2","0.8,0.2,0.2,0.2,0.8,0.2,0.2,0.2,0.8","",""
"","html-keyboard-response","329","172637","0.0-487.0","3WQQ9FUS6BGUG3PORZEM2ORC9GD8BB","AMHUDJ44HF1ZH","3WPCIUYH1AU470H2HRBLZRFBM3CTDN","","null","<img src=""img/land8.png"" style=""width:200px;border:14px solid red;"">","null","","","","","","","",""
"","image-keyboard-response","330","172661","0.0-489.0","3WQQ9FUS6BGUG3PORZEM2ORC9GD8BB","AMHUDJ44HF1ZH","3WPCIUYH1AU470H2HRBLZRFBM3CTDN","","23.5","img/land8.png","75","23.900000005960464","2","1","false","2","0.8,0.2,0.2,0.2,0.8,0.2,0.2,0.2,0.8","",""
"","html-keyboard-response","331","172963","0.0-490.0","3WQQ9FUS6BGUG3PORZEM2ORC9GD8BB","AMHUDJ44HF1ZH","3WPCIUYH1AU470H2HRBLZRFBM3CTDN","","null","<img src=""img/land8.png"" style=""width:200px; border:14px solid green;"">","null","","","","","","","",""
"","image-keyboard-response","332","173181","0.0-492.0","3WQQ9FUS6BGUG3PORZEM2ORC9GD8BB","AMHUDJ44HF1ZH","3WPCIUYH1AU470H2HRBLZRFBM3CTDN","","218.30000001192093","img/land7.png","74","218.7999999821186","1","1","false","1","0.8,0.2,0.2,0.2,0.8,0.2,0.2,0.2,0.8","",""
"","html-keyboard-response","333","173483","0.0-493.0","3WQQ9FUS6BGUG3PORZEM2ORC9GD8BB","AMHUDJ44HF1ZH","3WPCIUYH1AU470H2HRBLZRFBM3CTDN","","null","<img src=""img/land7.png"" style=""width:200px; border:14px solid green;"">","null","","","","","","","",""
"","image-keyboard-response","334","173490","0.0-495.0","3WQQ9FUS6BGUG3PORZEM2ORC9GD8BB","AMHUDJ44HF1ZH","3WPCIUYH1AU470H2HRBLZRFBM3CTDN","","6.0999999940395355","img/land8.png","74","6.9000000059604645","1","0","false","2","0.8,0.2,0.2,0.2,0.8,0.2,0.2,0.2,0.8","",""
"","html-keyboard-response","335","173790","0.0-496.0","3WQQ9FUS6BGUG3PORZEM2ORC9GD8BB","AMHUDJ44HF1ZH","3WPCIUYH1AU470H2HRBLZRFBM3CTDN","","null","<img src=""img/land8.png"" style=""width:200px;border:14px solid red;"">","null","","","","","","","",""
"","image-keyboard-response","336","173924","0.0-498.0","3WQQ9FUS6BGUG3PORZEM2ORC9GD8BB","AMHUDJ44HF1ZH","3WPCIUYH1AU470H2HRBLZRFBM3CTDN","","133.09999999403954","img/land8.png","76","133.7000000178814","3","1","false","2","0.8,0.2,0.2,0.2,0.8,0.2,0.2,0.2,0.8","",""
"","html-keyboard-response","337","174225","0.0-499.0","3WQQ9FUS6BGUG3PORZEM2ORC9GD8BB","AMHUDJ44HF1ZH","3WPCIUYH1AU470H2HRBLZRFBM3CTDN","","null","<img src=""img/land8.png"" style=""width:200px; border:14px solid green;"">","null","","","","","","","",""
"","image-keyboard-response","338","174271","0.0-501.0","3WQQ9FUS6BGUG3PORZEM2ORC9GD8BB","AMHUDJ44HF1ZH","3WPCIUYH1AU470H2HRBLZRFBM3CTDN","","45.10000002384186","img/land4.png","75","45.69999998807907","2","1","false","3","0.8,0.2,0.2,0.2,0.8,0.2,0.2,0.2,0.8","",""
"","html-keyboard-response","339","174573","0.0-502.0","3WQQ9FUS6BGUG3PORZEM2ORC9GD8BB","AMHUDJ44HF1ZH","3WPCIUYH1AU470H2HRBLZRFBM3CTDN","","null","<img src=""img/land4.png"" style=""width:200px; border:14px solid green;"">","null","","","","","","","",""
"","image-keyboard-response","340","174802","0.0-504.0","3WQQ9FUS6BGUG3PORZEM2ORC9GD8BB","AMHUDJ44HF1ZH","3WPCIUYH1AU470H2HRBLZRFBM3CTDN","","228.40000000596046","img/land4.png","74","229","1","0","false","3","0.8,0.2,0.2,0.2,0.8,0.2,0.2,0.2,0.8","",""
"","html-keyboard-response","341","175103","0.0-505.0","3WQQ9FUS6BGUG3PORZEM2ORC9GD8BB","AMHUDJ44HF1ZH","3WPCIUYH1AU470H2HRBLZRFBM3CTDN","","null","<img src=""img/land4.png"" style=""width:200px;border:14px solid red;"">","null","","","","","","","",""
"","image-keyboard-response","342","175149","0.0-507.0","3WQQ9FUS6BGUG3PORZEM2ORC9GD8BB","AMHUDJ44HF1ZH","3WPCIUYH1AU470H2HRBLZRFBM3CTDN","","45.79999998211861","img/land4.png","74","46.30000001192093","1","0","false","3","0.8,0.2,0.2,0.2,0.8,0.2,0.2,0.2,0.8","",""
"","html-keyboard-response","343","175450","0.0-508.0","3WQQ9FUS6BGUG3PORZEM2ORC9GD8BB","AMHUDJ44HF1ZH","3WPCIUYH1AU470H2HRBLZRFBM3CTDN","","null","<img src=""img/land4.png"" style=""width:200px;border:14px solid red;"">","null","","","","","","","",""
"","image-keyboard-response","344","175452","0.0-510.0","3WQQ9FUS6BGUG3PORZEM2ORC9GD8BB","AMHUDJ44HF1ZH","3WPCIUYH1AU470H2HRBLZRFBM3CTDN","","0.5","img/land7.png","74","1.0999999940395355","1","0","false","1","0.8,0.2,0.2,0.2,0.8,0.2,0.2,0.2,0.8","",""
"","html-keyboard-response","345","175753","0.0-511.0","3WQQ9FUS6BGUG3PORZEM2ORC9GD8BB","AMHUDJ44HF1ZH","3WPCIUYH1AU470H2HRBLZRFBM3CTDN","","null","<img src=""img/land7.png"" style=""width:200px;border:14px solid red;"">","null","","","","","","","",""
"","image-keyboard-response","346","175757","0.0-513.0","3WQQ9FUS6BGUG3PORZEM2ORC9GD8BB","AMHUDJ44HF1ZH","3WPCIUYH1AU470H2HRBLZRFBM3CTDN","","3.4000000059604645","img/land8.png","74","3.9000000059604645","1","0","false","2","0.8,0.2,0.2,0.2,0.8,0.2,0.2,0.2,0.8","",""
"","html-keyboard-response","347","176058","0.0-514.0","3WQQ9FUS6BGUG3PORZEM2ORC9GD8BB","AMHUDJ44HF1ZH","3WPCIUYH1AU470H2HRBLZRFBM3CTDN","","null","<img src=""img/land8.png"" style=""width:200px;border:14px solid red;"">","null","","","","","","","",""
"","image-keyboard-response","348","176165","0.0-516.0","3WQQ9FUS6BGUG3PORZEM2ORC9GD8BB","AMHUDJ44HF1ZH","3WPCIUYH1AU470H2HRBLZRFBM3CTDN","","106.2999999821186","img/land7.png","76","106.80000001192093","3","0","false","1","0.8,0.2,0.2,0.2,0.8,0.2,0.2,0.2,0.8","",""
"","html-keyboard-response","349","176467","0.0-517.0","3WQQ9FUS6BGUG3PORZEM2ORC9GD8BB","AMHUDJ44HF1ZH","3WPCIUYH1AU470H2HRBLZRFBM3CTDN","","null","<img src=""img/land7.png"" style=""width:200px;border:14px solid red;"">","null","","","","","","","",""
"","image-keyboard-response","350","176494","0.0-519.0","3WQQ9FUS6BGUG3PORZEM2ORC9GD8BB","AMHUDJ44HF1ZH","3WPCIUYH1AU470H2HRBLZRFBM3CTDN","","26.600000023841858","img/land7.png","75","27.099999994039536","2","0","false","1","0.8,0.2,0.2,0.2,0.8,0.2,0.2,0.2,0.8","",""
"","html-keyboard-response","351","176795","0.0-520.0","3WQQ9FUS6BGUG3PORZEM2ORC9GD8BB","AMHUDJ44HF1ZH","3WPCIUYH1AU470H2HRBLZRFBM3CTDN","","null","<img src=""img/land7.png"" style=""width:200px;border:14px solid red;"">","null","","","","","","","",""
"","image-keyboard-response","352","176801","0.0-522.0","3WQQ9FUS6BGUG3PORZEM2ORC9GD8BB","AMHUDJ44HF1ZH","3WPCIUYH1AU470H2HRBLZRFBM3CTDN","","5.299999982118607","img/land4.png","75","5.9000000059604645","2","1","false","3","0.8,0.2,0.2,0.2,0.8,0.2,0.2,0.2,0.8","",""
"","html-keyboard-response","353","177102","0.0-523.0","3WQQ9FUS6BGUG3PORZEM2ORC9GD8BB","AMHUDJ44HF1ZH","3WPCIUYH1AU470H2HRBLZRFBM3CTDN","","null","<img src=""img/land4.png"" style=""width:200px; border:14px solid green;"">","null","","","","","","","",""
"","image-keyboard-response","354","177124","0.0-525.0","3WQQ9FUS6BGUG3PORZEM2ORC9GD8BB","AMHUDJ44HF1ZH","3WPCIUYH1AU470H2HRBLZRFBM3CTDN","","20.900000005960464","img/land7.png","74","21.5","1","1","false","1","0.8,0.2,0.2,0.2,0.8,0.2,0.2,0.2,0.8","",""
"","html-keyboard-response","355","177425","0.0-526.0","3WQQ9FUS6BGUG3PORZEM2ORC9GD8BB","AMHUDJ44HF1ZH","3WPCIUYH1AU470H2HRBLZRFBM3CTDN","","null","<img src=""img/land7.png"" style=""width:200px; border:14px solid green;"">","null","","","","","","","",""
"","image-keyboard-response","356","177485","0.0-528.0","3WQQ9FUS6BGUG3PORZEM2ORC9GD8BB","AMHUDJ44HF1ZH","3WPCIUYH1AU470H2HRBLZRFBM3CTDN","","58.80000001192093","img/land4.png","74","59.30000001192093","1","1","false","3","0.8,0.2,0.2,0.2,0.8,0.2,0.2,0.2,0.8","",""
"","html-keyboard-response","357","177786","0.0-529.0","3WQQ9FUS6BGUG3PORZEM2ORC9GD8BB","AMHUDJ44HF1ZH","3WPCIUYH1AU470H2HRBLZRFBM3CTDN","","null","<img src=""img/land4.png"" style=""width:200px; border:14px solid green;"">","null","","","","","","","",""
"","image-keyboard-response","358","177926","0.0-531.0","3WQQ9FUS6BGUG3PORZEM2ORC9GD8BB","AMHUDJ44HF1ZH","3WPCIUYH1AU470H2HRBLZRFBM3CTDN","","139.5","img/land4.png","76","140.19999998807907","3","0","false","3","0.8,0.2,0.2,0.2,0.8,0.2,0.2,0.2,0.8","",""
"","html-keyboard-response","359","178228","0.0-532.0","3WQQ9FUS6BGUG3PORZEM2ORC9GD8BB","AMHUDJ44HF1ZH","3WPCIUYH1AU470H2HRBLZRFBM3CTDN","","null","<img src=""img/land4.png"" style=""width:200px;border:14px solid red;"">","null","","","","","","","",""
"","image-keyboard-response","360","178263","0.0-534.0","3WQQ9FUS6BGUG3PORZEM2ORC9GD8BB","AMHUDJ44HF1ZH","3WPCIUYH1AU470H2HRBLZRFBM3CTDN","","34.900000005960464","img/land4.png","75","35.5","2","0","false","3","0.8,0.2,0.2,0.2,0.8,0.2,0.2,0.2,0.8","",""
"","html-keyboard-response","361","178565","0.0-535.0","3WQQ9FUS6BGUG3PORZEM2ORC9GD8BB","AMHUDJ44HF1ZH","3WPCIUYH1AU470H2HRBLZRFBM3CTDN","","null","<img src=""img/land4.png"" style=""width:200px;border:14px solid red;"">","null","","","","","","","",""
"","image-keyboard-response","362","178580","0.0-537.0","3WQQ9FUS6BGUG3PORZEM2ORC9GD8BB","AMHUDJ44HF1ZH","3WPCIUYH1AU470H2HRBLZRFBM3CTDN","","14.399999976158142","img/land7.png","74","15","1","1","false","1","0.8,0.2,0.2,0.2,0.8,0.2,0.2,0.2,0.8","",""
"","html-keyboard-response","363","178881","0.0-538.0","3WQQ9FUS6BGUG3PORZEM2ORC9GD8BB","AMHUDJ44HF1ZH","3WPCIUYH1AU470H2HRBLZRFBM3CTDN","","null","<img src=""img/land7.png"" style=""width:200px; border:14px solid green;"">","null","","","","","","","",""
"","image-keyboard-response","364","179075","0.0-540.0","3WQQ9FUS6BGUG3PORZEM2ORC9GD8BB","AMHUDJ44HF1ZH","3WPCIUYH1AU470H2HRBLZRFBM3CTDN","","193.2000000178814","img/land4.png","74","193.59999999403954","1","1","false","3","0.8,0.2,0.2,0.2,0.8,0.2,0.2,0.2,0.8","",""
"","html-keyboard-response","365","179376","0.0-541.0","3WQQ9FUS6BGUG3PORZEM2ORC9GD8BB","AMHUDJ44HF1ZH","3WPCIUYH1AU470H2HRBLZRFBM3CTDN","","null","<img src=""img/land4.png"" style=""width:200px; border:14px solid green;"">","null","","","","","","","",""
"","html-keyboard-response","366","181700","0.0-543.0","3WQQ9FUS6BGUG3PORZEM2ORC9GD8BB","AMHUDJ44HF1ZH","3WPCIUYH1AU470H2HRBLZRFBM3CTDN","","","","","","","","","","","",""
"","image-keyboard-response","367","182702","0.0-544.0","3WQQ9FUS6BGUG3PORZEM2ORC9GD8BB","AMHUDJ44HF1ZH","3WPCIUYH1AU470H2HRBLZRFBM3CTDN","","","img/land6.png","","1001.9000000059605","-1","0","true","1","0.6,0.6,0,0,0.6,0.6,0.6,0,0.6","",""
"","html-keyboard-response","368","183003","0.0-545.0","3WQQ9FUS6BGUG3PORZEM2ORC9GD8BB","AMHUDJ44HF1ZH","3WPCIUYH1AU470H2HRBLZRFBM3CTDN","","null","<img src=""img/land6.png"" style=""width:200px;border:14px solid red;"">","null","","","","","","","",""
"","html-keyboard-response","369","185276","0.0-546.0-0.0","3WQQ9FUS6BGUG3PORZEM2ORC9GD8BB","AMHUDJ44HF1ZH","3WPCIUYH1AU470H2HRBLZRFBM3CTDN","","","","","","","","","","","",""
"","image-keyboard-response","370","186279","0.0-547.0","3WQQ9FUS6BGUG3PORZEM2ORC9GD8BB","AMHUDJ44HF1ZH","3WPCIUYH1AU470H2HRBLZRFBM3CTDN","","","img/land1.png","","1001.8999999761581","-1","0","true","2","0.6,0.6,0,0,0.6,0.6,0.6,0,0.6","",""
"","html-keyboard-response","371","186580","0.0-548.0","3WQQ9FUS6BGUG3PORZEM2ORC9GD8BB","AMHUDJ44HF1ZH","3WPCIUYH1AU470H2HRBLZRFBM3CTDN","","null","<img src=""img/land1.png"" style=""width:200px;border:14px solid red;"">","null","","","","","","","",""
"","html-keyboard-response","372","188395","0.0-549.0-0.0","3WQQ9FUS6BGUG3PORZEM2ORC9GD8BB","AMHUDJ44HF1ZH","3WPCIUYH1AU470H2HRBLZRFBM3CTDN","","","","","","","","","","","",""
"","image-keyboard-response","373","189065","0.0-550.0","3WQQ9FUS6BGUG3PORZEM2ORC9GD8BB","AMHUDJ44HF1ZH","3WPCIUYH1AU470H2HRBLZRFBM3CTDN","","669.1999999880791","img/land6.png","75","670.0999999940395","2","1","false","1","0.6,0.6,0,0,0.6,0.6,0.6,0,0.6","",""
"","html-keyboard-response","374","189366","0.0-551.0","3WQQ9FUS6BGUG3PORZEM2ORC9GD8BB","AMHUDJ44HF1ZH","3WPCIUYH1AU470H2HRBLZRFBM3CTDN","","null","<img src=""img/land6.png"" style=""width:200px; border:14px solid green;"">","null","","","","","","","",""
"","image-keyboard-response","375","189460","0.0-553.0","3WQQ9FUS6BGUG3PORZEM2ORC9GD8BB","AMHUDJ44HF1ZH","3WPCIUYH1AU470H2HRBLZRFBM3CTDN","","93.09999999403954","img/land6.png","75","93.7000000178814","2","1","false","1","0.6,0.6,0,0,0.6,0.6,0.6,0,0.6","",""
"","html-keyboard-response","376","189762","0.0-554.0","3WQQ9FUS6BGUG3PORZEM2ORC9GD8BB","AMHUDJ44HF1ZH","3WPCIUYH1AU470H2HRBLZRFBM3CTDN","","null","<img src=""img/land6.png"" style=""width:200px; border:14px solid green;"">","null","","","","","","","",""
"","image-keyboard-response","377","189859","0.0-556.0","3WQQ9FUS6BGUG3PORZEM2ORC9GD8BB","AMHUDJ44HF1ZH","3WPCIUYH1AU470H2HRBLZRFBM3CTDN","","96.5","img/land2.png","75","97.19999998807907","2","0","false","3","0.6,0.6,0,0,0.6,0.6,0.6,0,0.6","",""
"","html-keyboard-response","378","190161","0.0-557.0","3WQQ9FUS6BGUG3PORZEM2ORC9GD8BB","AMHUDJ44HF1ZH","3WPCIUYH1AU470H2HRBLZRFBM3CTDN","","null","<img src=""img/land2.png"" style=""width:200px;border:14px solid red;"">","null","","","","","","","",""
"","image-keyboard-response","379","190224","0.0-559.0","3WQQ9FUS6BGUG3PORZEM2ORC9GD8BB","AMHUDJ44HF1ZH","3WPCIUYH1AU470H2HRBLZRFBM3CTDN","","61.900000005960464","img/land2.png","74","62.5","1","0","false","3","0.6,0.6,0,0,0.6,0.6,0.6,0,0.6","",""
"","html-keyboard-response","380","190525","0.0-560.0","3WQQ9FUS6BGUG3PORZEM2ORC9GD8BB","AMHUDJ44HF1ZH","3WPCIUYH1AU470H2HRBLZRFBM3CTDN","","null","<img src=""img/land2.png"" style=""width:200px;border:14px solid red;"">","null","","","","","","","",""
"","image-keyboard-response","381","190639","0.0-562.0","3WQQ9FUS6BGUG3PORZEM2ORC9GD8BB","AMHUDJ44HF1ZH","3WPCIUYH1AU470H2HRBLZRFBM3CTDN","","113.69999998807907","img/land6.png","74","114.30000001192093","1","1","false","1","0.6,0.6,0,0,0.6,0.6,0.6,0,0.6","",""
"","html-keyboard-response","382","190940","0.0-563.0","3WQQ9FUS6BGUG3PORZEM2ORC9GD8BB","AMHUDJ44HF1ZH","3WPCIUYH1AU470H2HRBLZRFBM3CTDN","","null","<img src=""img/land6.png"" style=""width:200px; border:14px solid green;"">","null","","","","","","","",""
"","image-keyboard-response","383","190992","0.0-565.0","3WQQ9FUS6BGUG3PORZEM2ORC9GD8BB","AMHUDJ44HF1ZH","3WPCIUYH1AU470H2HRBLZRFBM3CTDN","","50.10000002384186","img/land1.png","74","50.79999998211861","1","0","false","2","0.6,0.6,0,0,0.6,0.6,0.6,0,0.6","",""
"","html-keyboard-response","384","191293","0.0-566.0","3WQQ9FUS6BGUG3PORZEM2ORC9GD8BB","AMHUDJ44HF1ZH","3WPCIUYH1AU470H2HRBLZRFBM3CTDN","","null","<img src=""img/land1.png"" style=""width:200px;border:14px solid red;"">","null","","","","","","","",""
"","image-keyboard-response","385","191363","0.0-568.0","3WQQ9FUS6BGUG3PORZEM2ORC9GD8BB","AMHUDJ44HF1ZH","3WPCIUYH1AU470H2HRBLZRFBM3CTDN","","69.09999999403954","img/land1.png","76","69.69999998807907","3","1","false","2","0.6,0.6,0,0,0.6,0.6,0.6,0,0.6","",""
"","html-keyboard-response","386","191664","0.0-569.0","3WQQ9FUS6BGUG3PORZEM2ORC9GD8BB","AMHUDJ44HF1ZH","3WPCIUYH1AU470H2HRBLZRFBM3CTDN","","null","<img src=""img/land1.png"" style=""width:200px; border:14px solid green;"">","null","","","","","","","",""
"","image-keyboard-response","387","191708","0.0-571.0","3WQQ9FUS6BGUG3PORZEM2ORC9GD8BB","AMHUDJ44HF1ZH","3WPCIUYH1AU470H2HRBLZRFBM3CTDN","","43.400000005960464","img/land2.png","74","43.900000005960464","1","0","false","3","0.6,0.6,0,0,0.6,0.6,0.6,0,0.6","",""
