"success","trial_type","trial_index","time_elapsed","internal_node_id","assignmentID","mturkID","hitID","view_history","rt","stimulus","key_press","reactionTime","a","r","s","cond","reward_cond","reward_cond_actual","reward_matrix_idx","responses","question_order"
"true","fullscreen","0","4134","0.0-0.0","32EYX73OY1VFU7DQQZ1HYVE5S8HURX","AMVBT3XDCQBHI","3PEG1BH7AEDCPKTV9M6N3A4F0EHKBR","","","","","","","","","","","","","",""
"","instructions","1","63072","0.0-1.0","32EYX73OY1VFU7DQQZ1HYVE5S8HURX","AMVBT3XDCQBHI","3PEG1BH7AEDCPKTV9M6N3A4F0EHKBR","[{""page_index"":0,""viewing_time"":5311.5},{""page_index"":1,""viewing_time"":3483.5},{""page_index"":2,""viewing_time"":8872.100000023842},{""page_index"":3,""viewing_time"":26418.80000001192},{""page_index"":4,""viewing_time"":5450.599999964237},{""page_index"":5,""viewing_time"":5585.100000023842},{""page_index"":6,""viewing_time"":3812.699999988079}]","58935.30000001192","","","","","","","","","","","",""
"","image-keyboard-response","2","64477","0.0-2.0","32EYX73OY1VFU7DQQZ1HYVE5S8HURX","AMVBT3XDCQBHI","3PEG1BH7AEDCPKTV9M6N3A4F0EHKBR","","1402.800000011921","img/land3.png","76","1404.4000000357628","3","0","3","1","0.8,0.2,0.2,0.2,0.8,0.2,0.2,0.2,0.8","0.8,0.2,0.2,0.2,0.8,0.2,0.2,0.2,0.8","1","",""
"","html-keyboard-response","3","64780","0.0-3.0","32EYX73OY1VFU7DQQZ1HYVE5S8HURX","AMVBT3XDCQBHI","3PEG1BH7AEDCPKTV9M6N3A4F0EHKBR","","null","<img src=""img/land3.png"" style=""width:200px;border:14px solid red;"">","null","","","","","","","","","",""
"","image-keyboard-response","4","66506","0.0-4.0","32EYX73OY1VFU7DQQZ1HYVE5S8HURX","AMVBT3XDCQBHI","3PEG1BH7AEDCPKTV9M6N3A4F0EHKBR","","1724.5","img/land2.png","75","1725.699999988079","2","0","2","1","0.8,0.2,0.2,0.2,0.8,0.2,0.2,0.2,0.8","0.8,0.2,0.2,0.2,0.8,0.2,0.2,0.2,0.8","1","",""
"","html-keyboard-response","5","66809","0.0-5.0","32EYX73OY1VFU7DQQZ1HYVE5S8HURX","AMVBT3XDCQBHI","3PEG1BH7AEDCPKTV9M6N3A4F0EHKBR","","null","<img src=""img/land2.png"" style=""width:200px;border:14px solid red;"">","null","","","","","","","","","",""
"","image-keyboard-response","6","68312","0.0-6.0","32EYX73OY1VFU7DQQZ1HYVE5S8HURX","AMVBT3XDCQBHI","3PEG1BH7AEDCPKTV9M6N3A4F0EHKBR","","1502.5","img/land6.png","74","1503.5","1","1","1","1","0.8,0.2,0.2,0.2,0.8,0.2,0.2,0.2,0.8","0.8,0.2,0.2,0.2,0.8,0.2,0.2,0.2,0.8","1","",""
"","html-keyboard-response","7","68614","0.0-7.0","32EYX73OY1VFU7DQQZ1HYVE5S8HURX","AMVBT3XDCQBHI","3PEG1BH7AEDCPKTV9M6N3A4F0EHKBR","","null","<img src=""img/land6.png"" style=""width:200px; border:14px solid green;"">","null","","","","","","","","","",""
"","image-keyboard-response","8","69828","0.0-8.0","32EYX73OY1VFU7DQQZ1HYVE5S8HURX","AMVBT3XDCQBHI","3PEG1BH7AEDCPKTV9M6N3A4F0EHKBR","","1213.1000000238419","img/land6.png","74","1214.0999999642372","1","1","1","1","0.8,0.2,0.2,0.2,0.8,0.2,0.2,0.2,0.8","0.8,0.2,0.2,0.2,0.8,0.2,0.2,0.2,0.8","1","",""
"","html-keyboard-response","9","70130","0.0-9.0","32EYX73OY1VFU7DQQZ1HYVE5S8HURX","AMVBT3XDCQBHI","3PEG1BH7AEDCPKTV9M6N3A4F0EHKBR","","null","<img src=""img/land6.png"" style=""width:200px; border:14px solid green;"">","null","","","","","","","","","",""
"","image-keyboard-response","10","70668","0.0-10.0","32EYX73OY1VFU7DQQZ1HYVE5S8HURX","AMVBT3XDCQBHI","3PEG1BH7AEDCPKTV9M6N3A4F0EHKBR","","537.0999999642372","img/land6.png","74","538.0999999642372","1","1","1","1","0.8,0.2,0.2,0.2,0.8,0.2,0.2,0.2,0.8","0.8,0.2,0.2,0.2,0.8,0.2,0.2,0.2,0.8","1","",""
"","html-keyboard-response","11","70970","0.0-11.0","32EYX73OY1VFU7DQQZ1HYVE5S8HURX","AMVBT3XDCQBHI","3PEG1BH7AEDCPKTV9M6N3A4F0EHKBR","","null","<img src=""img/land6.png"" style=""width:200px; border:14px solid green;"">","null","","","","","","","","","",""
"","image-keyboard-response","12","71481","0.0-12.0","32EYX73OY1VFU7DQQZ1HYVE5S8HURX","AMVBT3XDCQBHI","3PEG1BH7AEDCPKTV9M6N3A4F0EHKBR","","510.2000000476837","img/land6.png","74","510.9000000357628","1","1","1","1","0.8,0.2,0.2,0.2,0.8,0.2,0.2,0.2,0.8","0.8,0.2,0.2,0.2,0.8,0.2,0.2,0.2,0.8","1","",""
"","html-keyboard-response","13","71783","0.0-13.0","32EYX73OY1VFU7DQQZ1HYVE5S8HURX","AMVBT3XDCQBHI","3PEG1BH7AEDCPKTV9M6N3A4F0EHKBR","","null","<img src=""img/land6.png"" style=""width:200px; border:14px solid green;"">","null","","","","","","","","","",""
"","image-keyboard-response","14","72296","0.0-14.0","32EYX73OY1VFU7DQQZ1HYVE5S8HURX","AMVBT3XDCQBHI","3PEG1BH7AEDCPKTV9M6N3A4F0EHKBR","","512.0999999642372","img/land6.png","74","513.1000000238419","1","1","1","1","0.8,0.2,0.2,0.2,0.8,0.2,0.2,0.2,0.8","0.8,0.2,0.2,0.2,0.8,0.2,0.2,0.2,0.8","1","",""
"","html-keyboard-response","15","72598","0.0-15.0","32EYX73OY1VFU7DQQZ1HYVE5S8HURX","AMVBT3XDCQBHI","3PEG1BH7AEDCPKTV9M6N3A4F0EHKBR","","null","<img src=""img/land6.png"" style=""width:200px; border:14px solid green;"">","null","","","","","","","","","",""
"","image-keyboard-response","16","73690","0.0-16.0","32EYX73OY1VFU7DQQZ1HYVE5S8HURX","AMVBT3XDCQBHI","3PEG1BH7AEDCPKTV9M6N3A4F0EHKBR","","1090.9000000357628","img/land3.png","76","1091.800000011921","3","1","3","1","0.8,0.2,0.2,0.2,0.8,0.2,0.2,0.2,0.8","0.8,0.2,0.2,0.2,0.8,0.2,0.2,0.2,0.8","1","",""
"","html-keyboard-response","17","73993","0.0-17.0","32EYX73OY1VFU7DQQZ1HYVE5S8HURX","AMVBT3XDCQBHI","3PEG1BH7AEDCPKTV9M6N3A4F0EHKBR","","null","<img src=""img/land3.png"" style=""width:200px; border:14px solid green;"">","null","","","","","","","","","",""
"","image-keyboard-response","18","74983","0.0-18.0","32EYX73OY1VFU7DQQZ1HYVE5S8HURX","AMVBT3XDCQBHI","3PEG1BH7AEDCPKTV9M6N3A4F0EHKBR","","989.4000000357628","img/land6.png","74","990.1999999880791","1","0","1","1","0.8,0.2,0.2,0.2,0.8,0.2,0.2,0.2,0.8","0.8,0.2,0.2,0.2,0.8,0.2,0.2,0.2,0.8","1","",""
"","html-keyboard-response","19","75284","0.0-19.0","32EYX73OY1VFU7DQQZ1HYVE5S8HURX","AMVBT3XDCQBHI","3PEG1BH7AEDCPKTV9M6N3A4F0EHKBR","","null","<img src=""img/land6.png"" style=""width:200px;border:14px solid red;"">","null","","","","","","","","","",""
"","image-keyboard-response","20","76242","0.0-20.0","32EYX73OY1VFU7DQQZ1HYVE5S8HURX","AMVBT3XDCQBHI","3PEG1BH7AEDCPKTV9M6N3A4F0EHKBR","","957.3000000119209","img/land3.png","76","958.1000000238419","3","1","3","1","0.8,0.2,0.2,0.2,0.8,0.2,0.2,0.2,0.8","0.8,0.2,0.2,0.2,0.8,0.2,0.2,0.2,0.8","1","",""
"","html-keyboard-response","21","76545","0.0-21.0","32EYX73OY1VFU7DQQZ1HYVE5S8HURX","AMVBT3XDCQBHI","3PEG1BH7AEDCPKTV9M6N3A4F0EHKBR","","null","<img src=""img/land3.png"" style=""width:200px; border:14px solid green;"">","null","","","","","","","","","",""
"","image-keyboard-response","22","77517","0.0-22.0","32EYX73OY1VFU7DQQZ1HYVE5S8HURX","AMVBT3XDCQBHI","3PEG1BH7AEDCPKTV9M6N3A4F0EHKBR","","970.8999999761581","img/land6.png","74","971.8000000119209","1","1","1","1","0.8,0.2,0.2,0.2,0.8,0.2,0.2,0.2,0.8","0.8,0.2,0.2,0.2,0.8,0.2,0.2,0.2,0.8","1","",""
"","html-keyboard-response","23","77818","0.0-23.0","32EYX73OY1VFU7DQQZ1HYVE5S8HURX","AMVBT3XDCQBHI","3PEG1BH7AEDCPKTV9M6N3A4F0EHKBR","","null","<img src=""img/land6.png"" style=""width:200px; border:14px solid green;"">","null","","","","","","","","","",""
"","image-keyboard-response","24","79820","0.0-24.0","32EYX73OY1VFU7DQQZ1HYVE5S8HURX","AMVBT3XDCQBHI","3PEG1BH7AEDCPKTV9M6N3A4F0EHKBR","","","img/land2.png","","2001.2999999523163","-1","0","2","1","0.8,0.2,0.2,0.2,0.8,0.2,0.2,0.2,0.8","0.8,0.2,0.2,0.2,0.8,0.2,0.2,0.2,0.8","1","",""
"","html-keyboard-response","25","80121","0.0-25.0","32EYX73OY1VFU7DQQZ1HYVE5S8HURX","AMVBT3XDCQBHI","3PEG1BH7AEDCPKTV9M6N3A4F0EHKBR","","null","<img src=""img/land2.png"" style=""width:200px;border:14px solid red;"">","null","","","","","","","","","",""
"","image-keyboard-response","26","81082","0.0-26.0","32EYX73OY1VFU7DQQZ1HYVE5S8HURX","AMVBT3XDCQBHI","3PEG1BH7AEDCPKTV9M6N3A4F0EHKBR","","960.1999999880791","img/land3.png","76","961.1000000238419","3","1","3","1","0.8,0.2,0.2,0.2,0.8,0.2,0.2,0.2,0.8","0.8,0.2,0.2,0.2,0.8,0.2,0.2,0.2,0.8","1","",""
"","html-keyboard-response","27","81384","0.0-27.0","32EYX73OY1VFU7DQQZ1HYVE5S8HURX","AMVBT3XDCQBHI","3PEG1BH7AEDCPKTV9M6N3A4F0EHKBR","","null","<img src=""img/land3.png"" style=""width:200px; border:14px solid green;"">","null","","","","","","","","","",""
"","image-keyboard-response","28","83291","0.0-28.0","32EYX73OY1VFU7DQQZ1HYVE5S8HURX","AMVBT3XDCQBHI","3PEG1BH7AEDCPKTV9M6N3A4F0EHKBR","","1906","img/land2.png","75","1906.800000011921","2","1","2","1","0.8,0.2,0.2,0.2,0.8,0.2,0.2,0.2,0.8","0.8,0.2,0.2,0.2,0.8,0.2,0.2,0.2,0.8","1","",""
"","html-keyboard-response","29","83593","0.0-29.0","32EYX73OY1VFU7DQQZ1HYVE5S8HURX","AMVBT3XDCQBHI","3PEG1BH7AEDCPKTV9M6N3A4F0EHKBR","","null","<img src=""img/land2.png"" style=""width:200px; border:14px solid green;"">","null","","","","","","","","","",""
"","image-keyboard-response","30","84516","0.0-30.0","32EYX73OY1VFU7DQQZ1HYVE5S8HURX","AMVBT3XDCQBHI","3PEG1BH7AEDCPKTV9M6N3A4F0EHKBR","","922.6999999880791","img/land3.png","76","923.5","3","1","3","1","0.8,0.2,0.2,0.2,0.8,0.2,0.2,0.2,0.8","0.8,0.2,0.2,0.2,0.8,0.2,0.2,0.2,0.8","1","",""
"","html-keyboard-response","31","84818","0.0-31.0","32EYX73OY1VFU7DQQZ1HYVE5S8HURX","AMVBT3XDCQBHI","3PEG1BH7AEDCPKTV9M6N3A4F0EHKBR","","null","<img src=""img/land3.png"" style=""width:200px; border:14px solid green;"">","null","","","","","","","","","",""
"","image-keyboard-response","32","85571","0.0-32.0","32EYX73OY1VFU7DQQZ1HYVE5S8HURX","AMVBT3XDCQBHI","3PEG1BH7AEDCPKTV9M6N3A4F0EHKBR","","752.0999999642372","img/land3.png","76","753.3000000119209","3","1","3","1","0.8,0.2,0.2,0.2,0.8,0.2,0.2,0.2,0.8","0.8,0.2,0.2,0.2,0.8,0.2,0.2,0.2,0.8","1","",""
"","html-keyboard-response","33","85873","0.0-33.0","32EYX73OY1VFU7DQQZ1HYVE5S8HURX","AMVBT3XDCQBHI","3PEG1BH7AEDCPKTV9M6N3A4F0EHKBR","","null","<img src=""img/land3.png"" style=""width:200px; border:14px solid green;"">","null","","","","","","","","","",""
"","image-keyboard-response","34","86819","0.0-34.0","32EYX73OY1VFU7DQQZ1HYVE5S8HURX","AMVBT3XDCQBHI","3PEG1BH7AEDCPKTV9M6N3A4F0EHKBR","","945.1999999880791","img/land2.png","75","946","2","1","2","1","0.8,0.2,0.2,0.2,0.8,0.2,0.2,0.2,0.8","0.8,0.2,0.2,0.2,0.8,0.2,0.2,0.2,0.8","1","",""
"","html-keyboard-response","35","87121","0.0-35.0","32EYX73OY1VFU7DQQZ1HYVE5S8HURX","AMVBT3XDCQBHI","3PEG1BH7AEDCPKTV9M6N3A4F0EHKBR","","null","<img src=""img/land2.png"" style=""width:200px; border:14px solid green;"">","null","","","","","","","","","",""
"","image-keyboard-response","36","87744","0.0-36.0","32EYX73OY1VFU7DQQZ1HYVE5S8HURX","AMVBT3XDCQBHI","3PEG1BH7AEDCPKTV9M6N3A4F0EHKBR","","622.8999999761581","img/land2.png","75","623.7999999523163","2","1","2","1","0.8,0.2,0.2,0.2,0.8,0.2,0.2,0.2,0.8","0.8,0.2,0.2,0.2,0.8,0.2,0.2,0.2,0.8","1","",""
"","html-keyboard-response","37","88047","0.0-37.0","32EYX73OY1VFU7DQQZ1HYVE5S8HURX","AMVBT3XDCQBHI","3PEG1BH7AEDCPKTV9M6N3A4F0EHKBR","","null","<img src=""img/land2.png"" style=""width:200px; border:14px solid green;"">","null","","","","","","","","","",""
"","image-keyboard-response","38","88932","0.0-38.0","32EYX73OY1VFU7DQQZ1HYVE5S8HURX","AMVBT3XDCQBHI","3PEG1BH7AEDCPKTV9M6N3A4F0EHKBR","","884.1000000238419","img/land3.png","76","884.8000000119209","3","1","3","1","0.8,0.2,0.2,0.2,0.8,0.2,0.2,0.2,0.8","0.8,0.2,0.2,0.2,0.8,0.2,0.2,0.2,0.8","1","",""
"","html-keyboard-response","39","89233","0.0-39.0","32EYX73OY1VFU7DQQZ1HYVE5S8HURX","AMVBT3XDCQBHI","3PEG1BH7AEDCPKTV9M6N3A4F0EHKBR","","null","<img src=""img/land3.png"" style=""width:200px; border:14px solid green;"">","null","","","","","","","","","",""
"","image-keyboard-response","40","90136","0.0-40.0","32EYX73OY1VFU7DQQZ1HYVE5S8HURX","AMVBT3XDCQBHI","3PEG1BH7AEDCPKTV9M6N3A4F0EHKBR","","901.6000000238419","img/land6.png","74","902.4000000357628","1","1","1","1","0.8,0.2,0.2,0.2,0.8,0.2,0.2,0.2,0.8","0.8,0.2,0.2,0.2,0.8,0.2,0.2,0.2,0.8","1","",""
"","html-keyboard-response","41","90438","0.0-41.0","32EYX73OY1VFU7DQQZ1HYVE5S8HURX","AMVBT3XDCQBHI","3PEG1BH7AEDCPKTV9M6N3A4F0EHKBR","","null","<img src=""img/land6.png"" style=""width:200px; border:14px solid green;"">","null","","","","","","","","","",""
"","image-keyboard-response","42","91919","0.0-42.0","32EYX73OY1VFU7DQQZ1HYVE5S8HURX","AMVBT3XDCQBHI","3PEG1BH7AEDCPKTV9M6N3A4F0EHKBR","","1480.6000000238419","img/land2.png","75","1481.4000000357628","2","0","2","1","0.8,0.2,0.2,0.2,0.8,0.2,0.2,0.2,0.8","0.8,0.2,0.2,0.2,0.8,0.2,0.2,0.2,0.8","1","",""
"","html-keyboard-response","43","92221","0.0-43.0","32EYX73OY1VFU7DQQZ1HYVE5S8HURX","AMVBT3XDCQBHI","3PEG1BH7AEDCPKTV9M6N3A4F0EHKBR","","null","<img src=""img/land2.png"" style=""width:200px;border:14px solid red;"">","null","","","","","","","","","",""
"","image-keyboard-response","44","93122","0.0-44.0","32EYX73OY1VFU7DQQZ1HYVE5S8HURX","AMVBT3XDCQBHI","3PEG1BH7AEDCPKTV9M6N3A4F0EHKBR","","900.5","img/land2.png","75","901.3000000119209","2","1","2","1","0.8,0.2,0.2,0.2,0.8,0.2,0.2,0.2,0.8","0.8,0.2,0.2,0.2,0.8,0.2,0.2,0.2,0.8","1","",""
"","html-keyboard-response","45","93424","0.0-45.0","32EYX73OY1VFU7DQQZ1HYVE5S8HURX","AMVBT3XDCQBHI","3PEG1BH7AEDCPKTV9M6N3A4F0EHKBR","","null","<img src=""img/land2.png"" style=""width:200px; border:14px solid green;"">","null","","","","","","","","","",""
"","image-keyboard-response","46","94213","0.0-46.0","32EYX73OY1VFU7DQQZ1HYVE5S8HURX","AMVBT3XDCQBHI","3PEG1BH7AEDCPKTV9M6N3A4F0EHKBR","","788.2999999523163","img/land3.png","76","789.0999999642372","3","0","3","1","0.8,0.2,0.2,0.2,0.8,0.2,0.2,0.2,0.8","0.8,0.2,0.2,0.2,0.8,0.2,0.2,0.2,0.8","1","",""
"","html-keyboard-response","47","94514","0.0-47.0","32EYX73OY1VFU7DQQZ1HYVE5S8HURX","AMVBT3XDCQBHI","3PEG1BH7AEDCPKTV9M6N3A4F0EHKBR","","null","<img src=""img/land3.png"" style=""width:200px;border:14px solid red;"">","null","","","","","","","","","",""
"","image-keyboard-response","48","95109","0.0-48.0","32EYX73OY1VFU7DQQZ1HYVE5S8HURX","AMVBT3XDCQBHI","3PEG1BH7AEDCPKTV9M6N3A4F0EHKBR","","593.5","img/land3.png","76","594.2000000476837","3","1","3","1","0.8,0.2,0.2,0.2,0.8,0.2,0.2,0.2,0.8","0.8,0.2,0.2,0.2,0.8,0.2,0.2,0.2,0.8","1","",""
"","html-keyboard-response","49","95410","0.0-49.0","32EYX73OY1VFU7DQQZ1HYVE5S8HURX","AMVBT3XDCQBHI","3PEG1BH7AEDCPKTV9M6N3A4F0EHKBR","","null","<img src=""img/land3.png"" style=""width:200px; border:14px solid green;"">","null","","","","","","","","","",""
"","image-keyboard-response","50","96293","0.0-50.0","32EYX73OY1VFU7DQQZ1HYVE5S8HURX","AMVBT3XDCQBHI","3PEG1BH7AEDCPKTV9M6N3A4F0EHKBR","","881.5","img/land2.png","75","882.3000000119209","2","1","2","1","0.8,0.2,0.2,0.2,0.8,0.2,0.2,0.2,0.8","0.8,0.2,0.2,0.2,0.8,0.2,0.2,0.2,0.8","1","",""
"","html-keyboard-response","51","96596","0.0-51.0","32EYX73OY1VFU7DQQZ1HYVE5S8HURX","AMVBT3XDCQBHI","3PEG1BH7AEDCPKTV9M6N3A4F0EHKBR","","null","<img src=""img/land2.png"" style=""width:200px; border:14px solid green;"">","null","","","","","","","","","",""
"","image-keyboard-response","52","97253","0.0-52.0","32EYX73OY1VFU7DQQZ1HYVE5S8HURX","AMVBT3XDCQBHI","3PEG1BH7AEDCPKTV9M6N3A4F0EHKBR","","656.3000000119209","img/land6.png","74","657.1999999880791","1","1","1","1","0.8,0.2,0.2,0.2,0.8,0.2,0.2,0.2,0.8","0.8,0.2,0.2,0.2,0.8,0.2,0.2,0.2,0.8","1","",""
"","html-keyboard-response","53","97554","0.0-53.0","32EYX73OY1VFU7DQQZ1HYVE5S8HURX","AMVBT3XDCQBHI","3PEG1BH7AEDCPKTV9M6N3A4F0EHKBR","","null","<img src=""img/land6.png"" style=""width:200px; border:14px solid green;"">","null","","","","","","","","","",""
"","image-keyboard-response","54","98595","0.0-54.0","32EYX73OY1VFU7DQQZ1HYVE5S8HURX","AMVBT3XDCQBHI","3PEG1BH7AEDCPKTV9M6N3A4F0EHKBR","","1039.5","img/land3.png","76","1040.300000011921","3","1","3","1","0.8,0.2,0.2,0.2,0.8,0.2,0.2,0.2,0.8","0.8,0.2,0.2,0.2,0.8,0.2,0.2,0.2,0.8","1","",""
"","html-keyboard-response","55","98897","0.0-55.0","32EYX73OY1VFU7DQQZ1HYVE5S8HURX","AMVBT3XDCQBHI","3PEG1BH7AEDCPKTV9M6N3A4F0EHKBR","","null","<img src=""img/land3.png"" style=""width:200px; border:14px solid green;"">","null","","","","","","","","","",""
"","image-keyboard-response","56","99552","0.0-56.0","32EYX73OY1VFU7DQQZ1HYVE5S8HURX","AMVBT3XDCQBHI","3PEG1BH7AEDCPKTV9M6N3A4F0EHKBR","","654.0999999642372","img/land3.png","76","654.9000000357628","3","0","3","1","0.8,0.2,0.2,0.2,0.8,0.2,0.2,0.2,0.8","0.8,0.2,0.2,0.2,0.8,0.2,0.2,0.2,0.8","1","",""
"","html-keyboard-response","57","99854","0.0-57.0","32EYX73OY1VFU7DQQZ1HYVE5S8HURX","AMVBT3XDCQBHI","3PEG1BH7AEDCPKTV9M6N3A4F0EHKBR","","null","<img src=""img/land3.png"" style=""width:200px;border:14px solid red;"">","null","","","","","","","","","",""
"","image-keyboard-response","58","100790","0.0-58.0","32EYX73OY1VFU7DQQZ1HYVE5S8HURX","AMVBT3XDCQBHI","3PEG1BH7AEDCPKTV9M6N3A4F0EHKBR","","936","img/land6.png","74","936.6999999880791","1","1","1","1","0.8,0.2,0.2,0.2,0.8,0.2,0.2,0.2,0.8","0.8,0.2,0.2,0.2,0.8,0.2,0.2,0.2,0.8","1","",""
"","html-keyboard-response","59","101092","0.0-59.0","32EYX73OY1VFU7DQQZ1HYVE5S8HURX","AMVBT3XDCQBHI","3PEG1BH7AEDCPKTV9M6N3A4F0EHKBR","","null","<img src=""img/land6.png"" style=""width:200px; border:14px solid green;"">","null","","","","","","","","","",""
"","image-keyboard-response","60","102669","0.0-60.0","32EYX73OY1VFU7DQQZ1HYVE5S8HURX","AMVBT3XDCQBHI","3PEG1BH7AEDCPKTV9M6N3A4F0EHKBR","","1575.7000000476837","img/land3.png","76","1576.3999999761581","3","1","3","1","0.8,0.2,0.2,0.2,0.8,0.2,0.2,0.2,0.8","0.8,0.2,0.2,0.2,0.8,0.2,0.2,0.2,0.8","1","",""
"","html-keyboard-response","61","102970","0.0-61.0","32EYX73OY1VFU7DQQZ1HYVE5S8HURX","AMVBT3XDCQBHI","3PEG1BH7AEDCPKTV9M6N3A4F0EHKBR","","null","<img src=""img/land3.png"" style=""width:200px; border:14px solid green;"">","null","","","","","","","","","",""
"","image-keyboard-response","62","103889","0.0-62.0","32EYX73OY1VFU7DQQZ1HYVE5S8HURX","AMVBT3XDCQBHI","3PEG1BH7AEDCPKTV9M6N3A4F0EHKBR","","917.3999999761581","img/land6.png","74","918.3000000119209","1","1","1","1","0.8,0.2,0.2,0.2,0.8,0.2,0.2,0.2,0.8","0.8,0.2,0.2,0.2,0.8,0.2,0.2,0.2,0.8","1","",""
"","html-keyboard-response","63","104190","0.0-63.0","32EYX73OY1VFU7DQQZ1HYVE5S8HURX","AMVBT3XDCQBHI","3PEG1BH7AEDCPKTV9M6N3A4F0EHKBR","","null","<img src=""img/land6.png"" style=""width:200px; border:14px solid green;"">","null","","","","","","","","","",""
"","image-keyboard-response","64","104962","0.0-64.0","32EYX73OY1VFU7DQQZ1HYVE5S8HURX","AMVBT3XDCQBHI","3PEG1BH7AEDCPKTV9M6N3A4F0EHKBR","","771.2000000476837","img/land3.png","76","772.1000000238419","3","0","3","1","0.8,0.2,0.2,0.2,0.8,0.2,0.2,0.2,0.8","0.8,0.2,0.2,0.2,0.8,0.2,0.2,0.2,0.8","1","",""
"","html-keyboard-response","65","105264","0.0-65.0","32EYX73OY1VFU7DQQZ1HYVE5S8HURX","AMVBT3XDCQBHI","3PEG1BH7AEDCPKTV9M6N3A4F0EHKBR","","null","<img src=""img/land3.png"" style=""width:200px;border:14px solid red;"">","null","","","","","","","","","",""
"","image-keyboard-response","66","106794","0.0-66.0","32EYX73OY1VFU7DQQZ1HYVE5S8HURX","AMVBT3XDCQBHI","3PEG1BH7AEDCPKTV9M6N3A4F0EHKBR","","1529.2999999523163","img/land2.png","75","1530.0999999642372","2","0","2","1","0.8,0.2,0.2,0.2,0.8,0.2,0.2,0.2,0.8","0.8,0.2,0.2,0.2,0.8,0.2,0.2,0.2,0.8","1","",""
"","html-keyboard-response","67","107097","0.0-67.0","32EYX73OY1VFU7DQQZ1HYVE5S8HURX","AMVBT3XDCQBHI","3PEG1BH7AEDCPKTV9M6N3A4F0EHKBR","","null","<img src=""img/land2.png"" style=""width:200px;border:14px solid red;"">","null","","","","","","","","","",""
"","image-keyboard-response","68","108184","0.0-68.0","32EYX73OY1VFU7DQQZ1HYVE5S8HURX","AMVBT3XDCQBHI","3PEG1BH7AEDCPKTV9M6N3A4F0EHKBR","","1086.199999988079","img/land3.png","76","1087.2999999523163","3","1","3","1","0.8,0.2,0.2,0.2,0.8,0.2,0.2,0.2,0.8","0.8,0.2,0.2,0.2,0.8,0.2,0.2,0.2,0.8","1","",""
"","html-keyboard-response","69","108487","0.0-69.0","32EYX73OY1VFU7DQQZ1HYVE5S8HURX","AMVBT3XDCQBHI","3PEG1BH7AEDCPKTV9M6N3A4F0EHKBR","","null","<img src=""img/land3.png"" style=""width:200px; border:14px solid green;"">","null","","","","","","","","","",""
"","image-keyboard-response","70","109323","0.0-70.0","32EYX73OY1VFU7DQQZ1HYVE5S8HURX","AMVBT3XDCQBHI","3PEG1BH7AEDCPKTV9M6N3A4F0EHKBR","","835.2999999523163","img/land6.png","74","836.1999999880791","1","1","1","1","0.8,0.2,0.2,0.2,0.8,0.2,0.2,0.2,0.8","0.8,0.2,0.2,0.2,0.8,0.2,0.2,0.2,0.8","1","",""
"","html-keyboard-response","71","109624","0.0-71.0","32EYX73OY1VFU7DQQZ1HYVE5S8HURX","AMVBT3XDCQBHI","3PEG1BH7AEDCPKTV9M6N3A4F0EHKBR","","null","<img src=""img/land6.png"" style=""width:200px; border:14px solid green;"">","null","","","","","","","","","",""
"","image-keyboard-response","72","110618","0.0-72.0","32EYX73OY1VFU7DQQZ1HYVE5S8HURX","AMVBT3XDCQBHI","3PEG1BH7AEDCPKTV9M6N3A4F0EHKBR","","992","img/land3.png","76","992.8999999761581","3","0","3","1","0.8,0.2,0.2,0.2,0.8,0.2,0.2,0.2,0.8","0.8,0.2,0.2,0.2,0.8,0.2,0.2,0.2,0.8","1","",""
"","html-keyboard-response","73","110919","0.0-73.0","32EYX73OY1VFU7DQQZ1HYVE5S8HURX","AMVBT3XDCQBHI","3PEG1BH7AEDCPKTV9M6N3A4F0EHKBR","","null","<img src=""img/land3.png"" style=""width:200px;border:14px solid red;"">","null","","","","","","","","","",""
"","image-keyboard-response","74","111748","0.0-74.0","32EYX73OY1VFU7DQQZ1HYVE5S8HURX","AMVBT3XDCQBHI","3PEG1BH7AEDCPKTV9M6N3A4F0EHKBR","","827.8000000119209","img/land2.png","75","828.6000000238419","2","1","2","1","0.8,0.2,0.2,0.2,0.8,0.2,0.2,0.2,0.8","0.8,0.2,0.2,0.2,0.8,0.2,0.2,0.2,0.8","1","",""
"","html-keyboard-response","75","112049","0.0-75.0","32EYX73OY1VFU7DQQZ1HYVE5S8HURX","AMVBT3XDCQBHI","3PEG1BH7AEDCPKTV9M6N3A4F0EHKBR","","null","<img src=""img/land2.png"" style=""width:200px; border:14px solid green;"">","null","","","","","","","","","",""
"","image-keyboard-response","76","112757","0.0-76.0","32EYX73OY1VFU7DQQZ1HYVE5S8HURX","AMVBT3XDCQBHI","3PEG1BH7AEDCPKTV9M6N3A4F0EHKBR","","706.6999999880791","img/land6.png","74","707.5999999642372","1","1","1","1","0.8,0.2,0.2,0.2,0.8,0.2,0.2,0.2,0.8","0.8,0.2,0.2,0.2,0.8,0.2,0.2,0.2,0.8","1","",""
"","html-keyboard-response","77","113059","0.0-77.0","32EYX73OY1VFU7DQQZ1HYVE5S8HURX","AMVBT3XDCQBHI","3PEG1BH7AEDCPKTV9M6N3A4F0EHKBR","","null","<img src=""img/land6.png"" style=""width:200px; border:14px solid green;"">","null","","","","","","","","","",""
"","image-keyboard-response","78","113662","0.0-78.0","32EYX73OY1VFU7DQQZ1HYVE5S8HURX","AMVBT3XDCQBHI","3PEG1BH7AEDCPKTV9M6N3A4F0EHKBR","","602.5","img/land6.png","74","603.4000000357628","1","0","1","1","0.8,0.2,0.2,0.2,0.8,0.2,0.2,0.2,0.8","0.8,0.2,0.2,0.2,0.8,0.2,0.2,0.2,0.8","1","",""
"","html-keyboard-response","79","113964","0.0-79.0","32EYX73OY1VFU7DQQZ1HYVE5S8HURX","AMVBT3XDCQBHI","3PEG1BH7AEDCPKTV9M6N3A4F0EHKBR","","null","<img src=""img/land6.png"" style=""width:200px;border:14px solid red;"">","null","","","","","","","","","",""
"","image-keyboard-response","80","115065","0.0-80.0","32EYX73OY1VFU7DQQZ1HYVE5S8HURX","AMVBT3XDCQBHI","3PEG1BH7AEDCPKTV9M6N3A4F0EHKBR","","1100.4000000357628","img/land2.png","75","1101.199999988079","2","1","2","1","0.8,0.2,0.2,0.2,0.8,0.2,0.2,0.2,0.8","0.8,0.2,0.2,0.2,0.8,0.2,0.2,0.2,0.8","1","",""
"","html-keyboard-response","81","115367","0.0-81.0","32EYX73OY1VFU7DQQZ1HYVE5S8HURX","AMVBT3XDCQBHI","3PEG1BH7AEDCPKTV9M6N3A4F0EHKBR","","null","<img src=""img/land2.png"" style=""width:200px; border:14px solid green;"">","null","","","","","","","","","",""
"","image-keyboard-response","82","115976","0.0-82.0","32EYX73OY1VFU7DQQZ1HYVE5S8HURX","AMVBT3XDCQBHI","3PEG1BH7AEDCPKTV9M6N3A4F0EHKBR","","607.5999999642372","img/land2.png","75","608.5","2","0","2","1","0.8,0.2,0.2,0.2,0.8,0.2,0.2,0.2,0.8","0.8,0.2,0.2,0.2,0.8,0.2,0.2,0.2,0.8","1","",""
"","html-keyboard-response","83","116278","0.0-83.0","32EYX73OY1VFU7DQQZ1HYVE5S8HURX","AMVBT3XDCQBHI","3PEG1BH7AEDCPKTV9M6N3A4F0EHKBR","","null","<img src=""img/land2.png"" style=""width:200px;border:14px solid red;"">","null","","","","","","","","","",""
"","image-keyboard-response","84","116893","0.0-84.0","32EYX73OY1VFU7DQQZ1HYVE5S8HURX","AMVBT3XDCQBHI","3PEG1BH7AEDCPKTV9M6N3A4F0EHKBR","","614.6999999880791","img/land2.png","75","615.4000000357628","2","1","2","1","0.8,0.2,0.2,0.2,0.8,0.2,0.2,0.2,0.8","0.8,0.2,0.2,0.2,0.8,0.2,0.2,0.2,0.8","1","",""
"","html-keyboard-response","85","117197","0.0-85.0","32EYX73OY1VFU7DQQZ1HYVE5S8HURX","AMVBT3XDCQBHI","3PEG1BH7AEDCPKTV9M6N3A4F0EHKBR","","null","<img src=""img/land2.png"" style=""width:200px; border:14px solid green;"">","null","","","","","","","","","",""
"","image-keyboard-response","86","118182","0.0-86.0","32EYX73OY1VFU7DQQZ1HYVE5S8HURX","AMVBT3XDCQBHI","3PEG1BH7AEDCPKTV9M6N3A4F0EHKBR","","983.6999999880791","img/land6.png","74","984.5999999642372","1","1","1","1","0.8,0.2,0.2,0.2,0.8,0.2,0.2,0.2,0.8","0.8,0.2,0.2,0.2,0.8,0.2,0.2,0.2,0.8","1","",""
"","html-keyboard-response","87","118483","0.0-87.0","32EYX73OY1VFU7DQQZ1HYVE5S8HURX","AMVBT3XDCQBHI","3PEG1BH7AEDCPKTV9M6N3A4F0EHKBR","","null","<img src=""img/land6.png"" style=""width:200px; border:14px solid green;"">","null","","","","","","","","","",""
"","image-keyboard-response","88","119486","0.0-88.0","32EYX73OY1VFU7DQQZ1HYVE5S8HURX","AMVBT3XDCQBHI","3PEG1BH7AEDCPKTV9M6N3A4F0EHKBR","","1002.1000000238419","img/land2.png","75","1003.1000000238419","2","1","2","1","0.8,0.2,0.2,0.2,0.8,0.2,0.2,0.2,0.8","0.8,0.2,0.2,0.2,0.8,0.2,0.2,0.2,0.8","1","",""
"","html-keyboard-response","89","119788","0.0-89.0","32EYX73OY1VFU7DQQZ1HYVE5S8HURX","AMVBT3XDCQBHI","3PEG1BH7AEDCPKTV9M6N3A4F0EHKBR","","null","<img src=""img/land2.png"" style=""width:200px; border:14px solid green;"">","null","","","","","","","","","",""
"","image-keyboard-response","90","120621","0.0-90.0","32EYX73OY1VFU7DQQZ1HYVE5S8HURX","AMVBT3XDCQBHI","3PEG1BH7AEDCPKTV9M6N3A4F0EHKBR","","831.4000000357628","img/land3.png","76","832.3000000119209","3","0","3","1","0.8,0.2,0.2,0.2,0.8,0.2,0.2,0.2,0.8","0.8,0.2,0.2,0.2,0.8,0.2,0.2,0.2,0.8","1","",""
"","html-keyboard-response","91","120922","0.0-91.0","32EYX73OY1VFU7DQQZ1HYVE5S8HURX","AMVBT3XDCQBHI","3PEG1BH7AEDCPKTV9M6N3A4F0EHKBR","","null","<img src=""img/land3.png"" style=""width:200px;border:14px solid red;"">","null","","","","","","","","","",""
"","image-keyboard-response","92","121517","0.0-92.0","32EYX73OY1VFU7DQQZ1HYVE5S8HURX","AMVBT3XDCQBHI","3PEG1BH7AEDCPKTV9M6N3A4F0EHKBR","","594.3999999761581","img/land3.png","76","595.3000000119209","3","1","3","1","0.8,0.2,0.2,0.2,0.8,0.2,0.2,0.2,0.8","0.8,0.2,0.2,0.2,0.8,0.2,0.2,0.2,0.8","1","",""
"","html-keyboard-response","93","121819","0.0-93.0","32EYX73OY1VFU7DQQZ1HYVE5S8HURX","AMVBT3XDCQBHI","3PEG1BH7AEDCPKTV9M6N3A4F0EHKBR","","null","<img src=""img/land3.png"" style=""width:200px; border:14px solid green;"">","null","","","","","","","","","",""
"","image-keyboard-response","94","122636","0.0-94.0","32EYX73OY1VFU7DQQZ1HYVE5S8HURX","AMVBT3XDCQBHI","3PEG1BH7AEDCPKTV9M6N3A4F0EHKBR","","816","img/land6.png","74","816.8000000119209","1","1","1","1","0.8,0.2,0.2,0.2,0.8,0.2,0.2,0.2,0.8","0.8,0.2,0.2,0.2,0.8,0.2,0.2,0.2,0.8","1","",""
"","html-keyboard-response","95","122938","0.0-95.0","32EYX73OY1VFU7DQQZ1HYVE5S8HURX","AMVBT3XDCQBHI","3PEG1BH7AEDCPKTV9M6N3A4F0EHKBR","","null","<img src=""img/land6.png"" style=""width:200px; border:14px solid green;"">","null","","","","","","","","","",""
"","image-keyboard-response","96","123827","0.0-96.0","32EYX73OY1VFU7DQQZ1HYVE5S8HURX","AMVBT3XDCQBHI","3PEG1BH7AEDCPKTV9M6N3A4F0EHKBR","","888","img/land2.png","75","889","2","0","2","1","0.8,0.2,0.2,0.2,0.8,0.2,0.2,0.2,0.8","0.8,0.2,0.2,0.2,0.8,0.2,0.2,0.2,0.8","1","",""
"","html-keyboard-response","97","124129","0.0-97.0","32EYX73OY1VFU7DQQZ1HYVE5S8HURX","AMVBT3XDCQBHI","3PEG1BH7AEDCPKTV9M6N3A4F0EHKBR","","null","<img src=""img/land2.png"" style=""width:200px;border:14px solid red;"">","null","","","","","","","","","",""
"","image-keyboard-response","98","124933","0.0-98.0","32EYX73OY1VFU7DQQZ1HYVE5S8HURX","AMVBT3XDCQBHI","3PEG1BH7AEDCPKTV9M6N3A4F0EHKBR","","803.1000000238419","img/land3.png","76","803.8999999761581","3","1","3","1","0.8,0.2,0.2,0.2,0.8,0.2,0.2,0.2,0.8","0.8,0.2,0.2,0.2,0.8,0.2,0.2,0.2,0.8","1","",""
"","html-keyboard-response","99","125235","0.0-99.0","32EYX73OY1VFU7DQQZ1HYVE5S8HURX","AMVBT3XDCQBHI","3PEG1BH7AEDCPKTV9M6N3A4F0EHKBR","","null","<img src=""img/land3.png"" style=""width:200px; border:14px solid green;"">","null","","","","","","","","","",""
"","image-keyboard-response","100","126360","0.0-100.0","32EYX73OY1VFU7DQQZ1HYVE5S8HURX","AMVBT3XDCQBHI","3PEG1BH7AEDCPKTV9M6N3A4F0EHKBR","","1124.4000000357628","img/land2.png","75","1125.199999988079","2","1","2","1","0.8,0.2,0.2,0.2,0.8,0.2,0.2,0.2,0.8","0.8,0.2,0.2,0.2,0.8,0.2,0.2,0.2,0.8","1","",""
"","html-keyboard-response","101","126662","0.0-101.0","32EYX73OY1VFU7DQQZ1HYVE5S8HURX","AMVBT3XDCQBHI","3PEG1BH7AEDCPKTV9M6N3A4F0EHKBR","","null","<img src=""img/land2.png"" style=""width:200px; border:14px solid green;"">","null","","","","","","","","","",""
"","image-keyboard-response","102","127426","0.0-102.0","32EYX73OY1VFU7DQQZ1HYVE5S8HURX","AMVBT3XDCQBHI","3PEG1BH7AEDCPKTV9M6N3A4F0EHKBR","","762.5","img/land6.png","74","763.2999999523163","1","0","1","1","0.8,0.2,0.2,0.2,0.8,0.2,0.2,0.2,0.8","0.8,0.2,0.2,0.2,0.8,0.2,0.2,0.2,0.8","1","",""
"","html-keyboard-response","103","127727","0.0-103.0","32EYX73OY1VFU7DQQZ1HYVE5S8HURX","AMVBT3XDCQBHI","3PEG1BH7AEDCPKTV9M6N3A4F0EHKBR","","null","<img src=""img/land6.png"" style=""width:200px;border:14px solid red;"">","null","","","","","","","","","",""
"","image-keyboard-response","104","128825","0.0-104.0","32EYX73OY1VFU7DQQZ1HYVE5S8HURX","AMVBT3XDCQBHI","3PEG1BH7AEDCPKTV9M6N3A4F0EHKBR","","1096.6000000238419","img/land2.png","75","1097.3999999761581","2","1","2","1","0.8,0.2,0.2,0.2,0.8,0.2,0.2,0.2,0.8","0.8,0.2,0.2,0.2,0.8,0.2,0.2,0.2,0.8","1","",""
"","html-keyboard-response","105","129127","0.0-105.0","32EYX73OY1VFU7DQQZ1HYVE5S8HURX","AMVBT3XDCQBHI","3PEG1BH7AEDCPKTV9M6N3A4F0EHKBR","","null","<img src=""img/land2.png"" style=""width:200px; border:14px solid green;"">","null","","","","","","","","","",""
"","image-keyboard-response","106","129899","0.0-106.0","32EYX73OY1VFU7DQQZ1HYVE5S8HURX","AMVBT3XDCQBHI","3PEG1BH7AEDCPKTV9M6N3A4F0EHKBR","","771.3000000119209","img/land3.png","76","772","3","0","3","1","0.8,0.2,0.2,0.2,0.8,0.2,0.2,0.2,0.8","0.8,0.2,0.2,0.2,0.8,0.2,0.2,0.2,0.8","1","",""
"","html-keyboard-response","107","130201","0.0-107.0","32EYX73OY1VFU7DQQZ1HYVE5S8HURX","AMVBT3XDCQBHI","3PEG1BH7AEDCPKTV9M6N3A4F0EHKBR","","null","<img src=""img/land3.png"" style=""width:200px;border:14px solid red;"">","null","","","","","","","","","",""
"","image-keyboard-response","108","131065","0.0-108.0","32EYX73OY1VFU7DQQZ1HYVE5S8HURX","AMVBT3XDCQBHI","3PEG1BH7AEDCPKTV9M6N3A4F0EHKBR","","863.1000000238419","img/land6.png","74","864","1","1","1","1","0.8,0.2,0.2,0.2,0.8,0.2,0.2,0.2,0.8","0.8,0.2,0.2,0.2,0.8,0.2,0.2,0.2,0.8","1","",""
"","html-keyboard-response","109","131367","0.0-109.0","32EYX73OY1VFU7DQQZ1HYVE5S8HURX","AMVBT3XDCQBHI","3PEG1BH7AEDCPKTV9M6N3A4F0EHKBR","","null","<img src=""img/land6.png"" style=""width:200px; border:14px solid green;"">","null","","","","","","","","","",""
"","image-keyboard-response","110","132142","0.0-110.0","32EYX73OY1VFU7DQQZ1HYVE5S8HURX","AMVBT3XDCQBHI","3PEG1BH7AEDCPKTV9M6N3A4F0EHKBR","","774.1999999880791","img/land2.png","75","775","2","0","2","1","0.8,0.2,0.2,0.2,0.8,0.2,0.2,0.2,0.8","0.8,0.2,0.2,0.2,0.8,0.2,0.2,0.2,0.8","1","",""
"","html-keyboard-response","111","132444","0.0-111.0","32EYX73OY1VFU7DQQZ1HYVE5S8HURX","AMVBT3XDCQBHI","3PEG1BH7AEDCPKTV9M6N3A4F0EHKBR","","null","<img src=""img/land2.png"" style=""width:200px;border:14px solid red;"">","null","","","","","","","","","",""
"","image-keyboard-response","112","133275","0.0-112.0","32EYX73OY1VFU7DQQZ1HYVE5S8HURX","AMVBT3XDCQBHI","3PEG1BH7AEDCPKTV9M6N3A4F0EHKBR","","829.5999999642372","img/land6.png","74","830.5","1","1","1","1","0.8,0.2,0.2,0.2,0.8,0.2,0.2,0.2,0.8","0.8,0.2,0.2,0.2,0.8,0.2,0.2,0.2,0.8","1","",""
"","html-keyboard-response","113","133576","0.0-113.0","32EYX73OY1VFU7DQQZ1HYVE5S8HURX","AMVBT3XDCQBHI","3PEG1BH7AEDCPKTV9M6N3A4F0EHKBR","","null","<img src=""img/land6.png"" style=""width:200px; border:14px solid green;"">","null","","","","","","","","","",""
"","image-keyboard-response","114","134868","0.0-114.0","32EYX73OY1VFU7DQQZ1HYVE5S8HURX","AMVBT3XDCQBHI","3PEG1BH7AEDCPKTV9M6N3A4F0EHKBR","","1290","img/land3.png","76","1291.1000000238419","3","1","3","1","0.8,0.2,0.2,0.2,0.8,0.2,0.2,0.2,0.8","0.8,0.2,0.2,0.2,0.8,0.2,0.2,0.2,0.8","1","",""
"","html-keyboard-response","115","135169","0.0-115.0","32EYX73OY1VFU7DQQZ1HYVE5S8HURX","AMVBT3XDCQBHI","3PEG1BH7AEDCPKTV9M6N3A4F0EHKBR","","null","<img src=""img/land3.png"" style=""width:200px; border:14px solid green;"">","null","","","","","","","","","",""
"","image-keyboard-response","116","136210","0.0-116.0","32EYX73OY1VFU7DQQZ1HYVE5S8HURX","AMVBT3XDCQBHI","3PEG1BH7AEDCPKTV9M6N3A4F0EHKBR","","1040.300000011921","img/land2.png","75","1041","2","1","2","1","0.8,0.2,0.2,0.2,0.8,0.2,0.2,0.2,0.8","0.8,0.2,0.2,0.2,0.8,0.2,0.2,0.2,0.8","1","",""
"","html-keyboard-response","117","136512","0.0-117.0","32EYX73OY1VFU7DQQZ1HYVE5S8HURX","AMVBT3XDCQBHI","3PEG1BH7AEDCPKTV9M6N3A4F0EHKBR","","null","<img src=""img/land2.png"" style=""width:200px; border:14px solid green;"">","null","","","","","","","","","",""
"","image-keyboard-response","118","137923","0.0-118.0","32EYX73OY1VFU7DQQZ1HYVE5S8HURX","AMVBT3XDCQBHI","3PEG1BH7AEDCPKTV9M6N3A4F0EHKBR","","1409.5","img/land3.png","76","1410.5","3","0","3","1","0.8,0.2,0.2,0.2,0.8,0.2,0.2,0.2,0.8","0.8,0.2,0.2,0.2,0.8,0.2,0.2,0.2,0.8","1","",""
"","html-keyboard-response","119","138224","0.0-119.0","32EYX73OY1VFU7DQQZ1HYVE5S8HURX","AMVBT3XDCQBHI","3PEG1BH7AEDCPKTV9M6N3A4F0EHKBR","","null","<img src=""img/land3.png"" style=""width:200px;border:14px solid red;"">","null","","","","","","","","","",""
"","image-keyboard-response","120","138943","0.0-120.0","32EYX73OY1VFU7DQQZ1HYVE5S8HURX","AMVBT3XDCQBHI","3PEG1BH7AEDCPKTV9M6N3A4F0EHKBR","","717.3000000119209","img/land6.png","74","718.0999999642372","1","0","1","1","0.8,0.2,0.2,0.2,0.8,0.2,0.2,0.2,0.8","0.8,0.2,0.2,0.2,0.8,0.2,0.2,0.2,0.8","1","",""
"","html-keyboard-response","121","139245","0.0-121.0","32EYX73OY1VFU7DQQZ1HYVE5S8HURX","AMVBT3XDCQBHI","3PEG1BH7AEDCPKTV9M6N3A4F0EHKBR","","null","<img src=""img/land6.png"" style=""width:200px;border:14px solid red;"">","null","","","","","","","","","",""
"","image-keyboard-response","122","140219","0.0-122.0","32EYX73OY1VFU7DQQZ1HYVE5S8HURX","AMVBT3XDCQBHI","3PEG1BH7AEDCPKTV9M6N3A4F0EHKBR","","973.1000000238419","img/land3.png","76","974","3","1","3","1","0.8,0.2,0.2,0.2,0.8,0.2,0.2,0.2,0.8","0.8,0.2,0.2,0.2,0.8,0.2,0.2,0.2,0.8","1","",""
"","html-keyboard-response","123","140521","0.0-123.0","32EYX73OY1VFU7DQQZ1HYVE5S8HURX","AMVBT3XDCQBHI","3PEG1BH7AEDCPKTV9M6N3A4F0EHKBR","","null","<img src=""img/land3.png"" style=""width:200px; border:14px solid green;"">","null","","","","","","","","","",""
"","image-keyboard-response","124","141998","0.0-124.0","32EYX73OY1VFU7DQQZ1HYVE5S8HURX","AMVBT3XDCQBHI","3PEG1BH7AEDCPKTV9M6N3A4F0EHKBR","","1476","img/land6.png","74","1476.8999999761581","1","1","1","1","0.8,0.2,0.2,0.2,0.8,0.2,0.2,0.2,0.8","0.8,0.2,0.2,0.2,0.8,0.2,0.2,0.2,0.8","1","",""
"","html-keyboard-response","125","142299","0.0-125.0","32EYX73OY1VFU7DQQZ1HYVE5S8HURX","AMVBT3XDCQBHI","3PEG1BH7AEDCPKTV9M6N3A4F0EHKBR","","null","<img src=""img/land6.png"" style=""width:200px; border:14px solid green;"">","null","","","","","","","","","",""
"","image-keyboard-response","126","143339","0.0-126.0","32EYX73OY1VFU7DQQZ1HYVE5S8HURX","AMVBT3XDCQBHI","3PEG1BH7AEDCPKTV9M6N3A4F0EHKBR","","1038.7999999523163","img/land2.png","75","1039.5","2","1","2","1","0.8,0.2,0.2,0.2,0.8,0.2,0.2,0.2,0.8","0.8,0.2,0.2,0.2,0.8,0.2,0.2,0.2,0.8","1","",""
"","html-keyboard-response","127","143641","0.0-127.0","32EYX73OY1VFU7DQQZ1HYVE5S8HURX","AMVBT3XDCQBHI","3PEG1BH7AEDCPKTV9M6N3A4F0EHKBR","","null","<img src=""img/land2.png"" style=""width:200px; border:14px solid green;"">","null","","","","","","","","","",""
"","image-keyboard-response","128","144545","0.0-128.0","32EYX73OY1VFU7DQQZ1HYVE5S8HURX","AMVBT3XDCQBHI","3PEG1BH7AEDCPKTV9M6N3A4F0EHKBR","","902","img/land6.png","74","902.9000000357628","1","1","1","1","0.8,0.2,0.2,0.2,0.8,0.2,0.2,0.2,0.8","0.8,0.2,0.2,0.2,0.8,0.2,0.2,0.2,0.8","1","",""
"","html-keyboard-response","129","144847","0.0-129.0","32EYX73OY1VFU7DQQZ1HYVE5S8HURX","AMVBT3XDCQBHI","3PEG1BH7AEDCPKTV9M6N3A4F0EHKBR","","null","<img src=""img/land6.png"" style=""width:200px; border:14px solid green;"">","null","","","","","","","","","",""
"","image-keyboard-response","130","145555","0.0-130.0","32EYX73OY1VFU7DQQZ1HYVE5S8HURX","AMVBT3XDCQBHI","3PEG1BH7AEDCPKTV9M6N3A4F0EHKBR","","707","img/land2.png","75","707.8999999761581","2","1","2","1","0.8,0.2,0.2,0.2,0.8,0.2,0.2,0.2,0.8","0.8,0.2,0.2,0.2,0.8,0.2,0.2,0.2,0.8","1","",""
"","html-keyboard-response","131","145857","0.0-131.0","32EYX73OY1VFU7DQQZ1HYVE5S8HURX","AMVBT3XDCQBHI","3PEG1BH7AEDCPKTV9M6N3A4F0EHKBR","","null","<img src=""img/land2.png"" style=""width:200px; border:14px solid green;"">","null","","","","","","","","","",""
"","image-keyboard-response","132","146554","0.0-132.0","32EYX73OY1VFU7DQQZ1HYVE5S8HURX","AMVBT3XDCQBHI","3PEG1BH7AEDCPKTV9M6N3A4F0EHKBR","","696.1999999880791","img/land6.png","74","697","1","0","1","1","0.8,0.2,0.2,0.2,0.8,0.2,0.2,0.2,0.8","0.8,0.2,0.2,0.2,0.8,0.2,0.2,0.2,0.8","1","",""
"","html-keyboard-response","133","146856","0.0-133.0","32EYX73OY1VFU7DQQZ1HYVE5S8HURX","AMVBT3XDCQBHI","3PEG1BH7AEDCPKTV9M6N3A4F0EHKBR","","null","<img src=""img/land6.png"" style=""width:200px;border:14px solid red;"">","null","","","","","","","","","",""
"","image-keyboard-response","134","147673","0.0-134.0","32EYX73OY1VFU7DQQZ1HYVE5S8HURX","AMVBT3XDCQBHI","3PEG1BH7AEDCPKTV9M6N3A4F0EHKBR","","816.1999999880791","img/land6.png","74","817","1","1","1","1","0.8,0.2,0.2,0.2,0.8,0.2,0.2,0.2,0.8","0.8,0.2,0.2,0.2,0.8,0.2,0.2,0.2,0.8","1","",""
"","html-keyboard-response","135","147975","0.0-135.0","32EYX73OY1VFU7DQQZ1HYVE5S8HURX","AMVBT3XDCQBHI","3PEG1BH7AEDCPKTV9M6N3A4F0EHKBR","","null","<img src=""img/land6.png"" style=""width:200px; border:14px solid green;"">","null","","","","","","","","","",""
"","image-keyboard-response","136","148909","0.0-136.0","32EYX73OY1VFU7DQQZ1HYVE5S8HURX","AMVBT3XDCQBHI","3PEG1BH7AEDCPKTV9M6N3A4F0EHKBR","","932.6000000238419","img/land2.png","75","933.5","2","1","2","1","0.8,0.2,0.2,0.2,0.8,0.2,0.2,0.2,0.8","0.8,0.2,0.2,0.2,0.8,0.2,0.2,0.2,0.8","1","",""
"","html-keyboard-response","137","149210","0.0-137.0","32EYX73OY1VFU7DQQZ1HYVE5S8HURX","AMVBT3XDCQBHI","3PEG1BH7AEDCPKTV9M6N3A4F0EHKBR","","null","<img src=""img/land2.png"" style=""width:200px; border:14px solid green;"">","null","","","","","","","","","",""
"","image-keyboard-response","138","150274","0.0-138.0","32EYX73OY1VFU7DQQZ1HYVE5S8HURX","AMVBT3XDCQBHI","3PEG1BH7AEDCPKTV9M6N3A4F0EHKBR","","1062.8999999761581","img/land3.png","76","1063.7999999523163","3","1","3","1","0.8,0.2,0.2,0.2,0.8,0.2,0.2,0.2,0.8","0.8,0.2,0.2,0.2,0.8,0.2,0.2,0.2,0.8","1","",""
"","html-keyboard-response","139","150575","0.0-139.0","32EYX73OY1VFU7DQQZ1HYVE5S8HURX","AMVBT3XDCQBHI","3PEG1BH7AEDCPKTV9M6N3A4F0EHKBR","","null","<img src=""img/land3.png"" style=""width:200px; border:14px solid green;"">","null","","","","","","","","","",""
"","image-keyboard-response","140","151251","0.0-140.0","32EYX73OY1VFU7DQQZ1HYVE5S8HURX","AMVBT3XDCQBHI","3PEG1BH7AEDCPKTV9M6N3A4F0EHKBR","","674.5999999642372","img/land3.png","76","675.3000000119209","3","1","3","1","0.8,0.2,0.2,0.2,0.8,0.2,0.2,0.2,0.8","0.8,0.2,0.2,0.2,0.8,0.2,0.2,0.2,0.8","1","",""
"","html-keyboard-response","141","151556","0.0-141.0","32EYX73OY1VFU7DQQZ1HYVE5S8HURX","AMVBT3XDCQBHI","3PEG1BH7AEDCPKTV9M6N3A4F0EHKBR","","null","<img src=""img/land3.png"" style=""width:200px; border:14px solid green;"">","null","","","","","","","","","",""
"","image-keyboard-response","142","152268","0.0-142.0","32EYX73OY1VFU7DQQZ1HYVE5S8HURX","AMVBT3XDCQBHI","3PEG1BH7AEDCPKTV9M6N3A4F0EHKBR","","711.4000000357628","img/land3.png","76","712.5","3","1","3","1","0.8,0.2,0.2,0.2,0.8,0.2,0.2,0.2,0.8","0.8,0.2,0.2,0.2,0.8,0.2,0.2,0.2,0.8","1","",""
"","html-keyboard-response","143","152570","0.0-143.0","32EYX73OY1VFU7DQQZ1HYVE5S8HURX","AMVBT3XDCQBHI","3PEG1BH7AEDCPKTV9M6N3A4F0EHKBR","","null","<img src=""img/land3.png"" style=""width:200px; border:14px solid green;"">","null","","","","","","","","","",""
"","image-keyboard-response","144","153295","0.0-144.0","32EYX73OY1VFU7DQQZ1HYVE5S8HURX","AMVBT3XDCQBHI","3PEG1BH7AEDCPKTV9M6N3A4F0EHKBR","","724.3000000119209","img/land3.png","76","725.0999999642372","3","0","3","1","0.8,0.2,0.2,0.2,0.8,0.2,0.2,0.2,0.8","0.8,0.2,0.2,0.2,0.8,0.2,0.2,0.2,0.8","1","",""
"","html-keyboard-response","145","153597","0.0-145.0","32EYX73OY1VFU7DQQZ1HYVE5S8HURX","AMVBT3XDCQBHI","3PEG1BH7AEDCPKTV9M6N3A4F0EHKBR","","null","<img src=""img/land3.png"" style=""width:200px;border:14px solid red;"">","null","","","","","","","","","",""
"","image-keyboard-response","146","154503","0.0-146.0","32EYX73OY1VFU7DQQZ1HYVE5S8HURX","AMVBT3XDCQBHI","3PEG1BH7AEDCPKTV9M6N3A4F0EHKBR","","904.9000000357628","img/land2.png","75","905.8000000119209","2","1","2","1","0.8,0.2,0.2,0.2,0.8,0.2,0.2,0.2,0.8","0.8,0.2,0.2,0.2,0.8,0.2,0.2,0.2,0.8","1","",""
"","html-keyboard-response","147","154805","0.0-147.0","32EYX73OY1VFU7DQQZ1HYVE5S8HURX","AMVBT3XDCQBHI","3PEG1BH7AEDCPKTV9M6N3A4F0EHKBR","","null","<img src=""img/land2.png"" style=""width:200px; border:14px solid green;"">","null","","","","","","","","","",""
"","image-keyboard-response","148","155607","0.0-148.0","32EYX73OY1VFU7DQQZ1HYVE5S8HURX","AMVBT3XDCQBHI","3PEG1BH7AEDCPKTV9M6N3A4F0EHKBR","","801.1999999880791","img/land6.png","74","802.3000000119209","1","1","1","1","0.8,0.2,0.2,0.2,0.8,0.2,0.2,0.2,0.8","0.8,0.2,0.2,0.2,0.8,0.2,0.2,0.2,0.8","1","",""
"","html-keyboard-response","149","155909","0.0-149.0","32EYX73OY1VFU7DQQZ1HYVE5S8HURX","AMVBT3XDCQBHI","3PEG1BH7AEDCPKTV9M6N3A4F0EHKBR","","null","<img src=""img/land6.png"" style=""width:200px; border:14px solid green;"">","null","","","","","","","","","",""
"","image-keyboard-response","150","157064","0.0-150.0","32EYX73OY1VFU7DQQZ1HYVE5S8HURX","AMVBT3XDCQBHI","3PEG1BH7AEDCPKTV9M6N3A4F0EHKBR","","1153.5999999642372","img/land3.png","76","1154.5","3","1","3","1","0.8,0.2,0.2,0.2,0.8,0.2,0.2,0.2,0.8","0.8,0.2,0.2,0.2,0.8,0.2,0.2,0.2,0.8","1","",""
"","html-keyboard-response","151","157366","0.0-151.0","32EYX73OY1VFU7DQQZ1HYVE5S8HURX","AMVBT3XDCQBHI","3PEG1BH7AEDCPKTV9M6N3A4F0EHKBR","","null","<img src=""img/land3.png"" style=""width:200px; border:14px solid green;"">","null","","","","","","","","","",""
"","image-keyboard-response","152","158539","0.0-152.0","32EYX73OY1VFU7DQQZ1HYVE5S8HURX","AMVBT3XDCQBHI","3PEG1BH7AEDCPKTV9M6N3A4F0EHKBR","","1171.800000011921","img/land2.png","75","1172.699999988079","2","0","2","1","0.8,0.2,0.2,0.2,0.8,0.2,0.2,0.2,0.8","0.8,0.2,0.2,0.2,0.8,0.2,0.2,0.2,0.8","1","",""
"","html-keyboard-response","153","158841","0.0-153.0","32EYX73OY1VFU7DQQZ1HYVE5S8HURX","AMVBT3XDCQBHI","3PEG1BH7AEDCPKTV9M6N3A4F0EHKBR","","null","<img src=""img/land2.png"" style=""width:200px;border:14px solid red;"">","null","","","","","","","","","",""
"","image-keyboard-response","154","159932","0.0-154.0","32EYX73OY1VFU7DQQZ1HYVE5S8HURX","AMVBT3XDCQBHI","3PEG1BH7AEDCPKTV9M6N3A4F0EHKBR","","1090.5","img/land6.png","74","1091.300000011921","1","1","1","1","0.8,0.2,0.2,0.2,0.8,0.2,0.2,0.2,0.8","0.8,0.2,0.2,0.2,0.8,0.2,0.2,0.2,0.8","1","",""
"","html-keyboard-response","155","160234","0.0-155.0","32EYX73OY1VFU7DQQZ1HYVE5S8HURX","AMVBT3XDCQBHI","3PEG1BH7AEDCPKTV9M6N3A4F0EHKBR","","null","<img src=""img/land6.png"" style=""width:200px; border:14px solid green;"">","null","","","","","","","","","",""
"","image-keyboard-response","156","161195","0.0-156.0","32EYX73OY1VFU7DQQZ1HYVE5S8HURX","AMVBT3XDCQBHI","3PEG1BH7AEDCPKTV9M6N3A4F0EHKBR","","960.3000000119209","img/land2.png","75","961.1000000238419","2","1","2","1","0.8,0.2,0.2,0.2,0.8,0.2,0.2,0.2,0.8","0.8,0.2,0.2,0.2,0.8,0.2,0.2,0.2,0.8","1","",""
"","html-keyboard-response","157","161497","0.0-157.0","32EYX73OY1VFU7DQQZ1HYVE5S8HURX","AMVBT3XDCQBHI","3PEG1BH7AEDCPKTV9M6N3A4F0EHKBR","","null","<img src=""img/land2.png"" style=""width:200px; border:14px solid green;"">","null","","","","","","","","","",""
"","image-keyboard-response","158","162225","0.0-158.0","32EYX73OY1VFU7DQQZ1HYVE5S8HURX","AMVBT3XDCQBHI","3PEG1BH7AEDCPKTV9M6N3A4F0EHKBR","","727.9000000357628","img/land2.png","75","728.5","2","1","2","1","0.8,0.2,0.2,0.2,0.8,0.2,0.2,0.2,0.8","0.8,0.2,0.2,0.2,0.8,0.2,0.2,0.2,0.8","1","",""
"","html-keyboard-response","159","162528","0.0-159.0","32EYX73OY1VFU7DQQZ1HYVE5S8HURX","AMVBT3XDCQBHI","3PEG1BH7AEDCPKTV9M6N3A4F0EHKBR","","null","<img src=""img/land2.png"" style=""width:200px; border:14px solid green;"">","null","","","","","","","","","",""
"","image-keyboard-response","160","163199","0.0-160.0","32EYX73OY1VFU7DQQZ1HYVE5S8HURX","AMVBT3XDCQBHI","3PEG1BH7AEDCPKTV9M6N3A4F0EHKBR","","669.9000000357628","img/land3.png","76","670.8000000119209","3","1","3","1","0.8,0.2,0.2,0.2,0.8,0.2,0.2,0.2,0.8","0.8,0.2,0.2,0.2,0.8,0.2,0.2,0.2,0.8","1","",""
"","html-keyboard-response","161","163503","0.0-161.0","32EYX73OY1VFU7DQQZ1HYVE5S8HURX","AMVBT3XDCQBHI","3PEG1BH7AEDCPKTV9M6N3A4F0EHKBR","","null","<img src=""img/land3.png"" style=""width:200px; border:14px solid green;"">","null","","","","","","","","","",""
"","image-keyboard-response","162","164277","0.0-162.0","32EYX73OY1VFU7DQQZ1HYVE5S8HURX","AMVBT3XDCQBHI","3PEG1BH7AEDCPKTV9M6N3A4F0EHKBR","","771.8999999761581","img/land6.png","74","773.3000000119209","1","1","1","1","0.8,0.2,0.2,0.2,0.8,0.2,0.2,0.2,0.8","0.8,0.2,0.2,0.2,0.8,0.2,0.2,0.2,0.8","1","",""
"","html-keyboard-response","163","164578","0.0-163.0","32EYX73OY1VFU7DQQZ1HYVE5S8HURX","AMVBT3XDCQBHI","3PEG1BH7AEDCPKTV9M6N3A4F0EHKBR","","null","<img src=""img/land6.png"" style=""width:200px; border:14px solid green;"">","null","","","","","","","","","",""
"","image-keyboard-response","164","165536","0.0-164.0","32EYX73OY1VFU7DQQZ1HYVE5S8HURX","AMVBT3XDCQBHI","3PEG1BH7AEDCPKTV9M6N3A4F0EHKBR","","956.8999999761581","img/land3.png","76","957.6999999880791","3","1","3","1","0.8,0.2,0.2,0.2,0.8,0.2,0.2,0.2,0.8","0.8,0.2,0.2,0.2,0.8,0.2,0.2,0.2,0.8","1","",""
"","html-keyboard-response","165","165838","0.0-165.0","32EYX73OY1VFU7DQQZ1HYVE5S8HURX","AMVBT3XDCQBHI","3PEG1BH7AEDCPKTV9M6N3A4F0EHKBR","","null","<img src=""img/land3.png"" style=""width:200px; border:14px solid green;"">","null","","","","","","","","","",""
"","image-keyboard-response","166","166537","0.0-166.0","32EYX73OY1VFU7DQQZ1HYVE5S8HURX","AMVBT3XDCQBHI","3PEG1BH7AEDCPKTV9M6N3A4F0EHKBR","","697.7000000476837","img/land3.png","76","698.7000000476837","3","1","3","1","0.8,0.2,0.2,0.2,0.8,0.2,0.2,0.2,0.8","0.8,0.2,0.2,0.2,0.8,0.2,0.2,0.2,0.8","1","",""
"","html-keyboard-response","167","166839","0.0-167.0","32EYX73OY1VFU7DQQZ1HYVE5S8HURX","AMVBT3XDCQBHI","3PEG1BH7AEDCPKTV9M6N3A4F0EHKBR","","null","<img src=""img/land3.png"" style=""width:200px; border:14px solid green;"">","null","","","","","","","","","",""
"","image-keyboard-response","168","167672","0.0-168.0","32EYX73OY1VFU7DQQZ1HYVE5S8HURX","AMVBT3XDCQBHI","3PEG1BH7AEDCPKTV9M6N3A4F0EHKBR","","833","img/land6.png","74","833.8999999761581","1","1","1","1","0.8,0.2,0.2,0.2,0.8,0.2,0.2,0.2,0.8","0.8,0.2,0.2,0.2,0.8,0.2,0.2,0.2,0.8","1","",""
"","html-keyboard-response","169","167974","0.0-169.0","32EYX73OY1VFU7DQQZ1HYVE5S8HURX","AMVBT3XDCQBHI","3PEG1BH7AEDCPKTV9M6N3A4F0EHKBR","","null","<img src=""img/land6.png"" style=""width:200px; border:14px solid green;"">","null","","","","","","","","","",""
"","image-keyboard-response","170","168826","0.0-170.0","32EYX73OY1VFU7DQQZ1HYVE5S8HURX","AMVBT3XDCQBHI","3PEG1BH7AEDCPKTV9M6N3A4F0EHKBR","","850.8000000119209","img/land2.png","75","851.6999999880791","2","1","2","1","0.8,0.2,0.2,0.2,0.8,0.2,0.2,0.2,0.8","0.8,0.2,0.2,0.2,0.8,0.2,0.2,0.2,0.8","1","",""
"","html-keyboard-response","171","169128","0.0-171.0","32EYX73OY1VFU7DQQZ1HYVE5S8HURX","AMVBT3XDCQBHI","3PEG1BH7AEDCPKTV9M6N3A4F0EHKBR","","null","<img src=""img/land2.png"" style=""width:200px; border:14px solid green;"">","null","","","","","","","","","",""
"","image-keyboard-response","172","169936","0.0-172.0","32EYX73OY1VFU7DQQZ1HYVE5S8HURX","AMVBT3XDCQBHI","3PEG1BH7AEDCPKTV9M6N3A4F0EHKBR","","806.8999999761581","img/land2.png","75","807.8000000119209","2","1","2","1","0.8,0.2,0.2,0.2,0.8,0.2,0.2,0.2,0.8","0.8,0.2,0.2,0.2,0.8,0.2,0.2,0.2,0.8","1","",""
"","html-keyboard-response","173","170238","0.0-173.0","32EYX73OY1VFU7DQQZ1HYVE5S8HURX","AMVBT3XDCQBHI","3PEG1BH7AEDCPKTV9M6N3A4F0EHKBR","","null","<img src=""img/land2.png"" style=""width:200px; border:14px solid green;"">","null","","","","","","","","","",""
"","image-keyboard-response","174","170932","0.0-174.0","32EYX73OY1VFU7DQQZ1HYVE5S8HURX","AMVBT3XDCQBHI","3PEG1BH7AEDCPKTV9M6N3A4F0EHKBR","","693.3999999761581","img/land2.png","75","694.2000000476837","2","1","2","1","0.8,0.2,0.2,0.2,0.8,0.2,0.2,0.2,0.8","0.8,0.2,0.2,0.2,0.8,0.2,0.2,0.2,0.8","1","",""
"","html-keyboard-response","175","171233","0.0-175.0","32EYX73OY1VFU7DQQZ1HYVE5S8HURX","AMVBT3XDCQBHI","3PEG1BH7AEDCPKTV9M6N3A4F0EHKBR","","null","<img src=""img/land2.png"" style=""width:200px; border:14px solid green;"">","null","","","","","","","","","",""
"","image-keyboard-response","176","172000","0.0-176.0","32EYX73OY1VFU7DQQZ1HYVE5S8HURX","AMVBT3XDCQBHI","3PEG1BH7AEDCPKTV9M6N3A4F0EHKBR","","766.0999999642372","img/land6.png","74","766.8999999761581","1","0","1","1","0.8,0.2,0.2,0.2,0.8,0.2,0.2,0.2,0.8","0.8,0.2,0.2,0.2,0.8,0.2,0.2,0.2,0.8","1","",""
"","html-keyboard-response","177","172302","0.0-177.0","32EYX73OY1VFU7DQQZ1HYVE5S8HURX","AMVBT3XDCQBHI","3PEG1BH7AEDCPKTV9M6N3A4F0EHKBR","","null","<img src=""img/land6.png"" style=""width:200px;border:14px solid red;"">","null","","","","","","","","","",""
"","image-keyboard-response","178","173014","0.0-178.0","32EYX73OY1VFU7DQQZ1HYVE5S8HURX","AMVBT3XDCQBHI","3PEG1BH7AEDCPKTV9M6N3A4F0EHKBR","","710.6000000238419","img/land6.png","74","711.5","1","1","1","1","0.8,0.2,0.2,0.2,0.8,0.2,0.2,0.2,0.8","0.8,0.2,0.2,0.2,0.8,0.2,0.2,0.2,0.8","1","",""
"","html-keyboard-response","179","173316","0.0-179.0","32EYX73OY1VFU7DQQZ1HYVE5S8HURX","AMVBT3XDCQBHI","3PEG1BH7AEDCPKTV9M6N3A4F0EHKBR","","null","<img src=""img/land6.png"" style=""width:200px; border:14px solid green;"">","null","","","","","","","","","",""
"","image-keyboard-response","180","174035","0.0-180.0","32EYX73OY1VFU7DQQZ1HYVE5S8HURX","AMVBT3XDCQBHI","3PEG1BH7AEDCPKTV9M6N3A4F0EHKBR","","718.5","img/land2.png","75","719.1999999880791","2","1","2","1","0.8,0.2,0.2,0.2,0.8,0.2,0.2,0.2,0.8","0.8,0.2,0.2,0.2,0.8,0.2,0.2,0.2,0.8","1","",""
"","html-keyboard-response","181","174337","0.0-181.0","32EYX73OY1VFU7DQQZ1HYVE5S8HURX","AMVBT3XDCQBHI","3PEG1BH7AEDCPKTV9M6N3A4F0EHKBR","","null","<img src=""img/land2.png"" style=""width:200px; border:14px solid green;"">","null","","","","","","","","","",""
"","html-keyboard-response","182","185200","0.0-182.0","32EYX73OY1VFU7DQQZ1HYVE5S8HURX","AMVBT3XDCQBHI","3PEG1BH7AEDCPKTV9M6N3A4F0EHKBR","","","","","","","","","","","","","",""
"","image-keyboard-response","183","187202","0.0-183.0","32EYX73OY1VFU7DQQZ1HYVE5S8HURX","AMVBT3XDCQBHI","3PEG1BH7AEDCPKTV9M6N3A4F0EHKBR","","","img/land1.png","","2001.800000011921","-1","0","1","2","0.8,0.2,0.2,0.2,0.8,0.2,0.2,0.2,0.8","0.2,0.2,0.8,0.8,0.2,0.2,0.2,0.8,0.2","2","",""
"","html-keyboard-response","184","187511","0.0-184.0","32EYX73OY1VFU7DQQZ1HYVE5S8HURX","AMVBT3XDCQBHI","3PEG1BH7AEDCPKTV9M6N3A4F0EHKBR","","null","<img src=""img/land1.png"" style=""width:200px;border:14px solid red;"">","null","","","","","","","","","",""
"","image-keyboard-response","185","189513","0.0-185.0","32EYX73OY1VFU7DQQZ1HYVE5S8HURX","AMVBT3XDCQBHI","3PEG1BH7AEDCPKTV9M6N3A4F0EHKBR","","","img/land5.png","","2001.5","-1","0","3","2","0.8,0.2,0.2,0.2,0.8,0.2,0.2,0.2,0.8","0.2,0.2,0.8,0.8,0.2,0.2,0.2,0.8,0.2","2","",""
"","html-keyboard-response","186","189815","0.0-186.0","32EYX73OY1VFU7DQQZ1HYVE5S8HURX","AMVBT3XDCQBHI","3PEG1BH7AEDCPKTV9M6N3A4F0EHKBR","","null","<img src=""img/land5.png"" style=""width:200px;border:14px solid red;"">","null","","","","","","","","","",""
"","image-keyboard-response","187","191817","0.0-187.0","32EYX73OY1VFU7DQQZ1HYVE5S8HURX","AMVBT3XDCQBHI","3PEG1BH7AEDCPKTV9M6N3A4F0EHKBR","","","img/land1.png","","2001.699999988079","-1","0","1","2","0.8,0.2,0.2,0.2,0.8,0.2,0.2,0.2,0.8","0.2,0.2,0.8,0.8,0.2,0.2,0.2,0.8,0.2","2","",""
"","html-keyboard-response","188","192118","0.0-188.0","32EYX73OY1VFU7DQQZ1HYVE5S8HURX","AMVBT3XDCQBHI","3PEG1BH7AEDCPKTV9M6N3A4F0EHKBR","","null","<img src=""img/land1.png"" style=""width:200px;border:14px solid red;"">","null","","","","","","","","","",""
"","image-keyboard-response","189","194120","0.0-189.0","32EYX73OY1VFU7DQQZ1HYVE5S8HURX","AMVBT3XDCQBHI","3PEG1BH7AEDCPKTV9M6N3A4F0EHKBR","","","img/land5.png","","2002","-1","0","3","2","0.8,0.2,0.2,0.2,0.8,0.2,0.2,0.2,0.8","0.2,0.2,0.8,0.8,0.2,0.2,0.2,0.8,0.2","2","",""
"","html-keyboard-response","190","194422","0.0-190.0","32EYX73OY1VFU7DQQZ1HYVE5S8HURX","AMVBT3XDCQBHI","3PEG1BH7AEDCPKTV9M6N3A4F0EHKBR","","null","<img src=""img/land5.png"" style=""width:200px;border:14px solid red;"">","null","","","","","","","","","",""
"","image-keyboard-response","191","195885","0.0-191.0","32EYX73OY1VFU7DQQZ1HYVE5S8HURX","AMVBT3XDCQBHI","3PEG1BH7AEDCPKTV9M6N3A4F0EHKBR","","1462.2999999523163","img/land5.png","75","1464.3999999761581","2","1","3","2","0.8,0.2,0.2,0.2,0.8,0.2,0.2,0.2,0.8","0.2,0.2,0.8,0.8,0.2,0.2,0.2,0.8,0.2","2","",""
"","html-keyboard-response","192","196188","0.0-192.0","32EYX73OY1VFU7DQQZ1HYVE5S8HURX","AMVBT3XDCQBHI","3PEG1BH7AEDCPKTV9M6N3A4F0EHKBR","","null","<img src=""img/land5.png"" style=""width:200px; border:14px solid green;"">","null","","","","","","","","","",""
"","image-keyboard-response","193","196858","0.0-193.0","32EYX73OY1VFU7DQQZ1HYVE5S8HURX","AMVBT3XDCQBHI","3PEG1BH7AEDCPKTV9M6N3A4F0EHKBR","","669","img/land1.png","74","669.9000000357628","1","0","1","2","0.8,0.2,0.2,0.2,0.8,0.2,0.2,0.2,0.8","0.2,0.2,0.8,0.8,0.2,0.2,0.2,0.8,0.2","2","",""
"","html-keyboard-response","194","197161","0.0-194.0","32EYX73OY1VFU7DQQZ1HYVE5S8HURX","AMVBT3XDCQBHI","3PEG1BH7AEDCPKTV9M6N3A4F0EHKBR","","null","<img src=""img/land1.png"" style=""width:200px;border:14px solid red;"">","null","","","","","","","","","",""
"","image-keyboard-response","195","197961","0.0-195.0","32EYX73OY1VFU7DQQZ1HYVE5S8HURX","AMVBT3XDCQBHI","3PEG1BH7AEDCPKTV9M6N3A4F0EHKBR","","798.5","img/land5.png","75","799.3999999761581","2","1","3","2","0.8,0.2,0.2,0.2,0.8,0.2,0.2,0.2,0.8","0.2,0.2,0.8,0.8,0.2,0.2,0.2,0.8,0.2","2","",""
"","html-keyboard-response","196","198276","0.0-196.0","32EYX73OY1VFU7DQQZ1HYVE5S8HURX","AMVBT3XDCQBHI","3PEG1BH7AEDCPKTV9M6N3A4F0EHKBR","","null","<img src=""img/land5.png"" style=""width:200px; border:14px solid green;"">","null","","","","","","","","","",""
"","image-keyboard-response","197","198962","0.0-197.0","32EYX73OY1VFU7DQQZ1HYVE5S8HURX","AMVBT3XDCQBHI","3PEG1BH7AEDCPKTV9M6N3A4F0EHKBR","","685","img/land1.png","74","685.8999999761581","1","0","1","2","0.8,0.2,0.2,0.2,0.8,0.2,0.2,0.2,0.8","0.2,0.2,0.8,0.8,0.2,0.2,0.2,0.8,0.2","2","",""
"","html-keyboard-response","198","199264","0.0-198.0","32EYX73OY1VFU7DQQZ1HYVE5S8HURX","AMVBT3XDCQBHI","3PEG1BH7AEDCPKTV9M6N3A4F0EHKBR","","null","<img src=""img/land1.png"" style=""width:200px;border:14px solid red;"">","null","","","","","","","","","",""
"","image-keyboard-response","199","199995","0.0-199.0","32EYX73OY1VFU7DQQZ1HYVE5S8HURX","AMVBT3XDCQBHI","3PEG1BH7AEDCPKTV9M6N3A4F0EHKBR","","730.6000000238419","img/land1.png","74","731.5","1","0","1","2","0.8,0.2,0.2,0.2,0.8,0.2,0.2,0.2,0.8","0.2,0.2,0.8,0.8,0.2,0.2,0.2,0.8,0.2","2","",""
"","html-keyboard-response","200","200297","0.0-200.0","32EYX73OY1VFU7DQQZ1HYVE5S8HURX","AMVBT3XDCQBHI","3PEG1BH7AEDCPKTV9M6N3A4F0EHKBR","","null","<img src=""img/land1.png"" style=""width:200px;border:14px solid red;"">","null","","","","","","","","","",""
"","image-keyboard-response","201","200970","0.0-201.0","32EYX73OY1VFU7DQQZ1HYVE5S8HURX","AMVBT3XDCQBHI","3PEG1BH7AEDCPKTV9M6N3A4F0EHKBR","","671.5999999642372","img/land5.png","75","672.7000000476837","2","1","3","2","0.8,0.2,0.2,0.2,0.8,0.2,0.2,0.2,0.8","0.2,0.2,0.8,0.8,0.2,0.2,0.2,0.8,0.2","2","",""
"","html-keyboard-response","202","201272","0.0-202.0","32EYX73OY1VFU7DQQZ1HYVE5S8HURX","AMVBT3XDCQBHI","3PEG1BH7AEDCPKTV9M6N3A4F0EHKBR","","null","<img src=""img/land5.png"" style=""width:200px; border:14px solid green;"">","null","","","","","","","","","",""
"","image-keyboard-response","203","202054","0.0-203.0","32EYX73OY1VFU7DQQZ1HYVE5S8HURX","AMVBT3XDCQBHI","3PEG1BH7AEDCPKTV9M6N3A4F0EHKBR","","780.7999999523163","img/land1.png","74","781.8000000119209","1","0","1","2","0.8,0.2,0.2,0.2,0.8,0.2,0.2,0.2,0.8","0.2,0.2,0.8,0.8,0.2,0.2,0.2,0.8,0.2","2","",""
"","html-keyboard-response","204","202355","0.0-204.0","32EYX73OY1VFU7DQQZ1HYVE5S8HURX","AMVBT3XDCQBHI","3PEG1BH7AEDCPKTV9M6N3A4F0EHKBR","","null","<img src=""img/land1.png"" style=""width:200px;border:14px solid red;"">","null","","","","","","","","","",""
"","image-keyboard-response","205","202859","0.0-205.0","32EYX73OY1VFU7DQQZ1HYVE5S8HURX","AMVBT3XDCQBHI","3PEG1BH7AEDCPKTV9M6N3A4F0EHKBR","","502.5999999642372","img/land1.png","74","503.5","1","0","1","2","0.8,0.2,0.2,0.2,0.8,0.2,0.2,0.2,0.8","0.2,0.2,0.8,0.8,0.2,0.2,0.2,0.8,0.2","2","",""
"","html-keyboard-response","206","203161","0.0-206.0","32EYX73OY1VFU7DQQZ1HYVE5S8HURX","AMVBT3XDCQBHI","3PEG1BH7AEDCPKTV9M6N3A4F0EHKBR","","null","<img src=""img/land1.png"" style=""width:200px;border:14px solid red;"">","null","","","","","","","","","",""
"","image-keyboard-response","207","203667","0.0-207.0","32EYX73OY1VFU7DQQZ1HYVE5S8HURX","AMVBT3XDCQBHI","3PEG1BH7AEDCPKTV9M6N3A4F0EHKBR","","505.39999997615814","img/land1.png","74","506.4000000357628","1","0","1","2","0.8,0.2,0.2,0.2,0.8,0.2,0.2,0.2,0.8","0.2,0.2,0.8,0.8,0.2,0.2,0.2,0.8,0.2","2","",""
"","html-keyboard-response","208","203969","0.0-208.0","32EYX73OY1VFU7DQQZ1HYVE5S8HURX","AMVBT3XDCQBHI","3PEG1BH7AEDCPKTV9M6N3A4F0EHKBR","","null","<img src=""img/land1.png"" style=""width:200px;border:14px solid red;"">","null","","","","","","","","","",""
"","image-keyboard-response","209","204503","0.0-209.0","32EYX73OY1VFU7DQQZ1HYVE5S8HURX","AMVBT3XDCQBHI","3PEG1BH7AEDCPKTV9M6N3A4F0EHKBR","","532.1999999880791","img/land5.png","75","533","2","1","3","2","0.8,0.2,0.2,0.2,0.8,0.2,0.2,0.2,0.8","0.2,0.2,0.8,0.8,0.2,0.2,0.2,0.8,0.2","2","",""
"","html-keyboard-response","210","204804","0.0-210.0","32EYX73OY1VFU7DQQZ1HYVE5S8HURX","AMVBT3XDCQBHI","3PEG1BH7AEDCPKTV9M6N3A4F0EHKBR","","null","<img src=""img/land5.png"" style=""width:200px; border:14px solid green;"">","null","","","","","","","","","",""
"","image-keyboard-response","211","205419","0.0-211.0","32EYX73OY1VFU7DQQZ1HYVE5S8HURX","AMVBT3XDCQBHI","3PEG1BH7AEDCPKTV9M6N3A4F0EHKBR","","613.8999999761581","img/land1.png","74","614.6999999880791","1","0","1","2","0.8,0.2,0.2,0.2,0.8,0.2,0.2,0.2,0.8","0.2,0.2,0.8,0.8,0.2,0.2,0.2,0.8,0.2","2","",""
"","html-keyboard-response","212","205721","0.0-212.0","32EYX73OY1VFU7DQQZ1HYVE5S8HURX","AMVBT3XDCQBHI","3PEG1BH7AEDCPKTV9M6N3A4F0EHKBR","","null","<img src=""img/land1.png"" style=""width:200px;border:14px solid red;"">","null","","","","","","","","","",""
"","image-keyboard-response","213","206577","0.0-213.0","32EYX73OY1VFU7DQQZ1HYVE5S8HURX","AMVBT3XDCQBHI","3PEG1BH7AEDCPKTV9M6N3A4F0EHKBR","","854.6999999880791","img/land5.png","75","855.5","2","1","3","2","0.8,0.2,0.2,0.2,0.8,0.2,0.2,0.2,0.8","0.2,0.2,0.8,0.8,0.2,0.2,0.2,0.8,0.2","2","",""
"","html-keyboard-response","214","206878","0.0-214.0","32EYX73OY1VFU7DQQZ1HYVE5S8HURX","AMVBT3XDCQBHI","3PEG1BH7AEDCPKTV9M6N3A4F0EHKBR","","null","<img src=""img/land5.png"" style=""width:200px; border:14px solid green;"">","null","","","","","","","","","",""
"","image-keyboard-response","215","207529","0.0-215.0","32EYX73OY1VFU7DQQZ1HYVE5S8HURX","AMVBT3XDCQBHI","3PEG1BH7AEDCPKTV9M6N3A4F0EHKBR","","650.2000000476837","img/land1.png","74","651","1","1","1","2","0.8,0.2,0.2,0.2,0.8,0.2,0.2,0.2,0.8","0.2,0.2,0.8,0.8,0.2,0.2,0.2,0.8,0.2","2","",""
"","html-keyboard-response","216","207831","0.0-216.0","32EYX73OY1VFU7DQQZ1HYVE5S8HURX","AMVBT3XDCQBHI","3PEG1BH7AEDCPKTV9M6N3A4F0EHKBR","","null","<img src=""img/land1.png"" style=""width:200px; border:14px solid green;"">","null","","","","","","","","","",""
"","image-keyboard-response","217","208843","0.0-217.0","32EYX73OY1VFU7DQQZ1HYVE5S8HURX","AMVBT3XDCQBHI","3PEG1BH7AEDCPKTV9M6N3A4F0EHKBR","","1011","img/land5.png","74","1011.7999999523163","1","0","3","2","0.8,0.2,0.2,0.2,0.8,0.2,0.2,0.2,0.8","0.2,0.2,0.8,0.8,0.2,0.2,0.2,0.8,0.2","2","",""
"","html-keyboard-response","218","209144","0.0-218.0","32EYX73OY1VFU7DQQZ1HYVE5S8HURX","AMVBT3XDCQBHI","3PEG1BH7AEDCPKTV9M6N3A4F0EHKBR","","null","<img src=""img/land5.png"" style=""width:200px;border:14px solid red;"">","null","","","","","","","","","",""
"","image-keyboard-response","219","210987","0.0-219.0","32EYX73OY1VFU7DQQZ1HYVE5S8HURX","AMVBT3XDCQBHI","3PEG1BH7AEDCPKTV9M6N3A4F0EHKBR","","1842.4000000357628","img/land4.png","76","1843.300000011921","3","0","2","2","0.8,0.2,0.2,0.2,0.8,0.2,0.2,0.2,0.8","0.2,0.2,0.8,0.8,0.2,0.2,0.2,0.8,0.2","2","",""
"","html-keyboard-response","220","211289","0.0-220.0","32EYX73OY1VFU7DQQZ1HYVE5S8HURX","AMVBT3XDCQBHI","3PEG1BH7AEDCPKTV9M6N3A4F0EHKBR","","null","<img src=""img/land4.png"" style=""width:200px;border:14px solid red;"">","null","","","","","","","","","",""
"","image-keyboard-response","221","212137","0.0-221.0","32EYX73OY1VFU7DQQZ1HYVE5S8HURX","AMVBT3XDCQBHI","3PEG1BH7AEDCPKTV9M6N3A4F0EHKBR","","846.8000000119209","img/land1.png","74","847.5","1","0","1","2","0.8,0.2,0.2,0.2,0.8,0.2,0.2,0.2,0.8","0.2,0.2,0.8,0.8,0.2,0.2,0.2,0.8,0.2","2","",""
"","html-keyboard-response","222","212438","0.0-222.0","32EYX73OY1VFU7DQQZ1HYVE5S8HURX","AMVBT3XDCQBHI","3PEG1BH7AEDCPKTV9M6N3A4F0EHKBR","","null","<img src=""img/land1.png"" style=""width:200px;border:14px solid red;"">","null","","","","","","","","","",""
"","image-keyboard-response","223","213286","0.0-223.0","32EYX73OY1VFU7DQQZ1HYVE5S8HURX","AMVBT3XDCQBHI","3PEG1BH7AEDCPKTV9M6N3A4F0EHKBR","","846.8999999761581","img/land1.png","74","847.8999999761581","1","0","1","2","0.8,0.2,0.2,0.2,0.8,0.2,0.2,0.2,0.8","0.2,0.2,0.8,0.8,0.2,0.2,0.2,0.8,0.2","2","",""
"","html-keyboard-response","224","213588","0.0-224.0","32EYX73OY1VFU7DQQZ1HYVE5S8HURX","AMVBT3XDCQBHI","3PEG1BH7AEDCPKTV9M6N3A4F0EHKBR","","null","<img src=""img/land1.png"" style=""width:200px;border:14px solid red;"">","null","","","","","","","","","",""
"","image-keyboard-response","225","214434","0.0-225.0","32EYX73OY1VFU7DQQZ1HYVE5S8HURX","AMVBT3XDCQBHI","3PEG1BH7AEDCPKTV9M6N3A4F0EHKBR","","844.1999999880791","img/land5.png","75","845.1999999880791","2","0","3","2","0.8,0.2,0.2,0.2,0.8,0.2,0.2,0.2,0.8","0.2,0.2,0.8,0.8,0.2,0.2,0.2,0.8,0.2","2","",""
"","html-keyboard-response","226","214735","0.0-226.0","32EYX73OY1VFU7DQQZ1HYVE5S8HURX","AMVBT3XDCQBHI","3PEG1BH7AEDCPKTV9M6N3A4F0EHKBR","","null","<img src=""img/land5.png"" style=""width:200px;border:14px solid red;"">","null","","","","","","","","","",""
"","image-keyboard-response","227","215844","0.0-227.0","32EYX73OY1VFU7DQQZ1HYVE5S8HURX","AMVBT3XDCQBHI","3PEG1BH7AEDCPKTV9M6N3A4F0EHKBR","","1108.3999999761581","img/land1.png","74","1109.300000011921","1","0","1","2","0.8,0.2,0.2,0.2,0.8,0.2,0.2,0.2,0.8","0.2,0.2,0.8,0.8,0.2,0.2,0.2,0.8,0.2","2","",""
"","html-keyboard-response","228","216146","0.0-228.0","32EYX73OY1VFU7DQQZ1HYVE5S8HURX","AMVBT3XDCQBHI","3PEG1BH7AEDCPKTV9M6N3A4F0EHKBR","","null","<img src=""img/land1.png"" style=""width:200px;border:14px solid red;"">","null","","","","","","","","","",""
"","image-keyboard-response","229","216700","0.0-229.0","32EYX73OY1VFU7DQQZ1HYVE5S8HURX","AMVBT3XDCQBHI","3PEG1BH7AEDCPKTV9M6N3A4F0EHKBR","","553.4000000357628","img/land1.png","74","554.1999999880791","1","0","1","2","0.8,0.2,0.2,0.2,0.8,0.2,0.2,0.2,0.8","0.2,0.2,0.8,0.8,0.2,0.2,0.2,0.8,0.2","2","",""
"","html-keyboard-response","230","217002","0.0-230.0","32EYX73OY1VFU7DQQZ1HYVE5S8HURX","AMVBT3XDCQBHI","3PEG1BH7AEDCPKTV9M6N3A4F0EHKBR","","null","<img src=""img/land1.png"" style=""width:200px;border:14px solid red;"">","null","","","","","","","","","",""
"","image-keyboard-response","231","217602","0.0-231.0","32EYX73OY1VFU7DQQZ1HYVE5S8HURX","AMVBT3XDCQBHI","3PEG1BH7AEDCPKTV9M6N3A4F0EHKBR","","598.3000000119209","img/land1.png","74","599.1000000238419","1","0","1","2","0.8,0.2,0.2,0.2,0.8,0.2,0.2,0.2,0.8","0.2,0.2,0.8,0.8,0.2,0.2,0.2,0.8,0.2","2","",""
"","html-keyboard-response","232","217903","0.0-232.0","32EYX73OY1VFU7DQQZ1HYVE5S8HURX","AMVBT3XDCQBHI","3PEG1BH7AEDCPKTV9M6N3A4F0EHKBR","","null","<img src=""img/land1.png"" style=""width:200px;border:14px solid red;"">","null","","","","","","","","","",""
"","image-keyboard-response","233","218477","0.0-233.0","32EYX73OY1VFU7DQQZ1HYVE5S8HURX","AMVBT3XDCQBHI","3PEG1BH7AEDCPKTV9M6N3A4F0EHKBR","","572.6999999880791","img/land1.png","74","573.5999999642372","1","0","1","2","0.8,0.2,0.2,0.2,0.8,0.2,0.2,0.2,0.8","0.2,0.2,0.8,0.8,0.2,0.2,0.2,0.8,0.2","2","",""
"","html-keyboard-response","234","218778","0.0-234.0","32EYX73OY1VFU7DQQZ1HYVE5S8HURX","AMVBT3XDCQBHI","3PEG1BH7AEDCPKTV9M6N3A4F0EHKBR","","null","<img src=""img/land1.png"" style=""width:200px;border:14px solid red;"">","null","","","","","","","","","",""
"","image-keyboard-response","235","219364","0.0-235.0","32EYX73OY1VFU7DQQZ1HYVE5S8HURX","AMVBT3XDCQBHI","3PEG1BH7AEDCPKTV9M6N3A4F0EHKBR","","585.1999999880791","img/land1.png","74","586.1000000238419","1","0","1","2","0.8,0.2,0.2,0.2,0.8,0.2,0.2,0.2,0.8","0.2,0.2,0.8,0.8,0.2,0.2,0.2,0.8,0.2","2","",""
"","html-keyboard-response","236","219667","0.0-236.0","32EYX73OY1VFU7DQQZ1HYVE5S8HURX","AMVBT3XDCQBHI","3PEG1BH7AEDCPKTV9M6N3A4F0EHKBR","","null","<img src=""img/land1.png"" style=""width:200px;border:14px solid red;"">","null","","","","","","","","","",""
"","image-keyboard-response","237","220925","0.0-237.0","32EYX73OY1VFU7DQQZ1HYVE5S8HURX","AMVBT3XDCQBHI","3PEG1BH7AEDCPKTV9M6N3A4F0EHKBR","","1256.5","img/land4.png","76","1257.300000011921","3","0","2","2","0.8,0.2,0.2,0.2,0.8,0.2,0.2,0.2,0.8","0.2,0.2,0.8,0.8,0.2,0.2,0.2,0.8,0.2","2","",""
"","html-keyboard-response","238","221226","0.0-238.0","32EYX73OY1VFU7DQQZ1HYVE5S8HURX","AMVBT3XDCQBHI","3PEG1BH7AEDCPKTV9M6N3A4F0EHKBR","","null","<img src=""img/land4.png"" style=""width:200px;border:14px solid red;"">","null","","","","","","","","","",""
"","image-keyboard-response","239","222356","0.0-239.0","32EYX73OY1VFU7DQQZ1HYVE5S8HURX","AMVBT3XDCQBHI","3PEG1BH7AEDCPKTV9M6N3A4F0EHKBR","","1128.8999999761581","img/land1.png","74","1129.7999999523163","1","0","1","2","0.8,0.2,0.2,0.2,0.8,0.2,0.2,0.2,0.8","0.2,0.2,0.8,0.8,0.2,0.2,0.2,0.8,0.2","2","",""
"","html-keyboard-response","240","222658","0.0-240.0","32EYX73OY1VFU7DQQZ1HYVE5S8HURX","AMVBT3XDCQBHI","3PEG1BH7AEDCPKTV9M6N3A4F0EHKBR","","null","<img src=""img/land1.png"" style=""width:200px;border:14px solid red;"">","null","","","","","","","","","",""
"","image-keyboard-response","241","223677","0.0-241.0","32EYX73OY1VFU7DQQZ1HYVE5S8HURX","AMVBT3XDCQBHI","3PEG1BH7AEDCPKTV9M6N3A4F0EHKBR","","1018.1999999880791","img/land5.png","75","1019","2","1","3","2","0.8,0.2,0.2,0.2,0.8,0.2,0.2,0.2,0.8","0.2,0.2,0.8,0.8,0.2,0.2,0.2,0.8,0.2","2","",""
"","html-keyboard-response","242","223979","0.0-242.0","32EYX73OY1VFU7DQQZ1HYVE5S8HURX","AMVBT3XDCQBHI","3PEG1BH7AEDCPKTV9M6N3A4F0EHKBR","","null","<img src=""img/land5.png"" style=""width:200px; border:14px solid green;"">","null","","","","","","","","","",""
"","image-keyboard-response","243","224924","0.0-243.0","32EYX73OY1VFU7DQQZ1HYVE5S8HURX","AMVBT3XDCQBHI","3PEG1BH7AEDCPKTV9M6N3A4F0EHKBR","","944.0999999642372","img/land1.png","74","945","1","0","1","2","0.8,0.2,0.2,0.2,0.8,0.2,0.2,0.2,0.8","0.2,0.2,0.8,0.8,0.2,0.2,0.2,0.8,0.2","2","",""
"","html-keyboard-response","244","225225","0.0-244.0","32EYX73OY1VFU7DQQZ1HYVE5S8HURX","AMVBT3XDCQBHI","3PEG1BH7AEDCPKTV9M6N3A4F0EHKBR","","null","<img src=""img/land1.png"" style=""width:200px;border:14px solid red;"">","null","","","","","","","","","",""
"","image-keyboard-response","245","225921","0.0-245.0","32EYX73OY1VFU7DQQZ1HYVE5S8HURX","AMVBT3XDCQBHI","3PEG1BH7AEDCPKTV9M6N3A4F0EHKBR","","694.3999999761581","img/land1.png","74","695.0999999642372","1","0","1","2","0.8,0.2,0.2,0.2,0.8,0.2,0.2,0.2,0.8","0.2,0.2,0.8,0.8,0.2,0.2,0.2,0.8,0.2","2","",""
"","html-keyboard-response","246","226222","0.0-246.0","32EYX73OY1VFU7DQQZ1HYVE5S8HURX","AMVBT3XDCQBHI","3PEG1BH7AEDCPKTV9M6N3A4F0EHKBR","","null","<img src=""img/land1.png"" style=""width:200px;border:14px solid red;"">","null","","","","","","","","","",""
"","image-keyboard-response","247","226918","0.0-247.0","32EYX73OY1VFU7DQQZ1HYVE5S8HURX","AMVBT3XDCQBHI","3PEG1BH7AEDCPKTV9M6N3A4F0EHKBR","","694.7999999523163","img/land1.png","74","695.5","1","0","1","2","0.8,0.2,0.2,0.2,0.8,0.2,0.2,0.2,0.8","0.2,0.2,0.8,0.8,0.2,0.2,0.2,0.8,0.2","2","",""
"","html-keyboard-response","248","227219","0.0-248.0","32EYX73OY1VFU7DQQZ1HYVE5S8HURX","AMVBT3XDCQBHI","3PEG1BH7AEDCPKTV9M6N3A4F0EHKBR","","null","<img src=""img/land1.png"" style=""width:200px;border:14px solid red;"">","null","","","","","","","","","",""
"","image-keyboard-response","249","227863","0.0-249.0","32EYX73OY1VFU7DQQZ1HYVE5S8HURX","AMVBT3XDCQBHI","3PEG1BH7AEDCPKTV9M6N3A4F0EHKBR","","642.7000000476837","img/land1.png","74","643.5999999642372","1","0","1","2","0.8,0.2,0.2,0.2,0.8,0.2,0.2,0.2,0.8","0.2,0.2,0.8,0.8,0.2,0.2,0.2,0.8,0.2","2","",""
"","html-keyboard-response","250","228165","0.0-250.0","32EYX73OY1VFU7DQQZ1HYVE5S8HURX","AMVBT3XDCQBHI","3PEG1BH7AEDCPKTV9M6N3A4F0EHKBR","","null","<img src=""img/land1.png"" style=""width:200px;border:14px solid red;"">","null","","","","","","","","","",""
"","image-keyboard-response","251","228832","0.0-251.0","32EYX73OY1VFU7DQQZ1HYVE5S8HURX","AMVBT3XDCQBHI","3PEG1BH7AEDCPKTV9M6N3A4F0EHKBR","","665.9000000357628","img/land1.png","74","666.9000000357628","1","0","1","2","0.8,0.2,0.2,0.2,0.8,0.2,0.2,0.2,0.8","0.2,0.2,0.8,0.8,0.2,0.2,0.2,0.8,0.2","2","",""
"","html-keyboard-response","252","229133","0.0-252.0","32EYX73OY1VFU7DQQZ1HYVE5S8HURX","AMVBT3XDCQBHI","3PEG1BH7AEDCPKTV9M6N3A4F0EHKBR","","null","<img src=""img/land1.png"" style=""width:200px;border:14px solid red;"">","null","","","","","","","","","",""
"","image-keyboard-response","253","229697","0.0-253.0","32EYX73OY1VFU7DQQZ1HYVE5S8HURX","AMVBT3XDCQBHI","3PEG1BH7AEDCPKTV9M6N3A4F0EHKBR","","562.5999999642372","img/land1.png","74","563.5","1","0","1","2","0.8,0.2,0.2,0.2,0.8,0.2,0.2,0.2,0.8","0.2,0.2,0.8,0.8,0.2,0.2,0.2,0.8,0.2","2","",""
"","html-keyboard-response","254","230013","0.0-254.0","32EYX73OY1VFU7DQQZ1HYVE5S8HURX","AMVBT3XDCQBHI","3PEG1BH7AEDCPKTV9M6N3A4F0EHKBR","","null","<img src=""img/land1.png"" style=""width:200px;border:14px solid red;"">","null","","","","","","","","","",""
"","image-keyboard-response","255","231115","0.0-255.0","32EYX73OY1VFU7DQQZ1HYVE5S8HURX","AMVBT3XDCQBHI","3PEG1BH7AEDCPKTV9M6N3A4F0EHKBR","","1101","img/land4.png","76","1101.8999999761581","3","0","2","2","0.8,0.2,0.2,0.2,0.8,0.2,0.2,0.2,0.8","0.2,0.2,0.8,0.8,0.2,0.2,0.2,0.8,0.2","2","",""
"","html-keyboard-response","256","231418","0.0-256.0","32EYX73OY1VFU7DQQZ1HYVE5S8HURX","AMVBT3XDCQBHI","3PEG1BH7AEDCPKTV9M6N3A4F0EHKBR","","null","<img src=""img/land4.png"" style=""width:200px;border:14px solid red;"">","null","","","","","","","","","",""
"","image-keyboard-response","257","232277","0.0-257.0","32EYX73OY1VFU7DQQZ1HYVE5S8HURX","AMVBT3XDCQBHI","3PEG1BH7AEDCPKTV9M6N3A4F0EHKBR","","857.5","img/land1.png","74","858.3000000119209","1","0","1","2","0.8,0.2,0.2,0.2,0.8,0.2,0.2,0.2,0.8","0.2,0.2,0.8,0.8,0.2,0.2,0.2,0.8,0.2","2","",""
"","html-keyboard-response","258","232579","0.0-258.0","32EYX73OY1VFU7DQQZ1HYVE5S8HURX","AMVBT3XDCQBHI","3PEG1BH7AEDCPKTV9M6N3A4F0EHKBR","","null","<img src=""img/land1.png"" style=""width:200px;border:14px solid red;"">","null","","","","","","","","","",""
"","image-keyboard-response","259","233131","0.0-259.0","32EYX73OY1VFU7DQQZ1HYVE5S8HURX","AMVBT3XDCQBHI","3PEG1BH7AEDCPKTV9M6N3A4F0EHKBR","","550.6000000238419","img/land1.png","74","551.5","1","0","1","2","0.8,0.2,0.2,0.2,0.8,0.2,0.2,0.2,0.8","0.2,0.2,0.8,0.8,0.2,0.2,0.2,0.8,0.2","2","",""
"","html-keyboard-response","260","233433","0.0-260.0","32EYX73OY1VFU7DQQZ1HYVE5S8HURX","AMVBT3XDCQBHI","3PEG1BH7AEDCPKTV9M6N3A4F0EHKBR","","null","<img src=""img/land1.png"" style=""width:200px;border:14px solid red;"">","null","","","","","","","","","",""
"","image-keyboard-response","261","234001","0.0-261.0","32EYX73OY1VFU7DQQZ1HYVE5S8HURX","AMVBT3XDCQBHI","3PEG1BH7AEDCPKTV9M6N3A4F0EHKBR","","566.8000000119209","img/land1.png","74","567.6999999880791","1","0","1","2","0.8,0.2,0.2,0.2,0.8,0.2,0.2,0.2,0.8","0.2,0.2,0.8,0.8,0.2,0.2,0.2,0.8,0.2","2","",""
"","html-keyboard-response","262","234302","0.0-262.0","32EYX73OY1VFU7DQQZ1HYVE5S8HURX","AMVBT3XDCQBHI","3PEG1BH7AEDCPKTV9M6N3A4F0EHKBR","","null","<img src=""img/land1.png"" style=""width:200px;border:14px solid red;"">","null","","","","","","","","","",""
"","image-keyboard-response","263","234856","0.0-263.0","32EYX73OY1VFU7DQQZ1HYVE5S8HURX","AMVBT3XDCQBHI","3PEG1BH7AEDCPKTV9M6N3A4F0EHKBR","","553.1999999880791","img/land1.png","74","554.1999999880791","1","1","1","2","0.8,0.2,0.2,0.2,0.8,0.2,0.2,0.2,0.8","0.2,0.2,0.8,0.8,0.2,0.2,0.2,0.8,0.2","2","",""
"","html-keyboard-response","264","235158","0.0-264.0","32EYX73OY1VFU7DQQZ1HYVE5S8HURX","AMVBT3XDCQBHI","3PEG1BH7AEDCPKTV9M6N3A4F0EHKBR","","null","<img src=""img/land1.png"" style=""width:200px; border:14px solid green;"">","null","","","","","","","","","",""
"","image-keyboard-response","265","235777","0.0-265.0","32EYX73OY1VFU7DQQZ1HYVE5S8HURX","AMVBT3XDCQBHI","3PEG1BH7AEDCPKTV9M6N3A4F0EHKBR","","617.7999999523163","img/land1.png","74","619.5","1","0","1","2","0.8,0.2,0.2,0.2,0.8,0.2,0.2,0.2,0.8","0.2,0.2,0.8,0.8,0.2,0.2,0.2,0.8,0.2","2","",""
"","html-keyboard-response","266","236079","0.0-266.0","32EYX73OY1VFU7DQQZ1HYVE5S8HURX","AMVBT3XDCQBHI","3PEG1BH7AEDCPKTV9M6N3A4F0EHKBR","","null","<img src=""img/land1.png"" style=""width:200px;border:14px solid red;"">","null","","","","","","","","","",""
"","image-keyboard-response","267","237085","0.0-267.0","32EYX73OY1VFU7DQQZ1HYVE5S8HURX","AMVBT3XDCQBHI","3PEG1BH7AEDCPKTV9M6N3A4F0EHKBR","","1004.6999999880791","img/land4.png","76","1005.5","3","0","2","2","0.8,0.2,0.2,0.2,0.8,0.2,0.2,0.2,0.8","0.2,0.2,0.8,0.8,0.2,0.2,0.2,0.8,0.2","2","",""
"","html-keyboard-response","268","237387","0.0-268.0","32EYX73OY1VFU7DQQZ1HYVE5S8HURX","AMVBT3XDCQBHI","3PEG1BH7AEDCPKTV9M6N3A4F0EHKBR","","null","<img src=""img/land4.png"" style=""width:200px;border:14px solid red;"">","null","","","","","","","","","",""
"","image-keyboard-response","269","238324","0.0-269.0","32EYX73OY1VFU7DQQZ1HYVE5S8HURX","AMVBT3XDCQBHI","3PEG1BH7AEDCPKTV9M6N3A4F0EHKBR","","936.2999999523163","img/land1.png","74","937","1","0","1","2","0.8,0.2,0.2,0.2,0.8,0.2,0.2,0.2,0.8","0.2,0.2,0.8,0.8,0.2,0.2,0.2,0.8,0.2","2","",""
"","html-keyboard-response","270","238626","0.0-270.0","32EYX73OY1VFU7DQQZ1HYVE5S8HURX","AMVBT3XDCQBHI","3PEG1BH7AEDCPKTV9M6N3A4F0EHKBR","","null","<img src=""img/land1.png"" style=""width:200px;border:14px solid red;"">","null","","","","","","","","","",""
"","image-keyboard-response","271","239078","0.0-271.0","32EYX73OY1VFU7DQQZ1HYVE5S8HURX","AMVBT3XDCQBHI","3PEG1BH7AEDCPKTV9M6N3A4F0EHKBR","","450.80000001192093","img/land1.png","74","451.89999997615814","1","1","1","2","0.8,0.2,0.2,0.2,0.8,0.2,0.2,0.2,0.8","0.2,0.2,0.8,0.8,0.2,0.2,0.2,0.8,0.2","2","",""
"","html-keyboard-response","272","239380","0.0-272.0","32EYX73OY1VFU7DQQZ1HYVE5S8HURX","AMVBT3XDCQBHI","3PEG1BH7AEDCPKTV9M6N3A4F0EHKBR","","null","<img src=""img/land1.png"" style=""width:200px; border:14px solid green;"">","null","","","","","","","","","",""
"","image-keyboard-response","273","240101","0.0-273.0","32EYX73OY1VFU7DQQZ1HYVE5S8HURX","AMVBT3XDCQBHI","3PEG1BH7AEDCPKTV9M6N3A4F0EHKBR","","719.7999999523163","img/land1.png","74","720.5999999642372","1","0","1","2","0.8,0.2,0.2,0.2,0.8,0.2,0.2,0.2,0.8","0.2,0.2,0.8,0.8,0.2,0.2,0.2,0.8,0.2","2","",""
"","html-keyboard-response","274","240402","0.0-274.0","32EYX73OY1VFU7DQQZ1HYVE5S8HURX","AMVBT3XDCQBHI","3PEG1BH7AEDCPKTV9M6N3A4F0EHKBR","","null","<img src=""img/land1.png"" style=""width:200px;border:14px solid red;"">","null","","","","","","","","","",""
"","image-keyboard-response","275","241010","0.0-275.0","32EYX73OY1VFU7DQQZ1HYVE5S8HURX","AMVBT3XDCQBHI","3PEG1BH7AEDCPKTV9M6N3A4F0EHKBR","","606.0999999642372","img/land1.png","74","607.0999999642372","1","0","1","2","0.8,0.2,0.2,0.2,0.8,0.2,0.2,0.2,0.8","0.2,0.2,0.8,0.8,0.2,0.2,0.2,0.8,0.2","2","",""
"","html-keyboard-response","276","241311","0.0-276.0","32EYX73OY1VFU7DQQZ1HYVE5S8HURX","AMVBT3XDCQBHI","3PEG1BH7AEDCPKTV9M6N3A4F0EHKBR","","null","<img src=""img/land1.png"" style=""width:200px;border:14px solid red;"">","null","","","","","","","","","",""
"","image-keyboard-response","277","241966","0.0-277.0","32EYX73OY1VFU7DQQZ1HYVE5S8HURX","AMVBT3XDCQBHI","3PEG1BH7AEDCPKTV9M6N3A4F0EHKBR","","653.6999999880791","img/land1.png","74","654.3999999761581","1","0","1","2","0.8,0.2,0.2,0.2,0.8,0.2,0.2,0.2,0.8","0.2,0.2,0.8,0.8,0.2,0.2,0.2,0.8,0.2","2","",""
"","html-keyboard-response","278","242268","0.0-278.0","32EYX73OY1VFU7DQQZ1HYVE5S8HURX","AMVBT3XDCQBHI","3PEG1BH7AEDCPKTV9M6N3A4F0EHKBR","","null","<img src=""img/land1.png"" style=""width:200px;border:14px solid red;"">","null","","","","","","","","","",""
"","image-keyboard-response","279","242850","0.0-279.0","32EYX73OY1VFU7DQQZ1HYVE5S8HURX","AMVBT3XDCQBHI","3PEG1BH7AEDCPKTV9M6N3A4F0EHKBR","","581.3999999761581","img/land1.png","74","582.2999999523163","1","0","1","2","0.8,0.2,0.2,0.2,0.8,0.2,0.2,0.2,0.8","0.2,0.2,0.8,0.8,0.2,0.2,0.2,0.8,0.2","2","",""
"","html-keyboard-response","280","243152","0.0-280.0","32EYX73OY1VFU7DQQZ1HYVE5S8HURX","AMVBT3XDCQBHI","3PEG1BH7AEDCPKTV9M6N3A4F0EHKBR","","null","<img src=""img/land1.png"" style=""width:200px;border:14px solid red;"">","null","","","","","","","","","",""
"","image-keyboard-response","281","244079","0.0-281.0","32EYX73OY1VFU7DQQZ1HYVE5S8HURX","AMVBT3XDCQBHI","3PEG1BH7AEDCPKTV9M6N3A4F0EHKBR","","925.1999999880791","img/land4.png","76","926.0999999642372","3","0","2","2","0.8,0.2,0.2,0.2,0.8,0.2,0.2,0.2,0.8","0.2,0.2,0.8,0.8,0.2,0.2,0.2,0.8,0.2","2","",""
"","html-keyboard-response","282","244380","0.0-282.0","32EYX73OY1VFU7DQQZ1HYVE5S8HURX","AMVBT3XDCQBHI","3PEG1BH7AEDCPKTV9M6N3A4F0EHKBR","","null","<img src=""img/land4.png"" style=""width:200px;border:14px solid red;"">","null","","","","","","","","","",""
"","image-keyboard-response","283","245037","0.0-283.0","32EYX73OY1VFU7DQQZ1HYVE5S8HURX","AMVBT3XDCQBHI","3PEG1BH7AEDCPKTV9M6N3A4F0EHKBR","","655.4000000357628","img/land1.png","74","656.1999999880791","1","1","1","2","0.8,0.2,0.2,0.2,0.8,0.2,0.2,0.2,0.8","0.2,0.2,0.8,0.8,0.2,0.2,0.2,0.8,0.2","2","",""
"","html-keyboard-response","284","245338","0.0-284.0","32EYX73OY1VFU7DQQZ1HYVE5S8HURX","AMVBT3XDCQBHI","3PEG1BH7AEDCPKTV9M6N3A4F0EHKBR","","null","<img src=""img/land1.png"" style=""width:200px; border:14px solid green;"">","null","","","","","","","","","",""
"","image-keyboard-response","285","245867","0.0-285.0","32EYX73OY1VFU7DQQZ1HYVE5S8HURX","AMVBT3XDCQBHI","3PEG1BH7AEDCPKTV9M6N3A4F0EHKBR","","528.0999999642372","img/land1.png","74","528.9000000357628","1","0","1","2","0.8,0.2,0.2,0.2,0.8,0.2,0.2,0.2,0.8","0.2,0.2,0.8,0.8,0.2,0.2,0.2,0.8,0.2","2","",""
"","html-keyboard-response","286","246169","0.0-286.0","32EYX73OY1VFU7DQQZ1HYVE5S8HURX","AMVBT3XDCQBHI","3PEG1BH7AEDCPKTV9M6N3A4F0EHKBR","","null","<img src=""img/land1.png"" style=""width:200px;border:14px solid red;"">","null","","","","","","","","","",""
"","image-keyboard-response","287","247186","0.0-287.0","32EYX73OY1VFU7DQQZ1HYVE5S8HURX","AMVBT3XDCQBHI","3PEG1BH7AEDCPKTV9M6N3A4F0EHKBR","","1016","img/land4.png","76","1016.8999999761581","3","0","2","2","0.8,0.2,0.2,0.2,0.8,0.2,0.2,0.2,0.8","0.2,0.2,0.8,0.8,0.2,0.2,0.2,0.8,0.2","2","",""
"","html-keyboard-response","288","247488","0.0-288.0","32EYX73OY1VFU7DQQZ1HYVE5S8HURX","AMVBT3XDCQBHI","3PEG1BH7AEDCPKTV9M6N3A4F0EHKBR","","null","<img src=""img/land4.png"" style=""width:200px;border:14px solid red;"">","null","","","","","","","","","",""
"","image-keyboard-response","289","248317","0.0-289.0","32EYX73OY1VFU7DQQZ1HYVE5S8HURX","AMVBT3XDCQBHI","3PEG1BH7AEDCPKTV9M6N3A4F0EHKBR","","828.4000000357628","img/land4.png","76","829.1999999880791","3","0","2","2","0.8,0.2,0.2,0.2,0.8,0.2,0.2,0.2,0.8","0.2,0.2,0.8,0.8,0.2,0.2,0.2,0.8,0.2","2","",""
"","html-keyboard-response","290","248619","0.0-290.0","32EYX73OY1VFU7DQQZ1HYVE5S8HURX","AMVBT3XDCQBHI","3PEG1BH7AEDCPKTV9M6N3A4F0EHKBR","","null","<img src=""img/land4.png"" style=""width:200px;border:14px solid red;"">","null","","","","","","","","","",""
"","image-keyboard-response","291","249367","0.0-291.0","32EYX73OY1VFU7DQQZ1HYVE5S8HURX","AMVBT3XDCQBHI","3PEG1BH7AEDCPKTV9M6N3A4F0EHKBR","","746.8000000119209","img/land1.png","74","747.7000000476837","1","0","1","2","0.8,0.2,0.2,0.2,0.8,0.2,0.2,0.2,0.8","0.2,0.2,0.8,0.8,0.2,0.2,0.2,0.8,0.2","2","",""
"","html-keyboard-response","292","249668","0.0-292.0","32EYX73OY1VFU7DQQZ1HYVE5S8HURX","AMVBT3XDCQBHI","3PEG1BH7AEDCPKTV9M6N3A4F0EHKBR","","null","<img src=""img/land1.png"" style=""width:200px;border:14px solid red;"">","null","","","","","","","","","",""
"","image-keyboard-response","293","251670","0.0-293.0","32EYX73OY1VFU7DQQZ1HYVE5S8HURX","AMVBT3XDCQBHI","3PEG1BH7AEDCPKTV9M6N3A4F0EHKBR","","","img/land5.png","","2001.699999988079","-1","0","3","2","0.8,0.2,0.2,0.2,0.8,0.2,0.2,0.2,0.8","0.2,0.2,0.8,0.8,0.2,0.2,0.2,0.8,0.2","2","",""
"","html-keyboard-response","294","251972","0.0-294.0","32EYX73OY1VFU7DQQZ1HYVE5S8HURX","AMVBT3XDCQBHI","3PEG1BH7AEDCPKTV9M6N3A4F0EHKBR","","null","<img src=""img/land5.png"" style=""width:200px;border:14px solid red;"">","null","","","","","","","","","",""
"","image-keyboard-response","295","251999","0.0-295.0","32EYX73OY1VFU7DQQZ1HYVE5S8HURX","AMVBT3XDCQBHI","3PEG1BH7AEDCPKTV9M6N3A4F0EHKBR","","25.69999998807907","img/land1.png","75","26.5","2","0","1","2","0.8,0.2,0.2,0.2,0.8,0.2,0.2,0.2,0.8","0.2,0.2,0.8,0.8,0.2,0.2,0.2,0.8,0.2","2","",""
"","html-keyboard-response","296","252300","0.0-296.0","32EYX73OY1VFU7DQQZ1HYVE5S8HURX","AMVBT3XDCQBHI","3PEG1BH7AEDCPKTV9M6N3A4F0EHKBR","","null","<img src=""img/land1.png"" style=""width:200px;border:14px solid red;"">","null","","","","","","","","","",""
"","image-keyboard-response","297","252983","0.0-297.0","32EYX73OY1VFU7DQQZ1HYVE5S8HURX","AMVBT3XDCQBHI","3PEG1BH7AEDCPKTV9M6N3A4F0EHKBR","","681.8000000119209","img/land1.png","74","682.8000000119209","1","0","1","2","0.8,0.2,0.2,0.2,0.8,0.2,0.2,0.2,0.8","0.2,0.2,0.8,0.8,0.2,0.2,0.2,0.8,0.2","2","",""
"","html-keyboard-response","298","253284","0.0-298.0","32EYX73OY1VFU7DQQZ1HYVE5S8HURX","AMVBT3XDCQBHI","3PEG1BH7AEDCPKTV9M6N3A4F0EHKBR","","null","<img src=""img/land1.png"" style=""width:200px;border:14px solid red;"">","null","","","","","","","","","",""
"","image-keyboard-response","299","253905","0.0-299.0","32EYX73OY1VFU7DQQZ1HYVE5S8HURX","AMVBT3XDCQBHI","3PEG1BH7AEDCPKTV9M6N3A4F0EHKBR","","619.8000000119209","img/land1.png","74","620.6999999880791","1","0","1","2","0.8,0.2,0.2,0.2,0.8,0.2,0.2,0.2,0.8","0.2,0.2,0.8,0.8,0.2,0.2,0.2,0.8,0.2","2","",""
"","html-keyboard-response","300","254208","0.0-300.0","32EYX73OY1VFU7DQQZ1HYVE5S8HURX","AMVBT3XDCQBHI","3PEG1BH7AEDCPKTV9M6N3A4F0EHKBR","","null","<img src=""img/land1.png"" style=""width:200px;border:14px solid red;"">","null","","","","","","","","","",""
"","image-keyboard-response","301","255120","0.0-301.0","32EYX73OY1VFU7DQQZ1HYVE5S8HURX","AMVBT3XDCQBHI","3PEG1BH7AEDCPKTV9M6N3A4F0EHKBR","","911.3999999761581","img/land4.png","76","912.2000000476837","3","1","2","2","0.8,0.2,0.2,0.2,0.8,0.2,0.2,0.2,0.8","0.2,0.2,0.8,0.8,0.2,0.2,0.2,0.8,0.2","2","",""
"","html-keyboard-response","302","255422","0.0-302.0","32EYX73OY1VFU7DQQZ1HYVE5S8HURX","AMVBT3XDCQBHI","3PEG1BH7AEDCPKTV9M6N3A4F0EHKBR","","null","<img src=""img/land4.png"" style=""width:200px; border:14px solid green;"">","null","","","","","","","","","",""
"","image-keyboard-response","303","256396","0.0-303.0","32EYX73OY1VFU7DQQZ1HYVE5S8HURX","AMVBT3XDCQBHI","3PEG1BH7AEDCPKTV9M6N3A4F0EHKBR","","972.4000000357628","img/land1.png","74","973.0999999642372","1","0","1","2","0.8,0.2,0.2,0.2,0.8,0.2,0.2,0.2,0.8","0.2,0.2,0.8,0.8,0.2,0.2,0.2,0.8,0.2","2","",""
"","html-keyboard-response","304","256711","0.0-304.0","32EYX73OY1VFU7DQQZ1HYVE5S8HURX","AMVBT3XDCQBHI","3PEG1BH7AEDCPKTV9M6N3A4F0EHKBR","","null","<img src=""img/land1.png"" style=""width:200px;border:14px solid red;"">","null","","","","","","","","","",""
"","image-keyboard-response","305","257264","0.0-305.0","32EYX73OY1VFU7DQQZ1HYVE5S8HURX","AMVBT3XDCQBHI","3PEG1BH7AEDCPKTV9M6N3A4F0EHKBR","","551.1999999880791","img/land1.png","74","552","1","0","1","2","0.8,0.2,0.2,0.2,0.8,0.2,0.2,0.2,0.8","0.2,0.2,0.8,0.8,0.2,0.2,0.2,0.8,0.2","2","",""
"","html-keyboard-response","306","257565","0.0-306.0","32EYX73OY1VFU7DQQZ1HYVE5S8HURX","AMVBT3XDCQBHI","3PEG1BH7AEDCPKTV9M6N3A4F0EHKBR","","null","<img src=""img/land1.png"" style=""width:200px;border:14px solid red;"">","null","","","","","","","","","",""
"","image-keyboard-response","307","258200","0.0-307.0","32EYX73OY1VFU7DQQZ1HYVE5S8HURX","AMVBT3XDCQBHI","3PEG1BH7AEDCPKTV9M6N3A4F0EHKBR","","633.2999999523163","img/land1.png","74","634.3000000119209","1","0","1","2","0.8,0.2,0.2,0.2,0.8,0.2,0.2,0.2,0.8","0.2,0.2,0.8,0.8,0.2,0.2,0.2,0.8,0.2","2","",""
"","html-keyboard-response","308","258501","0.0-308.0","32EYX73OY1VFU7DQQZ1HYVE5S8HURX","AMVBT3XDCQBHI","3PEG1BH7AEDCPKTV9M6N3A4F0EHKBR","","null","<img src=""img/land1.png"" style=""width:200px;border:14px solid red;"">","null","","","","","","","","","",""
"","image-keyboard-response","309","259120","0.0-309.0","32EYX73OY1VFU7DQQZ1HYVE5S8HURX","AMVBT3XDCQBHI","3PEG1BH7AEDCPKTV9M6N3A4F0EHKBR","","618.1000000238419","img/land1.png","74","618.8999999761581","1","0","1","2","0.8,0.2,0.2,0.2,0.8,0.2,0.2,0.2,0.8","0.2,0.2,0.8,0.8,0.2,0.2,0.2,0.8,0.2","2","",""
"","html-keyboard-response","310","259422","0.0-310.0","32EYX73OY1VFU7DQQZ1HYVE5S8HURX","AMVBT3XDCQBHI","3PEG1BH7AEDCPKTV9M6N3A4F0EHKBR","","null","<img src=""img/land1.png"" style=""width:200px;border:14px solid red;"">","null","","","","","","","","","",""
"","image-keyboard-response","311","260266","0.0-311.0","32EYX73OY1VFU7DQQZ1HYVE5S8HURX","AMVBT3XDCQBHI","3PEG1BH7AEDCPKTV9M6N3A4F0EHKBR","","843.1000000238419","img/land5.png","75","843.8999999761581","2","1","3","2","0.8,0.2,0.2,0.2,0.8,0.2,0.2,0.2,0.8","0.2,0.2,0.8,0.8,0.2,0.2,0.2,0.8,0.2","2","",""
"","html-keyboard-response","312","260568","0.0-312.0","32EYX73OY1VFU7DQQZ1HYVE5S8HURX","AMVBT3XDCQBHI","3PEG1BH7AEDCPKTV9M6N3A4F0EHKBR","","null","<img src=""img/land5.png"" style=""width:200px; border:14px solid green;"">","null","","","","","","","","","",""
"","image-keyboard-response","313","261408","0.0-313.0","32EYX73OY1VFU7DQQZ1HYVE5S8HURX","AMVBT3XDCQBHI","3PEG1BH7AEDCPKTV9M6N3A4F0EHKBR","","838.3000000119209","img/land1.png","74","839.2000000476837","1","0","1","2","0.8,0.2,0.2,0.2,0.8,0.2,0.2,0.2,0.8","0.2,0.2,0.8,0.8,0.2,0.2,0.2,0.8,0.2","2","",""
"","html-keyboard-response","314","261710","0.0-314.0","32EYX73OY1VFU7DQQZ1HYVE5S8HURX","AMVBT3XDCQBHI","3PEG1BH7AEDCPKTV9M6N3A4F0EHKBR","","null","<img src=""img/land1.png"" style=""width:200px;border:14px solid red;"">","null","","","","","","","","","",""
"","image-keyboard-response","315","262618","0.0-315.0","32EYX73OY1VFU7DQQZ1HYVE5S8HURX","AMVBT3XDCQBHI","3PEG1BH7AEDCPKTV9M6N3A4F0EHKBR","","907.0999999642372","img/land4.png","76","908","3","0","2","2","0.8,0.2,0.2,0.2,0.8,0.2,0.2,0.2,0.8","0.2,0.2,0.8,0.8,0.2,0.2,0.2,0.8,0.2","2","",""
"","html-keyboard-response","316","262920","0.0-316.0","32EYX73OY1VFU7DQQZ1HYVE5S8HURX","AMVBT3XDCQBHI","3PEG1BH7AEDCPKTV9M6N3A4F0EHKBR","","null","<img src=""img/land4.png"" style=""width:200px;border:14px solid red;"">","null","","","","","","","","","",""
"","image-keyboard-response","317","263704","0.0-317.0","32EYX73OY1VFU7DQQZ1HYVE5S8HURX","AMVBT3XDCQBHI","3PEG1BH7AEDCPKTV9M6N3A4F0EHKBR","","783.1000000238419","img/land4.png","76","783.9000000357628","3","0","2","2","0.8,0.2,0.2,0.2,0.8,0.2,0.2,0.2,0.8","0.2,0.2,0.8,0.8,0.2,0.2,0.2,0.8,0.2","2","",""
"","html-keyboard-response","318","264006","0.0-318.0","32EYX73OY1VFU7DQQZ1HYVE5S8HURX","AMVBT3XDCQBHI","3PEG1BH7AEDCPKTV9M6N3A4F0EHKBR","","null","<img src=""img/land4.png"" style=""width:200px;border:14px solid red;"">","null","","","","","","","","","",""
"","image-keyboard-response","319","265112","0.0-319.0","32EYX73OY1VFU7DQQZ1HYVE5S8HURX","AMVBT3XDCQBHI","3PEG1BH7AEDCPKTV9M6N3A4F0EHKBR","","1105.199999988079","img/land1.png","74","1106","1","0","1","2","0.8,0.2,0.2,0.2,0.8,0.2,0.2,0.2,0.8","0.2,0.2,0.8,0.8,0.2,0.2,0.2,0.8,0.2","2","",""
"","html-keyboard-response","320","265414","0.0-320.0","32EYX73OY1VFU7DQQZ1HYVE5S8HURX","AMVBT3XDCQBHI","3PEG1BH7AEDCPKTV9M6N3A4F0EHKBR","","null","<img src=""img/land1.png"" style=""width:200px;border:14px solid red;"">","null","","","","","","","","","",""
"","image-keyboard-response","321","266812","0.0-321.0","32EYX73OY1VFU7DQQZ1HYVE5S8HURX","AMVBT3XDCQBHI","3PEG1BH7AEDCPKTV9M6N3A4F0EHKBR","","1396.7000000476837","img/land5.png","75","1397.6000000238419","2","1","3","2","0.8,0.2,0.2,0.2,0.8,0.2,0.2,0.2,0.8","0.2,0.2,0.8,0.8,0.2,0.2,0.2,0.8,0.2","2","",""
"","html-keyboard-response","322","267117","0.0-322.0","32EYX73OY1VFU7DQQZ1HYVE5S8HURX","AMVBT3XDCQBHI","3PEG1BH7AEDCPKTV9M6N3A4F0EHKBR","","null","<img src=""img/land5.png"" style=""width:200px; border:14px solid green;"">","null","","","","","","","","","",""
"","image-keyboard-response","323","267799","0.0-323.0","32EYX73OY1VFU7DQQZ1HYVE5S8HURX","AMVBT3XDCQBHI","3PEG1BH7AEDCPKTV9M6N3A4F0EHKBR","","680.3999999761581","img/land5.png","75","681.3000000119209","2","0","3","2","0.8,0.2,0.2,0.2,0.8,0.2,0.2,0.2,0.8","0.2,0.2,0.8,0.8,0.2,0.2,0.2,0.8,0.2","2","",""
"","html-keyboard-response","324","268100","0.0-324.0","32EYX73OY1VFU7DQQZ1HYVE5S8HURX","AMVBT3XDCQBHI","3PEG1BH7AEDCPKTV9M6N3A4F0EHKBR","","null","<img src=""img/land5.png"" style=""width:200px;border:14px solid red;"">","null","","","","","","","","","",""
"","image-keyboard-response","325","268807","0.0-325.0","32EYX73OY1VFU7DQQZ1HYVE5S8HURX","AMVBT3XDCQBHI","3PEG1BH7AEDCPKTV9M6N3A4F0EHKBR","","705.9000000357628","img/land5.png","75","706.8000000119209","2","1","3","2","0.8,0.2,0.2,0.2,0.8,0.2,0.2,0.2,0.8","0.2,0.2,0.8,0.8,0.2,0.2,0.2,0.8,0.2","2","",""
"","html-keyboard-response","326","269108","0.0-326.0","32EYX73OY1VFU7DQQZ1HYVE5S8HURX","AMVBT3XDCQBHI","3PEG1BH7AEDCPKTV9M6N3A4F0EHKBR","","null","<img src=""img/land5.png"" style=""width:200px; border:14px solid green;"">","null","","","","","","","","","",""
"","image-keyboard-response","327","269926","0.0-327.0","32EYX73OY1VFU7DQQZ1HYVE5S8HURX","AMVBT3XDCQBHI","3PEG1BH7AEDCPKTV9M6N3A4F0EHKBR","","816.3000000119209","img/land1.png","74","817.1999999880791","1","1","1","2","0.8,0.2,0.2,0.2,0.8,0.2,0.2,0.2,0.8","0.2,0.2,0.8,0.8,0.2,0.2,0.2,0.8,0.2","2","",""
"","html-keyboard-response","328","270228","0.0-328.0","32EYX73OY1VFU7DQQZ1HYVE5S8HURX","AMVBT3XDCQBHI","3PEG1BH7AEDCPKTV9M6N3A4F0EHKBR","","null","<img src=""img/land1.png"" style=""width:200px; border:14px solid green;"">","null","","","","","","","","","",""
"","image-keyboard-response","329","271767","0.0-329.0","32EYX73OY1VFU7DQQZ1HYVE5S8HURX","AMVBT3XDCQBHI","3PEG1BH7AEDCPKTV9M6N3A4F0EHKBR","","1537.8999999761581","img/land4.png","76","1538.800000011921","3","0","2","2","0.8,0.2,0.2,0.2,0.8,0.2,0.2,0.2,0.8","0.2,0.2,0.8,0.8,0.2,0.2,0.2,0.8,0.2","2","",""
"","html-keyboard-response","330","272069","0.0-330.0","32EYX73OY1VFU7DQQZ1HYVE5S8HURX","AMVBT3XDCQBHI","3PEG1BH7AEDCPKTV9M6N3A4F0EHKBR","","null","<img src=""img/land4.png"" style=""width:200px;border:14px solid red;"">","null","","","","","","","","","",""
"","image-keyboard-response","331","272991","0.0-331.0","32EYX73OY1VFU7DQQZ1HYVE5S8HURX","AMVBT3XDCQBHI","3PEG1BH7AEDCPKTV9M6N3A4F0EHKBR","","920.9000000357628","img/land1.png","74","921.8000000119209","1","0","1","2","0.8,0.2,0.2,0.2,0.8,0.2,0.2,0.2,0.8","0.2,0.2,0.8,0.8,0.2,0.2,0.2,0.8,0.2","2","",""
"","html-keyboard-response","332","273292","0.0-332.0","32EYX73OY1VFU7DQQZ1HYVE5S8HURX","AMVBT3XDCQBHI","3PEG1BH7AEDCPKTV9M6N3A4F0EHKBR","","null","<img src=""img/land1.png"" style=""width:200px;border:14px solid red;"">","null","","","","","","","","","",""
"","image-keyboard-response","333","273921","0.0-333.0","32EYX73OY1VFU7DQQZ1HYVE5S8HURX","AMVBT3XDCQBHI","3PEG1BH7AEDCPKTV9M6N3A4F0EHKBR","","627.3000000119209","img/land1.png","74","628.0999999642372","1","0","1","2","0.8,0.2,0.2,0.2,0.8,0.2,0.2,0.2,0.8","0.2,0.2,0.8,0.8,0.2,0.2,0.2,0.8,0.2","2","",""
"","html-keyboard-response","334","274222","0.0-334.0","32EYX73OY1VFU7DQQZ1HYVE5S8HURX","AMVBT3XDCQBHI","3PEG1BH7AEDCPKTV9M6N3A4F0EHKBR","","null","<img src=""img/land1.png"" style=""width:200px;border:14px solid red;"">","null","","","","","","","","","",""
"","image-keyboard-response","335","275449","0.0-335.0","32EYX73OY1VFU7DQQZ1HYVE5S8HURX","AMVBT3XDCQBHI","3PEG1BH7AEDCPKTV9M6N3A4F0EHKBR","","1225.3999999761581","img/land5.png","75","1226.300000011921","2","1","3","2","0.8,0.2,0.2,0.2,0.8,0.2,0.2,0.2,0.8","0.2,0.2,0.8,0.8,0.2,0.2,0.2,0.8,0.2","2","",""
"","html-keyboard-response","336","275750","0.0-336.0","32EYX73OY1VFU7DQQZ1HYVE5S8HURX","AMVBT3XDCQBHI","3PEG1BH7AEDCPKTV9M6N3A4F0EHKBR","","null","<img src=""img/land5.png"" style=""width:200px; border:14px solid green;"">","null","","","","","","","","","",""
"","image-keyboard-response","337","276617","0.0-337.0","32EYX73OY1VFU7DQQZ1HYVE5S8HURX","AMVBT3XDCQBHI","3PEG1BH7AEDCPKTV9M6N3A4F0EHKBR","","866","img/land1.png","74","866.8999999761581","1","0","1","2","0.8,0.2,0.2,0.2,0.8,0.2,0.2,0.2,0.8","0.2,0.2,0.8,0.8,0.2,0.2,0.2,0.8,0.2","2","",""
"","html-keyboard-response","338","276919","0.0-338.0","32EYX73OY1VFU7DQQZ1HYVE5S8HURX","AMVBT3XDCQBHI","3PEG1BH7AEDCPKTV9M6N3A4F0EHKBR","","null","<img src=""img/land1.png"" style=""width:200px;border:14px solid red;"">","null","","","","","","","","","",""
"","image-keyboard-response","339","278216","0.0-339.0","32EYX73OY1VFU7DQQZ1HYVE5S8HURX","AMVBT3XDCQBHI","3PEG1BH7AEDCPKTV9M6N3A4F0EHKBR","","1295.5999999642372","img/land4.png","76","1296.6000000238419","3","0","2","2","0.8,0.2,0.2,0.2,0.8,0.2,0.2,0.2,0.8","0.2,0.2,0.8,0.8,0.2,0.2,0.2,0.8,0.2","2","",""
"","html-keyboard-response","340","278523","0.0-340.0","32EYX73OY1VFU7DQQZ1HYVE5S8HURX","AMVBT3XDCQBHI","3PEG1BH7AEDCPKTV9M6N3A4F0EHKBR","","null","<img src=""img/land4.png"" style=""width:200px;border:14px solid red;"">","null","","","","","","","","","",""
"","image-keyboard-response","341","279881","0.0-341.0","32EYX73OY1VFU7DQQZ1HYVE5S8HURX","AMVBT3XDCQBHI","3PEG1BH7AEDCPKTV9M6N3A4F0EHKBR","","1355.6000000238419","img/land5.png","75","1357.6000000238419","2","1","3","2","0.8,0.2,0.2,0.2,0.8,0.2,0.2,0.2,0.8","0.2,0.2,0.8,0.8,0.2,0.2,0.2,0.8,0.2","2","",""
"","html-keyboard-response","342","280183","0.0-342.0","32EYX73OY1VFU7DQQZ1HYVE5S8HURX","AMVBT3XDCQBHI","3PEG1BH7AEDCPKTV9M6N3A4F0EHKBR","","null","<img src=""img/land5.png"" style=""width:200px; border:14px solid green;"">","null","","","","","","","","","",""
"","image-keyboard-response","343","281061","0.0-343.0","32EYX73OY1VFU7DQQZ1HYVE5S8HURX","AMVBT3XDCQBHI","3PEG1BH7AEDCPKTV9M6N3A4F0EHKBR","","877.1999999880791","img/land1.png","74","878.1999999880791","1","0","1","2","0.8,0.2,0.2,0.2,0.8,0.2,0.2,0.2,0.8","0.2,0.2,0.8,0.8,0.2,0.2,0.2,0.8,0.2","2","",""
"","html-keyboard-response","344","281363","0.0-344.0","32EYX73OY1VFU7DQQZ1HYVE5S8HURX","AMVBT3XDCQBHI","3PEG1BH7AEDCPKTV9M6N3A4F0EHKBR","","null","<img src=""img/land1.png"" style=""width:200px;border:14px solid red;"">","null","","","","","","","","","",""
"","image-keyboard-response","345","282004","0.0-345.0","32EYX73OY1VFU7DQQZ1HYVE5S8HURX","AMVBT3XDCQBHI","3PEG1BH7AEDCPKTV9M6N3A4F0EHKBR","","640.3000000119209","img/land1.png","74","641.1000000238419","1","0","1","2","0.8,0.2,0.2,0.2,0.8,0.2,0.2,0.2,0.8","0.2,0.2,0.8,0.8,0.2,0.2,0.2,0.8,0.2","2","",""
"","html-keyboard-response","346","282306","0.0-346.0","32EYX73OY1VFU7DQQZ1HYVE5S8HURX","AMVBT3XDCQBHI","3PEG1BH7AEDCPKTV9M6N3A4F0EHKBR","","null","<img src=""img/land1.png"" style=""width:200px;border:14px solid red;"">","null","","","","","","","","","",""
"","image-keyboard-response","347","282950","0.0-347.0","32EYX73OY1VFU7DQQZ1HYVE5S8HURX","AMVBT3XDCQBHI","3PEG1BH7AEDCPKTV9M6N3A4F0EHKBR","","643.3000000119209","img/land1.png","74","644.0999999642372","1","0","1","2","0.8,0.2,0.2,0.2,0.8,0.2,0.2,0.2,0.8","0.2,0.2,0.8,0.8,0.2,0.2,0.2,0.8,0.2","2","",""
"","html-keyboard-response","348","283251","0.0-348.0","32EYX73OY1VFU7DQQZ1HYVE5S8HURX","AMVBT3XDCQBHI","3PEG1BH7AEDCPKTV9M6N3A4F0EHKBR","","null","<img src=""img/land1.png"" style=""width:200px;border:14px solid red;"">","null","","","","","","","","","",""
"","image-keyboard-response","349","284429","0.0-349.0","32EYX73OY1VFU7DQQZ1HYVE5S8HURX","AMVBT3XDCQBHI","3PEG1BH7AEDCPKTV9M6N3A4F0EHKBR","","1176.7000000476837","img/land4.png","76","1177.6000000238419","3","0","2","2","0.8,0.2,0.2,0.2,0.8,0.2,0.2,0.2,0.8","0.2,0.2,0.8,0.8,0.2,0.2,0.2,0.8,0.2","2","",""
"","html-keyboard-response","350","284730","0.0-350.0","32EYX73OY1VFU7DQQZ1HYVE5S8HURX","AMVBT3XDCQBHI","3PEG1BH7AEDCPKTV9M6N3A4F0EHKBR","","null","<img src=""img/land4.png"" style=""width:200px;border:14px solid red;"">","null","","","","","","","","","",""
"","image-keyboard-response","351","285809","0.0-351.0","32EYX73OY1VFU7DQQZ1HYVE5S8HURX","AMVBT3XDCQBHI","3PEG1BH7AEDCPKTV9M6N3A4F0EHKBR","","1077.699999988079","img/land1.png","74","1078.5","1","0","1","2","0.8,0.2,0.2,0.2,0.8,0.2,0.2,0.2,0.8","0.2,0.2,0.8,0.8,0.2,0.2,0.2,0.8,0.2","2","",""
"","html-keyboard-response","352","286111","0.0-352.0","32EYX73OY1VFU7DQQZ1HYVE5S8HURX","AMVBT3XDCQBHI","3PEG1BH7AEDCPKTV9M6N3A4F0EHKBR","","null","<img src=""img/land1.png"" style=""width:200px;border:14px solid red;"">","null","","","","","","","","","",""
"","image-keyboard-response","353","287251","0.0-353.0","32EYX73OY1VFU7DQQZ1HYVE5S8HURX","AMVBT3XDCQBHI","3PEG1BH7AEDCPKTV9M6N3A4F0EHKBR","","1139.5","img/land5.png","75","1140.3999999761581","2","0","3","2","0.8,0.2,0.2,0.2,0.8,0.2,0.2,0.2,0.8","0.2,0.2,0.8,0.8,0.2,0.2,0.2,0.8,0.2","2","",""
"","html-keyboard-response","354","287562","0.0-354.0","32EYX73OY1VFU7DQQZ1HYVE5S8HURX","AMVBT3XDCQBHI","3PEG1BH7AEDCPKTV9M6N3A4F0EHKBR","","null","<img src=""img/land5.png"" style=""width:200px;border:14px solid red;"">","null","","","","","","","","","",""
"","image-keyboard-response","355","288341","0.0-355.0","32EYX73OY1VFU7DQQZ1HYVE5S8HURX","AMVBT3XDCQBHI","3PEG1BH7AEDCPKTV9M6N3A4F0EHKBR","","777.8000000119209","img/land1.png","74","778.5999999642372","1","0","1","2","0.8,0.2,0.2,0.2,0.8,0.2,0.2,0.2,0.8","0.2,0.2,0.8,0.8,0.2,0.2,0.2,0.8,0.2","2","",""
"","html-keyboard-response","356","288642","0.0-356.0","32EYX73OY1VFU7DQQZ1HYVE5S8HURX","AMVBT3XDCQBHI","3PEG1BH7AEDCPKTV9M6N3A4F0EHKBR","","null","<img src=""img/land1.png"" style=""width:200px;border:14px solid red;"">","null","","","","","","","","","",""
