"success","trial_type","trial_index","time_elapsed","internal_node_id","assignmentID","mturkID","hitID","view_history","rt","stimulus","key_press","reactionTime","a","r","s","cond","reward_cond","reward_cond_actual","reward_matrix_idx","responses","question_order"
"true","fullscreen","0","5924","0.0-0.0","3L4PIM1GQU2WBGXV00Y61GKIORWRYM","AN1JWYDJH4VQR","3JUDR1D0D6D4CARU3YX9Y3DK5DJ2QK","","","","","","","","","","","","","",""
"","instructions","1","22391","0.0-1.0","3L4PIM1GQU2WBGXV00Y61GKIORWRYM","AN1JWYDJH4VQR","3JUDR1D0D6D4CARU3YX9Y3DK5DJ2QK","[{""page_index"":0,""viewing_time"":1862},{""page_index"":1,""viewing_time"":1285},{""page_index"":2,""viewing_time"":3362},{""page_index"":3,""viewing_time"":5154},{""page_index"":4,""viewing_time"":1775},{""page_index"":5,""viewing_time"":1352},{""page_index"":6,""viewing_time"":1667}]","16460","","","","","","","","","","","",""
"","image-keyboard-response","2","24401","0.0-2.0","3L4PIM1GQU2WBGXV00Y61GKIORWRYM","AN1JWYDJH4VQR","3JUDR1D0D6D4CARU3YX9Y3DK5DJ2QK","","","img/land2.png","","2008","-1","0","1","1","0.8,0.2,0.2,0.2,0.8,0.2,0.2,0.2,0.8","0.8,0.2,0.2,0.2,0.8,0.2,0.2,0.2,0.8","1","",""
"","html-keyboard-response","3","24707","0.0-3.0","3L4PIM1GQU2WBGXV00Y61GKIORWRYM","AN1JWYDJH4VQR","3JUDR1D0D6D4CARU3YX9Y3DK5DJ2QK","","null","<img src=""img/land2.png"" style=""width:200px;border:14px solid red;"">","null","","","","","","","","","",""
"","image-keyboard-response","4","25422","0.0-4.0","3L4PIM1GQU2WBGXV00Y61GKIORWRYM","AN1JWYDJH4VQR","3JUDR1D0D6D4CARU3YX9Y3DK5DJ2QK","","711","img/land3.png","75","713","2","0","3","1","0.8,0.2,0.2,0.2,0.8,0.2,0.2,0.2,0.8","0.8,0.2,0.2,0.2,0.8,0.2,0.2,0.2,0.8","1","",""
"","html-keyboard-response","5","25725","0.0-5.0","3L4PIM1GQU2WBGXV00Y61GKIORWRYM","AN1JWYDJH4VQR","3JUDR1D0D6D4CARU3YX9Y3DK5DJ2QK","","null","<img src=""img/land3.png"" style=""width:200px;border:14px solid red;"">","null","","","","","","","","","",""
"","image-keyboard-response","6","25737","0.0-6.0","3L4PIM1GQU2WBGXV00Y61GKIORWRYM","AN1JWYDJH4VQR","3JUDR1D0D6D4CARU3YX9Y3DK5DJ2QK","","10","img/land3.png","76","11","3","1","3","1","0.8,0.2,0.2,0.2,0.8,0.2,0.2,0.2,0.8","0.8,0.2,0.2,0.2,0.8,0.2,0.2,0.2,0.8","1","",""
"","html-keyboard-response","7","26040","0.0-7.0","3L4PIM1GQU2WBGXV00Y61GKIORWRYM","AN1JWYDJH4VQR","3JUDR1D0D6D4CARU3YX9Y3DK5DJ2QK","","null","<img src=""img/land3.png"" style=""width:200px; border:14px solid green;"">","null","","","","","","","","","",""
"","image-keyboard-response","8","26138","0.0-8.0","3L4PIM1GQU2WBGXV00Y61GKIORWRYM","AN1JWYDJH4VQR","3JUDR1D0D6D4CARU3YX9Y3DK5DJ2QK","","95","img/land1.png","75","97","2","1","2","1","0.8,0.2,0.2,0.2,0.8,0.2,0.2,0.2,0.8","0.8,0.2,0.2,0.2,0.8,0.2,0.2,0.2,0.8","1","",""
"","html-keyboard-response","9","26441","0.0-9.0","3L4PIM1GQU2WBGXV00Y61GKIORWRYM","AN1JWYDJH4VQR","3JUDR1D0D6D4CARU3YX9Y3DK5DJ2QK","","null","<img src=""img/land1.png"" style=""width:200px; border:14px solid green;"">","null","","","","","","","","","",""
"","image-keyboard-response","10","26547","0.0-10.0","3L4PIM1GQU2WBGXV00Y61GKIORWRYM","AN1JWYDJH4VQR","3JUDR1D0D6D4CARU3YX9Y3DK5DJ2QK","","105","img/land3.png","74","106","1","0","3","1","0.8,0.2,0.2,0.2,0.8,0.2,0.2,0.2,0.8","0.8,0.2,0.2,0.2,0.8,0.2,0.2,0.2,0.8","1","",""
"","html-keyboard-response","11","26851","0.0-11.0","3L4PIM1GQU2WBGXV00Y61GKIORWRYM","AN1JWYDJH4VQR","3JUDR1D0D6D4CARU3YX9Y3DK5DJ2QK","","null","<img src=""img/land3.png"" style=""width:200px;border:14px solid red;"">","null","","","","","","","","","",""
"","image-keyboard-response","12","26917","0.0-12.0","3L4PIM1GQU2WBGXV00Y61GKIORWRYM","AN1JWYDJH4VQR","3JUDR1D0D6D4CARU3YX9Y3DK5DJ2QK","","61","img/land2.png","74","64","1","1","1","1","0.8,0.2,0.2,0.2,0.8,0.2,0.2,0.2,0.8","0.8,0.2,0.2,0.2,0.8,0.2,0.2,0.2,0.8","1","",""
"","html-keyboard-response","13","27219","0.0-13.0","3L4PIM1GQU2WBGXV00Y61GKIORWRYM","AN1JWYDJH4VQR","3JUDR1D0D6D4CARU3YX9Y3DK5DJ2QK","","null","<img src=""img/land2.png"" style=""width:200px; border:14px solid green;"">","null","","","","","","","","","",""
"","image-keyboard-response","14","27228","0.0-14.0","3L4PIM1GQU2WBGXV00Y61GKIORWRYM","AN1JWYDJH4VQR","3JUDR1D0D6D4CARU3YX9Y3DK5DJ2QK","","7","img/land2.png","76","8","3","0","1","1","0.8,0.2,0.2,0.2,0.8,0.2,0.2,0.2,0.8","0.8,0.2,0.2,0.2,0.8,0.2,0.2,0.2,0.8","1","",""
"","html-keyboard-response","15","27530","0.0-15.0","3L4PIM1GQU2WBGXV00Y61GKIORWRYM","AN1JWYDJH4VQR","3JUDR1D0D6D4CARU3YX9Y3DK5DJ2QK","","null","<img src=""img/land2.png"" style=""width:200px;border:14px solid red;"">","null","","","","","","","","","",""
"","image-keyboard-response","16","27549","0.0-16.0","3L4PIM1GQU2WBGXV00Y61GKIORWRYM","AN1JWYDJH4VQR","3JUDR1D0D6D4CARU3YX9Y3DK5DJ2QK","","16","img/land2.png","76","17","3","0","1","1","0.8,0.2,0.2,0.2,0.8,0.2,0.2,0.2,0.8","0.8,0.2,0.2,0.2,0.8,0.2,0.2,0.2,0.8","1","",""
"","html-keyboard-response","17","27851","0.0-17.0","3L4PIM1GQU2WBGXV00Y61GKIORWRYM","AN1JWYDJH4VQR","3JUDR1D0D6D4CARU3YX9Y3DK5DJ2QK","","null","<img src=""img/land2.png"" style=""width:200px;border:14px solid red;"">","null","","","","","","","","","",""
"","image-keyboard-response","18","27995","0.0-18.0","3L4PIM1GQU2WBGXV00Y61GKIORWRYM","AN1JWYDJH4VQR","3JUDR1D0D6D4CARU3YX9Y3DK5DJ2QK","","140","img/land3.png","76","143","3","1","3","1","0.8,0.2,0.2,0.2,0.8,0.2,0.2,0.2,0.8","0.8,0.2,0.2,0.2,0.8,0.2,0.2,0.2,0.8","1","",""
"","html-keyboard-response","19","28299","0.0-19.0","3L4PIM1GQU2WBGXV00Y61GKIORWRYM","AN1JWYDJH4VQR","3JUDR1D0D6D4CARU3YX9Y3DK5DJ2QK","","null","<img src=""img/land3.png"" style=""width:200px; border:14px solid green;"">","null","","","","","","","","","",""
"","image-keyboard-response","20","28317","0.0-20.0","3L4PIM1GQU2WBGXV00Y61GKIORWRYM","AN1JWYDJH4VQR","3JUDR1D0D6D4CARU3YX9Y3DK5DJ2QK","","15","img/land1.png","76","17","3","0","2","1","0.8,0.2,0.2,0.2,0.8,0.2,0.2,0.2,0.8","0.8,0.2,0.2,0.2,0.8,0.2,0.2,0.2,0.8","1","",""
"","html-keyboard-response","21","28620","0.0-21.0","3L4PIM1GQU2WBGXV00Y61GKIORWRYM","AN1JWYDJH4VQR","3JUDR1D0D6D4CARU3YX9Y3DK5DJ2QK","","null","<img src=""img/land1.png"" style=""width:200px;border:14px solid red;"">","null","","","","","","","","","",""
"","image-keyboard-response","22","28658","0.0-22.0","3L4PIM1GQU2WBGXV00Y61GKIORWRYM","AN1JWYDJH4VQR","3JUDR1D0D6D4CARU3YX9Y3DK5DJ2QK","","36","img/land2.png","74","37","1","1","1","1","0.8,0.2,0.2,0.2,0.8,0.2,0.2,0.2,0.8","0.8,0.2,0.2,0.2,0.8,0.2,0.2,0.2,0.8","1","",""
"","html-keyboard-response","23","28962","0.0-23.0","3L4PIM1GQU2WBGXV00Y61GKIORWRYM","AN1JWYDJH4VQR","3JUDR1D0D6D4CARU3YX9Y3DK5DJ2QK","","null","<img src=""img/land2.png"" style=""width:200px; border:14px solid green;"">","null","","","","","","","","","",""
"","image-keyboard-response","24","28967","0.0-24.0","3L4PIM1GQU2WBGXV00Y61GKIORWRYM","AN1JWYDJH4VQR","3JUDR1D0D6D4CARU3YX9Y3DK5DJ2QK","","3","img/land2.png","75","4","2","0","1","1","0.8,0.2,0.2,0.2,0.8,0.2,0.2,0.2,0.8","0.8,0.2,0.2,0.2,0.8,0.2,0.2,0.2,0.8","1","",""
"","html-keyboard-response","25","29269","0.0-25.0","3L4PIM1GQU2WBGXV00Y61GKIORWRYM","AN1JWYDJH4VQR","3JUDR1D0D6D4CARU3YX9Y3DK5DJ2QK","","null","<img src=""img/land2.png"" style=""width:200px;border:14px solid red;"">","null","","","","","","","","","",""
"","image-keyboard-response","26","29318","0.0-26.0","3L4PIM1GQU2WBGXV00Y61GKIORWRYM","AN1JWYDJH4VQR","3JUDR1D0D6D4CARU3YX9Y3DK5DJ2QK","","45","img/land1.png","76","48","3","0","2","1","0.8,0.2,0.2,0.2,0.8,0.2,0.2,0.2,0.8","0.8,0.2,0.2,0.2,0.8,0.2,0.2,0.2,0.8","1","",""
"","html-keyboard-response","27","29619","0.0-27.0","3L4PIM1GQU2WBGXV00Y61GKIORWRYM","AN1JWYDJH4VQR","3JUDR1D0D6D4CARU3YX9Y3DK5DJ2QK","","null","<img src=""img/land1.png"" style=""width:200px;border:14px solid red;"">","null","","","","","","","","","",""
"","image-keyboard-response","28","29698","0.0-28.0","3L4PIM1GQU2WBGXV00Y61GKIORWRYM","AN1JWYDJH4VQR","3JUDR1D0D6D4CARU3YX9Y3DK5DJ2QK","","76","img/land2.png","76","78","3","0","1","1","0.8,0.2,0.2,0.2,0.8,0.2,0.2,0.2,0.8","0.8,0.2,0.2,0.2,0.8,0.2,0.2,0.2,0.8","1","",""
"","html-keyboard-response","29","29999","0.0-29.0","3L4PIM1GQU2WBGXV00Y61GKIORWRYM","AN1JWYDJH4VQR","3JUDR1D0D6D4CARU3YX9Y3DK5DJ2QK","","null","<img src=""img/land2.png"" style=""width:200px;border:14px solid red;"">","null","","","","","","","","","",""
"","image-keyboard-response","30","30221","0.0-30.0","3L4PIM1GQU2WBGXV00Y61GKIORWRYM","AN1JWYDJH4VQR","3JUDR1D0D6D4CARU3YX9Y3DK5DJ2QK","","220","img/land2.png","76","222","3","0","1","1","0.8,0.2,0.2,0.2,0.8,0.2,0.2,0.2,0.8","0.8,0.2,0.2,0.2,0.8,0.2,0.2,0.2,0.8","1","",""
"","html-keyboard-response","31","30522","0.0-31.0","3L4PIM1GQU2WBGXV00Y61GKIORWRYM","AN1JWYDJH4VQR","3JUDR1D0D6D4CARU3YX9Y3DK5DJ2QK","","null","<img src=""img/land2.png"" style=""width:200px;border:14px solid red;"">","null","","","","","","","","","",""
"","image-keyboard-response","32","30709","0.0-32.0","3L4PIM1GQU2WBGXV00Y61GKIORWRYM","AN1JWYDJH4VQR","3JUDR1D0D6D4CARU3YX9Y3DK5DJ2QK","","184","img/land2.png","74","185","1","1","1","1","0.8,0.2,0.2,0.2,0.8,0.2,0.2,0.2,0.8","0.8,0.2,0.2,0.2,0.8,0.2,0.2,0.2,0.8","1","",""
"","html-keyboard-response","33","31012","0.0-33.0","3L4PIM1GQU2WBGXV00Y61GKIORWRYM","AN1JWYDJH4VQR","3JUDR1D0D6D4CARU3YX9Y3DK5DJ2QK","","null","<img src=""img/land2.png"" style=""width:200px; border:14px solid green;"">","null","","","","","","","","","",""
"","image-keyboard-response","34","31078","0.0-34.0","3L4PIM1GQU2WBGXV00Y61GKIORWRYM","AN1JWYDJH4VQR","3JUDR1D0D6D4CARU3YX9Y3DK5DJ2QK","","62","img/land3.png","74","66","1","0","3","1","0.8,0.2,0.2,0.2,0.8,0.2,0.2,0.2,0.8","0.8,0.2,0.2,0.2,0.8,0.2,0.2,0.2,0.8","1","",""
"","html-keyboard-response","35","31383","0.0-35.0","3L4PIM1GQU2WBGXV00Y61GKIORWRYM","AN1JWYDJH4VQR","3JUDR1D0D6D4CARU3YX9Y3DK5DJ2QK","","null","<img src=""img/land3.png"" style=""width:200px;border:14px solid red;"">","null","","","","","","","","","",""
"","image-keyboard-response","36","31481","0.0-36.0","3L4PIM1GQU2WBGXV00Y61GKIORWRYM","AN1JWYDJH4VQR","3JUDR1D0D6D4CARU3YX9Y3DK5DJ2QK","","90","img/land2.png","74","95","1","1","1","1","0.8,0.2,0.2,0.2,0.8,0.2,0.2,0.2,0.8","0.8,0.2,0.2,0.2,0.8,0.2,0.2,0.2,0.8","1","",""
"","html-keyboard-response","37","31783","0.0-37.0","3L4PIM1GQU2WBGXV00Y61GKIORWRYM","AN1JWYDJH4VQR","3JUDR1D0D6D4CARU3YX9Y3DK5DJ2QK","","null","<img src=""img/land2.png"" style=""width:200px; border:14px solid green;"">","null","","","","","","","","","",""
"","image-keyboard-response","38","31816","0.0-38.0","3L4PIM1GQU2WBGXV00Y61GKIORWRYM","AN1JWYDJH4VQR","3JUDR1D0D6D4CARU3YX9Y3DK5DJ2QK","","31","img/land1.png","76","33","3","0","2","1","0.8,0.2,0.2,0.2,0.8,0.2,0.2,0.2,0.8","0.8,0.2,0.2,0.2,0.8,0.2,0.2,0.2,0.8","1","",""
"","html-keyboard-response","39","32118","0.0-39.0","3L4PIM1GQU2WBGXV00Y61GKIORWRYM","AN1JWYDJH4VQR","3JUDR1D0D6D4CARU3YX9Y3DK5DJ2QK","","null","<img src=""img/land1.png"" style=""width:200px;border:14px solid red;"">","null","","","","","","","","","",""
"","image-keyboard-response","40","32148","0.0-40.0","3L4PIM1GQU2WBGXV00Y61GKIORWRYM","AN1JWYDJH4VQR","3JUDR1D0D6D4CARU3YX9Y3DK5DJ2QK","","29","img/land1.png","76","31","3","0","2","1","0.8,0.2,0.2,0.2,0.8,0.2,0.2,0.2,0.8","0.8,0.2,0.2,0.2,0.8,0.2,0.2,0.2,0.8","1","",""
"","html-keyboard-response","41","32452","0.0-41.0","3L4PIM1GQU2WBGXV00Y61GKIORWRYM","AN1JWYDJH4VQR","3JUDR1D0D6D4CARU3YX9Y3DK5DJ2QK","","null","<img src=""img/land1.png"" style=""width:200px;border:14px solid red;"">","null","","","","","","","","","",""
"","image-keyboard-response","42","32510","0.0-42.0","3L4PIM1GQU2WBGXV00Y61GKIORWRYM","AN1JWYDJH4VQR","3JUDR1D0D6D4CARU3YX9Y3DK5DJ2QK","","55","img/land2.png","74","57","1","0","1","1","0.8,0.2,0.2,0.2,0.8,0.2,0.2,0.2,0.8","0.8,0.2,0.2,0.2,0.8,0.2,0.2,0.2,0.8","1","",""
"","html-keyboard-response","43","32812","0.0-43.0","3L4PIM1GQU2WBGXV00Y61GKIORWRYM","AN1JWYDJH4VQR","3JUDR1D0D6D4CARU3YX9Y3DK5DJ2QK","","null","<img src=""img/land2.png"" style=""width:200px;border:14px solid red;"">","null","","","","","","","","","",""
"","image-keyboard-response","44","32909","0.0-44.0","3L4PIM1GQU2WBGXV00Y61GKIORWRYM","AN1JWYDJH4VQR","3JUDR1D0D6D4CARU3YX9Y3DK5DJ2QK","","93","img/land3.png","76","94","3","1","3","1","0.8,0.2,0.2,0.2,0.8,0.2,0.2,0.2,0.8","0.8,0.2,0.2,0.2,0.8,0.2,0.2,0.2,0.8","1","",""
"","html-keyboard-response","45","33213","0.0-45.0","3L4PIM1GQU2WBGXV00Y61GKIORWRYM","AN1JWYDJH4VQR","3JUDR1D0D6D4CARU3YX9Y3DK5DJ2QK","","null","<img src=""img/land3.png"" style=""width:200px; border:14px solid green;"">","null","","","","","","","","","",""
"","image-keyboard-response","46","33307","0.0-46.0","3L4PIM1GQU2WBGXV00Y61GKIORWRYM","AN1JWYDJH4VQR","3JUDR1D0D6D4CARU3YX9Y3DK5DJ2QK","","87","img/land3.png","76","93","3","1","3","1","0.8,0.2,0.2,0.2,0.8,0.2,0.2,0.2,0.8","0.8,0.2,0.2,0.2,0.8,0.2,0.2,0.2,0.8","1","",""
"","html-keyboard-response","47","33609","0.0-47.0","3L4PIM1GQU2WBGXV00Y61GKIORWRYM","AN1JWYDJH4VQR","3JUDR1D0D6D4CARU3YX9Y3DK5DJ2QK","","null","<img src=""img/land3.png"" style=""width:200px; border:14px solid green;"">","null","","","","","","","","","",""
"","image-keyboard-response","48","33707","0.0-48.0","3L4PIM1GQU2WBGXV00Y61GKIORWRYM","AN1JWYDJH4VQR","3JUDR1D0D6D4CARU3YX9Y3DK5DJ2QK","","90","img/land1.png","76","93","3","1","2","1","0.8,0.2,0.2,0.2,0.8,0.2,0.2,0.2,0.8","0.8,0.2,0.2,0.2,0.8,0.2,0.2,0.2,0.8","1","",""
"","html-keyboard-response","49","34009","0.0-49.0","3L4PIM1GQU2WBGXV00Y61GKIORWRYM","AN1JWYDJH4VQR","3JUDR1D0D6D4CARU3YX9Y3DK5DJ2QK","","null","<img src=""img/land1.png"" style=""width:200px; border:14px solid green;"">","null","","","","","","","","","",""
"","image-keyboard-response","50","34152","0.0-50.0","3L4PIM1GQU2WBGXV00Y61GKIORWRYM","AN1JWYDJH4VQR","3JUDR1D0D6D4CARU3YX9Y3DK5DJ2QK","","131","img/land2.png","74","133","1","0","1","1","0.8,0.2,0.2,0.2,0.8,0.2,0.2,0.2,0.8","0.8,0.2,0.2,0.2,0.8,0.2,0.2,0.2,0.8","1","",""
"","html-keyboard-response","51","34455","0.0-51.0","3L4PIM1GQU2WBGXV00Y61GKIORWRYM","AN1JWYDJH4VQR","3JUDR1D0D6D4CARU3YX9Y3DK5DJ2QK","","null","<img src=""img/land2.png"" style=""width:200px;border:14px solid red;"">","null","","","","","","","","","",""
"","image-keyboard-response","52","34477","0.0-52.0","3L4PIM1GQU2WBGXV00Y61GKIORWRYM","AN1JWYDJH4VQR","3JUDR1D0D6D4CARU3YX9Y3DK5DJ2QK","","21","img/land2.png","74","21","1","1","1","1","0.8,0.2,0.2,0.2,0.8,0.2,0.2,0.2,0.8","0.8,0.2,0.2,0.2,0.8,0.2,0.2,0.2,0.8","1","",""
"","html-keyboard-response","53","34779","0.0-53.0","3L4PIM1GQU2WBGXV00Y61GKIORWRYM","AN1JWYDJH4VQR","3JUDR1D0D6D4CARU3YX9Y3DK5DJ2QK","","null","<img src=""img/land2.png"" style=""width:200px; border:14px solid green;"">","null","","","","","","","","","",""
"","image-keyboard-response","54","34832","0.0-54.0","3L4PIM1GQU2WBGXV00Y61GKIORWRYM","AN1JWYDJH4VQR","3JUDR1D0D6D4CARU3YX9Y3DK5DJ2QK","","52","img/land1.png","74","52","1","0","2","1","0.8,0.2,0.2,0.2,0.8,0.2,0.2,0.2,0.8","0.8,0.2,0.2,0.2,0.8,0.2,0.2,0.2,0.8","1","",""
"","html-keyboard-response","55","35134","0.0-55.0","3L4PIM1GQU2WBGXV00Y61GKIORWRYM","AN1JWYDJH4VQR","3JUDR1D0D6D4CARU3YX9Y3DK5DJ2QK","","null","<img src=""img/land1.png"" style=""width:200px;border:14px solid red;"">","null","","","","","","","","","",""
"","image-keyboard-response","56","35138","0.0-56.0","3L4PIM1GQU2WBGXV00Y61GKIORWRYM","AN1JWYDJH4VQR","3JUDR1D0D6D4CARU3YX9Y3DK5DJ2QK","","2","img/land3.png","76","3","3","1","3","1","0.8,0.2,0.2,0.2,0.8,0.2,0.2,0.2,0.8","0.8,0.2,0.2,0.2,0.8,0.2,0.2,0.2,0.8","1","",""
"","html-keyboard-response","57","35440","0.0-57.0","3L4PIM1GQU2WBGXV00Y61GKIORWRYM","AN1JWYDJH4VQR","3JUDR1D0D6D4CARU3YX9Y3DK5DJ2QK","","null","<img src=""img/land3.png"" style=""width:200px; border:14px solid green;"">","null","","","","","","","","","",""
"","image-keyboard-response","58","35828","0.0-58.0","3L4PIM1GQU2WBGXV00Y61GKIORWRYM","AN1JWYDJH4VQR","3JUDR1D0D6D4CARU3YX9Y3DK5DJ2QK","","385","img/land3.png","74","387","1","0","3","1","0.8,0.2,0.2,0.2,0.8,0.2,0.2,0.2,0.8","0.8,0.2,0.2,0.2,0.8,0.2,0.2,0.2,0.8","1","",""
"","html-keyboard-response","59","36130","0.0-59.0","3L4PIM1GQU2WBGXV00Y61GKIORWRYM","AN1JWYDJH4VQR","3JUDR1D0D6D4CARU3YX9Y3DK5DJ2QK","","null","<img src=""img/land3.png"" style=""width:200px;border:14px solid red;"">","null","","","","","","","","","",""
"","image-keyboard-response","60","36228","0.0-60.0","3L4PIM1GQU2WBGXV00Y61GKIORWRYM","AN1JWYDJH4VQR","3JUDR1D0D6D4CARU3YX9Y3DK5DJ2QK","","94","img/land2.png","76","97","3","0","1","1","0.8,0.2,0.2,0.2,0.8,0.2,0.2,0.2,0.8","0.8,0.2,0.2,0.2,0.8,0.2,0.2,0.2,0.8","1","",""
"","html-keyboard-response","61","36529","0.0-61.0","3L4PIM1GQU2WBGXV00Y61GKIORWRYM","AN1JWYDJH4VQR","3JUDR1D0D6D4CARU3YX9Y3DK5DJ2QK","","null","<img src=""img/land2.png"" style=""width:200px;border:14px solid red;"">","null","","","","","","","","","",""
"","image-keyboard-response","62","36563","0.0-62.0","3L4PIM1GQU2WBGXV00Y61GKIORWRYM","AN1JWYDJH4VQR","3JUDR1D0D6D4CARU3YX9Y3DK5DJ2QK","","30","img/land2.png","76","33","3","0","1","1","0.8,0.2,0.2,0.2,0.8,0.2,0.2,0.2,0.8","0.8,0.2,0.2,0.2,0.8,0.2,0.2,0.2,0.8","1","",""
"","html-keyboard-response","63","36866","0.0-63.0","3L4PIM1GQU2WBGXV00Y61GKIORWRYM","AN1JWYDJH4VQR","3JUDR1D0D6D4CARU3YX9Y3DK5DJ2QK","","null","<img src=""img/land2.png"" style=""width:200px;border:14px solid red;"">","null","","","","","","","","","",""
"","image-keyboard-response","64","36923","0.0-64.0","3L4PIM1GQU2WBGXV00Y61GKIORWRYM","AN1JWYDJH4VQR","3JUDR1D0D6D4CARU3YX9Y3DK5DJ2QK","","53","img/land3.png","76","56","3","1","3","1","0.8,0.2,0.2,0.2,0.8,0.2,0.2,0.2,0.8","0.8,0.2,0.2,0.2,0.8,0.2,0.2,0.2,0.8","1","",""
"","html-keyboard-response","65","37225","0.0-65.0","3L4PIM1GQU2WBGXV00Y61GKIORWRYM","AN1JWYDJH4VQR","3JUDR1D0D6D4CARU3YX9Y3DK5DJ2QK","","null","<img src=""img/land3.png"" style=""width:200px; border:14px solid green;"">","null","","","","","","","","","",""
"","image-keyboard-response","66","37290","0.0-66.0","3L4PIM1GQU2WBGXV00Y61GKIORWRYM","AN1JWYDJH4VQR","3JUDR1D0D6D4CARU3YX9Y3DK5DJ2QK","","62","img/land2.png","76","63","3","0","1","1","0.8,0.2,0.2,0.2,0.8,0.2,0.2,0.2,0.8","0.8,0.2,0.2,0.2,0.8,0.2,0.2,0.2,0.8","1","",""
"","html-keyboard-response","67","37593","0.0-67.0","3L4PIM1GQU2WBGXV00Y61GKIORWRYM","AN1JWYDJH4VQR","3JUDR1D0D6D4CARU3YX9Y3DK5DJ2QK","","null","<img src=""img/land2.png"" style=""width:200px;border:14px solid red;"">","null","","","","","","","","","",""
"","image-keyboard-response","68","37657","0.0-68.0","3L4PIM1GQU2WBGXV00Y61GKIORWRYM","AN1JWYDJH4VQR","3JUDR1D0D6D4CARU3YX9Y3DK5DJ2QK","","63","img/land1.png","76","64","3","0","2","1","0.8,0.2,0.2,0.2,0.8,0.2,0.2,0.2,0.8","0.8,0.2,0.2,0.2,0.8,0.2,0.2,0.2,0.8","1","",""
"","html-keyboard-response","69","37964","0.0-69.0","3L4PIM1GQU2WBGXV00Y61GKIORWRYM","AN1JWYDJH4VQR","3JUDR1D0D6D4CARU3YX9Y3DK5DJ2QK","","null","<img src=""img/land1.png"" style=""width:200px;border:14px solid red;"">","null","","","","","","","","","",""
"","image-keyboard-response","70","38009","0.0-70.0","3L4PIM1GQU2WBGXV00Y61GKIORWRYM","AN1JWYDJH4VQR","3JUDR1D0D6D4CARU3YX9Y3DK5DJ2QK","","41","img/land1.png","74","43","1","0","2","1","0.8,0.2,0.2,0.2,0.8,0.2,0.2,0.2,0.8","0.8,0.2,0.2,0.2,0.8,0.2,0.2,0.2,0.8","1","",""
"","html-keyboard-response","71","38311","0.0-71.0","3L4PIM1GQU2WBGXV00Y61GKIORWRYM","AN1JWYDJH4VQR","3JUDR1D0D6D4CARU3YX9Y3DK5DJ2QK","","null","<img src=""img/land1.png"" style=""width:200px;border:14px solid red;"">","null","","","","","","","","","",""
"","image-keyboard-response","72","38358","0.0-72.0","3L4PIM1GQU2WBGXV00Y61GKIORWRYM","AN1JWYDJH4VQR","3JUDR1D0D6D4CARU3YX9Y3DK5DJ2QK","","39","img/land1.png","76","40","3","0","2","1","0.8,0.2,0.2,0.2,0.8,0.2,0.2,0.2,0.8","0.8,0.2,0.2,0.2,0.8,0.2,0.2,0.2,0.8","1","",""
"","html-keyboard-response","73","38658","0.0-73.0","3L4PIM1GQU2WBGXV00Y61GKIORWRYM","AN1JWYDJH4VQR","3JUDR1D0D6D4CARU3YX9Y3DK5DJ2QK","","null","<img src=""img/land1.png"" style=""width:200px;border:14px solid red;"">","null","","","","","","","","","",""
"","image-keyboard-response","74","38697","0.0-74.0","3L4PIM1GQU2WBGXV00Y61GKIORWRYM","AN1JWYDJH4VQR","3JUDR1D0D6D4CARU3YX9Y3DK5DJ2QK","","36","img/land1.png","74","38","1","0","2","1","0.8,0.2,0.2,0.2,0.8,0.2,0.2,0.2,0.8","0.8,0.2,0.2,0.2,0.8,0.2,0.2,0.2,0.8","1","",""
"","html-keyboard-response","75","39000","0.0-75.0","3L4PIM1GQU2WBGXV00Y61GKIORWRYM","AN1JWYDJH4VQR","3JUDR1D0D6D4CARU3YX9Y3DK5DJ2QK","","null","<img src=""img/land1.png"" style=""width:200px;border:14px solid red;"">","null","","","","","","","","","",""
"","image-keyboard-response","76","39038","0.0-76.0","3L4PIM1GQU2WBGXV00Y61GKIORWRYM","AN1JWYDJH4VQR","3JUDR1D0D6D4CARU3YX9Y3DK5DJ2QK","","35","img/land3.png","74","37","1","0","3","1","0.8,0.2,0.2,0.2,0.8,0.2,0.2,0.2,0.8","0.8,0.2,0.2,0.2,0.8,0.2,0.2,0.2,0.8","1","",""
"","html-keyboard-response","77","39340","0.0-77.0","3L4PIM1GQU2WBGXV00Y61GKIORWRYM","AN1JWYDJH4VQR","3JUDR1D0D6D4CARU3YX9Y3DK5DJ2QK","","null","<img src=""img/land3.png"" style=""width:200px;border:14px solid red;"">","null","","","","","","","","","",""
"","image-keyboard-response","78","39394","0.0-78.0","3L4PIM1GQU2WBGXV00Y61GKIORWRYM","AN1JWYDJH4VQR","3JUDR1D0D6D4CARU3YX9Y3DK5DJ2QK","","50","img/land2.png","74","52","1","0","1","1","0.8,0.2,0.2,0.2,0.8,0.2,0.2,0.2,0.8","0.8,0.2,0.2,0.2,0.8,0.2,0.2,0.2,0.8","1","",""
"","html-keyboard-response","79","39697","0.0-79.0","3L4PIM1GQU2WBGXV00Y61GKIORWRYM","AN1JWYDJH4VQR","3JUDR1D0D6D4CARU3YX9Y3DK5DJ2QK","","null","<img src=""img/land2.png"" style=""width:200px;border:14px solid red;"">","null","","","","","","","","","",""
"","image-keyboard-response","80","39741","0.0-80.0","3L4PIM1GQU2WBGXV00Y61GKIORWRYM","AN1JWYDJH4VQR","3JUDR1D0D6D4CARU3YX9Y3DK5DJ2QK","","41","img/land2.png","74","43","1","1","1","1","0.8,0.2,0.2,0.2,0.8,0.2,0.2,0.2,0.8","0.8,0.2,0.2,0.2,0.8,0.2,0.2,0.2,0.8","1","",""
"","html-keyboard-response","81","40044","0.0-81.0","3L4PIM1GQU2WBGXV00Y61GKIORWRYM","AN1JWYDJH4VQR","3JUDR1D0D6D4CARU3YX9Y3DK5DJ2QK","","null","<img src=""img/land2.png"" style=""width:200px; border:14px solid green;"">","null","","","","","","","","","",""
"","image-keyboard-response","82","40187","0.0-82.0","3L4PIM1GQU2WBGXV00Y61GKIORWRYM","AN1JWYDJH4VQR","3JUDR1D0D6D4CARU3YX9Y3DK5DJ2QK","","142","img/land1.png","74","142","1","0","2","1","0.8,0.2,0.2,0.2,0.8,0.2,0.2,0.2,0.8","0.8,0.2,0.2,0.2,0.8,0.2,0.2,0.2,0.8","1","",""
"","html-keyboard-response","83","40488","0.0-83.0","3L4PIM1GQU2WBGXV00Y61GKIORWRYM","AN1JWYDJH4VQR","3JUDR1D0D6D4CARU3YX9Y3DK5DJ2QK","","null","<img src=""img/land1.png"" style=""width:200px;border:14px solid red;"">","null","","","","","","","","","",""
"","image-keyboard-response","84","40515","0.0-84.0","3L4PIM1GQU2WBGXV00Y61GKIORWRYM","AN1JWYDJH4VQR","3JUDR1D0D6D4CARU3YX9Y3DK5DJ2QK","","23","img/land3.png","74","25","1","0","3","1","0.8,0.2,0.2,0.2,0.8,0.2,0.2,0.2,0.8","0.8,0.2,0.2,0.2,0.8,0.2,0.2,0.2,0.8","1","",""
"","html-keyboard-response","85","40818","0.0-85.0","3L4PIM1GQU2WBGXV00Y61GKIORWRYM","AN1JWYDJH4VQR","3JUDR1D0D6D4CARU3YX9Y3DK5DJ2QK","","null","<img src=""img/land3.png"" style=""width:200px;border:14px solid red;"">","null","","","","","","","","","",""
"","image-keyboard-response","86","40905","0.0-86.0","3L4PIM1GQU2WBGXV00Y61GKIORWRYM","AN1JWYDJH4VQR","3JUDR1D0D6D4CARU3YX9Y3DK5DJ2QK","","85","img/land1.png","74","86","1","0","2","1","0.8,0.2,0.2,0.2,0.8,0.2,0.2,0.2,0.8","0.8,0.2,0.2,0.2,0.8,0.2,0.2,0.2,0.8","1","",""
"","html-keyboard-response","87","41207","0.0-87.0","3L4PIM1GQU2WBGXV00Y61GKIORWRYM","AN1JWYDJH4VQR","3JUDR1D0D6D4CARU3YX9Y3DK5DJ2QK","","null","<img src=""img/land1.png"" style=""width:200px;border:14px solid red;"">","null","","","","","","","","","",""
"","image-keyboard-response","88","41247","0.0-88.0","3L4PIM1GQU2WBGXV00Y61GKIORWRYM","AN1JWYDJH4VQR","3JUDR1D0D6D4CARU3YX9Y3DK5DJ2QK","","38","img/land2.png","74","40","1","1","1","1","0.8,0.2,0.2,0.2,0.8,0.2,0.2,0.2,0.8","0.8,0.2,0.2,0.2,0.8,0.2,0.2,0.2,0.8","1","",""
"","html-keyboard-response","89","41550","0.0-89.0","3L4PIM1GQU2WBGXV00Y61GKIORWRYM","AN1JWYDJH4VQR","3JUDR1D0D6D4CARU3YX9Y3DK5DJ2QK","","null","<img src=""img/land2.png"" style=""width:200px; border:14px solid green;"">","null","","","","","","","","","",""
"","image-keyboard-response","90","41598","0.0-90.0","3L4PIM1GQU2WBGXV00Y61GKIORWRYM","AN1JWYDJH4VQR","3JUDR1D0D6D4CARU3YX9Y3DK5DJ2QK","","45","img/land1.png","74","47","1","0","2","1","0.8,0.2,0.2,0.2,0.8,0.2,0.2,0.2,0.8","0.8,0.2,0.2,0.2,0.8,0.2,0.2,0.2,0.8","1","",""
"","html-keyboard-response","91","41900","0.0-91.0","3L4PIM1GQU2WBGXV00Y61GKIORWRYM","AN1JWYDJH4VQR","3JUDR1D0D6D4CARU3YX9Y3DK5DJ2QK","","null","<img src=""img/land1.png"" style=""width:200px;border:14px solid red;"">","null","","","","","","","","","",""
"","image-keyboard-response","92","41970","0.0-92.0","3L4PIM1GQU2WBGXV00Y61GKIORWRYM","AN1JWYDJH4VQR","3JUDR1D0D6D4CARU3YX9Y3DK5DJ2QK","","68","img/land3.png","74","68","1","0","3","1","0.8,0.2,0.2,0.2,0.8,0.2,0.2,0.2,0.8","0.8,0.2,0.2,0.2,0.8,0.2,0.2,0.2,0.8","1","",""
"","html-keyboard-response","93","42272","0.0-93.0","3L4PIM1GQU2WBGXV00Y61GKIORWRYM","AN1JWYDJH4VQR","3JUDR1D0D6D4CARU3YX9Y3DK5DJ2QK","","null","<img src=""img/land3.png"" style=""width:200px;border:14px solid red;"">","null","","","","","","","","","",""
"","image-keyboard-response","94","42349","0.0-94.0","3L4PIM1GQU2WBGXV00Y61GKIORWRYM","AN1JWYDJH4VQR","3JUDR1D0D6D4CARU3YX9Y3DK5DJ2QK","","73","img/land3.png","74","76","1","0","3","1","0.8,0.2,0.2,0.2,0.8,0.2,0.2,0.2,0.8","0.8,0.2,0.2,0.2,0.8,0.2,0.2,0.2,0.8","1","",""
"","html-keyboard-response","95","42654","0.0-95.0","3L4PIM1GQU2WBGXV00Y61GKIORWRYM","AN1JWYDJH4VQR","3JUDR1D0D6D4CARU3YX9Y3DK5DJ2QK","","null","<img src=""img/land3.png"" style=""width:200px;border:14px solid red;"">","null","","","","","","","","","",""
"","image-keyboard-response","96","42717","0.0-96.0","3L4PIM1GQU2WBGXV00Y61GKIORWRYM","AN1JWYDJH4VQR","3JUDR1D0D6D4CARU3YX9Y3DK5DJ2QK","","61","img/land1.png","74","62","1","0","2","1","0.8,0.2,0.2,0.2,0.8,0.2,0.2,0.2,0.8","0.8,0.2,0.2,0.2,0.8,0.2,0.2,0.2,0.8","1","",""
"","html-keyboard-response","97","43020","0.0-97.0","3L4PIM1GQU2WBGXV00Y61GKIORWRYM","AN1JWYDJH4VQR","3JUDR1D0D6D4CARU3YX9Y3DK5DJ2QK","","null","<img src=""img/land1.png"" style=""width:200px;border:14px solid red;"">","null","","","","","","","","","",""
"","image-keyboard-response","98","43056","0.0-98.0","3L4PIM1GQU2WBGXV00Y61GKIORWRYM","AN1JWYDJH4VQR","3JUDR1D0D6D4CARU3YX9Y3DK5DJ2QK","","34","img/land1.png","74","36","1","0","2","1","0.8,0.2,0.2,0.2,0.8,0.2,0.2,0.2,0.8","0.8,0.2,0.2,0.2,0.8,0.2,0.2,0.2,0.8","1","",""
"","html-keyboard-response","99","43358","0.0-99.0","3L4PIM1GQU2WBGXV00Y61GKIORWRYM","AN1JWYDJH4VQR","3JUDR1D0D6D4CARU3YX9Y3DK5DJ2QK","","null","<img src=""img/land1.png"" style=""width:200px;border:14px solid red;"">","null","","","","","","","","","",""
"","image-keyboard-response","100","43407","0.0-100.0","3L4PIM1GQU2WBGXV00Y61GKIORWRYM","AN1JWYDJH4VQR","3JUDR1D0D6D4CARU3YX9Y3DK5DJ2QK","","46","img/land2.png","74","48","1","0","1","1","0.8,0.2,0.2,0.2,0.8,0.2,0.2,0.2,0.8","0.8,0.2,0.2,0.2,0.8,0.2,0.2,0.2,0.8","1","",""
"","html-keyboard-response","101","43710","0.0-101.0","3L4PIM1GQU2WBGXV00Y61GKIORWRYM","AN1JWYDJH4VQR","3JUDR1D0D6D4CARU3YX9Y3DK5DJ2QK","","null","<img src=""img/land2.png"" style=""width:200px;border:14px solid red;"">","null","","","","","","","","","",""
"","image-keyboard-response","102","43766","0.0-102.0","3L4PIM1GQU2WBGXV00Y61GKIORWRYM","AN1JWYDJH4VQR","3JUDR1D0D6D4CARU3YX9Y3DK5DJ2QK","","53","img/land2.png","74","54","1","1","1","1","0.8,0.2,0.2,0.2,0.8,0.2,0.2,0.2,0.8","0.8,0.2,0.2,0.2,0.8,0.2,0.2,0.2,0.8","1","",""
"","html-keyboard-response","103","44069","0.0-103.0","3L4PIM1GQU2WBGXV00Y61GKIORWRYM","AN1JWYDJH4VQR","3JUDR1D0D6D4CARU3YX9Y3DK5DJ2QK","","null","<img src=""img/land2.png"" style=""width:200px; border:14px solid green;"">","null","","","","","","","","","",""
"","image-keyboard-response","104","44166","0.0-104.0","3L4PIM1GQU2WBGXV00Y61GKIORWRYM","AN1JWYDJH4VQR","3JUDR1D0D6D4CARU3YX9Y3DK5DJ2QK","","94","img/land3.png","74","96","1","0","3","1","0.8,0.2,0.2,0.2,0.8,0.2,0.2,0.2,0.8","0.8,0.2,0.2,0.2,0.8,0.2,0.2,0.2,0.8","1","",""
"","html-keyboard-response","105","44469","0.0-105.0","3L4PIM1GQU2WBGXV00Y61GKIORWRYM","AN1JWYDJH4VQR","3JUDR1D0D6D4CARU3YX9Y3DK5DJ2QK","","null","<img src=""img/land3.png"" style=""width:200px;border:14px solid red;"">","null","","","","","","","","","",""
"","image-keyboard-response","106","44550","0.0-106.0","3L4PIM1GQU2WBGXV00Y61GKIORWRYM","AN1JWYDJH4VQR","3JUDR1D0D6D4CARU3YX9Y3DK5DJ2QK","","79","img/land3.png","74","81","1","0","3","1","0.8,0.2,0.2,0.2,0.8,0.2,0.2,0.2,0.8","0.8,0.2,0.2,0.2,0.8,0.2,0.2,0.2,0.8","1","",""
"","html-keyboard-response","107","44853","0.0-107.0","3L4PIM1GQU2WBGXV00Y61GKIORWRYM","AN1JWYDJH4VQR","3JUDR1D0D6D4CARU3YX9Y3DK5DJ2QK","","null","<img src=""img/land3.png"" style=""width:200px;border:14px solid red;"">","null","","","","","","","","","",""
"","image-keyboard-response","108","44928","0.0-108.0","3L4PIM1GQU2WBGXV00Y61GKIORWRYM","AN1JWYDJH4VQR","3JUDR1D0D6D4CARU3YX9Y3DK5DJ2QK","","71","img/land1.png","74","74","1","0","2","1","0.8,0.2,0.2,0.2,0.8,0.2,0.2,0.2,0.8","0.8,0.2,0.2,0.2,0.8,0.2,0.2,0.2,0.8","1","",""
"","html-keyboard-response","109","45230","0.0-109.0","3L4PIM1GQU2WBGXV00Y61GKIORWRYM","AN1JWYDJH4VQR","3JUDR1D0D6D4CARU3YX9Y3DK5DJ2QK","","null","<img src=""img/land1.png"" style=""width:200px;border:14px solid red;"">","null","","","","","","","","","",""
"","image-keyboard-response","110","45258","0.0-110.0","3L4PIM1GQU2WBGXV00Y61GKIORWRYM","AN1JWYDJH4VQR","3JUDR1D0D6D4CARU3YX9Y3DK5DJ2QK","","26","img/land3.png","74","27","1","1","3","1","0.8,0.2,0.2,0.2,0.8,0.2,0.2,0.2,0.8","0.8,0.2,0.2,0.2,0.8,0.2,0.2,0.2,0.8","1","",""
"","html-keyboard-response","111","45561","0.0-111.0","3L4PIM1GQU2WBGXV00Y61GKIORWRYM","AN1JWYDJH4VQR","3JUDR1D0D6D4CARU3YX9Y3DK5DJ2QK","","null","<img src=""img/land3.png"" style=""width:200px; border:14px solid green;"">","null","","","","","","","","","",""
"","image-keyboard-response","112","45736","0.0-112.0","3L4PIM1GQU2WBGXV00Y61GKIORWRYM","AN1JWYDJH4VQR","3JUDR1D0D6D4CARU3YX9Y3DK5DJ2QK","","172","img/land1.png","74","174","1","0","2","1","0.8,0.2,0.2,0.2,0.8,0.2,0.2,0.2,0.8","0.8,0.2,0.2,0.2,0.8,0.2,0.2,0.2,0.8","1","",""
"","html-keyboard-response","113","46039","0.0-113.0","3L4PIM1GQU2WBGXV00Y61GKIORWRYM","AN1JWYDJH4VQR","3JUDR1D0D6D4CARU3YX9Y3DK5DJ2QK","","null","<img src=""img/land1.png"" style=""width:200px;border:14px solid red;"">","null","","","","","","","","","",""
"","image-keyboard-response","114","46117","0.0-114.0","3L4PIM1GQU2WBGXV00Y61GKIORWRYM","AN1JWYDJH4VQR","3JUDR1D0D6D4CARU3YX9Y3DK5DJ2QK","","76","img/land1.png","74","78","1","0","2","1","0.8,0.2,0.2,0.2,0.8,0.2,0.2,0.2,0.8","0.8,0.2,0.2,0.2,0.8,0.2,0.2,0.2,0.8","1","",""
"","html-keyboard-response","115","46423","0.0-115.0","3L4PIM1GQU2WBGXV00Y61GKIORWRYM","AN1JWYDJH4VQR","3JUDR1D0D6D4CARU3YX9Y3DK5DJ2QK","","null","<img src=""img/land1.png"" style=""width:200px;border:14px solid red;"">","null","","","","","","","","","",""
"","image-keyboard-response","116","46566","0.0-116.0","3L4PIM1GQU2WBGXV00Y61GKIORWRYM","AN1JWYDJH4VQR","3JUDR1D0D6D4CARU3YX9Y3DK5DJ2QK","","141","img/land3.png","74","142","1","0","3","1","0.8,0.2,0.2,0.2,0.8,0.2,0.2,0.2,0.8","0.8,0.2,0.2,0.2,0.8,0.2,0.2,0.2,0.8","1","",""
"","html-keyboard-response","117","46868","0.0-117.0","3L4PIM1GQU2WBGXV00Y61GKIORWRYM","AN1JWYDJH4VQR","3JUDR1D0D6D4CARU3YX9Y3DK5DJ2QK","","null","<img src=""img/land3.png"" style=""width:200px;border:14px solid red;"">","null","","","","","","","","","",""
"","image-keyboard-response","118","46997","0.0-118.0","3L4PIM1GQU2WBGXV00Y61GKIORWRYM","AN1JWYDJH4VQR","3JUDR1D0D6D4CARU3YX9Y3DK5DJ2QK","","127","img/land3.png","74","128","1","0","3","1","0.8,0.2,0.2,0.2,0.8,0.2,0.2,0.2,0.8","0.8,0.2,0.2,0.2,0.8,0.2,0.2,0.2,0.8","1","",""
"","html-keyboard-response","119","47300","0.0-119.0","3L4PIM1GQU2WBGXV00Y61GKIORWRYM","AN1JWYDJH4VQR","3JUDR1D0D6D4CARU3YX9Y3DK5DJ2QK","","null","<img src=""img/land3.png"" style=""width:200px;border:14px solid red;"">","null","","","","","","","","","",""
"","image-keyboard-response","120","47418","0.0-120.0","3L4PIM1GQU2WBGXV00Y61GKIORWRYM","AN1JWYDJH4VQR","3JUDR1D0D6D4CARU3YX9Y3DK5DJ2QK","","113","img/land3.png","74","116","1","0","3","1","0.8,0.2,0.2,0.2,0.8,0.2,0.2,0.2,0.8","0.8,0.2,0.2,0.2,0.8,0.2,0.2,0.2,0.8","1","",""
"","html-keyboard-response","121","47720","0.0-121.0","3L4PIM1GQU2WBGXV00Y61GKIORWRYM","AN1JWYDJH4VQR","3JUDR1D0D6D4CARU3YX9Y3DK5DJ2QK","","null","<img src=""img/land3.png"" style=""width:200px;border:14px solid red;"">","null","","","","","","","","","",""
"","image-keyboard-response","122","47816","0.0-122.0","3L4PIM1GQU2WBGXV00Y61GKIORWRYM","AN1JWYDJH4VQR","3JUDR1D0D6D4CARU3YX9Y3DK5DJ2QK","","93","img/land1.png","74","95","1","0","2","1","0.8,0.2,0.2,0.2,0.8,0.2,0.2,0.2,0.8","0.8,0.2,0.2,0.2,0.8,0.2,0.2,0.2,0.8","1","",""
"","html-keyboard-response","123","48118","0.0-123.0","3L4PIM1GQU2WBGXV00Y61GKIORWRYM","AN1JWYDJH4VQR","3JUDR1D0D6D4CARU3YX9Y3DK5DJ2QK","","null","<img src=""img/land1.png"" style=""width:200px;border:14px solid red;"">","null","","","","","","","","","",""
"","image-keyboard-response","124","48207","0.0-124.0","3L4PIM1GQU2WBGXV00Y61GKIORWRYM","AN1JWYDJH4VQR","3JUDR1D0D6D4CARU3YX9Y3DK5DJ2QK","","85","img/land2.png","74","87","1","1","1","1","0.8,0.2,0.2,0.2,0.8,0.2,0.2,0.2,0.8","0.8,0.2,0.2,0.2,0.8,0.2,0.2,0.2,0.8","1","",""
"","html-keyboard-response","125","48509","0.0-125.0","3L4PIM1GQU2WBGXV00Y61GKIORWRYM","AN1JWYDJH4VQR","3JUDR1D0D6D4CARU3YX9Y3DK5DJ2QK","","null","<img src=""img/land2.png"" style=""width:200px; border:14px solid green;"">","null","","","","","","","","","",""
"","image-keyboard-response","126","48629","0.0-126.0","3L4PIM1GQU2WBGXV00Y61GKIORWRYM","AN1JWYDJH4VQR","3JUDR1D0D6D4CARU3YX9Y3DK5DJ2QK","","118","img/land3.png","74","120","1","0","3","1","0.8,0.2,0.2,0.2,0.8,0.2,0.2,0.2,0.8","0.8,0.2,0.2,0.2,0.8,0.2,0.2,0.2,0.8","1","",""
"","html-keyboard-response","127","48931","0.0-127.0","3L4PIM1GQU2WBGXV00Y61GKIORWRYM","AN1JWYDJH4VQR","3JUDR1D0D6D4CARU3YX9Y3DK5DJ2QK","","null","<img src=""img/land3.png"" style=""width:200px;border:14px solid red;"">","null","","","","","","","","","",""
"","image-keyboard-response","128","48980","0.0-128.0","3L4PIM1GQU2WBGXV00Y61GKIORWRYM","AN1JWYDJH4VQR","3JUDR1D0D6D4CARU3YX9Y3DK5DJ2QK","","46","img/land1.png","75","48","2","1","2","1","0.8,0.2,0.2,0.2,0.8,0.2,0.2,0.2,0.8","0.8,0.2,0.2,0.2,0.8,0.2,0.2,0.2,0.8","1","",""
"","html-keyboard-response","129","49282","0.0-129.0","3L4PIM1GQU2WBGXV00Y61GKIORWRYM","AN1JWYDJH4VQR","3JUDR1D0D6D4CARU3YX9Y3DK5DJ2QK","","null","<img src=""img/land1.png"" style=""width:200px; border:14px solid green;"">","null","","","","","","","","","",""
"","image-keyboard-response","130","49347","0.0-130.0","3L4PIM1GQU2WBGXV00Y61GKIORWRYM","AN1JWYDJH4VQR","3JUDR1D0D6D4CARU3YX9Y3DK5DJ2QK","","62","img/land1.png","74","63","1","0","2","1","0.8,0.2,0.2,0.2,0.8,0.2,0.2,0.2,0.8","0.8,0.2,0.2,0.2,0.8,0.2,0.2,0.2,0.8","1","",""
"","html-keyboard-response","131","49649","0.0-131.0","3L4PIM1GQU2WBGXV00Y61GKIORWRYM","AN1JWYDJH4VQR","3JUDR1D0D6D4CARU3YX9Y3DK5DJ2QK","","null","<img src=""img/land1.png"" style=""width:200px;border:14px solid red;"">","null","","","","","","","","","",""
"","image-keyboard-response","132","49727","0.0-132.0","3L4PIM1GQU2WBGXV00Y61GKIORWRYM","AN1JWYDJH4VQR","3JUDR1D0D6D4CARU3YX9Y3DK5DJ2QK","","76","img/land2.png","76","77","3","0","1","1","0.8,0.2,0.2,0.2,0.8,0.2,0.2,0.2,0.8","0.8,0.2,0.2,0.2,0.8,0.2,0.2,0.2,0.8","1","",""
"","html-keyboard-response","133","50029","0.0-133.0","3L4PIM1GQU2WBGXV00Y61GKIORWRYM","AN1JWYDJH4VQR","3JUDR1D0D6D4CARU3YX9Y3DK5DJ2QK","","null","<img src=""img/land2.png"" style=""width:200px;border:14px solid red;"">","null","","","","","","","","","",""
"","image-keyboard-response","134","50121","0.0-134.0","3L4PIM1GQU2WBGXV00Y61GKIORWRYM","AN1JWYDJH4VQR","3JUDR1D0D6D4CARU3YX9Y3DK5DJ2QK","","84","img/land1.png","74","89","1","0","2","1","0.8,0.2,0.2,0.2,0.8,0.2,0.2,0.2,0.8","0.8,0.2,0.2,0.2,0.8,0.2,0.2,0.2,0.8","1","",""
"","html-keyboard-response","135","50423","0.0-135.0","3L4PIM1GQU2WBGXV00Y61GKIORWRYM","AN1JWYDJH4VQR","3JUDR1D0D6D4CARU3YX9Y3DK5DJ2QK","","null","<img src=""img/land1.png"" style=""width:200px;border:14px solid red;"">","null","","","","","","","","","",""
"","image-keyboard-response","136","50466","0.0-136.0","3L4PIM1GQU2WBGXV00Y61GKIORWRYM","AN1JWYDJH4VQR","3JUDR1D0D6D4CARU3YX9Y3DK5DJ2QK","","42","img/land1.png","74","42","1","0","2","1","0.8,0.2,0.2,0.2,0.8,0.2,0.2,0.2,0.8","0.8,0.2,0.2,0.2,0.8,0.2,0.2,0.2,0.8","1","",""
"","html-keyboard-response","137","50769","0.0-137.0","3L4PIM1GQU2WBGXV00Y61GKIORWRYM","AN1JWYDJH4VQR","3JUDR1D0D6D4CARU3YX9Y3DK5DJ2QK","","null","<img src=""img/land1.png"" style=""width:200px;border:14px solid red;"">","null","","","","","","","","","",""
"","image-keyboard-response","138","50846","0.0-138.0","3L4PIM1GQU2WBGXV00Y61GKIORWRYM","AN1JWYDJH4VQR","3JUDR1D0D6D4CARU3YX9Y3DK5DJ2QK","","75","img/land2.png","74","76","1","1","1","1","0.8,0.2,0.2,0.2,0.8,0.2,0.2,0.2,0.8","0.8,0.2,0.2,0.2,0.8,0.2,0.2,0.2,0.8","1","",""
"","html-keyboard-response","139","51148","0.0-139.0","3L4PIM1GQU2WBGXV00Y61GKIORWRYM","AN1JWYDJH4VQR","3JUDR1D0D6D4CARU3YX9Y3DK5DJ2QK","","null","<img src=""img/land2.png"" style=""width:200px; border:14px solid green;"">","null","","","","","","","","","",""
"","image-keyboard-response","140","51317","0.0-140.0","3L4PIM1GQU2WBGXV00Y61GKIORWRYM","AN1JWYDJH4VQR","3JUDR1D0D6D4CARU3YX9Y3DK5DJ2QK","","168","img/land1.png","74","168","1","1","2","1","0.8,0.2,0.2,0.2,0.8,0.2,0.2,0.2,0.8","0.8,0.2,0.2,0.2,0.8,0.2,0.2,0.2,0.8","1","",""
"","html-keyboard-response","141","51619","0.0-141.0","3L4PIM1GQU2WBGXV00Y61GKIORWRYM","AN1JWYDJH4VQR","3JUDR1D0D6D4CARU3YX9Y3DK5DJ2QK","","null","<img src=""img/land1.png"" style=""width:200px; border:14px solid green;"">","null","","","","","","","","","",""
"","image-keyboard-response","142","51629","0.0-142.0","3L4PIM1GQU2WBGXV00Y61GKIORWRYM","AN1JWYDJH4VQR","3JUDR1D0D6D4CARU3YX9Y3DK5DJ2QK","","9","img/land3.png","74","9","1","0","3","1","0.8,0.2,0.2,0.2,0.8,0.2,0.2,0.2,0.8","0.8,0.2,0.2,0.2,0.8,0.2,0.2,0.2,0.8","1","",""
"","html-keyboard-response","143","52043","0.0-143.0","3L4PIM1GQU2WBGXV00Y61GKIORWRYM","AN1JWYDJH4VQR","3JUDR1D0D6D4CARU3YX9Y3DK5DJ2QK","","null","<img src=""img/land3.png"" style=""width:200px;border:14px solid red;"">","null","","","","","","","","","",""
"","image-keyboard-response","144","52068","0.0-144.0","3L4PIM1GQU2WBGXV00Y61GKIORWRYM","AN1JWYDJH4VQR","3JUDR1D0D6D4CARU3YX9Y3DK5DJ2QK","","25","img/land2.png","75","25","2","0","1","1","0.8,0.2,0.2,0.2,0.8,0.2,0.2,0.2,0.8","0.8,0.2,0.2,0.2,0.8,0.2,0.2,0.2,0.8","1","",""
"","html-keyboard-response","145","52370","0.0-145.0","3L4PIM1GQU2WBGXV00Y61GKIORWRYM","AN1JWYDJH4VQR","3JUDR1D0D6D4CARU3YX9Y3DK5DJ2QK","","null","<img src=""img/land2.png"" style=""width:200px;border:14px solid red;"">","null","","","","","","","","","",""
"","image-keyboard-response","146","52457","0.0-146.0","3L4PIM1GQU2WBGXV00Y61GKIORWRYM","AN1JWYDJH4VQR","3JUDR1D0D6D4CARU3YX9Y3DK5DJ2QK","","85","img/land1.png","74","86","1","1","2","1","0.8,0.2,0.2,0.2,0.8,0.2,0.2,0.2,0.8","0.8,0.2,0.2,0.2,0.8,0.2,0.2,0.2,0.8","1","",""
"","html-keyboard-response","147","52760","0.0-147.0","3L4PIM1GQU2WBGXV00Y61GKIORWRYM","AN1JWYDJH4VQR","3JUDR1D0D6D4CARU3YX9Y3DK5DJ2QK","","null","<img src=""img/land1.png"" style=""width:200px; border:14px solid green;"">","null","","","","","","","","","",""
"","image-keyboard-response","148","52819","0.0-148.0","3L4PIM1GQU2WBGXV00Y61GKIORWRYM","AN1JWYDJH4VQR","3JUDR1D0D6D4CARU3YX9Y3DK5DJ2QK","","59","img/land2.png","74","59","1","1","1","1","0.8,0.2,0.2,0.2,0.8,0.2,0.2,0.2,0.8","0.8,0.2,0.2,0.2,0.8,0.2,0.2,0.2,0.8","1","",""
"","html-keyboard-response","149","53122","0.0-149.0","3L4PIM1GQU2WBGXV00Y61GKIORWRYM","AN1JWYDJH4VQR","3JUDR1D0D6D4CARU3YX9Y3DK5DJ2QK","","null","<img src=""img/land2.png"" style=""width:200px; border:14px solid green;"">","null","","","","","","","","","",""
"","image-keyboard-response","150","53233","0.0-150.0","3L4PIM1GQU2WBGXV00Y61GKIORWRYM","AN1JWYDJH4VQR","3JUDR1D0D6D4CARU3YX9Y3DK5DJ2QK","","108","img/land2.png","74","110","1","1","1","1","0.8,0.2,0.2,0.2,0.8,0.2,0.2,0.2,0.8","0.8,0.2,0.2,0.2,0.8,0.2,0.2,0.2,0.8","1","",""
"","html-keyboard-response","151","53538","0.0-151.0","3L4PIM1GQU2WBGXV00Y61GKIORWRYM","AN1JWYDJH4VQR","3JUDR1D0D6D4CARU3YX9Y3DK5DJ2QK","","null","<img src=""img/land2.png"" style=""width:200px; border:14px solid green;"">","null","","","","","","","","","",""
"","image-keyboard-response","152","53616","0.0-152.0","3L4PIM1GQU2WBGXV00Y61GKIORWRYM","AN1JWYDJH4VQR","3JUDR1D0D6D4CARU3YX9Y3DK5DJ2QK","","75","img/land2.png","74","77","1","1","1","1","0.8,0.2,0.2,0.2,0.8,0.2,0.2,0.2,0.8","0.8,0.2,0.2,0.2,0.8,0.2,0.2,0.2,0.8","1","",""
"","html-keyboard-response","153","53918","0.0-153.0","3L4PIM1GQU2WBGXV00Y61GKIORWRYM","AN1JWYDJH4VQR","3JUDR1D0D6D4CARU3YX9Y3DK5DJ2QK","","null","<img src=""img/land2.png"" style=""width:200px; border:14px solid green;"">","null","","","","","","","","","",""
"","image-keyboard-response","154","54058","0.0-154.0","3L4PIM1GQU2WBGXV00Y61GKIORWRYM","AN1JWYDJH4VQR","3JUDR1D0D6D4CARU3YX9Y3DK5DJ2QK","","136","img/land2.png","74","138","1","1","1","1","0.8,0.2,0.2,0.2,0.8,0.2,0.2,0.2,0.8","0.8,0.2,0.2,0.2,0.8,0.2,0.2,0.2,0.8","1","",""
"","html-keyboard-response","155","54359","0.0-155.0","3L4PIM1GQU2WBGXV00Y61GKIORWRYM","AN1JWYDJH4VQR","3JUDR1D0D6D4CARU3YX9Y3DK5DJ2QK","","null","<img src=""img/land2.png"" style=""width:200px; border:14px solid green;"">","null","","","","","","","","","",""
"","image-keyboard-response","156","54459","0.0-156.0","3L4PIM1GQU2WBGXV00Y61GKIORWRYM","AN1JWYDJH4VQR","3JUDR1D0D6D4CARU3YX9Y3DK5DJ2QK","","97","img/land3.png","74","99","1","0","3","1","0.8,0.2,0.2,0.2,0.8,0.2,0.2,0.2,0.8","0.8,0.2,0.2,0.2,0.8,0.2,0.2,0.2,0.8","1","",""
"","html-keyboard-response","157","54762","0.0-157.0","3L4PIM1GQU2WBGXV00Y61GKIORWRYM","AN1JWYDJH4VQR","3JUDR1D0D6D4CARU3YX9Y3DK5DJ2QK","","null","<img src=""img/land3.png"" style=""width:200px;border:14px solid red;"">","null","","","","","","","","","",""
"","image-keyboard-response","158","54868","0.0-158.0","3L4PIM1GQU2WBGXV00Y61GKIORWRYM","AN1JWYDJH4VQR","3JUDR1D0D6D4CARU3YX9Y3DK5DJ2QK","","102","img/land3.png","74","104","1","0","3","1","0.8,0.2,0.2,0.2,0.8,0.2,0.2,0.2,0.8","0.8,0.2,0.2,0.2,0.8,0.2,0.2,0.2,0.8","1","",""
"","html-keyboard-response","159","55170","0.0-159.0","3L4PIM1GQU2WBGXV00Y61GKIORWRYM","AN1JWYDJH4VQR","3JUDR1D0D6D4CARU3YX9Y3DK5DJ2QK","","null","<img src=""img/land3.png"" style=""width:200px;border:14px solid red;"">","null","","","","","","","","","",""
"","image-keyboard-response","160","55266","0.0-160.0","3L4PIM1GQU2WBGXV00Y61GKIORWRYM","AN1JWYDJH4VQR","3JUDR1D0D6D4CARU3YX9Y3DK5DJ2QK","","94","img/land3.png","75","95","2","0","3","1","0.8,0.2,0.2,0.2,0.8,0.2,0.2,0.2,0.8","0.8,0.2,0.2,0.2,0.8,0.2,0.2,0.2,0.8","1","",""
"","html-keyboard-response","161","55569","0.0-161.0","3L4PIM1GQU2WBGXV00Y61GKIORWRYM","AN1JWYDJH4VQR","3JUDR1D0D6D4CARU3YX9Y3DK5DJ2QK","","null","<img src=""img/land3.png"" style=""width:200px;border:14px solid red;"">","null","","","","","","","","","",""
"","image-keyboard-response","162","55682","0.0-162.0","3L4PIM1GQU2WBGXV00Y61GKIORWRYM","AN1JWYDJH4VQR","3JUDR1D0D6D4CARU3YX9Y3DK5DJ2QK","","109","img/land1.png","74","111","1","0","2","1","0.8,0.2,0.2,0.2,0.8,0.2,0.2,0.2,0.8","0.8,0.2,0.2,0.2,0.8,0.2,0.2,0.2,0.8","1","",""
"","html-keyboard-response","163","56011","0.0-163.0","3L4PIM1GQU2WBGXV00Y61GKIORWRYM","AN1JWYDJH4VQR","3JUDR1D0D6D4CARU3YX9Y3DK5DJ2QK","","null","<img src=""img/land1.png"" style=""width:200px;border:14px solid red;"">","null","","","","","","","","","",""
"","image-keyboard-response","164","56047","0.0-164.0","3L4PIM1GQU2WBGXV00Y61GKIORWRYM","AN1JWYDJH4VQR","3JUDR1D0D6D4CARU3YX9Y3DK5DJ2QK","","33","img/land3.png","74","35","1","1","3","1","0.8,0.2,0.2,0.2,0.8,0.2,0.2,0.2,0.8","0.8,0.2,0.2,0.2,0.8,0.2,0.2,0.2,0.8","1","",""
"","html-keyboard-response","165","56349","0.0-165.0","3L4PIM1GQU2WBGXV00Y61GKIORWRYM","AN1JWYDJH4VQR","3JUDR1D0D6D4CARU3YX9Y3DK5DJ2QK","","null","<img src=""img/land3.png"" style=""width:200px; border:14px solid green;"">","null","","","","","","","","","",""
"","image-keyboard-response","166","56459","0.0-166.0","3L4PIM1GQU2WBGXV00Y61GKIORWRYM","AN1JWYDJH4VQR","3JUDR1D0D6D4CARU3YX9Y3DK5DJ2QK","","107","img/land3.png","75","109","2","0","3","1","0.8,0.2,0.2,0.2,0.8,0.2,0.2,0.2,0.8","0.8,0.2,0.2,0.2,0.8,0.2,0.2,0.2,0.8","1","",""
"","html-keyboard-response","167","56764","0.0-167.0","3L4PIM1GQU2WBGXV00Y61GKIORWRYM","AN1JWYDJH4VQR","3JUDR1D0D6D4CARU3YX9Y3DK5DJ2QK","","null","<img src=""img/land3.png"" style=""width:200px;border:14px solid red;"">","null","","","","","","","","","",""
"","image-keyboard-response","168","56889","0.0-168.0","3L4PIM1GQU2WBGXV00Y61GKIORWRYM","AN1JWYDJH4VQR","3JUDR1D0D6D4CARU3YX9Y3DK5DJ2QK","","120","img/land2.png","74","123","1","1","1","1","0.8,0.2,0.2,0.2,0.8,0.2,0.2,0.2,0.8","0.8,0.2,0.2,0.2,0.8,0.2,0.2,0.2,0.8","1","",""
"","html-keyboard-response","169","57191","0.0-169.0","3L4PIM1GQU2WBGXV00Y61GKIORWRYM","AN1JWYDJH4VQR","3JUDR1D0D6D4CARU3YX9Y3DK5DJ2QK","","null","<img src=""img/land2.png"" style=""width:200px; border:14px solid green;"">","null","","","","","","","","","",""
"","image-keyboard-response","170","57252","0.0-170.0","3L4PIM1GQU2WBGXV00Y61GKIORWRYM","AN1JWYDJH4VQR","3JUDR1D0D6D4CARU3YX9Y3DK5DJ2QK","","58","img/land1.png","74","60","1","0","2","1","0.8,0.2,0.2,0.2,0.8,0.2,0.2,0.2,0.8","0.8,0.2,0.2,0.2,0.8,0.2,0.2,0.2,0.8","1","",""
"","html-keyboard-response","171","57555","0.0-171.0","3L4PIM1GQU2WBGXV00Y61GKIORWRYM","AN1JWYDJH4VQR","3JUDR1D0D6D4CARU3YX9Y3DK5DJ2QK","","null","<img src=""img/land1.png"" style=""width:200px;border:14px solid red;"">","null","","","","","","","","","",""
"","image-keyboard-response","172","57659","0.0-172.0","3L4PIM1GQU2WBGXV00Y61GKIORWRYM","AN1JWYDJH4VQR","3JUDR1D0D6D4CARU3YX9Y3DK5DJ2QK","","99","img/land1.png","74","102","1","1","2","1","0.8,0.2,0.2,0.2,0.8,0.2,0.2,0.2,0.8","0.8,0.2,0.2,0.2,0.8,0.2,0.2,0.2,0.8","1","",""
"","html-keyboard-response","173","57964","0.0-173.0","3L4PIM1GQU2WBGXV00Y61GKIORWRYM","AN1JWYDJH4VQR","3JUDR1D0D6D4CARU3YX9Y3DK5DJ2QK","","null","<img src=""img/land1.png"" style=""width:200px; border:14px solid green;"">","null","","","","","","","","","",""
"","image-keyboard-response","174","58029","0.0-174.0","3L4PIM1GQU2WBGXV00Y61GKIORWRYM","AN1JWYDJH4VQR","3JUDR1D0D6D4CARU3YX9Y3DK5DJ2QK","","62","img/land3.png","75","65","2","0","3","1","0.8,0.2,0.2,0.2,0.8,0.2,0.2,0.2,0.8","0.8,0.2,0.2,0.2,0.8,0.2,0.2,0.2,0.8","1","",""
"","html-keyboard-response","175","58331","0.0-175.0","3L4PIM1GQU2WBGXV00Y61GKIORWRYM","AN1JWYDJH4VQR","3JUDR1D0D6D4CARU3YX9Y3DK5DJ2QK","","null","<img src=""img/land3.png"" style=""width:200px;border:14px solid red;"">","null","","","","","","","","","",""
"","image-keyboard-response","176","58386","0.0-176.0","3L4PIM1GQU2WBGXV00Y61GKIORWRYM","AN1JWYDJH4VQR","3JUDR1D0D6D4CARU3YX9Y3DK5DJ2QK","","53","img/land3.png","75","55","2","1","3","1","0.8,0.2,0.2,0.2,0.8,0.2,0.2,0.2,0.8","0.8,0.2,0.2,0.2,0.8,0.2,0.2,0.2,0.8","1","",""
"","html-keyboard-response","177","58689","0.0-177.0","3L4PIM1GQU2WBGXV00Y61GKIORWRYM","AN1JWYDJH4VQR","3JUDR1D0D6D4CARU3YX9Y3DK5DJ2QK","","null","<img src=""img/land3.png"" style=""width:200px; border:14px solid green;"">","null","","","","","","","","","",""
"","image-keyboard-response","178","58757","0.0-178.0","3L4PIM1GQU2WBGXV00Y61GKIORWRYM","AN1JWYDJH4VQR","3JUDR1D0D6D4CARU3YX9Y3DK5DJ2QK","","65","img/land3.png","74","66","1","1","3","1","0.8,0.2,0.2,0.2,0.8,0.2,0.2,0.2,0.8","0.8,0.2,0.2,0.2,0.8,0.2,0.2,0.2,0.8","1","",""
"","html-keyboard-response","179","59059","0.0-179.0","3L4PIM1GQU2WBGXV00Y61GKIORWRYM","AN1JWYDJH4VQR","3JUDR1D0D6D4CARU3YX9Y3DK5DJ2QK","","null","<img src=""img/land3.png"" style=""width:200px; border:14px solid green;"">","null","","","","","","","","","",""
"","image-keyboard-response","180","59258","0.0-180.0","3L4PIM1GQU2WBGXV00Y61GKIORWRYM","AN1JWYDJH4VQR","3JUDR1D0D6D4CARU3YX9Y3DK5DJ2QK","","195","img/land1.png","75","197","2","1","2","1","0.8,0.2,0.2,0.2,0.8,0.2,0.2,0.2,0.8","0.8,0.2,0.2,0.2,0.8,0.2,0.2,0.2,0.8","1","",""
"","html-keyboard-response","181","59560","0.0-181.0","3L4PIM1GQU2WBGXV00Y61GKIORWRYM","AN1JWYDJH4VQR","3JUDR1D0D6D4CARU3YX9Y3DK5DJ2QK","","null","<img src=""img/land1.png"" style=""width:200px; border:14px solid green;"">","null","","","","","","","","","",""
"","html-keyboard-response","182","62691","0.0-182.0","3L4PIM1GQU2WBGXV00Y61GKIORWRYM","AN1JWYDJH4VQR","3JUDR1D0D6D4CARU3YX9Y3DK5DJ2QK","","","","","","","","","","","","","",""
"","image-keyboard-response","183","64698","0.0-183.0","3L4PIM1GQU2WBGXV00Y61GKIORWRYM","AN1JWYDJH4VQR","3JUDR1D0D6D4CARU3YX9Y3DK5DJ2QK","","","img/land4.png","","2007","-1","0","1","2","0.8,0.2,0.2,0.2,0.8,0.2,0.2,0.2,0.8","0.8,0.2,0.2,0.2,0.8,0.2,0.2,0.2,0.8","1","",""
"","html-keyboard-response","184","65003","0.0-184.0","3L4PIM1GQU2WBGXV00Y61GKIORWRYM","AN1JWYDJH4VQR","3JUDR1D0D6D4CARU3YX9Y3DK5DJ2QK","","null","<img src=""img/land4.png"" style=""width:200px;border:14px solid red;"">","null","","","","","","","","","",""
"","image-keyboard-response","185","65169","0.0-185.0","3L4PIM1GQU2WBGXV00Y61GKIORWRYM","AN1JWYDJH4VQR","3JUDR1D0D6D4CARU3YX9Y3DK5DJ2QK","","162","img/land6.png","74","164","1","0","3","2","0.8,0.2,0.2,0.2,0.8,0.2,0.2,0.2,0.8","0.8,0.2,0.2,0.2,0.8,0.2,0.2,0.2,0.8","1","",""
"","html-keyboard-response","186","65473","0.0-186.0","3L4PIM1GQU2WBGXV00Y61GKIORWRYM","AN1JWYDJH4VQR","3JUDR1D0D6D4CARU3YX9Y3DK5DJ2QK","","null","<img src=""img/land6.png"" style=""width:200px;border:14px solid red;"">","null","","","","","","","","","",""
"","image-keyboard-response","187","65528","0.0-187.0","3L4PIM1GQU2WBGXV00Y61GKIORWRYM","AN1JWYDJH4VQR","3JUDR1D0D6D4CARU3YX9Y3DK5DJ2QK","","53","img/land4.png","75","54","2","1","1","2","0.8,0.2,0.2,0.2,0.8,0.2,0.2,0.2,0.8","0.8,0.2,0.2,0.2,0.8,0.2,0.2,0.2,0.8","1","",""
"","html-keyboard-response","188","65832","0.0-188.0","3L4PIM1GQU2WBGXV00Y61GKIORWRYM","AN1JWYDJH4VQR","3JUDR1D0D6D4CARU3YX9Y3DK5DJ2QK","","null","<img src=""img/land4.png"" style=""width:200px; border:14px solid green;"">","null","","","","","","","","","",""
"","image-keyboard-response","189","66066","0.0-189.0","3L4PIM1GQU2WBGXV00Y61GKIORWRYM","AN1JWYDJH4VQR","3JUDR1D0D6D4CARU3YX9Y3DK5DJ2QK","","233","img/land5.png","75","233","2","1","2","2","0.8,0.2,0.2,0.2,0.8,0.2,0.2,0.2,0.8","0.8,0.2,0.2,0.2,0.8,0.2,0.2,0.2,0.8","1","",""
"","html-keyboard-response","190","66368","0.0-190.0","3L4PIM1GQU2WBGXV00Y61GKIORWRYM","AN1JWYDJH4VQR","3JUDR1D0D6D4CARU3YX9Y3DK5DJ2QK","","null","<img src=""img/land5.png"" style=""width:200px; border:14px solid green;"">","null","","","","","","","","","",""
"","image-keyboard-response","191","66449","0.0-191.0","3L4PIM1GQU2WBGXV00Y61GKIORWRYM","AN1JWYDJH4VQR","3JUDR1D0D6D4CARU3YX9Y3DK5DJ2QK","","77","img/land4.png","75","80","2","0","1","2","0.8,0.2,0.2,0.2,0.8,0.2,0.2,0.2,0.8","0.8,0.2,0.2,0.2,0.8,0.2,0.2,0.2,0.8","1","",""
"","html-keyboard-response","192","66754","0.0-192.0","3L4PIM1GQU2WBGXV00Y61GKIORWRYM","AN1JWYDJH4VQR","3JUDR1D0D6D4CARU3YX9Y3DK5DJ2QK","","null","<img src=""img/land4.png"" style=""width:200px;border:14px solid red;"">","null","","","","","","","","","",""
"","image-keyboard-response","193","66859","0.0-193.0","3L4PIM1GQU2WBGXV00Y61GKIORWRYM","AN1JWYDJH4VQR","3JUDR1D0D6D4CARU3YX9Y3DK5DJ2QK","","102","img/land4.png","74","104","1","1","1","2","0.8,0.2,0.2,0.2,0.8,0.2,0.2,0.2,0.8","0.8,0.2,0.2,0.2,0.8,0.2,0.2,0.2,0.8","1","",""
"","html-keyboard-response","194","67163","0.0-194.0","3L4PIM1GQU2WBGXV00Y61GKIORWRYM","AN1JWYDJH4VQR","3JUDR1D0D6D4CARU3YX9Y3DK5DJ2QK","","null","<img src=""img/land4.png"" style=""width:200px; border:14px solid green;"">","null","","","","","","","","","",""
"","image-keyboard-response","195","67247","0.0-195.0","3L4PIM1GQU2WBGXV00Y61GKIORWRYM","AN1JWYDJH4VQR","3JUDR1D0D6D4CARU3YX9Y3DK5DJ2QK","","82","img/land5.png","75","83","2","1","2","2","0.8,0.2,0.2,0.2,0.8,0.2,0.2,0.2,0.8","0.8,0.2,0.2,0.2,0.8,0.2,0.2,0.2,0.8","1","",""
"","html-keyboard-response","196","67550","0.0-196.0","3L4PIM1GQU2WBGXV00Y61GKIORWRYM","AN1JWYDJH4VQR","3JUDR1D0D6D4CARU3YX9Y3DK5DJ2QK","","null","<img src=""img/land5.png"" style=""width:200px; border:14px solid green;"">","null","","","","","","","","","",""
"","image-keyboard-response","197","67627","0.0-197.0","3L4PIM1GQU2WBGXV00Y61GKIORWRYM","AN1JWYDJH4VQR","3JUDR1D0D6D4CARU3YX9Y3DK5DJ2QK","","73","img/land5.png","75","75","2","0","2","2","0.8,0.2,0.2,0.2,0.8,0.2,0.2,0.2,0.8","0.8,0.2,0.2,0.2,0.8,0.2,0.2,0.2,0.8","1","",""
"","html-keyboard-response","198","67930","0.0-198.0","3L4PIM1GQU2WBGXV00Y61GKIORWRYM","AN1JWYDJH4VQR","3JUDR1D0D6D4CARU3YX9Y3DK5DJ2QK","","null","<img src=""img/land5.png"" style=""width:200px;border:14px solid red;"">","null","","","","","","","","","",""
"","image-keyboard-response","199","68016","0.0-199.0","3L4PIM1GQU2WBGXV00Y61GKIORWRYM","AN1JWYDJH4VQR","3JUDR1D0D6D4CARU3YX9Y3DK5DJ2QK","","83","img/land4.png","74","85","1","1","1","2","0.8,0.2,0.2,0.2,0.8,0.2,0.2,0.2,0.8","0.8,0.2,0.2,0.2,0.8,0.2,0.2,0.2,0.8","1","",""
"","html-keyboard-response","200","68318","0.0-200.0","3L4PIM1GQU2WBGXV00Y61GKIORWRYM","AN1JWYDJH4VQR","3JUDR1D0D6D4CARU3YX9Y3DK5DJ2QK","","null","<img src=""img/land4.png"" style=""width:200px; border:14px solid green;"">","null","","","","","","","","","",""
"","image-keyboard-response","201","68428","0.0-201.0","3L4PIM1GQU2WBGXV00Y61GKIORWRYM","AN1JWYDJH4VQR","3JUDR1D0D6D4CARU3YX9Y3DK5DJ2QK","","107","img/land4.png","76","108","3","0","1","2","0.8,0.2,0.2,0.2,0.8,0.2,0.2,0.2,0.8","0.8,0.2,0.2,0.2,0.8,0.2,0.2,0.2,0.8","1","",""
"","html-keyboard-response","202","68731","0.0-202.0","3L4PIM1GQU2WBGXV00Y61GKIORWRYM","AN1JWYDJH4VQR","3JUDR1D0D6D4CARU3YX9Y3DK5DJ2QK","","null","<img src=""img/land4.png"" style=""width:200px;border:14px solid red;"">","null","","","","","","","","","",""
"","image-keyboard-response","203","68784","0.0-203.0","3L4PIM1GQU2WBGXV00Y61GKIORWRYM","AN1JWYDJH4VQR","3JUDR1D0D6D4CARU3YX9Y3DK5DJ2QK","","49","img/land4.png","75","51","2","1","1","2","0.8,0.2,0.2,0.2,0.8,0.2,0.2,0.2,0.8","0.8,0.2,0.2,0.2,0.8,0.2,0.2,0.2,0.8","1","",""
"","html-keyboard-response","204","69088","0.0-204.0","3L4PIM1GQU2WBGXV00Y61GKIORWRYM","AN1JWYDJH4VQR","3JUDR1D0D6D4CARU3YX9Y3DK5DJ2QK","","null","<img src=""img/land4.png"" style=""width:200px; border:14px solid green;"">","null","","","","","","","","","",""
"","image-keyboard-response","205","69169","0.0-205.0","3L4PIM1GQU2WBGXV00Y61GKIORWRYM","AN1JWYDJH4VQR","3JUDR1D0D6D4CARU3YX9Y3DK5DJ2QK","","79","img/land4.png","74","81","1","1","1","2","0.8,0.2,0.2,0.2,0.8,0.2,0.2,0.2,0.8","0.8,0.2,0.2,0.2,0.8,0.2,0.2,0.2,0.8","1","",""
"","html-keyboard-response","206","69470","0.0-206.0","3L4PIM1GQU2WBGXV00Y61GKIORWRYM","AN1JWYDJH4VQR","3JUDR1D0D6D4CARU3YX9Y3DK5DJ2QK","","null","<img src=""img/land4.png"" style=""width:200px; border:14px solid green;"">","null","","","","","","","","","",""
"","image-keyboard-response","207","69506","0.0-207.0","3L4PIM1GQU2WBGXV00Y61GKIORWRYM","AN1JWYDJH4VQR","3JUDR1D0D6D4CARU3YX9Y3DK5DJ2QK","","33","img/land4.png","75","35","2","0","1","2","0.8,0.2,0.2,0.2,0.8,0.2,0.2,0.2,0.8","0.8,0.2,0.2,0.2,0.8,0.2,0.2,0.2,0.8","1","",""
"","html-keyboard-response","208","69808","0.0-208.0","3L4PIM1GQU2WBGXV00Y61GKIORWRYM","AN1JWYDJH4VQR","3JUDR1D0D6D4CARU3YX9Y3DK5DJ2QK","","null","<img src=""img/land4.png"" style=""width:200px;border:14px solid red;"">","null","","","","","","","","","",""
"","image-keyboard-response","209","69906","0.0-209.0","3L4PIM1GQU2WBGXV00Y61GKIORWRYM","AN1JWYDJH4VQR","3JUDR1D0D6D4CARU3YX9Y3DK5DJ2QK","","91","img/land4.png","74","92","1","1","1","2","0.8,0.2,0.2,0.2,0.8,0.2,0.2,0.2,0.8","0.8,0.2,0.2,0.2,0.8,0.2,0.2,0.2,0.8","1","",""
"","html-keyboard-response","210","70207","0.0-210.0","3L4PIM1GQU2WBGXV00Y61GKIORWRYM","AN1JWYDJH4VQR","3JUDR1D0D6D4CARU3YX9Y3DK5DJ2QK","","null","<img src=""img/land4.png"" style=""width:200px; border:14px solid green;"">","null","","","","","","","","","",""
"","image-keyboard-response","211","70288","0.0-211.0","3L4PIM1GQU2WBGXV00Y61GKIORWRYM","AN1JWYDJH4VQR","3JUDR1D0D6D4CARU3YX9Y3DK5DJ2QK","","79","img/land6.png","74","80","1","0","3","2","0.8,0.2,0.2,0.2,0.8,0.2,0.2,0.2,0.8","0.8,0.2,0.2,0.2,0.8,0.2,0.2,0.2,0.8","1","",""
"","html-keyboard-response","212","70589","0.0-212.0","3L4PIM1GQU2WBGXV00Y61GKIORWRYM","AN1JWYDJH4VQR","3JUDR1D0D6D4CARU3YX9Y3DK5DJ2QK","","null","<img src=""img/land6.png"" style=""width:200px;border:14px solid red;"">","null","","","","","","","","","",""
"","image-keyboard-response","213","70607","0.0-213.0","3L4PIM1GQU2WBGXV00Y61GKIORWRYM","AN1JWYDJH4VQR","3JUDR1D0D6D4CARU3YX9Y3DK5DJ2QK","","14","img/land4.png","75","16","2","0","1","2","0.8,0.2,0.2,0.2,0.8,0.2,0.2,0.2,0.8","0.8,0.2,0.2,0.2,0.8,0.2,0.2,0.2,0.8","1","",""
"","html-keyboard-response","214","70911","0.0-214.0","3L4PIM1GQU2WBGXV00Y61GKIORWRYM","AN1JWYDJH4VQR","3JUDR1D0D6D4CARU3YX9Y3DK5DJ2QK","","null","<img src=""img/land4.png"" style=""width:200px;border:14px solid red;"">","null","","","","","","","","","",""
"","image-keyboard-response","215","70956","0.0-215.0","3L4PIM1GQU2WBGXV00Y61GKIORWRYM","AN1JWYDJH4VQR","3JUDR1D0D6D4CARU3YX9Y3DK5DJ2QK","","44","img/land5.png","74","45","1","0","2","2","0.8,0.2,0.2,0.2,0.8,0.2,0.2,0.2,0.8","0.8,0.2,0.2,0.2,0.8,0.2,0.2,0.2,0.8","1","",""
"","html-keyboard-response","216","71257","0.0-216.0","3L4PIM1GQU2WBGXV00Y61GKIORWRYM","AN1JWYDJH4VQR","3JUDR1D0D6D4CARU3YX9Y3DK5DJ2QK","","null","<img src=""img/land5.png"" style=""width:200px;border:14px solid red;"">","null","","","","","","","","","",""
"","image-keyboard-response","217","71417","0.0-217.0","3L4PIM1GQU2WBGXV00Y61GKIORWRYM","AN1JWYDJH4VQR","3JUDR1D0D6D4CARU3YX9Y3DK5DJ2QK","","158","img/land5.png","76","159","3","0","2","2","0.8,0.2,0.2,0.2,0.8,0.2,0.2,0.2,0.8","0.8,0.2,0.2,0.2,0.8,0.2,0.2,0.2,0.8","1","",""
"","html-keyboard-response","218","71720","0.0-218.0","3L4PIM1GQU2WBGXV00Y61GKIORWRYM","AN1JWYDJH4VQR","3JUDR1D0D6D4CARU3YX9Y3DK5DJ2QK","","null","<img src=""img/land5.png"" style=""width:200px;border:14px solid red;"">","null","","","","","","","","","",""
"","image-keyboard-response","219","71783","0.0-219.0","3L4PIM1GQU2WBGXV00Y61GKIORWRYM","AN1JWYDJH4VQR","3JUDR1D0D6D4CARU3YX9Y3DK5DJ2QK","","61","img/land4.png","74","63","1","1","1","2","0.8,0.2,0.2,0.2,0.8,0.2,0.2,0.2,0.8","0.8,0.2,0.2,0.2,0.8,0.2,0.2,0.2,0.8","1","",""
"","html-keyboard-response","220","72086","0.0-220.0","3L4PIM1GQU2WBGXV00Y61GKIORWRYM","AN1JWYDJH4VQR","3JUDR1D0D6D4CARU3YX9Y3DK5DJ2QK","","null","<img src=""img/land4.png"" style=""width:200px; border:14px solid green;"">","null","","","","","","","","","",""
"","image-keyboard-response","221","72152","0.0-221.0","3L4PIM1GQU2WBGXV00Y61GKIORWRYM","AN1JWYDJH4VQR","3JUDR1D0D6D4CARU3YX9Y3DK5DJ2QK","","62","img/land4.png","74","65","1","1","1","2","0.8,0.2,0.2,0.2,0.8,0.2,0.2,0.2,0.8","0.8,0.2,0.2,0.2,0.8,0.2,0.2,0.2,0.8","1","",""
"","html-keyboard-response","222","72454","0.0-222.0","3L4PIM1GQU2WBGXV00Y61GKIORWRYM","AN1JWYDJH4VQR","3JUDR1D0D6D4CARU3YX9Y3DK5DJ2QK","","null","<img src=""img/land4.png"" style=""width:200px; border:14px solid green;"">","null","","","","","","","","","",""
"","image-keyboard-response","223","72513","0.0-223.0","3L4PIM1GQU2WBGXV00Y61GKIORWRYM","AN1JWYDJH4VQR","3JUDR1D0D6D4CARU3YX9Y3DK5DJ2QK","","54","img/land4.png","74","58","1","1","1","2","0.8,0.2,0.2,0.2,0.8,0.2,0.2,0.2,0.8","0.8,0.2,0.2,0.2,0.8,0.2,0.2,0.2,0.8","1","",""
"","html-keyboard-response","224","72817","0.0-224.0","3L4PIM1GQU2WBGXV00Y61GKIORWRYM","AN1JWYDJH4VQR","3JUDR1D0D6D4CARU3YX9Y3DK5DJ2QK","","null","<img src=""img/land4.png"" style=""width:200px; border:14px solid green;"">","null","","","","","","","","","",""
"","image-keyboard-response","225","72907","0.0-225.0","3L4PIM1GQU2WBGXV00Y61GKIORWRYM","AN1JWYDJH4VQR","3JUDR1D0D6D4CARU3YX9Y3DK5DJ2QK","","87","img/land4.png","75","89","2","0","1","2","0.8,0.2,0.2,0.2,0.8,0.2,0.2,0.2,0.8","0.8,0.2,0.2,0.2,0.8,0.2,0.2,0.2,0.8","1","",""
"","html-keyboard-response","226","73210","0.0-226.0","3L4PIM1GQU2WBGXV00Y61GKIORWRYM","AN1JWYDJH4VQR","3JUDR1D0D6D4CARU3YX9Y3DK5DJ2QK","","null","<img src=""img/land4.png"" style=""width:200px;border:14px solid red;"">","null","","","","","","","","","",""
"","image-keyboard-response","227","73289","0.0-227.0","3L4PIM1GQU2WBGXV00Y61GKIORWRYM","AN1JWYDJH4VQR","3JUDR1D0D6D4CARU3YX9Y3DK5DJ2QK","","71","img/land4.png","74","76","1","0","1","2","0.8,0.2,0.2,0.2,0.8,0.2,0.2,0.2,0.8","0.8,0.2,0.2,0.2,0.8,0.2,0.2,0.2,0.8","1","",""
"","html-keyboard-response","228","73595","0.0-228.0","3L4PIM1GQU2WBGXV00Y61GKIORWRYM","AN1JWYDJH4VQR","3JUDR1D0D6D4CARU3YX9Y3DK5DJ2QK","","null","<img src=""img/land4.png"" style=""width:200px;border:14px solid red;"">","null","","","","","","","","","",""
"","image-keyboard-response","229","73651","0.0-229.0","3L4PIM1GQU2WBGXV00Y61GKIORWRYM","AN1JWYDJH4VQR","3JUDR1D0D6D4CARU3YX9Y3DK5DJ2QK","","52","img/land4.png","74","54","1","1","1","2","0.8,0.2,0.2,0.2,0.8,0.2,0.2,0.2,0.8","0.8,0.2,0.2,0.2,0.8,0.2,0.2,0.2,0.8","1","",""
"","html-keyboard-response","230","73954","0.0-230.0","3L4PIM1GQU2WBGXV00Y61GKIORWRYM","AN1JWYDJH4VQR","3JUDR1D0D6D4CARU3YX9Y3DK5DJ2QK","","null","<img src=""img/land4.png"" style=""width:200px; border:14px solid green;"">","null","","","","","","","","","",""
"","image-keyboard-response","231","74047","0.0-231.0","3L4PIM1GQU2WBGXV00Y61GKIORWRYM","AN1JWYDJH4VQR","3JUDR1D0D6D4CARU3YX9Y3DK5DJ2QK","","83","img/land4.png","74","87","1","1","1","2","0.8,0.2,0.2,0.2,0.8,0.2,0.2,0.2,0.8","0.8,0.2,0.2,0.2,0.8,0.2,0.2,0.2,0.8","1","",""
"","html-keyboard-response","232","74349","0.0-232.0","3L4PIM1GQU2WBGXV00Y61GKIORWRYM","AN1JWYDJH4VQR","3JUDR1D0D6D4CARU3YX9Y3DK5DJ2QK","","null","<img src=""img/land4.png"" style=""width:200px; border:14px solid green;"">","null","","","","","","","","","",""
"","image-keyboard-response","233","74366","0.0-233.0","3L4PIM1GQU2WBGXV00Y61GKIORWRYM","AN1JWYDJH4VQR","3JUDR1D0D6D4CARU3YX9Y3DK5DJ2QK","","16","img/land4.png","74","16","1","1","1","2","0.8,0.2,0.2,0.2,0.8,0.2,0.2,0.2,0.8","0.8,0.2,0.2,0.2,0.8,0.2,0.2,0.2,0.8","1","",""
"","html-keyboard-response","234","74667","0.0-234.0","3L4PIM1GQU2WBGXV00Y61GKIORWRYM","AN1JWYDJH4VQR","3JUDR1D0D6D4CARU3YX9Y3DK5DJ2QK","","null","<img src=""img/land4.png"" style=""width:200px; border:14px solid green;"">","null","","","","","","","","","",""
"","image-keyboard-response","235","74769","0.0-235.0","3L4PIM1GQU2WBGXV00Y61GKIORWRYM","AN1JWYDJH4VQR","3JUDR1D0D6D4CARU3YX9Y3DK5DJ2QK","","98","img/land4.png","74","100","1","1","1","2","0.8,0.2,0.2,0.2,0.8,0.2,0.2,0.2,0.8","0.8,0.2,0.2,0.2,0.8,0.2,0.2,0.2,0.8","1","",""
"","html-keyboard-response","236","75071","0.0-236.0","3L4PIM1GQU2WBGXV00Y61GKIORWRYM","AN1JWYDJH4VQR","3JUDR1D0D6D4CARU3YX9Y3DK5DJ2QK","","null","<img src=""img/land4.png"" style=""width:200px; border:14px solid green;"">","null","","","","","","","","","",""
"","image-keyboard-response","237","75146","0.0-237.0","3L4PIM1GQU2WBGXV00Y61GKIORWRYM","AN1JWYDJH4VQR","3JUDR1D0D6D4CARU3YX9Y3DK5DJ2QK","","71","img/land4.png","74","73","1","1","1","2","0.8,0.2,0.2,0.2,0.8,0.2,0.2,0.2,0.8","0.8,0.2,0.2,0.2,0.8,0.2,0.2,0.2,0.8","1","",""
"","html-keyboard-response","238","75448","0.0-238.0","3L4PIM1GQU2WBGXV00Y61GKIORWRYM","AN1JWYDJH4VQR","3JUDR1D0D6D4CARU3YX9Y3DK5DJ2QK","","null","<img src=""img/land4.png"" style=""width:200px; border:14px solid green;"">","null","","","","","","","","","",""
"","image-keyboard-response","239","75518","0.0-239.0","3L4PIM1GQU2WBGXV00Y61GKIORWRYM","AN1JWYDJH4VQR","3JUDR1D0D6D4CARU3YX9Y3DK5DJ2QK","","67","img/land5.png","75","69","2","1","2","2","0.8,0.2,0.2,0.2,0.8,0.2,0.2,0.2,0.8","0.8,0.2,0.2,0.2,0.8,0.2,0.2,0.2,0.8","1","",""
"","html-keyboard-response","240","75843","0.0-240.0","3L4PIM1GQU2WBGXV00Y61GKIORWRYM","AN1JWYDJH4VQR","3JUDR1D0D6D4CARU3YX9Y3DK5DJ2QK","","null","<img src=""img/land5.png"" style=""width:200px; border:14px solid green;"">","null","","","","","","","","","",""
"","image-keyboard-response","241","75980","0.0-241.0","3L4PIM1GQU2WBGXV00Y61GKIORWRYM","AN1JWYDJH4VQR","3JUDR1D0D6D4CARU3YX9Y3DK5DJ2QK","","137","img/land5.png","75","137","2","1","2","2","0.8,0.2,0.2,0.2,0.8,0.2,0.2,0.2,0.8","0.8,0.2,0.2,0.2,0.8,0.2,0.2,0.2,0.8","1","",""
"","html-keyboard-response","242","76283","0.0-242.0","3L4PIM1GQU2WBGXV00Y61GKIORWRYM","AN1JWYDJH4VQR","3JUDR1D0D6D4CARU3YX9Y3DK5DJ2QK","","null","<img src=""img/land5.png"" style=""width:200px; border:14px solid green;"">","null","","","","","","","","","",""
"","image-keyboard-response","243","76293","0.0-243.0","3L4PIM1GQU2WBGXV00Y61GKIORWRYM","AN1JWYDJH4VQR","3JUDR1D0D6D4CARU3YX9Y3DK5DJ2QK","","7","img/land5.png","76","9","3","0","2","2","0.8,0.2,0.2,0.2,0.8,0.2,0.2,0.2,0.8","0.8,0.2,0.2,0.2,0.8,0.2,0.2,0.2,0.8","1","",""
"","html-keyboard-response","244","76596","0.0-244.0","3L4PIM1GQU2WBGXV00Y61GKIORWRYM","AN1JWYDJH4VQR","3JUDR1D0D6D4CARU3YX9Y3DK5DJ2QK","","null","<img src=""img/land5.png"" style=""width:200px;border:14px solid red;"">","null","","","","","","","","","",""
"","image-keyboard-response","245","76664","0.0-245.0","3L4PIM1GQU2WBGXV00Y61GKIORWRYM","AN1JWYDJH4VQR","3JUDR1D0D6D4CARU3YX9Y3DK5DJ2QK","","65","img/land6.png","75","66","2","0","3","2","0.8,0.2,0.2,0.2,0.8,0.2,0.2,0.2,0.8","0.8,0.2,0.2,0.2,0.8,0.2,0.2,0.2,0.8","1","",""
"","html-keyboard-response","246","76967","0.0-246.0","3L4PIM1GQU2WBGXV00Y61GKIORWRYM","AN1JWYDJH4VQR","3JUDR1D0D6D4CARU3YX9Y3DK5DJ2QK","","null","<img src=""img/land6.png"" style=""width:200px;border:14px solid red;"">","null","","","","","","","","","",""
"","image-keyboard-response","247","77087","0.0-247.0","3L4PIM1GQU2WBGXV00Y61GKIORWRYM","AN1JWYDJH4VQR","3JUDR1D0D6D4CARU3YX9Y3DK5DJ2QK","","118","img/land4.png","74","119","1","1","1","2","0.8,0.2,0.2,0.2,0.8,0.2,0.2,0.2,0.8","0.8,0.2,0.2,0.2,0.8,0.2,0.2,0.2,0.8","1","",""
"","html-keyboard-response","248","77392","0.0-248.0","3L4PIM1GQU2WBGXV00Y61GKIORWRYM","AN1JWYDJH4VQR","3JUDR1D0D6D4CARU3YX9Y3DK5DJ2QK","","null","<img src=""img/land4.png"" style=""width:200px; border:14px solid green;"">","null","","","","","","","","","",""
"","image-keyboard-response","249","77426","0.0-249.0","3L4PIM1GQU2WBGXV00Y61GKIORWRYM","AN1JWYDJH4VQR","3JUDR1D0D6D4CARU3YX9Y3DK5DJ2QK","","29","img/land6.png","74","32","1","0","3","2","0.8,0.2,0.2,0.2,0.8,0.2,0.2,0.2,0.8","0.8,0.2,0.2,0.2,0.8,0.2,0.2,0.2,0.8","1","",""
"","html-keyboard-response","250","77730","0.0-250.0","3L4PIM1GQU2WBGXV00Y61GKIORWRYM","AN1JWYDJH4VQR","3JUDR1D0D6D4CARU3YX9Y3DK5DJ2QK","","null","<img src=""img/land6.png"" style=""width:200px;border:14px solid red;"">","null","","","","","","","","","",""
"","image-keyboard-response","251","77816","0.0-251.0","3L4PIM1GQU2WBGXV00Y61GKIORWRYM","AN1JWYDJH4VQR","3JUDR1D0D6D4CARU3YX9Y3DK5DJ2QK","","84","img/land6.png","74","85","1","0","3","2","0.8,0.2,0.2,0.2,0.8,0.2,0.2,0.2,0.8","0.8,0.2,0.2,0.2,0.8,0.2,0.2,0.2,0.8","1","",""
"","html-keyboard-response","252","78118","0.0-252.0","3L4PIM1GQU2WBGXV00Y61GKIORWRYM","AN1JWYDJH4VQR","3JUDR1D0D6D4CARU3YX9Y3DK5DJ2QK","","null","<img src=""img/land6.png"" style=""width:200px;border:14px solid red;"">","null","","","","","","","","","",""
"","image-keyboard-response","253","78187","0.0-253.0","3L4PIM1GQU2WBGXV00Y61GKIORWRYM","AN1JWYDJH4VQR","3JUDR1D0D6D4CARU3YX9Y3DK5DJ2QK","","66","img/land4.png","74","67","1","1","1","2","0.8,0.2,0.2,0.2,0.8,0.2,0.2,0.2,0.8","0.8,0.2,0.2,0.2,0.8,0.2,0.2,0.2,0.8","1","",""
"","html-keyboard-response","254","78488","0.0-254.0","3L4PIM1GQU2WBGXV00Y61GKIORWRYM","AN1JWYDJH4VQR","3JUDR1D0D6D4CARU3YX9Y3DK5DJ2QK","","null","<img src=""img/land4.png"" style=""width:200px; border:14px solid green;"">","null","","","","","","","","","",""
"","image-keyboard-response","255","78566","0.0-255.0","3L4PIM1GQU2WBGXV00Y61GKIORWRYM","AN1JWYDJH4VQR","3JUDR1D0D6D4CARU3YX9Y3DK5DJ2QK","","75","img/land4.png","74","76","1","1","1","2","0.8,0.2,0.2,0.2,0.8,0.2,0.2,0.2,0.8","0.8,0.2,0.2,0.2,0.8,0.2,0.2,0.2,0.8","1","",""
"","html-keyboard-response","256","78868","0.0-256.0","3L4PIM1GQU2WBGXV00Y61GKIORWRYM","AN1JWYDJH4VQR","3JUDR1D0D6D4CARU3YX9Y3DK5DJ2QK","","null","<img src=""img/land4.png"" style=""width:200px; border:14px solid green;"">","null","","","","","","","","","",""
"","image-keyboard-response","257","78987","0.0-257.0","3L4PIM1GQU2WBGXV00Y61GKIORWRYM","AN1JWYDJH4VQR","3JUDR1D0D6D4CARU3YX9Y3DK5DJ2QK","","117","img/land4.png","74","118","1","1","1","2","0.8,0.2,0.2,0.2,0.8,0.2,0.2,0.2,0.8","0.8,0.2,0.2,0.2,0.8,0.2,0.2,0.2,0.8","1","",""
"","html-keyboard-response","258","79288","0.0-258.0","3L4PIM1GQU2WBGXV00Y61GKIORWRYM","AN1JWYDJH4VQR","3JUDR1D0D6D4CARU3YX9Y3DK5DJ2QK","","null","<img src=""img/land4.png"" style=""width:200px; border:14px solid green;"">","null","","","","","","","","","",""
"","image-keyboard-response","259","79416","0.0-259.0","3L4PIM1GQU2WBGXV00Y61GKIORWRYM","AN1JWYDJH4VQR","3JUDR1D0D6D4CARU3YX9Y3DK5DJ2QK","","127","img/land4.png","74","128","1","1","1","2","0.8,0.2,0.2,0.2,0.8,0.2,0.2,0.2,0.8","0.8,0.2,0.2,0.2,0.8,0.2,0.2,0.2,0.8","1","",""
"","html-keyboard-response","260","79719","0.0-260.0","3L4PIM1GQU2WBGXV00Y61GKIORWRYM","AN1JWYDJH4VQR","3JUDR1D0D6D4CARU3YX9Y3DK5DJ2QK","","null","<img src=""img/land4.png"" style=""width:200px; border:14px solid green;"">","null","","","","","","","","","",""
"","image-keyboard-response","261","79787","0.0-261.0","3L4PIM1GQU2WBGXV00Y61GKIORWRYM","AN1JWYDJH4VQR","3JUDR1D0D6D4CARU3YX9Y3DK5DJ2QK","","66","img/land6.png","74","68","1","0","3","2","0.8,0.2,0.2,0.2,0.8,0.2,0.2,0.2,0.8","0.8,0.2,0.2,0.2,0.8,0.2,0.2,0.2,0.8","1","",""
"","html-keyboard-response","262","80089","0.0-262.0","3L4PIM1GQU2WBGXV00Y61GKIORWRYM","AN1JWYDJH4VQR","3JUDR1D0D6D4CARU3YX9Y3DK5DJ2QK","","null","<img src=""img/land6.png"" style=""width:200px;border:14px solid red;"">","null","","","","","","","","","",""
"","image-keyboard-response","263","80138","0.0-263.0","3L4PIM1GQU2WBGXV00Y61GKIORWRYM","AN1JWYDJH4VQR","3JUDR1D0D6D4CARU3YX9Y3DK5DJ2QK","","46","img/land5.png","74","48","1","0","2","2","0.8,0.2,0.2,0.2,0.8,0.2,0.2,0.2,0.8","0.8,0.2,0.2,0.2,0.8,0.2,0.2,0.2,0.8","1","",""
"","html-keyboard-response","264","80440","0.0-264.0","3L4PIM1GQU2WBGXV00Y61GKIORWRYM","AN1JWYDJH4VQR","3JUDR1D0D6D4CARU3YX9Y3DK5DJ2QK","","null","<img src=""img/land5.png"" style=""width:200px;border:14px solid red;"">","null","","","","","","","","","",""
"","image-keyboard-response","265","80567","0.0-265.0","3L4PIM1GQU2WBGXV00Y61GKIORWRYM","AN1JWYDJH4VQR","3JUDR1D0D6D4CARU3YX9Y3DK5DJ2QK","","120","img/land4.png","74","122","1","1","1","2","0.8,0.2,0.2,0.2,0.8,0.2,0.2,0.2,0.8","0.8,0.2,0.2,0.2,0.8,0.2,0.2,0.2,0.8","1","",""
"","html-keyboard-response","266","80870","0.0-266.0","3L4PIM1GQU2WBGXV00Y61GKIORWRYM","AN1JWYDJH4VQR","3JUDR1D0D6D4CARU3YX9Y3DK5DJ2QK","","null","<img src=""img/land4.png"" style=""width:200px; border:14px solid green;"">","null","","","","","","","","","",""
"","image-keyboard-response","267","80937","0.0-267.0","3L4PIM1GQU2WBGXV00Y61GKIORWRYM","AN1JWYDJH4VQR","3JUDR1D0D6D4CARU3YX9Y3DK5DJ2QK","","64","img/land6.png","74","66","1","1","3","2","0.8,0.2,0.2,0.2,0.8,0.2,0.2,0.2,0.8","0.8,0.2,0.2,0.2,0.8,0.2,0.2,0.2,0.8","1","",""
"","html-keyboard-response","268","81240","0.0-268.0","3L4PIM1GQU2WBGXV00Y61GKIORWRYM","AN1JWYDJH4VQR","3JUDR1D0D6D4CARU3YX9Y3DK5DJ2QK","","null","<img src=""img/land6.png"" style=""width:200px; border:14px solid green;"">","null","","","","","","","","","",""
"","image-keyboard-response","269","81378","0.0-269.0","3L4PIM1GQU2WBGXV00Y61GKIORWRYM","AN1JWYDJH4VQR","3JUDR1D0D6D4CARU3YX9Y3DK5DJ2QK","","132","img/land4.png","74","135","1","1","1","2","0.8,0.2,0.2,0.2,0.8,0.2,0.2,0.2,0.8","0.8,0.2,0.2,0.2,0.8,0.2,0.2,0.2,0.8","1","",""
"","html-keyboard-response","270","81682","0.0-270.0","3L4PIM1GQU2WBGXV00Y61GKIORWRYM","AN1JWYDJH4VQR","3JUDR1D0D6D4CARU3YX9Y3DK5DJ2QK","","null","<img src=""img/land4.png"" style=""width:200px; border:14px solid green;"">","null","","","","","","","","","",""
"","image-keyboard-response","271","81830","0.0-271.0","3L4PIM1GQU2WBGXV00Y61GKIORWRYM","AN1JWYDJH4VQR","3JUDR1D0D6D4CARU3YX9Y3DK5DJ2QK","","145","img/land6.png","74","147","1","0","3","2","0.8,0.2,0.2,0.2,0.8,0.2,0.2,0.2,0.8","0.8,0.2,0.2,0.2,0.8,0.2,0.2,0.2,0.8","1","",""
"","html-keyboard-response","272","82134","0.0-272.0","3L4PIM1GQU2WBGXV00Y61GKIORWRYM","AN1JWYDJH4VQR","3JUDR1D0D6D4CARU3YX9Y3DK5DJ2QK","","null","<img src=""img/land6.png"" style=""width:200px;border:14px solid red;"">","null","","","","","","","","","",""
"","image-keyboard-response","273","82264","0.0-273.0","3L4PIM1GQU2WBGXV00Y61GKIORWRYM","AN1JWYDJH4VQR","3JUDR1D0D6D4CARU3YX9Y3DK5DJ2QK","","126","img/land4.png","75","130","2","0","1","2","0.8,0.2,0.2,0.2,0.8,0.2,0.2,0.2,0.8","0.8,0.2,0.2,0.2,0.8,0.2,0.2,0.2,0.8","1","",""
"","html-keyboard-response","274","82567","0.0-274.0","3L4PIM1GQU2WBGXV00Y61GKIORWRYM","AN1JWYDJH4VQR","3JUDR1D0D6D4CARU3YX9Y3DK5DJ2QK","","null","<img src=""img/land4.png"" style=""width:200px;border:14px solid red;"">","null","","","","","","","","","",""
"","image-keyboard-response","275","82668","0.0-275.0","3L4PIM1GQU2WBGXV00Y61GKIORWRYM","AN1JWYDJH4VQR","3JUDR1D0D6D4CARU3YX9Y3DK5DJ2QK","","100","img/land4.png","75","101","2","0","1","2","0.8,0.2,0.2,0.2,0.8,0.2,0.2,0.2,0.8","0.8,0.2,0.2,0.2,0.8,0.2,0.2,0.2,0.8","1","",""
"","html-keyboard-response","276","82970","0.0-276.0","3L4PIM1GQU2WBGXV00Y61GKIORWRYM","AN1JWYDJH4VQR","3JUDR1D0D6D4CARU3YX9Y3DK5DJ2QK","","null","<img src=""img/land4.png"" style=""width:200px;border:14px solid red;"">","null","","","","","","","","","",""
"","image-keyboard-response","277","83079","0.0-277.0","3L4PIM1GQU2WBGXV00Y61GKIORWRYM","AN1JWYDJH4VQR","3JUDR1D0D6D4CARU3YX9Y3DK5DJ2QK","","107","img/land6.png","74","109","1","0","3","2","0.8,0.2,0.2,0.2,0.8,0.2,0.2,0.2,0.8","0.8,0.2,0.2,0.2,0.8,0.2,0.2,0.2,0.8","1","",""
"","html-keyboard-response","278","83384","0.0-278.0","3L4PIM1GQU2WBGXV00Y61GKIORWRYM","AN1JWYDJH4VQR","3JUDR1D0D6D4CARU3YX9Y3DK5DJ2QK","","null","<img src=""img/land6.png"" style=""width:200px;border:14px solid red;"">","null","","","","","","","","","",""
"","image-keyboard-response","279","83496","0.0-279.0","3L4PIM1GQU2WBGXV00Y61GKIORWRYM","AN1JWYDJH4VQR","3JUDR1D0D6D4CARU3YX9Y3DK5DJ2QK","","110","img/land5.png","74","111","1","0","2","2","0.8,0.2,0.2,0.2,0.8,0.2,0.2,0.2,0.8","0.8,0.2,0.2,0.2,0.8,0.2,0.2,0.2,0.8","1","",""
"","html-keyboard-response","280","83799","0.0-280.0","3L4PIM1GQU2WBGXV00Y61GKIORWRYM","AN1JWYDJH4VQR","3JUDR1D0D6D4CARU3YX9Y3DK5DJ2QK","","null","<img src=""img/land5.png"" style=""width:200px;border:14px solid red;"">","null","","","","","","","","","",""
"","image-keyboard-response","281","83948","0.0-281.0","3L4PIM1GQU2WBGXV00Y61GKIORWRYM","AN1JWYDJH4VQR","3JUDR1D0D6D4CARU3YX9Y3DK5DJ2QK","","148","img/land4.png","75","149","2","0","1","2","0.8,0.2,0.2,0.2,0.8,0.2,0.2,0.2,0.8","0.8,0.2,0.2,0.2,0.8,0.2,0.2,0.2,0.8","1","",""
"","html-keyboard-response","282","84250","0.0-282.0","3L4PIM1GQU2WBGXV00Y61GKIORWRYM","AN1JWYDJH4VQR","3JUDR1D0D6D4CARU3YX9Y3DK5DJ2QK","","null","<img src=""img/land4.png"" style=""width:200px;border:14px solid red;"">","null","","","","","","","","","",""
"","image-keyboard-response","283","84369","0.0-283.0","3L4PIM1GQU2WBGXV00Y61GKIORWRYM","AN1JWYDJH4VQR","3JUDR1D0D6D4CARU3YX9Y3DK5DJ2QK","","117","img/land4.png","74","118","1","1","1","2","0.8,0.2,0.2,0.2,0.8,0.2,0.2,0.2,0.8","0.8,0.2,0.2,0.2,0.8,0.2,0.2,0.2,0.8","1","",""
"","html-keyboard-response","284","84672","0.0-284.0","3L4PIM1GQU2WBGXV00Y61GKIORWRYM","AN1JWYDJH4VQR","3JUDR1D0D6D4CARU3YX9Y3DK5DJ2QK","","null","<img src=""img/land4.png"" style=""width:200px; border:14px solid green;"">","null","","","","","","","","","",""
"","image-keyboard-response","285","84816","0.0-285.0","3L4PIM1GQU2WBGXV00Y61GKIORWRYM","AN1JWYDJH4VQR","3JUDR1D0D6D4CARU3YX9Y3DK5DJ2QK","","142","img/land6.png","74","144","1","0","3","2","0.8,0.2,0.2,0.2,0.8,0.2,0.2,0.2,0.8","0.8,0.2,0.2,0.2,0.8,0.2,0.2,0.2,0.8","1","",""
"","html-keyboard-response","286","85118","0.0-286.0","3L4PIM1GQU2WBGXV00Y61GKIORWRYM","AN1JWYDJH4VQR","3JUDR1D0D6D4CARU3YX9Y3DK5DJ2QK","","null","<img src=""img/land6.png"" style=""width:200px;border:14px solid red;"">","null","","","","","","","","","",""
"","image-keyboard-response","287","85227","0.0-287.0","3L4PIM1GQU2WBGXV00Y61GKIORWRYM","AN1JWYDJH4VQR","3JUDR1D0D6D4CARU3YX9Y3DK5DJ2QK","","106","img/land5.png","74","112","1","0","2","2","0.8,0.2,0.2,0.2,0.8,0.2,0.2,0.2,0.8","0.8,0.2,0.2,0.2,0.8,0.2,0.2,0.2,0.8","1","",""
"","html-keyboard-response","288","85534","0.0-288.0","3L4PIM1GQU2WBGXV00Y61GKIORWRYM","AN1JWYDJH4VQR","3JUDR1D0D6D4CARU3YX9Y3DK5DJ2QK","","null","<img src=""img/land5.png"" style=""width:200px;border:14px solid red;"">","null","","","","","","","","","",""
"","image-keyboard-response","289","85666","0.0-289.0","3L4PIM1GQU2WBGXV00Y61GKIORWRYM","AN1JWYDJH4VQR","3JUDR1D0D6D4CARU3YX9Y3DK5DJ2QK","","130","img/land4.png","74","132","1","1","1","2","0.8,0.2,0.2,0.2,0.8,0.2,0.2,0.2,0.8","0.8,0.2,0.2,0.2,0.8,0.2,0.2,0.2,0.8","1","",""
"","html-keyboard-response","290","85969","0.0-290.0","3L4PIM1GQU2WBGXV00Y61GKIORWRYM","AN1JWYDJH4VQR","3JUDR1D0D6D4CARU3YX9Y3DK5DJ2QK","","null","<img src=""img/land4.png"" style=""width:200px; border:14px solid green;"">","null","","","","","","","","","",""
"","image-keyboard-response","291","86168","0.0-291.0","3L4PIM1GQU2WBGXV00Y61GKIORWRYM","AN1JWYDJH4VQR","3JUDR1D0D6D4CARU3YX9Y3DK5DJ2QK","","197","img/land5.png","74","199","1","1","2","2","0.8,0.2,0.2,0.2,0.8,0.2,0.2,0.2,0.8","0.8,0.2,0.2,0.2,0.8,0.2,0.2,0.2,0.8","1","",""
"","html-keyboard-response","292","86470","0.0-292.0","3L4PIM1GQU2WBGXV00Y61GKIORWRYM","AN1JWYDJH4VQR","3JUDR1D0D6D4CARU3YX9Y3DK5DJ2QK","","null","<img src=""img/land5.png"" style=""width:200px; border:14px solid green;"">","null","","","","","","","","","",""
"","image-keyboard-response","293","86513","0.0-293.0","3L4PIM1GQU2WBGXV00Y61GKIORWRYM","AN1JWYDJH4VQR","3JUDR1D0D6D4CARU3YX9Y3DK5DJ2QK","","39","img/land4.png","74","41","1","1","1","2","0.8,0.2,0.2,0.2,0.8,0.2,0.2,0.2,0.8","0.8,0.2,0.2,0.2,0.8,0.2,0.2,0.2,0.8","1","",""
"","html-keyboard-response","294","86816","0.0-294.0","3L4PIM1GQU2WBGXV00Y61GKIORWRYM","AN1JWYDJH4VQR","3JUDR1D0D6D4CARU3YX9Y3DK5DJ2QK","","null","<img src=""img/land4.png"" style=""width:200px; border:14px solid green;"">","null","","","","","","","","","",""
"","image-keyboard-response","295","86890","0.0-295.0","3L4PIM1GQU2WBGXV00Y61GKIORWRYM","AN1JWYDJH4VQR","3JUDR1D0D6D4CARU3YX9Y3DK5DJ2QK","","72","img/land4.png","74","73","1","1","1","2","0.8,0.2,0.2,0.2,0.8,0.2,0.2,0.2,0.8","0.8,0.2,0.2,0.2,0.8,0.2,0.2,0.2,0.8","1","",""
"","html-keyboard-response","296","87193","0.0-296.0","3L4PIM1GQU2WBGXV00Y61GKIORWRYM","AN1JWYDJH4VQR","3JUDR1D0D6D4CARU3YX9Y3DK5DJ2QK","","null","<img src=""img/land4.png"" style=""width:200px; border:14px solid green;"">","null","","","","","","","","","",""
"","image-keyboard-response","297","87277","0.0-297.0","3L4PIM1GQU2WBGXV00Y61GKIORWRYM","AN1JWYDJH4VQR","3JUDR1D0D6D4CARU3YX9Y3DK5DJ2QK","","79","img/land4.png","74","81","1","1","1","2","0.8,0.2,0.2,0.2,0.8,0.2,0.2,0.2,0.8","0.8,0.2,0.2,0.2,0.8,0.2,0.2,0.2,0.8","1","",""
"","html-keyboard-response","298","87581","0.0-298.0","3L4PIM1GQU2WBGXV00Y61GKIORWRYM","AN1JWYDJH4VQR","3JUDR1D0D6D4CARU3YX9Y3DK5DJ2QK","","null","<img src=""img/land4.png"" style=""width:200px; border:14px solid green;"">","null","","","","","","","","","",""
"","image-keyboard-response","299","87729","0.0-299.0","3L4PIM1GQU2WBGXV00Y61GKIORWRYM","AN1JWYDJH4VQR","3JUDR1D0D6D4CARU3YX9Y3DK5DJ2QK","","145","img/land6.png","74","147","1","0","3","2","0.8,0.2,0.2,0.2,0.8,0.2,0.2,0.2,0.8","0.8,0.2,0.2,0.2,0.8,0.2,0.2,0.2,0.8","1","",""
"","html-keyboard-response","300","88031","0.0-300.0","3L4PIM1GQU2WBGXV00Y61GKIORWRYM","AN1JWYDJH4VQR","3JUDR1D0D6D4CARU3YX9Y3DK5DJ2QK","","null","<img src=""img/land6.png"" style=""width:200px;border:14px solid red;"">","null","","","","","","","","","",""
"","image-keyboard-response","301","88093","0.0-301.0","3L4PIM1GQU2WBGXV00Y61GKIORWRYM","AN1JWYDJH4VQR","3JUDR1D0D6D4CARU3YX9Y3DK5DJ2QK","","60","img/land5.png","74","61","1","0","2","2","0.8,0.2,0.2,0.2,0.8,0.2,0.2,0.2,0.8","0.8,0.2,0.2,0.2,0.8,0.2,0.2,0.2,0.8","1","",""
"","html-keyboard-response","302","88393","0.0-302.0","3L4PIM1GQU2WBGXV00Y61GKIORWRYM","AN1JWYDJH4VQR","3JUDR1D0D6D4CARU3YX9Y3DK5DJ2QK","","null","<img src=""img/land5.png"" style=""width:200px;border:14px solid red;"">","null","","","","","","","","","",""
"","image-keyboard-response","303","88540","0.0-303.0","3L4PIM1GQU2WBGXV00Y61GKIORWRYM","AN1JWYDJH4VQR","3JUDR1D0D6D4CARU3YX9Y3DK5DJ2QK","","142","img/land4.png","74","145","1","0","1","2","0.8,0.2,0.2,0.2,0.8,0.2,0.2,0.2,0.8","0.8,0.2,0.2,0.2,0.8,0.2,0.2,0.2,0.8","1","",""
"","html-keyboard-response","304","88841","0.0-304.0","3L4PIM1GQU2WBGXV00Y61GKIORWRYM","AN1JWYDJH4VQR","3JUDR1D0D6D4CARU3YX9Y3DK5DJ2QK","","null","<img src=""img/land4.png"" style=""width:200px;border:14px solid red;"">","null","","","","","","","","","",""
"","image-keyboard-response","305","88976","0.0-305.0","3L4PIM1GQU2WBGXV00Y61GKIORWRYM","AN1JWYDJH4VQR","3JUDR1D0D6D4CARU3YX9Y3DK5DJ2QK","","133","img/land6.png","75","135","2","0","3","2","0.8,0.2,0.2,0.2,0.8,0.2,0.2,0.2,0.8","0.8,0.2,0.2,0.2,0.8,0.2,0.2,0.2,0.8","1","",""
"","html-keyboard-response","306","89278","0.0-306.0","3L4PIM1GQU2WBGXV00Y61GKIORWRYM","AN1JWYDJH4VQR","3JUDR1D0D6D4CARU3YX9Y3DK5DJ2QK","","null","<img src=""img/land6.png"" style=""width:200px;border:14px solid red;"">","null","","","","","","","","","",""
"","image-keyboard-response","307","89439","0.0-307.0","3L4PIM1GQU2WBGXV00Y61GKIORWRYM","AN1JWYDJH4VQR","3JUDR1D0D6D4CARU3YX9Y3DK5DJ2QK","","158","img/land5.png","74","160","1","0","2","2","0.8,0.2,0.2,0.2,0.8,0.2,0.2,0.2,0.8","0.8,0.2,0.2,0.2,0.8,0.2,0.2,0.2,0.8","1","",""
"","html-keyboard-response","308","89743","0.0-308.0","3L4PIM1GQU2WBGXV00Y61GKIORWRYM","AN1JWYDJH4VQR","3JUDR1D0D6D4CARU3YX9Y3DK5DJ2QK","","null","<img src=""img/land5.png"" style=""width:200px;border:14px solid red;"">","null","","","","","","","","","",""
"","image-keyboard-response","309","89849","0.0-309.0","3L4PIM1GQU2WBGXV00Y61GKIORWRYM","AN1JWYDJH4VQR","3JUDR1D0D6D4CARU3YX9Y3DK5DJ2QK","","103","img/land4.png","74","105","1","1","1","2","0.8,0.2,0.2,0.2,0.8,0.2,0.2,0.2,0.8","0.8,0.2,0.2,0.2,0.8,0.2,0.2,0.2,0.8","1","",""
"","html-keyboard-response","310","90151","0.0-310.0","3L4PIM1GQU2WBGXV00Y61GKIORWRYM","AN1JWYDJH4VQR","3JUDR1D0D6D4CARU3YX9Y3DK5DJ2QK","","null","<img src=""img/land4.png"" style=""width:200px; border:14px solid green;"">","null","","","","","","","","","",""
"","image-keyboard-response","311","90276","0.0-311.0","3L4PIM1GQU2WBGXV00Y61GKIORWRYM","AN1JWYDJH4VQR","3JUDR1D0D6D4CARU3YX9Y3DK5DJ2QK","","122","img/land6.png","74","124","1","1","3","2","0.8,0.2,0.2,0.2,0.8,0.2,0.2,0.2,0.8","0.8,0.2,0.2,0.2,0.8,0.2,0.2,0.2,0.8","1","",""
"","html-keyboard-response","312","90580","0.0-312.0","3L4PIM1GQU2WBGXV00Y61GKIORWRYM","AN1JWYDJH4VQR","3JUDR1D0D6D4CARU3YX9Y3DK5DJ2QK","","null","<img src=""img/land6.png"" style=""width:200px; border:14px solid green;"">","null","","","","","","","","","",""
"","image-keyboard-response","313","90696","0.0-313.0","3L4PIM1GQU2WBGXV00Y61GKIORWRYM","AN1JWYDJH4VQR","3JUDR1D0D6D4CARU3YX9Y3DK5DJ2QK","","96","img/land4.png","74","110","1","1","1","2","0.8,0.2,0.2,0.2,0.8,0.2,0.2,0.2,0.8","0.8,0.2,0.2,0.2,0.8,0.2,0.2,0.2,0.8","1","",""
"","html-keyboard-response","314","91000","0.0-314.0","3L4PIM1GQU2WBGXV00Y61GKIORWRYM","AN1JWYDJH4VQR","3JUDR1D0D6D4CARU3YX9Y3DK5DJ2QK","","null","<img src=""img/land4.png"" style=""width:200px; border:14px solid green;"">","null","","","","","","","","","",""
"","image-keyboard-response","315","91078","0.0-315.0","3L4PIM1GQU2WBGXV00Y61GKIORWRYM","AN1JWYDJH4VQR","3JUDR1D0D6D4CARU3YX9Y3DK5DJ2QK","","76","img/land4.png","74","77","1","1","1","2","0.8,0.2,0.2,0.2,0.8,0.2,0.2,0.2,0.8","0.8,0.2,0.2,0.2,0.8,0.2,0.2,0.2,0.8","1","",""
"","html-keyboard-response","316","91381","0.0-316.0","3L4PIM1GQU2WBGXV00Y61GKIORWRYM","AN1JWYDJH4VQR","3JUDR1D0D6D4CARU3YX9Y3DK5DJ2QK","","null","<img src=""img/land4.png"" style=""width:200px; border:14px solid green;"">","null","","","","","","","","","",""
"","image-keyboard-response","317","91501","0.0-317.0","3L4PIM1GQU2WBGXV00Y61GKIORWRYM","AN1JWYDJH4VQR","3JUDR1D0D6D4CARU3YX9Y3DK5DJ2QK","","114","img/land4.png","74","117","1","1","1","2","0.8,0.2,0.2,0.2,0.8,0.2,0.2,0.2,0.8","0.8,0.2,0.2,0.2,0.8,0.2,0.2,0.2,0.8","1","",""
"","html-keyboard-response","318","91803","0.0-318.0","3L4PIM1GQU2WBGXV00Y61GKIORWRYM","AN1JWYDJH4VQR","3JUDR1D0D6D4CARU3YX9Y3DK5DJ2QK","","null","<img src=""img/land4.png"" style=""width:200px; border:14px solid green;"">","null","","","","","","","","","",""
"","image-keyboard-response","319","91914","0.0-319.0","3L4PIM1GQU2WBGXV00Y61GKIORWRYM","AN1JWYDJH4VQR","3JUDR1D0D6D4CARU3YX9Y3DK5DJ2QK","","106","img/land5.png","74","109","1","0","2","2","0.8,0.2,0.2,0.2,0.8,0.2,0.2,0.2,0.8","0.8,0.2,0.2,0.2,0.8,0.2,0.2,0.2,0.8","1","",""
"","html-keyboard-response","320","92216","0.0-320.0","3L4PIM1GQU2WBGXV00Y61GKIORWRYM","AN1JWYDJH4VQR","3JUDR1D0D6D4CARU3YX9Y3DK5DJ2QK","","null","<img src=""img/land5.png"" style=""width:200px;border:14px solid red;"">","null","","","","","","","","","",""
"","image-keyboard-response","321","92357","0.0-321.0","3L4PIM1GQU2WBGXV00Y61GKIORWRYM","AN1JWYDJH4VQR","3JUDR1D0D6D4CARU3YX9Y3DK5DJ2QK","","140","img/land6.png","74","141","1","0","3","2","0.8,0.2,0.2,0.2,0.8,0.2,0.2,0.2,0.8","0.8,0.2,0.2,0.2,0.8,0.2,0.2,0.2,0.8","1","",""
"","html-keyboard-response","322","92660","0.0-322.0","3L4PIM1GQU2WBGXV00Y61GKIORWRYM","AN1JWYDJH4VQR","3JUDR1D0D6D4CARU3YX9Y3DK5DJ2QK","","null","<img src=""img/land6.png"" style=""width:200px;border:14px solid red;"">","null","","","","","","","","","",""
"","image-keyboard-response","323","92749","0.0-323.0","3L4PIM1GQU2WBGXV00Y61GKIORWRYM","AN1JWYDJH4VQR","3JUDR1D0D6D4CARU3YX9Y3DK5DJ2QK","","88","img/land6.png","74","89","1","0","3","2","0.8,0.2,0.2,0.2,0.8,0.2,0.2,0.2,0.8","0.8,0.2,0.2,0.2,0.8,0.2,0.2,0.2,0.8","1","",""
"","html-keyboard-response","324","93053","0.0-324.0","3L4PIM1GQU2WBGXV00Y61GKIORWRYM","AN1JWYDJH4VQR","3JUDR1D0D6D4CARU3YX9Y3DK5DJ2QK","","null","<img src=""img/land6.png"" style=""width:200px;border:14px solid red;"">","null","","","","","","","","","",""
"","image-keyboard-response","325","93197","0.0-325.0","3L4PIM1GQU2WBGXV00Y61GKIORWRYM","AN1JWYDJH4VQR","3JUDR1D0D6D4CARU3YX9Y3DK5DJ2QK","","140","img/land5.png","74","143","1","0","2","2","0.8,0.2,0.2,0.2,0.8,0.2,0.2,0.2,0.8","0.8,0.2,0.2,0.2,0.8,0.2,0.2,0.2,0.8","1","",""
"","html-keyboard-response","326","93500","0.0-326.0","3L4PIM1GQU2WBGXV00Y61GKIORWRYM","AN1JWYDJH4VQR","3JUDR1D0D6D4CARU3YX9Y3DK5DJ2QK","","null","<img src=""img/land5.png"" style=""width:200px;border:14px solid red;"">","null","","","","","","","","","",""
"","image-keyboard-response","327","93629","0.0-327.0","3L4PIM1GQU2WBGXV00Y61GKIORWRYM","AN1JWYDJH4VQR","3JUDR1D0D6D4CARU3YX9Y3DK5DJ2QK","","126","img/land5.png","74","128","1","1","2","2","0.8,0.2,0.2,0.2,0.8,0.2,0.2,0.2,0.8","0.8,0.2,0.2,0.2,0.8,0.2,0.2,0.2,0.8","1","",""
"","html-keyboard-response","328","93931","0.0-328.0","3L4PIM1GQU2WBGXV00Y61GKIORWRYM","AN1JWYDJH4VQR","3JUDR1D0D6D4CARU3YX9Y3DK5DJ2QK","","null","<img src=""img/land5.png"" style=""width:200px; border:14px solid green;"">","null","","","","","","","","","",""
"","image-keyboard-response","329","94032","0.0-329.0","3L4PIM1GQU2WBGXV00Y61GKIORWRYM","AN1JWYDJH4VQR","3JUDR1D0D6D4CARU3YX9Y3DK5DJ2QK","","97","img/land6.png","74","99","1","0","3","2","0.8,0.2,0.2,0.2,0.8,0.2,0.2,0.2,0.8","0.8,0.2,0.2,0.2,0.8,0.2,0.2,0.2,0.8","1","",""
"","html-keyboard-response","330","94333","0.0-330.0","3L4PIM1GQU2WBGXV00Y61GKIORWRYM","AN1JWYDJH4VQR","3JUDR1D0D6D4CARU3YX9Y3DK5DJ2QK","","null","<img src=""img/land6.png"" style=""width:200px;border:14px solid red;"">","null","","","","","","","","","",""
"","image-keyboard-response","331","94436","0.0-331.0","3L4PIM1GQU2WBGXV00Y61GKIORWRYM","AN1JWYDJH4VQR","3JUDR1D0D6D4CARU3YX9Y3DK5DJ2QK","","101","img/land4.png","74","102","1","1","1","2","0.8,0.2,0.2,0.2,0.8,0.2,0.2,0.2,0.8","0.8,0.2,0.2,0.2,0.8,0.2,0.2,0.2,0.8","1","",""
"","html-keyboard-response","332","94738","0.0-332.0","3L4PIM1GQU2WBGXV00Y61GKIORWRYM","AN1JWYDJH4VQR","3JUDR1D0D6D4CARU3YX9Y3DK5DJ2QK","","null","<img src=""img/land4.png"" style=""width:200px; border:14px solid green;"">","null","","","","","","","","","",""
"","image-keyboard-response","333","94847","0.0-333.0","3L4PIM1GQU2WBGXV00Y61GKIORWRYM","AN1JWYDJH4VQR","3JUDR1D0D6D4CARU3YX9Y3DK5DJ2QK","","107","img/land6.png","74","109","1","0","3","2","0.8,0.2,0.2,0.2,0.8,0.2,0.2,0.2,0.8","0.8,0.2,0.2,0.2,0.8,0.2,0.2,0.2,0.8","1","",""
"","html-keyboard-response","334","95149","0.0-334.0","3L4PIM1GQU2WBGXV00Y61GKIORWRYM","AN1JWYDJH4VQR","3JUDR1D0D6D4CARU3YX9Y3DK5DJ2QK","","null","<img src=""img/land6.png"" style=""width:200px;border:14px solid red;"">","null","","","","","","","","","",""
"","image-keyboard-response","335","95228","0.0-335.0","3L4PIM1GQU2WBGXV00Y61GKIORWRYM","AN1JWYDJH4VQR","3JUDR1D0D6D4CARU3YX9Y3DK5DJ2QK","","74","img/land4.png","74","78","1","1","1","2","0.8,0.2,0.2,0.2,0.8,0.2,0.2,0.2,0.8","0.8,0.2,0.2,0.2,0.8,0.2,0.2,0.2,0.8","1","",""
"","html-keyboard-response","336","95530","0.0-336.0","3L4PIM1GQU2WBGXV00Y61GKIORWRYM","AN1JWYDJH4VQR","3JUDR1D0D6D4CARU3YX9Y3DK5DJ2QK","","null","<img src=""img/land4.png"" style=""width:200px; border:14px solid green;"">","null","","","","","","","","","",""
"","image-keyboard-response","337","95598","0.0-337.0","3L4PIM1GQU2WBGXV00Y61GKIORWRYM","AN1JWYDJH4VQR","3JUDR1D0D6D4CARU3YX9Y3DK5DJ2QK","","66","img/land4.png","74","67","1","1","1","2","0.8,0.2,0.2,0.2,0.8,0.2,0.2,0.2,0.8","0.8,0.2,0.2,0.2,0.8,0.2,0.2,0.2,0.8","1","",""
"","html-keyboard-response","338","95902","0.0-338.0","3L4PIM1GQU2WBGXV00Y61GKIORWRYM","AN1JWYDJH4VQR","3JUDR1D0D6D4CARU3YX9Y3DK5DJ2QK","","null","<img src=""img/land4.png"" style=""width:200px; border:14px solid green;"">","null","","","","","","","","","",""
"","image-keyboard-response","339","95988","0.0-339.0","3L4PIM1GQU2WBGXV00Y61GKIORWRYM","AN1JWYDJH4VQR","3JUDR1D0D6D4CARU3YX9Y3DK5DJ2QK","","86","img/land4.png","74","87","1","1","1","2","0.8,0.2,0.2,0.2,0.8,0.2,0.2,0.2,0.8","0.8,0.2,0.2,0.2,0.8,0.2,0.2,0.2,0.8","1","",""
"","html-keyboard-response","340","96290","0.0-340.0","3L4PIM1GQU2WBGXV00Y61GKIORWRYM","AN1JWYDJH4VQR","3JUDR1D0D6D4CARU3YX9Y3DK5DJ2QK","","null","<img src=""img/land4.png"" style=""width:200px; border:14px solid green;"">","null","","","","","","","","","",""
"","image-keyboard-response","341","96397","0.0-341.0","3L4PIM1GQU2WBGXV00Y61GKIORWRYM","AN1JWYDJH4VQR","3JUDR1D0D6D4CARU3YX9Y3DK5DJ2QK","","106","img/land5.png","74","106","1","0","2","2","0.8,0.2,0.2,0.2,0.8,0.2,0.2,0.2,0.8","0.8,0.2,0.2,0.2,0.8,0.2,0.2,0.2,0.8","1","",""
"","html-keyboard-response","342","96700","0.0-342.0","3L4PIM1GQU2WBGXV00Y61GKIORWRYM","AN1JWYDJH4VQR","3JUDR1D0D6D4CARU3YX9Y3DK5DJ2QK","","null","<img src=""img/land5.png"" style=""width:200px;border:14px solid red;"">","null","","","","","","","","","",""
"","image-keyboard-response","343","96807","0.0-343.0","3L4PIM1GQU2WBGXV00Y61GKIORWRYM","AN1JWYDJH4VQR","3JUDR1D0D6D4CARU3YX9Y3DK5DJ2QK","","105","img/land5.png","74","105","1","0","2","2","0.8,0.2,0.2,0.2,0.8,0.2,0.2,0.2,0.8","0.8,0.2,0.2,0.2,0.8,0.2,0.2,0.2,0.8","1","",""
"","html-keyboard-response","344","97110","0.0-344.0","3L4PIM1GQU2WBGXV00Y61GKIORWRYM","AN1JWYDJH4VQR","3JUDR1D0D6D4CARU3YX9Y3DK5DJ2QK","","null","<img src=""img/land5.png"" style=""width:200px;border:14px solid red;"">","null","","","","","","","","","",""
"","image-keyboard-response","345","97218","0.0-345.0","3L4PIM1GQU2WBGXV00Y61GKIORWRYM","AN1JWYDJH4VQR","3JUDR1D0D6D4CARU3YX9Y3DK5DJ2QK","","106","img/land4.png","74","108","1","0","1","2","0.8,0.2,0.2,0.2,0.8,0.2,0.2,0.2,0.8","0.8,0.2,0.2,0.2,0.8,0.2,0.2,0.2,0.8","1","",""
"","html-keyboard-response","346","97521","0.0-346.0","3L4PIM1GQU2WBGXV00Y61GKIORWRYM","AN1JWYDJH4VQR","3JUDR1D0D6D4CARU3YX9Y3DK5DJ2QK","","null","<img src=""img/land4.png"" style=""width:200px;border:14px solid red;"">","null","","","","","","","","","",""
"","image-keyboard-response","347","97585","0.0-347.0","3L4PIM1GQU2WBGXV00Y61GKIORWRYM","AN1JWYDJH4VQR","3JUDR1D0D6D4CARU3YX9Y3DK5DJ2QK","","62","img/land4.png","74","63","1","1","1","2","0.8,0.2,0.2,0.2,0.8,0.2,0.2,0.2,0.8","0.8,0.2,0.2,0.2,0.8,0.2,0.2,0.2,0.8","1","",""
"","html-keyboard-response","348","97903","0.0-348.0","3L4PIM1GQU2WBGXV00Y61GKIORWRYM","AN1JWYDJH4VQR","3JUDR1D0D6D4CARU3YX9Y3DK5DJ2QK","","null","<img src=""img/land4.png"" style=""width:200px; border:14px solid green;"">","null","","","","","","","","","",""
"","image-keyboard-response","349","98020","0.0-349.0","3L4PIM1GQU2WBGXV00Y61GKIORWRYM","AN1JWYDJH4VQR","3JUDR1D0D6D4CARU3YX9Y3DK5DJ2QK","","114","img/land6.png","74","116","1","0","3","2","0.8,0.2,0.2,0.2,0.8,0.2,0.2,0.2,0.8","0.8,0.2,0.2,0.2,0.8,0.2,0.2,0.2,0.8","1","",""
"","html-keyboard-response","350","98322","0.0-350.0","3L4PIM1GQU2WBGXV00Y61GKIORWRYM","AN1JWYDJH4VQR","3JUDR1D0D6D4CARU3YX9Y3DK5DJ2QK","","null","<img src=""img/land6.png"" style=""width:200px;border:14px solid red;"">","null","","","","","","","","","",""
"","image-keyboard-response","351","98406","0.0-351.0","3L4PIM1GQU2WBGXV00Y61GKIORWRYM","AN1JWYDJH4VQR","3JUDR1D0D6D4CARU3YX9Y3DK5DJ2QK","","82","img/land4.png","74","84","1","1","1","2","0.8,0.2,0.2,0.2,0.8,0.2,0.2,0.2,0.8","0.8,0.2,0.2,0.2,0.8,0.2,0.2,0.2,0.8","1","",""
"","html-keyboard-response","352","98707","0.0-352.0","3L4PIM1GQU2WBGXV00Y61GKIORWRYM","AN1JWYDJH4VQR","3JUDR1D0D6D4CARU3YX9Y3DK5DJ2QK","","null","<img src=""img/land4.png"" style=""width:200px; border:14px solid green;"">","null","","","","","","","","","",""
"","image-keyboard-response","353","98915","0.0-353.0","3L4PIM1GQU2WBGXV00Y61GKIORWRYM","AN1JWYDJH4VQR","3JUDR1D0D6D4CARU3YX9Y3DK5DJ2QK","","207","img/land6.png","74","209","1","1","3","2","0.8,0.2,0.2,0.2,0.8,0.2,0.2,0.2,0.8","0.8,0.2,0.2,0.2,0.8,0.2,0.2,0.2,0.8","1","",""
"","html-keyboard-response","354","99218","0.0-354.0","3L4PIM1GQU2WBGXV00Y61GKIORWRYM","AN1JWYDJH4VQR","3JUDR1D0D6D4CARU3YX9Y3DK5DJ2QK","","null","<img src=""img/land6.png"" style=""width:200px; border:14px solid green;"">","null","","","","","","","","","",""
"","image-keyboard-response","355","99276","0.0-355.0","3L4PIM1GQU2WBGXV00Y61GKIORWRYM","AN1JWYDJH4VQR","3JUDR1D0D6D4CARU3YX9Y3DK5DJ2QK","","56","img/land4.png","74","57","1","0","1","2","0.8,0.2,0.2,0.2,0.8,0.2,0.2,0.2,0.8","0.8,0.2,0.2,0.2,0.8,0.2,0.2,0.2,0.8","1","",""
"","html-keyboard-response","356","99578","0.0-356.0","3L4PIM1GQU2WBGXV00Y61GKIORWRYM","AN1JWYDJH4VQR","3JUDR1D0D6D4CARU3YX9Y3DK5DJ2QK","","null","<img src=""img/land4.png"" style=""width:200px;border:14px solid red;"">","null","","","","","","","","","",""
"","image-keyboard-response","357","99646","0.0-357.0","3L4PIM1GQU2WBGXV00Y61GKIORWRYM","AN1JWYDJH4VQR","3JUDR1D0D6D4CARU3YX9Y3DK5DJ2QK","","66","img/land5.png","74","68","1","0","2","2","0.8,0.2,0.2,0.2,0.8,0.2,0.2,0.2,0.8","0.8,0.2,0.2,0.2,0.8,0.2,0.2,0.2,0.8","1","",""
"","html-keyboard-response","358","99948","0.0-358.0","3L4PIM1GQU2WBGXV00Y61GKIORWRYM","AN1JWYDJH4VQR","3JUDR1D0D6D4CARU3YX9Y3DK5DJ2QK","","null","<img src=""img/land5.png"" style=""width:200px;border:14px solid red;"">","null","","","","","","","","","",""
"","image-keyboard-response","359","100068","0.0-359.0","3L4PIM1GQU2WBGXV00Y61GKIORWRYM","AN1JWYDJH4VQR","3JUDR1D0D6D4CARU3YX9Y3DK5DJ2QK","","114","img/land4.png","74","118","1","1","1","2","0.8,0.2,0.2,0.2,0.8,0.2,0.2,0.2,0.8","0.8,0.2,0.2,0.2,0.8,0.2,0.2,0.2,0.8","1","",""
"","html-keyboard-response","360","100373","0.0-360.0","3L4PIM1GQU2WBGXV00Y61GKIORWRYM","AN1JWYDJH4VQR","3JUDR1D0D6D4CARU3YX9Y3DK5DJ2QK","","null","<img src=""img/land4.png"" style=""width:200px; border:14px solid green;"">","null","","","","","","","","","",""
"","image-keyboard-response","361","102377","0.0-361.0","3L4PIM1GQU2WBGXV00Y61GKIORWRYM","AN1JWYDJH4VQR","3JUDR1D0D6D4CARU3YX9Y3DK5DJ2QK","","","img/land5.png","","2003","-1","0","2","2","0.8,0.2,0.2,0.2,0.8,0.2,0.2,0.2,0.8","0.8,0.2,0.2,0.2,0.8,0.2,0.2,0.2,0.8","1","",""
"","html-keyboard-response","362","102680","0.0-362.0","3L4PIM1GQU2WBGXV00Y61GKIORWRYM","AN1JWYDJH4VQR","3JUDR1D0D6D4CARU3YX9Y3DK5DJ2QK","","null","<img src=""img/land5.png"" style=""width:200px;border:14px solid red;"">","null","","","","","","","","","",""
"","image-keyboard-response","363","104684","0.0-363.0","3L4PIM1GQU2WBGXV00Y61GKIORWRYM","AN1JWYDJH4VQR","3JUDR1D0D6D4CARU3YX9Y3DK5DJ2QK","","","img/land4.png","","2003","-1","0","1","2","0.8,0.2,0.2,0.2,0.8,0.2,0.2,0.2,0.8","0.8,0.2,0.2,0.2,0.8,0.2,0.2,0.2,0.8","1","",""
"","html-keyboard-response","364","104988","0.0-364.0","3L4PIM1GQU2WBGXV00Y61GKIORWRYM","AN1JWYDJH4VQR","3JUDR1D0D6D4CARU3YX9Y3DK5DJ2QK","","null","<img src=""img/land4.png"" style=""width:200px;border:14px solid red;"">","null","","","","","","","","","",""
"","image-keyboard-response","365","107001","0.0-365.0","3L4PIM1GQU2WBGXV00Y61GKIORWRYM","AN1JWYDJH4VQR","3JUDR1D0D6D4CARU3YX9Y3DK5DJ2QK","","","img/land4.png","","2011","-1","0","1","2","0.8,0.2,0.2,0.2,0.8,0.2,0.2,0.2,0.8","0.8,0.2,0.2,0.2,0.8,0.2,0.2,0.2,0.8","1","",""
"","html-keyboard-response","366","107304","0.0-366.0","3L4PIM1GQU2WBGXV00Y61GKIORWRYM","AN1JWYDJH4VQR","3JUDR1D0D6D4CARU3YX9Y3DK5DJ2QK","","null","<img src=""img/land4.png"" style=""width:200px;border:14px solid red;"">","null","","","","","","","","","",""
"","image-keyboard-response","367","109309","0.0-367.0","3L4PIM1GQU2WBGXV00Y61GKIORWRYM","AN1JWYDJH4VQR","3JUDR1D0D6D4CARU3YX9Y3DK5DJ2QK","","","img/land4.png","","2005","-1","0","1","2","0.8,0.2,0.2,0.2,0.8,0.2,0.2,0.2,0.8","0.8,0.2,0.2,0.2,0.8,0.2,0.2,0.2,0.8","1","",""
"","html-keyboard-response","368","109612","0.0-368.0","3L4PIM1GQU2WBGXV00Y61GKIORWRYM","AN1JWYDJH4VQR","3JUDR1D0D6D4CARU3YX9Y3DK5DJ2QK","","null","<img src=""img/land4.png"" style=""width:200px;border:14px solid red;"">","null","","","","","","","","","",""
"","image-keyboard-response","369","111618","0.0-369.0","3L4PIM1GQU2WBGXV00Y61GKIORWRYM","AN1JWYDJH4VQR","3JUDR1D0D6D4CARU3YX9Y3DK5DJ2QK","","","img/land6.png","","2003","-1","0","3","2","0.8,0.2,0.2,0.2,0.8,0.2,0.2,0.2,0.8","0.8,0.2,0.2,0.2,0.8,0.2,0.2,0.2,0.8","1","",""
"","html-keyboard-response","370","111920","0.0-370.0","3L4PIM1GQU2WBGXV00Y61GKIORWRYM","AN1JWYDJH4VQR","3JUDR1D0D6D4CARU3YX9Y3DK5DJ2QK","","null","<img src=""img/land6.png"" style=""width:200px;border:14px solid red;"">","null","","","","","","","","","",""
"","image-keyboard-response","371","112177","0.0-371.0","3L4PIM1GQU2WBGXV00Y61GKIORWRYM","AN1JWYDJH4VQR","3JUDR1D0D6D4CARU3YX9Y3DK5DJ2QK","","256","img/land5.png","74","257","1","0","2","2","0.8,0.2,0.2,0.2,0.8,0.2,0.2,0.2,0.8","0.8,0.2,0.2,0.2,0.8,0.2,0.2,0.2,0.8","1","",""
"","html-keyboard-response","372","112478","0.0-372.0","3L4PIM1GQU2WBGXV00Y61GKIORWRYM","AN1JWYDJH4VQR","3JUDR1D0D6D4CARU3YX9Y3DK5DJ2QK","","null","<img src=""img/land5.png"" style=""width:200px;border:14px solid red;"">","null","","","","","","","","","",""
"","image-keyboard-response","373","112623","0.0-373.0","3L4PIM1GQU2WBGXV00Y61GKIORWRYM","AN1JWYDJH4VQR","3JUDR1D0D6D4CARU3YX9Y3DK5DJ2QK","","142","img/land4.png","74","144","1","1","1","2","0.8,0.2,0.2,0.2,0.8,0.2,0.2,0.2,0.8","0.8,0.2,0.2,0.2,0.8,0.2,0.2,0.2,0.8","1","",""
"","html-keyboard-response","374","112931","0.0-374.0","3L4PIM1GQU2WBGXV00Y61GKIORWRYM","AN1JWYDJH4VQR","3JUDR1D0D6D4CARU3YX9Y3DK5DJ2QK","","null","<img src=""img/land4.png"" style=""width:200px; border:14px solid green;"">","null","","","","","","","","","",""
