"success","trial_type","trial_index","time_elapsed","internal_node_id","assignmentID","mturkID","hitID","view_history","rt","stimulus","key_press","reactionTime","a","r","s","cond","reward_cond","reward_cond_actual","reward_matrix_idx","responses","question_order"
"true","fullscreen","0","9705","0.0-0.0","3GA6AFUKOPAI6JM4FATMXIMZSNHH3Z","ANK8K5WTHJ61C","3UUIU9GZC5R93N292LT21FRJ9VS5TN","","","","","","","","","","","","","",""
"","instructions","1","50970","0.0-1.0","3GA6AFUKOPAI6JM4FATMXIMZSNHH3Z","ANK8K5WTHJ61C","3UUIU9GZC5R93N292LT21FRJ9VS5TN","[{""page_index"":0,""viewing_time"":8962.799999952316},{""page_index"":1,""viewing_time"":3682.600000023842},{""page_index"":2,""viewing_time"":3133.600000023842},{""page_index"":3,""viewing_time"":9383.299999952316},{""page_index"":4,""viewing_time"":3566.7999999523163},{""page_index"":5,""viewing_time"":2615.5},{""page_index"":6,""viewing_time"":9918.200000047684}]","41263.59999990463","","","","","","","","","","","",""
"","image-keyboard-response","2","51544","0.0-2.0","3GA6AFUKOPAI6JM4FATMXIMZSNHH3Z","ANK8K5WTHJ61C","3UUIU9GZC5R93N292LT21FRJ9VS5TN","","570.5","img/land2.png","74","573.3999999761581","1","0","3","1","0.8,0.2,0.2,0.2,0.8,0.2,0.2,0.2,0.8","0.8,0.2,0.2,0.2,0.8,0.2,0.2,0.2,0.8","1","",""
"","html-keyboard-response","3","51853","0.0-3.0","3GA6AFUKOPAI6JM4FATMXIMZSNHH3Z","ANK8K5WTHJ61C","3UUIU9GZC5R93N292LT21FRJ9VS5TN","","null","<img src=""img/land2.png"" style=""width:200px;border:14px solid red;"">","null","","","","","","","","","",""
"","image-keyboard-response","4","52744","0.0-4.0","3GA6AFUKOPAI6JM4FATMXIMZSNHH3Z","ANK8K5WTHJ61C","3UUIU9GZC5R93N292LT21FRJ9VS5TN","","889.7999999523163","img/land2.png","75","891.1000000238419","2","1","3","1","0.8,0.2,0.2,0.2,0.8,0.2,0.2,0.2,0.8","0.8,0.2,0.2,0.2,0.8,0.2,0.2,0.2,0.8","1","",""
"","html-keyboard-response","5","53050","0.0-5.0","3GA6AFUKOPAI6JM4FATMXIMZSNHH3Z","ANK8K5WTHJ61C","3UUIU9GZC5R93N292LT21FRJ9VS5TN","","null","<img src=""img/land2.png"" style=""width:200px; border:14px solid green;"">","null","","","","","","","","","",""
"","image-keyboard-response","6","54365","0.0-6.0","3GA6AFUKOPAI6JM4FATMXIMZSNHH3Z","ANK8K5WTHJ61C","3UUIU9GZC5R93N292LT21FRJ9VS5TN","","1314.2000000476837","img/land2.png","75","1315.2999999523163","2","0","3","1","0.8,0.2,0.2,0.2,0.8,0.2,0.2,0.2,0.8","0.8,0.2,0.2,0.2,0.8,0.2,0.2,0.2,0.8","1","",""
"","html-keyboard-response","7","54672","0.0-7.0","3GA6AFUKOPAI6JM4FATMXIMZSNHH3Z","ANK8K5WTHJ61C","3UUIU9GZC5R93N292LT21FRJ9VS5TN","","null","<img src=""img/land2.png"" style=""width:200px;border:14px solid red;"">","null","","","","","","","","","",""
"","image-keyboard-response","8","55800","0.0-8.0","3GA6AFUKOPAI6JM4FATMXIMZSNHH3Z","ANK8K5WTHJ61C","3UUIU9GZC5R93N292LT21FRJ9VS5TN","","1126.2999999523163","img/land5.png","74","1127.8999999761581","1","1","1","1","0.8,0.2,0.2,0.2,0.8,0.2,0.2,0.2,0.8","0.8,0.2,0.2,0.2,0.8,0.2,0.2,0.2,0.8","1","",""
"","html-keyboard-response","9","56107","0.0-9.0","3GA6AFUKOPAI6JM4FATMXIMZSNHH3Z","ANK8K5WTHJ61C","3UUIU9GZC5R93N292LT21FRJ9VS5TN","","null","<img src=""img/land5.png"" style=""width:200px; border:14px solid green;"">","null","","","","","","","","","",""
"","image-keyboard-response","10","57001","0.0-10.0","3GA6AFUKOPAI6JM4FATMXIMZSNHH3Z","ANK8K5WTHJ61C","3UUIU9GZC5R93N292LT21FRJ9VS5TN","","892","img/land6.png","76","893.3999999761581","3","0","2","1","0.8,0.2,0.2,0.2,0.8,0.2,0.2,0.2,0.8","0.8,0.2,0.2,0.2,0.8,0.2,0.2,0.2,0.8","1","",""
"","html-keyboard-response","11","57307","0.0-11.0","3GA6AFUKOPAI6JM4FATMXIMZSNHH3Z","ANK8K5WTHJ61C","3UUIU9GZC5R93N292LT21FRJ9VS5TN","","null","<img src=""img/land6.png"" style=""width:200px;border:14px solid red;"">","null","","","","","","","","","",""
"","image-keyboard-response","12","58054","0.0-12.0","3GA6AFUKOPAI6JM4FATMXIMZSNHH3Z","ANK8K5WTHJ61C","3UUIU9GZC5R93N292LT21FRJ9VS5TN","","745.7999999523163","img/land6.png","76","747","3","1","2","1","0.8,0.2,0.2,0.2,0.8,0.2,0.2,0.2,0.8","0.8,0.2,0.2,0.2,0.8,0.2,0.2,0.2,0.8","1","",""
"","html-keyboard-response","13","58357","0.0-13.0","3GA6AFUKOPAI6JM4FATMXIMZSNHH3Z","ANK8K5WTHJ61C","3UUIU9GZC5R93N292LT21FRJ9VS5TN","","null","<img src=""img/land6.png"" style=""width:200px; border:14px solid green;"">","null","","","","","","","","","",""
"","image-keyboard-response","14","59130","0.0-14.0","3GA6AFUKOPAI6JM4FATMXIMZSNHH3Z","ANK8K5WTHJ61C","3UUIU9GZC5R93N292LT21FRJ9VS5TN","","772","img/land2.png","75","773.2999999523163","2","0","3","1","0.8,0.2,0.2,0.2,0.8,0.2,0.2,0.2,0.8","0.8,0.2,0.2,0.2,0.8,0.2,0.2,0.2,0.8","1","",""
"","html-keyboard-response","15","59436","0.0-15.0","3GA6AFUKOPAI6JM4FATMXIMZSNHH3Z","ANK8K5WTHJ61C","3UUIU9GZC5R93N292LT21FRJ9VS5TN","","null","<img src=""img/land2.png"" style=""width:200px;border:14px solid red;"">","null","","","","","","","","","",""
"","image-keyboard-response","16","60395","0.0-16.0","3GA6AFUKOPAI6JM4FATMXIMZSNHH3Z","ANK8K5WTHJ61C","3UUIU9GZC5R93N292LT21FRJ9VS5TN","","957.8000000715256","img/land2.png","75","959.1000000238419","2","1","3","1","0.8,0.2,0.2,0.2,0.8,0.2,0.2,0.2,0.8","0.8,0.2,0.2,0.2,0.8,0.2,0.2,0.2,0.8","1","",""
"","html-keyboard-response","17","60702","0.0-17.0","3GA6AFUKOPAI6JM4FATMXIMZSNHH3Z","ANK8K5WTHJ61C","3UUIU9GZC5R93N292LT21FRJ9VS5TN","","null","<img src=""img/land2.png"" style=""width:200px; border:14px solid green;"">","null","","","","","","","","","",""
"","image-keyboard-response","18","61744","0.0-18.0","3GA6AFUKOPAI6JM4FATMXIMZSNHH3Z","ANK8K5WTHJ61C","3UUIU9GZC5R93N292LT21FRJ9VS5TN","","1039.7000000476837","img/land2.png","74","1041.6000000238419","1","0","3","1","0.8,0.2,0.2,0.2,0.8,0.2,0.2,0.2,0.8","0.8,0.2,0.2,0.2,0.8,0.2,0.2,0.2,0.8","1","",""
"","html-keyboard-response","19","62051","0.0-19.0","3GA6AFUKOPAI6JM4FATMXIMZSNHH3Z","ANK8K5WTHJ61C","3UUIU9GZC5R93N292LT21FRJ9VS5TN","","null","<img src=""img/land2.png"" style=""width:200px;border:14px solid red;"">","null","","","","","","","","","",""
"","image-keyboard-response","20","63001","0.0-20.0","3GA6AFUKOPAI6JM4FATMXIMZSNHH3Z","ANK8K5WTHJ61C","3UUIU9GZC5R93N292LT21FRJ9VS5TN","","948.8999999761581","img/land5.png","74","949.7000000476837","1","1","1","1","0.8,0.2,0.2,0.2,0.8,0.2,0.2,0.2,0.8","0.8,0.2,0.2,0.2,0.8,0.2,0.2,0.2,0.8","1","",""
"","html-keyboard-response","21","63305","0.0-21.0","3GA6AFUKOPAI6JM4FATMXIMZSNHH3Z","ANK8K5WTHJ61C","3UUIU9GZC5R93N292LT21FRJ9VS5TN","","null","<img src=""img/land5.png"" style=""width:200px; border:14px solid green;"">","null","","","","","","","","","",""
"","image-keyboard-response","22","64804","0.0-22.0","3GA6AFUKOPAI6JM4FATMXIMZSNHH3Z","ANK8K5WTHJ61C","3UUIU9GZC5R93N292LT21FRJ9VS5TN","","1497.2999999523163","img/land2.png","74","1498.2999999523163","1","0","3","1","0.8,0.2,0.2,0.2,0.8,0.2,0.2,0.2,0.8","0.8,0.2,0.2,0.2,0.8,0.2,0.2,0.2,0.8","1","",""
"","html-keyboard-response","23","65111","0.0-23.0","3GA6AFUKOPAI6JM4FATMXIMZSNHH3Z","ANK8K5WTHJ61C","3UUIU9GZC5R93N292LT21FRJ9VS5TN","","null","<img src=""img/land2.png"" style=""width:200px;border:14px solid red;"">","null","","","","","","","","","",""
"","image-keyboard-response","24","66003","0.0-24.0","3GA6AFUKOPAI6JM4FATMXIMZSNHH3Z","ANK8K5WTHJ61C","3UUIU9GZC5R93N292LT21FRJ9VS5TN","","890.7000000476837","img/land6.png","74","892.3000000715256","1","0","2","1","0.8,0.2,0.2,0.2,0.8,0.2,0.2,0.2,0.8","0.8,0.2,0.2,0.2,0.8,0.2,0.2,0.2,0.8","1","",""
"","html-keyboard-response","25","66311","0.0-25.0","3GA6AFUKOPAI6JM4FATMXIMZSNHH3Z","ANK8K5WTHJ61C","3UUIU9GZC5R93N292LT21FRJ9VS5TN","","null","<img src=""img/land6.png"" style=""width:200px;border:14px solid red;"">","null","","","","","","","","","",""
"","image-keyboard-response","26","67413","0.0-26.0","3GA6AFUKOPAI6JM4FATMXIMZSNHH3Z","ANK8K5WTHJ61C","3UUIU9GZC5R93N292LT21FRJ9VS5TN","","1100.3999999761581","img/land5.png","75","1102.1999999284744","2","0","1","1","0.8,0.2,0.2,0.2,0.8,0.2,0.2,0.2,0.8","0.8,0.2,0.2,0.2,0.8,0.2,0.2,0.2,0.8","1","",""
"","html-keyboard-response","27","67722","0.0-27.0","3GA6AFUKOPAI6JM4FATMXIMZSNHH3Z","ANK8K5WTHJ61C","3UUIU9GZC5R93N292LT21FRJ9VS5TN","","null","<img src=""img/land5.png"" style=""width:200px;border:14px solid red;"">","null","","","","","","","","","",""
"","image-keyboard-response","28","68793","0.0-28.0","3GA6AFUKOPAI6JM4FATMXIMZSNHH3Z","ANK8K5WTHJ61C","3UUIU9GZC5R93N292LT21FRJ9VS5TN","","1069.6000000238419","img/land6.png","75","1071.5","2","1","2","1","0.8,0.2,0.2,0.2,0.8,0.2,0.2,0.2,0.8","0.8,0.2,0.2,0.2,0.8,0.2,0.2,0.2,0.8","1","",""
"","html-keyboard-response","29","69100","0.0-29.0","3GA6AFUKOPAI6JM4FATMXIMZSNHH3Z","ANK8K5WTHJ61C","3UUIU9GZC5R93N292LT21FRJ9VS5TN","","null","<img src=""img/land6.png"" style=""width:200px; border:14px solid green;"">","null","","","","","","","","","",""
"","image-keyboard-response","30","70505","0.0-30.0","3GA6AFUKOPAI6JM4FATMXIMZSNHH3Z","ANK8K5WTHJ61C","3UUIU9GZC5R93N292LT21FRJ9VS5TN","","1403.5","img/land2.png","76","1404.3999999761581","3","1","3","1","0.8,0.2,0.2,0.2,0.8,0.2,0.2,0.2,0.8","0.8,0.2,0.2,0.2,0.8,0.2,0.2,0.2,0.8","1","",""
"","html-keyboard-response","31","70812","0.0-31.0","3GA6AFUKOPAI6JM4FATMXIMZSNHH3Z","ANK8K5WTHJ61C","3UUIU9GZC5R93N292LT21FRJ9VS5TN","","null","<img src=""img/land2.png"" style=""width:200px; border:14px solid green;"">","null","","","","","","","","","",""
"","image-keyboard-response","32","72635","0.0-32.0","3GA6AFUKOPAI6JM4FATMXIMZSNHH3Z","ANK8K5WTHJ61C","3UUIU9GZC5R93N292LT21FRJ9VS5TN","","1821","img/land6.png","75","1822.7000000476837","2","1","2","1","0.8,0.2,0.2,0.2,0.8,0.2,0.2,0.2,0.8","0.8,0.2,0.2,0.2,0.8,0.2,0.2,0.2,0.8","1","",""
"","html-keyboard-response","33","72943","0.0-33.0","3GA6AFUKOPAI6JM4FATMXIMZSNHH3Z","ANK8K5WTHJ61C","3UUIU9GZC5R93N292LT21FRJ9VS5TN","","null","<img src=""img/land6.png"" style=""width:200px; border:14px solid green;"">","null","","","","","","","","","",""
"","image-keyboard-response","34","74702","0.0-34.0","3GA6AFUKOPAI6JM4FATMXIMZSNHH3Z","ANK8K5WTHJ61C","3UUIU9GZC5R93N292LT21FRJ9VS5TN","","1757.6000000238419","img/land2.png","74","1759.3000000715256","1","1","3","1","0.8,0.2,0.2,0.2,0.8,0.2,0.2,0.2,0.8","0.8,0.2,0.2,0.2,0.8,0.2,0.2,0.2,0.8","1","",""
"","html-keyboard-response","35","75009","0.0-35.0","3GA6AFUKOPAI6JM4FATMXIMZSNHH3Z","ANK8K5WTHJ61C","3UUIU9GZC5R93N292LT21FRJ9VS5TN","","null","<img src=""img/land2.png"" style=""width:200px; border:14px solid green;"">","null","","","","","","","","","",""
"","image-keyboard-response","36","76022","0.0-36.0","3GA6AFUKOPAI6JM4FATMXIMZSNHH3Z","ANK8K5WTHJ61C","3UUIU9GZC5R93N292LT21FRJ9VS5TN","","1011.9000000953674","img/land2.png","74","1012.3999999761581","1","0","3","1","0.8,0.2,0.2,0.2,0.8,0.2,0.2,0.2,0.8","0.8,0.2,0.2,0.2,0.8,0.2,0.2,0.2,0.8","1","",""
"","html-keyboard-response","37","76324","0.0-37.0","3GA6AFUKOPAI6JM4FATMXIMZSNHH3Z","ANK8K5WTHJ61C","3UUIU9GZC5R93N292LT21FRJ9VS5TN","","null","<img src=""img/land2.png"" style=""width:200px;border:14px solid red;"">","null","","","","","","","","","",""
"","image-keyboard-response","38","77222","0.0-38.0","3GA6AFUKOPAI6JM4FATMXIMZSNHH3Z","ANK8K5WTHJ61C","3UUIU9GZC5R93N292LT21FRJ9VS5TN","","896.1000000238419","img/land5.png","76","897.3999999761581","3","0","1","1","0.8,0.2,0.2,0.2,0.8,0.2,0.2,0.2,0.8","0.8,0.2,0.2,0.2,0.8,0.2,0.2,0.2,0.8","1","",""
"","html-keyboard-response","39","77524","0.0-39.0","3GA6AFUKOPAI6JM4FATMXIMZSNHH3Z","ANK8K5WTHJ61C","3UUIU9GZC5R93N292LT21FRJ9VS5TN","","null","<img src=""img/land5.png"" style=""width:200px;border:14px solid red;"">","null","","","","","","","","","",""
"","image-keyboard-response","40","78989","0.0-40.0","3GA6AFUKOPAI6JM4FATMXIMZSNHH3Z","ANK8K5WTHJ61C","3UUIU9GZC5R93N292LT21FRJ9VS5TN","","1463.7999999523163","img/land2.png","74","1464.8999999761581","1","0","3","1","0.8,0.2,0.2,0.2,0.8,0.2,0.2,0.2,0.8","0.8,0.2,0.2,0.2,0.8,0.2,0.2,0.2,0.8","1","",""
"","html-keyboard-response","41","79296","0.0-41.0","3GA6AFUKOPAI6JM4FATMXIMZSNHH3Z","ANK8K5WTHJ61C","3UUIU9GZC5R93N292LT21FRJ9VS5TN","","null","<img src=""img/land2.png"" style=""width:200px;border:14px solid red;"">","null","","","","","","","","","",""
"","image-keyboard-response","42","80375","0.0-42.0","3GA6AFUKOPAI6JM4FATMXIMZSNHH3Z","ANK8K5WTHJ61C","3UUIU9GZC5R93N292LT21FRJ9VS5TN","","1076.8000000715256","img/land2.png","75","1078.5","2","0","3","1","0.8,0.2,0.2,0.2,0.8,0.2,0.2,0.2,0.8","0.8,0.2,0.2,0.2,0.8,0.2,0.2,0.2,0.8","1","",""
"","html-keyboard-response","43","80681","0.0-43.0","3GA6AFUKOPAI6JM4FATMXIMZSNHH3Z","ANK8K5WTHJ61C","3UUIU9GZC5R93N292LT21FRJ9VS5TN","","null","<img src=""img/land2.png"" style=""width:200px;border:14px solid red;"">","null","","","","","","","","","",""
"","image-keyboard-response","44","81484","0.0-44.0","3GA6AFUKOPAI6JM4FATMXIMZSNHH3Z","ANK8K5WTHJ61C","3UUIU9GZC5R93N292LT21FRJ9VS5TN","","801","img/land6.png","76","802.0999999046326","3","1","2","1","0.8,0.2,0.2,0.2,0.8,0.2,0.2,0.2,0.8","0.8,0.2,0.2,0.2,0.8,0.2,0.2,0.2,0.8","1","",""
"","html-keyboard-response","45","81790","0.0-45.0","3GA6AFUKOPAI6JM4FATMXIMZSNHH3Z","ANK8K5WTHJ61C","3UUIU9GZC5R93N292LT21FRJ9VS5TN","","null","<img src=""img/land6.png"" style=""width:200px; border:14px solid green;"">","null","","","","","","","","","",""
"","image-keyboard-response","46","82924","0.0-46.0","3GA6AFUKOPAI6JM4FATMXIMZSNHH3Z","ANK8K5WTHJ61C","3UUIU9GZC5R93N292LT21FRJ9VS5TN","","1131.5","img/land6.png","75","1133.2999999523163","2","1","2","1","0.8,0.2,0.2,0.2,0.8,0.2,0.2,0.2,0.8","0.8,0.2,0.2,0.2,0.8,0.2,0.2,0.2,0.8","1","",""
"","html-keyboard-response","47","83231","0.0-47.0","3GA6AFUKOPAI6JM4FATMXIMZSNHH3Z","ANK8K5WTHJ61C","3UUIU9GZC5R93N292LT21FRJ9VS5TN","","null","<img src=""img/land6.png"" style=""width:200px; border:14px solid green;"">","null","","","","","","","","","",""
"","image-keyboard-response","48","85056","0.0-48.0","3GA6AFUKOPAI6JM4FATMXIMZSNHH3Z","ANK8K5WTHJ61C","3UUIU9GZC5R93N292LT21FRJ9VS5TN","","1823.8999999761581","img/land2.png","74","1824.7999999523163","1","1","3","1","0.8,0.2,0.2,0.2,0.8,0.2,0.2,0.2,0.8","0.8,0.2,0.2,0.2,0.8,0.2,0.2,0.2,0.8","1","",""
"","html-keyboard-response","49","85363","0.0-49.0","3GA6AFUKOPAI6JM4FATMXIMZSNHH3Z","ANK8K5WTHJ61C","3UUIU9GZC5R93N292LT21FRJ9VS5TN","","null","<img src=""img/land2.png"" style=""width:200px; border:14px solid green;"">","null","","","","","","","","","",""
"","image-keyboard-response","50","87370","0.0-50.0","3GA6AFUKOPAI6JM4FATMXIMZSNHH3Z","ANK8K5WTHJ61C","3UUIU9GZC5R93N292LT21FRJ9VS5TN","","","img/land5.png","","2006.8999999761581","-1","0","1","1","0.8,0.2,0.2,0.2,0.8,0.2,0.2,0.2,0.8","0.8,0.2,0.2,0.2,0.8,0.2,0.2,0.2,0.8","1","",""
"","html-keyboard-response","51","87678","0.0-51.0","3GA6AFUKOPAI6JM4FATMXIMZSNHH3Z","ANK8K5WTHJ61C","3UUIU9GZC5R93N292LT21FRJ9VS5TN","","null","<img src=""img/land5.png"" style=""width:200px;border:14px solid red;"">","null","","","","","","","","","",""
"","image-keyboard-response","52","88475","0.0-52.0","3GA6AFUKOPAI6JM4FATMXIMZSNHH3Z","ANK8K5WTHJ61C","3UUIU9GZC5R93N292LT21FRJ9VS5TN","","795.1999999284744","img/land2.png","75","796.6999999284744","2","0","3","1","0.8,0.2,0.2,0.2,0.8,0.2,0.2,0.2,0.8","0.8,0.2,0.2,0.2,0.8,0.2,0.2,0.2,0.8","1","",""
"","html-keyboard-response","53","88778","0.0-53.0","3GA6AFUKOPAI6JM4FATMXIMZSNHH3Z","ANK8K5WTHJ61C","3UUIU9GZC5R93N292LT21FRJ9VS5TN","","null","<img src=""img/land2.png"" style=""width:200px;border:14px solid red;"">","null","","","","","","","","","",""
"","image-keyboard-response","54","89763","0.0-54.0","3GA6AFUKOPAI6JM4FATMXIMZSNHH3Z","ANK8K5WTHJ61C","3UUIU9GZC5R93N292LT21FRJ9VS5TN","","983","img/land6.png","76","984.7999999523163","3","0","2","1","0.8,0.2,0.2,0.2,0.8,0.2,0.2,0.2,0.8","0.8,0.2,0.2,0.2,0.8,0.2,0.2,0.2,0.8","1","",""
"","html-keyboard-response","55","90071","0.0-55.0","3GA6AFUKOPAI6JM4FATMXIMZSNHH3Z","ANK8K5WTHJ61C","3UUIU9GZC5R93N292LT21FRJ9VS5TN","","null","<img src=""img/land6.png"" style=""width:200px;border:14px solid red;"">","null","","","","","","","","","",""
"","image-keyboard-response","56","90932","0.0-56.0","3GA6AFUKOPAI6JM4FATMXIMZSNHH3Z","ANK8K5WTHJ61C","3UUIU9GZC5R93N292LT21FRJ9VS5TN","","859.6000000238419","img/land5.png","75","861.3999999761581","2","0","1","1","0.8,0.2,0.2,0.2,0.8,0.2,0.2,0.2,0.8","0.8,0.2,0.2,0.2,0.8,0.2,0.2,0.2,0.8","1","",""
"","html-keyboard-response","57","91239","0.0-57.0","3GA6AFUKOPAI6JM4FATMXIMZSNHH3Z","ANK8K5WTHJ61C","3UUIU9GZC5R93N292LT21FRJ9VS5TN","","null","<img src=""img/land5.png"" style=""width:200px;border:14px solid red;"">","null","","","","","","","","","",""
"","image-keyboard-response","58","92179","0.0-58.0","3GA6AFUKOPAI6JM4FATMXIMZSNHH3Z","ANK8K5WTHJ61C","3UUIU9GZC5R93N292LT21FRJ9VS5TN","","939.4000000953674","img/land5.png","74","940.3999999761581","1","1","1","1","0.8,0.2,0.2,0.2,0.8,0.2,0.2,0.2,0.8","0.8,0.2,0.2,0.2,0.8,0.2,0.2,0.2,0.8","1","",""
"","html-keyboard-response","59","92487","0.0-59.0","3GA6AFUKOPAI6JM4FATMXIMZSNHH3Z","ANK8K5WTHJ61C","3UUIU9GZC5R93N292LT21FRJ9VS5TN","","null","<img src=""img/land5.png"" style=""width:200px; border:14px solid green;"">","null","","","","","","","","","",""
"","image-keyboard-response","60","93605","0.0-60.0","3GA6AFUKOPAI6JM4FATMXIMZSNHH3Z","ANK8K5WTHJ61C","3UUIU9GZC5R93N292LT21FRJ9VS5TN","","1115.6999999284744","img/land5.png","74","1117.3999999761581","1","1","1","1","0.8,0.2,0.2,0.2,0.8,0.2,0.2,0.2,0.8","0.8,0.2,0.2,0.2,0.8,0.2,0.2,0.2,0.8","1","",""
"","html-keyboard-response","61","93909","0.0-61.0","3GA6AFUKOPAI6JM4FATMXIMZSNHH3Z","ANK8K5WTHJ61C","3UUIU9GZC5R93N292LT21FRJ9VS5TN","","null","<img src=""img/land5.png"" style=""width:200px; border:14px solid green;"">","null","","","","","","","","","",""
"","image-keyboard-response","62","94864","0.0-62.0","3GA6AFUKOPAI6JM4FATMXIMZSNHH3Z","ANK8K5WTHJ61C","3UUIU9GZC5R93N292LT21FRJ9VS5TN","","953.2999999523163","img/land6.png","76","954.3999999761581","3","0","2","1","0.8,0.2,0.2,0.2,0.8,0.2,0.2,0.2,0.8","0.8,0.2,0.2,0.2,0.8,0.2,0.2,0.2,0.8","1","",""
"","html-keyboard-response","63","95171","0.0-63.0","3GA6AFUKOPAI6JM4FATMXIMZSNHH3Z","ANK8K5WTHJ61C","3UUIU9GZC5R93N292LT21FRJ9VS5TN","","null","<img src=""img/land6.png"" style=""width:200px;border:14px solid red;"">","null","","","","","","","","","",""
"","image-keyboard-response","64","95793","0.0-64.0","3GA6AFUKOPAI6JM4FATMXIMZSNHH3Z","ANK8K5WTHJ61C","3UUIU9GZC5R93N292LT21FRJ9VS5TN","","619.8999999761581","img/land6.png","75","620.8999999761581","2","1","2","1","0.8,0.2,0.2,0.2,0.8,0.2,0.2,0.2,0.8","0.8,0.2,0.2,0.2,0.8,0.2,0.2,0.2,0.8","1","",""
"","html-keyboard-response","65","96100","0.0-65.0","3GA6AFUKOPAI6JM4FATMXIMZSNHH3Z","ANK8K5WTHJ61C","3UUIU9GZC5R93N292LT21FRJ9VS5TN","","null","<img src=""img/land6.png"" style=""width:200px; border:14px solid green;"">","null","","","","","","","","","",""
"","image-keyboard-response","66","97111","0.0-66.0","3GA6AFUKOPAI6JM4FATMXIMZSNHH3Z","ANK8K5WTHJ61C","3UUIU9GZC5R93N292LT21FRJ9VS5TN","","1009.1000000238419","img/land2.png","76","1010.3000000715256","3","1","3","1","0.8,0.2,0.2,0.2,0.8,0.2,0.2,0.2,0.8","0.8,0.2,0.2,0.2,0.8,0.2,0.2,0.2,0.8","1","",""
"","html-keyboard-response","67","97412","0.0-67.0","3GA6AFUKOPAI6JM4FATMXIMZSNHH3Z","ANK8K5WTHJ61C","3UUIU9GZC5R93N292LT21FRJ9VS5TN","","null","<img src=""img/land2.png"" style=""width:200px; border:14px solid green;"">","null","","","","","","","","","",""
"","image-keyboard-response","68","98284","0.0-68.0","3GA6AFUKOPAI6JM4FATMXIMZSNHH3Z","ANK8K5WTHJ61C","3UUIU9GZC5R93N292LT21FRJ9VS5TN","","870.2000000476837","img/land6.png","75","871.8999999761581","2","1","2","1","0.8,0.2,0.2,0.2,0.8,0.2,0.2,0.2,0.8","0.8,0.2,0.2,0.2,0.8,0.2,0.2,0.2,0.8","1","",""
"","html-keyboard-response","69","98592","0.0-69.0","3GA6AFUKOPAI6JM4FATMXIMZSNHH3Z","ANK8K5WTHJ61C","3UUIU9GZC5R93N292LT21FRJ9VS5TN","","null","<img src=""img/land6.png"" style=""width:200px; border:14px solid green;"">","null","","","","","","","","","",""
"","image-keyboard-response","70","99182","0.0-70.0","3GA6AFUKOPAI6JM4FATMXIMZSNHH3Z","ANK8K5WTHJ61C","3UUIU9GZC5R93N292LT21FRJ9VS5TN","","588.2999999523163","img/land5.png","74","589.6000000238419","1","1","1","1","0.8,0.2,0.2,0.2,0.8,0.2,0.2,0.2,0.8","0.8,0.2,0.2,0.2,0.8,0.2,0.2,0.2,0.8","1","",""
"","html-keyboard-response","71","99488","0.0-71.0","3GA6AFUKOPAI6JM4FATMXIMZSNHH3Z","ANK8K5WTHJ61C","3UUIU9GZC5R93N292LT21FRJ9VS5TN","","null","<img src=""img/land5.png"" style=""width:200px; border:14px solid green;"">","null","","","","","","","","","",""
"","image-keyboard-response","72","100204","0.0-72.0","3GA6AFUKOPAI6JM4FATMXIMZSNHH3Z","ANK8K5WTHJ61C","3UUIU9GZC5R93N292LT21FRJ9VS5TN","","714.5","img/land5.png","74","716.4000000953674","1","1","1","1","0.8,0.2,0.2,0.2,0.8,0.2,0.2,0.2,0.8","0.8,0.2,0.2,0.2,0.8,0.2,0.2,0.2,0.8","1","",""
"","html-keyboard-response","73","100512","0.0-73.0","3GA6AFUKOPAI6JM4FATMXIMZSNHH3Z","ANK8K5WTHJ61C","3UUIU9GZC5R93N292LT21FRJ9VS5TN","","null","<img src=""img/land5.png"" style=""width:200px; border:14px solid green;"">","null","","","","","","","","","",""
"","image-keyboard-response","74","101433","0.0-74.0","3GA6AFUKOPAI6JM4FATMXIMZSNHH3Z","ANK8K5WTHJ61C","3UUIU9GZC5R93N292LT21FRJ9VS5TN","","919","img/land2.png","76","920.6000000238419","3","1","3","1","0.8,0.2,0.2,0.2,0.8,0.2,0.2,0.2,0.8","0.8,0.2,0.2,0.2,0.8,0.2,0.2,0.2,0.8","1","",""
"","html-keyboard-response","75","101741","0.0-75.0","3GA6AFUKOPAI6JM4FATMXIMZSNHH3Z","ANK8K5WTHJ61C","3UUIU9GZC5R93N292LT21FRJ9VS5TN","","null","<img src=""img/land2.png"" style=""width:200px; border:14px solid green;"">","null","","","","","","","","","",""
"","image-keyboard-response","76","102453","0.0-76.0","3GA6AFUKOPAI6JM4FATMXIMZSNHH3Z","ANK8K5WTHJ61C","3UUIU9GZC5R93N292LT21FRJ9VS5TN","","710.6000000238419","img/land2.png","76","712.2999999523163","3","1","3","1","0.8,0.2,0.2,0.2,0.8,0.2,0.2,0.2,0.8","0.8,0.2,0.2,0.2,0.8,0.2,0.2,0.2,0.8","1","",""
"","html-keyboard-response","77","102757","0.0-77.0","3GA6AFUKOPAI6JM4FATMXIMZSNHH3Z","ANK8K5WTHJ61C","3UUIU9GZC5R93N292LT21FRJ9VS5TN","","null","<img src=""img/land2.png"" style=""width:200px; border:14px solid green;"">","null","","","","","","","","","",""
"","image-keyboard-response","78","103383","0.0-78.0","3GA6AFUKOPAI6JM4FATMXIMZSNHH3Z","ANK8K5WTHJ61C","3UUIU9GZC5R93N292LT21FRJ9VS5TN","","623.9000000953674","img/land6.png","75","625.6000000238419","2","0","2","1","0.8,0.2,0.2,0.2,0.8,0.2,0.2,0.2,0.8","0.8,0.2,0.2,0.2,0.8,0.2,0.2,0.2,0.8","1","",""
"","html-keyboard-response","79","103689","0.0-79.0","3GA6AFUKOPAI6JM4FATMXIMZSNHH3Z","ANK8K5WTHJ61C","3UUIU9GZC5R93N292LT21FRJ9VS5TN","","null","<img src=""img/land6.png"" style=""width:200px;border:14px solid red;"">","null","","","","","","","","","",""
"","image-keyboard-response","80","104523","0.0-80.0","3GA6AFUKOPAI6JM4FATMXIMZSNHH3Z","ANK8K5WTHJ61C","3UUIU9GZC5R93N292LT21FRJ9VS5TN","","832.7999999523163","img/land2.png","74","834.6000000238419","1","0","3","1","0.8,0.2,0.2,0.2,0.8,0.2,0.2,0.2,0.8","0.8,0.2,0.2,0.2,0.8,0.2,0.2,0.2,0.8","1","",""
"","html-keyboard-response","81","104831","0.0-81.0","3GA6AFUKOPAI6JM4FATMXIMZSNHH3Z","ANK8K5WTHJ61C","3UUIU9GZC5R93N292LT21FRJ9VS5TN","","null","<img src=""img/land2.png"" style=""width:200px;border:14px solid red;"">","null","","","","","","","","","",""
"","image-keyboard-response","82","105753","0.0-82.0","3GA6AFUKOPAI6JM4FATMXIMZSNHH3Z","ANK8K5WTHJ61C","3UUIU9GZC5R93N292LT21FRJ9VS5TN","","919.6999999284744","img/land5.png","74","921.5","1","0","1","1","0.8,0.2,0.2,0.2,0.8,0.2,0.2,0.2,0.8","0.8,0.2,0.2,0.2,0.8,0.2,0.2,0.2,0.8","1","",""
"","html-keyboard-response","83","106061","0.0-83.0","3GA6AFUKOPAI6JM4FATMXIMZSNHH3Z","ANK8K5WTHJ61C","3UUIU9GZC5R93N292LT21FRJ9VS5TN","","null","<img src=""img/land5.png"" style=""width:200px;border:14px solid red;"">","null","","","","","","","","","",""
"","image-keyboard-response","84","106594","0.0-84.0","3GA6AFUKOPAI6JM4FATMXIMZSNHH3Z","ANK8K5WTHJ61C","3UUIU9GZC5R93N292LT21FRJ9VS5TN","","531.2000000476837","img/land5.png","74","533","1","1","1","1","0.8,0.2,0.2,0.2,0.8,0.2,0.2,0.2,0.8","0.8,0.2,0.2,0.2,0.8,0.2,0.2,0.2,0.8","1","",""
"","html-keyboard-response","85","106897","0.0-85.0","3GA6AFUKOPAI6JM4FATMXIMZSNHH3Z","ANK8K5WTHJ61C","3UUIU9GZC5R93N292LT21FRJ9VS5TN","","null","<img src=""img/land5.png"" style=""width:200px; border:14px solid green;"">","null","","","","","","","","","",""
"","image-keyboard-response","86","107882","0.0-86.0","3GA6AFUKOPAI6JM4FATMXIMZSNHH3Z","ANK8K5WTHJ61C","3UUIU9GZC5R93N292LT21FRJ9VS5TN","","982.5","img/land6.png","75","984","2","1","2","1","0.8,0.2,0.2,0.2,0.8,0.2,0.2,0.2,0.8","0.8,0.2,0.2,0.2,0.8,0.2,0.2,0.2,0.8","1","",""
"","html-keyboard-response","87","108185","0.0-87.0","3GA6AFUKOPAI6JM4FATMXIMZSNHH3Z","ANK8K5WTHJ61C","3UUIU9GZC5R93N292LT21FRJ9VS5TN","","null","<img src=""img/land6.png"" style=""width:200px; border:14px solid green;"">","null","","","","","","","","","",""
"","image-keyboard-response","88","109111","0.0-88.0","3GA6AFUKOPAI6JM4FATMXIMZSNHH3Z","ANK8K5WTHJ61C","3UUIU9GZC5R93N292LT21FRJ9VS5TN","","924","img/land2.png","74","925.3000000715256","1","0","3","1","0.8,0.2,0.2,0.2,0.8,0.2,0.2,0.2,0.8","0.8,0.2,0.2,0.2,0.8,0.2,0.2,0.2,0.8","1","",""
"","html-keyboard-response","89","109417","0.0-89.0","3GA6AFUKOPAI6JM4FATMXIMZSNHH3Z","ANK8K5WTHJ61C","3UUIU9GZC5R93N292LT21FRJ9VS5TN","","null","<img src=""img/land2.png"" style=""width:200px;border:14px solid red;"">","null","","","","","","","","","",""
"","image-keyboard-response","90","110042","0.0-90.0","3GA6AFUKOPAI6JM4FATMXIMZSNHH3Z","ANK8K5WTHJ61C","3UUIU9GZC5R93N292LT21FRJ9VS5TN","","623.8999999761581","img/land2.png","76","625.6000000238419","3","0","3","1","0.8,0.2,0.2,0.2,0.8,0.2,0.2,0.2,0.8","0.8,0.2,0.2,0.2,0.8,0.2,0.2,0.2,0.8","1","",""
"","html-keyboard-response","91","110350","0.0-91.0","3GA6AFUKOPAI6JM4FATMXIMZSNHH3Z","ANK8K5WTHJ61C","3UUIU9GZC5R93N292LT21FRJ9VS5TN","","null","<img src=""img/land2.png"" style=""width:200px;border:14px solid red;"">","null","","","","","","","","","",""
"","image-keyboard-response","92","111122","0.0-92.0","3GA6AFUKOPAI6JM4FATMXIMZSNHH3Z","ANK8K5WTHJ61C","3UUIU9GZC5R93N292LT21FRJ9VS5TN","","770.2000000476837","img/land6.png","75","771.7000000476837","2","1","2","1","0.8,0.2,0.2,0.2,0.8,0.2,0.2,0.2,0.8","0.8,0.2,0.2,0.2,0.8,0.2,0.2,0.2,0.8","1","",""
"","html-keyboard-response","93","111429","0.0-93.0","3GA6AFUKOPAI6JM4FATMXIMZSNHH3Z","ANK8K5WTHJ61C","3UUIU9GZC5R93N292LT21FRJ9VS5TN","","null","<img src=""img/land6.png"" style=""width:200px; border:14px solid green;"">","null","","","","","","","","","",""
"","image-keyboard-response","94","112322","0.0-94.0","3GA6AFUKOPAI6JM4FATMXIMZSNHH3Z","ANK8K5WTHJ61C","3UUIU9GZC5R93N292LT21FRJ9VS5TN","","891.4000000953674","img/land2.png","76","892.9000000953674","3","1","3","1","0.8,0.2,0.2,0.2,0.8,0.2,0.2,0.2,0.8","0.8,0.2,0.2,0.2,0.8,0.2,0.2,0.2,0.8","1","",""
"","html-keyboard-response","95","112627","0.0-95.0","3GA6AFUKOPAI6JM4FATMXIMZSNHH3Z","ANK8K5WTHJ61C","3UUIU9GZC5R93N292LT21FRJ9VS5TN","","null","<img src=""img/land2.png"" style=""width:200px; border:14px solid green;"">","null","","","","","","","","","",""
"","image-keyboard-response","96","113370","0.0-96.0","3GA6AFUKOPAI6JM4FATMXIMZSNHH3Z","ANK8K5WTHJ61C","3UUIU9GZC5R93N292LT21FRJ9VS5TN","","741.6999999284744","img/land6.png","75","743","2","1","2","1","0.8,0.2,0.2,0.2,0.8,0.2,0.2,0.2,0.8","0.8,0.2,0.2,0.2,0.8,0.2,0.2,0.2,0.8","1","",""
"","html-keyboard-response","97","113675","0.0-97.0","3GA6AFUKOPAI6JM4FATMXIMZSNHH3Z","ANK8K5WTHJ61C","3UUIU9GZC5R93N292LT21FRJ9VS5TN","","null","<img src=""img/land6.png"" style=""width:200px; border:14px solid green;"">","null","","","","","","","","","",""
"","image-keyboard-response","98","114213","0.0-98.0","3GA6AFUKOPAI6JM4FATMXIMZSNHH3Z","ANK8K5WTHJ61C","3UUIU9GZC5R93N292LT21FRJ9VS5TN","","535.4000000953674","img/land5.png","74","537.2999999523163","1","1","1","1","0.8,0.2,0.2,0.2,0.8,0.2,0.2,0.2,0.8","0.8,0.2,0.2,0.2,0.8,0.2,0.2,0.2,0.8","1","",""
"","html-keyboard-response","99","114520","0.0-99.0","3GA6AFUKOPAI6JM4FATMXIMZSNHH3Z","ANK8K5WTHJ61C","3UUIU9GZC5R93N292LT21FRJ9VS5TN","","null","<img src=""img/land5.png"" style=""width:200px; border:14px solid green;"">","null","","","","","","","","","",""
"","image-keyboard-response","100","115170","0.0-100.0","3GA6AFUKOPAI6JM4FATMXIMZSNHH3Z","ANK8K5WTHJ61C","3UUIU9GZC5R93N292LT21FRJ9VS5TN","","648.3999999761581","img/land6.png","75","649.5","2","1","2","1","0.8,0.2,0.2,0.2,0.8,0.2,0.2,0.2,0.8","0.8,0.2,0.2,0.2,0.8,0.2,0.2,0.2,0.8","1","",""
"","html-keyboard-response","101","115475","0.0-101.0","3GA6AFUKOPAI6JM4FATMXIMZSNHH3Z","ANK8K5WTHJ61C","3UUIU9GZC5R93N292LT21FRJ9VS5TN","","null","<img src=""img/land6.png"" style=""width:200px; border:14px solid green;"">","null","","","","","","","","","",""
"","image-keyboard-response","102","115980","0.0-102.0","3GA6AFUKOPAI6JM4FATMXIMZSNHH3Z","ANK8K5WTHJ61C","3UUIU9GZC5R93N292LT21FRJ9VS5TN","","503.5","img/land2.png","76","504.7999999523163","3","1","3","1","0.8,0.2,0.2,0.2,0.8,0.2,0.2,0.2,0.8","0.8,0.2,0.2,0.2,0.8,0.2,0.2,0.2,0.8","1","",""
"","html-keyboard-response","103","116283","0.0-103.0","3GA6AFUKOPAI6JM4FATMXIMZSNHH3Z","ANK8K5WTHJ61C","3UUIU9GZC5R93N292LT21FRJ9VS5TN","","null","<img src=""img/land2.png"" style=""width:200px; border:14px solid green;"">","null","","","","","","","","","",""
"","image-keyboard-response","104","117060","0.0-104.0","3GA6AFUKOPAI6JM4FATMXIMZSNHH3Z","ANK8K5WTHJ61C","3UUIU9GZC5R93N292LT21FRJ9VS5TN","","774.6000000238419","img/land5.png","74","775.7999999523163","1","1","1","1","0.8,0.2,0.2,0.2,0.8,0.2,0.2,0.2,0.8","0.8,0.2,0.2,0.2,0.8,0.2,0.2,0.2,0.8","1","",""
"","html-keyboard-response","105","117365","0.0-105.0","3GA6AFUKOPAI6JM4FATMXIMZSNHH3Z","ANK8K5WTHJ61C","3UUIU9GZC5R93N292LT21FRJ9VS5TN","","null","<img src=""img/land5.png"" style=""width:200px; border:14px solid green;"">","null","","","","","","","","","",""
"","image-keyboard-response","106","118383","0.0-106.0","3GA6AFUKOPAI6JM4FATMXIMZSNHH3Z","ANK8K5WTHJ61C","3UUIU9GZC5R93N292LT21FRJ9VS5TN","","1016.1000000238419","img/land2.png","76","1017.8000000715256","3","0","3","1","0.8,0.2,0.2,0.2,0.8,0.2,0.2,0.2,0.8","0.8,0.2,0.2,0.2,0.8,0.2,0.2,0.2,0.8","1","",""
"","html-keyboard-response","107","118686","0.0-107.0","3GA6AFUKOPAI6JM4FATMXIMZSNHH3Z","ANK8K5WTHJ61C","3UUIU9GZC5R93N292LT21FRJ9VS5TN","","null","<img src=""img/land2.png"" style=""width:200px;border:14px solid red;"">","null","","","","","","","","","",""
"","image-keyboard-response","108","119464","0.0-108.0","3GA6AFUKOPAI6JM4FATMXIMZSNHH3Z","ANK8K5WTHJ61C","3UUIU9GZC5R93N292LT21FRJ9VS5TN","","776.1000000238419","img/land5.png","74","777.7000000476837","1","0","1","1","0.8,0.2,0.2,0.2,0.8,0.2,0.2,0.2,0.8","0.8,0.2,0.2,0.2,0.8,0.2,0.2,0.2,0.8","1","",""
"","html-keyboard-response","109","119771","0.0-109.0","3GA6AFUKOPAI6JM4FATMXIMZSNHH3Z","ANK8K5WTHJ61C","3UUIU9GZC5R93N292LT21FRJ9VS5TN","","null","<img src=""img/land5.png"" style=""width:200px;border:14px solid red;"">","null","","","","","","","","","",""
"","image-keyboard-response","110","120484","0.0-110.0","3GA6AFUKOPAI6JM4FATMXIMZSNHH3Z","ANK8K5WTHJ61C","3UUIU9GZC5R93N292LT21FRJ9VS5TN","","710.6000000238419","img/land6.png","75","712.6000000238419","2","1","2","1","0.8,0.2,0.2,0.2,0.8,0.2,0.2,0.2,0.8","0.8,0.2,0.2,0.2,0.8,0.2,0.2,0.2,0.8","1","",""
"","html-keyboard-response","111","120791","0.0-111.0","3GA6AFUKOPAI6JM4FATMXIMZSNHH3Z","ANK8K5WTHJ61C","3UUIU9GZC5R93N292LT21FRJ9VS5TN","","null","<img src=""img/land6.png"" style=""width:200px; border:14px solid green;"">","null","","","","","","","","","",""
"","image-keyboard-response","112","121293","0.0-112.0","3GA6AFUKOPAI6JM4FATMXIMZSNHH3Z","ANK8K5WTHJ61C","3UUIU9GZC5R93N292LT21FRJ9VS5TN","","500.5","img/land6.png","76","502.10000002384186","3","1","2","1","0.8,0.2,0.2,0.2,0.8,0.2,0.2,0.2,0.8","0.8,0.2,0.2,0.2,0.8,0.2,0.2,0.2,0.8","1","",""
"","html-keyboard-response","113","121600","0.0-113.0","3GA6AFUKOPAI6JM4FATMXIMZSNHH3Z","ANK8K5WTHJ61C","3UUIU9GZC5R93N292LT21FRJ9VS5TN","","null","<img src=""img/land6.png"" style=""width:200px; border:14px solid green;"">","null","","","","","","","","","",""
"","image-keyboard-response","114","122554","0.0-114.0","3GA6AFUKOPAI6JM4FATMXIMZSNHH3Z","ANK8K5WTHJ61C","3UUIU9GZC5R93N292LT21FRJ9VS5TN","","951.3999999761581","img/land2.png","75","953.1999999284744","2","0","3","1","0.8,0.2,0.2,0.2,0.8,0.2,0.2,0.2,0.8","0.8,0.2,0.2,0.2,0.8,0.2,0.2,0.2,0.8","1","",""
"","html-keyboard-response","115","122861","0.0-115.0","3GA6AFUKOPAI6JM4FATMXIMZSNHH3Z","ANK8K5WTHJ61C","3UUIU9GZC5R93N292LT21FRJ9VS5TN","","null","<img src=""img/land2.png"" style=""width:200px;border:14px solid red;"">","null","","","","","","","","","",""
"","image-keyboard-response","116","123962","0.0-116.0","3GA6AFUKOPAI6JM4FATMXIMZSNHH3Z","ANK8K5WTHJ61C","3UUIU9GZC5R93N292LT21FRJ9VS5TN","","1099","img/land6.png","76","1100.5","3","0","2","1","0.8,0.2,0.2,0.2,0.8,0.2,0.2,0.2,0.8","0.8,0.2,0.2,0.2,0.8,0.2,0.2,0.2,0.8","1","",""
"","html-keyboard-response","117","124265","0.0-117.0","3GA6AFUKOPAI6JM4FATMXIMZSNHH3Z","ANK8K5WTHJ61C","3UUIU9GZC5R93N292LT21FRJ9VS5TN","","null","<img src=""img/land6.png"" style=""width:200px;border:14px solid red;"">","null","","","","","","","","","",""
"","image-keyboard-response","118","124713","0.0-118.0","3GA6AFUKOPAI6JM4FATMXIMZSNHH3Z","ANK8K5WTHJ61C","3UUIU9GZC5R93N292LT21FRJ9VS5TN","","445.89999997615814","img/land6.png","75","447.6999999284744","2","1","2","1","0.8,0.2,0.2,0.2,0.8,0.2,0.2,0.2,0.8","0.8,0.2,0.2,0.2,0.8,0.2,0.2,0.2,0.8","1","",""
"","html-keyboard-response","119","125020","0.0-119.0","3GA6AFUKOPAI6JM4FATMXIMZSNHH3Z","ANK8K5WTHJ61C","3UUIU9GZC5R93N292LT21FRJ9VS5TN","","null","<img src=""img/land6.png"" style=""width:200px; border:14px solid green;"">","null","","","","","","","","","",""
"","image-keyboard-response","120","125688","0.0-120.0","3GA6AFUKOPAI6JM4FATMXIMZSNHH3Z","ANK8K5WTHJ61C","3UUIU9GZC5R93N292LT21FRJ9VS5TN","","667","img/land5.png","74","668","1","1","1","1","0.8,0.2,0.2,0.2,0.8,0.2,0.2,0.2,0.8","0.8,0.2,0.2,0.2,0.8,0.2,0.2,0.2,0.8","1","",""
"","html-keyboard-response","121","125992","0.0-121.0","3GA6AFUKOPAI6JM4FATMXIMZSNHH3Z","ANK8K5WTHJ61C","3UUIU9GZC5R93N292LT21FRJ9VS5TN","","null","<img src=""img/land5.png"" style=""width:200px; border:14px solid green;"">","null","","","","","","","","","",""
"","image-keyboard-response","122","126664","0.0-122.0","3GA6AFUKOPAI6JM4FATMXIMZSNHH3Z","ANK8K5WTHJ61C","3UUIU9GZC5R93N292LT21FRJ9VS5TN","","670.0999999046326","img/land5.png","74","671.7999999523163","1","1","1","1","0.8,0.2,0.2,0.2,0.8,0.2,0.2,0.2,0.8","0.8,0.2,0.2,0.2,0.8,0.2,0.2,0.2,0.8","1","",""
"","html-keyboard-response","123","126972","0.0-123.0","3GA6AFUKOPAI6JM4FATMXIMZSNHH3Z","ANK8K5WTHJ61C","3UUIU9GZC5R93N292LT21FRJ9VS5TN","","null","<img src=""img/land5.png"" style=""width:200px; border:14px solid green;"">","null","","","","","","","","","",""
"","image-keyboard-response","124","127473","0.0-124.0","3GA6AFUKOPAI6JM4FATMXIMZSNHH3Z","ANK8K5WTHJ61C","3UUIU9GZC5R93N292LT21FRJ9VS5TN","","499.5","img/land5.png","74","501","1","1","1","1","0.8,0.2,0.2,0.2,0.8,0.2,0.2,0.2,0.8","0.8,0.2,0.2,0.2,0.8,0.2,0.2,0.2,0.8","1","",""
"","html-keyboard-response","125","127778","0.0-125.0","3GA6AFUKOPAI6JM4FATMXIMZSNHH3Z","ANK8K5WTHJ61C","3UUIU9GZC5R93N292LT21FRJ9VS5TN","","null","<img src=""img/land5.png"" style=""width:200px; border:14px solid green;"">","null","","","","","","","","","",""
"","image-keyboard-response","126","128464","0.0-126.0","3GA6AFUKOPAI6JM4FATMXIMZSNHH3Z","ANK8K5WTHJ61C","3UUIU9GZC5R93N292LT21FRJ9VS5TN","","683.8999999761581","img/land2.png","76","685.8000000715256","3","0","3","1","0.8,0.2,0.2,0.2,0.8,0.2,0.2,0.2,0.8","0.8,0.2,0.2,0.2,0.8,0.2,0.2,0.2,0.8","1","",""
"","html-keyboard-response","127","128772","0.0-127.0","3GA6AFUKOPAI6JM4FATMXIMZSNHH3Z","ANK8K5WTHJ61C","3UUIU9GZC5R93N292LT21FRJ9VS5TN","","null","<img src=""img/land2.png"" style=""width:200px;border:14px solid red;"">","null","","","","","","","","","",""
"","image-keyboard-response","128","129454","0.0-128.0","3GA6AFUKOPAI6JM4FATMXIMZSNHH3Z","ANK8K5WTHJ61C","3UUIU9GZC5R93N292LT21FRJ9VS5TN","","679.7000000476837","img/land6.png","75","681.5","2","1","2","1","0.8,0.2,0.2,0.2,0.8,0.2,0.2,0.2,0.8","0.8,0.2,0.2,0.2,0.8,0.2,0.2,0.2,0.8","1","",""
"","html-keyboard-response","129","129761","0.0-129.0","3GA6AFUKOPAI6JM4FATMXIMZSNHH3Z","ANK8K5WTHJ61C","3UUIU9GZC5R93N292LT21FRJ9VS5TN","","null","<img src=""img/land6.png"" style=""width:200px; border:14px solid green;"">","null","","","","","","","","","",""
"","image-keyboard-response","130","130444","0.0-130.0","3GA6AFUKOPAI6JM4FATMXIMZSNHH3Z","ANK8K5WTHJ61C","3UUIU9GZC5R93N292LT21FRJ9VS5TN","","680.5","img/land6.png","75","682.2000000476837","2","0","2","1","0.8,0.2,0.2,0.2,0.8,0.2,0.2,0.2,0.8","0.8,0.2,0.2,0.2,0.8,0.2,0.2,0.2,0.8","1","",""
"","html-keyboard-response","131","130752","0.0-131.0","3GA6AFUKOPAI6JM4FATMXIMZSNHH3Z","ANK8K5WTHJ61C","3UUIU9GZC5R93N292LT21FRJ9VS5TN","","null","<img src=""img/land6.png"" style=""width:200px;border:14px solid red;"">","null","","","","","","","","","",""
"","image-keyboard-response","132","131431","0.0-132.0","3GA6AFUKOPAI6JM4FATMXIMZSNHH3Z","ANK8K5WTHJ61C","3UUIU9GZC5R93N292LT21FRJ9VS5TN","","677.3999999761581","img/land5.png","74","678.5","1","1","1","1","0.8,0.2,0.2,0.2,0.8,0.2,0.2,0.2,0.8","0.8,0.2,0.2,0.2,0.8,0.2,0.2,0.2,0.8","1","",""
"","html-keyboard-response","133","131736","0.0-133.0","3GA6AFUKOPAI6JM4FATMXIMZSNHH3Z","ANK8K5WTHJ61C","3UUIU9GZC5R93N292LT21FRJ9VS5TN","","null","<img src=""img/land5.png"" style=""width:200px; border:14px solid green;"">","null","","","","","","","","","",""
"","image-keyboard-response","134","132362","0.0-134.0","3GA6AFUKOPAI6JM4FATMXIMZSNHH3Z","ANK8K5WTHJ61C","3UUIU9GZC5R93N292LT21FRJ9VS5TN","","623.8999999761581","img/land5.png","74","625.7000000476837","1","1","1","1","0.8,0.2,0.2,0.2,0.8,0.2,0.2,0.2,0.8","0.8,0.2,0.2,0.2,0.8,0.2,0.2,0.2,0.8","1","",""
"","html-keyboard-response","135","132668","0.0-135.0","3GA6AFUKOPAI6JM4FATMXIMZSNHH3Z","ANK8K5WTHJ61C","3UUIU9GZC5R93N292LT21FRJ9VS5TN","","null","<img src=""img/land5.png"" style=""width:200px; border:14px solid green;"">","null","","","","","","","","","",""
"","image-keyboard-response","136","133230","0.0-136.0","3GA6AFUKOPAI6JM4FATMXIMZSNHH3Z","ANK8K5WTHJ61C","3UUIU9GZC5R93N292LT21FRJ9VS5TN","","560.6999999284744","img/land5.png","74","561.8999999761581","1","1","1","1","0.8,0.2,0.2,0.2,0.8,0.2,0.2,0.2,0.8","0.8,0.2,0.2,0.2,0.8,0.2,0.2,0.2,0.8","1","",""
"","html-keyboard-response","137","133533","0.0-137.0","3GA6AFUKOPAI6JM4FATMXIMZSNHH3Z","ANK8K5WTHJ61C","3UUIU9GZC5R93N292LT21FRJ9VS5TN","","null","<img src=""img/land5.png"" style=""width:200px; border:14px solid green;"">","null","","","","","","","","","",""
"","image-keyboard-response","138","134194","0.0-138.0","3GA6AFUKOPAI6JM4FATMXIMZSNHH3Z","ANK8K5WTHJ61C","3UUIU9GZC5R93N292LT21FRJ9VS5TN","","658.6000000238419","img/land6.png","75","660.3999999761581","2","1","2","1","0.8,0.2,0.2,0.2,0.8,0.2,0.2,0.2,0.8","0.8,0.2,0.2,0.2,0.8,0.2,0.2,0.2,0.8","1","",""
"","html-keyboard-response","139","134502","0.0-139.0","3GA6AFUKOPAI6JM4FATMXIMZSNHH3Z","ANK8K5WTHJ61C","3UUIU9GZC5R93N292LT21FRJ9VS5TN","","null","<img src=""img/land6.png"" style=""width:200px; border:14px solid green;"">","null","","","","","","","","","",""
"","image-keyboard-response","140","135241","0.0-140.0","3GA6AFUKOPAI6JM4FATMXIMZSNHH3Z","ANK8K5WTHJ61C","3UUIU9GZC5R93N292LT21FRJ9VS5TN","","738","img/land5.png","74","739.3000000715256","1","1","1","1","0.8,0.2,0.2,0.2,0.8,0.2,0.2,0.2,0.8","0.8,0.2,0.2,0.2,0.8,0.2,0.2,0.2,0.8","1","",""
"","html-keyboard-response","141","135548","0.0-141.0","3GA6AFUKOPAI6JM4FATMXIMZSNHH3Z","ANK8K5WTHJ61C","3UUIU9GZC5R93N292LT21FRJ9VS5TN","","null","<img src=""img/land5.png"" style=""width:200px; border:14px solid green;"">","null","","","","","","","","","",""
"","image-keyboard-response","142","136233","0.0-142.0","3GA6AFUKOPAI6JM4FATMXIMZSNHH3Z","ANK8K5WTHJ61C","3UUIU9GZC5R93N292LT21FRJ9VS5TN","","683.3000000715256","img/land6.png","76","685.1000000238419","3","0","2","1","0.8,0.2,0.2,0.2,0.8,0.2,0.2,0.2,0.8","0.8,0.2,0.2,0.2,0.8,0.2,0.2,0.2,0.8","1","",""
"","html-keyboard-response","143","136541","0.0-143.0","3GA6AFUKOPAI6JM4FATMXIMZSNHH3Z","ANK8K5WTHJ61C","3UUIU9GZC5R93N292LT21FRJ9VS5TN","","null","<img src=""img/land6.png"" style=""width:200px;border:14px solid red;"">","null","","","","","","","","","",""
"","image-keyboard-response","144","137284","0.0-144.0","3GA6AFUKOPAI6JM4FATMXIMZSNHH3Z","ANK8K5WTHJ61C","3UUIU9GZC5R93N292LT21FRJ9VS5TN","","741.2000000476837","img/land5.png","74","742.9000000953674","1","0","1","1","0.8,0.2,0.2,0.2,0.8,0.2,0.2,0.2,0.8","0.8,0.2,0.2,0.2,0.8,0.2,0.2,0.2,0.8","1","",""
"","html-keyboard-response","145","137586","0.0-145.0","3GA6AFUKOPAI6JM4FATMXIMZSNHH3Z","ANK8K5WTHJ61C","3UUIU9GZC5R93N292LT21FRJ9VS5TN","","null","<img src=""img/land5.png"" style=""width:200px;border:14px solid red;"">","null","","","","","","","","","",""
"","image-keyboard-response","146","138454","0.0-146.0","3GA6AFUKOPAI6JM4FATMXIMZSNHH3Z","ANK8K5WTHJ61C","3UUIU9GZC5R93N292LT21FRJ9VS5TN","","865.8999999761581","img/land6.png","75","867.2000000476837","2","1","2","1","0.8,0.2,0.2,0.2,0.8,0.2,0.2,0.2,0.8","0.8,0.2,0.2,0.2,0.8,0.2,0.2,0.2,0.8","1","",""
"","html-keyboard-response","147","138760","0.0-147.0","3GA6AFUKOPAI6JM4FATMXIMZSNHH3Z","ANK8K5WTHJ61C","3UUIU9GZC5R93N292LT21FRJ9VS5TN","","null","<img src=""img/land6.png"" style=""width:200px; border:14px solid green;"">","null","","","","","","","","","",""
"","image-keyboard-response","148","139353","0.0-148.0","3GA6AFUKOPAI6JM4FATMXIMZSNHH3Z","ANK8K5WTHJ61C","3UUIU9GZC5R93N292LT21FRJ9VS5TN","","590.8000000715256","img/land5.png","74","592.5","1","0","1","1","0.8,0.2,0.2,0.2,0.8,0.2,0.2,0.2,0.8","0.8,0.2,0.2,0.2,0.8,0.2,0.2,0.2,0.8","1","",""
"","html-keyboard-response","149","139658","0.0-149.0","3GA6AFUKOPAI6JM4FATMXIMZSNHH3Z","ANK8K5WTHJ61C","3UUIU9GZC5R93N292LT21FRJ9VS5TN","","null","<img src=""img/land5.png"" style=""width:200px;border:14px solid red;"">","null","","","","","","","","","",""
"","image-keyboard-response","150","140284","0.0-150.0","3GA6AFUKOPAI6JM4FATMXIMZSNHH3Z","ANK8K5WTHJ61C","3UUIU9GZC5R93N292LT21FRJ9VS5TN","","624","img/land5.png","74","625.7999999523163","1","1","1","1","0.8,0.2,0.2,0.2,0.8,0.2,0.2,0.2,0.8","0.8,0.2,0.2,0.2,0.8,0.2,0.2,0.2,0.8","1","",""
"","html-keyboard-response","151","140589","0.0-151.0","3GA6AFUKOPAI6JM4FATMXIMZSNHH3Z","ANK8K5WTHJ61C","3UUIU9GZC5R93N292LT21FRJ9VS5TN","","null","<img src=""img/land5.png"" style=""width:200px; border:14px solid green;"">","null","","","","","","","","","",""
"","image-keyboard-response","152","141119","0.0-152.0","3GA6AFUKOPAI6JM4FATMXIMZSNHH3Z","ANK8K5WTHJ61C","3UUIU9GZC5R93N292LT21FRJ9VS5TN","","528.5","img/land5.png","74","529.7999999523163","1","1","1","1","0.8,0.2,0.2,0.2,0.8,0.2,0.2,0.2,0.8","0.8,0.2,0.2,0.2,0.8,0.2,0.2,0.2,0.8","1","",""
"","html-keyboard-response","153","141425","0.0-153.0","3GA6AFUKOPAI6JM4FATMXIMZSNHH3Z","ANK8K5WTHJ61C","3UUIU9GZC5R93N292LT21FRJ9VS5TN","","null","<img src=""img/land5.png"" style=""width:200px; border:14px solid green;"">","null","","","","","","","","","",""
"","image-keyboard-response","154","142082","0.0-154.0","3GA6AFUKOPAI6JM4FATMXIMZSNHH3Z","ANK8K5WTHJ61C","3UUIU9GZC5R93N292LT21FRJ9VS5TN","","655.3999999761581","img/land6.png","75","657.3000000715256","2","0","2","1","0.8,0.2,0.2,0.2,0.8,0.2,0.2,0.2,0.8","0.8,0.2,0.2,0.2,0.8,0.2,0.2,0.2,0.8","1","",""
"","html-keyboard-response","155","142386","0.0-155.0","3GA6AFUKOPAI6JM4FATMXIMZSNHH3Z","ANK8K5WTHJ61C","3UUIU9GZC5R93N292LT21FRJ9VS5TN","","null","<img src=""img/land6.png"" style=""width:200px;border:14px solid red;"">","null","","","","","","","","","",""
"","image-keyboard-response","156","143102","0.0-156.0","3GA6AFUKOPAI6JM4FATMXIMZSNHH3Z","ANK8K5WTHJ61C","3UUIU9GZC5R93N292LT21FRJ9VS5TN","","713.7999999523163","img/land5.png","74","715.5","1","1","1","1","0.8,0.2,0.2,0.2,0.8,0.2,0.2,0.2,0.8","0.8,0.2,0.2,0.2,0.8,0.2,0.2,0.2,0.8","1","",""
"","html-keyboard-response","157","143409","0.0-157.0","3GA6AFUKOPAI6JM4FATMXIMZSNHH3Z","ANK8K5WTHJ61C","3UUIU9GZC5R93N292LT21FRJ9VS5TN","","null","<img src=""img/land5.png"" style=""width:200px; border:14px solid green;"">","null","","","","","","","","","",""
"","image-keyboard-response","158","144094","0.0-158.0","3GA6AFUKOPAI6JM4FATMXIMZSNHH3Z","ANK8K5WTHJ61C","3UUIU9GZC5R93N292LT21FRJ9VS5TN","","683.7000000476837","img/land2.png","76","684.6000000238419","3","1","3","1","0.8,0.2,0.2,0.2,0.8,0.2,0.2,0.2,0.8","0.8,0.2,0.2,0.2,0.8,0.2,0.2,0.2,0.8","1","",""
"","html-keyboard-response","159","144401","0.0-159.0","3GA6AFUKOPAI6JM4FATMXIMZSNHH3Z","ANK8K5WTHJ61C","3UUIU9GZC5R93N292LT21FRJ9VS5TN","","null","<img src=""img/land2.png"" style=""width:200px; border:14px solid green;"">","null","","","","","","","","","",""
"","image-keyboard-response","160","145019","0.0-160.0","3GA6AFUKOPAI6JM4FATMXIMZSNHH3Z","ANK8K5WTHJ61C","3UUIU9GZC5R93N292LT21FRJ9VS5TN","","616.9000000953674","img/land2.png","76","618.2999999523163","3","0","3","1","0.8,0.2,0.2,0.2,0.8,0.2,0.2,0.2,0.8","0.8,0.2,0.2,0.2,0.8,0.2,0.2,0.2,0.8","1","",""
"","html-keyboard-response","161","145326","0.0-161.0","3GA6AFUKOPAI6JM4FATMXIMZSNHH3Z","ANK8K5WTHJ61C","3UUIU9GZC5R93N292LT21FRJ9VS5TN","","null","<img src=""img/land2.png"" style=""width:200px;border:14px solid red;"">","null","","","","","","","","","",""
"","image-keyboard-response","162","145950","0.0-162.0","3GA6AFUKOPAI6JM4FATMXIMZSNHH3Z","ANK8K5WTHJ61C","3UUIU9GZC5R93N292LT21FRJ9VS5TN","","622.1000000238419","img/land2.png","76","623.5","3","0","3","1","0.8,0.2,0.2,0.2,0.8,0.2,0.2,0.2,0.8","0.8,0.2,0.2,0.2,0.8,0.2,0.2,0.2,0.8","1","",""
"","html-keyboard-response","163","146255","0.0-163.0","3GA6AFUKOPAI6JM4FATMXIMZSNHH3Z","ANK8K5WTHJ61C","3UUIU9GZC5R93N292LT21FRJ9VS5TN","","null","<img src=""img/land2.png"" style=""width:200px;border:14px solid red;"">","null","","","","","","","","","",""
"","image-keyboard-response","164","146913","0.0-164.0","3GA6AFUKOPAI6JM4FATMXIMZSNHH3Z","ANK8K5WTHJ61C","3UUIU9GZC5R93N292LT21FRJ9VS5TN","","656","img/land6.png","75","657.7999999523163","2","1","2","1","0.8,0.2,0.2,0.2,0.8,0.2,0.2,0.2,0.8","0.8,0.2,0.2,0.2,0.8,0.2,0.2,0.2,0.8","1","",""
"","html-keyboard-response","165","147220","0.0-165.0","3GA6AFUKOPAI6JM4FATMXIMZSNHH3Z","ANK8K5WTHJ61C","3UUIU9GZC5R93N292LT21FRJ9VS5TN","","null","<img src=""img/land6.png"" style=""width:200px; border:14px solid green;"">","null","","","","","","","","","",""
"","image-keyboard-response","166","148023","0.0-166.0","3GA6AFUKOPAI6JM4FATMXIMZSNHH3Z","ANK8K5WTHJ61C","3UUIU9GZC5R93N292LT21FRJ9VS5TN","","802.2000000476837","img/land2.png","76","803.2000000476837","3","0","3","1","0.8,0.2,0.2,0.2,0.8,0.2,0.2,0.2,0.8","0.8,0.2,0.2,0.2,0.8,0.2,0.2,0.2,0.8","1","",""
"","html-keyboard-response","167","148327","0.0-167.0","3GA6AFUKOPAI6JM4FATMXIMZSNHH3Z","ANK8K5WTHJ61C","3UUIU9GZC5R93N292LT21FRJ9VS5TN","","null","<img src=""img/land2.png"" style=""width:200px;border:14px solid red;"">","null","","","","","","","","","",""
"","image-keyboard-response","168","148892","0.0-168.0","3GA6AFUKOPAI6JM4FATMXIMZSNHH3Z","ANK8K5WTHJ61C","3UUIU9GZC5R93N292LT21FRJ9VS5TN","","562.8999999761581","img/land6.png","75","564.6000000238419","2","1","2","1","0.8,0.2,0.2,0.2,0.8,0.2,0.2,0.2,0.8","0.8,0.2,0.2,0.2,0.8,0.2,0.2,0.2,0.8","1","",""
"","html-keyboard-response","169","149196","0.0-169.0","3GA6AFUKOPAI6JM4FATMXIMZSNHH3Z","ANK8K5WTHJ61C","3UUIU9GZC5R93N292LT21FRJ9VS5TN","","null","<img src=""img/land6.png"" style=""width:200px; border:14px solid green;"">","null","","","","","","","","","",""
"","image-keyboard-response","170","149940","0.0-170.0","3GA6AFUKOPAI6JM4FATMXIMZSNHH3Z","ANK8K5WTHJ61C","3UUIU9GZC5R93N292LT21FRJ9VS5TN","","743.3999999761581","img/land5.png","74","743.7000000476837","1","1","1","1","0.8,0.2,0.2,0.2,0.8,0.2,0.2,0.2,0.8","0.8,0.2,0.2,0.2,0.8,0.2,0.2,0.2,0.8","1","",""
"","html-keyboard-response","171","150246","0.0-171.0","3GA6AFUKOPAI6JM4FATMXIMZSNHH3Z","ANK8K5WTHJ61C","3UUIU9GZC5R93N292LT21FRJ9VS5TN","","null","<img src=""img/land5.png"" style=""width:200px; border:14px solid green;"">","null","","","","","","","","","",""
"","image-keyboard-response","172","151110","0.0-172.0","3GA6AFUKOPAI6JM4FATMXIMZSNHH3Z","ANK8K5WTHJ61C","3UUIU9GZC5R93N292LT21FRJ9VS5TN","","862.7000000476837","img/land6.png","75","863.8999999761581","2","1","2","1","0.8,0.2,0.2,0.2,0.8,0.2,0.2,0.2,0.8","0.8,0.2,0.2,0.2,0.8,0.2,0.2,0.2,0.8","1","",""
"","html-keyboard-response","173","151417","0.0-173.0","3GA6AFUKOPAI6JM4FATMXIMZSNHH3Z","ANK8K5WTHJ61C","3UUIU9GZC5R93N292LT21FRJ9VS5TN","","null","<img src=""img/land6.png"" style=""width:200px; border:14px solid green;"">","null","","","","","","","","","",""
"","image-keyboard-response","174","151980","0.0-174.0","3GA6AFUKOPAI6JM4FATMXIMZSNHH3Z","ANK8K5WTHJ61C","3UUIU9GZC5R93N292LT21FRJ9VS5TN","","561.6000000238419","img/land2.png","75","563.1000000238419","2","0","3","1","0.8,0.2,0.2,0.2,0.8,0.2,0.2,0.2,0.8","0.8,0.2,0.2,0.2,0.8,0.2,0.2,0.2,0.8","1","",""
"","html-keyboard-response","175","152285","0.0-175.0","3GA6AFUKOPAI6JM4FATMXIMZSNHH3Z","ANK8K5WTHJ61C","3UUIU9GZC5R93N292LT21FRJ9VS5TN","","null","<img src=""img/land2.png"" style=""width:200px;border:14px solid red;"">","null","","","","","","","","","",""
"","image-keyboard-response","176","153029","0.0-176.0","3GA6AFUKOPAI6JM4FATMXIMZSNHH3Z","ANK8K5WTHJ61C","3UUIU9GZC5R93N292LT21FRJ9VS5TN","","742.2000000476837","img/land5.png","74","743.5","1","1","1","1","0.8,0.2,0.2,0.2,0.8,0.2,0.2,0.2,0.8","0.8,0.2,0.2,0.2,0.8,0.2,0.2,0.2,0.8","1","",""
"","html-keyboard-response","177","153332","0.0-177.0","3GA6AFUKOPAI6JM4FATMXIMZSNHH3Z","ANK8K5WTHJ61C","3UUIU9GZC5R93N292LT21FRJ9VS5TN","","null","<img src=""img/land5.png"" style=""width:200px; border:14px solid green;"">","null","","","","","","","","","",""
"","image-keyboard-response","178","153841","0.0-178.0","3GA6AFUKOPAI6JM4FATMXIMZSNHH3Z","ANK8K5WTHJ61C","3UUIU9GZC5R93N292LT21FRJ9VS5TN","","507.7999999523163","img/land6.png","75","509.10000002384186","2","1","2","1","0.8,0.2,0.2,0.2,0.8,0.2,0.2,0.2,0.8","0.8,0.2,0.2,0.2,0.8,0.2,0.2,0.2,0.8","1","",""
"","html-keyboard-response","179","154148","0.0-179.0","3GA6AFUKOPAI6JM4FATMXIMZSNHH3Z","ANK8K5WTHJ61C","3UUIU9GZC5R93N292LT21FRJ9VS5TN","","null","<img src=""img/land6.png"" style=""width:200px; border:14px solid green;"">","null","","","","","","","","","",""
"","image-keyboard-response","180","154832","0.0-180.0","3GA6AFUKOPAI6JM4FATMXIMZSNHH3Z","ANK8K5WTHJ61C","3UUIU9GZC5R93N292LT21FRJ9VS5TN","","682.5","img/land5.png","74","685.7000000476837","1","1","1","1","0.8,0.2,0.2,0.2,0.8,0.2,0.2,0.2,0.8","0.8,0.2,0.2,0.2,0.8,0.2,0.2,0.2,0.8","1","",""
"","html-keyboard-response","181","155141","0.0-181.0","3GA6AFUKOPAI6JM4FATMXIMZSNHH3Z","ANK8K5WTHJ61C","3UUIU9GZC5R93N292LT21FRJ9VS5TN","","null","<img src=""img/land5.png"" style=""width:200px; border:14px solid green;"">","null","","","","","","","","","",""
"","html-keyboard-response","182","171685","0.0-182.0","3GA6AFUKOPAI6JM4FATMXIMZSNHH3Z","ANK8K5WTHJ61C","3UUIU9GZC5R93N292LT21FRJ9VS5TN","","","","","","","","","","","","","",""
"","image-keyboard-response","183","172623","0.0-183.0","3GA6AFUKOPAI6JM4FATMXIMZSNHH3Z","ANK8K5WTHJ61C","3UUIU9GZC5R93N292LT21FRJ9VS5TN","","935.2000000476837","img/land1.png","74","937.5","1","0","1","2","0.8,0.2,0.2,0.2,0.8,0.2,0.2,0.2,0.8","0.2,0.8,0.2,0.2,0.2,0.8,0.8,0.2,0.2","3","",""
"","html-keyboard-response","184","172928","0.0-184.0","3GA6AFUKOPAI6JM4FATMXIMZSNHH3Z","ANK8K5WTHJ61C","3UUIU9GZC5R93N292LT21FRJ9VS5TN","","null","<img src=""img/land1.png"" style=""width:200px;border:14px solid red;"">","null","","","","","","","","","",""
"","image-keyboard-response","185","173790","0.0-185.0","3GA6AFUKOPAI6JM4FATMXIMZSNHH3Z","ANK8K5WTHJ61C","3UUIU9GZC5R93N292LT21FRJ9VS5TN","","859.5","img/land4.png","74","861.3000000715256","1","1","3","2","0.8,0.2,0.2,0.2,0.8,0.2,0.2,0.2,0.8","0.2,0.8,0.2,0.2,0.2,0.8,0.8,0.2,0.2","3","",""
"","html-keyboard-response","186","174096","0.0-186.0","3GA6AFUKOPAI6JM4FATMXIMZSNHH3Z","ANK8K5WTHJ61C","3UUIU9GZC5R93N292LT21FRJ9VS5TN","","null","<img src=""img/land4.png"" style=""width:200px; border:14px solid green;"">","null","","","","","","","","","",""
"","image-keyboard-response","187","175049","0.0-187.0","3GA6AFUKOPAI6JM4FATMXIMZSNHH3Z","ANK8K5WTHJ61C","3UUIU9GZC5R93N292LT21FRJ9VS5TN","","950.8999999761581","img/land3.png","74","951.7999999523163","1","0","2","2","0.8,0.2,0.2,0.2,0.8,0.2,0.2,0.2,0.8","0.2,0.8,0.2,0.2,0.2,0.8,0.8,0.2,0.2","3","",""
"","html-keyboard-response","188","175354","0.0-188.0","3GA6AFUKOPAI6JM4FATMXIMZSNHH3Z","ANK8K5WTHJ61C","3UUIU9GZC5R93N292LT21FRJ9VS5TN","","null","<img src=""img/land3.png"" style=""width:200px;border:14px solid red;"">","null","","","","","","","","","",""
"","image-keyboard-response","189","176073","0.0-189.0","3GA6AFUKOPAI6JM4FATMXIMZSNHH3Z","ANK8K5WTHJ61C","3UUIU9GZC5R93N292LT21FRJ9VS5TN","","717","img/land1.png","74","718.5","1","1","1","2","0.8,0.2,0.2,0.2,0.8,0.2,0.2,0.2,0.8","0.2,0.8,0.2,0.2,0.2,0.8,0.8,0.2,0.2","3","",""
"","html-keyboard-response","190","176380","0.0-190.0","3GA6AFUKOPAI6JM4FATMXIMZSNHH3Z","ANK8K5WTHJ61C","3UUIU9GZC5R93N292LT21FRJ9VS5TN","","null","<img src=""img/land1.png"" style=""width:200px; border:14px solid green;"">","null","","","","","","","","","",""
"","image-keyboard-response","191","177179","0.0-191.0","3GA6AFUKOPAI6JM4FATMXIMZSNHH3Z","ANK8K5WTHJ61C","3UUIU9GZC5R93N292LT21FRJ9VS5TN","","797.5","img/land1.png","74","798.6000000238419","1","1","1","2","0.8,0.2,0.2,0.2,0.8,0.2,0.2,0.2,0.8","0.2,0.8,0.2,0.2,0.2,0.8,0.8,0.2,0.2","3","",""
"","html-keyboard-response","192","177485","0.0-192.0","3GA6AFUKOPAI6JM4FATMXIMZSNHH3Z","ANK8K5WTHJ61C","3UUIU9GZC5R93N292LT21FRJ9VS5TN","","null","<img src=""img/land1.png"" style=""width:200px; border:14px solid green;"">","null","","","","","","","","","",""
"","image-keyboard-response","193","178019","0.0-193.0","3GA6AFUKOPAI6JM4FATMXIMZSNHH3Z","ANK8K5WTHJ61C","3UUIU9GZC5R93N292LT21FRJ9VS5TN","","532.5","img/land3.png","75","533.8999999761581","2","0","2","2","0.8,0.2,0.2,0.2,0.8,0.2,0.2,0.2,0.8","0.2,0.8,0.2,0.2,0.2,0.8,0.8,0.2,0.2","3","",""
"","html-keyboard-response","194","178321","0.0-194.0","3GA6AFUKOPAI6JM4FATMXIMZSNHH3Z","ANK8K5WTHJ61C","3UUIU9GZC5R93N292LT21FRJ9VS5TN","","null","<img src=""img/land3.png"" style=""width:200px;border:14px solid red;"">","null","","","","","","","","","",""
"","image-keyboard-response","195","179114","0.0-195.0","3GA6AFUKOPAI6JM4FATMXIMZSNHH3Z","ANK8K5WTHJ61C","3UUIU9GZC5R93N292LT21FRJ9VS5TN","","791.0999999046326","img/land1.png","74","792.2999999523163","1","0","1","2","0.8,0.2,0.2,0.2,0.8,0.2,0.2,0.2,0.8","0.2,0.8,0.2,0.2,0.2,0.8,0.8,0.2,0.2","3","",""
"","html-keyboard-response","196","179417","0.0-196.0","3GA6AFUKOPAI6JM4FATMXIMZSNHH3Z","ANK8K5WTHJ61C","3UUIU9GZC5R93N292LT21FRJ9VS5TN","","null","<img src=""img/land1.png"" style=""width:200px;border:14px solid red;"">","null","","","","","","","","","",""
"","image-keyboard-response","197","180423","0.0-197.0","3GA6AFUKOPAI6JM4FATMXIMZSNHH3Z","ANK8K5WTHJ61C","3UUIU9GZC5R93N292LT21FRJ9VS5TN","","1004.5999999046326","img/land3.png","76","1006.6000000238419","3","0","2","2","0.8,0.2,0.2,0.2,0.8,0.2,0.2,0.2,0.8","0.2,0.8,0.2,0.2,0.2,0.8,0.8,0.2,0.2","3","",""
"","html-keyboard-response","198","180731","0.0-198.0","3GA6AFUKOPAI6JM4FATMXIMZSNHH3Z","ANK8K5WTHJ61C","3UUIU9GZC5R93N292LT21FRJ9VS5TN","","null","<img src=""img/land3.png"" style=""width:200px;border:14px solid red;"">","null","","","","","","","","","",""
"","image-keyboard-response","199","181319","0.0-199.0","3GA6AFUKOPAI6JM4FATMXIMZSNHH3Z","ANK8K5WTHJ61C","3UUIU9GZC5R93N292LT21FRJ9VS5TN","","586.3999999761581","img/land1.png","74","587.8000000715256","1","0","1","2","0.8,0.2,0.2,0.2,0.8,0.2,0.2,0.2,0.8","0.2,0.8,0.2,0.2,0.2,0.8,0.8,0.2,0.2","3","",""
"","html-keyboard-response","200","181626","0.0-200.0","3GA6AFUKOPAI6JM4FATMXIMZSNHH3Z","ANK8K5WTHJ61C","3UUIU9GZC5R93N292LT21FRJ9VS5TN","","null","<img src=""img/land1.png"" style=""width:200px;border:14px solid red;"">","null","","","","","","","","","",""
"","image-keyboard-response","201","182493","0.0-201.0","3GA6AFUKOPAI6JM4FATMXIMZSNHH3Z","ANK8K5WTHJ61C","3UUIU9GZC5R93N292LT21FRJ9VS5TN","","865.2000000476837","img/land1.png","74","867","1","0","1","2","0.8,0.2,0.2,0.2,0.8,0.2,0.2,0.2,0.8","0.2,0.8,0.2,0.2,0.2,0.8,0.8,0.2,0.2","3","",""
"","html-keyboard-response","202","182796","0.0-202.0","3GA6AFUKOPAI6JM4FATMXIMZSNHH3Z","ANK8K5WTHJ61C","3UUIU9GZC5R93N292LT21FRJ9VS5TN","","null","<img src=""img/land1.png"" style=""width:200px;border:14px solid red;"">","null","","","","","","","","","",""
"","image-keyboard-response","203","183452","0.0-203.0","3GA6AFUKOPAI6JM4FATMXIMZSNHH3Z","ANK8K5WTHJ61C","3UUIU9GZC5R93N292LT21FRJ9VS5TN","","654.0999999046326","img/land1.png","75","655.3999999761581","2","0","1","2","0.8,0.2,0.2,0.2,0.8,0.2,0.2,0.2,0.8","0.2,0.8,0.2,0.2,0.2,0.8,0.8,0.2,0.2","3","",""
"","html-keyboard-response","204","183760","0.0-204.0","3GA6AFUKOPAI6JM4FATMXIMZSNHH3Z","ANK8K5WTHJ61C","3UUIU9GZC5R93N292LT21FRJ9VS5TN","","null","<img src=""img/land1.png"" style=""width:200px;border:14px solid red;"">","null","","","","","","","","","",""
"","image-keyboard-response","205","184562","0.0-205.0","3GA6AFUKOPAI6JM4FATMXIMZSNHH3Z","ANK8K5WTHJ61C","3UUIU9GZC5R93N292LT21FRJ9VS5TN","","800.3999999761581","img/land4.png","75","802.3999999761581","2","0","3","2","0.8,0.2,0.2,0.2,0.8,0.2,0.2,0.2,0.8","0.2,0.8,0.2,0.2,0.2,0.8,0.8,0.2,0.2","3","",""
"","html-keyboard-response","206","184871","0.0-206.0","3GA6AFUKOPAI6JM4FATMXIMZSNHH3Z","ANK8K5WTHJ61C","3UUIU9GZC5R93N292LT21FRJ9VS5TN","","null","<img src=""img/land4.png"" style=""width:200px;border:14px solid red;"">","null","","","","","","","","","",""
"","image-keyboard-response","207","185702","0.0-207.0","3GA6AFUKOPAI6JM4FATMXIMZSNHH3Z","ANK8K5WTHJ61C","3UUIU9GZC5R93N292LT21FRJ9VS5TN","","829.7999999523163","img/land1.png","74","831.1000000238419","1","0","1","2","0.8,0.2,0.2,0.2,0.8,0.2,0.2,0.2,0.8","0.2,0.8,0.2,0.2,0.2,0.8,0.8,0.2,0.2","3","",""
"","html-keyboard-response","208","186009","0.0-208.0","3GA6AFUKOPAI6JM4FATMXIMZSNHH3Z","ANK8K5WTHJ61C","3UUIU9GZC5R93N292LT21FRJ9VS5TN","","null","<img src=""img/land1.png"" style=""width:200px;border:14px solid red;"">","null","","","","","","","","","",""
"","image-keyboard-response","209","186633","0.0-209.0","3GA6AFUKOPAI6JM4FATMXIMZSNHH3Z","ANK8K5WTHJ61C","3UUIU9GZC5R93N292LT21FRJ9VS5TN","","621.6000000238419","img/land1.png","75","623.3999999761581","2","0","1","2","0.8,0.2,0.2,0.2,0.8,0.2,0.2,0.2,0.8","0.2,0.8,0.2,0.2,0.2,0.8,0.8,0.2,0.2","3","",""
"","html-keyboard-response","210","186939","0.0-210.0","3GA6AFUKOPAI6JM4FATMXIMZSNHH3Z","ANK8K5WTHJ61C","3UUIU9GZC5R93N292LT21FRJ9VS5TN","","null","<img src=""img/land1.png"" style=""width:200px;border:14px solid red;"">","null","","","","","","","","","",""
"","image-keyboard-response","211","187683","0.0-211.0","3GA6AFUKOPAI6JM4FATMXIMZSNHH3Z","ANK8K5WTHJ61C","3UUIU9GZC5R93N292LT21FRJ9VS5TN","","742.6000000238419","img/land4.png","75","743.8000000715256","2","0","3","2","0.8,0.2,0.2,0.2,0.8,0.2,0.2,0.2,0.8","0.2,0.8,0.2,0.2,0.2,0.8,0.8,0.2,0.2","3","",""
"","html-keyboard-response","212","187991","0.0-212.0","3GA6AFUKOPAI6JM4FATMXIMZSNHH3Z","ANK8K5WTHJ61C","3UUIU9GZC5R93N292LT21FRJ9VS5TN","","null","<img src=""img/land4.png"" style=""width:200px;border:14px solid red;"">","null","","","","","","","","","",""
"","image-keyboard-response","213","188673","0.0-213.0","3GA6AFUKOPAI6JM4FATMXIMZSNHH3Z","ANK8K5WTHJ61C","3UUIU9GZC5R93N292LT21FRJ9VS5TN","","679.8000000715256","img/land3.png","76","681.6999999284744","3","1","2","2","0.8,0.2,0.2,0.2,0.8,0.2,0.2,0.2,0.8","0.2,0.8,0.2,0.2,0.2,0.8,0.8,0.2,0.2","3","",""
"","html-keyboard-response","214","188977","0.0-214.0","3GA6AFUKOPAI6JM4FATMXIMZSNHH3Z","ANK8K5WTHJ61C","3UUIU9GZC5R93N292LT21FRJ9VS5TN","","null","<img src=""img/land3.png"" style=""width:200px; border:14px solid green;"">","null","","","","","","","","","",""
"","image-keyboard-response","215","189933","0.0-215.0","3GA6AFUKOPAI6JM4FATMXIMZSNHH3Z","ANK8K5WTHJ61C","3UUIU9GZC5R93N292LT21FRJ9VS5TN","","955.3000000715256","img/land1.png","76","956.2999999523163","3","0","1","2","0.8,0.2,0.2,0.2,0.8,0.2,0.2,0.2,0.8","0.2,0.8,0.2,0.2,0.2,0.8,0.8,0.2,0.2","3","",""
"","html-keyboard-response","216","190240","0.0-216.0","3GA6AFUKOPAI6JM4FATMXIMZSNHH3Z","ANK8K5WTHJ61C","3UUIU9GZC5R93N292LT21FRJ9VS5TN","","null","<img src=""img/land1.png"" style=""width:200px;border:14px solid red;"">","null","","","","","","","","","",""
"","image-keyboard-response","217","191009","0.0-217.0","3GA6AFUKOPAI6JM4FATMXIMZSNHH3Z","ANK8K5WTHJ61C","3UUIU9GZC5R93N292LT21FRJ9VS5TN","","766.8999999761581","img/land1.png","75","768.2000000476837","2","1","1","2","0.8,0.2,0.2,0.2,0.8,0.2,0.2,0.2,0.8","0.2,0.8,0.2,0.2,0.2,0.8,0.8,0.2,0.2","3","",""
"","html-keyboard-response","218","191314","0.0-218.0","3GA6AFUKOPAI6JM4FATMXIMZSNHH3Z","ANK8K5WTHJ61C","3UUIU9GZC5R93N292LT21FRJ9VS5TN","","null","<img src=""img/land1.png"" style=""width:200px; border:14px solid green;"">","null","","","","","","","","","",""
"","image-keyboard-response","219","192152","0.0-219.0","3GA6AFUKOPAI6JM4FATMXIMZSNHH3Z","ANK8K5WTHJ61C","3UUIU9GZC5R93N292LT21FRJ9VS5TN","","835.6999999284744","img/land1.png","75","837.7000000476837","2","0","1","2","0.8,0.2,0.2,0.2,0.8,0.2,0.2,0.2,0.8","0.2,0.8,0.2,0.2,0.2,0.8,0.8,0.2,0.2","3","",""
"","html-keyboard-response","220","192460","0.0-220.0","3GA6AFUKOPAI6JM4FATMXIMZSNHH3Z","ANK8K5WTHJ61C","3UUIU9GZC5R93N292LT21FRJ9VS5TN","","null","<img src=""img/land1.png"" style=""width:200px;border:14px solid red;"">","null","","","","","","","","","",""
"","image-keyboard-response","221","193139","0.0-221.0","3GA6AFUKOPAI6JM4FATMXIMZSNHH3Z","ANK8K5WTHJ61C","3UUIU9GZC5R93N292LT21FRJ9VS5TN","","677.2999999523163","img/land1.png","75","678.6000000238419","2","0","1","2","0.8,0.2,0.2,0.2,0.8,0.2,0.2,0.2,0.8","0.2,0.8,0.2,0.2,0.2,0.8,0.8,0.2,0.2","3","",""
"","html-keyboard-response","222","193445","0.0-222.0","3GA6AFUKOPAI6JM4FATMXIMZSNHH3Z","ANK8K5WTHJ61C","3UUIU9GZC5R93N292LT21FRJ9VS5TN","","null","<img src=""img/land1.png"" style=""width:200px;border:14px solid red;"">","null","","","","","","","","","",""
"","image-keyboard-response","223","194164","0.0-223.0","3GA6AFUKOPAI6JM4FATMXIMZSNHH3Z","ANK8K5WTHJ61C","3UUIU9GZC5R93N292LT21FRJ9VS5TN","","718.6000000238419","img/land3.png","76","719.6999999284744","3","1","2","2","0.8,0.2,0.2,0.2,0.8,0.2,0.2,0.2,0.8","0.2,0.8,0.2,0.2,0.2,0.8,0.8,0.2,0.2","3","",""
"","html-keyboard-response","224","194470","0.0-224.0","3GA6AFUKOPAI6JM4FATMXIMZSNHH3Z","ANK8K5WTHJ61C","3UUIU9GZC5R93N292LT21FRJ9VS5TN","","null","<img src=""img/land3.png"" style=""width:200px; border:14px solid green;"">","null","","","","","","","","","",""
"","image-keyboard-response","225","195363","0.0-225.0","3GA6AFUKOPAI6JM4FATMXIMZSNHH3Z","ANK8K5WTHJ61C","3UUIU9GZC5R93N292LT21FRJ9VS5TN","","890.7999999523163","img/land1.png","74","892.7000000476837","1","0","1","2","0.8,0.2,0.2,0.2,0.8,0.2,0.2,0.2,0.8","0.2,0.8,0.2,0.2,0.2,0.8,0.8,0.2,0.2","3","",""
"","html-keyboard-response","226","195670","0.0-226.0","3GA6AFUKOPAI6JM4FATMXIMZSNHH3Z","ANK8K5WTHJ61C","3UUIU9GZC5R93N292LT21FRJ9VS5TN","","null","<img src=""img/land1.png"" style=""width:200px;border:14px solid red;"">","null","","","","","","","","","",""
"","image-keyboard-response","227","196173","0.0-227.0","3GA6AFUKOPAI6JM4FATMXIMZSNHH3Z","ANK8K5WTHJ61C","3UUIU9GZC5R93N292LT21FRJ9VS5TN","","500.5","img/land1.png","75","502.39999997615814","2","1","1","2","0.8,0.2,0.2,0.2,0.8,0.2,0.2,0.2,0.8","0.2,0.8,0.2,0.2,0.2,0.8,0.8,0.2,0.2","3","",""
"","html-keyboard-response","228","196481","0.0-228.0","3GA6AFUKOPAI6JM4FATMXIMZSNHH3Z","ANK8K5WTHJ61C","3UUIU9GZC5R93N292LT21FRJ9VS5TN","","null","<img src=""img/land1.png"" style=""width:200px; border:14px solid green;"">","null","","","","","","","","","",""
"","image-keyboard-response","229","197133","0.0-229.0","3GA6AFUKOPAI6JM4FATMXIMZSNHH3Z","ANK8K5WTHJ61C","3UUIU9GZC5R93N292LT21FRJ9VS5TN","","649.8000000715256","img/land3.png","76","651.7999999523163","3","1","2","2","0.8,0.2,0.2,0.2,0.8,0.2,0.2,0.2,0.8","0.2,0.8,0.2,0.2,0.2,0.8,0.8,0.2,0.2","3","",""
"","html-keyboard-response","230","197440","0.0-230.0","3GA6AFUKOPAI6JM4FATMXIMZSNHH3Z","ANK8K5WTHJ61C","3UUIU9GZC5R93N292LT21FRJ9VS5TN","","null","<img src=""img/land3.png"" style=""width:200px; border:14px solid green;"">","null","","","","","","","","","",""
"","image-keyboard-response","231","198003","0.0-231.0","3GA6AFUKOPAI6JM4FATMXIMZSNHH3Z","ANK8K5WTHJ61C","3UUIU9GZC5R93N292LT21FRJ9VS5TN","","561.8999999761581","img/land1.png","75","562.9000000953674","2","1","1","2","0.8,0.2,0.2,0.2,0.8,0.2,0.2,0.2,0.8","0.2,0.8,0.2,0.2,0.2,0.8,0.8,0.2,0.2","3","",""
"","html-keyboard-response","232","198311","0.0-232.0","3GA6AFUKOPAI6JM4FATMXIMZSNHH3Z","ANK8K5WTHJ61C","3UUIU9GZC5R93N292LT21FRJ9VS5TN","","null","<img src=""img/land1.png"" style=""width:200px; border:14px solid green;"">","null","","","","","","","","","",""
"","image-keyboard-response","233","198752","0.0-233.0","3GA6AFUKOPAI6JM4FATMXIMZSNHH3Z","ANK8K5WTHJ61C","3UUIU9GZC5R93N292LT21FRJ9VS5TN","","438.7999999523163","img/land1.png","76","440.8000000715256","3","0","1","2","0.8,0.2,0.2,0.2,0.8,0.2,0.2,0.2,0.8","0.2,0.8,0.2,0.2,0.2,0.8,0.8,0.2,0.2","3","",""
"","html-keyboard-response","234","199059","0.0-234.0","3GA6AFUKOPAI6JM4FATMXIMZSNHH3Z","ANK8K5WTHJ61C","3UUIU9GZC5R93N292LT21FRJ9VS5TN","","null","<img src=""img/land1.png"" style=""width:200px;border:14px solid red;"">","null","","","","","","","","","",""
"","image-keyboard-response","235","199983","0.0-235.0","3GA6AFUKOPAI6JM4FATMXIMZSNHH3Z","ANK8K5WTHJ61C","3UUIU9GZC5R93N292LT21FRJ9VS5TN","","923.2000000476837","img/land4.png","75","924.2999999523163","2","0","3","2","0.8,0.2,0.2,0.2,0.8,0.2,0.2,0.2,0.8","0.2,0.8,0.2,0.2,0.2,0.8,0.8,0.2,0.2","3","",""
"","html-keyboard-response","236","200291","0.0-236.0","3GA6AFUKOPAI6JM4FATMXIMZSNHH3Z","ANK8K5WTHJ61C","3UUIU9GZC5R93N292LT21FRJ9VS5TN","","null","<img src=""img/land4.png"" style=""width:200px;border:14px solid red;"">","null","","","","","","","","","",""
"","image-keyboard-response","237","201149","0.0-237.0","3GA6AFUKOPAI6JM4FATMXIMZSNHH3Z","ANK8K5WTHJ61C","3UUIU9GZC5R93N292LT21FRJ9VS5TN","","856.3000000715256","img/land1.png","75","857.6999999284744","2","1","1","2","0.8,0.2,0.2,0.2,0.8,0.2,0.2,0.2,0.8","0.2,0.8,0.2,0.2,0.2,0.8,0.8,0.2,0.2","3","",""
"","html-keyboard-response","238","201454","0.0-238.0","3GA6AFUKOPAI6JM4FATMXIMZSNHH3Z","ANK8K5WTHJ61C","3UUIU9GZC5R93N292LT21FRJ9VS5TN","","null","<img src=""img/land1.png"" style=""width:200px; border:14px solid green;"">","null","","","","","","","","","",""
"","image-keyboard-response","239","202503","0.0-239.0","3GA6AFUKOPAI6JM4FATMXIMZSNHH3Z","ANK8K5WTHJ61C","3UUIU9GZC5R93N292LT21FRJ9VS5TN","","1046.0999999046326","img/land4.png","76","1048.1000000238419","3","0","3","2","0.8,0.2,0.2,0.2,0.8,0.2,0.2,0.2,0.8","0.2,0.8,0.2,0.2,0.2,0.8,0.8,0.2,0.2","3","",""
"","html-keyboard-response","240","202807","0.0-240.0","3GA6AFUKOPAI6JM4FATMXIMZSNHH3Z","ANK8K5WTHJ61C","3UUIU9GZC5R93N292LT21FRJ9VS5TN","","null","<img src=""img/land4.png"" style=""width:200px;border:14px solid red;"">","null","","","","","","","","","",""
"","image-keyboard-response","241","203401","0.0-241.0","3GA6AFUKOPAI6JM4FATMXIMZSNHH3Z","ANK8K5WTHJ61C","3UUIU9GZC5R93N292LT21FRJ9VS5TN","","592.0999999046326","img/land1.png","75","593.1000000238419","2","1","1","2","0.8,0.2,0.2,0.2,0.8,0.2,0.2,0.2,0.8","0.2,0.8,0.2,0.2,0.2,0.8,0.8,0.2,0.2","3","",""
"","html-keyboard-response","242","203705","0.0-242.0","3GA6AFUKOPAI6JM4FATMXIMZSNHH3Z","ANK8K5WTHJ61C","3UUIU9GZC5R93N292LT21FRJ9VS5TN","","null","<img src=""img/land1.png"" style=""width:200px; border:14px solid green;"">","null","","","","","","","","","",""
"","image-keyboard-response","243","204391","0.0-243.0","3GA6AFUKOPAI6JM4FATMXIMZSNHH3Z","ANK8K5WTHJ61C","3UUIU9GZC5R93N292LT21FRJ9VS5TN","","684.3000000715256","img/land1.png","75","686.0999999046326","2","1","1","2","0.8,0.2,0.2,0.2,0.8,0.2,0.2,0.2,0.8","0.2,0.8,0.2,0.2,0.2,0.8,0.8,0.2,0.2","3","",""
"","html-keyboard-response","244","204699","0.0-244.0","3GA6AFUKOPAI6JM4FATMXIMZSNHH3Z","ANK8K5WTHJ61C","3UUIU9GZC5R93N292LT21FRJ9VS5TN","","null","<img src=""img/land1.png"" style=""width:200px; border:14px solid green;"">","null","","","","","","","","","",""
"","image-keyboard-response","245","205321","0.0-245.0","3GA6AFUKOPAI6JM4FATMXIMZSNHH3Z","ANK8K5WTHJ61C","3UUIU9GZC5R93N292LT21FRJ9VS5TN","","620.4000000953674","img/land1.png","75","621.7999999523163","2","0","1","2","0.8,0.2,0.2,0.2,0.8,0.2,0.2,0.2,0.8","0.2,0.8,0.2,0.2,0.2,0.8,0.8,0.2,0.2","3","",""
"","html-keyboard-response","246","205627","0.0-246.0","3GA6AFUKOPAI6JM4FATMXIMZSNHH3Z","ANK8K5WTHJ61C","3UUIU9GZC5R93N292LT21FRJ9VS5TN","","null","<img src=""img/land1.png"" style=""width:200px;border:14px solid red;"">","null","","","","","","","","","",""
"","image-keyboard-response","247","206373","0.0-247.0","3GA6AFUKOPAI6JM4FATMXIMZSNHH3Z","ANK8K5WTHJ61C","3UUIU9GZC5R93N292LT21FRJ9VS5TN","","743.5","img/land1.png","75","745.3999999761581","2","1","1","2","0.8,0.2,0.2,0.2,0.8,0.2,0.2,0.2,0.8","0.2,0.8,0.2,0.2,0.2,0.8,0.8,0.2,0.2","3","",""
"","html-keyboard-response","248","206678","0.0-248.0","3GA6AFUKOPAI6JM4FATMXIMZSNHH3Z","ANK8K5WTHJ61C","3UUIU9GZC5R93N292LT21FRJ9VS5TN","","null","<img src=""img/land1.png"" style=""width:200px; border:14px solid green;"">","null","","","","","","","","","",""
"","image-keyboard-response","249","207393","0.0-249.0","3GA6AFUKOPAI6JM4FATMXIMZSNHH3Z","ANK8K5WTHJ61C","3UUIU9GZC5R93N292LT21FRJ9VS5TN","","713.2000000476837","img/land3.png","76","715","3","1","2","2","0.8,0.2,0.2,0.2,0.8,0.2,0.2,0.2,0.8","0.2,0.8,0.2,0.2,0.2,0.8,0.8,0.2,0.2","3","",""
"","html-keyboard-response","250","207701","0.0-250.0","3GA6AFUKOPAI6JM4FATMXIMZSNHH3Z","ANK8K5WTHJ61C","3UUIU9GZC5R93N292LT21FRJ9VS5TN","","null","<img src=""img/land3.png"" style=""width:200px; border:14px solid green;"">","null","","","","","","","","","",""
"","image-keyboard-response","251","208352","0.0-251.0","3GA6AFUKOPAI6JM4FATMXIMZSNHH3Z","ANK8K5WTHJ61C","3UUIU9GZC5R93N292LT21FRJ9VS5TN","","648.8999999761581","img/land3.png","76","651","3","1","2","2","0.8,0.2,0.2,0.2,0.8,0.2,0.2,0.2,0.8","0.2,0.8,0.2,0.2,0.2,0.8,0.8,0.2,0.2","3","",""
"","html-keyboard-response","252","208660","0.0-252.0","3GA6AFUKOPAI6JM4FATMXIMZSNHH3Z","ANK8K5WTHJ61C","3UUIU9GZC5R93N292LT21FRJ9VS5TN","","null","<img src=""img/land3.png"" style=""width:200px; border:14px solid green;"">","null","","","","","","","","","",""
"","image-keyboard-response","253","209342","0.0-253.0","3GA6AFUKOPAI6JM4FATMXIMZSNHH3Z","ANK8K5WTHJ61C","3UUIU9GZC5R93N292LT21FRJ9VS5TN","","680.3999999761581","img/land1.png","75","682.3000000715256","2","0","1","2","0.8,0.2,0.2,0.2,0.8,0.2,0.2,0.2,0.8","0.2,0.8,0.2,0.2,0.2,0.8,0.8,0.2,0.2","3","",""
"","html-keyboard-response","254","209650","0.0-254.0","3GA6AFUKOPAI6JM4FATMXIMZSNHH3Z","ANK8K5WTHJ61C","3UUIU9GZC5R93N292LT21FRJ9VS5TN","","null","<img src=""img/land1.png"" style=""width:200px;border:14px solid red;"">","null","","","","","","","","","",""
"","image-keyboard-response","255","210272","0.0-255.0","3GA6AFUKOPAI6JM4FATMXIMZSNHH3Z","ANK8K5WTHJ61C","3UUIU9GZC5R93N292LT21FRJ9VS5TN","","619.6000000238419","img/land1.png","76","621.3999999761581","3","0","1","2","0.8,0.2,0.2,0.2,0.8,0.2,0.2,0.2,0.8","0.2,0.8,0.2,0.2,0.2,0.8,0.8,0.2,0.2","3","",""
"","html-keyboard-response","256","210575","0.0-256.0","3GA6AFUKOPAI6JM4FATMXIMZSNHH3Z","ANK8K5WTHJ61C","3UUIU9GZC5R93N292LT21FRJ9VS5TN","","null","<img src=""img/land1.png"" style=""width:200px;border:14px solid red;"">","null","","","","","","","","","",""
"","image-keyboard-response","257","211199","0.0-257.0","3GA6AFUKOPAI6JM4FATMXIMZSNHH3Z","ANK8K5WTHJ61C","3UUIU9GZC5R93N292LT21FRJ9VS5TN","","622.3000000715256","img/land1.png","75","623.5999999046326","2","0","1","2","0.8,0.2,0.2,0.2,0.8,0.2,0.2,0.2,0.8","0.2,0.8,0.2,0.2,0.2,0.8,0.8,0.2,0.2","3","",""
"","html-keyboard-response","258","211505","0.0-258.0","3GA6AFUKOPAI6JM4FATMXIMZSNHH3Z","ANK8K5WTHJ61C","3UUIU9GZC5R93N292LT21FRJ9VS5TN","","null","<img src=""img/land1.png"" style=""width:200px;border:14px solid red;"">","null","","","","","","","","","",""
"","image-keyboard-response","259","212132","0.0-259.0","3GA6AFUKOPAI6JM4FATMXIMZSNHH3Z","ANK8K5WTHJ61C","3UUIU9GZC5R93N292LT21FRJ9VS5TN","","624.7999999523163","img/land1.png","75","626.8000000715256","2","1","1","2","0.8,0.2,0.2,0.2,0.8,0.2,0.2,0.2,0.8","0.2,0.8,0.2,0.2,0.2,0.8,0.8,0.2,0.2","3","",""
"","html-keyboard-response","260","212439","0.0-260.0","3GA6AFUKOPAI6JM4FATMXIMZSNHH3Z","ANK8K5WTHJ61C","3UUIU9GZC5R93N292LT21FRJ9VS5TN","","null","<img src=""img/land1.png"" style=""width:200px; border:14px solid green;"">","null","","","","","","","","","",""
"","image-keyboard-response","261","213269","0.0-261.0","3GA6AFUKOPAI6JM4FATMXIMZSNHH3Z","ANK8K5WTHJ61C","3UUIU9GZC5R93N292LT21FRJ9VS5TN","","827.5","img/land4.png","74","828.7000000476837","1","1","3","2","0.8,0.2,0.2,0.2,0.8,0.2,0.2,0.2,0.8","0.2,0.8,0.2,0.2,0.2,0.8,0.8,0.2,0.2","3","",""
"","html-keyboard-response","262","213575","0.0-262.0","3GA6AFUKOPAI6JM4FATMXIMZSNHH3Z","ANK8K5WTHJ61C","3UUIU9GZC5R93N292LT21FRJ9VS5TN","","null","<img src=""img/land4.png"" style=""width:200px; border:14px solid green;"">","null","","","","","","","","","",""
"","image-keyboard-response","263","214324","0.0-263.0","3GA6AFUKOPAI6JM4FATMXIMZSNHH3Z","ANK8K5WTHJ61C","3UUIU9GZC5R93N292LT21FRJ9VS5TN","","746.2000000476837","img/land3.png","76","748.0999999046326","3","1","2","2","0.8,0.2,0.2,0.2,0.8,0.2,0.2,0.2,0.8","0.2,0.8,0.2,0.2,0.2,0.8,0.8,0.2,0.2","3","",""
"","html-keyboard-response","264","214631","0.0-264.0","3GA6AFUKOPAI6JM4FATMXIMZSNHH3Z","ANK8K5WTHJ61C","3UUIU9GZC5R93N292LT21FRJ9VS5TN","","null","<img src=""img/land3.png"" style=""width:200px; border:14px solid green;"">","null","","","","","","","","","",""
"","image-keyboard-response","265","215673","0.0-265.0","3GA6AFUKOPAI6JM4FATMXIMZSNHH3Z","ANK8K5WTHJ61C","3UUIU9GZC5R93N292LT21FRJ9VS5TN","","1039.5","img/land1.png","75","1041.3999999761581","2","1","1","2","0.8,0.2,0.2,0.2,0.8,0.2,0.2,0.2,0.8","0.2,0.8,0.2,0.2,0.2,0.8,0.8,0.2,0.2","3","",""
"","html-keyboard-response","266","215980","0.0-266.0","3GA6AFUKOPAI6JM4FATMXIMZSNHH3Z","ANK8K5WTHJ61C","3UUIU9GZC5R93N292LT21FRJ9VS5TN","","null","<img src=""img/land1.png"" style=""width:200px; border:14px solid green;"">","null","","","","","","","","","",""
"","image-keyboard-response","267","216571","0.0-267.0","3GA6AFUKOPAI6JM4FATMXIMZSNHH3Z","ANK8K5WTHJ61C","3UUIU9GZC5R93N292LT21FRJ9VS5TN","","589.2000000476837","img/land1.png","75","590.9000000953674","2","1","1","2","0.8,0.2,0.2,0.2,0.8,0.2,0.2,0.2,0.8","0.2,0.8,0.2,0.2,0.2,0.8,0.8,0.2,0.2","3","",""
"","html-keyboard-response","268","216879","0.0-268.0","3GA6AFUKOPAI6JM4FATMXIMZSNHH3Z","ANK8K5WTHJ61C","3UUIU9GZC5R93N292LT21FRJ9VS5TN","","null","<img src=""img/land1.png"" style=""width:200px; border:14px solid green;"">","null","","","","","","","","","",""
"","image-keyboard-response","269","217533","0.0-269.0","3GA6AFUKOPAI6JM4FATMXIMZSNHH3Z","ANK8K5WTHJ61C","3UUIU9GZC5R93N292LT21FRJ9VS5TN","","652","img/land1.png","75","653.8999999761581","2","1","1","2","0.8,0.2,0.2,0.2,0.8,0.2,0.2,0.2,0.8","0.2,0.8,0.2,0.2,0.2,0.8,0.8,0.2,0.2","3","",""
"","html-keyboard-response","270","217840","0.0-270.0","3GA6AFUKOPAI6JM4FATMXIMZSNHH3Z","ANK8K5WTHJ61C","3UUIU9GZC5R93N292LT21FRJ9VS5TN","","null","<img src=""img/land1.png"" style=""width:200px; border:14px solid green;"">","null","","","","","","","","","",""
"","image-keyboard-response","271","218493","0.0-271.0","3GA6AFUKOPAI6JM4FATMXIMZSNHH3Z","ANK8K5WTHJ61C","3UUIU9GZC5R93N292LT21FRJ9VS5TN","","650.6999999284744","img/land1.png","75","652.5","2","1","1","2","0.8,0.2,0.2,0.2,0.8,0.2,0.2,0.2,0.8","0.2,0.8,0.2,0.2,0.2,0.8,0.8,0.2,0.2","3","",""
"","html-keyboard-response","272","218797","0.0-272.0","3GA6AFUKOPAI6JM4FATMXIMZSNHH3Z","ANK8K5WTHJ61C","3UUIU9GZC5R93N292LT21FRJ9VS5TN","","null","<img src=""img/land1.png"" style=""width:200px; border:14px solid green;"">","null","","","","","","","","","",""
"","image-keyboard-response","273","219452","0.0-273.0","3GA6AFUKOPAI6JM4FATMXIMZSNHH3Z","ANK8K5WTHJ61C","3UUIU9GZC5R93N292LT21FRJ9VS5TN","","653.7999999523163","img/land1.png","75","654.6000000238419","2","1","1","2","0.8,0.2,0.2,0.2,0.8,0.2,0.2,0.2,0.8","0.2,0.8,0.2,0.2,0.2,0.8,0.8,0.2,0.2","3","",""
"","html-keyboard-response","274","219758","0.0-274.0","3GA6AFUKOPAI6JM4FATMXIMZSNHH3Z","ANK8K5WTHJ61C","3UUIU9GZC5R93N292LT21FRJ9VS5TN","","null","<img src=""img/land1.png"" style=""width:200px; border:14px solid green;"">","null","","","","","","","","","",""
"","image-keyboard-response","275","220443","0.0-275.0","3GA6AFUKOPAI6JM4FATMXIMZSNHH3Z","ANK8K5WTHJ61C","3UUIU9GZC5R93N292LT21FRJ9VS5TN","","682.8000000715256","img/land4.png","74","684.6000000238419","1","1","3","2","0.8,0.2,0.2,0.2,0.8,0.2,0.2,0.2,0.8","0.2,0.8,0.2,0.2,0.2,0.8,0.8,0.2,0.2","3","",""
"","html-keyboard-response","276","220746","0.0-276.0","3GA6AFUKOPAI6JM4FATMXIMZSNHH3Z","ANK8K5WTHJ61C","3UUIU9GZC5R93N292LT21FRJ9VS5TN","","null","<img src=""img/land4.png"" style=""width:200px; border:14px solid green;"">","null","","","","","","","","","",""
"","image-keyboard-response","277","221343","0.0-277.0","3GA6AFUKOPAI6JM4FATMXIMZSNHH3Z","ANK8K5WTHJ61C","3UUIU9GZC5R93N292LT21FRJ9VS5TN","","594.7999999523163","img/land1.png","75","596.2000000476837","2","1","1","2","0.8,0.2,0.2,0.2,0.8,0.2,0.2,0.2,0.8","0.2,0.8,0.2,0.2,0.2,0.8,0.8,0.2,0.2","3","",""
"","html-keyboard-response","278","221651","0.0-278.0","3GA6AFUKOPAI6JM4FATMXIMZSNHH3Z","ANK8K5WTHJ61C","3UUIU9GZC5R93N292LT21FRJ9VS5TN","","null","<img src=""img/land1.png"" style=""width:200px; border:14px solid green;"">","null","","","","","","","","","",""
"","image-keyboard-response","279","222243","0.0-279.0","3GA6AFUKOPAI6JM4FATMXIMZSNHH3Z","ANK8K5WTHJ61C","3UUIU9GZC5R93N292LT21FRJ9VS5TN","","590","img/land3.png","76","591.8999999761581","3","1","2","2","0.8,0.2,0.2,0.2,0.8,0.2,0.2,0.2,0.8","0.2,0.8,0.2,0.2,0.2,0.8,0.8,0.2,0.2","3","",""
"","html-keyboard-response","280","222551","0.0-280.0","3GA6AFUKOPAI6JM4FATMXIMZSNHH3Z","ANK8K5WTHJ61C","3UUIU9GZC5R93N292LT21FRJ9VS5TN","","null","<img src=""img/land3.png"" style=""width:200px; border:14px solid green;"">","null","","","","","","","","","",""
"","image-keyboard-response","281","223168","0.0-281.0","3GA6AFUKOPAI6JM4FATMXIMZSNHH3Z","ANK8K5WTHJ61C","3UUIU9GZC5R93N292LT21FRJ9VS5TN","","615.2999999523163","img/land3.png","76","616.7000000476837","3","1","2","2","0.8,0.2,0.2,0.2,0.8,0.2,0.2,0.2,0.8","0.2,0.8,0.2,0.2,0.2,0.8,0.8,0.2,0.2","3","",""
"","html-keyboard-response","282","223472","0.0-282.0","3GA6AFUKOPAI6JM4FATMXIMZSNHH3Z","ANK8K5WTHJ61C","3UUIU9GZC5R93N292LT21FRJ9VS5TN","","null","<img src=""img/land3.png"" style=""width:200px; border:14px solid green;"">","null","","","","","","","","","",""
"","image-keyboard-response","283","224072","0.0-283.0","3GA6AFUKOPAI6JM4FATMXIMZSNHH3Z","ANK8K5WTHJ61C","3UUIU9GZC5R93N292LT21FRJ9VS5TN","","598.6000000238419","img/land1.png","75","600.4000000953674","2","1","1","2","0.8,0.2,0.2,0.2,0.8,0.2,0.2,0.2,0.8","0.2,0.8,0.2,0.2,0.2,0.8,0.8,0.2,0.2","3","",""
"","html-keyboard-response","284","224380","0.0-284.0","3GA6AFUKOPAI6JM4FATMXIMZSNHH3Z","ANK8K5WTHJ61C","3UUIU9GZC5R93N292LT21FRJ9VS5TN","","null","<img src=""img/land1.png"" style=""width:200px; border:14px solid green;"">","null","","","","","","","","","",""
"","image-keyboard-response","285","225058","0.0-285.0","3GA6AFUKOPAI6JM4FATMXIMZSNHH3Z","ANK8K5WTHJ61C","3UUIU9GZC5R93N292LT21FRJ9VS5TN","","676.2999999523163","img/land4.png","74","677.5","1","0","3","2","0.8,0.2,0.2,0.2,0.8,0.2,0.2,0.2,0.8","0.2,0.8,0.2,0.2,0.2,0.8,0.8,0.2,0.2","3","",""
"","html-keyboard-response","286","225360","0.0-286.0","3GA6AFUKOPAI6JM4FATMXIMZSNHH3Z","ANK8K5WTHJ61C","3UUIU9GZC5R93N292LT21FRJ9VS5TN","","null","<img src=""img/land4.png"" style=""width:200px;border:14px solid red;"">","null","","","","","","","","","",""
"","image-keyboard-response","287","226172","0.0-287.0","3GA6AFUKOPAI6JM4FATMXIMZSNHH3Z","ANK8K5WTHJ61C","3UUIU9GZC5R93N292LT21FRJ9VS5TN","","810.3999999761581","img/land3.png","76","812.2999999523163","3","1","2","2","0.8,0.2,0.2,0.2,0.8,0.2,0.2,0.2,0.8","0.2,0.8,0.2,0.2,0.2,0.8,0.8,0.2,0.2","3","",""
"","html-keyboard-response","288","226480","0.0-288.0","3GA6AFUKOPAI6JM4FATMXIMZSNHH3Z","ANK8K5WTHJ61C","3UUIU9GZC5R93N292LT21FRJ9VS5TN","","null","<img src=""img/land3.png"" style=""width:200px; border:14px solid green;"">","null","","","","","","","","","",""
"","image-keyboard-response","289","227159","0.0-289.0","3GA6AFUKOPAI6JM4FATMXIMZSNHH3Z","ANK8K5WTHJ61C","3UUIU9GZC5R93N292LT21FRJ9VS5TN","","676.7999999523163","img/land1.png","75","678.3000000715256","2","1","1","2","0.8,0.2,0.2,0.2,0.8,0.2,0.2,0.2,0.8","0.2,0.8,0.2,0.2,0.2,0.8,0.8,0.2,0.2","3","",""
"","html-keyboard-response","290","227460","0.0-290.0","3GA6AFUKOPAI6JM4FATMXIMZSNHH3Z","ANK8K5WTHJ61C","3UUIU9GZC5R93N292LT21FRJ9VS5TN","","null","<img src=""img/land1.png"" style=""width:200px; border:14px solid green;"">","null","","","","","","","","","",""
"","image-keyboard-response","291","228123","0.0-291.0","3GA6AFUKOPAI6JM4FATMXIMZSNHH3Z","ANK8K5WTHJ61C","3UUIU9GZC5R93N292LT21FRJ9VS5TN","","661.6000000238419","img/land1.png","75","662.8999999761581","2","1","1","2","0.8,0.2,0.2,0.2,0.8,0.2,0.2,0.2,0.8","0.2,0.8,0.2,0.2,0.2,0.8,0.8,0.2,0.2","3","",""
"","html-keyboard-response","292","228430","0.0-292.0","3GA6AFUKOPAI6JM4FATMXIMZSNHH3Z","ANK8K5WTHJ61C","3UUIU9GZC5R93N292LT21FRJ9VS5TN","","null","<img src=""img/land1.png"" style=""width:200px; border:14px solid green;"">","null","","","","","","","","","",""
"","image-keyboard-response","293","229018","0.0-293.0","3GA6AFUKOPAI6JM4FATMXIMZSNHH3Z","ANK8K5WTHJ61C","3UUIU9GZC5R93N292LT21FRJ9VS5TN","","585.7000000476837","img/land1.png","75","586.9000000953674","2","1","1","2","0.8,0.2,0.2,0.2,0.8,0.2,0.2,0.2,0.8","0.2,0.8,0.2,0.2,0.2,0.8,0.8,0.2,0.2","3","",""
"","html-keyboard-response","294","229322","0.0-294.0","3GA6AFUKOPAI6JM4FATMXIMZSNHH3Z","ANK8K5WTHJ61C","3UUIU9GZC5R93N292LT21FRJ9VS5TN","","null","<img src=""img/land1.png"" style=""width:200px; border:14px solid green;"">","null","","","","","","","","","",""
"","image-keyboard-response","295","229983","0.0-295.0","3GA6AFUKOPAI6JM4FATMXIMZSNHH3Z","ANK8K5WTHJ61C","3UUIU9GZC5R93N292LT21FRJ9VS5TN","","658.1999999284744","img/land3.png","76","660","3","1","2","2","0.8,0.2,0.2,0.2,0.8,0.2,0.2,0.2,0.8","0.2,0.8,0.2,0.2,0.2,0.8,0.8,0.2,0.2","3","",""
"","html-keyboard-response","296","230288","0.0-296.0","3GA6AFUKOPAI6JM4FATMXIMZSNHH3Z","ANK8K5WTHJ61C","3UUIU9GZC5R93N292LT21FRJ9VS5TN","","null","<img src=""img/land3.png"" style=""width:200px; border:14px solid green;"">","null","","","","","","","","","",""
"","image-keyboard-response","297","230998","0.0-297.0","3GA6AFUKOPAI6JM4FATMXIMZSNHH3Z","ANK8K5WTHJ61C","3UUIU9GZC5R93N292LT21FRJ9VS5TN","","708.9000000953674","img/land4.png","74","710.1999999284744","1","1","3","2","0.8,0.2,0.2,0.2,0.8,0.2,0.2,0.2,0.8","0.2,0.8,0.2,0.2,0.2,0.8,0.8,0.2,0.2","3","",""
"","html-keyboard-response","298","231304","0.0-298.0","3GA6AFUKOPAI6JM4FATMXIMZSNHH3Z","ANK8K5WTHJ61C","3UUIU9GZC5R93N292LT21FRJ9VS5TN","","null","<img src=""img/land4.png"" style=""width:200px; border:14px solid green;"">","null","","","","","","","","","",""
"","image-keyboard-response","299","231993","0.0-299.0","3GA6AFUKOPAI6JM4FATMXIMZSNHH3Z","ANK8K5WTHJ61C","3UUIU9GZC5R93N292LT21FRJ9VS5TN","","686.5","img/land1.png","75","688.6000000238419","2","1","1","2","0.8,0.2,0.2,0.2,0.8,0.2,0.2,0.2,0.8","0.2,0.8,0.2,0.2,0.2,0.8,0.8,0.2,0.2","3","",""
"","html-keyboard-response","300","232300","0.0-300.0","3GA6AFUKOPAI6JM4FATMXIMZSNHH3Z","ANK8K5WTHJ61C","3UUIU9GZC5R93N292LT21FRJ9VS5TN","","null","<img src=""img/land1.png"" style=""width:200px; border:14px solid green;"">","null","","","","","","","","","",""
"","image-keyboard-response","301","232979","0.0-301.0","3GA6AFUKOPAI6JM4FATMXIMZSNHH3Z","ANK8K5WTHJ61C","3UUIU9GZC5R93N292LT21FRJ9VS5TN","","676.8999999761581","img/land4.png","74","678.5","1","1","3","2","0.8,0.2,0.2,0.2,0.8,0.2,0.2,0.2,0.8","0.2,0.8,0.2,0.2,0.2,0.8,0.8,0.2,0.2","3","",""
"","html-keyboard-response","302","233285","0.0-302.0","3GA6AFUKOPAI6JM4FATMXIMZSNHH3Z","ANK8K5WTHJ61C","3UUIU9GZC5R93N292LT21FRJ9VS5TN","","null","<img src=""img/land4.png"" style=""width:200px; border:14px solid green;"">","null","","","","","","","","","",""
"","image-keyboard-response","303","233795","0.0-303.0","3GA6AFUKOPAI6JM4FATMXIMZSNHH3Z","ANK8K5WTHJ61C","3UUIU9GZC5R93N292LT21FRJ9VS5TN","","508.90000009536743","img/land1.png","75","509.7999999523163","2","1","1","2","0.8,0.2,0.2,0.2,0.8,0.2,0.2,0.2,0.8","0.2,0.8,0.2,0.2,0.2,0.8,0.8,0.2,0.2","3","",""
"","html-keyboard-response","304","234102","0.0-304.0","3GA6AFUKOPAI6JM4FATMXIMZSNHH3Z","ANK8K5WTHJ61C","3UUIU9GZC5R93N292LT21FRJ9VS5TN","","null","<img src=""img/land1.png"" style=""width:200px; border:14px solid green;"">","null","","","","","","","","","",""
"","image-keyboard-response","305","234574","0.0-305.0","3GA6AFUKOPAI6JM4FATMXIMZSNHH3Z","ANK8K5WTHJ61C","3UUIU9GZC5R93N292LT21FRJ9VS5TN","","469.2000000476837","img/land1.png","75","471.10000002384186","2","1","1","2","0.8,0.2,0.2,0.2,0.8,0.2,0.2,0.2,0.8","0.2,0.8,0.2,0.2,0.2,0.8,0.8,0.2,0.2","3","",""
"","html-keyboard-response","306","234879","0.0-306.0","3GA6AFUKOPAI6JM4FATMXIMZSNHH3Z","ANK8K5WTHJ61C","3UUIU9GZC5R93N292LT21FRJ9VS5TN","","null","<img src=""img/land1.png"" style=""width:200px; border:14px solid green;"">","null","","","","","","","","","",""
"","image-keyboard-response","307","235382","0.0-307.0","3GA6AFUKOPAI6JM4FATMXIMZSNHH3Z","ANK8K5WTHJ61C","3UUIU9GZC5R93N292LT21FRJ9VS5TN","","501.6999999284744","img/land3.png","76","502.8000000715256","3","1","2","2","0.8,0.2,0.2,0.2,0.8,0.2,0.2,0.2,0.8","0.2,0.8,0.2,0.2,0.2,0.8,0.8,0.2,0.2","3","",""
"","html-keyboard-response","308","235690","0.0-308.0","3GA6AFUKOPAI6JM4FATMXIMZSNHH3Z","ANK8K5WTHJ61C","3UUIU9GZC5R93N292LT21FRJ9VS5TN","","null","<img src=""img/land3.png"" style=""width:200px; border:14px solid green;"">","null","","","","","","","","","",""
"","image-keyboard-response","309","236283","0.0-309.0","3GA6AFUKOPAI6JM4FATMXIMZSNHH3Z","ANK8K5WTHJ61C","3UUIU9GZC5R93N292LT21FRJ9VS5TN","","590.8000000715256","img/land1.png","75","592.6999999284744","2","0","1","2","0.8,0.2,0.2,0.2,0.8,0.2,0.2,0.2,0.8","0.2,0.8,0.2,0.2,0.2,0.8,0.8,0.2,0.2","3","",""
"","html-keyboard-response","310","236591","0.0-310.0","3GA6AFUKOPAI6JM4FATMXIMZSNHH3Z","ANK8K5WTHJ61C","3UUIU9GZC5R93N292LT21FRJ9VS5TN","","null","<img src=""img/land1.png"" style=""width:200px;border:14px solid red;"">","null","","","","","","","","","",""
"","image-keyboard-response","311","237209","0.0-311.0","3GA6AFUKOPAI6JM4FATMXIMZSNHH3Z","ANK8K5WTHJ61C","3UUIU9GZC5R93N292LT21FRJ9VS5TN","","616.5","img/land1.png","75","617.5","2","0","1","2","0.8,0.2,0.2,0.2,0.8,0.2,0.2,0.2,0.8","0.2,0.8,0.2,0.2,0.2,0.8,0.8,0.2,0.2","3","",""
"","html-keyboard-response","312","237514","0.0-312.0","3GA6AFUKOPAI6JM4FATMXIMZSNHH3Z","ANK8K5WTHJ61C","3UUIU9GZC5R93N292LT21FRJ9VS5TN","","null","<img src=""img/land1.png"" style=""width:200px;border:14px solid red;"">","null","","","","","","","","","",""
"","image-keyboard-response","313","238202","0.0-313.0","3GA6AFUKOPAI6JM4FATMXIMZSNHH3Z","ANK8K5WTHJ61C","3UUIU9GZC5R93N292LT21FRJ9VS5TN","","685.9000000953674","img/land4.png","74","687.8999999761581","1","0","3","2","0.8,0.2,0.2,0.2,0.8,0.2,0.2,0.2,0.8","0.2,0.8,0.2,0.2,0.2,0.8,0.8,0.2,0.2","3","",""
"","html-keyboard-response","314","238506","0.0-314.0","3GA6AFUKOPAI6JM4FATMXIMZSNHH3Z","ANK8K5WTHJ61C","3UUIU9GZC5R93N292LT21FRJ9VS5TN","","null","<img src=""img/land4.png"" style=""width:200px;border:14px solid red;"">","null","","","","","","","","","",""
"","image-keyboard-response","315","239158","0.0-315.0","3GA6AFUKOPAI6JM4FATMXIMZSNHH3Z","ANK8K5WTHJ61C","3UUIU9GZC5R93N292LT21FRJ9VS5TN","","650.6000000238419","img/land1.png","75","651.9000000953674","2","1","1","2","0.8,0.2,0.2,0.2,0.8,0.2,0.2,0.2,0.8","0.2,0.8,0.2,0.2,0.2,0.8,0.8,0.2,0.2","3","",""
"","html-keyboard-response","316","239465","0.0-316.0","3GA6AFUKOPAI6JM4FATMXIMZSNHH3Z","ANK8K5WTHJ61C","3UUIU9GZC5R93N292LT21FRJ9VS5TN","","null","<img src=""img/land1.png"" style=""width:200px; border:14px solid green;"">","null","","","","","","","","","",""
"","image-keyboard-response","317","240092","0.0-317.0","3GA6AFUKOPAI6JM4FATMXIMZSNHH3Z","ANK8K5WTHJ61C","3UUIU9GZC5R93N292LT21FRJ9VS5TN","","625.2000000476837","img/land3.png","76","627.1000000238419","3","1","2","2","0.8,0.2,0.2,0.2,0.8,0.2,0.2,0.2,0.8","0.2,0.8,0.2,0.2,0.2,0.8,0.8,0.2,0.2","3","",""
"","html-keyboard-response","318","240400","0.0-318.0","3GA6AFUKOPAI6JM4FATMXIMZSNHH3Z","ANK8K5WTHJ61C","3UUIU9GZC5R93N292LT21FRJ9VS5TN","","null","<img src=""img/land3.png"" style=""width:200px; border:14px solid green;"">","null","","","","","","","","","",""
"","image-keyboard-response","319","241168","0.0-319.0","3GA6AFUKOPAI6JM4FATMXIMZSNHH3Z","ANK8K5WTHJ61C","3UUIU9GZC5R93N292LT21FRJ9VS5TN","","765.4000000953674","img/land4.png","74","766.7999999523163","1","1","3","2","0.8,0.2,0.2,0.2,0.8,0.2,0.2,0.2,0.8","0.2,0.8,0.2,0.2,0.2,0.8,0.8,0.2,0.2","3","",""
"","html-keyboard-response","320","241473","0.0-320.0","3GA6AFUKOPAI6JM4FATMXIMZSNHH3Z","ANK8K5WTHJ61C","3UUIU9GZC5R93N292LT21FRJ9VS5TN","","null","<img src=""img/land4.png"" style=""width:200px; border:14px solid green;"">","null","","","","","","","","","",""
"","image-keyboard-response","321","242011","0.0-321.0","3GA6AFUKOPAI6JM4FATMXIMZSNHH3Z","ANK8K5WTHJ61C","3UUIU9GZC5R93N292LT21FRJ9VS5TN","","534.8999999761581","img/land4.png","74","536.9000000953674","1","1","3","2","0.8,0.2,0.2,0.2,0.8,0.2,0.2,0.2,0.8","0.2,0.8,0.2,0.2,0.2,0.8,0.8,0.2,0.2","3","",""
"","html-keyboard-response","322","242318","0.0-322.0","3GA6AFUKOPAI6JM4FATMXIMZSNHH3Z","ANK8K5WTHJ61C","3UUIU9GZC5R93N292LT21FRJ9VS5TN","","null","<img src=""img/land4.png"" style=""width:200px; border:14px solid green;"">","null","","","","","","","","","",""
"","image-keyboard-response","323","242937","0.0-323.0","3GA6AFUKOPAI6JM4FATMXIMZSNHH3Z","ANK8K5WTHJ61C","3UUIU9GZC5R93N292LT21FRJ9VS5TN","","617.1000000238419","img/land3.png","76","618.3000000715256","3","0","2","2","0.8,0.2,0.2,0.2,0.8,0.2,0.2,0.2,0.8","0.2,0.8,0.2,0.2,0.2,0.8,0.8,0.2,0.2","3","",""
"","html-keyboard-response","324","243242","0.0-324.0","3GA6AFUKOPAI6JM4FATMXIMZSNHH3Z","ANK8K5WTHJ61C","3UUIU9GZC5R93N292LT21FRJ9VS5TN","","null","<img src=""img/land3.png"" style=""width:200px;border:14px solid red;"">","null","","","","","","","","","",""
"","image-keyboard-response","325","243873","0.0-325.0","3GA6AFUKOPAI6JM4FATMXIMZSNHH3Z","ANK8K5WTHJ61C","3UUIU9GZC5R93N292LT21FRJ9VS5TN","","629.6999999284744","img/land1.png","75","631.1000000238419","2","1","1","2","0.8,0.2,0.2,0.2,0.8,0.2,0.2,0.2,0.8","0.2,0.8,0.2,0.2,0.2,0.8,0.8,0.2,0.2","3","",""
"","html-keyboard-response","326","244180","0.0-326.0","3GA6AFUKOPAI6JM4FATMXIMZSNHH3Z","ANK8K5WTHJ61C","3UUIU9GZC5R93N292LT21FRJ9VS5TN","","null","<img src=""img/land1.png"" style=""width:200px; border:14px solid green;"">","null","","","","","","","","","",""
"","image-keyboard-response","327","244711","0.0-327.0","3GA6AFUKOPAI6JM4FATMXIMZSNHH3Z","ANK8K5WTHJ61C","3UUIU9GZC5R93N292LT21FRJ9VS5TN","","528.3999999761581","img/land1.png","75","530.3000000715256","2","1","1","2","0.8,0.2,0.2,0.2,0.8,0.2,0.2,0.2,0.8","0.2,0.8,0.2,0.2,0.2,0.8,0.8,0.2,0.2","3","",""
"","html-keyboard-response","328","245017","0.0-328.0","3GA6AFUKOPAI6JM4FATMXIMZSNHH3Z","ANK8K5WTHJ61C","3UUIU9GZC5R93N292LT21FRJ9VS5TN","","null","<img src=""img/land1.png"" style=""width:200px; border:14px solid green;"">","null","","","","","","","","","",""
"","image-keyboard-response","329","245568","0.0-329.0","3GA6AFUKOPAI6JM4FATMXIMZSNHH3Z","ANK8K5WTHJ61C","3UUIU9GZC5R93N292LT21FRJ9VS5TN","","550.1000000238419","img/land4.png","74","551.1000000238419","1","1","3","2","0.8,0.2,0.2,0.2,0.8,0.2,0.2,0.2,0.8","0.2,0.8,0.2,0.2,0.2,0.8,0.8,0.2,0.2","3","",""
"","html-keyboard-response","330","245872","0.0-330.0","3GA6AFUKOPAI6JM4FATMXIMZSNHH3Z","ANK8K5WTHJ61C","3UUIU9GZC5R93N292LT21FRJ9VS5TN","","null","<img src=""img/land4.png"" style=""width:200px; border:14px solid green;"">","null","","","","","","","","","",""
"","image-keyboard-response","331","246452","0.0-331.0","3GA6AFUKOPAI6JM4FATMXIMZSNHH3Z","ANK8K5WTHJ61C","3UUIU9GZC5R93N292LT21FRJ9VS5TN","","577.3000000715256","img/land1.png","75","579.1999999284744","2","0","1","2","0.8,0.2,0.2,0.2,0.8,0.2,0.2,0.2,0.8","0.2,0.8,0.2,0.2,0.2,0.8,0.8,0.2,0.2","3","",""
"","html-keyboard-response","332","246759","0.0-332.0","3GA6AFUKOPAI6JM4FATMXIMZSNHH3Z","ANK8K5WTHJ61C","3UUIU9GZC5R93N292LT21FRJ9VS5TN","","null","<img src=""img/land1.png"" style=""width:200px;border:14px solid red;"">","null","","","","","","","","","",""
"","image-keyboard-response","333","247318","0.0-333.0","3GA6AFUKOPAI6JM4FATMXIMZSNHH3Z","ANK8K5WTHJ61C","3UUIU9GZC5R93N292LT21FRJ9VS5TN","","557.5","img/land1.png","75","558.8999999761581","2","1","1","2","0.8,0.2,0.2,0.2,0.8,0.2,0.2,0.2,0.8","0.2,0.8,0.2,0.2,0.2,0.8,0.8,0.2,0.2","3","",""
"","html-keyboard-response","334","247620","0.0-334.0","3GA6AFUKOPAI6JM4FATMXIMZSNHH3Z","ANK8K5WTHJ61C","3UUIU9GZC5R93N292LT21FRJ9VS5TN","","null","<img src=""img/land1.png"" style=""width:200px; border:14px solid green;"">","null","","","","","","","","","",""
"","image-keyboard-response","335","248147","0.0-335.0","3GA6AFUKOPAI6JM4FATMXIMZSNHH3Z","ANK8K5WTHJ61C","3UUIU9GZC5R93N292LT21FRJ9VS5TN","","524.6999999284744","img/land1.png","75","526.6000000238419","2","1","1","2","0.8,0.2,0.2,0.2,0.8,0.2,0.2,0.2,0.8","0.2,0.8,0.2,0.2,0.2,0.8,0.8,0.2,0.2","3","",""
"","html-keyboard-response","336","248451","0.0-336.0","3GA6AFUKOPAI6JM4FATMXIMZSNHH3Z","ANK8K5WTHJ61C","3UUIU9GZC5R93N292LT21FRJ9VS5TN","","null","<img src=""img/land1.png"" style=""width:200px; border:14px solid green;"">","null","","","","","","","","","",""
"","image-keyboard-response","337","248972","0.0-337.0","3GA6AFUKOPAI6JM4FATMXIMZSNHH3Z","ANK8K5WTHJ61C","3UUIU9GZC5R93N292LT21FRJ9VS5TN","","518.2000000476837","img/land1.png","75","520.1000000238419","2","1","1","2","0.8,0.2,0.2,0.2,0.8,0.2,0.2,0.2,0.8","0.2,0.8,0.2,0.2,0.2,0.8,0.8,0.2,0.2","3","",""
"","html-keyboard-response","338","249279","0.0-338.0","3GA6AFUKOPAI6JM4FATMXIMZSNHH3Z","ANK8K5WTHJ61C","3UUIU9GZC5R93N292LT21FRJ9VS5TN","","null","<img src=""img/land1.png"" style=""width:200px; border:14px solid green;"">","null","","","","","","","","","",""
"","image-keyboard-response","339","250053","0.0-339.0","3GA6AFUKOPAI6JM4FATMXIMZSNHH3Z","ANK8K5WTHJ61C","3UUIU9GZC5R93N292LT21FRJ9VS5TN","","772.8999999761581","img/land4.png","74","773.8999999761581","1","1","3","2","0.8,0.2,0.2,0.2,0.8,0.2,0.2,0.2,0.8","0.2,0.8,0.2,0.2,0.2,0.8,0.8,0.2,0.2","3","",""
"","html-keyboard-response","340","250356","0.0-340.0","3GA6AFUKOPAI6JM4FATMXIMZSNHH3Z","ANK8K5WTHJ61C","3UUIU9GZC5R93N292LT21FRJ9VS5TN","","null","<img src=""img/land4.png"" style=""width:200px; border:14px solid green;"">","null","","","","","","","","","",""
"","image-keyboard-response","341","250948","0.0-341.0","3GA6AFUKOPAI6JM4FATMXIMZSNHH3Z","ANK8K5WTHJ61C","3UUIU9GZC5R93N292LT21FRJ9VS5TN","","589.9000000953674","img/land1.png","75","591.5","2","1","1","2","0.8,0.2,0.2,0.2,0.8,0.2,0.2,0.2,0.8","0.2,0.8,0.2,0.2,0.2,0.8,0.8,0.2,0.2","3","",""
"","html-keyboard-response","342","251255","0.0-342.0","3GA6AFUKOPAI6JM4FATMXIMZSNHH3Z","ANK8K5WTHJ61C","3UUIU9GZC5R93N292LT21FRJ9VS5TN","","null","<img src=""img/land1.png"" style=""width:200px; border:14px solid green;"">","null","","","","","","","","","",""
"","image-keyboard-response","343","251762","0.0-343.0","3GA6AFUKOPAI6JM4FATMXIMZSNHH3Z","ANK8K5WTHJ61C","3UUIU9GZC5R93N292LT21FRJ9VS5TN","","506","img/land3.png","76","507.2000000476837","3","1","2","2","0.8,0.2,0.2,0.2,0.8,0.2,0.2,0.2,0.8","0.2,0.8,0.2,0.2,0.2,0.8,0.8,0.2,0.2","3","",""
"","html-keyboard-response","344","252071","0.0-344.0","3GA6AFUKOPAI6JM4FATMXIMZSNHH3Z","ANK8K5WTHJ61C","3UUIU9GZC5R93N292LT21FRJ9VS5TN","","null","<img src=""img/land3.png"" style=""width:200px; border:14px solid green;"">","null","","","","","","","","","",""
"","image-keyboard-response","345","252570","0.0-345.0","3GA6AFUKOPAI6JM4FATMXIMZSNHH3Z","ANK8K5WTHJ61C","3UUIU9GZC5R93N292LT21FRJ9VS5TN","","497.60000002384186","img/land1.png","75","499.7999999523163","2","1","1","2","0.8,0.2,0.2,0.2,0.8,0.2,0.2,0.2,0.8","0.2,0.8,0.2,0.2,0.2,0.8,0.8,0.2,0.2","3","",""
"","html-keyboard-response","346","252877","0.0-346.0","3GA6AFUKOPAI6JM4FATMXIMZSNHH3Z","ANK8K5WTHJ61C","3UUIU9GZC5R93N292LT21FRJ9VS5TN","","null","<img src=""img/land1.png"" style=""width:200px; border:14px solid green;"">","null","","","","","","","","","",""
"","image-keyboard-response","347","253533","0.0-347.0","3GA6AFUKOPAI6JM4FATMXIMZSNHH3Z","ANK8K5WTHJ61C","3UUIU9GZC5R93N292LT21FRJ9VS5TN","","653.6999999284744","img/land3.png","76","655.5","3","1","2","2","0.8,0.2,0.2,0.2,0.8,0.2,0.2,0.2,0.8","0.2,0.8,0.2,0.2,0.2,0.8,0.8,0.2,0.2","3","",""
"","html-keyboard-response","348","253841","0.0-348.0","3GA6AFUKOPAI6JM4FATMXIMZSNHH3Z","ANK8K5WTHJ61C","3UUIU9GZC5R93N292LT21FRJ9VS5TN","","null","<img src=""img/land3.png"" style=""width:200px; border:14px solid green;"">","null","","","","","","","","","",""
"","image-keyboard-response","349","254372","0.0-349.0","3GA6AFUKOPAI6JM4FATMXIMZSNHH3Z","ANK8K5WTHJ61C","3UUIU9GZC5R93N292LT21FRJ9VS5TN","","528.6999999284744","img/land1.png","75","530.7000000476837","2","1","1","2","0.8,0.2,0.2,0.2,0.8,0.2,0.2,0.2,0.8","0.2,0.8,0.2,0.2,0.2,0.8,0.8,0.2,0.2","3","",""
"","html-keyboard-response","350","254679","0.0-350.0","3GA6AFUKOPAI6JM4FATMXIMZSNHH3Z","ANK8K5WTHJ61C","3UUIU9GZC5R93N292LT21FRJ9VS5TN","","null","<img src=""img/land1.png"" style=""width:200px; border:14px solid green;"">","null","","","","","","","","","",""
"","image-keyboard-response","351","255163","0.0-351.0","3GA6AFUKOPAI6JM4FATMXIMZSNHH3Z","ANK8K5WTHJ61C","3UUIU9GZC5R93N292LT21FRJ9VS5TN","","482.3000000715256","img/land1.png","75","483.1999999284744","2","1","1","2","0.8,0.2,0.2,0.2,0.8,0.2,0.2,0.2,0.8","0.2,0.8,0.2,0.2,0.2,0.8,0.8,0.2,0.2","3","",""
"","html-keyboard-response","352","255468","0.0-352.0","3GA6AFUKOPAI6JM4FATMXIMZSNHH3Z","ANK8K5WTHJ61C","3UUIU9GZC5R93N292LT21FRJ9VS5TN","","null","<img src=""img/land1.png"" style=""width:200px; border:14px solid green;"">","null","","","","","","","","","",""
"","image-keyboard-response","353","256023","0.0-353.0","3GA6AFUKOPAI6JM4FATMXIMZSNHH3Z","ANK8K5WTHJ61C","3UUIU9GZC5R93N292LT21FRJ9VS5TN","","553.5999999046326","img/land3.png","76","554.7000000476837","3","1","2","2","0.8,0.2,0.2,0.2,0.8,0.2,0.2,0.2,0.8","0.2,0.8,0.2,0.2,0.2,0.8,0.8,0.2,0.2","3","",""
"","html-keyboard-response","354","256330","0.0-354.0","3GA6AFUKOPAI6JM4FATMXIMZSNHH3Z","ANK8K5WTHJ61C","3UUIU9GZC5R93N292LT21FRJ9VS5TN","","null","<img src=""img/land3.png"" style=""width:200px; border:14px solid green;"">","null","","","","","","","","","",""
"","image-keyboard-response","355","257097","0.0-355.0","3GA6AFUKOPAI6JM4FATMXIMZSNHH3Z","ANK8K5WTHJ61C","3UUIU9GZC5R93N292LT21FRJ9VS5TN","","765.3999999761581","img/land4.png","74","766.7000000476837","1","0","3","2","0.8,0.2,0.2,0.2,0.8,0.2,0.2,0.2,0.8","0.2,0.8,0.2,0.2,0.2,0.8,0.8,0.2,0.2","3","",""
