"success","trial_type","trial_index","time_elapsed","internal_node_id","assignmentID","mturkID","hitID","view_history","rt","stimulus","key_press","reactionTime","a","r","s","cond","reward_cond","reward_cond_actual","reward_matrix_idx","responses","question_order"
"true","fullscreen","0","3857","0.0-0.0","3RWE2M8QWIWEZN9IZL6G04LOBKV0NF","ANOPPPGFNTUPN","3TKXBROM5TWR181JXBYSOI8FGFVJIU","","","","","","","","","","","","","",""
"","instructions","1","11973","0.0-1.0","3RWE2M8QWIWEZN9IZL6G04LOBKV0NF","ANOPPPGFNTUPN","3TKXBROM5TWR181JXBYSOI8FGFVJIU","[{""page_index"":0,""viewing_time"":1004},{""page_index"":1,""viewing_time"":983},{""page_index"":2,""viewing_time"":520},{""page_index"":3,""viewing_time"":1165},{""page_index"":4,""viewing_time"":1272},{""page_index"":5,""viewing_time"":1634},{""page_index"":6,""viewing_time"":1534}]","8113","","","","","","","","","","","",""
"","image-keyboard-response","2","13979","0.0-2.0","3RWE2M8QWIWEZN9IZL6G04LOBKV0NF","ANOPPPGFNTUPN","3TKXBROM5TWR181JXBYSOI8FGFVJIU","","","img/land1.png","","2005","-1","0","3","1","0.8,0.2,0.2,0.2,0.8,0.2,0.2,0.2,0.8","0.8,0.2,0.2,0.2,0.8,0.2,0.2,0.2,0.8","1","",""
"","html-keyboard-response","3","14284","0.0-3.0","3RWE2M8QWIWEZN9IZL6G04LOBKV0NF","ANOPPPGFNTUPN","3TKXBROM5TWR181JXBYSOI8FGFVJIU","","null","<img src=""img/land1.png"" style=""width:200px;border:14px solid red;"">","null","","","","","","","","","",""
"","image-keyboard-response","4","14450","0.0-4.0","3RWE2M8QWIWEZN9IZL6G04LOBKV0NF","ANOPPPGFNTUPN","3TKXBROM5TWR181JXBYSOI8FGFVJIU","","162","img/land4.png","76","165","3","0","2","1","0.8,0.2,0.2,0.2,0.8,0.2,0.2,0.2,0.8","0.8,0.2,0.2,0.2,0.8,0.2,0.2,0.2,0.8","1","",""
"","html-keyboard-response","5","14753","0.0-5.0","3RWE2M8QWIWEZN9IZL6G04LOBKV0NF","ANOPPPGFNTUPN","3TKXBROM5TWR181JXBYSOI8FGFVJIU","","null","<img src=""img/land4.png"" style=""width:200px;border:14px solid red;"">","null","","","","","","","","","",""
"","image-keyboard-response","6","14842","0.0-6.0","3RWE2M8QWIWEZN9IZL6G04LOBKV0NF","ANOPPPGFNTUPN","3TKXBROM5TWR181JXBYSOI8FGFVJIU","","87","img/land4.png","75","88","2","1","2","1","0.8,0.2,0.2,0.2,0.8,0.2,0.2,0.2,0.8","0.8,0.2,0.2,0.2,0.8,0.2,0.2,0.2,0.8","1","",""
"","html-keyboard-response","7","15144","0.0-7.0","3RWE2M8QWIWEZN9IZL6G04LOBKV0NF","ANOPPPGFNTUPN","3TKXBROM5TWR181JXBYSOI8FGFVJIU","","null","<img src=""img/land4.png"" style=""width:200px; border:14px solid green;"">","null","","","","","","","","","",""
"","image-keyboard-response","8","15270","0.0-8.0","3RWE2M8QWIWEZN9IZL6G04LOBKV0NF","ANOPPPGFNTUPN","3TKXBROM5TWR181JXBYSOI8FGFVJIU","","125","img/land1.png","75","126","2","0","3","1","0.8,0.2,0.2,0.2,0.8,0.2,0.2,0.2,0.8","0.8,0.2,0.2,0.2,0.8,0.2,0.2,0.2,0.8","1","",""
"","html-keyboard-response","9","15572","0.0-9.0","3RWE2M8QWIWEZN9IZL6G04LOBKV0NF","ANOPPPGFNTUPN","3TKXBROM5TWR181JXBYSOI8FGFVJIU","","null","<img src=""img/land1.png"" style=""width:200px;border:14px solid red;"">","null","","","","","","","","","",""
"","image-keyboard-response","10","15697","0.0-10.0","3RWE2M8QWIWEZN9IZL6G04LOBKV0NF","ANOPPPGFNTUPN","3TKXBROM5TWR181JXBYSOI8FGFVJIU","","123","img/land1.png","75","125","2","0","3","1","0.8,0.2,0.2,0.2,0.8,0.2,0.2,0.2,0.8","0.8,0.2,0.2,0.2,0.8,0.2,0.2,0.2,0.8","1","",""
"","html-keyboard-response","11","15999","0.0-11.0","3RWE2M8QWIWEZN9IZL6G04LOBKV0NF","ANOPPPGFNTUPN","3TKXBROM5TWR181JXBYSOI8FGFVJIU","","null","<img src=""img/land1.png"" style=""width:200px;border:14px solid red;"">","null","","","","","","","","","",""
"","image-keyboard-response","12","16015","0.0-12.0","3RWE2M8QWIWEZN9IZL6G04LOBKV0NF","ANOPPPGFNTUPN","3TKXBROM5TWR181JXBYSOI8FGFVJIU","","14","img/land4.png","74","15","1","0","2","1","0.8,0.2,0.2,0.2,0.8,0.2,0.2,0.2,0.8","0.8,0.2,0.2,0.2,0.8,0.2,0.2,0.2,0.8","1","",""
"","html-keyboard-response","13","16317","0.0-13.0","3RWE2M8QWIWEZN9IZL6G04LOBKV0NF","ANOPPPGFNTUPN","3TKXBROM5TWR181JXBYSOI8FGFVJIU","","null","<img src=""img/land4.png"" style=""width:200px;border:14px solid red;"">","null","","","","","","","","","",""
"","image-keyboard-response","14","16448","0.0-14.0","3RWE2M8QWIWEZN9IZL6G04LOBKV0NF","ANOPPPGFNTUPN","3TKXBROM5TWR181JXBYSOI8FGFVJIU","","128","img/land2.png","74","130","1","0","1","1","0.8,0.2,0.2,0.2,0.8,0.2,0.2,0.2,0.8","0.8,0.2,0.2,0.2,0.8,0.2,0.2,0.2,0.8","1","",""
"","html-keyboard-response","15","16750","0.0-15.0","3RWE2M8QWIWEZN9IZL6G04LOBKV0NF","ANOPPPGFNTUPN","3TKXBROM5TWR181JXBYSOI8FGFVJIU","","null","<img src=""img/land2.png"" style=""width:200px;border:14px solid red;"">","null","","","","","","","","","",""
"","image-keyboard-response","16","16752","0.0-16.0","3RWE2M8QWIWEZN9IZL6G04LOBKV0NF","ANOPPPGFNTUPN","3TKXBROM5TWR181JXBYSOI8FGFVJIU","","1","img/land1.png","76","1","3","0","3","1","0.8,0.2,0.2,0.2,0.8,0.2,0.2,0.2,0.8","0.8,0.2,0.2,0.2,0.8,0.2,0.2,0.2,0.8","1","",""
"","html-keyboard-response","17","17054","0.0-17.0","3RWE2M8QWIWEZN9IZL6G04LOBKV0NF","ANOPPPGFNTUPN","3TKXBROM5TWR181JXBYSOI8FGFVJIU","","null","<img src=""img/land1.png"" style=""width:200px;border:14px solid red;"">","null","","","","","","","","","",""
"","image-keyboard-response","18","17058","0.0-18.0","3RWE2M8QWIWEZN9IZL6G04LOBKV0NF","ANOPPPGFNTUPN","3TKXBROM5TWR181JXBYSOI8FGFVJIU","","2","img/land4.png","76","4","3","0","2","1","0.8,0.2,0.2,0.2,0.8,0.2,0.2,0.2,0.8","0.8,0.2,0.2,0.2,0.8,0.2,0.2,0.2,0.8","1","",""
"","html-keyboard-response","19","17360","0.0-19.0","3RWE2M8QWIWEZN9IZL6G04LOBKV0NF","ANOPPPGFNTUPN","3TKXBROM5TWR181JXBYSOI8FGFVJIU","","null","<img src=""img/land4.png"" style=""width:200px;border:14px solid red;"">","null","","","","","","","","","",""
"","image-keyboard-response","20","17430","0.0-20.0","3RWE2M8QWIWEZN9IZL6G04LOBKV0NF","ANOPPPGFNTUPN","3TKXBROM5TWR181JXBYSOI8FGFVJIU","","68","img/land1.png","76","69","3","1","3","1","0.8,0.2,0.2,0.2,0.8,0.2,0.2,0.2,0.8","0.8,0.2,0.2,0.2,0.8,0.2,0.2,0.2,0.8","1","",""
"","html-keyboard-response","21","17732","0.0-21.0","3RWE2M8QWIWEZN9IZL6G04LOBKV0NF","ANOPPPGFNTUPN","3TKXBROM5TWR181JXBYSOI8FGFVJIU","","null","<img src=""img/land1.png"" style=""width:200px; border:14px solid green;"">","null","","","","","","","","","",""
"","image-keyboard-response","22","17796","0.0-22.0","3RWE2M8QWIWEZN9IZL6G04LOBKV0NF","ANOPPPGFNTUPN","3TKXBROM5TWR181JXBYSOI8FGFVJIU","","62","img/land1.png","76","63","3","0","3","1","0.8,0.2,0.2,0.2,0.8,0.2,0.2,0.2,0.8","0.8,0.2,0.2,0.2,0.8,0.2,0.2,0.2,0.8","1","",""
"","html-keyboard-response","23","18098","0.0-23.0","3RWE2M8QWIWEZN9IZL6G04LOBKV0NF","ANOPPPGFNTUPN","3TKXBROM5TWR181JXBYSOI8FGFVJIU","","null","<img src=""img/land1.png"" style=""width:200px;border:14px solid red;"">","null","","","","","","","","","",""
"","image-keyboard-response","24","18241","0.0-24.0","3RWE2M8QWIWEZN9IZL6G04LOBKV0NF","ANOPPPGFNTUPN","3TKXBROM5TWR181JXBYSOI8FGFVJIU","","141","img/land4.png","76","143","3","1","2","1","0.8,0.2,0.2,0.2,0.8,0.2,0.2,0.2,0.8","0.8,0.2,0.2,0.2,0.8,0.2,0.2,0.2,0.8","1","",""
"","html-keyboard-response","25","18545","0.0-25.0","3RWE2M8QWIWEZN9IZL6G04LOBKV0NF","ANOPPPGFNTUPN","3TKXBROM5TWR181JXBYSOI8FGFVJIU","","null","<img src=""img/land4.png"" style=""width:200px; border:14px solid green;"">","null","","","","","","","","","",""
"","image-keyboard-response","26","18713","0.0-26.0","3RWE2M8QWIWEZN9IZL6G04LOBKV0NF","ANOPPPGFNTUPN","3TKXBROM5TWR181JXBYSOI8FGFVJIU","","164","img/land1.png","76","167","3","1","3","1","0.8,0.2,0.2,0.2,0.8,0.2,0.2,0.2,0.8","0.8,0.2,0.2,0.2,0.8,0.2,0.2,0.2,0.8","1","",""
"","html-keyboard-response","27","19015","0.0-27.0","3RWE2M8QWIWEZN9IZL6G04LOBKV0NF","ANOPPPGFNTUPN","3TKXBROM5TWR181JXBYSOI8FGFVJIU","","null","<img src=""img/land1.png"" style=""width:200px; border:14px solid green;"">","null","","","","","","","","","",""
"","image-keyboard-response","28","19294","0.0-28.0","3RWE2M8QWIWEZN9IZL6G04LOBKV0NF","ANOPPPGFNTUPN","3TKXBROM5TWR181JXBYSOI8FGFVJIU","","278","img/land1.png","76","279","3","1","3","1","0.8,0.2,0.2,0.2,0.8,0.2,0.2,0.2,0.8","0.8,0.2,0.2,0.2,0.8,0.2,0.2,0.2,0.8","1","",""
"","html-keyboard-response","29","19598","0.0-29.0","3RWE2M8QWIWEZN9IZL6G04LOBKV0NF","ANOPPPGFNTUPN","3TKXBROM5TWR181JXBYSOI8FGFVJIU","","null","<img src=""img/land1.png"" style=""width:200px; border:14px solid green;"">","null","","","","","","","","","",""
"","image-keyboard-response","30","19633","0.0-30.0","3RWE2M8QWIWEZN9IZL6G04LOBKV0NF","ANOPPPGFNTUPN","3TKXBROM5TWR181JXBYSOI8FGFVJIU","","34","img/land4.png","75","35","2","1","2","1","0.8,0.2,0.2,0.2,0.8,0.2,0.2,0.2,0.8","0.8,0.2,0.2,0.2,0.8,0.2,0.2,0.2,0.8","1","",""
"","html-keyboard-response","31","19934","0.0-31.0","3RWE2M8QWIWEZN9IZL6G04LOBKV0NF","ANOPPPGFNTUPN","3TKXBROM5TWR181JXBYSOI8FGFVJIU","","null","<img src=""img/land4.png"" style=""width:200px; border:14px solid green;"">","null","","","","","","","","","",""
"","image-keyboard-response","32","20061","0.0-32.0","3RWE2M8QWIWEZN9IZL6G04LOBKV0NF","ANOPPPGFNTUPN","3TKXBROM5TWR181JXBYSOI8FGFVJIU","","124","img/land1.png","76","126","3","1","3","1","0.8,0.2,0.2,0.2,0.8,0.2,0.2,0.2,0.8","0.8,0.2,0.2,0.2,0.8,0.2,0.2,0.2,0.8","1","",""
"","html-keyboard-response","33","20362","0.0-33.0","3RWE2M8QWIWEZN9IZL6G04LOBKV0NF","ANOPPPGFNTUPN","3TKXBROM5TWR181JXBYSOI8FGFVJIU","","null","<img src=""img/land1.png"" style=""width:200px; border:14px solid green;"">","null","","","","","","","","","",""
"","image-keyboard-response","34","20410","0.0-34.0","3RWE2M8QWIWEZN9IZL6G04LOBKV0NF","ANOPPPGFNTUPN","3TKXBROM5TWR181JXBYSOI8FGFVJIU","","47","img/land2.png","75","47","2","0","1","1","0.8,0.2,0.2,0.2,0.8,0.2,0.2,0.2,0.8","0.8,0.2,0.2,0.2,0.8,0.2,0.2,0.2,0.8","1","",""
"","html-keyboard-response","35","20712","0.0-35.0","3RWE2M8QWIWEZN9IZL6G04LOBKV0NF","ANOPPPGFNTUPN","3TKXBROM5TWR181JXBYSOI8FGFVJIU","","null","<img src=""img/land2.png"" style=""width:200px;border:14px solid red;"">","null","","","","","","","","","",""
"","image-keyboard-response","36","21006","0.0-36.0","3RWE2M8QWIWEZN9IZL6G04LOBKV0NF","ANOPPPGFNTUPN","3TKXBROM5TWR181JXBYSOI8FGFVJIU","","293","img/land1.png","75","295","2","0","3","1","0.8,0.2,0.2,0.2,0.8,0.2,0.2,0.2,0.8","0.8,0.2,0.2,0.2,0.8,0.2,0.2,0.2,0.8","1","",""
"","html-keyboard-response","37","21414","0.0-37.0","3RWE2M8QWIWEZN9IZL6G04LOBKV0NF","ANOPPPGFNTUPN","3TKXBROM5TWR181JXBYSOI8FGFVJIU","","null","<img src=""img/land1.png"" style=""width:200px;border:14px solid red;"">","null","","","","","","","","","",""
"","image-keyboard-response","38","21559","0.0-38.0","3RWE2M8QWIWEZN9IZL6G04LOBKV0NF","ANOPPPGFNTUPN","3TKXBROM5TWR181JXBYSOI8FGFVJIU","","142","img/land4.png","75","144","2","0","2","1","0.8,0.2,0.2,0.2,0.8,0.2,0.2,0.2,0.8","0.8,0.2,0.2,0.2,0.8,0.2,0.2,0.2,0.8","1","",""
"","html-keyboard-response","39","21860","0.0-39.0","3RWE2M8QWIWEZN9IZL6G04LOBKV0NF","ANOPPPGFNTUPN","3TKXBROM5TWR181JXBYSOI8FGFVJIU","","null","<img src=""img/land4.png"" style=""width:200px;border:14px solid red;"">","null","","","","","","","","","",""
"","image-keyboard-response","40","22175","0.0-40.0","3RWE2M8QWIWEZN9IZL6G04LOBKV0NF","ANOPPPGFNTUPN","3TKXBROM5TWR181JXBYSOI8FGFVJIU","","314","img/land2.png","76","315","3","0","1","1","0.8,0.2,0.2,0.2,0.8,0.2,0.2,0.2,0.8","0.8,0.2,0.2,0.2,0.8,0.2,0.2,0.2,0.8","1","",""
"","html-keyboard-response","41","22477","0.0-41.0","3RWE2M8QWIWEZN9IZL6G04LOBKV0NF","ANOPPPGFNTUPN","3TKXBROM5TWR181JXBYSOI8FGFVJIU","","null","<img src=""img/land2.png"" style=""width:200px;border:14px solid red;"">","null","","","","","","","","","",""
"","image-keyboard-response","42","22542","0.0-42.0","3RWE2M8QWIWEZN9IZL6G04LOBKV0NF","ANOPPPGFNTUPN","3TKXBROM5TWR181JXBYSOI8FGFVJIU","","64","img/land4.png","76","64","3","0","2","1","0.8,0.2,0.2,0.2,0.8,0.2,0.2,0.2,0.8","0.8,0.2,0.2,0.2,0.8,0.2,0.2,0.2,0.8","1","",""
"","html-keyboard-response","43","22844","0.0-43.0","3RWE2M8QWIWEZN9IZL6G04LOBKV0NF","ANOPPPGFNTUPN","3TKXBROM5TWR181JXBYSOI8FGFVJIU","","null","<img src=""img/land4.png"" style=""width:200px;border:14px solid red;"">","null","","","","","","","","","",""
"","image-keyboard-response","44","23054","0.0-44.0","3RWE2M8QWIWEZN9IZL6G04LOBKV0NF","ANOPPPGFNTUPN","3TKXBROM5TWR181JXBYSOI8FGFVJIU","","209","img/land2.png","75","211","2","0","1","1","0.8,0.2,0.2,0.2,0.8,0.2,0.2,0.2,0.8","0.8,0.2,0.2,0.2,0.8,0.2,0.2,0.2,0.8","1","",""
"","html-keyboard-response","45","23356","0.0-45.0","3RWE2M8QWIWEZN9IZL6G04LOBKV0NF","ANOPPPGFNTUPN","3TKXBROM5TWR181JXBYSOI8FGFVJIU","","null","<img src=""img/land2.png"" style=""width:200px;border:14px solid red;"">","null","","","","","","","","","",""
"","image-keyboard-response","46","23479","0.0-46.0","3RWE2M8QWIWEZN9IZL6G04LOBKV0NF","ANOPPPGFNTUPN","3TKXBROM5TWR181JXBYSOI8FGFVJIU","","121","img/land4.png","76","121","3","0","2","1","0.8,0.2,0.2,0.2,0.8,0.2,0.2,0.2,0.8","0.8,0.2,0.2,0.2,0.8,0.2,0.2,0.2,0.8","1","",""
"","html-keyboard-response","47","23782","0.0-47.0","3RWE2M8QWIWEZN9IZL6G04LOBKV0NF","ANOPPPGFNTUPN","3TKXBROM5TWR181JXBYSOI8FGFVJIU","","null","<img src=""img/land4.png"" style=""width:200px;border:14px solid red;"">","null","","","","","","","","","",""
"","image-keyboard-response","48","24032","0.0-48.0","3RWE2M8QWIWEZN9IZL6G04LOBKV0NF","ANOPPPGFNTUPN","3TKXBROM5TWR181JXBYSOI8FGFVJIU","","249","img/land1.png","74","250","1","0","3","1","0.8,0.2,0.2,0.2,0.8,0.2,0.2,0.2,0.8","0.8,0.2,0.2,0.2,0.8,0.2,0.2,0.2,0.8","1","",""
"","html-keyboard-response","49","24334","0.0-49.0","3RWE2M8QWIWEZN9IZL6G04LOBKV0NF","ANOPPPGFNTUPN","3TKXBROM5TWR181JXBYSOI8FGFVJIU","","null","<img src=""img/land1.png"" style=""width:200px;border:14px solid red;"">","null","","","","","","","","","",""
"","image-keyboard-response","50","24414","0.0-50.0","3RWE2M8QWIWEZN9IZL6G04LOBKV0NF","ANOPPPGFNTUPN","3TKXBROM5TWR181JXBYSOI8FGFVJIU","","78","img/land4.png","74","80","1","1","2","1","0.8,0.2,0.2,0.2,0.8,0.2,0.2,0.2,0.8","0.8,0.2,0.2,0.2,0.8,0.2,0.2,0.2,0.8","1","",""
"","html-keyboard-response","51","24716","0.0-51.0","3RWE2M8QWIWEZN9IZL6G04LOBKV0NF","ANOPPPGFNTUPN","3TKXBROM5TWR181JXBYSOI8FGFVJIU","","null","<img src=""img/land4.png"" style=""width:200px; border:14px solid green;"">","null","","","","","","","","","",""
"","image-keyboard-response","52","24818","0.0-52.0","3RWE2M8QWIWEZN9IZL6G04LOBKV0NF","ANOPPPGFNTUPN","3TKXBROM5TWR181JXBYSOI8FGFVJIU","","99","img/land4.png","74","100","1","0","2","1","0.8,0.2,0.2,0.2,0.8,0.2,0.2,0.2,0.8","0.8,0.2,0.2,0.2,0.8,0.2,0.2,0.2,0.8","1","",""
"","html-keyboard-response","53","25119","0.0-53.0","3RWE2M8QWIWEZN9IZL6G04LOBKV0NF","ANOPPPGFNTUPN","3TKXBROM5TWR181JXBYSOI8FGFVJIU","","null","<img src=""img/land4.png"" style=""width:200px;border:14px solid red;"">","null","","","","","","","","","",""
"","image-keyboard-response","54","25175","0.0-54.0","3RWE2M8QWIWEZN9IZL6G04LOBKV0NF","ANOPPPGFNTUPN","3TKXBROM5TWR181JXBYSOI8FGFVJIU","","50","img/land1.png","74","54","1","0","3","1","0.8,0.2,0.2,0.2,0.8,0.2,0.2,0.2,0.8","0.8,0.2,0.2,0.2,0.8,0.2,0.2,0.2,0.8","1","",""
"","html-keyboard-response","55","25489","0.0-55.0","3RWE2M8QWIWEZN9IZL6G04LOBKV0NF","ANOPPPGFNTUPN","3TKXBROM5TWR181JXBYSOI8FGFVJIU","","null","<img src=""img/land1.png"" style=""width:200px;border:14px solid red;"">","null","","","","","","","","","",""
"","image-keyboard-response","56","25544","0.0-56.0","3RWE2M8QWIWEZN9IZL6G04LOBKV0NF","ANOPPPGFNTUPN","3TKXBROM5TWR181JXBYSOI8FGFVJIU","","52","img/land4.png","74","55","1","0","2","1","0.8,0.2,0.2,0.2,0.8,0.2,0.2,0.2,0.8","0.8,0.2,0.2,0.2,0.8,0.2,0.2,0.2,0.8","1","",""
"","html-keyboard-response","57","25847","0.0-57.0","3RWE2M8QWIWEZN9IZL6G04LOBKV0NF","ANOPPPGFNTUPN","3TKXBROM5TWR181JXBYSOI8FGFVJIU","","null","<img src=""img/land4.png"" style=""width:200px;border:14px solid red;"">","null","","","","","","","","","",""
"","image-keyboard-response","58","26311","0.0-58.0","3RWE2M8QWIWEZN9IZL6G04LOBKV0NF","ANOPPPGFNTUPN","3TKXBROM5TWR181JXBYSOI8FGFVJIU","","461","img/land2.png","74","463","1","1","1","1","0.8,0.2,0.2,0.2,0.8,0.2,0.2,0.2,0.8","0.8,0.2,0.2,0.2,0.8,0.2,0.2,0.2,0.8","1","",""
"","html-keyboard-response","59","26615","0.0-59.0","3RWE2M8QWIWEZN9IZL6G04LOBKV0NF","ANOPPPGFNTUPN","3TKXBROM5TWR181JXBYSOI8FGFVJIU","","null","<img src=""img/land2.png"" style=""width:200px; border:14px solid green;"">","null","","","","","","","","","",""
"","image-keyboard-response","60","26703","0.0-60.0","3RWE2M8QWIWEZN9IZL6G04LOBKV0NF","ANOPPPGFNTUPN","3TKXBROM5TWR181JXBYSOI8FGFVJIU","","87","img/land2.png","75","89","2","0","1","1","0.8,0.2,0.2,0.2,0.8,0.2,0.2,0.2,0.8","0.8,0.2,0.2,0.2,0.8,0.2,0.2,0.2,0.8","1","",""
"","html-keyboard-response","61","27004","0.0-61.0","3RWE2M8QWIWEZN9IZL6G04LOBKV0NF","ANOPPPGFNTUPN","3TKXBROM5TWR181JXBYSOI8FGFVJIU","","null","<img src=""img/land2.png"" style=""width:200px;border:14px solid red;"">","null","","","","","","","","","",""
"","image-keyboard-response","62","27098","0.0-62.0","3RWE2M8QWIWEZN9IZL6G04LOBKV0NF","ANOPPPGFNTUPN","3TKXBROM5TWR181JXBYSOI8FGFVJIU","","90","img/land2.png","75","92","2","0","1","1","0.8,0.2,0.2,0.2,0.8,0.2,0.2,0.2,0.8","0.8,0.2,0.2,0.2,0.8,0.2,0.2,0.2,0.8","1","",""
"","html-keyboard-response","63","27399","0.0-63.0","3RWE2M8QWIWEZN9IZL6G04LOBKV0NF","ANOPPPGFNTUPN","3TKXBROM5TWR181JXBYSOI8FGFVJIU","","null","<img src=""img/land2.png"" style=""width:200px;border:14px solid red;"">","null","","","","","","","","","",""
"","image-keyboard-response","64","27649","0.0-64.0","3RWE2M8QWIWEZN9IZL6G04LOBKV0NF","ANOPPPGFNTUPN","3TKXBROM5TWR181JXBYSOI8FGFVJIU","","247","img/land4.png","74","249","1","0","2","1","0.8,0.2,0.2,0.2,0.8,0.2,0.2,0.2,0.8","0.8,0.2,0.2,0.2,0.8,0.2,0.2,0.2,0.8","1","",""
"","html-keyboard-response","65","27950","0.0-65.0","3RWE2M8QWIWEZN9IZL6G04LOBKV0NF","ANOPPPGFNTUPN","3TKXBROM5TWR181JXBYSOI8FGFVJIU","","null","<img src=""img/land4.png"" style=""width:200px;border:14px solid red;"">","null","","","","","","","","","",""
"","image-keyboard-response","66","27962","0.0-66.0","3RWE2M8QWIWEZN9IZL6G04LOBKV0NF","ANOPPPGFNTUPN","3TKXBROM5TWR181JXBYSOI8FGFVJIU","","10","img/land2.png","74","11","1","1","1","1","0.8,0.2,0.2,0.2,0.8,0.2,0.2,0.2,0.8","0.8,0.2,0.2,0.2,0.8,0.2,0.2,0.2,0.8","1","",""
"","html-keyboard-response","67","28352","0.0-67.0","3RWE2M8QWIWEZN9IZL6G04LOBKV0NF","ANOPPPGFNTUPN","3TKXBROM5TWR181JXBYSOI8FGFVJIU","","null","<img src=""img/land2.png"" style=""width:200px; border:14px solid green;"">","null","","","","","","","","","",""
"","image-keyboard-response","68","28467","0.0-68.0","3RWE2M8QWIWEZN9IZL6G04LOBKV0NF","ANOPPPGFNTUPN","3TKXBROM5TWR181JXBYSOI8FGFVJIU","","113","img/land2.png","74","115","1","1","1","1","0.8,0.2,0.2,0.2,0.8,0.2,0.2,0.2,0.8","0.8,0.2,0.2,0.2,0.8,0.2,0.2,0.2,0.8","1","",""
"","html-keyboard-response","69","28769","0.0-69.0","3RWE2M8QWIWEZN9IZL6G04LOBKV0NF","ANOPPPGFNTUPN","3TKXBROM5TWR181JXBYSOI8FGFVJIU","","null","<img src=""img/land2.png"" style=""width:200px; border:14px solid green;"">","null","","","","","","","","","",""
"","image-keyboard-response","70","29063","0.0-70.0","3RWE2M8QWIWEZN9IZL6G04LOBKV0NF","ANOPPPGFNTUPN","3TKXBROM5TWR181JXBYSOI8FGFVJIU","","293","img/land1.png","74","294","1","0","3","1","0.8,0.2,0.2,0.2,0.8,0.2,0.2,0.2,0.8","0.8,0.2,0.2,0.2,0.8,0.2,0.2,0.2,0.8","1","",""
"","html-keyboard-response","71","29365","0.0-71.0","3RWE2M8QWIWEZN9IZL6G04LOBKV0NF","ANOPPPGFNTUPN","3TKXBROM5TWR181JXBYSOI8FGFVJIU","","null","<img src=""img/land1.png"" style=""width:200px;border:14px solid red;"">","null","","","","","","","","","",""
"","image-keyboard-response","72","29376","0.0-72.0","3RWE2M8QWIWEZN9IZL6G04LOBKV0NF","ANOPPPGFNTUPN","3TKXBROM5TWR181JXBYSOI8FGFVJIU","","10","img/land4.png","74","10","1","1","2","1","0.8,0.2,0.2,0.2,0.8,0.2,0.2,0.2,0.8","0.8,0.2,0.2,0.2,0.8,0.2,0.2,0.2,0.8","1","",""
"","html-keyboard-response","73","29680","0.0-73.0","3RWE2M8QWIWEZN9IZL6G04LOBKV0NF","ANOPPPGFNTUPN","3TKXBROM5TWR181JXBYSOI8FGFVJIU","","null","<img src=""img/land4.png"" style=""width:200px; border:14px solid green;"">","null","","","","","","","","","",""
"","image-keyboard-response","74","29705","0.0-74.0","3RWE2M8QWIWEZN9IZL6G04LOBKV0NF","ANOPPPGFNTUPN","3TKXBROM5TWR181JXBYSOI8FGFVJIU","","23","img/land1.png","74","24","1","0","3","1","0.8,0.2,0.2,0.2,0.8,0.2,0.2,0.2,0.8","0.8,0.2,0.2,0.2,0.8,0.2,0.2,0.2,0.8","1","",""
"","html-keyboard-response","75","30007","0.0-75.0","3RWE2M8QWIWEZN9IZL6G04LOBKV0NF","ANOPPPGFNTUPN","3TKXBROM5TWR181JXBYSOI8FGFVJIU","","null","<img src=""img/land1.png"" style=""width:200px;border:14px solid red;"">","null","","","","","","","","","",""
"","image-keyboard-response","76","30019","0.0-76.0","3RWE2M8QWIWEZN9IZL6G04LOBKV0NF","ANOPPPGFNTUPN","3TKXBROM5TWR181JXBYSOI8FGFVJIU","","9","img/land4.png","74","11","1","0","2","1","0.8,0.2,0.2,0.2,0.8,0.2,0.2,0.2,0.8","0.8,0.2,0.2,0.2,0.8,0.2,0.2,0.2,0.8","1","",""
"","html-keyboard-response","77","30321","0.0-77.0","3RWE2M8QWIWEZN9IZL6G04LOBKV0NF","ANOPPPGFNTUPN","3TKXBROM5TWR181JXBYSOI8FGFVJIU","","null","<img src=""img/land4.png"" style=""width:200px;border:14px solid red;"">","null","","","","","","","","","",""
"","image-keyboard-response","78","30737","0.0-78.0","3RWE2M8QWIWEZN9IZL6G04LOBKV0NF","ANOPPPGFNTUPN","3TKXBROM5TWR181JXBYSOI8FGFVJIU","","414","img/land4.png","74","415","1","0","2","1","0.8,0.2,0.2,0.2,0.8,0.2,0.2,0.2,0.8","0.8,0.2,0.2,0.2,0.8,0.2,0.2,0.2,0.8","1","",""
"","html-keyboard-response","79","31038","0.0-79.0","3RWE2M8QWIWEZN9IZL6G04LOBKV0NF","ANOPPPGFNTUPN","3TKXBROM5TWR181JXBYSOI8FGFVJIU","","null","<img src=""img/land4.png"" style=""width:200px;border:14px solid red;"">","null","","","","","","","","","",""
"","image-keyboard-response","80","31232","0.0-80.0","3RWE2M8QWIWEZN9IZL6G04LOBKV0NF","ANOPPPGFNTUPN","3TKXBROM5TWR181JXBYSOI8FGFVJIU","","192","img/land4.png","76","193","3","1","2","1","0.8,0.2,0.2,0.2,0.8,0.2,0.2,0.2,0.8","0.8,0.2,0.2,0.2,0.8,0.2,0.2,0.2,0.8","1","",""
"","html-keyboard-response","81","31534","0.0-81.0","3RWE2M8QWIWEZN9IZL6G04LOBKV0NF","ANOPPPGFNTUPN","3TKXBROM5TWR181JXBYSOI8FGFVJIU","","null","<img src=""img/land4.png"" style=""width:200px; border:14px solid green;"">","null","","","","","","","","","",""
"","image-keyboard-response","82","31567","0.0-82.0","3RWE2M8QWIWEZN9IZL6G04LOBKV0NF","ANOPPPGFNTUPN","3TKXBROM5TWR181JXBYSOI8FGFVJIU","","31","img/land2.png","76","32","3","0","1","1","0.8,0.2,0.2,0.2,0.8,0.2,0.2,0.2,0.8","0.8,0.2,0.2,0.2,0.8,0.2,0.2,0.2,0.8","1","",""
"","html-keyboard-response","83","31868","0.0-83.0","3RWE2M8QWIWEZN9IZL6G04LOBKV0NF","ANOPPPGFNTUPN","3TKXBROM5TWR181JXBYSOI8FGFVJIU","","null","<img src=""img/land2.png"" style=""width:200px;border:14px solid red;"">","null","","","","","","","","","",""
"","image-keyboard-response","84","31936","0.0-84.0","3RWE2M8QWIWEZN9IZL6G04LOBKV0NF","ANOPPPGFNTUPN","3TKXBROM5TWR181JXBYSOI8FGFVJIU","","66","img/land4.png","75","68","2","1","2","1","0.8,0.2,0.2,0.2,0.8,0.2,0.2,0.2,0.8","0.8,0.2,0.2,0.2,0.8,0.2,0.2,0.2,0.8","1","",""
"","html-keyboard-response","85","32238","0.0-85.0","3RWE2M8QWIWEZN9IZL6G04LOBKV0NF","ANOPPPGFNTUPN","3TKXBROM5TWR181JXBYSOI8FGFVJIU","","null","<img src=""img/land4.png"" style=""width:200px; border:14px solid green;"">","null","","","","","","","","","",""
"","image-keyboard-response","86","32324","0.0-86.0","3RWE2M8QWIWEZN9IZL6G04LOBKV0NF","ANOPPPGFNTUPN","3TKXBROM5TWR181JXBYSOI8FGFVJIU","","85","img/land1.png","75","85","2","1","3","1","0.8,0.2,0.2,0.2,0.8,0.2,0.2,0.2,0.8","0.8,0.2,0.2,0.2,0.8,0.2,0.2,0.2,0.8","1","",""
"","html-keyboard-response","87","32627","0.0-87.0","3RWE2M8QWIWEZN9IZL6G04LOBKV0NF","ANOPPPGFNTUPN","3TKXBROM5TWR181JXBYSOI8FGFVJIU","","null","<img src=""img/land1.png"" style=""width:200px; border:14px solid green;"">","null","","","","","","","","","",""
"","image-keyboard-response","88","32754","0.0-88.0","3RWE2M8QWIWEZN9IZL6G04LOBKV0NF","ANOPPPGFNTUPN","3TKXBROM5TWR181JXBYSOI8FGFVJIU","","125","img/land1.png","76","126","3","1","3","1","0.8,0.2,0.2,0.2,0.8,0.2,0.2,0.2,0.8","0.8,0.2,0.2,0.2,0.8,0.2,0.2,0.2,0.8","1","",""
"","html-keyboard-response","89","33055","0.0-89.0","3RWE2M8QWIWEZN9IZL6G04LOBKV0NF","ANOPPPGFNTUPN","3TKXBROM5TWR181JXBYSOI8FGFVJIU","","null","<img src=""img/land1.png"" style=""width:200px; border:14px solid green;"">","null","","","","","","","","","",""
"","image-keyboard-response","90","33248","0.0-90.0","3RWE2M8QWIWEZN9IZL6G04LOBKV0NF","ANOPPPGFNTUPN","3TKXBROM5TWR181JXBYSOI8FGFVJIU","","191","img/land1.png","75","192","2","0","3","1","0.8,0.2,0.2,0.2,0.8,0.2,0.2,0.2,0.8","0.8,0.2,0.2,0.2,0.8,0.2,0.2,0.2,0.8","1","",""
"","html-keyboard-response","91","33550","0.0-91.0","3RWE2M8QWIWEZN9IZL6G04LOBKV0NF","ANOPPPGFNTUPN","3TKXBROM5TWR181JXBYSOI8FGFVJIU","","null","<img src=""img/land1.png"" style=""width:200px;border:14px solid red;"">","null","","","","","","","","","",""
"","image-keyboard-response","92","33855","0.0-92.0","3RWE2M8QWIWEZN9IZL6G04LOBKV0NF","ANOPPPGFNTUPN","3TKXBROM5TWR181JXBYSOI8FGFVJIU","","304","img/land4.png","76","305","3","0","2","1","0.8,0.2,0.2,0.2,0.8,0.2,0.2,0.2,0.8","0.8,0.2,0.2,0.2,0.8,0.2,0.2,0.2,0.8","1","",""
"","html-keyboard-response","93","34167","0.0-93.0","3RWE2M8QWIWEZN9IZL6G04LOBKV0NF","ANOPPPGFNTUPN","3TKXBROM5TWR181JXBYSOI8FGFVJIU","","null","<img src=""img/land4.png"" style=""width:200px;border:14px solid red;"">","null","","","","","","","","","",""
"","image-keyboard-response","94","34328","0.0-94.0","3RWE2M8QWIWEZN9IZL6G04LOBKV0NF","ANOPPPGFNTUPN","3TKXBROM5TWR181JXBYSOI8FGFVJIU","","158","img/land2.png","75","161","2","0","1","1","0.8,0.2,0.2,0.2,0.8,0.2,0.2,0.2,0.8","0.8,0.2,0.2,0.2,0.8,0.2,0.2,0.2,0.8","1","",""
"","html-keyboard-response","95","34629","0.0-95.0","3RWE2M8QWIWEZN9IZL6G04LOBKV0NF","ANOPPPGFNTUPN","3TKXBROM5TWR181JXBYSOI8FGFVJIU","","null","<img src=""img/land2.png"" style=""width:200px;border:14px solid red;"">","null","","","","","","","","","",""
"","image-keyboard-response","96","34832","0.0-96.0","3RWE2M8QWIWEZN9IZL6G04LOBKV0NF","ANOPPPGFNTUPN","3TKXBROM5TWR181JXBYSOI8FGFVJIU","","200","img/land1.png","75","201","2","1","3","1","0.8,0.2,0.2,0.2,0.8,0.2,0.2,0.2,0.8","0.8,0.2,0.2,0.2,0.8,0.2,0.2,0.2,0.8","1","",""
"","html-keyboard-response","97","35135","0.0-97.0","3RWE2M8QWIWEZN9IZL6G04LOBKV0NF","ANOPPPGFNTUPN","3TKXBROM5TWR181JXBYSOI8FGFVJIU","","null","<img src=""img/land1.png"" style=""width:200px; border:14px solid green;"">","null","","","","","","","","","",""
"","image-keyboard-response","98","35335","0.0-98.0","3RWE2M8QWIWEZN9IZL6G04LOBKV0NF","ANOPPPGFNTUPN","3TKXBROM5TWR181JXBYSOI8FGFVJIU","","198","img/land1.png","74","200","1","0","3","1","0.8,0.2,0.2,0.2,0.8,0.2,0.2,0.2,0.8","0.8,0.2,0.2,0.2,0.8,0.2,0.2,0.2,0.8","1","",""
"","html-keyboard-response","99","35678","0.0-99.0","3RWE2M8QWIWEZN9IZL6G04LOBKV0NF","ANOPPPGFNTUPN","3TKXBROM5TWR181JXBYSOI8FGFVJIU","","null","<img src=""img/land1.png"" style=""width:200px;border:14px solid red;"">","null","","","","","","","","","",""
"","image-keyboard-response","100","36070","0.0-100.0","3RWE2M8QWIWEZN9IZL6G04LOBKV0NF","ANOPPPGFNTUPN","3TKXBROM5TWR181JXBYSOI8FGFVJIU","","390","img/land2.png","75","392","2","0","1","1","0.8,0.2,0.2,0.2,0.8,0.2,0.2,0.2,0.8","0.8,0.2,0.2,0.2,0.8,0.2,0.2,0.2,0.8","1","",""
"","html-keyboard-response","101","36374","0.0-101.0","3RWE2M8QWIWEZN9IZL6G04LOBKV0NF","ANOPPPGFNTUPN","3TKXBROM5TWR181JXBYSOI8FGFVJIU","","null","<img src=""img/land2.png"" style=""width:200px;border:14px solid red;"">","null","","","","","","","","","",""
"","image-keyboard-response","102","36607","0.0-102.0","3RWE2M8QWIWEZN9IZL6G04LOBKV0NF","ANOPPPGFNTUPN","3TKXBROM5TWR181JXBYSOI8FGFVJIU","","229","img/land4.png","75","231","2","1","2","1","0.8,0.2,0.2,0.2,0.8,0.2,0.2,0.2,0.8","0.8,0.2,0.2,0.2,0.8,0.2,0.2,0.2,0.8","1","",""
"","html-keyboard-response","103","36908","0.0-103.0","3RWE2M8QWIWEZN9IZL6G04LOBKV0NF","ANOPPPGFNTUPN","3TKXBROM5TWR181JXBYSOI8FGFVJIU","","null","<img src=""img/land4.png"" style=""width:200px; border:14px solid green;"">","null","","","","","","","","","",""
"","image-keyboard-response","104","37152","0.0-104.0","3RWE2M8QWIWEZN9IZL6G04LOBKV0NF","ANOPPPGFNTUPN","3TKXBROM5TWR181JXBYSOI8FGFVJIU","","242","img/land4.png","74","243","1","0","2","1","0.8,0.2,0.2,0.2,0.8,0.2,0.2,0.2,0.8","0.8,0.2,0.2,0.2,0.8,0.2,0.2,0.2,0.8","1","",""
"","html-keyboard-response","105","37455","0.0-105.0","3RWE2M8QWIWEZN9IZL6G04LOBKV0NF","ANOPPPGFNTUPN","3TKXBROM5TWR181JXBYSOI8FGFVJIU","","null","<img src=""img/land4.png"" style=""width:200px;border:14px solid red;"">","null","","","","","","","","","",""
"","image-keyboard-response","106","37738","0.0-106.0","3RWE2M8QWIWEZN9IZL6G04LOBKV0NF","ANOPPPGFNTUPN","3TKXBROM5TWR181JXBYSOI8FGFVJIU","","282","img/land1.png","75","282","2","0","3","1","0.8,0.2,0.2,0.2,0.8,0.2,0.2,0.2,0.8","0.8,0.2,0.2,0.2,0.8,0.2,0.2,0.2,0.8","1","",""
"","html-keyboard-response","107","38039","0.0-107.0","3RWE2M8QWIWEZN9IZL6G04LOBKV0NF","ANOPPPGFNTUPN","3TKXBROM5TWR181JXBYSOI8FGFVJIU","","null","<img src=""img/land1.png"" style=""width:200px;border:14px solid red;"">","null","","","","","","","","","",""
"","image-keyboard-response","108","38168","0.0-108.0","3RWE2M8QWIWEZN9IZL6G04LOBKV0NF","ANOPPPGFNTUPN","3TKXBROM5TWR181JXBYSOI8FGFVJIU","","127","img/land1.png","75","128","2","0","3","1","0.8,0.2,0.2,0.2,0.8,0.2,0.2,0.2,0.8","0.8,0.2,0.2,0.2,0.8,0.2,0.2,0.2,0.8","1","",""
"","html-keyboard-response","109","38469","0.0-109.0","3RWE2M8QWIWEZN9IZL6G04LOBKV0NF","ANOPPPGFNTUPN","3TKXBROM5TWR181JXBYSOI8FGFVJIU","","null","<img src=""img/land1.png"" style=""width:200px;border:14px solid red;"">","null","","","","","","","","","",""
"","image-keyboard-response","110","38769","0.0-110.0","3RWE2M8QWIWEZN9IZL6G04LOBKV0NF","ANOPPPGFNTUPN","3TKXBROM5TWR181JXBYSOI8FGFVJIU","","298","img/land4.png","76","299","3","1","2","1","0.8,0.2,0.2,0.2,0.8,0.2,0.2,0.2,0.8","0.8,0.2,0.2,0.2,0.8,0.2,0.2,0.2,0.8","1","",""
"","html-keyboard-response","111","39072","0.0-111.0","3RWE2M8QWIWEZN9IZL6G04LOBKV0NF","ANOPPPGFNTUPN","3TKXBROM5TWR181JXBYSOI8FGFVJIU","","null","<img src=""img/land4.png"" style=""width:200px; border:14px solid green;"">","null","","","","","","","","","",""
"","image-keyboard-response","112","39201","0.0-112.0","3RWE2M8QWIWEZN9IZL6G04LOBKV0NF","ANOPPPGFNTUPN","3TKXBROM5TWR181JXBYSOI8FGFVJIU","","127","img/land2.png","76","128","3","0","1","1","0.8,0.2,0.2,0.2,0.8,0.2,0.2,0.2,0.8","0.8,0.2,0.2,0.2,0.8,0.2,0.2,0.2,0.8","1","",""
"","html-keyboard-response","113","39502","0.0-113.0","3RWE2M8QWIWEZN9IZL6G04LOBKV0NF","ANOPPPGFNTUPN","3TKXBROM5TWR181JXBYSOI8FGFVJIU","","null","<img src=""img/land2.png"" style=""width:200px;border:14px solid red;"">","null","","","","","","","","","",""
"","image-keyboard-response","114","39585","0.0-114.0","3RWE2M8QWIWEZN9IZL6G04LOBKV0NF","ANOPPPGFNTUPN","3TKXBROM5TWR181JXBYSOI8FGFVJIU","","80","img/land2.png","76","82","3","0","1","1","0.8,0.2,0.2,0.2,0.8,0.2,0.2,0.2,0.8","0.8,0.2,0.2,0.2,0.8,0.2,0.2,0.2,0.8","1","",""
"","html-keyboard-response","115","39887","0.0-115.0","3RWE2M8QWIWEZN9IZL6G04LOBKV0NF","ANOPPPGFNTUPN","3TKXBROM5TWR181JXBYSOI8FGFVJIU","","null","<img src=""img/land2.png"" style=""width:200px;border:14px solid red;"">","null","","","","","","","","","",""
"","image-keyboard-response","116","39944","0.0-116.0","3RWE2M8QWIWEZN9IZL6G04LOBKV0NF","ANOPPPGFNTUPN","3TKXBROM5TWR181JXBYSOI8FGFVJIU","","51","img/land2.png","75","53","2","1","1","1","0.8,0.2,0.2,0.2,0.8,0.2,0.2,0.2,0.8","0.8,0.2,0.2,0.2,0.8,0.2,0.2,0.2,0.8","1","",""
"","html-keyboard-response","117","40245","0.0-117.0","3RWE2M8QWIWEZN9IZL6G04LOBKV0NF","ANOPPPGFNTUPN","3TKXBROM5TWR181JXBYSOI8FGFVJIU","","null","<img src=""img/land2.png"" style=""width:200px; border:14px solid green;"">","null","","","","","","","","","",""
"","image-keyboard-response","118","40312","0.0-118.0","3RWE2M8QWIWEZN9IZL6G04LOBKV0NF","ANOPPPGFNTUPN","3TKXBROM5TWR181JXBYSOI8FGFVJIU","","65","img/land2.png","75","66","2","1","1","1","0.8,0.2,0.2,0.2,0.8,0.2,0.2,0.2,0.8","0.8,0.2,0.2,0.2,0.8,0.2,0.2,0.2,0.8","1","",""
"","html-keyboard-response","119","40615","0.0-119.0","3RWE2M8QWIWEZN9IZL6G04LOBKV0NF","ANOPPPGFNTUPN","3TKXBROM5TWR181JXBYSOI8FGFVJIU","","null","<img src=""img/land2.png"" style=""width:200px; border:14px solid green;"">","null","","","","","","","","","",""
"","image-keyboard-response","120","40661","0.0-120.0","3RWE2M8QWIWEZN9IZL6G04LOBKV0NF","ANOPPPGFNTUPN","3TKXBROM5TWR181JXBYSOI8FGFVJIU","","44","img/land2.png","75","45","2","0","1","1","0.8,0.2,0.2,0.2,0.8,0.2,0.2,0.2,0.8","0.8,0.2,0.2,0.2,0.8,0.2,0.2,0.2,0.8","1","",""
"","html-keyboard-response","121","40963","0.0-121.0","3RWE2M8QWIWEZN9IZL6G04LOBKV0NF","ANOPPPGFNTUPN","3TKXBROM5TWR181JXBYSOI8FGFVJIU","","null","<img src=""img/land2.png"" style=""width:200px;border:14px solid red;"">","null","","","","","","","","","",""
"","image-keyboard-response","122","41031","0.0-122.0","3RWE2M8QWIWEZN9IZL6G04LOBKV0NF","ANOPPPGFNTUPN","3TKXBROM5TWR181JXBYSOI8FGFVJIU","","67","img/land4.png","75","67","2","1","2","1","0.8,0.2,0.2,0.2,0.8,0.2,0.2,0.2,0.8","0.8,0.2,0.2,0.2,0.8,0.2,0.2,0.2,0.8","1","",""
"","html-keyboard-response","123","41334","0.0-123.0","3RWE2M8QWIWEZN9IZL6G04LOBKV0NF","ANOPPPGFNTUPN","3TKXBROM5TWR181JXBYSOI8FGFVJIU","","null","<img src=""img/land4.png"" style=""width:200px; border:14px solid green;"">","null","","","","","","","","","",""
"","image-keyboard-response","124","41473","0.0-124.0","3RWE2M8QWIWEZN9IZL6G04LOBKV0NF","ANOPPPGFNTUPN","3TKXBROM5TWR181JXBYSOI8FGFVJIU","","138","img/land2.png","76","140","3","1","1","1","0.8,0.2,0.2,0.2,0.8,0.2,0.2,0.2,0.8","0.8,0.2,0.2,0.2,0.8,0.2,0.2,0.2,0.8","1","",""
"","html-keyboard-response","125","41777","0.0-125.0","3RWE2M8QWIWEZN9IZL6G04LOBKV0NF","ANOPPPGFNTUPN","3TKXBROM5TWR181JXBYSOI8FGFVJIU","","null","<img src=""img/land2.png"" style=""width:200px; border:14px solid green;"">","null","","","","","","","","","",""
"","image-keyboard-response","126","41863","0.0-126.0","3RWE2M8QWIWEZN9IZL6G04LOBKV0NF","ANOPPPGFNTUPN","3TKXBROM5TWR181JXBYSOI8FGFVJIU","","83","img/land1.png","75","86","2","0","3","1","0.8,0.2,0.2,0.2,0.8,0.2,0.2,0.2,0.8","0.8,0.2,0.2,0.2,0.8,0.2,0.2,0.2,0.8","1","",""
"","html-keyboard-response","127","42165","0.0-127.0","3RWE2M8QWIWEZN9IZL6G04LOBKV0NF","ANOPPPGFNTUPN","3TKXBROM5TWR181JXBYSOI8FGFVJIU","","null","<img src=""img/land1.png"" style=""width:200px;border:14px solid red;"">","null","","","","","","","","","",""
"","image-keyboard-response","128","42472","0.0-128.0","3RWE2M8QWIWEZN9IZL6G04LOBKV0NF","ANOPPPGFNTUPN","3TKXBROM5TWR181JXBYSOI8FGFVJIU","","304","img/land2.png","75","306","2","0","1","1","0.8,0.2,0.2,0.2,0.8,0.2,0.2,0.2,0.8","0.8,0.2,0.2,0.2,0.8,0.2,0.2,0.2,0.8","1","",""
"","html-keyboard-response","129","42775","0.0-129.0","3RWE2M8QWIWEZN9IZL6G04LOBKV0NF","ANOPPPGFNTUPN","3TKXBROM5TWR181JXBYSOI8FGFVJIU","","null","<img src=""img/land2.png"" style=""width:200px;border:14px solid red;"">","null","","","","","","","","","",""
"","image-keyboard-response","130","43186","0.0-130.0","3RWE2M8QWIWEZN9IZL6G04LOBKV0NF","ANOPPPGFNTUPN","3TKXBROM5TWR181JXBYSOI8FGFVJIU","","409","img/land2.png","75","411","2","0","1","1","0.8,0.2,0.2,0.2,0.8,0.2,0.2,0.2,0.8","0.8,0.2,0.2,0.2,0.8,0.2,0.2,0.2,0.8","1","",""
"","html-keyboard-response","131","43488","0.0-131.0","3RWE2M8QWIWEZN9IZL6G04LOBKV0NF","ANOPPPGFNTUPN","3TKXBROM5TWR181JXBYSOI8FGFVJIU","","null","<img src=""img/land2.png"" style=""width:200px;border:14px solid red;"">","null","","","","","","","","","",""
"","image-keyboard-response","132","43522","0.0-132.0","3RWE2M8QWIWEZN9IZL6G04LOBKV0NF","ANOPPPGFNTUPN","3TKXBROM5TWR181JXBYSOI8FGFVJIU","","32","img/land2.png","76","33","3","1","1","1","0.8,0.2,0.2,0.2,0.8,0.2,0.2,0.2,0.8","0.8,0.2,0.2,0.2,0.8,0.2,0.2,0.2,0.8","1","",""
"","html-keyboard-response","133","43824","0.0-133.0","3RWE2M8QWIWEZN9IZL6G04LOBKV0NF","ANOPPPGFNTUPN","3TKXBROM5TWR181JXBYSOI8FGFVJIU","","null","<img src=""img/land2.png"" style=""width:200px; border:14px solid green;"">","null","","","","","","","","","",""
"","image-keyboard-response","134","43903","0.0-134.0","3RWE2M8QWIWEZN9IZL6G04LOBKV0NF","ANOPPPGFNTUPN","3TKXBROM5TWR181JXBYSOI8FGFVJIU","","77","img/land4.png","75","78","2","1","2","1","0.8,0.2,0.2,0.2,0.8,0.2,0.2,0.2,0.8","0.8,0.2,0.2,0.2,0.8,0.2,0.2,0.2,0.8","1","",""
"","html-keyboard-response","135","44204","0.0-135.0","3RWE2M8QWIWEZN9IZL6G04LOBKV0NF","ANOPPPGFNTUPN","3TKXBROM5TWR181JXBYSOI8FGFVJIU","","null","<img src=""img/land4.png"" style=""width:200px; border:14px solid green;"">","null","","","","","","","","","",""
"","image-keyboard-response","136","44250","0.0-136.0","3RWE2M8QWIWEZN9IZL6G04LOBKV0NF","ANOPPPGFNTUPN","3TKXBROM5TWR181JXBYSOI8FGFVJIU","","43","img/land2.png","74","46","1","1","1","1","0.8,0.2,0.2,0.2,0.8,0.2,0.2,0.2,0.8","0.8,0.2,0.2,0.2,0.8,0.2,0.2,0.2,0.8","1","",""
"","html-keyboard-response","137","44554","0.0-137.0","3RWE2M8QWIWEZN9IZL6G04LOBKV0NF","ANOPPPGFNTUPN","3TKXBROM5TWR181JXBYSOI8FGFVJIU","","null","<img src=""img/land2.png"" style=""width:200px; border:14px solid green;"">","null","","","","","","","","","",""
"","image-keyboard-response","138","44840","0.0-138.0","3RWE2M8QWIWEZN9IZL6G04LOBKV0NF","ANOPPPGFNTUPN","3TKXBROM5TWR181JXBYSOI8FGFVJIU","","285","img/land2.png","76","287","3","1","1","1","0.8,0.2,0.2,0.2,0.8,0.2,0.2,0.2,0.8","0.8,0.2,0.2,0.2,0.8,0.2,0.2,0.2,0.8","1","",""
"","html-keyboard-response","139","45144","0.0-139.0","3RWE2M8QWIWEZN9IZL6G04LOBKV0NF","ANOPPPGFNTUPN","3TKXBROM5TWR181JXBYSOI8FGFVJIU","","null","<img src=""img/land2.png"" style=""width:200px; border:14px solid green;"">","null","","","","","","","","","",""
"","image-keyboard-response","140","45149","0.0-140.0","3RWE2M8QWIWEZN9IZL6G04LOBKV0NF","ANOPPPGFNTUPN","3TKXBROM5TWR181JXBYSOI8FGFVJIU","","1","img/land4.png","75","2","2","0","2","1","0.8,0.2,0.2,0.2,0.8,0.2,0.2,0.2,0.8","0.8,0.2,0.2,0.2,0.8,0.2,0.2,0.2,0.8","1","",""
"","html-keyboard-response","141","45450","0.0-141.0","3RWE2M8QWIWEZN9IZL6G04LOBKV0NF","ANOPPPGFNTUPN","3TKXBROM5TWR181JXBYSOI8FGFVJIU","","null","<img src=""img/land4.png"" style=""width:200px;border:14px solid red;"">","null","","","","","","","","","",""
"","image-keyboard-response","142","45639","0.0-142.0","3RWE2M8QWIWEZN9IZL6G04LOBKV0NF","ANOPPPGFNTUPN","3TKXBROM5TWR181JXBYSOI8FGFVJIU","","186","img/land4.png","75","188","2","0","2","1","0.8,0.2,0.2,0.2,0.8,0.2,0.2,0.2,0.8","0.8,0.2,0.2,0.2,0.8,0.2,0.2,0.2,0.8","1","",""
"","html-keyboard-response","143","45941","0.0-143.0","3RWE2M8QWIWEZN9IZL6G04LOBKV0NF","ANOPPPGFNTUPN","3TKXBROM5TWR181JXBYSOI8FGFVJIU","","null","<img src=""img/land4.png"" style=""width:200px;border:14px solid red;"">","null","","","","","","","","","",""
"","image-keyboard-response","144","45967","0.0-144.0","3RWE2M8QWIWEZN9IZL6G04LOBKV0NF","ANOPPPGFNTUPN","3TKXBROM5TWR181JXBYSOI8FGFVJIU","","25","img/land1.png","76","26","3","1","3","1","0.8,0.2,0.2,0.2,0.8,0.2,0.2,0.2,0.8","0.8,0.2,0.2,0.2,0.8,0.2,0.2,0.2,0.8","1","",""
"","html-keyboard-response","145","46269","0.0-145.0","3RWE2M8QWIWEZN9IZL6G04LOBKV0NF","ANOPPPGFNTUPN","3TKXBROM5TWR181JXBYSOI8FGFVJIU","","null","<img src=""img/land1.png"" style=""width:200px; border:14px solid green;"">","null","","","","","","","","","",""
"","image-keyboard-response","146","46390","0.0-146.0","3RWE2M8QWIWEZN9IZL6G04LOBKV0NF","ANOPPPGFNTUPN","3TKXBROM5TWR181JXBYSOI8FGFVJIU","","120","img/land2.png","75","121","2","0","1","1","0.8,0.2,0.2,0.2,0.8,0.2,0.2,0.2,0.8","0.8,0.2,0.2,0.2,0.8,0.2,0.2,0.2,0.8","1","",""
"","html-keyboard-response","147","46693","0.0-147.0","3RWE2M8QWIWEZN9IZL6G04LOBKV0NF","ANOPPPGFNTUPN","3TKXBROM5TWR181JXBYSOI8FGFVJIU","","null","<img src=""img/land2.png"" style=""width:200px;border:14px solid red;"">","null","","","","","","","","","",""
"","image-keyboard-response","148","46777","0.0-148.0","3RWE2M8QWIWEZN9IZL6G04LOBKV0NF","ANOPPPGFNTUPN","3TKXBROM5TWR181JXBYSOI8FGFVJIU","","82","img/land2.png","74","83","1","1","1","1","0.8,0.2,0.2,0.2,0.8,0.2,0.2,0.2,0.8","0.8,0.2,0.2,0.2,0.8,0.2,0.2,0.2,0.8","1","",""
"","html-keyboard-response","149","47078","0.0-149.0","3RWE2M8QWIWEZN9IZL6G04LOBKV0NF","ANOPPPGFNTUPN","3TKXBROM5TWR181JXBYSOI8FGFVJIU","","null","<img src=""img/land2.png"" style=""width:200px; border:14px solid green;"">","null","","","","","","","","","",""
"","image-keyboard-response","150","47138","0.0-150.0","3RWE2M8QWIWEZN9IZL6G04LOBKV0NF","ANOPPPGFNTUPN","3TKXBROM5TWR181JXBYSOI8FGFVJIU","","57","img/land1.png","76","59","3","1","3","1","0.8,0.2,0.2,0.2,0.8,0.2,0.2,0.2,0.8","0.8,0.2,0.2,0.2,0.8,0.2,0.2,0.2,0.8","1","",""
"","html-keyboard-response","151","47439","0.0-151.0","3RWE2M8QWIWEZN9IZL6G04LOBKV0NF","ANOPPPGFNTUPN","3TKXBROM5TWR181JXBYSOI8FGFVJIU","","null","<img src=""img/land1.png"" style=""width:200px; border:14px solid green;"">","null","","","","","","","","","",""
"","image-keyboard-response","152","47553","0.0-152.0","3RWE2M8QWIWEZN9IZL6G04LOBKV0NF","ANOPPPGFNTUPN","3TKXBROM5TWR181JXBYSOI8FGFVJIU","","113","img/land1.png","75","113","2","0","3","1","0.8,0.2,0.2,0.2,0.8,0.2,0.2,0.2,0.8","0.8,0.2,0.2,0.2,0.8,0.2,0.2,0.2,0.8","1","",""
"","html-keyboard-response","153","47856","0.0-153.0","3RWE2M8QWIWEZN9IZL6G04LOBKV0NF","ANOPPPGFNTUPN","3TKXBROM5TWR181JXBYSOI8FGFVJIU","","null","<img src=""img/land1.png"" style=""width:200px;border:14px solid red;"">","null","","","","","","","","","",""
"","image-keyboard-response","154","47922","0.0-154.0","3RWE2M8QWIWEZN9IZL6G04LOBKV0NF","ANOPPPGFNTUPN","3TKXBROM5TWR181JXBYSOI8FGFVJIU","","56","img/land4.png","74","65","1","0","2","1","0.8,0.2,0.2,0.2,0.8,0.2,0.2,0.2,0.8","0.8,0.2,0.2,0.2,0.8,0.2,0.2,0.2,0.8","1","",""
"","html-keyboard-response","155","48225","0.0-155.0","3RWE2M8QWIWEZN9IZL6G04LOBKV0NF","ANOPPPGFNTUPN","3TKXBROM5TWR181JXBYSOI8FGFVJIU","","null","<img src=""img/land4.png"" style=""width:200px;border:14px solid red;"">","null","","","","","","","","","",""
"","image-keyboard-response","156","48353","0.0-156.0","3RWE2M8QWIWEZN9IZL6G04LOBKV0NF","ANOPPPGFNTUPN","3TKXBROM5TWR181JXBYSOI8FGFVJIU","","125","img/land2.png","76","127","3","0","1","1","0.8,0.2,0.2,0.2,0.8,0.2,0.2,0.2,0.8","0.8,0.2,0.2,0.2,0.8,0.2,0.2,0.2,0.8","1","",""
"","html-keyboard-response","157","48655","0.0-157.0","3RWE2M8QWIWEZN9IZL6G04LOBKV0NF","ANOPPPGFNTUPN","3TKXBROM5TWR181JXBYSOI8FGFVJIU","","null","<img src=""img/land2.png"" style=""width:200px;border:14px solid red;"">","null","","","","","","","","","",""
"","image-keyboard-response","158","48738","0.0-158.0","3RWE2M8QWIWEZN9IZL6G04LOBKV0NF","ANOPPPGFNTUPN","3TKXBROM5TWR181JXBYSOI8FGFVJIU","","81","img/land2.png","75","82","2","0","1","1","0.8,0.2,0.2,0.2,0.8,0.2,0.2,0.2,0.8","0.8,0.2,0.2,0.2,0.8,0.2,0.2,0.2,0.8","1","",""
"","html-keyboard-response","159","49041","0.0-159.0","3RWE2M8QWIWEZN9IZL6G04LOBKV0NF","ANOPPPGFNTUPN","3TKXBROM5TWR181JXBYSOI8FGFVJIU","","null","<img src=""img/land2.png"" style=""width:200px;border:14px solid red;"">","null","","","","","","","","","",""
"","image-keyboard-response","160","49169","0.0-160.0","3RWE2M8QWIWEZN9IZL6G04LOBKV0NF","ANOPPPGFNTUPN","3TKXBROM5TWR181JXBYSOI8FGFVJIU","","125","img/land2.png","75","127","2","0","1","1","0.8,0.2,0.2,0.2,0.8,0.2,0.2,0.2,0.8","0.8,0.2,0.2,0.2,0.8,0.2,0.2,0.2,0.8","1","",""
"","html-keyboard-response","161","49470","0.0-161.0","3RWE2M8QWIWEZN9IZL6G04LOBKV0NF","ANOPPPGFNTUPN","3TKXBROM5TWR181JXBYSOI8FGFVJIU","","null","<img src=""img/land2.png"" style=""width:200px;border:14px solid red;"">","null","","","","","","","","","",""
"","image-keyboard-response","162","49503","0.0-162.0","3RWE2M8QWIWEZN9IZL6G04LOBKV0NF","ANOPPPGFNTUPN","3TKXBROM5TWR181JXBYSOI8FGFVJIU","","31","img/land1.png","74","32","1","0","3","1","0.8,0.2,0.2,0.2,0.8,0.2,0.2,0.2,0.8","0.8,0.2,0.2,0.2,0.8,0.2,0.2,0.2,0.8","1","",""
"","html-keyboard-response","163","49804","0.0-163.0","3RWE2M8QWIWEZN9IZL6G04LOBKV0NF","ANOPPPGFNTUPN","3TKXBROM5TWR181JXBYSOI8FGFVJIU","","null","<img src=""img/land1.png"" style=""width:200px;border:14px solid red;"">","null","","","","","","","","","",""
"","image-keyboard-response","164","49972","0.0-164.0","3RWE2M8QWIWEZN9IZL6G04LOBKV0NF","ANOPPPGFNTUPN","3TKXBROM5TWR181JXBYSOI8FGFVJIU","","167","img/land4.png","76","168","3","0","2","1","0.8,0.2,0.2,0.2,0.8,0.2,0.2,0.2,0.8","0.8,0.2,0.2,0.2,0.8,0.2,0.2,0.2,0.8","1","",""
"","html-keyboard-response","165","50274","0.0-165.0","3RWE2M8QWIWEZN9IZL6G04LOBKV0NF","ANOPPPGFNTUPN","3TKXBROM5TWR181JXBYSOI8FGFVJIU","","null","<img src=""img/land4.png"" style=""width:200px;border:14px solid red;"">","null","","","","","","","","","",""
"","image-keyboard-response","166","50672","0.0-166.0","3RWE2M8QWIWEZN9IZL6G04LOBKV0NF","ANOPPPGFNTUPN","3TKXBROM5TWR181JXBYSOI8FGFVJIU","","392","img/land1.png","74","394","1","0","3","1","0.8,0.2,0.2,0.2,0.8,0.2,0.2,0.2,0.8","0.8,0.2,0.2,0.2,0.8,0.2,0.2,0.2,0.8","1","",""
"","html-keyboard-response","167","50975","0.0-167.0","3RWE2M8QWIWEZN9IZL6G04LOBKV0NF","ANOPPPGFNTUPN","3TKXBROM5TWR181JXBYSOI8FGFVJIU","","null","<img src=""img/land1.png"" style=""width:200px;border:14px solid red;"">","null","","","","","","","","","",""
"","image-keyboard-response","168","51208","0.0-168.0","3RWE2M8QWIWEZN9IZL6G04LOBKV0NF","ANOPPPGFNTUPN","3TKXBROM5TWR181JXBYSOI8FGFVJIU","","225","img/land4.png","76","231","3","0","2","1","0.8,0.2,0.2,0.2,0.8,0.2,0.2,0.2,0.8","0.8,0.2,0.2,0.2,0.8,0.2,0.2,0.2,0.8","1","",""
"","html-keyboard-response","169","51511","0.0-169.0","3RWE2M8QWIWEZN9IZL6G04LOBKV0NF","ANOPPPGFNTUPN","3TKXBROM5TWR181JXBYSOI8FGFVJIU","","null","<img src=""img/land4.png"" style=""width:200px;border:14px solid red;"">","null","","","","","","","","","",""
"","image-keyboard-response","170","51842","0.0-170.0","3RWE2M8QWIWEZN9IZL6G04LOBKV0NF","ANOPPPGFNTUPN","3TKXBROM5TWR181JXBYSOI8FGFVJIU","","326","img/land1.png","76","330","3","1","3","1","0.8,0.2,0.2,0.2,0.8,0.2,0.2,0.2,0.8","0.8,0.2,0.2,0.2,0.8,0.2,0.2,0.2,0.8","1","",""
"","html-keyboard-response","171","52143","0.0-171.0","3RWE2M8QWIWEZN9IZL6G04LOBKV0NF","ANOPPPGFNTUPN","3TKXBROM5TWR181JXBYSOI8FGFVJIU","","null","<img src=""img/land1.png"" style=""width:200px; border:14px solid green;"">","null","","","","","","","","","",""
"","image-keyboard-response","172","52321","0.0-172.0","3RWE2M8QWIWEZN9IZL6G04LOBKV0NF","ANOPPPGFNTUPN","3TKXBROM5TWR181JXBYSOI8FGFVJIU","","177","img/land1.png","74","177","1","0","3","1","0.8,0.2,0.2,0.2,0.8,0.2,0.2,0.2,0.8","0.8,0.2,0.2,0.2,0.8,0.2,0.2,0.2,0.8","1","",""
"","html-keyboard-response","173","52629","0.0-173.0","3RWE2M8QWIWEZN9IZL6G04LOBKV0NF","ANOPPPGFNTUPN","3TKXBROM5TWR181JXBYSOI8FGFVJIU","","null","<img src=""img/land1.png"" style=""width:200px;border:14px solid red;"">","null","","","","","","","","","",""
"","image-keyboard-response","174","52736","0.0-174.0","3RWE2M8QWIWEZN9IZL6G04LOBKV0NF","ANOPPPGFNTUPN","3TKXBROM5TWR181JXBYSOI8FGFVJIU","","106","img/land4.png","75","106","2","1","2","1","0.8,0.2,0.2,0.2,0.8,0.2,0.2,0.2,0.8","0.8,0.2,0.2,0.2,0.8,0.2,0.2,0.2,0.8","1","",""
"","html-keyboard-response","175","53043","0.0-175.0","3RWE2M8QWIWEZN9IZL6G04LOBKV0NF","ANOPPPGFNTUPN","3TKXBROM5TWR181JXBYSOI8FGFVJIU","","null","<img src=""img/land4.png"" style=""width:200px; border:14px solid green;"">","null","","","","","","","","","",""
"","image-keyboard-response","176","53199","0.0-176.0","3RWE2M8QWIWEZN9IZL6G04LOBKV0NF","ANOPPPGFNTUPN","3TKXBROM5TWR181JXBYSOI8FGFVJIU","","145","img/land2.png","76","153","3","1","1","1","0.8,0.2,0.2,0.2,0.8,0.2,0.2,0.2,0.8","0.8,0.2,0.2,0.2,0.8,0.2,0.2,0.2,0.8","1","",""
"","html-keyboard-response","177","53504","0.0-177.0","3RWE2M8QWIWEZN9IZL6G04LOBKV0NF","ANOPPPGFNTUPN","3TKXBROM5TWR181JXBYSOI8FGFVJIU","","null","<img src=""img/land2.png"" style=""width:200px; border:14px solid green;"">","null","","","","","","","","","",""
"","image-keyboard-response","178","53616","0.0-178.0","3RWE2M8QWIWEZN9IZL6G04LOBKV0NF","ANOPPPGFNTUPN","3TKXBROM5TWR181JXBYSOI8FGFVJIU","","111","img/land1.png","75","111","2","0","3","1","0.8,0.2,0.2,0.2,0.8,0.2,0.2,0.2,0.8","0.8,0.2,0.2,0.2,0.8,0.2,0.2,0.2,0.8","1","",""
"","html-keyboard-response","179","53961","0.0-179.0","3RWE2M8QWIWEZN9IZL6G04LOBKV0NF","ANOPPPGFNTUPN","3TKXBROM5TWR181JXBYSOI8FGFVJIU","","null","<img src=""img/land1.png"" style=""width:200px;border:14px solid red;"">","null","","","","","","","","","",""
"","image-keyboard-response","180","54095","0.0-180.0","3RWE2M8QWIWEZN9IZL6G04LOBKV0NF","ANOPPPGFNTUPN","3TKXBROM5TWR181JXBYSOI8FGFVJIU","","132","img/land2.png","75","134","2","0","1","1","0.8,0.2,0.2,0.2,0.8,0.2,0.2,0.2,0.8","0.8,0.2,0.2,0.2,0.8,0.2,0.2,0.2,0.8","1","",""
"","html-keyboard-response","181","54396","0.0-181.0","3RWE2M8QWIWEZN9IZL6G04LOBKV0NF","ANOPPPGFNTUPN","3TKXBROM5TWR181JXBYSOI8FGFVJIU","","null","<img src=""img/land2.png"" style=""width:200px;border:14px solid red;"">","null","","","","","","","","","",""
"","html-keyboard-response","182","56796","0.0-182.0","3RWE2M8QWIWEZN9IZL6G04LOBKV0NF","ANOPPPGFNTUPN","3TKXBROM5TWR181JXBYSOI8FGFVJIU","","","","","","","","","","","","","",""
"","image-keyboard-response","183","58808","0.0-183.0","3RWE2M8QWIWEZN9IZL6G04LOBKV0NF","ANOPPPGFNTUPN","3TKXBROM5TWR181JXBYSOI8FGFVJIU","","","img/land6.png","","2006","-1","0","1","2","0.8,0.2,0.2,0.2,0.8,0.2,0.2,0.2,0.8","0.2,0.8,0.2,0.2,0.2,0.8,0.8,0.2,0.2","3","",""
"","html-keyboard-response","184","59110","0.0-184.0","3RWE2M8QWIWEZN9IZL6G04LOBKV0NF","ANOPPPGFNTUPN","3TKXBROM5TWR181JXBYSOI8FGFVJIU","","null","<img src=""img/land6.png"" style=""width:200px;border:14px solid red;"">","null","","","","","","","","","",""
"","image-keyboard-response","185","59426","0.0-185.0","3RWE2M8QWIWEZN9IZL6G04LOBKV0NF","ANOPPPGFNTUPN","3TKXBROM5TWR181JXBYSOI8FGFVJIU","","312","img/land3.png","74","314","1","0","2","2","0.8,0.2,0.2,0.2,0.8,0.2,0.2,0.2,0.8","0.2,0.8,0.2,0.2,0.2,0.8,0.8,0.2,0.2","3","",""
"","html-keyboard-response","186","59728","0.0-186.0","3RWE2M8QWIWEZN9IZL6G04LOBKV0NF","ANOPPPGFNTUPN","3TKXBROM5TWR181JXBYSOI8FGFVJIU","","null","<img src=""img/land3.png"" style=""width:200px;border:14px solid red;"">","null","","","","","","","","","",""
"","image-keyboard-response","187","60278","0.0-187.0","3RWE2M8QWIWEZN9IZL6G04LOBKV0NF","ANOPPPGFNTUPN","3TKXBROM5TWR181JXBYSOI8FGFVJIU","","531","img/land3.png","74","531","1","1","2","2","0.8,0.2,0.2,0.2,0.8,0.2,0.2,0.2,0.8","0.2,0.8,0.2,0.2,0.2,0.8,0.8,0.2,0.2","3","",""
"","html-keyboard-response","188","60598","0.0-188.0","3RWE2M8QWIWEZN9IZL6G04LOBKV0NF","ANOPPPGFNTUPN","3TKXBROM5TWR181JXBYSOI8FGFVJIU","","null","<img src=""img/land3.png"" style=""width:200px; border:14px solid green;"">","null","","","","","","","","","",""
"","image-keyboard-response","189","60720","0.0-189.0","3RWE2M8QWIWEZN9IZL6G04LOBKV0NF","ANOPPPGFNTUPN","3TKXBROM5TWR181JXBYSOI8FGFVJIU","","120","img/land6.png","75","121","2","1","1","2","0.8,0.2,0.2,0.2,0.8,0.2,0.2,0.2,0.8","0.2,0.8,0.2,0.2,0.2,0.8,0.8,0.2,0.2","3","",""
"","html-keyboard-response","190","61021","0.0-190.0","3RWE2M8QWIWEZN9IZL6G04LOBKV0NF","ANOPPPGFNTUPN","3TKXBROM5TWR181JXBYSOI8FGFVJIU","","null","<img src=""img/land6.png"" style=""width:200px; border:14px solid green;"">","null","","","","","","","","","",""
"","image-keyboard-response","191","61630","0.0-191.0","3RWE2M8QWIWEZN9IZL6G04LOBKV0NF","ANOPPPGFNTUPN","3TKXBROM5TWR181JXBYSOI8FGFVJIU","","608","img/land6.png","75","609","2","1","1","2","0.8,0.2,0.2,0.2,0.8,0.2,0.2,0.2,0.8","0.2,0.8,0.2,0.2,0.2,0.8,0.8,0.2,0.2","3","",""
"","html-keyboard-response","192","61950","0.0-192.0","3RWE2M8QWIWEZN9IZL6G04LOBKV0NF","ANOPPPGFNTUPN","3TKXBROM5TWR181JXBYSOI8FGFVJIU","","null","<img src=""img/land6.png"" style=""width:200px; border:14px solid green;"">","null","","","","","","","","","",""
"","image-keyboard-response","193","62119","0.0-193.0","3RWE2M8QWIWEZN9IZL6G04LOBKV0NF","ANOPPPGFNTUPN","3TKXBROM5TWR181JXBYSOI8FGFVJIU","","166","img/land5.png","75","169","2","1","3","2","0.8,0.2,0.2,0.2,0.8,0.2,0.2,0.2,0.8","0.2,0.8,0.2,0.2,0.2,0.8,0.8,0.2,0.2","3","",""
"","html-keyboard-response","194","62422","0.0-194.0","3RWE2M8QWIWEZN9IZL6G04LOBKV0NF","ANOPPPGFNTUPN","3TKXBROM5TWR181JXBYSOI8FGFVJIU","","null","<img src=""img/land5.png"" style=""width:200px; border:14px solid green;"">","null","","","","","","","","","",""
"","image-keyboard-response","195","62512","0.0-195.0","3RWE2M8QWIWEZN9IZL6G04LOBKV0NF","ANOPPPGFNTUPN","3TKXBROM5TWR181JXBYSOI8FGFVJIU","","89","img/land5.png","75","90","2","1","3","2","0.8,0.2,0.2,0.2,0.8,0.2,0.2,0.2,0.8","0.2,0.8,0.2,0.2,0.2,0.8,0.8,0.2,0.2","3","",""
"","html-keyboard-response","196","62816","0.0-196.0","3RWE2M8QWIWEZN9IZL6G04LOBKV0NF","ANOPPPGFNTUPN","3TKXBROM5TWR181JXBYSOI8FGFVJIU","","null","<img src=""img/land5.png"" style=""width:200px; border:14px solid green;"">","null","","","","","","","","","",""
"","image-keyboard-response","197","63041","0.0-197.0","3RWE2M8QWIWEZN9IZL6G04LOBKV0NF","ANOPPPGFNTUPN","3TKXBROM5TWR181JXBYSOI8FGFVJIU","","220","img/land5.png","75","224","2","1","3","2","0.8,0.2,0.2,0.2,0.8,0.2,0.2,0.2,0.8","0.2,0.8,0.2,0.2,0.2,0.8,0.8,0.2,0.2","3","",""
"","html-keyboard-response","198","63344","0.0-198.0","3RWE2M8QWIWEZN9IZL6G04LOBKV0NF","ANOPPPGFNTUPN","3TKXBROM5TWR181JXBYSOI8FGFVJIU","","null","<img src=""img/land5.png"" style=""width:200px; border:14px solid green;"">","null","","","","","","","","","",""
"","image-keyboard-response","199","63424","0.0-199.0","3RWE2M8QWIWEZN9IZL6G04LOBKV0NF","ANOPPPGFNTUPN","3TKXBROM5TWR181JXBYSOI8FGFVJIU","","65","img/land6.png","75","75","2","1","1","2","0.8,0.2,0.2,0.2,0.8,0.2,0.2,0.2,0.8","0.2,0.8,0.2,0.2,0.2,0.8,0.8,0.2,0.2","3","",""
"","html-keyboard-response","200","63725","0.0-200.0","3RWE2M8QWIWEZN9IZL6G04LOBKV0NF","ANOPPPGFNTUPN","3TKXBROM5TWR181JXBYSOI8FGFVJIU","","null","<img src=""img/land6.png"" style=""width:200px; border:14px solid green;"">","null","","","","","","","","","",""
"","image-keyboard-response","201","63795","0.0-201.0","3RWE2M8QWIWEZN9IZL6G04LOBKV0NF","ANOPPPGFNTUPN","3TKXBROM5TWR181JXBYSOI8FGFVJIU","","68","img/land6.png","75","70","2","1","1","2","0.8,0.2,0.2,0.2,0.8,0.2,0.2,0.2,0.8","0.2,0.8,0.2,0.2,0.2,0.8,0.8,0.2,0.2","3","",""
"","html-keyboard-response","202","64098","0.0-202.0","3RWE2M8QWIWEZN9IZL6G04LOBKV0NF","ANOPPPGFNTUPN","3TKXBROM5TWR181JXBYSOI8FGFVJIU","","null","<img src=""img/land6.png"" style=""width:200px; border:14px solid green;"">","null","","","","","","","","","",""
"","image-keyboard-response","203","64511","0.0-203.0","3RWE2M8QWIWEZN9IZL6G04LOBKV0NF","ANOPPPGFNTUPN","3TKXBROM5TWR181JXBYSOI8FGFVJIU","","412","img/land5.png","75","414","2","0","3","2","0.8,0.2,0.2,0.2,0.8,0.2,0.2,0.2,0.8","0.2,0.8,0.2,0.2,0.2,0.8,0.8,0.2,0.2","3","",""
"","html-keyboard-response","204","64814","0.0-204.0","3RWE2M8QWIWEZN9IZL6G04LOBKV0NF","ANOPPPGFNTUPN","3TKXBROM5TWR181JXBYSOI8FGFVJIU","","null","<img src=""img/land5.png"" style=""width:200px;border:14px solid red;"">","null","","","","","","","","","",""
"","image-keyboard-response","205","65114","0.0-205.0","3RWE2M8QWIWEZN9IZL6G04LOBKV0NF","ANOPPPGFNTUPN","3TKXBROM5TWR181JXBYSOI8FGFVJIU","","297","img/land6.png","75","299","2","0","1","2","0.8,0.2,0.2,0.2,0.8,0.2,0.2,0.2,0.8","0.2,0.8,0.2,0.2,0.2,0.8,0.8,0.2,0.2","3","",""
"","html-keyboard-response","206","65415","0.0-206.0","3RWE2M8QWIWEZN9IZL6G04LOBKV0NF","ANOPPPGFNTUPN","3TKXBROM5TWR181JXBYSOI8FGFVJIU","","null","<img src=""img/land6.png"" style=""width:200px;border:14px solid red;"">","null","","","","","","","","","",""
"","image-keyboard-response","207","65448","0.0-207.0","3RWE2M8QWIWEZN9IZL6G04LOBKV0NF","ANOPPPGFNTUPN","3TKXBROM5TWR181JXBYSOI8FGFVJIU","","32","img/land6.png","75","32","2","1","1","2","0.8,0.2,0.2,0.2,0.8,0.2,0.2,0.2,0.8","0.2,0.8,0.2,0.2,0.2,0.8,0.8,0.2,0.2","3","",""
"","html-keyboard-response","208","65765","0.0-208.0","3RWE2M8QWIWEZN9IZL6G04LOBKV0NF","ANOPPPGFNTUPN","3TKXBROM5TWR181JXBYSOI8FGFVJIU","","null","<img src=""img/land6.png"" style=""width:200px; border:14px solid green;"">","null","","","","","","","","","",""
"","image-keyboard-response","209","65780","0.0-209.0","3RWE2M8QWIWEZN9IZL6G04LOBKV0NF","ANOPPPGFNTUPN","3TKXBROM5TWR181JXBYSOI8FGFVJIU","","13","img/land6.png","75","15","2","1","1","2","0.8,0.2,0.2,0.2,0.8,0.2,0.2,0.2,0.8","0.2,0.8,0.2,0.2,0.2,0.8,0.8,0.2,0.2","3","",""
"","html-keyboard-response","210","66082","0.0-210.0","3RWE2M8QWIWEZN9IZL6G04LOBKV0NF","ANOPPPGFNTUPN","3TKXBROM5TWR181JXBYSOI8FGFVJIU","","null","<img src=""img/land6.png"" style=""width:200px; border:14px solid green;"">","null","","","","","","","","","",""
"","image-keyboard-response","211","66289","0.0-211.0","3RWE2M8QWIWEZN9IZL6G04LOBKV0NF","ANOPPPGFNTUPN","3TKXBROM5TWR181JXBYSOI8FGFVJIU","","197","img/land6.png","76","200","3","1","1","2","0.8,0.2,0.2,0.2,0.8,0.2,0.2,0.2,0.8","0.2,0.8,0.2,0.2,0.2,0.8,0.8,0.2,0.2","3","",""
"","html-keyboard-response","212","66591","0.0-212.0","3RWE2M8QWIWEZN9IZL6G04LOBKV0NF","ANOPPPGFNTUPN","3TKXBROM5TWR181JXBYSOI8FGFVJIU","","null","<img src=""img/land6.png"" style=""width:200px; border:14px solid green;"">","null","","","","","","","","","",""
"","image-keyboard-response","213","66938","0.0-213.0","3RWE2M8QWIWEZN9IZL6G04LOBKV0NF","ANOPPPGFNTUPN","3TKXBROM5TWR181JXBYSOI8FGFVJIU","","344","img/land5.png","75","346","2","0","3","2","0.8,0.2,0.2,0.2,0.8,0.2,0.2,0.2,0.8","0.2,0.8,0.2,0.2,0.2,0.8,0.8,0.2,0.2","3","",""
"","html-keyboard-response","214","67239","0.0-214.0","3RWE2M8QWIWEZN9IZL6G04LOBKV0NF","ANOPPPGFNTUPN","3TKXBROM5TWR181JXBYSOI8FGFVJIU","","null","<img src=""img/land5.png"" style=""width:200px;border:14px solid red;"">","null","","","","","","","","","",""
"","image-keyboard-response","215","67448","0.0-215.0","3RWE2M8QWIWEZN9IZL6G04LOBKV0NF","ANOPPPGFNTUPN","3TKXBROM5TWR181JXBYSOI8FGFVJIU","","208","img/land5.png","76","209","3","0","3","2","0.8,0.2,0.2,0.2,0.8,0.2,0.2,0.2,0.8","0.2,0.8,0.2,0.2,0.2,0.8,0.8,0.2,0.2","3","",""
"","html-keyboard-response","216","67759","0.0-216.0","3RWE2M8QWIWEZN9IZL6G04LOBKV0NF","ANOPPPGFNTUPN","3TKXBROM5TWR181JXBYSOI8FGFVJIU","","null","<img src=""img/land5.png"" style=""width:200px;border:14px solid red;"">","null","","","","","","","","","",""
"","image-keyboard-response","217","67931","0.0-217.0","3RWE2M8QWIWEZN9IZL6G04LOBKV0NF","ANOPPPGFNTUPN","3TKXBROM5TWR181JXBYSOI8FGFVJIU","","165","img/land5.png","76","167","3","0","3","2","0.8,0.2,0.2,0.2,0.8,0.2,0.2,0.2,0.8","0.2,0.8,0.2,0.2,0.2,0.8,0.8,0.2,0.2","3","",""
"","html-keyboard-response","218","68234","0.0-218.0","3RWE2M8QWIWEZN9IZL6G04LOBKV0NF","ANOPPPGFNTUPN","3TKXBROM5TWR181JXBYSOI8FGFVJIU","","null","<img src=""img/land5.png"" style=""width:200px;border:14px solid red;"">","null","","","","","","","","","",""
"","image-keyboard-response","219","68488","0.0-219.0","3RWE2M8QWIWEZN9IZL6G04LOBKV0NF","ANOPPPGFNTUPN","3TKXBROM5TWR181JXBYSOI8FGFVJIU","","252","img/land6.png","75","253","2","0","1","2","0.8,0.2,0.2,0.2,0.8,0.2,0.2,0.2,0.8","0.2,0.8,0.2,0.2,0.2,0.8,0.8,0.2,0.2","3","",""
"","html-keyboard-response","220","68790","0.0-220.0","3RWE2M8QWIWEZN9IZL6G04LOBKV0NF","ANOPPPGFNTUPN","3TKXBROM5TWR181JXBYSOI8FGFVJIU","","null","<img src=""img/land6.png"" style=""width:200px;border:14px solid red;"">","null","","","","","","","","","",""
"","image-keyboard-response","221","68825","0.0-221.0","3RWE2M8QWIWEZN9IZL6G04LOBKV0NF","ANOPPPGFNTUPN","3TKXBROM5TWR181JXBYSOI8FGFVJIU","","32","img/land6.png","75","34","2","0","1","2","0.8,0.2,0.2,0.2,0.8,0.2,0.2,0.2,0.8","0.2,0.8,0.2,0.2,0.2,0.8,0.8,0.2,0.2","3","",""
"","html-keyboard-response","222","69126","0.0-222.0","3RWE2M8QWIWEZN9IZL6G04LOBKV0NF","ANOPPPGFNTUPN","3TKXBROM5TWR181JXBYSOI8FGFVJIU","","null","<img src=""img/land6.png"" style=""width:200px;border:14px solid red;"">","null","","","","","","","","","",""
"","image-keyboard-response","223","69144","0.0-223.0","3RWE2M8QWIWEZN9IZL6G04LOBKV0NF","ANOPPPGFNTUPN","3TKXBROM5TWR181JXBYSOI8FGFVJIU","","17","img/land5.png","75","18","2","0","3","2","0.8,0.2,0.2,0.2,0.8,0.2,0.2,0.2,0.8","0.2,0.8,0.2,0.2,0.2,0.8,0.8,0.2,0.2","3","",""
"","html-keyboard-response","224","69469","0.0-224.0","3RWE2M8QWIWEZN9IZL6G04LOBKV0NF","ANOPPPGFNTUPN","3TKXBROM5TWR181JXBYSOI8FGFVJIU","","null","<img src=""img/land5.png"" style=""width:200px;border:14px solid red;"">","null","","","","","","","","","",""
"","image-keyboard-response","225","69481","0.0-225.0","3RWE2M8QWIWEZN9IZL6G04LOBKV0NF","ANOPPPGFNTUPN","3TKXBROM5TWR181JXBYSOI8FGFVJIU","","10","img/land3.png","74","12","1","1","2","2","0.8,0.2,0.2,0.2,0.8,0.2,0.2,0.2,0.8","0.2,0.8,0.2,0.2,0.2,0.8,0.8,0.2,0.2","3","",""
"","html-keyboard-response","226","69785","0.0-226.0","3RWE2M8QWIWEZN9IZL6G04LOBKV0NF","ANOPPPGFNTUPN","3TKXBROM5TWR181JXBYSOI8FGFVJIU","","null","<img src=""img/land3.png"" style=""width:200px; border:14px solid green;"">","null","","","","","","","","","",""
"","image-keyboard-response","227","69803","0.0-227.0","3RWE2M8QWIWEZN9IZL6G04LOBKV0NF","ANOPPPGFNTUPN","3TKXBROM5TWR181JXBYSOI8FGFVJIU","","14","img/land5.png","74","16","1","1","3","2","0.8,0.2,0.2,0.2,0.8,0.2,0.2,0.2,0.8","0.2,0.8,0.2,0.2,0.2,0.8,0.8,0.2,0.2","3","",""
"","html-keyboard-response","228","70113","0.0-228.0","3RWE2M8QWIWEZN9IZL6G04LOBKV0NF","ANOPPPGFNTUPN","3TKXBROM5TWR181JXBYSOI8FGFVJIU","","null","<img src=""img/land5.png"" style=""width:200px; border:14px solid green;"">","null","","","","","","","","","",""
"","image-keyboard-response","229","70120","0.0-229.0","3RWE2M8QWIWEZN9IZL6G04LOBKV0NF","ANOPPPGFNTUPN","3TKXBROM5TWR181JXBYSOI8FGFVJIU","","4","img/land6.png","74","7","1","0","1","2","0.8,0.2,0.2,0.2,0.8,0.2,0.2,0.2,0.8","0.2,0.8,0.2,0.2,0.2,0.8,0.8,0.2,0.2","3","",""
"","html-keyboard-response","230","70423","0.0-230.0","3RWE2M8QWIWEZN9IZL6G04LOBKV0NF","ANOPPPGFNTUPN","3TKXBROM5TWR181JXBYSOI8FGFVJIU","","null","<img src=""img/land6.png"" style=""width:200px;border:14px solid red;"">","null","","","","","","","","","",""
"","image-keyboard-response","231","71122","0.0-231.0","3RWE2M8QWIWEZN9IZL6G04LOBKV0NF","ANOPPPGFNTUPN","3TKXBROM5TWR181JXBYSOI8FGFVJIU","","696","img/land6.png","76","698","3","0","1","2","0.8,0.2,0.2,0.2,0.8,0.2,0.2,0.2,0.8","0.2,0.8,0.2,0.2,0.2,0.8,0.8,0.2,0.2","3","",""
"","html-keyboard-response","232","71424","0.0-232.0","3RWE2M8QWIWEZN9IZL6G04LOBKV0NF","ANOPPPGFNTUPN","3TKXBROM5TWR181JXBYSOI8FGFVJIU","","null","<img src=""img/land6.png"" style=""width:200px;border:14px solid red;"">","null","","","","","","","","","",""
"","image-keyboard-response","233","71639","0.0-233.0","3RWE2M8QWIWEZN9IZL6G04LOBKV0NF","ANOPPPGFNTUPN","3TKXBROM5TWR181JXBYSOI8FGFVJIU","","211","img/land3.png","76","214","3","1","2","2","0.8,0.2,0.2,0.2,0.8,0.2,0.2,0.2,0.8","0.2,0.8,0.2,0.2,0.2,0.8,0.8,0.2,0.2","3","",""
"","html-keyboard-response","234","71941","0.0-234.0","3RWE2M8QWIWEZN9IZL6G04LOBKV0NF","ANOPPPGFNTUPN","3TKXBROM5TWR181JXBYSOI8FGFVJIU","","null","<img src=""img/land3.png"" style=""width:200px; border:14px solid green;"">","null","","","","","","","","","",""
"","image-keyboard-response","235","72047","0.0-235.0","3RWE2M8QWIWEZN9IZL6G04LOBKV0NF","ANOPPPGFNTUPN","3TKXBROM5TWR181JXBYSOI8FGFVJIU","","105","img/land5.png","76","107","3","0","3","2","0.8,0.2,0.2,0.2,0.8,0.2,0.2,0.2,0.8","0.2,0.8,0.2,0.2,0.2,0.8,0.8,0.2,0.2","3","",""
"","html-keyboard-response","236","72449","0.0-236.0","3RWE2M8QWIWEZN9IZL6G04LOBKV0NF","ANOPPPGFNTUPN","3TKXBROM5TWR181JXBYSOI8FGFVJIU","","null","<img src=""img/land5.png"" style=""width:200px;border:14px solid red;"">","null","","","","","","","","","",""
"","image-keyboard-response","237","72468","0.0-237.0","3RWE2M8QWIWEZN9IZL6G04LOBKV0NF","ANOPPPGFNTUPN","3TKXBROM5TWR181JXBYSOI8FGFVJIU","","17","img/land5.png","75","18","2","1","3","2","0.8,0.2,0.2,0.2,0.8,0.2,0.2,0.2,0.8","0.2,0.8,0.2,0.2,0.2,0.8,0.8,0.2,0.2","3","",""
"","html-keyboard-response","238","72770","0.0-238.0","3RWE2M8QWIWEZN9IZL6G04LOBKV0NF","ANOPPPGFNTUPN","3TKXBROM5TWR181JXBYSOI8FGFVJIU","","null","<img src=""img/land5.png"" style=""width:200px; border:14px solid green;"">","null","","","","","","","","","",""
"","image-keyboard-response","239","72900","0.0-239.0","3RWE2M8QWIWEZN9IZL6G04LOBKV0NF","ANOPPPGFNTUPN","3TKXBROM5TWR181JXBYSOI8FGFVJIU","","128","img/land3.png","76","130","3","1","2","2","0.8,0.2,0.2,0.2,0.8,0.2,0.2,0.2,0.8","0.2,0.8,0.2,0.2,0.2,0.8,0.8,0.2,0.2","3","",""
"","html-keyboard-response","240","73201","0.0-240.0","3RWE2M8QWIWEZN9IZL6G04LOBKV0NF","ANOPPPGFNTUPN","3TKXBROM5TWR181JXBYSOI8FGFVJIU","","null","<img src=""img/land3.png"" style=""width:200px; border:14px solid green;"">","null","","","","","","","","","",""
"","image-keyboard-response","241","73349","0.0-241.0","3RWE2M8QWIWEZN9IZL6G04LOBKV0NF","ANOPPPGFNTUPN","3TKXBROM5TWR181JXBYSOI8FGFVJIU","","147","img/land3.png","75","148","2","0","2","2","0.8,0.2,0.2,0.2,0.8,0.2,0.2,0.2,0.8","0.2,0.8,0.2,0.2,0.2,0.8,0.8,0.2,0.2","3","",""
"","html-keyboard-response","242","73652","0.0-242.0","3RWE2M8QWIWEZN9IZL6G04LOBKV0NF","ANOPPPGFNTUPN","3TKXBROM5TWR181JXBYSOI8FGFVJIU","","null","<img src=""img/land3.png"" style=""width:200px;border:14px solid red;"">","null","","","","","","","","","",""
"","image-keyboard-response","243","73752","0.0-243.0","3RWE2M8QWIWEZN9IZL6G04LOBKV0NF","ANOPPPGFNTUPN","3TKXBROM5TWR181JXBYSOI8FGFVJIU","","98","img/land6.png","75","100","2","0","1","2","0.8,0.2,0.2,0.2,0.8,0.2,0.2,0.2,0.8","0.2,0.8,0.2,0.2,0.2,0.8,0.8,0.2,0.2","3","",""
"","html-keyboard-response","244","74143","0.0-244.0","3RWE2M8QWIWEZN9IZL6G04LOBKV0NF","ANOPPPGFNTUPN","3TKXBROM5TWR181JXBYSOI8FGFVJIU","","null","<img src=""img/land6.png"" style=""width:200px;border:14px solid red;"">","null","","","","","","","","","",""
"","image-keyboard-response","245","74160","0.0-245.0","3RWE2M8QWIWEZN9IZL6G04LOBKV0NF","ANOPPPGFNTUPN","3TKXBROM5TWR181JXBYSOI8FGFVJIU","","14","img/land6.png","76","16","3","0","1","2","0.8,0.2,0.2,0.2,0.8,0.2,0.2,0.2,0.8","0.2,0.8,0.2,0.2,0.2,0.8,0.8,0.2,0.2","3","",""
"","html-keyboard-response","246","74491","0.0-246.0","3RWE2M8QWIWEZN9IZL6G04LOBKV0NF","ANOPPPGFNTUPN","3TKXBROM5TWR181JXBYSOI8FGFVJIU","","null","<img src=""img/land6.png"" style=""width:200px;border:14px solid red;"">","null","","","","","","","","","",""
"","image-keyboard-response","247","74630","0.0-247.0","3RWE2M8QWIWEZN9IZL6G04LOBKV0NF","ANOPPPGFNTUPN","3TKXBROM5TWR181JXBYSOI8FGFVJIU","","138","img/land6.png","76","139","3","0","1","2","0.8,0.2,0.2,0.2,0.8,0.2,0.2,0.2,0.8","0.2,0.8,0.2,0.2,0.2,0.8,0.8,0.2,0.2","3","",""
"","html-keyboard-response","248","74931","0.0-248.0","3RWE2M8QWIWEZN9IZL6G04LOBKV0NF","ANOPPPGFNTUPN","3TKXBROM5TWR181JXBYSOI8FGFVJIU","","null","<img src=""img/land6.png"" style=""width:200px;border:14px solid red;"">","null","","","","","","","","","",""
"","image-keyboard-response","249","75120","0.0-249.0","3RWE2M8QWIWEZN9IZL6G04LOBKV0NF","ANOPPPGFNTUPN","3TKXBROM5TWR181JXBYSOI8FGFVJIU","","185","img/land6.png","76","188","3","0","1","2","0.8,0.2,0.2,0.2,0.8,0.2,0.2,0.2,0.8","0.2,0.8,0.2,0.2,0.2,0.8,0.8,0.2,0.2","3","",""
"","html-keyboard-response","250","75427","0.0-250.0","3RWE2M8QWIWEZN9IZL6G04LOBKV0NF","ANOPPPGFNTUPN","3TKXBROM5TWR181JXBYSOI8FGFVJIU","","null","<img src=""img/land6.png"" style=""width:200px;border:14px solid red;"">","null","","","","","","","","","",""
"","image-keyboard-response","251","75521","0.0-251.0","3RWE2M8QWIWEZN9IZL6G04LOBKV0NF","ANOPPPGFNTUPN","3TKXBROM5TWR181JXBYSOI8FGFVJIU","","93","img/land3.png","75","94","2","1","2","2","0.8,0.2,0.2,0.2,0.8,0.2,0.2,0.2,0.8","0.2,0.8,0.2,0.2,0.2,0.8,0.8,0.2,0.2","3","",""
"","html-keyboard-response","252","75825","0.0-252.0","3RWE2M8QWIWEZN9IZL6G04LOBKV0NF","ANOPPPGFNTUPN","3TKXBROM5TWR181JXBYSOI8FGFVJIU","","null","<img src=""img/land3.png"" style=""width:200px; border:14px solid green;"">","null","","","","","","","","","",""
"","image-keyboard-response","253","76187","0.0-253.0","3RWE2M8QWIWEZN9IZL6G04LOBKV0NF","ANOPPPGFNTUPN","3TKXBROM5TWR181JXBYSOI8FGFVJIU","","361","img/land6.png","75","361","2","0","1","2","0.8,0.2,0.2,0.2,0.8,0.2,0.2,0.2,0.8","0.2,0.8,0.2,0.2,0.2,0.8,0.8,0.2,0.2","3","",""
"","html-keyboard-response","254","76491","0.0-254.0","3RWE2M8QWIWEZN9IZL6G04LOBKV0NF","ANOPPPGFNTUPN","3TKXBROM5TWR181JXBYSOI8FGFVJIU","","null","<img src=""img/land6.png"" style=""width:200px;border:14px solid red;"">","null","","","","","","","","","",""
"","image-keyboard-response","255","76616","0.0-255.0","3RWE2M8QWIWEZN9IZL6G04LOBKV0NF","ANOPPPGFNTUPN","3TKXBROM5TWR181JXBYSOI8FGFVJIU","","123","img/land6.png","74","124","1","0","1","2","0.8,0.2,0.2,0.2,0.8,0.2,0.2,0.2,0.8","0.2,0.8,0.2,0.2,0.2,0.8,0.8,0.2,0.2","3","",""
"","html-keyboard-response","256","76918","0.0-256.0","3RWE2M8QWIWEZN9IZL6G04LOBKV0NF","ANOPPPGFNTUPN","3TKXBROM5TWR181JXBYSOI8FGFVJIU","","null","<img src=""img/land6.png"" style=""width:200px;border:14px solid red;"">","null","","","","","","","","","",""
"","image-keyboard-response","257","76951","0.0-257.0","3RWE2M8QWIWEZN9IZL6G04LOBKV0NF","ANOPPPGFNTUPN","3TKXBROM5TWR181JXBYSOI8FGFVJIU","","32","img/land6.png","74","33","1","0","1","2","0.8,0.2,0.2,0.2,0.8,0.2,0.2,0.2,0.8","0.2,0.8,0.2,0.2,0.2,0.8,0.8,0.2,0.2","3","",""
"","html-keyboard-response","258","77255","0.0-258.0","3RWE2M8QWIWEZN9IZL6G04LOBKV0NF","ANOPPPGFNTUPN","3TKXBROM5TWR181JXBYSOI8FGFVJIU","","null","<img src=""img/land6.png"" style=""width:200px;border:14px solid red;"">","null","","","","","","","","","",""
"","image-keyboard-response","259","77273","0.0-259.0","3RWE2M8QWIWEZN9IZL6G04LOBKV0NF","ANOPPPGFNTUPN","3TKXBROM5TWR181JXBYSOI8FGFVJIU","","10","img/land6.png","75","12","2","0","1","2","0.8,0.2,0.2,0.2,0.8,0.2,0.2,0.2,0.8","0.2,0.8,0.2,0.2,0.2,0.8,0.8,0.2,0.2","3","",""
"","html-keyboard-response","260","77575","0.0-260.0","3RWE2M8QWIWEZN9IZL6G04LOBKV0NF","ANOPPPGFNTUPN","3TKXBROM5TWR181JXBYSOI8FGFVJIU","","null","<img src=""img/land6.png"" style=""width:200px;border:14px solid red;"">","null","","","","","","","","","",""
"","image-keyboard-response","261","77929","0.0-261.0","3RWE2M8QWIWEZN9IZL6G04LOBKV0NF","ANOPPPGFNTUPN","3TKXBROM5TWR181JXBYSOI8FGFVJIU","","353","img/land5.png","76","353","3","0","3","2","0.8,0.2,0.2,0.2,0.8,0.2,0.2,0.2,0.8","0.2,0.8,0.2,0.2,0.2,0.8,0.8,0.2,0.2","3","",""
"","html-keyboard-response","262","78232","0.0-262.0","3RWE2M8QWIWEZN9IZL6G04LOBKV0NF","ANOPPPGFNTUPN","3TKXBROM5TWR181JXBYSOI8FGFVJIU","","null","<img src=""img/land5.png"" style=""width:200px;border:14px solid red;"">","null","","","","","","","","","",""
"","image-keyboard-response","263","78263","0.0-263.0","3RWE2M8QWIWEZN9IZL6G04LOBKV0NF","ANOPPPGFNTUPN","3TKXBROM5TWR181JXBYSOI8FGFVJIU","","30","img/land6.png","76","31","3","1","1","2","0.8,0.2,0.2,0.2,0.8,0.2,0.2,0.2,0.8","0.2,0.8,0.2,0.2,0.2,0.8,0.8,0.2,0.2","3","",""
"","html-keyboard-response","264","78565","0.0-264.0","3RWE2M8QWIWEZN9IZL6G04LOBKV0NF","ANOPPPGFNTUPN","3TKXBROM5TWR181JXBYSOI8FGFVJIU","","null","<img src=""img/land6.png"" style=""width:200px; border:14px solid green;"">","null","","","","","","","","","",""
"","image-keyboard-response","265","78815","0.0-265.0","3RWE2M8QWIWEZN9IZL6G04LOBKV0NF","ANOPPPGFNTUPN","3TKXBROM5TWR181JXBYSOI8FGFVJIU","","246","img/land6.png","75","249","2","0","1","2","0.8,0.2,0.2,0.2,0.8,0.2,0.2,0.2,0.8","0.2,0.8,0.2,0.2,0.2,0.8,0.8,0.2,0.2","3","",""
"","html-keyboard-response","266","79117","0.0-266.0","3RWE2M8QWIWEZN9IZL6G04LOBKV0NF","ANOPPPGFNTUPN","3TKXBROM5TWR181JXBYSOI8FGFVJIU","","null","<img src=""img/land6.png"" style=""width:200px;border:14px solid red;"">","null","","","","","","","","","",""
"","image-keyboard-response","267","79337","0.0-267.0","3RWE2M8QWIWEZN9IZL6G04LOBKV0NF","ANOPPPGFNTUPN","3TKXBROM5TWR181JXBYSOI8FGFVJIU","","218","img/land6.png","75","219","2","1","1","2","0.8,0.2,0.2,0.2,0.8,0.2,0.2,0.2,0.8","0.2,0.8,0.2,0.2,0.2,0.8,0.8,0.2,0.2","3","",""
"","html-keyboard-response","268","79650","0.0-268.0","3RWE2M8QWIWEZN9IZL6G04LOBKV0NF","ANOPPPGFNTUPN","3TKXBROM5TWR181JXBYSOI8FGFVJIU","","null","<img src=""img/land6.png"" style=""width:200px; border:14px solid green;"">","null","","","","","","","","","",""
"","image-keyboard-response","269","79749","0.0-269.0","3RWE2M8QWIWEZN9IZL6G04LOBKV0NF","ANOPPPGFNTUPN","3TKXBROM5TWR181JXBYSOI8FGFVJIU","","98","img/land6.png","74","99","1","0","1","2","0.8,0.2,0.2,0.2,0.8,0.2,0.2,0.2,0.8","0.2,0.8,0.2,0.2,0.2,0.8,0.8,0.2,0.2","3","",""
"","html-keyboard-response","270","80050","0.0-270.0","3RWE2M8QWIWEZN9IZL6G04LOBKV0NF","ANOPPPGFNTUPN","3TKXBROM5TWR181JXBYSOI8FGFVJIU","","null","<img src=""img/land6.png"" style=""width:200px;border:14px solid red;"">","null","","","","","","","","","",""
"","image-keyboard-response","271","80367","0.0-271.0","3RWE2M8QWIWEZN9IZL6G04LOBKV0NF","ANOPPPGFNTUPN","3TKXBROM5TWR181JXBYSOI8FGFVJIU","","315","img/land6.png","74","316","1","0","1","2","0.8,0.2,0.2,0.2,0.8,0.2,0.2,0.2,0.8","0.2,0.8,0.2,0.2,0.2,0.8,0.8,0.2,0.2","3","",""
"","html-keyboard-response","272","80671","0.0-272.0","3RWE2M8QWIWEZN9IZL6G04LOBKV0NF","ANOPPPGFNTUPN","3TKXBROM5TWR181JXBYSOI8FGFVJIU","","null","<img src=""img/land6.png"" style=""width:200px;border:14px solid red;"">","null","","","","","","","","","",""
"","image-keyboard-response","273","80864","0.0-273.0","3RWE2M8QWIWEZN9IZL6G04LOBKV0NF","ANOPPPGFNTUPN","3TKXBROM5TWR181JXBYSOI8FGFVJIU","","190","img/land6.png","75","192","2","1","1","2","0.8,0.2,0.2,0.2,0.8,0.2,0.2,0.2,0.8","0.2,0.8,0.2,0.2,0.2,0.8,0.8,0.2,0.2","3","",""
"","html-keyboard-response","274","81167","0.0-274.0","3RWE2M8QWIWEZN9IZL6G04LOBKV0NF","ANOPPPGFNTUPN","3TKXBROM5TWR181JXBYSOI8FGFVJIU","","null","<img src=""img/land6.png"" style=""width:200px; border:14px solid green;"">","null","","","","","","","","","",""
"","image-keyboard-response","275","81216","0.0-275.0","3RWE2M8QWIWEZN9IZL6G04LOBKV0NF","ANOPPPGFNTUPN","3TKXBROM5TWR181JXBYSOI8FGFVJIU","","47","img/land3.png","75","49","2","0","2","2","0.8,0.2,0.2,0.2,0.8,0.2,0.2,0.2,0.8","0.2,0.8,0.2,0.2,0.2,0.8,0.8,0.2,0.2","3","",""
"","html-keyboard-response","276","81519","0.0-276.0","3RWE2M8QWIWEZN9IZL6G04LOBKV0NF","ANOPPPGFNTUPN","3TKXBROM5TWR181JXBYSOI8FGFVJIU","","null","<img src=""img/land3.png"" style=""width:200px;border:14px solid red;"">","null","","","","","","","","","",""
"","image-keyboard-response","277","81759","0.0-277.0","3RWE2M8QWIWEZN9IZL6G04LOBKV0NF","ANOPPPGFNTUPN","3TKXBROM5TWR181JXBYSOI8FGFVJIU","","239","img/land5.png","75","240","2","1","3","2","0.8,0.2,0.2,0.2,0.8,0.2,0.2,0.2,0.8","0.2,0.8,0.2,0.2,0.2,0.8,0.8,0.2,0.2","3","",""
"","html-keyboard-response","278","82063","0.0-278.0","3RWE2M8QWIWEZN9IZL6G04LOBKV0NF","ANOPPPGFNTUPN","3TKXBROM5TWR181JXBYSOI8FGFVJIU","","null","<img src=""img/land5.png"" style=""width:200px; border:14px solid green;"">","null","","","","","","","","","",""
"","image-keyboard-response","279","82305","0.0-279.0","3RWE2M8QWIWEZN9IZL6G04LOBKV0NF","ANOPPPGFNTUPN","3TKXBROM5TWR181JXBYSOI8FGFVJIU","","241","img/land6.png","76","244","3","0","1","2","0.8,0.2,0.2,0.2,0.8,0.2,0.2,0.2,0.8","0.2,0.8,0.2,0.2,0.2,0.8,0.8,0.2,0.2","3","",""
"","html-keyboard-response","280","82611","0.0-280.0","3RWE2M8QWIWEZN9IZL6G04LOBKV0NF","ANOPPPGFNTUPN","3TKXBROM5TWR181JXBYSOI8FGFVJIU","","null","<img src=""img/land6.png"" style=""width:200px;border:14px solid red;"">","null","","","","","","","","","",""
"","image-keyboard-response","281","83048","0.0-281.0","3RWE2M8QWIWEZN9IZL6G04LOBKV0NF","ANOPPPGFNTUPN","3TKXBROM5TWR181JXBYSOI8FGFVJIU","","435","img/land5.png","76","437","3","0","3","2","0.8,0.2,0.2,0.2,0.8,0.2,0.2,0.2,0.8","0.2,0.8,0.2,0.2,0.2,0.8,0.8,0.2,0.2","3","",""
"","html-keyboard-response","282","83357","0.0-282.0","3RWE2M8QWIWEZN9IZL6G04LOBKV0NF","ANOPPPGFNTUPN","3TKXBROM5TWR181JXBYSOI8FGFVJIU","","null","<img src=""img/land5.png"" style=""width:200px;border:14px solid red;"">","null","","","","","","","","","",""
"","image-keyboard-response","283","83431","0.0-283.0","3RWE2M8QWIWEZN9IZL6G04LOBKV0NF","ANOPPPGFNTUPN","3TKXBROM5TWR181JXBYSOI8FGFVJIU","","71","img/land6.png","75","73","2","1","1","2","0.8,0.2,0.2,0.2,0.8,0.2,0.2,0.2,0.8","0.2,0.8,0.2,0.2,0.2,0.8,0.8,0.2,0.2","3","",""
"","html-keyboard-response","284","83732","0.0-284.0","3RWE2M8QWIWEZN9IZL6G04LOBKV0NF","ANOPPPGFNTUPN","3TKXBROM5TWR181JXBYSOI8FGFVJIU","","null","<img src=""img/land6.png"" style=""width:200px; border:14px solid green;"">","null","","","","","","","","","",""
"","image-keyboard-response","285","83865","0.0-285.0","3RWE2M8QWIWEZN9IZL6G04LOBKV0NF","ANOPPPGFNTUPN","3TKXBROM5TWR181JXBYSOI8FGFVJIU","","131","img/land6.png","74","132","1","0","1","2","0.8,0.2,0.2,0.2,0.8,0.2,0.2,0.2,0.8","0.2,0.8,0.2,0.2,0.2,0.8,0.8,0.2,0.2","3","",""
"","html-keyboard-response","286","84167","0.0-286.0","3RWE2M8QWIWEZN9IZL6G04LOBKV0NF","ANOPPPGFNTUPN","3TKXBROM5TWR181JXBYSOI8FGFVJIU","","null","<img src=""img/land6.png"" style=""width:200px;border:14px solid red;"">","null","","","","","","","","","",""
"","image-keyboard-response","287","84455","0.0-287.0","3RWE2M8QWIWEZN9IZL6G04LOBKV0NF","ANOPPPGFNTUPN","3TKXBROM5TWR181JXBYSOI8FGFVJIU","","285","img/land6.png","75","287","2","1","1","2","0.8,0.2,0.2,0.2,0.8,0.2,0.2,0.2,0.8","0.2,0.8,0.2,0.2,0.2,0.8,0.8,0.2,0.2","3","",""
"","html-keyboard-response","288","84757","0.0-288.0","3RWE2M8QWIWEZN9IZL6G04LOBKV0NF","ANOPPPGFNTUPN","3TKXBROM5TWR181JXBYSOI8FGFVJIU","","null","<img src=""img/land6.png"" style=""width:200px; border:14px solid green;"">","null","","","","","","","","","",""
"","image-keyboard-response","289","84840","0.0-289.0","3RWE2M8QWIWEZN9IZL6G04LOBKV0NF","ANOPPPGFNTUPN","3TKXBROM5TWR181JXBYSOI8FGFVJIU","","80","img/land6.png","75","82","2","1","1","2","0.8,0.2,0.2,0.2,0.8,0.2,0.2,0.2,0.8","0.2,0.8,0.2,0.2,0.2,0.8,0.8,0.2,0.2","3","",""
"","html-keyboard-response","290","85142","0.0-290.0","3RWE2M8QWIWEZN9IZL6G04LOBKV0NF","ANOPPPGFNTUPN","3TKXBROM5TWR181JXBYSOI8FGFVJIU","","null","<img src=""img/land6.png"" style=""width:200px; border:14px solid green;"">","null","","","","","","","","","",""
"","image-keyboard-response","291","85249","0.0-291.0","3RWE2M8QWIWEZN9IZL6G04LOBKV0NF","ANOPPPGFNTUPN","3TKXBROM5TWR181JXBYSOI8FGFVJIU","","104","img/land6.png","75","106","2","1","1","2","0.8,0.2,0.2,0.2,0.8,0.2,0.2,0.2,0.8","0.2,0.8,0.2,0.2,0.2,0.8,0.8,0.2,0.2","3","",""
"","html-keyboard-response","292","85550","0.0-292.0","3RWE2M8QWIWEZN9IZL6G04LOBKV0NF","ANOPPPGFNTUPN","3TKXBROM5TWR181JXBYSOI8FGFVJIU","","null","<img src=""img/land6.png"" style=""width:200px; border:14px solid green;"">","null","","","","","","","","","",""
"","image-keyboard-response","293","85631","0.0-293.0","3RWE2M8QWIWEZN9IZL6G04LOBKV0NF","ANOPPPGFNTUPN","3TKXBROM5TWR181JXBYSOI8FGFVJIU","","80","img/land6.png","75","81","2","1","1","2","0.8,0.2,0.2,0.2,0.8,0.2,0.2,0.2,0.8","0.2,0.8,0.2,0.2,0.2,0.8,0.8,0.2,0.2","3","",""
"","html-keyboard-response","294","85932","0.0-294.0","3RWE2M8QWIWEZN9IZL6G04LOBKV0NF","ANOPPPGFNTUPN","3TKXBROM5TWR181JXBYSOI8FGFVJIU","","null","<img src=""img/land6.png"" style=""width:200px; border:14px solid green;"">","null","","","","","","","","","",""
"","image-keyboard-response","295","86048","0.0-295.0","3RWE2M8QWIWEZN9IZL6G04LOBKV0NF","ANOPPPGFNTUPN","3TKXBROM5TWR181JXBYSOI8FGFVJIU","","114","img/land6.png","75","116","2","1","1","2","0.8,0.2,0.2,0.2,0.8,0.2,0.2,0.2,0.8","0.2,0.8,0.2,0.2,0.2,0.8,0.8,0.2,0.2","3","",""
"","html-keyboard-response","296","86350","0.0-296.0","3RWE2M8QWIWEZN9IZL6G04LOBKV0NF","ANOPPPGFNTUPN","3TKXBROM5TWR181JXBYSOI8FGFVJIU","","null","<img src=""img/land6.png"" style=""width:200px; border:14px solid green;"">","null","","","","","","","","","",""
"","image-keyboard-response","297","86424","0.0-297.0","3RWE2M8QWIWEZN9IZL6G04LOBKV0NF","ANOPPPGFNTUPN","3TKXBROM5TWR181JXBYSOI8FGFVJIU","","73","img/land6.png","75","75","2","1","1","2","0.8,0.2,0.2,0.2,0.8,0.2,0.2,0.2,0.8","0.2,0.8,0.2,0.2,0.2,0.8,0.8,0.2,0.2","3","",""
"","html-keyboard-response","298","86728","0.0-298.0","3RWE2M8QWIWEZN9IZL6G04LOBKV0NF","ANOPPPGFNTUPN","3TKXBROM5TWR181JXBYSOI8FGFVJIU","","null","<img src=""img/land6.png"" style=""width:200px; border:14px solid green;"">","null","","","","","","","","","",""
"","image-keyboard-response","299","86782","0.0-299.0","3RWE2M8QWIWEZN9IZL6G04LOBKV0NF","ANOPPPGFNTUPN","3TKXBROM5TWR181JXBYSOI8FGFVJIU","","47","img/land6.png","75","52","2","1","1","2","0.8,0.2,0.2,0.2,0.8,0.2,0.2,0.2,0.8","0.2,0.8,0.2,0.2,0.2,0.8,0.8,0.2,0.2","3","",""
"","html-keyboard-response","300","87086","0.0-300.0","3RWE2M8QWIWEZN9IZL6G04LOBKV0NF","ANOPPPGFNTUPN","3TKXBROM5TWR181JXBYSOI8FGFVJIU","","null","<img src=""img/land6.png"" style=""width:200px; border:14px solid green;"">","null","","","","","","","","","",""
"","image-keyboard-response","301","87105","0.0-301.0","3RWE2M8QWIWEZN9IZL6G04LOBKV0NF","ANOPPPGFNTUPN","3TKXBROM5TWR181JXBYSOI8FGFVJIU","","16","img/land6.png","75","18","2","0","1","2","0.8,0.2,0.2,0.2,0.8,0.2,0.2,0.2,0.8","0.2,0.8,0.2,0.2,0.2,0.8,0.8,0.2,0.2","3","",""
"","html-keyboard-response","302","87408","0.0-302.0","3RWE2M8QWIWEZN9IZL6G04LOBKV0NF","ANOPPPGFNTUPN","3TKXBROM5TWR181JXBYSOI8FGFVJIU","","null","<img src=""img/land6.png"" style=""width:200px;border:14px solid red;"">","null","","","","","","","","","",""
"","image-keyboard-response","303","87416","0.0-303.0","3RWE2M8QWIWEZN9IZL6G04LOBKV0NF","ANOPPPGFNTUPN","3TKXBROM5TWR181JXBYSOI8FGFVJIU","","6","img/land6.png","75","7","2","0","1","2","0.8,0.2,0.2,0.2,0.8,0.2,0.2,0.2,0.8","0.2,0.8,0.2,0.2,0.2,0.8,0.8,0.2,0.2","3","",""
"","html-keyboard-response","304","87718","0.0-304.0","3RWE2M8QWIWEZN9IZL6G04LOBKV0NF","ANOPPPGFNTUPN","3TKXBROM5TWR181JXBYSOI8FGFVJIU","","null","<img src=""img/land6.png"" style=""width:200px;border:14px solid red;"">","null","","","","","","","","","",""
"","image-keyboard-response","305","87775","0.0-305.0","3RWE2M8QWIWEZN9IZL6G04LOBKV0NF","ANOPPPGFNTUPN","3TKXBROM5TWR181JXBYSOI8FGFVJIU","","53","img/land6.png","75","55","2","1","1","2","0.8,0.2,0.2,0.2,0.8,0.2,0.2,0.2,0.8","0.2,0.8,0.2,0.2,0.2,0.8,0.8,0.2,0.2","3","",""
"","html-keyboard-response","306","88084","0.0-306.0","3RWE2M8QWIWEZN9IZL6G04LOBKV0NF","ANOPPPGFNTUPN","3TKXBROM5TWR181JXBYSOI8FGFVJIU","","null","<img src=""img/land6.png"" style=""width:200px; border:14px solid green;"">","null","","","","","","","","","",""
"","image-keyboard-response","307","88410","0.0-307.0","3RWE2M8QWIWEZN9IZL6G04LOBKV0NF","ANOPPPGFNTUPN","3TKXBROM5TWR181JXBYSOI8FGFVJIU","","317","img/land6.png","75","320","2","0","1","2","0.8,0.2,0.2,0.2,0.8,0.2,0.2,0.2,0.8","0.2,0.8,0.2,0.2,0.2,0.8,0.8,0.2,0.2","3","",""
"","html-keyboard-response","308","88713","0.0-308.0","3RWE2M8QWIWEZN9IZL6G04LOBKV0NF","ANOPPPGFNTUPN","3TKXBROM5TWR181JXBYSOI8FGFVJIU","","null","<img src=""img/land6.png"" style=""width:200px;border:14px solid red;"">","null","","","","","","","","","",""
"","image-keyboard-response","309","89014","0.0-309.0","3RWE2M8QWIWEZN9IZL6G04LOBKV0NF","ANOPPPGFNTUPN","3TKXBROM5TWR181JXBYSOI8FGFVJIU","","299","img/land3.png","75","300","2","1","2","2","0.8,0.2,0.2,0.2,0.8,0.2,0.2,0.2,0.8","0.2,0.8,0.2,0.2,0.2,0.8,0.8,0.2,0.2","3","",""
"","html-keyboard-response","310","89315","0.0-310.0","3RWE2M8QWIWEZN9IZL6G04LOBKV0NF","ANOPPPGFNTUPN","3TKXBROM5TWR181JXBYSOI8FGFVJIU","","null","<img src=""img/land3.png"" style=""width:200px; border:14px solid green;"">","null","","","","","","","","","",""
"","image-keyboard-response","311","89326","0.0-311.0","3RWE2M8QWIWEZN9IZL6G04LOBKV0NF","ANOPPPGFNTUPN","3TKXBROM5TWR181JXBYSOI8FGFVJIU","","10","img/land6.png","75","11","2","0","1","2","0.8,0.2,0.2,0.2,0.8,0.2,0.2,0.2,0.8","0.2,0.8,0.2,0.2,0.2,0.8,0.8,0.2,0.2","3","",""
"","html-keyboard-response","312","89628","0.0-312.0","3RWE2M8QWIWEZN9IZL6G04LOBKV0NF","ANOPPPGFNTUPN","3TKXBROM5TWR181JXBYSOI8FGFVJIU","","null","<img src=""img/land6.png"" style=""width:200px;border:14px solid red;"">","null","","","","","","","","","",""
"","image-keyboard-response","313","89881","0.0-313.0","3RWE2M8QWIWEZN9IZL6G04LOBKV0NF","ANOPPPGFNTUPN","3TKXBROM5TWR181JXBYSOI8FGFVJIU","","250","img/land5.png","75","252","2","0","3","2","0.8,0.2,0.2,0.2,0.8,0.2,0.2,0.2,0.8","0.2,0.8,0.2,0.2,0.2,0.8,0.8,0.2,0.2","3","",""
"","html-keyboard-response","314","90184","0.0-314.0","3RWE2M8QWIWEZN9IZL6G04LOBKV0NF","ANOPPPGFNTUPN","3TKXBROM5TWR181JXBYSOI8FGFVJIU","","null","<img src=""img/land5.png"" style=""width:200px;border:14px solid red;"">","null","","","","","","","","","",""
"","image-keyboard-response","315","90472","0.0-315.0","3RWE2M8QWIWEZN9IZL6G04LOBKV0NF","ANOPPPGFNTUPN","3TKXBROM5TWR181JXBYSOI8FGFVJIU","","285","img/land6.png","75","287","2","1","1","2","0.8,0.2,0.2,0.2,0.8,0.2,0.2,0.2,0.8","0.2,0.8,0.2,0.2,0.2,0.8,0.8,0.2,0.2","3","",""
"","html-keyboard-response","316","90775","0.0-316.0","3RWE2M8QWIWEZN9IZL6G04LOBKV0NF","ANOPPPGFNTUPN","3TKXBROM5TWR181JXBYSOI8FGFVJIU","","null","<img src=""img/land6.png"" style=""width:200px; border:14px solid green;"">","null","","","","","","","","","",""
"","image-keyboard-response","317","90782","0.0-317.0","3RWE2M8QWIWEZN9IZL6G04LOBKV0NF","ANOPPPGFNTUPN","3TKXBROM5TWR181JXBYSOI8FGFVJIU","","6","img/land6.png","75","8","2","1","1","2","0.8,0.2,0.2,0.2,0.8,0.2,0.2,0.2,0.8","0.2,0.8,0.2,0.2,0.2,0.8,0.8,0.2,0.2","3","",""
"","html-keyboard-response","318","91084","0.0-318.0","3RWE2M8QWIWEZN9IZL6G04LOBKV0NF","ANOPPPGFNTUPN","3TKXBROM5TWR181JXBYSOI8FGFVJIU","","null","<img src=""img/land6.png"" style=""width:200px; border:14px solid green;"">","null","","","","","","","","","",""
"","image-keyboard-response","319","91392","0.0-319.0","3RWE2M8QWIWEZN9IZL6G04LOBKV0NF","ANOPPPGFNTUPN","3TKXBROM5TWR181JXBYSOI8FGFVJIU","","307","img/land3.png","76","308","3","0","2","2","0.8,0.2,0.2,0.2,0.8,0.2,0.2,0.2,0.8","0.2,0.8,0.2,0.2,0.2,0.8,0.8,0.2,0.2","3","",""
"","html-keyboard-response","320","91695","0.0-320.0","3RWE2M8QWIWEZN9IZL6G04LOBKV0NF","ANOPPPGFNTUPN","3TKXBROM5TWR181JXBYSOI8FGFVJIU","","null","<img src=""img/land3.png"" style=""width:200px;border:14px solid red;"">","null","","","","","","","","","",""
"","image-keyboard-response","321","91759","0.0-321.0","3RWE2M8QWIWEZN9IZL6G04LOBKV0NF","ANOPPPGFNTUPN","3TKXBROM5TWR181JXBYSOI8FGFVJIU","","63","img/land5.png","76","64","3","0","3","2","0.8,0.2,0.2,0.2,0.8,0.2,0.2,0.2,0.8","0.2,0.8,0.2,0.2,0.2,0.8,0.8,0.2,0.2","3","",""
"","html-keyboard-response","322","92061","0.0-322.0","3RWE2M8QWIWEZN9IZL6G04LOBKV0NF","ANOPPPGFNTUPN","3TKXBROM5TWR181JXBYSOI8FGFVJIU","","null","<img src=""img/land5.png"" style=""width:200px;border:14px solid red;"">","null","","","","","","","","","",""
"","image-keyboard-response","323","92384","0.0-323.0","3RWE2M8QWIWEZN9IZL6G04LOBKV0NF","ANOPPPGFNTUPN","3TKXBROM5TWR181JXBYSOI8FGFVJIU","","321","img/land6.png","75","323","2","1","1","2","0.8,0.2,0.2,0.2,0.8,0.2,0.2,0.2,0.8","0.2,0.8,0.2,0.2,0.2,0.8,0.8,0.2,0.2","3","",""
"","html-keyboard-response","324","92686","0.0-324.0","3RWE2M8QWIWEZN9IZL6G04LOBKV0NF","ANOPPPGFNTUPN","3TKXBROM5TWR181JXBYSOI8FGFVJIU","","null","<img src=""img/land6.png"" style=""width:200px; border:14px solid green;"">","null","","","","","","","","","",""
"","image-keyboard-response","325","92729","0.0-325.0","3RWE2M8QWIWEZN9IZL6G04LOBKV0NF","ANOPPPGFNTUPN","3TKXBROM5TWR181JXBYSOI8FGFVJIU","","40","img/land6.png","74","42","1","0","1","2","0.8,0.2,0.2,0.2,0.8,0.2,0.2,0.2,0.8","0.2,0.8,0.2,0.2,0.2,0.8,0.8,0.2,0.2","3","",""
"","html-keyboard-response","326","93031","0.0-326.0","3RWE2M8QWIWEZN9IZL6G04LOBKV0NF","ANOPPPGFNTUPN","3TKXBROM5TWR181JXBYSOI8FGFVJIU","","null","<img src=""img/land6.png"" style=""width:200px;border:14px solid red;"">","null","","","","","","","","","",""
"","image-keyboard-response","327","93104","0.0-327.0","3RWE2M8QWIWEZN9IZL6G04LOBKV0NF","ANOPPPGFNTUPN","3TKXBROM5TWR181JXBYSOI8FGFVJIU","","71","img/land5.png","74","73","1","1","3","2","0.8,0.2,0.2,0.2,0.8,0.2,0.2,0.2,0.8","0.2,0.8,0.2,0.2,0.2,0.8,0.8,0.2,0.2","3","",""
"","html-keyboard-response","328","93406","0.0-328.0","3RWE2M8QWIWEZN9IZL6G04LOBKV0NF","ANOPPPGFNTUPN","3TKXBROM5TWR181JXBYSOI8FGFVJIU","","null","<img src=""img/land5.png"" style=""width:200px; border:14px solid green;"">","null","","","","","","","","","",""
"","image-keyboard-response","329","93439","0.0-329.0","3RWE2M8QWIWEZN9IZL6G04LOBKV0NF","ANOPPPGFNTUPN","3TKXBROM5TWR181JXBYSOI8FGFVJIU","","31","img/land3.png","75","32","2","0","2","2","0.8,0.2,0.2,0.2,0.8,0.2,0.2,0.2,0.8","0.2,0.8,0.2,0.2,0.2,0.8,0.8,0.2,0.2","3","",""
"","html-keyboard-response","330","93793","0.0-330.0","3RWE2M8QWIWEZN9IZL6G04LOBKV0NF","ANOPPPGFNTUPN","3TKXBROM5TWR181JXBYSOI8FGFVJIU","","null","<img src=""img/land3.png"" style=""width:200px;border:14px solid red;"">","null","","","","","","","","","",""
"","image-keyboard-response","331","93836","0.0-331.0","3RWE2M8QWIWEZN9IZL6G04LOBKV0NF","ANOPPPGFNTUPN","3TKXBROM5TWR181JXBYSOI8FGFVJIU","","36","img/land6.png","75","39","2","1","1","2","0.8,0.2,0.2,0.2,0.8,0.2,0.2,0.2,0.8","0.2,0.8,0.2,0.2,0.2,0.8,0.8,0.2,0.2","3","",""
"","html-keyboard-response","332","94136","0.0-332.0","3RWE2M8QWIWEZN9IZL6G04LOBKV0NF","ANOPPPGFNTUPN","3TKXBROM5TWR181JXBYSOI8FGFVJIU","","null","<img src=""img/land6.png"" style=""width:200px; border:14px solid green;"">","null","","","","","","","","","",""
"","image-keyboard-response","333","94369","0.0-333.0","3RWE2M8QWIWEZN9IZL6G04LOBKV0NF","ANOPPPGFNTUPN","3TKXBROM5TWR181JXBYSOI8FGFVJIU","","230","img/land3.png","74","232","1","0","2","2","0.8,0.2,0.2,0.2,0.8,0.2,0.2,0.2,0.8","0.2,0.8,0.2,0.2,0.2,0.8,0.8,0.2,0.2","3","",""
"","html-keyboard-response","334","94671","0.0-334.0","3RWE2M8QWIWEZN9IZL6G04LOBKV0NF","ANOPPPGFNTUPN","3TKXBROM5TWR181JXBYSOI8FGFVJIU","","null","<img src=""img/land3.png"" style=""width:200px;border:14px solid red;"">","null","","","","","","","","","",""
"","image-keyboard-response","335","94972","0.0-335.0","3RWE2M8QWIWEZN9IZL6G04LOBKV0NF","ANOPPPGFNTUPN","3TKXBROM5TWR181JXBYSOI8FGFVJIU","","296","img/land3.png","74","303","1","1","2","2","0.8,0.2,0.2,0.2,0.8,0.2,0.2,0.2,0.8","0.2,0.8,0.2,0.2,0.2,0.8,0.8,0.2,0.2","3","",""
"","html-keyboard-response","336","95276","0.0-336.0","3RWE2M8QWIWEZN9IZL6G04LOBKV0NF","ANOPPPGFNTUPN","3TKXBROM5TWR181JXBYSOI8FGFVJIU","","null","<img src=""img/land3.png"" style=""width:200px; border:14px solid green;"">","null","","","","","","","","","",""
"","image-keyboard-response","337","95445","0.0-337.0","3RWE2M8QWIWEZN9IZL6G04LOBKV0NF","ANOPPPGFNTUPN","3TKXBROM5TWR181JXBYSOI8FGFVJIU","","167","img/land3.png","75","168","2","0","2","2","0.8,0.2,0.2,0.2,0.8,0.2,0.2,0.2,0.8","0.2,0.8,0.2,0.2,0.2,0.8,0.8,0.2,0.2","3","",""
"","html-keyboard-response","338","95746","0.0-338.0","3RWE2M8QWIWEZN9IZL6G04LOBKV0NF","ANOPPPGFNTUPN","3TKXBROM5TWR181JXBYSOI8FGFVJIU","","null","<img src=""img/land3.png"" style=""width:200px;border:14px solid red;"">","null","","","","","","","","","",""
"","image-keyboard-response","339","96017","0.0-339.0","3RWE2M8QWIWEZN9IZL6G04LOBKV0NF","ANOPPPGFNTUPN","3TKXBROM5TWR181JXBYSOI8FGFVJIU","","269","img/land6.png","75","270","2","1","1","2","0.8,0.2,0.2,0.2,0.8,0.2,0.2,0.2,0.8","0.2,0.8,0.2,0.2,0.2,0.8,0.8,0.2,0.2","3","",""
"","html-keyboard-response","340","96321","0.0-340.0","3RWE2M8QWIWEZN9IZL6G04LOBKV0NF","ANOPPPGFNTUPN","3TKXBROM5TWR181JXBYSOI8FGFVJIU","","null","<img src=""img/land6.png"" style=""width:200px; border:14px solid green;"">","null","","","","","","","","","",""
"","image-keyboard-response","341","96663","0.0-341.0","3RWE2M8QWIWEZN9IZL6G04LOBKV0NF","ANOPPPGFNTUPN","3TKXBROM5TWR181JXBYSOI8FGFVJIU","","339","img/land5.png","74","340","1","1","3","2","0.8,0.2,0.2,0.2,0.8,0.2,0.2,0.2,0.8","0.2,0.8,0.2,0.2,0.2,0.8,0.8,0.2,0.2","3","",""
"","html-keyboard-response","342","96964","0.0-342.0","3RWE2M8QWIWEZN9IZL6G04LOBKV0NF","ANOPPPGFNTUPN","3TKXBROM5TWR181JXBYSOI8FGFVJIU","","null","<img src=""img/land5.png"" style=""width:200px; border:14px solid green;"">","null","","","","","","","","","",""
"","image-keyboard-response","343","97241","0.0-343.0","3RWE2M8QWIWEZN9IZL6G04LOBKV0NF","ANOPPPGFNTUPN","3TKXBROM5TWR181JXBYSOI8FGFVJIU","","273","img/land6.png","76","275","3","0","1","2","0.8,0.2,0.2,0.2,0.8,0.2,0.2,0.2,0.8","0.2,0.8,0.2,0.2,0.2,0.8,0.8,0.2,0.2","3","",""
"","html-keyboard-response","344","97544","0.0-344.0","3RWE2M8QWIWEZN9IZL6G04LOBKV0NF","ANOPPPGFNTUPN","3TKXBROM5TWR181JXBYSOI8FGFVJIU","","null","<img src=""img/land6.png"" style=""width:200px;border:14px solid red;"">","null","","","","","","","","","",""
"","image-keyboard-response","345","98079","0.0-345.0","3RWE2M8QWIWEZN9IZL6G04LOBKV0NF","ANOPPPGFNTUPN","3TKXBROM5TWR181JXBYSOI8FGFVJIU","","531","img/land6.png","74","533","1","0","1","2","0.8,0.2,0.2,0.2,0.8,0.2,0.2,0.2,0.8","0.2,0.8,0.2,0.2,0.2,0.8,0.8,0.2,0.2","3","",""
"","html-keyboard-response","346","98382","0.0-346.0","3RWE2M8QWIWEZN9IZL6G04LOBKV0NF","ANOPPPGFNTUPN","3TKXBROM5TWR181JXBYSOI8FGFVJIU","","null","<img src=""img/land6.png"" style=""width:200px;border:14px solid red;"">","null","","","","","","","","","",""
"","image-keyboard-response","347","98432","0.0-347.0","3RWE2M8QWIWEZN9IZL6G04LOBKV0NF","ANOPPPGFNTUPN","3TKXBROM5TWR181JXBYSOI8FGFVJIU","","49","img/land6.png","74","49","1","0","1","2","0.8,0.2,0.2,0.2,0.8,0.2,0.2,0.2,0.8","0.2,0.8,0.2,0.2,0.2,0.8,0.8,0.2,0.2","3","",""
"","html-keyboard-response","348","98742","0.0-348.0","3RWE2M8QWIWEZN9IZL6G04LOBKV0NF","ANOPPPGFNTUPN","3TKXBROM5TWR181JXBYSOI8FGFVJIU","","null","<img src=""img/land6.png"" style=""width:200px;border:14px solid red;"">","null","","","","","","","","","",""
"","image-keyboard-response","349","98750","0.0-349.0","3RWE2M8QWIWEZN9IZL6G04LOBKV0NF","ANOPPPGFNTUPN","3TKXBROM5TWR181JXBYSOI8FGFVJIU","","7","img/land5.png","74","9","1","1","3","2","0.8,0.2,0.2,0.2,0.8,0.2,0.2,0.2,0.8","0.2,0.8,0.2,0.2,0.2,0.8,0.8,0.2,0.2","3","",""
"","html-keyboard-response","350","99053","0.0-350.0","3RWE2M8QWIWEZN9IZL6G04LOBKV0NF","ANOPPPGFNTUPN","3TKXBROM5TWR181JXBYSOI8FGFVJIU","","null","<img src=""img/land5.png"" style=""width:200px; border:14px solid green;"">","null","","","","","","","","","",""
"","image-keyboard-response","351","99134","0.0-351.0","3RWE2M8QWIWEZN9IZL6G04LOBKV0NF","ANOPPPGFNTUPN","3TKXBROM5TWR181JXBYSOI8FGFVJIU","","78","img/land6.png","74","80","1","0","1","2","0.8,0.2,0.2,0.2,0.8,0.2,0.2,0.2,0.8","0.2,0.8,0.2,0.2,0.2,0.8,0.8,0.2,0.2","3","",""
"","html-keyboard-response","352","99436","0.0-352.0","3RWE2M8QWIWEZN9IZL6G04LOBKV0NF","ANOPPPGFNTUPN","3TKXBROM5TWR181JXBYSOI8FGFVJIU","","null","<img src=""img/land6.png"" style=""width:200px;border:14px solid red;"">","null","","","","","","","","","",""
"","image-keyboard-response","353","99747","0.0-353.0","3RWE2M8QWIWEZN9IZL6G04LOBKV0NF","ANOPPPGFNTUPN","3TKXBROM5TWR181JXBYSOI8FGFVJIU","","309","img/land6.png","74","312","1","0","1","2","0.8,0.2,0.2,0.2,0.8,0.2,0.2,0.2,0.8","0.2,0.8,0.2,0.2,0.2,0.8,0.8,0.2,0.2","3","",""
"","html-keyboard-response","354","100049","0.0-354.0","3RWE2M8QWIWEZN9IZL6G04LOBKV0NF","ANOPPPGFNTUPN","3TKXBROM5TWR181JXBYSOI8FGFVJIU","","null","<img src=""img/land6.png"" style=""width:200px;border:14px solid red;"">","null","","","","","","","","","",""
"","image-keyboard-response","355","100385","0.0-355.0","3RWE2M8QWIWEZN9IZL6G04LOBKV0NF","ANOPPPGFNTUPN","3TKXBROM5TWR181JXBYSOI8FGFVJIU","","332","img/land6.png","75","334","2","1","1","2","0.8,0.2,0.2,0.2,0.8,0.2,0.2,0.2,0.8","0.2,0.8,0.2,0.2,0.2,0.8,0.8,0.2,0.2","3","",""
"","html-keyboard-response","356","100687","0.0-356.0","3RWE2M8QWIWEZN9IZL6G04LOBKV0NF","ANOPPPGFNTUPN","3TKXBROM5TWR181JXBYSOI8FGFVJIU","","null","<img src=""img/land6.png"" style=""width:200px; border:14px solid green;"">","null","","","","","","","","","",""
"","image-keyboard-response","357","100700","0.0-357.0","3RWE2M8QWIWEZN9IZL6G04LOBKV0NF","ANOPPPGFNTUPN","3TKXBROM5TWR181JXBYSOI8FGFVJIU","","11","img/land3.png","75","12","2","0","2","2","0.8,0.2,0.2,0.2,0.8,0.2,0.2,0.2,0.8","0.2,0.8,0.2,0.2,0.2,0.8,0.8,0.2,0.2","3","",""
"","html-keyboard-response","358","101046","0.0-358.0","3RWE2M8QWIWEZN9IZL6G04LOBKV0NF","ANOPPPGFNTUPN","3TKXBROM5TWR181JXBYSOI8FGFVJIU","","null","<img src=""img/land3.png"" style=""width:200px;border:14px solid red;"">","null","","","","","","","","","",""
"","image-keyboard-response","359","101193","0.0-359.0","3RWE2M8QWIWEZN9IZL6G04LOBKV0NF","ANOPPPGFNTUPN","3TKXBROM5TWR181JXBYSOI8FGFVJIU","","146","img/land6.png","75","147","2","1","1","2","0.8,0.2,0.2,0.2,0.8,0.2,0.2,0.2,0.8","0.2,0.8,0.2,0.2,0.2,0.8,0.8,0.2,0.2","3","",""
"","html-keyboard-response","360","101497","0.0-360.0","3RWE2M8QWIWEZN9IZL6G04LOBKV0NF","ANOPPPGFNTUPN","3TKXBROM5TWR181JXBYSOI8FGFVJIU","","null","<img src=""img/land6.png"" style=""width:200px; border:14px solid green;"">","null","","","","","","","","","",""
"","image-keyboard-response","361","101736","0.0-361.0","3RWE2M8QWIWEZN9IZL6G04LOBKV0NF","ANOPPPGFNTUPN","3TKXBROM5TWR181JXBYSOI8FGFVJIU","","239","img/land6.png","75","239","2","1","1","2","0.8,0.2,0.2,0.2,0.8,0.2,0.2,0.2,0.8","0.2,0.8,0.2,0.2,0.2,0.8,0.8,0.2,0.2","3","",""
"","html-keyboard-response","362","102054","0.0-362.0","3RWE2M8QWIWEZN9IZL6G04LOBKV0NF","ANOPPPGFNTUPN","3TKXBROM5TWR181JXBYSOI8FGFVJIU","","null","<img src=""img/land6.png"" style=""width:200px; border:14px solid green;"">","null","","","","","","","","","",""
"","image-keyboard-response","363","102264","0.0-363.0","3RWE2M8QWIWEZN9IZL6G04LOBKV0NF","ANOPPPGFNTUPN","3TKXBROM5TWR181JXBYSOI8FGFVJIU","","209","img/land6.png","75","210","2","1","1","2","0.8,0.2,0.2,0.2,0.8,0.2,0.2,0.2,0.8","0.2,0.8,0.2,0.2,0.2,0.8,0.8,0.2,0.2","3","",""
"","html-keyboard-response","364","102565","0.0-364.0","3RWE2M8QWIWEZN9IZL6G04LOBKV0NF","ANOPPPGFNTUPN","3TKXBROM5TWR181JXBYSOI8FGFVJIU","","null","<img src=""img/land6.png"" style=""width:200px; border:14px solid green;"">","null","","","","","","","","","",""
"","image-keyboard-response","365","102743","0.0-365.0","3RWE2M8QWIWEZN9IZL6G04LOBKV0NF","ANOPPPGFNTUPN","3TKXBROM5TWR181JXBYSOI8FGFVJIU","","176","img/land6.png","75","178","2","1","1","2","0.8,0.2,0.2,0.2,0.8,0.2,0.2,0.2,0.8","0.2,0.8,0.2,0.2,0.2,0.8,0.8,0.2,0.2","3","",""
"","html-keyboard-response","366","103046","0.0-366.0","3RWE2M8QWIWEZN9IZL6G04LOBKV0NF","ANOPPPGFNTUPN","3TKXBROM5TWR181JXBYSOI8FGFVJIU","","null","<img src=""img/land6.png"" style=""width:200px; border:14px solid green;"">","null","","","","","","","","","",""
"","image-keyboard-response","367","103074","0.0-367.0","3RWE2M8QWIWEZN9IZL6G04LOBKV0NF","ANOPPPGFNTUPN","3TKXBROM5TWR181JXBYSOI8FGFVJIU","","19","img/land6.png","75","24","2","1","1","2","0.8,0.2,0.2,0.2,0.8,0.2,0.2,0.2,0.8","0.2,0.8,0.2,0.2,0.2,0.8,0.8,0.2,0.2","3","",""
"","html-keyboard-response","368","103384","0.0-368.0","3RWE2M8QWIWEZN9IZL6G04LOBKV0NF","ANOPPPGFNTUPN","3TKXBROM5TWR181JXBYSOI8FGFVJIU","","null","<img src=""img/land6.png"" style=""width:200px; border:14px solid green;"">","null","","","","","","","","","",""
"","image-keyboard-response","369","103443","0.0-369.0","3RWE2M8QWIWEZN9IZL6G04LOBKV0NF","ANOPPPGFNTUPN","3TKXBROM5TWR181JXBYSOI8FGFVJIU","","52","img/land6.png","75","59","2","1","1","2","0.8,0.2,0.2,0.2,0.8,0.2,0.2,0.2,0.8","0.2,0.8,0.2,0.2,0.2,0.8,0.8,0.2,0.2","3","",""
"","html-keyboard-response","370","103745","0.0-370.0","3RWE2M8QWIWEZN9IZL6G04LOBKV0NF","ANOPPPGFNTUPN","3TKXBROM5TWR181JXBYSOI8FGFVJIU","","null","<img src=""img/land6.png"" style=""width:200px; border:14px solid green;"">","null","","","","","","","","","",""
"","image-keyboard-response","371","104113","0.0-371.0","3RWE2M8QWIWEZN9IZL6G04LOBKV0NF","ANOPPPGFNTUPN","3TKXBROM5TWR181JXBYSOI8FGFVJIU","","365","img/land6.png","76","367","3","0","1","2","0.8,0.2,0.2,0.2,0.8,0.2,0.2,0.2,0.8","0.2,0.8,0.2,0.2,0.2,0.8,0.8,0.2,0.2","3","",""
"","html-keyboard-response","372","104415","0.0-372.0","3RWE2M8QWIWEZN9IZL6G04LOBKV0NF","ANOPPPGFNTUPN","3TKXBROM5TWR181JXBYSOI8FGFVJIU","","null","<img src=""img/land6.png"" style=""width:200px;border:14px solid red;"">","null","","","","","","","","","",""
"","image-keyboard-response","373","104657","0.0-373.0","3RWE2M8QWIWEZN9IZL6G04LOBKV0NF","ANOPPPGFNTUPN","3TKXBROM5TWR181JXBYSOI8FGFVJIU","","237","img/land6.png","75","241","2","1","1","2","0.8,0.2,0.2,0.2,0.8,0.2,0.2,0.2,0.8","0.2,0.8,0.2,0.2,0.2,0.8,0.8,0.2,0.2","3","",""
