"success","trial_type","trial_index","time_elapsed","internal_node_id","assignmentID","mturkID","hitID","view_history","rt","stimulus","key_press","reactionTime","a","r","s","cond","reward_cond","reward_cond_actual","reward_matrix_idx","responses","question_order"
"true","fullscreen","0","2670","0.0-0.0","","","","","","","","","","","","","","","","",""
"","instructions","1","19281","0.0-1.0","","","","[{""page_index"":0,""viewing_time"":4774},{""page_index"":1,""viewing_time"":2017},{""page_index"":2,""viewing_time"":910},{""page_index"":3,""viewing_time"":3289},{""page_index"":4,""viewing_time"":2823},{""page_index"":5,""viewing_time"":1658},{""page_index"":6,""viewing_time"":1134}]","16606","","","","","","","","","","","",""
"","image-keyboard-response","2","20788","0.0-2.0","","","","","","img/land1.png","","1507","-1","0","1","1","1,0.5,0.5,0.5,1,0.5,0.5,0.5,1","1,0.5,0.5,0.5,1,0.5,0.5,0.5,1","","",""
"","html-keyboard-response","3","21105","0.0-3.0","","","","","null","<img src=""img/land1.png"" style=""width:200px;border:14px solid red;"">","null","","","","","","","","","",""
"","image-keyboard-response","4","21135","0.0-4.0","","","","","29","img/land3.png","74","30","1","1","3","1","1,0.5,0.5,0.5,1,0.5,0.5,0.5,1","1,0.5,0.5,0.5,1,0.5,0.5,0.5,1","","",""
"","html-keyboard-response","5","21458","0.0-5.0","","","","","null","<img src=""img/land3.png"" style=""width:200px; border:14px solid green;"">","null","","","","","","","","","",""
"","image-keyboard-response","6","21887","0.0-6.0","","","","","427","img/land3.png","75","428","2","0","3","1","1,0.5,0.5,0.5,1,0.5,0.5,0.5,1","1,0.5,0.5,0.5,1,0.5,0.5,0.5,1","","",""
"","html-keyboard-response","7","22191","0.0-7.0","","","","","null","<img src=""img/land3.png"" style=""width:200px;border:14px solid red;"">","null","","","","","","","","","",""
"","image-keyboard-response","8","22866","0.0-8.0","","","","","674","img/land2.png","76","675","3","1","2","1","1,0.5,0.5,0.5,1,0.5,0.5,0.5,1","1,0.5,0.5,0.5,1,0.5,0.5,0.5,1","","",""
"","html-keyboard-response","9","23177","0.0-9.0","","","","","null","<img src=""img/land2.png"" style=""width:200px; border:14px solid green;"">","null","","","","","","","","","",""
"","image-keyboard-response","10","23855","0.0-10.0","","","","","676","img/land1.png","75","676","2","0","1","1","1,0.5,0.5,0.5,1,0.5,0.5,0.5,1","1,0.5,0.5,0.5,1,0.5,0.5,0.5,1","","",""
"","html-keyboard-response","11","24165","0.0-11.0","","","","","null","<img src=""img/land1.png"" style=""width:200px;border:14px solid red;"">","null","","","","","","","","","",""
"","image-keyboard-response","12","25702","0.0-12.0","","","","","","img/land1.png","","1536","-1","0","1","1","1,0.5,0.5,0.5,1,0.5,0.5,0.5,1","1,0.5,0.5,0.5,1,0.5,0.5,0.5,1","","",""
"","html-keyboard-response","13","26019","0.0-13.0","","","","","null","<img src=""img/land1.png"" style=""width:200px;border:14px solid red;"">","null","","","","","","","","","",""
"","image-keyboard-response","14","26799","0.0-14.0","","","","","780","img/land3.png","76","781","3","1","3","1","1,0.5,0.5,0.5,1,0.5,0.5,0.5,1","1,0.5,0.5,0.5,1,0.5,0.5,0.5,1","","",""
"","html-keyboard-response","15","27108","0.0-15.0","","","","","null","<img src=""img/land3.png"" style=""width:200px; border:14px solid green;"">","null","","","","","","","","","",""
"","image-keyboard-response","16","27815","0.0-16.0","","","","","705","img/land3.png","76","707","3","1","3","1","1,0.5,0.5,0.5,1,0.5,0.5,0.5,1","1,0.5,0.5,0.5,1,0.5,0.5,0.5,1","","",""
"","html-keyboard-response","17","28125","0.0-17.0","","","","","null","<img src=""img/land3.png"" style=""width:200px; border:14px solid green;"">","null","","","","","","","","","",""
"","image-keyboard-response","18","28920","0.0-18.0","","","","","793","img/land2.png","74","794","1","1","2","1","1,0.5,0.5,0.5,1,0.5,0.5,0.5,1","1,0.5,0.5,0.5,1,0.5,0.5,0.5,1","","",""
"","html-keyboard-response","19","29229","0.0-19.0","","","","","null","<img src=""img/land2.png"" style=""width:200px; border:14px solid green;"">","null","","","","","","","","","",""
"","image-keyboard-response","20","29865","0.0-20.0","","","","","636","img/land1.png","75","637","2","0","1","1","1,0.5,0.5,0.5,1,0.5,0.5,0.5,1","1,0.5,0.5,0.5,1,0.5,0.5,0.5,1","","",""
"","html-keyboard-response","21","30186","0.0-21.0","","","","","null","<img src=""img/land1.png"" style=""width:200px;border:14px solid red;"">","null","","","","","","","","","",""
"","image-keyboard-response","22","31121","0.0-22.0","","","","","933","img/land1.png","74","934","1","1","1","1","1,0.5,0.5,0.5,1,0.5,0.5,0.5,1","1,0.5,0.5,0.5,1,0.5,0.5,0.5,1","","",""
"","html-keyboard-response","23","31434","0.0-23.0","","","","","null","<img src=""img/land1.png"" style=""width:200px; border:14px solid green;"">","null","","","","","","","","","",""
"","image-keyboard-response","24","32303","0.0-24.0","","","","","868","img/land1.png","74","869","1","1","1","1","1,0.5,0.5,0.5,1,0.5,0.5,0.5,1","1,0.5,0.5,0.5,1,0.5,0.5,0.5,1","","",""
"","html-keyboard-response","25","32607","0.0-25.0","","","","","null","<img src=""img/land1.png"" style=""width:200px; border:14px solid green;"">","null","","","","","","","","","",""
"","image-keyboard-response","26","33303","0.0-26.0","","","","","695","img/land2.png","76","696","3","0","2","1","1,0.5,0.5,0.5,1,0.5,0.5,0.5,1","1,0.5,0.5,0.5,1,0.5,0.5,0.5,1","","",""
"","html-keyboard-response","27","33609","0.0-27.0","","","","","null","<img src=""img/land2.png"" style=""width:200px;border:14px solid red;"">","null","","","","","","","","","",""
"","image-keyboard-response","28","34489","0.0-28.0","","","","","878","img/land3.png","76","879","3","1","3","1","1,0.5,0.5,0.5,1,0.5,0.5,0.5,1","1,0.5,0.5,0.5,1,0.5,0.5,0.5,1","","",""
"","html-keyboard-response","29","34797","0.0-29.0","","","","","null","<img src=""img/land3.png"" style=""width:200px; border:14px solid green;"">","null","","","","","","","","","",""
"","image-keyboard-response","30","35343","0.0-30.0","","","","","545","img/land1.png","74","545","1","1","1","1","1,0.5,0.5,0.5,1,0.5,0.5,0.5,1","1,0.5,0.5,0.5,1,0.5,0.5,0.5,1","","",""
"","html-keyboard-response","31","35646","0.0-31.0","","","","","null","<img src=""img/land1.png"" style=""width:200px; border:14px solid green;"">","null","","","","","","","","","",""
"","image-keyboard-response","32","36249","0.0-32.0","","","","","600","img/land1.png","74","602","1","1","1","1","1,0.5,0.5,0.5,1,0.5,0.5,0.5,1","1,0.5,0.5,0.5,1,0.5,0.5,0.5,1","","",""
"","html-keyboard-response","33","36564","0.0-33.0","","","","","null","<img src=""img/land1.png"" style=""width:200px; border:14px solid green;"">","null","","","","","","","","","",""
"","image-keyboard-response","34","37400","0.0-34.0","","","","","835","img/land3.png","75","836","2","0","3","1","1,0.5,0.5,0.5,1,0.5,0.5,0.5,1","1,0.5,0.5,0.5,1,0.5,0.5,0.5,1","","",""
"","html-keyboard-response","35","37705","0.0-35.0","","","","","null","<img src=""img/land3.png"" style=""width:200px;border:14px solid red;"">","null","","","","","","","","","",""
"","image-keyboard-response","36","38568","0.0-36.0","","","","","861","img/land2.png","76","861","3","1","2","1","1,0.5,0.5,0.5,1,0.5,0.5,0.5,1","1,0.5,0.5,0.5,1,0.5,0.5,0.5,1","","",""
"","html-keyboard-response","37","38871","0.0-37.0","","","","","null","<img src=""img/land2.png"" style=""width:200px; border:14px solid green;"">","null","","","","","","","","","",""
"","image-keyboard-response","38","39471","0.0-38.0","","","","","599","img/land3.png","75","600","2","0","3","1","1,0.5,0.5,0.5,1,0.5,0.5,0.5,1","1,0.5,0.5,0.5,1,0.5,0.5,0.5,1","","",""
"","html-keyboard-response","39","39774","0.0-39.0","","","","","null","<img src=""img/land3.png"" style=""width:200px;border:14px solid red;"">","null","","","","","","","","","",""
"","image-keyboard-response","40","40728","0.0-40.0","","","","","953","img/land3.png","76","953","3","1","3","1","1,0.5,0.5,0.5,1,0.5,0.5,0.5,1","1,0.5,0.5,0.5,1,0.5,0.5,0.5,1","","",""
"","html-keyboard-response","41","41030","0.0-41.0","","","","","null","<img src=""img/land3.png"" style=""width:200px; border:14px solid green;"">","null","","","","","","","","","",""
"","image-keyboard-response","42","41727","0.0-42.0","","","","","696","img/land1.png","74","696","1","1","1","1","1,0.5,0.5,0.5,1,0.5,0.5,0.5,1","1,0.5,0.5,0.5,1,0.5,0.5,0.5,1","","",""
"","html-keyboard-response","43","42032","0.0-43.0","","","","","null","<img src=""img/land1.png"" style=""width:200px; border:14px solid green;"">","null","","","","","","","","","",""
"","image-keyboard-response","44","42654","0.0-44.0","","","","","620","img/land3.png","76","621","3","1","3","1","1,0.5,0.5,0.5,1,0.5,0.5,0.5,1","1,0.5,0.5,0.5,1,0.5,0.5,0.5,1","","",""
"","html-keyboard-response","45","42968","0.0-45.0","","","","","null","<img src=""img/land3.png"" style=""width:200px; border:14px solid green;"">","null","","","","","","","","","",""
"","image-keyboard-response","46","43576","0.0-46.0","","","","","608","img/land3.png","76","609","3","1","3","1","1,0.5,0.5,0.5,1,0.5,0.5,0.5,1","1,0.5,0.5,0.5,1,0.5,0.5,0.5,1","","",""
"","html-keyboard-response","47","43892","0.0-47.0","","","","","null","<img src=""img/land3.png"" style=""width:200px; border:14px solid green;"">","null","","","","","","","","","",""
"","image-keyboard-response","48","44366","0.0-48.0","","","","","472","img/land3.png","76","474","3","1","3","1","1,0.5,0.5,0.5,1,0.5,0.5,0.5,1","1,0.5,0.5,0.5,1,0.5,0.5,0.5,1","","",""
"","html-keyboard-response","49","44673","0.0-49.0","","","","","null","<img src=""img/land3.png"" style=""width:200px; border:14px solid green;"">","null","","","","","","","","","",""
"","image-keyboard-response","50","45288","0.0-50.0","","","","","614","img/land1.png","74","614","1","1","1","1","1,0.5,0.5,0.5,1,0.5,0.5,0.5,1","1,0.5,0.5,0.5,1,0.5,0.5,0.5,1","","",""
"","html-keyboard-response","51","45598","0.0-51.0","","","","","null","<img src=""img/land1.png"" style=""width:200px; border:14px solid green;"">","null","","","","","","","","","",""
"","image-keyboard-response","52","46144","0.0-52.0","","","","","545","img/land1.png","74","545","1","1","1","1","1,0.5,0.5,0.5,1,0.5,0.5,0.5,1","1,0.5,0.5,0.5,1,0.5,0.5,0.5,1","","",""
"","html-keyboard-response","53","46447","0.0-53.0","","","","","null","<img src=""img/land1.png"" style=""width:200px; border:14px solid green;"">","null","","","","","","","","","",""
"","image-keyboard-response","54","46855","0.0-54.0","","","","","406","img/land1.png","74","407","1","1","1","1","1,0.5,0.5,0.5,1,0.5,0.5,0.5,1","1,0.5,0.5,0.5,1,0.5,0.5,0.5,1","","",""
"","html-keyboard-response","55","47165","0.0-55.0","","","","","null","<img src=""img/land1.png"" style=""width:200px; border:14px solid green;"">","null","","","","","","","","","",""
"","image-keyboard-response","56","47712","0.0-56.0","","","","","546","img/land3.png","76","547","3","1","3","1","1,0.5,0.5,0.5,1,0.5,0.5,0.5,1","1,0.5,0.5,0.5,1,0.5,0.5,0.5,1","","",""
"","html-keyboard-response","57","48022","0.0-57.0","","","","","null","<img src=""img/land3.png"" style=""width:200px; border:14px solid green;"">","null","","","","","","","","","",""
"","image-keyboard-response","58","48632","0.0-58.0","","","","","610","img/land2.png","74","611","1","0","2","1","1,0.5,0.5,0.5,1,0.5,0.5,0.5,1","1,0.5,0.5,0.5,1,0.5,0.5,0.5,1","","",""
"","html-keyboard-response","59","48940","0.0-59.0","","","","","null","<img src=""img/land2.png"" style=""width:200px;border:14px solid red;"">","null","","","","","","","","","",""
"","image-keyboard-response","60","49785","0.0-60.0","","","","","842","img/land1.png","74","843","1","1","1","1","1,0.5,0.5,0.5,1,0.5,0.5,0.5,1","1,0.5,0.5,0.5,1,0.5,0.5,0.5,1","","",""
"","html-keyboard-response","61","50089","0.0-61.0","","","","","null","<img src=""img/land1.png"" style=""width:200px; border:14px solid green;"">","null","","","","","","","","","",""
"","image-keyboard-response","62","50952","0.0-62.0","","","","","862","img/land2.png","75","862","2","1","2","1","1,0.5,0.5,0.5,1,0.5,0.5,0.5,1","1,0.5,0.5,0.5,1,0.5,0.5,0.5,1","","",""
"","html-keyboard-response","63","51262","0.0-63.0","","","","","null","<img src=""img/land2.png"" style=""width:200px; border:14px solid green;"">","null","","","","","","","","","",""
"","image-keyboard-response","64","51982","0.0-64.0","","","","","720","img/land1.png","74","720","1","1","1","1","1,0.5,0.5,0.5,1,0.5,0.5,0.5,1","1,0.5,0.5,0.5,1,0.5,0.5,0.5,1","","",""
"","html-keyboard-response","65","52295","0.0-65.0","","","","","null","<img src=""img/land1.png"" style=""width:200px; border:14px solid green;"">","null","","","","","","","","","",""
"","image-keyboard-response","66","52799","0.0-66.0","","","","","504","img/land2.png","75","504","2","1","2","1","1,0.5,0.5,0.5,1,0.5,0.5,0.5,1","1,0.5,0.5,0.5,1,0.5,0.5,0.5,1","","",""
"","html-keyboard-response","67","53120","0.0-67.0","","","","","null","<img src=""img/land2.png"" style=""width:200px; border:14px solid green;"">","null","","","","","","","","","",""
"","image-keyboard-response","68","53664","0.0-68.0","","","","","543","img/land2.png","75","543","2","1","2","1","1,0.5,0.5,0.5,1,0.5,0.5,0.5,1","1,0.5,0.5,0.5,1,0.5,0.5,0.5,1","","",""
"","html-keyboard-response","69","53985","0.0-69.0","","","","","null","<img src=""img/land2.png"" style=""width:200px; border:14px solid green;"">","null","","","","","","","","","",""
"","image-keyboard-response","70","54392","0.0-70.0","","","","","406","img/land2.png","75","407","2","1","2","1","1,0.5,0.5,0.5,1,0.5,0.5,0.5,1","1,0.5,0.5,0.5,1,0.5,0.5,0.5,1","","",""
"","html-keyboard-response","71","54703","0.0-71.0","","","","","null","<img src=""img/land2.png"" style=""width:200px; border:14px solid green;"">","null","","","","","","","","","",""
"","image-keyboard-response","72","55232","0.0-72.0","","","","","528","img/land3.png","76","530","3","1","3","1","1,0.5,0.5,0.5,1,0.5,0.5,0.5,1","1,0.5,0.5,0.5,1,0.5,0.5,0.5,1","","",""
"","html-keyboard-response","73","55543","0.0-73.0","","","","","null","<img src=""img/land3.png"" style=""width:200px; border:14px solid green;"">","null","","","","","","","","","",""
"","image-keyboard-response","74","56184","0.0-74.0","","","","","640","img/land2.png","75","641","2","1","2","1","1,0.5,0.5,0.5,1,0.5,0.5,0.5,1","1,0.5,0.5,0.5,1,0.5,0.5,0.5,1","","",""
"","html-keyboard-response","75","56491","0.0-75.0","","","","","null","<img src=""img/land2.png"" style=""width:200px; border:14px solid green;"">","null","","","","","","","","","",""
"","image-keyboard-response","76","56911","0.0-76.0","","","","","419","img/land3.png","76","419","3","1","3","1","1,0.5,0.5,0.5,1,0.5,0.5,0.5,1","1,0.5,0.5,0.5,1,0.5,0.5,0.5,1","","",""
"","html-keyboard-response","77","57230","0.0-77.0","","","","","null","<img src=""img/land3.png"" style=""width:200px; border:14px solid green;"">","null","","","","","","","","","",""
"","image-keyboard-response","78","57665","0.0-78.0","","","","","433","img/land2.png","75","435","2","1","2","1","1,0.5,0.5,0.5,1,0.5,0.5,0.5,1","1,0.5,0.5,0.5,1,0.5,0.5,0.5,1","","",""
"","html-keyboard-response","79","57980","0.0-79.0","","","","","null","<img src=""img/land2.png"" style=""width:200px; border:14px solid green;"">","null","","","","","","","","","",""
"","image-keyboard-response","80","58417","0.0-80.0","","","","","434","img/land3.png","76","436","3","1","3","1","1,0.5,0.5,0.5,1,0.5,0.5,0.5,1","1,0.5,0.5,0.5,1,0.5,0.5,0.5,1","","",""
"","html-keyboard-response","81","58735","0.0-81.0","","","","","null","<img src=""img/land3.png"" style=""width:200px; border:14px solid green;"">","null","","","","","","","","","",""
"","image-keyboard-response","82","59193","0.0-82.0","","","","","456","img/land2.png","75","457","2","1","2","1","1,0.5,0.5,0.5,1,0.5,0.5,0.5,1","1,0.5,0.5,0.5,1,0.5,0.5,0.5,1","","",""
"","html-keyboard-response","83","59499","0.0-83.0","","","","","null","<img src=""img/land2.png"" style=""width:200px; border:14px solid green;"">","null","","","","","","","","","",""
"","image-keyboard-response","84","59935","0.0-84.0","","","","","436","img/land1.png","74","437","1","1","1","1","1,0.5,0.5,0.5,1,0.5,0.5,0.5,1","1,0.5,0.5,0.5,1,0.5,0.5,0.5,1","","",""
"","html-keyboard-response","85","60240","0.0-85.0","","","","","null","<img src=""img/land1.png"" style=""width:200px; border:14px solid green;"">","null","","","","","","","","","",""
"","image-keyboard-response","86","60984","0.0-86.0","","","","","742","img/land1.png","74","743","1","1","1","1","1,0.5,0.5,0.5,1,0.5,0.5,0.5,1","1,0.5,0.5,0.5,1,0.5,0.5,0.5,1","","",""
"","html-keyboard-response","87","61288","0.0-87.0","","","","","null","<img src=""img/land1.png"" style=""width:200px; border:14px solid green;"">","null","","","","","","","","","",""
"","image-keyboard-response","88","61702","0.0-88.0","","","","","413","img/land1.png","74","413","1","1","1","1","1,0.5,0.5,0.5,1,0.5,0.5,0.5,1","1,0.5,0.5,0.5,1,0.5,0.5,0.5,1","","",""
"","html-keyboard-response","89","62006","0.0-89.0","","","","","null","<img src=""img/land1.png"" style=""width:200px; border:14px solid green;"">","null","","","","","","","","","",""
"","image-keyboard-response","90","62495","0.0-90.0","","","","","486","img/land2.png","75","487","2","1","2","1","1,0.5,0.5,0.5,1,0.5,0.5,0.5,1","1,0.5,0.5,0.5,1,0.5,0.5,0.5,1","","",""
"","html-keyboard-response","91","62808","0.0-91.0","","","","","null","<img src=""img/land2.png"" style=""width:200px; border:14px solid green;"">","null","","","","","","","","","",""
"","image-keyboard-response","92","63247","0.0-92.0","","","","","437","img/land3.png","76","439","3","1","3","1","1,0.5,0.5,0.5,1,0.5,0.5,0.5,1","1,0.5,0.5,0.5,1,0.5,0.5,0.5,1","","",""
"","html-keyboard-response","93","63564","0.0-93.0","","","","","null","<img src=""img/land3.png"" style=""width:200px; border:14px solid green;"">","null","","","","","","","","","",""
"","image-keyboard-response","94","64000","0.0-94.0","","","","","435","img/land2.png","75","436","2","1","2","1","1,0.5,0.5,0.5,1,0.5,0.5,0.5,1","1,0.5,0.5,0.5,1,0.5,0.5,0.5,1","","",""
"","html-keyboard-response","95","64312","0.0-95.0","","","","","null","<img src=""img/land2.png"" style=""width:200px; border:14px solid green;"">","null","","","","","","","","","",""
"","image-keyboard-response","96","64816","0.0-96.0","","","","","503","img/land2.png","75","503","2","1","2","1","1,0.5,0.5,0.5,1,0.5,0.5,0.5,1","1,0.5,0.5,0.5,1,0.5,0.5,0.5,1","","",""
"","html-keyboard-response","97","65131","0.0-97.0","","","","","null","<img src=""img/land2.png"" style=""width:200px; border:14px solid green;"">","null","","","","","","","","","",""
"","image-keyboard-response","98","65567","0.0-98.0","","","","","435","img/land3.png","76","435","3","1","3","1","1,0.5,0.5,0.5,1,0.5,0.5,0.5,1","1,0.5,0.5,0.5,1,0.5,0.5,0.5,1","","",""
"","html-keyboard-response","99","65869","0.0-99.0","","","","","null","<img src=""img/land3.png"" style=""width:200px; border:14px solid green;"">","null","","","","","","","","","",""
"","image-keyboard-response","100","66408","0.0-100.0","","","","","537","img/land3.png","76","538","3","1","3","1","1,0.5,0.5,0.5,1,0.5,0.5,0.5,1","1,0.5,0.5,0.5,1,0.5,0.5,0.5,1","","",""
"","html-keyboard-response","101","66719","0.0-101.0","","","","","null","<img src=""img/land3.png"" style=""width:200px; border:14px solid green;"">","null","","","","","","","","","",""
"","image-keyboard-response","102","67137","0.0-102.0","","","","","417","img/land1.png","75","418","2","1","1","1","1,0.5,0.5,0.5,1,0.5,0.5,0.5,1","1,0.5,0.5,0.5,1,0.5,0.5,0.5,1","","",""
"","html-keyboard-response","103","67458","0.0-103.0","","","","","null","<img src=""img/land1.png"" style=""width:200px; border:14px solid green;"">","null","","","","","","","","","",""
"","image-keyboard-response","104","68505","0.0-104.0","","","","","1044","img/land2.png","75","1045","2","1","2","1","1,0.5,0.5,0.5,1,0.5,0.5,0.5,1","1,0.5,0.5,0.5,1,0.5,0.5,0.5,1","","",""
"","html-keyboard-response","105","68809","0.0-105.0","","","","","null","<img src=""img/land2.png"" style=""width:200px; border:14px solid green;"">","null","","","","","","","","","",""
"","image-keyboard-response","106","69254","0.0-106.0","","","","","446","img/land2.png","75","446","2","1","2","1","1,0.5,0.5,0.5,1,0.5,0.5,0.5,1","1,0.5,0.5,0.5,1,0.5,0.5,0.5,1","","",""
"","html-keyboard-response","107","69565","0.0-107.0","","","","","null","<img src=""img/land2.png"" style=""width:200px; border:14px solid green;"">","null","","","","","","","","","",""
"","image-keyboard-response","108","70407","0.0-108.0","","","","","841","img/land1.png","74","842","1","1","1","1","1,0.5,0.5,0.5,1,0.5,0.5,0.5,1","1,0.5,0.5,0.5,1,0.5,0.5,0.5,1","","",""
"","html-keyboard-response","109","70715","0.0-109.0","","","","","null","<img src=""img/land1.png"" style=""width:200px; border:14px solid green;"">","null","","","","","","","","","",""
"","image-keyboard-response","110","71255","0.0-110.0","","","","","538","img/land3.png","76","539","3","1","3","1","1,0.5,0.5,0.5,1,0.5,0.5,0.5,1","1,0.5,0.5,0.5,1,0.5,0.5,0.5,1","","",""
"","html-keyboard-response","111","71571","0.0-111.0","","","","","null","<img src=""img/land3.png"" style=""width:200px; border:14px solid green;"">","null","","","","","","","","","",""
"","image-keyboard-response","112","72016","0.0-112.0","","","","","444","img/land1.png","74","445","1","1","1","1","1,0.5,0.5,0.5,1,0.5,0.5,0.5,1","1,0.5,0.5,0.5,1,0.5,0.5,0.5,1","","",""
"","html-keyboard-response","113","72319","0.0-113.0","","","","","null","<img src=""img/land1.png"" style=""width:200px; border:14px solid green;"">","null","","","","","","","","","",""
"","image-keyboard-response","114","72887","0.0-114.0","","","","","567","img/land1.png","74","567","1","1","1","1","1,0.5,0.5,0.5,1,0.5,0.5,0.5,1","1,0.5,0.5,0.5,1,0.5,0.5,0.5,1","","",""
"","html-keyboard-response","115","73191","0.0-115.0","","","","","null","<img src=""img/land1.png"" style=""width:200px; border:14px solid green;"">","null","","","","","","","","","",""
"","image-keyboard-response","116","73896","0.0-116.0","","","","","704","img/land2.png","75","705","2","1","2","1","1,0.5,0.5,0.5,1,0.5,0.5,0.5,1","1,0.5,0.5,0.5,1,0.5,0.5,0.5,1","","",""
"","html-keyboard-response","117","74209","0.0-117.0","","","","","null","<img src=""img/land2.png"" style=""width:200px; border:14px solid green;"">","null","","","","","","","","","",""
"","image-keyboard-response","118","74657","0.0-118.0","","","","","445","img/land3.png","76","447","3","1","3","1","1,0.5,0.5,0.5,1,0.5,0.5,0.5,1","1,0.5,0.5,0.5,1,0.5,0.5,0.5,1","","",""
"","html-keyboard-response","119","74980","0.0-119.0","","","","","null","<img src=""img/land3.png"" style=""width:200px; border:14px solid green;"">","null","","","","","","","","","",""
"","image-keyboard-response","120","75566","0.0-120.0","","","","","583","img/land1.png","75","586","2","1","1","1","1,0.5,0.5,0.5,1,0.5,0.5,0.5,1","1,0.5,0.5,0.5,1,0.5,0.5,0.5,1","","",""
"","html-keyboard-response","121","75882","0.0-121.0","","","","","null","<img src=""img/land1.png"" style=""width:200px; border:14px solid green;"">","null","","","","","","","","","",""
"","image-keyboard-response","122","76207","0.0-122.0","","","","","323","img/land3.png","76","325","3","1","3","1","1,0.5,0.5,0.5,1,0.5,0.5,0.5,1","1,0.5,0.5,0.5,1,0.5,0.5,0.5,1","","",""
"","html-keyboard-response","123","76516","0.0-123.0","","","","","null","<img src=""img/land3.png"" style=""width:200px; border:14px solid green;"">","null","","","","","","","","","",""
"","image-keyboard-response","124","77144","0.0-124.0","","","","","626","img/land1.png","74","627","1","1","1","1","1,0.5,0.5,0.5,1,0.5,0.5,0.5,1","1,0.5,0.5,0.5,1,0.5,0.5,0.5,1","","",""
"","html-keyboard-response","125","77449","0.0-125.0","","","","","null","<img src=""img/land1.png"" style=""width:200px; border:14px solid green;"">","null","","","","","","","","","",""
"","image-keyboard-response","126","78041","0.0-126.0","","","","","590","img/land2.png","75","591","2","1","2","1","1,0.5,0.5,0.5,1,0.5,0.5,0.5,1","1,0.5,0.5,0.5,1,0.5,0.5,0.5,1","","",""
"","html-keyboard-response","127","78352","0.0-127.0","","","","","null","<img src=""img/land2.png"" style=""width:200px; border:14px solid green;"">","null","","","","","","","","","",""
"","image-keyboard-response","128","78912","0.0-128.0","","","","","559","img/land2.png","75","561","2","1","2","1","1,0.5,0.5,0.5,1,0.5,0.5,0.5,1","1,0.5,0.5,0.5,1,0.5,0.5,0.5,1","","",""
"","html-keyboard-response","129","79222","0.0-129.0","","","","","null","<img src=""img/land2.png"" style=""width:200px; border:14px solid green;"">","null","","","","","","","","","",""
"","image-keyboard-response","130","79736","0.0-130.0","","","","","512","img/land3.png","76","513","3","1","3","1","1,0.5,0.5,0.5,1,0.5,0.5,0.5,1","1,0.5,0.5,0.5,1,0.5,0.5,0.5,1","","",""
"","html-keyboard-response","131","80042","0.0-131.0","","","","","null","<img src=""img/land3.png"" style=""width:200px; border:14px solid green;"">","null","","","","","","","","","",""
"","image-keyboard-response","132","80584","0.0-132.0","","","","","541","img/land3.png","76","543","3","1","3","1","1,0.5,0.5,0.5,1,0.5,0.5,0.5,1","1,0.5,0.5,0.5,1,0.5,0.5,0.5,1","","",""
"","html-keyboard-response","133","80896","0.0-133.0","","","","","null","<img src=""img/land3.png"" style=""width:200px; border:14px solid green;"">","null","","","","","","","","","",""
"","image-keyboard-response","134","81544","0.0-134.0","","","","","646","img/land2.png","75","647","2","1","2","1","1,0.5,0.5,0.5,1,0.5,0.5,0.5,1","1,0.5,0.5,0.5,1,0.5,0.5,0.5,1","","",""
"","html-keyboard-response","135","81847","0.0-135.0","","","","","null","<img src=""img/land2.png"" style=""width:200px; border:14px solid green;"">","null","","","","","","","","","",""
"","image-keyboard-response","136","82312","0.0-136.0","","","","","464","img/land2.png","75","465","2","1","2","1","1,0.5,0.5,0.5,1,0.5,0.5,0.5,1","1,0.5,0.5,0.5,1,0.5,0.5,0.5,1","","",""
"","html-keyboard-response","137","82618","0.0-137.0","","","","","null","<img src=""img/land2.png"" style=""width:200px; border:14px solid green;"">","null","","","","","","","","","",""
"","image-keyboard-response","138","83048","0.0-138.0","","","","","430","img/land2.png","75","430","2","1","2","1","1,0.5,0.5,0.5,1,0.5,0.5,0.5,1","1,0.5,0.5,0.5,1,0.5,0.5,0.5,1","","",""
"","html-keyboard-response","139","83351","0.0-139.0","","","","","null","<img src=""img/land2.png"" style=""width:200px; border:14px solid green;"">","null","","","","","","","","","",""
"","image-keyboard-response","140","83816","0.0-140.0","","","","","464","img/land3.png","76","465","3","1","3","1","1,0.5,0.5,0.5,1,0.5,0.5,0.5,1","1,0.5,0.5,0.5,1,0.5,0.5,0.5,1","","",""
"","html-keyboard-response","141","84121","0.0-141.0","","","","","null","<img src=""img/land3.png"" style=""width:200px; border:14px solid green;"">","null","","","","","","","","","",""
"","image-keyboard-response","142","84856","0.0-142.0","","","","","733","img/land1.png","74","734","1","1","1","1","1,0.5,0.5,0.5,1,0.5,0.5,0.5,1","1,0.5,0.5,0.5,1,0.5,0.5,0.5,1","","",""
"","html-keyboard-response","143","85171","0.0-143.0","","","","","null","<img src=""img/land1.png"" style=""width:200px; border:14px solid green;"">","null","","","","","","","","","",""
"","image-keyboard-response","144","85680","0.0-144.0","","","","","508","img/land2.png","75","509","2","1","2","1","1,0.5,0.5,0.5,1,0.5,0.5,0.5,1","1,0.5,0.5,0.5,1,0.5,0.5,0.5,1","","",""
"","html-keyboard-response","145","85990","0.0-145.0","","","","","null","<img src=""img/land2.png"" style=""width:200px; border:14px solid green;"">","null","","","","","","","","","",""
"","image-keyboard-response","146","86368","0.0-146.0","","","","","377","img/land3.png","76","378","3","1","3","1","1,0.5,0.5,0.5,1,0.5,0.5,0.5,1","1,0.5,0.5,0.5,1,0.5,0.5,0.5,1","","",""
"","html-keyboard-response","147","86675","0.0-147.0","","","","","null","<img src=""img/land3.png"" style=""width:200px; border:14px solid green;"">","null","","","","","","","","","",""
"","image-keyboard-response","148","87128","0.0-148.0","","","","","451","img/land2.png","75","452","2","1","2","1","1,0.5,0.5,0.5,1,0.5,0.5,0.5,1","1,0.5,0.5,0.5,1,0.5,0.5,0.5,1","","",""
"","html-keyboard-response","149","87430","0.0-149.0","","","","","null","<img src=""img/land2.png"" style=""width:200px; border:14px solid green;"">","null","","","","","","","","","",""
"","image-keyboard-response","150","87967","0.0-150.0","","","","","536","img/land2.png","75","537","2","1","2","1","1,0.5,0.5,0.5,1,0.5,0.5,0.5,1","1,0.5,0.5,0.5,1,0.5,0.5,0.5,1","","",""
"","html-keyboard-response","151","88279","0.0-151.0","","","","","null","<img src=""img/land2.png"" style=""width:200px; border:14px solid green;"">","null","","","","","","","","","",""
"","image-keyboard-response","152","88759","0.0-152.0","","","","","479","img/land3.png","76","479","3","1","3","1","1,0.5,0.5,0.5,1,0.5,0.5,0.5,1","1,0.5,0.5,0.5,1,0.5,0.5,0.5,1","","",""
"","html-keyboard-response","153","89066","0.0-153.0","","","","","null","<img src=""img/land3.png"" style=""width:200px; border:14px solid green;"">","null","","","","","","","","","",""
"","image-keyboard-response","154","89545","0.0-154.0","","","","","477","img/land2.png","75","477","2","1","2","1","1,0.5,0.5,0.5,1,0.5,0.5,0.5,1","1,0.5,0.5,0.5,1,0.5,0.5,0.5,1","","",""
"","html-keyboard-response","155","89852","0.0-155.0","","","","","null","<img src=""img/land2.png"" style=""width:200px; border:14px solid green;"">","null","","","","","","","","","",""
"","image-keyboard-response","156","90369","0.0-156.0","","","","","515","img/land1.png","74","516","1","1","1","1","1,0.5,0.5,0.5,1,0.5,0.5,0.5,1","1,0.5,0.5,0.5,1,0.5,0.5,0.5,1","","",""
"","html-keyboard-response","157","90671","0.0-157.0","","","","","null","<img src=""img/land1.png"" style=""width:200px; border:14px solid green;"">","null","","","","","","","","","",""
"","image-keyboard-response","158","91200","0.0-158.0","","","","","528","img/land3.png","76","529","3","1","3","1","1,0.5,0.5,0.5,1,0.5,0.5,0.5,1","1,0.5,0.5,0.5,1,0.5,0.5,0.5,1","","",""
"","html-keyboard-response","159","91504","0.0-159.0","","","","","null","<img src=""img/land3.png"" style=""width:200px; border:14px solid green;"">","null","","","","","","","","","",""
"","image-keyboard-response","160","91918","0.0-160.0","","","","","412","img/land1.png","75","414","2","1","1","1","1,0.5,0.5,0.5,1,0.5,0.5,0.5,1","1,0.5,0.5,0.5,1,0.5,0.5,0.5,1","","",""
"","html-keyboard-response","161","92228","0.0-161.0","","","","","null","<img src=""img/land1.png"" style=""width:200px; border:14px solid green;"">","null","","","","","","","","","",""
"","image-keyboard-response","162","93039","0.0-162.0","","","","","809","img/land2.png","75","809","2","1","2","1","1,0.5,0.5,0.5,1,0.5,0.5,0.5,1","1,0.5,0.5,0.5,1,0.5,0.5,0.5,1","","",""
"","html-keyboard-response","163","93346","0.0-163.0","","","","","null","<img src=""img/land2.png"" style=""width:200px; border:14px solid green;"">","null","","","","","","","","","",""
"","image-keyboard-response","164","93799","0.0-164.0","","","","","451","img/land3.png","76","452","3","1","3","1","1,0.5,0.5,0.5,1,0.5,0.5,0.5,1","1,0.5,0.5,0.5,1,0.5,0.5,0.5,1","","",""
"","html-keyboard-response","165","94110","0.0-165.0","","","","","null","<img src=""img/land3.png"" style=""width:200px; border:14px solid green;"">","null","","","","","","","","","",""
"","image-keyboard-response","166","95104","0.0-166.0","","","","","994","img/land1.png","74","994","1","1","1","1","1,0.5,0.5,0.5,1,0.5,0.5,0.5,1","1,0.5,0.5,0.5,1,0.5,0.5,0.5,1","","",""
"","html-keyboard-response","167","95414","0.0-167.0","","","","","null","<img src=""img/land1.png"" style=""width:200px; border:14px solid green;"">","null","","","","","","","","","",""
"","image-keyboard-response","168","95959","0.0-168.0","","","","","544","img/land1.png","74","545","1","1","1","1","1,0.5,0.5,0.5,1,0.5,0.5,0.5,1","1,0.5,0.5,0.5,1,0.5,0.5,0.5,1","","",""
"","html-keyboard-response","169","96270","0.0-169.0","","","","","null","<img src=""img/land1.png"" style=""width:200px; border:14px solid green;"">","null","","","","","","","","","",""
"","image-keyboard-response","170","96774","0.0-170.0","","","","","504","img/land1.png","75","505","2","0","1","1","1,0.5,0.5,0.5,1,0.5,0.5,0.5,1","1,0.5,0.5,0.5,1,0.5,0.5,0.5,1","","",""
"","html-keyboard-response","171","97088","0.0-171.0","","","","","null","<img src=""img/land1.png"" style=""width:200px;border:14px solid red;"">","null","","","","","","","","","",""
"","image-keyboard-response","172","97838","0.0-172.0","","","","","750","img/land2.png","75","750","2","1","2","1","1,0.5,0.5,0.5,1,0.5,0.5,0.5,1","1,0.5,0.5,0.5,1,0.5,0.5,0.5,1","","",""
"","html-keyboard-response","173","98145","0.0-173.0","","","","","null","<img src=""img/land2.png"" style=""width:200px; border:14px solid green;"">","null","","","","","","","","","",""
"","image-keyboard-response","174","98712","0.0-174.0","","","","","565","img/land3.png","76","567","3","1","3","1","1,0.5,0.5,0.5,1,0.5,0.5,0.5,1","1,0.5,0.5,0.5,1,0.5,0.5,0.5,1","","",""
"","html-keyboard-response","175","99024","0.0-175.0","","","","","null","<img src=""img/land3.png"" style=""width:200px; border:14px solid green;"">","null","","","","","","","","","",""
"","image-keyboard-response","176","99440","0.0-176.0","","","","","414","img/land3.png","76","415","3","1","3","1","1,0.5,0.5,0.5,1,0.5,0.5,0.5,1","1,0.5,0.5,0.5,1,0.5,0.5,0.5,1","","",""
"","html-keyboard-response","177","99748","0.0-177.0","","","","","null","<img src=""img/land3.png"" style=""width:200px; border:14px solid green;"">","null","","","","","","","","","",""
"","image-keyboard-response","178","100960","0.0-178.0","","","","","1210","img/land2.png","75","1211","2","1","2","1","1,0.5,0.5,0.5,1,0.5,0.5,0.5,1","1,0.5,0.5,0.5,1,0.5,0.5,0.5,1","","",""
"","html-keyboard-response","179","101268","0.0-179.0","","","","","null","<img src=""img/land2.png"" style=""width:200px; border:14px solid green;"">","null","","","","","","","","","",""
"","image-keyboard-response","180","101679","0.0-180.0","","","","","410","img/land1.png","74","411","1","1","1","1","1,0.5,0.5,0.5,1,0.5,0.5,0.5,1","1,0.5,0.5,0.5,1,0.5,0.5,0.5,1","","",""
"","html-keyboard-response","181","101985","0.0-181.0","","","","","null","<img src=""img/land1.png"" style=""width:200px; border:14px solid green;"">","null","","","","","","","","","",""
"","html-keyboard-response","182","106320","0.0-182.0","","","","","","","","","","","","","","","","",""
"","image-keyboard-response","183","107585","0.0-183.0","","","","","1262","img/land4.png","74","1264","1","1","1","1","1,0.5,0.5,0.5,1,0.5,0.5,0.5,1","1,0.5,0.5,0.5,1,0.5,0.5,0.5,1","","",""
"","html-keyboard-response","184","107900","0.0-184.0","","","","","null","<img src=""img/land4.png"" style=""width:200px; border:14px solid green;"">","null","","","","","","","","","",""
"","image-keyboard-response","185","108992","0.0-185.0","","","","","1090","img/land4.png","74","1092","1","1","1","1","1,0.5,0.5,0.5,1,0.5,0.5,0.5,1","1,0.5,0.5,0.5,1,0.5,0.5,0.5,1","","",""
"","html-keyboard-response","186","109305","0.0-186.0","","","","","null","<img src=""img/land4.png"" style=""width:200px; border:14px solid green;"">","null","","","","","","","","","",""
"","image-keyboard-response","187","109656","0.0-187.0","","","","","348","img/land4.png","74","350","1","1","1","1","1,0.5,0.5,0.5,1,0.5,0.5,0.5,1","1,0.5,0.5,0.5,1,0.5,0.5,0.5,1","","",""
"","html-keyboard-response","188","109970","0.0-188.0","","","","","null","<img src=""img/land4.png"" style=""width:200px; border:14px solid green;"">","null","","","","","","","","","",""
"","image-keyboard-response","189","110344","0.0-189.0","","","","","373","img/land4.png","74","373","1","1","1","1","1,0.5,0.5,0.5,1,0.5,0.5,0.5,1","1,0.5,0.5,0.5,1,0.5,0.5,0.5,1","","",""
"","html-keyboard-response","190","110655","0.0-190.0","","","","","null","<img src=""img/land4.png"" style=""width:200px; border:14px solid green;"">","null","","","","","","","","","",""
"","image-keyboard-response","191","111152","0.0-191.0","","","","","496","img/land4.png","74","497","1","1","1","1","1,0.5,0.5,0.5,1,0.5,0.5,0.5,1","1,0.5,0.5,0.5,1,0.5,0.5,0.5,1","","",""
"","html-keyboard-response","192","111457","0.0-192.0","","","","","null","<img src=""img/land4.png"" style=""width:200px; border:14px solid green;"">","null","","","","","","","","","",""
"","image-keyboard-response","193","111863","0.0-193.0","","","","","404","img/land4.png","74","406","1","1","1","1","1,0.5,0.5,0.5,1,0.5,0.5,0.5,1","1,0.5,0.5,0.5,1,0.5,0.5,0.5,1","","",""
"","html-keyboard-response","194","112174","0.0-194.0","","","","","null","<img src=""img/land4.png"" style=""width:200px; border:14px solid green;"">","null","","","","","","","","","",""
"","image-keyboard-response","195","112400","0.0-195.0","","","","","225","img/land4.png","74","227","1","1","1","1","1,0.5,0.5,0.5,1,0.5,0.5,0.5,1","1,0.5,0.5,0.5,1,0.5,0.5,0.5,1","","",""
"","html-keyboard-response","196","112714","0.0-196.0","","","","","null","<img src=""img/land4.png"" style=""width:200px; border:14px solid green;"">","null","","","","","","","","","",""
"","image-keyboard-response","197","113248","0.0-197.0","","","","","533","img/land5.png","76","533","3","0","2","1","1,0.5,0.5,0.5,1,0.5,0.5,0.5,1","1,0.5,0.5,0.5,1,0.5,0.5,0.5,1","","",""
"","html-keyboard-response","198","113563","0.0-198.0","","","","","null","<img src=""img/land5.png"" style=""width:200px;border:14px solid red;"">","null","","","","","","","","","",""
"","image-keyboard-response","199","114439","0.0-199.0","","","","","874","img/land6.png","75","874","2","1","3","1","1,0.5,0.5,0.5,1,0.5,0.5,0.5,1","1,0.5,0.5,0.5,1,0.5,0.5,0.5,1","","",""
"","html-keyboard-response","200","114745","0.0-200.0","","","","","null","<img src=""img/land6.png"" style=""width:200px; border:14px solid green;"">","null","","","","","","","","","",""
"","image-keyboard-response","201","115576","0.0-201.0","","","","","829","img/land4.png","74","830","1","1","1","1","1,0.5,0.5,0.5,1,0.5,0.5,0.5,1","1,0.5,0.5,0.5,1,0.5,0.5,0.5,1","","",""
"","html-keyboard-response","202","115880","0.0-202.0","","","","","null","<img src=""img/land4.png"" style=""width:200px; border:14px solid green;"">","null","","","","","","","","","",""
"","image-keyboard-response","203","116280","0.0-203.0","","","","","399","img/land4.png","74","400","1","1","1","1","1,0.5,0.5,0.5,1,0.5,0.5,0.5,1","1,0.5,0.5,0.5,1,0.5,0.5,0.5,1","","",""
"","html-keyboard-response","204","116582","0.0-204.0","","","","","null","<img src=""img/land4.png"" style=""width:200px; border:14px solid green;"">","null","","","","","","","","","",""
"","image-keyboard-response","205","116943","0.0-205.0","","","","","358","img/land4.png","74","359","1","1","1","1","1,0.5,0.5,0.5,1,0.5,0.5,0.5,1","1,0.5,0.5,0.5,1,0.5,0.5,0.5,1","","",""
"","html-keyboard-response","206","117253","0.0-206.0","","","","","null","<img src=""img/land4.png"" style=""width:200px; border:14px solid green;"">","null","","","","","","","","","",""
"","image-keyboard-response","207","118062","0.0-207.0","","","","","808","img/land5.png","76","808","3","0","2","1","1,0.5,0.5,0.5,1,0.5,0.5,0.5,1","1,0.5,0.5,0.5,1,0.5,0.5,0.5,1","","",""
"","html-keyboard-response","208","118372","0.0-208.0","","","","","null","<img src=""img/land5.png"" style=""width:200px;border:14px solid red;"">","null","","","","","","","","","",""
"","image-keyboard-response","209","118904","0.0-209.0","","","","","533","img/land6.png","75","533","2","1","3","1","1,0.5,0.5,0.5,1,0.5,0.5,0.5,1","1,0.5,0.5,0.5,1,0.5,0.5,0.5,1","","",""
"","html-keyboard-response","210","119206","0.0-210.0","","","","","null","<img src=""img/land6.png"" style=""width:200px; border:14px solid green;"">","null","","","","","","","","","",""
"","image-keyboard-response","211","120536","0.0-211.0","","","","","1327","img/land4.png","74","1328","1","1","1","1","1,0.5,0.5,0.5,1,0.5,0.5,0.5,1","1,0.5,0.5,0.5,1,0.5,0.5,0.5,1","","",""
"","html-keyboard-response","212","120850","0.0-212.0","","","","","null","<img src=""img/land4.png"" style=""width:200px; border:14px solid green;"">","null","","","","","","","","","",""
"","image-keyboard-response","213","121216","0.0-213.0","","","","","365","img/land4.png","74","366","1","1","1","1","1,0.5,0.5,0.5,1,0.5,0.5,0.5,1","1,0.5,0.5,0.5,1,0.5,0.5,0.5,1","","",""
"","html-keyboard-response","214","121534","0.0-214.0","","","","","null","<img src=""img/land4.png"" style=""width:200px; border:14px solid green;"">","null","","","","","","","","","",""
"","image-keyboard-response","215","122063","0.0-215.0","","","","","526","img/land5.png","76","527","3","0","2","1","1,0.5,0.5,0.5,1,0.5,0.5,0.5,1","1,0.5,0.5,0.5,1,0.5,0.5,0.5,1","","",""
"","html-keyboard-response","216","122369","0.0-216.0","","","","","null","<img src=""img/land5.png"" style=""width:200px;border:14px solid red;"">","null","","","","","","","","","",""
"","image-keyboard-response","217","123247","0.0-217.0","","","","","877","img/land4.png","75","878","2","1","1","1","1,0.5,0.5,0.5,1,0.5,0.5,0.5,1","1,0.5,0.5,0.5,1,0.5,0.5,0.5,1","","",""
"","html-keyboard-response","218","123555","0.0-218.0","","","","","null","<img src=""img/land4.png"" style=""width:200px; border:14px solid green;"">","null","","","","","","","","","",""
"","image-keyboard-response","219","123976","0.0-219.0","","","","","419","img/land4.png","74","421","1","1","1","1","1,0.5,0.5,0.5,1,0.5,0.5,0.5,1","1,0.5,0.5,0.5,1,0.5,0.5,0.5,1","","",""
"","html-keyboard-response","220","124319","0.0-220.0","","","","","null","<img src=""img/land4.png"" style=""width:200px; border:14px solid green;"">","null","","","","","","","","","",""
"","image-keyboard-response","221","125127","0.0-221.0","","","","","806","img/land4.png","74","807","1","1","1","1","1,0.5,0.5,0.5,1,0.5,0.5,0.5,1","1,0.5,0.5,0.5,1,0.5,0.5,0.5,1","","",""
"","html-keyboard-response","222","125445","0.0-222.0","","","","","null","<img src=""img/land4.png"" style=""width:200px; border:14px solid green;"">","null","","","","","","","","","",""
"","image-keyboard-response","223","126608","0.0-223.0","","","","","1162","img/land6.png","75","1163","2","0","3","1","1,0.5,0.5,0.5,1,0.5,0.5,0.5,1","1,0.5,0.5,0.5,1,0.5,0.5,0.5,1","","",""
"","html-keyboard-response","224","126913","0.0-224.0","","","","","null","<img src=""img/land6.png"" style=""width:200px;border:14px solid red;"">","null","","","","","","","","","",""
"","image-keyboard-response","225","127966","0.0-225.0","","","","","1052","img/land4.png","74","1054","1","1","1","1","1,0.5,0.5,0.5,1,0.5,0.5,0.5,1","1,0.5,0.5,0.5,1,0.5,0.5,0.5,1","","",""
"","html-keyboard-response","226","128270","0.0-226.0","","","","","null","<img src=""img/land4.png"" style=""width:200px; border:14px solid green;"">","null","","","","","","","","","",""
"","image-keyboard-response","227","128664","0.0-227.0","","","","","392","img/land4.png","74","393","1","1","1","1","1,0.5,0.5,0.5,1,0.5,0.5,0.5,1","1,0.5,0.5,0.5,1,0.5,0.5,0.5,1","","",""
"","html-keyboard-response","228","128972","0.0-228.0","","","","","null","<img src=""img/land4.png"" style=""width:200px; border:14px solid green;"">","null","","","","","","","","","",""
"","image-keyboard-response","229","129888","0.0-229.0","","","","","914","img/land6.png","74","916","1","1","3","1","1,0.5,0.5,0.5,1,0.5,0.5,0.5,1","1,0.5,0.5,0.5,1,0.5,0.5,0.5,1","","",""
"","html-keyboard-response","230","130191","0.0-230.0","","","","","null","<img src=""img/land6.png"" style=""width:200px; border:14px solid green;"">","null","","","","","","","","","",""
"","image-keyboard-response","231","131113","0.0-231.0","","","","","920","img/land4.png","74","921","1","1","1","1","1,0.5,0.5,0.5,1,0.5,0.5,0.5,1","1,0.5,0.5,0.5,1,0.5,0.5,0.5,1","","",""
"","html-keyboard-response","232","131427","0.0-232.0","","","","","null","<img src=""img/land4.png"" style=""width:200px; border:14px solid green;"">","null","","","","","","","","","",""
"","image-keyboard-response","233","131791","0.0-233.0","","","","","363","img/land4.png","74","364","1","1","1","1","1,0.5,0.5,0.5,1,0.5,0.5,0.5,1","1,0.5,0.5,0.5,1,0.5,0.5,0.5,1","","",""
"","html-keyboard-response","234","132098","0.0-234.0","","","","","null","<img src=""img/land4.png"" style=""width:200px; border:14px solid green;"">","null","","","","","","","","","",""
"","image-keyboard-response","235","132304","0.0-235.0","","","","","205","img/land4.png","74","205","1","1","1","1","1,0.5,0.5,0.5,1,0.5,0.5,0.5,1","1,0.5,0.5,0.5,1,0.5,0.5,0.5,1","","",""
"","html-keyboard-response","236","132614","0.0-236.0","","","","","null","<img src=""img/land4.png"" style=""width:200px; border:14px solid green;"">","null","","","","","","","","","",""
"","image-keyboard-response","237","132800","0.0-237.0","","","","","185","img/land4.png","74","186","1","1","1","1","1,0.5,0.5,0.5,1,0.5,0.5,0.5,1","1,0.5,0.5,0.5,1,0.5,0.5,0.5,1","","",""
"","html-keyboard-response","238","133115","0.0-238.0","","","","","null","<img src=""img/land4.png"" style=""width:200px; border:14px solid green;"">","null","","","","","","","","","",""
"","image-keyboard-response","239","133289","0.0-239.0","","","","","172","img/land6.png","74","173","1","0","3","1","1,0.5,0.5,0.5,1,0.5,0.5,0.5,1","1,0.5,0.5,0.5,1,0.5,0.5,0.5,1","","",""
"","html-keyboard-response","240","133600","0.0-240.0","","","","","null","<img src=""img/land6.png"" style=""width:200px;border:14px solid red;"">","null","","","","","","","","","",""
"","image-keyboard-response","241","134464","0.0-241.0","","","","","862","img/land4.png","74","864","1","1","1","1","1,0.5,0.5,0.5,1,0.5,0.5,0.5,1","1,0.5,0.5,0.5,1,0.5,0.5,0.5,1","","",""
"","html-keyboard-response","242","134774","0.0-242.0","","","","","null","<img src=""img/land4.png"" style=""width:200px; border:14px solid green;"">","null","","","","","","","","","",""
"","image-keyboard-response","243","135128","0.0-243.0","","","","","351","img/land4.png","74","351","1","1","1","1","1,0.5,0.5,0.5,1,0.5,0.5,0.5,1","1,0.5,0.5,0.5,1,0.5,0.5,0.5,1","","",""
"","html-keyboard-response","244","135438","0.0-244.0","","","","","null","<img src=""img/land4.png"" style=""width:200px; border:14px solid green;"">","null","","","","","","","","","",""
"","image-keyboard-response","245","135792","0.0-245.0","","","","","352","img/land4.png","74","352","1","1","1","1","1,0.5,0.5,0.5,1,0.5,0.5,0.5,1","1,0.5,0.5,0.5,1,0.5,0.5,0.5,1","","",""
"","html-keyboard-response","246","136093","0.0-246.0","","","","","null","<img src=""img/land4.png"" style=""width:200px; border:14px solid green;"">","null","","","","","","","","","",""
"","image-keyboard-response","247","136720","0.0-247.0","","","","","625","img/land6.png","75","626","2","0","3","1","1,0.5,0.5,0.5,1,0.5,0.5,0.5,1","1,0.5,0.5,0.5,1,0.5,0.5,0.5,1","","",""
"","html-keyboard-response","248","137028","0.0-248.0","","","","","null","<img src=""img/land6.png"" style=""width:200px;border:14px solid red;"">","null","","","","","","","","","",""
"","image-keyboard-response","249","137767","0.0-249.0","","","","","737","img/land4.png","74","738","1","1","1","1","1,0.5,0.5,0.5,1,0.5,0.5,0.5,1","1,0.5,0.5,0.5,1,0.5,0.5,0.5,1","","",""
"","html-keyboard-response","250","138083","0.0-250.0","","","","","null","<img src=""img/land4.png"" style=""width:200px; border:14px solid green;"">","null","","","","","","","","","",""
"","image-keyboard-response","251","138902","0.0-251.0","","","","","818","img/land6.png","76","818","3","1","3","1","1,0.5,0.5,0.5,1,0.5,0.5,0.5,1","1,0.5,0.5,0.5,1,0.5,0.5,0.5,1","","",""
"","html-keyboard-response","252","139217","0.0-252.0","","","","","null","<img src=""img/land6.png"" style=""width:200px; border:14px solid green;"">","null","","","","","","","","","",""
"","image-keyboard-response","253","139871","0.0-253.0","","","","","654","img/land4.png","74","654","1","1","1","1","1,0.5,0.5,0.5,1,0.5,0.5,0.5,1","1,0.5,0.5,0.5,1,0.5,0.5,0.5,1","","",""
"","html-keyboard-response","254","140189","0.0-254.0","","","","","null","<img src=""img/land4.png"" style=""width:200px; border:14px solid green;"">","null","","","","","","","","","",""
"","image-keyboard-response","255","140622","0.0-255.0","","","","","431","img/land6.png","76","432","3","1","3","1","1,0.5,0.5,0.5,1,0.5,0.5,0.5,1","1,0.5,0.5,0.5,1,0.5,0.5,0.5,1","","",""
"","html-keyboard-response","256","140937","0.0-256.0","","","","","null","<img src=""img/land6.png"" style=""width:200px; border:14px solid green;"">","null","","","","","","","","","",""
"","image-keyboard-response","257","141302","0.0-257.0","","","","","364","img/land4.png","74","365","1","1","1","1","1,0.5,0.5,0.5,1,0.5,0.5,0.5,1","1,0.5,0.5,0.5,1,0.5,0.5,0.5,1","","",""
"","html-keyboard-response","258","141607","0.0-258.0","","","","","null","<img src=""img/land4.png"" style=""width:200px; border:14px solid green;"">","null","","","","","","","","","",""
"","image-keyboard-response","259","142119","0.0-259.0","","","","","510","img/land4.png","74","510","1","1","1","1","1,0.5,0.5,0.5,1,0.5,0.5,0.5,1","1,0.5,0.5,0.5,1,0.5,0.5,0.5,1","","",""
"","html-keyboard-response","260","142425","0.0-260.0","","","","","null","<img src=""img/land4.png"" style=""width:200px; border:14px solid green;"">","null","","","","","","","","","",""
"","image-keyboard-response","261","142951","0.0-261.0","","","","","524","img/land6.png","76","526","3","1","3","1","1,0.5,0.5,0.5,1,0.5,0.5,0.5,1","1,0.5,0.5,0.5,1,0.5,0.5,0.5,1","","",""
"","html-keyboard-response","262","143258","0.0-262.0","","","","","null","<img src=""img/land6.png"" style=""width:200px; border:14px solid green;"">","null","","","","","","","","","",""
"","image-keyboard-response","263","143864","0.0-263.0","","","","","604","img/land4.png","76","605","3","0","1","1","1,0.5,0.5,0.5,1,0.5,0.5,0.5,1","1,0.5,0.5,0.5,1,0.5,0.5,0.5,1","","",""
"","html-keyboard-response","264","144176","0.0-264.0","","","","","null","<img src=""img/land4.png"" style=""width:200px;border:14px solid red;"">","null","","","","","","","","","",""
"","image-keyboard-response","265","144976","0.0-265.0","","","","","798","img/land4.png","74","799","1","1","1","1","1,0.5,0.5,0.5,1,0.5,0.5,0.5,1","1,0.5,0.5,0.5,1,0.5,0.5,0.5,1","","",""
"","html-keyboard-response","266","145280","0.0-266.0","","","","","null","<img src=""img/land4.png"" style=""width:200px; border:14px solid green;"">","null","","","","","","","","","",""
"","image-keyboard-response","267","146071","0.0-267.0","","","","","790","img/land5.png","75","792","2","1","2","1","1,0.5,0.5,0.5,1,0.5,0.5,0.5,1","1,0.5,0.5,0.5,1,0.5,0.5,0.5,1","","",""
"","html-keyboard-response","268","146384","0.0-268.0","","","","","null","<img src=""img/land5.png"" style=""width:200px; border:14px solid green;"">","null","","","","","","","","","",""
"","image-keyboard-response","269","147017","0.0-269.0","","","","","630","img/land4.png","74","632","1","1","1","1","1,0.5,0.5,0.5,1,0.5,0.5,0.5,1","1,0.5,0.5,0.5,1,0.5,0.5,0.5,1","","",""
"","html-keyboard-response","270","147324","0.0-270.0","","","","","null","<img src=""img/land4.png"" style=""width:200px; border:14px solid green;"">","null","","","","","","","","","",""
"","image-keyboard-response","271","147729","0.0-271.0","","","","","403","img/land5.png","75","405","2","1","2","1","1,0.5,0.5,0.5,1,0.5,0.5,0.5,1","1,0.5,0.5,0.5,1,0.5,0.5,0.5,1","","",""
"","html-keyboard-response","272","148042","0.0-272.0","","","","","null","<img src=""img/land5.png"" style=""width:200px; border:14px solid green;"">","null","","","","","","","","","",""
"","image-keyboard-response","273","148688","0.0-273.0","","","","","646","img/land5.png","75","646","2","1","2","1","1,0.5,0.5,0.5,1,0.5,0.5,0.5,1","1,0.5,0.5,0.5,1,0.5,0.5,0.5,1","","",""
"","html-keyboard-response","274","149030","0.0-274.0","","","","","null","<img src=""img/land5.png"" style=""width:200px; border:14px solid green;"">","null","","","","","","","","","",""
"","image-keyboard-response","275","149601","0.0-275.0","","","","","568","img/land6.png","76","569","3","1","3","1","1,0.5,0.5,0.5,1,0.5,0.5,0.5,1","1,0.5,0.5,0.5,1,0.5,0.5,0.5,1","","",""
"","html-keyboard-response","276","149917","0.0-276.0","","","","","null","<img src=""img/land6.png"" style=""width:200px; border:14px solid green;"">","null","","","","","","","","","",""
"","image-keyboard-response","277","150472","0.0-277.0","","","","","554","img/land4.png","74","555","1","1","1","1","1,0.5,0.5,0.5,1,0.5,0.5,0.5,1","1,0.5,0.5,0.5,1,0.5,0.5,0.5,1","","",""
"","html-keyboard-response","278","150783","0.0-278.0","","","","","null","<img src=""img/land4.png"" style=""width:200px; border:14px solid green;"">","null","","","","","","","","","",""
"","image-keyboard-response","279","151273","0.0-279.0","","","","","488","img/land4.png","74","490","1","1","1","1","1,0.5,0.5,0.5,1,0.5,0.5,0.5,1","1,0.5,0.5,0.5,1,0.5,0.5,0.5,1","","",""
"","html-keyboard-response","280","151585","0.0-280.0","","","","","null","<img src=""img/land4.png"" style=""width:200px; border:14px solid green;"">","null","","","","","","","","","",""
"","image-keyboard-response","281","152039","0.0-281.0","","","","","452","img/land5.png","75","454","2","1","2","1","1,0.5,0.5,0.5,1,0.5,0.5,0.5,1","1,0.5,0.5,0.5,1,0.5,0.5,0.5,1","","",""
"","html-keyboard-response","282","152340","0.0-282.0","","","","","null","<img src=""img/land5.png"" style=""width:200px; border:14px solid green;"">","null","","","","","","","","","",""
"","image-keyboard-response","283","152800","0.0-283.0","","","","","458","img/land4.png","76","459","3","0","1","1","1,0.5,0.5,0.5,1,0.5,0.5,0.5,1","1,0.5,0.5,0.5,1,0.5,0.5,0.5,1","","",""
"","html-keyboard-response","284","153105","0.0-284.0","","","","","null","<img src=""img/land4.png"" style=""width:200px;border:14px solid red;"">","null","","","","","","","","","",""
"","image-keyboard-response","285","153897","0.0-285.0","","","","","790","img/land5.png","75","791","2","1","2","1","1,0.5,0.5,0.5,1,0.5,0.5,0.5,1","1,0.5,0.5,0.5,1,0.5,0.5,0.5,1","","",""
"","html-keyboard-response","286","154208","0.0-286.0","","","","","null","<img src=""img/land5.png"" style=""width:200px; border:14px solid green;"">","null","","","","","","","","","",""
"","image-keyboard-response","287","154664","0.0-287.0","","","","","453","img/land4.png","74","456","1","1","1","1","1,0.5,0.5,0.5,1,0.5,0.5,0.5,1","1,0.5,0.5,0.5,1,0.5,0.5,0.5,1","","",""
"","html-keyboard-response","288","154979","0.0-288.0","","","","","null","<img src=""img/land4.png"" style=""width:200px; border:14px solid green;"">","null","","","","","","","","","",""
"","image-keyboard-response","289","155616","0.0-289.0","","","","","635","img/land5.png","75","637","2","1","2","1","1,0.5,0.5,0.5,1,0.5,0.5,0.5,1","1,0.5,0.5,0.5,1,0.5,0.5,0.5,1","","",""
"","html-keyboard-response","290","155935","0.0-290.0","","","","","null","<img src=""img/land5.png"" style=""width:200px; border:14px solid green;"">","null","","","","","","","","","",""
"","image-keyboard-response","291","156496","0.0-291.0","","","","","559","img/land4.png","74","561","1","1","1","1","1,0.5,0.5,0.5,1,0.5,0.5,0.5,1","1,0.5,0.5,0.5,1,0.5,0.5,0.5,1","","",""
"","html-keyboard-response","292","156800","0.0-292.0","","","","","null","<img src=""img/land4.png"" style=""width:200px; border:14px solid green;"">","null","","","","","","","","","",""
"","image-keyboard-response","293","157207","0.0-293.0","","","","","407","img/land5.png","75","407","2","1","2","1","1,0.5,0.5,0.5,1,0.5,0.5,0.5,1","1,0.5,0.5,0.5,1,0.5,0.5,0.5,1","","",""
"","html-keyboard-response","294","157517","0.0-294.0","","","","","null","<img src=""img/land5.png"" style=""width:200px; border:14px solid green;"">","null","","","","","","","","","",""
"","image-keyboard-response","295","158024","0.0-295.0","","","","","504","img/land6.png","76","506","3","1","3","1","1,0.5,0.5,0.5,1,0.5,0.5,0.5,1","1,0.5,0.5,0.5,1,0.5,0.5,0.5,1","","",""
"","html-keyboard-response","296","158342","0.0-296.0","","","","","null","<img src=""img/land6.png"" style=""width:200px; border:14px solid green;"">","null","","","","","","","","","",""
"","image-keyboard-response","297","159169","0.0-297.0","","","","","825","img/land4.png","74","828","1","1","1","1","1,0.5,0.5,0.5,1,0.5,0.5,0.5,1","1,0.5,0.5,0.5,1,0.5,0.5,0.5,1","","",""
"","html-keyboard-response","298","159475","0.0-298.0","","","","","null","<img src=""img/land4.png"" style=""width:200px; border:14px solid green;"">","null","","","","","","","","","",""
"","image-keyboard-response","299","160240","0.0-299.0","","","","","763","img/land6.png","76","764","3","1","3","1","1,0.5,0.5,0.5,1,0.5,0.5,0.5,1","1,0.5,0.5,0.5,1,0.5,0.5,0.5,1","","",""
"","html-keyboard-response","300","160548","0.0-300.0","","","","","null","<img src=""img/land6.png"" style=""width:200px; border:14px solid green;"">","null","","","","","","","","","",""
"","image-keyboard-response","301","161129","0.0-301.0","","","","","578","img/land4.png","74","580","1","1","1","1","1,0.5,0.5,0.5,1,0.5,0.5,0.5,1","1,0.5,0.5,0.5,1,0.5,0.5,0.5,1","","",""
"","html-keyboard-response","302","161451","0.0-302.0","","","","","null","<img src=""img/land4.png"" style=""width:200px; border:14px solid green;"">","null","","","","","","","","","",""
"","image-keyboard-response","303","161984","0.0-303.0","","","","","532","img/land4.png","74","533","1","1","1","1","1,0.5,0.5,0.5,1,0.5,0.5,0.5,1","1,0.5,0.5,0.5,1,0.5,0.5,0.5,1","","",""
"","html-keyboard-response","304","162301","0.0-304.0","","","","","null","<img src=""img/land4.png"" style=""width:200px; border:14px solid green;"">","null","","","","","","","","","",""
"","image-keyboard-response","305","162695","0.0-305.0","","","","","392","img/land4.png","74","393","1","1","1","1","1,0.5,0.5,0.5,1,0.5,0.5,0.5,1","1,0.5,0.5,0.5,1,0.5,0.5,0.5,1","","",""
"","html-keyboard-response","306","163002","0.0-306.0","","","","","null","<img src=""img/land4.png"" style=""width:200px; border:14px solid green;"">","null","","","","","","","","","",""
"","image-keyboard-response","307","163544","0.0-307.0","","","","","541","img/land5.png","75","541","2","1","2","1","1,0.5,0.5,0.5,1,0.5,0.5,0.5,1","1,0.5,0.5,0.5,1,0.5,0.5,0.5,1","","",""
"","html-keyboard-response","308","163861","0.0-308.0","","","","","null","<img src=""img/land5.png"" style=""width:200px; border:14px solid green;"">","null","","","","","","","","","",""
"","image-keyboard-response","309","164367","0.0-309.0","","","","","503","img/land4.png","74","505","1","1","1","1","1,0.5,0.5,0.5,1,0.5,0.5,0.5,1","1,0.5,0.5,0.5,1,0.5,0.5,0.5,1","","",""
"","html-keyboard-response","310","164679","0.0-310.0","","","","","null","<img src=""img/land4.png"" style=""width:200px; border:14px solid green;"">","null","","","","","","","","","",""
"","image-keyboard-response","311","165086","0.0-311.0","","","","","406","img/land4.png","74","407","1","1","1","1","1,0.5,0.5,0.5,1,0.5,0.5,0.5,1","1,0.5,0.5,0.5,1,0.5,0.5,0.5,1","","",""
"","html-keyboard-response","312","165396","0.0-312.0","","","","","null","<img src=""img/land4.png"" style=""width:200px; border:14px solid green;"">","null","","","","","","","","","",""
"","image-keyboard-response","313","165776","0.0-313.0","","","","","378","img/land4.png","74","379","1","1","1","1","1,0.5,0.5,0.5,1,0.5,0.5,0.5,1","1,0.5,0.5,0.5,1,0.5,0.5,0.5,1","","",""
"","html-keyboard-response","314","166083","0.0-314.0","","","","","null","<img src=""img/land4.png"" style=""width:200px; border:14px solid green;"">","null","","","","","","","","","",""
"","image-keyboard-response","315","166471","0.0-315.0","","","","","388","img/land4.png","74","390","1","1","1","1","1,0.5,0.5,0.5,1,0.5,0.5,0.5,1","1,0.5,0.5,0.5,1,0.5,0.5,0.5,1","","",""
"","html-keyboard-response","316","166785","0.0-316.0","","","","","null","<img src=""img/land4.png"" style=""width:200px; border:14px solid green;"">","null","","","","","","","","","",""
"","image-keyboard-response","317","167414","0.0-317.0","","","","","629","img/land5.png","75","629","2","1","2","1","1,0.5,0.5,0.5,1,0.5,0.5,0.5,1","1,0.5,0.5,0.5,1,0.5,0.5,0.5,1","","",""
"","html-keyboard-response","318","167719","0.0-318.0","","","","","null","<img src=""img/land5.png"" style=""width:200px; border:14px solid green;"">","null","","","","","","","","","",""
"","image-keyboard-response","319","168256","0.0-319.0","","","","","535","img/land5.png","75","537","2","1","2","1","1,0.5,0.5,0.5,1,0.5,0.5,0.5,1","1,0.5,0.5,0.5,1,0.5,0.5,0.5,1","","",""
"","html-keyboard-response","320","168560","0.0-320.0","","","","","null","<img src=""img/land5.png"" style=""width:200px; border:14px solid green;"">","null","","","","","","","","","",""
"","image-keyboard-response","321","169265","0.0-321.0","","","","","704","img/land4.png","74","705","1","1","1","1","1,0.5,0.5,0.5,1,0.5,0.5,0.5,1","1,0.5,0.5,0.5,1,0.5,0.5,0.5,1","","",""
"","html-keyboard-response","322","169578","0.0-322.0","","","","","null","<img src=""img/land4.png"" style=""width:200px; border:14px solid green;"">","null","","","","","","","","","",""
"","image-keyboard-response","323","169968","0.0-323.0","","","","","387","img/land4.png","74","389","1","1","1","1","1,0.5,0.5,0.5,1,0.5,0.5,0.5,1","1,0.5,0.5,0.5,1,0.5,0.5,0.5,1","","",""
"","html-keyboard-response","324","170281","0.0-324.0","","","","","null","<img src=""img/land4.png"" style=""width:200px; border:14px solid green;"">","null","","","","","","","","","",""
"","image-keyboard-response","325","170815","0.0-325.0","","","","","533","img/land5.png","75","534","2","1","2","1","1,0.5,0.5,0.5,1,0.5,0.5,0.5,1","1,0.5,0.5,0.5,1,0.5,0.5,0.5,1","","",""
"","html-keyboard-response","326","171130","0.0-326.0","","","","","null","<img src=""img/land5.png"" style=""width:200px; border:14px solid green;"">","null","","","","","","","","","",""
"","image-keyboard-response","327","171664","0.0-327.0","","","","","533","img/land4.png","74","533","1","1","1","1","1,0.5,0.5,0.5,1,0.5,0.5,0.5,1","1,0.5,0.5,0.5,1,0.5,0.5,0.5,1","","",""
"","html-keyboard-response","328","171970","0.0-328.0","","","","","null","<img src=""img/land4.png"" style=""width:200px; border:14px solid green;"">","null","","","","","","","","","",""
"","image-keyboard-response","329","172384","0.0-329.0","","","","","413","img/land4.png","74","414","1","1","1","1","1,0.5,0.5,0.5,1,0.5,0.5,0.5,1","1,0.5,0.5,0.5,1,0.5,0.5,0.5,1","","",""
"","html-keyboard-response","330","172686","0.0-330.0","","","","","null","<img src=""img/land4.png"" style=""width:200px; border:14px solid green;"">","null","","","","","","","","","",""
"","image-keyboard-response","331","173328","0.0-331.0","","","","","640","img/land6.png","76","641","3","1","3","1","1,0.5,0.5,0.5,1,0.5,0.5,0.5,1","1,0.5,0.5,0.5,1,0.5,0.5,0.5,1","","",""
"","html-keyboard-response","332","173637","0.0-332.0","","","","","null","<img src=""img/land6.png"" style=""width:200px; border:14px solid green;"">","null","","","","","","","","","",""
"","image-keyboard-response","333","174168","0.0-333.0","","","","","529","img/land4.png","74","530","1","1","1","1","1,0.5,0.5,0.5,1,0.5,0.5,0.5,1","1,0.5,0.5,0.5,1,0.5,0.5,0.5,1","","",""
"","html-keyboard-response","334","174476","0.0-334.0","","","","","null","<img src=""img/land4.png"" style=""width:200px; border:14px solid green;"">","null","","","","","","","","","",""
"","image-keyboard-response","335","174846","0.0-335.0","","","","","369","img/land4.png","74","370","1","1","1","1","1,0.5,0.5,0.5,1,0.5,0.5,0.5,1","1,0.5,0.5,0.5,1,0.5,0.5,0.5,1","","",""
"","html-keyboard-response","336","175162","0.0-336.0","","","","","null","<img src=""img/land4.png"" style=""width:200px; border:14px solid green;"">","null","","","","","","","","","",""
"","image-keyboard-response","337","175518","0.0-337.0","","","","","355","img/land4.png","74","356","1","1","1","1","1,0.5,0.5,0.5,1,0.5,0.5,0.5,1","1,0.5,0.5,0.5,1,0.5,0.5,0.5,1","","",""
"","html-keyboard-response","338","175826","0.0-338.0","","","","","null","<img src=""img/land4.png"" style=""width:200px; border:14px solid green;"">","null","","","","","","","","","",""
"","image-keyboard-response","339","176248","0.0-339.0","","","","","421","img/land4.png","74","422","1","1","1","1","1,0.5,0.5,0.5,1,0.5,0.5,0.5,1","1,0.5,0.5,0.5,1,0.5,0.5,0.5,1","","",""
"","html-keyboard-response","340","176566","0.0-340.0","","","","","null","<img src=""img/land4.png"" style=""width:200px; border:14px solid green;"">","null","","","","","","","","","",""
"","image-keyboard-response","341","176927","0.0-341.0","","","","","360","img/land4.png","74","360","1","1","1","1","1,0.5,0.5,0.5,1,0.5,0.5,0.5,1","1,0.5,0.5,0.5,1,0.5,0.5,0.5,1","","",""
"","html-keyboard-response","342","177230","0.0-342.0","","","","","null","<img src=""img/land4.png"" style=""width:200px; border:14px solid green;"">","null","","","","","","","","","",""
"","image-keyboard-response","343","177824","0.0-343.0","","","","","593","img/land6.png","76","594","3","1","3","1","1,0.5,0.5,0.5,1,0.5,0.5,0.5,1","1,0.5,0.5,0.5,1,0.5,0.5,0.5,1","","",""
"","html-keyboard-response","344","178132","0.0-344.0","","","","","null","<img src=""img/land6.png"" style=""width:200px; border:14px solid green;"">","null","","","","","","","","","",""
"","image-keyboard-response","345","178760","0.0-345.0","","","","","626","img/land5.png","75","628","2","1","2","1","1,0.5,0.5,0.5,1,0.5,0.5,0.5,1","1,0.5,0.5,0.5,1,0.5,0.5,0.5,1","","",""
"","html-keyboard-response","346","179073","0.0-346.0","","","","","null","<img src=""img/land5.png"" style=""width:200px; border:14px solid green;"">","null","","","","","","","","","",""
"","image-keyboard-response","347","179592","0.0-347.0","","","","","517","img/land4.png","74","519","1","1","1","1","1,0.5,0.5,0.5,1,0.5,0.5,0.5,1","1,0.5,0.5,0.5,1,0.5,0.5,0.5,1","","",""
"","html-keyboard-response","348","179907","0.0-348.0","","","","","null","<img src=""img/land4.png"" style=""width:200px; border:14px solid green;"">","null","","","","","","","","","",""
"","image-keyboard-response","349","180487","0.0-349.0","","","","","579","img/land5.png","75","580","2","1","2","1","1,0.5,0.5,0.5,1,0.5,0.5,0.5,1","1,0.5,0.5,0.5,1,0.5,0.5,0.5,1","","",""
"","html-keyboard-response","350","180794","0.0-350.0","","","","","null","<img src=""img/land5.png"" style=""width:200px; border:14px solid green;"">","null","","","","","","","","","",""
"","image-keyboard-response","351","181296","0.0-351.0","","","","","502","img/land4.png","74","503","1","1","1","1","1,0.5,0.5,0.5,1,0.5,0.5,0.5,1","1,0.5,0.5,0.5,1,0.5,0.5,0.5,1","","",""
"","html-keyboard-response","352","181612","0.0-352.0","","","","","null","<img src=""img/land4.png"" style=""width:200px; border:14px solid green;"">","null","","","","","","","","","",""
"","image-keyboard-response","353","182032","0.0-353.0","","","","","418","img/land4.png","74","419","1","1","1","1","1,0.5,0.5,0.5,1,0.5,0.5,0.5,1","1,0.5,0.5,0.5,1,0.5,0.5,0.5,1","","",""
"","html-keyboard-response","354","182345","0.0-354.0","","","","","null","<img src=""img/land4.png"" style=""width:200px; border:14px solid green;"">","null","","","","","","","","","",""
"","image-keyboard-response","355","182702","0.0-355.0","","","","","356","img/land4.png","74","356","1","1","1","1","1,0.5,0.5,0.5,1,0.5,0.5,0.5,1","1,0.5,0.5,0.5,1,0.5,0.5,0.5,1","","",""
"","html-keyboard-response","356","183015","0.0-356.0","","","","","null","<img src=""img/land4.png"" style=""width:200px; border:14px solid green;"">","null","","","","","","","","","",""
"","image-keyboard-response","357","183375","0.0-357.0","","","","","359","img/land4.png","74","360","1","1","1","1","1,0.5,0.5,0.5,1,0.5,0.5,0.5,1","1,0.5,0.5,0.5,1,0.5,0.5,0.5,1","","",""
"","html-keyboard-response","358","183686","0.0-358.0","","","","","null","<img src=""img/land4.png"" style=""width:200px; border:14px solid green;"">","null","","","","","","","","","",""
"","image-keyboard-response","359","184239","0.0-359.0","","","","","554","img/land6.png","74","555","1","1","3","1","1,0.5,0.5,0.5,1,0.5,0.5,0.5,1","1,0.5,0.5,0.5,1,0.5,0.5,0.5,1","","",""
"","html-keyboard-response","360","184588","0.0-360.0","","","","","null","<img src=""img/land6.png"" style=""width:200px; border:14px solid green;"">","null","","","","","","","","","",""
"","image-keyboard-response","361","185519","0.0-361.0","","","","","929","img/land5.png","74","931","1","0","2","1","1,0.5,0.5,0.5,1,0.5,0.5,0.5,1","1,0.5,0.5,0.5,1,0.5,0.5,0.5,1","","",""
"","html-keyboard-response","362","185824","0.0-362.0","","","","","null","<img src=""img/land5.png"" style=""width:200px;border:14px solid red;"">","null","","","","","","","","","",""
"","image-keyboard-response","363","186552","0.0-363.0","","","","","727","img/land4.png","74","728","1","1","1","1","1,0.5,0.5,0.5,1,0.5,0.5,0.5,1","1,0.5,0.5,0.5,1,0.5,0.5,0.5,1","","",""
"","html-keyboard-response","364","186858","0.0-364.0","","","","","null","<img src=""img/land4.png"" style=""width:200px; border:14px solid green;"">","null","","","","","","","","","",""
"","image-keyboard-response","365","187192","0.0-365.0","","","","","332","img/land4.png","74","333","1","1","1","1","1,0.5,0.5,0.5,1,0.5,0.5,0.5,1","1,0.5,0.5,0.5,1,0.5,0.5,0.5,1","","",""
"","html-keyboard-response","366","187498","0.0-366.0","","","","","null","<img src=""img/land4.png"" style=""width:200px; border:14px solid green;"">","null","","","","","","","","","",""
"","image-keyboard-response","367","187888","0.0-367.0","","","","","388","img/land4.png","74","390","1","1","1","1","1,0.5,0.5,0.5,1,0.5,0.5,0.5,1","1,0.5,0.5,0.5,1,0.5,0.5,0.5,1","","",""
"","html-keyboard-response","368","188199","0.0-368.0","","","","","null","<img src=""img/land4.png"" style=""width:200px; border:14px solid green;"">","null","","","","","","","","","",""
"","image-keyboard-response","369","188542","0.0-369.0","","","","","343","img/land4.png","74","343","1","1","1","1","1,0.5,0.5,0.5,1,0.5,0.5,0.5,1","1,0.5,0.5,0.5,1,0.5,0.5,0.5,1","","",""
"","html-keyboard-response","370","188848","0.0-370.0","","","","","null","<img src=""img/land4.png"" style=""width:200px; border:14px solid green;"">","null","","","","","","","","","",""
"","image-keyboard-response","371","189312","0.0-371.0","","","","","463","img/land6.png","74","464","1","0","3","1","1,0.5,0.5,0.5,1,0.5,0.5,0.5,1","1,0.5,0.5,0.5,1,0.5,0.5,0.5,1","","",""
"","html-keyboard-response","372","189619","0.0-372.0","","","","","null","<img src=""img/land6.png"" style=""width:200px;border:14px solid red;"">","null","","","","","","","","","",""
"","image-keyboard-response","373","190360","0.0-373.0","","","","","739","img/land5.png","75","741","2","1","2","1","1,0.5,0.5,0.5,1,0.5,0.5,0.5,1","1,0.5,0.5,0.5,1,0.5,0.5,0.5,1","","",""
"","html-keyboard-response","374","190670","0.0-374.0","","","","","null","<img src=""img/land5.png"" style=""width:200px; border:14px solid green;"">","null","","","","","","","","","",""
"","image-keyboard-response","375","191183","0.0-375.0","","","","","512","img/land4.png","74","513","1","1","1","1","1,0.5,0.5,0.5,1,0.5,0.5,0.5,1","1,0.5,0.5,0.5,1,0.5,0.5,0.5,1","","",""
"","html-keyboard-response","376","191487","0.0-376.0","","","","","null","<img src=""img/land4.png"" style=""width:200px; border:14px solid green;"">","null","","","","","","","","","",""
"","image-keyboard-response","377","191848","0.0-377.0","","","","","358","img/land4.png","74","360","1","1","1","1","1,0.5,0.5,0.5,1,0.5,0.5,0.5,1","1,0.5,0.5,0.5,1,0.5,0.5,0.5,1","","",""
"","html-keyboard-response","378","192158","0.0-378.0","","","","","null","<img src=""img/land4.png"" style=""width:200px; border:14px solid green;"">","null","","","","","","","","","",""
"","image-keyboard-response","379","192807","0.0-379.0","","","","","648","img/land6.png","76","650","3","1","3","1","1,0.5,0.5,0.5,1,0.5,0.5,0.5,1","1,0.5,0.5,0.5,1,0.5,0.5,0.5,1","","",""
"","html-keyboard-response","380","193115","0.0-380.0","","","","","null","<img src=""img/land6.png"" style=""width:200px; border:14px solid green;"">","null","","","","","","","","","",""
"","image-keyboard-response","381","194048","0.0-381.0","","","","","932","img/land4.png","74","933","1","1","1","1","1,0.5,0.5,0.5,1,0.5,0.5,0.5,1","1,0.5,0.5,0.5,1,0.5,0.5,0.5,1","","",""
"","html-keyboard-response","382","194366","0.0-382.0","","","","","null","<img src=""img/land4.png"" style=""width:200px; border:14px solid green;"">","null","","","","","","","","","",""
"","image-keyboard-response","383","194737","0.0-383.0","","","","","371","img/land4.png","74","372","1","1","1","1","1,0.5,0.5,0.5,1,0.5,0.5,0.5,1","1,0.5,0.5,0.5,1,0.5,0.5,0.5,1","","",""
"","html-keyboard-response","384","195053","0.0-384.0","","","","","null","<img src=""img/land4.png"" style=""width:200px; border:14px solid green;"">","null","","","","","","","","","",""
"","image-keyboard-response","385","195400","0.0-385.0","","","","","346","img/land4.png","74","347","1","1","1","1","1,0.5,0.5,0.5,1,0.5,0.5,0.5,1","1,0.5,0.5,0.5,1,0.5,0.5,0.5,1","","",""
"","html-keyboard-response","386","195723","0.0-386.0","","","","","null","<img src=""img/land4.png"" style=""width:200px; border:14px solid green;"">","null","","","","","","","","","",""
"","image-keyboard-response","387","196167","0.0-387.0","","","","","441","img/land5.png","75","442","2","1","2","1","1,0.5,0.5,0.5,1,0.5,0.5,0.5,1","1,0.5,0.5,0.5,1,0.5,0.5,0.5,1","","",""
"","html-keyboard-response","388","196472","0.0-388.0","","","","","null","<img src=""img/land5.png"" style=""width:200px; border:14px solid green;"">","null","","","","","","","","","",""
"","image-keyboard-response","389","197153","0.0-389.0","","","","","679","img/land4.png","74","681","1","1","1","1","1,0.5,0.5,0.5,1,0.5,0.5,0.5,1","1,0.5,0.5,0.5,1,0.5,0.5,0.5,1","","",""
"","html-keyboard-response","390","197459","0.0-390.0","","","","","null","<img src=""img/land4.png"" style=""width:200px; border:14px solid green;"">","null","","","","","","","","","",""
"","image-keyboard-response","391","198137","0.0-391.0","","","","","675","img/land6.png","76","677","3","1","3","1","1,0.5,0.5,0.5,1,0.5,0.5,0.5,1","1,0.5,0.5,0.5,1,0.5,0.5,0.5,1","","",""
"","html-keyboard-response","392","198448","0.0-392.0","","","","","null","<img src=""img/land6.png"" style=""width:200px; border:14px solid green;"">","null","","","","","","","","","",""
"","image-keyboard-response","393","199016","0.0-393.0","","","","","566","img/land5.png","75","567","2","1","2","1","1,0.5,0.5,0.5,1,0.5,0.5,0.5,1","1,0.5,0.5,0.5,1,0.5,0.5,0.5,1","","",""
"","html-keyboard-response","394","199335","0.0-394.0","","","","","null","<img src=""img/land5.png"" style=""width:200px; border:14px solid green;"">","null","","","","","","","","","",""
"","image-keyboard-response","395","199880","0.0-395.0","","","","","544","img/land5.png","75","546","2","1","2","1","1,0.5,0.5,0.5,1,0.5,0.5,0.5,1","1,0.5,0.5,0.5,1,0.5,0.5,0.5,1","","",""
"","html-keyboard-response","396","200184","0.0-396.0","","","","","null","<img src=""img/land5.png"" style=""width:200px; border:14px solid green;"">","null","","","","","","","","","",""
"","image-keyboard-response","397","200720","0.0-397.0","","","","","534","img/land4.png","74","536","1","1","1","1","1,0.5,0.5,0.5,1,0.5,0.5,0.5,1","1,0.5,0.5,0.5,1,0.5,0.5,0.5,1","","",""
"","html-keyboard-response","398","201040","0.0-398.0","","","","","null","<img src=""img/land4.png"" style=""width:200px; border:14px solid green;"">","null","","","","","","","","","",""
"","image-keyboard-response","399","201624","0.0-399.0","","","","","582","img/land6.png","76","583","3","1","3","1","1,0.5,0.5,0.5,1,0.5,0.5,0.5,1","1,0.5,0.5,0.5,1,0.5,0.5,0.5,1","","",""
"","html-keyboard-response","400","201943","0.0-400.0","","","","","null","<img src=""img/land6.png"" style=""width:200px; border:14px solid green;"">","null","","","","","","","","","",""
"","image-keyboard-response","401","202384","0.0-401.0","","","","","439","img/land6.png","76","441","3","1","3","1","1,0.5,0.5,0.5,1,0.5,0.5,0.5,1","1,0.5,0.5,0.5,1,0.5,0.5,0.5,1","","",""
"","html-keyboard-response","402","202692","0.0-402.0","","","","","null","<img src=""img/land6.png"" style=""width:200px; border:14px solid green;"">","null","","","","","","","","","",""
"","image-keyboard-response","403","203502","0.0-403.0","","","","","809","img/land4.png","74","810","1","1","1","1","1,0.5,0.5,0.5,1,0.5,0.5,0.5,1","1,0.5,0.5,0.5,1,0.5,0.5,0.5,1","","",""
"","html-keyboard-response","404","203811","0.0-404.0","","","","","null","<img src=""img/land4.png"" style=""width:200px; border:14px solid green;"">","null","","","","","","","","","",""
"","image-keyboard-response","405","204256","0.0-405.0","","","","","443","img/land4.png","74","445","1","1","1","1","1,0.5,0.5,0.5,1,0.5,0.5,0.5,1","1,0.5,0.5,0.5,1,0.5,0.5,0.5,1","","",""
"","html-keyboard-response","406","204567","0.0-406.0","","","","","null","<img src=""img/land4.png"" style=""width:200px; border:14px solid green;"">","null","","","","","","","","","",""
"","image-keyboard-response","407","205032","0.0-407.0","","","","","464","img/land5.png","75","465","2","1","2","1","1,0.5,0.5,0.5,1,0.5,0.5,0.5,1","1,0.5,0.5,0.5,1,0.5,0.5,0.5,1","","",""
"","html-keyboard-response","408","205354","0.0-408.0","","","","","null","<img src=""img/land5.png"" style=""width:200px; border:14px solid green;"">","null","","","","","","","","","",""
"","image-keyboard-response","409","206024","0.0-409.0","","","","","668","img/land6.png","76","670","3","1","3","1","1,0.5,0.5,0.5,1,0.5,0.5,0.5,1","1,0.5,0.5,0.5,1,0.5,0.5,0.5,1","","",""
"","html-keyboard-response","410","206334","0.0-410.0","","","","","null","<img src=""img/land6.png"" style=""width:200px; border:14px solid green;"">","null","","","","","","","","","",""
"","image-keyboard-response","411","207017","0.0-411.0","","","","","680","img/land4.png","74","683","1","1","1","1","1,0.5,0.5,0.5,1,0.5,0.5,0.5,1","1,0.5,0.5,0.5,1,0.5,0.5,0.5,1","","",""
"","html-keyboard-response","412","207321","0.0-412.0","","","","","null","<img src=""img/land4.png"" style=""width:200px; border:14px solid green;"">","null","","","","","","","","","",""
"","image-keyboard-response","413","207777","0.0-413.0","","","","","454","img/land5.png","75","455","2","1","2","1","1,0.5,0.5,0.5,1,0.5,0.5,0.5,1","1,0.5,0.5,0.5,1,0.5,0.5,0.5,1","","",""
"","html-keyboard-response","414","208092","0.0-414.0","","","","","null","<img src=""img/land5.png"" style=""width:200px; border:14px solid green;"">","null","","","","","","","","","",""
"","image-keyboard-response","415","208584","0.0-415.0","","","","","490","img/land4.png","74","491","1","1","1","1","1,0.5,0.5,0.5,1,0.5,0.5,0.5,1","1,0.5,0.5,0.5,1,0.5,0.5,0.5,1","","",""
"","html-keyboard-response","416","208895","0.0-416.0","","","","","null","<img src=""img/land4.png"" style=""width:200px; border:14px solid green;"">","null","","","","","","","","","",""
"","image-keyboard-response","417","209336","0.0-417.0","","","","","439","img/land6.png","76","441","3","1","3","1","1,0.5,0.5,0.5,1,0.5,0.5,0.5,1","1,0.5,0.5,0.5,1,0.5,0.5,0.5,1","","",""
"","html-keyboard-response","418","209644","0.0-418.0","","","","","null","<img src=""img/land6.png"" style=""width:200px; border:14px solid green;"">","null","","","","","","","","","",""
"","image-keyboard-response","419","210176","0.0-419.0","","","","","530","img/land4.png","74","532","1","1","1","1","1,0.5,0.5,0.5,1,0.5,0.5,0.5,1","1,0.5,0.5,0.5,1,0.5,0.5,0.5,1","","",""
"","html-keyboard-response","420","210484","0.0-420.0","","","","","null","<img src=""img/land4.png"" style=""width:200px; border:14px solid green;"">","null","","","","","","","","","",""
"","image-keyboard-response","421","210936","0.0-421.0","","","","","450","img/land4.png","74","452","1","1","1","1","1,0.5,0.5,0.5,1,0.5,0.5,0.5,1","1,0.5,0.5,0.5,1,0.5,0.5,0.5,1","","",""
"","html-keyboard-response","422","211248","0.0-422.0","","","","","null","<img src=""img/land4.png"" style=""width:200px; border:14px solid green;"">","null","","","","","","","","","",""
"","image-keyboard-response","423","211592","0.0-423.0","","","","","342","img/land4.png","74","343","1","1","1","1","1,0.5,0.5,0.5,1,0.5,0.5,0.5,1","1,0.5,0.5,0.5,1,0.5,0.5,0.5,1","","",""
"","html-keyboard-response","424","211904","0.0-424.0","","","","","null","<img src=""img/land4.png"" style=""width:200px; border:14px solid green;"">","null","","","","","","","","","",""
"","image-keyboard-response","425","212320","0.0-425.0","","","","","414","img/land6.png","76","415","3","1","3","1","1,0.5,0.5,0.5,1,0.5,0.5,0.5,1","1,0.5,0.5,0.5,1,0.5,0.5,0.5,1","","",""
"","html-keyboard-response","426","212637","0.0-426.0","","","","","null","<img src=""img/land6.png"" style=""width:200px; border:14px solid green;"">","null","","","","","","","","","",""
"","image-keyboard-response","427","213110","0.0-427.0","","","","","472","img/land4.png","74","473","1","1","1","1","1,0.5,0.5,0.5,1,0.5,0.5,0.5,1","1,0.5,0.5,0.5,1,0.5,0.5,0.5,1","","",""
"","html-keyboard-response","428","213424","0.0-428.0","","","","","null","<img src=""img/land4.png"" style=""width:200px; border:14px solid green;"">","null","","","","","","","","","",""
"","image-keyboard-response","429","213752","0.0-429.0","","","","","327","img/land4.png","74","329","1","1","1","1","1,0.5,0.5,0.5,1,0.5,0.5,0.5,1","1,0.5,0.5,0.5,1,0.5,0.5,0.5,1","","",""
"","html-keyboard-response","430","214057","0.0-430.0","","","","","null","<img src=""img/land4.png"" style=""width:200px; border:14px solid green;"">","null","","","","","","","","","",""
"","image-keyboard-response","431","214496","0.0-431.0","","","","","438","img/land5.png","75","440","2","1","2","1","1,0.5,0.5,0.5,1,0.5,0.5,0.5,1","1,0.5,0.5,0.5,1,0.5,0.5,0.5,1","","",""
"","html-keyboard-response","432","214812","0.0-432.0","","","","","null","<img src=""img/land5.png"" style=""width:200px; border:14px solid green;"">","null","","","","","","","","","",""
"","image-keyboard-response","433","215368","0.0-433.0","","","","","555","img/land4.png","74","556","1","1","1","1","1,0.5,0.5,0.5,1,0.5,0.5,0.5,1","1,0.5,0.5,0.5,1,0.5,0.5,0.5,1","","",""
"","html-keyboard-response","434","215683","0.0-434.0","","","","","null","<img src=""img/land4.png"" style=""width:200px; border:14px solid green;"">","null","","","","","","","","","",""
"","image-keyboard-response","435","216032","0.0-435.0","","","","","347","img/land4.png","74","348","1","1","1","1","1,0.5,0.5,0.5,1,0.5,0.5,0.5,1","1,0.5,0.5,0.5,1,0.5,0.5,0.5,1","","",""
"","html-keyboard-response","436","216348","0.0-436.0","","","","","null","<img src=""img/land4.png"" style=""width:200px; border:14px solid green;"">","null","","","","","","","","","",""
"","image-keyboard-response","437","216672","0.0-437.0","","","","","324","img/land4.png","74","325","1","1","1","1","1,0.5,0.5,0.5,1,0.5,0.5,0.5,1","1,0.5,0.5,0.5,1,0.5,0.5,0.5,1","","",""
"","html-keyboard-response","438","216988","0.0-438.0","","","","","null","<img src=""img/land4.png"" style=""width:200px; border:14px solid green;"">","null","","","","","","","","","",""
"","image-keyboard-response","439","217216","0.0-439.0","","","","","227","img/land4.png","74","229","1","1","1","1","1,0.5,0.5,0.5,1,0.5,0.5,0.5,1","1,0.5,0.5,0.5,1,0.5,0.5,0.5,1","","",""
"","html-keyboard-response","440","217520","0.0-440.0","","","","","null","<img src=""img/land4.png"" style=""width:200px; border:14px solid green;"">","null","","","","","","","","","",""
"","image-keyboard-response","441","217976","0.0-441.0","","","","","454","img/land6.png","76","456","3","1","3","1","1,0.5,0.5,0.5,1,0.5,0.5,0.5,1","1,0.5,0.5,0.5,1,0.5,0.5,0.5,1","","",""
"","html-keyboard-response","442","218291","0.0-442.0","","","","","null","<img src=""img/land6.png"" style=""width:200px; border:14px solid green;"">","null","","","","","","","","","",""
"","image-keyboard-response","443","218841","0.0-443.0","","","","","550","img/land6.png","76","551","3","1","3","1","1,0.5,0.5,0.5,1,0.5,0.5,0.5,1","1,0.5,0.5,0.5,1,0.5,0.5,0.5,1","","",""
"","html-keyboard-response","444","219155","0.0-444.0","","","","","null","<img src=""img/land6.png"" style=""width:200px; border:14px solid green;"">","null","","","","","","","","","",""
"","image-keyboard-response","445","219598","0.0-445.0","","","","","442","img/land5.png","75","442","2","1","2","1","1,0.5,0.5,0.5,1,0.5,0.5,0.5,1","1,0.5,0.5,0.5,1,0.5,0.5,0.5,1","","",""
"","html-keyboard-response","446","219911","0.0-446.0","","","","","null","<img src=""img/land5.png"" style=""width:200px; border:14px solid green;"">","null","","","","","","","","","",""
"","image-keyboard-response","447","220401","0.0-447.0","","","","","487","img/land6.png","76","488","3","1","3","1","1,0.5,0.5,0.5,1,0.5,0.5,0.5,1","1,0.5,0.5,0.5,1,0.5,0.5,0.5,1","","",""
"","html-keyboard-response","448","220714","0.0-448.0","","","","","null","<img src=""img/land6.png"" style=""width:200px; border:14px solid green;"">","null","","","","","","","","","",""
"","image-keyboard-response","449","221238","0.0-449.0","","","","","523","img/land4.png","74","524","1","1","1","1","1,0.5,0.5,0.5,1,0.5,0.5,0.5,1","1,0.5,0.5,0.5,1,0.5,0.5,0.5,1","","",""
"","html-keyboard-response","450","221546","0.0-450.0","","","","","null","<img src=""img/land4.png"" style=""width:200px; border:14px solid green;"">","null","","","","","","","","","",""
"","image-keyboard-response","451","222024","0.0-451.0","","","","","476","img/land5.png","75","477","2","1","2","1","1,0.5,0.5,0.5,1,0.5,0.5,0.5,1","1,0.5,0.5,0.5,1,0.5,0.5,0.5,1","","",""
"","html-keyboard-response","452","222333","0.0-452.0","","","","","null","<img src=""img/land5.png"" style=""width:200px; border:14px solid green;"">","null","","","","","","","","","",""
"","image-keyboard-response","453","222774","0.0-453.0","","","","","439","img/land4.png","74","440","1","1","1","1","1,0.5,0.5,0.5,1,0.5,0.5,0.5,1","1,0.5,0.5,0.5,1,0.5,0.5,0.5,1","","",""
"","html-keyboard-response","454","223084","0.0-454.0","","","","","null","<img src=""img/land4.png"" style=""width:200px; border:14px solid green;"">","null","","","","","","","","","",""
"","image-keyboard-response","455","223599","0.0-455.0","","","","","514","img/land4.png","74","514","1","1","1","1","1,0.5,0.5,0.5,1,0.5,0.5,0.5,1","1,0.5,0.5,0.5,1,0.5,0.5,0.5,1","","",""
"","html-keyboard-response","456","223908","0.0-456.0","","","","","null","<img src=""img/land4.png"" style=""width:200px; border:14px solid green;"">","null","","","","","","","","","",""
"","image-keyboard-response","457","224424","0.0-457.0","","","","","514","img/land5.png","75","515","2","1","2","1","1,0.5,0.5,0.5,1,0.5,0.5,0.5,1","1,0.5,0.5,0.5,1,0.5,0.5,0.5,1","","",""
"","html-keyboard-response","458","224742","0.0-458.0","","","","","null","<img src=""img/land5.png"" style=""width:200px; border:14px solid green;"">","null","","","","","","","","","",""
"","image-keyboard-response","459","225208","0.0-459.0","","","","","464","img/land4.png","74","466","1","1","1","1","1,0.5,0.5,0.5,1,0.5,0.5,0.5,1","1,0.5,0.5,0.5,1,0.5,0.5,0.5,1","","",""
"","html-keyboard-response","460","225513","0.0-460.0","","","","","null","<img src=""img/land4.png"" style=""width:200px; border:14px solid green;"">","null","","","","","","","","","",""
"","image-keyboard-response","461","225920","0.0-461.0","","","","","406","img/land4.png","74","408","1","1","1","1","1,0.5,0.5,0.5,1,0.5,0.5,0.5,1","1,0.5,0.5,0.5,1,0.5,0.5,0.5,1","","",""
"","html-keyboard-response","462","226230","0.0-462.0","","","","","null","<img src=""img/land4.png"" style=""width:200px; border:14px solid green;"">","null","","","","","","","","","",""
"","image-keyboard-response","463","226776","0.0-463.0","","","","","544","img/land6.png","76","544","3","1","3","1","1,0.5,0.5,0.5,1,0.5,0.5,0.5,1","1,0.5,0.5,0.5,1,0.5,0.5,0.5,1","","",""
"","html-keyboard-response","464","227080","0.0-464.0","","","","","null","<img src=""img/land6.png"" style=""width:200px; border:14px solid green;"">","null","","","","","","","","","",""
"","image-keyboard-response","465","227528","0.0-465.0","","","","","444","img/land5.png","74","446","1","1","2","1","1,0.5,0.5,0.5,1,0.5,0.5,0.5,1","1,0.5,0.5,0.5,1,0.5,0.5,0.5,1","","",""
"","html-keyboard-response","466","227836","0.0-466.0","","","","","null","<img src=""img/land5.png"" style=""width:200px; border:14px solid green;"">","null","","","","","","","","","",""
"","image-keyboard-response","467","228464","0.0-467.0","","","","","627","img/land5.png","74","628","1","1","2","1","1,0.5,0.5,0.5,1,0.5,0.5,0.5,1","1,0.5,0.5,0.5,1,0.5,0.5,0.5,1","","",""
"","html-keyboard-response","468","228769","0.0-468.0","","","","","null","<img src=""img/land5.png"" style=""width:200px; border:14px solid green;"">","null","","","","","","","","","",""
"","image-keyboard-response","469","229440","0.0-469.0","","","","","669","img/land4.png","74","670","1","1","1","1","1,0.5,0.5,0.5,1,0.5,0.5,0.5,1","1,0.5,0.5,0.5,1,0.5,0.5,0.5,1","","",""
"","html-keyboard-response","470","229756","0.0-470.0","","","","","null","<img src=""img/land4.png"" style=""width:200px; border:14px solid green;"">","null","","","","","","","","","",""
"","image-keyboard-response","471","230176","0.0-471.0","","","","","417","img/land4.png","74","418","1","1","1","1","1,0.5,0.5,0.5,1,0.5,0.5,0.5,1","1,0.5,0.5,0.5,1,0.5,0.5,0.5,1","","",""
"","html-keyboard-response","472","230489","0.0-472.0","","","","","null","<img src=""img/land4.png"" style=""width:200px; border:14px solid green;"">","null","","","","","","","","","",""
"","image-keyboard-response","473","231080","0.0-473.0","","","","","587","img/land6.png","76","589","3","1","3","1","1,0.5,0.5,0.5,1,0.5,0.5,0.5,1","1,0.5,0.5,0.5,1,0.5,0.5,0.5,1","","",""
"","html-keyboard-response","474","231392","0.0-474.0","","","","","null","<img src=""img/land6.png"" style=""width:200px; border:14px solid green;"">","null","","","","","","","","","",""
"","image-keyboard-response","475","231776","0.0-475.0","","","","","382","img/land6.png","76","384","3","1","3","1","1,0.5,0.5,0.5,1,0.5,0.5,0.5,1","1,0.5,0.5,0.5,1,0.5,0.5,0.5,1","","",""
"","html-keyboard-response","476","232079","0.0-476.0","","","","","null","<img src=""img/land6.png"" style=""width:200px; border:14px solid green;"">","null","","","","","","","","","",""
"","image-keyboard-response","477","232535","0.0-477.0","","","","","454","img/land4.png","74","456","1","1","1","1","1,0.5,0.5,0.5,1,0.5,0.5,0.5,1","1,0.5,0.5,0.5,1,0.5,0.5,0.5,1","","",""
"","html-keyboard-response","478","232850","0.0-478.0","","","","","null","<img src=""img/land4.png"" style=""width:200px; border:14px solid green;"">","null","","","","","","","","","",""
"","image-keyboard-response","479","233487","0.0-479.0","","","","","637","img/land6.png","76","638","3","1","3","1","1,0.5,0.5,0.5,1,0.5,0.5,0.5,1","1,0.5,0.5,0.5,1,0.5,0.5,0.5,1","","",""
"","html-keyboard-response","480","233802","0.0-480.0","","","","","null","<img src=""img/land6.png"" style=""width:200px; border:14px solid green;"">","null","","","","","","","","","",""
"","image-keyboard-response","481","234247","0.0-481.0","","","","","444","img/land5.png","75","445","2","1","2","1","1,0.5,0.5,0.5,1,0.5,0.5,0.5,1","1,0.5,0.5,0.5,1,0.5,0.5,0.5,1","","",""
"","html-keyboard-response","482","234556","0.0-482.0","","","","","null","<img src=""img/land5.png"" style=""width:200px; border:14px solid green;"">","null","","","","","","","","","",""
"","instructions","483","238608","0.0-483.0","","","","[{""page_index"":0,""viewing_time"":4051}]","4051","","","","","","","","","","","",""
"","survey-text","484","241324","0.0-484.0-0.0","","","","","2709","","","","","","","","","","","{""Q0"":""36""}",""
"","survey-multi-choice","485","243360","0.0-484.0-1.0","","","","","2033","","","","","","","","","","","{""gender"":""F""}","[0]"
"","survey-text","486","271129","0.0-485.0","","","","","27765","","","","","","","","","","","{""Q0"":""AO9VHGJ8RGOZJ""}",""
