"success","trial_type","trial_index","time_elapsed","internal_node_id","assignmentID","mturkID","hitID","view_history","rt","stimulus","key_press","reactionTime","a","r","s","cond","reward_cond","reward_cond_actual","reward_matrix_idx","responses","question_order"
"true","fullscreen","0","3682","0.0-0.0","32M8BPYGAU8JWQ9CG7IRGOCNWZ7GIT","AOS2PVHT2HYTL","3JUDR1D0D6D4CARU3YX9Y3DK5DJ2QK","","","","","","","","","","","","","",""
"","instructions","1","36774","0.0-1.0","32M8BPYGAU8JWQ9CG7IRGOCNWZ7GIT","AOS2PVHT2HYTL","3JUDR1D0D6D4CARU3YX9Y3DK5DJ2QK","[{""page_index"":0,""viewing_time"":3699.7999999523163},{""page_index"":1,""viewing_time"":3457.2000000476837},{""page_index"":2,""viewing_time"":3611},{""page_index"":3,""viewing_time"":5577.099999904633},{""page_index"":4,""viewing_time"":4551.800000190735},{""page_index"":5,""viewing_time"":3347.199999809265},{""page_index"":6,""viewing_time"":8841.600000143051}]","33086.700000047684","","","","","","","","","","","",""
"","image-keyboard-response","2","37995","0.0-2.0","32M8BPYGAU8JWQ9CG7IRGOCNWZ7GIT","AOS2PVHT2HYTL","3JUDR1D0D6D4CARU3YX9Y3DK5DJ2QK","","1214.7000000476837","img/land5.png","74","1220.6000001430511","1","0","2","1","0.8,0.2,0.2,0.2,0.8,0.2,0.2,0.2,0.8","0.8,0.2,0.2,0.2,0.8,0.2,0.2,0.2,0.8","1","",""
"","html-keyboard-response","3","38302","0.0-3.0","32M8BPYGAU8JWQ9CG7IRGOCNWZ7GIT","AOS2PVHT2HYTL","3JUDR1D0D6D4CARU3YX9Y3DK5DJ2QK","","null","<img src=""img/land5.png"" style=""width:200px;border:14px solid red;"">","null","","","","","","","","","",""
"","image-keyboard-response","4","39276","0.0-4.0","32M8BPYGAU8JWQ9CG7IRGOCNWZ7GIT","AOS2PVHT2HYTL","3JUDR1D0D6D4CARU3YX9Y3DK5DJ2QK","","970.9000000953674","img/land5.png","75","973.9000000953674","2","1","2","1","0.8,0.2,0.2,0.2,0.8,0.2,0.2,0.2,0.8","0.8,0.2,0.2,0.2,0.8,0.2,0.2,0.2,0.8","1","",""
"","html-keyboard-response","5","39581","0.0-5.0","32M8BPYGAU8JWQ9CG7IRGOCNWZ7GIT","AOS2PVHT2HYTL","3JUDR1D0D6D4CARU3YX9Y3DK5DJ2QK","","null","<img src=""img/land5.png"" style=""width:200px; border:14px solid green;"">","null","","","","","","","","","",""
"","image-keyboard-response","6","40655","0.0-6.0","32M8BPYGAU8JWQ9CG7IRGOCNWZ7GIT","AOS2PVHT2HYTL","3JUDR1D0D6D4CARU3YX9Y3DK5DJ2QK","","1072.1000001430511","img/land4.png","76","1074.5","3","1","3","1","0.8,0.2,0.2,0.2,0.8,0.2,0.2,0.2,0.8","0.8,0.2,0.2,0.2,0.8,0.2,0.2,0.2,0.8","1","",""
"","html-keyboard-response","7","40960","0.0-7.0","32M8BPYGAU8JWQ9CG7IRGOCNWZ7GIT","AOS2PVHT2HYTL","3JUDR1D0D6D4CARU3YX9Y3DK5DJ2QK","","null","<img src=""img/land4.png"" style=""width:200px; border:14px solid green;"">","null","","","","","","","","","",""
"","image-keyboard-response","8","41606","0.0-8.0","32M8BPYGAU8JWQ9CG7IRGOCNWZ7GIT","AOS2PVHT2HYTL","3JUDR1D0D6D4CARU3YX9Y3DK5DJ2QK","","642.4000000953674","img/land4.png","76","645.3999998569489","3","1","3","1","0.8,0.2,0.2,0.2,0.8,0.2,0.2,0.2,0.8","0.8,0.2,0.2,0.2,0.8,0.2,0.2,0.2,0.8","1","",""
"","html-keyboard-response","9","41924","0.0-9.0","32M8BPYGAU8JWQ9CG7IRGOCNWZ7GIT","AOS2PVHT2HYTL","3JUDR1D0D6D4CARU3YX9Y3DK5DJ2QK","","null","<img src=""img/land4.png"" style=""width:200px; border:14px solid green;"">","null","","","","","","","","","",""
"","image-keyboard-response","10","42379","0.0-10.0","32M8BPYGAU8JWQ9CG7IRGOCNWZ7GIT","AOS2PVHT2HYTL","3JUDR1D0D6D4CARU3YX9Y3DK5DJ2QK","","451.59999990463257","img/land4.png","76","454.60000014305115","3","1","3","1","0.8,0.2,0.2,0.2,0.8,0.2,0.2,0.2,0.8","0.8,0.2,0.2,0.2,0.8,0.2,0.2,0.2,0.8","1","",""
"","html-keyboard-response","11","42683","0.0-11.0","32M8BPYGAU8JWQ9CG7IRGOCNWZ7GIT","AOS2PVHT2HYTL","3JUDR1D0D6D4CARU3YX9Y3DK5DJ2QK","","null","<img src=""img/land4.png"" style=""width:200px; border:14px solid green;"">","null","","","","","","","","","",""
"","image-keyboard-response","12","43834","0.0-12.0","32M8BPYGAU8JWQ9CG7IRGOCNWZ7GIT","AOS2PVHT2HYTL","3JUDR1D0D6D4CARU3YX9Y3DK5DJ2QK","","1147.9000000953674","img/land5.png","74","1150.4000000953674","1","0","2","1","0.8,0.2,0.2,0.2,0.8,0.2,0.2,0.2,0.8","0.8,0.2,0.2,0.2,0.8,0.2,0.2,0.2,0.8","1","",""
"","html-keyboard-response","13","44137","0.0-13.0","32M8BPYGAU8JWQ9CG7IRGOCNWZ7GIT","AOS2PVHT2HYTL","3JUDR1D0D6D4CARU3YX9Y3DK5DJ2QK","","null","<img src=""img/land5.png"" style=""width:200px;border:14px solid red;"">","null","","","","","","","","","",""
"","image-keyboard-response","14","45326","0.0-14.0","32M8BPYGAU8JWQ9CG7IRGOCNWZ7GIT","AOS2PVHT2HYTL","3JUDR1D0D6D4CARU3YX9Y3DK5DJ2QK","","1186.5999999046326","img/land6.png","74","1188.3999998569489","1","1","1","1","0.8,0.2,0.2,0.2,0.8,0.2,0.2,0.2,0.8","0.8,0.2,0.2,0.2,0.8,0.2,0.2,0.2,0.8","1","",""
"","html-keyboard-response","15","45629","0.0-15.0","32M8BPYGAU8JWQ9CG7IRGOCNWZ7GIT","AOS2PVHT2HYTL","3JUDR1D0D6D4CARU3YX9Y3DK5DJ2QK","","null","<img src=""img/land6.png"" style=""width:200px; border:14px solid green;"">","null","","","","","","","","","",""
"","image-keyboard-response","16","47147","0.0-16.0","32M8BPYGAU8JWQ9CG7IRGOCNWZ7GIT","AOS2PVHT2HYTL","3JUDR1D0D6D4CARU3YX9Y3DK5DJ2QK","","1515.6000001430511","img/land4.png","76","1517.4000000953674","3","1","3","1","0.8,0.2,0.2,0.2,0.8,0.2,0.2,0.2,0.8","0.8,0.2,0.2,0.2,0.8,0.2,0.2,0.2,0.8","1","",""
"","html-keyboard-response","17","47452","0.0-17.0","32M8BPYGAU8JWQ9CG7IRGOCNWZ7GIT","AOS2PVHT2HYTL","3JUDR1D0D6D4CARU3YX9Y3DK5DJ2QK","","null","<img src=""img/land4.png"" style=""width:200px; border:14px solid green;"">","null","","","","","","","","","",""
"","image-keyboard-response","18","48116","0.0-18.0","32M8BPYGAU8JWQ9CG7IRGOCNWZ7GIT","AOS2PVHT2HYTL","3JUDR1D0D6D4CARU3YX9Y3DK5DJ2QK","","660.7000000476837","img/land4.png","76","663.7000000476837","3","0","3","1","0.8,0.2,0.2,0.2,0.8,0.2,0.2,0.2,0.8","0.8,0.2,0.2,0.2,0.8,0.2,0.2,0.2,0.8","1","",""
"","html-keyboard-response","19","48419","0.0-19.0","32M8BPYGAU8JWQ9CG7IRGOCNWZ7GIT","AOS2PVHT2HYTL","3JUDR1D0D6D4CARU3YX9Y3DK5DJ2QK","","null","<img src=""img/land4.png"" style=""width:200px;border:14px solid red;"">","null","","","","","","","","","",""
"","image-keyboard-response","20","49466","0.0-20.0","32M8BPYGAU8JWQ9CG7IRGOCNWZ7GIT","AOS2PVHT2HYTL","3JUDR1D0D6D4CARU3YX9Y3DK5DJ2QK","","1045.2999999523163","img/land6.png","75","1046.8000001907349","2","0","1","1","0.8,0.2,0.2,0.2,0.8,0.2,0.2,0.2,0.8","0.8,0.2,0.2,0.2,0.8,0.2,0.2,0.2,0.8","1","",""
"","html-keyboard-response","21","49771","0.0-21.0","32M8BPYGAU8JWQ9CG7IRGOCNWZ7GIT","AOS2PVHT2HYTL","3JUDR1D0D6D4CARU3YX9Y3DK5DJ2QK","","null","<img src=""img/land6.png"" style=""width:200px;border:14px solid red;"">","null","","","","","","","","","",""
"","image-keyboard-response","22","50652","0.0-22.0","32M8BPYGAU8JWQ9CG7IRGOCNWZ7GIT","AOS2PVHT2HYTL","3JUDR1D0D6D4CARU3YX9Y3DK5DJ2QK","","878.5999999046326","img/land4.png","76","880.7000000476837","3","1","3","1","0.8,0.2,0.2,0.2,0.8,0.2,0.2,0.2,0.8","0.8,0.2,0.2,0.2,0.8,0.2,0.2,0.2,0.8","1","",""
"","html-keyboard-response","23","50956","0.0-23.0","32M8BPYGAU8JWQ9CG7IRGOCNWZ7GIT","AOS2PVHT2HYTL","3JUDR1D0D6D4CARU3YX9Y3DK5DJ2QK","","null","<img src=""img/land4.png"" style=""width:200px; border:14px solid green;"">","null","","","","","","","","","",""
"","image-keyboard-response","24","51870","0.0-24.0","32M8BPYGAU8JWQ9CG7IRGOCNWZ7GIT","AOS2PVHT2HYTL","3JUDR1D0D6D4CARU3YX9Y3DK5DJ2QK","","910.5999999046326","img/land5.png","74","913.0999999046326","1","0","2","1","0.8,0.2,0.2,0.2,0.8,0.2,0.2,0.2,0.8","0.8,0.2,0.2,0.2,0.8,0.2,0.2,0.2,0.8","1","",""
"","html-keyboard-response","25","52173","0.0-25.0","32M8BPYGAU8JWQ9CG7IRGOCNWZ7GIT","AOS2PVHT2HYTL","3JUDR1D0D6D4CARU3YX9Y3DK5DJ2QK","","null","<img src=""img/land5.png"" style=""width:200px;border:14px solid red;"">","null","","","","","","","","","",""
"","image-keyboard-response","26","52765","0.0-26.0","32M8BPYGAU8JWQ9CG7IRGOCNWZ7GIT","AOS2PVHT2HYTL","3JUDR1D0D6D4CARU3YX9Y3DK5DJ2QK","","589.6000001430511","img/land5.png","74","591.5","1","0","2","1","0.8,0.2,0.2,0.2,0.8,0.2,0.2,0.2,0.8","0.8,0.2,0.2,0.2,0.8,0.2,0.2,0.2,0.8","1","",""
"","html-keyboard-response","27","53068","0.0-27.0","32M8BPYGAU8JWQ9CG7IRGOCNWZ7GIT","AOS2PVHT2HYTL","3JUDR1D0D6D4CARU3YX9Y3DK5DJ2QK","","null","<img src=""img/land5.png"" style=""width:200px;border:14px solid red;"">","null","","","","","","","","","",""
"","image-keyboard-response","28","53921","0.0-28.0","32M8BPYGAU8JWQ9CG7IRGOCNWZ7GIT","AOS2PVHT2HYTL","3JUDR1D0D6D4CARU3YX9Y3DK5DJ2QK","","850.7999999523163","img/land4.png","76","852.7000000476837","3","1","3","1","0.8,0.2,0.2,0.2,0.8,0.2,0.2,0.2,0.8","0.8,0.2,0.2,0.2,0.8,0.2,0.2,0.2,0.8","1","",""
"","html-keyboard-response","29","54224","0.0-29.0","32M8BPYGAU8JWQ9CG7IRGOCNWZ7GIT","AOS2PVHT2HYTL","3JUDR1D0D6D4CARU3YX9Y3DK5DJ2QK","","null","<img src=""img/land4.png"" style=""width:200px; border:14px solid green;"">","null","","","","","","","","","",""
"","image-keyboard-response","30","55562","0.0-30.0","32M8BPYGAU8JWQ9CG7IRGOCNWZ7GIT","AOS2PVHT2HYTL","3JUDR1D0D6D4CARU3YX9Y3DK5DJ2QK","","1336.3999998569489","img/land6.png","74","1338.0999999046326","1","1","1","1","0.8,0.2,0.2,0.2,0.8,0.2,0.2,0.2,0.8","0.8,0.2,0.2,0.2,0.8,0.2,0.2,0.2,0.8","1","",""
"","html-keyboard-response","31","55866","0.0-31.0","32M8BPYGAU8JWQ9CG7IRGOCNWZ7GIT","AOS2PVHT2HYTL","3JUDR1D0D6D4CARU3YX9Y3DK5DJ2QK","","null","<img src=""img/land6.png"" style=""width:200px; border:14px solid green;"">","null","","","","","","","","","",""
"","image-keyboard-response","32","56875","0.0-32.0","32M8BPYGAU8JWQ9CG7IRGOCNWZ7GIT","AOS2PVHT2HYTL","3JUDR1D0D6D4CARU3YX9Y3DK5DJ2QK","","1006.0999999046326","img/land4.png","76","1008.5","3","1","3","1","0.8,0.2,0.2,0.2,0.8,0.2,0.2,0.2,0.8","0.8,0.2,0.2,0.2,0.8,0.2,0.2,0.2,0.8","1","",""
"","html-keyboard-response","33","57178","0.0-33.0","32M8BPYGAU8JWQ9CG7IRGOCNWZ7GIT","AOS2PVHT2HYTL","3JUDR1D0D6D4CARU3YX9Y3DK5DJ2QK","","null","<img src=""img/land4.png"" style=""width:200px; border:14px solid green;"">","null","","","","","","","","","",""
"","image-keyboard-response","34","58322","0.0-34.0","32M8BPYGAU8JWQ9CG7IRGOCNWZ7GIT","AOS2PVHT2HYTL","3JUDR1D0D6D4CARU3YX9Y3DK5DJ2QK","","1141.2999999523163","img/land6.png","74","1143.0999999046326","1","1","1","1","0.8,0.2,0.2,0.2,0.8,0.2,0.2,0.2,0.8","0.8,0.2,0.2,0.2,0.8,0.2,0.2,0.2,0.8","1","",""
"","html-keyboard-response","35","58633","0.0-35.0","32M8BPYGAU8JWQ9CG7IRGOCNWZ7GIT","AOS2PVHT2HYTL","3JUDR1D0D6D4CARU3YX9Y3DK5DJ2QK","","null","<img src=""img/land6.png"" style=""width:200px; border:14px solid green;"">","null","","","","","","","","","",""
"","image-keyboard-response","36","59246","0.0-36.0","32M8BPYGAU8JWQ9CG7IRGOCNWZ7GIT","AOS2PVHT2HYTL","3JUDR1D0D6D4CARU3YX9Y3DK5DJ2QK","","610.6999998092651","img/land4.png","76","611.8999998569489","3","0","3","1","0.8,0.2,0.2,0.2,0.8,0.2,0.2,0.2,0.8","0.8,0.2,0.2,0.2,0.8,0.2,0.2,0.2,0.8","1","",""
"","html-keyboard-response","37","59548","0.0-37.0","32M8BPYGAU8JWQ9CG7IRGOCNWZ7GIT","AOS2PVHT2HYTL","3JUDR1D0D6D4CARU3YX9Y3DK5DJ2QK","","null","<img src=""img/land4.png"" style=""width:200px;border:14px solid red;"">","null","","","","","","","","","",""
"","image-keyboard-response","38","60211","0.0-38.0","32M8BPYGAU8JWQ9CG7IRGOCNWZ7GIT","AOS2PVHT2HYTL","3JUDR1D0D6D4CARU3YX9Y3DK5DJ2QK","","659.6000001430511","img/land4.png","76","662.2000000476837","3","0","3","1","0.8,0.2,0.2,0.2,0.8,0.2,0.2,0.2,0.8","0.8,0.2,0.2,0.2,0.8,0.2,0.2,0.2,0.8","1","",""
"","html-keyboard-response","39","60516","0.0-39.0","32M8BPYGAU8JWQ9CG7IRGOCNWZ7GIT","AOS2PVHT2HYTL","3JUDR1D0D6D4CARU3YX9Y3DK5DJ2QK","","null","<img src=""img/land4.png"" style=""width:200px;border:14px solid red;"">","null","","","","","","","","","",""
"","image-keyboard-response","40","61423","0.0-40.0","32M8BPYGAU8JWQ9CG7IRGOCNWZ7GIT","AOS2PVHT2HYTL","3JUDR1D0D6D4CARU3YX9Y3DK5DJ2QK","","905","img/land5.png","75","906.8999998569489","2","1","2","1","0.8,0.2,0.2,0.2,0.8,0.2,0.2,0.2,0.8","0.8,0.2,0.2,0.2,0.8,0.2,0.2,0.2,0.8","1","",""
"","html-keyboard-response","41","61726","0.0-41.0","32M8BPYGAU8JWQ9CG7IRGOCNWZ7GIT","AOS2PVHT2HYTL","3JUDR1D0D6D4CARU3YX9Y3DK5DJ2QK","","null","<img src=""img/land5.png"" style=""width:200px; border:14px solid green;"">","null","","","","","","","","","",""
"","image-keyboard-response","42","62866","0.0-42.0","32M8BPYGAU8JWQ9CG7IRGOCNWZ7GIT","AOS2PVHT2HYTL","3JUDR1D0D6D4CARU3YX9Y3DK5DJ2QK","","1136.2999999523163","img/land6.png","74","1138.9000000953674","1","1","1","1","0.8,0.2,0.2,0.2,0.8,0.2,0.2,0.2,0.8","0.8,0.2,0.2,0.2,0.8,0.2,0.2,0.2,0.8","1","",""
"","html-keyboard-response","43","63171","0.0-43.0","32M8BPYGAU8JWQ9CG7IRGOCNWZ7GIT","AOS2PVHT2HYTL","3JUDR1D0D6D4CARU3YX9Y3DK5DJ2QK","","null","<img src=""img/land6.png"" style=""width:200px; border:14px solid green;"">","null","","","","","","","","","",""
"","image-keyboard-response","44","64061","0.0-44.0","32M8BPYGAU8JWQ9CG7IRGOCNWZ7GIT","AOS2PVHT2HYTL","3JUDR1D0D6D4CARU3YX9Y3DK5DJ2QK","","887.2000000476837","img/land5.png","75","890.0999999046326","2","1","2","1","0.8,0.2,0.2,0.2,0.8,0.2,0.2,0.2,0.8","0.8,0.2,0.2,0.2,0.8,0.2,0.2,0.2,0.8","1","",""
"","html-keyboard-response","45","64366","0.0-45.0","32M8BPYGAU8JWQ9CG7IRGOCNWZ7GIT","AOS2PVHT2HYTL","3JUDR1D0D6D4CARU3YX9Y3DK5DJ2QK","","null","<img src=""img/land5.png"" style=""width:200px; border:14px solid green;"">","null","","","","","","","","","",""
"","image-keyboard-response","46","65059","0.0-46.0","32M8BPYGAU8JWQ9CG7IRGOCNWZ7GIT","AOS2PVHT2HYTL","3JUDR1D0D6D4CARU3YX9Y3DK5DJ2QK","","690.6000001430511","img/land6.png","74","693.0999999046326","1","1","1","1","0.8,0.2,0.2,0.2,0.8,0.2,0.2,0.2,0.8","0.8,0.2,0.2,0.2,0.8,0.2,0.2,0.2,0.8","1","",""
"","html-keyboard-response","47","65363","0.0-47.0","32M8BPYGAU8JWQ9CG7IRGOCNWZ7GIT","AOS2PVHT2HYTL","3JUDR1D0D6D4CARU3YX9Y3DK5DJ2QK","","null","<img src=""img/land6.png"" style=""width:200px; border:14px solid green;"">","null","","","","","","","","","",""
"","image-keyboard-response","48","66265","0.0-48.0","32M8BPYGAU8JWQ9CG7IRGOCNWZ7GIT","AOS2PVHT2HYTL","3JUDR1D0D6D4CARU3YX9Y3DK5DJ2QK","","899.5999999046326","img/land5.png","75","901.2999999523163","2","0","2","1","0.8,0.2,0.2,0.2,0.8,0.2,0.2,0.2,0.8","0.8,0.2,0.2,0.2,0.8,0.2,0.2,0.2,0.8","1","",""
"","html-keyboard-response","49","66569","0.0-49.0","32M8BPYGAU8JWQ9CG7IRGOCNWZ7GIT","AOS2PVHT2HYTL","3JUDR1D0D6D4CARU3YX9Y3DK5DJ2QK","","null","<img src=""img/land5.png"" style=""width:200px;border:14px solid red;"">","null","","","","","","","","","",""
"","image-keyboard-response","50","67628","0.0-50.0","32M8BPYGAU8JWQ9CG7IRGOCNWZ7GIT","AOS2PVHT2HYTL","3JUDR1D0D6D4CARU3YX9Y3DK5DJ2QK","","1056.4000000953674","img/land6.png","74","1058.9000000953674","1","1","1","1","0.8,0.2,0.2,0.2,0.8,0.2,0.2,0.2,0.8","0.8,0.2,0.2,0.2,0.8,0.2,0.2,0.2,0.8","1","",""
"","html-keyboard-response","51","67932","0.0-51.0","32M8BPYGAU8JWQ9CG7IRGOCNWZ7GIT","AOS2PVHT2HYTL","3JUDR1D0D6D4CARU3YX9Y3DK5DJ2QK","","null","<img src=""img/land6.png"" style=""width:200px; border:14px solid green;"">","null","","","","","","","","","",""
"","image-keyboard-response","52","68946","0.0-52.0","32M8BPYGAU8JWQ9CG7IRGOCNWZ7GIT","AOS2PVHT2HYTL","3JUDR1D0D6D4CARU3YX9Y3DK5DJ2QK","","1010.4000000953674","img/land5.png","75","1013.1000001430511","2","1","2","1","0.8,0.2,0.2,0.2,0.8,0.2,0.2,0.2,0.8","0.8,0.2,0.2,0.2,0.8,0.2,0.2,0.2,0.8","1","",""
"","html-keyboard-response","53","69281","0.0-53.0","32M8BPYGAU8JWQ9CG7IRGOCNWZ7GIT","AOS2PVHT2HYTL","3JUDR1D0D6D4CARU3YX9Y3DK5DJ2QK","","null","<img src=""img/land5.png"" style=""width:200px; border:14px solid green;"">","null","","","","","","","","","",""
"","image-keyboard-response","54","70131","0.0-54.0","32M8BPYGAU8JWQ9CG7IRGOCNWZ7GIT","AOS2PVHT2HYTL","3JUDR1D0D6D4CARU3YX9Y3DK5DJ2QK","","846.5","img/land6.png","74","850.2999999523163","1","1","1","1","0.8,0.2,0.2,0.2,0.8,0.2,0.2,0.2,0.8","0.8,0.2,0.2,0.2,0.8,0.2,0.2,0.2,0.8","1","",""
"","html-keyboard-response","55","70435","0.0-55.0","32M8BPYGAU8JWQ9CG7IRGOCNWZ7GIT","AOS2PVHT2HYTL","3JUDR1D0D6D4CARU3YX9Y3DK5DJ2QK","","null","<img src=""img/land6.png"" style=""width:200px; border:14px solid green;"">","null","","","","","","","","","",""
"","image-keyboard-response","56","71158","0.0-56.0","32M8BPYGAU8JWQ9CG7IRGOCNWZ7GIT","AOS2PVHT2HYTL","3JUDR1D0D6D4CARU3YX9Y3DK5DJ2QK","","720.7000000476837","img/land5.png","75","722.7000000476837","2","0","2","1","0.8,0.2,0.2,0.2,0.8,0.2,0.2,0.2,0.8","0.8,0.2,0.2,0.2,0.8,0.2,0.2,0.2,0.8","1","",""
"","html-keyboard-response","57","71534","0.0-57.0","32M8BPYGAU8JWQ9CG7IRGOCNWZ7GIT","AOS2PVHT2HYTL","3JUDR1D0D6D4CARU3YX9Y3DK5DJ2QK","","null","<img src=""img/land5.png"" style=""width:200px;border:14px solid red;"">","null","","","","","","","","","",""
"","image-keyboard-response","58","72240","0.0-58.0","32M8BPYGAU8JWQ9CG7IRGOCNWZ7GIT","AOS2PVHT2HYTL","3JUDR1D0D6D4CARU3YX9Y3DK5DJ2QK","","703.9000000953674","img/land6.png","75","705.7999999523163","2","0","1","1","0.8,0.2,0.2,0.2,0.8,0.2,0.2,0.2,0.8","0.8,0.2,0.2,0.2,0.8,0.2,0.2,0.2,0.8","1","",""
"","html-keyboard-response","59","72544","0.0-59.0","32M8BPYGAU8JWQ9CG7IRGOCNWZ7GIT","AOS2PVHT2HYTL","3JUDR1D0D6D4CARU3YX9Y3DK5DJ2QK","","null","<img src=""img/land6.png"" style=""width:200px;border:14px solid red;"">","null","","","","","","","","","",""
"","image-keyboard-response","60","73503","0.0-60.0","32M8BPYGAU8JWQ9CG7IRGOCNWZ7GIT","AOS2PVHT2HYTL","3JUDR1D0D6D4CARU3YX9Y3DK5DJ2QK","","954.9000000953674","img/land4.png","76","957.7000000476837","3","1","3","1","0.8,0.2,0.2,0.2,0.8,0.2,0.2,0.2,0.8","0.8,0.2,0.2,0.2,0.8,0.2,0.2,0.2,0.8","1","",""
"","html-keyboard-response","61","73805","0.0-61.0","32M8BPYGAU8JWQ9CG7IRGOCNWZ7GIT","AOS2PVHT2HYTL","3JUDR1D0D6D4CARU3YX9Y3DK5DJ2QK","","null","<img src=""img/land4.png"" style=""width:200px; border:14px solid green;"">","null","","","","","","","","","",""
"","image-keyboard-response","62","74333","0.0-62.0","32M8BPYGAU8JWQ9CG7IRGOCNWZ7GIT","AOS2PVHT2HYTL","3JUDR1D0D6D4CARU3YX9Y3DK5DJ2QK","","525.5","img/land4.png","76","527.2000000476837","3","1","3","1","0.8,0.2,0.2,0.2,0.8,0.2,0.2,0.2,0.8","0.8,0.2,0.2,0.2,0.8,0.2,0.2,0.2,0.8","1","",""
"","html-keyboard-response","63","74637","0.0-63.0","32M8BPYGAU8JWQ9CG7IRGOCNWZ7GIT","AOS2PVHT2HYTL","3JUDR1D0D6D4CARU3YX9Y3DK5DJ2QK","","null","<img src=""img/land4.png"" style=""width:200px; border:14px solid green;"">","null","","","","","","","","","",""
"","image-keyboard-response","64","75738","0.0-64.0","32M8BPYGAU8JWQ9CG7IRGOCNWZ7GIT","AOS2PVHT2HYTL","3JUDR1D0D6D4CARU3YX9Y3DK5DJ2QK","","1098","img/land6.png","74","1100.5999999046326","1","1","1","1","0.8,0.2,0.2,0.2,0.8,0.2,0.2,0.2,0.8","0.8,0.2,0.2,0.2,0.8,0.2,0.2,0.2,0.8","1","",""
"","html-keyboard-response","65","76045","0.0-65.0","32M8BPYGAU8JWQ9CG7IRGOCNWZ7GIT","AOS2PVHT2HYTL","3JUDR1D0D6D4CARU3YX9Y3DK5DJ2QK","","null","<img src=""img/land6.png"" style=""width:200px; border:14px solid green;"">","null","","","","","","","","","",""
"","image-keyboard-response","66","76959","0.0-66.0","32M8BPYGAU8JWQ9CG7IRGOCNWZ7GIT","AOS2PVHT2HYTL","3JUDR1D0D6D4CARU3YX9Y3DK5DJ2QK","","908.1000001430511","img/land4.png","76","911.7999999523163","3","1","3","1","0.8,0.2,0.2,0.2,0.8,0.2,0.2,0.2,0.8","0.8,0.2,0.2,0.2,0.8,0.2,0.2,0.2,0.8","1","",""
"","html-keyboard-response","67","77267","0.0-67.0","32M8BPYGAU8JWQ9CG7IRGOCNWZ7GIT","AOS2PVHT2HYTL","3JUDR1D0D6D4CARU3YX9Y3DK5DJ2QK","","null","<img src=""img/land4.png"" style=""width:200px; border:14px solid green;"">","null","","","","","","","","","",""
"","image-keyboard-response","68","78158","0.0-68.0","32M8BPYGAU8JWQ9CG7IRGOCNWZ7GIT","AOS2PVHT2HYTL","3JUDR1D0D6D4CARU3YX9Y3DK5DJ2QK","","884.2000000476837","img/land6.png","74","890.4000000953674","1","1","1","1","0.8,0.2,0.2,0.2,0.8,0.2,0.2,0.2,0.8","0.8,0.2,0.2,0.2,0.8,0.2,0.2,0.2,0.8","1","",""
"","html-keyboard-response","69","78462","0.0-69.0","32M8BPYGAU8JWQ9CG7IRGOCNWZ7GIT","AOS2PVHT2HYTL","3JUDR1D0D6D4CARU3YX9Y3DK5DJ2QK","","null","<img src=""img/land6.png"" style=""width:200px; border:14px solid green;"">","null","","","","","","","","","",""
"","image-keyboard-response","70","79210","0.0-70.0","32M8BPYGAU8JWQ9CG7IRGOCNWZ7GIT","AOS2PVHT2HYTL","3JUDR1D0D6D4CARU3YX9Y3DK5DJ2QK","","746","img/land6.png","74","748.2000000476837","1","1","1","1","0.8,0.2,0.2,0.2,0.8,0.2,0.2,0.2,0.8","0.8,0.2,0.2,0.2,0.8,0.2,0.2,0.2,0.8","1","",""
"","html-keyboard-response","71","79514","0.0-71.0","32M8BPYGAU8JWQ9CG7IRGOCNWZ7GIT","AOS2PVHT2HYTL","3JUDR1D0D6D4CARU3YX9Y3DK5DJ2QK","","null","<img src=""img/land6.png"" style=""width:200px; border:14px solid green;"">","null","","","","","","","","","",""
"","image-keyboard-response","72","80018","0.0-72.0","32M8BPYGAU8JWQ9CG7IRGOCNWZ7GIT","AOS2PVHT2HYTL","3JUDR1D0D6D4CARU3YX9Y3DK5DJ2QK","","502.10000014305115","img/land6.png","74","504.30000019073486","1","1","1","1","0.8,0.2,0.2,0.2,0.8,0.2,0.2,0.2,0.8","0.8,0.2,0.2,0.2,0.8,0.2,0.2,0.2,0.8","1","",""
"","html-keyboard-response","73","80322","0.0-73.0","32M8BPYGAU8JWQ9CG7IRGOCNWZ7GIT","AOS2PVHT2HYTL","3JUDR1D0D6D4CARU3YX9Y3DK5DJ2QK","","null","<img src=""img/land6.png"" style=""width:200px; border:14px solid green;"">","null","","","","","","","","","",""
"","image-keyboard-response","74","81160","0.0-74.0","32M8BPYGAU8JWQ9CG7IRGOCNWZ7GIT","AOS2PVHT2HYTL","3JUDR1D0D6D4CARU3YX9Y3DK5DJ2QK","","835.1999998092651","img/land4.png","76","837.3999998569489","3","1","3","1","0.8,0.2,0.2,0.2,0.8,0.2,0.2,0.2,0.8","0.8,0.2,0.2,0.2,0.8,0.2,0.2,0.2,0.8","1","",""
"","html-keyboard-response","75","81463","0.0-75.0","32M8BPYGAU8JWQ9CG7IRGOCNWZ7GIT","AOS2PVHT2HYTL","3JUDR1D0D6D4CARU3YX9Y3DK5DJ2QK","","null","<img src=""img/land4.png"" style=""width:200px; border:14px solid green;"">","null","","","","","","","","","",""
"","image-keyboard-response","76","82024","0.0-76.0","32M8BPYGAU8JWQ9CG7IRGOCNWZ7GIT","AOS2PVHT2HYTL","3JUDR1D0D6D4CARU3YX9Y3DK5DJ2QK","","557.6999998092651","img/land4.png","76","560.3999998569489","3","1","3","1","0.8,0.2,0.2,0.2,0.8,0.2,0.2,0.2,0.8","0.8,0.2,0.2,0.2,0.8,0.2,0.2,0.2,0.8","1","",""
"","html-keyboard-response","77","82328","0.0-77.0","32M8BPYGAU8JWQ9CG7IRGOCNWZ7GIT","AOS2PVHT2HYTL","3JUDR1D0D6D4CARU3YX9Y3DK5DJ2QK","","null","<img src=""img/land4.png"" style=""width:200px; border:14px solid green;"">","null","","","","","","","","","",""
"","image-keyboard-response","78","83050","0.0-78.0","32M8BPYGAU8JWQ9CG7IRGOCNWZ7GIT","AOS2PVHT2HYTL","3JUDR1D0D6D4CARU3YX9Y3DK5DJ2QK","","719.5","img/land5.png","75","723.0999999046326","2","0","2","1","0.8,0.2,0.2,0.2,0.8,0.2,0.2,0.2,0.8","0.8,0.2,0.2,0.2,0.8,0.2,0.2,0.2,0.8","1","",""
"","html-keyboard-response","79","83389","0.0-79.0","32M8BPYGAU8JWQ9CG7IRGOCNWZ7GIT","AOS2PVHT2HYTL","3JUDR1D0D6D4CARU3YX9Y3DK5DJ2QK","","null","<img src=""img/land5.png"" style=""width:200px;border:14px solid red;"">","null","","","","","","","","","",""
"","image-keyboard-response","80","84250","0.0-80.0","32M8BPYGAU8JWQ9CG7IRGOCNWZ7GIT","AOS2PVHT2HYTL","3JUDR1D0D6D4CARU3YX9Y3DK5DJ2QK","","858.5999999046326","img/land4.png","76","860.5","3","0","3","1","0.8,0.2,0.2,0.2,0.8,0.2,0.2,0.2,0.8","0.8,0.2,0.2,0.2,0.8,0.2,0.2,0.2,0.8","1","",""
"","html-keyboard-response","81","84554","0.0-81.0","32M8BPYGAU8JWQ9CG7IRGOCNWZ7GIT","AOS2PVHT2HYTL","3JUDR1D0D6D4CARU3YX9Y3DK5DJ2QK","","null","<img src=""img/land4.png"" style=""width:200px;border:14px solid red;"">","null","","","","","","","","","",""
"","image-keyboard-response","82","85191","0.0-82.0","32M8BPYGAU8JWQ9CG7IRGOCNWZ7GIT","AOS2PVHT2HYTL","3JUDR1D0D6D4CARU3YX9Y3DK5DJ2QK","","634.6000001430511","img/land4.png","76","637.0999999046326","3","1","3","1","0.8,0.2,0.2,0.2,0.8,0.2,0.2,0.2,0.8","0.8,0.2,0.2,0.2,0.8,0.2,0.2,0.2,0.8","1","",""
"","html-keyboard-response","83","85497","0.0-83.0","32M8BPYGAU8JWQ9CG7IRGOCNWZ7GIT","AOS2PVHT2HYTL","3JUDR1D0D6D4CARU3YX9Y3DK5DJ2QK","","null","<img src=""img/land4.png"" style=""width:200px; border:14px solid green;"">","null","","","","","","","","","",""
"","image-keyboard-response","84","86459","0.0-84.0","32M8BPYGAU8JWQ9CG7IRGOCNWZ7GIT","AOS2PVHT2HYTL","3JUDR1D0D6D4CARU3YX9Y3DK5DJ2QK","","959.5999999046326","img/land6.png","74","961.4000000953674","1","1","1","1","0.8,0.2,0.2,0.2,0.8,0.2,0.2,0.2,0.8","0.8,0.2,0.2,0.2,0.8,0.2,0.2,0.2,0.8","1","",""
"","html-keyboard-response","85","86763","0.0-85.0","32M8BPYGAU8JWQ9CG7IRGOCNWZ7GIT","AOS2PVHT2HYTL","3JUDR1D0D6D4CARU3YX9Y3DK5DJ2QK","","null","<img src=""img/land6.png"" style=""width:200px; border:14px solid green;"">","null","","","","","","","","","",""
"","image-keyboard-response","86","87746","0.0-86.0","32M8BPYGAU8JWQ9CG7IRGOCNWZ7GIT","AOS2PVHT2HYTL","3JUDR1D0D6D4CARU3YX9Y3DK5DJ2QK","","980.5999999046326","img/land5.png","75","982.5","2","1","2","1","0.8,0.2,0.2,0.2,0.8,0.2,0.2,0.2,0.8","0.8,0.2,0.2,0.2,0.8,0.2,0.2,0.2,0.8","1","",""
"","html-keyboard-response","87","88049","0.0-87.0","32M8BPYGAU8JWQ9CG7IRGOCNWZ7GIT","AOS2PVHT2HYTL","3JUDR1D0D6D4CARU3YX9Y3DK5DJ2QK","","null","<img src=""img/land5.png"" style=""width:200px; border:14px solid green;"">","null","","","","","","","","","",""
"","image-keyboard-response","88","89038","0.0-88.0","32M8BPYGAU8JWQ9CG7IRGOCNWZ7GIT","AOS2PVHT2HYTL","3JUDR1D0D6D4CARU3YX9Y3DK5DJ2QK","","985.2999999523163","img/land6.png","74","988.1999998092651","1","0","1","1","0.8,0.2,0.2,0.2,0.8,0.2,0.2,0.2,0.8","0.8,0.2,0.2,0.2,0.8,0.2,0.2,0.2,0.8","1","",""
"","html-keyboard-response","89","89342","0.0-89.0","32M8BPYGAU8JWQ9CG7IRGOCNWZ7GIT","AOS2PVHT2HYTL","3JUDR1D0D6D4CARU3YX9Y3DK5DJ2QK","","null","<img src=""img/land6.png"" style=""width:200px;border:14px solid red;"">","null","","","","","","","","","",""
"","image-keyboard-response","90","90286","0.0-90.0","32M8BPYGAU8JWQ9CG7IRGOCNWZ7GIT","AOS2PVHT2HYTL","3JUDR1D0D6D4CARU3YX9Y3DK5DJ2QK","","941.7000000476837","img/land5.png","75","943.5","2","1","2","1","0.8,0.2,0.2,0.2,0.8,0.2,0.2,0.2,0.8","0.8,0.2,0.2,0.2,0.8,0.2,0.2,0.2,0.8","1","",""
"","html-keyboard-response","91","90589","0.0-91.0","32M8BPYGAU8JWQ9CG7IRGOCNWZ7GIT","AOS2PVHT2HYTL","3JUDR1D0D6D4CARU3YX9Y3DK5DJ2QK","","null","<img src=""img/land5.png"" style=""width:200px; border:14px solid green;"">","null","","","","","","","","","",""
"","image-keyboard-response","92","91427","0.0-92.0","32M8BPYGAU8JWQ9CG7IRGOCNWZ7GIT","AOS2PVHT2HYTL","3JUDR1D0D6D4CARU3YX9Y3DK5DJ2QK","","836.2999999523163","img/land6.png","74","837.5","1","0","1","1","0.8,0.2,0.2,0.2,0.8,0.2,0.2,0.2,0.8","0.8,0.2,0.2,0.2,0.8,0.2,0.2,0.2,0.8","1","",""
"","html-keyboard-response","93","91730","0.0-93.0","32M8BPYGAU8JWQ9CG7IRGOCNWZ7GIT","AOS2PVHT2HYTL","3JUDR1D0D6D4CARU3YX9Y3DK5DJ2QK","","null","<img src=""img/land6.png"" style=""width:200px;border:14px solid red;"">","null","","","","","","","","","",""
"","image-keyboard-response","94","92720","0.0-94.0","32M8BPYGAU8JWQ9CG7IRGOCNWZ7GIT","AOS2PVHT2HYTL","3JUDR1D0D6D4CARU3YX9Y3DK5DJ2QK","","987.3000001907349","img/land5.png","75","990.1999998092651","2","1","2","1","0.8,0.2,0.2,0.2,0.8,0.2,0.2,0.2,0.8","0.8,0.2,0.2,0.2,0.8,0.2,0.2,0.2,0.8","1","",""
"","html-keyboard-response","95","93025","0.0-95.0","32M8BPYGAU8JWQ9CG7IRGOCNWZ7GIT","AOS2PVHT2HYTL","3JUDR1D0D6D4CARU3YX9Y3DK5DJ2QK","","null","<img src=""img/land5.png"" style=""width:200px; border:14px solid green;"">","null","","","","","","","","","",""
"","image-keyboard-response","96","93974","0.0-96.0","32M8BPYGAU8JWQ9CG7IRGOCNWZ7GIT","AOS2PVHT2HYTL","3JUDR1D0D6D4CARU3YX9Y3DK5DJ2QK","","946.7999999523163","img/land4.png","76","949.3000001907349","3","1","3","1","0.8,0.2,0.2,0.2,0.8,0.2,0.2,0.2,0.8","0.8,0.2,0.2,0.2,0.8,0.2,0.2,0.2,0.8","1","",""
"","html-keyboard-response","97","94279","0.0-97.0","32M8BPYGAU8JWQ9CG7IRGOCNWZ7GIT","AOS2PVHT2HYTL","3JUDR1D0D6D4CARU3YX9Y3DK5DJ2QK","","null","<img src=""img/land4.png"" style=""width:200px; border:14px solid green;"">","null","","","","","","","","","",""
"","image-keyboard-response","98","95241","0.0-98.0","32M8BPYGAU8JWQ9CG7IRGOCNWZ7GIT","AOS2PVHT2HYTL","3JUDR1D0D6D4CARU3YX9Y3DK5DJ2QK","","960.2000000476837","img/land6.png","75","962","2","0","1","1","0.8,0.2,0.2,0.2,0.8,0.2,0.2,0.2,0.8","0.8,0.2,0.2,0.2,0.8,0.2,0.2,0.2,0.8","1","",""
"","html-keyboard-response","99","95543","0.0-99.0","32M8BPYGAU8JWQ9CG7IRGOCNWZ7GIT","AOS2PVHT2HYTL","3JUDR1D0D6D4CARU3YX9Y3DK5DJ2QK","","null","<img src=""img/land6.png"" style=""width:200px;border:14px solid red;"">","null","","","","","","","","","",""
"","image-keyboard-response","100","96487","0.0-100.0","32M8BPYGAU8JWQ9CG7IRGOCNWZ7GIT","AOS2PVHT2HYTL","3JUDR1D0D6D4CARU3YX9Y3DK5DJ2QK","","940.7999999523163","img/land6.png","74","943.2999999523163","1","1","1","1","0.8,0.2,0.2,0.2,0.8,0.2,0.2,0.2,0.8","0.8,0.2,0.2,0.2,0.8,0.2,0.2,0.2,0.8","1","",""
"","html-keyboard-response","101","96803","0.0-101.0","32M8BPYGAU8JWQ9CG7IRGOCNWZ7GIT","AOS2PVHT2HYTL","3JUDR1D0D6D4CARU3YX9Y3DK5DJ2QK","","null","<img src=""img/land6.png"" style=""width:200px; border:14px solid green;"">","null","","","","","","","","","",""
"","image-keyboard-response","102","97406","0.0-102.0","32M8BPYGAU8JWQ9CG7IRGOCNWZ7GIT","AOS2PVHT2HYTL","3JUDR1D0D6D4CARU3YX9Y3DK5DJ2QK","","601.2000000476837","img/land6.png","74","603.0999999046326","1","1","1","1","0.8,0.2,0.2,0.2,0.8,0.2,0.2,0.2,0.8","0.8,0.2,0.2,0.2,0.8,0.2,0.2,0.2,0.8","1","",""
"","html-keyboard-response","103","97709","0.0-103.0","32M8BPYGAU8JWQ9CG7IRGOCNWZ7GIT","AOS2PVHT2HYTL","3JUDR1D0D6D4CARU3YX9Y3DK5DJ2QK","","null","<img src=""img/land6.png"" style=""width:200px; border:14px solid green;"">","null","","","","","","","","","",""
"","image-keyboard-response","104","98627","0.0-104.0","32M8BPYGAU8JWQ9CG7IRGOCNWZ7GIT","AOS2PVHT2HYTL","3JUDR1D0D6D4CARU3YX9Y3DK5DJ2QK","","915.6999998092651","img/land4.png","76","917.7999999523163","3","1","3","1","0.8,0.2,0.2,0.2,0.8,0.2,0.2,0.2,0.8","0.8,0.2,0.2,0.2,0.8,0.2,0.2,0.2,0.8","1","",""
"","html-keyboard-response","105","98931","0.0-105.0","32M8BPYGAU8JWQ9CG7IRGOCNWZ7GIT","AOS2PVHT2HYTL","3JUDR1D0D6D4CARU3YX9Y3DK5DJ2QK","","null","<img src=""img/land4.png"" style=""width:200px; border:14px solid green;"">","null","","","","","","","","","",""
"","image-keyboard-response","106","99951","0.0-106.0","32M8BPYGAU8JWQ9CG7IRGOCNWZ7GIT","AOS2PVHT2HYTL","3JUDR1D0D6D4CARU3YX9Y3DK5DJ2QK","","1017.2999999523163","img/land5.png","75","1020","2","1","2","1","0.8,0.2,0.2,0.2,0.8,0.2,0.2,0.2,0.8","0.8,0.2,0.2,0.2,0.8,0.2,0.2,0.2,0.8","1","",""
"","html-keyboard-response","107","100256","0.0-107.0","32M8BPYGAU8JWQ9CG7IRGOCNWZ7GIT","AOS2PVHT2HYTL","3JUDR1D0D6D4CARU3YX9Y3DK5DJ2QK","","null","<img src=""img/land5.png"" style=""width:200px; border:14px solid green;"">","null","","","","","","","","","",""
"","image-keyboard-response","108","101104","0.0-108.0","32M8BPYGAU8JWQ9CG7IRGOCNWZ7GIT","AOS2PVHT2HYTL","3JUDR1D0D6D4CARU3YX9Y3DK5DJ2QK","","844.9000000953674","img/land6.png","74","847.6000001430511","1","1","1","1","0.8,0.2,0.2,0.2,0.8,0.2,0.2,0.2,0.8","0.8,0.2,0.2,0.2,0.8,0.2,0.2,0.2,0.8","1","",""
"","html-keyboard-response","109","101407","0.0-109.0","32M8BPYGAU8JWQ9CG7IRGOCNWZ7GIT","AOS2PVHT2HYTL","3JUDR1D0D6D4CARU3YX9Y3DK5DJ2QK","","null","<img src=""img/land6.png"" style=""width:200px; border:14px solid green;"">","null","","","","","","","","","",""
"","image-keyboard-response","110","102036","0.0-110.0","32M8BPYGAU8JWQ9CG7IRGOCNWZ7GIT","AOS2PVHT2HYTL","3JUDR1D0D6D4CARU3YX9Y3DK5DJ2QK","","627.5999999046326","img/land4.png","76","628.8999998569489","3","1","3","1","0.8,0.2,0.2,0.2,0.8,0.2,0.2,0.2,0.8","0.8,0.2,0.2,0.2,0.8,0.2,0.2,0.2,0.8","1","",""
"","html-keyboard-response","111","102339","0.0-111.0","32M8BPYGAU8JWQ9CG7IRGOCNWZ7GIT","AOS2PVHT2HYTL","3JUDR1D0D6D4CARU3YX9Y3DK5DJ2QK","","null","<img src=""img/land4.png"" style=""width:200px; border:14px solid green;"">","null","","","","","","","","","",""
"","image-keyboard-response","112","102959","0.0-112.0","32M8BPYGAU8JWQ9CG7IRGOCNWZ7GIT","AOS2PVHT2HYTL","3JUDR1D0D6D4CARU3YX9Y3DK5DJ2QK","","616.3999998569489","img/land4.png","76","619","3","1","3","1","0.8,0.2,0.2,0.2,0.8,0.2,0.2,0.2,0.8","0.8,0.2,0.2,0.2,0.8,0.2,0.2,0.2,0.8","1","",""
"","html-keyboard-response","113","103272","0.0-113.0","32M8BPYGAU8JWQ9CG7IRGOCNWZ7GIT","AOS2PVHT2HYTL","3JUDR1D0D6D4CARU3YX9Y3DK5DJ2QK","","null","<img src=""img/land4.png"" style=""width:200px; border:14px solid green;"">","null","","","","","","","","","",""
"","image-keyboard-response","114","104146","0.0-114.0","32M8BPYGAU8JWQ9CG7IRGOCNWZ7GIT","AOS2PVHT2HYTL","3JUDR1D0D6D4CARU3YX9Y3DK5DJ2QK","","869.1000001430511","img/land6.png","75","873.9000000953674","2","0","1","1","0.8,0.2,0.2,0.2,0.8,0.2,0.2,0.2,0.8","0.8,0.2,0.2,0.2,0.8,0.2,0.2,0.2,0.8","1","",""
"","html-keyboard-response","115","104450","0.0-115.0","32M8BPYGAU8JWQ9CG7IRGOCNWZ7GIT","AOS2PVHT2HYTL","3JUDR1D0D6D4CARU3YX9Y3DK5DJ2QK","","null","<img src=""img/land6.png"" style=""width:200px;border:14px solid red;"">","null","","","","","","","","","",""
"","image-keyboard-response","116","105120","0.0-116.0","32M8BPYGAU8JWQ9CG7IRGOCNWZ7GIT","AOS2PVHT2HYTL","3JUDR1D0D6D4CARU3YX9Y3DK5DJ2QK","","668.1999998092651","img/land6.png","74","669.8999998569489","1","1","1","1","0.8,0.2,0.2,0.2,0.8,0.2,0.2,0.2,0.8","0.8,0.2,0.2,0.2,0.8,0.2,0.2,0.2,0.8","1","",""
"","html-keyboard-response","117","105422","0.0-117.0","32M8BPYGAU8JWQ9CG7IRGOCNWZ7GIT","AOS2PVHT2HYTL","3JUDR1D0D6D4CARU3YX9Y3DK5DJ2QK","","null","<img src=""img/land6.png"" style=""width:200px; border:14px solid green;"">","null","","","","","","","","","",""
"","image-keyboard-response","118","106023","0.0-118.0","32M8BPYGAU8JWQ9CG7IRGOCNWZ7GIT","AOS2PVHT2HYTL","3JUDR1D0D6D4CARU3YX9Y3DK5DJ2QK","","598.7000000476837","img/land6.png","74","600.5","1","1","1","1","0.8,0.2,0.2,0.2,0.8,0.2,0.2,0.2,0.8","0.8,0.2,0.2,0.2,0.8,0.2,0.2,0.2,0.8","1","",""
"","html-keyboard-response","119","106326","0.0-119.0","32M8BPYGAU8JWQ9CG7IRGOCNWZ7GIT","AOS2PVHT2HYTL","3JUDR1D0D6D4CARU3YX9Y3DK5DJ2QK","","null","<img src=""img/land6.png"" style=""width:200px; border:14px solid green;"">","null","","","","","","","","","",""
"","image-keyboard-response","120","106894","0.0-120.0","32M8BPYGAU8JWQ9CG7IRGOCNWZ7GIT","AOS2PVHT2HYTL","3JUDR1D0D6D4CARU3YX9Y3DK5DJ2QK","","565.3999998569489","img/land6.png","74","567.3999998569489","1","1","1","1","0.8,0.2,0.2,0.2,0.8,0.2,0.2,0.2,0.8","0.8,0.2,0.2,0.2,0.8,0.2,0.2,0.2,0.8","1","",""
"","html-keyboard-response","121","107197","0.0-121.0","32M8BPYGAU8JWQ9CG7IRGOCNWZ7GIT","AOS2PVHT2HYTL","3JUDR1D0D6D4CARU3YX9Y3DK5DJ2QK","","null","<img src=""img/land6.png"" style=""width:200px; border:14px solid green;"">","null","","","","","","","","","",""
"","image-keyboard-response","122","108003","0.0-122.0","32M8BPYGAU8JWQ9CG7IRGOCNWZ7GIT","AOS2PVHT2HYTL","3JUDR1D0D6D4CARU3YX9Y3DK5DJ2QK","","804.5999999046326","img/land5.png","75","805.9000000953674","2","1","2","1","0.8,0.2,0.2,0.2,0.8,0.2,0.2,0.2,0.8","0.8,0.2,0.2,0.2,0.8,0.2,0.2,0.2,0.8","1","",""
"","html-keyboard-response","123","108306","0.0-123.0","32M8BPYGAU8JWQ9CG7IRGOCNWZ7GIT","AOS2PVHT2HYTL","3JUDR1D0D6D4CARU3YX9Y3DK5DJ2QK","","null","<img src=""img/land5.png"" style=""width:200px; border:14px solid green;"">","null","","","","","","","","","",""
"","image-keyboard-response","124","109097","0.0-124.0","32M8BPYGAU8JWQ9CG7IRGOCNWZ7GIT","AOS2PVHT2HYTL","3JUDR1D0D6D4CARU3YX9Y3DK5DJ2QK","","789.7000000476837","img/land6.png","74","790.9000000953674","1","1","1","1","0.8,0.2,0.2,0.2,0.8,0.2,0.2,0.2,0.8","0.8,0.2,0.2,0.2,0.8,0.2,0.2,0.2,0.8","1","",""
"","html-keyboard-response","125","109399","0.0-125.0","32M8BPYGAU8JWQ9CG7IRGOCNWZ7GIT","AOS2PVHT2HYTL","3JUDR1D0D6D4CARU3YX9Y3DK5DJ2QK","","null","<img src=""img/land6.png"" style=""width:200px; border:14px solid green;"">","null","","","","","","","","","",""
"","image-keyboard-response","126","110072","0.0-126.0","32M8BPYGAU8JWQ9CG7IRGOCNWZ7GIT","AOS2PVHT2HYTL","3JUDR1D0D6D4CARU3YX9Y3DK5DJ2QK","","671.0999999046326","img/land5.png","75","672.9000000953674","2","1","2","1","0.8,0.2,0.2,0.2,0.8,0.2,0.2,0.2,0.8","0.8,0.2,0.2,0.2,0.8,0.2,0.2,0.2,0.8","1","",""
"","html-keyboard-response","127","110383","0.0-127.0","32M8BPYGAU8JWQ9CG7IRGOCNWZ7GIT","AOS2PVHT2HYTL","3JUDR1D0D6D4CARU3YX9Y3DK5DJ2QK","","null","<img src=""img/land5.png"" style=""width:200px; border:14px solid green;"">","null","","","","","","","","","",""
"","image-keyboard-response","128","111069","0.0-128.0","32M8BPYGAU8JWQ9CG7IRGOCNWZ7GIT","AOS2PVHT2HYTL","3JUDR1D0D6D4CARU3YX9Y3DK5DJ2QK","","683.5999999046326","img/land4.png","76","685.7999999523163","3","1","3","1","0.8,0.2,0.2,0.2,0.8,0.2,0.2,0.2,0.8","0.8,0.2,0.2,0.2,0.8,0.2,0.2,0.2,0.8","1","",""
"","html-keyboard-response","129","111382","0.0-129.0","32M8BPYGAU8JWQ9CG7IRGOCNWZ7GIT","AOS2PVHT2HYTL","3JUDR1D0D6D4CARU3YX9Y3DK5DJ2QK","","null","<img src=""img/land4.png"" style=""width:200px; border:14px solid green;"">","null","","","","","","","","","",""
"","image-keyboard-response","130","112252","0.0-130.0","32M8BPYGAU8JWQ9CG7IRGOCNWZ7GIT","AOS2PVHT2HYTL","3JUDR1D0D6D4CARU3YX9Y3DK5DJ2QK","","866.7999999523163","img/land5.png","75","869.4000000953674","2","1","2","1","0.8,0.2,0.2,0.2,0.8,0.2,0.2,0.2,0.8","0.8,0.2,0.2,0.2,0.8,0.2,0.2,0.2,0.8","1","",""
"","html-keyboard-response","131","112556","0.0-131.0","32M8BPYGAU8JWQ9CG7IRGOCNWZ7GIT","AOS2PVHT2HYTL","3JUDR1D0D6D4CARU3YX9Y3DK5DJ2QK","","null","<img src=""img/land5.png"" style=""width:200px; border:14px solid green;"">","null","","","","","","","","","",""
"","image-keyboard-response","132","113336","0.0-132.0","32M8BPYGAU8JWQ9CG7IRGOCNWZ7GIT","AOS2PVHT2HYTL","3JUDR1D0D6D4CARU3YX9Y3DK5DJ2QK","","777.9000000953674","img/land4.png","76","780.4000000953674","3","1","3","1","0.8,0.2,0.2,0.2,0.8,0.2,0.2,0.2,0.8","0.8,0.2,0.2,0.2,0.8,0.2,0.2,0.2,0.8","1","",""
"","html-keyboard-response","133","113641","0.0-133.0","32M8BPYGAU8JWQ9CG7IRGOCNWZ7GIT","AOS2PVHT2HYTL","3JUDR1D0D6D4CARU3YX9Y3DK5DJ2QK","","null","<img src=""img/land4.png"" style=""width:200px; border:14px solid green;"">","null","","","","","","","","","",""
"","image-keyboard-response","134","114404","0.0-134.0","32M8BPYGAU8JWQ9CG7IRGOCNWZ7GIT","AOS2PVHT2HYTL","3JUDR1D0D6D4CARU3YX9Y3DK5DJ2QK","","759.5","img/land5.png","75","762.1000001430511","2","1","2","1","0.8,0.2,0.2,0.2,0.8,0.2,0.2,0.2,0.8","0.8,0.2,0.2,0.2,0.8,0.2,0.2,0.2,0.8","1","",""
"","html-keyboard-response","135","114707","0.0-135.0","32M8BPYGAU8JWQ9CG7IRGOCNWZ7GIT","AOS2PVHT2HYTL","3JUDR1D0D6D4CARU3YX9Y3DK5DJ2QK","","null","<img src=""img/land5.png"" style=""width:200px; border:14px solid green;"">","null","","","","","","","","","",""
"","image-keyboard-response","136","115566","0.0-136.0","32M8BPYGAU8JWQ9CG7IRGOCNWZ7GIT","AOS2PVHT2HYTL","3JUDR1D0D6D4CARU3YX9Y3DK5DJ2QK","","855.5999999046326","img/land5.png","76","858.0999999046326","3","0","2","1","0.8,0.2,0.2,0.2,0.8,0.2,0.2,0.2,0.8","0.8,0.2,0.2,0.2,0.8,0.2,0.2,0.2,0.8","1","",""
"","html-keyboard-response","137","115869","0.0-137.0","32M8BPYGAU8JWQ9CG7IRGOCNWZ7GIT","AOS2PVHT2HYTL","3JUDR1D0D6D4CARU3YX9Y3DK5DJ2QK","","null","<img src=""img/land5.png"" style=""width:200px;border:14px solid red;"">","null","","","","","","","","","",""
"","image-keyboard-response","138","116674","0.0-138.0","32M8BPYGAU8JWQ9CG7IRGOCNWZ7GIT","AOS2PVHT2HYTL","3JUDR1D0D6D4CARU3YX9Y3DK5DJ2QK","","801.2999999523163","img/land5.png","75","803.7999999523163","2","0","2","1","0.8,0.2,0.2,0.2,0.8,0.2,0.2,0.2,0.8","0.8,0.2,0.2,0.2,0.8,0.2,0.2,0.2,0.8","1","",""
"","html-keyboard-response","139","116978","0.0-139.0","32M8BPYGAU8JWQ9CG7IRGOCNWZ7GIT","AOS2PVHT2HYTL","3JUDR1D0D6D4CARU3YX9Y3DK5DJ2QK","","null","<img src=""img/land5.png"" style=""width:200px;border:14px solid red;"">","null","","","","","","","","","",""
"","image-keyboard-response","140","117931","0.0-140.0","32M8BPYGAU8JWQ9CG7IRGOCNWZ7GIT","AOS2PVHT2HYTL","3JUDR1D0D6D4CARU3YX9Y3DK5DJ2QK","","950.0999999046326","img/land5.png","75","952.5","2","0","2","1","0.8,0.2,0.2,0.2,0.8,0.2,0.2,0.2,0.8","0.8,0.2,0.2,0.2,0.8,0.2,0.2,0.2,0.8","1","",""
"","html-keyboard-response","141","118236","0.0-141.0","32M8BPYGAU8JWQ9CG7IRGOCNWZ7GIT","AOS2PVHT2HYTL","3JUDR1D0D6D4CARU3YX9Y3DK5DJ2QK","","null","<img src=""img/land5.png"" style=""width:200px;border:14px solid red;"">","null","","","","","","","","","",""
"","image-keyboard-response","142","118701","0.0-142.0","32M8BPYGAU8JWQ9CG7IRGOCNWZ7GIT","AOS2PVHT2HYTL","3JUDR1D0D6D4CARU3YX9Y3DK5DJ2QK","","462.09999990463257","img/land5.png","74","464.7000000476837","1","0","2","1","0.8,0.2,0.2,0.2,0.8,0.2,0.2,0.2,0.8","0.8,0.2,0.2,0.2,0.8,0.2,0.2,0.2,0.8","1","",""
"","html-keyboard-response","143","119006","0.0-143.0","32M8BPYGAU8JWQ9CG7IRGOCNWZ7GIT","AOS2PVHT2HYTL","3JUDR1D0D6D4CARU3YX9Y3DK5DJ2QK","","null","<img src=""img/land5.png"" style=""width:200px;border:14px solid red;"">","null","","","","","","","","","",""
"","image-keyboard-response","144","119571","0.0-144.0","32M8BPYGAU8JWQ9CG7IRGOCNWZ7GIT","AOS2PVHT2HYTL","3JUDR1D0D6D4CARU3YX9Y3DK5DJ2QK","","561.5","img/land5.png","75","564.9000000953674","2","1","2","1","0.8,0.2,0.2,0.2,0.8,0.2,0.2,0.2,0.8","0.8,0.2,0.2,0.2,0.8,0.2,0.2,0.2,0.8","1","",""
"","html-keyboard-response","145","119876","0.0-145.0","32M8BPYGAU8JWQ9CG7IRGOCNWZ7GIT","AOS2PVHT2HYTL","3JUDR1D0D6D4CARU3YX9Y3DK5DJ2QK","","null","<img src=""img/land5.png"" style=""width:200px; border:14px solid green;"">","null","","","","","","","","","",""
"","image-keyboard-response","146","120686","0.0-146.0","32M8BPYGAU8JWQ9CG7IRGOCNWZ7GIT","AOS2PVHT2HYTL","3JUDR1D0D6D4CARU3YX9Y3DK5DJ2QK","","807.2000000476837","img/land5.png","75","809.5999999046326","2","1","2","1","0.8,0.2,0.2,0.2,0.8,0.2,0.2,0.2,0.8","0.8,0.2,0.2,0.2,0.8,0.2,0.2,0.2,0.8","1","",""
"","html-keyboard-response","147","120989","0.0-147.0","32M8BPYGAU8JWQ9CG7IRGOCNWZ7GIT","AOS2PVHT2HYTL","3JUDR1D0D6D4CARU3YX9Y3DK5DJ2QK","","null","<img src=""img/land5.png"" style=""width:200px; border:14px solid green;"">","null","","","","","","","","","",""
"","image-keyboard-response","148","121892","0.0-148.0","32M8BPYGAU8JWQ9CG7IRGOCNWZ7GIT","AOS2PVHT2HYTL","3JUDR1D0D6D4CARU3YX9Y3DK5DJ2QK","","900.3999998569489","img/land6.png","74","902.2000000476837","1","1","1","1","0.8,0.2,0.2,0.2,0.8,0.2,0.2,0.2,0.8","0.8,0.2,0.2,0.2,0.8,0.2,0.2,0.2,0.8","1","",""
"","html-keyboard-response","149","122196","0.0-149.0","32M8BPYGAU8JWQ9CG7IRGOCNWZ7GIT","AOS2PVHT2HYTL","3JUDR1D0D6D4CARU3YX9Y3DK5DJ2QK","","null","<img src=""img/land6.png"" style=""width:200px; border:14px solid green;"">","null","","","","","","","","","",""
"","image-keyboard-response","150","122829","0.0-150.0","32M8BPYGAU8JWQ9CG7IRGOCNWZ7GIT","AOS2PVHT2HYTL","3JUDR1D0D6D4CARU3YX9Y3DK5DJ2QK","","630.5","img/land4.png","76","633","3","1","3","1","0.8,0.2,0.2,0.2,0.8,0.2,0.2,0.2,0.8","0.8,0.2,0.2,0.2,0.8,0.2,0.2,0.2,0.8","1","",""
"","html-keyboard-response","151","123134","0.0-151.0","32M8BPYGAU8JWQ9CG7IRGOCNWZ7GIT","AOS2PVHT2HYTL","3JUDR1D0D6D4CARU3YX9Y3DK5DJ2QK","","null","<img src=""img/land4.png"" style=""width:200px; border:14px solid green;"">","null","","","","","","","","","",""
"","image-keyboard-response","152","124246","0.0-152.0","32M8BPYGAU8JWQ9CG7IRGOCNWZ7GIT","AOS2PVHT2HYTL","3JUDR1D0D6D4CARU3YX9Y3DK5DJ2QK","","1108.6000001430511","img/land5.png","75","1111.1000001430511","2","0","2","1","0.8,0.2,0.2,0.2,0.8,0.2,0.2,0.2,0.8","0.8,0.2,0.2,0.2,0.8,0.2,0.2,0.2,0.8","1","",""
"","html-keyboard-response","153","124550","0.0-153.0","32M8BPYGAU8JWQ9CG7IRGOCNWZ7GIT","AOS2PVHT2HYTL","3JUDR1D0D6D4CARU3YX9Y3DK5DJ2QK","","null","<img src=""img/land5.png"" style=""width:200px;border:14px solid red;"">","null","","","","","","","","","",""
"","image-keyboard-response","154","125348","0.0-154.0","32M8BPYGAU8JWQ9CG7IRGOCNWZ7GIT","AOS2PVHT2HYTL","3JUDR1D0D6D4CARU3YX9Y3DK5DJ2QK","","797.2999999523163","img/land6.png","74","798.3999998569489","1","1","1","1","0.8,0.2,0.2,0.2,0.8,0.2,0.2,0.2,0.8","0.8,0.2,0.2,0.2,0.8,0.2,0.2,0.2,0.8","1","",""
"","html-keyboard-response","155","125651","0.0-155.0","32M8BPYGAU8JWQ9CG7IRGOCNWZ7GIT","AOS2PVHT2HYTL","3JUDR1D0D6D4CARU3YX9Y3DK5DJ2QK","","null","<img src=""img/land6.png"" style=""width:200px; border:14px solid green;"">","null","","","","","","","","","",""
"","image-keyboard-response","156","126154","0.0-156.0","32M8BPYGAU8JWQ9CG7IRGOCNWZ7GIT","AOS2PVHT2HYTL","3JUDR1D0D6D4CARU3YX9Y3DK5DJ2QK","","500.40000009536743","img/land6.png","74","503","1","1","1","1","0.8,0.2,0.2,0.2,0.8,0.2,0.2,0.2,0.8","0.8,0.2,0.2,0.2,0.8,0.2,0.2,0.2,0.8","1","",""
"","html-keyboard-response","157","126458","0.0-157.0","32M8BPYGAU8JWQ9CG7IRGOCNWZ7GIT","AOS2PVHT2HYTL","3JUDR1D0D6D4CARU3YX9Y3DK5DJ2QK","","null","<img src=""img/land6.png"" style=""width:200px; border:14px solid green;"">","null","","","","","","","","","",""
"","image-keyboard-response","158","127317","0.0-158.0","32M8BPYGAU8JWQ9CG7IRGOCNWZ7GIT","AOS2PVHT2HYTL","3JUDR1D0D6D4CARU3YX9Y3DK5DJ2QK","","857","img/land5.png","75","858.8000001907349","2","0","2","1","0.8,0.2,0.2,0.2,0.8,0.2,0.2,0.2,0.8","0.8,0.2,0.2,0.2,0.8,0.2,0.2,0.2,0.8","1","",""
"","html-keyboard-response","159","127620","0.0-159.0","32M8BPYGAU8JWQ9CG7IRGOCNWZ7GIT","AOS2PVHT2HYTL","3JUDR1D0D6D4CARU3YX9Y3DK5DJ2QK","","null","<img src=""img/land5.png"" style=""width:200px;border:14px solid red;"">","null","","","","","","","","","",""
"","image-keyboard-response","160","128357","0.0-160.0","32M8BPYGAU8JWQ9CG7IRGOCNWZ7GIT","AOS2PVHT2HYTL","3JUDR1D0D6D4CARU3YX9Y3DK5DJ2QK","","734.1999998092651","img/land4.png","76","736.2000000476837","3","0","3","1","0.8,0.2,0.2,0.2,0.8,0.2,0.2,0.2,0.8","0.8,0.2,0.2,0.2,0.8,0.2,0.2,0.2,0.8","1","",""
"","html-keyboard-response","161","128660","0.0-161.0","32M8BPYGAU8JWQ9CG7IRGOCNWZ7GIT","AOS2PVHT2HYTL","3JUDR1D0D6D4CARU3YX9Y3DK5DJ2QK","","null","<img src=""img/land4.png"" style=""width:200px;border:14px solid red;"">","null","","","","","","","","","",""
"","image-keyboard-response","162","129623","0.0-162.0","32M8BPYGAU8JWQ9CG7IRGOCNWZ7GIT","AOS2PVHT2HYTL","3JUDR1D0D6D4CARU3YX9Y3DK5DJ2QK","","960.3000001907349","img/land5.png","75","962.7999999523163","2","1","2","1","0.8,0.2,0.2,0.2,0.8,0.2,0.2,0.2,0.8","0.8,0.2,0.2,0.2,0.8,0.2,0.2,0.2,0.8","1","",""
"","html-keyboard-response","163","129927","0.0-163.0","32M8BPYGAU8JWQ9CG7IRGOCNWZ7GIT","AOS2PVHT2HYTL","3JUDR1D0D6D4CARU3YX9Y3DK5DJ2QK","","null","<img src=""img/land5.png"" style=""width:200px; border:14px solid green;"">","null","","","","","","","","","",""
"","image-keyboard-response","164","130672","0.0-164.0","32M8BPYGAU8JWQ9CG7IRGOCNWZ7GIT","AOS2PVHT2HYTL","3JUDR1D0D6D4CARU3YX9Y3DK5DJ2QK","","743.1000001430511","img/land5.png","75","745.5","2","1","2","1","0.8,0.2,0.2,0.2,0.8,0.2,0.2,0.2,0.8","0.8,0.2,0.2,0.2,0.8,0.2,0.2,0.2,0.8","1","",""
"","html-keyboard-response","165","130977","0.0-165.0","32M8BPYGAU8JWQ9CG7IRGOCNWZ7GIT","AOS2PVHT2HYTL","3JUDR1D0D6D4CARU3YX9Y3DK5DJ2QK","","null","<img src=""img/land5.png"" style=""width:200px; border:14px solid green;"">","null","","","","","","","","","",""
"","image-keyboard-response","166","131713","0.0-166.0","32M8BPYGAU8JWQ9CG7IRGOCNWZ7GIT","AOS2PVHT2HYTL","3JUDR1D0D6D4CARU3YX9Y3DK5DJ2QK","","733.7999999523163","img/land4.png","76","735.3999998569489","3","0","3","1","0.8,0.2,0.2,0.2,0.8,0.2,0.2,0.2,0.8","0.8,0.2,0.2,0.2,0.8,0.2,0.2,0.2,0.8","1","",""
"","html-keyboard-response","167","132016","0.0-167.0","32M8BPYGAU8JWQ9CG7IRGOCNWZ7GIT","AOS2PVHT2HYTL","3JUDR1D0D6D4CARU3YX9Y3DK5DJ2QK","","null","<img src=""img/land4.png"" style=""width:200px;border:14px solid red;"">","null","","","","","","","","","",""
"","image-keyboard-response","168","132828","0.0-168.0","32M8BPYGAU8JWQ9CG7IRGOCNWZ7GIT","AOS2PVHT2HYTL","3JUDR1D0D6D4CARU3YX9Y3DK5DJ2QK","","810.5","img/land6.png","74","811.9000000953674","1","1","1","1","0.8,0.2,0.2,0.2,0.8,0.2,0.2,0.2,0.8","0.8,0.2,0.2,0.2,0.8,0.2,0.2,0.2,0.8","1","",""
"","html-keyboard-response","169","133131","0.0-169.0","32M8BPYGAU8JWQ9CG7IRGOCNWZ7GIT","AOS2PVHT2HYTL","3JUDR1D0D6D4CARU3YX9Y3DK5DJ2QK","","null","<img src=""img/land6.png"" style=""width:200px; border:14px solid green;"">","null","","","","","","","","","",""
"","image-keyboard-response","170","133757","0.0-170.0","32M8BPYGAU8JWQ9CG7IRGOCNWZ7GIT","AOS2PVHT2HYTL","3JUDR1D0D6D4CARU3YX9Y3DK5DJ2QK","","624.3999998569489","img/land4.png","74","626.2000000476837","1","0","3","1","0.8,0.2,0.2,0.2,0.8,0.2,0.2,0.2,0.8","0.8,0.2,0.2,0.2,0.8,0.2,0.2,0.2,0.8","1","",""
"","html-keyboard-response","171","134062","0.0-171.0","32M8BPYGAU8JWQ9CG7IRGOCNWZ7GIT","AOS2PVHT2HYTL","3JUDR1D0D6D4CARU3YX9Y3DK5DJ2QK","","null","<img src=""img/land4.png"" style=""width:200px;border:14px solid red;"">","null","","","","","","","","","",""
"","image-keyboard-response","172","135242","0.0-172.0","32M8BPYGAU8JWQ9CG7IRGOCNWZ7GIT","AOS2PVHT2HYTL","3JUDR1D0D6D4CARU3YX9Y3DK5DJ2QK","","1177.8999998569489","img/land5.png","75","1180.0999999046326","2","1","2","1","0.8,0.2,0.2,0.2,0.8,0.2,0.2,0.2,0.8","0.8,0.2,0.2,0.2,0.8,0.2,0.2,0.2,0.8","1","",""
"","html-keyboard-response","173","135546","0.0-173.0","32M8BPYGAU8JWQ9CG7IRGOCNWZ7GIT","AOS2PVHT2HYTL","3JUDR1D0D6D4CARU3YX9Y3DK5DJ2QK","","null","<img src=""img/land5.png"" style=""width:200px; border:14px solid green;"">","null","","","","","","","","","",""
"","image-keyboard-response","174","136465","0.0-174.0","32M8BPYGAU8JWQ9CG7IRGOCNWZ7GIT","AOS2PVHT2HYTL","3JUDR1D0D6D4CARU3YX9Y3DK5DJ2QK","","915.9000000953674","img/land4.png","76","918.6000001430511","3","1","3","1","0.8,0.2,0.2,0.2,0.8,0.2,0.2,0.2,0.8","0.8,0.2,0.2,0.2,0.8,0.2,0.2,0.2,0.8","1","",""
"","html-keyboard-response","175","136784","0.0-175.0","32M8BPYGAU8JWQ9CG7IRGOCNWZ7GIT","AOS2PVHT2HYTL","3JUDR1D0D6D4CARU3YX9Y3DK5DJ2QK","","null","<img src=""img/land4.png"" style=""width:200px; border:14px solid green;"">","null","","","","","","","","","",""
"","image-keyboard-response","176","137670","0.0-176.0","32M8BPYGAU8JWQ9CG7IRGOCNWZ7GIT","AOS2PVHT2HYTL","3JUDR1D0D6D4CARU3YX9Y3DK5DJ2QK","","883.2000000476837","img/land6.png","74","885.7999999523163","1","1","1","1","0.8,0.2,0.2,0.2,0.8,0.2,0.2,0.2,0.8","0.8,0.2,0.2,0.2,0.8,0.2,0.2,0.2,0.8","1","",""
"","html-keyboard-response","177","137973","0.0-177.0","32M8BPYGAU8JWQ9CG7IRGOCNWZ7GIT","AOS2PVHT2HYTL","3JUDR1D0D6D4CARU3YX9Y3DK5DJ2QK","","null","<img src=""img/land6.png"" style=""width:200px; border:14px solid green;"">","null","","","","","","","","","",""
"","image-keyboard-response","178","139058","0.0-178.0","32M8BPYGAU8JWQ9CG7IRGOCNWZ7GIT","AOS2PVHT2HYTL","3JUDR1D0D6D4CARU3YX9Y3DK5DJ2QK","","1083.8999998569489","img/land4.png","76","1085.1999998092651","3","1","3","1","0.8,0.2,0.2,0.2,0.8,0.2,0.2,0.2,0.8","0.8,0.2,0.2,0.2,0.8,0.2,0.2,0.2,0.8","1","",""
"","html-keyboard-response","179","139365","0.0-179.0","32M8BPYGAU8JWQ9CG7IRGOCNWZ7GIT","AOS2PVHT2HYTL","3JUDR1D0D6D4CARU3YX9Y3DK5DJ2QK","","null","<img src=""img/land4.png"" style=""width:200px; border:14px solid green;"">","null","","","","","","","","","",""
"","image-keyboard-response","180","140063","0.0-180.0","32M8BPYGAU8JWQ9CG7IRGOCNWZ7GIT","AOS2PVHT2HYTL","3JUDR1D0D6D4CARU3YX9Y3DK5DJ2QK","","696.4000000953674","img/land4.png","76","698.3000001907349","3","0","3","1","0.8,0.2,0.2,0.2,0.8,0.2,0.2,0.2,0.8","0.8,0.2,0.2,0.2,0.8,0.2,0.2,0.2,0.8","1","",""
"","html-keyboard-response","181","140367","0.0-181.0","32M8BPYGAU8JWQ9CG7IRGOCNWZ7GIT","AOS2PVHT2HYTL","3JUDR1D0D6D4CARU3YX9Y3DK5DJ2QK","","null","<img src=""img/land4.png"" style=""width:200px;border:14px solid red;"">","null","","","","","","","","","",""
"","html-keyboard-response","182","146908","0.0-182.0","32M8BPYGAU8JWQ9CG7IRGOCNWZ7GIT","AOS2PVHT2HYTL","3JUDR1D0D6D4CARU3YX9Y3DK5DJ2QK","","","","","","","","","","","","","",""
"","image-keyboard-response","183","148470","0.0-183.0","32M8BPYGAU8JWQ9CG7IRGOCNWZ7GIT","AOS2PVHT2HYTL","3JUDR1D0D6D4CARU3YX9Y3DK5DJ2QK","","1558.0999999046326","img/land1.png","74","1561.2000000476837","1","0","1","2","0.8,0.2,0.2,0.2,0.8,0.2,0.2,0.2,0.8","0.2,0.2,0.8,0.8,0.2,0.2,0.2,0.8,0.2","2","",""
"","html-keyboard-response","184","148774","0.0-184.0","32M8BPYGAU8JWQ9CG7IRGOCNWZ7GIT","AOS2PVHT2HYTL","3JUDR1D0D6D4CARU3YX9Y3DK5DJ2QK","","null","<img src=""img/land1.png"" style=""width:200px;border:14px solid red;"">","null","","","","","","","","","",""
"","image-keyboard-response","185","149567","0.0-185.0","32M8BPYGAU8JWQ9CG7IRGOCNWZ7GIT","AOS2PVHT2HYTL","3JUDR1D0D6D4CARU3YX9Y3DK5DJ2QK","","789.2999999523163","img/land1.png","75","792.2000000476837","2","0","1","2","0.8,0.2,0.2,0.2,0.8,0.2,0.2,0.2,0.8","0.2,0.2,0.8,0.8,0.2,0.2,0.2,0.8,0.2","2","",""
"","html-keyboard-response","186","149886","0.0-186.0","32M8BPYGAU8JWQ9CG7IRGOCNWZ7GIT","AOS2PVHT2HYTL","3JUDR1D0D6D4CARU3YX9Y3DK5DJ2QK","","null","<img src=""img/land1.png"" style=""width:200px;border:14px solid red;"">","null","","","","","","","","","",""
"","image-keyboard-response","187","150655","0.0-187.0","32M8BPYGAU8JWQ9CG7IRGOCNWZ7GIT","AOS2PVHT2HYTL","3JUDR1D0D6D4CARU3YX9Y3DK5DJ2QK","","766.1000001430511","img/land2.png","76","768.7999999523163","3","0","3","2","0.8,0.2,0.2,0.2,0.8,0.2,0.2,0.2,0.8","0.2,0.2,0.8,0.8,0.2,0.2,0.2,0.8,0.2","2","",""
"","html-keyboard-response","188","150959","0.0-188.0","32M8BPYGAU8JWQ9CG7IRGOCNWZ7GIT","AOS2PVHT2HYTL","3JUDR1D0D6D4CARU3YX9Y3DK5DJ2QK","","null","<img src=""img/land2.png"" style=""width:200px;border:14px solid red;"">","null","","","","","","","","","",""
"","image-keyboard-response","189","151698","0.0-189.0","32M8BPYGAU8JWQ9CG7IRGOCNWZ7GIT","AOS2PVHT2HYTL","3JUDR1D0D6D4CARU3YX9Y3DK5DJ2QK","","736.4000000953674","img/land2.png","75","738.7000000476837","2","1","3","2","0.8,0.2,0.2,0.2,0.8,0.2,0.2,0.2,0.8","0.2,0.2,0.8,0.8,0.2,0.2,0.2,0.8,0.2","2","",""
"","html-keyboard-response","190","152001","0.0-190.0","32M8BPYGAU8JWQ9CG7IRGOCNWZ7GIT","AOS2PVHT2HYTL","3JUDR1D0D6D4CARU3YX9Y3DK5DJ2QK","","null","<img src=""img/land2.png"" style=""width:200px; border:14px solid green;"">","null","","","","","","","","","",""
"","image-keyboard-response","191","153012","0.0-191.0","32M8BPYGAU8JWQ9CG7IRGOCNWZ7GIT","AOS2PVHT2HYTL","3JUDR1D0D6D4CARU3YX9Y3DK5DJ2QK","","1007.6000001430511","img/land3.png","76","1010.5999999046326","3","0","2","2","0.8,0.2,0.2,0.2,0.8,0.2,0.2,0.2,0.8","0.2,0.2,0.8,0.8,0.2,0.2,0.2,0.8,0.2","2","",""
"","html-keyboard-response","192","153317","0.0-192.0","32M8BPYGAU8JWQ9CG7IRGOCNWZ7GIT","AOS2PVHT2HYTL","3JUDR1D0D6D4CARU3YX9Y3DK5DJ2QK","","null","<img src=""img/land3.png"" style=""width:200px;border:14px solid red;"">","null","","","","","","","","","",""
"","image-keyboard-response","193","154322","0.0-193.0","32M8BPYGAU8JWQ9CG7IRGOCNWZ7GIT","AOS2PVHT2HYTL","3JUDR1D0D6D4CARU3YX9Y3DK5DJ2QK","","1003","img/land1.png","74","1005.0999999046326","1","0","1","2","0.8,0.2,0.2,0.2,0.8,0.2,0.2,0.2,0.8","0.2,0.2,0.8,0.8,0.2,0.2,0.2,0.8,0.2","2","",""
"","html-keyboard-response","194","154626","0.0-194.0","32M8BPYGAU8JWQ9CG7IRGOCNWZ7GIT","AOS2PVHT2HYTL","3JUDR1D0D6D4CARU3YX9Y3DK5DJ2QK","","null","<img src=""img/land1.png"" style=""width:200px;border:14px solid red;"">","null","","","","","","","","","",""
"","image-keyboard-response","195","155455","0.0-195.0","32M8BPYGAU8JWQ9CG7IRGOCNWZ7GIT","AOS2PVHT2HYTL","3JUDR1D0D6D4CARU3YX9Y3DK5DJ2QK","","826.2999999523163","img/land2.png","75","828.9000000953674","2","1","3","2","0.8,0.2,0.2,0.2,0.8,0.2,0.2,0.2,0.8","0.2,0.2,0.8,0.8,0.2,0.2,0.2,0.8,0.2","2","",""
"","html-keyboard-response","196","155760","0.0-196.0","32M8BPYGAU8JWQ9CG7IRGOCNWZ7GIT","AOS2PVHT2HYTL","3JUDR1D0D6D4CARU3YX9Y3DK5DJ2QK","","null","<img src=""img/land2.png"" style=""width:200px; border:14px solid green;"">","null","","","","","","","","","",""
"","image-keyboard-response","197","156567","0.0-197.0","32M8BPYGAU8JWQ9CG7IRGOCNWZ7GIT","AOS2PVHT2HYTL","3JUDR1D0D6D4CARU3YX9Y3DK5DJ2QK","","804.5","img/land1.png","76","807.1999998092651","3","1","1","2","0.8,0.2,0.2,0.2,0.8,0.2,0.2,0.2,0.8","0.2,0.2,0.8,0.8,0.2,0.2,0.2,0.8,0.2","2","",""
"","html-keyboard-response","198","156872","0.0-198.0","32M8BPYGAU8JWQ9CG7IRGOCNWZ7GIT","AOS2PVHT2HYTL","3JUDR1D0D6D4CARU3YX9Y3DK5DJ2QK","","null","<img src=""img/land1.png"" style=""width:200px; border:14px solid green;"">","null","","","","","","","","","",""
"","image-keyboard-response","199","158105","0.0-199.0","32M8BPYGAU8JWQ9CG7IRGOCNWZ7GIT","AOS2PVHT2HYTL","3JUDR1D0D6D4CARU3YX9Y3DK5DJ2QK","","1230.2000000476837","img/land3.png","74","1232.9000000953674","1","1","2","2","0.8,0.2,0.2,0.2,0.8,0.2,0.2,0.2,0.8","0.2,0.2,0.8,0.8,0.2,0.2,0.2,0.8,0.2","2","",""
"","html-keyboard-response","200","158414","0.0-200.0","32M8BPYGAU8JWQ9CG7IRGOCNWZ7GIT","AOS2PVHT2HYTL","3JUDR1D0D6D4CARU3YX9Y3DK5DJ2QK","","null","<img src=""img/land3.png"" style=""width:200px; border:14px solid green;"">","null","","","","","","","","","",""
"","image-keyboard-response","201","159454","0.0-201.0","32M8BPYGAU8JWQ9CG7IRGOCNWZ7GIT","AOS2PVHT2HYTL","3JUDR1D0D6D4CARU3YX9Y3DK5DJ2QK","","1036.2999999523163","img/land1.png","76","1039.2000000476837","3","1","1","2","0.8,0.2,0.2,0.2,0.8,0.2,0.2,0.2,0.8","0.2,0.2,0.8,0.8,0.2,0.2,0.2,0.8,0.2","2","",""
"","html-keyboard-response","202","159758","0.0-202.0","32M8BPYGAU8JWQ9CG7IRGOCNWZ7GIT","AOS2PVHT2HYTL","3JUDR1D0D6D4CARU3YX9Y3DK5DJ2QK","","null","<img src=""img/land1.png"" style=""width:200px; border:14px solid green;"">","null","","","","","","","","","",""
"","image-keyboard-response","203","160702","0.0-203.0","32M8BPYGAU8JWQ9CG7IRGOCNWZ7GIT","AOS2PVHT2HYTL","3JUDR1D0D6D4CARU3YX9Y3DK5DJ2QK","","941.5","img/land2.png","75","943.9000000953674","2","1","3","2","0.8,0.2,0.2,0.2,0.8,0.2,0.2,0.2,0.8","0.2,0.2,0.8,0.8,0.2,0.2,0.2,0.8,0.2","2","",""
"","html-keyboard-response","204","161004","0.0-204.0","32M8BPYGAU8JWQ9CG7IRGOCNWZ7GIT","AOS2PVHT2HYTL","3JUDR1D0D6D4CARU3YX9Y3DK5DJ2QK","","null","<img src=""img/land2.png"" style=""width:200px; border:14px solid green;"">","null","","","","","","","","","",""
"","image-keyboard-response","205","161716","0.0-205.0","32M8BPYGAU8JWQ9CG7IRGOCNWZ7GIT","AOS2PVHT2HYTL","3JUDR1D0D6D4CARU3YX9Y3DK5DJ2QK","","709.2999999523163","img/land1.png","76","711.2999999523163","3","1","1","2","0.8,0.2,0.2,0.2,0.8,0.2,0.2,0.2,0.8","0.2,0.2,0.8,0.8,0.2,0.2,0.2,0.8,0.2","2","",""
"","html-keyboard-response","206","162020","0.0-206.0","32M8BPYGAU8JWQ9CG7IRGOCNWZ7GIT","AOS2PVHT2HYTL","3JUDR1D0D6D4CARU3YX9Y3DK5DJ2QK","","null","<img src=""img/land1.png"" style=""width:200px; border:14px solid green;"">","null","","","","","","","","","",""
"","image-keyboard-response","207","162878","0.0-207.0","32M8BPYGAU8JWQ9CG7IRGOCNWZ7GIT","AOS2PVHT2HYTL","3JUDR1D0D6D4CARU3YX9Y3DK5DJ2QK","","855.3000001907349","img/land2.png","75","858.1000001430511","2","0","3","2","0.8,0.2,0.2,0.2,0.8,0.2,0.2,0.2,0.8","0.2,0.2,0.8,0.8,0.2,0.2,0.2,0.8,0.2","2","",""
"","html-keyboard-response","208","163182","0.0-208.0","32M8BPYGAU8JWQ9CG7IRGOCNWZ7GIT","AOS2PVHT2HYTL","3JUDR1D0D6D4CARU3YX9Y3DK5DJ2QK","","null","<img src=""img/land2.png"" style=""width:200px;border:14px solid red;"">","null","","","","","","","","","",""
"","image-keyboard-response","209","163899","0.0-209.0","32M8BPYGAU8JWQ9CG7IRGOCNWZ7GIT","AOS2PVHT2HYTL","3JUDR1D0D6D4CARU3YX9Y3DK5DJ2QK","","714.5999999046326","img/land1.png","76","716.5999999046326","3","1","1","2","0.8,0.2,0.2,0.2,0.8,0.2,0.2,0.2,0.8","0.2,0.2,0.8,0.8,0.2,0.2,0.2,0.8,0.2","2","",""
"","html-keyboard-response","210","164203","0.0-210.0","32M8BPYGAU8JWQ9CG7IRGOCNWZ7GIT","AOS2PVHT2HYTL","3JUDR1D0D6D4CARU3YX9Y3DK5DJ2QK","","null","<img src=""img/land1.png"" style=""width:200px; border:14px solid green;"">","null","","","","","","","","","",""
"","image-keyboard-response","211","165031","0.0-211.0","32M8BPYGAU8JWQ9CG7IRGOCNWZ7GIT","AOS2PVHT2HYTL","3JUDR1D0D6D4CARU3YX9Y3DK5DJ2QK","","825.4000000953674","img/land3.png","75","828","2","0","2","2","0.8,0.2,0.2,0.2,0.8,0.2,0.2,0.2,0.8","0.2,0.2,0.8,0.8,0.2,0.2,0.2,0.8,0.2","2","",""
"","html-keyboard-response","212","165338","0.0-212.0","32M8BPYGAU8JWQ9CG7IRGOCNWZ7GIT","AOS2PVHT2HYTL","3JUDR1D0D6D4CARU3YX9Y3DK5DJ2QK","","null","<img src=""img/land3.png"" style=""width:200px;border:14px solid red;"">","null","","","","","","","","","",""
"","image-keyboard-response","213","166357","0.0-213.0","32M8BPYGAU8JWQ9CG7IRGOCNWZ7GIT","AOS2PVHT2HYTL","3JUDR1D0D6D4CARU3YX9Y3DK5DJ2QK","","1016.3000001907349","img/land1.png","76","1019.0999999046326","3","1","1","2","0.8,0.2,0.2,0.2,0.8,0.2,0.2,0.2,0.8","0.2,0.2,0.8,0.8,0.2,0.2,0.2,0.8,0.2","2","",""
"","html-keyboard-response","214","166661","0.0-214.0","32M8BPYGAU8JWQ9CG7IRGOCNWZ7GIT","AOS2PVHT2HYTL","3JUDR1D0D6D4CARU3YX9Y3DK5DJ2QK","","null","<img src=""img/land1.png"" style=""width:200px; border:14px solid green;"">","null","","","","","","","","","",""
"","image-keyboard-response","215","167544","0.0-215.0","32M8BPYGAU8JWQ9CG7IRGOCNWZ7GIT","AOS2PVHT2HYTL","3JUDR1D0D6D4CARU3YX9Y3DK5DJ2QK","","879.2000000476837","img/land1.png","76","882.0999999046326","3","1","1","2","0.8,0.2,0.2,0.2,0.8,0.2,0.2,0.2,0.8","0.2,0.2,0.8,0.8,0.2,0.2,0.2,0.8,0.2","2","",""
"","html-keyboard-response","216","167848","0.0-216.0","32M8BPYGAU8JWQ9CG7IRGOCNWZ7GIT","AOS2PVHT2HYTL","3JUDR1D0D6D4CARU3YX9Y3DK5DJ2QK","","null","<img src=""img/land1.png"" style=""width:200px; border:14px solid green;"">","null","","","","","","","","","",""
"","image-keyboard-response","217","168731","0.0-217.0","32M8BPYGAU8JWQ9CG7IRGOCNWZ7GIT","AOS2PVHT2HYTL","3JUDR1D0D6D4CARU3YX9Y3DK5DJ2QK","","879.1000001430511","img/land3.png","74","882.8000001907349","1","1","2","2","0.8,0.2,0.2,0.2,0.8,0.2,0.2,0.2,0.8","0.2,0.2,0.8,0.8,0.2,0.2,0.2,0.8,0.2","2","",""
"","html-keyboard-response","218","169039","0.0-218.0","32M8BPYGAU8JWQ9CG7IRGOCNWZ7GIT","AOS2PVHT2HYTL","3JUDR1D0D6D4CARU3YX9Y3DK5DJ2QK","","null","<img src=""img/land3.png"" style=""width:200px; border:14px solid green;"">","null","","","","","","","","","",""
"","image-keyboard-response","219","170092","0.0-219.0","32M8BPYGAU8JWQ9CG7IRGOCNWZ7GIT","AOS2PVHT2HYTL","3JUDR1D0D6D4CARU3YX9Y3DK5DJ2QK","","1050.5999999046326","img/land1.png","76","1052.6000001430511","3","1","1","2","0.8,0.2,0.2,0.2,0.8,0.2,0.2,0.2,0.8","0.2,0.2,0.8,0.8,0.2,0.2,0.2,0.8,0.2","2","",""
"","html-keyboard-response","220","170396","0.0-220.0","32M8BPYGAU8JWQ9CG7IRGOCNWZ7GIT","AOS2PVHT2HYTL","3JUDR1D0D6D4CARU3YX9Y3DK5DJ2QK","","null","<img src=""img/land1.png"" style=""width:200px; border:14px solid green;"">","null","","","","","","","","","",""
"","image-keyboard-response","221","170960","0.0-221.0","32M8BPYGAU8JWQ9CG7IRGOCNWZ7GIT","AOS2PVHT2HYTL","3JUDR1D0D6D4CARU3YX9Y3DK5DJ2QK","","561.0999999046326","img/land1.png","76","563.7000000476837","3","1","1","2","0.8,0.2,0.2,0.2,0.8,0.2,0.2,0.2,0.8","0.2,0.2,0.8,0.8,0.2,0.2,0.2,0.8,0.2","2","",""
"","html-keyboard-response","222","171264","0.0-222.0","32M8BPYGAU8JWQ9CG7IRGOCNWZ7GIT","AOS2PVHT2HYTL","3JUDR1D0D6D4CARU3YX9Y3DK5DJ2QK","","null","<img src=""img/land1.png"" style=""width:200px; border:14px solid green;"">","null","","","","","","","","","",""
"","image-keyboard-response","223","171698","0.0-223.0","32M8BPYGAU8JWQ9CG7IRGOCNWZ7GIT","AOS2PVHT2HYTL","3JUDR1D0D6D4CARU3YX9Y3DK5DJ2QK","","430.90000009536743","img/land1.png","76","433.59999990463257","3","1","1","2","0.8,0.2,0.2,0.2,0.8,0.2,0.2,0.2,0.8","0.2,0.2,0.8,0.8,0.2,0.2,0.2,0.8,0.2","2","",""
"","html-keyboard-response","224","172002","0.0-224.0","32M8BPYGAU8JWQ9CG7IRGOCNWZ7GIT","AOS2PVHT2HYTL","3JUDR1D0D6D4CARU3YX9Y3DK5DJ2QK","","null","<img src=""img/land1.png"" style=""width:200px; border:14px solid green;"">","null","","","","","","","","","",""
"","image-keyboard-response","225","172485","0.0-225.0","32M8BPYGAU8JWQ9CG7IRGOCNWZ7GIT","AOS2PVHT2HYTL","3JUDR1D0D6D4CARU3YX9Y3DK5DJ2QK","","479.60000014305115","img/land1.png","76","482.59999990463257","3","0","1","2","0.8,0.2,0.2,0.2,0.8,0.2,0.2,0.2,0.8","0.2,0.2,0.8,0.8,0.2,0.2,0.2,0.8,0.2","2","",""
"","html-keyboard-response","226","172790","0.0-226.0","32M8BPYGAU8JWQ9CG7IRGOCNWZ7GIT","AOS2PVHT2HYTL","3JUDR1D0D6D4CARU3YX9Y3DK5DJ2QK","","null","<img src=""img/land1.png"" style=""width:200px;border:14px solid red;"">","null","","","","","","","","","",""
"","image-keyboard-response","227","173618","0.0-227.0","32M8BPYGAU8JWQ9CG7IRGOCNWZ7GIT","AOS2PVHT2HYTL","3JUDR1D0D6D4CARU3YX9Y3DK5DJ2QK","","825.5","img/land2.png","75","827.4000000953674","2","1","3","2","0.8,0.2,0.2,0.2,0.8,0.2,0.2,0.2,0.8","0.2,0.2,0.8,0.8,0.2,0.2,0.2,0.8,0.2","2","",""
"","html-keyboard-response","228","173921","0.0-228.0","32M8BPYGAU8JWQ9CG7IRGOCNWZ7GIT","AOS2PVHT2HYTL","3JUDR1D0D6D4CARU3YX9Y3DK5DJ2QK","","null","<img src=""img/land2.png"" style=""width:200px; border:14px solid green;"">","null","","","","","","","","","",""
"","image-keyboard-response","229","174739","0.0-229.0","32M8BPYGAU8JWQ9CG7IRGOCNWZ7GIT","AOS2PVHT2HYTL","3JUDR1D0D6D4CARU3YX9Y3DK5DJ2QK","","814.9000000953674","img/land1.png","76","820.2000000476837","3","1","1","2","0.8,0.2,0.2,0.2,0.8,0.2,0.2,0.2,0.8","0.2,0.2,0.8,0.8,0.2,0.2,0.2,0.8,0.2","2","",""
"","html-keyboard-response","230","175047","0.0-230.0","32M8BPYGAU8JWQ9CG7IRGOCNWZ7GIT","AOS2PVHT2HYTL","3JUDR1D0D6D4CARU3YX9Y3DK5DJ2QK","","null","<img src=""img/land1.png"" style=""width:200px; border:14px solid green;"">","null","","","","","","","","","",""
"","image-keyboard-response","231","175585","0.0-231.0","32M8BPYGAU8JWQ9CG7IRGOCNWZ7GIT","AOS2PVHT2HYTL","3JUDR1D0D6D4CARU3YX9Y3DK5DJ2QK","","534.5","img/land1.png","76","537.3999998569489","3","1","1","2","0.8,0.2,0.2,0.2,0.8,0.2,0.2,0.2,0.8","0.2,0.2,0.8,0.8,0.2,0.2,0.2,0.8,0.2","2","",""
"","html-keyboard-response","232","175888","0.0-232.0","32M8BPYGAU8JWQ9CG7IRGOCNWZ7GIT","AOS2PVHT2HYTL","3JUDR1D0D6D4CARU3YX9Y3DK5DJ2QK","","null","<img src=""img/land1.png"" style=""width:200px; border:14px solid green;"">","null","","","","","","","","","",""
"","image-keyboard-response","233","176722","0.0-233.0","32M8BPYGAU8JWQ9CG7IRGOCNWZ7GIT","AOS2PVHT2HYTL","3JUDR1D0D6D4CARU3YX9Y3DK5DJ2QK","","831.0999999046326","img/land3.png","74","833.7000000476837","1","0","2","2","0.8,0.2,0.2,0.2,0.8,0.2,0.2,0.2,0.8","0.2,0.2,0.8,0.8,0.2,0.2,0.2,0.8,0.2","2","",""
"","html-keyboard-response","234","177026","0.0-234.0","32M8BPYGAU8JWQ9CG7IRGOCNWZ7GIT","AOS2PVHT2HYTL","3JUDR1D0D6D4CARU3YX9Y3DK5DJ2QK","","null","<img src=""img/land3.png"" style=""width:200px;border:14px solid red;"">","null","","","","","","","","","",""
"","image-keyboard-response","235","178018","0.0-235.0","32M8BPYGAU8JWQ9CG7IRGOCNWZ7GIT","AOS2PVHT2HYTL","3JUDR1D0D6D4CARU3YX9Y3DK5DJ2QK","","989.8999998569489","img/land1.png","76","991.7999999523163","3","1","1","2","0.8,0.2,0.2,0.2,0.8,0.2,0.2,0.2,0.8","0.2,0.2,0.8,0.8,0.2,0.2,0.2,0.8,0.2","2","",""
"","html-keyboard-response","236","178322","0.0-236.0","32M8BPYGAU8JWQ9CG7IRGOCNWZ7GIT","AOS2PVHT2HYTL","3JUDR1D0D6D4CARU3YX9Y3DK5DJ2QK","","null","<img src=""img/land1.png"" style=""width:200px; border:14px solid green;"">","null","","","","","","","","","",""
"","image-keyboard-response","237","179161","0.0-237.0","32M8BPYGAU8JWQ9CG7IRGOCNWZ7GIT","AOS2PVHT2HYTL","3JUDR1D0D6D4CARU3YX9Y3DK5DJ2QK","","834.8000001907349","img/land2.png","75","837.3999998569489","2","1","3","2","0.8,0.2,0.2,0.2,0.8,0.2,0.2,0.2,0.8","0.2,0.2,0.8,0.8,0.2,0.2,0.2,0.8,0.2","2","",""
"","html-keyboard-response","238","179464","0.0-238.0","32M8BPYGAU8JWQ9CG7IRGOCNWZ7GIT","AOS2PVHT2HYTL","3JUDR1D0D6D4CARU3YX9Y3DK5DJ2QK","","null","<img src=""img/land2.png"" style=""width:200px; border:14px solid green;"">","null","","","","","","","","","",""
"","image-keyboard-response","239","180116","0.0-239.0","32M8BPYGAU8JWQ9CG7IRGOCNWZ7GIT","AOS2PVHT2HYTL","3JUDR1D0D6D4CARU3YX9Y3DK5DJ2QK","","650.9000000953674","img/land1.png","76","652.7000000476837","3","1","1","2","0.8,0.2,0.2,0.2,0.8,0.2,0.2,0.2,0.8","0.2,0.2,0.8,0.8,0.2,0.2,0.2,0.8,0.2","2","",""
"","html-keyboard-response","240","180422","0.0-240.0","32M8BPYGAU8JWQ9CG7IRGOCNWZ7GIT","AOS2PVHT2HYTL","3JUDR1D0D6D4CARU3YX9Y3DK5DJ2QK","","null","<img src=""img/land1.png"" style=""width:200px; border:14px solid green;"">","null","","","","","","","","","",""
"","image-keyboard-response","241","181185","0.0-241.0","32M8BPYGAU8JWQ9CG7IRGOCNWZ7GIT","AOS2PVHT2HYTL","3JUDR1D0D6D4CARU3YX9Y3DK5DJ2QK","","760","img/land3.png","74","762.7000000476837","1","1","2","2","0.8,0.2,0.2,0.2,0.8,0.2,0.2,0.2,0.8","0.2,0.2,0.8,0.8,0.2,0.2,0.2,0.8,0.2","2","",""
"","html-keyboard-response","242","181490","0.0-242.0","32M8BPYGAU8JWQ9CG7IRGOCNWZ7GIT","AOS2PVHT2HYTL","3JUDR1D0D6D4CARU3YX9Y3DK5DJ2QK","","null","<img src=""img/land3.png"" style=""width:200px; border:14px solid green;"">","null","","","","","","","","","",""
"","image-keyboard-response","243","182521","0.0-243.0","32M8BPYGAU8JWQ9CG7IRGOCNWZ7GIT","AOS2PVHT2HYTL","3JUDR1D0D6D4CARU3YX9Y3DK5DJ2QK","","1027.0999999046326","img/land1.png","76","1029.8999998569489","3","1","1","2","0.8,0.2,0.2,0.2,0.8,0.2,0.2,0.2,0.8","0.2,0.2,0.8,0.8,0.2,0.2,0.2,0.8,0.2","2","",""
"","html-keyboard-response","244","182825","0.0-244.0","32M8BPYGAU8JWQ9CG7IRGOCNWZ7GIT","AOS2PVHT2HYTL","3JUDR1D0D6D4CARU3YX9Y3DK5DJ2QK","","null","<img src=""img/land1.png"" style=""width:200px; border:14px solid green;"">","null","","","","","","","","","",""
"","image-keyboard-response","245","183517","0.0-245.0","32M8BPYGAU8JWQ9CG7IRGOCNWZ7GIT","AOS2PVHT2HYTL","3JUDR1D0D6D4CARU3YX9Y3DK5DJ2QK","","688.8000001907349","img/land1.png","76","691","3","1","1","2","0.8,0.2,0.2,0.2,0.8,0.2,0.2,0.2,0.8","0.2,0.2,0.8,0.8,0.2,0.2,0.2,0.8,0.2","2","",""
"","html-keyboard-response","246","183819","0.0-246.0","32M8BPYGAU8JWQ9CG7IRGOCNWZ7GIT","AOS2PVHT2HYTL","3JUDR1D0D6D4CARU3YX9Y3DK5DJ2QK","","null","<img src=""img/land1.png"" style=""width:200px; border:14px solid green;"">","null","","","","","","","","","",""
"","image-keyboard-response","247","184372","0.0-247.0","32M8BPYGAU8JWQ9CG7IRGOCNWZ7GIT","AOS2PVHT2HYTL","3JUDR1D0D6D4CARU3YX9Y3DK5DJ2QK","","549.5999999046326","img/land1.png","76","552","3","1","1","2","0.8,0.2,0.2,0.2,0.8,0.2,0.2,0.2,0.8","0.2,0.2,0.8,0.8,0.2,0.2,0.2,0.8,0.2","2","",""
"","html-keyboard-response","248","184676","0.0-248.0","32M8BPYGAU8JWQ9CG7IRGOCNWZ7GIT","AOS2PVHT2HYTL","3JUDR1D0D6D4CARU3YX9Y3DK5DJ2QK","","null","<img src=""img/land1.png"" style=""width:200px; border:14px solid green;"">","null","","","","","","","","","",""
"","image-keyboard-response","249","185549","0.0-249.0","32M8BPYGAU8JWQ9CG7IRGOCNWZ7GIT","AOS2PVHT2HYTL","3JUDR1D0D6D4CARU3YX9Y3DK5DJ2QK","","870.0999999046326","img/land2.png","75","872.7000000476837","2","1","3","2","0.8,0.2,0.2,0.2,0.8,0.2,0.2,0.2,0.8","0.2,0.2,0.8,0.8,0.2,0.2,0.2,0.8,0.2","2","",""
"","html-keyboard-response","250","185853","0.0-250.0","32M8BPYGAU8JWQ9CG7IRGOCNWZ7GIT","AOS2PVHT2HYTL","3JUDR1D0D6D4CARU3YX9Y3DK5DJ2QK","","null","<img src=""img/land2.png"" style=""width:200px; border:14px solid green;"">","null","","","","","","","","","",""
"","image-keyboard-response","251","186517","0.0-251.0","32M8BPYGAU8JWQ9CG7IRGOCNWZ7GIT","AOS2PVHT2HYTL","3JUDR1D0D6D4CARU3YX9Y3DK5DJ2QK","","660.9000000953674","img/land1.png","76","663.6999998092651","3","1","1","2","0.8,0.2,0.2,0.2,0.8,0.2,0.2,0.2,0.8","0.2,0.2,0.8,0.8,0.2,0.2,0.2,0.8,0.2","2","",""
"","html-keyboard-response","252","186821","0.0-252.0","32M8BPYGAU8JWQ9CG7IRGOCNWZ7GIT","AOS2PVHT2HYTL","3JUDR1D0D6D4CARU3YX9Y3DK5DJ2QK","","null","<img src=""img/land1.png"" style=""width:200px; border:14px solid green;"">","null","","","","","","","","","",""
"","image-keyboard-response","253","187762","0.0-253.0","32M8BPYGAU8JWQ9CG7IRGOCNWZ7GIT","AOS2PVHT2HYTL","3JUDR1D0D6D4CARU3YX9Y3DK5DJ2QK","","937.5","img/land3.png","74","940.2000000476837","1","0","2","2","0.8,0.2,0.2,0.2,0.8,0.2,0.2,0.2,0.8","0.2,0.2,0.8,0.8,0.2,0.2,0.2,0.8,0.2","2","",""
"","html-keyboard-response","254","188067","0.0-254.0","32M8BPYGAU8JWQ9CG7IRGOCNWZ7GIT","AOS2PVHT2HYTL","3JUDR1D0D6D4CARU3YX9Y3DK5DJ2QK","","null","<img src=""img/land3.png"" style=""width:200px;border:14px solid red;"">","null","","","","","","","","","",""
"","image-keyboard-response","255","188997","0.0-255.0","32M8BPYGAU8JWQ9CG7IRGOCNWZ7GIT","AOS2PVHT2HYTL","3JUDR1D0D6D4CARU3YX9Y3DK5DJ2QK","","927.2999999523163","img/land1.png","76","930.0999999046326","3","1","1","2","0.8,0.2,0.2,0.2,0.8,0.2,0.2,0.2,0.8","0.2,0.2,0.8,0.8,0.2,0.2,0.2,0.8,0.2","2","",""
"","html-keyboard-response","256","189300","0.0-256.0","32M8BPYGAU8JWQ9CG7IRGOCNWZ7GIT","AOS2PVHT2HYTL","3JUDR1D0D6D4CARU3YX9Y3DK5DJ2QK","","null","<img src=""img/land1.png"" style=""width:200px; border:14px solid green;"">","null","","","","","","","","","",""
"","image-keyboard-response","257","189910","0.0-257.0","32M8BPYGAU8JWQ9CG7IRGOCNWZ7GIT","AOS2PVHT2HYTL","3JUDR1D0D6D4CARU3YX9Y3DK5DJ2QK","","607","img/land1.png","76","609.5999999046326","3","1","1","2","0.8,0.2,0.2,0.2,0.8,0.2,0.2,0.2,0.8","0.2,0.2,0.8,0.8,0.2,0.2,0.2,0.8,0.2","2","",""
"","html-keyboard-response","258","190249","0.0-258.0","32M8BPYGAU8JWQ9CG7IRGOCNWZ7GIT","AOS2PVHT2HYTL","3JUDR1D0D6D4CARU3YX9Y3DK5DJ2QK","","null","<img src=""img/land1.png"" style=""width:200px; border:14px solid green;"">","null","","","","","","","","","",""
"","image-keyboard-response","259","190756","0.0-259.0","32M8BPYGAU8JWQ9CG7IRGOCNWZ7GIT","AOS2PVHT2HYTL","3JUDR1D0D6D4CARU3YX9Y3DK5DJ2QK","","505.80000019073486","img/land1.png","76","507.69999980926514","3","1","1","2","0.8,0.2,0.2,0.2,0.8,0.2,0.2,0.2,0.8","0.2,0.2,0.8,0.8,0.2,0.2,0.2,0.8,0.2","2","",""
"","html-keyboard-response","260","191061","0.0-260.0","32M8BPYGAU8JWQ9CG7IRGOCNWZ7GIT","AOS2PVHT2HYTL","3JUDR1D0D6D4CARU3YX9Y3DK5DJ2QK","","null","<img src=""img/land1.png"" style=""width:200px; border:14px solid green;"">","null","","","","","","","","","",""
"","image-keyboard-response","261","191462","0.0-261.0","32M8BPYGAU8JWQ9CG7IRGOCNWZ7GIT","AOS2PVHT2HYTL","3JUDR1D0D6D4CARU3YX9Y3DK5DJ2QK","","398.30000019073486","img/land1.png","76","401","3","1","1","2","0.8,0.2,0.2,0.2,0.8,0.2,0.2,0.2,0.8","0.2,0.2,0.8,0.8,0.2,0.2,0.2,0.8,0.2","2","",""
"","html-keyboard-response","262","191767","0.0-262.0","32M8BPYGAU8JWQ9CG7IRGOCNWZ7GIT","AOS2PVHT2HYTL","3JUDR1D0D6D4CARU3YX9Y3DK5DJ2QK","","null","<img src=""img/land1.png"" style=""width:200px; border:14px solid green;"">","null","","","","","","","","","",""
"","image-keyboard-response","263","192586","0.0-263.0","32M8BPYGAU8JWQ9CG7IRGOCNWZ7GIT","AOS2PVHT2HYTL","3JUDR1D0D6D4CARU3YX9Y3DK5DJ2QK","","816.7000000476837","img/land2.png","75","819.4000000953674","2","1","3","2","0.8,0.2,0.2,0.2,0.8,0.2,0.2,0.2,0.8","0.2,0.2,0.8,0.8,0.2,0.2,0.2,0.8,0.2","2","",""
"","html-keyboard-response","264","192891","0.0-264.0","32M8BPYGAU8JWQ9CG7IRGOCNWZ7GIT","AOS2PVHT2HYTL","3JUDR1D0D6D4CARU3YX9Y3DK5DJ2QK","","null","<img src=""img/land2.png"" style=""width:200px; border:14px solid green;"">","null","","","","","","","","","",""
"","image-keyboard-response","265","193530","0.0-265.0","32M8BPYGAU8JWQ9CG7IRGOCNWZ7GIT","AOS2PVHT2HYTL","3JUDR1D0D6D4CARU3YX9Y3DK5DJ2QK","","635.3999998569489","img/land1.png","76","638.0999999046326","3","1","1","2","0.8,0.2,0.2,0.2,0.8,0.2,0.2,0.2,0.8","0.2,0.2,0.8,0.8,0.2,0.2,0.2,0.8,0.2","2","",""
"","html-keyboard-response","266","193834","0.0-266.0","32M8BPYGAU8JWQ9CG7IRGOCNWZ7GIT","AOS2PVHT2HYTL","3JUDR1D0D6D4CARU3YX9Y3DK5DJ2QK","","null","<img src=""img/land1.png"" style=""width:200px; border:14px solid green;"">","null","","","","","","","","","",""
"","image-keyboard-response","267","194358","0.0-267.0","32M8BPYGAU8JWQ9CG7IRGOCNWZ7GIT","AOS2PVHT2HYTL","3JUDR1D0D6D4CARU3YX9Y3DK5DJ2QK","","521.5999999046326","img/land2.png","75","523.6000001430511","2","1","3","2","0.8,0.2,0.2,0.2,0.8,0.2,0.2,0.2,0.8","0.2,0.2,0.8,0.8,0.2,0.2,0.2,0.8,0.2","2","",""
"","html-keyboard-response","268","194660","0.0-268.0","32M8BPYGAU8JWQ9CG7IRGOCNWZ7GIT","AOS2PVHT2HYTL","3JUDR1D0D6D4CARU3YX9Y3DK5DJ2QK","","null","<img src=""img/land2.png"" style=""width:200px; border:14px solid green;"">","null","","","","","","","","","",""
"","image-keyboard-response","269","195376","0.0-269.0","32M8BPYGAU8JWQ9CG7IRGOCNWZ7GIT","AOS2PVHT2HYTL","3JUDR1D0D6D4CARU3YX9Y3DK5DJ2QK","","712.4000000953674","img/land2.png","75","715","2","1","3","2","0.8,0.2,0.2,0.2,0.8,0.2,0.2,0.2,0.8","0.2,0.2,0.8,0.8,0.2,0.2,0.2,0.8,0.2","2","",""
"","html-keyboard-response","270","195679","0.0-270.0","32M8BPYGAU8JWQ9CG7IRGOCNWZ7GIT","AOS2PVHT2HYTL","3JUDR1D0D6D4CARU3YX9Y3DK5DJ2QK","","null","<img src=""img/land2.png"" style=""width:200px; border:14px solid green;"">","null","","","","","","","","","",""
"","image-keyboard-response","271","196676","0.0-271.0","32M8BPYGAU8JWQ9CG7IRGOCNWZ7GIT","AOS2PVHT2HYTL","3JUDR1D0D6D4CARU3YX9Y3DK5DJ2QK","","995.0999999046326","img/land3.png","74","997","1","1","2","2","0.8,0.2,0.2,0.2,0.8,0.2,0.2,0.2,0.8","0.2,0.2,0.8,0.8,0.2,0.2,0.2,0.8,0.2","2","",""
"","html-keyboard-response","272","196979","0.0-272.0","32M8BPYGAU8JWQ9CG7IRGOCNWZ7GIT","AOS2PVHT2HYTL","3JUDR1D0D6D4CARU3YX9Y3DK5DJ2QK","","null","<img src=""img/land3.png"" style=""width:200px; border:14px solid green;"">","null","","","","","","","","","",""
"","image-keyboard-response","273","197652","0.0-273.0","32M8BPYGAU8JWQ9CG7IRGOCNWZ7GIT","AOS2PVHT2HYTL","3JUDR1D0D6D4CARU3YX9Y3DK5DJ2QK","","669.9000000953674","img/land1.png","76","672.7000000476837","3","1","1","2","0.8,0.2,0.2,0.2,0.8,0.2,0.2,0.2,0.8","0.2,0.2,0.8,0.8,0.2,0.2,0.2,0.8,0.2","2","",""
"","html-keyboard-response","274","197957","0.0-274.0","32M8BPYGAU8JWQ9CG7IRGOCNWZ7GIT","AOS2PVHT2HYTL","3JUDR1D0D6D4CARU3YX9Y3DK5DJ2QK","","null","<img src=""img/land1.png"" style=""width:200px; border:14px solid green;"">","null","","","","","","","","","",""
"","image-keyboard-response","275","198629","0.0-275.0","32M8BPYGAU8JWQ9CG7IRGOCNWZ7GIT","AOS2PVHT2HYTL","3JUDR1D0D6D4CARU3YX9Y3DK5DJ2QK","","669.6999998092651","img/land1.png","76","671.8000001907349","3","1","1","2","0.8,0.2,0.2,0.2,0.8,0.2,0.2,0.2,0.8","0.2,0.2,0.8,0.8,0.2,0.2,0.2,0.8,0.2","2","",""
"","html-keyboard-response","276","198933","0.0-276.0","32M8BPYGAU8JWQ9CG7IRGOCNWZ7GIT","AOS2PVHT2HYTL","3JUDR1D0D6D4CARU3YX9Y3DK5DJ2QK","","null","<img src=""img/land1.png"" style=""width:200px; border:14px solid green;"">","null","","","","","","","","","",""
"","image-keyboard-response","277","199505","0.0-277.0","32M8BPYGAU8JWQ9CG7IRGOCNWZ7GIT","AOS2PVHT2HYTL","3JUDR1D0D6D4CARU3YX9Y3DK5DJ2QK","","568.5","img/land1.png","76","571.2999999523163","3","1","1","2","0.8,0.2,0.2,0.2,0.8,0.2,0.2,0.2,0.8","0.2,0.2,0.8,0.8,0.2,0.2,0.2,0.8,0.2","2","",""
"","html-keyboard-response","278","199810","0.0-278.0","32M8BPYGAU8JWQ9CG7IRGOCNWZ7GIT","AOS2PVHT2HYTL","3JUDR1D0D6D4CARU3YX9Y3DK5DJ2QK","","null","<img src=""img/land1.png"" style=""width:200px; border:14px solid green;"">","null","","","","","","","","","",""
"","image-keyboard-response","279","200354","0.0-279.0","32M8BPYGAU8JWQ9CG7IRGOCNWZ7GIT","AOS2PVHT2HYTL","3JUDR1D0D6D4CARU3YX9Y3DK5DJ2QK","","541.7999999523163","img/land1.png","76","543.8999998569489","3","1","1","2","0.8,0.2,0.2,0.2,0.8,0.2,0.2,0.2,0.8","0.2,0.2,0.8,0.8,0.2,0.2,0.2,0.8,0.2","2","",""
"","html-keyboard-response","280","200657","0.0-280.0","32M8BPYGAU8JWQ9CG7IRGOCNWZ7GIT","AOS2PVHT2HYTL","3JUDR1D0D6D4CARU3YX9Y3DK5DJ2QK","","null","<img src=""img/land1.png"" style=""width:200px; border:14px solid green;"">","null","","","","","","","","","",""
"","image-keyboard-response","281","201797","0.0-281.0","32M8BPYGAU8JWQ9CG7IRGOCNWZ7GIT","AOS2PVHT2HYTL","3JUDR1D0D6D4CARU3YX9Y3DK5DJ2QK","","1136.8999998569489","img/land3.png","74","1139.5999999046326","1","1","2","2","0.8,0.2,0.2,0.2,0.8,0.2,0.2,0.2,0.8","0.2,0.2,0.8,0.8,0.2,0.2,0.2,0.8,0.2","2","",""
"","html-keyboard-response","282","202107","0.0-282.0","32M8BPYGAU8JWQ9CG7IRGOCNWZ7GIT","AOS2PVHT2HYTL","3JUDR1D0D6D4CARU3YX9Y3DK5DJ2QK","","null","<img src=""img/land3.png"" style=""width:200px; border:14px solid green;"">","null","","","","","","","","","",""
"","image-keyboard-response","283","203132","0.0-283.0","32M8BPYGAU8JWQ9CG7IRGOCNWZ7GIT","AOS2PVHT2HYTL","3JUDR1D0D6D4CARU3YX9Y3DK5DJ2QK","","1022.8000001907349","img/land2.png","75","1025.3999998569489","2","0","3","2","0.8,0.2,0.2,0.2,0.8,0.2,0.2,0.2,0.8","0.2,0.2,0.8,0.8,0.2,0.2,0.2,0.8,0.2","2","",""
"","html-keyboard-response","284","203449","0.0-284.0","32M8BPYGAU8JWQ9CG7IRGOCNWZ7GIT","AOS2PVHT2HYTL","3JUDR1D0D6D4CARU3YX9Y3DK5DJ2QK","","null","<img src=""img/land2.png"" style=""width:200px;border:14px solid red;"">","null","","","","","","","","","",""
"","image-keyboard-response","285","204279","0.0-285.0","32M8BPYGAU8JWQ9CG7IRGOCNWZ7GIT","AOS2PVHT2HYTL","3JUDR1D0D6D4CARU3YX9Y3DK5DJ2QK","","827.2000000476837","img/land1.png","76","829.9000000953674","3","1","1","2","0.8,0.2,0.2,0.2,0.8,0.2,0.2,0.2,0.8","0.2,0.2,0.8,0.8,0.2,0.2,0.2,0.8,0.2","2","",""
"","html-keyboard-response","286","204583","0.0-286.0","32M8BPYGAU8JWQ9CG7IRGOCNWZ7GIT","AOS2PVHT2HYTL","3JUDR1D0D6D4CARU3YX9Y3DK5DJ2QK","","null","<img src=""img/land1.png"" style=""width:200px; border:14px solid green;"">","null","","","","","","","","","",""
"","image-keyboard-response","287","205303","0.0-287.0","32M8BPYGAU8JWQ9CG7IRGOCNWZ7GIT","AOS2PVHT2HYTL","3JUDR1D0D6D4CARU3YX9Y3DK5DJ2QK","","716.8000001907349","img/land2.png","75","718.7999999523163","2","0","3","2","0.8,0.2,0.2,0.2,0.8,0.2,0.2,0.2,0.8","0.2,0.2,0.8,0.8,0.2,0.2,0.2,0.8,0.2","2","",""
"","html-keyboard-response","288","205606","0.0-288.0","32M8BPYGAU8JWQ9CG7IRGOCNWZ7GIT","AOS2PVHT2HYTL","3JUDR1D0D6D4CARU3YX9Y3DK5DJ2QK","","null","<img src=""img/land2.png"" style=""width:200px;border:14px solid red;"">","null","","","","","","","","","",""
"","image-keyboard-response","289","206230","0.0-289.0","32M8BPYGAU8JWQ9CG7IRGOCNWZ7GIT","AOS2PVHT2HYTL","3JUDR1D0D6D4CARU3YX9Y3DK5DJ2QK","","621.2999999523163","img/land1.png","76","623.4000000953674","3","1","1","2","0.8,0.2,0.2,0.2,0.8,0.2,0.2,0.2,0.8","0.2,0.2,0.8,0.8,0.2,0.2,0.2,0.8,0.2","2","",""
"","html-keyboard-response","290","206541","0.0-290.0","32M8BPYGAU8JWQ9CG7IRGOCNWZ7GIT","AOS2PVHT2HYTL","3JUDR1D0D6D4CARU3YX9Y3DK5DJ2QK","","null","<img src=""img/land1.png"" style=""width:200px; border:14px solid green;"">","null","","","","","","","","","",""
"","image-keyboard-response","291","207123","0.0-291.0","32M8BPYGAU8JWQ9CG7IRGOCNWZ7GIT","AOS2PVHT2HYTL","3JUDR1D0D6D4CARU3YX9Y3DK5DJ2QK","","579.1999998092651","img/land1.png","76","581.7000000476837","3","1","1","2","0.8,0.2,0.2,0.2,0.8,0.2,0.2,0.2,0.8","0.2,0.2,0.8,0.8,0.2,0.2,0.2,0.8,0.2","2","",""
"","html-keyboard-response","292","207427","0.0-292.0","32M8BPYGAU8JWQ9CG7IRGOCNWZ7GIT","AOS2PVHT2HYTL","3JUDR1D0D6D4CARU3YX9Y3DK5DJ2QK","","null","<img src=""img/land1.png"" style=""width:200px; border:14px solid green;"">","null","","","","","","","","","",""
"","image-keyboard-response","293","207931","0.0-293.0","32M8BPYGAU8JWQ9CG7IRGOCNWZ7GIT","AOS2PVHT2HYTL","3JUDR1D0D6D4CARU3YX9Y3DK5DJ2QK","","499.59999990463257","img/land1.png","76","501.7000000476837","3","1","1","2","0.8,0.2,0.2,0.2,0.8,0.2,0.2,0.2,0.8","0.2,0.2,0.8,0.8,0.2,0.2,0.2,0.8,0.2","2","",""
"","html-keyboard-response","294","208233","0.0-294.0","32M8BPYGAU8JWQ9CG7IRGOCNWZ7GIT","AOS2PVHT2HYTL","3JUDR1D0D6D4CARU3YX9Y3DK5DJ2QK","","null","<img src=""img/land1.png"" style=""width:200px; border:14px solid green;"">","null","","","","","","","","","",""
"","image-keyboard-response","295","208687","0.0-295.0","32M8BPYGAU8JWQ9CG7IRGOCNWZ7GIT","AOS2PVHT2HYTL","3JUDR1D0D6D4CARU3YX9Y3DK5DJ2QK","","451.7000000476837","img/land1.png","76","453.5","3","1","1","2","0.8,0.2,0.2,0.2,0.8,0.2,0.2,0.2,0.8","0.2,0.2,0.8,0.8,0.2,0.2,0.2,0.8,0.2","2","",""
"","html-keyboard-response","296","208994","0.0-296.0","32M8BPYGAU8JWQ9CG7IRGOCNWZ7GIT","AOS2PVHT2HYTL","3JUDR1D0D6D4CARU3YX9Y3DK5DJ2QK","","null","<img src=""img/land1.png"" style=""width:200px; border:14px solid green;"">","null","","","","","","","","","",""
"","image-keyboard-response","297","209491","0.0-297.0","32M8BPYGAU8JWQ9CG7IRGOCNWZ7GIT","AOS2PVHT2HYTL","3JUDR1D0D6D4CARU3YX9Y3DK5DJ2QK","","494.5","img/land1.png","76","496.40000009536743","3","0","1","2","0.8,0.2,0.2,0.2,0.8,0.2,0.2,0.2,0.8","0.2,0.2,0.8,0.8,0.2,0.2,0.2,0.8,0.2","2","",""
"","html-keyboard-response","298","209794","0.0-298.0","32M8BPYGAU8JWQ9CG7IRGOCNWZ7GIT","AOS2PVHT2HYTL","3JUDR1D0D6D4CARU3YX9Y3DK5DJ2QK","","null","<img src=""img/land1.png"" style=""width:200px;border:14px solid red;"">","null","","","","","","","","","",""
"","image-keyboard-response","299","210893","0.0-299.0","32M8BPYGAU8JWQ9CG7IRGOCNWZ7GIT","AOS2PVHT2HYTL","3JUDR1D0D6D4CARU3YX9Y3DK5DJ2QK","","1096","img/land3.png","74","1098.5999999046326","1","1","2","2","0.8,0.2,0.2,0.2,0.8,0.2,0.2,0.2,0.8","0.2,0.2,0.8,0.8,0.2,0.2,0.2,0.8,0.2","2","",""
"","html-keyboard-response","300","211198","0.0-300.0","32M8BPYGAU8JWQ9CG7IRGOCNWZ7GIT","AOS2PVHT2HYTL","3JUDR1D0D6D4CARU3YX9Y3DK5DJ2QK","","null","<img src=""img/land3.png"" style=""width:200px; border:14px solid green;"">","null","","","","","","","","","",""
"","image-keyboard-response","301","211772","0.0-301.0","32M8BPYGAU8JWQ9CG7IRGOCNWZ7GIT","AOS2PVHT2HYTL","3JUDR1D0D6D4CARU3YX9Y3DK5DJ2QK","","572","img/land3.png","74","574.0999999046326","1","0","2","2","0.8,0.2,0.2,0.2,0.8,0.2,0.2,0.2,0.8","0.2,0.2,0.8,0.8,0.2,0.2,0.2,0.8,0.2","2","",""
"","html-keyboard-response","302","212077","0.0-302.0","32M8BPYGAU8JWQ9CG7IRGOCNWZ7GIT","AOS2PVHT2HYTL","3JUDR1D0D6D4CARU3YX9Y3DK5DJ2QK","","null","<img src=""img/land3.png"" style=""width:200px;border:14px solid red;"">","null","","","","","","","","","",""
"","image-keyboard-response","303","213018","0.0-303.0","32M8BPYGAU8JWQ9CG7IRGOCNWZ7GIT","AOS2PVHT2HYTL","3JUDR1D0D6D4CARU3YX9Y3DK5DJ2QK","","938.2999999523163","img/land1.png","76","940.8000001907349","3","0","1","2","0.8,0.2,0.2,0.2,0.8,0.2,0.2,0.2,0.8","0.2,0.2,0.8,0.8,0.2,0.2,0.2,0.8,0.2","2","",""
"","html-keyboard-response","304","213322","0.0-304.0","32M8BPYGAU8JWQ9CG7IRGOCNWZ7GIT","AOS2PVHT2HYTL","3JUDR1D0D6D4CARU3YX9Y3DK5DJ2QK","","null","<img src=""img/land1.png"" style=""width:200px;border:14px solid red;"">","null","","","","","","","","","",""
"","image-keyboard-response","305","213969","0.0-305.0","32M8BPYGAU8JWQ9CG7IRGOCNWZ7GIT","AOS2PVHT2HYTL","3JUDR1D0D6D4CARU3YX9Y3DK5DJ2QK","","644.3000001907349","img/land1.png","76","647","3","1","1","2","0.8,0.2,0.2,0.2,0.8,0.2,0.2,0.2,0.8","0.2,0.2,0.8,0.8,0.2,0.2,0.2,0.8,0.2","2","",""
"","html-keyboard-response","306","214274","0.0-306.0","32M8BPYGAU8JWQ9CG7IRGOCNWZ7GIT","AOS2PVHT2HYTL","3JUDR1D0D6D4CARU3YX9Y3DK5DJ2QK","","null","<img src=""img/land1.png"" style=""width:200px; border:14px solid green;"">","null","","","","","","","","","",""
"","image-keyboard-response","307","215286","0.0-307.0","32M8BPYGAU8JWQ9CG7IRGOCNWZ7GIT","AOS2PVHT2HYTL","3JUDR1D0D6D4CARU3YX9Y3DK5DJ2QK","","1009.1000001430511","img/land3.png","74","1011.5999999046326","1","1","2","2","0.8,0.2,0.2,0.2,0.8,0.2,0.2,0.2,0.8","0.2,0.2,0.8,0.8,0.2,0.2,0.2,0.8,0.2","2","",""
"","html-keyboard-response","308","215590","0.0-308.0","32M8BPYGAU8JWQ9CG7IRGOCNWZ7GIT","AOS2PVHT2HYTL","3JUDR1D0D6D4CARU3YX9Y3DK5DJ2QK","","null","<img src=""img/land3.png"" style=""width:200px; border:14px solid green;"">","null","","","","","","","","","",""
"","image-keyboard-response","309","216285","0.0-309.0","32M8BPYGAU8JWQ9CG7IRGOCNWZ7GIT","AOS2PVHT2HYTL","3JUDR1D0D6D4CARU3YX9Y3DK5DJ2QK","","691.5999999046326","img/land1.png","76","694.2000000476837","3","1","1","2","0.8,0.2,0.2,0.2,0.8,0.2,0.2,0.2,0.8","0.2,0.2,0.8,0.8,0.2,0.2,0.2,0.8,0.2","2","",""
"","html-keyboard-response","310","216588","0.0-310.0","32M8BPYGAU8JWQ9CG7IRGOCNWZ7GIT","AOS2PVHT2HYTL","3JUDR1D0D6D4CARU3YX9Y3DK5DJ2QK","","null","<img src=""img/land1.png"" style=""width:200px; border:14px solid green;"">","null","","","","","","","","","",""
"","image-keyboard-response","311","217569","0.0-311.0","32M8BPYGAU8JWQ9CG7IRGOCNWZ7GIT","AOS2PVHT2HYTL","3JUDR1D0D6D4CARU3YX9Y3DK5DJ2QK","","977.1999998092651","img/land2.png","75","980","2","1","3","2","0.8,0.2,0.2,0.2,0.8,0.2,0.2,0.2,0.8","0.2,0.2,0.8,0.8,0.2,0.2,0.2,0.8,0.2","2","",""
"","html-keyboard-response","312","217873","0.0-312.0","32M8BPYGAU8JWQ9CG7IRGOCNWZ7GIT","AOS2PVHT2HYTL","3JUDR1D0D6D4CARU3YX9Y3DK5DJ2QK","","null","<img src=""img/land2.png"" style=""width:200px; border:14px solid green;"">","null","","","","","","","","","",""
"","image-keyboard-response","313","218774","0.0-313.0","32M8BPYGAU8JWQ9CG7IRGOCNWZ7GIT","AOS2PVHT2HYTL","3JUDR1D0D6D4CARU3YX9Y3DK5DJ2QK","","898.9000000953674","img/land3.png","74","901.1000001430511","1","1","2","2","0.8,0.2,0.2,0.2,0.8,0.2,0.2,0.2,0.8","0.2,0.2,0.8,0.8,0.2,0.2,0.2,0.8,0.2","2","",""
"","html-keyboard-response","314","219079","0.0-314.0","32M8BPYGAU8JWQ9CG7IRGOCNWZ7GIT","AOS2PVHT2HYTL","3JUDR1D0D6D4CARU3YX9Y3DK5DJ2QK","","null","<img src=""img/land3.png"" style=""width:200px; border:14px solid green;"">","null","","","","","","","","","",""
"","image-keyboard-response","315","220072","0.0-315.0","32M8BPYGAU8JWQ9CG7IRGOCNWZ7GIT","AOS2PVHT2HYTL","3JUDR1D0D6D4CARU3YX9Y3DK5DJ2QK","","987.3999998569489","img/land1.png","76","990.2999999523163","3","1","1","2","0.8,0.2,0.2,0.2,0.8,0.2,0.2,0.2,0.8","0.2,0.2,0.8,0.8,0.2,0.2,0.2,0.8,0.2","2","",""
"","html-keyboard-response","316","220395","0.0-316.0","32M8BPYGAU8JWQ9CG7IRGOCNWZ7GIT","AOS2PVHT2HYTL","3JUDR1D0D6D4CARU3YX9Y3DK5DJ2QK","","null","<img src=""img/land1.png"" style=""width:200px; border:14px solid green;"">","null","","","","","","","","","",""
"","image-keyboard-response","317","221079","0.0-317.0","32M8BPYGAU8JWQ9CG7IRGOCNWZ7GIT","AOS2PVHT2HYTL","3JUDR1D0D6D4CARU3YX9Y3DK5DJ2QK","","681.6999998092651","img/land1.png","76","683.7999999523163","3","1","1","2","0.8,0.2,0.2,0.2,0.8,0.2,0.2,0.2,0.8","0.2,0.2,0.8,0.8,0.2,0.2,0.2,0.8,0.2","2","",""
"","html-keyboard-response","318","221384","0.0-318.0","32M8BPYGAU8JWQ9CG7IRGOCNWZ7GIT","AOS2PVHT2HYTL","3JUDR1D0D6D4CARU3YX9Y3DK5DJ2QK","","null","<img src=""img/land1.png"" style=""width:200px; border:14px solid green;"">","null","","","","","","","","","",""
"","image-keyboard-response","319","221974","0.0-319.0","32M8BPYGAU8JWQ9CG7IRGOCNWZ7GIT","AOS2PVHT2HYTL","3JUDR1D0D6D4CARU3YX9Y3DK5DJ2QK","","586.3999998569489","img/land1.png","76","589.0999999046326","3","1","1","2","0.8,0.2,0.2,0.2,0.8,0.2,0.2,0.2,0.8","0.2,0.2,0.8,0.8,0.2,0.2,0.2,0.8,0.2","2","",""
"","html-keyboard-response","320","222285","0.0-320.0","32M8BPYGAU8JWQ9CG7IRGOCNWZ7GIT","AOS2PVHT2HYTL","3JUDR1D0D6D4CARU3YX9Y3DK5DJ2QK","","null","<img src=""img/land1.png"" style=""width:200px; border:14px solid green;"">","null","","","","","","","","","",""
"","image-keyboard-response","321","222735","0.0-321.0","32M8BPYGAU8JWQ9CG7IRGOCNWZ7GIT","AOS2PVHT2HYTL","3JUDR1D0D6D4CARU3YX9Y3DK5DJ2QK","","448.09999990463257","img/land1.png","76","450.09999990463257","3","1","1","2","0.8,0.2,0.2,0.2,0.8,0.2,0.2,0.2,0.8","0.2,0.2,0.8,0.8,0.2,0.2,0.2,0.8,0.2","2","",""
"","html-keyboard-response","322","223039","0.0-322.0","32M8BPYGAU8JWQ9CG7IRGOCNWZ7GIT","AOS2PVHT2HYTL","3JUDR1D0D6D4CARU3YX9Y3DK5DJ2QK","","null","<img src=""img/land1.png"" style=""width:200px; border:14px solid green;"">","null","","","","","","","","","",""
"","image-keyboard-response","323","223524","0.0-323.0","32M8BPYGAU8JWQ9CG7IRGOCNWZ7GIT","AOS2PVHT2HYTL","3JUDR1D0D6D4CARU3YX9Y3DK5DJ2QK","","481.59999990463257","img/land1.png","76","484.7000000476837","3","1","1","2","0.8,0.2,0.2,0.2,0.8,0.2,0.2,0.2,0.8","0.2,0.2,0.8,0.8,0.2,0.2,0.2,0.8,0.2","2","",""
"","html-keyboard-response","324","223855","0.0-324.0","32M8BPYGAU8JWQ9CG7IRGOCNWZ7GIT","AOS2PVHT2HYTL","3JUDR1D0D6D4CARU3YX9Y3DK5DJ2QK","","null","<img src=""img/land1.png"" style=""width:200px; border:14px solid green;"">","null","","","","","","","","","",""
"","image-keyboard-response","325","224580","0.0-325.0","32M8BPYGAU8JWQ9CG7IRGOCNWZ7GIT","AOS2PVHT2HYTL","3JUDR1D0D6D4CARU3YX9Y3DK5DJ2QK","","720","img/land2.png","75","724.7000000476837","2","1","3","2","0.8,0.2,0.2,0.2,0.8,0.2,0.2,0.2,0.8","0.2,0.2,0.8,0.8,0.2,0.2,0.2,0.8,0.2","2","",""
"","html-keyboard-response","326","224884","0.0-326.0","32M8BPYGAU8JWQ9CG7IRGOCNWZ7GIT","AOS2PVHT2HYTL","3JUDR1D0D6D4CARU3YX9Y3DK5DJ2QK","","null","<img src=""img/land2.png"" style=""width:200px; border:14px solid green;"">","null","","","","","","","","","",""
"","image-keyboard-response","327","225508","0.0-327.0","32M8BPYGAU8JWQ9CG7IRGOCNWZ7GIT","AOS2PVHT2HYTL","3JUDR1D0D6D4CARU3YX9Y3DK5DJ2QK","","621.9000000953674","img/land1.png","76","623.8000001907349","3","1","1","2","0.8,0.2,0.2,0.2,0.8,0.2,0.2,0.2,0.8","0.2,0.2,0.8,0.8,0.2,0.2,0.2,0.8,0.2","2","",""
"","html-keyboard-response","328","225811","0.0-328.0","32M8BPYGAU8JWQ9CG7IRGOCNWZ7GIT","AOS2PVHT2HYTL","3JUDR1D0D6D4CARU3YX9Y3DK5DJ2QK","","null","<img src=""img/land1.png"" style=""width:200px; border:14px solid green;"">","null","","","","","","","","","",""
"","image-keyboard-response","329","226365","0.0-329.0","32M8BPYGAU8JWQ9CG7IRGOCNWZ7GIT","AOS2PVHT2HYTL","3JUDR1D0D6D4CARU3YX9Y3DK5DJ2QK","","550.9000000953674","img/land2.png","75","553","2","1","3","2","0.8,0.2,0.2,0.2,0.8,0.2,0.2,0.2,0.8","0.2,0.2,0.8,0.8,0.2,0.2,0.2,0.8,0.2","2","",""
"","html-keyboard-response","330","226667","0.0-330.0","32M8BPYGAU8JWQ9CG7IRGOCNWZ7GIT","AOS2PVHT2HYTL","3JUDR1D0D6D4CARU3YX9Y3DK5DJ2QK","","null","<img src=""img/land2.png"" style=""width:200px; border:14px solid green;"">","null","","","","","","","","","",""
"","image-keyboard-response","331","227082","0.0-331.0","32M8BPYGAU8JWQ9CG7IRGOCNWZ7GIT","AOS2PVHT2HYTL","3JUDR1D0D6D4CARU3YX9Y3DK5DJ2QK","","413.60000014305115","img/land1.png","76","415.60000014305115","3","1","1","2","0.8,0.2,0.2,0.2,0.8,0.2,0.2,0.2,0.8","0.2,0.2,0.8,0.8,0.2,0.2,0.2,0.8,0.2","2","",""
"","html-keyboard-response","332","227387","0.0-332.0","32M8BPYGAU8JWQ9CG7IRGOCNWZ7GIT","AOS2PVHT2HYTL","3JUDR1D0D6D4CARU3YX9Y3DK5DJ2QK","","null","<img src=""img/land1.png"" style=""width:200px; border:14px solid green;"">","null","","","","","","","","","",""
"","image-keyboard-response","333","227898","0.0-333.0","32M8BPYGAU8JWQ9CG7IRGOCNWZ7GIT","AOS2PVHT2HYTL","3JUDR1D0D6D4CARU3YX9Y3DK5DJ2QK","","508.89999985694885","img/land3.png","74","511","1","1","2","2","0.8,0.2,0.2,0.2,0.8,0.2,0.2,0.2,0.8","0.2,0.2,0.8,0.8,0.2,0.2,0.2,0.8,0.2","2","",""
"","html-keyboard-response","334","228201","0.0-334.0","32M8BPYGAU8JWQ9CG7IRGOCNWZ7GIT","AOS2PVHT2HYTL","3JUDR1D0D6D4CARU3YX9Y3DK5DJ2QK","","null","<img src=""img/land3.png"" style=""width:200px; border:14px solid green;"">","null","","","","","","","","","",""
"","image-keyboard-response","335","228736","0.0-335.0","32M8BPYGAU8JWQ9CG7IRGOCNWZ7GIT","AOS2PVHT2HYTL","3JUDR1D0D6D4CARU3YX9Y3DK5DJ2QK","","531.9000000953674","img/land2.png","76","534.6000001430511","3","0","3","2","0.8,0.2,0.2,0.2,0.8,0.2,0.2,0.2,0.8","0.2,0.2,0.8,0.8,0.2,0.2,0.2,0.8,0.2","2","",""
"","html-keyboard-response","336","229040","0.0-336.0","32M8BPYGAU8JWQ9CG7IRGOCNWZ7GIT","AOS2PVHT2HYTL","3JUDR1D0D6D4CARU3YX9Y3DK5DJ2QK","","null","<img src=""img/land2.png"" style=""width:200px;border:14px solid red;"">","null","","","","","","","","","",""
"","image-keyboard-response","337","230016","0.0-337.0","32M8BPYGAU8JWQ9CG7IRGOCNWZ7GIT","AOS2PVHT2HYTL","3JUDR1D0D6D4CARU3YX9Y3DK5DJ2QK","","972.8999998569489","img/land1.png","75","975.8999998569489","2","0","1","2","0.8,0.2,0.2,0.2,0.8,0.2,0.2,0.2,0.8","0.2,0.2,0.8,0.8,0.2,0.2,0.2,0.8,0.2","2","",""
"","html-keyboard-response","338","230323","0.0-338.0","32M8BPYGAU8JWQ9CG7IRGOCNWZ7GIT","AOS2PVHT2HYTL","3JUDR1D0D6D4CARU3YX9Y3DK5DJ2QK","","null","<img src=""img/land1.png"" style=""width:200px;border:14px solid red;"">","null","","","","","","","","","",""
"","image-keyboard-response","339","231569","0.0-339.0","32M8BPYGAU8JWQ9CG7IRGOCNWZ7GIT","AOS2PVHT2HYTL","3JUDR1D0D6D4CARU3YX9Y3DK5DJ2QK","","1244.5","img/land2.png","75","1246.5999999046326","2","1","3","2","0.8,0.2,0.2,0.2,0.8,0.2,0.2,0.2,0.8","0.2,0.2,0.8,0.8,0.2,0.2,0.2,0.8,0.2","2","",""
"","html-keyboard-response","340","231875","0.0-340.0","32M8BPYGAU8JWQ9CG7IRGOCNWZ7GIT","AOS2PVHT2HYTL","3JUDR1D0D6D4CARU3YX9Y3DK5DJ2QK","","null","<img src=""img/land2.png"" style=""width:200px; border:14px solid green;"">","null","","","","","","","","","",""
"","image-keyboard-response","341","232749","0.0-341.0","32M8BPYGAU8JWQ9CG7IRGOCNWZ7GIT","AOS2PVHT2HYTL","3JUDR1D0D6D4CARU3YX9Y3DK5DJ2QK","","870.9000000953674","img/land3.png","74","873.8999998569489","1","1","2","2","0.8,0.2,0.2,0.2,0.8,0.2,0.2,0.2,0.8","0.2,0.2,0.8,0.8,0.2,0.2,0.2,0.8,0.2","2","",""
"","html-keyboard-response","342","233053","0.0-342.0","32M8BPYGAU8JWQ9CG7IRGOCNWZ7GIT","AOS2PVHT2HYTL","3JUDR1D0D6D4CARU3YX9Y3DK5DJ2QK","","null","<img src=""img/land3.png"" style=""width:200px; border:14px solid green;"">","null","","","","","","","","","",""
"","image-keyboard-response","343","233714","0.0-343.0","32M8BPYGAU8JWQ9CG7IRGOCNWZ7GIT","AOS2PVHT2HYTL","3JUDR1D0D6D4CARU3YX9Y3DK5DJ2QK","","658.1000001430511","img/land1.png","76","661","3","0","1","2","0.8,0.2,0.2,0.2,0.8,0.2,0.2,0.2,0.8","0.2,0.2,0.8,0.8,0.2,0.2,0.2,0.8,0.2","2","",""
"","html-keyboard-response","344","234019","0.0-344.0","32M8BPYGAU8JWQ9CG7IRGOCNWZ7GIT","AOS2PVHT2HYTL","3JUDR1D0D6D4CARU3YX9Y3DK5DJ2QK","","null","<img src=""img/land1.png"" style=""width:200px;border:14px solid red;"">","null","","","","","","","","","",""
"","image-keyboard-response","345","234605","0.0-345.0","32M8BPYGAU8JWQ9CG7IRGOCNWZ7GIT","AOS2PVHT2HYTL","3JUDR1D0D6D4CARU3YX9Y3DK5DJ2QK","","581.3999998569489","img/land1.png","76","585.0999999046326","3","1","1","2","0.8,0.2,0.2,0.2,0.8,0.2,0.2,0.2,0.8","0.2,0.2,0.8,0.8,0.2,0.2,0.2,0.8,0.2","2","",""
"","html-keyboard-response","346","234913","0.0-346.0","32M8BPYGAU8JWQ9CG7IRGOCNWZ7GIT","AOS2PVHT2HYTL","3JUDR1D0D6D4CARU3YX9Y3DK5DJ2QK","","null","<img src=""img/land1.png"" style=""width:200px; border:14px solid green;"">","null","","","","","","","","","",""
"","image-keyboard-response","347","236072","0.0-347.0","32M8BPYGAU8JWQ9CG7IRGOCNWZ7GIT","AOS2PVHT2HYTL","3JUDR1D0D6D4CARU3YX9Y3DK5DJ2QK","","1157","img/land3.png","74","1158.5","1","0","2","2","0.8,0.2,0.2,0.2,0.8,0.2,0.2,0.2,0.8","0.2,0.2,0.8,0.8,0.2,0.2,0.2,0.8,0.2","2","",""
"","html-keyboard-response","348","236376","0.0-348.0","32M8BPYGAU8JWQ9CG7IRGOCNWZ7GIT","AOS2PVHT2HYTL","3JUDR1D0D6D4CARU3YX9Y3DK5DJ2QK","","null","<img src=""img/land3.png"" style=""width:200px;border:14px solid red;"">","null","","","","","","","","","",""
"","image-keyboard-response","349","236925","0.0-349.0","32M8BPYGAU8JWQ9CG7IRGOCNWZ7GIT","AOS2PVHT2HYTL","3JUDR1D0D6D4CARU3YX9Y3DK5DJ2QK","","546.8000001907349","img/land3.png","74","548.7999999523163","1","1","2","2","0.8,0.2,0.2,0.2,0.8,0.2,0.2,0.2,0.8","0.2,0.2,0.8,0.8,0.2,0.2,0.2,0.8,0.2","2","",""
"","html-keyboard-response","350","237229","0.0-350.0","32M8BPYGAU8JWQ9CG7IRGOCNWZ7GIT","AOS2PVHT2HYTL","3JUDR1D0D6D4CARU3YX9Y3DK5DJ2QK","","null","<img src=""img/land3.png"" style=""width:200px; border:14px solid green;"">","null","","","","","","","","","",""
"","image-keyboard-response","351","238063","0.0-351.0","32M8BPYGAU8JWQ9CG7IRGOCNWZ7GIT","AOS2PVHT2HYTL","3JUDR1D0D6D4CARU3YX9Y3DK5DJ2QK","","832.2999999523163","img/land1.png","76","834.5","3","0","1","2","0.8,0.2,0.2,0.2,0.8,0.2,0.2,0.2,0.8","0.2,0.2,0.8,0.8,0.2,0.2,0.2,0.8,0.2","2","",""
"","html-keyboard-response","352","238397","0.0-352.0","32M8BPYGAU8JWQ9CG7IRGOCNWZ7GIT","AOS2PVHT2HYTL","3JUDR1D0D6D4CARU3YX9Y3DK5DJ2QK","","null","<img src=""img/land1.png"" style=""width:200px;border:14px solid red;"">","null","","","","","","","","","",""
"","image-keyboard-response","353","238823","0.0-353.0","32M8BPYGAU8JWQ9CG7IRGOCNWZ7GIT","AOS2PVHT2HYTL","3JUDR1D0D6D4CARU3YX9Y3DK5DJ2QK","","424.40000009536743","img/land1.png","76","426.39999985694885","3","0","1","2","0.8,0.2,0.2,0.2,0.8,0.2,0.2,0.2,0.8","0.2,0.2,0.8,0.8,0.2,0.2,0.2,0.8,0.2","2","",""
"","html-keyboard-response","354","239127","0.0-354.0","32M8BPYGAU8JWQ9CG7IRGOCNWZ7GIT","AOS2PVHT2HYTL","3JUDR1D0D6D4CARU3YX9Y3DK5DJ2QK","","null","<img src=""img/land1.png"" style=""width:200px;border:14px solid red;"">","null","","","","","","","","","",""
"","image-keyboard-response","355","239875","0.0-355.0","32M8BPYGAU8JWQ9CG7IRGOCNWZ7GIT","AOS2PVHT2HYTL","3JUDR1D0D6D4CARU3YX9Y3DK5DJ2QK","","744.5","img/land1.png","75","747.2999999523163","2","0","1","2","0.8,0.2,0.2,0.2,0.8,0.2,0.2,0.2,0.8","0.2,0.2,0.8,0.8,0.2,0.2,0.2,0.8,0.2","2","",""
