"success","trial_type","trial_index","time_elapsed","internal_node_id","assignmentID","mturkID","hitID","view_history","rt","stimulus","key_press","reactionTime","a","r","s","cond","reward_cond","reward_cond_actual","reward_matrix_idx","responses","question_order"
"true","fullscreen","0","3412","0.0-0.0","3AQF3RZ5594XP6IG3M3K10M6MY3F60","APDDA1Y59RHV9","3566S7OX5D5NH74JOVOPTTMK8IR17K","","","","","","","","","","","","","",""
"","instructions","1","27875","0.0-1.0","3AQF3RZ5594XP6IG3M3K10M6MY3F60","APDDA1Y59RHV9","3566S7OX5D5NH74JOVOPTTMK8IR17K","[{""page_index"":0,""viewing_time"":2578.7000002861023},{""page_index"":1,""viewing_time"":2333.9000000953674},{""page_index"":2,""viewing_time"":2106.2999997138977},{""page_index"":3,""viewing_time"":8104},{""page_index"":4,""viewing_time"":1857.8000001907349},{""page_index"":5,""viewing_time"":3319.9000000953674},{""page_index"":6,""viewing_time"":4160.199999809265}]","24461.10000038147","","","","","","","","","","","",""
"","image-keyboard-response","2","28380","0.0-2.0","3AQF3RZ5594XP6IG3M3K10M6MY3F60","APDDA1Y59RHV9","3566S7OX5D5NH74JOVOPTTMK8IR17K","","504","img/land6.png","74","505.40000009536743","1","1","3","2","0.8,0.2,0.2,0.2,0.8,0.2,0.2,0.2,0.8","0.2,0.8,0.2,0.2,0.2,0.8,0.8,0.2,0.2","3","",""
"","html-keyboard-response","3","28683","0.0-3.0","3AQF3RZ5594XP6IG3M3K10M6MY3F60","APDDA1Y59RHV9","3566S7OX5D5NH74JOVOPTTMK8IR17K","","null","<img src=""img/land6.png"" style=""width:200px; border:14px solid green;"">","null","","","","","","","","","",""
"","image-keyboard-response","4","29220","0.0-4.0","3AQF3RZ5594XP6IG3M3K10M6MY3F60","APDDA1Y59RHV9","3566S7OX5D5NH74JOVOPTTMK8IR17K","","535.6999998092651","img/land1.png","75","536.5","2","1","1","2","0.8,0.2,0.2,0.2,0.8,0.2,0.2,0.2,0.8","0.2,0.8,0.2,0.2,0.2,0.8,0.8,0.2,0.2","3","",""
"","html-keyboard-response","5","29523","0.0-5.0","3AQF3RZ5594XP6IG3M3K10M6MY3F60","APDDA1Y59RHV9","3566S7OX5D5NH74JOVOPTTMK8IR17K","","null","<img src=""img/land1.png"" style=""width:200px; border:14px solid green;"">","null","","","","","","","","","",""
"","image-keyboard-response","6","30219","0.0-6.0","3AQF3RZ5594XP6IG3M3K10M6MY3F60","APDDA1Y59RHV9","3566S7OX5D5NH74JOVOPTTMK8IR17K","","694.6000003814697","img/land1.png","76","695.5","3","0","1","2","0.8,0.2,0.2,0.2,0.8,0.2,0.2,0.2,0.8","0.2,0.8,0.2,0.2,0.2,0.8,0.8,0.2,0.2","3","",""
"","html-keyboard-response","7","30520","0.0-7.0","3AQF3RZ5594XP6IG3M3K10M6MY3F60","APDDA1Y59RHV9","3566S7OX5D5NH74JOVOPTTMK8IR17K","","null","<img src=""img/land1.png"" style=""width:200px;border:14px solid red;"">","null","","","","","","","","","",""
"","image-keyboard-response","8","31066","0.0-8.0","3AQF3RZ5594XP6IG3M3K10M6MY3F60","APDDA1Y59RHV9","3566S7OX5D5NH74JOVOPTTMK8IR17K","","545","img/land1.png","75","545.8000001907349","2","1","1","2","0.8,0.2,0.2,0.2,0.8,0.2,0.2,0.2,0.8","0.2,0.8,0.2,0.2,0.2,0.8,0.8,0.2,0.2","3","",""
"","html-keyboard-response","9","31368","0.0-9.0","3AQF3RZ5594XP6IG3M3K10M6MY3F60","APDDA1Y59RHV9","3566S7OX5D5NH74JOVOPTTMK8IR17K","","null","<img src=""img/land1.png"" style=""width:200px; border:14px solid green;"">","null","","","","","","","","","",""
"","image-keyboard-response","10","31980","0.0-10.0","3AQF3RZ5594XP6IG3M3K10M6MY3F60","APDDA1Y59RHV9","3566S7OX5D5NH74JOVOPTTMK8IR17K","","609.8000001907349","img/land6.png","76","611.2000002861023","3","1","3","2","0.8,0.2,0.2,0.2,0.8,0.2,0.2,0.2,0.8","0.2,0.8,0.2,0.2,0.2,0.8,0.8,0.2,0.2","3","",""
"","html-keyboard-response","11","32281","0.0-11.0","3AQF3RZ5594XP6IG3M3K10M6MY3F60","APDDA1Y59RHV9","3566S7OX5D5NH74JOVOPTTMK8IR17K","","null","<img src=""img/land6.png"" style=""width:200px; border:14px solid green;"">","null","","","","","","","","","",""
"","image-keyboard-response","12","33083","0.0-12.0","3AQF3RZ5594XP6IG3M3K10M6MY3F60","APDDA1Y59RHV9","3566S7OX5D5NH74JOVOPTTMK8IR17K","","800.3999996185303","img/land1.png","76","801.4000000953674","3","1","1","2","0.8,0.2,0.2,0.2,0.8,0.2,0.2,0.2,0.8","0.2,0.8,0.2,0.2,0.2,0.8,0.8,0.2,0.2","3","",""
"","html-keyboard-response","13","33385","0.0-13.0","3AQF3RZ5594XP6IG3M3K10M6MY3F60","APDDA1Y59RHV9","3566S7OX5D5NH74JOVOPTTMK8IR17K","","null","<img src=""img/land1.png"" style=""width:200px; border:14px solid green;"">","null","","","","","","","","","",""
"","image-keyboard-response","14","34475","0.0-14.0","3AQF3RZ5594XP6IG3M3K10M6MY3F60","APDDA1Y59RHV9","3566S7OX5D5NH74JOVOPTTMK8IR17K","","1088.5","img/land1.png","76","1089.5999999046326","3","0","1","2","0.8,0.2,0.2,0.2,0.8,0.2,0.2,0.2,0.8","0.2,0.8,0.2,0.2,0.2,0.8,0.8,0.2,0.2","3","",""
"","html-keyboard-response","15","34779","0.0-15.0","3AQF3RZ5594XP6IG3M3K10M6MY3F60","APDDA1Y59RHV9","3566S7OX5D5NH74JOVOPTTMK8IR17K","","null","<img src=""img/land1.png"" style=""width:200px;border:14px solid red;"">","null","","","","","","","","","",""
"","image-keyboard-response","16","35130","0.0-16.0","3AQF3RZ5594XP6IG3M3K10M6MY3F60","APDDA1Y59RHV9","3566S7OX5D5NH74JOVOPTTMK8IR17K","","350.09999990463257","img/land1.png","75","351","2","0","1","2","0.8,0.2,0.2,0.2,0.8,0.2,0.2,0.2,0.8","0.2,0.8,0.2,0.2,0.2,0.8,0.8,0.2,0.2","3","",""
"","html-keyboard-response","17","35432","0.0-17.0","3AQF3RZ5594XP6IG3M3K10M6MY3F60","APDDA1Y59RHV9","3566S7OX5D5NH74JOVOPTTMK8IR17K","","null","<img src=""img/land1.png"" style=""width:200px;border:14px solid red;"">","null","","","","","","","","","",""
"","image-keyboard-response","18","35739","0.0-18.0","3AQF3RZ5594XP6IG3M3K10M6MY3F60","APDDA1Y59RHV9","3566S7OX5D5NH74JOVOPTTMK8IR17K","","305.90000009536743","img/land1.png","74","306.90000009536743","1","0","1","2","0.8,0.2,0.2,0.2,0.8,0.2,0.2,0.2,0.8","0.2,0.8,0.2,0.2,0.2,0.8,0.8,0.2,0.2","3","",""
"","html-keyboard-response","19","36044","0.0-19.0","3AQF3RZ5594XP6IG3M3K10M6MY3F60","APDDA1Y59RHV9","3566S7OX5D5NH74JOVOPTTMK8IR17K","","null","<img src=""img/land1.png"" style=""width:200px;border:14px solid red;"">","null","","","","","","","","","",""
"","image-keyboard-response","20","36523","0.0-20.0","3AQF3RZ5594XP6IG3M3K10M6MY3F60","APDDA1Y59RHV9","3566S7OX5D5NH74JOVOPTTMK8IR17K","","477.90000009536743","img/land1.png","75","478.40000009536743","2","0","1","2","0.8,0.2,0.2,0.2,0.8,0.2,0.2,0.2,0.8","0.2,0.8,0.2,0.2,0.2,0.8,0.8,0.2,0.2","3","",""
"","html-keyboard-response","21","36840","0.0-21.0","3AQF3RZ5594XP6IG3M3K10M6MY3F60","APDDA1Y59RHV9","3566S7OX5D5NH74JOVOPTTMK8IR17K","","null","<img src=""img/land1.png"" style=""width:200px;border:14px solid red;"">","null","","","","","","","","","",""
"","image-keyboard-response","22","37453","0.0-22.0","3AQF3RZ5594XP6IG3M3K10M6MY3F60","APDDA1Y59RHV9","3566S7OX5D5NH74JOVOPTTMK8IR17K","","611.3000001907349","img/land1.png","76","612.5","3","0","1","2","0.8,0.2,0.2,0.2,0.8,0.2,0.2,0.2,0.8","0.2,0.8,0.2,0.2,0.2,0.8,0.8,0.2,0.2","3","",""
"","html-keyboard-response","23","37755","0.0-23.0","3AQF3RZ5594XP6IG3M3K10M6MY3F60","APDDA1Y59RHV9","3566S7OX5D5NH74JOVOPTTMK8IR17K","","null","<img src=""img/land1.png"" style=""width:200px;border:14px solid red;"">","null","","","","","","","","","",""
"","image-keyboard-response","24","38483","0.0-24.0","3AQF3RZ5594XP6IG3M3K10M6MY3F60","APDDA1Y59RHV9","3566S7OX5D5NH74JOVOPTTMK8IR17K","","726.1999998092651","img/land3.png","75","727.1999998092651","2","0","2","2","0.8,0.2,0.2,0.2,0.8,0.2,0.2,0.2,0.8","0.2,0.8,0.2,0.2,0.2,0.8,0.8,0.2,0.2","3","",""
"","html-keyboard-response","25","38784","0.0-25.0","3AQF3RZ5594XP6IG3M3K10M6MY3F60","APDDA1Y59RHV9","3566S7OX5D5NH74JOVOPTTMK8IR17K","","null","<img src=""img/land3.png"" style=""width:200px;border:14px solid red;"">","null","","","","","","","","","",""
"","image-keyboard-response","26","39467","0.0-26.0","3AQF3RZ5594XP6IG3M3K10M6MY3F60","APDDA1Y59RHV9","3566S7OX5D5NH74JOVOPTTMK8IR17K","","682.3999996185303","img/land1.png","74","683","1","1","1","2","0.8,0.2,0.2,0.2,0.8,0.2,0.2,0.2,0.8","0.2,0.8,0.2,0.2,0.2,0.8,0.8,0.2,0.2","3","",""
"","html-keyboard-response","27","39769","0.0-27.0","3AQF3RZ5594XP6IG3M3K10M6MY3F60","APDDA1Y59RHV9","3566S7OX5D5NH74JOVOPTTMK8IR17K","","null","<img src=""img/land1.png"" style=""width:200px; border:14px solid green;"">","null","","","","","","","","","",""
"","image-keyboard-response","28","40170","0.0-28.0","3AQF3RZ5594XP6IG3M3K10M6MY3F60","APDDA1Y59RHV9","3566S7OX5D5NH74JOVOPTTMK8IR17K","","400.5","img/land1.png","74","401.09999990463257","1","0","1","2","0.8,0.2,0.2,0.2,0.8,0.2,0.2,0.2,0.8","0.2,0.8,0.2,0.2,0.2,0.8,0.8,0.2,0.2","3","",""
"","html-keyboard-response","29","40472","0.0-29.0","3AQF3RZ5594XP6IG3M3K10M6MY3F60","APDDA1Y59RHV9","3566S7OX5D5NH74JOVOPTTMK8IR17K","","null","<img src=""img/land1.png"" style=""width:200px;border:14px solid red;"">","null","","","","","","","","","",""
"","image-keyboard-response","30","40851","0.0-30.0","3AQF3RZ5594XP6IG3M3K10M6MY3F60","APDDA1Y59RHV9","3566S7OX5D5NH74JOVOPTTMK8IR17K","","378","img/land1.png","74","378.5","1","0","1","2","0.8,0.2,0.2,0.2,0.8,0.2,0.2,0.2,0.8","0.2,0.8,0.2,0.2,0.2,0.8,0.8,0.2,0.2","3","",""
"","html-keyboard-response","31","41152","0.0-31.0","3AQF3RZ5594XP6IG3M3K10M6MY3F60","APDDA1Y59RHV9","3566S7OX5D5NH74JOVOPTTMK8IR17K","","null","<img src=""img/land1.png"" style=""width:200px;border:14px solid red;"">","null","","","","","","","","","",""
"","image-keyboard-response","32","41268","0.0-32.0","3AQF3RZ5594XP6IG3M3K10M6MY3F60","APDDA1Y59RHV9","3566S7OX5D5NH74JOVOPTTMK8IR17K","","115.39999961853027","img/land6.png","75","116.19999980926514","2","1","3","2","0.8,0.2,0.2,0.2,0.8,0.2,0.2,0.2,0.8","0.2,0.8,0.2,0.2,0.2,0.8,0.8,0.2,0.2","3","",""
"","html-keyboard-response","33","41570","0.0-33.0","3AQF3RZ5594XP6IG3M3K10M6MY3F60","APDDA1Y59RHV9","3566S7OX5D5NH74JOVOPTTMK8IR17K","","null","<img src=""img/land6.png"" style=""width:200px; border:14px solid green;"">","null","","","","","","","","","",""
"","image-keyboard-response","34","41956","0.0-34.0","3AQF3RZ5594XP6IG3M3K10M6MY3F60","APDDA1Y59RHV9","3566S7OX5D5NH74JOVOPTTMK8IR17K","","385.09999990463257","img/land3.png","75","385.80000019073486","2","0","2","2","0.8,0.2,0.2,0.2,0.8,0.2,0.2,0.2,0.8","0.2,0.8,0.2,0.2,0.2,0.8,0.8,0.2,0.2","3","",""
"","html-keyboard-response","35","42258","0.0-35.0","3AQF3RZ5594XP6IG3M3K10M6MY3F60","APDDA1Y59RHV9","3566S7OX5D5NH74JOVOPTTMK8IR17K","","null","<img src=""img/land3.png"" style=""width:200px;border:14px solid red;"">","null","","","","","","","","","",""
"","image-keyboard-response","36","42515","0.0-36.0","3AQF3RZ5594XP6IG3M3K10M6MY3F60","APDDA1Y59RHV9","3566S7OX5D5NH74JOVOPTTMK8IR17K","","254.90000009536743","img/land1.png","75","255.90000009536743","2","1","1","2","0.8,0.2,0.2,0.2,0.8,0.2,0.2,0.2,0.8","0.2,0.8,0.2,0.2,0.2,0.8,0.8,0.2,0.2","3","",""
"","html-keyboard-response","37","42819","0.0-37.0","3AQF3RZ5594XP6IG3M3K10M6MY3F60","APDDA1Y59RHV9","3566S7OX5D5NH74JOVOPTTMK8IR17K","","null","<img src=""img/land1.png"" style=""width:200px; border:14px solid green;"">","null","","","","","","","","","",""
"","image-keyboard-response","38","43203","0.0-38.0","3AQF3RZ5594XP6IG3M3K10M6MY3F60","APDDA1Y59RHV9","3566S7OX5D5NH74JOVOPTTMK8IR17K","","383.30000019073486","img/land6.png","74","384.30000019073486","1","1","3","2","0.8,0.2,0.2,0.2,0.8,0.2,0.2,0.2,0.8","0.2,0.8,0.2,0.2,0.2,0.8,0.8,0.2,0.2","3","",""
"","html-keyboard-response","39","43505","0.0-39.0","3AQF3RZ5594XP6IG3M3K10M6MY3F60","APDDA1Y59RHV9","3566S7OX5D5NH74JOVOPTTMK8IR17K","","null","<img src=""img/land6.png"" style=""width:200px; border:14px solid green;"">","null","","","","","","","","","",""
"","image-keyboard-response","40","43723","0.0-40.0","3AQF3RZ5594XP6IG3M3K10M6MY3F60","APDDA1Y59RHV9","3566S7OX5D5NH74JOVOPTTMK8IR17K","","217.09999990463257","img/land1.png","74","217.59999990463257","1","1","1","2","0.8,0.2,0.2,0.2,0.8,0.2,0.2,0.2,0.8","0.2,0.8,0.2,0.2,0.2,0.8,0.8,0.2,0.2","3","",""
"","html-keyboard-response","41","44024","0.0-41.0","3AQF3RZ5594XP6IG3M3K10M6MY3F60","APDDA1Y59RHV9","3566S7OX5D5NH74JOVOPTTMK8IR17K","","null","<img src=""img/land1.png"" style=""width:200px; border:14px solid green;"">","null","","","","","","","","","",""
"","image-keyboard-response","42","44499","0.0-42.0","3AQF3RZ5594XP6IG3M3K10M6MY3F60","APDDA1Y59RHV9","3566S7OX5D5NH74JOVOPTTMK8IR17K","","473.59999990463257","img/land1.png","74","474.30000019073486","1","1","1","2","0.8,0.2,0.2,0.2,0.8,0.2,0.2,0.2,0.8","0.2,0.8,0.2,0.2,0.2,0.8,0.8,0.2,0.2","3","",""
"","html-keyboard-response","43","44800","0.0-43.0","3AQF3RZ5594XP6IG3M3K10M6MY3F60","APDDA1Y59RHV9","3566S7OX5D5NH74JOVOPTTMK8IR17K","","null","<img src=""img/land1.png"" style=""width:200px; border:14px solid green;"">","null","","","","","","","","","",""
"","image-keyboard-response","44","45164","0.0-44.0","3AQF3RZ5594XP6IG3M3K10M6MY3F60","APDDA1Y59RHV9","3566S7OX5D5NH74JOVOPTTMK8IR17K","","363","img/land1.png","74","363.7999997138977","1","0","1","2","0.8,0.2,0.2,0.2,0.8,0.2,0.2,0.2,0.8","0.2,0.8,0.2,0.2,0.2,0.8,0.8,0.2,0.2","3","",""
"","html-keyboard-response","45","45465","0.0-45.0","3AQF3RZ5594XP6IG3M3K10M6MY3F60","APDDA1Y59RHV9","3566S7OX5D5NH74JOVOPTTMK8IR17K","","null","<img src=""img/land1.png"" style=""width:200px;border:14px solid red;"">","null","","","","","","","","","",""
"","image-keyboard-response","46","45940","0.0-46.0","3AQF3RZ5594XP6IG3M3K10M6MY3F60","APDDA1Y59RHV9","3566S7OX5D5NH74JOVOPTTMK8IR17K","","473.09999990463257","img/land1.png","75","474.19999980926514","2","1","1","2","0.8,0.2,0.2,0.2,0.8,0.2,0.2,0.2,0.8","0.2,0.8,0.2,0.2,0.2,0.8,0.8,0.2,0.2","3","",""
"","html-keyboard-response","47","46242","0.0-47.0","3AQF3RZ5594XP6IG3M3K10M6MY3F60","APDDA1Y59RHV9","3566S7OX5D5NH74JOVOPTTMK8IR17K","","null","<img src=""img/land1.png"" style=""width:200px; border:14px solid green;"">","null","","","","","","","","","",""
"","image-keyboard-response","48","46522","0.0-48.0","3AQF3RZ5594XP6IG3M3K10M6MY3F60","APDDA1Y59RHV9","3566S7OX5D5NH74JOVOPTTMK8IR17K","","279","img/land3.png","75","279.90000009536743","2","0","2","2","0.8,0.2,0.2,0.2,0.8,0.2,0.2,0.2,0.8","0.2,0.8,0.2,0.2,0.2,0.8,0.8,0.2,0.2","3","",""
"","html-keyboard-response","49","46824","0.0-49.0","3AQF3RZ5594XP6IG3M3K10M6MY3F60","APDDA1Y59RHV9","3566S7OX5D5NH74JOVOPTTMK8IR17K","","null","<img src=""img/land3.png"" style=""width:200px;border:14px solid red;"">","null","","","","","","","","","",""
"","image-keyboard-response","50","47060","0.0-50.0","3AQF3RZ5594XP6IG3M3K10M6MY3F60","APDDA1Y59RHV9","3566S7OX5D5NH74JOVOPTTMK8IR17K","","233.5","img/land3.png","75","234.69999980926514","2","1","2","2","0.8,0.2,0.2,0.2,0.8,0.2,0.2,0.2,0.8","0.2,0.8,0.2,0.2,0.2,0.8,0.8,0.2,0.2","3","",""
"","html-keyboard-response","51","47362","0.0-51.0","3AQF3RZ5594XP6IG3M3K10M6MY3F60","APDDA1Y59RHV9","3566S7OX5D5NH74JOVOPTTMK8IR17K","","null","<img src=""img/land3.png"" style=""width:200px; border:14px solid green;"">","null","","","","","","","","","",""
"","image-keyboard-response","52","47523","0.0-52.0","3AQF3RZ5594XP6IG3M3K10M6MY3F60","APDDA1Y59RHV9","3566S7OX5D5NH74JOVOPTTMK8IR17K","","159.40000009536743","img/land1.png","76","160.30000019073486","3","0","1","2","0.8,0.2,0.2,0.2,0.8,0.2,0.2,0.2,0.8","0.2,0.8,0.2,0.2,0.2,0.8,0.8,0.2,0.2","3","",""
"","html-keyboard-response","53","47824","0.0-53.0","3AQF3RZ5594XP6IG3M3K10M6MY3F60","APDDA1Y59RHV9","3566S7OX5D5NH74JOVOPTTMK8IR17K","","null","<img src=""img/land1.png"" style=""width:200px;border:14px solid red;"">","null","","","","","","","","","",""
"","image-keyboard-response","54","48052","0.0-54.0","3AQF3RZ5594XP6IG3M3K10M6MY3F60","APDDA1Y59RHV9","3566S7OX5D5NH74JOVOPTTMK8IR17K","","226","img/land1.png","76","227.2999997138977","3","1","1","2","0.8,0.2,0.2,0.2,0.8,0.2,0.2,0.2,0.8","0.2,0.8,0.2,0.2,0.2,0.8,0.8,0.2,0.2","3","",""
"","html-keyboard-response","55","48355","0.0-55.0","3AQF3RZ5594XP6IG3M3K10M6MY3F60","APDDA1Y59RHV9","3566S7OX5D5NH74JOVOPTTMK8IR17K","","null","<img src=""img/land1.png"" style=""width:200px; border:14px solid green;"">","null","","","","","","","","","",""
"","image-keyboard-response","56","48672","0.0-56.0","3AQF3RZ5594XP6IG3M3K10M6MY3F60","APDDA1Y59RHV9","3566S7OX5D5NH74JOVOPTTMK8IR17K","","315.5","img/land1.png","76","316.6000003814697","3","1","1","2","0.8,0.2,0.2,0.2,0.8,0.2,0.2,0.2,0.8","0.2,0.8,0.2,0.2,0.2,0.8,0.8,0.2,0.2","3","",""
"","html-keyboard-response","57","48975","0.0-57.0","3AQF3RZ5594XP6IG3M3K10M6MY3F60","APDDA1Y59RHV9","3566S7OX5D5NH74JOVOPTTMK8IR17K","","null","<img src=""img/land1.png"" style=""width:200px; border:14px solid green;"">","null","","","","","","","","","",""
"","image-keyboard-response","58","49244","0.0-58.0","3AQF3RZ5594XP6IG3M3K10M6MY3F60","APDDA1Y59RHV9","3566S7OX5D5NH74JOVOPTTMK8IR17K","","267.69999980926514","img/land1.png","76","268.90000009536743","3","0","1","2","0.8,0.2,0.2,0.2,0.8,0.2,0.2,0.2,0.8","0.2,0.8,0.2,0.2,0.2,0.8,0.8,0.2,0.2","3","",""
"","html-keyboard-response","59","49546","0.0-59.0","3AQF3RZ5594XP6IG3M3K10M6MY3F60","APDDA1Y59RHV9","3566S7OX5D5NH74JOVOPTTMK8IR17K","","null","<img src=""img/land1.png"" style=""width:200px;border:14px solid red;"">","null","","","","","","","","","",""
"","image-keyboard-response","60","49643","0.0-60.0","3AQF3RZ5594XP6IG3M3K10M6MY3F60","APDDA1Y59RHV9","3566S7OX5D5NH74JOVOPTTMK8IR17K","","96","img/land6.png","75","96.7000002861023","2","0","3","2","0.8,0.2,0.2,0.2,0.8,0.2,0.2,0.2,0.8","0.2,0.8,0.2,0.2,0.2,0.8,0.8,0.2,0.2","3","",""
"","html-keyboard-response","61","49944","0.0-61.0","3AQF3RZ5594XP6IG3M3K10M6MY3F60","APDDA1Y59RHV9","3566S7OX5D5NH74JOVOPTTMK8IR17K","","null","<img src=""img/land6.png"" style=""width:200px;border:14px solid red;"">","null","","","","","","","","","",""
"","image-keyboard-response","62","49996","0.0-62.0","3AQF3RZ5594XP6IG3M3K10M6MY3F60","APDDA1Y59RHV9","3566S7OX5D5NH74JOVOPTTMK8IR17K","","50.60000038146973","img/land1.png","75","51.5","2","1","1","2","0.8,0.2,0.2,0.2,0.8,0.2,0.2,0.2,0.8","0.2,0.8,0.2,0.2,0.2,0.8,0.8,0.2,0.2","3","",""
"","html-keyboard-response","63","50297","0.0-63.0","3AQF3RZ5594XP6IG3M3K10M6MY3F60","APDDA1Y59RHV9","3566S7OX5D5NH74JOVOPTTMK8IR17K","","null","<img src=""img/land1.png"" style=""width:200px; border:14px solid green;"">","null","","","","","","","","","",""
"","image-keyboard-response","64","50444","0.0-64.0","3AQF3RZ5594XP6IG3M3K10M6MY3F60","APDDA1Y59RHV9","3566S7OX5D5NH74JOVOPTTMK8IR17K","","145.69999980926514","img/land6.png","74","146.40000009536743","1","0","3","2","0.8,0.2,0.2,0.2,0.8,0.2,0.2,0.2,0.8","0.2,0.8,0.2,0.2,0.2,0.8,0.8,0.2,0.2","3","",""
"","html-keyboard-response","65","50753","0.0-65.0","3AQF3RZ5594XP6IG3M3K10M6MY3F60","APDDA1Y59RHV9","3566S7OX5D5NH74JOVOPTTMK8IR17K","","null","<img src=""img/land6.png"" style=""width:200px;border:14px solid red;"">","null","","","","","","","","","",""
"","image-keyboard-response","66","50940","0.0-66.0","3AQF3RZ5594XP6IG3M3K10M6MY3F60","APDDA1Y59RHV9","3566S7OX5D5NH74JOVOPTTMK8IR17K","","186.19999980926514","img/land1.png","74","187","1","0","1","2","0.8,0.2,0.2,0.2,0.8,0.2,0.2,0.2,0.8","0.2,0.8,0.2,0.2,0.2,0.8,0.8,0.2,0.2","3","",""
"","html-keyboard-response","67","51242","0.0-67.0","3AQF3RZ5594XP6IG3M3K10M6MY3F60","APDDA1Y59RHV9","3566S7OX5D5NH74JOVOPTTMK8IR17K","","null","<img src=""img/land1.png"" style=""width:200px;border:14px solid red;"">","null","","","","","","","","","",""
"","image-keyboard-response","68","51420","0.0-68.0","3AQF3RZ5594XP6IG3M3K10M6MY3F60","APDDA1Y59RHV9","3566S7OX5D5NH74JOVOPTTMK8IR17K","","176.5","img/land3.png","75","177.5","2","0","2","2","0.8,0.2,0.2,0.2,0.8,0.2,0.2,0.2,0.8","0.2,0.8,0.2,0.2,0.2,0.8,0.8,0.2,0.2","3","",""
"","html-keyboard-response","69","51722","0.0-69.0","3AQF3RZ5594XP6IG3M3K10M6MY3F60","APDDA1Y59RHV9","3566S7OX5D5NH74JOVOPTTMK8IR17K","","null","<img src=""img/land3.png"" style=""width:200px;border:14px solid red;"">","null","","","","","","","","","",""
"","image-keyboard-response","70","51931","0.0-70.0","3AQF3RZ5594XP6IG3M3K10M6MY3F60","APDDA1Y59RHV9","3566S7OX5D5NH74JOVOPTTMK8IR17K","","208.60000038146973","img/land1.png","76","209.19999980926514","3","0","1","2","0.8,0.2,0.2,0.2,0.8,0.2,0.2,0.2,0.8","0.2,0.8,0.2,0.2,0.2,0.8,0.8,0.2,0.2","3","",""
"","html-keyboard-response","71","52233","0.0-71.0","3AQF3RZ5594XP6IG3M3K10M6MY3F60","APDDA1Y59RHV9","3566S7OX5D5NH74JOVOPTTMK8IR17K","","null","<img src=""img/land1.png"" style=""width:200px;border:14px solid red;"">","null","","","","","","","","","",""
"","image-keyboard-response","72","52404","0.0-72.0","3AQF3RZ5594XP6IG3M3K10M6MY3F60","APDDA1Y59RHV9","3566S7OX5D5NH74JOVOPTTMK8IR17K","","169.59999990463257","img/land1.png","75","170.59999990463257","2","1","1","2","0.8,0.2,0.2,0.2,0.8,0.2,0.2,0.2,0.8","0.2,0.8,0.2,0.2,0.2,0.8,0.8,0.2,0.2","3","",""
"","html-keyboard-response","73","52705","0.0-73.0","3AQF3RZ5594XP6IG3M3K10M6MY3F60","APDDA1Y59RHV9","3566S7OX5D5NH74JOVOPTTMK8IR17K","","null","<img src=""img/land1.png"" style=""width:200px; border:14px solid green;"">","null","","","","","","","","","",""
"","image-keyboard-response","74","52915","0.0-74.0","3AQF3RZ5594XP6IG3M3K10M6MY3F60","APDDA1Y59RHV9","3566S7OX5D5NH74JOVOPTTMK8IR17K","","208.59999990463257","img/land3.png","74","209.09999990463257","1","0","2","2","0.8,0.2,0.2,0.2,0.8,0.2,0.2,0.2,0.8","0.2,0.8,0.2,0.2,0.2,0.8,0.8,0.2,0.2","3","",""
"","html-keyboard-response","75","53216","0.0-75.0","3AQF3RZ5594XP6IG3M3K10M6MY3F60","APDDA1Y59RHV9","3566S7OX5D5NH74JOVOPTTMK8IR17K","","null","<img src=""img/land3.png"" style=""width:200px;border:14px solid red;"">","null","","","","","","","","","",""
"","image-keyboard-response","76","53386","0.0-76.0","3AQF3RZ5594XP6IG3M3K10M6MY3F60","APDDA1Y59RHV9","3566S7OX5D5NH74JOVOPTTMK8IR17K","","169.80000019073486","img/land6.png","74","170.40000009536743","1","0","3","2","0.8,0.2,0.2,0.2,0.8,0.2,0.2,0.2,0.8","0.2,0.8,0.2,0.2,0.2,0.8,0.8,0.2,0.2","3","",""
"","html-keyboard-response","77","53696","0.0-77.0","3AQF3RZ5594XP6IG3M3K10M6MY3F60","APDDA1Y59RHV9","3566S7OX5D5NH74JOVOPTTMK8IR17K","","null","<img src=""img/land6.png"" style=""width:200px;border:14px solid red;"">","null","","","","","","","","","",""
"","image-keyboard-response","78","53860","0.0-78.0","3AQF3RZ5594XP6IG3M3K10M6MY3F60","APDDA1Y59RHV9","3566S7OX5D5NH74JOVOPTTMK8IR17K","","163.30000019073486","img/land1.png","75","164.2000002861023","2","1","1","2","0.8,0.2,0.2,0.2,0.8,0.2,0.2,0.2,0.8","0.2,0.8,0.2,0.2,0.2,0.8,0.8,0.2,0.2","3","",""
"","html-keyboard-response","79","54167","0.0-79.0","3AQF3RZ5594XP6IG3M3K10M6MY3F60","APDDA1Y59RHV9","3566S7OX5D5NH74JOVOPTTMK8IR17K","","null","<img src=""img/land1.png"" style=""width:200px; border:14px solid green;"">","null","","","","","","","","","",""
"","image-keyboard-response","80","54380","0.0-80.0","3AQF3RZ5594XP6IG3M3K10M6MY3F60","APDDA1Y59RHV9","3566S7OX5D5NH74JOVOPTTMK8IR17K","","211.2999997138977","img/land1.png","75","212.5","2","0","1","2","0.8,0.2,0.2,0.2,0.8,0.2,0.2,0.2,0.8","0.2,0.8,0.2,0.2,0.2,0.8,0.8,0.2,0.2","3","",""
"","html-keyboard-response","81","54682","0.0-81.0","3AQF3RZ5594XP6IG3M3K10M6MY3F60","APDDA1Y59RHV9","3566S7OX5D5NH74JOVOPTTMK8IR17K","","null","<img src=""img/land1.png"" style=""width:200px;border:14px solid red;"">","null","","","","","","","","","",""
"","image-keyboard-response","82","54828","0.0-82.0","3AQF3RZ5594XP6IG3M3K10M6MY3F60","APDDA1Y59RHV9","3566S7OX5D5NH74JOVOPTTMK8IR17K","","145.40000009536743","img/land1.png","75","146","2","1","1","2","0.8,0.2,0.2,0.2,0.8,0.2,0.2,0.2,0.8","0.2,0.8,0.2,0.2,0.2,0.8,0.8,0.2,0.2","3","",""
"","html-keyboard-response","83","55130","0.0-83.0","3AQF3RZ5594XP6IG3M3K10M6MY3F60","APDDA1Y59RHV9","3566S7OX5D5NH74JOVOPTTMK8IR17K","","null","<img src=""img/land1.png"" style=""width:200px; border:14px solid green;"">","null","","","","","","","","","",""
"","image-keyboard-response","84","55268","0.0-84.0","3AQF3RZ5594XP6IG3M3K10M6MY3F60","APDDA1Y59RHV9","3566S7OX5D5NH74JOVOPTTMK8IR17K","","137.09999990463257","img/land1.png","74","137.69999980926514","1","0","1","2","0.8,0.2,0.2,0.2,0.8,0.2,0.2,0.2,0.8","0.2,0.8,0.2,0.2,0.2,0.8,0.8,0.2,0.2","3","",""
"","html-keyboard-response","85","55571","0.0-85.0","3AQF3RZ5594XP6IG3M3K10M6MY3F60","APDDA1Y59RHV9","3566S7OX5D5NH74JOVOPTTMK8IR17K","","null","<img src=""img/land1.png"" style=""width:200px;border:14px solid red;"">","null","","","","","","","","","",""
"","image-keyboard-response","86","55763","0.0-86.0","3AQF3RZ5594XP6IG3M3K10M6MY3F60","APDDA1Y59RHV9","3566S7OX5D5NH74JOVOPTTMK8IR17K","","190.80000019073486","img/land1.png","74","191.5","1","0","1","2","0.8,0.2,0.2,0.2,0.8,0.2,0.2,0.2,0.8","0.2,0.8,0.2,0.2,0.2,0.8,0.8,0.2,0.2","3","",""
"","html-keyboard-response","87","56064","0.0-87.0","3AQF3RZ5594XP6IG3M3K10M6MY3F60","APDDA1Y59RHV9","3566S7OX5D5NH74JOVOPTTMK8IR17K","","null","<img src=""img/land1.png"" style=""width:200px;border:14px solid red;"">","null","","","","","","","","","",""
"","image-keyboard-response","88","56268","0.0-88.0","3AQF3RZ5594XP6IG3M3K10M6MY3F60","APDDA1Y59RHV9","3566S7OX5D5NH74JOVOPTTMK8IR17K","","202.09999990463257","img/land3.png","75","203.40000009536743","2","0","2","2","0.8,0.2,0.2,0.2,0.8,0.2,0.2,0.2,0.8","0.2,0.8,0.2,0.2,0.2,0.8,0.8,0.2,0.2","3","",""
"","html-keyboard-response","89","56570","0.0-89.0","3AQF3RZ5594XP6IG3M3K10M6MY3F60","APDDA1Y59RHV9","3566S7OX5D5NH74JOVOPTTMK8IR17K","","null","<img src=""img/land3.png"" style=""width:200px;border:14px solid red;"">","null","","","","","","","","","",""
"","image-keyboard-response","90","56723","0.0-90.0","3AQF3RZ5594XP6IG3M3K10M6MY3F60","APDDA1Y59RHV9","3566S7OX5D5NH74JOVOPTTMK8IR17K","","151","img/land3.png","75","152","2","0","2","2","0.8,0.2,0.2,0.2,0.8,0.2,0.2,0.2,0.8","0.2,0.8,0.2,0.2,0.2,0.8,0.8,0.2,0.2","3","",""
"","html-keyboard-response","91","57025","0.0-91.0","3AQF3RZ5594XP6IG3M3K10M6MY3F60","APDDA1Y59RHV9","3566S7OX5D5NH74JOVOPTTMK8IR17K","","null","<img src=""img/land3.png"" style=""width:200px;border:14px solid red;"">","null","","","","","","","","","",""
"","image-keyboard-response","92","57148","0.0-92.0","3AQF3RZ5594XP6IG3M3K10M6MY3F60","APDDA1Y59RHV9","3566S7OX5D5NH74JOVOPTTMK8IR17K","","121.60000038146973","img/land1.png","75","122.7999997138977","2","1","1","2","0.8,0.2,0.2,0.2,0.8,0.2,0.2,0.2,0.8","0.2,0.8,0.2,0.2,0.2,0.8,0.8,0.2,0.2","3","",""
"","html-keyboard-response","93","57450","0.0-93.0","3AQF3RZ5594XP6IG3M3K10M6MY3F60","APDDA1Y59RHV9","3566S7OX5D5NH74JOVOPTTMK8IR17K","","null","<img src=""img/land1.png"" style=""width:200px; border:14px solid green;"">","null","","","","","","","","","",""
"","image-keyboard-response","94","57851","0.0-94.0","3AQF3RZ5594XP6IG3M3K10M6MY3F60","APDDA1Y59RHV9","3566S7OX5D5NH74JOVOPTTMK8IR17K","","399.09999990463257","img/land1.png","76","400.1000003814697","3","0","1","2","0.8,0.2,0.2,0.2,0.8,0.2,0.2,0.2,0.8","0.2,0.8,0.2,0.2,0.2,0.8,0.8,0.2,0.2","3","",""
"","html-keyboard-response","95","58152","0.0-95.0","3AQF3RZ5594XP6IG3M3K10M6MY3F60","APDDA1Y59RHV9","3566S7OX5D5NH74JOVOPTTMK8IR17K","","null","<img src=""img/land1.png"" style=""width:200px;border:14px solid red;"">","null","","","","","","","","","",""
"","image-keyboard-response","96","58308","0.0-96.0","3AQF3RZ5594XP6IG3M3K10M6MY3F60","APDDA1Y59RHV9","3566S7OX5D5NH74JOVOPTTMK8IR17K","","154.2999997138977","img/land6.png","76","155.59999990463257","3","0","3","2","0.8,0.2,0.2,0.2,0.8,0.2,0.2,0.2,0.8","0.2,0.8,0.2,0.2,0.2,0.8,0.8,0.2,0.2","3","",""
"","html-keyboard-response","97","58611","0.0-97.0","3AQF3RZ5594XP6IG3M3K10M6MY3F60","APDDA1Y59RHV9","3566S7OX5D5NH74JOVOPTTMK8IR17K","","null","<img src=""img/land6.png"" style=""width:200px;border:14px solid red;"">","null","","","","","","","","","",""
"","image-keyboard-response","98","58747","0.0-98.0","3AQF3RZ5594XP6IG3M3K10M6MY3F60","APDDA1Y59RHV9","3566S7OX5D5NH74JOVOPTTMK8IR17K","","134.80000019073486","img/land1.png","75","135.90000009536743","2","1","1","2","0.8,0.2,0.2,0.2,0.8,0.2,0.2,0.2,0.8","0.2,0.8,0.2,0.2,0.2,0.8,0.8,0.2,0.2","3","",""
"","html-keyboard-response","99","59050","0.0-99.0","3AQF3RZ5594XP6IG3M3K10M6MY3F60","APDDA1Y59RHV9","3566S7OX5D5NH74JOVOPTTMK8IR17K","","null","<img src=""img/land1.png"" style=""width:200px; border:14px solid green;"">","null","","","","","","","","","",""
"","image-keyboard-response","100","59260","0.0-100.0","3AQF3RZ5594XP6IG3M3K10M6MY3F60","APDDA1Y59RHV9","3566S7OX5D5NH74JOVOPTTMK8IR17K","","208.80000019073486","img/land3.png","75","210","2","0","2","2","0.8,0.2,0.2,0.2,0.8,0.2,0.2,0.2,0.8","0.2,0.8,0.2,0.2,0.2,0.8,0.8,0.2,0.2","3","",""
"","html-keyboard-response","101","59564","0.0-101.0","3AQF3RZ5594XP6IG3M3K10M6MY3F60","APDDA1Y59RHV9","3566S7OX5D5NH74JOVOPTTMK8IR17K","","null","<img src=""img/land3.png"" style=""width:200px;border:14px solid red;"">","null","","","","","","","","","",""
"","image-keyboard-response","102","59716","0.0-102.0","3AQF3RZ5594XP6IG3M3K10M6MY3F60","APDDA1Y59RHV9","3566S7OX5D5NH74JOVOPTTMK8IR17K","","150.7000002861023","img/land1.png","74","151.69999980926514","1","0","1","2","0.8,0.2,0.2,0.2,0.8,0.2,0.2,0.2,0.8","0.2,0.8,0.2,0.2,0.2,0.8,0.8,0.2,0.2","3","",""
"","html-keyboard-response","103","60017","0.0-103.0","3AQF3RZ5594XP6IG3M3K10M6MY3F60","APDDA1Y59RHV9","3566S7OX5D5NH74JOVOPTTMK8IR17K","","null","<img src=""img/land1.png"" style=""width:200px;border:14px solid red;"">","null","","","","","","","","","",""
"","image-keyboard-response","104","60140","0.0-104.0","3AQF3RZ5594XP6IG3M3K10M6MY3F60","APDDA1Y59RHV9","3566S7OX5D5NH74JOVOPTTMK8IR17K","","122.30000019073486","img/land1.png","74","122.80000019073486","1","0","1","2","0.8,0.2,0.2,0.2,0.8,0.2,0.2,0.2,0.8","0.2,0.8,0.2,0.2,0.2,0.8,0.8,0.2,0.2","3","",""
"","html-keyboard-response","105","60441","0.0-105.0","3AQF3RZ5594XP6IG3M3K10M6MY3F60","APDDA1Y59RHV9","3566S7OX5D5NH74JOVOPTTMK8IR17K","","null","<img src=""img/land1.png"" style=""width:200px;border:14px solid red;"">","null","","","","","","","","","",""
"","image-keyboard-response","106","60627","0.0-106.0","3AQF3RZ5594XP6IG3M3K10M6MY3F60","APDDA1Y59RHV9","3566S7OX5D5NH74JOVOPTTMK8IR17K","","185.40000009536743","img/land1.png","74","185.7999997138977","1","0","1","2","0.8,0.2,0.2,0.2,0.8,0.2,0.2,0.2,0.8","0.2,0.8,0.2,0.2,0.2,0.8,0.8,0.2,0.2","3","",""
"","html-keyboard-response","107","60929","0.0-107.0","3AQF3RZ5594XP6IG3M3K10M6MY3F60","APDDA1Y59RHV9","3566S7OX5D5NH74JOVOPTTMK8IR17K","","null","<img src=""img/land1.png"" style=""width:200px;border:14px solid red;"">","null","","","","","","","","","",""
"","image-keyboard-response","108","61028","0.0-108.0","3AQF3RZ5594XP6IG3M3K10M6MY3F60","APDDA1Y59RHV9","3566S7OX5D5NH74JOVOPTTMK8IR17K","","98.40000009536743","img/land6.png","75","98.89999961853027","2","0","3","2","0.8,0.2,0.2,0.2,0.8,0.2,0.2,0.2,0.8","0.2,0.8,0.2,0.2,0.2,0.8,0.8,0.2,0.2","3","",""
"","html-keyboard-response","109","61342","0.0-109.0","3AQF3RZ5594XP6IG3M3K10M6MY3F60","APDDA1Y59RHV9","3566S7OX5D5NH74JOVOPTTMK8IR17K","","null","<img src=""img/land6.png"" style=""width:200px;border:14px solid red;"">","null","","","","","","","","","",""
"","image-keyboard-response","110","61525","0.0-110.0","3AQF3RZ5594XP6IG3M3K10M6MY3F60","APDDA1Y59RHV9","3566S7OX5D5NH74JOVOPTTMK8IR17K","","181.80000019073486","img/land1.png","75","182.5","2","0","1","2","0.8,0.2,0.2,0.2,0.8,0.2,0.2,0.2,0.8","0.2,0.8,0.2,0.2,0.2,0.8,0.8,0.2,0.2","3","",""
"","html-keyboard-response","111","61827","0.0-111.0","3AQF3RZ5594XP6IG3M3K10M6MY3F60","APDDA1Y59RHV9","3566S7OX5D5NH74JOVOPTTMK8IR17K","","null","<img src=""img/land1.png"" style=""width:200px;border:14px solid red;"">","null","","","","","","","","","",""
"","image-keyboard-response","112","61996","0.0-112.0","3AQF3RZ5594XP6IG3M3K10M6MY3F60","APDDA1Y59RHV9","3566S7OX5D5NH74JOVOPTTMK8IR17K","","168.30000019073486","img/land1.png","75","168.7999997138977","2","0","1","2","0.8,0.2,0.2,0.2,0.8,0.2,0.2,0.2,0.8","0.2,0.8,0.2,0.2,0.2,0.8,0.8,0.2,0.2","3","",""
"","html-keyboard-response","113","62297","0.0-113.0","3AQF3RZ5594XP6IG3M3K10M6MY3F60","APDDA1Y59RHV9","3566S7OX5D5NH74JOVOPTTMK8IR17K","","null","<img src=""img/land1.png"" style=""width:200px;border:14px solid red;"">","null","","","","","","","","","",""
"","image-keyboard-response","114","62588","0.0-114.0","3AQF3RZ5594XP6IG3M3K10M6MY3F60","APDDA1Y59RHV9","3566S7OX5D5NH74JOVOPTTMK8IR17K","","290.19999980926514","img/land1.png","74","291.2000002861023","1","0","1","2","0.8,0.2,0.2,0.2,0.8,0.2,0.2,0.2,0.8","0.2,0.8,0.2,0.2,0.2,0.8,0.8,0.2,0.2","3","",""
"","html-keyboard-response","115","62890","0.0-115.0","3AQF3RZ5594XP6IG3M3K10M6MY3F60","APDDA1Y59RHV9","3566S7OX5D5NH74JOVOPTTMK8IR17K","","null","<img src=""img/land1.png"" style=""width:200px;border:14px solid red;"">","null","","","","","","","","","",""
"","image-keyboard-response","116","63147","0.0-116.0","3AQF3RZ5594XP6IG3M3K10M6MY3F60","APDDA1Y59RHV9","3566S7OX5D5NH74JOVOPTTMK8IR17K","","255.90000009536743","img/land1.png","74","256.80000019073486","1","0","1","2","0.8,0.2,0.2,0.2,0.8,0.2,0.2,0.2,0.8","0.2,0.8,0.2,0.2,0.2,0.8,0.8,0.2,0.2","3","",""
"","html-keyboard-response","117","63449","0.0-117.0","3AQF3RZ5594XP6IG3M3K10M6MY3F60","APDDA1Y59RHV9","3566S7OX5D5NH74JOVOPTTMK8IR17K","","null","<img src=""img/land1.png"" style=""width:200px;border:14px solid red;"">","null","","","","","","","","","",""
"","image-keyboard-response","118","63724","0.0-118.0","3AQF3RZ5594XP6IG3M3K10M6MY3F60","APDDA1Y59RHV9","3566S7OX5D5NH74JOVOPTTMK8IR17K","","274.40000009536743","img/land1.png","76","275.5","3","0","1","2","0.8,0.2,0.2,0.2,0.8,0.2,0.2,0.2,0.8","0.2,0.8,0.2,0.2,0.2,0.8,0.8,0.2,0.2","3","",""
"","html-keyboard-response","119","64027","0.0-119.0","3AQF3RZ5594XP6IG3M3K10M6MY3F60","APDDA1Y59RHV9","3566S7OX5D5NH74JOVOPTTMK8IR17K","","null","<img src=""img/land1.png"" style=""width:200px;border:14px solid red;"">","null","","","","","","","","","",""
"","image-keyboard-response","120","64365","0.0-120.0","3AQF3RZ5594XP6IG3M3K10M6MY3F60","APDDA1Y59RHV9","3566S7OX5D5NH74JOVOPTTMK8IR17K","","335.8999996185303","img/land3.png","75","337","2","1","2","2","0.8,0.2,0.2,0.2,0.8,0.2,0.2,0.2,0.8","0.2,0.8,0.2,0.2,0.2,0.8,0.8,0.2,0.2","3","",""
"","html-keyboard-response","121","64667","0.0-121.0","3AQF3RZ5594XP6IG3M3K10M6MY3F60","APDDA1Y59RHV9","3566S7OX5D5NH74JOVOPTTMK8IR17K","","null","<img src=""img/land3.png"" style=""width:200px; border:14px solid green;"">","null","","","","","","","","","",""
"","image-keyboard-response","122","64931","0.0-122.0","3AQF3RZ5594XP6IG3M3K10M6MY3F60","APDDA1Y59RHV9","3566S7OX5D5NH74JOVOPTTMK8IR17K","","262.40000009536743","img/land1.png","75","263.5","2","1","1","2","0.8,0.2,0.2,0.2,0.8,0.2,0.2,0.2,0.8","0.2,0.8,0.2,0.2,0.2,0.8,0.8,0.2,0.2","3","",""
"","html-keyboard-response","123","65233","0.0-123.0","3AQF3RZ5594XP6IG3M3K10M6MY3F60","APDDA1Y59RHV9","3566S7OX5D5NH74JOVOPTTMK8IR17K","","null","<img src=""img/land1.png"" style=""width:200px; border:14px solid green;"">","null","","","","","","","","","",""
"","image-keyboard-response","124","65492","0.0-124.0","3AQF3RZ5594XP6IG3M3K10M6MY3F60","APDDA1Y59RHV9","3566S7OX5D5NH74JOVOPTTMK8IR17K","","258.09999990463257","img/land1.png","75","258.5","2","1","1","2","0.8,0.2,0.2,0.2,0.8,0.2,0.2,0.2,0.8","0.2,0.8,0.2,0.2,0.2,0.8,0.8,0.2,0.2","3","",""
"","html-keyboard-response","125","65793","0.0-125.0","3AQF3RZ5594XP6IG3M3K10M6MY3F60","APDDA1Y59RHV9","3566S7OX5D5NH74JOVOPTTMK8IR17K","","null","<img src=""img/land1.png"" style=""width:200px; border:14px solid green;"">","null","","","","","","","","","",""
"","image-keyboard-response","126","65996","0.0-126.0","3AQF3RZ5594XP6IG3M3K10M6MY3F60","APDDA1Y59RHV9","3566S7OX5D5NH74JOVOPTTMK8IR17K","","202.30000019073486","img/land6.png","75","203.59999990463257","2","0","3","2","0.8,0.2,0.2,0.2,0.8,0.2,0.2,0.2,0.8","0.2,0.8,0.2,0.2,0.2,0.8,0.8,0.2,0.2","3","",""
"","html-keyboard-response","127","66308","0.0-127.0","3AQF3RZ5594XP6IG3M3K10M6MY3F60","APDDA1Y59RHV9","3566S7OX5D5NH74JOVOPTTMK8IR17K","","null","<img src=""img/land6.png"" style=""width:200px;border:14px solid red;"">","null","","","","","","","","","",""
"","image-keyboard-response","128","66516","0.0-128.0","3AQF3RZ5594XP6IG3M3K10M6MY3F60","APDDA1Y59RHV9","3566S7OX5D5NH74JOVOPTTMK8IR17K","","207.19999980926514","img/land1.png","75","208","2","0","1","2","0.8,0.2,0.2,0.2,0.8,0.2,0.2,0.2,0.8","0.2,0.8,0.2,0.2,0.2,0.8,0.8,0.2,0.2","3","",""
"","html-keyboard-response","129","66818","0.0-129.0","3AQF3RZ5594XP6IG3M3K10M6MY3F60","APDDA1Y59RHV9","3566S7OX5D5NH74JOVOPTTMK8IR17K","","null","<img src=""img/land1.png"" style=""width:200px;border:14px solid red;"">","null","","","","","","","","","",""
"","image-keyboard-response","130","66837","0.0-130.0","3AQF3RZ5594XP6IG3M3K10M6MY3F60","APDDA1Y59RHV9","3566S7OX5D5NH74JOVOPTTMK8IR17K","","16.799999713897705","img/land1.png","74","18.09999990463257","1","0","1","2","0.8,0.2,0.2,0.2,0.8,0.2,0.2,0.2,0.8","0.2,0.8,0.2,0.2,0.2,0.8,0.8,0.2,0.2","3","",""
"","html-keyboard-response","131","67139","0.0-131.0","3AQF3RZ5594XP6IG3M3K10M6MY3F60","APDDA1Y59RHV9","3566S7OX5D5NH74JOVOPTTMK8IR17K","","null","<img src=""img/land1.png"" style=""width:200px;border:14px solid red;"">","null","","","","","","","","","",""
"","image-keyboard-response","132","67339","0.0-132.0","3AQF3RZ5594XP6IG3M3K10M6MY3F60","APDDA1Y59RHV9","3566S7OX5D5NH74JOVOPTTMK8IR17K","","199.10000038146973","img/land3.png","74","200.19999980926514","1","0","2","2","0.8,0.2,0.2,0.2,0.8,0.2,0.2,0.2,0.8","0.2,0.8,0.2,0.2,0.2,0.8,0.8,0.2,0.2","3","",""
"","html-keyboard-response","133","67641","0.0-133.0","3AQF3RZ5594XP6IG3M3K10M6MY3F60","APDDA1Y59RHV9","3566S7OX5D5NH74JOVOPTTMK8IR17K","","null","<img src=""img/land3.png"" style=""width:200px;border:14px solid red;"">","null","","","","","","","","","",""
"","image-keyboard-response","134","67909","0.0-134.0","3AQF3RZ5594XP6IG3M3K10M6MY3F60","APDDA1Y59RHV9","3566S7OX5D5NH74JOVOPTTMK8IR17K","","266.59999990463257","img/land1.png","74","267.7999997138977","1","0","1","2","0.8,0.2,0.2,0.2,0.8,0.2,0.2,0.2,0.8","0.2,0.8,0.2,0.2,0.2,0.8,0.8,0.2,0.2","3","",""
"","html-keyboard-response","135","68212","0.0-135.0","3AQF3RZ5594XP6IG3M3K10M6MY3F60","APDDA1Y59RHV9","3566S7OX5D5NH74JOVOPTTMK8IR17K","","null","<img src=""img/land1.png"" style=""width:200px;border:14px solid red;"">","null","","","","","","","","","",""
"","image-keyboard-response","136","68428","0.0-136.0","3AQF3RZ5594XP6IG3M3K10M6MY3F60","APDDA1Y59RHV9","3566S7OX5D5NH74JOVOPTTMK8IR17K","","214.59999990463257","img/land3.png","74","215.59999990463257","1","0","2","2","0.8,0.2,0.2,0.2,0.8,0.2,0.2,0.2,0.8","0.2,0.8,0.2,0.2,0.2,0.8,0.8,0.2,0.2","3","",""
"","html-keyboard-response","137","68730","0.0-137.0","3AQF3RZ5594XP6IG3M3K10M6MY3F60","APDDA1Y59RHV9","3566S7OX5D5NH74JOVOPTTMK8IR17K","","null","<img src=""img/land3.png"" style=""width:200px;border:14px solid red;"">","null","","","","","","","","","",""
"","image-keyboard-response","138","69052","0.0-138.0","3AQF3RZ5594XP6IG3M3K10M6MY3F60","APDDA1Y59RHV9","3566S7OX5D5NH74JOVOPTTMK8IR17K","","321.19999980926514","img/land6.png","75","321.90000009536743","2","0","3","2","0.8,0.2,0.2,0.2,0.8,0.2,0.2,0.2,0.8","0.2,0.8,0.2,0.2,0.2,0.8,0.8,0.2,0.2","3","",""
"","html-keyboard-response","139","69354","0.0-139.0","3AQF3RZ5594XP6IG3M3K10M6MY3F60","APDDA1Y59RHV9","3566S7OX5D5NH74JOVOPTTMK8IR17K","","null","<img src=""img/land6.png"" style=""width:200px;border:14px solid red;"">","null","","","","","","","","","",""
"","image-keyboard-response","140","69549","0.0-140.0","3AQF3RZ5594XP6IG3M3K10M6MY3F60","APDDA1Y59RHV9","3566S7OX5D5NH74JOVOPTTMK8IR17K","","193.40000009536743","img/land3.png","75","194.5","2","0","2","2","0.8,0.2,0.2,0.2,0.8,0.2,0.2,0.2,0.8","0.2,0.8,0.2,0.2,0.2,0.8,0.8,0.2,0.2","3","",""
"","html-keyboard-response","141","69854","0.0-141.0","3AQF3RZ5594XP6IG3M3K10M6MY3F60","APDDA1Y59RHV9","3566S7OX5D5NH74JOVOPTTMK8IR17K","","null","<img src=""img/land3.png"" style=""width:200px;border:14px solid red;"">","null","","","","","","","","","",""
"","image-keyboard-response","142","70061","0.0-142.0","3AQF3RZ5594XP6IG3M3K10M6MY3F60","APDDA1Y59RHV9","3566S7OX5D5NH74JOVOPTTMK8IR17K","","205.19999980926514","img/land1.png","74","206.59999990463257","1","0","1","2","0.8,0.2,0.2,0.2,0.8,0.2,0.2,0.2,0.8","0.2,0.8,0.2,0.2,0.2,0.8,0.8,0.2,0.2","3","",""
"","html-keyboard-response","143","70362","0.0-143.0","3AQF3RZ5594XP6IG3M3K10M6MY3F60","APDDA1Y59RHV9","3566S7OX5D5NH74JOVOPTTMK8IR17K","","null","<img src=""img/land1.png"" style=""width:200px;border:14px solid red;"">","null","","","","","","","","","",""
"","image-keyboard-response","144","70603","0.0-144.0","3AQF3RZ5594XP6IG3M3K10M6MY3F60","APDDA1Y59RHV9","3566S7OX5D5NH74JOVOPTTMK8IR17K","","239.19999980926514","img/land1.png","75","240.10000038146973","2","1","1","2","0.8,0.2,0.2,0.2,0.8,0.2,0.2,0.2,0.8","0.2,0.8,0.2,0.2,0.2,0.8,0.8,0.2,0.2","3","",""
"","html-keyboard-response","145","70905","0.0-145.0","3AQF3RZ5594XP6IG3M3K10M6MY3F60","APDDA1Y59RHV9","3566S7OX5D5NH74JOVOPTTMK8IR17K","","null","<img src=""img/land1.png"" style=""width:200px; border:14px solid green;"">","null","","","","","","","","","",""
"","image-keyboard-response","146","71091","0.0-146.0","3AQF3RZ5594XP6IG3M3K10M6MY3F60","APDDA1Y59RHV9","3566S7OX5D5NH74JOVOPTTMK8IR17K","","186","img/land6.png","76","186.5","3","0","3","2","0.8,0.2,0.2,0.2,0.8,0.2,0.2,0.2,0.8","0.2,0.8,0.2,0.2,0.2,0.8,0.8,0.2,0.2","3","",""
"","html-keyboard-response","147","71393","0.0-147.0","3AQF3RZ5594XP6IG3M3K10M6MY3F60","APDDA1Y59RHV9","3566S7OX5D5NH74JOVOPTTMK8IR17K","","null","<img src=""img/land6.png"" style=""width:200px;border:14px solid red;"">","null","","","","","","","","","",""
"","image-keyboard-response","148","71835","0.0-148.0","3AQF3RZ5594XP6IG3M3K10M6MY3F60","APDDA1Y59RHV9","3566S7OX5D5NH74JOVOPTTMK8IR17K","","441.80000019073486","img/land1.png","75","442.19999980926514","2","1","1","2","0.8,0.2,0.2,0.2,0.8,0.2,0.2,0.2,0.8","0.2,0.8,0.2,0.2,0.2,0.8,0.8,0.2,0.2","3","",""
"","html-keyboard-response","149","72137","0.0-149.0","3AQF3RZ5594XP6IG3M3K10M6MY3F60","APDDA1Y59RHV9","3566S7OX5D5NH74JOVOPTTMK8IR17K","","null","<img src=""img/land1.png"" style=""width:200px; border:14px solid green;"">","null","","","","","","","","","",""
"","image-keyboard-response","150","72316","0.0-150.0","3AQF3RZ5594XP6IG3M3K10M6MY3F60","APDDA1Y59RHV9","3566S7OX5D5NH74JOVOPTTMK8IR17K","","178.30000019073486","img/land1.png","75","179.40000009536743","2","1","1","2","0.8,0.2,0.2,0.2,0.8,0.2,0.2,0.2,0.8","0.2,0.8,0.2,0.2,0.2,0.8,0.8,0.2,0.2","3","",""
"","html-keyboard-response","151","72622","0.0-151.0","3AQF3RZ5594XP6IG3M3K10M6MY3F60","APDDA1Y59RHV9","3566S7OX5D5NH74JOVOPTTMK8IR17K","","null","<img src=""img/land1.png"" style=""width:200px; border:14px solid green;"">","null","","","","","","","","","",""
"","image-keyboard-response","152","72781","0.0-152.0","3AQF3RZ5594XP6IG3M3K10M6MY3F60","APDDA1Y59RHV9","3566S7OX5D5NH74JOVOPTTMK8IR17K","","157.19999980926514","img/land1.png","75","158","2","1","1","2","0.8,0.2,0.2,0.2,0.8,0.2,0.2,0.2,0.8","0.2,0.8,0.2,0.2,0.2,0.8,0.8,0.2,0.2","3","",""
"","html-keyboard-response","153","73082","0.0-153.0","3AQF3RZ5594XP6IG3M3K10M6MY3F60","APDDA1Y59RHV9","3566S7OX5D5NH74JOVOPTTMK8IR17K","","null","<img src=""img/land1.png"" style=""width:200px; border:14px solid green;"">","null","","","","","","","","","",""
"","image-keyboard-response","154","73236","0.0-154.0","3AQF3RZ5594XP6IG3M3K10M6MY3F60","APDDA1Y59RHV9","3566S7OX5D5NH74JOVOPTTMK8IR17K","","153.30000019073486","img/land3.png","75","154.10000038146973","2","0","2","2","0.8,0.2,0.2,0.2,0.8,0.2,0.2,0.2,0.8","0.2,0.8,0.2,0.2,0.2,0.8,0.8,0.2,0.2","3","",""
"","html-keyboard-response","155","73538","0.0-155.0","3AQF3RZ5594XP6IG3M3K10M6MY3F60","APDDA1Y59RHV9","3566S7OX5D5NH74JOVOPTTMK8IR17K","","null","<img src=""img/land3.png"" style=""width:200px;border:14px solid red;"">","null","","","","","","","","","",""
"","image-keyboard-response","156","73772","0.0-156.0","3AQF3RZ5594XP6IG3M3K10M6MY3F60","APDDA1Y59RHV9","3566S7OX5D5NH74JOVOPTTMK8IR17K","","232.7000002861023","img/land3.png","74","233.69999980926514","1","0","2","2","0.8,0.2,0.2,0.2,0.8,0.2,0.2,0.2,0.8","0.2,0.8,0.2,0.2,0.2,0.8,0.8,0.2,0.2","3","",""
"","html-keyboard-response","157","74076","0.0-157.0","3AQF3RZ5594XP6IG3M3K10M6MY3F60","APDDA1Y59RHV9","3566S7OX5D5NH74JOVOPTTMK8IR17K","","null","<img src=""img/land3.png"" style=""width:200px;border:14px solid red;"">","null","","","","","","","","","",""
"","image-keyboard-response","158","74276","0.0-158.0","3AQF3RZ5594XP6IG3M3K10M6MY3F60","APDDA1Y59RHV9","3566S7OX5D5NH74JOVOPTTMK8IR17K","","198.80000019073486","img/land1.png","74","199.90000009536743","1","1","1","2","0.8,0.2,0.2,0.2,0.8,0.2,0.2,0.2,0.8","0.2,0.8,0.2,0.2,0.2,0.8,0.8,0.2,0.2","3","",""
"","html-keyboard-response","159","74578","0.0-159.0","3AQF3RZ5594XP6IG3M3K10M6MY3F60","APDDA1Y59RHV9","3566S7OX5D5NH74JOVOPTTMK8IR17K","","null","<img src=""img/land1.png"" style=""width:200px; border:14px solid green;"">","null","","","","","","","","","",""
"","image-keyboard-response","160","74691","0.0-160.0","3AQF3RZ5594XP6IG3M3K10M6MY3F60","APDDA1Y59RHV9","3566S7OX5D5NH74JOVOPTTMK8IR17K","","113.09999990463257","img/land1.png","74","113.60000038146973","1","1","1","2","0.8,0.2,0.2,0.2,0.8,0.2,0.2,0.2,0.8","0.2,0.8,0.2,0.2,0.2,0.8,0.8,0.2,0.2","3","",""
"","html-keyboard-response","161","74993","0.0-161.0","3AQF3RZ5594XP6IG3M3K10M6MY3F60","APDDA1Y59RHV9","3566S7OX5D5NH74JOVOPTTMK8IR17K","","null","<img src=""img/land1.png"" style=""width:200px; border:14px solid green;"">","null","","","","","","","","","",""
"","image-keyboard-response","162","75148","0.0-162.0","3AQF3RZ5594XP6IG3M3K10M6MY3F60","APDDA1Y59RHV9","3566S7OX5D5NH74JOVOPTTMK8IR17K","","154.7999997138977","img/land1.png","74","155.19999980926514","1","0","1","2","0.8,0.2,0.2,0.2,0.8,0.2,0.2,0.2,0.8","0.2,0.8,0.2,0.2,0.2,0.8,0.8,0.2,0.2","3","",""
"","html-keyboard-response","163","75450","0.0-163.0","3AQF3RZ5594XP6IG3M3K10M6MY3F60","APDDA1Y59RHV9","3566S7OX5D5NH74JOVOPTTMK8IR17K","","null","<img src=""img/land1.png"" style=""width:200px;border:14px solid red;"">","null","","","","","","","","","",""
"","image-keyboard-response","164","75587","0.0-164.0","3AQF3RZ5594XP6IG3M3K10M6MY3F60","APDDA1Y59RHV9","3566S7OX5D5NH74JOVOPTTMK8IR17K","","136.90000009536743","img/land1.png","74","137.5","1","0","1","2","0.8,0.2,0.2,0.2,0.8,0.2,0.2,0.2,0.8","0.2,0.8,0.2,0.2,0.2,0.8,0.8,0.2,0.2","3","",""
"","html-keyboard-response","165","75888","0.0-165.0","3AQF3RZ5594XP6IG3M3K10M6MY3F60","APDDA1Y59RHV9","3566S7OX5D5NH74JOVOPTTMK8IR17K","","null","<img src=""img/land1.png"" style=""width:200px;border:14px solid red;"">","null","","","","","","","","","",""
"","image-keyboard-response","166","76005","0.0-166.0","3AQF3RZ5594XP6IG3M3K10M6MY3F60","APDDA1Y59RHV9","3566S7OX5D5NH74JOVOPTTMK8IR17K","","115.69999980926514","img/land1.png","75","116.40000009536743","2","1","1","2","0.8,0.2,0.2,0.2,0.8,0.2,0.2,0.2,0.8","0.2,0.8,0.2,0.2,0.2,0.8,0.8,0.2,0.2","3","",""
"","html-keyboard-response","167","76307","0.0-167.0","3AQF3RZ5594XP6IG3M3K10M6MY3F60","APDDA1Y59RHV9","3566S7OX5D5NH74JOVOPTTMK8IR17K","","null","<img src=""img/land1.png"" style=""width:200px; border:14px solid green;"">","null","","","","","","","","","",""
"","image-keyboard-response","168","76460","0.0-168.0","3AQF3RZ5594XP6IG3M3K10M6MY3F60","APDDA1Y59RHV9","3566S7OX5D5NH74JOVOPTTMK8IR17K","","151.69999980926514","img/land3.png","75","152.39999961853027","2","0","2","2","0.8,0.2,0.2,0.2,0.8,0.2,0.2,0.2,0.8","0.2,0.8,0.2,0.2,0.2,0.8,0.8,0.2,0.2","3","",""
"","html-keyboard-response","169","76762","0.0-169.0","3AQF3RZ5594XP6IG3M3K10M6MY3F60","APDDA1Y59RHV9","3566S7OX5D5NH74JOVOPTTMK8IR17K","","null","<img src=""img/land3.png"" style=""width:200px;border:14px solid red;"">","null","","","","","","","","","",""
"","image-keyboard-response","170","76884","0.0-170.0","3AQF3RZ5594XP6IG3M3K10M6MY3F60","APDDA1Y59RHV9","3566S7OX5D5NH74JOVOPTTMK8IR17K","","121","img/land1.png","75","121.80000019073486","2","1","1","2","0.8,0.2,0.2,0.2,0.8,0.2,0.2,0.2,0.8","0.2,0.8,0.2,0.2,0.2,0.8,0.8,0.2,0.2","3","",""
"","html-keyboard-response","171","77185","0.0-171.0","3AQF3RZ5594XP6IG3M3K10M6MY3F60","APDDA1Y59RHV9","3566S7OX5D5NH74JOVOPTTMK8IR17K","","null","<img src=""img/land1.png"" style=""width:200px; border:14px solid green;"">","null","","","","","","","","","",""
"","image-keyboard-response","172","77267","0.0-172.0","3AQF3RZ5594XP6IG3M3K10M6MY3F60","APDDA1Y59RHV9","3566S7OX5D5NH74JOVOPTTMK8IR17K","","81.59999990463257","img/land1.png","75","82.19999980926514","2","1","1","2","0.8,0.2,0.2,0.2,0.8,0.2,0.2,0.2,0.8","0.2,0.8,0.2,0.2,0.2,0.8,0.8,0.2,0.2","3","",""
"","html-keyboard-response","173","77569","0.0-173.0","3AQF3RZ5594XP6IG3M3K10M6MY3F60","APDDA1Y59RHV9","3566S7OX5D5NH74JOVOPTTMK8IR17K","","null","<img src=""img/land1.png"" style=""width:200px; border:14px solid green;"">","null","","","","","","","","","",""
"","image-keyboard-response","174","77701","0.0-174.0","3AQF3RZ5594XP6IG3M3K10M6MY3F60","APDDA1Y59RHV9","3566S7OX5D5NH74JOVOPTTMK8IR17K","","131","img/land1.png","75","131.69999980926514","2","1","1","2","0.8,0.2,0.2,0.2,0.8,0.2,0.2,0.2,0.8","0.2,0.8,0.2,0.2,0.2,0.8,0.8,0.2,0.2","3","",""
"","html-keyboard-response","175","78004","0.0-175.0","3AQF3RZ5594XP6IG3M3K10M6MY3F60","APDDA1Y59RHV9","3566S7OX5D5NH74JOVOPTTMK8IR17K","","null","<img src=""img/land1.png"" style=""width:200px; border:14px solid green;"">","null","","","","","","","","","",""
"","image-keyboard-response","176","78109","0.0-176.0","3AQF3RZ5594XP6IG3M3K10M6MY3F60","APDDA1Y59RHV9","3566S7OX5D5NH74JOVOPTTMK8IR17K","","103.40000009536743","img/land1.png","75","104.30000019073486","2","1","1","2","0.8,0.2,0.2,0.2,0.8,0.2,0.2,0.2,0.8","0.2,0.8,0.2,0.2,0.2,0.8,0.8,0.2,0.2","3","",""
"","html-keyboard-response","177","78411","0.0-177.0","3AQF3RZ5594XP6IG3M3K10M6MY3F60","APDDA1Y59RHV9","3566S7OX5D5NH74JOVOPTTMK8IR17K","","null","<img src=""img/land1.png"" style=""width:200px; border:14px solid green;"">","null","","","","","","","","","",""
"","image-keyboard-response","178","78539","0.0-178.0","3AQF3RZ5594XP6IG3M3K10M6MY3F60","APDDA1Y59RHV9","3566S7OX5D5NH74JOVOPTTMK8IR17K","","127.90000009536743","img/land6.png","75","128.5","2","0","3","2","0.8,0.2,0.2,0.2,0.8,0.2,0.2,0.2,0.8","0.2,0.8,0.2,0.2,0.2,0.8,0.8,0.2,0.2","3","",""
"","html-keyboard-response","179","78841","0.0-179.0","3AQF3RZ5594XP6IG3M3K10M6MY3F60","APDDA1Y59RHV9","3566S7OX5D5NH74JOVOPTTMK8IR17K","","null","<img src=""img/land6.png"" style=""width:200px;border:14px solid red;"">","null","","","","","","","","","",""
"","image-keyboard-response","180","78997","0.0-180.0","3AQF3RZ5594XP6IG3M3K10M6MY3F60","APDDA1Y59RHV9","3566S7OX5D5NH74JOVOPTTMK8IR17K","","154.19999980926514","img/land6.png","76","155.40000009536743","3","0","3","2","0.8,0.2,0.2,0.2,0.8,0.2,0.2,0.2,0.8","0.2,0.8,0.2,0.2,0.2,0.8,0.8,0.2,0.2","3","",""
"","html-keyboard-response","181","79299","0.0-181.0","3AQF3RZ5594XP6IG3M3K10M6MY3F60","APDDA1Y59RHV9","3566S7OX5D5NH74JOVOPTTMK8IR17K","","null","<img src=""img/land6.png"" style=""width:200px;border:14px solid red;"">","null","","","","","","","","","",""
"","image-keyboard-response","182","79467","0.0-182.0","3AQF3RZ5594XP6IG3M3K10M6MY3F60","APDDA1Y59RHV9","3566S7OX5D5NH74JOVOPTTMK8IR17K","","167.69999980926514","img/land3.png","76","168.30000019073486","3","1","2","2","0.8,0.2,0.2,0.2,0.8,0.2,0.2,0.2,0.8","0.2,0.8,0.2,0.2,0.2,0.8,0.8,0.2,0.2","3","",""
"","html-keyboard-response","183","79769","0.0-183.0","3AQF3RZ5594XP6IG3M3K10M6MY3F60","APDDA1Y59RHV9","3566S7OX5D5NH74JOVOPTTMK8IR17K","","null","<img src=""img/land3.png"" style=""width:200px; border:14px solid green;"">","null","","","","","","","","","",""
"","image-keyboard-response","184","80244","0.0-184.0","3AQF3RZ5594XP6IG3M3K10M6MY3F60","APDDA1Y59RHV9","3566S7OX5D5NH74JOVOPTTMK8IR17K","","474.59999990463257","img/land3.png","76","475.40000009536743","3","1","2","2","0.8,0.2,0.2,0.2,0.8,0.2,0.2,0.2,0.8","0.2,0.8,0.2,0.2,0.2,0.8,0.8,0.2,0.2","3","",""
"","html-keyboard-response","185","80546","0.0-185.0","3AQF3RZ5594XP6IG3M3K10M6MY3F60","APDDA1Y59RHV9","3566S7OX5D5NH74JOVOPTTMK8IR17K","","null","<img src=""img/land3.png"" style=""width:200px; border:14px solid green;"">","null","","","","","","","","","",""
"","image-keyboard-response","186","80699","0.0-186.0","3AQF3RZ5594XP6IG3M3K10M6MY3F60","APDDA1Y59RHV9","3566S7OX5D5NH74JOVOPTTMK8IR17K","","151.69999980926514","img/land1.png","76","152.59999990463257","3","0","1","2","0.8,0.2,0.2,0.2,0.8,0.2,0.2,0.2,0.8","0.2,0.8,0.2,0.2,0.2,0.8,0.8,0.2,0.2","3","",""
"","html-keyboard-response","187","81001","0.0-187.0","3AQF3RZ5594XP6IG3M3K10M6MY3F60","APDDA1Y59RHV9","3566S7OX5D5NH74JOVOPTTMK8IR17K","","null","<img src=""img/land1.png"" style=""width:200px;border:14px solid red;"">","null","","","","","","","","","",""
"","image-keyboard-response","188","81172","0.0-188.0","3AQF3RZ5594XP6IG3M3K10M6MY3F60","APDDA1Y59RHV9","3566S7OX5D5NH74JOVOPTTMK8IR17K","","169.7999997138977","img/land6.png","75","170.90000009536743","2","0","3","2","0.8,0.2,0.2,0.2,0.8,0.2,0.2,0.2,0.8","0.2,0.8,0.2,0.2,0.2,0.8,0.8,0.2,0.2","3","",""
"","html-keyboard-response","189","81473","0.0-189.0","3AQF3RZ5594XP6IG3M3K10M6MY3F60","APDDA1Y59RHV9","3566S7OX5D5NH74JOVOPTTMK8IR17K","","null","<img src=""img/land6.png"" style=""width:200px;border:14px solid red;"">","null","","","","","","","","","",""
"","image-keyboard-response","190","81579","0.0-190.0","3AQF3RZ5594XP6IG3M3K10M6MY3F60","APDDA1Y59RHV9","3566S7OX5D5NH74JOVOPTTMK8IR17K","","105.40000009536743","img/land3.png","75","105.90000009536743","2","0","2","2","0.8,0.2,0.2,0.2,0.8,0.2,0.2,0.2,0.8","0.2,0.8,0.2,0.2,0.2,0.8,0.8,0.2,0.2","3","",""
"","html-keyboard-response","191","81881","0.0-191.0","3AQF3RZ5594XP6IG3M3K10M6MY3F60","APDDA1Y59RHV9","3566S7OX5D5NH74JOVOPTTMK8IR17K","","null","<img src=""img/land3.png"" style=""width:200px;border:14px solid red;"">","null","","","","","","","","","",""
"","image-keyboard-response","192","82012","0.0-192.0","3AQF3RZ5594XP6IG3M3K10M6MY3F60","APDDA1Y59RHV9","3566S7OX5D5NH74JOVOPTTMK8IR17K","","130","img/land6.png","75","130.59999990463257","2","0","3","2","0.8,0.2,0.2,0.2,0.8,0.2,0.2,0.2,0.8","0.2,0.8,0.2,0.2,0.2,0.8,0.8,0.2,0.2","3","",""
"","html-keyboard-response","193","82313","0.0-193.0","3AQF3RZ5594XP6IG3M3K10M6MY3F60","APDDA1Y59RHV9","3566S7OX5D5NH74JOVOPTTMK8IR17K","","null","<img src=""img/land6.png"" style=""width:200px;border:14px solid red;"">","null","","","","","","","","","",""
"","image-keyboard-response","194","82636","0.0-194.0","3AQF3RZ5594XP6IG3M3K10M6MY3F60","APDDA1Y59RHV9","3566S7OX5D5NH74JOVOPTTMK8IR17K","","322.7000002861023","img/land6.png","76","323.5","3","1","3","2","0.8,0.2,0.2,0.2,0.8,0.2,0.2,0.2,0.8","0.2,0.8,0.2,0.2,0.2,0.8,0.8,0.2,0.2","3","",""
"","html-keyboard-response","195","82939","0.0-195.0","3AQF3RZ5594XP6IG3M3K10M6MY3F60","APDDA1Y59RHV9","3566S7OX5D5NH74JOVOPTTMK8IR17K","","null","<img src=""img/land6.png"" style=""width:200px; border:14px solid green;"">","null","","","","","","","","","",""
"","image-keyboard-response","196","83187","0.0-196.0","3AQF3RZ5594XP6IG3M3K10M6MY3F60","APDDA1Y59RHV9","3566S7OX5D5NH74JOVOPTTMK8IR17K","","247.5","img/land6.png","75","248.09999990463257","2","0","3","2","0.8,0.2,0.2,0.2,0.8,0.2,0.2,0.2,0.8","0.2,0.8,0.2,0.2,0.2,0.8,0.8,0.2,0.2","3","",""
"","html-keyboard-response","197","83488","0.0-197.0","3AQF3RZ5594XP6IG3M3K10M6MY3F60","APDDA1Y59RHV9","3566S7OX5D5NH74JOVOPTTMK8IR17K","","null","<img src=""img/land6.png"" style=""width:200px;border:14px solid red;"">","null","","","","","","","","","",""
"","image-keyboard-response","198","83723","0.0-198.0","3AQF3RZ5594XP6IG3M3K10M6MY3F60","APDDA1Y59RHV9","3566S7OX5D5NH74JOVOPTTMK8IR17K","","233.7999997138977","img/land6.png","75","234.7000002861023","2","0","3","2","0.8,0.2,0.2,0.2,0.8,0.2,0.2,0.2,0.8","0.2,0.8,0.2,0.2,0.2,0.8,0.8,0.2,0.2","3","",""
"","html-keyboard-response","199","84025","0.0-199.0","3AQF3RZ5594XP6IG3M3K10M6MY3F60","APDDA1Y59RHV9","3566S7OX5D5NH74JOVOPTTMK8IR17K","","null","<img src=""img/land6.png"" style=""width:200px;border:14px solid red;"">","null","","","","","","","","","",""
"","image-keyboard-response","200","84261","0.0-200.0","3AQF3RZ5594XP6IG3M3K10M6MY3F60","APDDA1Y59RHV9","3566S7OX5D5NH74JOVOPTTMK8IR17K","","234.5","img/land1.png","74","235.59999990463257","1","0","1","2","0.8,0.2,0.2,0.2,0.8,0.2,0.2,0.2,0.8","0.2,0.8,0.2,0.2,0.2,0.8,0.8,0.2,0.2","3","",""
"","html-keyboard-response","201","84563","0.0-201.0","3AQF3RZ5594XP6IG3M3K10M6MY3F60","APDDA1Y59RHV9","3566S7OX5D5NH74JOVOPTTMK8IR17K","","null","<img src=""img/land1.png"" style=""width:200px;border:14px solid red;"">","null","","","","","","","","","",""
"","image-keyboard-response","202","84772","0.0-202.0","3AQF3RZ5594XP6IG3M3K10M6MY3F60","APDDA1Y59RHV9","3566S7OX5D5NH74JOVOPTTMK8IR17K","","207.69999980926514","img/land1.png","74","208.40000009536743","1","0","1","2","0.8,0.2,0.2,0.2,0.8,0.2,0.2,0.2,0.8","0.2,0.8,0.2,0.2,0.2,0.8,0.8,0.2,0.2","3","",""
"","html-keyboard-response","203","85073","0.0-203.0","3AQF3RZ5594XP6IG3M3K10M6MY3F60","APDDA1Y59RHV9","3566S7OX5D5NH74JOVOPTTMK8IR17K","","null","<img src=""img/land1.png"" style=""width:200px;border:14px solid red;"">","null","","","","","","","","","",""
"","image-keyboard-response","204","85541","0.0-204.0","3AQF3RZ5594XP6IG3M3K10M6MY3F60","APDDA1Y59RHV9","3566S7OX5D5NH74JOVOPTTMK8IR17K","","466.7999997138977","img/land3.png","75","468.09999990463257","2","0","2","2","0.8,0.2,0.2,0.2,0.8,0.2,0.2,0.2,0.8","0.2,0.8,0.2,0.2,0.2,0.8,0.8,0.2,0.2","3","",""
"","html-keyboard-response","205","85843","0.0-205.0","3AQF3RZ5594XP6IG3M3K10M6MY3F60","APDDA1Y59RHV9","3566S7OX5D5NH74JOVOPTTMK8IR17K","","null","<img src=""img/land3.png"" style=""width:200px;border:14px solid red;"">","null","","","","","","","","","",""
"","image-keyboard-response","206","86117","0.0-206.0","3AQF3RZ5594XP6IG3M3K10M6MY3F60","APDDA1Y59RHV9","3566S7OX5D5NH74JOVOPTTMK8IR17K","","273.3999996185303","img/land1.png","75","273.90000009536743","2","1","1","2","0.8,0.2,0.2,0.2,0.8,0.2,0.2,0.2,0.8","0.2,0.8,0.2,0.2,0.2,0.8,0.8,0.2,0.2","3","",""
"","html-keyboard-response","207","86418","0.0-207.0","3AQF3RZ5594XP6IG3M3K10M6MY3F60","APDDA1Y59RHV9","3566S7OX5D5NH74JOVOPTTMK8IR17K","","null","<img src=""img/land1.png"" style=""width:200px; border:14px solid green;"">","null","","","","","","","","","",""
"","image-keyboard-response","208","86540","0.0-208.0","3AQF3RZ5594XP6IG3M3K10M6MY3F60","APDDA1Y59RHV9","3566S7OX5D5NH74JOVOPTTMK8IR17K","","120.7999997138977","img/land6.png","76","121.30000019073486","3","0","3","2","0.8,0.2,0.2,0.2,0.8,0.2,0.2,0.2,0.8","0.2,0.8,0.2,0.2,0.2,0.8,0.8,0.2,0.2","3","",""
"","html-keyboard-response","209","86841","0.0-209.0","3AQF3RZ5594XP6IG3M3K10M6MY3F60","APDDA1Y59RHV9","3566S7OX5D5NH74JOVOPTTMK8IR17K","","null","<img src=""img/land6.png"" style=""width:200px;border:14px solid red;"">","null","","","","","","","","","",""
"","image-keyboard-response","210","87035","0.0-210.0","3AQF3RZ5594XP6IG3M3K10M6MY3F60","APDDA1Y59RHV9","3566S7OX5D5NH74JOVOPTTMK8IR17K","","193","img/land1.png","75","193.69999980926514","2","0","1","2","0.8,0.2,0.2,0.2,0.8,0.2,0.2,0.2,0.8","0.2,0.8,0.2,0.2,0.2,0.8,0.8,0.2,0.2","3","",""
"","html-keyboard-response","211","87337","0.0-211.0","3AQF3RZ5594XP6IG3M3K10M6MY3F60","APDDA1Y59RHV9","3566S7OX5D5NH74JOVOPTTMK8IR17K","","null","<img src=""img/land1.png"" style=""width:200px;border:14px solid red;"">","null","","","","","","","","","",""
"","image-keyboard-response","212","87548","0.0-212.0","3AQF3RZ5594XP6IG3M3K10M6MY3F60","APDDA1Y59RHV9","3566S7OX5D5NH74JOVOPTTMK8IR17K","","210.5","img/land1.png","75","211.5","2","1","1","2","0.8,0.2,0.2,0.2,0.8,0.2,0.2,0.2,0.8","0.2,0.8,0.2,0.2,0.2,0.8,0.8,0.2,0.2","3","",""
"","html-keyboard-response","213","87851","0.0-213.0","3AQF3RZ5594XP6IG3M3K10M6MY3F60","APDDA1Y59RHV9","3566S7OX5D5NH74JOVOPTTMK8IR17K","","null","<img src=""img/land1.png"" style=""width:200px; border:14px solid green;"">","null","","","","","","","","","",""
"","image-keyboard-response","214","88140","0.0-214.0","3AQF3RZ5594XP6IG3M3K10M6MY3F60","APDDA1Y59RHV9","3566S7OX5D5NH74JOVOPTTMK8IR17K","","287.7000002861023","img/land1.png","75","288.2999997138977","2","1","1","2","0.8,0.2,0.2,0.2,0.8,0.2,0.2,0.2,0.8","0.2,0.8,0.2,0.2,0.2,0.8,0.8,0.2,0.2","3","",""
"","html-keyboard-response","215","88441","0.0-215.0","3AQF3RZ5594XP6IG3M3K10M6MY3F60","APDDA1Y59RHV9","3566S7OX5D5NH74JOVOPTTMK8IR17K","","null","<img src=""img/land1.png"" style=""width:200px; border:14px solid green;"">","null","","","","","","","","","",""
"","image-keyboard-response","216","88645","0.0-216.0","3AQF3RZ5594XP6IG3M3K10M6MY3F60","APDDA1Y59RHV9","3566S7OX5D5NH74JOVOPTTMK8IR17K","","201.7999997138977","img/land3.png","75","203.09999990463257","2","0","2","2","0.8,0.2,0.2,0.2,0.8,0.2,0.2,0.2,0.8","0.2,0.8,0.2,0.2,0.2,0.8,0.8,0.2,0.2","3","",""
"","html-keyboard-response","217","88946","0.0-217.0","3AQF3RZ5594XP6IG3M3K10M6MY3F60","APDDA1Y59RHV9","3566S7OX5D5NH74JOVOPTTMK8IR17K","","null","<img src=""img/land3.png"" style=""width:200px;border:14px solid red;"">","null","","","","","","","","","",""
"","image-keyboard-response","218","89123","0.0-218.0","3AQF3RZ5594XP6IG3M3K10M6MY3F60","APDDA1Y59RHV9","3566S7OX5D5NH74JOVOPTTMK8IR17K","","175.59999990463257","img/land1.png","74","176.59999990463257","1","0","1","2","0.8,0.2,0.2,0.2,0.8,0.2,0.2,0.2,0.8","0.2,0.8,0.2,0.2,0.2,0.8,0.8,0.2,0.2","3","",""
"","html-keyboard-response","219","89425","0.0-219.0","3AQF3RZ5594XP6IG3M3K10M6MY3F60","APDDA1Y59RHV9","3566S7OX5D5NH74JOVOPTTMK8IR17K","","null","<img src=""img/land1.png"" style=""width:200px;border:14px solid red;"">","null","","","","","","","","","",""
"","image-keyboard-response","220","89700","0.0-220.0","3AQF3RZ5594XP6IG3M3K10M6MY3F60","APDDA1Y59RHV9","3566S7OX5D5NH74JOVOPTTMK8IR17K","","273.30000019073486","img/land1.png","76","274.40000009536743","3","0","1","2","0.8,0.2,0.2,0.2,0.8,0.2,0.2,0.2,0.8","0.2,0.8,0.2,0.2,0.2,0.8,0.8,0.2,0.2","3","",""
"","html-keyboard-response","221","90002","0.0-221.0","3AQF3RZ5594XP6IG3M3K10M6MY3F60","APDDA1Y59RHV9","3566S7OX5D5NH74JOVOPTTMK8IR17K","","null","<img src=""img/land1.png"" style=""width:200px;border:14px solid red;"">","null","","","","","","","","","",""
"","image-keyboard-response","222","90228","0.0-222.0","3AQF3RZ5594XP6IG3M3K10M6MY3F60","APDDA1Y59RHV9","3566S7OX5D5NH74JOVOPTTMK8IR17K","","224.7999997138977","img/land1.png","76","225.5","3","0","1","2","0.8,0.2,0.2,0.2,0.8,0.2,0.2,0.2,0.8","0.2,0.8,0.2,0.2,0.2,0.8,0.8,0.2,0.2","3","",""
"","html-keyboard-response","223","90529","0.0-223.0","3AQF3RZ5594XP6IG3M3K10M6MY3F60","APDDA1Y59RHV9","3566S7OX5D5NH74JOVOPTTMK8IR17K","","null","<img src=""img/land1.png"" style=""width:200px;border:14px solid red;"">","null","","","","","","","","","",""
"","image-keyboard-response","224","90692","0.0-224.0","3AQF3RZ5594XP6IG3M3K10M6MY3F60","APDDA1Y59RHV9","3566S7OX5D5NH74JOVOPTTMK8IR17K","","162.2000002861023","img/land1.png","76","163.30000019073486","3","0","1","2","0.8,0.2,0.2,0.2,0.8,0.2,0.2,0.2,0.8","0.2,0.8,0.2,0.2,0.2,0.8,0.8,0.2,0.2","3","",""
"","html-keyboard-response","225","91001","0.0-225.0","3AQF3RZ5594XP6IG3M3K10M6MY3F60","APDDA1Y59RHV9","3566S7OX5D5NH74JOVOPTTMK8IR17K","","null","<img src=""img/land1.png"" style=""width:200px;border:14px solid red;"">","null","","","","","","","","","",""
"","image-keyboard-response","226","91117","0.0-226.0","3AQF3RZ5594XP6IG3M3K10M6MY3F60","APDDA1Y59RHV9","3566S7OX5D5NH74JOVOPTTMK8IR17K","","114.39999961853027","img/land1.png","75","115.69999980926514","2","1","1","2","0.8,0.2,0.2,0.2,0.8,0.2,0.2,0.2,0.8","0.2,0.8,0.2,0.2,0.2,0.8,0.8,0.2,0.2","3","",""
"","html-keyboard-response","227","91419","0.0-227.0","3AQF3RZ5594XP6IG3M3K10M6MY3F60","APDDA1Y59RHV9","3566S7OX5D5NH74JOVOPTTMK8IR17K","","null","<img src=""img/land1.png"" style=""width:200px; border:14px solid green;"">","null","","","","","","","","","",""
"","image-keyboard-response","228","91603","0.0-228.0","3AQF3RZ5594XP6IG3M3K10M6MY3F60","APDDA1Y59RHV9","3566S7OX5D5NH74JOVOPTTMK8IR17K","","183.90000009536743","img/land1.png","75","184.5","2","0","1","2","0.8,0.2,0.2,0.2,0.8,0.2,0.2,0.2,0.8","0.2,0.8,0.2,0.2,0.2,0.8,0.8,0.2,0.2","3","",""
"","html-keyboard-response","229","91904","0.0-229.0","3AQF3RZ5594XP6IG3M3K10M6MY3F60","APDDA1Y59RHV9","3566S7OX5D5NH74JOVOPTTMK8IR17K","","null","<img src=""img/land1.png"" style=""width:200px;border:14px solid red;"">","null","","","","","","","","","",""
"","image-keyboard-response","230","92019","0.0-230.0","3AQF3RZ5594XP6IG3M3K10M6MY3F60","APDDA1Y59RHV9","3566S7OX5D5NH74JOVOPTTMK8IR17K","","114.30000019073486","img/land1.png","75","114.69999980926514","2","1","1","2","0.8,0.2,0.2,0.2,0.8,0.2,0.2,0.2,0.8","0.2,0.8,0.2,0.2,0.2,0.8,0.8,0.2,0.2","3","",""
"","html-keyboard-response","231","92321","0.0-231.0","3AQF3RZ5594XP6IG3M3K10M6MY3F60","APDDA1Y59RHV9","3566S7OX5D5NH74JOVOPTTMK8IR17K","","null","<img src=""img/land1.png"" style=""width:200px; border:14px solid green;"">","null","","","","","","","","","",""
"","image-keyboard-response","232","92492","0.0-232.0","3AQF3RZ5594XP6IG3M3K10M6MY3F60","APDDA1Y59RHV9","3566S7OX5D5NH74JOVOPTTMK8IR17K","","170.80000019073486","img/land6.png","74","171.60000038146973","1","1","3","2","0.8,0.2,0.2,0.2,0.8,0.2,0.2,0.2,0.8","0.2,0.8,0.2,0.2,0.2,0.8,0.8,0.2,0.2","3","",""
"","html-keyboard-response","233","92794","0.0-233.0","3AQF3RZ5594XP6IG3M3K10M6MY3F60","APDDA1Y59RHV9","3566S7OX5D5NH74JOVOPTTMK8IR17K","","null","<img src=""img/land6.png"" style=""width:200px; border:14px solid green;"">","null","","","","","","","","","",""
"","image-keyboard-response","234","92955","0.0-234.0","3AQF3RZ5594XP6IG3M3K10M6MY3F60","APDDA1Y59RHV9","3566S7OX5D5NH74JOVOPTTMK8IR17K","","160.10000038146973","img/land3.png","74","160.59999990463257","1","0","2","2","0.8,0.2,0.2,0.2,0.8,0.2,0.2,0.2,0.8","0.2,0.8,0.2,0.2,0.2,0.8,0.8,0.2,0.2","3","",""
"","html-keyboard-response","235","93256","0.0-235.0","3AQF3RZ5594XP6IG3M3K10M6MY3F60","APDDA1Y59RHV9","3566S7OX5D5NH74JOVOPTTMK8IR17K","","null","<img src=""img/land3.png"" style=""width:200px;border:14px solid red;"">","null","","","","","","","","","",""
"","image-keyboard-response","236","93524","0.0-236.0","3AQF3RZ5594XP6IG3M3K10M6MY3F60","APDDA1Y59RHV9","3566S7OX5D5NH74JOVOPTTMK8IR17K","","265.69999980926514","img/land6.png","74","266.80000019073486","1","1","3","2","0.8,0.2,0.2,0.2,0.8,0.2,0.2,0.2,0.8","0.2,0.8,0.2,0.2,0.2,0.8,0.8,0.2,0.2","3","",""
"","html-keyboard-response","237","93825","0.0-237.0","3AQF3RZ5594XP6IG3M3K10M6MY3F60","APDDA1Y59RHV9","3566S7OX5D5NH74JOVOPTTMK8IR17K","","null","<img src=""img/land6.png"" style=""width:200px; border:14px solid green;"">","null","","","","","","","","","",""
"","image-keyboard-response","238","93964","0.0-238.0","3AQF3RZ5594XP6IG3M3K10M6MY3F60","APDDA1Y59RHV9","3566S7OX5D5NH74JOVOPTTMK8IR17K","","137.90000009536743","img/land6.png","75","138.5","2","0","3","2","0.8,0.2,0.2,0.2,0.8,0.2,0.2,0.2,0.8","0.2,0.8,0.2,0.2,0.2,0.8,0.8,0.2,0.2","3","",""
"","html-keyboard-response","239","94272","0.0-239.0","3AQF3RZ5594XP6IG3M3K10M6MY3F60","APDDA1Y59RHV9","3566S7OX5D5NH74JOVOPTTMK8IR17K","","null","<img src=""img/land6.png"" style=""width:200px;border:14px solid red;"">","null","","","","","","","","","",""
"","image-keyboard-response","240","94420","0.0-240.0","3AQF3RZ5594XP6IG3M3K10M6MY3F60","APDDA1Y59RHV9","3566S7OX5D5NH74JOVOPTTMK8IR17K","","146.7999997138977","img/land1.png","75","147.5","2","1","1","2","0.8,0.2,0.2,0.2,0.8,0.2,0.2,0.2,0.8","0.2,0.8,0.2,0.2,0.2,0.8,0.8,0.2,0.2","3","",""
"","html-keyboard-response","241","94722","0.0-241.0","3AQF3RZ5594XP6IG3M3K10M6MY3F60","APDDA1Y59RHV9","3566S7OX5D5NH74JOVOPTTMK8IR17K","","null","<img src=""img/land1.png"" style=""width:200px; border:14px solid green;"">","null","","","","","","","","","",""
"","image-keyboard-response","242","94884","0.0-242.0","3AQF3RZ5594XP6IG3M3K10M6MY3F60","APDDA1Y59RHV9","3566S7OX5D5NH74JOVOPTTMK8IR17K","","161.09999990463257","img/land3.png","74","161.5","1","1","2","2","0.8,0.2,0.2,0.2,0.8,0.2,0.2,0.2,0.8","0.2,0.8,0.2,0.2,0.2,0.8,0.8,0.2,0.2","3","",""
"","html-keyboard-response","243","95185","0.0-243.0","3AQF3RZ5594XP6IG3M3K10M6MY3F60","APDDA1Y59RHV9","3566S7OX5D5NH74JOVOPTTMK8IR17K","","null","<img src=""img/land3.png"" style=""width:200px; border:14px solid green;"">","null","","","","","","","","","",""
"","image-keyboard-response","244","95396","0.0-244.0","3AQF3RZ5594XP6IG3M3K10M6MY3F60","APDDA1Y59RHV9","3566S7OX5D5NH74JOVOPTTMK8IR17K","","210","img/land1.png","75","211.09999990463257","2","1","1","2","0.8,0.2,0.2,0.2,0.8,0.2,0.2,0.2,0.8","0.2,0.8,0.2,0.2,0.2,0.8,0.8,0.2,0.2","3","",""
"","html-keyboard-response","245","95699","0.0-245.0","3AQF3RZ5594XP6IG3M3K10M6MY3F60","APDDA1Y59RHV9","3566S7OX5D5NH74JOVOPTTMK8IR17K","","null","<img src=""img/land1.png"" style=""width:200px; border:14px solid green;"">","null","","","","","","","","","",""
"","image-keyboard-response","246","95853","0.0-246.0","3AQF3RZ5594XP6IG3M3K10M6MY3F60","APDDA1Y59RHV9","3566S7OX5D5NH74JOVOPTTMK8IR17K","","153","img/land1.png","74","153.59999990463257","1","0","1","2","0.8,0.2,0.2,0.2,0.8,0.2,0.2,0.2,0.8","0.2,0.8,0.2,0.2,0.2,0.8,0.8,0.2,0.2","3","",""
"","html-keyboard-response","247","96155","0.0-247.0","3AQF3RZ5594XP6IG3M3K10M6MY3F60","APDDA1Y59RHV9","3566S7OX5D5NH74JOVOPTTMK8IR17K","","null","<img src=""img/land1.png"" style=""width:200px;border:14px solid red;"">","null","","","","","","","","","",""
"","image-keyboard-response","248","96299","0.0-248.0","3AQF3RZ5594XP6IG3M3K10M6MY3F60","APDDA1Y59RHV9","3566S7OX5D5NH74JOVOPTTMK8IR17K","","143.89999961853027","img/land3.png","75","144.40000009536743","2","0","2","2","0.8,0.2,0.2,0.2,0.8,0.2,0.2,0.2,0.8","0.2,0.8,0.2,0.2,0.2,0.8,0.8,0.2,0.2","3","",""
"","html-keyboard-response","249","96601","0.0-249.0","3AQF3RZ5594XP6IG3M3K10M6MY3F60","APDDA1Y59RHV9","3566S7OX5D5NH74JOVOPTTMK8IR17K","","null","<img src=""img/land3.png"" style=""width:200px;border:14px solid red;"">","null","","","","","","","","","",""
"","image-keyboard-response","250","96765","0.0-250.0","3AQF3RZ5594XP6IG3M3K10M6MY3F60","APDDA1Y59RHV9","3566S7OX5D5NH74JOVOPTTMK8IR17K","","162.09999990463257","img/land1.png","75","163.30000019073486","2","1","1","2","0.8,0.2,0.2,0.2,0.8,0.2,0.2,0.2,0.8","0.2,0.8,0.2,0.2,0.2,0.8,0.8,0.2,0.2","3","",""
"","html-keyboard-response","251","97068","0.0-251.0","3AQF3RZ5594XP6IG3M3K10M6MY3F60","APDDA1Y59RHV9","3566S7OX5D5NH74JOVOPTTMK8IR17K","","null","<img src=""img/land1.png"" style=""width:200px; border:14px solid green;"">","null","","","","","","","","","",""
"","image-keyboard-response","252","97164","0.0-252.0","3AQF3RZ5594XP6IG3M3K10M6MY3F60","APDDA1Y59RHV9","3566S7OX5D5NH74JOVOPTTMK8IR17K","","94.59999990463257","img/land6.png","76","95.5","3","1","3","2","0.8,0.2,0.2,0.2,0.8,0.2,0.2,0.2,0.8","0.2,0.8,0.2,0.2,0.2,0.8,0.8,0.2,0.2","3","",""
"","html-keyboard-response","253","97465","0.0-253.0","3AQF3RZ5594XP6IG3M3K10M6MY3F60","APDDA1Y59RHV9","3566S7OX5D5NH74JOVOPTTMK8IR17K","","null","<img src=""img/land6.png"" style=""width:200px; border:14px solid green;"">","null","","","","","","","","","",""
"","image-keyboard-response","254","97563","0.0-254.0","3AQF3RZ5594XP6IG3M3K10M6MY3F60","APDDA1Y59RHV9","3566S7OX5D5NH74JOVOPTTMK8IR17K","","97.30000019073486","img/land1.png","76","97.7999997138977","3","0","1","2","0.8,0.2,0.2,0.2,0.8,0.2,0.2,0.2,0.8","0.2,0.8,0.2,0.2,0.2,0.8,0.8,0.2,0.2","3","",""
"","html-keyboard-response","255","97865","0.0-255.0","3AQF3RZ5594XP6IG3M3K10M6MY3F60","APDDA1Y59RHV9","3566S7OX5D5NH74JOVOPTTMK8IR17K","","null","<img src=""img/land1.png"" style=""width:200px;border:14px solid red;"">","null","","","","","","","","","",""
"","image-keyboard-response","256","98012","0.0-256.0","3AQF3RZ5594XP6IG3M3K10M6MY3F60","APDDA1Y59RHV9","3566S7OX5D5NH74JOVOPTTMK8IR17K","","145.39999961853027","img/land3.png","76","146.40000009536743","3","0","2","2","0.8,0.2,0.2,0.2,0.8,0.2,0.2,0.2,0.8","0.2,0.8,0.2,0.2,0.2,0.8,0.8,0.2,0.2","3","",""
"","html-keyboard-response","257","98313","0.0-257.0","3AQF3RZ5594XP6IG3M3K10M6MY3F60","APDDA1Y59RHV9","3566S7OX5D5NH74JOVOPTTMK8IR17K","","null","<img src=""img/land3.png"" style=""width:200px;border:14px solid red;"">","null","","","","","","","","","",""
"","image-keyboard-response","258","98428","0.0-258.0","3AQF3RZ5594XP6IG3M3K10M6MY3F60","APDDA1Y59RHV9","3566S7OX5D5NH74JOVOPTTMK8IR17K","","114.40000009536743","img/land3.png","75","115.5","2","0","2","2","0.8,0.2,0.2,0.2,0.8,0.2,0.2,0.2,0.8","0.2,0.8,0.2,0.2,0.2,0.8,0.8,0.2,0.2","3","",""
"","html-keyboard-response","259","98730","0.0-259.0","3AQF3RZ5594XP6IG3M3K10M6MY3F60","APDDA1Y59RHV9","3566S7OX5D5NH74JOVOPTTMK8IR17K","","null","<img src=""img/land3.png"" style=""width:200px;border:14px solid red;"">","null","","","","","","","","","",""
"","image-keyboard-response","260","98828","0.0-260.0","3AQF3RZ5594XP6IG3M3K10M6MY3F60","APDDA1Y59RHV9","3566S7OX5D5NH74JOVOPTTMK8IR17K","","96.59999990463257","img/land6.png","75","97.69999980926514","2","1","3","2","0.8,0.2,0.2,0.2,0.8,0.2,0.2,0.2,0.8","0.2,0.8,0.2,0.2,0.2,0.8,0.8,0.2,0.2","3","",""
"","html-keyboard-response","261","99130","0.0-261.0","3AQF3RZ5594XP6IG3M3K10M6MY3F60","APDDA1Y59RHV9","3566S7OX5D5NH74JOVOPTTMK8IR17K","","null","<img src=""img/land6.png"" style=""width:200px; border:14px solid green;"">","null","","","","","","","","","",""
"","image-keyboard-response","262","99252","0.0-262.0","3AQF3RZ5594XP6IG3M3K10M6MY3F60","APDDA1Y59RHV9","3566S7OX5D5NH74JOVOPTTMK8IR17K","","120.89999961853027","img/land1.png","74","121.5","1","0","1","2","0.8,0.2,0.2,0.2,0.8,0.2,0.2,0.2,0.8","0.2,0.8,0.2,0.2,0.2,0.8,0.8,0.2,0.2","3","",""
"","html-keyboard-response","263","99553","0.0-263.0","3AQF3RZ5594XP6IG3M3K10M6MY3F60","APDDA1Y59RHV9","3566S7OX5D5NH74JOVOPTTMK8IR17K","","null","<img src=""img/land1.png"" style=""width:200px;border:14px solid red;"">","null","","","","","","","","","",""
"","image-keyboard-response","264","99845","0.0-264.0","3AQF3RZ5594XP6IG3M3K10M6MY3F60","APDDA1Y59RHV9","3566S7OX5D5NH74JOVOPTTMK8IR17K","","290.7000002861023","img/land6.png","75","291.40000009536743","2","0","3","2","0.8,0.2,0.2,0.2,0.8,0.2,0.2,0.2,0.8","0.2,0.8,0.2,0.2,0.2,0.8,0.8,0.2,0.2","3","",""
"","html-keyboard-response","265","100147","0.0-265.0","3AQF3RZ5594XP6IG3M3K10M6MY3F60","APDDA1Y59RHV9","3566S7OX5D5NH74JOVOPTTMK8IR17K","","null","<img src=""img/land6.png"" style=""width:200px;border:14px solid red;"">","null","","","","","","","","","",""
"","image-keyboard-response","266","100253","0.0-266.0","3AQF3RZ5594XP6IG3M3K10M6MY3F60","APDDA1Y59RHV9","3566S7OX5D5NH74JOVOPTTMK8IR17K","","104.2999997138977","img/land1.png","75","105.40000009536743","2","1","1","2","0.8,0.2,0.2,0.2,0.8,0.2,0.2,0.2,0.8","0.2,0.8,0.2,0.2,0.2,0.8,0.8,0.2,0.2","3","",""
"","html-keyboard-response","267","100555","0.0-267.0","3AQF3RZ5594XP6IG3M3K10M6MY3F60","APDDA1Y59RHV9","3566S7OX5D5NH74JOVOPTTMK8IR17K","","null","<img src=""img/land1.png"" style=""width:200px; border:14px solid green;"">","null","","","","","","","","","",""
"","image-keyboard-response","268","100684","0.0-268.0","3AQF3RZ5594XP6IG3M3K10M6MY3F60","APDDA1Y59RHV9","3566S7OX5D5NH74JOVOPTTMK8IR17K","","127","img/land1.png","75","128.2999997138977","2","1","1","2","0.8,0.2,0.2,0.2,0.8,0.2,0.2,0.2,0.8","0.2,0.8,0.2,0.2,0.2,0.8,0.8,0.2,0.2","3","",""
"","html-keyboard-response","269","100985","0.0-269.0","3AQF3RZ5594XP6IG3M3K10M6MY3F60","APDDA1Y59RHV9","3566S7OX5D5NH74JOVOPTTMK8IR17K","","null","<img src=""img/land1.png"" style=""width:200px; border:14px solid green;"">","null","","","","","","","","","",""
"","image-keyboard-response","270","101110","0.0-270.0","3AQF3RZ5594XP6IG3M3K10M6MY3F60","APDDA1Y59RHV9","3566S7OX5D5NH74JOVOPTTMK8IR17K","","123.19999980926514","img/land3.png","75","124.30000019073486","2","0","2","2","0.8,0.2,0.2,0.2,0.8,0.2,0.2,0.2,0.8","0.2,0.8,0.2,0.2,0.2,0.8,0.8,0.2,0.2","3","",""
"","html-keyboard-response","271","101412","0.0-271.0","3AQF3RZ5594XP6IG3M3K10M6MY3F60","APDDA1Y59RHV9","3566S7OX5D5NH74JOVOPTTMK8IR17K","","null","<img src=""img/land3.png"" style=""width:200px;border:14px solid red;"">","null","","","","","","","","","",""
"","image-keyboard-response","272","101557","0.0-272.0","3AQF3RZ5594XP6IG3M3K10M6MY3F60","APDDA1Y59RHV9","3566S7OX5D5NH74JOVOPTTMK8IR17K","","144.40000009536743","img/land3.png","74","145.09999990463257","1","0","2","2","0.8,0.2,0.2,0.2,0.8,0.2,0.2,0.2,0.8","0.2,0.8,0.2,0.2,0.2,0.8,0.8,0.2,0.2","3","",""
"","html-keyboard-response","273","101871","0.0-273.0","3AQF3RZ5594XP6IG3M3K10M6MY3F60","APDDA1Y59RHV9","3566S7OX5D5NH74JOVOPTTMK8IR17K","","null","<img src=""img/land3.png"" style=""width:200px;border:14px solid red;"">","null","","","","","","","","","",""
"","image-keyboard-response","274","101988","0.0-274.0","3AQF3RZ5594XP6IG3M3K10M6MY3F60","APDDA1Y59RHV9","3566S7OX5D5NH74JOVOPTTMK8IR17K","","115.2000002861023","img/land1.png","75","116.09999990463257","2","1","1","2","0.8,0.2,0.2,0.2,0.8,0.2,0.2,0.2,0.8","0.2,0.8,0.2,0.2,0.2,0.8,0.8,0.2,0.2","3","",""
"","html-keyboard-response","275","102289","0.0-275.0","3AQF3RZ5594XP6IG3M3K10M6MY3F60","APDDA1Y59RHV9","3566S7OX5D5NH74JOVOPTTMK8IR17K","","null","<img src=""img/land1.png"" style=""width:200px; border:14px solid green;"">","null","","","","","","","","","",""
"","image-keyboard-response","276","102428","0.0-276.0","3AQF3RZ5594XP6IG3M3K10M6MY3F60","APDDA1Y59RHV9","3566S7OX5D5NH74JOVOPTTMK8IR17K","","138.40000009536743","img/land3.png","75","139.7999997138977","2","1","2","2","0.8,0.2,0.2,0.2,0.8,0.2,0.2,0.2,0.8","0.2,0.8,0.2,0.2,0.2,0.8,0.8,0.2,0.2","3","",""
"","html-keyboard-response","277","102731","0.0-277.0","3AQF3RZ5594XP6IG3M3K10M6MY3F60","APDDA1Y59RHV9","3566S7OX5D5NH74JOVOPTTMK8IR17K","","null","<img src=""img/land3.png"" style=""width:200px; border:14px solid green;"">","null","","","","","","","","","",""
"","image-keyboard-response","278","102844","0.0-278.0","3AQF3RZ5594XP6IG3M3K10M6MY3F60","APDDA1Y59RHV9","3566S7OX5D5NH74JOVOPTTMK8IR17K","","112.80000019073486","img/land1.png","75","113.30000019073486","2","1","1","2","0.8,0.2,0.2,0.2,0.8,0.2,0.2,0.2,0.8","0.2,0.8,0.2,0.2,0.2,0.8,0.8,0.2,0.2","3","",""
"","html-keyboard-response","279","103146","0.0-279.0","3AQF3RZ5594XP6IG3M3K10M6MY3F60","APDDA1Y59RHV9","3566S7OX5D5NH74JOVOPTTMK8IR17K","","null","<img src=""img/land1.png"" style=""width:200px; border:14px solid green;"">","null","","","","","","","","","",""
"","image-keyboard-response","280","103277","0.0-280.0","3AQF3RZ5594XP6IG3M3K10M6MY3F60","APDDA1Y59RHV9","3566S7OX5D5NH74JOVOPTTMK8IR17K","","130.30000019073486","img/land3.png","75","131.30000019073486","2","0","2","2","0.8,0.2,0.2,0.2,0.8,0.2,0.2,0.2,0.8","0.2,0.8,0.2,0.2,0.2,0.8,0.8,0.2,0.2","3","",""
"","html-keyboard-response","281","103579","0.0-281.0","3AQF3RZ5594XP6IG3M3K10M6MY3F60","APDDA1Y59RHV9","3566S7OX5D5NH74JOVOPTTMK8IR17K","","null","<img src=""img/land3.png"" style=""width:200px;border:14px solid red;"">","null","","","","","","","","","",""
"","image-keyboard-response","282","103699","0.0-282.0","3AQF3RZ5594XP6IG3M3K10M6MY3F60","APDDA1Y59RHV9","3566S7OX5D5NH74JOVOPTTMK8IR17K","","119.2000002861023","img/land1.png","75","120.19999980926514","2","1","1","2","0.8,0.2,0.2,0.2,0.8,0.2,0.2,0.2,0.8","0.2,0.8,0.2,0.2,0.2,0.8,0.8,0.2,0.2","3","",""
"","html-keyboard-response","283","104001","0.0-283.0","3AQF3RZ5594XP6IG3M3K10M6MY3F60","APDDA1Y59RHV9","3566S7OX5D5NH74JOVOPTTMK8IR17K","","null","<img src=""img/land1.png"" style=""width:200px; border:14px solid green;"">","null","","","","","","","","","",""
"","image-keyboard-response","284","104108","0.0-284.0","3AQF3RZ5594XP6IG3M3K10M6MY3F60","APDDA1Y59RHV9","3566S7OX5D5NH74JOVOPTTMK8IR17K","","105.19999980926514","img/land6.png","76","106.09999990463257","3","0","3","2","0.8,0.2,0.2,0.2,0.8,0.2,0.2,0.2,0.8","0.2,0.8,0.2,0.2,0.2,0.8,0.8,0.2,0.2","3","",""
"","html-keyboard-response","285","104410","0.0-285.0","3AQF3RZ5594XP6IG3M3K10M6MY3F60","APDDA1Y59RHV9","3566S7OX5D5NH74JOVOPTTMK8IR17K","","null","<img src=""img/land6.png"" style=""width:200px;border:14px solid red;"">","null","","","","","","","","","",""
"","image-keyboard-response","286","104571","0.0-286.0","3AQF3RZ5594XP6IG3M3K10M6MY3F60","APDDA1Y59RHV9","3566S7OX5D5NH74JOVOPTTMK8IR17K","","160.5","img/land6.png","76","161.2000002861023","3","0","3","2","0.8,0.2,0.2,0.2,0.8,0.2,0.2,0.2,0.8","0.2,0.8,0.2,0.2,0.2,0.8,0.8,0.2,0.2","3","",""
"","html-keyboard-response","287","104872","0.0-287.0","3AQF3RZ5594XP6IG3M3K10M6MY3F60","APDDA1Y59RHV9","3566S7OX5D5NH74JOVOPTTMK8IR17K","","null","<img src=""img/land6.png"" style=""width:200px;border:14px solid red;"">","null","","","","","","","","","",""
"","image-keyboard-response","288","105077","0.0-288.0","3AQF3RZ5594XP6IG3M3K10M6MY3F60","APDDA1Y59RHV9","3566S7OX5D5NH74JOVOPTTMK8IR17K","","202.69999980926514","img/land1.png","75","204","2","1","1","2","0.8,0.2,0.2,0.2,0.8,0.2,0.2,0.2,0.8","0.2,0.8,0.2,0.2,0.2,0.8,0.8,0.2,0.2","3","",""
"","html-keyboard-response","289","105379","0.0-289.0","3AQF3RZ5594XP6IG3M3K10M6MY3F60","APDDA1Y59RHV9","3566S7OX5D5NH74JOVOPTTMK8IR17K","","null","<img src=""img/land1.png"" style=""width:200px; border:14px solid green;"">","null","","","","","","","","","",""
"","image-keyboard-response","290","105525","0.0-290.0","3AQF3RZ5594XP6IG3M3K10M6MY3F60","APDDA1Y59RHV9","3566S7OX5D5NH74JOVOPTTMK8IR17K","","144.09999990463257","img/land1.png","75","145.30000019073486","2","1","1","2","0.8,0.2,0.2,0.2,0.8,0.2,0.2,0.2,0.8","0.2,0.8,0.2,0.2,0.2,0.8,0.8,0.2,0.2","3","",""
"","html-keyboard-response","291","105827","0.0-291.0","3AQF3RZ5594XP6IG3M3K10M6MY3F60","APDDA1Y59RHV9","3566S7OX5D5NH74JOVOPTTMK8IR17K","","null","<img src=""img/land1.png"" style=""width:200px; border:14px solid green;"">","null","","","","","","","","","",""
"","image-keyboard-response","292","105933","0.0-292.0","3AQF3RZ5594XP6IG3M3K10M6MY3F60","APDDA1Y59RHV9","3566S7OX5D5NH74JOVOPTTMK8IR17K","","104.19999980926514","img/land1.png","74","105.80000019073486","1","0","1","2","0.8,0.2,0.2,0.2,0.8,0.2,0.2,0.2,0.8","0.2,0.8,0.2,0.2,0.2,0.8,0.8,0.2,0.2","3","",""
"","html-keyboard-response","293","106235","0.0-293.0","3AQF3RZ5594XP6IG3M3K10M6MY3F60","APDDA1Y59RHV9","3566S7OX5D5NH74JOVOPTTMK8IR17K","","null","<img src=""img/land1.png"" style=""width:200px;border:14px solid red;"">","null","","","","","","","","","",""
"","image-keyboard-response","294","106459","0.0-294.0","3AQF3RZ5594XP6IG3M3K10M6MY3F60","APDDA1Y59RHV9","3566S7OX5D5NH74JOVOPTTMK8IR17K","","223","img/land6.png","74","224","1","1","3","2","0.8,0.2,0.2,0.2,0.8,0.2,0.2,0.2,0.8","0.2,0.8,0.2,0.2,0.2,0.8,0.8,0.2,0.2","3","",""
"","html-keyboard-response","295","106761","0.0-295.0","3AQF3RZ5594XP6IG3M3K10M6MY3F60","APDDA1Y59RHV9","3566S7OX5D5NH74JOVOPTTMK8IR17K","","null","<img src=""img/land6.png"" style=""width:200px; border:14px solid green;"">","null","","","","","","","","","",""
"","image-keyboard-response","296","106893","0.0-296.0","3AQF3RZ5594XP6IG3M3K10M6MY3F60","APDDA1Y59RHV9","3566S7OX5D5NH74JOVOPTTMK8IR17K","","130.7999997138977","img/land6.png","75","131.69999980926514","2","0","3","2","0.8,0.2,0.2,0.2,0.8,0.2,0.2,0.2,0.8","0.2,0.8,0.2,0.2,0.2,0.8,0.8,0.2,0.2","3","",""
"","html-keyboard-response","297","107195","0.0-297.0","3AQF3RZ5594XP6IG3M3K10M6MY3F60","APDDA1Y59RHV9","3566S7OX5D5NH74JOVOPTTMK8IR17K","","null","<img src=""img/land6.png"" style=""width:200px;border:14px solid red;"">","null","","","","","","","","","",""
"","image-keyboard-response","298","107292","0.0-298.0","3AQF3RZ5594XP6IG3M3K10M6MY3F60","APDDA1Y59RHV9","3566S7OX5D5NH74JOVOPTTMK8IR17K","","95.59999990463257","img/land1.png","75","96.40000009536743","2","1","1","2","0.8,0.2,0.2,0.2,0.8,0.2,0.2,0.2,0.8","0.2,0.8,0.2,0.2,0.2,0.8,0.8,0.2,0.2","3","",""
"","html-keyboard-response","299","107594","0.0-299.0","3AQF3RZ5594XP6IG3M3K10M6MY3F60","APDDA1Y59RHV9","3566S7OX5D5NH74JOVOPTTMK8IR17K","","null","<img src=""img/land1.png"" style=""width:200px; border:14px solid green;"">","null","","","","","","","","","",""
"","image-keyboard-response","300","107715","0.0-300.0","3AQF3RZ5594XP6IG3M3K10M6MY3F60","APDDA1Y59RHV9","3566S7OX5D5NH74JOVOPTTMK8IR17K","","121.2999997138977","img/land1.png","75","121.7000002861023","2","0","1","2","0.8,0.2,0.2,0.2,0.8,0.2,0.2,0.2,0.8","0.2,0.8,0.2,0.2,0.2,0.8,0.8,0.2,0.2","3","",""
"","html-keyboard-response","301","108022","0.0-301.0","3AQF3RZ5594XP6IG3M3K10M6MY3F60","APDDA1Y59RHV9","3566S7OX5D5NH74JOVOPTTMK8IR17K","","null","<img src=""img/land1.png"" style=""width:200px;border:14px solid red;"">","null","","","","","","","","","",""
"","image-keyboard-response","302","108188","0.0-302.0","3AQF3RZ5594XP6IG3M3K10M6MY3F60","APDDA1Y59RHV9","3566S7OX5D5NH74JOVOPTTMK8IR17K","","164.19999980926514","img/land4.png","75","165.2000002861023","2","0","3","1","0.8,0.2,0.2,0.2,0.8,0.2,0.2,0.2,0.8","0.8,0.2,0.2,0.2,0.8,0.2,0.2,0.2,0.8","1","",""
"","html-keyboard-response","303","108490","0.0-303.0","3AQF3RZ5594XP6IG3M3K10M6MY3F60","APDDA1Y59RHV9","3566S7OX5D5NH74JOVOPTTMK8IR17K","","null","<img src=""img/land4.png"" style=""width:200px;border:14px solid red;"">","null","","","","","","","","","",""
"","image-keyboard-response","304","108604","0.0-304.0","3AQF3RZ5594XP6IG3M3K10M6MY3F60","APDDA1Y59RHV9","3566S7OX5D5NH74JOVOPTTMK8IR17K","","113.40000009536743","img/land5.png","75","114.2000002861023","2","0","1","1","0.8,0.2,0.2,0.2,0.8,0.2,0.2,0.2,0.8","0.8,0.2,0.2,0.2,0.8,0.2,0.2,0.2,0.8","1","",""
"","html-keyboard-response","305","108905","0.0-305.0","3AQF3RZ5594XP6IG3M3K10M6MY3F60","APDDA1Y59RHV9","3566S7OX5D5NH74JOVOPTTMK8IR17K","","null","<img src=""img/land5.png"" style=""width:200px;border:14px solid red;"">","null","","","","","","","","","",""
"","image-keyboard-response","306","109045","0.0-306.0","3AQF3RZ5594XP6IG3M3K10M6MY3F60","APDDA1Y59RHV9","3566S7OX5D5NH74JOVOPTTMK8IR17K","","138.40000009536743","img/land4.png","75","139.19999980926514","2","0","3","1","0.8,0.2,0.2,0.2,0.8,0.2,0.2,0.2,0.8","0.8,0.2,0.2,0.2,0.8,0.2,0.2,0.2,0.8","1","",""
"","html-keyboard-response","307","109347","0.0-307.0","3AQF3RZ5594XP6IG3M3K10M6MY3F60","APDDA1Y59RHV9","3566S7OX5D5NH74JOVOPTTMK8IR17K","","null","<img src=""img/land4.png"" style=""width:200px;border:14px solid red;"">","null","","","","","","","","","",""
"","image-keyboard-response","308","109396","0.0-308.0","3AQF3RZ5594XP6IG3M3K10M6MY3F60","APDDA1Y59RHV9","3566S7OX5D5NH74JOVOPTTMK8IR17K","","47.299999713897705","img/land5.png","76","48.40000009536743","3","0","1","1","0.8,0.2,0.2,0.2,0.8,0.2,0.2,0.2,0.8","0.8,0.2,0.2,0.2,0.8,0.2,0.2,0.2,0.8","1","",""
"","html-keyboard-response","309","109697","0.0-309.0","3AQF3RZ5594XP6IG3M3K10M6MY3F60","APDDA1Y59RHV9","3566S7OX5D5NH74JOVOPTTMK8IR17K","","null","<img src=""img/land5.png"" style=""width:200px;border:14px solid red;"">","null","","","","","","","","","",""
"","image-keyboard-response","310","109861","0.0-310.0","3AQF3RZ5594XP6IG3M3K10M6MY3F60","APDDA1Y59RHV9","3566S7OX5D5NH74JOVOPTTMK8IR17K","","163.30000019073486","img/land4.png","76","164","3","1","3","1","0.8,0.2,0.2,0.2,0.8,0.2,0.2,0.2,0.8","0.8,0.2,0.2,0.2,0.8,0.2,0.2,0.2,0.8","1","",""
"","html-keyboard-response","311","110163","0.0-311.0","3AQF3RZ5594XP6IG3M3K10M6MY3F60","APDDA1Y59RHV9","3566S7OX5D5NH74JOVOPTTMK8IR17K","","null","<img src=""img/land4.png"" style=""width:200px; border:14px solid green;"">","null","","","","","","","","","",""
"","image-keyboard-response","312","110252","0.0-312.0","3AQF3RZ5594XP6IG3M3K10M6MY3F60","APDDA1Y59RHV9","3566S7OX5D5NH74JOVOPTTMK8IR17K","","88.40000009536743","img/land4.png","76","89.2000002861023","3","1","3","1","0.8,0.2,0.2,0.2,0.8,0.2,0.2,0.2,0.8","0.8,0.2,0.2,0.2,0.8,0.2,0.2,0.2,0.8","1","",""
"","html-keyboard-response","313","110555","0.0-313.0","3AQF3RZ5594XP6IG3M3K10M6MY3F60","APDDA1Y59RHV9","3566S7OX5D5NH74JOVOPTTMK8IR17K","","null","<img src=""img/land4.png"" style=""width:200px; border:14px solid green;"">","null","","","","","","","","","",""
"","image-keyboard-response","314","110733","0.0-314.0","3AQF3RZ5594XP6IG3M3K10M6MY3F60","APDDA1Y59RHV9","3566S7OX5D5NH74JOVOPTTMK8IR17K","","177","img/land5.png","76","177.80000019073486","3","0","1","1","0.8,0.2,0.2,0.2,0.8,0.2,0.2,0.2,0.8","0.8,0.2,0.2,0.2,0.8,0.2,0.2,0.2,0.8","1","",""
"","html-keyboard-response","315","111035","0.0-315.0","3AQF3RZ5594XP6IG3M3K10M6MY3F60","APDDA1Y59RHV9","3566S7OX5D5NH74JOVOPTTMK8IR17K","","null","<img src=""img/land5.png"" style=""width:200px;border:14px solid red;"">","null","","","","","","","","","",""
"","image-keyboard-response","316","111125","0.0-316.0","3AQF3RZ5594XP6IG3M3K10M6MY3F60","APDDA1Y59RHV9","3566S7OX5D5NH74JOVOPTTMK8IR17K","","89.09999990463257","img/land4.png","76","89.7999997138977","3","1","3","1","0.8,0.2,0.2,0.2,0.8,0.2,0.2,0.2,0.8","0.8,0.2,0.2,0.2,0.8,0.2,0.2,0.2,0.8","1","",""
"","html-keyboard-response","317","111427","0.0-317.0","3AQF3RZ5594XP6IG3M3K10M6MY3F60","APDDA1Y59RHV9","3566S7OX5D5NH74JOVOPTTMK8IR17K","","null","<img src=""img/land4.png"" style=""width:200px; border:14px solid green;"">","null","","","","","","","","","",""
"","image-keyboard-response","318","111548","0.0-318.0","3AQF3RZ5594XP6IG3M3K10M6MY3F60","APDDA1Y59RHV9","3566S7OX5D5NH74JOVOPTTMK8IR17K","","120.2000002861023","img/land5.png","75","120.80000019073486","2","0","1","1","0.8,0.2,0.2,0.2,0.8,0.2,0.2,0.2,0.8","0.8,0.2,0.2,0.2,0.8,0.2,0.2,0.2,0.8","1","",""
"","html-keyboard-response","319","111850","0.0-319.0","3AQF3RZ5594XP6IG3M3K10M6MY3F60","APDDA1Y59RHV9","3566S7OX5D5NH74JOVOPTTMK8IR17K","","null","<img src=""img/land5.png"" style=""width:200px;border:14px solid red;"">","null","","","","","","","","","",""
"","image-keyboard-response","320","111940","0.0-320.0","3AQF3RZ5594XP6IG3M3K10M6MY3F60","APDDA1Y59RHV9","3566S7OX5D5NH74JOVOPTTMK8IR17K","","89","img/land4.png","75","90.30000019073486","2","0","3","1","0.8,0.2,0.2,0.2,0.8,0.2,0.2,0.2,0.8","0.8,0.2,0.2,0.2,0.8,0.2,0.2,0.2,0.8","1","",""
"","html-keyboard-response","321","112251","0.0-321.0","3AQF3RZ5594XP6IG3M3K10M6MY3F60","APDDA1Y59RHV9","3566S7OX5D5NH74JOVOPTTMK8IR17K","","null","<img src=""img/land4.png"" style=""width:200px;border:14px solid red;"">","null","","","","","","","","","",""
"","image-keyboard-response","322","112332","0.0-322.0","3AQF3RZ5594XP6IG3M3K10M6MY3F60","APDDA1Y59RHV9","3566S7OX5D5NH74JOVOPTTMK8IR17K","","79.5","img/land2.png","75","80.5","2","1","2","1","0.8,0.2,0.2,0.2,0.8,0.2,0.2,0.2,0.8","0.8,0.2,0.2,0.2,0.8,0.2,0.2,0.2,0.8","1","",""
"","html-keyboard-response","323","112634","0.0-323.0","3AQF3RZ5594XP6IG3M3K10M6MY3F60","APDDA1Y59RHV9","3566S7OX5D5NH74JOVOPTTMK8IR17K","","null","<img src=""img/land2.png"" style=""width:200px; border:14px solid green;"">","null","","","","","","","","","",""
"","image-keyboard-response","324","112755","0.0-324.0","3AQF3RZ5594XP6IG3M3K10M6MY3F60","APDDA1Y59RHV9","3566S7OX5D5NH74JOVOPTTMK8IR17K","","121.19999980926514","img/land5.png","74","121.7000002861023","1","1","1","1","0.8,0.2,0.2,0.2,0.8,0.2,0.2,0.2,0.8","0.8,0.2,0.2,0.2,0.8,0.2,0.2,0.2,0.8","1","",""
"","html-keyboard-response","325","113062","0.0-325.0","3AQF3RZ5594XP6IG3M3K10M6MY3F60","APDDA1Y59RHV9","3566S7OX5D5NH74JOVOPTTMK8IR17K","","null","<img src=""img/land5.png"" style=""width:200px; border:14px solid green;"">","null","","","","","","","","","",""
"","image-keyboard-response","326","113148","0.0-326.0","3AQF3RZ5594XP6IG3M3K10M6MY3F60","APDDA1Y59RHV9","3566S7OX5D5NH74JOVOPTTMK8IR17K","","85.5","img/land5.png","74","86.09999990463257","1","1","1","1","0.8,0.2,0.2,0.2,0.8,0.2,0.2,0.2,0.8","0.8,0.2,0.2,0.2,0.8,0.2,0.2,0.2,0.8","1","",""
"","html-keyboard-response","327","113450","0.0-327.0","3AQF3RZ5594XP6IG3M3K10M6MY3F60","APDDA1Y59RHV9","3566S7OX5D5NH74JOVOPTTMK8IR17K","","null","<img src=""img/land5.png"" style=""width:200px; border:14px solid green;"">","null","","","","","","","","","",""
"","image-keyboard-response","328","113541","0.0-328.0","3AQF3RZ5594XP6IG3M3K10M6MY3F60","APDDA1Y59RHV9","3566S7OX5D5NH74JOVOPTTMK8IR17K","","89.60000038146973","img/land2.png","75","90.39999961853027","2","0","2","1","0.8,0.2,0.2,0.2,0.8,0.2,0.2,0.2,0.8","0.8,0.2,0.2,0.2,0.8,0.2,0.2,0.2,0.8","1","",""
"","html-keyboard-response","329","113843","0.0-329.0","3AQF3RZ5594XP6IG3M3K10M6MY3F60","APDDA1Y59RHV9","3566S7OX5D5NH74JOVOPTTMK8IR17K","","null","<img src=""img/land2.png"" style=""width:200px;border:14px solid red;"">","null","","","","","","","","","",""
"","image-keyboard-response","330","113939","0.0-330.0","3AQF3RZ5594XP6IG3M3K10M6MY3F60","APDDA1Y59RHV9","3566S7OX5D5NH74JOVOPTTMK8IR17K","","94.7999997138977","img/land4.png","75","95.80000019073486","2","0","3","1","0.8,0.2,0.2,0.2,0.8,0.2,0.2,0.2,0.8","0.8,0.2,0.2,0.2,0.8,0.2,0.2,0.2,0.8","1","",""
"","html-keyboard-response","331","114242","0.0-331.0","3AQF3RZ5594XP6IG3M3K10M6MY3F60","APDDA1Y59RHV9","3566S7OX5D5NH74JOVOPTTMK8IR17K","","null","<img src=""img/land4.png"" style=""width:200px;border:14px solid red;"">","null","","","","","","","","","",""
"","image-keyboard-response","332","114379","0.0-332.0","3AQF3RZ5594XP6IG3M3K10M6MY3F60","APDDA1Y59RHV9","3566S7OX5D5NH74JOVOPTTMK8IR17K","","136.69999980926514","img/land5.png","75","137.30000019073486","2","0","1","1","0.8,0.2,0.2,0.2,0.8,0.2,0.2,0.2,0.8","0.8,0.2,0.2,0.2,0.8,0.2,0.2,0.2,0.8","1","",""
"","html-keyboard-response","333","114680","0.0-333.0","3AQF3RZ5594XP6IG3M3K10M6MY3F60","APDDA1Y59RHV9","3566S7OX5D5NH74JOVOPTTMK8IR17K","","null","<img src=""img/land5.png"" style=""width:200px;border:14px solid red;"">","null","","","","","","","","","",""
"","image-keyboard-response","334","114732","0.0-334.0","3AQF3RZ5594XP6IG3M3K10M6MY3F60","APDDA1Y59RHV9","3566S7OX5D5NH74JOVOPTTMK8IR17K","","49.90000009536743","img/land2.png","76","50.700000286102295","3","0","2","1","0.8,0.2,0.2,0.2,0.8,0.2,0.2,0.2,0.8","0.8,0.2,0.2,0.2,0.8,0.2,0.2,0.2,0.8","1","",""
"","html-keyboard-response","335","115033","0.0-335.0","3AQF3RZ5594XP6IG3M3K10M6MY3F60","APDDA1Y59RHV9","3566S7OX5D5NH74JOVOPTTMK8IR17K","","null","<img src=""img/land2.png"" style=""width:200px;border:14px solid red;"">","null","","","","","","","","","",""
"","image-keyboard-response","336","115317","0.0-336.0","3AQF3RZ5594XP6IG3M3K10M6MY3F60","APDDA1Y59RHV9","3566S7OX5D5NH74JOVOPTTMK8IR17K","","283.30000019073486","img/land2.png","76","283.90000009536743","3","0","2","1","0.8,0.2,0.2,0.2,0.8,0.2,0.2,0.2,0.8","0.8,0.2,0.2,0.2,0.8,0.2,0.2,0.2,0.8","1","",""
"","html-keyboard-response","337","115619","0.0-337.0","3AQF3RZ5594XP6IG3M3K10M6MY3F60","APDDA1Y59RHV9","3566S7OX5D5NH74JOVOPTTMK8IR17K","","null","<img src=""img/land2.png"" style=""width:200px;border:14px solid red;"">","null","","","","","","","","","",""
"","image-keyboard-response","338","115701","0.0-338.0","3AQF3RZ5594XP6IG3M3K10M6MY3F60","APDDA1Y59RHV9","3566S7OX5D5NH74JOVOPTTMK8IR17K","","79.90000009536743","img/land2.png","75","81.09999990463257","2","1","2","1","0.8,0.2,0.2,0.2,0.8,0.2,0.2,0.2,0.8","0.8,0.2,0.2,0.2,0.8,0.2,0.2,0.2,0.8","1","",""
"","html-keyboard-response","339","116002","0.0-339.0","3AQF3RZ5594XP6IG3M3K10M6MY3F60","APDDA1Y59RHV9","3566S7OX5D5NH74JOVOPTTMK8IR17K","","null","<img src=""img/land2.png"" style=""width:200px; border:14px solid green;"">","null","","","","","","","","","",""
"","image-keyboard-response","340","116109","0.0-340.0","3AQF3RZ5594XP6IG3M3K10M6MY3F60","APDDA1Y59RHV9","3566S7OX5D5NH74JOVOPTTMK8IR17K","","105.39999961853027","img/land2.png","75","106.5","2","1","2","1","0.8,0.2,0.2,0.2,0.8,0.2,0.2,0.2,0.8","0.8,0.2,0.2,0.2,0.8,0.2,0.2,0.2,0.8","1","",""
"","html-keyboard-response","341","116412","0.0-341.0","3AQF3RZ5594XP6IG3M3K10M6MY3F60","APDDA1Y59RHV9","3566S7OX5D5NH74JOVOPTTMK8IR17K","","null","<img src=""img/land2.png"" style=""width:200px; border:14px solid green;"">","null","","","","","","","","","",""
"","image-keyboard-response","342","116516","0.0-342.0","3AQF3RZ5594XP6IG3M3K10M6MY3F60","APDDA1Y59RHV9","3566S7OX5D5NH74JOVOPTTMK8IR17K","","103.2999997138977","img/land4.png","74","104.09999990463257","1","1","3","1","0.8,0.2,0.2,0.2,0.8,0.2,0.2,0.2,0.8","0.8,0.2,0.2,0.2,0.8,0.2,0.2,0.2,0.8","1","",""
"","html-keyboard-response","343","116818","0.0-343.0","3AQF3RZ5594XP6IG3M3K10M6MY3F60","APDDA1Y59RHV9","3566S7OX5D5NH74JOVOPTTMK8IR17K","","null","<img src=""img/land4.png"" style=""width:200px; border:14px solid green;"">","null","","","","","","","","","",""
"","image-keyboard-response","344","117165","0.0-344.0","3AQF3RZ5594XP6IG3M3K10M6MY3F60","APDDA1Y59RHV9","3566S7OX5D5NH74JOVOPTTMK8IR17K","","344.8999996185303","img/land2.png","74","346","1","0","2","1","0.8,0.2,0.2,0.2,0.8,0.2,0.2,0.2,0.8","0.8,0.2,0.2,0.2,0.8,0.2,0.2,0.2,0.8","1","",""
"","html-keyboard-response","345","117467","0.0-345.0","3AQF3RZ5594XP6IG3M3K10M6MY3F60","APDDA1Y59RHV9","3566S7OX5D5NH74JOVOPTTMK8IR17K","","null","<img src=""img/land2.png"" style=""width:200px;border:14px solid red;"">","null","","","","","","","","","",""
"","image-keyboard-response","346","117596","0.0-346.0","3AQF3RZ5594XP6IG3M3K10M6MY3F60","APDDA1Y59RHV9","3566S7OX5D5NH74JOVOPTTMK8IR17K","","128","img/land2.png","75","128.59999990463257","2","1","2","1","0.8,0.2,0.2,0.2,0.8,0.2,0.2,0.2,0.8","0.8,0.2,0.2,0.2,0.8,0.2,0.2,0.2,0.8","1","",""
"","html-keyboard-response","347","117898","0.0-347.0","3AQF3RZ5594XP6IG3M3K10M6MY3F60","APDDA1Y59RHV9","3566S7OX5D5NH74JOVOPTTMK8IR17K","","null","<img src=""img/land2.png"" style=""width:200px; border:14px solid green;"">","null","","","","","","","","","",""
"","image-keyboard-response","348","118043","0.0-348.0","3AQF3RZ5594XP6IG3M3K10M6MY3F60","APDDA1Y59RHV9","3566S7OX5D5NH74JOVOPTTMK8IR17K","","145.09999990463257","img/land2.png","76","145.59999990463257","3","0","2","1","0.8,0.2,0.2,0.2,0.8,0.2,0.2,0.2,0.8","0.8,0.2,0.2,0.2,0.8,0.2,0.2,0.2,0.8","1","",""
"","html-keyboard-response","349","118345","0.0-349.0","3AQF3RZ5594XP6IG3M3K10M6MY3F60","APDDA1Y59RHV9","3566S7OX5D5NH74JOVOPTTMK8IR17K","","null","<img src=""img/land2.png"" style=""width:200px;border:14px solid red;"">","null","","","","","","","","","",""
"","image-keyboard-response","350","118459","0.0-350.0","3AQF3RZ5594XP6IG3M3K10M6MY3F60","APDDA1Y59RHV9","3566S7OX5D5NH74JOVOPTTMK8IR17K","","113.40000009536743","img/land5.png","75","114.2999997138977","2","0","1","1","0.8,0.2,0.2,0.2,0.8,0.2,0.2,0.2,0.8","0.8,0.2,0.2,0.2,0.8,0.2,0.2,0.2,0.8","1","",""
"","html-keyboard-response","351","118760","0.0-351.0","3AQF3RZ5594XP6IG3M3K10M6MY3F60","APDDA1Y59RHV9","3566S7OX5D5NH74JOVOPTTMK8IR17K","","null","<img src=""img/land5.png"" style=""width:200px;border:14px solid red;"">","null","","","","","","","","","",""
"","image-keyboard-response","352","118853","0.0-352.0","3AQF3RZ5594XP6IG3M3K10M6MY3F60","APDDA1Y59RHV9","3566S7OX5D5NH74JOVOPTTMK8IR17K","","91.5","img/land4.png","75","92.19999980926514","2","0","3","1","0.8,0.2,0.2,0.2,0.8,0.2,0.2,0.2,0.8","0.8,0.2,0.2,0.2,0.8,0.2,0.2,0.2,0.8","1","",""
"","html-keyboard-response","353","119155","0.0-353.0","3AQF3RZ5594XP6IG3M3K10M6MY3F60","APDDA1Y59RHV9","3566S7OX5D5NH74JOVOPTTMK8IR17K","","null","<img src=""img/land4.png"" style=""width:200px;border:14px solid red;"">","null","","","","","","","","","",""
"","image-keyboard-response","354","119252","0.0-354.0","3AQF3RZ5594XP6IG3M3K10M6MY3F60","APDDA1Y59RHV9","3566S7OX5D5NH74JOVOPTTMK8IR17K","","96.10000038146973","img/land2.png","75","97.2999997138977","2","1","2","1","0.8,0.2,0.2,0.2,0.8,0.2,0.2,0.2,0.8","0.8,0.2,0.2,0.2,0.8,0.2,0.2,0.2,0.8","1","",""
"","html-keyboard-response","355","119561","0.0-355.0","3AQF3RZ5594XP6IG3M3K10M6MY3F60","APDDA1Y59RHV9","3566S7OX5D5NH74JOVOPTTMK8IR17K","","null","<img src=""img/land2.png"" style=""width:200px; border:14px solid green;"">","null","","","","","","","","","",""
"","image-keyboard-response","356","119699","0.0-356.0","3AQF3RZ5594XP6IG3M3K10M6MY3F60","APDDA1Y59RHV9","3566S7OX5D5NH74JOVOPTTMK8IR17K","","137.5","img/land5.png","75","138.09999990463257","2","1","1","1","0.8,0.2,0.2,0.2,0.8,0.2,0.2,0.2,0.8","0.8,0.2,0.2,0.2,0.8,0.2,0.2,0.2,0.8","1","",""
