"success","trial_type","trial_index","time_elapsed","internal_node_id","assignmentID","mturkID","hitID","view_history","rt","stimulus","key_press","reactionTime","a","r","s","cond","reward_cond","reward_cond_actual","reward_matrix_idx","responses","question_order"
"true","fullscreen","0","4034","0.0-0.0","","","","","","","","","","","","","","","","",""
"","instructions","1","19304","0.0-1.0","","","","[{""page_index"":0,""viewing_time"":2590.899999999441},{""page_index"":1,""viewing_time"":4919.200000000186},{""page_index"":2,""viewing_time"":942.2000000001863},{""page_index"":3,""viewing_time"":2241.7999999998137},{""page_index"":4,""viewing_time"":2146.100000000559},{""page_index"":5,""viewing_time"":1547.699999999255},{""page_index"":6,""viewing_time"":876.4000000003725}]","15264.599999999627","","","","","","","","","","","",""
"","image-keyboard-response","2","20585","0.0-2.0","","","","","1278.2999999998137","img/land1.png","74","1281.5","1","1","1","2","1,0,0,0.25,0.5,0.25,0.25,0.25,0.5","1,0,0,0.25,0.5,0.25,0.25,0.25,0.5","1","",""
"","html-keyboard-response","3","20896","0.0-3.0","","","","","null","<img src=""img/land1.png"" style=""width:200px; border:14px solid green;"">","null","","","","","","","","","",""
"","image-keyboard-response","4","21808","0.0-4.0","","","","","908.5","img/land3.png","75","911","2","0","3","2","1,0,0,0.25,0.5,0.25,0.25,0.25,0.5","1,0,0,0.25,0.5,0.25,0.25,0.25,0.5","1","",""
"","html-keyboard-response","5","22113","0.0-5.0","","","","","null","<img src=""img/land3.png"" style=""width:200px;border:14px solid red;"">","null","","","","","","","","","",""
"","image-keyboard-response","6","22800","0.0-6.0","","","","","683.5999999996275","img/land3.png","75","686.5","2","1","3","2","1,0,0,0.25,0.5,0.25,0.25,0.25,0.5","1,0,0,0.25,0.5,0.25,0.25,0.25,0.5","1","",""
"","html-keyboard-response","7","23104","0.0-7.0","","","","","null","<img src=""img/land3.png"" style=""width:200px; border:14px solid green;"">","null","","","","","","","","","",""
"","image-keyboard-response","8","23894","0.0-8.0","","","","","787.7000000001863","img/land1.png","74","789.5999999996275","1","1","1","2","1,0,0,0.25,0.5,0.25,0.25,0.25,0.5","1,0,0,0.25,0.5,0.25,0.25,0.25,0.5","1","",""
"","html-keyboard-response","9","24198","0.0-9.0","","","","","null","<img src=""img/land1.png"" style=""width:200px; border:14px solid green;"">","null","","","","","","","","","",""
"","image-keyboard-response","10","25057","0.0-10.0","","","","","855.6000000005588","img/land2.png","76","858.2999999998137","3","1","2","2","1,0,0,0.25,0.5,0.25,0.25,0.25,0.5","1,0,0,0.25,0.5,0.25,0.25,0.25,0.5","1","",""
"","html-keyboard-response","11","25361","0.0-11.0","","","","","null","<img src=""img/land2.png"" style=""width:200px; border:14px solid green;"">","null","","","","","","","","","",""
"","image-keyboard-response","12","26128","0.0-12.0","","","","","764","img/land1.png","74","766.0999999996275","1","1","1","2","1,0,0,0.25,0.5,0.25,0.25,0.25,0.5","1,0,0,0.25,0.5,0.25,0.25,0.25,0.5","1","",""
"","html-keyboard-response","13","26431","0.0-13.0","","","","","null","<img src=""img/land1.png"" style=""width:200px; border:14px solid green;"">","null","","","","","","","","","",""
"","image-keyboard-response","14","27176","0.0-14.0","","","","","741.5999999996275","img/land2.png","76","744.0999999996275","3","0","2","2","1,0,0,0.25,0.5,0.25,0.25,0.25,0.5","1,0,0,0.25,0.5,0.25,0.25,0.25,0.5","1","",""
"","html-keyboard-response","15","27478","0.0-15.0","","","","","null","<img src=""img/land2.png"" style=""width:200px;border:14px solid red;"">","null","","","","","","","","","",""
"","image-keyboard-response","16","28272","0.0-16.0","","","","","790.4000000003725","img/land3.png","75","792.9000000003725","2","0","3","2","1,0,0,0.25,0.5,0.25,0.25,0.25,0.5","1,0,0,0.25,0.5,0.25,0.25,0.25,0.5","1","",""
"","html-keyboard-response","17","28580","0.0-17.0","","","","","null","<img src=""img/land3.png"" style=""width:200px;border:14px solid red;"">","null","","","","","","","","","",""
"","image-keyboard-response","18","29288","0.0-18.0","","","","","705.3000000007451","img/land1.png","74","707.5999999996275","1","1","1","2","1,0,0,0.25,0.5,0.25,0.25,0.25,0.5","1,0,0,0.25,0.5,0.25,0.25,0.25,0.5","1","",""
"","html-keyboard-response","19","29591","0.0-19.0","","","","","null","<img src=""img/land1.png"" style=""width:200px; border:14px solid green;"">","null","","","","","","","","","",""
"","image-keyboard-response","20","30176","0.0-20.0","","","","","581.8000000007451","img/land1.png","74","584.1999999992549","1","1","1","2","1,0,0,0.25,0.5,0.25,0.25,0.25,0.5","1,0,0,0.25,0.5,0.25,0.25,0.25,0.5","1","",""
"","html-keyboard-response","21","30479","0.0-21.0","","","","","null","<img src=""img/land1.png"" style=""width:200px; border:14px solid green;"">","null","","","","","","","","","",""
"","image-keyboard-response","22","31072","0.0-22.0","","","","","589.6000000005588","img/land1.png","74","592.0999999996275","1","1","1","2","1,0,0,0.25,0.5,0.25,0.25,0.25,0.5","1,0,0,0.25,0.5,0.25,0.25,0.25,0.5","1","",""
"","html-keyboard-response","23","31375","0.0-23.0","","","","","null","<img src=""img/land1.png"" style=""width:200px; border:14px solid green;"">","null","","","","","","","","","",""
"","image-keyboard-response","24","32127","0.0-24.0","","","","","749.5","img/land3.png","75","751.7999999998137","2","0","3","2","1,0,0,0.25,0.5,0.25,0.25,0.25,0.5","1,0,0,0.25,0.5,0.25,0.25,0.25,0.5","1","",""
"","html-keyboard-response","25","32431","0.0-25.0","","","","","null","<img src=""img/land3.png"" style=""width:200px;border:14px solid red;"">","null","","","","","","","","","",""
"","image-keyboard-response","26","33583","0.0-26.0","","","","","1150","img/land2.png","74","1152.2000000001863","1","1","2","2","1,0,0,0.25,0.5,0.25,0.25,0.25,0.5","1,0,0,0.25,0.5,0.25,0.25,0.25,0.5","1","",""
"","html-keyboard-response","27","33886","0.0-27.0","","","","","null","<img src=""img/land2.png"" style=""width:200px; border:14px solid green;"">","null","","","","","","","","","",""
"","image-keyboard-response","28","34656","0.0-28.0","","","","","766.9000000003725","img/land1.png","74","768.8000000007451","1","1","1","2","1,0,0,0.25,0.5,0.25,0.25,0.25,0.5","1,0,0,0.25,0.5,0.25,0.25,0.25,0.5","1","",""
"","html-keyboard-response","29","34959","0.0-29.0","","","","","null","<img src=""img/land1.png"" style=""width:200px; border:14px solid green;"">","null","","","","","","","","","",""
"","image-keyboard-response","30","35560","0.0-30.0","","","","","598.7999999998137","img/land1.png","74","601.2000000001863","1","1","1","2","1,0,0,0.25,0.5,0.25,0.25,0.25,0.5","1,0,0,0.25,0.5,0.25,0.25,0.25,0.5","1","",""
"","html-keyboard-response","31","35864","0.0-31.0","","","","","null","<img src=""img/land1.png"" style=""width:200px; border:14px solid green;"">","null","","","","","","","","","",""
"","image-keyboard-response","32","36440","0.0-32.0","","","","","573","img/land1.png","74","574.9000000003725","1","1","1","2","1,0,0,0.25,0.5,0.25,0.25,0.25,0.5","1,0,0,0.25,0.5,0.25,0.25,0.25,0.5","1","",""
"","html-keyboard-response","33","36743","0.0-33.0","","","","","null","<img src=""img/land1.png"" style=""width:200px; border:14px solid green;"">","null","","","","","","","","","",""
"","image-keyboard-response","34","37400","0.0-34.0","","","","","654.2000000001863","img/land1.png","74","656.3999999994412","1","1","1","2","1,0,0,0.25,0.5,0.25,0.25,0.25,0.5","1,0,0,0.25,0.5,0.25,0.25,0.25,0.5","1","",""
"","html-keyboard-response","35","37703","0.0-35.0","","","","","null","<img src=""img/land1.png"" style=""width:200px; border:14px solid green;"">","null","","","","","","","","","",""
"","image-keyboard-response","36","38400","0.0-36.0","","","","","693.6999999992549","img/land2.png","74","695.9000000003725","1","0","2","2","1,0,0,0.25,0.5,0.25,0.25,0.25,0.5","1,0,0,0.25,0.5,0.25,0.25,0.25,0.5","1","",""
"","html-keyboard-response","37","38702","0.0-37.0","","","","","null","<img src=""img/land2.png"" style=""width:200px;border:14px solid red;"">","null","","","","","","","","","",""
"","image-keyboard-response","38","39280","0.0-38.0","","","","","574.5","img/land1.png","74","576.9000000003725","1","1","1","2","1,0,0,0.25,0.5,0.25,0.25,0.25,0.5","1,0,0,0.25,0.5,0.25,0.25,0.25,0.5","1","",""
"","html-keyboard-response","39","39583","0.0-39.0","","","","","null","<img src=""img/land1.png"" style=""width:200px; border:14px solid green;"">","null","","","","","","","","","",""
"","image-keyboard-response","40","40120","0.0-40.0","","","","","534","img/land1.png","74","536.2999999998137","1","1","1","2","1,0,0,0.25,0.5,0.25,0.25,0.25,0.5","1,0,0,0.25,0.5,0.25,0.25,0.25,0.5","1","",""
"","html-keyboard-response","41","40422","0.0-41.0","","","","","null","<img src=""img/land1.png"" style=""width:200px; border:14px solid green;"">","null","","","","","","","","","",""
"","image-keyboard-response","42","41000","0.0-42.0","","","","","574.9000000003725","img/land1.png","74","577.1999999992549","1","1","1","2","1,0,0,0.25,0.5,0.25,0.25,0.25,0.5","1,0,0,0.25,0.5,0.25,0.25,0.25,0.5","1","",""
"","html-keyboard-response","43","41303","0.0-43.0","","","","","null","<img src=""img/land1.png"" style=""width:200px; border:14px solid green;"">","null","","","","","","","","","",""
"","image-keyboard-response","44","41960","0.0-44.0","","","","","654","img/land2.png","76","656.2000000001863","3","0","2","2","1,0,0,0.25,0.5,0.25,0.25,0.25,0.5","1,0,0,0.25,0.5,0.25,0.25,0.25,0.5","1","",""
"","html-keyboard-response","45","42263","0.0-45.0","","","","","null","<img src=""img/land2.png"" style=""width:200px;border:14px solid red;"">","null","","","","","","","","","",""
"","image-keyboard-response","46","42848","0.0-46.0","","","","","582.2999999998137","img/land1.png","74","584.5","1","1","1","2","1,0,0,0.25,0.5,0.25,0.25,0.25,0.5","1,0,0,0.25,0.5,0.25,0.25,0.25,0.5","1","",""
"","html-keyboard-response","47","43151","0.0-47.0","","","","","null","<img src=""img/land1.png"" style=""width:200px; border:14px solid green;"">","null","","","","","","","","","",""
"","image-keyboard-response","48","43751","0.0-48.0","","","","","597.0999999996275","img/land3.png","75","599.5999999996275","2","0","3","2","1,0,0,0.25,0.5,0.25,0.25,0.25,0.5","1,0,0,0.25,0.5,0.25,0.25,0.25,0.5","1","",""
"","html-keyboard-response","49","44056","0.0-49.0","","","","","null","<img src=""img/land3.png"" style=""width:200px;border:14px solid red;"">","null","","","","","","","","","",""
"","image-keyboard-response","50","44856","0.0-50.0","","","","","797","img/land2.png","76","799.5","3","0","2","2","1,0,0,0.25,0.5,0.25,0.25,0.25,0.5","1,0,0,0.25,0.5,0.25,0.25,0.25,0.5","1","",""
"","html-keyboard-response","51","45159","0.0-51.0","","","","","null","<img src=""img/land2.png"" style=""width:200px;border:14px solid red;"">","null","","","","","","","","","",""
"","image-keyboard-response","52","45776","0.0-52.0","","","","","614.3999999994412","img/land1.png","74","616.5","1","1","1","2","1,0,0,0.25,0.5,0.25,0.25,0.25,0.5","1,0,0,0.25,0.5,0.25,0.25,0.25,0.5","1","",""
"","html-keyboard-response","53","46080","0.0-53.0","","","","","null","<img src=""img/land1.png"" style=""width:200px; border:14px solid green;"">","null","","","","","","","","","",""
"","image-keyboard-response","54","46656","0.0-54.0","","","","","573.0999999996275","img/land1.png","74","575.2000000001863","1","1","1","2","1,0,0,0.25,0.5,0.25,0.25,0.25,0.5","1,0,0,0.25,0.5,0.25,0.25,0.25,0.5","1","",""
"","html-keyboard-response","55","46959","0.0-55.0","","","","","null","<img src=""img/land1.png"" style=""width:200px; border:14px solid green;"">","null","","","","","","","","","",""
"","image-keyboard-response","56","47408","0.0-56.0","","","","","446.20000000018626","img/land1.png","74","448.70000000018626","1","1","1","2","1,0,0,0.25,0.5,0.25,0.25,0.25,0.5","1,0,0,0.25,0.5,0.25,0.25,0.25,0.5","1","",""
"","html-keyboard-response","57","47711","0.0-57.0","","","","","null","<img src=""img/land1.png"" style=""width:200px; border:14px solid green;"">","null","","","","","","","","","",""
"","image-keyboard-response","58","48309","0.0-58.0","","","","","596.1000000005588","img/land2.png","75","597.5","2","1","2","2","1,0,0,0.25,0.5,0.25,0.25,0.25,0.5","1,0,0,0.25,0.5,0.25,0.25,0.25,0.5","1","",""
"","html-keyboard-response","59","48612","0.0-59.0","","","","","null","<img src=""img/land2.png"" style=""width:200px; border:14px solid green;"">","null","","","","","","","","","",""
"","image-keyboard-response","60","49392","0.0-60.0","","","","","777.3999999994412","img/land3.png","75","779.7000000001863","2","1","3","2","1,0,0,0.25,0.5,0.25,0.25,0.25,0.5","1,0,0,0.25,0.5,0.25,0.25,0.25,0.5","1","",""
"","html-keyboard-response","61","49695","0.0-61.0","","","","","null","<img src=""img/land3.png"" style=""width:200px; border:14px solid green;"">","null","","","","","","","","","",""
"","image-keyboard-response","62","50312","0.0-62.0","","","","","614.1000000005588","img/land1.png","74","616.2999999998137","1","1","1","2","1,0,0,0.25,0.5,0.25,0.25,0.25,0.5","1,0,0,0.25,0.5,0.25,0.25,0.25,0.5","1","",""
"","html-keyboard-response","63","50615","0.0-63.0","","","","","null","<img src=""img/land1.png"" style=""width:200px; border:14px solid green;"">","null","","","","","","","","","",""
"","image-keyboard-response","64","51152","0.0-64.0","","","","","534.0999999996275","img/land1.png","74","536.2999999998137","1","1","1","2","1,0,0,0.25,0.5,0.25,0.25,0.25,0.5","1,0,0,0.25,0.5,0.25,0.25,0.25,0.5","1","",""
"","html-keyboard-response","65","51455","0.0-65.0","","","","","null","<img src=""img/land1.png"" style=""width:200px; border:14px solid green;"">","null","","","","","","","","","",""
"","image-keyboard-response","66","51951","0.0-66.0","","","","","493.5","img/land1.png","74","495.79999999981374","1","1","1","2","1,0,0,0.25,0.5,0.25,0.25,0.25,0.5","1,0,0,0.25,0.5,0.25,0.25,0.25,0.5","1","",""
"","html-keyboard-response","67","52254","0.0-67.0","","","","","null","<img src=""img/land1.png"" style=""width:200px; border:14px solid green;"">","null","","","","","","","","","",""
"","image-keyboard-response","68","52728","0.0-68.0","","","","","470.70000000018626","img/land1.png","74","473.20000000018626","1","1","1","2","1,0,0,0.25,0.5,0.25,0.25,0.25,0.5","1,0,0,0.25,0.5,0.25,0.25,0.25,0.5","1","",""
"","html-keyboard-response","69","53034","0.0-69.0","","","","","null","<img src=""img/land1.png"" style=""width:200px; border:14px solid green;"">","null","","","","","","","","","",""
"","image-keyboard-response","70","53551","0.0-70.0","","","","","515.5","img/land1.png","74","517.2000000001863","1","1","1","2","1,0,0,0.25,0.5,0.25,0.25,0.25,0.5","1,0,0,0.25,0.5,0.25,0.25,0.25,0.5","1","",""
"","html-keyboard-response","71","53854","0.0-71.0","","","","","null","<img src=""img/land1.png"" style=""width:200px; border:14px solid green;"">","null","","","","","","","","","",""
"","image-keyboard-response","72","54327","0.0-72.0","","","","","470.70000000018626","img/land1.png","74","472.90000000037253","1","1","1","2","1,0,0,0.25,0.5,0.25,0.25,0.25,0.5","1,0,0,0.25,0.5,0.25,0.25,0.25,0.5","1","",""
"","html-keyboard-response","73","54631","0.0-73.0","","","","","null","<img src=""img/land1.png"" style=""width:200px; border:14px solid green;"">","null","","","","","","","","","",""
"","image-keyboard-response","74","54984","0.0-74.0","","","","","349.8999999994412","img/land1.png","74","352.20000000018626","1","1","1","2","1,0,0,0.25,0.5,0.25,0.25,0.25,0.5","1,0,0,0.25,0.5,0.25,0.25,0.25,0.5","1","",""
"","html-keyboard-response","75","55287","0.0-75.0","","","","","null","<img src=""img/land1.png"" style=""width:200px; border:14px solid green;"">","null","","","","","","","","","",""
"","image-keyboard-response","76","55599","0.0-76.0","","","","","309.1000000005588","img/land1.png","74","311","1","1","1","2","1,0,0,0.25,0.5,0.25,0.25,0.25,0.5","1,0,0,0.25,0.5,0.25,0.25,0.25,0.5","1","",""
"","html-keyboard-response","77","55906","0.0-77.0","","","","","null","<img src=""img/land1.png"" style=""width:200px; border:14px solid green;"">","null","","","","","","","","","",""
"","image-keyboard-response","78","56080","0.0-78.0","","","","","170.5","img/land1.png","74","172.8999999994412","1","1","1","2","1,0,0,0.25,0.5,0.25,0.25,0.25,0.5","1,0,0,0.25,0.5,0.25,0.25,0.25,0.5","1","",""
"","html-keyboard-response","79","56382","0.0-79.0","","","","","null","<img src=""img/land1.png"" style=""width:200px; border:14px solid green;"">","null","","","","","","","","","",""
"","image-keyboard-response","80","56528","0.0-80.0","","","","","142.29999999981374","img/land1.png","74","144.8999999994412","1","1","1","2","1,0,0,0.25,0.5,0.25,0.25,0.25,0.5","1,0,0,0.25,0.5,0.25,0.25,0.25,0.5","1","",""
"","html-keyboard-response","81","56831","0.0-81.0","","","","","null","<img src=""img/land1.png"" style=""width:200px; border:14px solid green;"">","null","","","","","","","","","",""
"","image-keyboard-response","82","57287","0.0-82.0","","","","","454","img/land2.png","75","455.80000000074506","2","1","2","2","1,0,0,0.25,0.5,0.25,0.25,0.25,0.5","1,0,0,0.25,0.5,0.25,0.25,0.25,0.5","1","",""
"","html-keyboard-response","83","57590","0.0-83.0","","","","","null","<img src=""img/land2.png"" style=""width:200px; border:14px solid green;"">","null","","","","","","","","","",""
"","image-keyboard-response","84","58191","0.0-84.0","","","","","598.1000000005588","img/land3.png","74","600.7000000001863","1","0","3","2","1,0,0,0.25,0.5,0.25,0.25,0.25,0.5","1,0,0,0.25,0.5,0.25,0.25,0.25,0.5","1","",""
"","html-keyboard-response","85","58494","0.0-85.0","","","","","null","<img src=""img/land3.png"" style=""width:200px;border:14px solid red;"">","null","","","","","","","","","",""
"","image-keyboard-response","86","59191","0.0-86.0","","","","","694.2000000001863","img/land1.png","74","696.9000000003725","1","1","1","2","1,0,0,0.25,0.5,0.25,0.25,0.25,0.5","1,0,0,0.25,0.5,0.25,0.25,0.25,0.5","1","",""
"","html-keyboard-response","87","59494","0.0-87.0","","","","","null","<img src=""img/land1.png"" style=""width:200px; border:14px solid green;"">","null","","","","","","","","","",""
"","image-keyboard-response","88","59895","0.0-88.0","","","","","398.59999999962747","img/land1.png","74","401.09999999962747","1","1","1","2","1,0,0,0.25,0.5,0.25,0.25,0.25,0.5","1,0,0,0.25,0.5,0.25,0.25,0.25,0.5","1","",""
"","html-keyboard-response","89","60200","0.0-89.0","","","","","null","<img src=""img/land1.png"" style=""width:200px; border:14px solid green;"">","null","","","","","","","","","",""
"","image-keyboard-response","90","60503","0.0-90.0","","","","","300.80000000074506","img/land1.png","74","303","1","1","1","2","1,0,0,0.25,0.5,0.25,0.25,0.25,0.5","1,0,0,0.25,0.5,0.25,0.25,0.25,0.5","1","",""
"","html-keyboard-response","91","60805","0.0-91.0","","","","","null","<img src=""img/land1.png"" style=""width:200px; border:14px solid green;"">","null","","","","","","","","","",""
"","image-keyboard-response","92","61525","0.0-92.0","","","","","716.7000000001863","img/land2.png","74","718.2000000001863","1","1","2","2","1,0,0,0.25,0.5,0.25,0.25,0.25,0.5","1,0,0,0.25,0.5,0.25,0.25,0.25,0.5","1","",""
"","html-keyboard-response","93","61826","0.0-93.0","","","","","null","<img src=""img/land2.png"" style=""width:200px; border:14px solid green;"">","null","","","","","","","","","",""
"","image-keyboard-response","94","62303","0.0-94.0","","","","","473.90000000037253","img/land1.png","74","476.5","1","1","1","2","1,0,0,0.25,0.5,0.25,0.25,0.25,0.5","1,0,0,0.25,0.5,0.25,0.25,0.25,0.5","1","",""
"","html-keyboard-response","95","62606","0.0-95.0","","","","","null","<img src=""img/land1.png"" style=""width:200px; border:14px solid green;"">","null","","","","","","","","","",""
"","image-keyboard-response","96","62911","0.0-96.0","","","","","301.8999999994412","img/land1.png","74","304.3999999994412","1","1","1","2","1,0,0,0.25,0.5,0.25,0.25,0.25,0.5","1,0,0,0.25,0.5,0.25,0.25,0.25,0.5","1","",""
"","html-keyboard-response","97","63214","0.0-97.0","","","","","null","<img src=""img/land1.png"" style=""width:200px; border:14px solid green;"">","null","","","","","","","","","",""
"","image-keyboard-response","98","63503","0.0-98.0","","","","","286.59999999962747","img/land1.png","74","288.8999999994412","1","1","1","2","1,0,0,0.25,0.5,0.25,0.25,0.25,0.5","1,0,0,0.25,0.5,0.25,0.25,0.25,0.5","1","",""
"","html-keyboard-response","99","63807","0.0-99.0","","","","","null","<img src=""img/land1.png"" style=""width:200px; border:14px solid green;"">","null","","","","","","","","","",""
"","image-keyboard-response","100","64031","0.0-100.0","","","","","221.59999999962747","img/land1.png","74","223.70000000018626","1","1","1","2","1,0,0,0.25,0.5,0.25,0.25,0.25,0.5","1,0,0,0.25,0.5,0.25,0.25,0.25,0.5","1","",""
"","html-keyboard-response","101","64335","0.0-101.0","","","","","null","<img src=""img/land1.png"" style=""width:200px; border:14px solid green;"">","null","","","","","","","","","",""
"","image-keyboard-response","102","64520","0.0-102.0","","","","","181.69999999925494","img/land2.png","74","184.09999999962747","1","1","2","2","1,0,0,0.25,0.5,0.25,0.25,0.25,0.5","1,0,0,0.25,0.5,0.25,0.25,0.25,0.5","1","",""
"","html-keyboard-response","103","64823","0.0-103.0","","","","","null","<img src=""img/land2.png"" style=""width:200px; border:14px solid green;"">","null","","","","","","","","","",""
"","image-keyboard-response","104","65120","0.0-104.0","","","","","293.19999999925494","img/land1.png","74","295.5","1","1","1","2","1,0,0,0.25,0.5,0.25,0.25,0.25,0.5","1,0,0,0.25,0.5,0.25,0.25,0.25,0.5","1","",""
"","html-keyboard-response","105","65422","0.0-105.0","","","","","null","<img src=""img/land1.png"" style=""width:200px; border:14px solid green;"">","null","","","","","","","","","",""
"","image-keyboard-response","106","65600","0.0-106.0","","","","","174","img/land1.png","74","176.3999999994412","1","1","1","2","1,0,0,0.25,0.5,0.25,0.25,0.25,0.5","1,0,0,0.25,0.5,0.25,0.25,0.25,0.5","1","",""
"","html-keyboard-response","107","65902","0.0-107.0","","","","","null","<img src=""img/land1.png"" style=""width:200px; border:14px solid green;"">","null","","","","","","","","","",""
"","image-keyboard-response","108","66304","0.0-108.0","","","","","399.20000000018626","img/land1.png","74","401.59999999962747","1","1","1","2","1,0,0,0.25,0.5,0.25,0.25,0.25,0.5","1,0,0,0.25,0.5,0.25,0.25,0.25,0.5","1","",""
"","html-keyboard-response","109","66606","0.0-109.0","","","","","null","<img src=""img/land1.png"" style=""width:200px; border:14px solid green;"">","null","","","","","","","","","",""
"","image-keyboard-response","110","66911","0.0-110.0","","","","","301.90000000037253","img/land1.png","74","304.29999999981374","1","1","1","2","1,0,0,0.25,0.5,0.25,0.25,0.25,0.5","1,0,0,0.25,0.5,0.25,0.25,0.25,0.5","1","",""
"","html-keyboard-response","111","67215","0.0-111.0","","","","","null","<img src=""img/land1.png"" style=""width:200px; border:14px solid green;"">","null","","","","","","","","","",""
"","image-keyboard-response","112","67455","0.0-112.0","","","","","237.6000000005588","img/land2.png","74","240.1000000005588","1","0","2","2","1,0,0,0.25,0.5,0.25,0.25,0.25,0.5","1,0,0,0.25,0.5,0.25,0.25,0.25,0.5","1","",""
"","html-keyboard-response","113","67759","0.0-113.0","","","","","null","<img src=""img/land2.png"" style=""width:200px;border:14px solid red;"">","null","","","","","","","","","",""
"","image-keyboard-response","114","68391","0.0-114.0","","","","","629.5999999996275","img/land2.png","75","631.7999999998137","2","1","2","2","1,0,0,0.25,0.5,0.25,0.25,0.25,0.5","1,0,0,0.25,0.5,0.25,0.25,0.25,0.5","1","",""
"","html-keyboard-response","115","68694","0.0-115.0","","","","","null","<img src=""img/land2.png"" style=""width:200px; border:14px solid green;"">","null","","","","","","","","","",""
"","image-keyboard-response","116","69255","0.0-116.0","","","","","558.5","img/land2.png","75","560.7000000001863","2","1","2","2","1,0,0,0.25,0.5,0.25,0.25,0.25,0.5","1,0,0,0.25,0.5,0.25,0.25,0.25,0.5","1","",""
"","html-keyboard-response","117","69559","0.0-117.0","","","","","null","<img src=""img/land2.png"" style=""width:200px; border:14px solid green;"">","null","","","","","","","","","",""
"","image-keyboard-response","118","70127","0.0-118.0","","","","","566.9000000003725","img/land1.png","74","568.3999999994412","1","1","1","2","1,0,0,0.25,0.5,0.25,0.25,0.25,0.5","1,0,0,0.25,0.5,0.25,0.25,0.25,0.5","1","",""
"","html-keyboard-response","119","70430","0.0-119.0","","","","","null","<img src=""img/land1.png"" style=""width:200px; border:14px solid green;"">","null","","","","","","","","","",""
"","image-keyboard-response","120","71031","0.0-120.0","","","","","598.2999999998137","img/land2.png","75","600.8999999994412","2","1","2","2","1,0,0,0.25,0.5,0.25,0.25,0.25,0.5","1,0,0,0.25,0.5,0.25,0.25,0.25,0.5","1","",""
"","html-keyboard-response","121","71334","0.0-121.0","","","","","null","<img src=""img/land2.png"" style=""width:200px; border:14px solid green;"">","null","","","","","","","","","",""
"","image-keyboard-response","122","72103","0.0-122.0","","","","","766","img/land3.png","75","768.5","2","0","3","2","1,0,0,0.25,0.5,0.25,0.25,0.25,0.5","1,0,0,0.25,0.5,0.25,0.25,0.25,0.5","1","",""
"","html-keyboard-response","123","72406","0.0-123.0","","","","","null","<img src=""img/land3.png"" style=""width:200px;border:14px solid red;"">","null","","","","","","","","","",""
"","image-keyboard-response","124","73031","0.0-124.0","","","","","621.7000000001863","img/land1.png","74","624.2999999998137","1","1","1","2","1,0,0,0.25,0.5,0.25,0.25,0.25,0.5","1,0,0,0.25,0.5,0.25,0.25,0.25,0.5","1","",""
"","html-keyboard-response","125","73334","0.0-125.0","","","","","null","<img src=""img/land1.png"" style=""width:200px; border:14px solid green;"">","null","","","","","","","","","",""
"","image-keyboard-response","126","73695","0.0-126.0","","","","","358.19999999925494","img/land1.png","74","360.3999999994412","1","1","1","2","1,0,0,0.25,0.5,0.25,0.25,0.25,0.5","1,0,0,0.25,0.5,0.25,0.25,0.25,0.5","1","",""
"","html-keyboard-response","127","73999","0.0-127.0","","","","","null","<img src=""img/land1.png"" style=""width:200px; border:14px solid green;"">","null","","","","","","","","","",""
"","image-keyboard-response","128","74607","0.0-128.0","","","","","605.1000000005588","img/land2.png","74","607.7999999998137","1","0","2","2","1,0,0,0.25,0.5,0.25,0.25,0.25,0.5","1,0,0,0.25,0.5,0.25,0.25,0.25,0.5","1","",""
"","html-keyboard-response","129","74910","0.0-129.0","","","","","null","<img src=""img/land2.png"" style=""width:200px;border:14px solid red;"">","null","","","","","","","","","",""
"","image-keyboard-response","130","75640","0.0-130.0","","","","","726.5999999996275","img/land3.png","74","729.1000000005588","1","0","3","2","1,0,0,0.25,0.5,0.25,0.25,0.25,0.5","1,0,0,0.25,0.5,0.25,0.25,0.25,0.5","1","",""
"","html-keyboard-response","131","75942","0.0-131.0","","","","","null","<img src=""img/land3.png"" style=""width:200px;border:14px solid red;"">","null","","","","","","","","","",""
"","image-keyboard-response","132","76608","0.0-132.0","","","","","662.2999999998137","img/land1.png","74","664.9000000003725","1","1","1","2","1,0,0,0.25,0.5,0.25,0.25,0.25,0.5","1,0,0,0.25,0.5,0.25,0.25,0.25,0.5","1","",""
"","html-keyboard-response","133","76911","0.0-133.0","","","","","null","<img src=""img/land1.png"" style=""width:200px; border:14px solid green;"">","null","","","","","","","","","",""
"","image-keyboard-response","134","77263","0.0-134.0","","","","","349.40000000037253","img/land1.png","74","351.6000000005588","1","1","1","2","1,0,0,0.25,0.5,0.25,0.25,0.25,0.5","1,0,0,0.25,0.5,0.25,0.25,0.25,0.5","1","",""
"","html-keyboard-response","135","77566","0.0-135.0","","","","","null","<img src=""img/land1.png"" style=""width:200px; border:14px solid green;"">","null","","","","","","","","","",""
"","image-keyboard-response","136","78295","0.0-136.0","","","","","724.9000000003725","img/land2.png","75","727.9000000003725","2","0","2","2","1,0,0,0.25,0.5,0.25,0.25,0.25,0.5","1,0,0,0.25,0.5,0.25,0.25,0.25,0.5","1","",""
"","html-keyboard-response","137","78599","0.0-137.0","","","","","null","<img src=""img/land2.png"" style=""width:200px;border:14px solid red;"">","null","","","","","","","","","",""
"","image-keyboard-response","138","79015","0.0-138.0","","","","","413.1000000005588","img/land2.png","75","417.90000000037253","2","0","2","2","1,0,0,0.25,0.5,0.25,0.25,0.25,0.5","1,0,0,0.25,0.5,0.25,0.25,0.25,0.5","1","",""
"","html-keyboard-response","139","79320","0.0-139.0","","","","","null","<img src=""img/land2.png"" style=""width:200px;border:14px solid red;"">","null","","","","","","","","","",""
"","image-keyboard-response","140","80039","0.0-140.0","","","","","715.9000000003725","img/land3.png","75","718.0999999996275","2","0","3","2","1,0,0,0.25,0.5,0.25,0.25,0.25,0.5","1,0,0,0.25,0.5,0.25,0.25,0.25,0.5","1","",""
"","html-keyboard-response","141","80342","0.0-141.0","","","","","null","<img src=""img/land3.png"" style=""width:200px;border:14px solid red;"">","null","","","","","","","","","",""
"","image-keyboard-response","142","81191","0.0-142.0","","","","","846.7000000001863","img/land2.png","74","849.2000000001863","1","0","2","2","1,0,0,0.25,0.5,0.25,0.25,0.25,0.5","1,0,0,0.25,0.5,0.25,0.25,0.25,0.5","1","",""
"","html-keyboard-response","143","81494","0.0-143.0","","","","","null","<img src=""img/land2.png"" style=""width:200px;border:14px solid red;"">","null","","","","","","","","","",""
"","image-keyboard-response","144","82167","0.0-144.0","","","","","670.3000000007451","img/land1.png","74","672.8999999994412","1","1","1","2","1,0,0,0.25,0.5,0.25,0.25,0.25,0.5","1,0,0,0.25,0.5,0.25,0.25,0.25,0.5","1","",""
"","html-keyboard-response","145","82471","0.0-145.0","","","","","null","<img src=""img/land1.png"" style=""width:200px; border:14px solid green;"">","null","","","","","","","","","",""
"","image-keyboard-response","146","83143","0.0-146.0","","","","","669.5","img/land3.png","76","671.8000000007451","3","1","3","2","1,0,0,0.25,0.5,0.25,0.25,0.25,0.5","1,0,0,0.25,0.5,0.25,0.25,0.25,0.5","1","",""
"","html-keyboard-response","147","83446","0.0-147.0","","","","","null","<img src=""img/land3.png"" style=""width:200px; border:14px solid green;"">","null","","","","","","","","","",""
"","image-keyboard-response","148","83839","0.0-148.0","","","","","390.5","img/land3.png","76","392.79999999981374","3","0","3","2","1,0,0,0.25,0.5,0.25,0.25,0.25,0.5","1,0,0,0.25,0.5,0.25,0.25,0.25,0.5","1","",""
"","html-keyboard-response","149","84142","0.0-149.0","","","","","null","<img src=""img/land3.png"" style=""width:200px;border:14px solid red;"">","null","","","","","","","","","",""
"","image-keyboard-response","150","84903","0.0-150.0","","","","","758.4000000003725","img/land1.png","74","760.5999999996275","1","1","1","2","1,0,0,0.25,0.5,0.25,0.25,0.25,0.5","1,0,0,0.25,0.5,0.25,0.25,0.25,0.5","1","",""
"","html-keyboard-response","151","85206","0.0-151.0","","","","","null","<img src=""img/land1.png"" style=""width:200px; border:14px solid green;"">","null","","","","","","","","","",""
"","image-keyboard-response","152","85575","0.0-152.0","","","","","366.3999999994412","img/land1.png","74","368.59999999962747","1","1","1","2","1,0,0,0.25,0.5,0.25,0.25,0.25,0.5","1,0,0,0.25,0.5,0.25,0.25,0.25,0.5","1","",""
"","html-keyboard-response","153","85878","0.0-153.0","","","","","null","<img src=""img/land1.png"" style=""width:200px; border:14px solid green;"">","null","","","","","","","","","",""
"","image-keyboard-response","154","86223","0.0-154.0","","","","","342.70000000018626","img/land1.png","74","344.90000000037253","1","1","1","2","1,0,0,0.25,0.5,0.25,0.25,0.25,0.5","1,0,0,0.25,0.5,0.25,0.25,0.25,0.5","1","",""
"","html-keyboard-response","155","86526","0.0-155.0","","","","","null","<img src=""img/land1.png"" style=""width:200px; border:14px solid green;"">","null","","","","","","","","","",""
"","image-keyboard-response","156","86912","0.0-156.0","","","","","382.70000000018626","img/land1.png","74","385.29999999981374","1","1","1","2","1,0,0,0.25,0.5,0.25,0.25,0.25,0.5","1,0,0,0.25,0.5,0.25,0.25,0.25,0.5","1","",""
"","html-keyboard-response","157","87215","0.0-157.0","","","","","null","<img src=""img/land1.png"" style=""width:200px; border:14px solid green;"">","null","","","","","","","","","",""
"","image-keyboard-response","158","87583","0.0-158.0","","","","","364.8999999994412","img/land1.png","74","367.09999999962747","1","1","1","2","1,0,0,0.25,0.5,0.25,0.25,0.25,0.5","1,0,0,0.25,0.5,0.25,0.25,0.25,0.5","1","",""
"","html-keyboard-response","159","87887","0.0-159.0","","","","","null","<img src=""img/land1.png"" style=""width:200px; border:14px solid green;"">","null","","","","","","","","","",""
"","image-keyboard-response","160","88239","0.0-160.0","","","","","349","img/land1.png","74","351.6000000005588","1","1","1","2","1,0,0,0.25,0.5,0.25,0.25,0.25,0.5","1,0,0,0.25,0.5,0.25,0.25,0.25,0.5","1","",""
"","html-keyboard-response","161","88543","0.0-161.0","","","","","null","<img src=""img/land1.png"" style=""width:200px; border:14px solid green;"">","null","","","","","","","","","",""
"","image-keyboard-response","162","89031","0.0-162.0","","","","","485.79999999981374","img/land3.png","76","488","3","1","3","2","1,0,0,0.25,0.5,0.25,0.25,0.25,0.5","1,0,0,0.25,0.5,0.25,0.25,0.25,0.5","1","",""
"","html-keyboard-response","163","89334","0.0-163.0","","","","","null","<img src=""img/land3.png"" style=""width:200px; border:14px solid green;"">","null","","","","","","","","","",""
"","image-keyboard-response","164","90191","0.0-164.0","","","","","853.7999999998137","img/land1.png","74","855.9000000003725","1","1","1","2","1,0,0,0.25,0.5,0.25,0.25,0.25,0.5","1,0,0,0.25,0.5,0.25,0.25,0.25,0.5","1","",""
"","html-keyboard-response","165","90493","0.0-165.0","","","","","null","<img src=""img/land1.png"" style=""width:200px; border:14px solid green;"">","null","","","","","","","","","",""
"","image-keyboard-response","166","90839","0.0-166.0","","","","","343","img/land1.png","74","345.3999999994412","1","1","1","2","1,0,0,0.25,0.5,0.25,0.25,0.25,0.5","1,0,0,0.25,0.5,0.25,0.25,0.25,0.5","1","",""
"","html-keyboard-response","167","91142","0.0-167.0","","","","","null","<img src=""img/land1.png"" style=""width:200px; border:14px solid green;"">","null","","","","","","","","","",""
"","image-keyboard-response","168","91504","0.0-168.0","","","","","358.29999999981374","img/land1.png","74","360.70000000018626","1","1","1","2","1,0,0,0.25,0.5,0.25,0.25,0.25,0.5","1,0,0,0.25,0.5,0.25,0.25,0.25,0.5","1","",""
"","html-keyboard-response","169","91807","0.0-169.0","","","","","null","<img src=""img/land1.png"" style=""width:200px; border:14px solid green;"">","null","","","","","","","","","",""
"","image-keyboard-response","170","92671","0.0-170.0","","","","","861.5999999996275","img/land2.png","75","863.7999999998137","2","0","2","2","1,0,0,0.25,0.5,0.25,0.25,0.25,0.5","1,0,0,0.25,0.5,0.25,0.25,0.25,0.5","1","",""
"","html-keyboard-response","171","92975","0.0-171.0","","","","","null","<img src=""img/land2.png"" style=""width:200px;border:14px solid red;"">","null","","","","","","","","","",""
"","image-keyboard-response","172","93623","0.0-172.0","","","","","645.6000000005588","img/land3.png","74","648.1000000005588","1","0","3","2","1,0,0,0.25,0.5,0.25,0.25,0.25,0.5","1,0,0,0.25,0.5,0.25,0.25,0.25,0.5","1","",""
"","html-keyboard-response","173","93926","0.0-173.0","","","","","null","<img src=""img/land3.png"" style=""width:200px;border:14px solid red;"">","null","","","","","","","","","",""
"","image-keyboard-response","174","94407","0.0-174.0","","","","","477.70000000018626","img/land1.png","74","480.6000000005588","1","1","1","2","1,0,0,0.25,0.5,0.25,0.25,0.25,0.5","1,0,0,0.25,0.5,0.25,0.25,0.25,0.5","1","",""
"","html-keyboard-response","175","94714","0.0-175.0","","","","","null","<img src=""img/land1.png"" style=""width:200px; border:14px solid green;"">","null","","","","","","","","","",""
"","image-keyboard-response","176","95007","0.0-176.0","","","","","290.3999999994412","img/land1.png","74","292.8999999994412","1","1","1","2","1,0,0,0.25,0.5,0.25,0.25,0.25,0.5","1,0,0,0.25,0.5,0.25,0.25,0.25,0.5","1","",""
"","html-keyboard-response","177","95310","0.0-177.0","","","","","null","<img src=""img/land1.png"" style=""width:200px; border:14px solid green;"">","null","","","","","","","","","",""
"","image-keyboard-response","178","95583","0.0-178.0","","","","","270.29999999981374","img/land1.png","74","272.3999999994412","1","1","1","2","1,0,0,0.25,0.5,0.25,0.25,0.25,0.5","1,0,0,0.25,0.5,0.25,0.25,0.25,0.5","1","",""
"","html-keyboard-response","179","95886","0.0-179.0","","","","","null","<img src=""img/land1.png"" style=""width:200px; border:14px solid green;"">","null","","","","","","","","","",""
"","image-keyboard-response","180","96231","0.0-180.0","","","","","341.79999999981374","img/land1.png","74","344.29999999981374","1","1","1","2","1,0,0,0.25,0.5,0.25,0.25,0.25,0.5","1,0,0,0.25,0.5,0.25,0.25,0.25,0.5","1","",""
"","html-keyboard-response","181","96549","0.0-181.0","","","","","null","<img src=""img/land1.png"" style=""width:200px; border:14px solid green;"">","null","","","","","","","","","",""
"","image-keyboard-response","182","96928","0.0-182.0","","","","","375.5","img/land1.png","74","378.09999999962747","1","1","1","2","1,0,0,0.25,0.5,0.25,0.25,0.25,0.5","1,0,0,0.25,0.5,0.25,0.25,0.25,0.5","1","",""
"","html-keyboard-response","183","97231","0.0-183.0","","","","","null","<img src=""img/land1.png"" style=""width:200px; border:14px solid green;"">","null","","","","","","","","","",""
"","image-keyboard-response","184","97855","0.0-184.0","","","","","621.6000000005588","img/land3.png","76","623.8000000007451","3","1","3","2","1,0,0,0.25,0.5,0.25,0.25,0.25,0.5","1,0,0,0.25,0.5,0.25,0.25,0.25,0.5","1","",""
"","html-keyboard-response","185","98158","0.0-185.0","","","","","null","<img src=""img/land3.png"" style=""width:200px; border:14px solid green;"">","null","","","","","","","","","",""
"","image-keyboard-response","186","98582","0.0-186.0","","","","","421.29999999981374","img/land3.png","76","423.29999999981374","3","0","3","2","1,0,0,0.25,0.5,0.25,0.25,0.25,0.5","1,0,0,0.25,0.5,0.25,0.25,0.25,0.5","1","",""
"","html-keyboard-response","187","98885","0.0-187.0","","","","","null","<img src=""img/land3.png"" style=""width:200px;border:14px solid red;"">","null","","","","","","","","","",""
"","image-keyboard-response","188","99680","0.0-188.0","","","","","791.2000000001863","img/land2.png","76","793.7999999998137","3","0","2","2","1,0,0,0.25,0.5,0.25,0.25,0.25,0.5","1,0,0,0.25,0.5,0.25,0.25,0.25,0.5","1","",""
"","html-keyboard-response","189","99982","0.0-189.0","","","","","null","<img src=""img/land2.png"" style=""width:200px;border:14px solid red;"">","null","","","","","","","","","",""
"","image-keyboard-response","190","100520","0.0-190.0","","","","","534.1000000005588","img/land2.png","76","536.5","3","0","2","2","1,0,0,0.25,0.5,0.25,0.25,0.25,0.5","1,0,0,0.25,0.5,0.25,0.25,0.25,0.5","1","",""
"","html-keyboard-response","191","100823","0.0-191.0","","","","","null","<img src=""img/land2.png"" style=""width:200px;border:14px solid red;"">","null","","","","","","","","","",""
"","image-keyboard-response","192","101367","0.0-192.0","","","","","541.5999999996275","img/land2.png","75","544","2","0","2","2","1,0,0,0.25,0.5,0.25,0.25,0.25,0.5","1,0,0,0.25,0.5,0.25,0.25,0.25,0.5","1","",""
"","html-keyboard-response","193","101671","0.0-193.0","","","","","null","<img src=""img/land2.png"" style=""width:200px;border:14px solid red;"">","null","","","","","","","","","",""
"","image-keyboard-response","194","102351","0.0-194.0","","","","","677.2000000001863","img/land1.png","74","679.5","1","1","1","2","1,0,0,0.25,0.5,0.25,0.25,0.25,0.5","1,0,0,0.25,0.5,0.25,0.25,0.25,0.5","1","",""
"","html-keyboard-response","195","102654","0.0-195.0","","","","","null","<img src=""img/land1.png"" style=""width:200px; border:14px solid green;"">","null","","","","","","","","","",""
"","image-keyboard-response","196","103080","0.0-196.0","","","","","422","img/land1.png","74","424.79999999981374","1","1","1","2","1,0,0,0.25,0.5,0.25,0.25,0.25,0.5","1,0,0,0.25,0.5,0.25,0.25,0.25,0.5","1","",""
"","html-keyboard-response","197","103383","0.0-197.0","","","","","null","<img src=""img/land1.png"" style=""width:200px; border:14px solid green;"">","null","","","","","","","","","",""
"","image-keyboard-response","198","104175","0.0-198.0","","","","","789.3999999994412","img/land3.png","76","791.7999999998137","3","0","3","2","1,0,0,0.25,0.5,0.25,0.25,0.25,0.5","1,0,0,0.25,0.5,0.25,0.25,0.25,0.5","1","",""
"","html-keyboard-response","199","104479","0.0-199.0","","","","","null","<img src=""img/land3.png"" style=""width:200px;border:14px solid red;"">","null","","","","","","","","","",""
"","image-keyboard-response","200","105533","0.0-200.0","","","","","1051.9000000003725","img/land2.png","75","1053.5999999996275","2","1","2","2","1,0,0,0.25,0.5,0.25,0.25,0.25,0.5","1,0,0,0.25,0.5,0.25,0.25,0.25,0.5","1","",""
"","html-keyboard-response","201","105836","0.0-201.0","","","","","null","<img src=""img/land2.png"" style=""width:200px; border:14px solid green;"">","null","","","","","","","","","",""
"","image-keyboard-response","202","106495","0.0-202.0","","","","","656.0999999996275","img/land1.png","74","658.3999999994412","1","1","1","2","1,0,0,0.25,0.5,0.25,0.25,0.25,0.5","1,0,0,0.25,0.5,0.25,0.25,0.25,0.5","1","",""
"","html-keyboard-response","203","106798","0.0-203.0","","","","","null","<img src=""img/land1.png"" style=""width:200px; border:14px solid green;"">","null","","","","","","","","","",""
"","image-keyboard-response","204","107472","0.0-204.0","","","","","670.3999999994412","img/land2.png","75","672.7000000001863","2","0","2","2","1,0,0,0.25,0.5,0.25,0.25,0.25,0.5","1,0,0,0.25,0.5,0.25,0.25,0.25,0.5","1","",""
"","html-keyboard-response","205","107774","0.0-205.0","","","","","null","<img src=""img/land2.png"" style=""width:200px;border:14px solid red;"">","null","","","","","","","","","",""
"","image-keyboard-response","206","108391","0.0-206.0","","","","","613.7000000001863","img/land1.png","74","615.7999999998137","1","1","1","2","1,0,0,0.25,0.5,0.25,0.25,0.25,0.5","1,0,0,0.25,0.5,0.25,0.25,0.25,0.5","1","",""
"","html-keyboard-response","207","108693","0.0-207.0","","","","","null","<img src=""img/land1.png"" style=""width:200px; border:14px solid green;"">","null","","","","","","","","","",""
"","image-keyboard-response","208","109295","0.0-208.0","","","","","598.7999999998137","img/land2.png","74","601.5","1","1","2","2","1,0,0,0.25,0.5,0.25,0.25,0.25,0.5","1,0,0,0.25,0.5,0.25,0.25,0.25,0.5","1","",""
"","html-keyboard-response","209","109599","0.0-209.0","","","","","null","<img src=""img/land2.png"" style=""width:200px; border:14px solid green;"">","null","","","","","","","","","",""
"","image-keyboard-response","210","110791","0.0-210.0","","","","","1189.6000000005588","img/land3.png","76","1191.7000000001863","3","1","3","2","1,0,0,0.25,0.5,0.25,0.25,0.25,0.5","1,0,0,0.25,0.5,0.25,0.25,0.25,0.5","1","",""
"","html-keyboard-response","211","111094","0.0-211.0","","","","","null","<img src=""img/land3.png"" style=""width:200px; border:14px solid green;"">","null","","","","","","","","","",""
"","image-keyboard-response","212","111879","0.0-212.0","","","","","781.7000000001863","img/land1.png","74","784.5","1","1","1","2","1,0,0,0.25,0.5,0.25,0.25,0.25,0.5","1,0,0,0.25,0.5,0.25,0.25,0.25,0.5","1","",""
"","html-keyboard-response","213","112182","0.0-213.0","","","","","null","<img src=""img/land1.png"" style=""width:200px; border:14px solid green;"">","null","","","","","","","","","",""
"","image-keyboard-response","214","112759","0.0-214.0","","","","","573.6000000005588","img/land1.png","74","575.9000000003725","1","1","1","2","1,0,0,0.25,0.5,0.25,0.25,0.25,0.5","1,0,0,0.25,0.5,0.25,0.25,0.25,0.5","1","",""
"","html-keyboard-response","215","113063","0.0-215.0","","","","","null","<img src=""img/land1.png"" style=""width:200px; border:14px solid green;"">","null","","","","","","","","","",""
"","image-keyboard-response","216","113791","0.0-216.0","","","","","725.3999999994412","img/land3.png","76","727.5","3","1","3","2","1,0,0,0.25,0.5,0.25,0.25,0.25,0.5","1,0,0,0.25,0.5,0.25,0.25,0.25,0.5","1","",""
"","html-keyboard-response","217","114095","0.0-217.0","","","","","null","<img src=""img/land3.png"" style=""width:200px; border:14px solid green;"">","null","","","","","","","","","",""
"","image-keyboard-response","218","114727","0.0-218.0","","","","","629.3999999994412","img/land1.png","74","631.7000000001863","1","1","1","2","1,0,0,0.25,0.5,0.25,0.25,0.25,0.5","1,0,0,0.25,0.5,0.25,0.25,0.25,0.5","1","",""
"","html-keyboard-response","219","115031","0.0-219.0","","","","","null","<img src=""img/land1.png"" style=""width:200px; border:14px solid green;"">","null","","","","","","","","","",""
"","image-keyboard-response","220","115559","0.0-220.0","","","","","522.3000000007451","img/land1.png","74","525.3999999994412","1","1","1","2","1,0,0,0.25,0.5,0.25,0.25,0.25,0.5","1,0,0,0.25,0.5,0.25,0.25,0.25,0.5","1","",""
"","html-keyboard-response","221","115861","0.0-221.0","","","","","null","<img src=""img/land1.png"" style=""width:200px; border:14px solid green;"">","null","","","","","","","","","",""
"","image-keyboard-response","222","116319","0.0-222.0","","","","","454.90000000037253","img/land1.png","74","457","1","1","1","2","1,0,0,0.25,0.5,0.25,0.25,0.25,0.5","1,0,0,0.25,0.5,0.25,0.25,0.25,0.5","1","",""
"","html-keyboard-response","223","116623","0.0-223.0","","","","","null","<img src=""img/land1.png"" style=""width:200px; border:14px solid green;"">","null","","","","","","","","","",""
"","image-keyboard-response","224","117263","0.0-224.0","","","","","637.5","img/land3.png","76","639.7999999998137","3","1","3","2","1,0,0,0.25,0.5,0.25,0.25,0.25,0.5","1,0,0,0.25,0.5,0.25,0.25,0.25,0.5","1","",""
"","html-keyboard-response","225","117567","0.0-225.0","","","","","null","<img src=""img/land3.png"" style=""width:200px; border:14px solid green;"">","null","","","","","","","","","",""
"","image-keyboard-response","226","118472","0.0-226.0","","","","","901.0999999996275","img/land2.png","75","903.4000000003725","2","1","2","2","1,0,0,0.25,0.5,0.25,0.25,0.25,0.5","1,0,0,0.25,0.5,0.25,0.25,0.25,0.5","1","",""
"","html-keyboard-response","227","118774","0.0-227.0","","","","","null","<img src=""img/land2.png"" style=""width:200px; border:14px solid green;"">","null","","","","","","","","","",""
"","image-keyboard-response","228","119335","0.0-228.0","","","","","557.5999999996275","img/land1.png","74","560.4000000003725","1","1","1","2","1,0,0,0.25,0.5,0.25,0.25,0.25,0.5","1,0,0,0.25,0.5,0.25,0.25,0.25,0.5","1","",""
"","html-keyboard-response","229","119639","0.0-229.0","","","","","null","<img src=""img/land1.png"" style=""width:200px; border:14px solid green;"">","null","","","","","","","","","",""
"","image-keyboard-response","230","120399","0.0-230.0","","","","","757.2000000001863","img/land2.png","75","759.2999999998137","2","1","2","2","1,0,0,0.25,0.5,0.25,0.25,0.25,0.5","1,0,0,0.25,0.5,0.25,0.25,0.25,0.5","1","",""
"","html-keyboard-response","231","120701","0.0-231.0","","","","","null","<img src=""img/land2.png"" style=""width:200px; border:14px solid green;"">","null","","","","","","","","","",""
"","image-keyboard-response","232","121206","0.0-232.0","","","","","501.6000000005588","img/land1.png","74","503.70000000018626","1","1","1","2","1,0,0,0.25,0.5,0.25,0.25,0.25,0.5","1,0,0,0.25,0.5,0.25,0.25,0.25,0.5","1","",""
"","html-keyboard-response","233","121507","0.0-233.0","","","","","null","<img src=""img/land1.png"" style=""width:200px; border:14px solid green;"">","null","","","","","","","","","",""
"","image-keyboard-response","234","121880","0.0-234.0","","","","","370","img/land1.png","74","372.70000000018626","1","1","1","2","1,0,0,0.25,0.5,0.25,0.25,0.25,0.5","1,0,0,0.25,0.5,0.25,0.25,0.25,0.5","1","",""
"","html-keyboard-response","235","122193","0.0-235.0","","","","","null","<img src=""img/land1.png"" style=""width:200px; border:14px solid green;"">","null","","","","","","","","","",""
"","image-keyboard-response","236","122503","0.0-236.0","","","","","308.8999999994412","img/land1.png","74","310.29999999981374","1","1","1","2","1,0,0,0.25,0.5,0.25,0.25,0.25,0.5","1,0,0,0.25,0.5,0.25,0.25,0.25,0.5","1","",""
"","html-keyboard-response","237","122807","0.0-237.0","","","","","null","<img src=""img/land1.png"" style=""width:200px; border:14px solid green;"">","null","","","","","","","","","",""
"","image-keyboard-response","238","123511","0.0-238.0","","","","","701.2999999998137","img/land3.png","76","703.7000000001863","3","1","3","2","1,0,0,0.25,0.5,0.25,0.25,0.25,0.5","1,0,0,0.25,0.5,0.25,0.25,0.25,0.5","1","",""
"","html-keyboard-response","239","123814","0.0-239.0","","","","","null","<img src=""img/land3.png"" style=""width:200px; border:14px solid green;"">","null","","","","","","","","","",""
"","image-keyboard-response","240","124543","0.0-240.0","","","","","725.7999999998137","img/land1.png","74","728","1","1","1","2","1,0,0,0.25,0.5,0.25,0.25,0.25,0.5","1,0,0,0.25,0.5,0.25,0.25,0.25,0.5","1","",""
"","html-keyboard-response","241","124846","0.0-241.0","","","","","null","<img src=""img/land1.png"" style=""width:200px; border:14px solid green;"">","null","","","","","","","","","",""
"","image-keyboard-response","242","125535","0.0-242.0","","","","","686.3999999994412","img/land3.png","76","688.3000000007451","3","0","3","2","1,0,0,0.25,0.5,0.25,0.25,0.25,0.5","1,0,0,0.25,0.5,0.25,0.25,0.25,0.5","1","",""
"","html-keyboard-response","243","125839","0.0-243.0","","","","","null","<img src=""img/land3.png"" style=""width:200px;border:14px solid red;"">","null","","","","","","","","","",""
"","image-keyboard-response","244","126295","0.0-244.0","","","","","452.79999999981374","img/land1.png","74","455.20000000018626","1","1","1","2","1,0,0,0.25,0.5,0.25,0.25,0.25,0.5","1,0,0,0.25,0.5,0.25,0.25,0.25,0.5","1","",""
"","html-keyboard-response","245","126598","0.0-245.0","","","","","null","<img src=""img/land1.png"" style=""width:200px; border:14px solid green;"">","null","","","","","","","","","",""
"","image-keyboard-response","246","127253","0.0-246.0","","","","","652.7999999998137","img/land3.png","75","654.2999999998137","2","1","3","2","1,0,0,0.25,0.5,0.25,0.25,0.25,0.5","1,0,0,0.25,0.5,0.25,0.25,0.25,0.5","1","",""
"","html-keyboard-response","247","127556","0.0-247.0","","","","","null","<img src=""img/land3.png"" style=""width:200px; border:14px solid green;"">","null","","","","","","","","","",""
"","image-keyboard-response","248","127999","0.0-248.0","","","","","440.1000000005588","img/land1.png","75","442.69999999925494","2","0","1","2","1,0,0,0.25,0.5,0.25,0.25,0.25,0.5","1,0,0,0.25,0.5,0.25,0.25,0.25,0.5","1","",""
"","html-keyboard-response","249","128303","0.0-249.0","","","","","null","<img src=""img/land1.png"" style=""width:200px;border:14px solid red;"">","null","","","","","","","","","",""
"","image-keyboard-response","250","128712","0.0-250.0","","","","","405.40000000037253","img/land1.png","74","407.79999999981374","1","1","1","2","1,0,0,0.25,0.5,0.25,0.25,0.25,0.5","1,0,0,0.25,0.5,0.25,0.25,0.25,0.5","1","",""
"","html-keyboard-response","251","129015","0.0-251.0","","","","","null","<img src=""img/land1.png"" style=""width:200px; border:14px solid green;"">","null","","","","","","","","","",""
"","image-keyboard-response","252","129263","0.0-252.0","","","","","244.90000000037253","img/land3.png","74","247.09999999962747","1","1","3","2","1,0,0,0.25,0.5,0.25,0.25,0.25,0.5","1,0,0,0.25,0.5,0.25,0.25,0.25,0.5","1","",""
"","html-keyboard-response","253","129566","0.0-253.0","","","","","null","<img src=""img/land3.png"" style=""width:200px; border:14px solid green;"">","null","","","","","","","","","",""
"","image-keyboard-response","254","129903","0.0-254.0","","","","","333.40000000037253","img/land1.png","74","336.79999999981374","1","1","1","2","1,0,0,0.25,0.5,0.25,0.25,0.25,0.5","1,0,0,0.25,0.5,0.25,0.25,0.25,0.5","1","",""
"","html-keyboard-response","255","130207","0.0-255.0","","","","","null","<img src=""img/land1.png"" style=""width:200px; border:14px solid green;"">","null","","","","","","","","","",""
"","image-keyboard-response","256","130544","0.0-256.0","","","","","333.6000000005588","img/land1.png","74","336.29999999981374","1","1","1","2","1,0,0,0.25,0.5,0.25,0.25,0.25,0.5","1,0,0,0.25,0.5,0.25,0.25,0.25,0.5","1","",""
"","html-keyboard-response","257","130849","0.0-257.0","","","","","null","<img src=""img/land1.png"" style=""width:200px; border:14px solid green;"">","null","","","","","","","","","",""
"","image-keyboard-response","258","131103","0.0-258.0","","","","","251.6000000005588","img/land1.png","74","253.79999999981374","1","1","1","2","1,0,0,0.25,0.5,0.25,0.25,0.25,0.5","1,0,0,0.25,0.5,0.25,0.25,0.25,0.5","1","",""
"","html-keyboard-response","259","131407","0.0-259.0","","","","","null","<img src=""img/land1.png"" style=""width:200px; border:14px solid green;"">","null","","","","","","","","","",""
"","image-keyboard-response","260","132087","0.0-260.0","","","","","677.3999999994412","img/land2.png","75","679.9000000003725","2","1","2","2","1,0,0,0.25,0.5,0.25,0.25,0.25,0.5","1,0,0,0.25,0.5,0.25,0.25,0.25,0.5","1","",""
"","html-keyboard-response","261","132390","0.0-261.0","","","","","null","<img src=""img/land2.png"" style=""width:200px; border:14px solid green;"">","null","","","","","","","","","",""
"","image-keyboard-response","262","133071","0.0-262.0","","","","","677.5999999996275","img/land3.png","76","680.2000000001863","3","1","3","2","1,0,0,0.25,0.5,0.25,0.25,0.25,0.5","1,0,0,0.25,0.5,0.25,0.25,0.25,0.5","1","",""
"","html-keyboard-response","263","133374","0.0-263.0","","","","","null","<img src=""img/land3.png"" style=""width:200px; border:14px solid green;"">","null","","","","","","","","","",""
"","image-keyboard-response","264","133911","0.0-264.0","","","","","533.6000000005588","img/land3.png","76","536.0999999996275","3","0","3","2","1,0,0,0.25,0.5,0.25,0.25,0.25,0.5","1,0,0,0.25,0.5,0.25,0.25,0.25,0.5","1","",""
"","html-keyboard-response","265","134214","0.0-265.0","","","","","null","<img src=""img/land3.png"" style=""width:200px;border:14px solid red;"">","null","","","","","","","","","",""
"","image-keyboard-response","266","134847","0.0-266.0","","","","","630.1000000005588","img/land3.png","75","632.4000000003725","2","0","3","2","1,0,0,0.25,0.5,0.25,0.25,0.25,0.5","1,0,0,0.25,0.5,0.25,0.25,0.25,0.5","1","",""
"","html-keyboard-response","267","135150","0.0-267.0","","","","","null","<img src=""img/land3.png"" style=""width:200px;border:14px solid red;"">","null","","","","","","","","","",""
"","image-keyboard-response","268","136295","0.0-268.0","","","","","1141.0999999996275","img/land2.png","76","1143.7999999998137","3","0","2","2","1,0,0,0.25,0.5,0.25,0.25,0.25,0.5","1,0,0,0.25,0.5,0.25,0.25,0.25,0.5","1","",""
"","html-keyboard-response","269","136598","0.0-269.0","","","","","null","<img src=""img/land2.png"" style=""width:200px;border:14px solid red;"">","null","","","","","","","","","",""
"","image-keyboard-response","270","137727","0.0-270.0","","","","","1126.5","img/land3.png","76","1128.7999999998137","3","1","3","2","1,0,0,0.25,0.5,0.25,0.25,0.25,0.5","1,0,0,0.25,0.5,0.25,0.25,0.25,0.5","1","",""
"","html-keyboard-response","271","138031","0.0-271.0","","","","","null","<img src=""img/land3.png"" style=""width:200px; border:14px solid green;"">","null","","","","","","","","","",""
"","image-keyboard-response","272","138711","0.0-272.0","","","","","677.2000000001863","img/land3.png","75","679.5999999996275","2","0","3","2","1,0,0,0.25,0.5,0.25,0.25,0.25,0.5","1,0,0,0.25,0.5,0.25,0.25,0.25,0.5","1","",""
"","html-keyboard-response","273","139014","0.0-273.0","","","","","null","<img src=""img/land3.png"" style=""width:200px;border:14px solid red;"">","null","","","","","","","","","",""
"","image-keyboard-response","274","139720","0.0-274.0","","","","","703","img/land1.png","74","705.2999999998137","1","1","1","2","1,0,0,0.25,0.5,0.25,0.25,0.25,0.5","1,0,0,0.25,0.5,0.25,0.25,0.25,0.5","1","",""
"","html-keyboard-response","275","140023","0.0-275.0","","","","","null","<img src=""img/land1.png"" style=""width:200px; border:14px solid green;"">","null","","","","","","","","","",""
"","image-keyboard-response","276","140359","0.0-276.0","","","","","333.6000000005588","img/land1.png","74","336","1","1","1","2","1,0,0,0.25,0.5,0.25,0.25,0.25,0.5","1,0,0,0.25,0.5,0.25,0.25,0.25,0.5","1","",""
"","html-keyboard-response","277","140662","0.0-277.0","","","","","null","<img src=""img/land1.png"" style=""width:200px; border:14px solid green;"">","null","","","","","","","","","",""
"","image-keyboard-response","278","140999","0.0-278.0","","","","","334.30000000074506","img/land1.png","74","336.3999999994412","1","1","1","2","1,0,0,0.25,0.5,0.25,0.25,0.25,0.5","1,0,0,0.25,0.5,0.25,0.25,0.25,0.5","1","",""
"","html-keyboard-response","279","141302","0.0-279.0","","","","","null","<img src=""img/land1.png"" style=""width:200px; border:14px solid green;"">","null","","","","","","","","","",""
"","image-keyboard-response","280","141648","0.0-280.0","","","","","342.20000000018626","img/land1.png","74","344.79999999981374","1","1","1","2","1,0,0,0.25,0.5,0.25,0.25,0.25,0.5","1,0,0,0.25,0.5,0.25,0.25,0.25,0.5","1","",""
"","html-keyboard-response","281","141951","0.0-281.0","","","","","null","<img src=""img/land1.png"" style=""width:200px; border:14px solid green;"">","null","","","","","","","","","",""
"","image-keyboard-response","282","142254","0.0-282.0","","","","","300.5","img/land1.png","74","303.29999999981374","1","1","1","2","1,0,0,0.25,0.5,0.25,0.25,0.25,0.5","1,0,0,0.25,0.5,0.25,0.25,0.25,0.5","1","",""
"","html-keyboard-response","283","142557","0.0-283.0","","","","","null","<img src=""img/land1.png"" style=""width:200px; border:14px solid green;"">","null","","","","","","","","","",""
"","image-keyboard-response","284","142823","0.0-284.0","","","","","263.1000000005588","img/land1.png","74","265.6000000005588","1","1","1","2","1,0,0,0.25,0.5,0.25,0.25,0.25,0.5","1,0,0,0.25,0.5,0.25,0.25,0.25,0.5","1","",""
"","html-keyboard-response","285","143126","0.0-285.0","","","","","null","<img src=""img/land1.png"" style=""width:200px; border:14px solid green;"">","null","","","","","","","","","",""
"","image-keyboard-response","286","143487","0.0-286.0","","","","","357.79999999981374","img/land1.png","74","360.29999999981374","1","1","1","2","1,0,0,0.25,0.5,0.25,0.25,0.25,0.5","1,0,0,0.25,0.5,0.25,0.25,0.25,0.5","1","",""
"","html-keyboard-response","287","143790","0.0-287.0","","","","","null","<img src=""img/land1.png"" style=""width:200px; border:14px solid green;"">","null","","","","","","","","","",""
"","image-keyboard-response","288","144061","0.0-288.0","","","","","268.29999999981374","img/land1.png","74","270","1","1","1","2","1,0,0,0.25,0.5,0.25,0.25,0.25,0.5","1,0,0,0.25,0.5,0.25,0.25,0.25,0.5","1","",""
"","html-keyboard-response","289","144363","0.0-289.0","","","","","null","<img src=""img/land1.png"" style=""width:200px; border:14px solid green;"">","null","","","","","","","","","",""
"","image-keyboard-response","290","144573","0.0-290.0","","","","","207.79999999981374","img/land1.png","74","210.69999999925494","1","1","1","2","1,0,0,0.25,0.5,0.25,0.25,0.25,0.5","1,0,0,0.25,0.5,0.25,0.25,0.25,0.5","1","",""
"","html-keyboard-response","291","144876","0.0-291.0","","","","","null","<img src=""img/land1.png"" style=""width:200px; border:14px solid green;"">","null","","","","","","","","","",""
"","image-keyboard-response","292","145607","0.0-292.0","","","","","729.5999999996275","img/land2.png","75","731.7000000001863","2","0","2","2","1,0,0,0.25,0.5,0.25,0.25,0.25,0.5","1,0,0,0.25,0.5,0.25,0.25,0.25,0.5","1","",""
"","html-keyboard-response","293","145911","0.0-293.0","","","","","null","<img src=""img/land2.png"" style=""width:200px;border:14px solid red;"">","null","","","","","","","","","",""
"","image-keyboard-response","294","146559","0.0-294.0","","","","","645.2999999998137","img/land1.png","74","648","1","1","1","2","1,0,0,0.25,0.5,0.25,0.25,0.25,0.5","1,0,0,0.25,0.5,0.25,0.25,0.25,0.5","1","",""
"","html-keyboard-response","295","146861","0.0-295.0","","","","","null","<img src=""img/land1.png"" style=""width:200px; border:14px solid green;"">","null","","","","","","","","","",""
"","image-keyboard-response","296","147678","0.0-296.0","","","","","813.7999999998137","img/land3.png","76","815.5","3","0","3","2","1,0,0,0.25,0.5,0.25,0.25,0.25,0.5","1,0,0,0.25,0.5,0.25,0.25,0.25,0.5","1","",""
"","html-keyboard-response","297","147981","0.0-297.0","","","","","null","<img src=""img/land3.png"" style=""width:200px;border:14px solid red;"">","null","","","","","","","","","",""
"","image-keyboard-response","298","148767","0.0-298.0","","","","","784.3000000007451","img/land1.png","74","786.4000000003725","1","1","1","2","1,0,0,0.25,0.5,0.25,0.25,0.25,0.5","1,0,0,0.25,0.5,0.25,0.25,0.25,0.5","1","",""
"","html-keyboard-response","299","149071","0.0-299.0","","","","","null","<img src=""img/land1.png"" style=""width:200px; border:14px solid green;"">","null","","","","","","","","","",""
"","image-keyboard-response","300","149511","0.0-300.0","","","","","436.3999999994412","img/land1.png","74","438.79999999981374","1","1","1","2","1,0,0,0.25,0.5,0.25,0.25,0.25,0.5","1,0,0,0.25,0.5,0.25,0.25,0.25,0.5","1","",""
"","html-keyboard-response","301","149814","0.0-301.0","","","","","null","<img src=""img/land1.png"" style=""width:200px; border:14px solid green;"">","null","","","","","","","","","",""
"","image-keyboard-response","302","150943","0.0-302.0","","","","","1126.4000000003725","img/land6.png","75","1128.699999999255","2","0","3","1","1,0,0,0.25,0.5,0.25,0.25,0.25,0.5","0,0,1,0.25,0.5,0.25,0.5,0.25,0.25","2","",""
"","html-keyboard-response","303","151247","0.0-303.0","","","","","null","<img src=""img/land6.png"" style=""width:200px;border:14px solid red;"">","null","","","","","","","","","",""
"","image-keyboard-response","304","151639","0.0-304.0","","","","","388.6000000005588","img/land6.png","75","391.20000000018626","2","1","3","1","1,0,0,0.25,0.5,0.25,0.25,0.25,0.5","0,0,1,0.25,0.5,0.25,0.5,0.25,0.25","2","",""
"","html-keyboard-response","305","151942","0.0-305.0","","","","","null","<img src=""img/land6.png"" style=""width:200px; border:14px solid green;"">","null","","","","","","","","","",""
"","image-keyboard-response","306","152895","0.0-306.0","","","","","950.7000000001863","img/land5.png","74","952.8999999994412","1","0","2","1","1,0,0,0.25,0.5,0.25,0.25,0.25,0.5","0,0,1,0.25,0.5,0.25,0.5,0.25,0.25","2","",""
"","html-keyboard-response","307","153199","0.0-307.0","","","","","null","<img src=""img/land5.png"" style=""width:200px;border:14px solid red;"">","null","","","","","","","","","",""
"","image-keyboard-response","308","153807","0.0-308.0","","","","","605.1000000005588","img/land6.png","75","607.8000000007451","2","0","3","1","1,0,0,0.25,0.5,0.25,0.25,0.25,0.5","0,0,1,0.25,0.5,0.25,0.5,0.25,0.25","2","",""
"","html-keyboard-response","309","154111","0.0-309.0","","","","","null","<img src=""img/land6.png"" style=""width:200px;border:14px solid red;"">","null","","","","","","","","","",""
"","image-keyboard-response","310","154448","0.0-310.0","","","","","334.20000000018626","img/land5.png","75","336.5","2","0","2","1","1,0,0,0.25,0.5,0.25,0.25,0.25,0.5","0,0,1,0.25,0.5,0.25,0.5,0.25,0.25","2","",""
"","html-keyboard-response","311","154752","0.0-311.0","","","","","null","<img src=""img/land5.png"" style=""width:200px;border:14px solid red;"">","null","","","","","","","","","",""
"","image-keyboard-response","312","155119","0.0-312.0","","","","","364.5","img/land5.png","75","367","2","0","2","1","1,0,0,0.25,0.5,0.25,0.25,0.25,0.5","0,0,1,0.25,0.5,0.25,0.5,0.25,0.25","2","",""
"","html-keyboard-response","313","155422","0.0-313.0","","","","","null","<img src=""img/land5.png"" style=""width:200px;border:14px solid red;"">","null","","","","","","","","","",""
"","image-keyboard-response","314","155743","0.0-314.0","","","","","319","img/land5.png","76","321.19999999925494","3","0","2","1","1,0,0,0.25,0.5,0.25,0.25,0.25,0.5","0,0,1,0.25,0.5,0.25,0.5,0.25,0.25","2","",""
"","html-keyboard-response","315","156046","0.0-315.0","","","","","null","<img src=""img/land5.png"" style=""width:200px;border:14px solid red;"">","null","","","","","","","","","",""
"","image-keyboard-response","316","156800","0.0-316.0","","","","","750.0999999996275","img/land4.png","76","752.7000000001863","3","1","1","1","1,0,0,0.25,0.5,0.25,0.25,0.25,0.5","0,0,1,0.25,0.5,0.25,0.5,0.25,0.25","2","",""
"","html-keyboard-response","317","157108","0.0-317.0","","","","","null","<img src=""img/land4.png"" style=""width:200px; border:14px solid green;"">","null","","","","","","","","","",""
"","image-keyboard-response","318","158247","0.0-318.0","","","","","1136.5","img/land5.png","74","1139","1","1","2","1","1,0,0,0.25,0.5,0.25,0.25,0.25,0.5","0,0,1,0.25,0.5,0.25,0.5,0.25,0.25","2","",""
"","html-keyboard-response","319","158551","0.0-319.0","","","","","null","<img src=""img/land5.png"" style=""width:200px; border:14px solid green;"">","null","","","","","","","","","",""
"","image-keyboard-response","320","158990","0.0-320.0","","","","","437","img/land5.png","74","439.09999999962747","1","0","2","1","1,0,0,0.25,0.5,0.25,0.25,0.25,0.5","0,0,1,0.25,0.5,0.25,0.5,0.25,0.25","2","",""
"","html-keyboard-response","321","159293","0.0-321.0","","","","","null","<img src=""img/land5.png"" style=""width:200px;border:14px solid red;"">","null","","","","","","","","","",""
"","image-keyboard-response","322","159679","0.0-322.0","","","","","382.59999999962747","img/land5.png","74","385.5","1","0","2","1","1,0,0,0.25,0.5,0.25,0.25,0.25,0.5","0,0,1,0.25,0.5,0.25,0.5,0.25,0.25","2","",""
"","html-keyboard-response","323","159982","0.0-323.0","","","","","null","<img src=""img/land5.png"" style=""width:200px;border:14px solid red;"">","null","","","","","","","","","",""
"","image-keyboard-response","324","160591","0.0-324.0","","","","","605.5999999996275","img/land4.png","76","607.9000000003725","3","1","1","1","1,0,0,0.25,0.5,0.25,0.25,0.25,0.5","0,0,1,0.25,0.5,0.25,0.5,0.25,0.25","2","",""
"","html-keyboard-response","325","160893","0.0-325.0","","","","","null","<img src=""img/land4.png"" style=""width:200px; border:14px solid green;"">","null","","","","","","","","","",""
"","image-keyboard-response","326","161296","0.0-326.0","","","","","399.1000000005588","img/land4.png","76","401.59999999962747","3","1","1","1","1,0,0,0.25,0.5,0.25,0.25,0.25,0.5","0,0,1,0.25,0.5,0.25,0.5,0.25,0.25","2","",""
"","html-keyboard-response","327","161599","0.0-327.0","","","","","null","<img src=""img/land4.png"" style=""width:200px; border:14px solid green;"">","null","","","","","","","","","",""
"","image-keyboard-response","328","162391","0.0-328.0","","","","","789.0999999996275","img/land6.png","75","791.5999999996275","2","1","3","1","1,0,0,0.25,0.5,0.25,0.25,0.25,0.5","0,0,1,0.25,0.5,0.25,0.5,0.25,0.25","2","",""
"","html-keyboard-response","329","162694","0.0-329.0","","","","","null","<img src=""img/land6.png"" style=""width:200px; border:14px solid green;"">","null","","","","","","","","","",""
"","image-keyboard-response","330","163295","0.0-330.0","","","","","597.2999999998137","img/land4.png","76","600.0999999996275","3","1","1","1","1,0,0,0.25,0.5,0.25,0.25,0.25,0.5","0,0,1,0.25,0.5,0.25,0.5,0.25,0.25","2","",""
"","html-keyboard-response","331","163599","0.0-331.0","","","","","null","<img src=""img/land4.png"" style=""width:200px; border:14px solid green;"">","null","","","","","","","","","",""
"","image-keyboard-response","332","164598","0.0-332.0","","","","","995.7999999998137","img/land5.png","74","997.5999999996275","1","1","2","1","1,0,0,0.25,0.5,0.25,0.25,0.25,0.5","0,0,1,0.25,0.5,0.25,0.5,0.25,0.25","2","",""
"","html-keyboard-response","333","164900","0.0-333.0","","","","","null","<img src=""img/land5.png"" style=""width:200px; border:14px solid green;"">","null","","","","","","","","","",""
"","image-keyboard-response","334","165519","0.0-334.0","","","","","616","img/land6.png","76","618.3000000007451","3","0","3","1","1,0,0,0.25,0.5,0.25,0.25,0.25,0.5","0,0,1,0.25,0.5,0.25,0.5,0.25,0.25","2","",""
"","html-keyboard-response","335","165822","0.0-335.0","","","","","null","<img src=""img/land6.png"" style=""width:200px;border:14px solid red;"">","null","","","","","","","","","",""
"","image-keyboard-response","336","166735","0.0-336.0","","","","","910.6999999992549","img/land4.png","76","913.0999999996275","3","1","1","1","1,0,0,0.25,0.5,0.25,0.25,0.25,0.5","0,0,1,0.25,0.5,0.25,0.5,0.25,0.25","2","",""
"","html-keyboard-response","337","167039","0.0-337.0","","","","","null","<img src=""img/land4.png"" style=""width:200px; border:14px solid green;"">","null","","","","","","","","","",""
"","image-keyboard-response","338","167439","0.0-338.0","","","","","397.30000000074506","img/land4.png","76","399.69999999925494","3","1","1","1","1,0,0,0.25,0.5,0.25,0.25,0.25,0.5","0,0,1,0.25,0.5,0.25,0.5,0.25,0.25","2","",""
"","html-keyboard-response","339","167742","0.0-339.0","","","","","null","<img src=""img/land4.png"" style=""width:200px; border:14px solid green;"">","null","","","","","","","","","",""
"","image-keyboard-response","340","168087","0.0-340.0","","","","","341.6000000005588","img/land4.png","76","344","3","1","1","1","1,0,0,0.25,0.5,0.25,0.25,0.25,0.5","0,0,1,0.25,0.5,0.25,0.5,0.25,0.25","2","",""
"","html-keyboard-response","341","168391","0.0-341.0","","","","","null","<img src=""img/land4.png"" style=""width:200px; border:14px solid green;"">","null","","","","","","","","","",""
"","image-keyboard-response","342","169103","0.0-342.0","","","","","708.2999999998137","img/land5.png","74","711.3999999994412","1","0","2","1","1,0,0,0.25,0.5,0.25,0.25,0.25,0.5","0,0,1,0.25,0.5,0.25,0.5,0.25,0.25","2","",""
"","html-keyboard-response","343","169407","0.0-343.0","","","","","null","<img src=""img/land5.png"" style=""width:200px;border:14px solid red;"">","null","","","","","","","","","",""
"","image-keyboard-response","344","170183","0.0-344.0","","","","","772.5","img/land4.png","76","775.2999999998137","3","1","1","1","1,0,0,0.25,0.5,0.25,0.25,0.25,0.5","0,0,1,0.25,0.5,0.25,0.5,0.25,0.25","2","",""
"","html-keyboard-response","345","170487","0.0-345.0","","","","","null","<img src=""img/land4.png"" style=""width:200px; border:14px solid green;"">","null","","","","","","","","","",""
"","image-keyboard-response","346","170847","0.0-346.0","","","","","357.20000000018626","img/land4.png","76","359.5","3","1","1","1","1,0,0,0.25,0.5,0.25,0.25,0.25,0.5","0,0,1,0.25,0.5,0.25,0.5,0.25,0.25","2","",""
"","html-keyboard-response","347","171150","0.0-347.0","","","","","null","<img src=""img/land4.png"" style=""width:200px; border:14px solid green;"">","null","","","","","","","","","",""
"","image-keyboard-response","348","171920","0.0-348.0","","","","","766.3999999994412","img/land6.png","75","768.7999999998137","2","1","3","1","1,0,0,0.25,0.5,0.25,0.25,0.25,0.5","0,0,1,0.25,0.5,0.25,0.5,0.25,0.25","2","",""
"","html-keyboard-response","349","172222","0.0-349.0","","","","","null","<img src=""img/land6.png"" style=""width:200px; border:14px solid green;"">","null","","","","","","","","","",""
"","image-keyboard-response","350","173207","0.0-350.0","","","","","981.9000000003725","img/land5.png","74","984.3999999994412","1","0","2","1","1,0,0,0.25,0.5,0.25,0.25,0.25,0.5","0,0,1,0.25,0.5,0.25,0.5,0.25,0.25","2","",""
"","html-keyboard-response","351","173510","0.0-351.0","","","","","null","<img src=""img/land5.png"" style=""width:200px;border:14px solid red;"">","null","","","","","","","","","",""
"","image-keyboard-response","352","173798","0.0-352.0","","","","","285.1000000005588","img/land5.png","74","286.8999999994412","1","0","2","1","1,0,0,0.25,0.5,0.25,0.25,0.25,0.5","0,0,1,0.25,0.5,0.25,0.5,0.25,0.25","2","",""
"","html-keyboard-response","353","174100","0.0-353.0","","","","","null","<img src=""img/land5.png"" style=""width:200px;border:14px solid red;"">","null","","","","","","","","","",""
"","image-keyboard-response","354","174295","0.0-354.0","","","","","192","img/land6.png","76","194.40000000037253","3","0","3","1","1,0,0,0.25,0.5,0.25,0.25,0.25,0.5","0,0,1,0.25,0.5,0.25,0.5,0.25,0.25","2","",""
"","html-keyboard-response","355","174599","0.0-355.0","","","","","null","<img src=""img/land6.png"" style=""width:200px;border:14px solid red;"">","null","","","","","","","","","",""
"","image-keyboard-response","356","175215","0.0-356.0","","","","","613.3000000007451","img/land6.png","75","615.7999999998137","2","1","3","1","1,0,0,0.25,0.5,0.25,0.25,0.25,0.5","0,0,1,0.25,0.5,0.25,0.5,0.25,0.25","2","",""
"","html-keyboard-response","357","175518","0.0-357.0","","","","","null","<img src=""img/land6.png"" style=""width:200px; border:14px solid green;"">","null","","","","","","","","","",""
"","image-keyboard-response","358","176391","0.0-358.0","","","","","870.1999999992549","img/land5.png","75","872.7999999998137","2","1","2","1","1,0,0,0.25,0.5,0.25,0.25,0.25,0.5","0,0,1,0.25,0.5,0.25,0.5,0.25,0.25","2","",""
"","html-keyboard-response","359","176695","0.0-359.0","","","","","null","<img src=""img/land5.png"" style=""width:200px; border:14px solid green;"">","null","","","","","","","","","",""
"","image-keyboard-response","360","177112","0.0-360.0","","","","","414.19999999925494","img/land5.png","75","416.79999999981374","2","1","2","1","1,0,0,0.25,0.5,0.25,0.25,0.25,0.5","0,0,1,0.25,0.5,0.25,0.5,0.25,0.25","2","",""
"","html-keyboard-response","361","177415","0.0-361.0","","","","","null","<img src=""img/land5.png"" style=""width:200px; border:14px solid green;"">","null","","","","","","","","","",""
"","image-keyboard-response","362","177759","0.0-362.0","","","","","341.1000000005588","img/land5.png","75","343.6000000005588","2","0","2","1","1,0,0,0.25,0.5,0.25,0.25,0.25,0.5","0,0,1,0.25,0.5,0.25,0.5,0.25,0.25","2","",""
"","html-keyboard-response","363","178063","0.0-363.0","","","","","null","<img src=""img/land5.png"" style=""width:200px;border:14px solid red;"">","null","","","","","","","","","",""
"","image-keyboard-response","364","178799","0.0-364.0","","","","","733.6000000005588","img/land4.png","76","736.0999999996275","3","1","1","1","1,0,0,0.25,0.5,0.25,0.25,0.25,0.5","0,0,1,0.25,0.5,0.25,0.5,0.25,0.25","2","",""
"","html-keyboard-response","365","179102","0.0-365.0","","","","","null","<img src=""img/land4.png"" style=""width:200px; border:14px solid green;"">","null","","","","","","","","","",""
"","image-keyboard-response","366","179552","0.0-366.0","","","","","445.79999999981374","img/land4.png","76","448.70000000018626","3","1","1","1","1,0,0,0.25,0.5,0.25,0.25,0.25,0.5","0,0,1,0.25,0.5,0.25,0.5,0.25,0.25","2","",""
"","html-keyboard-response","367","179855","0.0-367.0","","","","","null","<img src=""img/land4.png"" style=""width:200px; border:14px solid green;"">","null","","","","","","","","","",""
"","image-keyboard-response","368","180599","0.0-368.0","","","","","741.2999999998137","img/land5.png","75","743.8999999994412","2","0","2","1","1,0,0,0.25,0.5,0.25,0.25,0.25,0.5","0,0,1,0.25,0.5,0.25,0.5,0.25,0.25","2","",""
"","html-keyboard-response","369","180902","0.0-369.0","","","","","null","<img src=""img/land5.png"" style=""width:200px;border:14px solid red;"">","null","","","","","","","","","",""
"","image-keyboard-response","370","182016","0.0-370.0","","","","","1110.699999999255","img/land6.png","76","1113","3","0","3","1","1,0,0,0.25,0.5,0.25,0.25,0.25,0.5","0,0,1,0.25,0.5,0.25,0.5,0.25,0.25","2","",""
"","html-keyboard-response","371","182319","0.0-371.0","","","","","null","<img src=""img/land6.png"" style=""width:200px;border:14px solid red;"">","null","","","","","","","","","",""
"","image-keyboard-response","372","182999","0.0-372.0","","","","","676.9000000003725","img/land5.png","76","679.3999999994412","3","1","2","1","1,0,0,0.25,0.5,0.25,0.25,0.25,0.5","0,0,1,0.25,0.5,0.25,0.5,0.25,0.25","2","",""
"","html-keyboard-response","373","183302","0.0-373.0","","","","","null","<img src=""img/land5.png"" style=""width:200px; border:14px solid green;"">","null","","","","","","","","","",""
"","image-keyboard-response","374","183632","0.0-374.0","","","","","326","img/land5.png","76","328.5","3","0","2","1","1,0,0,0.25,0.5,0.25,0.25,0.25,0.5","0,0,1,0.25,0.5,0.25,0.5,0.25,0.25","2","",""
"","html-keyboard-response","375","183945","0.0-375.0","","","","","null","<img src=""img/land5.png"" style=""width:200px;border:14px solid red;"">","null","","","","","","","","","",""
"","image-keyboard-response","376","184791","0.0-376.0","","","","","843.4000000003725","img/land5.png","76","845.9000000003725","3","0","2","1","1,0,0,0.25,0.5,0.25,0.25,0.25,0.5","0,0,1,0.25,0.5,0.25,0.5,0.25,0.25","2","",""
"","html-keyboard-response","377","185096","0.0-377.0","","","","","null","<img src=""img/land5.png"" style=""width:200px;border:14px solid red;"">","null","","","","","","","","","",""
"","image-keyboard-response","378","185847","0.0-378.0","","","","","748.5999999996275","img/land6.png","75","750.5999999996275","2","0","3","1","1,0,0,0.25,0.5,0.25,0.25,0.25,0.5","0,0,1,0.25,0.5,0.25,0.5,0.25,0.25","2","",""
"","html-keyboard-response","379","186151","0.0-379.0","","","","","null","<img src=""img/land6.png"" style=""width:200px;border:14px solid red;"">","null","","","","","","","","","",""
"","image-keyboard-response","380","186823","0.0-380.0","","","","","669.2000000001863","img/land4.png","76","671.9000000003725","3","1","1","1","1,0,0,0.25,0.5,0.25,0.25,0.25,0.5","0,0,1,0.25,0.5,0.25,0.5,0.25,0.25","2","",""
"","html-keyboard-response","381","187126","0.0-381.0","","","","","null","<img src=""img/land4.png"" style=""width:200px; border:14px solid green;"">","null","","","","","","","","","",""
"","image-keyboard-response","382","187967","0.0-382.0","","","","","838","img/land5.png","75","840.6000000005588","2","0","2","1","1,0,0,0.25,0.5,0.25,0.25,0.25,0.5","0,0,1,0.25,0.5,0.25,0.5,0.25,0.25","2","",""
"","html-keyboard-response","383","188270","0.0-383.0","","","","","null","<img src=""img/land5.png"" style=""width:200px;border:14px solid red;"">","null","","","","","","","","","",""
"","image-keyboard-response","384","188845","0.0-384.0","","","","","572.2000000001863","img/land4.png","76","573.9000000003725","3","1","1","1","1,0,0,0.25,0.5,0.25,0.25,0.25,0.5","0,0,1,0.25,0.5,0.25,0.5,0.25,0.25","2","",""
"","html-keyboard-response","385","189146","0.0-385.0","","","","","null","<img src=""img/land4.png"" style=""width:200px; border:14px solid green;"">","null","","","","","","","","","",""
"","image-keyboard-response","386","189559","0.0-386.0","","","","","410","img/land4.png","76","412.59999999962747","3","1","1","1","1,0,0,0.25,0.5,0.25,0.25,0.25,0.5","0,0,1,0.25,0.5,0.25,0.5,0.25,0.25","2","",""
"","html-keyboard-response","387","189863","0.0-387.0","","","","","null","<img src=""img/land4.png"" style=""width:200px; border:14px solid green;"">","null","","","","","","","","","",""
"","image-keyboard-response","388","190342","0.0-388.0","","","","","476.29999999981374","img/land5.png","76","478.19999999925494","3","0","2","1","1,0,0,0.25,0.5,0.25,0.25,0.25,0.5","0,0,1,0.25,0.5,0.25,0.5,0.25,0.25","2","",""
"","html-keyboard-response","389","190645","0.0-389.0","","","","","null","<img src=""img/land5.png"" style=""width:200px;border:14px solid red;"">","null","","","","","","","","","",""
"","image-keyboard-response","390","191407","0.0-390.0","","","","","759.2999999998137","img/land6.png","75","762","2","1","3","1","1,0,0,0.25,0.5,0.25,0.25,0.25,0.5","0,0,1,0.25,0.5,0.25,0.5,0.25,0.25","2","",""
"","html-keyboard-response","391","191710","0.0-391.0","","","","","null","<img src=""img/land6.png"" style=""width:200px; border:14px solid green;"">","null","","","","","","","","","",""
"","image-keyboard-response","392","192192","0.0-392.0","","","","","478.29999999981374","img/land6.png","75","480.79999999981374","2","0","3","1","1,0,0,0.25,0.5,0.25,0.25,0.25,0.5","0,0,1,0.25,0.5,0.25,0.5,0.25,0.25","2","",""
"","html-keyboard-response","393","192498","0.0-393.0","","","","","null","<img src=""img/land6.png"" style=""width:200px;border:14px solid red;"">","null","","","","","","","","","",""
"","image-keyboard-response","394","193247","0.0-394.0","","","","","746.1000000005588","img/land5.png","76","748.2999999998137","3","1","2","1","1,0,0,0.25,0.5,0.25,0.25,0.25,0.5","0,0,1,0.25,0.5,0.25,0.5,0.25,0.25","2","",""
"","html-keyboard-response","395","193550","0.0-395.0","","","","","null","<img src=""img/land5.png"" style=""width:200px; border:14px solid green;"">","null","","","","","","","","","",""
"","image-keyboard-response","396","194207","0.0-396.0","","","","","653.5","img/land6.png","75","656.3999999994412","2","1","3","1","1,0,0,0.25,0.5,0.25,0.25,0.25,0.5","0,0,1,0.25,0.5,0.25,0.5,0.25,0.25","2","",""
"","html-keyboard-response","397","194510","0.0-397.0","","","","","null","<img src=""img/land6.png"" style=""width:200px; border:14px solid green;"">","null","","","","","","","","","",""
"","image-keyboard-response","398","195103","0.0-398.0","","","","","590","img/land5.png","76","592.1999999992549","3","1","2","1","1,0,0,0.25,0.5,0.25,0.25,0.25,0.5","0,0,1,0.25,0.5,0.25,0.5,0.25,0.25","2","",""
"","html-keyboard-response","399","195406","0.0-399.0","","","","","null","<img src=""img/land5.png"" style=""width:200px; border:14px solid green;"">","null","","","","","","","","","",""
"","image-keyboard-response","400","196151","0.0-400.0","","","","","742.0999999996275","img/land4.png","76","745","3","1","1","1","1,0,0,0.25,0.5,0.25,0.25,0.25,0.5","0,0,1,0.25,0.5,0.25,0.5,0.25,0.25","2","",""
"","html-keyboard-response","401","196455","0.0-401.0","","","","","null","<img src=""img/land4.png"" style=""width:200px; border:14px solid green;"">","null","","","","","","","","","",""
"","image-keyboard-response","402","197232","0.0-402.0","","","","","773.5","img/land6.png","75","775.7999999998137","2","0","3","1","1,0,0,0.25,0.5,0.25,0.25,0.25,0.5","0,0,1,0.25,0.5,0.25,0.5,0.25,0.25","2","",""
"","html-keyboard-response","403","197534","0.0-403.0","","","","","null","<img src=""img/land6.png"" style=""width:200px;border:14px solid red;"">","null","","","","","","","","","",""
"","image-keyboard-response","404","198167","0.0-404.0","","","","","629.8000000007451","img/land4.png","76","632.0999999996275","3","1","1","1","1,0,0,0.25,0.5,0.25,0.25,0.25,0.5","0,0,1,0.25,0.5,0.25,0.5,0.25,0.25","2","",""
"","html-keyboard-response","405","198471","0.0-405.0","","","","","null","<img src=""img/land4.png"" style=""width:200px; border:14px solid green;"">","null","","","","","","","","","",""
"","image-keyboard-response","406","199063","0.0-406.0","","","","","589.2999999998137","img/land5.png","75","591.7999999998137","2","0","2","1","1,0,0,0.25,0.5,0.25,0.25,0.25,0.5","0,0,1,0.25,0.5,0.25,0.5,0.25,0.25","2","",""
"","html-keyboard-response","407","199366","0.0-407.0","","","","","null","<img src=""img/land5.png"" style=""width:200px;border:14px solid red;"">","null","","","","","","","","","",""
"","image-keyboard-response","408","199880","0.0-408.0","","","","","509.3999999994412","img/land6.png","76","512.4000000003725","3","0","3","1","1,0,0,0.25,0.5,0.25,0.25,0.25,0.5","0,0,1,0.25,0.5,0.25,0.5,0.25,0.25","2","",""
"","html-keyboard-response","409","200184","0.0-409.0","","","","","null","<img src=""img/land6.png"" style=""width:200px;border:14px solid red;"">","null","","","","","","","","","",""
"","image-keyboard-response","410","200551","0.0-410.0","","","","","363.1000000005588","img/land6.png","76","366.79999999981374","3","1","3","1","1,0,0,0.25,0.5,0.25,0.25,0.25,0.5","0,0,1,0.25,0.5,0.25,0.5,0.25,0.25","2","",""
"","html-keyboard-response","411","200857","0.0-411.0","","","","","null","<img src=""img/land6.png"" style=""width:200px; border:14px solid green;"">","null","","","","","","","","","",""
"","image-keyboard-response","412","201311","0.0-412.0","","","","","451.20000000018626","img/land6.png","76","453.59999999962747","3","0","3","1","1,0,0,0.25,0.5,0.25,0.25,0.25,0.5","0,0,1,0.25,0.5,0.25,0.5,0.25,0.25","2","",""
"","html-keyboard-response","413","201614","0.0-413.0","","","","","null","<img src=""img/land6.png"" style=""width:200px;border:14px solid red;"">","null","","","","","","","","","",""
"","image-keyboard-response","414","201991","0.0-414.0","","","","","374.29999999981374","img/land6.png","76","376.70000000018626","3","0","3","1","1,0,0,0.25,0.5,0.25,0.25,0.25,0.5","0,0,1,0.25,0.5,0.25,0.5,0.25,0.25","2","",""
"","html-keyboard-response","415","202294","0.0-415.0","","","","","null","<img src=""img/land6.png"" style=""width:200px;border:14px solid red;"">","null","","","","","","","","","",""
"","image-keyboard-response","416","202709","0.0-416.0","","","","","412.5","img/land6.png","75","414.19999999925494","2","0","3","1","1,0,0,0.25,0.5,0.25,0.25,0.25,0.5","0,0,1,0.25,0.5,0.25,0.5,0.25,0.25","2","",""
"","html-keyboard-response","417","203011","0.0-417.0","","","","","null","<img src=""img/land6.png"" style=""width:200px;border:14px solid red;"">","null","","","","","","","","","",""
"","image-keyboard-response","418","203455","0.0-418.0","","","","","440.6000000005588","img/land6.png","75","442.8999999994412","2","0","3","1","1,0,0,0.25,0.5,0.25,0.25,0.25,0.5","0,0,1,0.25,0.5,0.25,0.5,0.25,0.25","2","",""
"","html-keyboard-response","419","203758","0.0-419.0","","","","","null","<img src=""img/land6.png"" style=""width:200px;border:14px solid red;"">","null","","","","","","","","","",""
"","image-keyboard-response","420","204439","0.0-420.0","","","","","678.2999999998137","img/land4.png","76","680.7999999998137","3","1","1","1","1,0,0,0.25,0.5,0.25,0.25,0.25,0.5","0,0,1,0.25,0.5,0.25,0.5,0.25,0.25","2","",""
"","html-keyboard-response","421","204742","0.0-421.0","","","","","null","<img src=""img/land4.png"" style=""width:200px; border:14px solid green;"">","null","","","","","","","","","",""
"","image-keyboard-response","422","205415","0.0-422.0","","","","","670","img/land6.png","74","672.2999999998137","1","0","3","1","1,0,0,0.25,0.5,0.25,0.25,0.25,0.5","0,0,1,0.25,0.5,0.25,0.5,0.25,0.25","2","",""
"","html-keyboard-response","423","205720","0.0-423.0","","","","","null","<img src=""img/land6.png"" style=""width:200px;border:14px solid red;"">","null","","","","","","","","","",""
"","image-keyboard-response","424","206479","0.0-424.0","","","","","755.8999999994412","img/land5.png","75","759.1000000005588","2","0","2","1","1,0,0,0.25,0.5,0.25,0.25,0.25,0.5","0,0,1,0.25,0.5,0.25,0.5,0.25,0.25","2","",""
"","html-keyboard-response","425","206783","0.0-425.0","","","","","null","<img src=""img/land5.png"" style=""width:200px;border:14px solid red;"">","null","","","","","","","","","",""
"","image-keyboard-response","426","207424","0.0-426.0","","","","","637.5","img/land4.png","76","640.2999999998137","3","1","1","1","1,0,0,0.25,0.5,0.25,0.25,0.25,0.5","0,0,1,0.25,0.5,0.25,0.5,0.25,0.25","2","",""
"","html-keyboard-response","427","207726","0.0-427.0","","","","","null","<img src=""img/land4.png"" style=""width:200px; border:14px solid green;"">","null","","","","","","","","","",""
"","image-keyboard-response","428","208191","0.0-428.0","","","","","461.90000000037253","img/land5.png","74","464.40000000037253","1","0","2","1","1,0,0,0.25,0.5,0.25,0.25,0.25,0.5","0,0,1,0.25,0.5,0.25,0.5,0.25,0.25","2","",""
"","html-keyboard-response","429","208495","0.0-429.0","","","","","null","<img src=""img/land5.png"" style=""width:200px;border:14px solid red;"">","null","","","","","","","","","",""
"","image-keyboard-response","430","209223","0.0-430.0","","","","","725.7000000001863","img/land6.png","75","728","2","0","3","1","1,0,0,0.25,0.5,0.25,0.25,0.25,0.5","0,0,1,0.25,0.5,0.25,0.5,0.25,0.25","2","",""
"","html-keyboard-response","431","209526","0.0-431.0","","","","","null","<img src=""img/land6.png"" style=""width:200px;border:14px solid red;"">","null","","","","","","","","","",""
"","image-keyboard-response","432","210303","0.0-432.0","","","","","773.4000000003725","img/land4.png","76","775.8000000007451","3","1","1","1","1,0,0,0.25,0.5,0.25,0.25,0.25,0.5","0,0,1,0.25,0.5,0.25,0.5,0.25,0.25","2","",""
"","html-keyboard-response","433","210608","0.0-433.0","","","","","null","<img src=""img/land4.png"" style=""width:200px; border:14px solid green;"">","null","","","","","","","","","",""
"","image-keyboard-response","434","210999","0.0-434.0","","","","","388.40000000037253","img/land4.png","76","390.6000000005588","3","1","1","1","1,0,0,0.25,0.5,0.25,0.25,0.25,0.5","0,0,1,0.25,0.5,0.25,0.5,0.25,0.25","2","",""
"","html-keyboard-response","435","211302","0.0-435.0","","","","","null","<img src=""img/land4.png"" style=""width:200px; border:14px solid green;"">","null","","","","","","","","","",""
"","image-keyboard-response","436","212143","0.0-436.0","","","","","838.4000000003725","img/land5.png","76","840.9000000003725","3","1","2","1","1,0,0,0.25,0.5,0.25,0.25,0.25,0.5","0,0,1,0.25,0.5,0.25,0.5,0.25,0.25","2","",""
"","html-keyboard-response","437","212451","0.0-437.0","","","","","null","<img src=""img/land5.png"" style=""width:200px; border:14px solid green;"">","null","","","","","","","","","",""
"","image-keyboard-response","438","213222","0.0-438.0","","","","","767.8999999994412","img/land6.png","76","769.7999999998137","3","0","3","1","1,0,0,0.25,0.5,0.25,0.25,0.25,0.5","0,0,1,0.25,0.5,0.25,0.5,0.25,0.25","2","",""
"","html-keyboard-response","439","213524","0.0-439.0","","","","","null","<img src=""img/land6.png"" style=""width:200px;border:14px solid red;"">","null","","","","","","","","","",""
"","image-keyboard-response","440","214031","0.0-440.0","","","","","504.19999999925494","img/land4.png","76","506.79999999981374","3","1","1","1","1,0,0,0.25,0.5,0.25,0.25,0.25,0.5","0,0,1,0.25,0.5,0.25,0.5,0.25,0.25","2","",""
"","html-keyboard-response","441","214335","0.0-441.0","","","","","null","<img src=""img/land4.png"" style=""width:200px; border:14px solid green;"">","null","","","","","","","","","",""
"","image-keyboard-response","442","214679","0.0-442.0","","","","","341.6000000005588","img/land4.png","76","344","3","1","1","1","1,0,0,0.25,0.5,0.25,0.25,0.25,0.5","0,0,1,0.25,0.5,0.25,0.5,0.25,0.25","2","",""
"","html-keyboard-response","443","214982","0.0-443.0","","","","","null","<img src=""img/land4.png"" style=""width:200px; border:14px solid green;"">","null","","","","","","","","","",""
"","image-keyboard-response","444","215600","0.0-444.0","","","","","614.6000000005588","img/land6.png","75","617.2000000001863","2","1","3","1","1,0,0,0.25,0.5,0.25,0.25,0.25,0.5","0,0,1,0.25,0.5,0.25,0.5,0.25,0.25","2","",""
"","html-keyboard-response","445","215903","0.0-445.0","","","","","null","<img src=""img/land6.png"" style=""width:200px; border:14px solid green;"">","null","","","","","","","","","",""
"","image-keyboard-response","446","216439","0.0-446.0","","","","","532.7999999998137","img/land4.png","76","535","3","1","1","1","1,0,0,0.25,0.5,0.25,0.25,0.25,0.5","0,0,1,0.25,0.5,0.25,0.5,0.25,0.25","2","",""
"","html-keyboard-response","447","216742","0.0-447.0","","","","","null","<img src=""img/land4.png"" style=""width:200px; border:14px solid green;"">","null","","","","","","","","","",""
"","image-keyboard-response","448","217381","0.0-448.0","","","","","637.1000000005588","img/land6.png","75","638.7000000001863","2","1","3","1","1,0,0,0.25,0.5,0.25,0.25,0.25,0.5","0,0,1,0.25,0.5,0.25,0.5,0.25,0.25","2","",""
"","html-keyboard-response","449","217683","0.0-449.0","","","","","null","<img src=""img/land6.png"" style=""width:200px; border:14px solid green;"">","null","","","","","","","","","",""
"","image-keyboard-response","450","218151","0.0-450.0","","","","","463.70000000018626","img/land6.png","75","466.59999999962747","2","0","3","1","1,0,0,0.25,0.5,0.25,0.25,0.25,0.5","0,0,1,0.25,0.5,0.25,0.5,0.25,0.25","2","",""
"","html-keyboard-response","451","218454","0.0-451.0","","","","","null","<img src=""img/land6.png"" style=""width:200px;border:14px solid red;"">","null","","","","","","","","","",""
"","image-keyboard-response","452","219264","0.0-452.0","","","","","806.7999999998137","img/land4.png","76","809.1000000005588","3","1","1","1","1,0,0,0.25,0.5,0.25,0.25,0.25,0.5","0,0,1,0.25,0.5,0.25,0.5,0.25,0.25","2","",""
"","html-keyboard-response","453","219566","0.0-453.0","","","","","null","<img src=""img/land4.png"" style=""width:200px; border:14px solid green;"">","null","","","","","","","","","",""
"","image-keyboard-response","454","220047","0.0-454.0","","","","","476.5","img/land4.png","76","480.19999999925494","3","1","1","1","1,0,0,0.25,0.5,0.25,0.25,0.25,0.5","0,0,1,0.25,0.5,0.25,0.5,0.25,0.25","2","",""
"","html-keyboard-response","455","220350","0.0-455.0","","","","","null","<img src=""img/land4.png"" style=""width:200px; border:14px solid green;"">","null","","","","","","","","","",""
"","image-keyboard-response","456","221303","0.0-456.0","","","","","951.1000000005588","img/land5.png","74","953","1","1","2","1","1,0,0,0.25,0.5,0.25,0.25,0.25,0.5","0,0,1,0.25,0.5,0.25,0.5,0.25,0.25","2","",""
"","html-keyboard-response","457","221606","0.0-457.0","","","","","null","<img src=""img/land5.png"" style=""width:200px; border:14px solid green;"">","null","","","","","","","","","",""
"","image-keyboard-response","458","222367","0.0-458.0","","","","","758.1000000005588","img/land6.png","75","760.5","2","0","3","1","1,0,0,0.25,0.5,0.25,0.25,0.25,0.5","0,0,1,0.25,0.5,0.25,0.5,0.25,0.25","2","",""
"","html-keyboard-response","459","222670","0.0-459.0","","","","","null","<img src=""img/land6.png"" style=""width:200px;border:14px solid red;"">","null","","","","","","","","","",""
"","image-keyboard-response","460","223336","0.0-460.0","","","","","662.7000000001863","img/land4.png","76","665.3999999994412","3","1","1","1","1,0,0,0.25,0.5,0.25,0.25,0.25,0.5","0,0,1,0.25,0.5,0.25,0.5,0.25,0.25","2","",""
"","html-keyboard-response","461","223640","0.0-461.0","","","","","null","<img src=""img/land4.png"" style=""width:200px; border:14px solid green;"">","null","","","","","","","","","",""
"","image-keyboard-response","462","224183","0.0-462.0","","","","","540.2000000001863","img/land4.png","76","542.6999999992549","3","1","1","1","1,0,0,0.25,0.5,0.25,0.25,0.25,0.5","0,0,1,0.25,0.5,0.25,0.5,0.25,0.25","2","",""
"","html-keyboard-response","463","224487","0.0-463.0","","","","","null","<img src=""img/land4.png"" style=""width:200px; border:14px solid green;"">","null","","","","","","","","","",""
"","image-keyboard-response","464","225279","0.0-464.0","","","","","789.4000000003725","img/land5.png","74","791.9000000003725","1","0","2","1","1,0,0,0.25,0.5,0.25,0.25,0.25,0.5","0,0,1,0.25,0.5,0.25,0.5,0.25,0.25","2","",""
"","html-keyboard-response","465","225582","0.0-465.0","","","","","null","<img src=""img/land5.png"" style=""width:200px;border:14px solid red;"">","null","","","","","","","","","",""
"","image-keyboard-response","466","226239","0.0-466.0","","","","","653.7999999998137","img/land6.png","75","656.1999999992549","2","0","3","1","1,0,0,0.25,0.5,0.25,0.25,0.25,0.5","0,0,1,0.25,0.5,0.25,0.5,0.25,0.25","2","",""
"","html-keyboard-response","467","226542","0.0-467.0","","","","","null","<img src=""img/land6.png"" style=""width:200px;border:14px solid red;"">","null","","","","","","","","","",""
"","image-keyboard-response","468","227102","0.0-468.0","","","","","557.2999999998137","img/land4.png","76","558.9000000003725","3","1","1","1","1,0,0,0.25,0.5,0.25,0.25,0.25,0.5","0,0,1,0.25,0.5,0.25,0.5,0.25,0.25","2","",""
"","html-keyboard-response","469","227411","0.0-469.0","","","","","null","<img src=""img/land4.png"" style=""width:200px; border:14px solid green;"">","null","","","","","","","","","",""
"","image-keyboard-response","470","228223","0.0-470.0","","","","","810","img/land6.png","75","811.7000000001863","2","1","3","1","1,0,0,0.25,0.5,0.25,0.25,0.25,0.5","0,0,1,0.25,0.5,0.25,0.5,0.25,0.25","2","",""
"","html-keyboard-response","471","228526","0.0-471.0","","","","","null","<img src=""img/land6.png"" style=""width:200px; border:14px solid green;"">","null","","","","","","","","","",""
"","image-keyboard-response","472","229439","0.0-472.0","","","","","910","img/land5.png","75","912.4000000003725","2","0","2","1","1,0,0,0.25,0.5,0.25,0.25,0.25,0.5","0,0,1,0.25,0.5,0.25,0.5,0.25,0.25","2","",""
"","html-keyboard-response","473","229743","0.0-473.0","","","","","null","<img src=""img/land5.png"" style=""width:200px;border:14px solid red;"">","null","","","","","","","","","",""
"","image-keyboard-response","474","230391","0.0-474.0","","","","","645.5","img/land4.png","76","647.7999999998137","3","1","1","1","1,0,0,0.25,0.5,0.25,0.25,0.25,0.5","0,0,1,0.25,0.5,0.25,0.5,0.25,0.25","2","",""
"","html-keyboard-response","475","230694","0.0-475.0","","","","","null","<img src=""img/land4.png"" style=""width:200px; border:14px solid green;"">","null","","","","","","","","","",""
"","image-keyboard-response","476","231399","0.0-476.0","","","","","702","img/land5.png","76","704","3","0","2","1","1,0,0,0.25,0.5,0.25,0.25,0.25,0.5","0,0,1,0.25,0.5,0.25,0.5,0.25,0.25","2","",""
"","html-keyboard-response","477","231704","0.0-477.0","","","","","null","<img src=""img/land5.png"" style=""width:200px;border:14px solid red;"">","null","","","","","","","","","",""
"","image-keyboard-response","478","232375","0.0-478.0","","","","","668.3999999994412","img/land6.png","75","670.7000000001863","2","1","3","1","1,0,0,0.25,0.5,0.25,0.25,0.25,0.5","0,0,1,0.25,0.5,0.25,0.5,0.25,0.25","2","",""
"","html-keyboard-response","479","232678","0.0-479.0","","","","","null","<img src=""img/land6.png"" style=""width:200px; border:14px solid green;"">","null","","","","","","","","","",""
"","image-keyboard-response","480","233336","0.0-480.0","","","","","654.7000000001863","img/land4.png","76","657.0999999996275","3","1","1","1","1,0,0,0.25,0.5,0.25,0.25,0.25,0.5","0,0,1,0.25,0.5,0.25,0.5,0.25,0.25","2","",""
"","html-keyboard-response","481","233639","0.0-481.0","","","","","null","<img src=""img/land4.png"" style=""width:200px; border:14px solid green;"">","null","","","","","","","","","",""
"","html-keyboard-response","482","237097","0.0-482.0","","","","","","","","","","","","","","","","",""
"","instructions","483","238224","0.0-483.0","","","","[{""page_index"":0,""viewing_time"":1125.699999999255}]","1125.7999999998137","","","","","","","","","","","",""
"","survey-text","484","240878","0.0-484.0-0.0","","","","","2649","","","","","","","","","","","{""Q0"":""35""}",""
"","survey-multi-choice","485","242652","0.0-484.0-1.0","","","","","1771.9000000003725","","","","","","","","","","","{""gender"":""M""}","[0]"
"","survey-text","486","258076","0.0-485.0","","","","","15420.799999999814","","","","","","","","","","","{""Q0"":""APL2VQM32UG4X""}",""
