"success","trial_type","trial_index","time_elapsed","internal_node_id","assignmentID","mturkID","hitID","view_history","rt","stimulus","key_press","reactionTime","a","r","s","cond","reward_cond","reward_cond_actual","reward_matrix_idx","responses","question_order"
"true","fullscreen","0","12189","0.0-0.0","3FPRZHYEPZTNOKHOKZAQCJD80WBV3A","APVZGZM1RA3AZ","31D0ZWOD0AL5TKHZZFW9PF504XD0AR","","","","","","","","","","","","","",""
"","instructions","1","199230","0.0-1.0","3FPRZHYEPZTNOKHOKZAQCJD80WBV3A","APVZGZM1RA3AZ","31D0ZWOD0AL5TKHZZFW9PF504XD0AR","[{""page_index"":0,""viewing_time"":20390.89999999106},{""page_index"":1,""viewing_time"":8551.300000011921},{""page_index"":2,""viewing_time"":11088.89999999106},{""page_index"":3,""viewing_time"":129799.60000000894},{""page_index"":4,""viewing_time"":2985.5999999940395},{""page_index"":5,""viewing_time"":8023.79999999702},{""page_index"":6,""viewing_time"":6198.79999999702}]","187039.5","","","","","","","","","","","",""
"","image-keyboard-response","2","201231","0.0-2.0","3FPRZHYEPZTNOKHOKZAQCJD80WBV3A","APVZGZM1RA3AZ","31D0ZWOD0AL5TKHZZFW9PF504XD0AR","","","img/land3.png","","2001.5999999940395","-1","0","2","1","0.8,0.2,0.2,0.2,0.8,0.2,0.2,0.2,0.8","0.8,0.2,0.2,0.2,0.8,0.2,0.2,0.2,0.8","1","",""
"","html-keyboard-response","3","201536","0.0-3.0","3FPRZHYEPZTNOKHOKZAQCJD80WBV3A","APVZGZM1RA3AZ","31D0ZWOD0AL5TKHZZFW9PF504XD0AR","","null","<img src=""img/land3.png"" style=""width:200px;border:14px solid red;"">","null","","","","","","","","","",""
"","image-keyboard-response","4","203179","0.0-4.0","3FPRZHYEPZTNOKHOKZAQCJD80WBV3A","APVZGZM1RA3AZ","31D0ZWOD0AL5TKHZZFW9PF504XD0AR","","1641.9000000059605","img/land3.png","74","1643","1","1","2","1","0.8,0.2,0.2,0.2,0.8,0.2,0.2,0.2,0.8","0.8,0.2,0.2,0.2,0.8,0.2,0.2,0.2,0.8","1","",""
"","html-keyboard-response","5","203481","0.0-5.0","3FPRZHYEPZTNOKHOKZAQCJD80WBV3A","APVZGZM1RA3AZ","31D0ZWOD0AL5TKHZZFW9PF504XD0AR","","null","<img src=""img/land3.png"" style=""width:200px; border:14px solid green;"">","null","","","","","","","","","",""
"","image-keyboard-response","6","205483","0.0-6.0","3FPRZHYEPZTNOKHOKZAQCJD80WBV3A","APVZGZM1RA3AZ","31D0ZWOD0AL5TKHZZFW9PF504XD0AR","","","img/land2.png","","2002","-1","0","1","1","0.8,0.2,0.2,0.2,0.8,0.2,0.2,0.2,0.8","0.8,0.2,0.2,0.2,0.8,0.2,0.2,0.2,0.8","1","",""
"","html-keyboard-response","7","205786","0.0-7.0","3FPRZHYEPZTNOKHOKZAQCJD80WBV3A","APVZGZM1RA3AZ","31D0ZWOD0AL5TKHZZFW9PF504XD0AR","","null","<img src=""img/land2.png"" style=""width:200px;border:14px solid red;"">","null","","","","","","","","","",""
"","image-keyboard-response","8","207378","0.0-8.0","3FPRZHYEPZTNOKHOKZAQCJD80WBV3A","APVZGZM1RA3AZ","31D0ZWOD0AL5TKHZZFW9PF504XD0AR","","1590.2000000029802","img/land3.png","75","1591.4000000059605","2","1","2","1","0.8,0.2,0.2,0.2,0.8,0.2,0.2,0.2,0.8","0.8,0.2,0.2,0.2,0.8,0.2,0.2,0.2,0.8","1","",""
"","html-keyboard-response","9","207679","0.0-9.0","3FPRZHYEPZTNOKHOKZAQCJD80WBV3A","APVZGZM1RA3AZ","31D0ZWOD0AL5TKHZZFW9PF504XD0AR","","null","<img src=""img/land3.png"" style=""width:200px; border:14px solid green;"">","null","","","","","","","","","",""
"","image-keyboard-response","10","209076","0.0-10.0","3FPRZHYEPZTNOKHOKZAQCJD80WBV3A","APVZGZM1RA3AZ","31D0ZWOD0AL5TKHZZFW9PF504XD0AR","","1395.7000000029802","img/land3.png","75","1396.7999999970198","2","0","2","1","0.8,0.2,0.2,0.2,0.8,0.2,0.2,0.2,0.8","0.8,0.2,0.2,0.2,0.8,0.2,0.2,0.2,0.8","1","",""
"","html-keyboard-response","11","209378","0.0-11.0","3FPRZHYEPZTNOKHOKZAQCJD80WBV3A","APVZGZM1RA3AZ","31D0ZWOD0AL5TKHZZFW9PF504XD0AR","","null","<img src=""img/land3.png"" style=""width:200px;border:14px solid red;"">","null","","","","","","","","","",""
"","image-keyboard-response","12","210408","0.0-12.0","3FPRZHYEPZTNOKHOKZAQCJD80WBV3A","APVZGZM1RA3AZ","31D0ZWOD0AL5TKHZZFW9PF504XD0AR","","1028.5999999940395","img/land2.png","74","1029.5999999940395","1","1","1","1","0.8,0.2,0.2,0.2,0.8,0.2,0.2,0.2,0.8","0.8,0.2,0.2,0.2,0.8,0.2,0.2,0.2,0.8","1","",""
"","html-keyboard-response","13","210711","0.0-13.0","3FPRZHYEPZTNOKHOKZAQCJD80WBV3A","APVZGZM1RA3AZ","31D0ZWOD0AL5TKHZZFW9PF504XD0AR","","null","<img src=""img/land2.png"" style=""width:200px; border:14px solid green;"">","null","","","","","","","","","",""
"","image-keyboard-response","14","211807","0.0-14.0","3FPRZHYEPZTNOKHOKZAQCJD80WBV3A","APVZGZM1RA3AZ","31D0ZWOD0AL5TKHZZFW9PF504XD0AR","","1094.7000000029802","img/land6.png","76","1095.7000000029802","3","1","3","1","0.8,0.2,0.2,0.2,0.8,0.2,0.2,0.2,0.8","0.8,0.2,0.2,0.2,0.8,0.2,0.2,0.2,0.8","1","",""
"","html-keyboard-response","15","212110","0.0-15.0","3FPRZHYEPZTNOKHOKZAQCJD80WBV3A","APVZGZM1RA3AZ","31D0ZWOD0AL5TKHZZFW9PF504XD0AR","","null","<img src=""img/land6.png"" style=""width:200px; border:14px solid green;"">","null","","","","","","","","","",""
"","image-keyboard-response","16","213015","0.0-16.0","3FPRZHYEPZTNOKHOKZAQCJD80WBV3A","APVZGZM1RA3AZ","31D0ZWOD0AL5TKHZZFW9PF504XD0AR","","904.7999999970198","img/land6.png","76","905.6000000089407","3","1","3","1","0.8,0.2,0.2,0.2,0.8,0.2,0.2,0.2,0.8","0.8,0.2,0.2,0.2,0.8,0.2,0.2,0.2,0.8","1","",""
"","html-keyboard-response","17","213317","0.0-17.0","3FPRZHYEPZTNOKHOKZAQCJD80WBV3A","APVZGZM1RA3AZ","31D0ZWOD0AL5TKHZZFW9PF504XD0AR","","null","<img src=""img/land6.png"" style=""width:200px; border:14px solid green;"">","null","","","","","","","","","",""
"","image-keyboard-response","18","214044","0.0-18.0","3FPRZHYEPZTNOKHOKZAQCJD80WBV3A","APVZGZM1RA3AZ","31D0ZWOD0AL5TKHZZFW9PF504XD0AR","","725.7999999970198","img/land6.png","76","726.8000000119209","3","0","3","1","0.8,0.2,0.2,0.2,0.8,0.2,0.2,0.2,0.8","0.8,0.2,0.2,0.2,0.8,0.2,0.2,0.2,0.8","1","",""
"","html-keyboard-response","19","214346","0.0-19.0","3FPRZHYEPZTNOKHOKZAQCJD80WBV3A","APVZGZM1RA3AZ","31D0ZWOD0AL5TKHZZFW9PF504XD0AR","","null","<img src=""img/land6.png"" style=""width:200px;border:14px solid red;"">","null","","","","","","","","","",""
"","image-keyboard-response","20","216191","0.0-20.0","3FPRZHYEPZTNOKHOKZAQCJD80WBV3A","APVZGZM1RA3AZ","31D0ZWOD0AL5TKHZZFW9PF504XD0AR","","1843.5999999940395","img/land6.png","76","1844.8999999910593","3","1","3","1","0.8,0.2,0.2,0.2,0.8,0.2,0.2,0.2,0.8","0.8,0.2,0.2,0.2,0.8,0.2,0.2,0.2,0.8","1","",""
"","html-keyboard-response","21","216493","0.0-21.0","3FPRZHYEPZTNOKHOKZAQCJD80WBV3A","APVZGZM1RA3AZ","31D0ZWOD0AL5TKHZZFW9PF504XD0AR","","null","<img src=""img/land6.png"" style=""width:200px; border:14px solid green;"">","null","","","","","","","","","",""
"","image-keyboard-response","22","217567","0.0-22.0","3FPRZHYEPZTNOKHOKZAQCJD80WBV3A","APVZGZM1RA3AZ","31D0ZWOD0AL5TKHZZFW9PF504XD0AR","","1072.800000011921","img/land3.png","74","1073.8999999910593","1","0","2","1","0.8,0.2,0.2,0.2,0.8,0.2,0.2,0.2,0.8","0.8,0.2,0.2,0.2,0.8,0.2,0.2,0.2,0.8","1","",""
"","html-keyboard-response","23","217870","0.0-23.0","3FPRZHYEPZTNOKHOKZAQCJD80WBV3A","APVZGZM1RA3AZ","31D0ZWOD0AL5TKHZZFW9PF504XD0AR","","null","<img src=""img/land3.png"" style=""width:200px;border:14px solid red;"">","null","","","","","","","","","",""
"","image-keyboard-response","24","218864","0.0-24.0","3FPRZHYEPZTNOKHOKZAQCJD80WBV3A","APVZGZM1RA3AZ","31D0ZWOD0AL5TKHZZFW9PF504XD0AR","","992.5999999940395","img/land6.png","75","993.7000000029802","2","0","3","1","0.8,0.2,0.2,0.2,0.8,0.2,0.2,0.2,0.8","0.8,0.2,0.2,0.2,0.8,0.2,0.2,0.2,0.8","1","",""
"","html-keyboard-response","25","219180","0.0-25.0","3FPRZHYEPZTNOKHOKZAQCJD80WBV3A","APVZGZM1RA3AZ","31D0ZWOD0AL5TKHZZFW9PF504XD0AR","","null","<img src=""img/land6.png"" style=""width:200px;border:14px solid red;"">","null","","","","","","","","","",""
"","image-keyboard-response","26","220703","0.0-26.0","3FPRZHYEPZTNOKHOKZAQCJD80WBV3A","APVZGZM1RA3AZ","31D0ZWOD0AL5TKHZZFW9PF504XD0AR","","1521.9000000059605","img/land2.png","75","1522.7999999970198","2","1","1","1","0.8,0.2,0.2,0.2,0.8,0.2,0.2,0.2,0.8","0.8,0.2,0.2,0.2,0.8,0.2,0.2,0.2,0.8","1","",""
"","html-keyboard-response","27","221005","0.0-27.0","3FPRZHYEPZTNOKHOKZAQCJD80WBV3A","APVZGZM1RA3AZ","31D0ZWOD0AL5TKHZZFW9PF504XD0AR","","null","<img src=""img/land2.png"" style=""width:200px; border:14px solid green;"">","null","","","","","","","","","",""
"","image-keyboard-response","28","222304","0.0-28.0","3FPRZHYEPZTNOKHOKZAQCJD80WBV3A","APVZGZM1RA3AZ","31D0ZWOD0AL5TKHZZFW9PF504XD0AR","","1297.4000000059605","img/land3.png","74","1298.5","1","0","2","1","0.8,0.2,0.2,0.2,0.8,0.2,0.2,0.2,0.8","0.8,0.2,0.2,0.2,0.8,0.2,0.2,0.2,0.8","1","",""
"","html-keyboard-response","29","222607","0.0-29.0","3FPRZHYEPZTNOKHOKZAQCJD80WBV3A","APVZGZM1RA3AZ","31D0ZWOD0AL5TKHZZFW9PF504XD0AR","","null","<img src=""img/land3.png"" style=""width:200px;border:14px solid red;"">","null","","","","","","","","","",""
"","image-keyboard-response","30","223591","0.0-30.0","3FPRZHYEPZTNOKHOKZAQCJD80WBV3A","APVZGZM1RA3AZ","31D0ZWOD0AL5TKHZZFW9PF504XD0AR","","983","img/land3.png","76","984","3","0","2","1","0.8,0.2,0.2,0.2,0.8,0.2,0.2,0.2,0.8","0.8,0.2,0.2,0.2,0.8,0.2,0.2,0.2,0.8","1","",""
"","html-keyboard-response","31","223892","0.0-31.0","3FPRZHYEPZTNOKHOKZAQCJD80WBV3A","APVZGZM1RA3AZ","31D0ZWOD0AL5TKHZZFW9PF504XD0AR","","null","<img src=""img/land3.png"" style=""width:200px;border:14px solid red;"">","null","","","","","","","","","",""
"","image-keyboard-response","32","224557","0.0-32.0","3FPRZHYEPZTNOKHOKZAQCJD80WBV3A","APVZGZM1RA3AZ","31D0ZWOD0AL5TKHZZFW9PF504XD0AR","","663.3999999910593","img/land3.png","75","664.5","2","1","2","1","0.8,0.2,0.2,0.2,0.8,0.2,0.2,0.2,0.8","0.8,0.2,0.2,0.2,0.8,0.2,0.2,0.2,0.8","1","",""
"","html-keyboard-response","33","224859","0.0-33.0","3FPRZHYEPZTNOKHOKZAQCJD80WBV3A","APVZGZM1RA3AZ","31D0ZWOD0AL5TKHZZFW9PF504XD0AR","","null","<img src=""img/land3.png"" style=""width:200px; border:14px solid green;"">","null","","","","","","","","","",""
"","image-keyboard-response","34","226191","0.0-34.0","3FPRZHYEPZTNOKHOKZAQCJD80WBV3A","APVZGZM1RA3AZ","31D0ZWOD0AL5TKHZZFW9PF504XD0AR","","1330.9000000059605","img/land2.png","75","1332.2000000029802","2","0","1","1","0.8,0.2,0.2,0.2,0.8,0.2,0.2,0.2,0.8","0.8,0.2,0.2,0.2,0.8,0.2,0.2,0.2,0.8","1","",""
"","html-keyboard-response","35","226494","0.0-35.0","3FPRZHYEPZTNOKHOKZAQCJD80WBV3A","APVZGZM1RA3AZ","31D0ZWOD0AL5TKHZZFW9PF504XD0AR","","null","<img src=""img/land2.png"" style=""width:200px;border:14px solid red;"">","null","","","","","","","","","",""
"","image-keyboard-response","36","227288","0.0-36.0","3FPRZHYEPZTNOKHOKZAQCJD80WBV3A","APVZGZM1RA3AZ","31D0ZWOD0AL5TKHZZFW9PF504XD0AR","","792.2000000029802","img/land6.png","76","793.2999999970198","3","1","3","1","0.8,0.2,0.2,0.2,0.8,0.2,0.2,0.2,0.8","0.8,0.2,0.2,0.2,0.8,0.2,0.2,0.2,0.8","1","",""
"","html-keyboard-response","37","227590","0.0-37.0","3FPRZHYEPZTNOKHOKZAQCJD80WBV3A","APVZGZM1RA3AZ","31D0ZWOD0AL5TKHZZFW9PF504XD0AR","","null","<img src=""img/land6.png"" style=""width:200px; border:14px solid green;"">","null","","","","","","","","","",""
"","image-keyboard-response","38","229593","0.0-38.0","3FPRZHYEPZTNOKHOKZAQCJD80WBV3A","APVZGZM1RA3AZ","31D0ZWOD0AL5TKHZZFW9PF504XD0AR","","","img/land3.png","","2002.6000000089407","-1","0","2","1","0.8,0.2,0.2,0.2,0.8,0.2,0.2,0.2,0.8","0.8,0.2,0.2,0.2,0.8,0.2,0.2,0.2,0.8","1","",""
"","html-keyboard-response","39","229896","0.0-39.0","3FPRZHYEPZTNOKHOKZAQCJD80WBV3A","APVZGZM1RA3AZ","31D0ZWOD0AL5TKHZZFW9PF504XD0AR","","null","<img src=""img/land3.png"" style=""width:200px;border:14px solid red;"">","null","","","","","","","","","",""
"","image-keyboard-response","40","230690","0.0-40.0","3FPRZHYEPZTNOKHOKZAQCJD80WBV3A","APVZGZM1RA3AZ","31D0ZWOD0AL5TKHZZFW9PF504XD0AR","","792.7999999970198","img/land3.png","76","793.5999999940395","3","0","2","1","0.8,0.2,0.2,0.2,0.8,0.2,0.2,0.2,0.8","0.8,0.2,0.2,0.2,0.8,0.2,0.2,0.2,0.8","1","",""
"","html-keyboard-response","41","230998","0.0-41.0","3FPRZHYEPZTNOKHOKZAQCJD80WBV3A","APVZGZM1RA3AZ","31D0ZWOD0AL5TKHZZFW9PF504XD0AR","","null","<img src=""img/land3.png"" style=""width:200px;border:14px solid red;"">","null","","","","","","","","","",""
"","image-keyboard-response","42","232072","0.0-42.0","3FPRZHYEPZTNOKHOKZAQCJD80WBV3A","APVZGZM1RA3AZ","31D0ZWOD0AL5TKHZZFW9PF504XD0AR","","1072.300000011921","img/land6.png","76","1073.5999999940395","3","0","3","1","0.8,0.2,0.2,0.2,0.8,0.2,0.2,0.2,0.8","0.8,0.2,0.2,0.2,0.8,0.2,0.2,0.2,0.8","1","",""
"","html-keyboard-response","43","232381","0.0-43.0","3FPRZHYEPZTNOKHOKZAQCJD80WBV3A","APVZGZM1RA3AZ","31D0ZWOD0AL5TKHZZFW9PF504XD0AR","","null","<img src=""img/land6.png"" style=""width:200px;border:14px solid red;"">","null","","","","","","","","","",""
"","image-keyboard-response","44","232952","0.0-44.0","3FPRZHYEPZTNOKHOKZAQCJD80WBV3A","APVZGZM1RA3AZ","31D0ZWOD0AL5TKHZZFW9PF504XD0AR","","570.1000000089407","img/land6.png","75","570.7999999970198","2","0","3","1","0.8,0.2,0.2,0.2,0.8,0.2,0.2,0.2,0.8","0.8,0.2,0.2,0.2,0.8,0.2,0.2,0.2,0.8","1","",""
"","html-keyboard-response","45","233253","0.0-45.0","3FPRZHYEPZTNOKHOKZAQCJD80WBV3A","APVZGZM1RA3AZ","31D0ZWOD0AL5TKHZZFW9PF504XD0AR","","null","<img src=""img/land6.png"" style=""width:200px;border:14px solid red;"">","null","","","","","","","","","",""
"","image-keyboard-response","46","233791","0.0-46.0","3FPRZHYEPZTNOKHOKZAQCJD80WBV3A","APVZGZM1RA3AZ","31D0ZWOD0AL5TKHZZFW9PF504XD0AR","","536.5999999940395","img/land6.png","74","537.7999999970198","1","1","3","1","0.8,0.2,0.2,0.2,0.8,0.2,0.2,0.2,0.8","0.8,0.2,0.2,0.2,0.8,0.2,0.2,0.2,0.8","1","",""
"","html-keyboard-response","47","234093","0.0-47.0","3FPRZHYEPZTNOKHOKZAQCJD80WBV3A","APVZGZM1RA3AZ","31D0ZWOD0AL5TKHZZFW9PF504XD0AR","","null","<img src=""img/land6.png"" style=""width:200px; border:14px solid green;"">","null","","","","","","","","","",""
"","image-keyboard-response","48","236096","0.0-48.0","3FPRZHYEPZTNOKHOKZAQCJD80WBV3A","APVZGZM1RA3AZ","31D0ZWOD0AL5TKHZZFW9PF504XD0AR","","","img/land2.png","","2002.5","-1","0","1","1","0.8,0.2,0.2,0.2,0.8,0.2,0.2,0.2,0.8","0.8,0.2,0.2,0.2,0.8,0.2,0.2,0.2,0.8","1","",""
"","html-keyboard-response","49","236397","0.0-49.0","3FPRZHYEPZTNOKHOKZAQCJD80WBV3A","APVZGZM1RA3AZ","31D0ZWOD0AL5TKHZZFW9PF504XD0AR","","null","<img src=""img/land2.png"" style=""width:200px;border:14px solid red;"">","null","","","","","","","","","",""
"","image-keyboard-response","50","237856","0.0-50.0","3FPRZHYEPZTNOKHOKZAQCJD80WBV3A","APVZGZM1RA3AZ","31D0ZWOD0AL5TKHZZFW9PF504XD0AR","","1456.6000000089407","img/land2.png","74","1457.7999999970198","1","1","1","1","0.8,0.2,0.2,0.2,0.8,0.2,0.2,0.2,0.8","0.8,0.2,0.2,0.2,0.8,0.2,0.2,0.2,0.8","1","",""
"","html-keyboard-response","51","238157","0.0-51.0","3FPRZHYEPZTNOKHOKZAQCJD80WBV3A","APVZGZM1RA3AZ","31D0ZWOD0AL5TKHZZFW9PF504XD0AR","","null","<img src=""img/land2.png"" style=""width:200px; border:14px solid green;"">","null","","","","","","","","","",""
"","image-keyboard-response","52","239232","0.0-52.0","3FPRZHYEPZTNOKHOKZAQCJD80WBV3A","APVZGZM1RA3AZ","31D0ZWOD0AL5TKHZZFW9PF504XD0AR","","1072.8999999910593","img/land3.png","74","1074.0999999940395","1","0","2","1","0.8,0.2,0.2,0.2,0.8,0.2,0.2,0.2,0.8","0.8,0.2,0.2,0.2,0.8,0.2,0.2,0.2,0.8","1","",""
"","html-keyboard-response","53","239535","0.0-53.0","3FPRZHYEPZTNOKHOKZAQCJD80WBV3A","APVZGZM1RA3AZ","31D0ZWOD0AL5TKHZZFW9PF504XD0AR","","null","<img src=""img/land3.png"" style=""width:200px;border:14px solid red;"">","null","","","","","","","","","",""
"","image-keyboard-response","54","240432","0.0-54.0","3FPRZHYEPZTNOKHOKZAQCJD80WBV3A","APVZGZM1RA3AZ","31D0ZWOD0AL5TKHZZFW9PF504XD0AR","","895.2000000029802","img/land6.png","76","896.5999999940395","3","1","3","1","0.8,0.2,0.2,0.2,0.8,0.2,0.2,0.2,0.8","0.8,0.2,0.2,0.2,0.8,0.2,0.2,0.2,0.8","1","",""
"","html-keyboard-response","55","240734","0.0-55.0","3FPRZHYEPZTNOKHOKZAQCJD80WBV3A","APVZGZM1RA3AZ","31D0ZWOD0AL5TKHZZFW9PF504XD0AR","","null","<img src=""img/land6.png"" style=""width:200px; border:14px solid green;"">","null","","","","","","","","","",""
"","image-keyboard-response","56","241840","0.0-56.0","3FPRZHYEPZTNOKHOKZAQCJD80WBV3A","APVZGZM1RA3AZ","31D0ZWOD0AL5TKHZZFW9PF504XD0AR","","1104.4000000059605","img/land2.png","75","1105.6000000089407","2","0","1","1","0.8,0.2,0.2,0.2,0.8,0.2,0.2,0.2,0.8","0.8,0.2,0.2,0.2,0.8,0.2,0.2,0.2,0.8","1","",""
"","html-keyboard-response","57","242142","0.0-57.0","3FPRZHYEPZTNOKHOKZAQCJD80WBV3A","APVZGZM1RA3AZ","31D0ZWOD0AL5TKHZZFW9PF504XD0AR","","null","<img src=""img/land2.png"" style=""width:200px;border:14px solid red;"">","null","","","","","","","","","",""
"","image-keyboard-response","58","243360","0.0-58.0","3FPRZHYEPZTNOKHOKZAQCJD80WBV3A","APVZGZM1RA3AZ","31D0ZWOD0AL5TKHZZFW9PF504XD0AR","","1216.2000000029802","img/land6.png","76","1217.3999999910593","3","1","3","1","0.8,0.2,0.2,0.2,0.8,0.2,0.2,0.2,0.8","0.8,0.2,0.2,0.2,0.8,0.2,0.2,0.2,0.8","1","",""
"","html-keyboard-response","59","243661","0.0-59.0","3FPRZHYEPZTNOKHOKZAQCJD80WBV3A","APVZGZM1RA3AZ","31D0ZWOD0AL5TKHZZFW9PF504XD0AR","","null","<img src=""img/land6.png"" style=""width:200px; border:14px solid green;"">","null","","","","","","","","","",""
"","image-keyboard-response","60","244424","0.0-60.0","3FPRZHYEPZTNOKHOKZAQCJD80WBV3A","APVZGZM1RA3AZ","31D0ZWOD0AL5TKHZZFW9PF504XD0AR","","760.8000000119209","img/land6.png","76","762","3","1","3","1","0.8,0.2,0.2,0.2,0.8,0.2,0.2,0.2,0.8","0.8,0.2,0.2,0.2,0.8,0.2,0.2,0.2,0.8","1","",""
"","html-keyboard-response","61","244726","0.0-61.0","3FPRZHYEPZTNOKHOKZAQCJD80WBV3A","APVZGZM1RA3AZ","31D0ZWOD0AL5TKHZZFW9PF504XD0AR","","null","<img src=""img/land6.png"" style=""width:200px; border:14px solid green;"">","null","","","","","","","","","",""
"","image-keyboard-response","62","245376","0.0-62.0","3FPRZHYEPZTNOKHOKZAQCJD80WBV3A","APVZGZM1RA3AZ","31D0ZWOD0AL5TKHZZFW9PF504XD0AR","","649.2000000029802","img/land6.png","76","650.2000000029802","3","1","3","1","0.8,0.2,0.2,0.2,0.8,0.2,0.2,0.2,0.8","0.8,0.2,0.2,0.2,0.8,0.2,0.2,0.2,0.8","1","",""
"","html-keyboard-response","63","245678","0.0-63.0","3FPRZHYEPZTNOKHOKZAQCJD80WBV3A","APVZGZM1RA3AZ","31D0ZWOD0AL5TKHZZFW9PF504XD0AR","","null","<img src=""img/land6.png"" style=""width:200px; border:14px solid green;"">","null","","","","","","","","","",""
"","image-keyboard-response","64","246902","0.0-64.0","3FPRZHYEPZTNOKHOKZAQCJD80WBV3A","APVZGZM1RA3AZ","31D0ZWOD0AL5TKHZZFW9PF504XD0AR","","1222.5","img/land2.png","74","1223.7999999970198","1","1","1","1","0.8,0.2,0.2,0.2,0.8,0.2,0.2,0.2,0.8","0.8,0.2,0.2,0.2,0.8,0.2,0.2,0.2,0.8","1","",""
"","html-keyboard-response","65","247204","0.0-65.0","3FPRZHYEPZTNOKHOKZAQCJD80WBV3A","APVZGZM1RA3AZ","31D0ZWOD0AL5TKHZZFW9PF504XD0AR","","null","<img src=""img/land2.png"" style=""width:200px; border:14px solid green;"">","null","","","","","","","","","",""
"","image-keyboard-response","66","248049","0.0-66.0","3FPRZHYEPZTNOKHOKZAQCJD80WBV3A","APVZGZM1RA3AZ","31D0ZWOD0AL5TKHZZFW9PF504XD0AR","","843.9000000059605","img/land2.png","74","845.1999999880791","1","1","1","1","0.8,0.2,0.2,0.2,0.8,0.2,0.2,0.2,0.8","0.8,0.2,0.2,0.2,0.8,0.2,0.2,0.2,0.8","1","",""
"","html-keyboard-response","67","248352","0.0-67.0","3FPRZHYEPZTNOKHOKZAQCJD80WBV3A","APVZGZM1RA3AZ","31D0ZWOD0AL5TKHZZFW9PF504XD0AR","","null","<img src=""img/land2.png"" style=""width:200px; border:14px solid green;"">","null","","","","","","","","","",""
"","image-keyboard-response","68","249383","0.0-68.0","3FPRZHYEPZTNOKHOKZAQCJD80WBV3A","APVZGZM1RA3AZ","31D0ZWOD0AL5TKHZZFW9PF504XD0AR","","1029.7999999970198","img/land6.png","76","1030.7999999970198","3","1","3","1","0.8,0.2,0.2,0.2,0.8,0.2,0.2,0.2,0.8","0.8,0.2,0.2,0.2,0.8,0.2,0.2,0.2,0.8","1","",""
"","html-keyboard-response","69","249684","0.0-69.0","3FPRZHYEPZTNOKHOKZAQCJD80WBV3A","APVZGZM1RA3AZ","31D0ZWOD0AL5TKHZZFW9PF504XD0AR","","null","<img src=""img/land6.png"" style=""width:200px; border:14px solid green;"">","null","","","","","","","","","",""
"","image-keyboard-response","70","250393","0.0-70.0","3FPRZHYEPZTNOKHOKZAQCJD80WBV3A","APVZGZM1RA3AZ","31D0ZWOD0AL5TKHZZFW9PF504XD0AR","","707.1000000089407","img/land6.png","76","708.2000000029802","3","1","3","1","0.8,0.2,0.2,0.2,0.8,0.2,0.2,0.2,0.8","0.8,0.2,0.2,0.2,0.8,0.2,0.2,0.2,0.8","1","",""
"","html-keyboard-response","71","250695","0.0-71.0","3FPRZHYEPZTNOKHOKZAQCJD80WBV3A","APVZGZM1RA3AZ","31D0ZWOD0AL5TKHZZFW9PF504XD0AR","","null","<img src=""img/land6.png"" style=""width:200px; border:14px solid green;"">","null","","","","","","","","","",""
"","image-keyboard-response","72","251671","0.0-72.0","3FPRZHYEPZTNOKHOKZAQCJD80WBV3A","APVZGZM1RA3AZ","31D0ZWOD0AL5TKHZZFW9PF504XD0AR","","975.2000000029802","img/land2.png","74","976.2999999970198","1","1","1","1","0.8,0.2,0.2,0.2,0.8,0.2,0.2,0.2,0.8","0.8,0.2,0.2,0.2,0.8,0.2,0.2,0.2,0.8","1","",""
"","html-keyboard-response","73","251973","0.0-73.0","3FPRZHYEPZTNOKHOKZAQCJD80WBV3A","APVZGZM1RA3AZ","31D0ZWOD0AL5TKHZZFW9PF504XD0AR","","null","<img src=""img/land2.png"" style=""width:200px; border:14px solid green;"">","null","","","","","","","","","",""
"","image-keyboard-response","74","252793","0.0-74.0","3FPRZHYEPZTNOKHOKZAQCJD80WBV3A","APVZGZM1RA3AZ","31D0ZWOD0AL5TKHZZFW9PF504XD0AR","","819.4000000059605","img/land3.png","75","820.7000000029802","2","1","2","1","0.8,0.2,0.2,0.2,0.8,0.2,0.2,0.2,0.8","0.8,0.2,0.2,0.2,0.8,0.2,0.2,0.2,0.8","1","",""
"","html-keyboard-response","75","253096","0.0-75.0","3FPRZHYEPZTNOKHOKZAQCJD80WBV3A","APVZGZM1RA3AZ","31D0ZWOD0AL5TKHZZFW9PF504XD0AR","","null","<img src=""img/land3.png"" style=""width:200px; border:14px solid green;"">","null","","","","","","","","","",""
"","image-keyboard-response","76","254016","0.0-76.0","3FPRZHYEPZTNOKHOKZAQCJD80WBV3A","APVZGZM1RA3AZ","31D0ZWOD0AL5TKHZZFW9PF504XD0AR","","918.2999999970198","img/land6.png","76","919.5","3","1","3","1","0.8,0.2,0.2,0.2,0.8,0.2,0.2,0.2,0.8","0.8,0.2,0.2,0.2,0.8,0.2,0.2,0.2,0.8","1","",""
"","html-keyboard-response","77","254318","0.0-77.0","3FPRZHYEPZTNOKHOKZAQCJD80WBV3A","APVZGZM1RA3AZ","31D0ZWOD0AL5TKHZZFW9PF504XD0AR","","null","<img src=""img/land6.png"" style=""width:200px; border:14px solid green;"">","null","","","","","","","","","",""
"","image-keyboard-response","78","255028","0.0-78.0","3FPRZHYEPZTNOKHOKZAQCJD80WBV3A","APVZGZM1RA3AZ","31D0ZWOD0AL5TKHZZFW9PF504XD0AR","","708.5999999940395","img/land6.png","76","710.2999999970198","3","1","3","1","0.8,0.2,0.2,0.2,0.8,0.2,0.2,0.2,0.8","0.8,0.2,0.2,0.2,0.8,0.2,0.2,0.2,0.8","1","",""
"","html-keyboard-response","79","255330","0.0-79.0","3FPRZHYEPZTNOKHOKZAQCJD80WBV3A","APVZGZM1RA3AZ","31D0ZWOD0AL5TKHZZFW9PF504XD0AR","","null","<img src=""img/land6.png"" style=""width:200px; border:14px solid green;"">","null","","","","","","","","","",""
"","image-keyboard-response","80","256359","0.0-80.0","3FPRZHYEPZTNOKHOKZAQCJD80WBV3A","APVZGZM1RA3AZ","31D0ZWOD0AL5TKHZZFW9PF504XD0AR","","1027","img/land2.png","74","1028.2000000029802","1","0","1","1","0.8,0.2,0.2,0.2,0.8,0.2,0.2,0.2,0.8","0.8,0.2,0.2,0.2,0.8,0.2,0.2,0.2,0.8","1","",""
"","html-keyboard-response","81","256661","0.0-81.0","3FPRZHYEPZTNOKHOKZAQCJD80WBV3A","APVZGZM1RA3AZ","31D0ZWOD0AL5TKHZZFW9PF504XD0AR","","null","<img src=""img/land2.png"" style=""width:200px;border:14px solid red;"">","null","","","","","","","","","",""
"","image-keyboard-response","82","257675","0.0-82.0","3FPRZHYEPZTNOKHOKZAQCJD80WBV3A","APVZGZM1RA3AZ","31D0ZWOD0AL5TKHZZFW9PF504XD0AR","","1013.0999999940395","img/land6.png","76","1014","3","1","3","1","0.8,0.2,0.2,0.2,0.8,0.2,0.2,0.2,0.8","0.8,0.2,0.2,0.2,0.8,0.2,0.2,0.2,0.8","1","",""
"","html-keyboard-response","83","257977","0.0-83.0","3FPRZHYEPZTNOKHOKZAQCJD80WBV3A","APVZGZM1RA3AZ","31D0ZWOD0AL5TKHZZFW9PF504XD0AR","","null","<img src=""img/land6.png"" style=""width:200px; border:14px solid green;"">","null","","","","","","","","","",""
"","image-keyboard-response","84","258966","0.0-84.0","3FPRZHYEPZTNOKHOKZAQCJD80WBV3A","APVZGZM1RA3AZ","31D0ZWOD0AL5TKHZZFW9PF504XD0AR","","989.2000000029802","img/land3.png","74","989.5999999940395","1","1","2","1","0.8,0.2,0.2,0.2,0.8,0.2,0.2,0.2,0.8","0.8,0.2,0.2,0.2,0.8,0.2,0.2,0.2,0.8","1","",""
"","html-keyboard-response","85","259267","0.0-85.0","3FPRZHYEPZTNOKHOKZAQCJD80WBV3A","APVZGZM1RA3AZ","31D0ZWOD0AL5TKHZZFW9PF504XD0AR","","null","<img src=""img/land3.png"" style=""width:200px; border:14px solid green;"">","null","","","","","","","","","",""
"","image-keyboard-response","86","259815","0.0-86.0","3FPRZHYEPZTNOKHOKZAQCJD80WBV3A","APVZGZM1RA3AZ","31D0ZWOD0AL5TKHZZFW9PF504XD0AR","","546.7999999970198","img/land3.png","74","547.5","1","0","2","1","0.8,0.2,0.2,0.2,0.8,0.2,0.2,0.2,0.8","0.8,0.2,0.2,0.2,0.8,0.2,0.2,0.2,0.8","1","",""
"","html-keyboard-response","87","260117","0.0-87.0","3FPRZHYEPZTNOKHOKZAQCJD80WBV3A","APVZGZM1RA3AZ","31D0ZWOD0AL5TKHZZFW9PF504XD0AR","","null","<img src=""img/land3.png"" style=""width:200px;border:14px solid red;"">","null","","","","","","","","","",""
"","image-keyboard-response","88","261302","0.0-88.0","3FPRZHYEPZTNOKHOKZAQCJD80WBV3A","APVZGZM1RA3AZ","31D0ZWOD0AL5TKHZZFW9PF504XD0AR","","1184.0999999940395","img/land2.png","75","1184.7000000029802","2","0","1","1","0.8,0.2,0.2,0.2,0.8,0.2,0.2,0.2,0.8","0.8,0.2,0.2,0.2,0.8,0.2,0.2,0.2,0.8","1","",""
"","html-keyboard-response","89","261604","0.0-89.0","3FPRZHYEPZTNOKHOKZAQCJD80WBV3A","APVZGZM1RA3AZ","31D0ZWOD0AL5TKHZZFW9PF504XD0AR","","null","<img src=""img/land2.png"" style=""width:200px;border:14px solid red;"">","null","","","","","","","","","",""
"","image-keyboard-response","90","262951","0.0-90.0","3FPRZHYEPZTNOKHOKZAQCJD80WBV3A","APVZGZM1RA3AZ","31D0ZWOD0AL5TKHZZFW9PF504XD0AR","","1346.4000000059605","img/land2.png","76","1347.2999999970198","3","0","1","1","0.8,0.2,0.2,0.2,0.8,0.2,0.2,0.2,0.8","0.8,0.2,0.2,0.2,0.8,0.2,0.2,0.2,0.8","1","",""
"","html-keyboard-response","91","263254","0.0-91.0","3FPRZHYEPZTNOKHOKZAQCJD80WBV3A","APVZGZM1RA3AZ","31D0ZWOD0AL5TKHZZFW9PF504XD0AR","","null","<img src=""img/land2.png"" style=""width:200px;border:14px solid red;"">","null","","","","","","","","","",""
"","image-keyboard-response","92","264175","0.0-92.0","3FPRZHYEPZTNOKHOKZAQCJD80WBV3A","APVZGZM1RA3AZ","31D0ZWOD0AL5TKHZZFW9PF504XD0AR","","919.6999999880791","img/land6.png","76","920.8000000119209","3","1","3","1","0.8,0.2,0.2,0.2,0.8,0.2,0.2,0.2,0.8","0.8,0.2,0.2,0.2,0.8,0.2,0.2,0.2,0.8","1","",""
"","html-keyboard-response","93","264478","0.0-93.0","3FPRZHYEPZTNOKHOKZAQCJD80WBV3A","APVZGZM1RA3AZ","31D0ZWOD0AL5TKHZZFW9PF504XD0AR","","null","<img src=""img/land6.png"" style=""width:200px; border:14px solid green;"">","null","","","","","","","","","",""
"","image-keyboard-response","94","266103","0.0-94.0","3FPRZHYEPZTNOKHOKZAQCJD80WBV3A","APVZGZM1RA3AZ","31D0ZWOD0AL5TKHZZFW9PF504XD0AR","","1624.2999999970198","img/land2.png","75","1625","2","0","1","1","0.8,0.2,0.2,0.2,0.8,0.2,0.2,0.2,0.8","0.8,0.2,0.2,0.2,0.8,0.2,0.2,0.2,0.8","1","",""
"","html-keyboard-response","95","266412","0.0-95.0","3FPRZHYEPZTNOKHOKZAQCJD80WBV3A","APVZGZM1RA3AZ","31D0ZWOD0AL5TKHZZFW9PF504XD0AR","","null","<img src=""img/land2.png"" style=""width:200px;border:14px solid red;"">","null","","","","","","","","","",""
"","image-keyboard-response","96","267584","0.0-96.0","3FPRZHYEPZTNOKHOKZAQCJD80WBV3A","APVZGZM1RA3AZ","31D0ZWOD0AL5TKHZZFW9PF504XD0AR","","1170.5","img/land3.png","75","1171.2999999970198","2","1","2","1","0.8,0.2,0.2,0.2,0.8,0.2,0.2,0.2,0.8","0.8,0.2,0.2,0.2,0.8,0.2,0.2,0.2,0.8","1","",""
"","html-keyboard-response","97","267887","0.0-97.0","3FPRZHYEPZTNOKHOKZAQCJD80WBV3A","APVZGZM1RA3AZ","31D0ZWOD0AL5TKHZZFW9PF504XD0AR","","null","<img src=""img/land3.png"" style=""width:200px; border:14px solid green;"">","null","","","","","","","","","",""
"","image-keyboard-response","98","268936","0.0-98.0","3FPRZHYEPZTNOKHOKZAQCJD80WBV3A","APVZGZM1RA3AZ","31D0ZWOD0AL5TKHZZFW9PF504XD0AR","","1048.5999999940395","img/land6.png","76","1049.5","3","0","3","1","0.8,0.2,0.2,0.2,0.8,0.2,0.2,0.2,0.8","0.8,0.2,0.2,0.2,0.8,0.2,0.2,0.2,0.8","1","",""
"","html-keyboard-response","99","269238","0.0-99.0","3FPRZHYEPZTNOKHOKZAQCJD80WBV3A","APVZGZM1RA3AZ","31D0ZWOD0AL5TKHZZFW9PF504XD0AR","","null","<img src=""img/land6.png"" style=""width:200px;border:14px solid red;"">","null","","","","","","","","","",""
"","image-keyboard-response","100","270548","0.0-100.0","3FPRZHYEPZTNOKHOKZAQCJD80WBV3A","APVZGZM1RA3AZ","31D0ZWOD0AL5TKHZZFW9PF504XD0AR","","1309.699999988079","img/land2.png","74","1310.2000000029802","1","1","1","1","0.8,0.2,0.2,0.2,0.8,0.2,0.2,0.2,0.8","0.8,0.2,0.2,0.2,0.8,0.2,0.2,0.2,0.8","1","",""
"","html-keyboard-response","101","270849","0.0-101.0","3FPRZHYEPZTNOKHOKZAQCJD80WBV3A","APVZGZM1RA3AZ","31D0ZWOD0AL5TKHZZFW9PF504XD0AR","","null","<img src=""img/land2.png"" style=""width:200px; border:14px solid green;"">","null","","","","","","","","","",""
"","image-keyboard-response","102","272334","0.0-102.0","3FPRZHYEPZTNOKHOKZAQCJD80WBV3A","APVZGZM1RA3AZ","31D0ZWOD0AL5TKHZZFW9PF504XD0AR","","1483.5999999940395","img/land6.png","76","1484.7000000029802","3","1","3","1","0.8,0.2,0.2,0.2,0.8,0.2,0.2,0.2,0.8","0.8,0.2,0.2,0.2,0.8,0.2,0.2,0.2,0.8","1","",""
"","html-keyboard-response","103","272640","0.0-103.0","3FPRZHYEPZTNOKHOKZAQCJD80WBV3A","APVZGZM1RA3AZ","31D0ZWOD0AL5TKHZZFW9PF504XD0AR","","null","<img src=""img/land6.png"" style=""width:200px; border:14px solid green;"">","null","","","","","","","","","",""
"","image-keyboard-response","104","273647","0.0-104.0","3FPRZHYEPZTNOKHOKZAQCJD80WBV3A","APVZGZM1RA3AZ","31D0ZWOD0AL5TKHZZFW9PF504XD0AR","","1005.7000000029802","img/land2.png","74","1006.7999999970198","1","1","1","1","0.8,0.2,0.2,0.2,0.8,0.2,0.2,0.2,0.8","0.8,0.2,0.2,0.2,0.8,0.2,0.2,0.2,0.8","1","",""
"","html-keyboard-response","105","273949","0.0-105.0","3FPRZHYEPZTNOKHOKZAQCJD80WBV3A","APVZGZM1RA3AZ","31D0ZWOD0AL5TKHZZFW9PF504XD0AR","","null","<img src=""img/land2.png"" style=""width:200px; border:14px solid green;"">","null","","","","","","","","","",""
"","image-keyboard-response","106","274683","0.0-106.0","3FPRZHYEPZTNOKHOKZAQCJD80WBV3A","APVZGZM1RA3AZ","31D0ZWOD0AL5TKHZZFW9PF504XD0AR","","732","img/land3.png","75","733.2999999970198","2","1","2","1","0.8,0.2,0.2,0.2,0.8,0.2,0.2,0.2,0.8","0.8,0.2,0.2,0.2,0.8,0.2,0.2,0.2,0.8","1","",""
"","html-keyboard-response","107","274985","0.0-107.0","3FPRZHYEPZTNOKHOKZAQCJD80WBV3A","APVZGZM1RA3AZ","31D0ZWOD0AL5TKHZZFW9PF504XD0AR","","null","<img src=""img/land3.png"" style=""width:200px; border:14px solid green;"">","null","","","","","","","","","",""
"","image-keyboard-response","108","275656","0.0-108.0","3FPRZHYEPZTNOKHOKZAQCJD80WBV3A","APVZGZM1RA3AZ","31D0ZWOD0AL5TKHZZFW9PF504XD0AR","","668.7999999970198","img/land3.png","75","669.9000000059605","2","0","2","1","0.8,0.2,0.2,0.2,0.8,0.2,0.2,0.2,0.8","0.8,0.2,0.2,0.2,0.8,0.2,0.2,0.2,0.8","1","",""
"","html-keyboard-response","109","275958","0.0-109.0","3FPRZHYEPZTNOKHOKZAQCJD80WBV3A","APVZGZM1RA3AZ","31D0ZWOD0AL5TKHZZFW9PF504XD0AR","","null","<img src=""img/land3.png"" style=""width:200px;border:14px solid red;"">","null","","","","","","","","","",""
"","image-keyboard-response","110","276751","0.0-110.0","3FPRZHYEPZTNOKHOKZAQCJD80WBV3A","APVZGZM1RA3AZ","31D0ZWOD0AL5TKHZZFW9PF504XD0AR","","791.2999999970198","img/land6.png","76","792.3000000119209","3","1","3","1","0.8,0.2,0.2,0.2,0.8,0.2,0.2,0.2,0.8","0.8,0.2,0.2,0.2,0.8,0.2,0.2,0.2,0.8","1","",""
"","html-keyboard-response","111","277053","0.0-111.0","3FPRZHYEPZTNOKHOKZAQCJD80WBV3A","APVZGZM1RA3AZ","31D0ZWOD0AL5TKHZZFW9PF504XD0AR","","null","<img src=""img/land6.png"" style=""width:200px; border:14px solid green;"">","null","","","","","","","","","",""
"","image-keyboard-response","112","277631","0.0-112.0","3FPRZHYEPZTNOKHOKZAQCJD80WBV3A","APVZGZM1RA3AZ","31D0ZWOD0AL5TKHZZFW9PF504XD0AR","","577.4000000059605","img/land6.png","76","578","3","1","3","1","0.8,0.2,0.2,0.2,0.8,0.2,0.2,0.2,0.8","0.8,0.2,0.2,0.2,0.8,0.2,0.2,0.2,0.8","1","",""
"","html-keyboard-response","113","277934","0.0-113.0","3FPRZHYEPZTNOKHOKZAQCJD80WBV3A","APVZGZM1RA3AZ","31D0ZWOD0AL5TKHZZFW9PF504XD0AR","","null","<img src=""img/land6.png"" style=""width:200px; border:14px solid green;"">","null","","","","","","","","","",""
"","image-keyboard-response","114","279267","0.0-114.0","3FPRZHYEPZTNOKHOKZAQCJD80WBV3A","APVZGZM1RA3AZ","31D0ZWOD0AL5TKHZZFW9PF504XD0AR","","1332.0999999940395","img/land3.png","75","1333.1000000089407","2","1","2","1","0.8,0.2,0.2,0.2,0.8,0.2,0.2,0.2,0.8","0.8,0.2,0.2,0.2,0.8,0.2,0.2,0.2,0.8","1","",""
"","html-keyboard-response","115","279569","0.0-115.0","3FPRZHYEPZTNOKHOKZAQCJD80WBV3A","APVZGZM1RA3AZ","31D0ZWOD0AL5TKHZZFW9PF504XD0AR","","null","<img src=""img/land3.png"" style=""width:200px; border:14px solid green;"">","null","","","","","","","","","",""
"","image-keyboard-response","116","280648","0.0-116.0","3FPRZHYEPZTNOKHOKZAQCJD80WBV3A","APVZGZM1RA3AZ","31D0ZWOD0AL5TKHZZFW9PF504XD0AR","","1077.9000000059605","img/land2.png","74","1078.800000011921","1","1","1","1","0.8,0.2,0.2,0.2,0.8,0.2,0.2,0.2,0.8","0.8,0.2,0.2,0.2,0.8,0.2,0.2,0.2,0.8","1","",""
"","html-keyboard-response","117","280951","0.0-117.0","3FPRZHYEPZTNOKHOKZAQCJD80WBV3A","APVZGZM1RA3AZ","31D0ZWOD0AL5TKHZZFW9PF504XD0AR","","null","<img src=""img/land2.png"" style=""width:200px; border:14px solid green;"">","null","","","","","","","","","",""
"","image-keyboard-response","118","281671","0.0-118.0","3FPRZHYEPZTNOKHOKZAQCJD80WBV3A","APVZGZM1RA3AZ","31D0ZWOD0AL5TKHZZFW9PF504XD0AR","","719.2999999970198","img/land6.png","76","720.5999999940395","3","1","3","1","0.8,0.2,0.2,0.2,0.8,0.2,0.2,0.2,0.8","0.8,0.2,0.2,0.2,0.8,0.2,0.2,0.2,0.8","1","",""
"","html-keyboard-response","119","281974","0.0-119.0","3FPRZHYEPZTNOKHOKZAQCJD80WBV3A","APVZGZM1RA3AZ","31D0ZWOD0AL5TKHZZFW9PF504XD0AR","","null","<img src=""img/land6.png"" style=""width:200px; border:14px solid green;"">","null","","","","","","","","","",""
"","image-keyboard-response","120","282680","0.0-120.0","3FPRZHYEPZTNOKHOKZAQCJD80WBV3A","APVZGZM1RA3AZ","31D0ZWOD0AL5TKHZZFW9PF504XD0AR","","705.1000000089407","img/land6.png","76","706.0999999940395","3","0","3","1","0.8,0.2,0.2,0.2,0.8,0.2,0.2,0.2,0.8","0.8,0.2,0.2,0.2,0.8,0.2,0.2,0.2,0.8","1","",""
"","html-keyboard-response","121","282983","0.0-121.0","3FPRZHYEPZTNOKHOKZAQCJD80WBV3A","APVZGZM1RA3AZ","31D0ZWOD0AL5TKHZZFW9PF504XD0AR","","null","<img src=""img/land6.png"" style=""width:200px;border:14px solid red;"">","null","","","","","","","","","",""
"","image-keyboard-response","122","284008","0.0-122.0","3FPRZHYEPZTNOKHOKZAQCJD80WBV3A","APVZGZM1RA3AZ","31D0ZWOD0AL5TKHZZFW9PF504XD0AR","","1024","img/land2.png","74","1025.199999988079","1","1","1","1","0.8,0.2,0.2,0.2,0.8,0.2,0.2,0.2,0.8","0.8,0.2,0.2,0.2,0.8,0.2,0.2,0.2,0.8","1","",""
"","html-keyboard-response","123","284311","0.0-123.0","3FPRZHYEPZTNOKHOKZAQCJD80WBV3A","APVZGZM1RA3AZ","31D0ZWOD0AL5TKHZZFW9PF504XD0AR","","null","<img src=""img/land2.png"" style=""width:200px; border:14px solid green;"">","null","","","","","","","","","",""
"","image-keyboard-response","124","285110","0.0-124.0","3FPRZHYEPZTNOKHOKZAQCJD80WBV3A","APVZGZM1RA3AZ","31D0ZWOD0AL5TKHZZFW9PF504XD0AR","","798.2000000029802","img/land2.png","74","799.2000000029802","1","1","1","1","0.8,0.2,0.2,0.2,0.8,0.2,0.2,0.2,0.8","0.8,0.2,0.2,0.2,0.8,0.2,0.2,0.2,0.8","1","",""
"","html-keyboard-response","125","285412","0.0-125.0","3FPRZHYEPZTNOKHOKZAQCJD80WBV3A","APVZGZM1RA3AZ","31D0ZWOD0AL5TKHZZFW9PF504XD0AR","","null","<img src=""img/land2.png"" style=""width:200px; border:14px solid green;"">","null","","","","","","","","","",""
"","image-keyboard-response","126","286047","0.0-126.0","3FPRZHYEPZTNOKHOKZAQCJD80WBV3A","APVZGZM1RA3AZ","31D0ZWOD0AL5TKHZZFW9PF504XD0AR","","634","img/land3.png","75","635","2","1","2","1","0.8,0.2,0.2,0.2,0.8,0.2,0.2,0.2,0.8","0.8,0.2,0.2,0.2,0.8,0.2,0.2,0.2,0.8","1","",""
"","html-keyboard-response","127","286349","0.0-127.0","3FPRZHYEPZTNOKHOKZAQCJD80WBV3A","APVZGZM1RA3AZ","31D0ZWOD0AL5TKHZZFW9PF504XD0AR","","null","<img src=""img/land3.png"" style=""width:200px; border:14px solid green;"">","null","","","","","","","","","",""
"","image-keyboard-response","128","287215","0.0-128.0","3FPRZHYEPZTNOKHOKZAQCJD80WBV3A","APVZGZM1RA3AZ","31D0ZWOD0AL5TKHZZFW9PF504XD0AR","","864.7999999970198","img/land2.png","74","865.4000000059605","1","1","1","1","0.8,0.2,0.2,0.2,0.8,0.2,0.2,0.2,0.8","0.8,0.2,0.2,0.2,0.8,0.2,0.2,0.2,0.8","1","",""
"","html-keyboard-response","129","287517","0.0-129.0","3FPRZHYEPZTNOKHOKZAQCJD80WBV3A","APVZGZM1RA3AZ","31D0ZWOD0AL5TKHZZFW9PF504XD0AR","","null","<img src=""img/land2.png"" style=""width:200px; border:14px solid green;"">","null","","","","","","","","","",""
"","image-keyboard-response","130","288287","0.0-130.0","3FPRZHYEPZTNOKHOKZAQCJD80WBV3A","APVZGZM1RA3AZ","31D0ZWOD0AL5TKHZZFW9PF504XD0AR","","769.4000000059605","img/land3.png","75","770.1999999880791","2","1","2","1","0.8,0.2,0.2,0.2,0.8,0.2,0.2,0.2,0.8","0.8,0.2,0.2,0.2,0.8,0.2,0.2,0.2,0.8","1","",""
"","html-keyboard-response","131","288588","0.0-131.0","3FPRZHYEPZTNOKHOKZAQCJD80WBV3A","APVZGZM1RA3AZ","31D0ZWOD0AL5TKHZZFW9PF504XD0AR","","null","<img src=""img/land3.png"" style=""width:200px; border:14px solid green;"">","null","","","","","","","","","",""
"","image-keyboard-response","132","289519","0.0-132.0","3FPRZHYEPZTNOKHOKZAQCJD80WBV3A","APVZGZM1RA3AZ","31D0ZWOD0AL5TKHZZFW9PF504XD0AR","","930.0999999940395","img/land2.png","74","931.0999999940395","1","1","1","1","0.8,0.2,0.2,0.2,0.8,0.2,0.2,0.2,0.8","0.8,0.2,0.2,0.2,0.8,0.2,0.2,0.2,0.8","1","",""
"","html-keyboard-response","133","289821","0.0-133.0","3FPRZHYEPZTNOKHOKZAQCJD80WBV3A","APVZGZM1RA3AZ","31D0ZWOD0AL5TKHZZFW9PF504XD0AR","","null","<img src=""img/land2.png"" style=""width:200px; border:14px solid green;"">","null","","","","","","","","","",""
"","image-keyboard-response","134","290575","0.0-134.0","3FPRZHYEPZTNOKHOKZAQCJD80WBV3A","APVZGZM1RA3AZ","31D0ZWOD0AL5TKHZZFW9PF504XD0AR","","753","img/land2.png","74","753.7000000029802","1","1","1","1","0.8,0.2,0.2,0.2,0.8,0.2,0.2,0.2,0.8","0.8,0.2,0.2,0.2,0.8,0.2,0.2,0.2,0.8","1","",""
"","html-keyboard-response","135","290877","0.0-135.0","3FPRZHYEPZTNOKHOKZAQCJD80WBV3A","APVZGZM1RA3AZ","31D0ZWOD0AL5TKHZZFW9PF504XD0AR","","null","<img src=""img/land2.png"" style=""width:200px; border:14px solid green;"">","null","","","","","","","","","",""
"","image-keyboard-response","136","291992","0.0-136.0","3FPRZHYEPZTNOKHOKZAQCJD80WBV3A","APVZGZM1RA3AZ","31D0ZWOD0AL5TKHZZFW9PF504XD0AR","","1113.2000000029802","img/land6.png","76","1114.5","3","1","3","1","0.8,0.2,0.2,0.2,0.8,0.2,0.2,0.2,0.8","0.8,0.2,0.2,0.2,0.8,0.2,0.2,0.2,0.8","1","",""
"","html-keyboard-response","137","292294","0.0-137.0","3FPRZHYEPZTNOKHOKZAQCJD80WBV3A","APVZGZM1RA3AZ","31D0ZWOD0AL5TKHZZFW9PF504XD0AR","","null","<img src=""img/land6.png"" style=""width:200px; border:14px solid green;"">","null","","","","","","","","","",""
"","image-keyboard-response","138","293255","0.0-138.0","3FPRZHYEPZTNOKHOKZAQCJD80WBV3A","APVZGZM1RA3AZ","31D0ZWOD0AL5TKHZZFW9PF504XD0AR","","959.4000000059605","img/land3.png","75","960.7000000029802","2","1","2","1","0.8,0.2,0.2,0.2,0.8,0.2,0.2,0.2,0.8","0.8,0.2,0.2,0.2,0.8,0.2,0.2,0.2,0.8","1","",""
"","html-keyboard-response","139","293557","0.0-139.0","3FPRZHYEPZTNOKHOKZAQCJD80WBV3A","APVZGZM1RA3AZ","31D0ZWOD0AL5TKHZZFW9PF504XD0AR","","null","<img src=""img/land3.png"" style=""width:200px; border:14px solid green;"">","null","","","","","","","","","",""
"","image-keyboard-response","140","294120","0.0-140.0","3FPRZHYEPZTNOKHOKZAQCJD80WBV3A","APVZGZM1RA3AZ","31D0ZWOD0AL5TKHZZFW9PF504XD0AR","","561","img/land3.png","75","562.2000000029802","2","1","2","1","0.8,0.2,0.2,0.2,0.8,0.2,0.2,0.2,0.8","0.8,0.2,0.2,0.2,0.8,0.2,0.2,0.2,0.8","1","",""
"","html-keyboard-response","141","294422","0.0-141.0","3FPRZHYEPZTNOKHOKZAQCJD80WBV3A","APVZGZM1RA3AZ","31D0ZWOD0AL5TKHZZFW9PF504XD0AR","","null","<img src=""img/land3.png"" style=""width:200px; border:14px solid green;"">","null","","","","","","","","","",""
"","image-keyboard-response","142","295199","0.0-142.0","3FPRZHYEPZTNOKHOKZAQCJD80WBV3A","APVZGZM1RA3AZ","31D0ZWOD0AL5TKHZZFW9PF504XD0AR","","775.7999999970198","img/land6.png","76","777","3","1","3","1","0.8,0.2,0.2,0.2,0.8,0.2,0.2,0.2,0.8","0.8,0.2,0.2,0.2,0.8,0.2,0.2,0.2,0.8","1","",""
"","html-keyboard-response","143","295501","0.0-143.0","3FPRZHYEPZTNOKHOKZAQCJD80WBV3A","APVZGZM1RA3AZ","31D0ZWOD0AL5TKHZZFW9PF504XD0AR","","null","<img src=""img/land6.png"" style=""width:200px; border:14px solid green;"">","null","","","","","","","","","",""
"","image-keyboard-response","144","296408","0.0-144.0","3FPRZHYEPZTNOKHOKZAQCJD80WBV3A","APVZGZM1RA3AZ","31D0ZWOD0AL5TKHZZFW9PF504XD0AR","","906.1999999880791","img/land3.png","75","907","2","1","2","1","0.8,0.2,0.2,0.2,0.8,0.2,0.2,0.2,0.8","0.8,0.2,0.2,0.2,0.8,0.2,0.2,0.2,0.8","1","",""
"","html-keyboard-response","145","296710","0.0-145.0","3FPRZHYEPZTNOKHOKZAQCJD80WBV3A","APVZGZM1RA3AZ","31D0ZWOD0AL5TKHZZFW9PF504XD0AR","","null","<img src=""img/land3.png"" style=""width:200px; border:14px solid green;"">","null","","","","","","","","","",""
"","image-keyboard-response","146","297728","0.0-146.0","3FPRZHYEPZTNOKHOKZAQCJD80WBV3A","APVZGZM1RA3AZ","31D0ZWOD0AL5TKHZZFW9PF504XD0AR","","1017","img/land2.png","74","1017.5999999940395","1","1","1","1","0.8,0.2,0.2,0.2,0.8,0.2,0.2,0.2,0.8","0.8,0.2,0.2,0.2,0.8,0.2,0.2,0.2,0.8","1","",""
"","html-keyboard-response","147","298030","0.0-147.0","3FPRZHYEPZTNOKHOKZAQCJD80WBV3A","APVZGZM1RA3AZ","31D0ZWOD0AL5TKHZZFW9PF504XD0AR","","null","<img src=""img/land2.png"" style=""width:200px; border:14px solid green;"">","null","","","","","","","","","",""
"","image-keyboard-response","148","298792","0.0-148.0","3FPRZHYEPZTNOKHOKZAQCJD80WBV3A","APVZGZM1RA3AZ","31D0ZWOD0AL5TKHZZFW9PF504XD0AR","","760.4000000059605","img/land3.png","75","761.5","2","1","2","1","0.8,0.2,0.2,0.2,0.8,0.2,0.2,0.2,0.8","0.8,0.2,0.2,0.2,0.8,0.2,0.2,0.2,0.8","1","",""
"","html-keyboard-response","149","299094","0.0-149.0","3FPRZHYEPZTNOKHOKZAQCJD80WBV3A","APVZGZM1RA3AZ","31D0ZWOD0AL5TKHZZFW9PF504XD0AR","","null","<img src=""img/land3.png"" style=""width:200px; border:14px solid green;"">","null","","","","","","","","","",""
"","image-keyboard-response","150","300104","0.0-150.0","3FPRZHYEPZTNOKHOKZAQCJD80WBV3A","APVZGZM1RA3AZ","31D0ZWOD0AL5TKHZZFW9PF504XD0AR","","1009.0999999940395","img/land2.png","74","1009.7999999970198","1","1","1","1","0.8,0.2,0.2,0.2,0.8,0.2,0.2,0.2,0.8","0.8,0.2,0.2,0.2,0.8,0.2,0.2,0.2,0.8","1","",""
"","html-keyboard-response","151","300406","0.0-151.0","3FPRZHYEPZTNOKHOKZAQCJD80WBV3A","APVZGZM1RA3AZ","31D0ZWOD0AL5TKHZZFW9PF504XD0AR","","null","<img src=""img/land2.png"" style=""width:200px; border:14px solid green;"">","null","","","","","","","","","",""
"","image-keyboard-response","152","301118","0.0-152.0","3FPRZHYEPZTNOKHOKZAQCJD80WBV3A","APVZGZM1RA3AZ","31D0ZWOD0AL5TKHZZFW9PF504XD0AR","","711.5","img/land3.png","75","712.5","2","1","2","1","0.8,0.2,0.2,0.2,0.8,0.2,0.2,0.2,0.8","0.8,0.2,0.2,0.2,0.8,0.2,0.2,0.2,0.8","1","",""
"","html-keyboard-response","153","301420","0.0-153.0","3FPRZHYEPZTNOKHOKZAQCJD80WBV3A","APVZGZM1RA3AZ","31D0ZWOD0AL5TKHZZFW9PF504XD0AR","","null","<img src=""img/land3.png"" style=""width:200px; border:14px solid green;"">","null","","","","","","","","","",""
"","image-keyboard-response","154","302456","0.0-154.0","3FPRZHYEPZTNOKHOKZAQCJD80WBV3A","APVZGZM1RA3AZ","31D0ZWOD0AL5TKHZZFW9PF504XD0AR","","1034","img/land2.png","74","1035.4000000059605","1","1","1","1","0.8,0.2,0.2,0.2,0.8,0.2,0.2,0.2,0.8","0.8,0.2,0.2,0.2,0.8,0.2,0.2,0.2,0.8","1","",""
"","html-keyboard-response","155","302758","0.0-155.0","3FPRZHYEPZTNOKHOKZAQCJD80WBV3A","APVZGZM1RA3AZ","31D0ZWOD0AL5TKHZZFW9PF504XD0AR","","null","<img src=""img/land2.png"" style=""width:200px; border:14px solid green;"">","null","","","","","","","","","",""
"","image-keyboard-response","156","303831","0.0-156.0","3FPRZHYEPZTNOKHOKZAQCJD80WBV3A","APVZGZM1RA3AZ","31D0ZWOD0AL5TKHZZFW9PF504XD0AR","","1071.7000000029802","img/land6.png","75","1072.2999999970198","2","0","3","1","0.8,0.2,0.2,0.2,0.8,0.2,0.2,0.2,0.8","0.8,0.2,0.2,0.2,0.8,0.2,0.2,0.2,0.8","1","",""
"","html-keyboard-response","157","304133","0.0-157.0","3FPRZHYEPZTNOKHOKZAQCJD80WBV3A","APVZGZM1RA3AZ","31D0ZWOD0AL5TKHZZFW9PF504XD0AR","","null","<img src=""img/land6.png"" style=""width:200px;border:14px solid red;"">","null","","","","","","","","","",""
"","image-keyboard-response","158","305008","0.0-158.0","3FPRZHYEPZTNOKHOKZAQCJD80WBV3A","APVZGZM1RA3AZ","31D0ZWOD0AL5TKHZZFW9PF504XD0AR","","873.5999999940395","img/land3.png","76","875.1000000089407","3","1","2","1","0.8,0.2,0.2,0.2,0.8,0.2,0.2,0.2,0.8","0.8,0.2,0.2,0.2,0.8,0.2,0.2,0.2,0.8","1","",""
"","html-keyboard-response","159","305310","0.0-159.0","3FPRZHYEPZTNOKHOKZAQCJD80WBV3A","APVZGZM1RA3AZ","31D0ZWOD0AL5TKHZZFW9PF504XD0AR","","null","<img src=""img/land3.png"" style=""width:200px; border:14px solid green;"">","null","","","","","","","","","",""
"","image-keyboard-response","160","306424","0.0-160.0","3FPRZHYEPZTNOKHOKZAQCJD80WBV3A","APVZGZM1RA3AZ","31D0ZWOD0AL5TKHZZFW9PF504XD0AR","","1113.199999988079","img/land2.png","76","1114.4000000059605","3","0","1","1","0.8,0.2,0.2,0.2,0.8,0.2,0.2,0.2,0.8","0.8,0.2,0.2,0.2,0.8,0.2,0.2,0.2,0.8","1","",""
"","html-keyboard-response","161","306726","0.0-161.0","3FPRZHYEPZTNOKHOKZAQCJD80WBV3A","APVZGZM1RA3AZ","31D0ZWOD0AL5TKHZZFW9PF504XD0AR","","null","<img src=""img/land2.png"" style=""width:200px;border:14px solid red;"">","null","","","","","","","","","",""
"","image-keyboard-response","162","307754","0.0-162.0","3FPRZHYEPZTNOKHOKZAQCJD80WBV3A","APVZGZM1RA3AZ","31D0ZWOD0AL5TKHZZFW9PF504XD0AR","","1026.2000000029802","img/land3.png","75","1027.1000000089407","2","1","2","1","0.8,0.2,0.2,0.2,0.8,0.2,0.2,0.2,0.8","0.8,0.2,0.2,0.2,0.8,0.2,0.2,0.2,0.8","1","",""
"","html-keyboard-response","163","308056","0.0-163.0","3FPRZHYEPZTNOKHOKZAQCJD80WBV3A","APVZGZM1RA3AZ","31D0ZWOD0AL5TKHZZFW9PF504XD0AR","","null","<img src=""img/land3.png"" style=""width:200px; border:14px solid green;"">","null","","","","","","","","","",""
"","image-keyboard-response","164","309456","0.0-164.0","3FPRZHYEPZTNOKHOKZAQCJD80WBV3A","APVZGZM1RA3AZ","31D0ZWOD0AL5TKHZZFW9PF504XD0AR","","1398.1000000089407","img/land2.png","74","1399.4000000059605","1","1","1","1","0.8,0.2,0.2,0.2,0.8,0.2,0.2,0.2,0.8","0.8,0.2,0.2,0.2,0.8,0.2,0.2,0.2,0.8","1","",""
"","html-keyboard-response","165","309758","0.0-165.0","3FPRZHYEPZTNOKHOKZAQCJD80WBV3A","APVZGZM1RA3AZ","31D0ZWOD0AL5TKHZZFW9PF504XD0AR","","null","<img src=""img/land2.png"" style=""width:200px; border:14px solid green;"">","null","","","","","","","","","",""
"","image-keyboard-response","166","310597","0.0-166.0","3FPRZHYEPZTNOKHOKZAQCJD80WBV3A","APVZGZM1RA3AZ","31D0ZWOD0AL5TKHZZFW9PF504XD0AR","","837.7999999970198","img/land6.png","76","838.7999999970198","3","0","3","1","0.8,0.2,0.2,0.2,0.8,0.2,0.2,0.2,0.8","0.8,0.2,0.2,0.2,0.8,0.2,0.2,0.2,0.8","1","",""
"","html-keyboard-response","167","310899","0.0-167.0","3FPRZHYEPZTNOKHOKZAQCJD80WBV3A","APVZGZM1RA3AZ","31D0ZWOD0AL5TKHZZFW9PF504XD0AR","","null","<img src=""img/land6.png"" style=""width:200px;border:14px solid red;"">","null","","","","","","","","","",""
"","image-keyboard-response","168","311984","0.0-168.0","3FPRZHYEPZTNOKHOKZAQCJD80WBV3A","APVZGZM1RA3AZ","31D0ZWOD0AL5TKHZZFW9PF504XD0AR","","1083.4000000059605","img/land3.png","75","1084.5","2","0","2","1","0.8,0.2,0.2,0.2,0.8,0.2,0.2,0.2,0.8","0.8,0.2,0.2,0.2,0.8,0.2,0.2,0.2,0.8","1","",""
"","html-keyboard-response","169","312286","0.0-169.0","3FPRZHYEPZTNOKHOKZAQCJD80WBV3A","APVZGZM1RA3AZ","31D0ZWOD0AL5TKHZZFW9PF504XD0AR","","null","<img src=""img/land3.png"" style=""width:200px;border:14px solid red;"">","null","","","","","","","","","",""
"","image-keyboard-response","170","313675","0.0-170.0","3FPRZHYEPZTNOKHOKZAQCJD80WBV3A","APVZGZM1RA3AZ","31D0ZWOD0AL5TKHZZFW9PF504XD0AR","","1388","img/land3.png","75","1388.7000000029802","2","1","2","1","0.8,0.2,0.2,0.2,0.8,0.2,0.2,0.2,0.8","0.8,0.2,0.2,0.2,0.8,0.2,0.2,0.2,0.8","1","",""
"","html-keyboard-response","171","313977","0.0-171.0","3FPRZHYEPZTNOKHOKZAQCJD80WBV3A","APVZGZM1RA3AZ","31D0ZWOD0AL5TKHZZFW9PF504XD0AR","","null","<img src=""img/land3.png"" style=""width:200px; border:14px solid green;"">","null","","","","","","","","","",""
"","image-keyboard-response","172","314847","0.0-172.0","3FPRZHYEPZTNOKHOKZAQCJD80WBV3A","APVZGZM1RA3AZ","31D0ZWOD0AL5TKHZZFW9PF504XD0AR","","868.6999999880791","img/land2.png","74","869.7999999970198","1","1","1","1","0.8,0.2,0.2,0.2,0.8,0.2,0.2,0.2,0.8","0.8,0.2,0.2,0.2,0.8,0.2,0.2,0.2,0.8","1","",""
"","html-keyboard-response","173","315149","0.0-173.0","3FPRZHYEPZTNOKHOKZAQCJD80WBV3A","APVZGZM1RA3AZ","31D0ZWOD0AL5TKHZZFW9PF504XD0AR","","null","<img src=""img/land2.png"" style=""width:200px; border:14px solid green;"">","null","","","","","","","","","",""
"","image-keyboard-response","174","315979","0.0-174.0","3FPRZHYEPZTNOKHOKZAQCJD80WBV3A","APVZGZM1RA3AZ","31D0ZWOD0AL5TKHZZFW9PF504XD0AR","","828.5","img/land6.png","76","829.3999999910593","3","1","3","1","0.8,0.2,0.2,0.2,0.8,0.2,0.2,0.2,0.8","0.8,0.2,0.2,0.2,0.8,0.2,0.2,0.2,0.8","1","",""
"","html-keyboard-response","175","316281","0.0-175.0","3FPRZHYEPZTNOKHOKZAQCJD80WBV3A","APVZGZM1RA3AZ","31D0ZWOD0AL5TKHZZFW9PF504XD0AR","","null","<img src=""img/land6.png"" style=""width:200px; border:14px solid green;"">","null","","","","","","","","","",""
"","image-keyboard-response","176","317143","0.0-176.0","3FPRZHYEPZTNOKHOKZAQCJD80WBV3A","APVZGZM1RA3AZ","31D0ZWOD0AL5TKHZZFW9PF504XD0AR","","861.2999999970198","img/land3.png","75","861.7999999970198","2","1","2","1","0.8,0.2,0.2,0.2,0.8,0.2,0.2,0.2,0.8","0.8,0.2,0.2,0.2,0.8,0.2,0.2,0.2,0.8","1","",""
"","html-keyboard-response","177","317445","0.0-177.0","3FPRZHYEPZTNOKHOKZAQCJD80WBV3A","APVZGZM1RA3AZ","31D0ZWOD0AL5TKHZZFW9PF504XD0AR","","null","<img src=""img/land3.png"" style=""width:200px; border:14px solid green;"">","null","","","","","","","","","",""
"","image-keyboard-response","178","318079","0.0-178.0","3FPRZHYEPZTNOKHOKZAQCJD80WBV3A","APVZGZM1RA3AZ","31D0ZWOD0AL5TKHZZFW9PF504XD0AR","","633.3000000119209","img/land2.png","74","634.2999999970198","1","0","1","1","0.8,0.2,0.2,0.2,0.8,0.2,0.2,0.2,0.8","0.8,0.2,0.2,0.2,0.8,0.2,0.2,0.2,0.8","1","",""
"","html-keyboard-response","179","318381","0.0-179.0","3FPRZHYEPZTNOKHOKZAQCJD80WBV3A","APVZGZM1RA3AZ","31D0ZWOD0AL5TKHZZFW9PF504XD0AR","","null","<img src=""img/land2.png"" style=""width:200px;border:14px solid red;"">","null","","","","","","","","","",""
"","image-keyboard-response","180","318879","0.0-180.0","3FPRZHYEPZTNOKHOKZAQCJD80WBV3A","APVZGZM1RA3AZ","31D0ZWOD0AL5TKHZZFW9PF504XD0AR","","497.40000000596046","img/land2.png","74","498.59999999403954","1","1","1","1","0.8,0.2,0.2,0.2,0.8,0.2,0.2,0.2,0.8","0.8,0.2,0.2,0.2,0.8,0.2,0.2,0.2,0.8","1","",""
"","html-keyboard-response","181","319182","0.0-181.0","3FPRZHYEPZTNOKHOKZAQCJD80WBV3A","APVZGZM1RA3AZ","31D0ZWOD0AL5TKHZZFW9PF504XD0AR","","null","<img src=""img/land2.png"" style=""width:200px; border:14px solid green;"">","null","","","","","","","","","",""
"","html-keyboard-response","182","323574","0.0-182.0","3FPRZHYEPZTNOKHOKZAQCJD80WBV3A","APVZGZM1RA3AZ","31D0ZWOD0AL5TKHZZFW9PF504XD0AR","","","","","","","","","","","","","",""
"","image-keyboard-response","183","325577","0.0-183.0","3FPRZHYEPZTNOKHOKZAQCJD80WBV3A","APVZGZM1RA3AZ","31D0ZWOD0AL5TKHZZFW9PF504XD0AR","","","img/land4.png","","2002.2999999970198","-1","0","2","2","0.8,0.2,0.2,0.2,0.8,0.2,0.2,0.2,0.8","0.2,0.2,0.8,0.8,0.2,0.2,0.2,0.8,0.2","2","",""
"","html-keyboard-response","184","325879","0.0-184.0","3FPRZHYEPZTNOKHOKZAQCJD80WBV3A","APVZGZM1RA3AZ","31D0ZWOD0AL5TKHZZFW9PF504XD0AR","","null","<img src=""img/land4.png"" style=""width:200px;border:14px solid red;"">","null","","","","","","","","","",""
"","image-keyboard-response","185","327171","0.0-185.0","3FPRZHYEPZTNOKHOKZAQCJD80WBV3A","APVZGZM1RA3AZ","31D0ZWOD0AL5TKHZZFW9PF504XD0AR","","1291.0999999940395","img/land4.png","76","1292","3","1","2","2","0.8,0.2,0.2,0.2,0.8,0.2,0.2,0.2,0.8","0.2,0.2,0.8,0.8,0.2,0.2,0.2,0.8,0.2","2","",""
"","html-keyboard-response","186","327473","0.0-186.0","3FPRZHYEPZTNOKHOKZAQCJD80WBV3A","APVZGZM1RA3AZ","31D0ZWOD0AL5TKHZZFW9PF504XD0AR","","null","<img src=""img/land4.png"" style=""width:200px; border:14px solid green;"">","null","","","","","","","","","",""
"","image-keyboard-response","187","329475","0.0-187.0","3FPRZHYEPZTNOKHOKZAQCJD80WBV3A","APVZGZM1RA3AZ","31D0ZWOD0AL5TKHZZFW9PF504XD0AR","","","img/land1.png","","2002.2999999970198","-1","0","3","2","0.8,0.2,0.2,0.2,0.8,0.2,0.2,0.2,0.8","0.2,0.2,0.8,0.8,0.2,0.2,0.2,0.8,0.2","2","",""
"","html-keyboard-response","188","329778","0.0-188.0","3FPRZHYEPZTNOKHOKZAQCJD80WBV3A","APVZGZM1RA3AZ","31D0ZWOD0AL5TKHZZFW9PF504XD0AR","","null","<img src=""img/land1.png"" style=""width:200px;border:14px solid red;"">","null","","","","","","","","","",""
"","image-keyboard-response","189","331779","0.0-189.0","3FPRZHYEPZTNOKHOKZAQCJD80WBV3A","APVZGZM1RA3AZ","31D0ZWOD0AL5TKHZZFW9PF504XD0AR","","","img/land5.png","","2001.5","-1","0","1","2","0.8,0.2,0.2,0.2,0.8,0.2,0.2,0.2,0.8","0.2,0.2,0.8,0.8,0.2,0.2,0.2,0.8,0.2","2","",""
"","html-keyboard-response","190","332081","0.0-190.0","3FPRZHYEPZTNOKHOKZAQCJD80WBV3A","APVZGZM1RA3AZ","31D0ZWOD0AL5TKHZZFW9PF504XD0AR","","null","<img src=""img/land5.png"" style=""width:200px;border:14px solid red;"">","null","","","","","","","","","",""
"","image-keyboard-response","191","333850","0.0-191.0","3FPRZHYEPZTNOKHOKZAQCJD80WBV3A","APVZGZM1RA3AZ","31D0ZWOD0AL5TKHZZFW9PF504XD0AR","","1767.1000000089407","img/land4.png","76","1768.4000000059605","3","0","2","2","0.8,0.2,0.2,0.2,0.8,0.2,0.2,0.2,0.8","0.2,0.2,0.8,0.8,0.2,0.2,0.2,0.8,0.2","2","",""
"","html-keyboard-response","192","334152","0.0-192.0","3FPRZHYEPZTNOKHOKZAQCJD80WBV3A","APVZGZM1RA3AZ","31D0ZWOD0AL5TKHZZFW9PF504XD0AR","","null","<img src=""img/land4.png"" style=""width:200px;border:14px solid red;"">","null","","","","","","","","","",""
"","image-keyboard-response","193","335015","0.0-193.0","3FPRZHYEPZTNOKHOKZAQCJD80WBV3A","APVZGZM1RA3AZ","31D0ZWOD0AL5TKHZZFW9PF504XD0AR","","862","img/land5.png","75","862.9000000059605","2","1","1","2","0.8,0.2,0.2,0.2,0.8,0.2,0.2,0.2,0.8","0.2,0.2,0.8,0.8,0.2,0.2,0.2,0.8,0.2","2","",""
"","html-keyboard-response","194","335330","0.0-194.0","3FPRZHYEPZTNOKHOKZAQCJD80WBV3A","APVZGZM1RA3AZ","31D0ZWOD0AL5TKHZZFW9PF504XD0AR","","null","<img src=""img/land5.png"" style=""width:200px; border:14px solid green;"">","null","","","","","","","","","",""
"","image-keyboard-response","195","336256","0.0-195.0","3FPRZHYEPZTNOKHOKZAQCJD80WBV3A","APVZGZM1RA3AZ","31D0ZWOD0AL5TKHZZFW9PF504XD0AR","","923.7000000029802","img/land1.png","74","924.8999999910593","1","0","3","2","0.8,0.2,0.2,0.2,0.8,0.2,0.2,0.2,0.8","0.2,0.2,0.8,0.8,0.2,0.2,0.2,0.8,0.2","2","",""
"","html-keyboard-response","196","336557","0.0-196.0","3FPRZHYEPZTNOKHOKZAQCJD80WBV3A","APVZGZM1RA3AZ","31D0ZWOD0AL5TKHZZFW9PF504XD0AR","","null","<img src=""img/land1.png"" style=""width:200px;border:14px solid red;"">","null","","","","","","","","","",""
"","image-keyboard-response","197","337520","0.0-197.0","3FPRZHYEPZTNOKHOKZAQCJD80WBV3A","APVZGZM1RA3AZ","31D0ZWOD0AL5TKHZZFW9PF504XD0AR","","961.6000000089407","img/land4.png","75","962.6000000089407","2","0","2","2","0.8,0.2,0.2,0.2,0.8,0.2,0.2,0.2,0.8","0.2,0.2,0.8,0.8,0.2,0.2,0.2,0.8,0.2","2","",""
"","html-keyboard-response","198","337822","0.0-198.0","3FPRZHYEPZTNOKHOKZAQCJD80WBV3A","APVZGZM1RA3AZ","31D0ZWOD0AL5TKHZZFW9PF504XD0AR","","null","<img src=""img/land4.png"" style=""width:200px;border:14px solid red;"">","null","","","","","","","","","",""
"","image-keyboard-response","199","338823","0.0-199.0","3FPRZHYEPZTNOKHOKZAQCJD80WBV3A","APVZGZM1RA3AZ","31D0ZWOD0AL5TKHZZFW9PF504XD0AR","","1000.6000000089407","img/land1.png","75","1001.5999999940395","2","1","3","2","0.8,0.2,0.2,0.2,0.8,0.2,0.2,0.2,0.8","0.2,0.2,0.8,0.8,0.2,0.2,0.2,0.8,0.2","2","",""
"","html-keyboard-response","200","339126","0.0-200.0","3FPRZHYEPZTNOKHOKZAQCJD80WBV3A","APVZGZM1RA3AZ","31D0ZWOD0AL5TKHZZFW9PF504XD0AR","","null","<img src=""img/land1.png"" style=""width:200px; border:14px solid green;"">","null","","","","","","","","","",""
"","image-keyboard-response","201","340144","0.0-201.0","3FPRZHYEPZTNOKHOKZAQCJD80WBV3A","APVZGZM1RA3AZ","31D0ZWOD0AL5TKHZZFW9PF504XD0AR","","1016.5","img/land5.png","76","1017.3999999910593","3","1","1","2","0.8,0.2,0.2,0.2,0.8,0.2,0.2,0.2,0.8","0.2,0.2,0.8,0.8,0.2,0.2,0.2,0.8,0.2","2","",""
"","html-keyboard-response","202","340446","0.0-202.0","3FPRZHYEPZTNOKHOKZAQCJD80WBV3A","APVZGZM1RA3AZ","31D0ZWOD0AL5TKHZZFW9PF504XD0AR","","null","<img src=""img/land5.png"" style=""width:200px; border:14px solid green;"">","null","","","","","","","","","",""
"","image-keyboard-response","203","341631","0.0-203.0","3FPRZHYEPZTNOKHOKZAQCJD80WBV3A","APVZGZM1RA3AZ","31D0ZWOD0AL5TKHZZFW9PF504XD0AR","","1183.8999999910593","img/land4.png","74","1185","1","1","2","2","0.8,0.2,0.2,0.2,0.8,0.2,0.2,0.2,0.8","0.2,0.2,0.8,0.8,0.2,0.2,0.2,0.8,0.2","2","",""
"","html-keyboard-response","204","341933","0.0-204.0","3FPRZHYEPZTNOKHOKZAQCJD80WBV3A","APVZGZM1RA3AZ","31D0ZWOD0AL5TKHZZFW9PF504XD0AR","","null","<img src=""img/land4.png"" style=""width:200px; border:14px solid green;"">","null","","","","","","","","","",""
"","image-keyboard-response","205","342775","0.0-205.0","3FPRZHYEPZTNOKHOKZAQCJD80WBV3A","APVZGZM1RA3AZ","31D0ZWOD0AL5TKHZZFW9PF504XD0AR","","839.8999999910593","img/land4.png","74","841","1","1","2","2","0.8,0.2,0.2,0.2,0.8,0.2,0.2,0.2,0.8","0.2,0.2,0.8,0.8,0.2,0.2,0.2,0.8,0.2","2","",""
"","html-keyboard-response","206","343076","0.0-206.0","3FPRZHYEPZTNOKHOKZAQCJD80WBV3A","APVZGZM1RA3AZ","31D0ZWOD0AL5TKHZZFW9PF504XD0AR","","null","<img src=""img/land4.png"" style=""width:200px; border:14px solid green;"">","null","","","","","","","","","",""
"","image-keyboard-response","207","344040","0.0-207.0","3FPRZHYEPZTNOKHOKZAQCJD80WBV3A","APVZGZM1RA3AZ","31D0ZWOD0AL5TKHZZFW9PF504XD0AR","","962.5","img/land5.png","76","963.1999999880791","3","0","1","2","0.8,0.2,0.2,0.2,0.8,0.2,0.2,0.2,0.8","0.2,0.2,0.8,0.8,0.2,0.2,0.2,0.8,0.2","2","",""
"","html-keyboard-response","208","344341","0.0-208.0","3FPRZHYEPZTNOKHOKZAQCJD80WBV3A","APVZGZM1RA3AZ","31D0ZWOD0AL5TKHZZFW9PF504XD0AR","","null","<img src=""img/land5.png"" style=""width:200px;border:14px solid red;"">","null","","","","","","","","","",""
"","image-keyboard-response","209","345570","0.0-209.0","3FPRZHYEPZTNOKHOKZAQCJD80WBV3A","APVZGZM1RA3AZ","31D0ZWOD0AL5TKHZZFW9PF504XD0AR","","1227.2999999970198","img/land1.png","75","1228.5999999940395","2","0","3","2","0.8,0.2,0.2,0.2,0.8,0.2,0.2,0.2,0.8","0.2,0.2,0.8,0.8,0.2,0.2,0.2,0.8,0.2","2","",""
"","html-keyboard-response","210","345872","0.0-210.0","3FPRZHYEPZTNOKHOKZAQCJD80WBV3A","APVZGZM1RA3AZ","31D0ZWOD0AL5TKHZZFW9PF504XD0AR","","null","<img src=""img/land1.png"" style=""width:200px;border:14px solid red;"">","null","","","","","","","","","",""
"","image-keyboard-response","211","346895","0.0-211.0","3FPRZHYEPZTNOKHOKZAQCJD80WBV3A","APVZGZM1RA3AZ","31D0ZWOD0AL5TKHZZFW9PF504XD0AR","","1021.5","img/land5.png","76","1022.7999999970198","3","1","1","2","0.8,0.2,0.2,0.2,0.8,0.2,0.2,0.2,0.8","0.2,0.2,0.8,0.8,0.2,0.2,0.2,0.8,0.2","2","",""
"","html-keyboard-response","212","347198","0.0-212.0","3FPRZHYEPZTNOKHOKZAQCJD80WBV3A","APVZGZM1RA3AZ","31D0ZWOD0AL5TKHZZFW9PF504XD0AR","","null","<img src=""img/land5.png"" style=""width:200px; border:14px solid green;"">","null","","","","","","","","","",""
"","image-keyboard-response","213","348151","0.0-213.0","3FPRZHYEPZTNOKHOKZAQCJD80WBV3A","APVZGZM1RA3AZ","31D0ZWOD0AL5TKHZZFW9PF504XD0AR","","952.8999999910593","img/land5.png","76","953.6999999880791","3","1","1","2","0.8,0.2,0.2,0.2,0.8,0.2,0.2,0.2,0.8","0.2,0.2,0.8,0.8,0.2,0.2,0.2,0.8,0.2","2","",""
"","html-keyboard-response","214","348454","0.0-214.0","3FPRZHYEPZTNOKHOKZAQCJD80WBV3A","APVZGZM1RA3AZ","31D0ZWOD0AL5TKHZZFW9PF504XD0AR","","null","<img src=""img/land5.png"" style=""width:200px; border:14px solid green;"">","null","","","","","","","","","",""
"","image-keyboard-response","215","349175","0.0-215.0","3FPRZHYEPZTNOKHOKZAQCJD80WBV3A","APVZGZM1RA3AZ","31D0ZWOD0AL5TKHZZFW9PF504XD0AR","","720.2999999970198","img/land5.png","76","721.5","3","0","1","2","0.8,0.2,0.2,0.2,0.8,0.2,0.2,0.2,0.8","0.2,0.2,0.8,0.8,0.2,0.2,0.2,0.8,0.2","2","",""
"","html-keyboard-response","216","349491","0.0-216.0","3FPRZHYEPZTNOKHOKZAQCJD80WBV3A","APVZGZM1RA3AZ","31D0ZWOD0AL5TKHZZFW9PF504XD0AR","","null","<img src=""img/land5.png"" style=""width:200px;border:14px solid red;"">","null","","","","","","","","","",""
"","image-keyboard-response","217","350143","0.0-217.0","3FPRZHYEPZTNOKHOKZAQCJD80WBV3A","APVZGZM1RA3AZ","31D0ZWOD0AL5TKHZZFW9PF504XD0AR","","650.7000000029802","img/land5.png","76","651.2999999970198","3","1","1","2","0.8,0.2,0.2,0.2,0.8,0.2,0.2,0.2,0.8","0.2,0.2,0.8,0.8,0.2,0.2,0.2,0.8,0.2","2","",""
"","html-keyboard-response","218","350444","0.0-218.0","3FPRZHYEPZTNOKHOKZAQCJD80WBV3A","APVZGZM1RA3AZ","31D0ZWOD0AL5TKHZZFW9PF504XD0AR","","null","<img src=""img/land5.png"" style=""width:200px; border:14px solid green;"">","null","","","","","","","","","",""
"","image-keyboard-response","219","351175","0.0-219.0","3FPRZHYEPZTNOKHOKZAQCJD80WBV3A","APVZGZM1RA3AZ","31D0ZWOD0AL5TKHZZFW9PF504XD0AR","","728.8999999910593","img/land5.png","76","729.9000000059605","3","0","1","2","0.8,0.2,0.2,0.2,0.8,0.2,0.2,0.2,0.8","0.2,0.2,0.8,0.8,0.2,0.2,0.2,0.8,0.2","2","",""
"","html-keyboard-response","220","351477","0.0-220.0","3FPRZHYEPZTNOKHOKZAQCJD80WBV3A","APVZGZM1RA3AZ","31D0ZWOD0AL5TKHZZFW9PF504XD0AR","","null","<img src=""img/land5.png"" style=""width:200px;border:14px solid red;"">","null","","","","","","","","","",""
"","image-keyboard-response","221","352328","0.0-221.0","3FPRZHYEPZTNOKHOKZAQCJD80WBV3A","APVZGZM1RA3AZ","31D0ZWOD0AL5TKHZZFW9PF504XD0AR","","849.2999999970198","img/land1.png","74","850.3999999910593","1","0","3","2","0.8,0.2,0.2,0.2,0.8,0.2,0.2,0.2,0.8","0.2,0.2,0.8,0.8,0.2,0.2,0.2,0.8,0.2","2","",""
"","html-keyboard-response","222","352630","0.0-222.0","3FPRZHYEPZTNOKHOKZAQCJD80WBV3A","APVZGZM1RA3AZ","31D0ZWOD0AL5TKHZZFW9PF504XD0AR","","null","<img src=""img/land1.png"" style=""width:200px;border:14px solid red;"">","null","","","","","","","","","",""
"","image-keyboard-response","223","353832","0.0-223.0","3FPRZHYEPZTNOKHOKZAQCJD80WBV3A","APVZGZM1RA3AZ","31D0ZWOD0AL5TKHZZFW9PF504XD0AR","","1200","img/land5.png","76","1201.0999999940395","3","1","1","2","0.8,0.2,0.2,0.2,0.8,0.2,0.2,0.2,0.8","0.2,0.2,0.8,0.8,0.2,0.2,0.2,0.8,0.2","2","",""
"","html-keyboard-response","224","354134","0.0-224.0","3FPRZHYEPZTNOKHOKZAQCJD80WBV3A","APVZGZM1RA3AZ","31D0ZWOD0AL5TKHZZFW9PF504XD0AR","","null","<img src=""img/land5.png"" style=""width:200px; border:14px solid green;"">","null","","","","","","","","","",""
"","image-keyboard-response","225","354820","0.0-225.0","3FPRZHYEPZTNOKHOKZAQCJD80WBV3A","APVZGZM1RA3AZ","31D0ZWOD0AL5TKHZZFW9PF504XD0AR","","684.8999999910593","img/land5.png","76","686.0999999940395","3","1","1","2","0.8,0.2,0.2,0.2,0.8,0.2,0.2,0.2,0.8","0.2,0.2,0.8,0.8,0.2,0.2,0.2,0.8,0.2","2","",""
"","html-keyboard-response","226","355122","0.0-226.0","3FPRZHYEPZTNOKHOKZAQCJD80WBV3A","APVZGZM1RA3AZ","31D0ZWOD0AL5TKHZZFW9PF504XD0AR","","null","<img src=""img/land5.png"" style=""width:200px; border:14px solid green;"">","null","","","","","","","","","",""
"","image-keyboard-response","227","355907","0.0-227.0","3FPRZHYEPZTNOKHOKZAQCJD80WBV3A","APVZGZM1RA3AZ","31D0ZWOD0AL5TKHZZFW9PF504XD0AR","","783.5","img/land4.png","75","784.7000000029802","2","0","2","2","0.8,0.2,0.2,0.2,0.8,0.2,0.2,0.2,0.8","0.2,0.2,0.8,0.8,0.2,0.2,0.2,0.8,0.2","2","",""
"","html-keyboard-response","228","356209","0.0-228.0","3FPRZHYEPZTNOKHOKZAQCJD80WBV3A","APVZGZM1RA3AZ","31D0ZWOD0AL5TKHZZFW9PF504XD0AR","","null","<img src=""img/land4.png"" style=""width:200px;border:14px solid red;"">","null","","","","","","","","","",""
"","image-keyboard-response","229","356984","0.0-229.0","3FPRZHYEPZTNOKHOKZAQCJD80WBV3A","APVZGZM1RA3AZ","31D0ZWOD0AL5TKHZZFW9PF504XD0AR","","772.4000000059605","img/land4.png","74","773.5999999940395","1","1","2","2","0.8,0.2,0.2,0.2,0.8,0.2,0.2,0.2,0.8","0.2,0.2,0.8,0.8,0.2,0.2,0.2,0.8,0.2","2","",""
"","html-keyboard-response","230","357286","0.0-230.0","3FPRZHYEPZTNOKHOKZAQCJD80WBV3A","APVZGZM1RA3AZ","31D0ZWOD0AL5TKHZZFW9PF504XD0AR","","null","<img src=""img/land4.png"" style=""width:200px; border:14px solid green;"">","null","","","","","","","","","",""
"","image-keyboard-response","231","358400","0.0-231.0","3FPRZHYEPZTNOKHOKZAQCJD80WBV3A","APVZGZM1RA3AZ","31D0ZWOD0AL5TKHZZFW9PF504XD0AR","","1113.2999999970198","img/land1.png","75","1114.0999999940395","2","1","3","2","0.8,0.2,0.2,0.2,0.8,0.2,0.2,0.2,0.8","0.2,0.2,0.8,0.8,0.2,0.2,0.2,0.8,0.2","2","",""
"","html-keyboard-response","232","358716","0.0-232.0","3FPRZHYEPZTNOKHOKZAQCJD80WBV3A","APVZGZM1RA3AZ","31D0ZWOD0AL5TKHZZFW9PF504XD0AR","","null","<img src=""img/land1.png"" style=""width:200px; border:14px solid green;"">","null","","","","","","","","","",""
"","image-keyboard-response","233","359607","0.0-233.0","3FPRZHYEPZTNOKHOKZAQCJD80WBV3A","APVZGZM1RA3AZ","31D0ZWOD0AL5TKHZZFW9PF504XD0AR","","890.2999999970198","img/land5.png","76","891.2000000029802","3","1","1","2","0.8,0.2,0.2,0.2,0.8,0.2,0.2,0.2,0.8","0.2,0.2,0.8,0.8,0.2,0.2,0.2,0.8,0.2","2","",""
"","html-keyboard-response","234","359909","0.0-234.0","3FPRZHYEPZTNOKHOKZAQCJD80WBV3A","APVZGZM1RA3AZ","31D0ZWOD0AL5TKHZZFW9PF504XD0AR","","null","<img src=""img/land5.png"" style=""width:200px; border:14px solid green;"">","null","","","","","","","","","",""
"","image-keyboard-response","235","360711","0.0-235.0","3FPRZHYEPZTNOKHOKZAQCJD80WBV3A","APVZGZM1RA3AZ","31D0ZWOD0AL5TKHZZFW9PF504XD0AR","","801.3999999910593","img/land1.png","75","802","2","1","3","2","0.8,0.2,0.2,0.2,0.8,0.2,0.2,0.2,0.8","0.2,0.2,0.8,0.8,0.2,0.2,0.2,0.8,0.2","2","",""
"","html-keyboard-response","236","361012","0.0-236.0","3FPRZHYEPZTNOKHOKZAQCJD80WBV3A","APVZGZM1RA3AZ","31D0ZWOD0AL5TKHZZFW9PF504XD0AR","","null","<img src=""img/land1.png"" style=""width:200px; border:14px solid green;"">","null","","","","","","","","","",""
"","image-keyboard-response","237","362016","0.0-237.0","3FPRZHYEPZTNOKHOKZAQCJD80WBV3A","APVZGZM1RA3AZ","31D0ZWOD0AL5TKHZZFW9PF504XD0AR","","1002","img/land5.png","76","1003.0999999940395","3","1","1","2","0.8,0.2,0.2,0.2,0.8,0.2,0.2,0.2,0.8","0.2,0.2,0.8,0.8,0.2,0.2,0.2,0.8,0.2","2","",""
"","html-keyboard-response","238","362318","0.0-238.0","3FPRZHYEPZTNOKHOKZAQCJD80WBV3A","APVZGZM1RA3AZ","31D0ZWOD0AL5TKHZZFW9PF504XD0AR","","null","<img src=""img/land5.png"" style=""width:200px; border:14px solid green;"">","null","","","","","","","","","",""
"","image-keyboard-response","239","363152","0.0-239.0","3FPRZHYEPZTNOKHOKZAQCJD80WBV3A","APVZGZM1RA3AZ","31D0ZWOD0AL5TKHZZFW9PF504XD0AR","","833.5","img/land5.png","76","834.1000000089407","3","1","1","2","0.8,0.2,0.2,0.2,0.8,0.2,0.2,0.2,0.8","0.2,0.2,0.8,0.8,0.2,0.2,0.2,0.8,0.2","2","",""
"","html-keyboard-response","240","363454","0.0-240.0","3FPRZHYEPZTNOKHOKZAQCJD80WBV3A","APVZGZM1RA3AZ","31D0ZWOD0AL5TKHZZFW9PF504XD0AR","","null","<img src=""img/land5.png"" style=""width:200px; border:14px solid green;"">","null","","","","","","","","","",""
"","image-keyboard-response","241","364215","0.0-241.0","3FPRZHYEPZTNOKHOKZAQCJD80WBV3A","APVZGZM1RA3AZ","31D0ZWOD0AL5TKHZZFW9PF504XD0AR","","760.0999999940395","img/land1.png","75","761.2999999970198","2","1","3","2","0.8,0.2,0.2,0.2,0.8,0.2,0.2,0.2,0.8","0.2,0.2,0.8,0.8,0.2,0.2,0.2,0.8,0.2","2","",""
"","html-keyboard-response","242","364517","0.0-242.0","3FPRZHYEPZTNOKHOKZAQCJD80WBV3A","APVZGZM1RA3AZ","31D0ZWOD0AL5TKHZZFW9PF504XD0AR","","null","<img src=""img/land1.png"" style=""width:200px; border:14px solid green;"">","null","","","","","","","","","",""
"","image-keyboard-response","243","365568","0.0-243.0","3FPRZHYEPZTNOKHOKZAQCJD80WBV3A","APVZGZM1RA3AZ","31D0ZWOD0AL5TKHZZFW9PF504XD0AR","","1049.3999999910593","img/land5.png","76","1050.5999999940395","3","1","1","2","0.8,0.2,0.2,0.2,0.8,0.2,0.2,0.2,0.8","0.2,0.2,0.8,0.8,0.2,0.2,0.2,0.8,0.2","2","",""
"","html-keyboard-response","244","365870","0.0-244.0","3FPRZHYEPZTNOKHOKZAQCJD80WBV3A","APVZGZM1RA3AZ","31D0ZWOD0AL5TKHZZFW9PF504XD0AR","","null","<img src=""img/land5.png"" style=""width:200px; border:14px solid green;"">","null","","","","","","","","","",""
"","image-keyboard-response","245","366592","0.0-245.0","3FPRZHYEPZTNOKHOKZAQCJD80WBV3A","APVZGZM1RA3AZ","31D0ZWOD0AL5TKHZZFW9PF504XD0AR","","720.8999999910593","img/land5.png","76","722","3","1","1","2","0.8,0.2,0.2,0.2,0.8,0.2,0.2,0.2,0.8","0.2,0.2,0.8,0.8,0.2,0.2,0.2,0.8,0.2","2","",""
"","html-keyboard-response","246","366893","0.0-246.0","3FPRZHYEPZTNOKHOKZAQCJD80WBV3A","APVZGZM1RA3AZ","31D0ZWOD0AL5TKHZZFW9PF504XD0AR","","null","<img src=""img/land5.png"" style=""width:200px; border:14px solid green;"">","null","","","","","","","","","",""
"","image-keyboard-response","247","367512","0.0-247.0","3FPRZHYEPZTNOKHOKZAQCJD80WBV3A","APVZGZM1RA3AZ","31D0ZWOD0AL5TKHZZFW9PF504XD0AR","","617.5","img/land1.png","75","618.2000000029802","2","1","3","2","0.8,0.2,0.2,0.2,0.8,0.2,0.2,0.2,0.8","0.2,0.2,0.8,0.8,0.2,0.2,0.2,0.8,0.2","2","",""
"","html-keyboard-response","248","367813","0.0-248.0","3FPRZHYEPZTNOKHOKZAQCJD80WBV3A","APVZGZM1RA3AZ","31D0ZWOD0AL5TKHZZFW9PF504XD0AR","","null","<img src=""img/land1.png"" style=""width:200px; border:14px solid green;"">","null","","","","","","","","","",""
"","image-keyboard-response","249","368520","0.0-249.0","3FPRZHYEPZTNOKHOKZAQCJD80WBV3A","APVZGZM1RA3AZ","31D0ZWOD0AL5TKHZZFW9PF504XD0AR","","706","img/land4.png","74","706.7000000029802","1","1","2","2","0.8,0.2,0.2,0.2,0.8,0.2,0.2,0.2,0.8","0.2,0.2,0.8,0.8,0.2,0.2,0.2,0.8,0.2","2","",""
"","html-keyboard-response","250","368822","0.0-250.0","3FPRZHYEPZTNOKHOKZAQCJD80WBV3A","APVZGZM1RA3AZ","31D0ZWOD0AL5TKHZZFW9PF504XD0AR","","null","<img src=""img/land4.png"" style=""width:200px; border:14px solid green;"">","null","","","","","","","","","",""
"","image-keyboard-response","251","369615","0.0-251.0","3FPRZHYEPZTNOKHOKZAQCJD80WBV3A","APVZGZM1RA3AZ","31D0ZWOD0AL5TKHZZFW9PF504XD0AR","","792","img/land5.png","76","793.4000000059605","3","1","1","2","0.8,0.2,0.2,0.2,0.8,0.2,0.2,0.2,0.8","0.2,0.2,0.8,0.8,0.2,0.2,0.2,0.8,0.2","2","",""
"","html-keyboard-response","252","369918","0.0-252.0","3FPRZHYEPZTNOKHOKZAQCJD80WBV3A","APVZGZM1RA3AZ","31D0ZWOD0AL5TKHZZFW9PF504XD0AR","","null","<img src=""img/land5.png"" style=""width:200px; border:14px solid green;"">","null","","","","","","","","","",""
"","image-keyboard-response","253","370664","0.0-253.0","3FPRZHYEPZTNOKHOKZAQCJD80WBV3A","APVZGZM1RA3AZ","31D0ZWOD0AL5TKHZZFW9PF504XD0AR","","745","img/land4.png","75","746.2000000029802","2","0","2","2","0.8,0.2,0.2,0.2,0.8,0.2,0.2,0.2,0.8","0.2,0.2,0.8,0.8,0.2,0.2,0.2,0.8,0.2","2","",""
"","html-keyboard-response","254","370966","0.0-254.0","3FPRZHYEPZTNOKHOKZAQCJD80WBV3A","APVZGZM1RA3AZ","31D0ZWOD0AL5TKHZZFW9PF504XD0AR","","null","<img src=""img/land4.png"" style=""width:200px;border:14px solid red;"">","null","","","","","","","","","",""
"","image-keyboard-response","255","372048","0.0-255.0","3FPRZHYEPZTNOKHOKZAQCJD80WBV3A","APVZGZM1RA3AZ","31D0ZWOD0AL5TKHZZFW9PF504XD0AR","","1081.2999999970198","img/land1.png","75","1082.0999999940395","2","1","3","2","0.8,0.2,0.2,0.2,0.8,0.2,0.2,0.2,0.8","0.2,0.2,0.8,0.8,0.2,0.2,0.2,0.8,0.2","2","",""
"","html-keyboard-response","256","372350","0.0-256.0","3FPRZHYEPZTNOKHOKZAQCJD80WBV3A","APVZGZM1RA3AZ","31D0ZWOD0AL5TKHZZFW9PF504XD0AR","","null","<img src=""img/land1.png"" style=""width:200px; border:14px solid green;"">","null","","","","","","","","","",""
"","image-keyboard-response","257","373296","0.0-257.0","3FPRZHYEPZTNOKHOKZAQCJD80WBV3A","APVZGZM1RA3AZ","31D0ZWOD0AL5TKHZZFW9PF504XD0AR","","945.2000000029802","img/land5.png","76","945.9000000059605","3","1","1","2","0.8,0.2,0.2,0.2,0.8,0.2,0.2,0.2,0.8","0.2,0.2,0.8,0.8,0.2,0.2,0.2,0.8,0.2","2","",""
"","html-keyboard-response","258","373598","0.0-258.0","3FPRZHYEPZTNOKHOKZAQCJD80WBV3A","APVZGZM1RA3AZ","31D0ZWOD0AL5TKHZZFW9PF504XD0AR","","null","<img src=""img/land5.png"" style=""width:200px; border:14px solid green;"">","null","","","","","","","","","",""
"","image-keyboard-response","259","374137","0.0-259.0","3FPRZHYEPZTNOKHOKZAQCJD80WBV3A","APVZGZM1RA3AZ","31D0ZWOD0AL5TKHZZFW9PF504XD0AR","","538","img/land5.png","76","538.9000000059605","3","0","1","2","0.8,0.2,0.2,0.2,0.8,0.2,0.2,0.2,0.8","0.2,0.2,0.8,0.8,0.2,0.2,0.2,0.8,0.2","2","",""
"","html-keyboard-response","260","374438","0.0-260.0","3FPRZHYEPZTNOKHOKZAQCJD80WBV3A","APVZGZM1RA3AZ","31D0ZWOD0AL5TKHZZFW9PF504XD0AR","","null","<img src=""img/land5.png"" style=""width:200px;border:14px solid red;"">","null","","","","","","","","","",""
"","image-keyboard-response","261","375400","0.0-261.0","3FPRZHYEPZTNOKHOKZAQCJD80WBV3A","APVZGZM1RA3AZ","31D0ZWOD0AL5TKHZZFW9PF504XD0AR","","960.7999999970198","img/land4.png","74","961.5","1","0","2","2","0.8,0.2,0.2,0.2,0.8,0.2,0.2,0.2,0.8","0.2,0.2,0.8,0.8,0.2,0.2,0.2,0.8,0.2","2","",""
"","html-keyboard-response","262","375702","0.0-262.0","3FPRZHYEPZTNOKHOKZAQCJD80WBV3A","APVZGZM1RA3AZ","31D0ZWOD0AL5TKHZZFW9PF504XD0AR","","null","<img src=""img/land4.png"" style=""width:200px;border:14px solid red;"">","null","","","","","","","","","",""
"","image-keyboard-response","263","376344","0.0-263.0","3FPRZHYEPZTNOKHOKZAQCJD80WBV3A","APVZGZM1RA3AZ","31D0ZWOD0AL5TKHZZFW9PF504XD0AR","","639.8999999910593","img/land4.png","74","641.1000000089407","1","1","2","2","0.8,0.2,0.2,0.2,0.8,0.2,0.2,0.2,0.8","0.2,0.2,0.8,0.8,0.2,0.2,0.2,0.8,0.2","2","",""
"","html-keyboard-response","264","376646","0.0-264.0","3FPRZHYEPZTNOKHOKZAQCJD80WBV3A","APVZGZM1RA3AZ","31D0ZWOD0AL5TKHZZFW9PF504XD0AR","","null","<img src=""img/land4.png"" style=""width:200px; border:14px solid green;"">","null","","","","","","","","","",""
"","image-keyboard-response","265","377337","0.0-265.0","3FPRZHYEPZTNOKHOKZAQCJD80WBV3A","APVZGZM1RA3AZ","31D0ZWOD0AL5TKHZZFW9PF504XD0AR","","690","img/land4.png","74","691.1000000089407","1","0","2","2","0.8,0.2,0.2,0.2,0.8,0.2,0.2,0.2,0.8","0.2,0.2,0.8,0.8,0.2,0.2,0.2,0.8,0.2","2","",""
"","html-keyboard-response","266","377639","0.0-266.0","3FPRZHYEPZTNOKHOKZAQCJD80WBV3A","APVZGZM1RA3AZ","31D0ZWOD0AL5TKHZZFW9PF504XD0AR","","null","<img src=""img/land4.png"" style=""width:200px;border:14px solid red;"">","null","","","","","","","","","",""
"","image-keyboard-response","267","378592","0.0-267.0","3FPRZHYEPZTNOKHOKZAQCJD80WBV3A","APVZGZM1RA3AZ","31D0ZWOD0AL5TKHZZFW9PF504XD0AR","","952.2999999970198","img/land5.png","76","953","3","1","1","2","0.8,0.2,0.2,0.2,0.8,0.2,0.2,0.2,0.8","0.2,0.2,0.8,0.8,0.2,0.2,0.2,0.8,0.2","2","",""
"","html-keyboard-response","268","378893","0.0-268.0","3FPRZHYEPZTNOKHOKZAQCJD80WBV3A","APVZGZM1RA3AZ","31D0ZWOD0AL5TKHZZFW9PF504XD0AR","","null","<img src=""img/land5.png"" style=""width:200px; border:14px solid green;"">","null","","","","","","","","","",""
"","image-keyboard-response","269","379600","0.0-269.0","3FPRZHYEPZTNOKHOKZAQCJD80WBV3A","APVZGZM1RA3AZ","31D0ZWOD0AL5TKHZZFW9PF504XD0AR","","705","img/land5.png","76","706.4000000059605","3","1","1","2","0.8,0.2,0.2,0.2,0.8,0.2,0.2,0.2,0.8","0.2,0.2,0.8,0.8,0.2,0.2,0.2,0.8,0.2","2","",""
"","html-keyboard-response","270","379902","0.0-270.0","3FPRZHYEPZTNOKHOKZAQCJD80WBV3A","APVZGZM1RA3AZ","31D0ZWOD0AL5TKHZZFW9PF504XD0AR","","null","<img src=""img/land5.png"" style=""width:200px; border:14px solid green;"">","null","","","","","","","","","",""
"","image-keyboard-response","271","380416","0.0-271.0","3FPRZHYEPZTNOKHOKZAQCJD80WBV3A","APVZGZM1RA3AZ","31D0ZWOD0AL5TKHZZFW9PF504XD0AR","","512.2000000029802","img/land5.png","76","513.1000000089407","3","1","1","2","0.8,0.2,0.2,0.2,0.8,0.2,0.2,0.2,0.8","0.2,0.2,0.8,0.8,0.2,0.2,0.2,0.8,0.2","2","",""
"","html-keyboard-response","272","380718","0.0-272.0","3FPRZHYEPZTNOKHOKZAQCJD80WBV3A","APVZGZM1RA3AZ","31D0ZWOD0AL5TKHZZFW9PF504XD0AR","","null","<img src=""img/land5.png"" style=""width:200px; border:14px solid green;"">","null","","","","","","","","","",""
"","image-keyboard-response","273","381224","0.0-273.0","3FPRZHYEPZTNOKHOKZAQCJD80WBV3A","APVZGZM1RA3AZ","31D0ZWOD0AL5TKHZZFW9PF504XD0AR","","503.90000000596046","img/land5.png","76","504.79999999701977","3","1","1","2","0.8,0.2,0.2,0.2,0.8,0.2,0.2,0.2,0.8","0.2,0.2,0.8,0.8,0.2,0.2,0.2,0.8,0.2","2","",""
"","html-keyboard-response","274","381526","0.0-274.0","3FPRZHYEPZTNOKHOKZAQCJD80WBV3A","APVZGZM1RA3AZ","31D0ZWOD0AL5TKHZZFW9PF504XD0AR","","null","<img src=""img/land5.png"" style=""width:200px; border:14px solid green;"">","null","","","","","","","","","",""
"","image-keyboard-response","275","381990","0.0-275.0","3FPRZHYEPZTNOKHOKZAQCJD80WBV3A","APVZGZM1RA3AZ","31D0ZWOD0AL5TKHZZFW9PF504XD0AR","","463","img/land5.png","76","463.8999999910593","3","1","1","2","0.8,0.2,0.2,0.2,0.8,0.2,0.2,0.2,0.8","0.2,0.2,0.8,0.8,0.2,0.2,0.2,0.8,0.2","2","",""
"","html-keyboard-response","276","382293","0.0-276.0","3FPRZHYEPZTNOKHOKZAQCJD80WBV3A","APVZGZM1RA3AZ","31D0ZWOD0AL5TKHZZFW9PF504XD0AR","","null","<img src=""img/land5.png"" style=""width:200px; border:14px solid green;"">","null","","","","","","","","","",""
"","image-keyboard-response","277","382775","0.0-277.0","3FPRZHYEPZTNOKHOKZAQCJD80WBV3A","APVZGZM1RA3AZ","31D0ZWOD0AL5TKHZZFW9PF504XD0AR","","480.20000000298023","img/land5.png","76","481.20000000298023","3","1","1","2","0.8,0.2,0.2,0.2,0.8,0.2,0.2,0.2,0.8","0.2,0.2,0.8,0.8,0.2,0.2,0.2,0.8,0.2","2","",""
"","html-keyboard-response","278","383076","0.0-278.0","3FPRZHYEPZTNOKHOKZAQCJD80WBV3A","APVZGZM1RA3AZ","31D0ZWOD0AL5TKHZZFW9PF504XD0AR","","null","<img src=""img/land5.png"" style=""width:200px; border:14px solid green;"">","null","","","","","","","","","",""
"","image-keyboard-response","279","383806","0.0-279.0","3FPRZHYEPZTNOKHOKZAQCJD80WBV3A","APVZGZM1RA3AZ","31D0ZWOD0AL5TKHZZFW9PF504XD0AR","","729.5","img/land1.png","75","730.3000000119209","2","0","3","2","0.8,0.2,0.2,0.2,0.8,0.2,0.2,0.2,0.8","0.2,0.2,0.8,0.8,0.2,0.2,0.2,0.8,0.2","2","",""
"","html-keyboard-response","280","384109","0.0-280.0","3FPRZHYEPZTNOKHOKZAQCJD80WBV3A","APVZGZM1RA3AZ","31D0ZWOD0AL5TKHZZFW9PF504XD0AR","","null","<img src=""img/land1.png"" style=""width:200px;border:14px solid red;"">","null","","","","","","","","","",""
"","image-keyboard-response","281","385304","0.0-281.0","3FPRZHYEPZTNOKHOKZAQCJD80WBV3A","APVZGZM1RA3AZ","31D0ZWOD0AL5TKHZZFW9PF504XD0AR","","1194.199999988079","img/land5.png","76","1195","3","1","1","2","0.8,0.2,0.2,0.2,0.8,0.2,0.2,0.2,0.8","0.2,0.2,0.8,0.8,0.2,0.2,0.2,0.8,0.2","2","",""
"","html-keyboard-response","282","385606","0.0-282.0","3FPRZHYEPZTNOKHOKZAQCJD80WBV3A","APVZGZM1RA3AZ","31D0ZWOD0AL5TKHZZFW9PF504XD0AR","","null","<img src=""img/land5.png"" style=""width:200px; border:14px solid green;"">","null","","","","","","","","","",""
"","image-keyboard-response","283","386167","0.0-283.0","3FPRZHYEPZTNOKHOKZAQCJD80WBV3A","APVZGZM1RA3AZ","31D0ZWOD0AL5TKHZZFW9PF504XD0AR","","560.2000000029802","img/land5.png","76","561.3999999910593","3","1","1","2","0.8,0.2,0.2,0.2,0.8,0.2,0.2,0.2,0.8","0.2,0.2,0.8,0.8,0.2,0.2,0.2,0.8,0.2","2","",""
"","html-keyboard-response","284","386469","0.0-284.0","3FPRZHYEPZTNOKHOKZAQCJD80WBV3A","APVZGZM1RA3AZ","31D0ZWOD0AL5TKHZZFW9PF504XD0AR","","null","<img src=""img/land5.png"" style=""width:200px; border:14px solid green;"">","null","","","","","","","","","",""
"","image-keyboard-response","285","387447","0.0-285.0","3FPRZHYEPZTNOKHOKZAQCJD80WBV3A","APVZGZM1RA3AZ","31D0ZWOD0AL5TKHZZFW9PF504XD0AR","","977.6000000089407","img/land1.png","74","978.0999999940395","1","0","3","2","0.8,0.2,0.2,0.2,0.8,0.2,0.2,0.2,0.8","0.2,0.2,0.8,0.8,0.2,0.2,0.2,0.8,0.2","2","",""
"","html-keyboard-response","286","387749","0.0-286.0","3FPRZHYEPZTNOKHOKZAQCJD80WBV3A","APVZGZM1RA3AZ","31D0ZWOD0AL5TKHZZFW9PF504XD0AR","","null","<img src=""img/land1.png"" style=""width:200px;border:14px solid red;"">","null","","","","","","","","","",""
"","image-keyboard-response","287","388623","0.0-287.0","3FPRZHYEPZTNOKHOKZAQCJD80WBV3A","APVZGZM1RA3AZ","31D0ZWOD0AL5TKHZZFW9PF504XD0AR","","873.5999999940395","img/land4.png","75","874.1999999880791","2","0","2","2","0.8,0.2,0.2,0.2,0.8,0.2,0.2,0.2,0.8","0.2,0.2,0.8,0.8,0.2,0.2,0.2,0.8,0.2","2","",""
"","html-keyboard-response","288","388925","0.0-288.0","3FPRZHYEPZTNOKHOKZAQCJD80WBV3A","APVZGZM1RA3AZ","31D0ZWOD0AL5TKHZZFW9PF504XD0AR","","null","<img src=""img/land4.png"" style=""width:200px;border:14px solid red;"">","null","","","","","","","","","",""
"","image-keyboard-response","289","389864","0.0-289.0","3FPRZHYEPZTNOKHOKZAQCJD80WBV3A","APVZGZM1RA3AZ","31D0ZWOD0AL5TKHZZFW9PF504XD0AR","","937","img/land5.png","76","938.4000000059605","3","1","1","2","0.8,0.2,0.2,0.2,0.8,0.2,0.2,0.2,0.8","0.2,0.2,0.8,0.8,0.2,0.2,0.2,0.8,0.2","2","",""
"","html-keyboard-response","290","390166","0.0-290.0","3FPRZHYEPZTNOKHOKZAQCJD80WBV3A","APVZGZM1RA3AZ","31D0ZWOD0AL5TKHZZFW9PF504XD0AR","","null","<img src=""img/land5.png"" style=""width:200px; border:14px solid green;"">","null","","","","","","","","","",""
"","image-keyboard-response","291","390680","0.0-291.0","3FPRZHYEPZTNOKHOKZAQCJD80WBV3A","APVZGZM1RA3AZ","31D0ZWOD0AL5TKHZZFW9PF504XD0AR","","512.5999999940395","img/land5.png","76","513.8000000119209","3","1","1","2","0.8,0.2,0.2,0.2,0.8,0.2,0.2,0.2,0.8","0.2,0.2,0.8,0.8,0.2,0.2,0.2,0.8,0.2","2","",""
"","html-keyboard-response","292","390982","0.0-292.0","3FPRZHYEPZTNOKHOKZAQCJD80WBV3A","APVZGZM1RA3AZ","31D0ZWOD0AL5TKHZZFW9PF504XD0AR","","null","<img src=""img/land5.png"" style=""width:200px; border:14px solid green;"">","null","","","","","","","","","",""
"","image-keyboard-response","293","392423","0.0-293.0","3FPRZHYEPZTNOKHOKZAQCJD80WBV3A","APVZGZM1RA3AZ","31D0ZWOD0AL5TKHZZFW9PF504XD0AR","","1440.7999999970198","img/land4.png","74","1441.5","1","0","2","2","0.8,0.2,0.2,0.2,0.8,0.2,0.2,0.2,0.8","0.2,0.2,0.8,0.8,0.2,0.2,0.2,0.8,0.2","2","",""
"","html-keyboard-response","294","392725","0.0-294.0","3FPRZHYEPZTNOKHOKZAQCJD80WBV3A","APVZGZM1RA3AZ","31D0ZWOD0AL5TKHZZFW9PF504XD0AR","","null","<img src=""img/land4.png"" style=""width:200px;border:14px solid red;"">","null","","","","","","","","","",""
"","image-keyboard-response","295","393815","0.0-295.0","3FPRZHYEPZTNOKHOKZAQCJD80WBV3A","APVZGZM1RA3AZ","31D0ZWOD0AL5TKHZZFW9PF504XD0AR","","1088.5","img/land5.png","76","1089.7000000029802","3","1","1","2","0.8,0.2,0.2,0.2,0.8,0.2,0.2,0.2,0.8","0.2,0.2,0.8,0.8,0.2,0.2,0.2,0.8,0.2","2","",""
"","html-keyboard-response","296","394117","0.0-296.0","3FPRZHYEPZTNOKHOKZAQCJD80WBV3A","APVZGZM1RA3AZ","31D0ZWOD0AL5TKHZZFW9PF504XD0AR","","null","<img src=""img/land5.png"" style=""width:200px; border:14px solid green;"">","null","","","","","","","","","",""
"","image-keyboard-response","297","395224","0.0-297.0","3FPRZHYEPZTNOKHOKZAQCJD80WBV3A","APVZGZM1RA3AZ","31D0ZWOD0AL5TKHZZFW9PF504XD0AR","","1105.6000000089407","img/land4.png","75","1106.8999999910593","2","1","2","2","0.8,0.2,0.2,0.2,0.8,0.2,0.2,0.2,0.8","0.2,0.2,0.8,0.8,0.2,0.2,0.2,0.8,0.2","2","",""
"","html-keyboard-response","298","395527","0.0-298.0","3FPRZHYEPZTNOKHOKZAQCJD80WBV3A","APVZGZM1RA3AZ","31D0ZWOD0AL5TKHZZFW9PF504XD0AR","","null","<img src=""img/land4.png"" style=""width:200px; border:14px solid green;"">","null","","","","","","","","","",""
"","image-keyboard-response","299","396432","0.0-299.0","3FPRZHYEPZTNOKHOKZAQCJD80WBV3A","APVZGZM1RA3AZ","31D0ZWOD0AL5TKHZZFW9PF504XD0AR","","903.3000000119209","img/land5.png","76","904.5999999940395","3","0","1","2","0.8,0.2,0.2,0.2,0.8,0.2,0.2,0.2,0.8","0.2,0.2,0.8,0.8,0.2,0.2,0.2,0.8,0.2","2","",""
"","html-keyboard-response","300","396734","0.0-300.0","3FPRZHYEPZTNOKHOKZAQCJD80WBV3A","APVZGZM1RA3AZ","31D0ZWOD0AL5TKHZZFW9PF504XD0AR","","null","<img src=""img/land5.png"" style=""width:200px;border:14px solid red;"">","null","","","","","","","","","",""
"","image-keyboard-response","301","397504","0.0-301.0","3FPRZHYEPZTNOKHOKZAQCJD80WBV3A","APVZGZM1RA3AZ","31D0ZWOD0AL5TKHZZFW9PF504XD0AR","","767.9000000059605","img/land4.png","75","769.2000000029802","2","0","2","2","0.8,0.2,0.2,0.2,0.8,0.2,0.2,0.2,0.8","0.2,0.2,0.8,0.8,0.2,0.2,0.2,0.8,0.2","2","",""
"","html-keyboard-response","302","397805","0.0-302.0","3FPRZHYEPZTNOKHOKZAQCJD80WBV3A","APVZGZM1RA3AZ","31D0ZWOD0AL5TKHZZFW9PF504XD0AR","","null","<img src=""img/land4.png"" style=""width:200px;border:14px solid red;"">","null","","","","","","","","","",""
"","image-keyboard-response","303","398495","0.0-303.0","3FPRZHYEPZTNOKHOKZAQCJD80WBV3A","APVZGZM1RA3AZ","31D0ZWOD0AL5TKHZZFW9PF504XD0AR","","688.4000000059605","img/land5.png","75","689.1999999880791","2","0","1","2","0.8,0.2,0.2,0.2,0.8,0.2,0.2,0.2,0.8","0.2,0.2,0.8,0.8,0.2,0.2,0.2,0.8,0.2","2","",""
"","html-keyboard-response","304","398796","0.0-304.0","3FPRZHYEPZTNOKHOKZAQCJD80WBV3A","APVZGZM1RA3AZ","31D0ZWOD0AL5TKHZZFW9PF504XD0AR","","null","<img src=""img/land5.png"" style=""width:200px;border:14px solid red;"">","null","","","","","","","","","",""
"","image-keyboard-response","305","399306","0.0-305.0","3FPRZHYEPZTNOKHOKZAQCJD80WBV3A","APVZGZM1RA3AZ","31D0ZWOD0AL5TKHZZFW9PF504XD0AR","","509.29999999701977","img/land4.png","76","509.70000000298023","3","0","2","2","0.8,0.2,0.2,0.2,0.8,0.2,0.2,0.2,0.8","0.2,0.2,0.8,0.8,0.2,0.2,0.2,0.8,0.2","2","",""
"","html-keyboard-response","306","399607","0.0-306.0","3FPRZHYEPZTNOKHOKZAQCJD80WBV3A","APVZGZM1RA3AZ","31D0ZWOD0AL5TKHZZFW9PF504XD0AR","","null","<img src=""img/land4.png"" style=""width:200px;border:14px solid red;"">","null","","","","","","","","","",""
"","image-keyboard-response","307","400600","0.0-307.0","3FPRZHYEPZTNOKHOKZAQCJD80WBV3A","APVZGZM1RA3AZ","31D0ZWOD0AL5TKHZZFW9PF504XD0AR","","991.3000000119209","img/land1.png","75","992.4000000059605","2","1","3","2","0.8,0.2,0.2,0.2,0.8,0.2,0.2,0.2,0.8","0.2,0.2,0.8,0.8,0.2,0.2,0.2,0.8,0.2","2","",""
"","html-keyboard-response","308","400902","0.0-308.0","3FPRZHYEPZTNOKHOKZAQCJD80WBV3A","APVZGZM1RA3AZ","31D0ZWOD0AL5TKHZZFW9PF504XD0AR","","null","<img src=""img/land1.png"" style=""width:200px; border:14px solid green;"">","null","","","","","","","","","",""
"","image-keyboard-response","309","401936","0.0-309.0","3FPRZHYEPZTNOKHOKZAQCJD80WBV3A","APVZGZM1RA3AZ","31D0ZWOD0AL5TKHZZFW9PF504XD0AR","","1032.5","img/land5.png","76","1034.5999999940395","3","1","1","2","0.8,0.2,0.2,0.2,0.8,0.2,0.2,0.2,0.8","0.2,0.2,0.8,0.8,0.2,0.2,0.2,0.8,0.2","2","",""
"","html-keyboard-response","310","402239","0.0-310.0","3FPRZHYEPZTNOKHOKZAQCJD80WBV3A","APVZGZM1RA3AZ","31D0ZWOD0AL5TKHZZFW9PF504XD0AR","","null","<img src=""img/land5.png"" style=""width:200px; border:14px solid green;"">","null","","","","","","","","","",""
"","image-keyboard-response","311","402967","0.0-311.0","3FPRZHYEPZTNOKHOKZAQCJD80WBV3A","APVZGZM1RA3AZ","31D0ZWOD0AL5TKHZZFW9PF504XD0AR","","726.5","img/land5.png","76","727.4000000059605","3","1","1","2","0.8,0.2,0.2,0.2,0.8,0.2,0.2,0.2,0.8","0.2,0.2,0.8,0.8,0.2,0.2,0.2,0.8,0.2","2","",""
"","html-keyboard-response","312","403268","0.0-312.0","3FPRZHYEPZTNOKHOKZAQCJD80WBV3A","APVZGZM1RA3AZ","31D0ZWOD0AL5TKHZZFW9PF504XD0AR","","null","<img src=""img/land5.png"" style=""width:200px; border:14px solid green;"">","null","","","","","","","","","",""
"","image-keyboard-response","313","403744","0.0-313.0","3FPRZHYEPZTNOKHOKZAQCJD80WBV3A","APVZGZM1RA3AZ","31D0ZWOD0AL5TKHZZFW9PF504XD0AR","","475.40000000596046","img/land5.png","76","476","3","1","1","2","0.8,0.2,0.2,0.2,0.8,0.2,0.2,0.2,0.8","0.2,0.2,0.8,0.8,0.2,0.2,0.2,0.8,0.2","2","",""
"","html-keyboard-response","314","404047","0.0-314.0","3FPRZHYEPZTNOKHOKZAQCJD80WBV3A","APVZGZM1RA3AZ","31D0ZWOD0AL5TKHZZFW9PF504XD0AR","","null","<img src=""img/land5.png"" style=""width:200px; border:14px solid green;"">","null","","","","","","","","","",""
"","image-keyboard-response","315","405415","0.0-315.0","3FPRZHYEPZTNOKHOKZAQCJD80WBV3A","APVZGZM1RA3AZ","31D0ZWOD0AL5TKHZZFW9PF504XD0AR","","1367.300000011921","img/land1.png","74","1368.3999999910593","1","0","3","2","0.8,0.2,0.2,0.2,0.8,0.2,0.2,0.2,0.8","0.2,0.2,0.8,0.8,0.2,0.2,0.2,0.8,0.2","2","",""
"","html-keyboard-response","316","405717","0.0-316.0","3FPRZHYEPZTNOKHOKZAQCJD80WBV3A","APVZGZM1RA3AZ","31D0ZWOD0AL5TKHZZFW9PF504XD0AR","","null","<img src=""img/land1.png"" style=""width:200px;border:14px solid red;"">","null","","","","","","","","","",""
"","image-keyboard-response","317","407481","0.0-317.0","3FPRZHYEPZTNOKHOKZAQCJD80WBV3A","APVZGZM1RA3AZ","31D0ZWOD0AL5TKHZZFW9PF504XD0AR","","1762.4000000059605","img/land4.png","75","1763.4000000059605","2","1","2","2","0.8,0.2,0.2,0.2,0.8,0.2,0.2,0.2,0.8","0.2,0.2,0.8,0.8,0.2,0.2,0.2,0.8,0.2","2","",""
"","html-keyboard-response","318","407782","0.0-318.0","3FPRZHYEPZTNOKHOKZAQCJD80WBV3A","APVZGZM1RA3AZ","31D0ZWOD0AL5TKHZZFW9PF504XD0AR","","null","<img src=""img/land4.png"" style=""width:200px; border:14px solid green;"">","null","","","","","","","","","",""
"","image-keyboard-response","319","408558","0.0-319.0","3FPRZHYEPZTNOKHOKZAQCJD80WBV3A","APVZGZM1RA3AZ","31D0ZWOD0AL5TKHZZFW9PF504XD0AR","","774.2999999970198","img/land5.png","76","775.2999999970198","3","1","1","2","0.8,0.2,0.2,0.2,0.8,0.2,0.2,0.2,0.8","0.2,0.2,0.8,0.8,0.2,0.2,0.2,0.8,0.2","2","",""
"","html-keyboard-response","320","408859","0.0-320.0","3FPRZHYEPZTNOKHOKZAQCJD80WBV3A","APVZGZM1RA3AZ","31D0ZWOD0AL5TKHZZFW9PF504XD0AR","","null","<img src=""img/land5.png"" style=""width:200px; border:14px solid green;"">","null","","","","","","","","","",""
"","image-keyboard-response","321","409720","0.0-321.0","3FPRZHYEPZTNOKHOKZAQCJD80WBV3A","APVZGZM1RA3AZ","31D0ZWOD0AL5TKHZZFW9PF504XD0AR","","859.0999999940395","img/land1.png","75","860","2","0","3","2","0.8,0.2,0.2,0.2,0.8,0.2,0.2,0.2,0.8","0.2,0.2,0.8,0.8,0.2,0.2,0.2,0.8,0.2","2","",""
"","html-keyboard-response","322","410022","0.0-322.0","3FPRZHYEPZTNOKHOKZAQCJD80WBV3A","APVZGZM1RA3AZ","31D0ZWOD0AL5TKHZZFW9PF504XD0AR","","null","<img src=""img/land1.png"" style=""width:200px;border:14px solid red;"">","null","","","","","","","","","",""
"","image-keyboard-response","323","411249","0.0-323.0","3FPRZHYEPZTNOKHOKZAQCJD80WBV3A","APVZGZM1RA3AZ","31D0ZWOD0AL5TKHZZFW9PF504XD0AR","","1225.5999999940395","img/land5.png","76","1226.7000000029802","3","1","1","2","0.8,0.2,0.2,0.2,0.8,0.2,0.2,0.2,0.8","0.2,0.2,0.8,0.8,0.2,0.2,0.2,0.8,0.2","2","",""
"","html-keyboard-response","324","411551","0.0-324.0","3FPRZHYEPZTNOKHOKZAQCJD80WBV3A","APVZGZM1RA3AZ","31D0ZWOD0AL5TKHZZFW9PF504XD0AR","","null","<img src=""img/land5.png"" style=""width:200px; border:14px solid green;"">","null","","","","","","","","","",""
"","image-keyboard-response","325","412176","0.0-325.0","3FPRZHYEPZTNOKHOKZAQCJD80WBV3A","APVZGZM1RA3AZ","31D0ZWOD0AL5TKHZZFW9PF504XD0AR","","623.9000000059605","img/land5.png","76","624.9000000059605","3","1","1","2","0.8,0.2,0.2,0.2,0.8,0.2,0.2,0.2,0.8","0.2,0.2,0.8,0.8,0.2,0.2,0.2,0.8,0.2","2","",""
"","html-keyboard-response","326","412478","0.0-326.0","3FPRZHYEPZTNOKHOKZAQCJD80WBV3A","APVZGZM1RA3AZ","31D0ZWOD0AL5TKHZZFW9PF504XD0AR","","null","<img src=""img/land5.png"" style=""width:200px; border:14px solid green;"">","null","","","","","","","","","",""
"","image-keyboard-response","327","413160","0.0-327.0","3FPRZHYEPZTNOKHOKZAQCJD80WBV3A","APVZGZM1RA3AZ","31D0ZWOD0AL5TKHZZFW9PF504XD0AR","","680.7999999970198","img/land5.png","76","681.6999999880791","3","1","1","2","0.8,0.2,0.2,0.2,0.8,0.2,0.2,0.2,0.8","0.2,0.2,0.8,0.8,0.2,0.2,0.2,0.8,0.2","2","",""
"","html-keyboard-response","328","413462","0.0-328.0","3FPRZHYEPZTNOKHOKZAQCJD80WBV3A","APVZGZM1RA3AZ","31D0ZWOD0AL5TKHZZFW9PF504XD0AR","","null","<img src=""img/land5.png"" style=""width:200px; border:14px solid green;"">","null","","","","","","","","","",""
"","image-keyboard-response","329","413967","0.0-329.0","3FPRZHYEPZTNOKHOKZAQCJD80WBV3A","APVZGZM1RA3AZ","31D0ZWOD0AL5TKHZZFW9PF504XD0AR","","504","img/land5.png","76","505","3","0","1","2","0.8,0.2,0.2,0.2,0.8,0.2,0.2,0.2,0.8","0.2,0.2,0.8,0.8,0.2,0.2,0.2,0.8,0.2","2","",""
"","html-keyboard-response","330","414268","0.0-330.0","3FPRZHYEPZTNOKHOKZAQCJD80WBV3A","APVZGZM1RA3AZ","31D0ZWOD0AL5TKHZZFW9PF504XD0AR","","null","<img src=""img/land5.png"" style=""width:200px;border:14px solid red;"">","null","","","","","","","","","",""
"","image-keyboard-response","331","414919","0.0-331.0","3FPRZHYEPZTNOKHOKZAQCJD80WBV3A","APVZGZM1RA3AZ","31D0ZWOD0AL5TKHZZFW9PF504XD0AR","","650","img/land5.png","76","650.9000000059605","3","1","1","2","0.8,0.2,0.2,0.2,0.8,0.2,0.2,0.2,0.8","0.2,0.2,0.8,0.8,0.2,0.2,0.2,0.8,0.2","2","",""
"","html-keyboard-response","332","415221","0.0-332.0","3FPRZHYEPZTNOKHOKZAQCJD80WBV3A","APVZGZM1RA3AZ","31D0ZWOD0AL5TKHZZFW9PF504XD0AR","","null","<img src=""img/land5.png"" style=""width:200px; border:14px solid green;"">","null","","","","","","","","","",""
"","image-keyboard-response","333","415791","0.0-333.0","3FPRZHYEPZTNOKHOKZAQCJD80WBV3A","APVZGZM1RA3AZ","31D0ZWOD0AL5TKHZZFW9PF504XD0AR","","568.6000000089407","img/land5.png","76","569.5","3","1","1","2","0.8,0.2,0.2,0.2,0.8,0.2,0.2,0.2,0.8","0.2,0.2,0.8,0.8,0.2,0.2,0.2,0.8,0.2","2","",""
"","html-keyboard-response","334","416092","0.0-334.0","3FPRZHYEPZTNOKHOKZAQCJD80WBV3A","APVZGZM1RA3AZ","31D0ZWOD0AL5TKHZZFW9PF504XD0AR","","null","<img src=""img/land5.png"" style=""width:200px; border:14px solid green;"">","null","","","","","","","","","",""
"","image-keyboard-response","335","416528","0.0-335.0","3FPRZHYEPZTNOKHOKZAQCJD80WBV3A","APVZGZM1RA3AZ","31D0ZWOD0AL5TKHZZFW9PF504XD0AR","","434.29999999701977","img/land5.png","76","435.40000000596046","3","1","1","2","0.8,0.2,0.2,0.2,0.8,0.2,0.2,0.2,0.8","0.2,0.2,0.8,0.8,0.2,0.2,0.2,0.8,0.2","2","",""
"","html-keyboard-response","336","416830","0.0-336.0","3FPRZHYEPZTNOKHOKZAQCJD80WBV3A","APVZGZM1RA3AZ","31D0ZWOD0AL5TKHZZFW9PF504XD0AR","","null","<img src=""img/land5.png"" style=""width:200px; border:14px solid green;"">","null","","","","","","","","","",""
"","image-keyboard-response","337","417264","0.0-337.0","3FPRZHYEPZTNOKHOKZAQCJD80WBV3A","APVZGZM1RA3AZ","31D0ZWOD0AL5TKHZZFW9PF504XD0AR","","433.5","img/land5.png","76","434.09999999403954","3","0","1","2","0.8,0.2,0.2,0.2,0.8,0.2,0.2,0.2,0.8","0.2,0.2,0.8,0.8,0.2,0.2,0.2,0.8,0.2","2","",""
"","html-keyboard-response","338","417566","0.0-338.0","3FPRZHYEPZTNOKHOKZAQCJD80WBV3A","APVZGZM1RA3AZ","31D0ZWOD0AL5TKHZZFW9PF504XD0AR","","null","<img src=""img/land5.png"" style=""width:200px;border:14px solid red;"">","null","","","","","","","","","",""
"","image-keyboard-response","339","418480","0.0-339.0","3FPRZHYEPZTNOKHOKZAQCJD80WBV3A","APVZGZM1RA3AZ","31D0ZWOD0AL5TKHZZFW9PF504XD0AR","","913.2000000029802","img/land1.png","74","914","1","0","3","2","0.8,0.2,0.2,0.2,0.8,0.2,0.2,0.2,0.8","0.2,0.2,0.8,0.8,0.2,0.2,0.2,0.8,0.2","2","",""
"","html-keyboard-response","340","418783","0.0-340.0","3FPRZHYEPZTNOKHOKZAQCJD80WBV3A","APVZGZM1RA3AZ","31D0ZWOD0AL5TKHZZFW9PF504XD0AR","","null","<img src=""img/land1.png"" style=""width:200px;border:14px solid red;"">","null","","","","","","","","","",""
"","image-keyboard-response","341","419523","0.0-341.0","3FPRZHYEPZTNOKHOKZAQCJD80WBV3A","APVZGZM1RA3AZ","31D0ZWOD0AL5TKHZZFW9PF504XD0AR","","738.9000000059605","img/land4.png","75","739.8999999910593","2","0","2","2","0.8,0.2,0.2,0.2,0.8,0.2,0.2,0.2,0.8","0.2,0.2,0.8,0.8,0.2,0.2,0.2,0.8,0.2","2","",""
"","html-keyboard-response","342","419825","0.0-342.0","3FPRZHYEPZTNOKHOKZAQCJD80WBV3A","APVZGZM1RA3AZ","31D0ZWOD0AL5TKHZZFW9PF504XD0AR","","null","<img src=""img/land4.png"" style=""width:200px;border:14px solid red;"">","null","","","","","","","","","",""
"","image-keyboard-response","343","420872","0.0-343.0","3FPRZHYEPZTNOKHOKZAQCJD80WBV3A","APVZGZM1RA3AZ","31D0ZWOD0AL5TKHZZFW9PF504XD0AR","","1045.2000000029802","img/land5.png","76","1046.4000000059605","3","1","1","2","0.8,0.2,0.2,0.2,0.8,0.2,0.2,0.2,0.8","0.2,0.2,0.8,0.8,0.2,0.2,0.2,0.8,0.2","2","",""
"","html-keyboard-response","344","421173","0.0-344.0","3FPRZHYEPZTNOKHOKZAQCJD80WBV3A","APVZGZM1RA3AZ","31D0ZWOD0AL5TKHZZFW9PF504XD0AR","","null","<img src=""img/land5.png"" style=""width:200px; border:14px solid green;"">","null","","","","","","","","","",""
"","image-keyboard-response","345","421703","0.0-345.0","3FPRZHYEPZTNOKHOKZAQCJD80WBV3A","APVZGZM1RA3AZ","31D0ZWOD0AL5TKHZZFW9PF504XD0AR","","528.5","img/land5.png","76","529.3999999910593","3","1","1","2","0.8,0.2,0.2,0.2,0.8,0.2,0.2,0.2,0.8","0.2,0.2,0.8,0.8,0.2,0.2,0.2,0.8,0.2","2","",""
"","html-keyboard-response","346","422005","0.0-346.0","3FPRZHYEPZTNOKHOKZAQCJD80WBV3A","APVZGZM1RA3AZ","31D0ZWOD0AL5TKHZZFW9PF504XD0AR","","null","<img src=""img/land5.png"" style=""width:200px; border:14px solid green;"">","null","","","","","","","","","",""
"","image-keyboard-response","347","422448","0.0-347.0","3FPRZHYEPZTNOKHOKZAQCJD80WBV3A","APVZGZM1RA3AZ","31D0ZWOD0AL5TKHZZFW9PF504XD0AR","","441.6000000089407","img/land5.png","76","442.70000000298023","3","1","1","2","0.8,0.2,0.2,0.2,0.8,0.2,0.2,0.2,0.8","0.2,0.2,0.8,0.8,0.2,0.2,0.2,0.8,0.2","2","",""
"","html-keyboard-response","348","422750","0.0-348.0","3FPRZHYEPZTNOKHOKZAQCJD80WBV3A","APVZGZM1RA3AZ","31D0ZWOD0AL5TKHZZFW9PF504XD0AR","","null","<img src=""img/land5.png"" style=""width:200px; border:14px solid green;"">","null","","","","","","","","","",""
"","image-keyboard-response","349","423648","0.0-349.0","3FPRZHYEPZTNOKHOKZAQCJD80WBV3A","APVZGZM1RA3AZ","31D0ZWOD0AL5TKHZZFW9PF504XD0AR","","896.9000000059605","img/land1.png","74","898.2000000029802","1","0","3","2","0.8,0.2,0.2,0.2,0.8,0.2,0.2,0.2,0.8","0.2,0.2,0.8,0.8,0.2,0.2,0.2,0.8,0.2","2","",""
"","html-keyboard-response","350","423952","0.0-350.0","3FPRZHYEPZTNOKHOKZAQCJD80WBV3A","APVZGZM1RA3AZ","31D0ZWOD0AL5TKHZZFW9PF504XD0AR","","null","<img src=""img/land1.png"" style=""width:200px;border:14px solid red;"">","null","","","","","","","","","",""
"","image-keyboard-response","351","424840","0.0-351.0","3FPRZHYEPZTNOKHOKZAQCJD80WBV3A","APVZGZM1RA3AZ","31D0ZWOD0AL5TKHZZFW9PF504XD0AR","","886.5999999940395","img/land1.png","74","887.9000000059605","1","0","3","2","0.8,0.2,0.2,0.2,0.8,0.2,0.2,0.2,0.8","0.2,0.2,0.8,0.8,0.2,0.2,0.2,0.8,0.2","2","",""
"","html-keyboard-response","352","425142","0.0-352.0","3FPRZHYEPZTNOKHOKZAQCJD80WBV3A","APVZGZM1RA3AZ","31D0ZWOD0AL5TKHZZFW9PF504XD0AR","","null","<img src=""img/land1.png"" style=""width:200px;border:14px solid red;"">","null","","","","","","","","","",""
"","image-keyboard-response","353","427064","0.0-353.0","3FPRZHYEPZTNOKHOKZAQCJD80WBV3A","APVZGZM1RA3AZ","31D0ZWOD0AL5TKHZZFW9PF504XD0AR","","1919.7999999970198","img/land4.png","74","1921.2000000029802","1","0","2","2","0.8,0.2,0.2,0.2,0.8,0.2,0.2,0.2,0.8","0.2,0.2,0.8,0.8,0.2,0.2,0.2,0.8,0.2","2","",""
"","html-keyboard-response","354","427373","0.0-354.0","3FPRZHYEPZTNOKHOKZAQCJD80WBV3A","APVZGZM1RA3AZ","31D0ZWOD0AL5TKHZZFW9PF504XD0AR","","null","<img src=""img/land4.png"" style=""width:200px;border:14px solid red;"">","null","","","","","","","","","",""
"","image-keyboard-response","355","427976","0.0-355.0","3FPRZHYEPZTNOKHOKZAQCJD80WBV3A","APVZGZM1RA3AZ","31D0ZWOD0AL5TKHZZFW9PF504XD0AR","","601.7000000029802","img/land5.png","74","602.7999999970198","1","1","1","2","0.8,0.2,0.2,0.2,0.8,0.2,0.2,0.2,0.8","0.2,0.2,0.8,0.8,0.2,0.2,0.2,0.8,0.2","2","",""
"","html-keyboard-response","356","428278","0.0-356.0","3FPRZHYEPZTNOKHOKZAQCJD80WBV3A","APVZGZM1RA3AZ","31D0ZWOD0AL5TKHZZFW9PF504XD0AR","","null","<img src=""img/land5.png"" style=""width:200px; border:14px solid green;"">","null","","","","","","","","","",""
