"success","trial_type","trial_index","time_elapsed","internal_node_id","assignmentID","mturkID","hitID","view_history","rt","stimulus","key_press","reactionTime","a","r","s","cond","reward_cond","reward_cond_actual","reward_matrix_idx","responses","question_order"
"true","fullscreen","0","4474","0.0-0.0","3TE3O85731U6AV4O7FRBSCJD84RR2E","AQ9Y6WD8O72ZC","3S1L4CQSFXRWQOWP2XFUSMS4AZDFAL","","","","","","","","","","","","","",""
"","instructions","1","26997","0.0-1.0","3TE3O85731U6AV4O7FRBSCJD84RR2E","AQ9Y6WD8O72ZC","3S1L4CQSFXRWQOWP2XFUSMS4AZDFAL","[{""page_index"":0,""viewing_time"":2416.4000000059605},{""page_index"":1,""viewing_time"":8162.200000017881},{""page_index"":2,""viewing_time"":2471.199999988079},{""page_index"":3,""viewing_time"":3463.699999988079},{""page_index"":4,""viewing_time"":1807.7000000178814},{""page_index"":5,""viewing_time"":2493.0999999940395},{""page_index"":6,""viewing_time"":1707.300000011921}]","22521.90000000596","","","","","","","","","","","",""
"","image-keyboard-response","2","28072","0.0-2.0","3TE3O85731U6AV4O7FRBSCJD84RR2E","AQ9Y6WD8O72ZC","3S1L4CQSFXRWQOWP2XFUSMS4AZDFAL","","1072.9000000059605","img/land3.png","74","1074.0999999940395","1","1","1","1","1,0.5,0.5,0.5,1,0.5,0.5,0.5,1","1,0.5,0.5,0.5,1,0.5,0.5,0.5,1","1","",""
"","html-keyboard-response","3","28388","0.0-3.0","3TE3O85731U6AV4O7FRBSCJD84RR2E","AQ9Y6WD8O72ZC","3S1L4CQSFXRWQOWP2XFUSMS4AZDFAL","","null","<img src=""img/land3.png"" style=""width:200px; border:14px solid green;"">","null","","","","","","","","","",""
"","image-keyboard-response","4","28616","0.0-4.0","3TE3O85731U6AV4O7FRBSCJD84RR2E","AQ9Y6WD8O72ZC","3S1L4CQSFXRWQOWP2XFUSMS4AZDFAL","","226.60000002384186","img/land1.png","74","227.19999998807907","1","1","2","1","1,0.5,0.5,0.5,1,0.5,0.5,0.5,1","1,0.5,0.5,0.5,1,0.5,0.5,0.5,1","1","",""
"","html-keyboard-response","5","28933","0.0-5.0","3TE3O85731U6AV4O7FRBSCJD84RR2E","AQ9Y6WD8O72ZC","3S1L4CQSFXRWQOWP2XFUSMS4AZDFAL","","null","<img src=""img/land1.png"" style=""width:200px; border:14px solid green;"">","null","","","","","","","","","",""
"","image-keyboard-response","6","29147","0.0-6.0","3TE3O85731U6AV4O7FRBSCJD84RR2E","AQ9Y6WD8O72ZC","3S1L4CQSFXRWQOWP2XFUSMS4AZDFAL","","213.10000002384186","img/land1.png","74","214.09999999403954","1","1","2","1","1,0.5,0.5,0.5,1,0.5,0.5,0.5,1","1,0.5,0.5,0.5,1,0.5,0.5,0.5,1","1","",""
"","html-keyboard-response","7","29455","0.0-7.0","3TE3O85731U6AV4O7FRBSCJD84RR2E","AQ9Y6WD8O72ZC","3S1L4CQSFXRWQOWP2XFUSMS4AZDFAL","","null","<img src=""img/land1.png"" style=""width:200px; border:14px solid green;"">","null","","","","","","","","","",""
"","image-keyboard-response","8","29696","0.0-8.0","3TE3O85731U6AV4O7FRBSCJD84RR2E","AQ9Y6WD8O72ZC","3S1L4CQSFXRWQOWP2XFUSMS4AZDFAL","","240.59999999403954","img/land3.png","74","241.30000001192093","1","1","1","1","1,0.5,0.5,0.5,1,0.5,0.5,0.5,1","1,0.5,0.5,0.5,1,0.5,0.5,0.5,1","1","",""
"","html-keyboard-response","9","30011","0.0-9.0","3TE3O85731U6AV4O7FRBSCJD84RR2E","AQ9Y6WD8O72ZC","3S1L4CQSFXRWQOWP2XFUSMS4AZDFAL","","null","<img src=""img/land3.png"" style=""width:200px; border:14px solid green;"">","null","","","","","","","","","",""
"","image-keyboard-response","10","30199","0.0-10.0","3TE3O85731U6AV4O7FRBSCJD84RR2E","AQ9Y6WD8O72ZC","3S1L4CQSFXRWQOWP2XFUSMS4AZDFAL","","186.7000000178814","img/land2.png","74","187.5","1","1","3","1","1,0.5,0.5,0.5,1,0.5,0.5,0.5,1","1,0.5,0.5,0.5,1,0.5,0.5,0.5,1","1","",""
"","html-keyboard-response","11","30501","0.0-11.0","3TE3O85731U6AV4O7FRBSCJD84RR2E","AQ9Y6WD8O72ZC","3S1L4CQSFXRWQOWP2XFUSMS4AZDFAL","","null","<img src=""img/land2.png"" style=""width:200px; border:14px solid green;"">","null","","","","","","","","","",""
"","image-keyboard-response","12","30690","0.0-12.0","3TE3O85731U6AV4O7FRBSCJD84RR2E","AQ9Y6WD8O72ZC","3S1L4CQSFXRWQOWP2XFUSMS4AZDFAL","","188.09999999403954","img/land1.png","74","189","1","1","2","1","1,0.5,0.5,0.5,1,0.5,0.5,0.5,1","1,0.5,0.5,0.5,1,0.5,0.5,0.5,1","1","",""
"","html-keyboard-response","13","30991","0.0-13.0","3TE3O85731U6AV4O7FRBSCJD84RR2E","AQ9Y6WD8O72ZC","3S1L4CQSFXRWQOWP2XFUSMS4AZDFAL","","null","<img src=""img/land1.png"" style=""width:200px; border:14px solid green;"">","null","","","","","","","","","",""
"","image-keyboard-response","14","31123","0.0-14.0","3TE3O85731U6AV4O7FRBSCJD84RR2E","AQ9Y6WD8O72ZC","3S1L4CQSFXRWQOWP2XFUSMS4AZDFAL","","130.90000000596046","img/land1.png","74","131.59999999403954","1","1","2","1","1,0.5,0.5,0.5,1,0.5,0.5,0.5,1","1,0.5,0.5,0.5,1,0.5,0.5,0.5,1","1","",""
"","html-keyboard-response","15","31431","0.0-15.0","3TE3O85731U6AV4O7FRBSCJD84RR2E","AQ9Y6WD8O72ZC","3S1L4CQSFXRWQOWP2XFUSMS4AZDFAL","","null","<img src=""img/land1.png"" style=""width:200px; border:14px solid green;"">","null","","","","","","","","","",""
"","image-keyboard-response","16","31635","0.0-16.0","3TE3O85731U6AV4O7FRBSCJD84RR2E","AQ9Y6WD8O72ZC","3S1L4CQSFXRWQOWP2XFUSMS4AZDFAL","","203.09999999403954","img/land1.png","74","203.80000001192093","1","0","2","1","1,0.5,0.5,0.5,1,0.5,0.5,0.5,1","1,0.5,0.5,0.5,1,0.5,0.5,0.5,1","1","",""
"","html-keyboard-response","17","31936","0.0-17.0","3TE3O85731U6AV4O7FRBSCJD84RR2E","AQ9Y6WD8O72ZC","3S1L4CQSFXRWQOWP2XFUSMS4AZDFAL","","null","<img src=""img/land1.png"" style=""width:200px;border:14px solid red;"">","null","","","","","","","","","",""
"","image-keyboard-response","18","32016","0.0-18.0","3TE3O85731U6AV4O7FRBSCJD84RR2E","AQ9Y6WD8O72ZC","3S1L4CQSFXRWQOWP2XFUSMS4AZDFAL","","79.30000001192093","img/land3.png","74","80.09999999403954","1","1","1","1","1,0.5,0.5,0.5,1,0.5,0.5,0.5,1","1,0.5,0.5,0.5,1,0.5,0.5,0.5,1","1","",""
"","html-keyboard-response","19","32318","0.0-19.0","3TE3O85731U6AV4O7FRBSCJD84RR2E","AQ9Y6WD8O72ZC","3S1L4CQSFXRWQOWP2XFUSMS4AZDFAL","","null","<img src=""img/land3.png"" style=""width:200px; border:14px solid green;"">","null","","","","","","","","","",""
"","image-keyboard-response","20","32430","0.0-20.0","3TE3O85731U6AV4O7FRBSCJD84RR2E","AQ9Y6WD8O72ZC","3S1L4CQSFXRWQOWP2XFUSMS4AZDFAL","","111.09999999403954","img/land1.png","74","111.90000000596046","1","0","2","1","1,0.5,0.5,0.5,1,0.5,0.5,0.5,1","1,0.5,0.5,0.5,1,0.5,0.5,0.5,1","1","",""
"","html-keyboard-response","21","32733","0.0-21.0","3TE3O85731U6AV4O7FRBSCJD84RR2E","AQ9Y6WD8O72ZC","3S1L4CQSFXRWQOWP2XFUSMS4AZDFAL","","null","<img src=""img/land1.png"" style=""width:200px;border:14px solid red;"">","null","","","","","","","","","",""
"","image-keyboard-response","22","32843","0.0-22.0","3TE3O85731U6AV4O7FRBSCJD84RR2E","AQ9Y6WD8O72ZC","3S1L4CQSFXRWQOWP2XFUSMS4AZDFAL","","109.40000000596046","img/land2.png","74","109.7999999821186","1","0","3","1","1,0.5,0.5,0.5,1,0.5,0.5,0.5,1","1,0.5,0.5,0.5,1,0.5,0.5,0.5,1","1","",""
"","html-keyboard-response","23","33144","0.0-23.0","3TE3O85731U6AV4O7FRBSCJD84RR2E","AQ9Y6WD8O72ZC","3S1L4CQSFXRWQOWP2XFUSMS4AZDFAL","","null","<img src=""img/land2.png"" style=""width:200px;border:14px solid red;"">","null","","","","","","","","","",""
"","image-keyboard-response","24","33282","0.0-24.0","3TE3O85731U6AV4O7FRBSCJD84RR2E","AQ9Y6WD8O72ZC","3S1L4CQSFXRWQOWP2XFUSMS4AZDFAL","","137.40000000596046","img/land3.png","74","138","1","1","1","1","1,0.5,0.5,0.5,1,0.5,0.5,0.5,1","1,0.5,0.5,0.5,1,0.5,0.5,0.5,1","1","",""
"","html-keyboard-response","25","33584","0.0-25.0","3TE3O85731U6AV4O7FRBSCJD84RR2E","AQ9Y6WD8O72ZC","3S1L4CQSFXRWQOWP2XFUSMS4AZDFAL","","null","<img src=""img/land3.png"" style=""width:200px; border:14px solid green;"">","null","","","","","","","","","",""
"","image-keyboard-response","26","33800","0.0-26.0","3TE3O85731U6AV4O7FRBSCJD84RR2E","AQ9Y6WD8O72ZC","3S1L4CQSFXRWQOWP2XFUSMS4AZDFAL","","215.69999998807907","img/land2.png","74","216.39999997615814","1","1","3","1","1,0.5,0.5,0.5,1,0.5,0.5,0.5,1","1,0.5,0.5,0.5,1,0.5,0.5,0.5,1","1","",""
"","html-keyboard-response","27","34101","0.0-27.0","3TE3O85731U6AV4O7FRBSCJD84RR2E","AQ9Y6WD8O72ZC","3S1L4CQSFXRWQOWP2XFUSMS4AZDFAL","","null","<img src=""img/land2.png"" style=""width:200px; border:14px solid green;"">","null","","","","","","","","","",""
"","image-keyboard-response","28","34232","0.0-28.0","3TE3O85731U6AV4O7FRBSCJD84RR2E","AQ9Y6WD8O72ZC","3S1L4CQSFXRWQOWP2XFUSMS4AZDFAL","","129.7999999821186","img/land3.png","74","130.5","1","1","1","1","1,0.5,0.5,0.5,1,0.5,0.5,0.5,1","1,0.5,0.5,0.5,1,0.5,0.5,0.5,1","1","",""
"","html-keyboard-response","29","34534","0.0-29.0","3TE3O85731U6AV4O7FRBSCJD84RR2E","AQ9Y6WD8O72ZC","3S1L4CQSFXRWQOWP2XFUSMS4AZDFAL","","null","<img src=""img/land3.png"" style=""width:200px; border:14px solid green;"">","null","","","","","","","","","",""
"","image-keyboard-response","30","34618","0.0-30.0","3TE3O85731U6AV4O7FRBSCJD84RR2E","AQ9Y6WD8O72ZC","3S1L4CQSFXRWQOWP2XFUSMS4AZDFAL","","83.40000000596046","img/land2.png","74","83.90000000596046","1","0","3","1","1,0.5,0.5,0.5,1,0.5,0.5,0.5,1","1,0.5,0.5,0.5,1,0.5,0.5,0.5,1","1","",""
"","html-keyboard-response","31","34919","0.0-31.0","3TE3O85731U6AV4O7FRBSCJD84RR2E","AQ9Y6WD8O72ZC","3S1L4CQSFXRWQOWP2XFUSMS4AZDFAL","","null","<img src=""img/land2.png"" style=""width:200px;border:14px solid red;"">","null","","","","","","","","","",""
"","image-keyboard-response","32","35048","0.0-32.0","3TE3O85731U6AV4O7FRBSCJD84RR2E","AQ9Y6WD8O72ZC","3S1L4CQSFXRWQOWP2XFUSMS4AZDFAL","","128.19999998807907","img/land3.png","75","128.90000000596046","2","0","1","1","1,0.5,0.5,0.5,1,0.5,0.5,0.5,1","1,0.5,0.5,0.5,1,0.5,0.5,0.5,1","1","",""
"","html-keyboard-response","33","35363","0.0-33.0","3TE3O85731U6AV4O7FRBSCJD84RR2E","AQ9Y6WD8O72ZC","3S1L4CQSFXRWQOWP2XFUSMS4AZDFAL","","null","<img src=""img/land3.png"" style=""width:200px;border:14px solid red;"">","null","","","","","","","","","",""
"","image-keyboard-response","34","35460","0.0-34.0","3TE3O85731U6AV4O7FRBSCJD84RR2E","AQ9Y6WD8O72ZC","3S1L4CQSFXRWQOWP2XFUSMS4AZDFAL","","96.2000000178814","img/land3.png","75","97","2","0","1","1","1,0.5,0.5,0.5,1,0.5,0.5,0.5,1","1,0.5,0.5,0.5,1,0.5,0.5,0.5,1","1","",""
"","html-keyboard-response","35","35762","0.0-35.0","3TE3O85731U6AV4O7FRBSCJD84RR2E","AQ9Y6WD8O72ZC","3S1L4CQSFXRWQOWP2XFUSMS4AZDFAL","","null","<img src=""img/land3.png"" style=""width:200px;border:14px solid red;"">","null","","","","","","","","","",""
"","image-keyboard-response","36","35928","0.0-36.0","3TE3O85731U6AV4O7FRBSCJD84RR2E","AQ9Y6WD8O72ZC","3S1L4CQSFXRWQOWP2XFUSMS4AZDFAL","","164.59999999403954","img/land2.png","76","165.40000000596046","3","1","3","1","1,0.5,0.5,0.5,1,0.5,0.5,0.5,1","1,0.5,0.5,0.5,1,0.5,0.5,0.5,1","1","",""
"","html-keyboard-response","37","36229","0.0-37.0","3TE3O85731U6AV4O7FRBSCJD84RR2E","AQ9Y6WD8O72ZC","3S1L4CQSFXRWQOWP2XFUSMS4AZDFAL","","null","<img src=""img/land2.png"" style=""width:200px; border:14px solid green;"">","null","","","","","","","","","",""
"","image-keyboard-response","38","36396","0.0-38.0","3TE3O85731U6AV4O7FRBSCJD84RR2E","AQ9Y6WD8O72ZC","3S1L4CQSFXRWQOWP2XFUSMS4AZDFAL","","166.5","img/land3.png","76","167.2000000178814","3","0","1","1","1,0.5,0.5,0.5,1,0.5,0.5,0.5,1","1,0.5,0.5,0.5,1,0.5,0.5,0.5,1","1","",""
"","html-keyboard-response","39","36698","0.0-39.0","3TE3O85731U6AV4O7FRBSCJD84RR2E","AQ9Y6WD8O72ZC","3S1L4CQSFXRWQOWP2XFUSMS4AZDFAL","","null","<img src=""img/land3.png"" style=""width:200px;border:14px solid red;"">","null","","","","","","","","","",""
"","image-keyboard-response","40","36840","0.0-40.0","3TE3O85731U6AV4O7FRBSCJD84RR2E","AQ9Y6WD8O72ZC","3S1L4CQSFXRWQOWP2XFUSMS4AZDFAL","","141.40000000596046","img/land1.png","76","142.2999999821186","3","0","2","1","1,0.5,0.5,0.5,1,0.5,0.5,0.5,1","1,0.5,0.5,0.5,1,0.5,0.5,0.5,1","1","",""
"","html-keyboard-response","41","37142","0.0-41.0","3TE3O85731U6AV4O7FRBSCJD84RR2E","AQ9Y6WD8O72ZC","3S1L4CQSFXRWQOWP2XFUSMS4AZDFAL","","null","<img src=""img/land1.png"" style=""width:200px;border:14px solid red;"">","null","","","","","","","","","",""
"","image-keyboard-response","42","37258","0.0-42.0","3TE3O85731U6AV4O7FRBSCJD84RR2E","AQ9Y6WD8O72ZC","3S1L4CQSFXRWQOWP2XFUSMS4AZDFAL","","115.5","img/land1.png","76","116.2000000178814","3","0","2","1","1,0.5,0.5,0.5,1,0.5,0.5,0.5,1","1,0.5,0.5,0.5,1,0.5,0.5,0.5,1","1","",""
"","html-keyboard-response","43","37565","0.0-43.0","3TE3O85731U6AV4O7FRBSCJD84RR2E","AQ9Y6WD8O72ZC","3S1L4CQSFXRWQOWP2XFUSMS4AZDFAL","","null","<img src=""img/land1.png"" style=""width:200px;border:14px solid red;"">","null","","","","","","","","","",""
"","image-keyboard-response","44","37605","0.0-44.0","3TE3O85731U6AV4O7FRBSCJD84RR2E","AQ9Y6WD8O72ZC","3S1L4CQSFXRWQOWP2XFUSMS4AZDFAL","","38.5","img/land2.png","74","39.30000001192093","1","1","3","1","1,0.5,0.5,0.5,1,0.5,0.5,0.5,1","1,0.5,0.5,0.5,1,0.5,0.5,0.5,1","1","",""
"","html-keyboard-response","45","37906","0.0-45.0","3TE3O85731U6AV4O7FRBSCJD84RR2E","AQ9Y6WD8O72ZC","3S1L4CQSFXRWQOWP2XFUSMS4AZDFAL","","null","<img src=""img/land2.png"" style=""width:200px; border:14px solid green;"">","null","","","","","","","","","",""
"","image-keyboard-response","46","38004","0.0-46.0","3TE3O85731U6AV4O7FRBSCJD84RR2E","AQ9Y6WD8O72ZC","3S1L4CQSFXRWQOWP2XFUSMS4AZDFAL","","96.69999998807907","img/land1.png","74","97.40000000596046","1","1","2","1","1,0.5,0.5,0.5,1,0.5,0.5,0.5,1","1,0.5,0.5,0.5,1,0.5,0.5,0.5,1","1","",""
"","html-keyboard-response","47","38305","0.0-47.0","3TE3O85731U6AV4O7FRBSCJD84RR2E","AQ9Y6WD8O72ZC","3S1L4CQSFXRWQOWP2XFUSMS4AZDFAL","","null","<img src=""img/land1.png"" style=""width:200px; border:14px solid green;"">","null","","","","","","","","","",""
"","image-keyboard-response","48","38631","0.0-48.0","3TE3O85731U6AV4O7FRBSCJD84RR2E","AQ9Y6WD8O72ZC","3S1L4CQSFXRWQOWP2XFUSMS4AZDFAL","","324.80000001192093","img/land3.png","74","325.5","1","1","1","1","1,0.5,0.5,0.5,1,0.5,0.5,0.5,1","1,0.5,0.5,0.5,1,0.5,0.5,0.5,1","1","",""
"","html-keyboard-response","49","38932","0.0-49.0","3TE3O85731U6AV4O7FRBSCJD84RR2E","AQ9Y6WD8O72ZC","3S1L4CQSFXRWQOWP2XFUSMS4AZDFAL","","null","<img src=""img/land3.png"" style=""width:200px; border:14px solid green;"">","null","","","","","","","","","",""
"","image-keyboard-response","50","39055","0.0-50.0","3TE3O85731U6AV4O7FRBSCJD84RR2E","AQ9Y6WD8O72ZC","3S1L4CQSFXRWQOWP2XFUSMS4AZDFAL","","121.2000000178814","img/land2.png","74","122","1","1","3","1","1,0.5,0.5,0.5,1,0.5,0.5,0.5,1","1,0.5,0.5,0.5,1,0.5,0.5,0.5,1","1","",""
"","html-keyboard-response","51","39357","0.0-51.0","3TE3O85731U6AV4O7FRBSCJD84RR2E","AQ9Y6WD8O72ZC","3S1L4CQSFXRWQOWP2XFUSMS4AZDFAL","","null","<img src=""img/land2.png"" style=""width:200px; border:14px solid green;"">","null","","","","","","","","","",""
"","image-keyboard-response","52","39398","0.0-52.0","3TE3O85731U6AV4O7FRBSCJD84RR2E","AQ9Y6WD8O72ZC","3S1L4CQSFXRWQOWP2XFUSMS4AZDFAL","","40.39999997615814","img/land1.png","74","41.099999994039536","1","1","2","1","1,0.5,0.5,0.5,1,0.5,0.5,0.5,1","1,0.5,0.5,0.5,1,0.5,0.5,0.5,1","1","",""
"","html-keyboard-response","53","39699","0.0-53.0","3TE3O85731U6AV4O7FRBSCJD84RR2E","AQ9Y6WD8O72ZC","3S1L4CQSFXRWQOWP2XFUSMS4AZDFAL","","null","<img src=""img/land1.png"" style=""width:200px; border:14px solid green;"">","null","","","","","","","","","",""
"","image-keyboard-response","54","39781","0.0-54.0","3TE3O85731U6AV4O7FRBSCJD84RR2E","AQ9Y6WD8O72ZC","3S1L4CQSFXRWQOWP2XFUSMS4AZDFAL","","81.10000002384186","img/land2.png","74","81.69999998807907","1","1","3","1","1,0.5,0.5,0.5,1,0.5,0.5,0.5,1","1,0.5,0.5,0.5,1,0.5,0.5,0.5,1","1","",""
"","html-keyboard-response","55","40082","0.0-55.0","3TE3O85731U6AV4O7FRBSCJD84RR2E","AQ9Y6WD8O72ZC","3S1L4CQSFXRWQOWP2XFUSMS4AZDFAL","","null","<img src=""img/land2.png"" style=""width:200px; border:14px solid green;"">","null","","","","","","","","","",""
"","image-keyboard-response","56","40131","0.0-56.0","3TE3O85731U6AV4O7FRBSCJD84RR2E","AQ9Y6WD8O72ZC","3S1L4CQSFXRWQOWP2XFUSMS4AZDFAL","","48.5","img/land3.png","74","49","1","1","1","1","1,0.5,0.5,0.5,1,0.5,0.5,0.5,1","1,0.5,0.5,0.5,1,0.5,0.5,0.5,1","1","",""
"","html-keyboard-response","57","40434","0.0-57.0","3TE3O85731U6AV4O7FRBSCJD84RR2E","AQ9Y6WD8O72ZC","3S1L4CQSFXRWQOWP2XFUSMS4AZDFAL","","null","<img src=""img/land3.png"" style=""width:200px; border:14px solid green;"">","null","","","","","","","","","",""
"","image-keyboard-response","58","40505","0.0-58.0","3TE3O85731U6AV4O7FRBSCJD84RR2E","AQ9Y6WD8O72ZC","3S1L4CQSFXRWQOWP2XFUSMS4AZDFAL","","70","img/land1.png","74","70.7000000178814","1","1","2","1","1,0.5,0.5,0.5,1,0.5,0.5,0.5,1","1,0.5,0.5,0.5,1,0.5,0.5,0.5,1","1","",""
"","html-keyboard-response","59","40807","0.0-59.0","3TE3O85731U6AV4O7FRBSCJD84RR2E","AQ9Y6WD8O72ZC","3S1L4CQSFXRWQOWP2XFUSMS4AZDFAL","","null","<img src=""img/land1.png"" style=""width:200px; border:14px solid green;"">","null","","","","","","","","","",""
"","image-keyboard-response","60","40854","0.0-60.0","3TE3O85731U6AV4O7FRBSCJD84RR2E","AQ9Y6WD8O72ZC","3S1L4CQSFXRWQOWP2XFUSMS4AZDFAL","","46.30000001192093","img/land3.png","74","47","1","1","1","1","1,0.5,0.5,0.5,1,0.5,0.5,0.5,1","1,0.5,0.5,0.5,1,0.5,0.5,0.5,1","1","",""
"","html-keyboard-response","61","41155","0.0-61.0","3TE3O85731U6AV4O7FRBSCJD84RR2E","AQ9Y6WD8O72ZC","3S1L4CQSFXRWQOWP2XFUSMS4AZDFAL","","null","<img src=""img/land3.png"" style=""width:200px; border:14px solid green;"">","null","","","","","","","","","",""
"","image-keyboard-response","62","41224","0.0-62.0","3TE3O85731U6AV4O7FRBSCJD84RR2E","AQ9Y6WD8O72ZC","3S1L4CQSFXRWQOWP2XFUSMS4AZDFAL","","67.30000001192093","img/land3.png","74","68","1","1","1","1","1,0.5,0.5,0.5,1,0.5,0.5,0.5,1","1,0.5,0.5,0.5,1,0.5,0.5,0.5,1","1","",""
"","html-keyboard-response","63","41526","0.0-63.0","3TE3O85731U6AV4O7FRBSCJD84RR2E","AQ9Y6WD8O72ZC","3S1L4CQSFXRWQOWP2XFUSMS4AZDFAL","","null","<img src=""img/land3.png"" style=""width:200px; border:14px solid green;"">","null","","","","","","","","","",""
"","image-keyboard-response","64","41534","0.0-64.0","3TE3O85731U6AV4O7FRBSCJD84RR2E","AQ9Y6WD8O72ZC","3S1L4CQSFXRWQOWP2XFUSMS4AZDFAL","","7.200000017881393","img/land1.png","74","8","1","0","2","1","1,0.5,0.5,0.5,1,0.5,0.5,0.5,1","1,0.5,0.5,0.5,1,0.5,0.5,0.5,1","1","",""
"","html-keyboard-response","65","41835","0.0-65.0","3TE3O85731U6AV4O7FRBSCJD84RR2E","AQ9Y6WD8O72ZC","3S1L4CQSFXRWQOWP2XFUSMS4AZDFAL","","null","<img src=""img/land1.png"" style=""width:200px;border:14px solid red;"">","null","","","","","","","","","",""
"","image-keyboard-response","66","41933","0.0-66.0","3TE3O85731U6AV4O7FRBSCJD84RR2E","AQ9Y6WD8O72ZC","3S1L4CQSFXRWQOWP2XFUSMS4AZDFAL","","97.09999999403954","img/land1.png","74","98","1","1","2","1","1,0.5,0.5,0.5,1,0.5,0.5,0.5,1","1,0.5,0.5,0.5,1,0.5,0.5,0.5,1","1","",""
"","html-keyboard-response","67","42235","0.0-67.0","3TE3O85731U6AV4O7FRBSCJD84RR2E","AQ9Y6WD8O72ZC","3S1L4CQSFXRWQOWP2XFUSMS4AZDFAL","","null","<img src=""img/land1.png"" style=""width:200px; border:14px solid green;"">","null","","","","","","","","","",""
"","image-keyboard-response","68","42297","0.0-68.0","3TE3O85731U6AV4O7FRBSCJD84RR2E","AQ9Y6WD8O72ZC","3S1L4CQSFXRWQOWP2XFUSMS4AZDFAL","","60.400000005960464","img/land2.png","74","61.20000001788139","1","1","3","1","1,0.5,0.5,0.5,1,0.5,0.5,0.5,1","1,0.5,0.5,0.5,1,0.5,0.5,0.5,1","1","",""
"","html-keyboard-response","69","42598","0.0-69.0","3TE3O85731U6AV4O7FRBSCJD84RR2E","AQ9Y6WD8O72ZC","3S1L4CQSFXRWQOWP2XFUSMS4AZDFAL","","null","<img src=""img/land2.png"" style=""width:200px; border:14px solid green;"">","null","","","","","","","","","",""
"","image-keyboard-response","70","42628","0.0-70.0","3TE3O85731U6AV4O7FRBSCJD84RR2E","AQ9Y6WD8O72ZC","3S1L4CQSFXRWQOWP2XFUSMS4AZDFAL","","29","img/land1.png","74","29.80000001192093","1","0","2","1","1,0.5,0.5,0.5,1,0.5,0.5,0.5,1","1,0.5,0.5,0.5,1,0.5,0.5,0.5,1","1","",""
"","html-keyboard-response","71","42929","0.0-71.0","3TE3O85731U6AV4O7FRBSCJD84RR2E","AQ9Y6WD8O72ZC","3S1L4CQSFXRWQOWP2XFUSMS4AZDFAL","","null","<img src=""img/land1.png"" style=""width:200px;border:14px solid red;"">","null","","","","","","","","","",""
"","image-keyboard-response","72","42948","0.0-72.0","3TE3O85731U6AV4O7FRBSCJD84RR2E","AQ9Y6WD8O72ZC","3S1L4CQSFXRWQOWP2XFUSMS4AZDFAL","","18.099999994039536","img/land2.png","74","18.799999982118607","1","0","3","1","1,0.5,0.5,0.5,1,0.5,0.5,0.5,1","1,0.5,0.5,0.5,1,0.5,0.5,0.5,1","1","",""
"","html-keyboard-response","73","43249","0.0-73.0","3TE3O85731U6AV4O7FRBSCJD84RR2E","AQ9Y6WD8O72ZC","3S1L4CQSFXRWQOWP2XFUSMS4AZDFAL","","null","<img src=""img/land2.png"" style=""width:200px;border:14px solid red;"">","null","","","","","","","","","",""
"","image-keyboard-response","74","43298","0.0-74.0","3TE3O85731U6AV4O7FRBSCJD84RR2E","AQ9Y6WD8O72ZC","3S1L4CQSFXRWQOWP2XFUSMS4AZDFAL","","48.69999998807907","img/land1.png","74","49.5","1","0","2","1","1,0.5,0.5,0.5,1,0.5,0.5,0.5,1","1,0.5,0.5,0.5,1,0.5,0.5,0.5,1","1","",""
"","html-keyboard-response","75","43599","0.0-75.0","3TE3O85731U6AV4O7FRBSCJD84RR2E","AQ9Y6WD8O72ZC","3S1L4CQSFXRWQOWP2XFUSMS4AZDFAL","","null","<img src=""img/land1.png"" style=""width:200px;border:14px solid red;"">","null","","","","","","","","","",""
"","image-keyboard-response","76","43670","0.0-76.0","3TE3O85731U6AV4O7FRBSCJD84RR2E","AQ9Y6WD8O72ZC","3S1L4CQSFXRWQOWP2XFUSMS4AZDFAL","","69.2999999821186","img/land1.png","74","70.2000000178814","1","1","2","1","1,0.5,0.5,0.5,1,0.5,0.5,0.5,1","1,0.5,0.5,0.5,1,0.5,0.5,0.5,1","1","",""
"","html-keyboard-response","77","43971","0.0-77.0","3TE3O85731U6AV4O7FRBSCJD84RR2E","AQ9Y6WD8O72ZC","3S1L4CQSFXRWQOWP2XFUSMS4AZDFAL","","null","<img src=""img/land1.png"" style=""width:200px; border:14px solid green;"">","null","","","","","","","","","",""
"","image-keyboard-response","78","44025","0.0-78.0","3TE3O85731U6AV4O7FRBSCJD84RR2E","AQ9Y6WD8O72ZC","3S1L4CQSFXRWQOWP2XFUSMS4AZDFAL","","52.80000001192093","img/land3.png","74","53.599999994039536","1","1","1","1","1,0.5,0.5,0.5,1,0.5,0.5,0.5,1","1,0.5,0.5,0.5,1,0.5,0.5,0.5,1","1","",""
"","html-keyboard-response","79","44327","0.0-79.0","3TE3O85731U6AV4O7FRBSCJD84RR2E","AQ9Y6WD8O72ZC","3S1L4CQSFXRWQOWP2XFUSMS4AZDFAL","","null","<img src=""img/land3.png"" style=""width:200px; border:14px solid green;"">","null","","","","","","","","","",""
"","image-keyboard-response","80","44423","0.0-80.0","3TE3O85731U6AV4O7FRBSCJD84RR2E","AQ9Y6WD8O72ZC","3S1L4CQSFXRWQOWP2XFUSMS4AZDFAL","","95.09999999403954","img/land3.png","74","95.90000000596046","1","1","1","1","1,0.5,0.5,0.5,1,0.5,0.5,0.5,1","1,0.5,0.5,0.5,1,0.5,0.5,0.5,1","1","",""
"","html-keyboard-response","81","44724","0.0-81.0","3TE3O85731U6AV4O7FRBSCJD84RR2E","AQ9Y6WD8O72ZC","3S1L4CQSFXRWQOWP2XFUSMS4AZDFAL","","null","<img src=""img/land3.png"" style=""width:200px; border:14px solid green;"">","null","","","","","","","","","",""
"","image-keyboard-response","82","44759","0.0-82.0","3TE3O85731U6AV4O7FRBSCJD84RR2E","AQ9Y6WD8O72ZC","3S1L4CQSFXRWQOWP2XFUSMS4AZDFAL","","33.70000001788139","img/land2.png","74","34.400000005960464","1","0","3","1","1,0.5,0.5,0.5,1,0.5,0.5,0.5,1","1,0.5,0.5,0.5,1,0.5,0.5,0.5,1","1","",""
"","html-keyboard-response","83","45061","0.0-83.0","3TE3O85731U6AV4O7FRBSCJD84RR2E","AQ9Y6WD8O72ZC","3S1L4CQSFXRWQOWP2XFUSMS4AZDFAL","","null","<img src=""img/land2.png"" style=""width:200px;border:14px solid red;"">","null","","","","","","","","","",""
"","image-keyboard-response","84","45216","0.0-84.0","3TE3O85731U6AV4O7FRBSCJD84RR2E","AQ9Y6WD8O72ZC","3S1L4CQSFXRWQOWP2XFUSMS4AZDFAL","","154.69999998807907","img/land1.png","74","155.5","1","1","2","1","1,0.5,0.5,0.5,1,0.5,0.5,0.5,1","1,0.5,0.5,0.5,1,0.5,0.5,0.5,1","1","",""
"","html-keyboard-response","85","45518","0.0-85.0","3TE3O85731U6AV4O7FRBSCJD84RR2E","AQ9Y6WD8O72ZC","3S1L4CQSFXRWQOWP2XFUSMS4AZDFAL","","null","<img src=""img/land1.png"" style=""width:200px; border:14px solid green;"">","null","","","","","","","","","",""
"","image-keyboard-response","86","45532","0.0-86.0","3TE3O85731U6AV4O7FRBSCJD84RR2E","AQ9Y6WD8O72ZC","3S1L4CQSFXRWQOWP2XFUSMS4AZDFAL","","13","img/land3.png","74","13.900000005960464","1","1","1","1","1,0.5,0.5,0.5,1,0.5,0.5,0.5,1","1,0.5,0.5,0.5,1,0.5,0.5,0.5,1","1","",""
"","html-keyboard-response","87","45834","0.0-87.0","3TE3O85731U6AV4O7FRBSCJD84RR2E","AQ9Y6WD8O72ZC","3S1L4CQSFXRWQOWP2XFUSMS4AZDFAL","","null","<img src=""img/land3.png"" style=""width:200px; border:14px solid green;"">","null","","","","","","","","","",""
"","image-keyboard-response","88","45905","0.0-88.0","3TE3O85731U6AV4O7FRBSCJD84RR2E","AQ9Y6WD8O72ZC","3S1L4CQSFXRWQOWP2XFUSMS4AZDFAL","","70.2999999821186","img/land3.png","74","71.09999999403954","1","1","1","1","1,0.5,0.5,0.5,1,0.5,0.5,0.5,1","1,0.5,0.5,0.5,1,0.5,0.5,0.5,1","1","",""
"","html-keyboard-response","89","46206","0.0-89.0","3TE3O85731U6AV4O7FRBSCJD84RR2E","AQ9Y6WD8O72ZC","3S1L4CQSFXRWQOWP2XFUSMS4AZDFAL","","null","<img src=""img/land3.png"" style=""width:200px; border:14px solid green;"">","null","","","","","","","","","",""
"","image-keyboard-response","90","46323","0.0-90.0","3TE3O85731U6AV4O7FRBSCJD84RR2E","AQ9Y6WD8O72ZC","3S1L4CQSFXRWQOWP2XFUSMS4AZDFAL","","116.09999999403954","img/land2.png","74","116.69999998807907","1","0","3","1","1,0.5,0.5,0.5,1,0.5,0.5,0.5,1","1,0.5,0.5,0.5,1,0.5,0.5,0.5,1","1","",""
"","html-keyboard-response","91","46624","0.0-91.0","3TE3O85731U6AV4O7FRBSCJD84RR2E","AQ9Y6WD8O72ZC","3S1L4CQSFXRWQOWP2XFUSMS4AZDFAL","","null","<img src=""img/land2.png"" style=""width:200px;border:14px solid red;"">","null","","","","","","","","","",""
"","image-keyboard-response","92","46667","0.0-92.0","3TE3O85731U6AV4O7FRBSCJD84RR2E","AQ9Y6WD8O72ZC","3S1L4CQSFXRWQOWP2XFUSMS4AZDFAL","","41.599999994039536","img/land2.png","74","42.400000005960464","1","0","3","1","1,0.5,0.5,0.5,1,0.5,0.5,0.5,1","1,0.5,0.5,0.5,1,0.5,0.5,0.5,1","1","",""
"","html-keyboard-response","93","46968","0.0-93.0","3TE3O85731U6AV4O7FRBSCJD84RR2E","AQ9Y6WD8O72ZC","3S1L4CQSFXRWQOWP2XFUSMS4AZDFAL","","null","<img src=""img/land2.png"" style=""width:200px;border:14px solid red;"">","null","","","","","","","","","",""
"","image-keyboard-response","94","47084","0.0-94.0","3TE3O85731U6AV4O7FRBSCJD84RR2E","AQ9Y6WD8O72ZC","3S1L4CQSFXRWQOWP2XFUSMS4AZDFAL","","115.5","img/land2.png","74","116.19999998807907","1","0","3","1","1,0.5,0.5,0.5,1,0.5,0.5,0.5,1","1,0.5,0.5,0.5,1,0.5,0.5,0.5,1","1","",""
"","html-keyboard-response","95","47385","0.0-95.0","3TE3O85731U6AV4O7FRBSCJD84RR2E","AQ9Y6WD8O72ZC","3S1L4CQSFXRWQOWP2XFUSMS4AZDFAL","","null","<img src=""img/land2.png"" style=""width:200px;border:14px solid red;"">","null","","","","","","","","","",""
"","image-keyboard-response","96","47705","0.0-96.0","3TE3O85731U6AV4O7FRBSCJD84RR2E","AQ9Y6WD8O72ZC","3S1L4CQSFXRWQOWP2XFUSMS4AZDFAL","","319.19999998807907","img/land2.png","75","320","2","0","3","1","1,0.5,0.5,0.5,1,0.5,0.5,0.5,1","1,0.5,0.5,0.5,1,0.5,0.5,0.5,1","1","",""
"","html-keyboard-response","97","48007","0.0-97.0","3TE3O85731U6AV4O7FRBSCJD84RR2E","AQ9Y6WD8O72ZC","3S1L4CQSFXRWQOWP2XFUSMS4AZDFAL","","null","<img src=""img/land2.png"" style=""width:200px;border:14px solid red;"">","null","","","","","","","","","",""
"","image-keyboard-response","98","48062","0.0-98.0","3TE3O85731U6AV4O7FRBSCJD84RR2E","AQ9Y6WD8O72ZC","3S1L4CQSFXRWQOWP2XFUSMS4AZDFAL","","54.19999998807907","img/land2.png","75","54.79999998211861","2","1","3","1","1,0.5,0.5,0.5,1,0.5,0.5,0.5,1","1,0.5,0.5,0.5,1,0.5,0.5,0.5,1","1","",""
"","html-keyboard-response","99","48363","0.0-99.0","3TE3O85731U6AV4O7FRBSCJD84RR2E","AQ9Y6WD8O72ZC","3S1L4CQSFXRWQOWP2XFUSMS4AZDFAL","","null","<img src=""img/land2.png"" style=""width:200px; border:14px solid green;"">","null","","","","","","","","","",""
"","image-keyboard-response","100","48737","0.0-100.0","3TE3O85731U6AV4O7FRBSCJD84RR2E","AQ9Y6WD8O72ZC","3S1L4CQSFXRWQOWP2XFUSMS4AZDFAL","","372.90000000596046","img/land2.png","76","373.40000000596046","3","1","3","1","1,0.5,0.5,0.5,1,0.5,0.5,0.5,1","1,0.5,0.5,0.5,1,0.5,0.5,0.5,1","1","",""
"","html-keyboard-response","101","49039","0.0-101.0","3TE3O85731U6AV4O7FRBSCJD84RR2E","AQ9Y6WD8O72ZC","3S1L4CQSFXRWQOWP2XFUSMS4AZDFAL","","null","<img src=""img/land2.png"" style=""width:200px; border:14px solid green;"">","null","","","","","","","","","",""
"","image-keyboard-response","102","49114","0.0-102.0","3TE3O85731U6AV4O7FRBSCJD84RR2E","AQ9Y6WD8O72ZC","3S1L4CQSFXRWQOWP2XFUSMS4AZDFAL","","73.69999998807907","img/land3.png","76","74.39999997615814","3","0","1","1","1,0.5,0.5,0.5,1,0.5,0.5,0.5,1","1,0.5,0.5,0.5,1,0.5,0.5,0.5,1","1","",""
"","html-keyboard-response","103","49415","0.0-103.0","3TE3O85731U6AV4O7FRBSCJD84RR2E","AQ9Y6WD8O72ZC","3S1L4CQSFXRWQOWP2XFUSMS4AZDFAL","","null","<img src=""img/land3.png"" style=""width:200px;border:14px solid red;"">","null","","","","","","","","","",""
"","image-keyboard-response","104","50175","0.0-104.0","3TE3O85731U6AV4O7FRBSCJD84RR2E","AQ9Y6WD8O72ZC","3S1L4CQSFXRWQOWP2XFUSMS4AZDFAL","","758.5","img/land1.png","76","759.0999999940395","3","1","2","1","1,0.5,0.5,0.5,1,0.5,0.5,0.5,1","1,0.5,0.5,0.5,1,0.5,0.5,0.5,1","1","",""
"","html-keyboard-response","105","50476","0.0-105.0","3TE3O85731U6AV4O7FRBSCJD84RR2E","AQ9Y6WD8O72ZC","3S1L4CQSFXRWQOWP2XFUSMS4AZDFAL","","null","<img src=""img/land1.png"" style=""width:200px; border:14px solid green;"">","null","","","","","","","","","",""
"","image-keyboard-response","106","50796","0.0-106.0","3TE3O85731U6AV4O7FRBSCJD84RR2E","AQ9Y6WD8O72ZC","3S1L4CQSFXRWQOWP2XFUSMS4AZDFAL","","319.2000000178814","img/land1.png","76","319.80000001192093","3","0","2","1","1,0.5,0.5,0.5,1,0.5,0.5,0.5,1","1,0.5,0.5,0.5,1,0.5,0.5,0.5,1","1","",""
"","html-keyboard-response","107","51097","0.0-107.0","3TE3O85731U6AV4O7FRBSCJD84RR2E","AQ9Y6WD8O72ZC","3S1L4CQSFXRWQOWP2XFUSMS4AZDFAL","","null","<img src=""img/land1.png"" style=""width:200px;border:14px solid red;"">","null","","","","","","","","","",""
"","image-keyboard-response","108","51737","0.0-108.0","3TE3O85731U6AV4O7FRBSCJD84RR2E","AQ9Y6WD8O72ZC","3S1L4CQSFXRWQOWP2XFUSMS4AZDFAL","","639.3000000119209","img/land2.png","74","639.9000000059605","1","0","3","1","1,0.5,0.5,0.5,1,0.5,0.5,0.5,1","1,0.5,0.5,0.5,1,0.5,0.5,0.5,1","1","",""
"","html-keyboard-response","109","52039","0.0-109.0","3TE3O85731U6AV4O7FRBSCJD84RR2E","AQ9Y6WD8O72ZC","3S1L4CQSFXRWQOWP2XFUSMS4AZDFAL","","null","<img src=""img/land2.png"" style=""width:200px;border:14px solid red;"">","null","","","","","","","","","",""
"","image-keyboard-response","110","52285","0.0-110.0","3TE3O85731U6AV4O7FRBSCJD84RR2E","AQ9Y6WD8O72ZC","3S1L4CQSFXRWQOWP2XFUSMS4AZDFAL","","245","img/land2.png","74","245.69999998807907","1","1","3","1","1,0.5,0.5,0.5,1,0.5,0.5,0.5,1","1,0.5,0.5,0.5,1,0.5,0.5,0.5,1","1","",""
"","html-keyboard-response","111","52585","0.0-111.0","3TE3O85731U6AV4O7FRBSCJD84RR2E","AQ9Y6WD8O72ZC","3S1L4CQSFXRWQOWP2XFUSMS4AZDFAL","","null","<img src=""img/land2.png"" style=""width:200px; border:14px solid green;"">","null","","","","","","","","","",""
"","image-keyboard-response","112","52586","0.0-112.0","3TE3O85731U6AV4O7FRBSCJD84RR2E","AQ9Y6WD8O72ZC","3S1L4CQSFXRWQOWP2XFUSMS4AZDFAL","","0.09999999403953552","img/land3.png","75","0.5999999940395355","2","0","1","1","1,0.5,0.5,0.5,1,0.5,0.5,0.5,1","1,0.5,0.5,0.5,1,0.5,0.5,0.5,1","1","",""
"","html-keyboard-response","113","52888","0.0-113.0","3TE3O85731U6AV4O7FRBSCJD84RR2E","AQ9Y6WD8O72ZC","3S1L4CQSFXRWQOWP2XFUSMS4AZDFAL","","null","<img src=""img/land3.png"" style=""width:200px;border:14px solid red;"">","null","","","","","","","","","",""
"","image-keyboard-response","114","53078","0.0-114.0","3TE3O85731U6AV4O7FRBSCJD84RR2E","AQ9Y6WD8O72ZC","3S1L4CQSFXRWQOWP2XFUSMS4AZDFAL","","189","img/land3.png","75","189.69999998807907","2","0","1","1","1,0.5,0.5,0.5,1,0.5,0.5,0.5,1","1,0.5,0.5,0.5,1,0.5,0.5,0.5,1","1","",""
"","html-keyboard-response","115","53379","0.0-115.0","3TE3O85731U6AV4O7FRBSCJD84RR2E","AQ9Y6WD8O72ZC","3S1L4CQSFXRWQOWP2XFUSMS4AZDFAL","","null","<img src=""img/land3.png"" style=""width:200px;border:14px solid red;"">","null","","","","","","","","","",""
"","image-keyboard-response","116","53513","0.0-116.0","3TE3O85731U6AV4O7FRBSCJD84RR2E","AQ9Y6WD8O72ZC","3S1L4CQSFXRWQOWP2XFUSMS4AZDFAL","","133.2999999821186","img/land1.png","74","134.09999999403954","1","1","2","1","1,0.5,0.5,0.5,1,0.5,0.5,0.5,1","1,0.5,0.5,0.5,1,0.5,0.5,0.5,1","1","",""
"","html-keyboard-response","117","53815","0.0-117.0","3TE3O85731U6AV4O7FRBSCJD84RR2E","AQ9Y6WD8O72ZC","3S1L4CQSFXRWQOWP2XFUSMS4AZDFAL","","null","<img src=""img/land1.png"" style=""width:200px; border:14px solid green;"">","null","","","","","","","","","",""
"","image-keyboard-response","118","53838","0.0-118.0","3TE3O85731U6AV4O7FRBSCJD84RR2E","AQ9Y6WD8O72ZC","3S1L4CQSFXRWQOWP2XFUSMS4AZDFAL","","22.30000001192093","img/land3.png","74","23","1","1","1","1","1,0.5,0.5,0.5,1,0.5,0.5,0.5,1","1,0.5,0.5,0.5,1,0.5,0.5,0.5,1","1","",""
"","html-keyboard-response","119","54150","0.0-119.0","3TE3O85731U6AV4O7FRBSCJD84RR2E","AQ9Y6WD8O72ZC","3S1L4CQSFXRWQOWP2XFUSMS4AZDFAL","","null","<img src=""img/land3.png"" style=""width:200px; border:14px solid green;"">","null","","","","","","","","","",""
"","image-keyboard-response","120","54437","0.0-120.0","3TE3O85731U6AV4O7FRBSCJD84RR2E","AQ9Y6WD8O72ZC","3S1L4CQSFXRWQOWP2XFUSMS4AZDFAL","","286.09999999403954","img/land2.png","74","286.7000000178814","1","0","3","1","1,0.5,0.5,0.5,1,0.5,0.5,0.5,1","1,0.5,0.5,0.5,1,0.5,0.5,0.5,1","1","",""
"","html-keyboard-response","121","54738","0.0-121.0","3TE3O85731U6AV4O7FRBSCJD84RR2E","AQ9Y6WD8O72ZC","3S1L4CQSFXRWQOWP2XFUSMS4AZDFAL","","null","<img src=""img/land2.png"" style=""width:200px;border:14px solid red;"">","null","","","","","","","","","",""
"","image-keyboard-response","122","54749","0.0-122.0","3TE3O85731U6AV4O7FRBSCJD84RR2E","AQ9Y6WD8O72ZC","3S1L4CQSFXRWQOWP2XFUSMS4AZDFAL","","9.800000011920929","img/land1.png","74","10.399999976158142","1","1","2","1","1,0.5,0.5,0.5,1,0.5,0.5,0.5,1","1,0.5,0.5,0.5,1,0.5,0.5,0.5,1","1","",""
"","html-keyboard-response","123","55051","0.0-123.0","3TE3O85731U6AV4O7FRBSCJD84RR2E","AQ9Y6WD8O72ZC","3S1L4CQSFXRWQOWP2XFUSMS4AZDFAL","","null","<img src=""img/land1.png"" style=""width:200px; border:14px solid green;"">","null","","","","","","","","","",""
"","image-keyboard-response","124","55332","0.0-124.0","3TE3O85731U6AV4O7FRBSCJD84RR2E","AQ9Y6WD8O72ZC","3S1L4CQSFXRWQOWP2XFUSMS4AZDFAL","","280","img/land2.png","74","280.59999999403954","1","0","3","1","1,0.5,0.5,0.5,1,0.5,0.5,0.5,1","1,0.5,0.5,0.5,1,0.5,0.5,0.5,1","1","",""
"","html-keyboard-response","125","55634","0.0-125.0","3TE3O85731U6AV4O7FRBSCJD84RR2E","AQ9Y6WD8O72ZC","3S1L4CQSFXRWQOWP2XFUSMS4AZDFAL","","null","<img src=""img/land2.png"" style=""width:200px;border:14px solid red;"">","null","","","","","","","","","",""
"","image-keyboard-response","126","55667","0.0-126.0","3TE3O85731U6AV4O7FRBSCJD84RR2E","AQ9Y6WD8O72ZC","3S1L4CQSFXRWQOWP2XFUSMS4AZDFAL","","31.80000001192093","img/land1.png","74","32.5","1","1","2","1","1,0.5,0.5,0.5,1,0.5,0.5,0.5,1","1,0.5,0.5,0.5,1,0.5,0.5,0.5,1","1","",""
"","html-keyboard-response","127","55969","0.0-127.0","3TE3O85731U6AV4O7FRBSCJD84RR2E","AQ9Y6WD8O72ZC","3S1L4CQSFXRWQOWP2XFUSMS4AZDFAL","","null","<img src=""img/land1.png"" style=""width:200px; border:14px solid green;"">","null","","","","","","","","","",""
"","image-keyboard-response","128","56201","0.0-128.0","3TE3O85731U6AV4O7FRBSCJD84RR2E","AQ9Y6WD8O72ZC","3S1L4CQSFXRWQOWP2XFUSMS4AZDFAL","","231.40000000596046","img/land1.png","74","231.90000000596046","1","1","2","1","1,0.5,0.5,0.5,1,0.5,0.5,0.5,1","1,0.5,0.5,0.5,1,0.5,0.5,0.5,1","1","",""
"","html-keyboard-response","129","56502","0.0-129.0","3TE3O85731U6AV4O7FRBSCJD84RR2E","AQ9Y6WD8O72ZC","3S1L4CQSFXRWQOWP2XFUSMS4AZDFAL","","null","<img src=""img/land1.png"" style=""width:200px; border:14px solid green;"">","null","","","","","","","","","",""
"","image-keyboard-response","130","56504","0.0-130.0","3TE3O85731U6AV4O7FRBSCJD84RR2E","AQ9Y6WD8O72ZC","3S1L4CQSFXRWQOWP2XFUSMS4AZDFAL","","1.699999988079071","img/land2.png","74","2.300000011920929","1","0","3","1","1,0.5,0.5,0.5,1,0.5,0.5,0.5,1","1,0.5,0.5,0.5,1,0.5,0.5,0.5,1","1","",""
"","html-keyboard-response","131","56806","0.0-131.0","3TE3O85731U6AV4O7FRBSCJD84RR2E","AQ9Y6WD8O72ZC","3S1L4CQSFXRWQOWP2XFUSMS4AZDFAL","","null","<img src=""img/land2.png"" style=""width:200px;border:14px solid red;"">","null","","","","","","","","","",""
"","image-keyboard-response","132","57108","0.0-132.0","3TE3O85731U6AV4O7FRBSCJD84RR2E","AQ9Y6WD8O72ZC","3S1L4CQSFXRWQOWP2XFUSMS4AZDFAL","","300.30000001192093","img/land2.png","74","301.09999999403954","1","0","3","1","1,0.5,0.5,0.5,1,0.5,0.5,0.5,1","1,0.5,0.5,0.5,1,0.5,0.5,0.5,1","1","",""
"","html-keyboard-response","133","57410","0.0-133.0","3TE3O85731U6AV4O7FRBSCJD84RR2E","AQ9Y6WD8O72ZC","3S1L4CQSFXRWQOWP2XFUSMS4AZDFAL","","null","<img src=""img/land2.png"" style=""width:200px;border:14px solid red;"">","null","","","","","","","","","",""
"","image-keyboard-response","134","57860","0.0-134.0","3TE3O85731U6AV4O7FRBSCJD84RR2E","AQ9Y6WD8O72ZC","3S1L4CQSFXRWQOWP2XFUSMS4AZDFAL","","449.5","img/land3.png","76","449.89999997615814","3","1","1","1","1,0.5,0.5,0.5,1,0.5,0.5,0.5,1","1,0.5,0.5,0.5,1,0.5,0.5,0.5,1","1","",""
"","html-keyboard-response","135","58161","0.0-135.0","3TE3O85731U6AV4O7FRBSCJD84RR2E","AQ9Y6WD8O72ZC","3S1L4CQSFXRWQOWP2XFUSMS4AZDFAL","","null","<img src=""img/land3.png"" style=""width:200px; border:14px solid green;"">","null","","","","","","","","","",""
"","image-keyboard-response","136","58287","0.0-136.0","3TE3O85731U6AV4O7FRBSCJD84RR2E","AQ9Y6WD8O72ZC","3S1L4CQSFXRWQOWP2XFUSMS4AZDFAL","","125.5","img/land1.png","76","126.2000000178814","3","0","2","1","1,0.5,0.5,0.5,1,0.5,0.5,0.5,1","1,0.5,0.5,0.5,1,0.5,0.5,0.5,1","1","",""
"","html-keyboard-response","137","58588","0.0-137.0","3TE3O85731U6AV4O7FRBSCJD84RR2E","AQ9Y6WD8O72ZC","3S1L4CQSFXRWQOWP2XFUSMS4AZDFAL","","null","<img src=""img/land1.png"" style=""width:200px;border:14px solid red;"">","null","","","","","","","","","",""
"","image-keyboard-response","138","59332","0.0-138.0","3TE3O85731U6AV4O7FRBSCJD84RR2E","AQ9Y6WD8O72ZC","3S1L4CQSFXRWQOWP2XFUSMS4AZDFAL","","742.7999999821186","img/land1.png","75","744","2","1","2","1","1,0.5,0.5,0.5,1,0.5,0.5,0.5,1","1,0.5,0.5,0.5,1,0.5,0.5,0.5,1","1","",""
"","html-keyboard-response","139","59634","0.0-139.0","3TE3O85731U6AV4O7FRBSCJD84RR2E","AQ9Y6WD8O72ZC","3S1L4CQSFXRWQOWP2XFUSMS4AZDFAL","","null","<img src=""img/land1.png"" style=""width:200px; border:14px solid green;"">","null","","","","","","","","","",""
"","image-keyboard-response","140","59759","0.0-140.0","3TE3O85731U6AV4O7FRBSCJD84RR2E","AQ9Y6WD8O72ZC","3S1L4CQSFXRWQOWP2XFUSMS4AZDFAL","","124.59999999403954","img/land3.png","75","125.19999998807907","2","1","1","1","1,0.5,0.5,0.5,1,0.5,0.5,0.5,1","1,0.5,0.5,0.5,1,0.5,0.5,0.5,1","1","",""
"","html-keyboard-response","141","60060","0.0-141.0","3TE3O85731U6AV4O7FRBSCJD84RR2E","AQ9Y6WD8O72ZC","3S1L4CQSFXRWQOWP2XFUSMS4AZDFAL","","null","<img src=""img/land3.png"" style=""width:200px; border:14px solid green;"">","null","","","","","","","","","",""
"","image-keyboard-response","142","60615","0.0-142.0","3TE3O85731U6AV4O7FRBSCJD84RR2E","AQ9Y6WD8O72ZC","3S1L4CQSFXRWQOWP2XFUSMS4AZDFAL","","553.3000000119209","img/land1.png","75","554.2000000178814","2","1","2","1","1,0.5,0.5,0.5,1,0.5,0.5,0.5,1","1,0.5,0.5,0.5,1,0.5,0.5,0.5,1","1","",""
"","html-keyboard-response","143","60917","0.0-143.0","3TE3O85731U6AV4O7FRBSCJD84RR2E","AQ9Y6WD8O72ZC","3S1L4CQSFXRWQOWP2XFUSMS4AZDFAL","","null","<img src=""img/land1.png"" style=""width:200px; border:14px solid green;"">","null","","","","","","","","","",""
"","image-keyboard-response","144","61017","0.0-144.0","3TE3O85731U6AV4O7FRBSCJD84RR2E","AQ9Y6WD8O72ZC","3S1L4CQSFXRWQOWP2XFUSMS4AZDFAL","","100","img/land3.png","75","100.59999999403954","2","0","1","1","1,0.5,0.5,0.5,1,0.5,0.5,0.5,1","1,0.5,0.5,0.5,1,0.5,0.5,0.5,1","1","",""
"","html-keyboard-response","145","61318","0.0-145.0","3TE3O85731U6AV4O7FRBSCJD84RR2E","AQ9Y6WD8O72ZC","3S1L4CQSFXRWQOWP2XFUSMS4AZDFAL","","null","<img src=""img/land3.png"" style=""width:200px;border:14px solid red;"">","null","","","","","","","","","",""
"","image-keyboard-response","146","61410","0.0-146.0","3TE3O85731U6AV4O7FRBSCJD84RR2E","AQ9Y6WD8O72ZC","3S1L4CQSFXRWQOWP2XFUSMS4AZDFAL","","91.09999999403954","img/land1.png","75","91.69999998807907","2","1","2","1","1,0.5,0.5,0.5,1,0.5,0.5,0.5,1","1,0.5,0.5,0.5,1,0.5,0.5,0.5,1","1","",""
"","html-keyboard-response","147","61711","0.0-147.0","3TE3O85731U6AV4O7FRBSCJD84RR2E","AQ9Y6WD8O72ZC","3S1L4CQSFXRWQOWP2XFUSMS4AZDFAL","","null","<img src=""img/land1.png"" style=""width:200px; border:14px solid green;"">","null","","","","","","","","","",""
"","image-keyboard-response","148","61905","0.0-148.0","3TE3O85731U6AV4O7FRBSCJD84RR2E","AQ9Y6WD8O72ZC","3S1L4CQSFXRWQOWP2XFUSMS4AZDFAL","","193.30000001192093","img/land3.png","75","194.09999999403954","2","0","1","1","1,0.5,0.5,0.5,1,0.5,0.5,0.5,1","1,0.5,0.5,0.5,1,0.5,0.5,0.5,1","1","",""
"","html-keyboard-response","149","62206","0.0-149.0","3TE3O85731U6AV4O7FRBSCJD84RR2E","AQ9Y6WD8O72ZC","3S1L4CQSFXRWQOWP2XFUSMS4AZDFAL","","null","<img src=""img/land3.png"" style=""width:200px;border:14px solid red;"">","null","","","","","","","","","",""
"","image-keyboard-response","150","62759","0.0-150.0","3TE3O85731U6AV4O7FRBSCJD84RR2E","AQ9Y6WD8O72ZC","3S1L4CQSFXRWQOWP2XFUSMS4AZDFAL","","552.2999999821186","img/land2.png","76","552.8999999761581","3","1","3","1","1,0.5,0.5,0.5,1,0.5,0.5,0.5,1","1,0.5,0.5,0.5,1,0.5,0.5,0.5,1","1","",""
"","html-keyboard-response","151","63062","0.0-151.0","3TE3O85731U6AV4O7FRBSCJD84RR2E","AQ9Y6WD8O72ZC","3S1L4CQSFXRWQOWP2XFUSMS4AZDFAL","","null","<img src=""img/land2.png"" style=""width:200px; border:14px solid green;"">","null","","","","","","","","","",""
"","image-keyboard-response","152","63199","0.0-152.0","3TE3O85731U6AV4O7FRBSCJD84RR2E","AQ9Y6WD8O72ZC","3S1L4CQSFXRWQOWP2XFUSMS4AZDFAL","","136.09999999403954","img/land2.png","76","136.89999997615814","3","1","3","1","1,0.5,0.5,0.5,1,0.5,0.5,0.5,1","1,0.5,0.5,0.5,1,0.5,0.5,0.5,1","1","",""
"","html-keyboard-response","153","63501","0.0-153.0","3TE3O85731U6AV4O7FRBSCJD84RR2E","AQ9Y6WD8O72ZC","3S1L4CQSFXRWQOWP2XFUSMS4AZDFAL","","null","<img src=""img/land2.png"" style=""width:200px; border:14px solid green;"">","null","","","","","","","","","",""
"","image-keyboard-response","154","63584","0.0-154.0","3TE3O85731U6AV4O7FRBSCJD84RR2E","AQ9Y6WD8O72ZC","3S1L4CQSFXRWQOWP2XFUSMS4AZDFAL","","83","img/land2.png","76","83.69999998807907","3","1","3","1","1,0.5,0.5,0.5,1,0.5,0.5,0.5,1","1,0.5,0.5,0.5,1,0.5,0.5,0.5,1","1","",""
"","html-keyboard-response","155","63885","0.0-155.0","3TE3O85731U6AV4O7FRBSCJD84RR2E","AQ9Y6WD8O72ZC","3S1L4CQSFXRWQOWP2XFUSMS4AZDFAL","","null","<img src=""img/land2.png"" style=""width:200px; border:14px solid green;"">","null","","","","","","","","","",""
"","image-keyboard-response","156","63977","0.0-156.0","3TE3O85731U6AV4O7FRBSCJD84RR2E","AQ9Y6WD8O72ZC","3S1L4CQSFXRWQOWP2XFUSMS4AZDFAL","","90.59999999403954","img/land2.png","76","91.19999998807907","3","1","3","1","1,0.5,0.5,0.5,1,0.5,0.5,0.5,1","1,0.5,0.5,0.5,1,0.5,0.5,0.5,1","1","",""
"","html-keyboard-response","157","64278","0.0-157.0","3TE3O85731U6AV4O7FRBSCJD84RR2E","AQ9Y6WD8O72ZC","3S1L4CQSFXRWQOWP2XFUSMS4AZDFAL","","null","<img src=""img/land2.png"" style=""width:200px; border:14px solid green;"">","null","","","","","","","","","",""
"","image-keyboard-response","158","64367","0.0-158.0","3TE3O85731U6AV4O7FRBSCJD84RR2E","AQ9Y6WD8O72ZC","3S1L4CQSFXRWQOWP2XFUSMS4AZDFAL","","87.90000000596046","img/land3.png","76","88.69999998807907","3","0","1","1","1,0.5,0.5,0.5,1,0.5,0.5,0.5,1","1,0.5,0.5,0.5,1,0.5,0.5,0.5,1","1","",""
"","html-keyboard-response","159","64668","0.0-159.0","3TE3O85731U6AV4O7FRBSCJD84RR2E","AQ9Y6WD8O72ZC","3S1L4CQSFXRWQOWP2XFUSMS4AZDFAL","","null","<img src=""img/land3.png"" style=""width:200px;border:14px solid red;"">","null","","","","","","","","","",""
"","image-keyboard-response","160","64979","0.0-160.0","3TE3O85731U6AV4O7FRBSCJD84RR2E","AQ9Y6WD8O72ZC","3S1L4CQSFXRWQOWP2XFUSMS4AZDFAL","","310.19999998807907","img/land1.png","74","310.80000001192093","1","0","2","1","1,0.5,0.5,0.5,1,0.5,0.5,0.5,1","1,0.5,0.5,0.5,1,0.5,0.5,0.5,1","1","",""
"","html-keyboard-response","161","65281","0.0-161.0","3TE3O85731U6AV4O7FRBSCJD84RR2E","AQ9Y6WD8O72ZC","3S1L4CQSFXRWQOWP2XFUSMS4AZDFAL","","null","<img src=""img/land1.png"" style=""width:200px;border:14px solid red;"">","null","","","","","","","","","",""
"","image-keyboard-response","162","65385","0.0-162.0","3TE3O85731U6AV4O7FRBSCJD84RR2E","AQ9Y6WD8O72ZC","3S1L4CQSFXRWQOWP2XFUSMS4AZDFAL","","103.59999999403954","img/land3.png","74","104.30000001192093","1","1","1","1","1,0.5,0.5,0.5,1,0.5,0.5,0.5,1","1,0.5,0.5,0.5,1,0.5,0.5,0.5,1","1","",""
"","html-keyboard-response","163","65688","0.0-163.0","3TE3O85731U6AV4O7FRBSCJD84RR2E","AQ9Y6WD8O72ZC","3S1L4CQSFXRWQOWP2XFUSMS4AZDFAL","","null","<img src=""img/land3.png"" style=""width:200px; border:14px solid green;"">","null","","","","","","","","","",""
"","image-keyboard-response","164","65954","0.0-164.0","3TE3O85731U6AV4O7FRBSCJD84RR2E","AQ9Y6WD8O72ZC","3S1L4CQSFXRWQOWP2XFUSMS4AZDFAL","","264.39999997615814","img/land3.png","74","265.09999999403954","1","1","1","1","1,0.5,0.5,0.5,1,0.5,0.5,0.5,1","1,0.5,0.5,0.5,1,0.5,0.5,0.5,1","1","",""
"","html-keyboard-response","165","66255","0.0-165.0","3TE3O85731U6AV4O7FRBSCJD84RR2E","AQ9Y6WD8O72ZC","3S1L4CQSFXRWQOWP2XFUSMS4AZDFAL","","null","<img src=""img/land3.png"" style=""width:200px; border:14px solid green;"">","null","","","","","","","","","",""
"","image-keyboard-response","166","66393","0.0-166.0","3TE3O85731U6AV4O7FRBSCJD84RR2E","AQ9Y6WD8O72ZC","3S1L4CQSFXRWQOWP2XFUSMS4AZDFAL","","137.40000000596046","img/land2.png","74","138.30000001192093","1","0","3","1","1,0.5,0.5,0.5,1,0.5,0.5,0.5,1","1,0.5,0.5,0.5,1,0.5,0.5,0.5,1","1","",""
"","html-keyboard-response","167","66695","0.0-167.0","3TE3O85731U6AV4O7FRBSCJD84RR2E","AQ9Y6WD8O72ZC","3S1L4CQSFXRWQOWP2XFUSMS4AZDFAL","","null","<img src=""img/land2.png"" style=""width:200px;border:14px solid red;"">","null","","","","","","","","","",""
"","image-keyboard-response","168","67054","0.0-168.0","3TE3O85731U6AV4O7FRBSCJD84RR2E","AQ9Y6WD8O72ZC","3S1L4CQSFXRWQOWP2XFUSMS4AZDFAL","","358.69999998807907","img/land3.png","76","359.40000000596046","3","1","1","1","1,0.5,0.5,0.5,1,0.5,0.5,0.5,1","1,0.5,0.5,0.5,1,0.5,0.5,0.5,1","1","",""
"","html-keyboard-response","169","67356","0.0-169.0","3TE3O85731U6AV4O7FRBSCJD84RR2E","AQ9Y6WD8O72ZC","3S1L4CQSFXRWQOWP2XFUSMS4AZDFAL","","null","<img src=""img/land3.png"" style=""width:200px; border:14px solid green;"">","null","","","","","","","","","",""
"","image-keyboard-response","170","67596","0.0-170.0","3TE3O85731U6AV4O7FRBSCJD84RR2E","AQ9Y6WD8O72ZC","3S1L4CQSFXRWQOWP2XFUSMS4AZDFAL","","238.80000001192093","img/land3.png","76","239.39999997615814","3","0","1","1","1,0.5,0.5,0.5,1,0.5,0.5,0.5,1","1,0.5,0.5,0.5,1,0.5,0.5,0.5,1","1","",""
"","html-keyboard-response","171","67897","0.0-171.0","3TE3O85731U6AV4O7FRBSCJD84RR2E","AQ9Y6WD8O72ZC","3S1L4CQSFXRWQOWP2XFUSMS4AZDFAL","","null","<img src=""img/land3.png"" style=""width:200px;border:14px solid red;"">","null","","","","","","","","","",""
"","image-keyboard-response","172","68562","0.0-172.0","3TE3O85731U6AV4O7FRBSCJD84RR2E","AQ9Y6WD8O72ZC","3S1L4CQSFXRWQOWP2XFUSMS4AZDFAL","","664.4000000059605","img/land1.png","75","664.9000000059605","2","1","2","1","1,0.5,0.5,0.5,1,0.5,0.5,0.5,1","1,0.5,0.5,0.5,1,0.5,0.5,0.5,1","1","",""
"","html-keyboard-response","173","68863","0.0-173.0","3TE3O85731U6AV4O7FRBSCJD84RR2E","AQ9Y6WD8O72ZC","3S1L4CQSFXRWQOWP2XFUSMS4AZDFAL","","null","<img src=""img/land1.png"" style=""width:200px; border:14px solid green;"">","null","","","","","","","","","",""
"","image-keyboard-response","174","69017","0.0-174.0","3TE3O85731U6AV4O7FRBSCJD84RR2E","AQ9Y6WD8O72ZC","3S1L4CQSFXRWQOWP2XFUSMS4AZDFAL","","152.59999999403954","img/land2.png","75","153.30000001192093","2","1","3","1","1,0.5,0.5,0.5,1,0.5,0.5,0.5,1","1,0.5,0.5,0.5,1,0.5,0.5,0.5,1","1","",""
"","html-keyboard-response","175","69318","0.0-175.0","3TE3O85731U6AV4O7FRBSCJD84RR2E","AQ9Y6WD8O72ZC","3S1L4CQSFXRWQOWP2XFUSMS4AZDFAL","","null","<img src=""img/land2.png"" style=""width:200px; border:14px solid green;"">","null","","","","","","","","","",""
"","image-keyboard-response","176","69870","0.0-176.0","3TE3O85731U6AV4O7FRBSCJD84RR2E","AQ9Y6WD8O72ZC","3S1L4CQSFXRWQOWP2XFUSMS4AZDFAL","","551.1999999880791","img/land3.png","76","552","3","0","1","1","1,0.5,0.5,0.5,1,0.5,0.5,0.5,1","1,0.5,0.5,0.5,1,0.5,0.5,0.5,1","1","",""
"","html-keyboard-response","177","70172","0.0-177.0","3TE3O85731U6AV4O7FRBSCJD84RR2E","AQ9Y6WD8O72ZC","3S1L4CQSFXRWQOWP2XFUSMS4AZDFAL","","null","<img src=""img/land3.png"" style=""width:200px;border:14px solid red;"">","null","","","","","","","","","",""
"","image-keyboard-response","178","70974","0.0-178.0","3TE3O85731U6AV4O7FRBSCJD84RR2E","AQ9Y6WD8O72ZC","3S1L4CQSFXRWQOWP2XFUSMS4AZDFAL","","800.8999999761581","img/land1.png","75","801.5","2","1","2","1","1,0.5,0.5,0.5,1,0.5,0.5,0.5,1","1,0.5,0.5,0.5,1,0.5,0.5,0.5,1","1","",""
"","html-keyboard-response","179","71275","0.0-179.0","3TE3O85731U6AV4O7FRBSCJD84RR2E","AQ9Y6WD8O72ZC","3S1L4CQSFXRWQOWP2XFUSMS4AZDFAL","","null","<img src=""img/land1.png"" style=""width:200px; border:14px solid green;"">","null","","","","","","","","","",""
"","image-keyboard-response","180","71407","0.0-180.0","3TE3O85731U6AV4O7FRBSCJD84RR2E","AQ9Y6WD8O72ZC","3S1L4CQSFXRWQOWP2XFUSMS4AZDFAL","","131.5","img/land2.png","74","132.10000002384186","1","1","3","1","1,0.5,0.5,0.5,1,0.5,0.5,0.5,1","1,0.5,0.5,0.5,1,0.5,0.5,0.5,1","1","",""
"","html-keyboard-response","181","71709","0.0-181.0","3TE3O85731U6AV4O7FRBSCJD84RR2E","AQ9Y6WD8O72ZC","3S1L4CQSFXRWQOWP2XFUSMS4AZDFAL","","null","<img src=""img/land2.png"" style=""width:200px; border:14px solid green;"">","null","","","","","","","","","",""
"","html-keyboard-response","182","74319","0.0-182.0","3TE3O85731U6AV4O7FRBSCJD84RR2E","AQ9Y6WD8O72ZC","3S1L4CQSFXRWQOWP2XFUSMS4AZDFAL","","","","","","","","","","","","","",""
"","image-keyboard-response","183","75925","0.0-183.0","3TE3O85731U6AV4O7FRBSCJD84RR2E","AQ9Y6WD8O72ZC","3S1L4CQSFXRWQOWP2XFUSMS4AZDFAL","","1604.7999999821186","img/land5.png","75","1605.7000000178814","2","0","1","2","1,0.5,0.5,0.5,1,0.5,0.5,0.5,1","0.5,0.5,1,1,0.5,0.5,0.5,1,0.5","2","",""
"","html-keyboard-response","184","76227","0.0-184.0","3TE3O85731U6AV4O7FRBSCJD84RR2E","AQ9Y6WD8O72ZC","3S1L4CQSFXRWQOWP2XFUSMS4AZDFAL","","null","<img src=""img/land5.png"" style=""width:200px;border:14px solid red;"">","null","","","","","","","","","",""
"","image-keyboard-response","185","76468","0.0-185.0","3TE3O85731U6AV4O7FRBSCJD84RR2E","AQ9Y6WD8O72ZC","3S1L4CQSFXRWQOWP2XFUSMS4AZDFAL","","240.69999998807907","img/land6.png","74","241.5","1","1","2","2","1,0.5,0.5,0.5,1,0.5,0.5,0.5,1","0.5,0.5,1,1,0.5,0.5,0.5,1,0.5","2","",""
"","html-keyboard-response","186","76770","0.0-186.0","3TE3O85731U6AV4O7FRBSCJD84RR2E","AQ9Y6WD8O72ZC","3S1L4CQSFXRWQOWP2XFUSMS4AZDFAL","","null","<img src=""img/land6.png"" style=""width:200px; border:14px solid green;"">","null","","","","","","","","","",""
"","image-keyboard-response","187","76976","0.0-187.0","3TE3O85731U6AV4O7FRBSCJD84RR2E","AQ9Y6WD8O72ZC","3S1L4CQSFXRWQOWP2XFUSMS4AZDFAL","","204.7999999821186","img/land6.png","74","205.40000000596046","1","1","2","2","1,0.5,0.5,0.5,1,0.5,0.5,0.5,1","0.5,0.5,1,1,0.5,0.5,0.5,1,0.5","2","",""
"","html-keyboard-response","188","77277","0.0-188.0","3TE3O85731U6AV4O7FRBSCJD84RR2E","AQ9Y6WD8O72ZC","3S1L4CQSFXRWQOWP2XFUSMS4AZDFAL","","null","<img src=""img/land6.png"" style=""width:200px; border:14px solid green;"">","null","","","","","","","","","",""
"","image-keyboard-response","189","77358","0.0-189.0","3TE3O85731U6AV4O7FRBSCJD84RR2E","AQ9Y6WD8O72ZC","3S1L4CQSFXRWQOWP2XFUSMS4AZDFAL","","79.59999999403954","img/land5.png","74","80.2000000178814","1","1","1","2","1,0.5,0.5,0.5,1,0.5,0.5,0.5,1","0.5,0.5,1,1,0.5,0.5,0.5,1,0.5","2","",""
"","html-keyboard-response","190","77659","0.0-190.0","3TE3O85731U6AV4O7FRBSCJD84RR2E","AQ9Y6WD8O72ZC","3S1L4CQSFXRWQOWP2XFUSMS4AZDFAL","","null","<img src=""img/land5.png"" style=""width:200px; border:14px solid green;"">","null","","","","","","","","","",""
"","image-keyboard-response","191","77732","0.0-191.0","3TE3O85731U6AV4O7FRBSCJD84RR2E","AQ9Y6WD8O72ZC","3S1L4CQSFXRWQOWP2XFUSMS4AZDFAL","","72.2999999821186","img/land4.png","74","73.2999999821186","1","1","3","2","1,0.5,0.5,0.5,1,0.5,0.5,0.5,1","0.5,0.5,1,1,0.5,0.5,0.5,1,0.5","2","",""
"","html-keyboard-response","192","78033","0.0-192.0","3TE3O85731U6AV4O7FRBSCJD84RR2E","AQ9Y6WD8O72ZC","3S1L4CQSFXRWQOWP2XFUSMS4AZDFAL","","null","<img src=""img/land4.png"" style=""width:200px; border:14px solid green;"">","null","","","","","","","","","",""
"","image-keyboard-response","193","78198","0.0-193.0","3TE3O85731U6AV4O7FRBSCJD84RR2E","AQ9Y6WD8O72ZC","3S1L4CQSFXRWQOWP2XFUSMS4AZDFAL","","164.40000000596046","img/land5.png","74","165","1","0","1","2","1,0.5,0.5,0.5,1,0.5,0.5,0.5,1","0.5,0.5,1,1,0.5,0.5,0.5,1,0.5","2","",""
"","html-keyboard-response","194","78500","0.0-194.0","3TE3O85731U6AV4O7FRBSCJD84RR2E","AQ9Y6WD8O72ZC","3S1L4CQSFXRWQOWP2XFUSMS4AZDFAL","","null","<img src=""img/land5.png"" style=""width:200px;border:14px solid red;"">","null","","","","","","","","","",""
"","image-keyboard-response","195","78677","0.0-195.0","3TE3O85731U6AV4O7FRBSCJD84RR2E","AQ9Y6WD8O72ZC","3S1L4CQSFXRWQOWP2XFUSMS4AZDFAL","","176.59999999403954","img/land5.png","74","177.39999997615814","1","1","1","2","1,0.5,0.5,0.5,1,0.5,0.5,0.5,1","0.5,0.5,1,1,0.5,0.5,0.5,1,0.5","2","",""
"","html-keyboard-response","196","78979","0.0-196.0","3TE3O85731U6AV4O7FRBSCJD84RR2E","AQ9Y6WD8O72ZC","3S1L4CQSFXRWQOWP2XFUSMS4AZDFAL","","null","<img src=""img/land5.png"" style=""width:200px; border:14px solid green;"">","null","","","","","","","","","",""
"","image-keyboard-response","197","79027","0.0-197.0","3TE3O85731U6AV4O7FRBSCJD84RR2E","AQ9Y6WD8O72ZC","3S1L4CQSFXRWQOWP2XFUSMS4AZDFAL","","46.60000002384186","img/land5.png","74","47.099999994039536","1","1","1","2","1,0.5,0.5,0.5,1,0.5,0.5,0.5,1","0.5,0.5,1,1,0.5,0.5,0.5,1,0.5","2","",""
"","html-keyboard-response","198","79327","0.0-198.0","3TE3O85731U6AV4O7FRBSCJD84RR2E","AQ9Y6WD8O72ZC","3S1L4CQSFXRWQOWP2XFUSMS4AZDFAL","","null","<img src=""img/land5.png"" style=""width:200px; border:14px solid green;"">","null","","","","","","","","","",""
"","image-keyboard-response","199","79429","0.0-199.0","3TE3O85731U6AV4O7FRBSCJD84RR2E","AQ9Y6WD8O72ZC","3S1L4CQSFXRWQOWP2XFUSMS4AZDFAL","","101.2000000178814","img/land5.png","74","101.7999999821186","1","1","1","2","1,0.5,0.5,0.5,1,0.5,0.5,0.5,1","0.5,0.5,1,1,0.5,0.5,0.5,1,0.5","2","",""
"","html-keyboard-response","200","79730","0.0-200.0","3TE3O85731U6AV4O7FRBSCJD84RR2E","AQ9Y6WD8O72ZC","3S1L4CQSFXRWQOWP2XFUSMS4AZDFAL","","null","<img src=""img/land5.png"" style=""width:200px; border:14px solid green;"">","null","","","","","","","","","",""
"","image-keyboard-response","201","79825","0.0-201.0","3TE3O85731U6AV4O7FRBSCJD84RR2E","AQ9Y6WD8O72ZC","3S1L4CQSFXRWQOWP2XFUSMS4AZDFAL","","94.30000001192093","img/land5.png","74","95.10000002384186","1","0","1","2","1,0.5,0.5,0.5,1,0.5,0.5,0.5,1","0.5,0.5,1,1,0.5,0.5,0.5,1,0.5","2","",""
"","html-keyboard-response","202","80127","0.0-202.0","3TE3O85731U6AV4O7FRBSCJD84RR2E","AQ9Y6WD8O72ZC","3S1L4CQSFXRWQOWP2XFUSMS4AZDFAL","","null","<img src=""img/land5.png"" style=""width:200px;border:14px solid red;"">","null","","","","","","","","","",""
"","image-keyboard-response","203","80321","0.0-203.0","3TE3O85731U6AV4O7FRBSCJD84RR2E","AQ9Y6WD8O72ZC","3S1L4CQSFXRWQOWP2XFUSMS4AZDFAL","","193","img/land4.png","74","193.59999999403954","1","1","3","2","1,0.5,0.5,0.5,1,0.5,0.5,0.5,1","0.5,0.5,1,1,0.5,0.5,0.5,1,0.5","2","",""
"","html-keyboard-response","204","80622","0.0-204.0","3TE3O85731U6AV4O7FRBSCJD84RR2E","AQ9Y6WD8O72ZC","3S1L4CQSFXRWQOWP2XFUSMS4AZDFAL","","null","<img src=""img/land4.png"" style=""width:200px; border:14px solid green;"">","null","","","","","","","","","",""
"","image-keyboard-response","205","80730","0.0-205.0","3TE3O85731U6AV4O7FRBSCJD84RR2E","AQ9Y6WD8O72ZC","3S1L4CQSFXRWQOWP2XFUSMS4AZDFAL","","107.40000000596046","img/land5.png","74","107.90000000596046","1","0","1","2","1,0.5,0.5,0.5,1,0.5,0.5,0.5,1","0.5,0.5,1,1,0.5,0.5,0.5,1,0.5","2","",""
"","html-keyboard-response","206","81032","0.0-206.0","3TE3O85731U6AV4O7FRBSCJD84RR2E","AQ9Y6WD8O72ZC","3S1L4CQSFXRWQOWP2XFUSMS4AZDFAL","","null","<img src=""img/land5.png"" style=""width:200px;border:14px solid red;"">","null","","","","","","","","","",""
"","image-keyboard-response","207","81112","0.0-207.0","3TE3O85731U6AV4O7FRBSCJD84RR2E","AQ9Y6WD8O72ZC","3S1L4CQSFXRWQOWP2XFUSMS4AZDFAL","","79.90000000596046","img/land6.png","74","80.60000002384186","1","1","2","2","1,0.5,0.5,0.5,1,0.5,0.5,0.5,1","0.5,0.5,1,1,0.5,0.5,0.5,1,0.5","2","",""
"","html-keyboard-response","208","81414","0.0-208.0","3TE3O85731U6AV4O7FRBSCJD84RR2E","AQ9Y6WD8O72ZC","3S1L4CQSFXRWQOWP2XFUSMS4AZDFAL","","null","<img src=""img/land6.png"" style=""width:200px; border:14px solid green;"">","null","","","","","","","","","",""
"","image-keyboard-response","209","81556","0.0-209.0","3TE3O85731U6AV4O7FRBSCJD84RR2E","AQ9Y6WD8O72ZC","3S1L4CQSFXRWQOWP2XFUSMS4AZDFAL","","141.90000000596046","img/land5.png","74","142.59999999403954","1","0","1","2","1,0.5,0.5,0.5,1,0.5,0.5,0.5,1","0.5,0.5,1,1,0.5,0.5,0.5,1,0.5","2","",""
"","html-keyboard-response","210","81857","0.0-210.0","3TE3O85731U6AV4O7FRBSCJD84RR2E","AQ9Y6WD8O72ZC","3S1L4CQSFXRWQOWP2XFUSMS4AZDFAL","","null","<img src=""img/land5.png"" style=""width:200px;border:14px solid red;"">","null","","","","","","","","","",""
"","image-keyboard-response","211","82015","0.0-211.0","3TE3O85731U6AV4O7FRBSCJD84RR2E","AQ9Y6WD8O72ZC","3S1L4CQSFXRWQOWP2XFUSMS4AZDFAL","","157","img/land4.png","74","157.7999999821186","1","1","3","2","1,0.5,0.5,0.5,1,0.5,0.5,0.5,1","0.5,0.5,1,1,0.5,0.5,0.5,1,0.5","2","",""
"","html-keyboard-response","212","82317","0.0-212.0","3TE3O85731U6AV4O7FRBSCJD84RR2E","AQ9Y6WD8O72ZC","3S1L4CQSFXRWQOWP2XFUSMS4AZDFAL","","null","<img src=""img/land4.png"" style=""width:200px; border:14px solid green;"">","null","","","","","","","","","",""
"","image-keyboard-response","213","82409","0.0-213.0","3TE3O85731U6AV4O7FRBSCJD84RR2E","AQ9Y6WD8O72ZC","3S1L4CQSFXRWQOWP2XFUSMS4AZDFAL","","90.80000001192093","img/land5.png","74","91.39999997615814","1","0","1","2","1,0.5,0.5,0.5,1,0.5,0.5,0.5,1","0.5,0.5,1,1,0.5,0.5,0.5,1,0.5","2","",""
"","html-keyboard-response","214","82711","0.0-214.0","3TE3O85731U6AV4O7FRBSCJD84RR2E","AQ9Y6WD8O72ZC","3S1L4CQSFXRWQOWP2XFUSMS4AZDFAL","","null","<img src=""img/land5.png"" style=""width:200px;border:14px solid red;"">","null","","","","","","","","","",""
"","image-keyboard-response","215","82858","0.0-215.0","3TE3O85731U6AV4O7FRBSCJD84RR2E","AQ9Y6WD8O72ZC","3S1L4CQSFXRWQOWP2XFUSMS4AZDFAL","","146.5","img/land5.png","74","147.2000000178814","1","0","1","2","1,0.5,0.5,0.5,1,0.5,0.5,0.5,1","0.5,0.5,1,1,0.5,0.5,0.5,1,0.5","2","",""
"","html-keyboard-response","216","83160","0.0-216.0","3TE3O85731U6AV4O7FRBSCJD84RR2E","AQ9Y6WD8O72ZC","3S1L4CQSFXRWQOWP2XFUSMS4AZDFAL","","null","<img src=""img/land5.png"" style=""width:200px;border:14px solid red;"">","null","","","","","","","","","",""
"","image-keyboard-response","217","83241","0.0-217.0","3TE3O85731U6AV4O7FRBSCJD84RR2E","AQ9Y6WD8O72ZC","3S1L4CQSFXRWQOWP2XFUSMS4AZDFAL","","80.39999997615814","img/land5.png","76","81.2000000178814","3","1","1","2","1,0.5,0.5,0.5,1,0.5,0.5,0.5,1","0.5,0.5,1,1,0.5,0.5,0.5,1,0.5","2","",""
"","html-keyboard-response","218","83543","0.0-218.0","3TE3O85731U6AV4O7FRBSCJD84RR2E","AQ9Y6WD8O72ZC","3S1L4CQSFXRWQOWP2XFUSMS4AZDFAL","","null","<img src=""img/land5.png"" style=""width:200px; border:14px solid green;"">","null","","","","","","","","","",""
"","image-keyboard-response","219","83762","0.0-219.0","3TE3O85731U6AV4O7FRBSCJD84RR2E","AQ9Y6WD8O72ZC","3S1L4CQSFXRWQOWP2XFUSMS4AZDFAL","","217.5","img/land5.png","76","218.09999999403954","3","1","1","2","1,0.5,0.5,0.5,1,0.5,0.5,0.5,1","0.5,0.5,1,1,0.5,0.5,0.5,1,0.5","2","",""
"","html-keyboard-response","220","84064","0.0-220.0","3TE3O85731U6AV4O7FRBSCJD84RR2E","AQ9Y6WD8O72ZC","3S1L4CQSFXRWQOWP2XFUSMS4AZDFAL","","null","<img src=""img/land5.png"" style=""width:200px; border:14px solid green;"">","null","","","","","","","","","",""
"","image-keyboard-response","221","84113","0.0-221.0","3TE3O85731U6AV4O7FRBSCJD84RR2E","AQ9Y6WD8O72ZC","3S1L4CQSFXRWQOWP2XFUSMS4AZDFAL","","47.80000001192093","img/land6.png","76","48.400000005960464","3","0","2","2","1,0.5,0.5,0.5,1,0.5,0.5,0.5,1","0.5,0.5,1,1,0.5,0.5,0.5,1,0.5","2","",""
"","html-keyboard-response","222","84414","0.0-222.0","3TE3O85731U6AV4O7FRBSCJD84RR2E","AQ9Y6WD8O72ZC","3S1L4CQSFXRWQOWP2XFUSMS4AZDFAL","","null","<img src=""img/land6.png"" style=""width:200px;border:14px solid red;"">","null","","","","","","","","","",""
"","image-keyboard-response","223","84722","0.0-223.0","3TE3O85731U6AV4O7FRBSCJD84RR2E","AQ9Y6WD8O72ZC","3S1L4CQSFXRWQOWP2XFUSMS4AZDFAL","","306.80000001192093","img/land6.png","75","307.59999999403954","2","1","2","2","1,0.5,0.5,0.5,1,0.5,0.5,0.5,1","0.5,0.5,1,1,0.5,0.5,0.5,1,0.5","2","",""
"","html-keyboard-response","224","85023","0.0-224.0","3TE3O85731U6AV4O7FRBSCJD84RR2E","AQ9Y6WD8O72ZC","3S1L4CQSFXRWQOWP2XFUSMS4AZDFAL","","null","<img src=""img/land6.png"" style=""width:200px; border:14px solid green;"">","null","","","","","","","","","",""
"","image-keyboard-response","225","85148","0.0-225.0","3TE3O85731U6AV4O7FRBSCJD84RR2E","AQ9Y6WD8O72ZC","3S1L4CQSFXRWQOWP2XFUSMS4AZDFAL","","124","img/land6.png","75","124.80000001192093","2","0","2","2","1,0.5,0.5,0.5,1,0.5,0.5,0.5,1","0.5,0.5,1,1,0.5,0.5,0.5,1,0.5","2","",""
"","html-keyboard-response","226","85449","0.0-226.0","3TE3O85731U6AV4O7FRBSCJD84RR2E","AQ9Y6WD8O72ZC","3S1L4CQSFXRWQOWP2XFUSMS4AZDFAL","","null","<img src=""img/land6.png"" style=""width:200px;border:14px solid red;"">","null","","","","","","","","","",""
"","image-keyboard-response","227","85778","0.0-227.0","3TE3O85731U6AV4O7FRBSCJD84RR2E","AQ9Y6WD8O72ZC","3S1L4CQSFXRWQOWP2XFUSMS4AZDFAL","","327.89999997615814","img/land6.png","75","328.7000000178814","2","0","2","2","1,0.5,0.5,0.5,1,0.5,0.5,0.5,1","0.5,0.5,1,1,0.5,0.5,0.5,1,0.5","2","",""
"","html-keyboard-response","228","86079","0.0-228.0","3TE3O85731U6AV4O7FRBSCJD84RR2E","AQ9Y6WD8O72ZC","3S1L4CQSFXRWQOWP2XFUSMS4AZDFAL","","null","<img src=""img/land6.png"" style=""width:200px;border:14px solid red;"">","null","","","","","","","","","",""
"","image-keyboard-response","229","86856","0.0-229.0","3TE3O85731U6AV4O7FRBSCJD84RR2E","AQ9Y6WD8O72ZC","3S1L4CQSFXRWQOWP2XFUSMS4AZDFAL","","776.5","img/land4.png","76","777.0999999940395","3","1","3","2","1,0.5,0.5,0.5,1,0.5,0.5,0.5,1","0.5,0.5,1,1,0.5,0.5,0.5,1,0.5","2","",""
"","html-keyboard-response","230","87164","0.0-230.0","3TE3O85731U6AV4O7FRBSCJD84RR2E","AQ9Y6WD8O72ZC","3S1L4CQSFXRWQOWP2XFUSMS4AZDFAL","","null","<img src=""img/land4.png"" style=""width:200px; border:14px solid green;"">","null","","","","","","","","","",""
"","image-keyboard-response","231","87359","0.0-231.0","3TE3O85731U6AV4O7FRBSCJD84RR2E","AQ9Y6WD8O72ZC","3S1L4CQSFXRWQOWP2XFUSMS4AZDFAL","","194.19999998807907","img/land5.png","76","195","3","1","1","2","1,0.5,0.5,0.5,1,0.5,0.5,0.5,1","0.5,0.5,1,1,0.5,0.5,0.5,1,0.5","2","",""
"","html-keyboard-response","232","87661","0.0-232.0","3TE3O85731U6AV4O7FRBSCJD84RR2E","AQ9Y6WD8O72ZC","3S1L4CQSFXRWQOWP2XFUSMS4AZDFAL","","null","<img src=""img/land5.png"" style=""width:200px; border:14px solid green;"">","null","","","","","","","","","",""
"","image-keyboard-response","233","87893","0.0-233.0","3TE3O85731U6AV4O7FRBSCJD84RR2E","AQ9Y6WD8O72ZC","3S1L4CQSFXRWQOWP2XFUSMS4AZDFAL","","231.10000002384186","img/land5.png","76","231.80000001192093","3","1","1","2","1,0.5,0.5,0.5,1,0.5,0.5,0.5,1","0.5,0.5,1,1,0.5,0.5,0.5,1,0.5","2","",""
"","html-keyboard-response","234","88195","0.0-234.0","3TE3O85731U6AV4O7FRBSCJD84RR2E","AQ9Y6WD8O72ZC","3S1L4CQSFXRWQOWP2XFUSMS4AZDFAL","","null","<img src=""img/land5.png"" style=""width:200px; border:14px solid green;"">","null","","","","","","","","","",""
"","image-keyboard-response","235","88291","0.0-235.0","3TE3O85731U6AV4O7FRBSCJD84RR2E","AQ9Y6WD8O72ZC","3S1L4CQSFXRWQOWP2XFUSMS4AZDFAL","","95.2000000178814","img/land5.png","76","95.80000001192093","3","1","1","2","1,0.5,0.5,0.5,1,0.5,0.5,0.5,1","0.5,0.5,1,1,0.5,0.5,0.5,1,0.5","2","",""
"","html-keyboard-response","236","88593","0.0-236.0","3TE3O85731U6AV4O7FRBSCJD84RR2E","AQ9Y6WD8O72ZC","3S1L4CQSFXRWQOWP2XFUSMS4AZDFAL","","null","<img src=""img/land5.png"" style=""width:200px; border:14px solid green;"">","null","","","","","","","","","",""
"","image-keyboard-response","237","88787","0.0-237.0","3TE3O85731U6AV4O7FRBSCJD84RR2E","AQ9Y6WD8O72ZC","3S1L4CQSFXRWQOWP2XFUSMS4AZDFAL","","193.40000000596046","img/land5.png","76","194","3","1","1","2","1,0.5,0.5,0.5,1,0.5,0.5,0.5,1","0.5,0.5,1,1,0.5,0.5,0.5,1,0.5","2","",""
"","html-keyboard-response","238","89088","0.0-238.0","3TE3O85731U6AV4O7FRBSCJD84RR2E","AQ9Y6WD8O72ZC","3S1L4CQSFXRWQOWP2XFUSMS4AZDFAL","","null","<img src=""img/land5.png"" style=""width:200px; border:14px solid green;"">","null","","","","","","","","","",""
"","image-keyboard-response","239","89217","0.0-239.0","3TE3O85731U6AV4O7FRBSCJD84RR2E","AQ9Y6WD8O72ZC","3S1L4CQSFXRWQOWP2XFUSMS4AZDFAL","","128","img/land4.png","76","128.59999999403954","3","1","3","2","1,0.5,0.5,0.5,1,0.5,0.5,0.5,1","0.5,0.5,1,1,0.5,0.5,0.5,1,0.5","2","",""
"","html-keyboard-response","240","89519","0.0-240.0","3TE3O85731U6AV4O7FRBSCJD84RR2E","AQ9Y6WD8O72ZC","3S1L4CQSFXRWQOWP2XFUSMS4AZDFAL","","null","<img src=""img/land4.png"" style=""width:200px; border:14px solid green;"">","null","","","","","","","","","",""
"","image-keyboard-response","241","89641","0.0-241.0","3TE3O85731U6AV4O7FRBSCJD84RR2E","AQ9Y6WD8O72ZC","3S1L4CQSFXRWQOWP2XFUSMS4AZDFAL","","121.09999999403954","img/land4.png","76","121.80000001192093","3","1","3","2","1,0.5,0.5,0.5,1,0.5,0.5,0.5,1","0.5,0.5,1,1,0.5,0.5,0.5,1,0.5","2","",""
"","html-keyboard-response","242","89942","0.0-242.0","3TE3O85731U6AV4O7FRBSCJD84RR2E","AQ9Y6WD8O72ZC","3S1L4CQSFXRWQOWP2XFUSMS4AZDFAL","","null","<img src=""img/land4.png"" style=""width:200px; border:14px solid green;"">","null","","","","","","","","","",""
"","image-keyboard-response","243","89969","0.0-243.0","3TE3O85731U6AV4O7FRBSCJD84RR2E","AQ9Y6WD8O72ZC","3S1L4CQSFXRWQOWP2XFUSMS4AZDFAL","","26.099999994039536","img/land6.png","76","27","3","1","2","2","1,0.5,0.5,0.5,1,0.5,0.5,0.5,1","0.5,0.5,1,1,0.5,0.5,0.5,1,0.5","2","",""
"","html-keyboard-response","244","90270","0.0-244.0","3TE3O85731U6AV4O7FRBSCJD84RR2E","AQ9Y6WD8O72ZC","3S1L4CQSFXRWQOWP2XFUSMS4AZDFAL","","null","<img src=""img/land6.png"" style=""width:200px; border:14px solid green;"">","null","","","","","","","","","",""
"","image-keyboard-response","245","90456","0.0-245.0","3TE3O85731U6AV4O7FRBSCJD84RR2E","AQ9Y6WD8O72ZC","3S1L4CQSFXRWQOWP2XFUSMS4AZDFAL","","185.5","img/land6.png","76","186.09999999403954","3","1","2","2","1,0.5,0.5,0.5,1,0.5,0.5,0.5,1","0.5,0.5,1,1,0.5,0.5,0.5,1,0.5","2","",""
"","html-keyboard-response","246","90759","0.0-246.0","3TE3O85731U6AV4O7FRBSCJD84RR2E","AQ9Y6WD8O72ZC","3S1L4CQSFXRWQOWP2XFUSMS4AZDFAL","","null","<img src=""img/land6.png"" style=""width:200px; border:14px solid green;"">","null","","","","","","","","","",""
"","image-keyboard-response","247","91275","0.0-247.0","3TE3O85731U6AV4O7FRBSCJD84RR2E","AQ9Y6WD8O72ZC","3S1L4CQSFXRWQOWP2XFUSMS4AZDFAL","","515.8000000119209","img/land5.png","76","516.2999999821186","3","1","1","2","1,0.5,0.5,0.5,1,0.5,0.5,0.5,1","0.5,0.5,1,1,0.5,0.5,0.5,1,0.5","2","",""
"","html-keyboard-response","248","91577","0.0-248.0","3TE3O85731U6AV4O7FRBSCJD84RR2E","AQ9Y6WD8O72ZC","3S1L4CQSFXRWQOWP2XFUSMS4AZDFAL","","null","<img src=""img/land5.png"" style=""width:200px; border:14px solid green;"">","null","","","","","","","","","",""
"","image-keyboard-response","249","91850","0.0-249.0","3TE3O85731U6AV4O7FRBSCJD84RR2E","AQ9Y6WD8O72ZC","3S1L4CQSFXRWQOWP2XFUSMS4AZDFAL","","272","img/land4.png","76","272.60000002384186","3","1","3","2","1,0.5,0.5,0.5,1,0.5,0.5,0.5,1","0.5,0.5,1,1,0.5,0.5,0.5,1,0.5","2","",""
"","html-keyboard-response","250","92150","0.0-250.0","3TE3O85731U6AV4O7FRBSCJD84RR2E","AQ9Y6WD8O72ZC","3S1L4CQSFXRWQOWP2XFUSMS4AZDFAL","","null","<img src=""img/land4.png"" style=""width:200px; border:14px solid green;"">","null","","","","","","","","","",""
"","image-keyboard-response","251","92267","0.0-251.0","3TE3O85731U6AV4O7FRBSCJD84RR2E","AQ9Y6WD8O72ZC","3S1L4CQSFXRWQOWP2XFUSMS4AZDFAL","","115.40000000596046","img/land5.png","76","116.2999999821186","3","1","1","2","1,0.5,0.5,0.5,1,0.5,0.5,0.5,1","0.5,0.5,1,1,0.5,0.5,0.5,1,0.5","2","",""
"","html-keyboard-response","252","92568","0.0-252.0","3TE3O85731U6AV4O7FRBSCJD84RR2E","AQ9Y6WD8O72ZC","3S1L4CQSFXRWQOWP2XFUSMS4AZDFAL","","null","<img src=""img/land5.png"" style=""width:200px; border:14px solid green;"">","null","","","","","","","","","",""
"","image-keyboard-response","253","92581","0.0-253.0","3TE3O85731U6AV4O7FRBSCJD84RR2E","AQ9Y6WD8O72ZC","3S1L4CQSFXRWQOWP2XFUSMS4AZDFAL","","12.599999994039536","img/land5.png","76","13.400000005960464","3","1","1","2","1,0.5,0.5,0.5,1,0.5,0.5,0.5,1","0.5,0.5,1,1,0.5,0.5,0.5,1,0.5","2","",""
"","html-keyboard-response","254","92883","0.0-254.0","3TE3O85731U6AV4O7FRBSCJD84RR2E","AQ9Y6WD8O72ZC","3S1L4CQSFXRWQOWP2XFUSMS4AZDFAL","","null","<img src=""img/land5.png"" style=""width:200px; border:14px solid green;"">","null","","","","","","","","","",""
"","image-keyboard-response","255","92890","0.0-255.0","3TE3O85731U6AV4O7FRBSCJD84RR2E","AQ9Y6WD8O72ZC","3S1L4CQSFXRWQOWP2XFUSMS4AZDFAL","","6.199999988079071","img/land6.png","76","7.100000023841858","3","1","2","2","1,0.5,0.5,0.5,1,0.5,0.5,0.5,1","0.5,0.5,1,1,0.5,0.5,0.5,1,0.5","2","",""
"","html-keyboard-response","256","93192","0.0-256.0","3TE3O85731U6AV4O7FRBSCJD84RR2E","AQ9Y6WD8O72ZC","3S1L4CQSFXRWQOWP2XFUSMS4AZDFAL","","null","<img src=""img/land6.png"" style=""width:200px; border:14px solid green;"">","null","","","","","","","","","",""
"","image-keyboard-response","257","93226","0.0-257.0","3TE3O85731U6AV4O7FRBSCJD84RR2E","AQ9Y6WD8O72ZC","3S1L4CQSFXRWQOWP2XFUSMS4AZDFAL","","32.79999998211861","img/land5.png","76","33.39999997615814","3","1","1","2","1,0.5,0.5,0.5,1,0.5,0.5,0.5,1","0.5,0.5,1,1,0.5,0.5,0.5,1,0.5","2","",""
"","html-keyboard-response","258","93527","0.0-258.0","3TE3O85731U6AV4O7FRBSCJD84RR2E","AQ9Y6WD8O72ZC","3S1L4CQSFXRWQOWP2XFUSMS4AZDFAL","","null","<img src=""img/land5.png"" style=""width:200px; border:14px solid green;"">","null","","","","","","","","","",""
"","image-keyboard-response","259","93601","0.0-259.0","3TE3O85731U6AV4O7FRBSCJD84RR2E","AQ9Y6WD8O72ZC","3S1L4CQSFXRWQOWP2XFUSMS4AZDFAL","","73.5","img/land4.png","76","74","3","0","3","2","1,0.5,0.5,0.5,1,0.5,0.5,0.5,1","0.5,0.5,1,1,0.5,0.5,0.5,1,0.5","2","",""
"","html-keyboard-response","260","93902","0.0-260.0","3TE3O85731U6AV4O7FRBSCJD84RR2E","AQ9Y6WD8O72ZC","3S1L4CQSFXRWQOWP2XFUSMS4AZDFAL","","null","<img src=""img/land4.png"" style=""width:200px;border:14px solid red;"">","null","","","","","","","","","",""
"","image-keyboard-response","261","94199","0.0-261.0","3TE3O85731U6AV4O7FRBSCJD84RR2E","AQ9Y6WD8O72ZC","3S1L4CQSFXRWQOWP2XFUSMS4AZDFAL","","296.5","img/land5.png","76","297.19999998807907","3","1","1","2","1,0.5,0.5,0.5,1,0.5,0.5,0.5,1","0.5,0.5,1,1,0.5,0.5,0.5,1,0.5","2","",""
"","html-keyboard-response","262","94500","0.0-262.0","3TE3O85731U6AV4O7FRBSCJD84RR2E","AQ9Y6WD8O72ZC","3S1L4CQSFXRWQOWP2XFUSMS4AZDFAL","","null","<img src=""img/land5.png"" style=""width:200px; border:14px solid green;"">","null","","","","","","","","","",""
"","image-keyboard-response","263","94515","0.0-263.0","3TE3O85731U6AV4O7FRBSCJD84RR2E","AQ9Y6WD8O72ZC","3S1L4CQSFXRWQOWP2XFUSMS4AZDFAL","","13.700000017881393","img/land4.png","76","14.399999976158142","3","1","3","2","1,0.5,0.5,0.5,1,0.5,0.5,0.5,1","0.5,0.5,1,1,0.5,0.5,0.5,1,0.5","2","",""
"","html-keyboard-response","264","94817","0.0-264.0","3TE3O85731U6AV4O7FRBSCJD84RR2E","AQ9Y6WD8O72ZC","3S1L4CQSFXRWQOWP2XFUSMS4AZDFAL","","null","<img src=""img/land4.png"" style=""width:200px; border:14px solid green;"">","null","","","","","","","","","",""
"","image-keyboard-response","265","95071","0.0-265.0","3TE3O85731U6AV4O7FRBSCJD84RR2E","AQ9Y6WD8O72ZC","3S1L4CQSFXRWQOWP2XFUSMS4AZDFAL","","253.60000002384186","img/land5.png","76","254.30000001192093","3","1","1","2","1,0.5,0.5,0.5,1,0.5,0.5,0.5,1","0.5,0.5,1,1,0.5,0.5,0.5,1,0.5","2","",""
"","html-keyboard-response","266","95373","0.0-266.0","3TE3O85731U6AV4O7FRBSCJD84RR2E","AQ9Y6WD8O72ZC","3S1L4CQSFXRWQOWP2XFUSMS4AZDFAL","","null","<img src=""img/land5.png"" style=""width:200px; border:14px solid green;"">","null","","","","","","","","","",""
"","image-keyboard-response","267","95384","0.0-267.0","3TE3O85731U6AV4O7FRBSCJD84RR2E","AQ9Y6WD8O72ZC","3S1L4CQSFXRWQOWP2XFUSMS4AZDFAL","","10.400000005960464","img/land4.png","76","11","3","0","3","2","1,0.5,0.5,0.5,1,0.5,0.5,0.5,1","0.5,0.5,1,1,0.5,0.5,0.5,1,0.5","2","",""
"","html-keyboard-response","268","95685","0.0-268.0","3TE3O85731U6AV4O7FRBSCJD84RR2E","AQ9Y6WD8O72ZC","3S1L4CQSFXRWQOWP2XFUSMS4AZDFAL","","null","<img src=""img/land4.png"" style=""width:200px;border:14px solid red;"">","null","","","","","","","","","",""
"","image-keyboard-response","269","95701","0.0-269.0","3TE3O85731U6AV4O7FRBSCJD84RR2E","AQ9Y6WD8O72ZC","3S1L4CQSFXRWQOWP2XFUSMS4AZDFAL","","15.599999994039536","img/land5.png","76","16.5","3","1","1","2","1,0.5,0.5,0.5,1,0.5,0.5,0.5,1","0.5,0.5,1,1,0.5,0.5,0.5,1,0.5","2","",""
"","html-keyboard-response","270","96002","0.0-270.0","3TE3O85731U6AV4O7FRBSCJD84RR2E","AQ9Y6WD8O72ZC","3S1L4CQSFXRWQOWP2XFUSMS4AZDFAL","","null","<img src=""img/land5.png"" style=""width:200px; border:14px solid green;"">","null","","","","","","","","","",""
"","image-keyboard-response","271","96018","0.0-271.0","3TE3O85731U6AV4O7FRBSCJD84RR2E","AQ9Y6WD8O72ZC","3S1L4CQSFXRWQOWP2XFUSMS4AZDFAL","","14.799999982118607","img/land5.png","76","15.5","3","1","1","2","1,0.5,0.5,0.5,1,0.5,0.5,0.5,1","0.5,0.5,1,1,0.5,0.5,0.5,1,0.5","2","",""
"","html-keyboard-response","272","96320","0.0-272.0","3TE3O85731U6AV4O7FRBSCJD84RR2E","AQ9Y6WD8O72ZC","3S1L4CQSFXRWQOWP2XFUSMS4AZDFAL","","null","<img src=""img/land5.png"" style=""width:200px; border:14px solid green;"">","null","","","","","","","","","",""
"","image-keyboard-response","273","96321","0.0-273.0","3TE3O85731U6AV4O7FRBSCJD84RR2E","AQ9Y6WD8O72ZC","3S1L4CQSFXRWQOWP2XFUSMS4AZDFAL","","0","img/land4.png","76","0.7999999821186066","3","1","3","2","1,0.5,0.5,0.5,1,0.5,0.5,0.5,1","0.5,0.5,1,1,0.5,0.5,0.5,1,0.5","2","",""
"","html-keyboard-response","274","96622","0.0-274.0","3TE3O85731U6AV4O7FRBSCJD84RR2E","AQ9Y6WD8O72ZC","3S1L4CQSFXRWQOWP2XFUSMS4AZDFAL","","null","<img src=""img/land4.png"" style=""width:200px; border:14px solid green;"">","null","","","","","","","","","",""
"","image-keyboard-response","275","96920","0.0-275.0","3TE3O85731U6AV4O7FRBSCJD84RR2E","AQ9Y6WD8O72ZC","3S1L4CQSFXRWQOWP2XFUSMS4AZDFAL","","296.7000000178814","img/land4.png","76","297.30000001192093","3","0","3","2","1,0.5,0.5,0.5,1,0.5,0.5,0.5,1","0.5,0.5,1,1,0.5,0.5,0.5,1,0.5","2","",""
"","html-keyboard-response","276","97221","0.0-276.0","3TE3O85731U6AV4O7FRBSCJD84RR2E","AQ9Y6WD8O72ZC","3S1L4CQSFXRWQOWP2XFUSMS4AZDFAL","","null","<img src=""img/land4.png"" style=""width:200px;border:14px solid red;"">","null","","","","","","","","","",""
"","image-keyboard-response","277","97226","0.0-277.0","3TE3O85731U6AV4O7FRBSCJD84RR2E","AQ9Y6WD8O72ZC","3S1L4CQSFXRWQOWP2XFUSMS4AZDFAL","","3.9000000059604645","img/land5.png","76","4.5","3","1","1","2","1,0.5,0.5,0.5,1,0.5,0.5,0.5,1","0.5,0.5,1,1,0.5,0.5,0.5,1,0.5","2","",""
"","html-keyboard-response","278","97527","0.0-278.0","3TE3O85731U6AV4O7FRBSCJD84RR2E","AQ9Y6WD8O72ZC","3S1L4CQSFXRWQOWP2XFUSMS4AZDFAL","","null","<img src=""img/land5.png"" style=""width:200px; border:14px solid green;"">","null","","","","","","","","","",""
"","image-keyboard-response","279","97535","0.0-279.0","3TE3O85731U6AV4O7FRBSCJD84RR2E","AQ9Y6WD8O72ZC","3S1L4CQSFXRWQOWP2XFUSMS4AZDFAL","","6.799999982118607","img/land6.png","76","7.600000023841858","3","0","2","2","1,0.5,0.5,0.5,1,0.5,0.5,0.5,1","0.5,0.5,1,1,0.5,0.5,0.5,1,0.5","2","",""
"","html-keyboard-response","280","97836","0.0-280.0","3TE3O85731U6AV4O7FRBSCJD84RR2E","AQ9Y6WD8O72ZC","3S1L4CQSFXRWQOWP2XFUSMS4AZDFAL","","null","<img src=""img/land6.png"" style=""width:200px;border:14px solid red;"">","null","","","","","","","","","",""
"","image-keyboard-response","281","98129","0.0-281.0","3TE3O85731U6AV4O7FRBSCJD84RR2E","AQ9Y6WD8O72ZC","3S1L4CQSFXRWQOWP2XFUSMS4AZDFAL","","291.89999997615814","img/land6.png","76","292.59999999403954","3","1","2","2","1,0.5,0.5,0.5,1,0.5,0.5,0.5,1","0.5,0.5,1,1,0.5,0.5,0.5,1,0.5","2","",""
"","html-keyboard-response","282","98430","0.0-282.0","3TE3O85731U6AV4O7FRBSCJD84RR2E","AQ9Y6WD8O72ZC","3S1L4CQSFXRWQOWP2XFUSMS4AZDFAL","","null","<img src=""img/land6.png"" style=""width:200px; border:14px solid green;"">","null","","","","","","","","","",""
"","image-keyboard-response","283","98701","0.0-283.0","3TE3O85731U6AV4O7FRBSCJD84RR2E","AQ9Y6WD8O72ZC","3S1L4CQSFXRWQOWP2XFUSMS4AZDFAL","","269.80000001192093","img/land4.png","76","270.59999999403954","3","1","3","2","1,0.5,0.5,0.5,1,0.5,0.5,0.5,1","0.5,0.5,1,1,0.5,0.5,0.5,1,0.5","2","",""
"","html-keyboard-response","284","99002","0.0-284.0","3TE3O85731U6AV4O7FRBSCJD84RR2E","AQ9Y6WD8O72ZC","3S1L4CQSFXRWQOWP2XFUSMS4AZDFAL","","null","<img src=""img/land4.png"" style=""width:200px; border:14px solid green;"">","null","","","","","","","","","",""
"","image-keyboard-response","285","99031","0.0-285.0","3TE3O85731U6AV4O7FRBSCJD84RR2E","AQ9Y6WD8O72ZC","3S1L4CQSFXRWQOWP2XFUSMS4AZDFAL","","28.599999994039536","img/land5.png","76","29.299999982118607","3","1","1","2","1,0.5,0.5,0.5,1,0.5,0.5,0.5,1","0.5,0.5,1,1,0.5,0.5,0.5,1,0.5","2","",""
"","html-keyboard-response","286","99333","0.0-286.0","3TE3O85731U6AV4O7FRBSCJD84RR2E","AQ9Y6WD8O72ZC","3S1L4CQSFXRWQOWP2XFUSMS4AZDFAL","","null","<img src=""img/land5.png"" style=""width:200px; border:14px solid green;"">","null","","","","","","","","","",""
"","image-keyboard-response","287","99340","0.0-287.0","3TE3O85731U6AV4O7FRBSCJD84RR2E","AQ9Y6WD8O72ZC","3S1L4CQSFXRWQOWP2XFUSMS4AZDFAL","","5.5999999940395355","img/land6.png","76","7","3","1","2","2","1,0.5,0.5,0.5,1,0.5,0.5,0.5,1","0.5,0.5,1,1,0.5,0.5,0.5,1,0.5","2","",""
"","html-keyboard-response","288","99641","0.0-288.0","3TE3O85731U6AV4O7FRBSCJD84RR2E","AQ9Y6WD8O72ZC","3S1L4CQSFXRWQOWP2XFUSMS4AZDFAL","","null","<img src=""img/land6.png"" style=""width:200px; border:14px solid green;"">","null","","","","","","","","","",""
"","image-keyboard-response","289","99943","0.0-289.0","3TE3O85731U6AV4O7FRBSCJD84RR2E","AQ9Y6WD8O72ZC","3S1L4CQSFXRWQOWP2XFUSMS4AZDFAL","","301.30000001192093","img/land5.png","76","301.7999999821186","3","1","1","2","1,0.5,0.5,0.5,1,0.5,0.5,0.5,1","0.5,0.5,1,1,0.5,0.5,0.5,1,0.5","2","",""
"","html-keyboard-response","290","100244","0.0-290.0","3TE3O85731U6AV4O7FRBSCJD84RR2E","AQ9Y6WD8O72ZC","3S1L4CQSFXRWQOWP2XFUSMS4AZDFAL","","null","<img src=""img/land5.png"" style=""width:200px; border:14px solid green;"">","null","","","","","","","","","",""
"","image-keyboard-response","291","100264","0.0-291.0","3TE3O85731U6AV4O7FRBSCJD84RR2E","AQ9Y6WD8O72ZC","3S1L4CQSFXRWQOWP2XFUSMS4AZDFAL","","18.69999998807907","img/land6.png","76","19.299999982118607","3","0","2","2","1,0.5,0.5,0.5,1,0.5,0.5,0.5,1","0.5,0.5,1,1,0.5,0.5,0.5,1,0.5","2","",""
"","html-keyboard-response","292","100565","0.0-292.0","3TE3O85731U6AV4O7FRBSCJD84RR2E","AQ9Y6WD8O72ZC","3S1L4CQSFXRWQOWP2XFUSMS4AZDFAL","","null","<img src=""img/land6.png"" style=""width:200px;border:14px solid red;"">","null","","","","","","","","","",""
"","image-keyboard-response","293","100870","0.0-293.0","3TE3O85731U6AV4O7FRBSCJD84RR2E","AQ9Y6WD8O72ZC","3S1L4CQSFXRWQOWP2XFUSMS4AZDFAL","","304","img/land5.png","76","304.7000000178814","3","1","1","2","1,0.5,0.5,0.5,1,0.5,0.5,0.5,1","0.5,0.5,1,1,0.5,0.5,0.5,1,0.5","2","",""
"","html-keyboard-response","294","101173","0.0-294.0","3TE3O85731U6AV4O7FRBSCJD84RR2E","AQ9Y6WD8O72ZC","3S1L4CQSFXRWQOWP2XFUSMS4AZDFAL","","null","<img src=""img/land5.png"" style=""width:200px; border:14px solid green;"">","null","","","","","","","","","",""
"","image-keyboard-response","295","101442","0.0-295.0","3TE3O85731U6AV4O7FRBSCJD84RR2E","AQ9Y6WD8O72ZC","3S1L4CQSFXRWQOWP2XFUSMS4AZDFAL","","268.09999999403954","img/land5.png","76","268.80000001192093","3","1","1","2","1,0.5,0.5,0.5,1,0.5,0.5,0.5,1","0.5,0.5,1,1,0.5,0.5,0.5,1,0.5","2","",""
"","html-keyboard-response","296","101743","0.0-296.0","3TE3O85731U6AV4O7FRBSCJD84RR2E","AQ9Y6WD8O72ZC","3S1L4CQSFXRWQOWP2XFUSMS4AZDFAL","","null","<img src=""img/land5.png"" style=""width:200px; border:14px solid green;"">","null","","","","","","","","","",""
"","image-keyboard-response","297","101756","0.0-297.0","3TE3O85731U6AV4O7FRBSCJD84RR2E","AQ9Y6WD8O72ZC","3S1L4CQSFXRWQOWP2XFUSMS4AZDFAL","","11.599999994039536","img/land5.png","76","12.400000005960464","3","1","1","2","1,0.5,0.5,0.5,1,0.5,0.5,0.5,1","0.5,0.5,1,1,0.5,0.5,0.5,1,0.5","2","",""
"","html-keyboard-response","298","102057","0.0-298.0","3TE3O85731U6AV4O7FRBSCJD84RR2E","AQ9Y6WD8O72ZC","3S1L4CQSFXRWQOWP2XFUSMS4AZDFAL","","null","<img src=""img/land5.png"" style=""width:200px; border:14px solid green;"">","null","","","","","","","","","",""
"","image-keyboard-response","299","102065","0.0-299.0","3TE3O85731U6AV4O7FRBSCJD84RR2E","AQ9Y6WD8O72ZC","3S1L4CQSFXRWQOWP2XFUSMS4AZDFAL","","7.300000011920929","img/land5.png","76","7.9000000059604645","3","1","1","2","1,0.5,0.5,0.5,1,0.5,0.5,0.5,1","0.5,0.5,1,1,0.5,0.5,0.5,1,0.5","2","",""
"","html-keyboard-response","300","102367","0.0-300.0","3TE3O85731U6AV4O7FRBSCJD84RR2E","AQ9Y6WD8O72ZC","3S1L4CQSFXRWQOWP2XFUSMS4AZDFAL","","null","<img src=""img/land5.png"" style=""width:200px; border:14px solid green;"">","null","","","","","","","","","",""
"","image-keyboard-response","301","102409","0.0-301.0","3TE3O85731U6AV4O7FRBSCJD84RR2E","AQ9Y6WD8O72ZC","3S1L4CQSFXRWQOWP2XFUSMS4AZDFAL","","41.29999998211861","img/land4.png","76","42","3","1","3","2","1,0.5,0.5,0.5,1,0.5,0.5,0.5,1","0.5,0.5,1,1,0.5,0.5,0.5,1,0.5","2","",""
"","html-keyboard-response","302","102710","0.0-302.0","3TE3O85731U6AV4O7FRBSCJD84RR2E","AQ9Y6WD8O72ZC","3S1L4CQSFXRWQOWP2XFUSMS4AZDFAL","","null","<img src=""img/land4.png"" style=""width:200px; border:14px solid green;"">","null","","","","","","","","","",""
"","image-keyboard-response","303","102752","0.0-303.0","3TE3O85731U6AV4O7FRBSCJD84RR2E","AQ9Y6WD8O72ZC","3S1L4CQSFXRWQOWP2XFUSMS4AZDFAL","","41","img/land5.png","76","41.80000001192093","3","1","1","2","1,0.5,0.5,0.5,1,0.5,0.5,0.5,1","0.5,0.5,1,1,0.5,0.5,0.5,1,0.5","2","",""
"","html-keyboard-response","304","103054","0.0-304.0","3TE3O85731U6AV4O7FRBSCJD84RR2E","AQ9Y6WD8O72ZC","3S1L4CQSFXRWQOWP2XFUSMS4AZDFAL","","null","<img src=""img/land5.png"" style=""width:200px; border:14px solid green;"">","null","","","","","","","","","",""
"","image-keyboard-response","305","103071","0.0-305.0","3TE3O85731U6AV4O7FRBSCJD84RR2E","AQ9Y6WD8O72ZC","3S1L4CQSFXRWQOWP2XFUSMS4AZDFAL","","15.699999988079071","img/land5.png","76","16.400000005960464","3","1","1","2","1,0.5,0.5,0.5,1,0.5,0.5,0.5,1","0.5,0.5,1,1,0.5,0.5,0.5,1,0.5","2","",""
"","html-keyboard-response","306","103373","0.0-306.0","3TE3O85731U6AV4O7FRBSCJD84RR2E","AQ9Y6WD8O72ZC","3S1L4CQSFXRWQOWP2XFUSMS4AZDFAL","","null","<img src=""img/land5.png"" style=""width:200px; border:14px solid green;"">","null","","","","","","","","","",""
"","image-keyboard-response","307","103422","0.0-307.0","3TE3O85731U6AV4O7FRBSCJD84RR2E","AQ9Y6WD8O72ZC","3S1L4CQSFXRWQOWP2XFUSMS4AZDFAL","","47.599999994039536","img/land6.png","76","48.30000001192093","3","0","2","2","1,0.5,0.5,0.5,1,0.5,0.5,0.5,1","0.5,0.5,1,1,0.5,0.5,0.5,1,0.5","2","",""
"","html-keyboard-response","308","103723","0.0-308.0","3TE3O85731U6AV4O7FRBSCJD84RR2E","AQ9Y6WD8O72ZC","3S1L4CQSFXRWQOWP2XFUSMS4AZDFAL","","null","<img src=""img/land6.png"" style=""width:200px;border:14px solid red;"">","null","","","","","","","","","",""
"","image-keyboard-response","309","103752","0.0-309.0","3TE3O85731U6AV4O7FRBSCJD84RR2E","AQ9Y6WD8O72ZC","3S1L4CQSFXRWQOWP2XFUSMS4AZDFAL","","27.900000005960464","img/land5.png","76","28.5","3","1","1","2","1,0.5,0.5,0.5,1,0.5,0.5,0.5,1","0.5,0.5,1,1,0.5,0.5,0.5,1,0.5","2","",""
"","html-keyboard-response","310","104054","0.0-310.0","3TE3O85731U6AV4O7FRBSCJD84RR2E","AQ9Y6WD8O72ZC","3S1L4CQSFXRWQOWP2XFUSMS4AZDFAL","","null","<img src=""img/land5.png"" style=""width:200px; border:14px solid green;"">","null","","","","","","","","","",""
"","image-keyboard-response","311","104078","0.0-311.0","3TE3O85731U6AV4O7FRBSCJD84RR2E","AQ9Y6WD8O72ZC","3S1L4CQSFXRWQOWP2XFUSMS4AZDFAL","","22.5","img/land5.png","76","23.400000005960464","3","1","1","2","1,0.5,0.5,0.5,1,0.5,0.5,0.5,1","0.5,0.5,1,1,0.5,0.5,0.5,1,0.5","2","",""
"","html-keyboard-response","312","104379","0.0-312.0","3TE3O85731U6AV4O7FRBSCJD84RR2E","AQ9Y6WD8O72ZC","3S1L4CQSFXRWQOWP2XFUSMS4AZDFAL","","null","<img src=""img/land5.png"" style=""width:200px; border:14px solid green;"">","null","","","","","","","","","",""
"","image-keyboard-response","313","104432","0.0-313.0","3TE3O85731U6AV4O7FRBSCJD84RR2E","AQ9Y6WD8O72ZC","3S1L4CQSFXRWQOWP2XFUSMS4AZDFAL","","52.39999997615814","img/land5.png","76","53.099999994039536","3","1","1","2","1,0.5,0.5,0.5,1,0.5,0.5,0.5,1","0.5,0.5,1,1,0.5,0.5,0.5,1,0.5","2","",""
"","html-keyboard-response","314","104734","0.0-314.0","3TE3O85731U6AV4O7FRBSCJD84RR2E","AQ9Y6WD8O72ZC","3S1L4CQSFXRWQOWP2XFUSMS4AZDFAL","","null","<img src=""img/land5.png"" style=""width:200px; border:14px solid green;"">","null","","","","","","","","","",""
"","image-keyboard-response","315","105034","0.0-315.0","3TE3O85731U6AV4O7FRBSCJD84RR2E","AQ9Y6WD8O72ZC","3S1L4CQSFXRWQOWP2XFUSMS4AZDFAL","","299.30000001192093","img/land5.png","76","300","3","1","1","2","1,0.5,0.5,0.5,1,0.5,0.5,0.5,1","0.5,0.5,1,1,0.5,0.5,0.5,1,0.5","2","",""
"","html-keyboard-response","316","105335","0.0-316.0","3TE3O85731U6AV4O7FRBSCJD84RR2E","AQ9Y6WD8O72ZC","3S1L4CQSFXRWQOWP2XFUSMS4AZDFAL","","null","<img src=""img/land5.png"" style=""width:200px; border:14px solid green;"">","null","","","","","","","","","",""
"","image-keyboard-response","317","105377","0.0-317.0","3TE3O85731U6AV4O7FRBSCJD84RR2E","AQ9Y6WD8O72ZC","3S1L4CQSFXRWQOWP2XFUSMS4AZDFAL","","41.5","img/land5.png","76","42.30000001192093","3","1","1","2","1,0.5,0.5,0.5,1,0.5,0.5,0.5,1","0.5,0.5,1,1,0.5,0.5,0.5,1,0.5","2","",""
"","html-keyboard-response","318","105679","0.0-318.0","3TE3O85731U6AV4O7FRBSCJD84RR2E","AQ9Y6WD8O72ZC","3S1L4CQSFXRWQOWP2XFUSMS4AZDFAL","","null","<img src=""img/land5.png"" style=""width:200px; border:14px solid green;"">","null","","","","","","","","","",""
"","image-keyboard-response","319","105707","0.0-319.0","3TE3O85731U6AV4O7FRBSCJD84RR2E","AQ9Y6WD8O72ZC","3S1L4CQSFXRWQOWP2XFUSMS4AZDFAL","","26.80000001192093","img/land5.png","76","27.5","3","1","1","2","1,0.5,0.5,0.5,1,0.5,0.5,0.5,1","0.5,0.5,1,1,0.5,0.5,0.5,1,0.5","2","",""
"","html-keyboard-response","320","106008","0.0-320.0","3TE3O85731U6AV4O7FRBSCJD84RR2E","AQ9Y6WD8O72ZC","3S1L4CQSFXRWQOWP2XFUSMS4AZDFAL","","null","<img src=""img/land5.png"" style=""width:200px; border:14px solid green;"">","null","","","","","","","","","",""
"","image-keyboard-response","321","106159","0.0-321.0","3TE3O85731U6AV4O7FRBSCJD84RR2E","AQ9Y6WD8O72ZC","3S1L4CQSFXRWQOWP2XFUSMS4AZDFAL","","149.7999999821186","img/land5.png","76","150.5","3","1","1","2","1,0.5,0.5,0.5,1,0.5,0.5,0.5,1","0.5,0.5,1,1,0.5,0.5,0.5,1,0.5","2","",""
"","html-keyboard-response","322","106460","0.0-322.0","3TE3O85731U6AV4O7FRBSCJD84RR2E","AQ9Y6WD8O72ZC","3S1L4CQSFXRWQOWP2XFUSMS4AZDFAL","","null","<img src=""img/land5.png"" style=""width:200px; border:14px solid green;"">","null","","","","","","","","","",""
"","image-keyboard-response","323","106526","0.0-323.0","3TE3O85731U6AV4O7FRBSCJD84RR2E","AQ9Y6WD8O72ZC","3S1L4CQSFXRWQOWP2XFUSMS4AZDFAL","","64.90000000596046","img/land6.png","76","65.5","3","0","2","2","1,0.5,0.5,0.5,1,0.5,0.5,0.5,1","0.5,0.5,1,1,0.5,0.5,0.5,1,0.5","2","",""
"","html-keyboard-response","324","106827","0.0-324.0","3TE3O85731U6AV4O7FRBSCJD84RR2E","AQ9Y6WD8O72ZC","3S1L4CQSFXRWQOWP2XFUSMS4AZDFAL","","null","<img src=""img/land6.png"" style=""width:200px;border:14px solid red;"">","null","","","","","","","","","",""
"","image-keyboard-response","325","106996","0.0-325.0","3TE3O85731U6AV4O7FRBSCJD84RR2E","AQ9Y6WD8O72ZC","3S1L4CQSFXRWQOWP2XFUSMS4AZDFAL","","168.5","img/land5.png","76","169.2999999821186","3","1","1","2","1,0.5,0.5,0.5,1,0.5,0.5,0.5,1","0.5,0.5,1,1,0.5,0.5,0.5,1,0.5","2","",""
"","html-keyboard-response","326","107297","0.0-326.0","3TE3O85731U6AV4O7FRBSCJD84RR2E","AQ9Y6WD8O72ZC","3S1L4CQSFXRWQOWP2XFUSMS4AZDFAL","","null","<img src=""img/land5.png"" style=""width:200px; border:14px solid green;"">","null","","","","","","","","","",""
"","image-keyboard-response","327","107594","0.0-327.0","3TE3O85731U6AV4O7FRBSCJD84RR2E","AQ9Y6WD8O72ZC","3S1L4CQSFXRWQOWP2XFUSMS4AZDFAL","","295.69999998807907","img/land4.png","76","296.59999999403954","3","1","3","2","1,0.5,0.5,0.5,1,0.5,0.5,0.5,1","0.5,0.5,1,1,0.5,0.5,0.5,1,0.5","2","",""
"","html-keyboard-response","328","107896","0.0-328.0","3TE3O85731U6AV4O7FRBSCJD84RR2E","AQ9Y6WD8O72ZC","3S1L4CQSFXRWQOWP2XFUSMS4AZDFAL","","null","<img src=""img/land4.png"" style=""width:200px; border:14px solid green;"">","null","","","","","","","","","",""
"","image-keyboard-response","329","107903","0.0-329.0","3TE3O85731U6AV4O7FRBSCJD84RR2E","AQ9Y6WD8O72ZC","3S1L4CQSFXRWQOWP2XFUSMS4AZDFAL","","6.300000011920929","img/land5.png","76","7.100000023841858","3","1","1","2","1,0.5,0.5,0.5,1,0.5,0.5,0.5,1","0.5,0.5,1,1,0.5,0.5,0.5,1,0.5","2","",""
"","html-keyboard-response","330","108205","0.0-330.0","3TE3O85731U6AV4O7FRBSCJD84RR2E","AQ9Y6WD8O72ZC","3S1L4CQSFXRWQOWP2XFUSMS4AZDFAL","","null","<img src=""img/land5.png"" style=""width:200px; border:14px solid green;"">","null","","","","","","","","","",""
"","image-keyboard-response","331","108216","0.0-331.0","3TE3O85731U6AV4O7FRBSCJD84RR2E","AQ9Y6WD8O72ZC","3S1L4CQSFXRWQOWP2XFUSMS4AZDFAL","","10.700000017881393","img/land5.png","76","11.5","3","1","1","2","1,0.5,0.5,0.5,1,0.5,0.5,0.5,1","0.5,0.5,1,1,0.5,0.5,0.5,1,0.5","2","",""
"","html-keyboard-response","332","108519","0.0-332.0","3TE3O85731U6AV4O7FRBSCJD84RR2E","AQ9Y6WD8O72ZC","3S1L4CQSFXRWQOWP2XFUSMS4AZDFAL","","null","<img src=""img/land5.png"" style=""width:200px; border:14px solid green;"">","null","","","","","","","","","",""
"","image-keyboard-response","333","108558","0.0-333.0","3TE3O85731U6AV4O7FRBSCJD84RR2E","AQ9Y6WD8O72ZC","3S1L4CQSFXRWQOWP2XFUSMS4AZDFAL","","38.19999998807907","img/land5.png","76","39","3","1","1","2","1,0.5,0.5,0.5,1,0.5,0.5,0.5,1","0.5,0.5,1,1,0.5,0.5,0.5,1,0.5","2","",""
"","html-keyboard-response","334","108860","0.0-334.0","3TE3O85731U6AV4O7FRBSCJD84RR2E","AQ9Y6WD8O72ZC","3S1L4CQSFXRWQOWP2XFUSMS4AZDFAL","","null","<img src=""img/land5.png"" style=""width:200px; border:14px solid green;"">","null","","","","","","","","","",""
"","image-keyboard-response","335","108906","0.0-335.0","3TE3O85731U6AV4O7FRBSCJD84RR2E","AQ9Y6WD8O72ZC","3S1L4CQSFXRWQOWP2XFUSMS4AZDFAL","","44.5","img/land6.png","76","45.19999998807907","3","0","2","2","1,0.5,0.5,0.5,1,0.5,0.5,0.5,1","0.5,0.5,1,1,0.5,0.5,0.5,1,0.5","2","",""
"","html-keyboard-response","336","109208","0.0-336.0","3TE3O85731U6AV4O7FRBSCJD84RR2E","AQ9Y6WD8O72ZC","3S1L4CQSFXRWQOWP2XFUSMS4AZDFAL","","null","<img src=""img/land6.png"" style=""width:200px;border:14px solid red;"">","null","","","","","","","","","",""
"","image-keyboard-response","337","109399","0.0-337.0","3TE3O85731U6AV4O7FRBSCJD84RR2E","AQ9Y6WD8O72ZC","3S1L4CQSFXRWQOWP2XFUSMS4AZDFAL","","190.69999998807907","img/land5.png","76","191.2999999821186","3","1","1","2","1,0.5,0.5,0.5,1,0.5,0.5,0.5,1","0.5,0.5,1,1,0.5,0.5,0.5,1,0.5","2","",""
"","html-keyboard-response","338","109701","0.0-338.0","3TE3O85731U6AV4O7FRBSCJD84RR2E","AQ9Y6WD8O72ZC","3S1L4CQSFXRWQOWP2XFUSMS4AZDFAL","","null","<img src=""img/land5.png"" style=""width:200px; border:14px solid green;"">","null","","","","","","","","","",""
"","image-keyboard-response","339","109742","0.0-339.0","3TE3O85731U6AV4O7FRBSCJD84RR2E","AQ9Y6WD8O72ZC","3S1L4CQSFXRWQOWP2XFUSMS4AZDFAL","","40.5","img/land5.png","76","41.10000002384186","3","1","1","2","1,0.5,0.5,0.5,1,0.5,0.5,0.5,1","0.5,0.5,1,1,0.5,0.5,0.5,1,0.5","2","",""
"","html-keyboard-response","340","110043","0.0-340.0","3TE3O85731U6AV4O7FRBSCJD84RR2E","AQ9Y6WD8O72ZC","3S1L4CQSFXRWQOWP2XFUSMS4AZDFAL","","null","<img src=""img/land5.png"" style=""width:200px; border:14px solid green;"">","null","","","","","","","","","",""
"","image-keyboard-response","341","110049","0.0-341.0","3TE3O85731U6AV4O7FRBSCJD84RR2E","AQ9Y6WD8O72ZC","3S1L4CQSFXRWQOWP2XFUSMS4AZDFAL","","4.799999982118607","img/land5.png","76","5.5","3","1","1","2","1,0.5,0.5,0.5,1,0.5,0.5,0.5,1","0.5,0.5,1,1,0.5,0.5,0.5,1,0.5","2","",""
"","html-keyboard-response","342","110350","0.0-342.0","3TE3O85731U6AV4O7FRBSCJD84RR2E","AQ9Y6WD8O72ZC","3S1L4CQSFXRWQOWP2XFUSMS4AZDFAL","","null","<img src=""img/land5.png"" style=""width:200px; border:14px solid green;"">","null","","","","","","","","","",""
"","image-keyboard-response","343","110377","0.0-343.0","3TE3O85731U6AV4O7FRBSCJD84RR2E","AQ9Y6WD8O72ZC","3S1L4CQSFXRWQOWP2XFUSMS4AZDFAL","","25.799999982118607","img/land4.png","76","26.69999998807907","3","1","3","2","1,0.5,0.5,0.5,1,0.5,0.5,0.5,1","0.5,0.5,1,1,0.5,0.5,0.5,1,0.5","2","",""
"","html-keyboard-response","344","110678","0.0-344.0","3TE3O85731U6AV4O7FRBSCJD84RR2E","AQ9Y6WD8O72ZC","3S1L4CQSFXRWQOWP2XFUSMS4AZDFAL","","null","<img src=""img/land4.png"" style=""width:200px; border:14px solid green;"">","null","","","","","","","","","",""
"","image-keyboard-response","345","110907","0.0-345.0","3TE3O85731U6AV4O7FRBSCJD84RR2E","AQ9Y6WD8O72ZC","3S1L4CQSFXRWQOWP2XFUSMS4AZDFAL","","227.80000001192093","img/land5.png","76","228.69999998807907","3","1","1","2","1,0.5,0.5,0.5,1,0.5,0.5,0.5,1","0.5,0.5,1,1,0.5,0.5,0.5,1,0.5","2","",""
"","html-keyboard-response","346","111209","0.0-346.0","3TE3O85731U6AV4O7FRBSCJD84RR2E","AQ9Y6WD8O72ZC","3S1L4CQSFXRWQOWP2XFUSMS4AZDFAL","","null","<img src=""img/land5.png"" style=""width:200px; border:14px solid green;"">","null","","","","","","","","","",""
"","image-keyboard-response","347","111472","0.0-347.0","3TE3O85731U6AV4O7FRBSCJD84RR2E","AQ9Y6WD8O72ZC","3S1L4CQSFXRWQOWP2XFUSMS4AZDFAL","","262.2999999821186","img/land5.png","76","262.90000000596046","3","1","1","2","1,0.5,0.5,0.5,1,0.5,0.5,0.5,1","0.5,0.5,1,1,0.5,0.5,0.5,1,0.5","2","",""
"","html-keyboard-response","348","111773","0.0-348.0","3TE3O85731U6AV4O7FRBSCJD84RR2E","AQ9Y6WD8O72ZC","3S1L4CQSFXRWQOWP2XFUSMS4AZDFAL","","null","<img src=""img/land5.png"" style=""width:200px; border:14px solid green;"">","null","","","","","","","","","",""
"","image-keyboard-response","349","111828","0.0-349.0","3TE3O85731U6AV4O7FRBSCJD84RR2E","AQ9Y6WD8O72ZC","3S1L4CQSFXRWQOWP2XFUSMS4AZDFAL","","55","img/land6.png","76","55.599999994039536","3","1","2","2","1,0.5,0.5,0.5,1,0.5,0.5,0.5,1","0.5,0.5,1,1,0.5,0.5,0.5,1,0.5","2","",""
"","html-keyboard-response","350","112133","0.0-350.0","3TE3O85731U6AV4O7FRBSCJD84RR2E","AQ9Y6WD8O72ZC","3S1L4CQSFXRWQOWP2XFUSMS4AZDFAL","","null","<img src=""img/land6.png"" style=""width:200px; border:14px solid green;"">","null","","","","","","","","","",""
"","image-keyboard-response","351","112228","0.0-351.0","3TE3O85731U6AV4O7FRBSCJD84RR2E","AQ9Y6WD8O72ZC","3S1L4CQSFXRWQOWP2XFUSMS4AZDFAL","","93.7999999821186","img/land6.png","76","94.59999999403954","3","1","2","2","1,0.5,0.5,0.5,1,0.5,0.5,0.5,1","0.5,0.5,1,1,0.5,0.5,0.5,1,0.5","2","",""
"","html-keyboard-response","352","112530","0.0-352.0","3TE3O85731U6AV4O7FRBSCJD84RR2E","AQ9Y6WD8O72ZC","3S1L4CQSFXRWQOWP2XFUSMS4AZDFAL","","null","<img src=""img/land6.png"" style=""width:200px; border:14px solid green;"">","null","","","","","","","","","",""
"","image-keyboard-response","353","112551","0.0-353.0","3TE3O85731U6AV4O7FRBSCJD84RR2E","AQ9Y6WD8O72ZC","3S1L4CQSFXRWQOWP2XFUSMS4AZDFAL","","20.400000005960464","img/land5.png","76","21","3","1","1","2","1,0.5,0.5,0.5,1,0.5,0.5,0.5,1","0.5,0.5,1,1,0.5,0.5,0.5,1,0.5","2","",""
"","html-keyboard-response","354","112853","0.0-354.0","3TE3O85731U6AV4O7FRBSCJD84RR2E","AQ9Y6WD8O72ZC","3S1L4CQSFXRWQOWP2XFUSMS4AZDFAL","","null","<img src=""img/land5.png"" style=""width:200px; border:14px solid green;"">","null","","","","","","","","","",""
"","image-keyboard-response","355","112938","0.0-355.0","3TE3O85731U6AV4O7FRBSCJD84RR2E","AQ9Y6WD8O72ZC","3S1L4CQSFXRWQOWP2XFUSMS4AZDFAL","","84.90000000596046","img/land4.png","76","85.7000000178814","3","1","3","2","1,0.5,0.5,0.5,1,0.5,0.5,0.5,1","0.5,0.5,1,1,0.5,0.5,0.5,1,0.5","2","",""
"","html-keyboard-response","356","113240","0.0-356.0","3TE3O85731U6AV4O7FRBSCJD84RR2E","AQ9Y6WD8O72ZC","3S1L4CQSFXRWQOWP2XFUSMS4AZDFAL","","null","<img src=""img/land4.png"" style=""width:200px; border:14px solid green;"">","null","","","","","","","","","",""
"","image-keyboard-response","357","113261","0.0-357.0","3TE3O85731U6AV4O7FRBSCJD84RR2E","AQ9Y6WD8O72ZC","3S1L4CQSFXRWQOWP2XFUSMS4AZDFAL","","20.400000005960464","img/land5.png","76","21.5","3","1","1","2","1,0.5,0.5,0.5,1,0.5,0.5,0.5,1","0.5,0.5,1,1,0.5,0.5,0.5,1,0.5","2","",""
"","html-keyboard-response","358","113564","0.0-358.0","3TE3O85731U6AV4O7FRBSCJD84RR2E","AQ9Y6WD8O72ZC","3S1L4CQSFXRWQOWP2XFUSMS4AZDFAL","","null","<img src=""img/land5.png"" style=""width:200px; border:14px solid green;"">","null","","","","","","","","","",""
"","image-keyboard-response","359","113820","0.0-359.0","3TE3O85731U6AV4O7FRBSCJD84RR2E","AQ9Y6WD8O72ZC","3S1L4CQSFXRWQOWP2XFUSMS4AZDFAL","","255.19999998807907","img/land4.png","76","255.80000001192093","3","0","3","2","1,0.5,0.5,0.5,1,0.5,0.5,0.5,1","0.5,0.5,1,1,0.5,0.5,0.5,1,0.5","2","",""
"","html-keyboard-response","360","114120","0.0-360.0","3TE3O85731U6AV4O7FRBSCJD84RR2E","AQ9Y6WD8O72ZC","3S1L4CQSFXRWQOWP2XFUSMS4AZDFAL","","null","<img src=""img/land4.png"" style=""width:200px;border:14px solid red;"">","null","","","","","","","","","",""
"","image-keyboard-response","361","114128","0.0-361.0","3TE3O85731U6AV4O7FRBSCJD84RR2E","AQ9Y6WD8O72ZC","3S1L4CQSFXRWQOWP2XFUSMS4AZDFAL","","6.9000000059604645","img/land5.png","76","7.5","3","1","1","2","1,0.5,0.5,0.5,1,0.5,0.5,0.5,1","0.5,0.5,1,1,0.5,0.5,0.5,1,0.5","2","",""
"","html-keyboard-response","362","114430","0.0-362.0","3TE3O85731U6AV4O7FRBSCJD84RR2E","AQ9Y6WD8O72ZC","3S1L4CQSFXRWQOWP2XFUSMS4AZDFAL","","null","<img src=""img/land5.png"" style=""width:200px; border:14px solid green;"">","null","","","","","","","","","",""
"","image-keyboard-response","363","114433","0.0-363.0","3TE3O85731U6AV4O7FRBSCJD84RR2E","AQ9Y6WD8O72ZC","3S1L4CQSFXRWQOWP2XFUSMS4AZDFAL","","2","img/land5.png","76","2.9000000059604645","3","1","1","2","1,0.5,0.5,0.5,1,0.5,0.5,0.5,1","0.5,0.5,1,1,0.5,0.5,0.5,1,0.5","2","",""
"","html-keyboard-response","364","114734","0.0-364.0","3TE3O85731U6AV4O7FRBSCJD84RR2E","AQ9Y6WD8O72ZC","3S1L4CQSFXRWQOWP2XFUSMS4AZDFAL","","null","<img src=""img/land5.png"" style=""width:200px; border:14px solid green;"">","null","","","","","","","","","",""
