"success","trial_type","trial_index","time_elapsed","internal_node_id","assignmentID","mturkID","hitID","view_history","rt","stimulus","key_press","reactionTime","a","r","s","cond","reward_cond","reward_cond_actual","reward_matrix_idx","responses","question_order"
"true","fullscreen","0","4386","0.0-0.0","3NAPMVF0ZX1WSCK9Y1T5NVSD85627Q","ARN8MH7YKZKAZ","3I7KR83SNAZT1REYB2SRC49PCEEK9H","","","","","","","","","","","","","",""
"","instructions","1","44741","0.0-1.0","3NAPMVF0ZX1WSCK9Y1T5NVSD85627Q","ARN8MH7YKZKAZ","3I7KR83SNAZT1REYB2SRC49PCEEK9H","[{""page_index"":0,""viewing_time"":10616.100000143051},{""page_index"":1,""viewing_time"":2575.7999999523163},{""page_index"":2,""viewing_time"":3375.9000000953674},{""page_index"":3,""viewing_time"":11895.899999856949},{""page_index"":4,""viewing_time"":3360},{""page_index"":5,""viewing_time"":6536},{""page_index"":6,""viewing_time"":1991.9000000953674}]","40352","","","","","","","","","","","",""
"","image-keyboard-response","2","46698","0.0-2.0","3NAPMVF0ZX1WSCK9Y1T5NVSD85627Q","ARN8MH7YKZKAZ","3I7KR83SNAZT1REYB2SRC49PCEEK9H","","1954.7000000476837","img/land3.png","76","1956.2999999523163","3","0","3","1","0.8,0.2,0.2,0.2,0.8,0.2,0.2,0.2,0.8","0.8,0.2,0.2,0.2,0.8,0.2,0.2,0.2,0.8","1","",""
"","html-keyboard-response","3","47001","0.0-3.0","3NAPMVF0ZX1WSCK9Y1T5NVSD85627Q","ARN8MH7YKZKAZ","3I7KR83SNAZT1REYB2SRC49PCEEK9H","","null","<img src=""img/land3.png"" style=""width:200px;border:14px solid red;"">","null","","","","","","","","","",""
"","image-keyboard-response","4","48400","0.0-4.0","3NAPMVF0ZX1WSCK9Y1T5NVSD85627Q","ARN8MH7YKZKAZ","3I7KR83SNAZT1REYB2SRC49PCEEK9H","","1398","img/land5.png","74","1399","1","0","1","1","0.8,0.2,0.2,0.2,0.8,0.2,0.2,0.2,0.8","0.8,0.2,0.2,0.2,0.8,0.2,0.2,0.2,0.8","1","",""
"","html-keyboard-response","5","48702","0.0-5.0","3NAPMVF0ZX1WSCK9Y1T5NVSD85627Q","ARN8MH7YKZKAZ","3I7KR83SNAZT1REYB2SRC49PCEEK9H","","null","<img src=""img/land5.png"" style=""width:200px;border:14px solid red;"">","null","","","","","","","","","",""
"","image-keyboard-response","6","49465","0.0-6.0","3NAPMVF0ZX1WSCK9Y1T5NVSD85627Q","ARN8MH7YKZKAZ","3I7KR83SNAZT1REYB2SRC49PCEEK9H","","760.7999999523163","img/land2.png","75","762.2999999523163","2","1","2","1","0.8,0.2,0.2,0.2,0.8,0.2,0.2,0.2,0.8","0.8,0.2,0.2,0.2,0.8,0.2,0.2,0.2,0.8","1","",""
"","html-keyboard-response","7","49767","0.0-7.0","3NAPMVF0ZX1WSCK9Y1T5NVSD85627Q","ARN8MH7YKZKAZ","3I7KR83SNAZT1REYB2SRC49PCEEK9H","","null","<img src=""img/land2.png"" style=""width:200px; border:14px solid green;"">","null","","","","","","","","","",""
"","image-keyboard-response","8","50473","0.0-8.0","3NAPMVF0ZX1WSCK9Y1T5NVSD85627Q","ARN8MH7YKZKAZ","3I7KR83SNAZT1REYB2SRC49PCEEK9H","","703.7000000476837","img/land3.png","76","705","3","1","3","1","0.8,0.2,0.2,0.2,0.8,0.2,0.2,0.2,0.8","0.8,0.2,0.2,0.2,0.8,0.2,0.2,0.2,0.8","1","",""
"","html-keyboard-response","9","50775","0.0-9.0","3NAPMVF0ZX1WSCK9Y1T5NVSD85627Q","ARN8MH7YKZKAZ","3I7KR83SNAZT1REYB2SRC49PCEEK9H","","null","<img src=""img/land3.png"" style=""width:200px; border:14px solid green;"">","null","","","","","","","","","",""
"","image-keyboard-response","10","51593","0.0-10.0","3NAPMVF0ZX1WSCK9Y1T5NVSD85627Q","ARN8MH7YKZKAZ","3I7KR83SNAZT1REYB2SRC49PCEEK9H","","816.5","img/land2.png","75","817.7999999523163","2","0","2","1","0.8,0.2,0.2,0.2,0.8,0.2,0.2,0.2,0.8","0.8,0.2,0.2,0.2,0.8,0.2,0.2,0.2,0.8","1","",""
"","html-keyboard-response","11","51909","0.0-11.0","3NAPMVF0ZX1WSCK9Y1T5NVSD85627Q","ARN8MH7YKZKAZ","3I7KR83SNAZT1REYB2SRC49PCEEK9H","","null","<img src=""img/land2.png"" style=""width:200px;border:14px solid red;"">","null","","","","","","","","","",""
"","image-keyboard-response","12","52761","0.0-12.0","3NAPMVF0ZX1WSCK9Y1T5NVSD85627Q","ARN8MH7YKZKAZ","3I7KR83SNAZT1REYB2SRC49PCEEK9H","","849.7000000476837","img/land5.png","74","851.1000001430511","1","0","1","1","0.8,0.2,0.2,0.2,0.8,0.2,0.2,0.2,0.8","0.8,0.2,0.2,0.2,0.8,0.2,0.2,0.2,0.8","1","",""
"","html-keyboard-response","13","53069","0.0-13.0","3NAPMVF0ZX1WSCK9Y1T5NVSD85627Q","ARN8MH7YKZKAZ","3I7KR83SNAZT1REYB2SRC49PCEEK9H","","null","<img src=""img/land5.png"" style=""width:200px;border:14px solid red;"">","null","","","","","","","","","",""
"","image-keyboard-response","14","53649","0.0-14.0","3NAPMVF0ZX1WSCK9Y1T5NVSD85627Q","ARN8MH7YKZKAZ","3I7KR83SNAZT1REYB2SRC49PCEEK9H","","577.7999999523163","img/land5.png","74","579","1","1","1","1","0.8,0.2,0.2,0.2,0.8,0.2,0.2,0.2,0.8","0.8,0.2,0.2,0.2,0.8,0.2,0.2,0.2,0.8","1","",""
"","html-keyboard-response","15","53951","0.0-15.0","3NAPMVF0ZX1WSCK9Y1T5NVSD85627Q","ARN8MH7YKZKAZ","3I7KR83SNAZT1REYB2SRC49PCEEK9H","","null","<img src=""img/land5.png"" style=""width:200px; border:14px solid green;"">","null","","","","","","","","","",""
"","image-keyboard-response","16","54673","0.0-16.0","3NAPMVF0ZX1WSCK9Y1T5NVSD85627Q","ARN8MH7YKZKAZ","3I7KR83SNAZT1REYB2SRC49PCEEK9H","","720.8000001907349","img/land2.png","75","722.1000001430511","2","0","2","1","0.8,0.2,0.2,0.2,0.8,0.2,0.2,0.2,0.8","0.8,0.2,0.2,0.2,0.8,0.2,0.2,0.2,0.8","1","",""
"","html-keyboard-response","17","54975","0.0-17.0","3NAPMVF0ZX1WSCK9Y1T5NVSD85627Q","ARN8MH7YKZKAZ","3I7KR83SNAZT1REYB2SRC49PCEEK9H","","null","<img src=""img/land2.png"" style=""width:200px;border:14px solid red;"">","null","","","","","","","","","",""
"","image-keyboard-response","18","55777","0.0-18.0","3NAPMVF0ZX1WSCK9Y1T5NVSD85627Q","ARN8MH7YKZKAZ","3I7KR83SNAZT1REYB2SRC49PCEEK9H","","800.3999998569489","img/land5.png","74","801.7000000476837","1","0","1","1","0.8,0.2,0.2,0.2,0.8,0.2,0.2,0.2,0.8","0.8,0.2,0.2,0.2,0.8,0.2,0.2,0.2,0.8","1","",""
"","html-keyboard-response","19","56079","0.0-19.0","3NAPMVF0ZX1WSCK9Y1T5NVSD85627Q","ARN8MH7YKZKAZ","3I7KR83SNAZT1REYB2SRC49PCEEK9H","","null","<img src=""img/land5.png"" style=""width:200px;border:14px solid red;"">","null","","","","","","","","","",""
"","image-keyboard-response","20","56640","0.0-20.0","3NAPMVF0ZX1WSCK9Y1T5NVSD85627Q","ARN8MH7YKZKAZ","3I7KR83SNAZT1REYB2SRC49PCEEK9H","","559.9000000953674","img/land3.png","76","561.0999999046326","3","1","3","1","0.8,0.2,0.2,0.2,0.8,0.2,0.2,0.2,0.8","0.8,0.2,0.2,0.2,0.8,0.2,0.2,0.2,0.8","1","",""
"","html-keyboard-response","21","56942","0.0-21.0","3NAPMVF0ZX1WSCK9Y1T5NVSD85627Q","ARN8MH7YKZKAZ","3I7KR83SNAZT1REYB2SRC49PCEEK9H","","null","<img src=""img/land3.png"" style=""width:200px; border:14px solid green;"">","null","","","","","","","","","",""
"","image-keyboard-response","22","57633","0.0-22.0","3NAPMVF0ZX1WSCK9Y1T5NVSD85627Q","ARN8MH7YKZKAZ","3I7KR83SNAZT1REYB2SRC49PCEEK9H","","689.2000000476837","img/land3.png","76","690.4000000953674","3","0","3","1","0.8,0.2,0.2,0.2,0.8,0.2,0.2,0.2,0.8","0.8,0.2,0.2,0.2,0.8,0.2,0.2,0.2,0.8","1","",""
"","html-keyboard-response","23","57935","0.0-23.0","3NAPMVF0ZX1WSCK9Y1T5NVSD85627Q","ARN8MH7YKZKAZ","3I7KR83SNAZT1REYB2SRC49PCEEK9H","","null","<img src=""img/land3.png"" style=""width:200px;border:14px solid red;"">","null","","","","","","","","","",""
"","image-keyboard-response","24","58593","0.0-24.0","3NAPMVF0ZX1WSCK9Y1T5NVSD85627Q","ARN8MH7YKZKAZ","3I7KR83SNAZT1REYB2SRC49PCEEK9H","","657","img/land5.png","74","658.2999999523163","1","1","1","1","0.8,0.2,0.2,0.2,0.8,0.2,0.2,0.2,0.8","0.8,0.2,0.2,0.2,0.8,0.2,0.2,0.2,0.8","1","",""
"","html-keyboard-response","25","58894","0.0-25.0","3NAPMVF0ZX1WSCK9Y1T5NVSD85627Q","ARN8MH7YKZKAZ","3I7KR83SNAZT1REYB2SRC49PCEEK9H","","null","<img src=""img/land5.png"" style=""width:200px; border:14px solid green;"">","null","","","","","","","","","",""
"","image-keyboard-response","26","59312","0.0-26.0","3NAPMVF0ZX1WSCK9Y1T5NVSD85627Q","ARN8MH7YKZKAZ","3I7KR83SNAZT1REYB2SRC49PCEEK9H","","416.5","img/land5.png","74","417.7999999523163","1","0","1","1","0.8,0.2,0.2,0.2,0.8,0.2,0.2,0.2,0.8","0.8,0.2,0.2,0.2,0.8,0.2,0.2,0.2,0.8","1","",""
"","html-keyboard-response","27","59615","0.0-27.0","3NAPMVF0ZX1WSCK9Y1T5NVSD85627Q","ARN8MH7YKZKAZ","3I7KR83SNAZT1REYB2SRC49PCEEK9H","","null","<img src=""img/land5.png"" style=""width:200px;border:14px solid red;"">","null","","","","","","","","","",""
"","image-keyboard-response","28","60152","0.0-28.0","3NAPMVF0ZX1WSCK9Y1T5NVSD85627Q","ARN8MH7YKZKAZ","3I7KR83SNAZT1REYB2SRC49PCEEK9H","","536.4000000953674","img/land2.png","75","537.6999998092651","2","1","2","1","0.8,0.2,0.2,0.2,0.8,0.2,0.2,0.2,0.8","0.8,0.2,0.2,0.2,0.8,0.2,0.2,0.2,0.8","1","",""
"","html-keyboard-response","29","60455","0.0-29.0","3NAPMVF0ZX1WSCK9Y1T5NVSD85627Q","ARN8MH7YKZKAZ","3I7KR83SNAZT1REYB2SRC49PCEEK9H","","null","<img src=""img/land2.png"" style=""width:200px; border:14px solid green;"">","null","","","","","","","","","",""
"","image-keyboard-response","30","60984","0.0-30.0","3NAPMVF0ZX1WSCK9Y1T5NVSD85627Q","ARN8MH7YKZKAZ","3I7KR83SNAZT1REYB2SRC49PCEEK9H","","528.2999999523163","img/land3.png","76","529.5","3","1","3","1","0.8,0.2,0.2,0.2,0.8,0.2,0.2,0.2,0.8","0.8,0.2,0.2,0.2,0.8,0.2,0.2,0.2,0.8","1","",""
"","html-keyboard-response","31","61286","0.0-31.0","3NAPMVF0ZX1WSCK9Y1T5NVSD85627Q","ARN8MH7YKZKAZ","3I7KR83SNAZT1REYB2SRC49PCEEK9H","","null","<img src=""img/land3.png"" style=""width:200px; border:14px solid green;"">","null","","","","","","","","","",""
"","image-keyboard-response","32","61824","0.0-32.0","3NAPMVF0ZX1WSCK9Y1T5NVSD85627Q","ARN8MH7YKZKAZ","3I7KR83SNAZT1REYB2SRC49PCEEK9H","","536.6999998092651","img/land3.png","76","538.0999999046326","3","1","3","1","0.8,0.2,0.2,0.2,0.8,0.2,0.2,0.2,0.8","0.8,0.2,0.2,0.2,0.8,0.2,0.2,0.2,0.8","1","",""
"","html-keyboard-response","33","62127","0.0-33.0","3NAPMVF0ZX1WSCK9Y1T5NVSD85627Q","ARN8MH7YKZKAZ","3I7KR83SNAZT1REYB2SRC49PCEEK9H","","null","<img src=""img/land3.png"" style=""width:200px; border:14px solid green;"">","null","","","","","","","","","",""
"","image-keyboard-response","34","62720","0.0-34.0","3NAPMVF0ZX1WSCK9Y1T5NVSD85627Q","ARN8MH7YKZKAZ","3I7KR83SNAZT1REYB2SRC49PCEEK9H","","591.7999999523163","img/land2.png","75","593.0999999046326","2","0","2","1","0.8,0.2,0.2,0.2,0.8,0.2,0.2,0.2,0.8","0.8,0.2,0.2,0.2,0.8,0.2,0.2,0.2,0.8","1","",""
"","html-keyboard-response","35","63022","0.0-35.0","3NAPMVF0ZX1WSCK9Y1T5NVSD85627Q","ARN8MH7YKZKAZ","3I7KR83SNAZT1REYB2SRC49PCEEK9H","","null","<img src=""img/land2.png"" style=""width:200px;border:14px solid red;"">","null","","","","","","","","","",""
"","image-keyboard-response","36","63400","0.0-36.0","3NAPMVF0ZX1WSCK9Y1T5NVSD85627Q","ARN8MH7YKZKAZ","3I7KR83SNAZT1REYB2SRC49PCEEK9H","","376.2999999523163","img/land2.png","75","377.59999990463257","2","1","2","1","0.8,0.2,0.2,0.2,0.8,0.2,0.2,0.2,0.8","0.8,0.2,0.2,0.2,0.8,0.2,0.2,0.2,0.8","1","",""
"","html-keyboard-response","37","63702","0.0-37.0","3NAPMVF0ZX1WSCK9Y1T5NVSD85627Q","ARN8MH7YKZKAZ","3I7KR83SNAZT1REYB2SRC49PCEEK9H","","null","<img src=""img/land2.png"" style=""width:200px; border:14px solid green;"">","null","","","","","","","","","",""
"","image-keyboard-response","38","64400","0.0-38.0","3NAPMVF0ZX1WSCK9Y1T5NVSD85627Q","ARN8MH7YKZKAZ","3I7KR83SNAZT1REYB2SRC49PCEEK9H","","696.7999999523163","img/land3.png","76","698","3","1","3","1","0.8,0.2,0.2,0.2,0.8,0.2,0.2,0.2,0.8","0.8,0.2,0.2,0.2,0.8,0.2,0.2,0.2,0.8","1","",""
"","html-keyboard-response","39","64702","0.0-39.0","3NAPMVF0ZX1WSCK9Y1T5NVSD85627Q","ARN8MH7YKZKAZ","3I7KR83SNAZT1REYB2SRC49PCEEK9H","","null","<img src=""img/land3.png"" style=""width:200px; border:14px solid green;"">","null","","","","","","","","","",""
"","image-keyboard-response","40","65377","0.0-40.0","3NAPMVF0ZX1WSCK9Y1T5NVSD85627Q","ARN8MH7YKZKAZ","3I7KR83SNAZT1REYB2SRC49PCEEK9H","","673.1000001430511","img/land5.png","74","674.3999998569489","1","1","1","1","0.8,0.2,0.2,0.2,0.8,0.2,0.2,0.2,0.8","0.8,0.2,0.2,0.2,0.8,0.2,0.2,0.2,0.8","1","",""
"","html-keyboard-response","41","65679","0.0-41.0","3NAPMVF0ZX1WSCK9Y1T5NVSD85627Q","ARN8MH7YKZKAZ","3I7KR83SNAZT1REYB2SRC49PCEEK9H","","null","<img src=""img/land5.png"" style=""width:200px; border:14px solid green;"">","null","","","","","","","","","",""
"","image-keyboard-response","42","66152","0.0-42.0","3NAPMVF0ZX1WSCK9Y1T5NVSD85627Q","ARN8MH7YKZKAZ","3I7KR83SNAZT1REYB2SRC49PCEEK9H","","471.89999985694885","img/land5.png","74","473.2000000476837","1","1","1","1","0.8,0.2,0.2,0.2,0.8,0.2,0.2,0.2,0.8","0.8,0.2,0.2,0.2,0.8,0.2,0.2,0.2,0.8","1","",""
"","html-keyboard-response","43","66454","0.0-43.0","3NAPMVF0ZX1WSCK9Y1T5NVSD85627Q","ARN8MH7YKZKAZ","3I7KR83SNAZT1REYB2SRC49PCEEK9H","","null","<img src=""img/land5.png"" style=""width:200px; border:14px solid green;"">","null","","","","","","","","","",""
"","image-keyboard-response","44","67104","0.0-44.0","3NAPMVF0ZX1WSCK9Y1T5NVSD85627Q","ARN8MH7YKZKAZ","3I7KR83SNAZT1REYB2SRC49PCEEK9H","","648.5999999046326","img/land2.png","75","649.7999999523163","2","0","2","1","0.8,0.2,0.2,0.2,0.8,0.2,0.2,0.2,0.8","0.8,0.2,0.2,0.2,0.8,0.2,0.2,0.2,0.8","1","",""
"","html-keyboard-response","45","67406","0.0-45.0","3NAPMVF0ZX1WSCK9Y1T5NVSD85627Q","ARN8MH7YKZKAZ","3I7KR83SNAZT1REYB2SRC49PCEEK9H","","null","<img src=""img/land2.png"" style=""width:200px;border:14px solid red;"">","null","","","","","","","","","",""
"","image-keyboard-response","46","67984","0.0-46.0","3NAPMVF0ZX1WSCK9Y1T5NVSD85627Q","ARN8MH7YKZKAZ","3I7KR83SNAZT1REYB2SRC49PCEEK9H","","576.8999998569489","img/land3.png","76","578.0999999046326","3","1","3","1","0.8,0.2,0.2,0.2,0.8,0.2,0.2,0.2,0.8","0.8,0.2,0.2,0.2,0.8,0.2,0.2,0.2,0.8","1","",""
"","html-keyboard-response","47","68286","0.0-47.0","3NAPMVF0ZX1WSCK9Y1T5NVSD85627Q","ARN8MH7YKZKAZ","3I7KR83SNAZT1REYB2SRC49PCEEK9H","","null","<img src=""img/land3.png"" style=""width:200px; border:14px solid green;"">","null","","","","","","","","","",""
"","image-keyboard-response","48","68728","0.0-48.0","3NAPMVF0ZX1WSCK9Y1T5NVSD85627Q","ARN8MH7YKZKAZ","3I7KR83SNAZT1REYB2SRC49PCEEK9H","","440.90000009536743","img/land3.png","76","442","3","1","3","1","0.8,0.2,0.2,0.2,0.8,0.2,0.2,0.2,0.8","0.8,0.2,0.2,0.2,0.8,0.2,0.2,0.2,0.8","1","",""
"","html-keyboard-response","49","69030","0.0-49.0","3NAPMVF0ZX1WSCK9Y1T5NVSD85627Q","ARN8MH7YKZKAZ","3I7KR83SNAZT1REYB2SRC49PCEEK9H","","null","<img src=""img/land3.png"" style=""width:200px; border:14px solid green;"">","null","","","","","","","","","",""
"","image-keyboard-response","50","69792","0.0-50.0","3NAPMVF0ZX1WSCK9Y1T5NVSD85627Q","ARN8MH7YKZKAZ","3I7KR83SNAZT1REYB2SRC49PCEEK9H","","760.8999998569489","img/land5.png","74","762.0999999046326","1","1","1","1","0.8,0.2,0.2,0.2,0.8,0.2,0.2,0.2,0.8","0.8,0.2,0.2,0.2,0.8,0.2,0.2,0.2,0.8","1","",""
"","html-keyboard-response","51","70094","0.0-51.0","3NAPMVF0ZX1WSCK9Y1T5NVSD85627Q","ARN8MH7YKZKAZ","3I7KR83SNAZT1REYB2SRC49PCEEK9H","","null","<img src=""img/land5.png"" style=""width:200px; border:14px solid green;"">","null","","","","","","","","","",""
"","image-keyboard-response","52","70464","0.0-52.0","3NAPMVF0ZX1WSCK9Y1T5NVSD85627Q","ARN8MH7YKZKAZ","3I7KR83SNAZT1REYB2SRC49PCEEK9H","","368.5","img/land5.png","74","369.7000000476837","1","0","1","1","0.8,0.2,0.2,0.2,0.8,0.2,0.2,0.2,0.8","0.8,0.2,0.2,0.2,0.8,0.2,0.2,0.2,0.8","1","",""
"","html-keyboard-response","53","70766","0.0-53.0","3NAPMVF0ZX1WSCK9Y1T5NVSD85627Q","ARN8MH7YKZKAZ","3I7KR83SNAZT1REYB2SRC49PCEEK9H","","null","<img src=""img/land5.png"" style=""width:200px;border:14px solid red;"">","null","","","","","","","","","",""
"","image-keyboard-response","54","71544","0.0-54.0","3NAPMVF0ZX1WSCK9Y1T5NVSD85627Q","ARN8MH7YKZKAZ","3I7KR83SNAZT1REYB2SRC49PCEEK9H","","776.8999998569489","img/land3.png","76","778.2999999523163","3","1","3","1","0.8,0.2,0.2,0.2,0.8,0.2,0.2,0.2,0.8","0.8,0.2,0.2,0.2,0.8,0.2,0.2,0.2,0.8","1","",""
"","html-keyboard-response","55","71847","0.0-55.0","3NAPMVF0ZX1WSCK9Y1T5NVSD85627Q","ARN8MH7YKZKAZ","3I7KR83SNAZT1REYB2SRC49PCEEK9H","","null","<img src=""img/land3.png"" style=""width:200px; border:14px solid green;"">","null","","","","","","","","","",""
"","image-keyboard-response","56","72368","0.0-56.0","3NAPMVF0ZX1WSCK9Y1T5NVSD85627Q","ARN8MH7YKZKAZ","3I7KR83SNAZT1REYB2SRC49PCEEK9H","","520.1999998092651","img/land2.png","75","521.5","2","1","2","1","0.8,0.2,0.2,0.2,0.8,0.2,0.2,0.2,0.8","0.8,0.2,0.2,0.2,0.8,0.2,0.2,0.2,0.8","1","",""
"","html-keyboard-response","57","72670","0.0-57.0","3NAPMVF0ZX1WSCK9Y1T5NVSD85627Q","ARN8MH7YKZKAZ","3I7KR83SNAZT1REYB2SRC49PCEEK9H","","null","<img src=""img/land2.png"" style=""width:200px; border:14px solid green;"">","null","","","","","","","","","",""
"","image-keyboard-response","58","73304","0.0-58.0","3NAPMVF0ZX1WSCK9Y1T5NVSD85627Q","ARN8MH7YKZKAZ","3I7KR83SNAZT1REYB2SRC49PCEEK9H","","632.2000000476837","img/land5.png","74","633.3000001907349","1","1","1","1","0.8,0.2,0.2,0.2,0.8,0.2,0.2,0.2,0.8","0.8,0.2,0.2,0.2,0.8,0.2,0.2,0.2,0.8","1","",""
"","html-keyboard-response","59","73606","0.0-59.0","3NAPMVF0ZX1WSCK9Y1T5NVSD85627Q","ARN8MH7YKZKAZ","3I7KR83SNAZT1REYB2SRC49PCEEK9H","","null","<img src=""img/land5.png"" style=""width:200px; border:14px solid green;"">","null","","","","","","","","","",""
"","image-keyboard-response","60","74232","0.0-60.0","3NAPMVF0ZX1WSCK9Y1T5NVSD85627Q","ARN8MH7YKZKAZ","3I7KR83SNAZT1REYB2SRC49PCEEK9H","","624.6999998092651","img/land3.png","76","626","3","1","3","1","0.8,0.2,0.2,0.2,0.8,0.2,0.2,0.2,0.8","0.8,0.2,0.2,0.2,0.8,0.2,0.2,0.2,0.8","1","",""
"","html-keyboard-response","61","74535","0.0-61.0","3NAPMVF0ZX1WSCK9Y1T5NVSD85627Q","ARN8MH7YKZKAZ","3I7KR83SNAZT1REYB2SRC49PCEEK9H","","null","<img src=""img/land3.png"" style=""width:200px; border:14px solid green;"">","null","","","","","","","","","",""
"","image-keyboard-response","62","75192","0.0-62.0","3NAPMVF0ZX1WSCK9Y1T5NVSD85627Q","ARN8MH7YKZKAZ","3I7KR83SNAZT1REYB2SRC49PCEEK9H","","656","img/land5.png","74","657.4000000953674","1","1","1","1","0.8,0.2,0.2,0.2,0.8,0.2,0.2,0.2,0.8","0.8,0.2,0.2,0.2,0.8,0.2,0.2,0.2,0.8","1","",""
"","html-keyboard-response","63","75494","0.0-63.0","3NAPMVF0ZX1WSCK9Y1T5NVSD85627Q","ARN8MH7YKZKAZ","3I7KR83SNAZT1REYB2SRC49PCEEK9H","","null","<img src=""img/land5.png"" style=""width:200px; border:14px solid green;"">","null","","","","","","","","","",""
"","image-keyboard-response","64","75929","0.0-64.0","3NAPMVF0ZX1WSCK9Y1T5NVSD85627Q","ARN8MH7YKZKAZ","3I7KR83SNAZT1REYB2SRC49PCEEK9H","","433.09999990463257","img/land5.png","74","434.5","1","1","1","1","0.8,0.2,0.2,0.2,0.8,0.2,0.2,0.2,0.8","0.8,0.2,0.2,0.2,0.8,0.2,0.2,0.2,0.8","1","",""
"","html-keyboard-response","65","76231","0.0-65.0","3NAPMVF0ZX1WSCK9Y1T5NVSD85627Q","ARN8MH7YKZKAZ","3I7KR83SNAZT1REYB2SRC49PCEEK9H","","null","<img src=""img/land5.png"" style=""width:200px; border:14px solid green;"">","null","","","","","","","","","",""
"","image-keyboard-response","66","76656","0.0-66.0","3NAPMVF0ZX1WSCK9Y1T5NVSD85627Q","ARN8MH7YKZKAZ","3I7KR83SNAZT1REYB2SRC49PCEEK9H","","424.10000014305115","img/land5.png","74","425.39999985694885","1","1","1","1","0.8,0.2,0.2,0.2,0.8,0.2,0.2,0.2,0.8","0.8,0.2,0.2,0.2,0.8,0.2,0.2,0.2,0.8","1","",""
"","html-keyboard-response","67","76959","0.0-67.0","3NAPMVF0ZX1WSCK9Y1T5NVSD85627Q","ARN8MH7YKZKAZ","3I7KR83SNAZT1REYB2SRC49PCEEK9H","","null","<img src=""img/land5.png"" style=""width:200px; border:14px solid green;"">","null","","","","","","","","","",""
"","image-keyboard-response","68","77496","0.0-68.0","3NAPMVF0ZX1WSCK9Y1T5NVSD85627Q","ARN8MH7YKZKAZ","3I7KR83SNAZT1REYB2SRC49PCEEK9H","","535.4000000953674","img/land3.png","76","536.8000001907349","3","1","3","1","0.8,0.2,0.2,0.2,0.8,0.2,0.2,0.2,0.8","0.8,0.2,0.2,0.2,0.8,0.2,0.2,0.2,0.8","1","",""
"","html-keyboard-response","69","77799","0.0-69.0","3NAPMVF0ZX1WSCK9Y1T5NVSD85627Q","ARN8MH7YKZKAZ","3I7KR83SNAZT1REYB2SRC49PCEEK9H","","null","<img src=""img/land3.png"" style=""width:200px; border:14px solid green;"">","null","","","","","","","","","",""
"","image-keyboard-response","70","78560","0.0-70.0","3NAPMVF0ZX1WSCK9Y1T5NVSD85627Q","ARN8MH7YKZKAZ","3I7KR83SNAZT1REYB2SRC49PCEEK9H","","759.9000000953674","img/land5.png","74","761.1000001430511","1","1","1","1","0.8,0.2,0.2,0.2,0.8,0.2,0.2,0.2,0.8","0.8,0.2,0.2,0.2,0.8,0.2,0.2,0.2,0.8","1","",""
"","html-keyboard-response","71","78862","0.0-71.0","3NAPMVF0ZX1WSCK9Y1T5NVSD85627Q","ARN8MH7YKZKAZ","3I7KR83SNAZT1REYB2SRC49PCEEK9H","","null","<img src=""img/land5.png"" style=""width:200px; border:14px solid green;"">","null","","","","","","","","","",""
"","image-keyboard-response","72","79360","0.0-72.0","3NAPMVF0ZX1WSCK9Y1T5NVSD85627Q","ARN8MH7YKZKAZ","3I7KR83SNAZT1REYB2SRC49PCEEK9H","","496.59999990463257","img/land2.png","74","497.80000019073486","1","0","2","1","0.8,0.2,0.2,0.2,0.8,0.2,0.2,0.2,0.8","0.8,0.2,0.2,0.2,0.8,0.2,0.2,0.2,0.8","1","",""
"","html-keyboard-response","73","79663","0.0-73.0","3NAPMVF0ZX1WSCK9Y1T5NVSD85627Q","ARN8MH7YKZKAZ","3I7KR83SNAZT1REYB2SRC49PCEEK9H","","null","<img src=""img/land2.png"" style=""width:200px;border:14px solid red;"">","null","","","","","","","","","",""
"","image-keyboard-response","74","80328","0.0-74.0","3NAPMVF0ZX1WSCK9Y1T5NVSD85627Q","ARN8MH7YKZKAZ","3I7KR83SNAZT1REYB2SRC49PCEEK9H","","664.1000001430511","img/land3.png","76","665.5","3","1","3","1","0.8,0.2,0.2,0.2,0.8,0.2,0.2,0.2,0.8","0.8,0.2,0.2,0.2,0.8,0.2,0.2,0.2,0.8","1","",""
"","html-keyboard-response","75","80630","0.0-75.0","3NAPMVF0ZX1WSCK9Y1T5NVSD85627Q","ARN8MH7YKZKAZ","3I7KR83SNAZT1REYB2SRC49PCEEK9H","","null","<img src=""img/land3.png"" style=""width:200px; border:14px solid green;"">","null","","","","","","","","","",""
"","image-keyboard-response","76","81264","0.0-76.0","3NAPMVF0ZX1WSCK9Y1T5NVSD85627Q","ARN8MH7YKZKAZ","3I7KR83SNAZT1REYB2SRC49PCEEK9H","","632.7000000476837","img/land5.png","74","633.9000000953674","1","1","1","1","0.8,0.2,0.2,0.2,0.8,0.2,0.2,0.2,0.8","0.8,0.2,0.2,0.2,0.8,0.2,0.2,0.2,0.8","1","",""
"","html-keyboard-response","77","81566","0.0-77.0","3NAPMVF0ZX1WSCK9Y1T5NVSD85627Q","ARN8MH7YKZKAZ","3I7KR83SNAZT1REYB2SRC49PCEEK9H","","null","<img src=""img/land5.png"" style=""width:200px; border:14px solid green;"">","null","","","","","","","","","",""
"","image-keyboard-response","78","82000","0.0-78.0","3NAPMVF0ZX1WSCK9Y1T5NVSD85627Q","ARN8MH7YKZKAZ","3I7KR83SNAZT1REYB2SRC49PCEEK9H","","432.60000014305115","img/land5.png","74","434.09999990463257","1","1","1","1","0.8,0.2,0.2,0.2,0.8,0.2,0.2,0.2,0.8","0.8,0.2,0.2,0.2,0.8,0.2,0.2,0.2,0.8","1","",""
"","html-keyboard-response","79","82302","0.0-79.0","3NAPMVF0ZX1WSCK9Y1T5NVSD85627Q","ARN8MH7YKZKAZ","3I7KR83SNAZT1REYB2SRC49PCEEK9H","","null","<img src=""img/land5.png"" style=""width:200px; border:14px solid green;"">","null","","","","","","","","","",""
"","image-keyboard-response","80","82896","0.0-80.0","3NAPMVF0ZX1WSCK9Y1T5NVSD85627Q","ARN8MH7YKZKAZ","3I7KR83SNAZT1REYB2SRC49PCEEK9H","","592.8000001907349","img/land2.png","75","594.2000000476837","2","0","2","1","0.8,0.2,0.2,0.2,0.8,0.2,0.2,0.2,0.8","0.8,0.2,0.2,0.2,0.8,0.2,0.2,0.2,0.8","1","",""
"","html-keyboard-response","81","83199","0.0-81.0","3NAPMVF0ZX1WSCK9Y1T5NVSD85627Q","ARN8MH7YKZKAZ","3I7KR83SNAZT1REYB2SRC49PCEEK9H","","null","<img src=""img/land2.png"" style=""width:200px;border:14px solid red;"">","null","","","","","","","","","",""
"","image-keyboard-response","82","83632","0.0-82.0","3NAPMVF0ZX1WSCK9Y1T5NVSD85627Q","ARN8MH7YKZKAZ","3I7KR83SNAZT1REYB2SRC49PCEEK9H","","431.59999990463257","img/land2.png","75","432.90000009536743","2","1","2","1","0.8,0.2,0.2,0.2,0.8,0.2,0.2,0.2,0.8","0.8,0.2,0.2,0.2,0.8,0.2,0.2,0.2,0.8","1","",""
"","html-keyboard-response","83","83934","0.0-83.0","3NAPMVF0ZX1WSCK9Y1T5NVSD85627Q","ARN8MH7YKZKAZ","3I7KR83SNAZT1REYB2SRC49PCEEK9H","","null","<img src=""img/land2.png"" style=""width:200px; border:14px solid green;"">","null","","","","","","","","","",""
"","image-keyboard-response","84","84296","0.0-84.0","3NAPMVF0ZX1WSCK9Y1T5NVSD85627Q","ARN8MH7YKZKAZ","3I7KR83SNAZT1REYB2SRC49PCEEK9H","","360.5","img/land2.png","75","361.80000019073486","2","1","2","1","0.8,0.2,0.2,0.2,0.8,0.2,0.2,0.2,0.8","0.8,0.2,0.2,0.2,0.8,0.2,0.2,0.2,0.8","1","",""
"","html-keyboard-response","85","84613","0.0-85.0","3NAPMVF0ZX1WSCK9Y1T5NVSD85627Q","ARN8MH7YKZKAZ","3I7KR83SNAZT1REYB2SRC49PCEEK9H","","null","<img src=""img/land2.png"" style=""width:200px; border:14px solid green;"">","null","","","","","","","","","",""
"","image-keyboard-response","86","85288","0.0-86.0","3NAPMVF0ZX1WSCK9Y1T5NVSD85627Q","ARN8MH7YKZKAZ","3I7KR83SNAZT1REYB2SRC49PCEEK9H","","673.6999998092651","img/land5.png","74","674.8000001907349","1","1","1","1","0.8,0.2,0.2,0.2,0.8,0.2,0.2,0.2,0.8","0.8,0.2,0.2,0.2,0.8,0.2,0.2,0.2,0.8","1","",""
"","html-keyboard-response","87","85589","0.0-87.0","3NAPMVF0ZX1WSCK9Y1T5NVSD85627Q","ARN8MH7YKZKAZ","3I7KR83SNAZT1REYB2SRC49PCEEK9H","","null","<img src=""img/land5.png"" style=""width:200px; border:14px solid green;"">","null","","","","","","","","","",""
"","image-keyboard-response","88","86256","0.0-88.0","3NAPMVF0ZX1WSCK9Y1T5NVSD85627Q","ARN8MH7YKZKAZ","3I7KR83SNAZT1REYB2SRC49PCEEK9H","","665.7999999523163","img/land2.png","75","667.2999999523163","2","1","2","1","0.8,0.2,0.2,0.2,0.8,0.2,0.2,0.2,0.8","0.8,0.2,0.2,0.2,0.8,0.2,0.2,0.2,0.8","1","",""
"","html-keyboard-response","89","86559","0.0-89.0","3NAPMVF0ZX1WSCK9Y1T5NVSD85627Q","ARN8MH7YKZKAZ","3I7KR83SNAZT1REYB2SRC49PCEEK9H","","null","<img src=""img/land2.png"" style=""width:200px; border:14px solid green;"">","null","","","","","","","","","",""
"","image-keyboard-response","90","86920","0.0-90.0","3NAPMVF0ZX1WSCK9Y1T5NVSD85627Q","ARN8MH7YKZKAZ","3I7KR83SNAZT1REYB2SRC49PCEEK9H","","359.7000000476837","img/land2.png","75","361","2","1","2","1","0.8,0.2,0.2,0.2,0.8,0.2,0.2,0.2,0.8","0.8,0.2,0.2,0.2,0.8,0.2,0.2,0.2,0.8","1","",""
"","html-keyboard-response","91","87222","0.0-91.0","3NAPMVF0ZX1WSCK9Y1T5NVSD85627Q","ARN8MH7YKZKAZ","3I7KR83SNAZT1REYB2SRC49PCEEK9H","","null","<img src=""img/land2.png"" style=""width:200px; border:14px solid green;"">","null","","","","","","","","","",""
"","image-keyboard-response","92","87728","0.0-92.0","3NAPMVF0ZX1WSCK9Y1T5NVSD85627Q","ARN8MH7YKZKAZ","3I7KR83SNAZT1REYB2SRC49PCEEK9H","","504.2000000476837","img/land3.png","76","505.5","3","1","3","1","0.8,0.2,0.2,0.2,0.8,0.2,0.2,0.2,0.8","0.8,0.2,0.2,0.2,0.8,0.2,0.2,0.2,0.8","1","",""
"","html-keyboard-response","93","88030","0.0-93.0","3NAPMVF0ZX1WSCK9Y1T5NVSD85627Q","ARN8MH7YKZKAZ","3I7KR83SNAZT1REYB2SRC49PCEEK9H","","null","<img src=""img/land3.png"" style=""width:200px; border:14px solid green;"">","null","","","","","","","","","",""
"","image-keyboard-response","94","88784","0.0-94.0","3NAPMVF0ZX1WSCK9Y1T5NVSD85627Q","ARN8MH7YKZKAZ","3I7KR83SNAZT1REYB2SRC49PCEEK9H","","752.7000000476837","img/land2.png","75","754","2","1","2","1","0.8,0.2,0.2,0.2,0.8,0.2,0.2,0.2,0.8","0.8,0.2,0.2,0.2,0.8,0.2,0.2,0.2,0.8","1","",""
"","html-keyboard-response","95","89086","0.0-95.0","3NAPMVF0ZX1WSCK9Y1T5NVSD85627Q","ARN8MH7YKZKAZ","3I7KR83SNAZT1REYB2SRC49PCEEK9H","","null","<img src=""img/land2.png"" style=""width:200px; border:14px solid green;"">","null","","","","","","","","","",""
"","image-keyboard-response","96","89576","0.0-96.0","3NAPMVF0ZX1WSCK9Y1T5NVSD85627Q","ARN8MH7YKZKAZ","3I7KR83SNAZT1REYB2SRC49PCEEK9H","","488.59999990463257","img/land3.png","74","489.89999985694885","1","0","3","1","0.8,0.2,0.2,0.2,0.8,0.2,0.2,0.2,0.8","0.8,0.2,0.2,0.2,0.8,0.2,0.2,0.2,0.8","1","",""
"","html-keyboard-response","97","89878","0.0-97.0","3NAPMVF0ZX1WSCK9Y1T5NVSD85627Q","ARN8MH7YKZKAZ","3I7KR83SNAZT1REYB2SRC49PCEEK9H","","null","<img src=""img/land3.png"" style=""width:200px;border:14px solid red;"">","null","","","","","","","","","",""
"","image-keyboard-response","98","90848","0.0-98.0","3NAPMVF0ZX1WSCK9Y1T5NVSD85627Q","ARN8MH7YKZKAZ","3I7KR83SNAZT1REYB2SRC49PCEEK9H","","968.6000001430511","img/land5.png","74","970","1","0","1","1","0.8,0.2,0.2,0.2,0.8,0.2,0.2,0.2,0.8","0.8,0.2,0.2,0.2,0.8,0.2,0.2,0.2,0.8","1","",""
"","html-keyboard-response","99","91150","0.0-99.0","3NAPMVF0ZX1WSCK9Y1T5NVSD85627Q","ARN8MH7YKZKAZ","3I7KR83SNAZT1REYB2SRC49PCEEK9H","","null","<img src=""img/land5.png"" style=""width:200px;border:14px solid red;"">","null","","","","","","","","","",""
"","image-keyboard-response","100","91784","0.0-100.0","3NAPMVF0ZX1WSCK9Y1T5NVSD85627Q","ARN8MH7YKZKAZ","3I7KR83SNAZT1REYB2SRC49PCEEK9H","","632.5999999046326","img/land3.png","76","633.7999999523163","3","1","3","1","0.8,0.2,0.2,0.2,0.8,0.2,0.2,0.2,0.8","0.8,0.2,0.2,0.2,0.8,0.2,0.2,0.2,0.8","1","",""
"","html-keyboard-response","101","92086","0.0-101.0","3NAPMVF0ZX1WSCK9Y1T5NVSD85627Q","ARN8MH7YKZKAZ","3I7KR83SNAZT1REYB2SRC49PCEEK9H","","null","<img src=""img/land3.png"" style=""width:200px; border:14px solid green;"">","null","","","","","","","","","",""
"","image-keyboard-response","102","92616","0.0-102.0","3NAPMVF0ZX1WSCK9Y1T5NVSD85627Q","ARN8MH7YKZKAZ","3I7KR83SNAZT1REYB2SRC49PCEEK9H","","528.1000001430511","img/land3.png","76","529.5","3","1","3","1","0.8,0.2,0.2,0.2,0.8,0.2,0.2,0.2,0.8","0.8,0.2,0.2,0.2,0.8,0.2,0.2,0.2,0.8","1","",""
"","html-keyboard-response","103","92918","0.0-103.0","3NAPMVF0ZX1WSCK9Y1T5NVSD85627Q","ARN8MH7YKZKAZ","3I7KR83SNAZT1REYB2SRC49PCEEK9H","","null","<img src=""img/land3.png"" style=""width:200px; border:14px solid green;"">","null","","","","","","","","","",""
"","image-keyboard-response","104","93728","0.0-104.0","3NAPMVF0ZX1WSCK9Y1T5NVSD85627Q","ARN8MH7YKZKAZ","3I7KR83SNAZT1REYB2SRC49PCEEK9H","","808.5999999046326","img/land2.png","75","810","2","1","2","1","0.8,0.2,0.2,0.2,0.8,0.2,0.2,0.2,0.8","0.8,0.2,0.2,0.2,0.8,0.2,0.2,0.2,0.8","1","",""
"","html-keyboard-response","105","94032","0.0-105.0","3NAPMVF0ZX1WSCK9Y1T5NVSD85627Q","ARN8MH7YKZKAZ","3I7KR83SNAZT1REYB2SRC49PCEEK9H","","null","<img src=""img/land2.png"" style=""width:200px; border:14px solid green;"">","null","","","","","","","","","",""
"","image-keyboard-response","106","94776","0.0-106.0","3NAPMVF0ZX1WSCK9Y1T5NVSD85627Q","ARN8MH7YKZKAZ","3I7KR83SNAZT1REYB2SRC49PCEEK9H","","743.0999999046326","img/land5.png","74","744.2999999523163","1","1","1","1","0.8,0.2,0.2,0.2,0.8,0.2,0.2,0.2,0.8","0.8,0.2,0.2,0.2,0.8,0.2,0.2,0.2,0.8","1","",""
"","html-keyboard-response","107","95079","0.0-107.0","3NAPMVF0ZX1WSCK9Y1T5NVSD85627Q","ARN8MH7YKZKAZ","3I7KR83SNAZT1REYB2SRC49PCEEK9H","","null","<img src=""img/land5.png"" style=""width:200px; border:14px solid green;"">","null","","","","","","","","","",""
"","image-keyboard-response","108","95448","0.0-108.0","3NAPMVF0ZX1WSCK9Y1T5NVSD85627Q","ARN8MH7YKZKAZ","3I7KR83SNAZT1REYB2SRC49PCEEK9H","","367.60000014305115","img/land5.png","74","368.89999985694885","1","1","1","1","0.8,0.2,0.2,0.2,0.8,0.2,0.2,0.2,0.8","0.8,0.2,0.2,0.2,0.8,0.2,0.2,0.2,0.8","1","",""
"","html-keyboard-response","109","95750","0.0-109.0","3NAPMVF0ZX1WSCK9Y1T5NVSD85627Q","ARN8MH7YKZKAZ","3I7KR83SNAZT1REYB2SRC49PCEEK9H","","null","<img src=""img/land5.png"" style=""width:200px; border:14px solid green;"">","null","","","","","","","","","",""
"","image-keyboard-response","110","96496","0.0-110.0","3NAPMVF0ZX1WSCK9Y1T5NVSD85627Q","ARN8MH7YKZKAZ","3I7KR83SNAZT1REYB2SRC49PCEEK9H","","744.5","img/land3.png","76","745.9000000953674","3","1","3","1","0.8,0.2,0.2,0.2,0.8,0.2,0.2,0.2,0.8","0.8,0.2,0.2,0.2,0.8,0.2,0.2,0.2,0.8","1","",""
"","html-keyboard-response","111","96799","0.0-111.0","3NAPMVF0ZX1WSCK9Y1T5NVSD85627Q","ARN8MH7YKZKAZ","3I7KR83SNAZT1REYB2SRC49PCEEK9H","","null","<img src=""img/land3.png"" style=""width:200px; border:14px solid green;"">","null","","","","","","","","","",""
"","image-keyboard-response","112","97368","0.0-112.0","3NAPMVF0ZX1WSCK9Y1T5NVSD85627Q","ARN8MH7YKZKAZ","3I7KR83SNAZT1REYB2SRC49PCEEK9H","","567.6000001430511","img/land5.png","75","569","2","0","1","1","0.8,0.2,0.2,0.2,0.8,0.2,0.2,0.2,0.8","0.8,0.2,0.2,0.2,0.8,0.2,0.2,0.2,0.8","1","",""
"","html-keyboard-response","113","97670","0.0-113.0","3NAPMVF0ZX1WSCK9Y1T5NVSD85627Q","ARN8MH7YKZKAZ","3I7KR83SNAZT1REYB2SRC49PCEEK9H","","null","<img src=""img/land5.png"" style=""width:200px;border:14px solid red;"">","null","","","","","","","","","",""
"","image-keyboard-response","114","98264","0.0-114.0","3NAPMVF0ZX1WSCK9Y1T5NVSD85627Q","ARN8MH7YKZKAZ","3I7KR83SNAZT1REYB2SRC49PCEEK9H","","592.2000000476837","img/land2.png","75","593.5","2","0","2","1","0.8,0.2,0.2,0.2,0.8,0.2,0.2,0.2,0.8","0.8,0.2,0.2,0.2,0.8,0.2,0.2,0.2,0.8","1","",""
"","html-keyboard-response","115","98566","0.0-115.0","3NAPMVF0ZX1WSCK9Y1T5NVSD85627Q","ARN8MH7YKZKAZ","3I7KR83SNAZT1REYB2SRC49PCEEK9H","","null","<img src=""img/land2.png"" style=""width:200px;border:14px solid red;"">","null","","","","","","","","","",""
"","image-keyboard-response","116","99216","0.0-116.0","3NAPMVF0ZX1WSCK9Y1T5NVSD85627Q","ARN8MH7YKZKAZ","3I7KR83SNAZT1REYB2SRC49PCEEK9H","","648.2999999523163","img/land5.png","74","649.5999999046326","1","1","1","1","0.8,0.2,0.2,0.2,0.8,0.2,0.2,0.2,0.8","0.8,0.2,0.2,0.2,0.8,0.2,0.2,0.2,0.8","1","",""
"","html-keyboard-response","117","99519","0.0-117.0","3NAPMVF0ZX1WSCK9Y1T5NVSD85627Q","ARN8MH7YKZKAZ","3I7KR83SNAZT1REYB2SRC49PCEEK9H","","null","<img src=""img/land5.png"" style=""width:200px; border:14px solid green;"">","null","","","","","","","","","",""
"","image-keyboard-response","118","99920","0.0-118.0","3NAPMVF0ZX1WSCK9Y1T5NVSD85627Q","ARN8MH7YKZKAZ","3I7KR83SNAZT1REYB2SRC49PCEEK9H","","399.60000014305115","img/land5.png","74","400.7999999523163","1","0","1","1","0.8,0.2,0.2,0.2,0.8,0.2,0.2,0.2,0.8","0.8,0.2,0.2,0.2,0.8,0.2,0.2,0.2,0.8","1","",""
"","html-keyboard-response","119","100221","0.0-119.0","3NAPMVF0ZX1WSCK9Y1T5NVSD85627Q","ARN8MH7YKZKAZ","3I7KR83SNAZT1REYB2SRC49PCEEK9H","","null","<img src=""img/land5.png"" style=""width:200px;border:14px solid red;"">","null","","","","","","","","","",""
"","image-keyboard-response","120","100800","0.0-120.0","3NAPMVF0ZX1WSCK9Y1T5NVSD85627Q","ARN8MH7YKZKAZ","3I7KR83SNAZT1REYB2SRC49PCEEK9H","","577","img/land2.png","75","578.4000000953674","2","1","2","1","0.8,0.2,0.2,0.2,0.8,0.2,0.2,0.2,0.8","0.8,0.2,0.2,0.2,0.8,0.2,0.2,0.2,0.8","1","",""
"","html-keyboard-response","121","101101","0.0-121.0","3NAPMVF0ZX1WSCK9Y1T5NVSD85627Q","ARN8MH7YKZKAZ","3I7KR83SNAZT1REYB2SRC49PCEEK9H","","null","<img src=""img/land2.png"" style=""width:200px; border:14px solid green;"">","null","","","","","","","","","",""
"","image-keyboard-response","122","101760","0.0-122.0","3NAPMVF0ZX1WSCK9Y1T5NVSD85627Q","ARN8MH7YKZKAZ","3I7KR83SNAZT1REYB2SRC49PCEEK9H","","657","img/land3.png","76","658.4000000953674","3","0","3","1","0.8,0.2,0.2,0.2,0.8,0.2,0.2,0.2,0.8","0.8,0.2,0.2,0.2,0.8,0.2,0.2,0.2,0.8","1","",""
"","html-keyboard-response","123","102062","0.0-123.0","3NAPMVF0ZX1WSCK9Y1T5NVSD85627Q","ARN8MH7YKZKAZ","3I7KR83SNAZT1REYB2SRC49PCEEK9H","","null","<img src=""img/land3.png"" style=""width:200px;border:14px solid red;"">","null","","","","","","","","","",""
"","image-keyboard-response","124","102712","0.0-124.0","3NAPMVF0ZX1WSCK9Y1T5NVSD85627Q","ARN8MH7YKZKAZ","3I7KR83SNAZT1REYB2SRC49PCEEK9H","","648.5","img/land5.png","74","649.7999999523163","1","1","1","1","0.8,0.2,0.2,0.2,0.8,0.2,0.2,0.2,0.8","0.8,0.2,0.2,0.2,0.8,0.2,0.2,0.2,0.8","1","",""
"","html-keyboard-response","125","103013","0.0-125.0","3NAPMVF0ZX1WSCK9Y1T5NVSD85627Q","ARN8MH7YKZKAZ","3I7KR83SNAZT1REYB2SRC49PCEEK9H","","null","<img src=""img/land5.png"" style=""width:200px; border:14px solid green;"">","null","","","","","","","","","",""
"","image-keyboard-response","126","103840","0.0-126.0","3NAPMVF0ZX1WSCK9Y1T5NVSD85627Q","ARN8MH7YKZKAZ","3I7KR83SNAZT1REYB2SRC49PCEEK9H","","825.2000000476837","img/land3.png","76","826.6000001430511","3","0","3","1","0.8,0.2,0.2,0.2,0.8,0.2,0.2,0.2,0.8","0.8,0.2,0.2,0.2,0.8,0.2,0.2,0.2,0.8","1","",""
"","html-keyboard-response","127","104142","0.0-127.0","3NAPMVF0ZX1WSCK9Y1T5NVSD85627Q","ARN8MH7YKZKAZ","3I7KR83SNAZT1REYB2SRC49PCEEK9H","","null","<img src=""img/land3.png"" style=""width:200px;border:14px solid red;"">","null","","","","","","","","","",""
"","image-keyboard-response","128","104512","0.0-128.0","3NAPMVF0ZX1WSCK9Y1T5NVSD85627Q","ARN8MH7YKZKAZ","3I7KR83SNAZT1REYB2SRC49PCEEK9H","","368.90000009536743","img/land3.png","76","370","3","0","3","1","0.8,0.2,0.2,0.2,0.8,0.2,0.2,0.2,0.8","0.8,0.2,0.2,0.2,0.8,0.2,0.2,0.2,0.8","1","",""
"","html-keyboard-response","129","104814","0.0-129.0","3NAPMVF0ZX1WSCK9Y1T5NVSD85627Q","ARN8MH7YKZKAZ","3I7KR83SNAZT1REYB2SRC49PCEEK9H","","null","<img src=""img/land3.png"" style=""width:200px;border:14px solid red;"">","null","","","","","","","","","",""
"","image-keyboard-response","130","105232","0.0-130.0","3NAPMVF0ZX1WSCK9Y1T5NVSD85627Q","ARN8MH7YKZKAZ","3I7KR83SNAZT1REYB2SRC49PCEEK9H","","416.60000014305115","img/land3.png","76","417.7000000476837","3","0","3","1","0.8,0.2,0.2,0.2,0.8,0.2,0.2,0.2,0.8","0.8,0.2,0.2,0.2,0.8,0.2,0.2,0.2,0.8","1","",""
"","html-keyboard-response","131","105535","0.0-131.0","3NAPMVF0ZX1WSCK9Y1T5NVSD85627Q","ARN8MH7YKZKAZ","3I7KR83SNAZT1REYB2SRC49PCEEK9H","","null","<img src=""img/land3.png"" style=""width:200px;border:14px solid red;"">","null","","","","","","","","","",""
"","image-keyboard-response","132","106128","0.0-132.0","3NAPMVF0ZX1WSCK9Y1T5NVSD85627Q","ARN8MH7YKZKAZ","3I7KR83SNAZT1REYB2SRC49PCEEK9H","","591.6000001430511","img/land2.png","75","593.1000001430511","2","1","2","1","0.8,0.2,0.2,0.2,0.8,0.2,0.2,0.2,0.8","0.8,0.2,0.2,0.2,0.8,0.2,0.2,0.2,0.8","1","",""
"","html-keyboard-response","133","106430","0.0-133.0","3NAPMVF0ZX1WSCK9Y1T5NVSD85627Q","ARN8MH7YKZKAZ","3I7KR83SNAZT1REYB2SRC49PCEEK9H","","null","<img src=""img/land2.png"" style=""width:200px; border:14px solid green;"">","null","","","","","","","","","",""
"","image-keyboard-response","134","107168","0.0-134.0","3NAPMVF0ZX1WSCK9Y1T5NVSD85627Q","ARN8MH7YKZKAZ","3I7KR83SNAZT1REYB2SRC49PCEEK9H","","736.6000001430511","img/land3.png","76","737.8999998569489","3","1","3","1","0.8,0.2,0.2,0.2,0.8,0.2,0.2,0.2,0.8","0.8,0.2,0.2,0.2,0.8,0.2,0.2,0.2,0.8","1","",""
"","html-keyboard-response","135","107470","0.0-135.0","3NAPMVF0ZX1WSCK9Y1T5NVSD85627Q","ARN8MH7YKZKAZ","3I7KR83SNAZT1REYB2SRC49PCEEK9H","","null","<img src=""img/land3.png"" style=""width:200px; border:14px solid green;"">","null","","","","","","","","","",""
"","image-keyboard-response","136","107912","0.0-136.0","3NAPMVF0ZX1WSCK9Y1T5NVSD85627Q","ARN8MH7YKZKAZ","3I7KR83SNAZT1REYB2SRC49PCEEK9H","","440.69999980926514","img/land2.png","75","442.09999990463257","2","1","2","1","0.8,0.2,0.2,0.2,0.8,0.2,0.2,0.2,0.8","0.8,0.2,0.2,0.2,0.8,0.2,0.2,0.2,0.8","1","",""
"","html-keyboard-response","137","108227","0.0-137.0","3NAPMVF0ZX1WSCK9Y1T5NVSD85627Q","ARN8MH7YKZKAZ","3I7KR83SNAZT1REYB2SRC49PCEEK9H","","null","<img src=""img/land2.png"" style=""width:200px; border:14px solid green;"">","null","","","","","","","","","",""
"","image-keyboard-response","138","108888","0.0-138.0","3NAPMVF0ZX1WSCK9Y1T5NVSD85627Q","ARN8MH7YKZKAZ","3I7KR83SNAZT1REYB2SRC49PCEEK9H","","658.7999999523163","img/land2.png","76","660.2000000476837","3","0","2","1","0.8,0.2,0.2,0.2,0.8,0.2,0.2,0.2,0.8","0.8,0.2,0.2,0.2,0.8,0.2,0.2,0.2,0.8","1","",""
"","html-keyboard-response","139","109190","0.0-139.0","3NAPMVF0ZX1WSCK9Y1T5NVSD85627Q","ARN8MH7YKZKAZ","3I7KR83SNAZT1REYB2SRC49PCEEK9H","","null","<img src=""img/land2.png"" style=""width:200px;border:14px solid red;"">","null","","","","","","","","","",""
"","image-keyboard-response","140","109936","0.0-140.0","3NAPMVF0ZX1WSCK9Y1T5NVSD85627Q","ARN8MH7YKZKAZ","3I7KR83SNAZT1REYB2SRC49PCEEK9H","","744.6999998092651","img/land5.png","74","746.0999999046326","1","1","1","1","0.8,0.2,0.2,0.2,0.8,0.2,0.2,0.2,0.8","0.8,0.2,0.2,0.2,0.8,0.2,0.2,0.2,0.8","1","",""
"","html-keyboard-response","141","110239","0.0-141.0","3NAPMVF0ZX1WSCK9Y1T5NVSD85627Q","ARN8MH7YKZKAZ","3I7KR83SNAZT1REYB2SRC49PCEEK9H","","null","<img src=""img/land5.png"" style=""width:200px; border:14px solid green;"">","null","","","","","","","","","",""
"","image-keyboard-response","142","111064","0.0-142.0","3NAPMVF0ZX1WSCK9Y1T5NVSD85627Q","ARN8MH7YKZKAZ","3I7KR83SNAZT1REYB2SRC49PCEEK9H","","823.9000000953674","img/land2.png","75","825","2","1","2","1","0.8,0.2,0.2,0.2,0.8,0.2,0.2,0.2,0.8","0.8,0.2,0.2,0.2,0.8,0.2,0.2,0.2,0.8","1","",""
"","html-keyboard-response","143","111366","0.0-143.0","3NAPMVF0ZX1WSCK9Y1T5NVSD85627Q","ARN8MH7YKZKAZ","3I7KR83SNAZT1REYB2SRC49PCEEK9H","","null","<img src=""img/land2.png"" style=""width:200px; border:14px solid green;"">","null","","","","","","","","","",""
"","image-keyboard-response","144","111736","0.0-144.0","3NAPMVF0ZX1WSCK9Y1T5NVSD85627Q","ARN8MH7YKZKAZ","3I7KR83SNAZT1REYB2SRC49PCEEK9H","","367.89999985694885","img/land2.png","75","369.2999999523163","2","0","2","1","0.8,0.2,0.2,0.2,0.8,0.2,0.2,0.2,0.8","0.8,0.2,0.2,0.2,0.8,0.2,0.2,0.2,0.8","1","",""
"","html-keyboard-response","145","112037","0.0-145.0","3NAPMVF0ZX1WSCK9Y1T5NVSD85627Q","ARN8MH7YKZKAZ","3I7KR83SNAZT1REYB2SRC49PCEEK9H","","null","<img src=""img/land2.png"" style=""width:200px;border:14px solid red;"">","null","","","","","","","","","",""
"","image-keyboard-response","146","112768","0.0-146.0","3NAPMVF0ZX1WSCK9Y1T5NVSD85627Q","ARN8MH7YKZKAZ","3I7KR83SNAZT1REYB2SRC49PCEEK9H","","729","img/land5.png","74","730.1999998092651","1","1","1","1","0.8,0.2,0.2,0.2,0.8,0.2,0.2,0.2,0.8","0.8,0.2,0.2,0.2,0.8,0.2,0.2,0.2,0.8","1","",""
"","html-keyboard-response","147","113070","0.0-147.0","3NAPMVF0ZX1WSCK9Y1T5NVSD85627Q","ARN8MH7YKZKAZ","3I7KR83SNAZT1REYB2SRC49PCEEK9H","","null","<img src=""img/land5.png"" style=""width:200px; border:14px solid green;"">","null","","","","","","","","","",""
"","image-keyboard-response","148","113679","0.0-148.0","3NAPMVF0ZX1WSCK9Y1T5NVSD85627Q","ARN8MH7YKZKAZ","3I7KR83SNAZT1REYB2SRC49PCEEK9H","","607.7000000476837","img/land2.png","75","608.7999999523163","2","0","2","1","0.8,0.2,0.2,0.2,0.8,0.2,0.2,0.2,0.8","0.8,0.2,0.2,0.2,0.8,0.2,0.2,0.2,0.8","1","",""
"","html-keyboard-response","149","113981","0.0-149.0","3NAPMVF0ZX1WSCK9Y1T5NVSD85627Q","ARN8MH7YKZKAZ","3I7KR83SNAZT1REYB2SRC49PCEEK9H","","null","<img src=""img/land2.png"" style=""width:200px;border:14px solid red;"">","null","","","","","","","","","",""
"","image-keyboard-response","150","114288","0.0-150.0","3NAPMVF0ZX1WSCK9Y1T5NVSD85627Q","ARN8MH7YKZKAZ","3I7KR83SNAZT1REYB2SRC49PCEEK9H","","305.7000000476837","img/land2.png","75","307","2","1","2","1","0.8,0.2,0.2,0.2,0.8,0.2,0.2,0.2,0.8","0.8,0.2,0.2,0.2,0.8,0.2,0.2,0.2,0.8","1","",""
"","html-keyboard-response","151","114589","0.0-151.0","3NAPMVF0ZX1WSCK9Y1T5NVSD85627Q","ARN8MH7YKZKAZ","3I7KR83SNAZT1REYB2SRC49PCEEK9H","","null","<img src=""img/land2.png"" style=""width:200px; border:14px solid green;"">","null","","","","","","","","","",""
"","image-keyboard-response","152","115280","0.0-152.0","3NAPMVF0ZX1WSCK9Y1T5NVSD85627Q","ARN8MH7YKZKAZ","3I7KR83SNAZT1REYB2SRC49PCEEK9H","","688.7999999523163","img/land3.png","76","690.1999998092651","3","1","3","1","0.8,0.2,0.2,0.2,0.8,0.2,0.2,0.2,0.8","0.8,0.2,0.2,0.2,0.8,0.2,0.2,0.2,0.8","1","",""
"","html-keyboard-response","153","115582","0.0-153.0","3NAPMVF0ZX1WSCK9Y1T5NVSD85627Q","ARN8MH7YKZKAZ","3I7KR83SNAZT1REYB2SRC49PCEEK9H","","null","<img src=""img/land3.png"" style=""width:200px; border:14px solid green;"">","null","","","","","","","","","",""
"","image-keyboard-response","154","115864","0.0-154.0","3NAPMVF0ZX1WSCK9Y1T5NVSD85627Q","ARN8MH7YKZKAZ","3I7KR83SNAZT1REYB2SRC49PCEEK9H","","280.5","img/land2.png","76","281.7999999523163","3","1","2","1","0.8,0.2,0.2,0.2,0.8,0.2,0.2,0.2,0.8","0.8,0.2,0.2,0.2,0.8,0.2,0.2,0.2,0.8","1","",""
"","html-keyboard-response","155","116166","0.0-155.0","3NAPMVF0ZX1WSCK9Y1T5NVSD85627Q","ARN8MH7YKZKAZ","3I7KR83SNAZT1REYB2SRC49PCEEK9H","","null","<img src=""img/land2.png"" style=""width:200px; border:14px solid green;"">","null","","","","","","","","","",""
"","image-keyboard-response","156","117040","0.0-156.0","3NAPMVF0ZX1WSCK9Y1T5NVSD85627Q","ARN8MH7YKZKAZ","3I7KR83SNAZT1REYB2SRC49PCEEK9H","","873","img/land2.png","75","874","2","1","2","1","0.8,0.2,0.2,0.2,0.8,0.2,0.2,0.2,0.8","0.8,0.2,0.2,0.2,0.8,0.2,0.2,0.2,0.8","1","",""
"","html-keyboard-response","157","117341","0.0-157.0","3NAPMVF0ZX1WSCK9Y1T5NVSD85627Q","ARN8MH7YKZKAZ","3I7KR83SNAZT1REYB2SRC49PCEEK9H","","null","<img src=""img/land2.png"" style=""width:200px; border:14px solid green;"">","null","","","","","","","","","",""
"","image-keyboard-response","158","117936","0.0-158.0","3NAPMVF0ZX1WSCK9Y1T5NVSD85627Q","ARN8MH7YKZKAZ","3I7KR83SNAZT1REYB2SRC49PCEEK9H","","593.1999998092651","img/land3.png","76","594.4000000953674","3","1","3","1","0.8,0.2,0.2,0.2,0.8,0.2,0.2,0.2,0.8","0.8,0.2,0.2,0.2,0.8,0.2,0.2,0.2,0.8","1","",""
"","html-keyboard-response","159","118237","0.0-159.0","3NAPMVF0ZX1WSCK9Y1T5NVSD85627Q","ARN8MH7YKZKAZ","3I7KR83SNAZT1REYB2SRC49PCEEK9H","","null","<img src=""img/land3.png"" style=""width:200px; border:14px solid green;"">","null","","","","","","","","","",""
"","image-keyboard-response","160","118616","0.0-160.0","3NAPMVF0ZX1WSCK9Y1T5NVSD85627Q","ARN8MH7YKZKAZ","3I7KR83SNAZT1REYB2SRC49PCEEK9H","","376.7999999523163","img/land3.png","76","378.19999980926514","3","1","3","1","0.8,0.2,0.2,0.2,0.8,0.2,0.2,0.2,0.8","0.8,0.2,0.2,0.2,0.8,0.2,0.2,0.2,0.8","1","",""
"","html-keyboard-response","161","118919","0.0-161.0","3NAPMVF0ZX1WSCK9Y1T5NVSD85627Q","ARN8MH7YKZKAZ","3I7KR83SNAZT1REYB2SRC49PCEEK9H","","null","<img src=""img/land3.png"" style=""width:200px; border:14px solid green;"">","null","","","","","","","","","",""
"","image-keyboard-response","162","119432","0.0-162.0","3NAPMVF0ZX1WSCK9Y1T5NVSD85627Q","ARN8MH7YKZKAZ","3I7KR83SNAZT1REYB2SRC49PCEEK9H","","511.7999999523163","img/land5.png","74","513","1","1","1","1","0.8,0.2,0.2,0.2,0.8,0.2,0.2,0.2,0.8","0.8,0.2,0.2,0.2,0.8,0.2,0.2,0.2,0.8","1","",""
"","html-keyboard-response","163","119734","0.0-163.0","3NAPMVF0ZX1WSCK9Y1T5NVSD85627Q","ARN8MH7YKZKAZ","3I7KR83SNAZT1REYB2SRC49PCEEK9H","","null","<img src=""img/land5.png"" style=""width:200px; border:14px solid green;"">","null","","","","","","","","","",""
"","image-keyboard-response","164","120296","0.0-164.0","3NAPMVF0ZX1WSCK9Y1T5NVSD85627Q","ARN8MH7YKZKAZ","3I7KR83SNAZT1REYB2SRC49PCEEK9H","","560.2999999523163","img/land2.png","75","561.6999998092651","2","1","2","1","0.8,0.2,0.2,0.2,0.8,0.2,0.2,0.2,0.8","0.8,0.2,0.2,0.2,0.8,0.2,0.2,0.2,0.8","1","",""
"","html-keyboard-response","165","120598","0.0-165.0","3NAPMVF0ZX1WSCK9Y1T5NVSD85627Q","ARN8MH7YKZKAZ","3I7KR83SNAZT1REYB2SRC49PCEEK9H","","null","<img src=""img/land2.png"" style=""width:200px; border:14px solid green;"">","null","","","","","","","","","",""
"","image-keyboard-response","166","121016","0.0-166.0","3NAPMVF0ZX1WSCK9Y1T5NVSD85627Q","ARN8MH7YKZKAZ","3I7KR83SNAZT1REYB2SRC49PCEEK9H","","416.69999980926514","img/land2.png","75","418.09999990463257","2","1","2","1","0.8,0.2,0.2,0.2,0.8,0.2,0.2,0.2,0.8","0.8,0.2,0.2,0.2,0.8,0.2,0.2,0.2,0.8","1","",""
"","html-keyboard-response","167","121317","0.0-167.0","3NAPMVF0ZX1WSCK9Y1T5NVSD85627Q","ARN8MH7YKZKAZ","3I7KR83SNAZT1REYB2SRC49PCEEK9H","","null","<img src=""img/land2.png"" style=""width:200px; border:14px solid green;"">","null","","","","","","","","","",""
"","image-keyboard-response","168","122096","0.0-168.0","3NAPMVF0ZX1WSCK9Y1T5NVSD85627Q","ARN8MH7YKZKAZ","3I7KR83SNAZT1REYB2SRC49PCEEK9H","","776.8000001907349","img/land3.png","76","778.1000001430511","3","1","3","1","0.8,0.2,0.2,0.2,0.8,0.2,0.2,0.2,0.8","0.8,0.2,0.2,0.2,0.8,0.2,0.2,0.2,0.8","1","",""
"","html-keyboard-response","169","122397","0.0-169.0","3NAPMVF0ZX1WSCK9Y1T5NVSD85627Q","ARN8MH7YKZKAZ","3I7KR83SNAZT1REYB2SRC49PCEEK9H","","null","<img src=""img/land3.png"" style=""width:200px; border:14px solid green;"">","null","","","","","","","","","",""
"","image-keyboard-response","170","122784","0.0-170.0","3NAPMVF0ZX1WSCK9Y1T5NVSD85627Q","ARN8MH7YKZKAZ","3I7KR83SNAZT1REYB2SRC49PCEEK9H","","384.90000009536743","img/land3.png","76","386.2999999523163","3","0","3","1","0.8,0.2,0.2,0.2,0.8,0.2,0.2,0.2,0.8","0.8,0.2,0.2,0.2,0.8,0.2,0.2,0.2,0.8","1","",""
"","html-keyboard-response","171","123085","0.0-171.0","3NAPMVF0ZX1WSCK9Y1T5NVSD85627Q","ARN8MH7YKZKAZ","3I7KR83SNAZT1REYB2SRC49PCEEK9H","","null","<img src=""img/land3.png"" style=""width:200px;border:14px solid red;"">","null","","","","","","","","","",""
"","image-keyboard-response","172","123743","0.0-172.0","3NAPMVF0ZX1WSCK9Y1T5NVSD85627Q","ARN8MH7YKZKAZ","3I7KR83SNAZT1REYB2SRC49PCEEK9H","","656.5","img/land5.png","74","657.5","1","1","1","1","0.8,0.2,0.2,0.2,0.8,0.2,0.2,0.2,0.8","0.8,0.2,0.2,0.2,0.8,0.2,0.2,0.2,0.8","1","",""
"","html-keyboard-response","173","124045","0.0-173.0","3NAPMVF0ZX1WSCK9Y1T5NVSD85627Q","ARN8MH7YKZKAZ","3I7KR83SNAZT1REYB2SRC49PCEEK9H","","null","<img src=""img/land5.png"" style=""width:200px; border:14px solid green;"">","null","","","","","","","","","",""
"","image-keyboard-response","174","124624","0.0-174.0","3NAPMVF0ZX1WSCK9Y1T5NVSD85627Q","ARN8MH7YKZKAZ","3I7KR83SNAZT1REYB2SRC49PCEEK9H","","576.9000000953674","img/land2.png","75","578.0999999046326","2","1","2","1","0.8,0.2,0.2,0.2,0.8,0.2,0.2,0.2,0.8","0.8,0.2,0.2,0.2,0.8,0.2,0.2,0.2,0.8","1","",""
"","html-keyboard-response","175","124939","0.0-175.0","3NAPMVF0ZX1WSCK9Y1T5NVSD85627Q","ARN8MH7YKZKAZ","3I7KR83SNAZT1REYB2SRC49PCEEK9H","","null","<img src=""img/land2.png"" style=""width:200px; border:14px solid green;"">","null","","","","","","","","","",""
"","image-keyboard-response","176","125648","0.0-176.0","3NAPMVF0ZX1WSCK9Y1T5NVSD85627Q","ARN8MH7YKZKAZ","3I7KR83SNAZT1REYB2SRC49PCEEK9H","","707.2000000476837","img/land3.png","76","708.5","3","1","3","1","0.8,0.2,0.2,0.2,0.8,0.2,0.2,0.2,0.8","0.8,0.2,0.2,0.2,0.8,0.2,0.2,0.2,0.8","1","",""
"","html-keyboard-response","177","125950","0.0-177.0","3NAPMVF0ZX1WSCK9Y1T5NVSD85627Q","ARN8MH7YKZKAZ","3I7KR83SNAZT1REYB2SRC49PCEEK9H","","null","<img src=""img/land3.png"" style=""width:200px; border:14px solid green;"">","null","","","","","","","","","",""
"","image-keyboard-response","178","126504","0.0-178.0","3NAPMVF0ZX1WSCK9Y1T5NVSD85627Q","ARN8MH7YKZKAZ","3I7KR83SNAZT1REYB2SRC49PCEEK9H","","552.6000001430511","img/land5.png","74","553.7999999523163","1","0","1","1","0.8,0.2,0.2,0.2,0.8,0.2,0.2,0.2,0.8","0.8,0.2,0.2,0.2,0.8,0.2,0.2,0.2,0.8","1","",""
"","html-keyboard-response","179","126807","0.0-179.0","3NAPMVF0ZX1WSCK9Y1T5NVSD85627Q","ARN8MH7YKZKAZ","3I7KR83SNAZT1REYB2SRC49PCEEK9H","","null","<img src=""img/land5.png"" style=""width:200px;border:14px solid red;"">","null","","","","","","","","","",""
"","image-keyboard-response","180","127664","0.0-180.0","3NAPMVF0ZX1WSCK9Y1T5NVSD85627Q","ARN8MH7YKZKAZ","3I7KR83SNAZT1REYB2SRC49PCEEK9H","","855.4000000953674","img/land3.png","76","856.8000001907349","3","0","3","1","0.8,0.2,0.2,0.2,0.8,0.2,0.2,0.2,0.8","0.8,0.2,0.2,0.2,0.8,0.2,0.2,0.2,0.8","1","",""
"","html-keyboard-response","181","127966","0.0-181.0","3NAPMVF0ZX1WSCK9Y1T5NVSD85627Q","ARN8MH7YKZKAZ","3I7KR83SNAZT1REYB2SRC49PCEEK9H","","null","<img src=""img/land3.png"" style=""width:200px;border:14px solid red;"">","null","","","","","","","","","",""
"","html-keyboard-response","182","182531","0.0-182.0","3NAPMVF0ZX1WSCK9Y1T5NVSD85627Q","ARN8MH7YKZKAZ","3I7KR83SNAZT1REYB2SRC49PCEEK9H","","","","","","","","","","","","","",""
"","image-keyboard-response","183","184455","0.0-183.0","3NAPMVF0ZX1WSCK9Y1T5NVSD85627Q","ARN8MH7YKZKAZ","3I7KR83SNAZT1REYB2SRC49PCEEK9H","","1923.2000000476837","img/land4.png","74","1924.5","1","0","1","2","0.8,0.2,0.2,0.2,0.8,0.2,0.2,0.2,0.8","0.2,0.2,0.8,0.8,0.2,0.2,0.2,0.8,0.2","2","",""
"","html-keyboard-response","184","184759","0.0-184.0","3NAPMVF0ZX1WSCK9Y1T5NVSD85627Q","ARN8MH7YKZKAZ","3I7KR83SNAZT1REYB2SRC49PCEEK9H","","null","<img src=""img/land4.png"" style=""width:200px;border:14px solid red;"">","null","","","","","","","","","",""
"","image-keyboard-response","185","185111","0.0-185.0","3NAPMVF0ZX1WSCK9Y1T5NVSD85627Q","ARN8MH7YKZKAZ","3I7KR83SNAZT1REYB2SRC49PCEEK9H","","350.7000000476837","img/land4.png","74","352.2000000476837","1","0","1","2","0.8,0.2,0.2,0.2,0.8,0.2,0.2,0.2,0.8","0.2,0.2,0.8,0.8,0.2,0.2,0.2,0.8,0.2","2","",""
"","html-keyboard-response","186","185413","0.0-186.0","3NAPMVF0ZX1WSCK9Y1T5NVSD85627Q","ARN8MH7YKZKAZ","3I7KR83SNAZT1REYB2SRC49PCEEK9H","","null","<img src=""img/land4.png"" style=""width:200px;border:14px solid red;"">","null","","","","","","","","","",""
"","image-keyboard-response","187","187247","0.0-187.0","3NAPMVF0ZX1WSCK9Y1T5NVSD85627Q","ARN8MH7YKZKAZ","3I7KR83SNAZT1REYB2SRC49PCEEK9H","","1832.2000000476837","img/land6.png","75","1833.4000000953674","2","1","3","2","0.8,0.2,0.2,0.2,0.8,0.2,0.2,0.2,0.8","0.2,0.2,0.8,0.8,0.2,0.2,0.2,0.8,0.2","2","",""
"","html-keyboard-response","188","187549","0.0-188.0","3NAPMVF0ZX1WSCK9Y1T5NVSD85627Q","ARN8MH7YKZKAZ","3I7KR83SNAZT1REYB2SRC49PCEEK9H","","null","<img src=""img/land6.png"" style=""width:200px; border:14px solid green;"">","null","","","","","","","","","",""
"","image-keyboard-response","189","187839","0.0-189.0","3NAPMVF0ZX1WSCK9Y1T5NVSD85627Q","ARN8MH7YKZKAZ","3I7KR83SNAZT1REYB2SRC49PCEEK9H","","288.40000009536743","img/land4.png","75","289.7999999523163","2","0","1","2","0.8,0.2,0.2,0.2,0.8,0.2,0.2,0.2,0.8","0.2,0.2,0.8,0.8,0.2,0.2,0.2,0.8,0.2","2","",""
"","html-keyboard-response","190","188141","0.0-190.0","3NAPMVF0ZX1WSCK9Y1T5NVSD85627Q","ARN8MH7YKZKAZ","3I7KR83SNAZT1REYB2SRC49PCEEK9H","","null","<img src=""img/land4.png"" style=""width:200px;border:14px solid red;"">","null","","","","","","","","","",""
"","image-keyboard-response","191","188655","0.0-191.0","3NAPMVF0ZX1WSCK9Y1T5NVSD85627Q","ARN8MH7YKZKAZ","3I7KR83SNAZT1REYB2SRC49PCEEK9H","","512.6000001430511","img/land4.png","74","513.8999998569489","1","0","1","2","0.8,0.2,0.2,0.2,0.8,0.2,0.2,0.2,0.8","0.2,0.2,0.8,0.8,0.2,0.2,0.2,0.8,0.2","2","",""
"","html-keyboard-response","192","188957","0.0-192.0","3NAPMVF0ZX1WSCK9Y1T5NVSD85627Q","ARN8MH7YKZKAZ","3I7KR83SNAZT1REYB2SRC49PCEEK9H","","null","<img src=""img/land4.png"" style=""width:200px;border:14px solid red;"">","null","","","","","","","","","",""
"","image-keyboard-response","193","189287","0.0-193.0","3NAPMVF0ZX1WSCK9Y1T5NVSD85627Q","ARN8MH7YKZKAZ","3I7KR83SNAZT1REYB2SRC49PCEEK9H","","328.2999999523163","img/land4.png","76","329.59999990463257","3","1","1","2","0.8,0.2,0.2,0.2,0.8,0.2,0.2,0.2,0.8","0.2,0.2,0.8,0.8,0.2,0.2,0.2,0.8,0.2","2","",""
"","html-keyboard-response","194","189589","0.0-194.0","3NAPMVF0ZX1WSCK9Y1T5NVSD85627Q","ARN8MH7YKZKAZ","3I7KR83SNAZT1REYB2SRC49PCEEK9H","","null","<img src=""img/land4.png"" style=""width:200px; border:14px solid green;"">","null","","","","","","","","","",""
"","image-keyboard-response","195","190335","0.0-195.0","3NAPMVF0ZX1WSCK9Y1T5NVSD85627Q","ARN8MH7YKZKAZ","3I7KR83SNAZT1REYB2SRC49PCEEK9H","","744.7000000476837","img/land6.png","75","745.8999998569489","2","1","3","2","0.8,0.2,0.2,0.2,0.8,0.2,0.2,0.2,0.8","0.2,0.2,0.8,0.8,0.2,0.2,0.2,0.8,0.2","2","",""
"","html-keyboard-response","196","190637","0.0-196.0","3NAPMVF0ZX1WSCK9Y1T5NVSD85627Q","ARN8MH7YKZKAZ","3I7KR83SNAZT1REYB2SRC49PCEEK9H","","null","<img src=""img/land6.png"" style=""width:200px; border:14px solid green;"">","null","","","","","","","","","",""
"","image-keyboard-response","197","191383","0.0-197.0","3NAPMVF0ZX1WSCK9Y1T5NVSD85627Q","ARN8MH7YKZKAZ","3I7KR83SNAZT1REYB2SRC49PCEEK9H","","744.6999998092651","img/land4.png","76","746","3","1","1","2","0.8,0.2,0.2,0.2,0.8,0.2,0.2,0.2,0.8","0.2,0.2,0.8,0.8,0.2,0.2,0.2,0.8,0.2","2","",""
"","html-keyboard-response","198","191685","0.0-198.0","3NAPMVF0ZX1WSCK9Y1T5NVSD85627Q","ARN8MH7YKZKAZ","3I7KR83SNAZT1REYB2SRC49PCEEK9H","","null","<img src=""img/land4.png"" style=""width:200px; border:14px solid green;"">","null","","","","","","","","","",""
"","image-keyboard-response","199","192111","0.0-199.0","3NAPMVF0ZX1WSCK9Y1T5NVSD85627Q","ARN8MH7YKZKAZ","3I7KR83SNAZT1REYB2SRC49PCEEK9H","","424.10000014305115","img/land4.png","76","425.39999985694885","3","1","1","2","0.8,0.2,0.2,0.2,0.8,0.2,0.2,0.2,0.8","0.2,0.2,0.8,0.8,0.2,0.2,0.2,0.8,0.2","2","",""
"","html-keyboard-response","200","192413","0.0-200.0","3NAPMVF0ZX1WSCK9Y1T5NVSD85627Q","ARN8MH7YKZKAZ","3I7KR83SNAZT1REYB2SRC49PCEEK9H","","null","<img src=""img/land4.png"" style=""width:200px; border:14px solid green;"">","null","","","","","","","","","",""
"","image-keyboard-response","201","192983","0.0-201.0","3NAPMVF0ZX1WSCK9Y1T5NVSD85627Q","ARN8MH7YKZKAZ","3I7KR83SNAZT1REYB2SRC49PCEEK9H","","569","img/land6.png","75","570.2999999523163","2","1","3","2","0.8,0.2,0.2,0.2,0.8,0.2,0.2,0.2,0.8","0.2,0.2,0.8,0.8,0.2,0.2,0.2,0.8,0.2","2","",""
"","html-keyboard-response","202","193285","0.0-202.0","3NAPMVF0ZX1WSCK9Y1T5NVSD85627Q","ARN8MH7YKZKAZ","3I7KR83SNAZT1REYB2SRC49PCEEK9H","","null","<img src=""img/land6.png"" style=""width:200px; border:14px solid green;"">","null","","","","","","","","","",""
"","image-keyboard-response","203","193959","0.0-203.0","3NAPMVF0ZX1WSCK9Y1T5NVSD85627Q","ARN8MH7YKZKAZ","3I7KR83SNAZT1REYB2SRC49PCEEK9H","","672.3999998569489","img/land4.png","76","673.7000000476837","3","1","1","2","0.8,0.2,0.2,0.2,0.8,0.2,0.2,0.2,0.8","0.2,0.2,0.8,0.8,0.2,0.2,0.2,0.8,0.2","2","",""
"","html-keyboard-response","204","194262","0.0-204.0","3NAPMVF0ZX1WSCK9Y1T5NVSD85627Q","ARN8MH7YKZKAZ","3I7KR83SNAZT1REYB2SRC49PCEEK9H","","null","<img src=""img/land4.png"" style=""width:200px; border:14px solid green;"">","null","","","","","","","","","",""
"","image-keyboard-response","205","194798","0.0-205.0","3NAPMVF0ZX1WSCK9Y1T5NVSD85627Q","ARN8MH7YKZKAZ","3I7KR83SNAZT1REYB2SRC49PCEEK9H","","535.5","img/land4.png","76","536.3999998569489","3","0","1","2","0.8,0.2,0.2,0.2,0.8,0.2,0.2,0.2,0.8","0.2,0.2,0.8,0.8,0.2,0.2,0.2,0.8,0.2","2","",""
"","html-keyboard-response","206","195100","0.0-206.0","3NAPMVF0ZX1WSCK9Y1T5NVSD85627Q","ARN8MH7YKZKAZ","3I7KR83SNAZT1REYB2SRC49PCEEK9H","","null","<img src=""img/land4.png"" style=""width:200px;border:14px solid red;"">","null","","","","","","","","","",""
"","image-keyboard-response","207","195783","0.0-207.0","3NAPMVF0ZX1WSCK9Y1T5NVSD85627Q","ARN8MH7YKZKAZ","3I7KR83SNAZT1REYB2SRC49PCEEK9H","","681.1999998092651","img/land4.png","76","682.7999999523163","3","1","1","2","0.8,0.2,0.2,0.2,0.8,0.2,0.2,0.2,0.8","0.2,0.2,0.8,0.8,0.2,0.2,0.2,0.8,0.2","2","",""
"","html-keyboard-response","208","196085","0.0-208.0","3NAPMVF0ZX1WSCK9Y1T5NVSD85627Q","ARN8MH7YKZKAZ","3I7KR83SNAZT1REYB2SRC49PCEEK9H","","null","<img src=""img/land4.png"" style=""width:200px; border:14px solid green;"">","null","","","","","","","","","",""
"","image-keyboard-response","209","196911","0.0-209.0","3NAPMVF0ZX1WSCK9Y1T5NVSD85627Q","ARN8MH7YKZKAZ","3I7KR83SNAZT1REYB2SRC49PCEEK9H","","823.6999998092651","img/land1.png","74","825.2000000476837","1","1","2","2","0.8,0.2,0.2,0.2,0.8,0.2,0.2,0.2,0.8","0.2,0.2,0.8,0.8,0.2,0.2,0.2,0.8,0.2","2","",""
"","html-keyboard-response","210","197213","0.0-210.0","3NAPMVF0ZX1WSCK9Y1T5NVSD85627Q","ARN8MH7YKZKAZ","3I7KR83SNAZT1REYB2SRC49PCEEK9H","","null","<img src=""img/land1.png"" style=""width:200px; border:14px solid green;"">","null","","","","","","","","","",""
"","image-keyboard-response","211","198407","0.0-211.0","3NAPMVF0ZX1WSCK9Y1T5NVSD85627Q","ARN8MH7YKZKAZ","3I7KR83SNAZT1REYB2SRC49PCEEK9H","","1192.6000001430511","img/land6.png","75","1194","2","1","3","2","0.8,0.2,0.2,0.2,0.8,0.2,0.2,0.2,0.8","0.2,0.2,0.8,0.8,0.2,0.2,0.2,0.8,0.2","2","",""
"","html-keyboard-response","212","198709","0.0-212.0","3NAPMVF0ZX1WSCK9Y1T5NVSD85627Q","ARN8MH7YKZKAZ","3I7KR83SNAZT1REYB2SRC49PCEEK9H","","null","<img src=""img/land6.png"" style=""width:200px; border:14px solid green;"">","null","","","","","","","","","",""
"","image-keyboard-response","213","200415","0.0-213.0","3NAPMVF0ZX1WSCK9Y1T5NVSD85627Q","ARN8MH7YKZKAZ","3I7KR83SNAZT1REYB2SRC49PCEEK9H","","1704.5","img/land4.png","76","1705.7999999523163","3","0","1","2","0.8,0.2,0.2,0.2,0.8,0.2,0.2,0.2,0.8","0.2,0.2,0.8,0.8,0.2,0.2,0.2,0.8,0.2","2","",""
"","html-keyboard-response","214","200716","0.0-214.0","3NAPMVF0ZX1WSCK9Y1T5NVSD85627Q","ARN8MH7YKZKAZ","3I7KR83SNAZT1REYB2SRC49PCEEK9H","","null","<img src=""img/land4.png"" style=""width:200px;border:14px solid red;"">","null","","","","","","","","","",""
"","image-keyboard-response","215","200911","0.0-215.0","3NAPMVF0ZX1WSCK9Y1T5NVSD85627Q","ARN8MH7YKZKAZ","3I7KR83SNAZT1REYB2SRC49PCEEK9H","","192.70000004768372","img/land4.png","75","194.09999990463257","2","1","1","2","0.8,0.2,0.2,0.2,0.8,0.2,0.2,0.2,0.8","0.2,0.2,0.8,0.8,0.2,0.2,0.2,0.8,0.2","2","",""
"","html-keyboard-response","216","201213","0.0-216.0","3NAPMVF0ZX1WSCK9Y1T5NVSD85627Q","ARN8MH7YKZKAZ","3I7KR83SNAZT1REYB2SRC49PCEEK9H","","null","<img src=""img/land4.png"" style=""width:200px; border:14px solid green;"">","null","","","","","","","","","",""
"","image-keyboard-response","217","201567","0.0-217.0","3NAPMVF0ZX1WSCK9Y1T5NVSD85627Q","ARN8MH7YKZKAZ","3I7KR83SNAZT1REYB2SRC49PCEEK9H","","352.5","img/land4.png","75","353.7999999523163","2","1","1","2","0.8,0.2,0.2,0.2,0.8,0.2,0.2,0.2,0.8","0.2,0.2,0.8,0.8,0.2,0.2,0.2,0.8,0.2","2","",""
"","html-keyboard-response","218","201869","0.0-218.0","3NAPMVF0ZX1WSCK9Y1T5NVSD85627Q","ARN8MH7YKZKAZ","3I7KR83SNAZT1REYB2SRC49PCEEK9H","","null","<img src=""img/land4.png"" style=""width:200px; border:14px solid green;"">","null","","","","","","","","","",""
"","image-keyboard-response","219","202551","0.0-219.0","3NAPMVF0ZX1WSCK9Y1T5NVSD85627Q","ARN8MH7YKZKAZ","3I7KR83SNAZT1REYB2SRC49PCEEK9H","","680.3999998569489","img/land1.png","74","681.5999999046326","1","1","2","2","0.8,0.2,0.2,0.2,0.8,0.2,0.2,0.2,0.8","0.2,0.2,0.8,0.8,0.2,0.2,0.2,0.8,0.2","2","",""
"","html-keyboard-response","220","202853","0.0-220.0","3NAPMVF0ZX1WSCK9Y1T5NVSD85627Q","ARN8MH7YKZKAZ","3I7KR83SNAZT1REYB2SRC49PCEEK9H","","null","<img src=""img/land1.png"" style=""width:200px; border:14px solid green;"">","null","","","","","","","","","",""
"","image-keyboard-response","221","204119","0.0-221.0","3NAPMVF0ZX1WSCK9Y1T5NVSD85627Q","ARN8MH7YKZKAZ","3I7KR83SNAZT1REYB2SRC49PCEEK9H","","1264.8000001907349","img/land6.png","75","1266.2000000476837","2","1","3","2","0.8,0.2,0.2,0.2,0.8,0.2,0.2,0.2,0.8","0.2,0.2,0.8,0.8,0.2,0.2,0.2,0.8,0.2","2","",""
"","html-keyboard-response","222","204422","0.0-222.0","3NAPMVF0ZX1WSCK9Y1T5NVSD85627Q","ARN8MH7YKZKAZ","3I7KR83SNAZT1REYB2SRC49PCEEK9H","","null","<img src=""img/land6.png"" style=""width:200px; border:14px solid green;"">","null","","","","","","","","","",""
"","image-keyboard-response","223","206239","0.0-223.0","3NAPMVF0ZX1WSCK9Y1T5NVSD85627Q","ARN8MH7YKZKAZ","3I7KR83SNAZT1REYB2SRC49PCEEK9H","","1816.1000001430511","img/land4.png","75","1817.2000000476837","2","0","1","2","0.8,0.2,0.2,0.2,0.8,0.2,0.2,0.2,0.8","0.2,0.2,0.8,0.8,0.2,0.2,0.2,0.8,0.2","2","",""
"","html-keyboard-response","224","206541","0.0-224.0","3NAPMVF0ZX1WSCK9Y1T5NVSD85627Q","ARN8MH7YKZKAZ","3I7KR83SNAZT1REYB2SRC49PCEEK9H","","null","<img src=""img/land4.png"" style=""width:200px;border:14px solid red;"">","null","","","","","","","","","",""
"","image-keyboard-response","225","206815","0.0-225.0","3NAPMVF0ZX1WSCK9Y1T5NVSD85627Q","ARN8MH7YKZKAZ","3I7KR83SNAZT1REYB2SRC49PCEEK9H","","271.7000000476837","img/land4.png","75","273","2","0","1","2","0.8,0.2,0.2,0.2,0.8,0.2,0.2,0.2,0.8","0.2,0.2,0.8,0.8,0.2,0.2,0.2,0.8,0.2","2","",""
"","html-keyboard-response","226","207117","0.0-226.0","3NAPMVF0ZX1WSCK9Y1T5NVSD85627Q","ARN8MH7YKZKAZ","3I7KR83SNAZT1REYB2SRC49PCEEK9H","","null","<img src=""img/land4.png"" style=""width:200px;border:14px solid red;"">","null","","","","","","","","","",""
"","image-keyboard-response","227","208039","0.0-227.0","3NAPMVF0ZX1WSCK9Y1T5NVSD85627Q","ARN8MH7YKZKAZ","3I7KR83SNAZT1REYB2SRC49PCEEK9H","","919.9000000953674","img/land6.png","75","921.3000001907349","2","1","3","2","0.8,0.2,0.2,0.2,0.8,0.2,0.2,0.2,0.8","0.2,0.2,0.8,0.8,0.2,0.2,0.2,0.8,0.2","2","",""
"","html-keyboard-response","228","208340","0.0-228.0","3NAPMVF0ZX1WSCK9Y1T5NVSD85627Q","ARN8MH7YKZKAZ","3I7KR83SNAZT1REYB2SRC49PCEEK9H","","null","<img src=""img/land6.png"" style=""width:200px; border:14px solid green;"">","null","","","","","","","","","",""
"","image-keyboard-response","229","208983","0.0-229.0","3NAPMVF0ZX1WSCK9Y1T5NVSD85627Q","ARN8MH7YKZKAZ","3I7KR83SNAZT1REYB2SRC49PCEEK9H","","640.8999998569489","img/land4.png","76","642.1000001430511","3","0","1","2","0.8,0.2,0.2,0.2,0.8,0.2,0.2,0.2,0.8","0.2,0.2,0.8,0.8,0.2,0.2,0.2,0.8,0.2","2","",""
"","html-keyboard-response","230","209285","0.0-230.0","3NAPMVF0ZX1WSCK9Y1T5NVSD85627Q","ARN8MH7YKZKAZ","3I7KR83SNAZT1REYB2SRC49PCEEK9H","","null","<img src=""img/land4.png"" style=""width:200px;border:14px solid red;"">","null","","","","","","","","","",""
"","image-keyboard-response","231","209999","0.0-231.0","3NAPMVF0ZX1WSCK9Y1T5NVSD85627Q","ARN8MH7YKZKAZ","3I7KR83SNAZT1REYB2SRC49PCEEK9H","","712.5999999046326","img/land1.png","74","713.8999998569489","1","1","2","2","0.8,0.2,0.2,0.2,0.8,0.2,0.2,0.2,0.8","0.2,0.2,0.8,0.8,0.2,0.2,0.2,0.8,0.2","2","",""
"","html-keyboard-response","232","210300","0.0-232.0","3NAPMVF0ZX1WSCK9Y1T5NVSD85627Q","ARN8MH7YKZKAZ","3I7KR83SNAZT1REYB2SRC49PCEEK9H","","null","<img src=""img/land1.png"" style=""width:200px; border:14px solid green;"">","null","","","","","","","","","",""
"","image-keyboard-response","233","211031","0.0-233.0","3NAPMVF0ZX1WSCK9Y1T5NVSD85627Q","ARN8MH7YKZKAZ","3I7KR83SNAZT1REYB2SRC49PCEEK9H","","728.7000000476837","img/land4.png","76","730.0999999046326","3","1","1","2","0.8,0.2,0.2,0.2,0.8,0.2,0.2,0.2,0.8","0.2,0.2,0.8,0.8,0.2,0.2,0.2,0.8,0.2","2","",""
"","html-keyboard-response","234","211333","0.0-234.0","3NAPMVF0ZX1WSCK9Y1T5NVSD85627Q","ARN8MH7YKZKAZ","3I7KR83SNAZT1REYB2SRC49PCEEK9H","","null","<img src=""img/land4.png"" style=""width:200px; border:14px solid green;"">","null","","","","","","","","","",""
"","image-keyboard-response","235","211935","0.0-235.0","3NAPMVF0ZX1WSCK9Y1T5NVSD85627Q","ARN8MH7YKZKAZ","3I7KR83SNAZT1REYB2SRC49PCEEK9H","","600.3000001907349","img/land6.png","75","601.7000000476837","2","1","3","2","0.8,0.2,0.2,0.2,0.8,0.2,0.2,0.2,0.8","0.2,0.2,0.8,0.8,0.2,0.2,0.2,0.8,0.2","2","",""
"","html-keyboard-response","236","212236","0.0-236.0","3NAPMVF0ZX1WSCK9Y1T5NVSD85627Q","ARN8MH7YKZKAZ","3I7KR83SNAZT1REYB2SRC49PCEEK9H","","null","<img src=""img/land6.png"" style=""width:200px; border:14px solid green;"">","null","","","","","","","","","",""
"","image-keyboard-response","237","212871","0.0-237.0","3NAPMVF0ZX1WSCK9Y1T5NVSD85627Q","ARN8MH7YKZKAZ","3I7KR83SNAZT1REYB2SRC49PCEEK9H","","632.7999999523163","img/land4.png","76","634","3","1","1","2","0.8,0.2,0.2,0.2,0.8,0.2,0.2,0.2,0.8","0.2,0.2,0.8,0.8,0.2,0.2,0.2,0.8,0.2","2","",""
"","html-keyboard-response","238","213173","0.0-238.0","3NAPMVF0ZX1WSCK9Y1T5NVSD85627Q","ARN8MH7YKZKAZ","3I7KR83SNAZT1REYB2SRC49PCEEK9H","","null","<img src=""img/land4.png"" style=""width:200px; border:14px solid green;"">","null","","","","","","","","","",""
"","image-keyboard-response","239","213583","0.0-239.0","3NAPMVF0ZX1WSCK9Y1T5NVSD85627Q","ARN8MH7YKZKAZ","3I7KR83SNAZT1REYB2SRC49PCEEK9H","","408.2999999523163","img/land4.png","76","409.7000000476837","3","1","1","2","0.8,0.2,0.2,0.2,0.8,0.2,0.2,0.2,0.8","0.2,0.2,0.8,0.8,0.2,0.2,0.2,0.8,0.2","2","",""
"","html-keyboard-response","240","213884","0.0-240.0","3NAPMVF0ZX1WSCK9Y1T5NVSD85627Q","ARN8MH7YKZKAZ","3I7KR83SNAZT1REYB2SRC49PCEEK9H","","null","<img src=""img/land4.png"" style=""width:200px; border:14px solid green;"">","null","","","","","","","","","",""
"","image-keyboard-response","241","214271","0.0-241.0","3NAPMVF0ZX1WSCK9Y1T5NVSD85627Q","ARN8MH7YKZKAZ","3I7KR83SNAZT1REYB2SRC49PCEEK9H","","385.09999990463257","img/land4.png","76","386.2999999523163","3","1","1","2","0.8,0.2,0.2,0.2,0.8,0.2,0.2,0.2,0.8","0.2,0.2,0.8,0.8,0.2,0.2,0.2,0.8,0.2","2","",""
"","html-keyboard-response","242","214574","0.0-242.0","3NAPMVF0ZX1WSCK9Y1T5NVSD85627Q","ARN8MH7YKZKAZ","3I7KR83SNAZT1REYB2SRC49PCEEK9H","","null","<img src=""img/land4.png"" style=""width:200px; border:14px solid green;"">","null","","","","","","","","","",""
"","image-keyboard-response","243","215127","0.0-243.0","3NAPMVF0ZX1WSCK9Y1T5NVSD85627Q","ARN8MH7YKZKAZ","3I7KR83SNAZT1REYB2SRC49PCEEK9H","","550.6000001430511","img/land6.png","75","552","2","1","3","2","0.8,0.2,0.2,0.2,0.8,0.2,0.2,0.2,0.8","0.2,0.2,0.8,0.8,0.2,0.2,0.2,0.8,0.2","2","",""
"","html-keyboard-response","244","215429","0.0-244.0","3NAPMVF0ZX1WSCK9Y1T5NVSD85627Q","ARN8MH7YKZKAZ","3I7KR83SNAZT1REYB2SRC49PCEEK9H","","null","<img src=""img/land6.png"" style=""width:200px; border:14px solid green;"">","null","","","","","","","","","",""
"","image-keyboard-response","245","215959","0.0-245.0","3NAPMVF0ZX1WSCK9Y1T5NVSD85627Q","ARN8MH7YKZKAZ","3I7KR83SNAZT1REYB2SRC49PCEEK9H","","528.7000000476837","img/land1.png","74","530","1","0","2","2","0.8,0.2,0.2,0.2,0.8,0.2,0.2,0.2,0.8","0.2,0.2,0.8,0.8,0.2,0.2,0.2,0.8,0.2","2","",""
"","html-keyboard-response","246","216261","0.0-246.0","3NAPMVF0ZX1WSCK9Y1T5NVSD85627Q","ARN8MH7YKZKAZ","3I7KR83SNAZT1REYB2SRC49PCEEK9H","","null","<img src=""img/land1.png"" style=""width:200px;border:14px solid red;"">","null","","","","","","","","","",""
"","image-keyboard-response","247","216631","0.0-247.0","3NAPMVF0ZX1WSCK9Y1T5NVSD85627Q","ARN8MH7YKZKAZ","3I7KR83SNAZT1REYB2SRC49PCEEK9H","","368.5","img/land1.png","74","369.7000000476837","1","0","2","2","0.8,0.2,0.2,0.2,0.8,0.2,0.2,0.2,0.8","0.2,0.2,0.8,0.8,0.2,0.2,0.2,0.8,0.2","2","",""
"","html-keyboard-response","248","216933","0.0-248.0","3NAPMVF0ZX1WSCK9Y1T5NVSD85627Q","ARN8MH7YKZKAZ","3I7KR83SNAZT1REYB2SRC49PCEEK9H","","null","<img src=""img/land1.png"" style=""width:200px;border:14px solid red;"">","null","","","","","","","","","",""
"","image-keyboard-response","249","217743","0.0-249.0","3NAPMVF0ZX1WSCK9Y1T5NVSD85627Q","ARN8MH7YKZKAZ","3I7KR83SNAZT1REYB2SRC49PCEEK9H","","808.2000000476837","img/land4.png","75","809.5","2","0","1","2","0.8,0.2,0.2,0.2,0.8,0.2,0.2,0.2,0.8","0.2,0.2,0.8,0.8,0.2,0.2,0.2,0.8,0.2","2","",""
"","html-keyboard-response","250","218044","0.0-250.0","3NAPMVF0ZX1WSCK9Y1T5NVSD85627Q","ARN8MH7YKZKAZ","3I7KR83SNAZT1REYB2SRC49PCEEK9H","","null","<img src=""img/land4.png"" style=""width:200px;border:14px solid red;"">","null","","","","","","","","","",""
"","image-keyboard-response","251","218919","0.0-251.0","3NAPMVF0ZX1WSCK9Y1T5NVSD85627Q","ARN8MH7YKZKAZ","3I7KR83SNAZT1REYB2SRC49PCEEK9H","","872.7000000476837","img/land4.png","75","874","2","0","1","2","0.8,0.2,0.2,0.2,0.8,0.2,0.2,0.2,0.8","0.2,0.2,0.8,0.8,0.2,0.2,0.2,0.8,0.2","2","",""
"","html-keyboard-response","252","219221","0.0-252.0","3NAPMVF0ZX1WSCK9Y1T5NVSD85627Q","ARN8MH7YKZKAZ","3I7KR83SNAZT1REYB2SRC49PCEEK9H","","null","<img src=""img/land4.png"" style=""width:200px;border:14px solid red;"">","null","","","","","","","","","",""
"","image-keyboard-response","253","219927","0.0-253.0","3NAPMVF0ZX1WSCK9Y1T5NVSD85627Q","ARN8MH7YKZKAZ","3I7KR83SNAZT1REYB2SRC49PCEEK9H","","703.9000000953674","img/land1.png","74","705.0999999046326","1","1","2","2","0.8,0.2,0.2,0.2,0.8,0.2,0.2,0.2,0.8","0.2,0.2,0.8,0.8,0.2,0.2,0.2,0.8,0.2","2","",""
"","html-keyboard-response","254","220229","0.0-254.0","3NAPMVF0ZX1WSCK9Y1T5NVSD85627Q","ARN8MH7YKZKAZ","3I7KR83SNAZT1REYB2SRC49PCEEK9H","","null","<img src=""img/land1.png"" style=""width:200px; border:14px solid green;"">","null","","","","","","","","","",""
"","image-keyboard-response","255","221407","0.0-255.0","3NAPMVF0ZX1WSCK9Y1T5NVSD85627Q","ARN8MH7YKZKAZ","3I7KR83SNAZT1REYB2SRC49PCEEK9H","","1175.8000001907349","img/land4.png","76","1177.1000001430511","3","1","1","2","0.8,0.2,0.2,0.2,0.8,0.2,0.2,0.2,0.8","0.2,0.2,0.8,0.8,0.2,0.2,0.2,0.8,0.2","2","",""
"","html-keyboard-response","256","221709","0.0-256.0","3NAPMVF0ZX1WSCK9Y1T5NVSD85627Q","ARN8MH7YKZKAZ","3I7KR83SNAZT1REYB2SRC49PCEEK9H","","null","<img src=""img/land4.png"" style=""width:200px; border:14px solid green;"">","null","","","","","","","","","",""
"","image-keyboard-response","257","221855","0.0-257.0","3NAPMVF0ZX1WSCK9Y1T5NVSD85627Q","ARN8MH7YKZKAZ","3I7KR83SNAZT1REYB2SRC49PCEEK9H","","143.79999995231628","img/land4.png","76","145.20000004768372","3","1","1","2","0.8,0.2,0.2,0.2,0.8,0.2,0.2,0.2,0.8","0.2,0.2,0.8,0.8,0.2,0.2,0.2,0.8,0.2","2","",""
"","html-keyboard-response","258","222156","0.0-258.0","3NAPMVF0ZX1WSCK9Y1T5NVSD85627Q","ARN8MH7YKZKAZ","3I7KR83SNAZT1REYB2SRC49PCEEK9H","","null","<img src=""img/land4.png"" style=""width:200px; border:14px solid green;"">","null","","","","","","","","","",""
"","image-keyboard-response","259","222502","0.0-259.0","3NAPMVF0ZX1WSCK9Y1T5NVSD85627Q","ARN8MH7YKZKAZ","3I7KR83SNAZT1REYB2SRC49PCEEK9H","","344.90000009536743","img/land4.png","76","346","3","1","1","2","0.8,0.2,0.2,0.2,0.8,0.2,0.2,0.2,0.8","0.2,0.2,0.8,0.8,0.2,0.2,0.2,0.8,0.2","2","",""
"","html-keyboard-response","260","222804","0.0-260.0","3NAPMVF0ZX1WSCK9Y1T5NVSD85627Q","ARN8MH7YKZKAZ","3I7KR83SNAZT1REYB2SRC49PCEEK9H","","null","<img src=""img/land4.png"" style=""width:200px; border:14px solid green;"">","null","","","","","","","","","",""
"","image-keyboard-response","261","223159","0.0-261.0","3NAPMVF0ZX1WSCK9Y1T5NVSD85627Q","ARN8MH7YKZKAZ","3I7KR83SNAZT1REYB2SRC49PCEEK9H","","352.60000014305115","img/land4.png","76","353.90000009536743","3","1","1","2","0.8,0.2,0.2,0.2,0.8,0.2,0.2,0.2,0.8","0.2,0.2,0.8,0.8,0.2,0.2,0.2,0.8,0.2","2","",""
"","html-keyboard-response","262","223461","0.0-262.0","3NAPMVF0ZX1WSCK9Y1T5NVSD85627Q","ARN8MH7YKZKAZ","3I7KR83SNAZT1REYB2SRC49PCEEK9H","","null","<img src=""img/land4.png"" style=""width:200px; border:14px solid green;"">","null","","","","","","","","","",""
"","image-keyboard-response","263","223806","0.0-263.0","3NAPMVF0ZX1WSCK9Y1T5NVSD85627Q","ARN8MH7YKZKAZ","3I7KR83SNAZT1REYB2SRC49PCEEK9H","","344.60000014305115","img/land4.png","76","345.7000000476837","3","0","1","2","0.8,0.2,0.2,0.2,0.8,0.2,0.2,0.2,0.8","0.2,0.2,0.8,0.8,0.2,0.2,0.2,0.8,0.2","2","",""
"","html-keyboard-response","264","224109","0.0-264.0","3NAPMVF0ZX1WSCK9Y1T5NVSD85627Q","ARN8MH7YKZKAZ","3I7KR83SNAZT1REYB2SRC49PCEEK9H","","null","<img src=""img/land4.png"" style=""width:200px;border:14px solid red;"">","null","","","","","","","","","",""
"","image-keyboard-response","265","224631","0.0-265.0","3NAPMVF0ZX1WSCK9Y1T5NVSD85627Q","ARN8MH7YKZKAZ","3I7KR83SNAZT1REYB2SRC49PCEEK9H","","520.5","img/land4.png","76","521.9000000953674","3","1","1","2","0.8,0.2,0.2,0.2,0.8,0.2,0.2,0.2,0.8","0.2,0.2,0.8,0.8,0.2,0.2,0.2,0.8,0.2","2","",""
"","html-keyboard-response","266","224933","0.0-266.0","3NAPMVF0ZX1WSCK9Y1T5NVSD85627Q","ARN8MH7YKZKAZ","3I7KR83SNAZT1REYB2SRC49PCEEK9H","","null","<img src=""img/land4.png"" style=""width:200px; border:14px solid green;"">","null","","","","","","","","","",""
"","image-keyboard-response","267","225695","0.0-267.0","3NAPMVF0ZX1WSCK9Y1T5NVSD85627Q","ARN8MH7YKZKAZ","3I7KR83SNAZT1REYB2SRC49PCEEK9H","","759.7999999523163","img/land1.png","74","761.2000000476837","1","1","2","2","0.8,0.2,0.2,0.2,0.8,0.2,0.2,0.2,0.8","0.2,0.2,0.8,0.8,0.2,0.2,0.2,0.8,0.2","2","",""
"","html-keyboard-response","268","225996","0.0-268.0","3NAPMVF0ZX1WSCK9Y1T5NVSD85627Q","ARN8MH7YKZKAZ","3I7KR83SNAZT1REYB2SRC49PCEEK9H","","null","<img src=""img/land1.png"" style=""width:200px; border:14px solid green;"">","null","","","","","","","","","",""
"","image-keyboard-response","269","226326","0.0-269.0","3NAPMVF0ZX1WSCK9Y1T5NVSD85627Q","ARN8MH7YKZKAZ","3I7KR83SNAZT1REYB2SRC49PCEEK9H","","328.39999985694885","img/land1.png","74","329.7999999523163","1","1","2","2","0.8,0.2,0.2,0.2,0.8,0.2,0.2,0.2,0.8","0.2,0.2,0.8,0.8,0.2,0.2,0.2,0.8,0.2","2","",""
"","html-keyboard-response","270","226629","0.0-270.0","3NAPMVF0ZX1WSCK9Y1T5NVSD85627Q","ARN8MH7YKZKAZ","3I7KR83SNAZT1REYB2SRC49PCEEK9H","","null","<img src=""img/land1.png"" style=""width:200px; border:14px solid green;"">","null","","","","","","","","","",""
"","image-keyboard-response","271","227167","0.0-271.0","3NAPMVF0ZX1WSCK9Y1T5NVSD85627Q","ARN8MH7YKZKAZ","3I7KR83SNAZT1REYB2SRC49PCEEK9H","","536.2000000476837","img/land6.png","75","537.5999999046326","2","1","3","2","0.8,0.2,0.2,0.2,0.8,0.2,0.2,0.2,0.8","0.2,0.2,0.8,0.8,0.2,0.2,0.2,0.8,0.2","2","",""
"","html-keyboard-response","272","227469","0.0-272.0","3NAPMVF0ZX1WSCK9Y1T5NVSD85627Q","ARN8MH7YKZKAZ","3I7KR83SNAZT1REYB2SRC49PCEEK9H","","null","<img src=""img/land6.png"" style=""width:200px; border:14px solid green;"">","null","","","","","","","","","",""
"","image-keyboard-response","273","227758","0.0-273.0","3NAPMVF0ZX1WSCK9Y1T5NVSD85627Q","ARN8MH7YKZKAZ","3I7KR83SNAZT1REYB2SRC49PCEEK9H","","288.09999990463257","img/land4.png","75","289.2999999523163","2","0","1","2","0.8,0.2,0.2,0.2,0.8,0.2,0.2,0.2,0.8","0.2,0.2,0.8,0.8,0.2,0.2,0.2,0.8,0.2","2","",""
"","html-keyboard-response","274","228061","0.0-274.0","3NAPMVF0ZX1WSCK9Y1T5NVSD85627Q","ARN8MH7YKZKAZ","3I7KR83SNAZT1REYB2SRC49PCEEK9H","","null","<img src=""img/land4.png"" style=""width:200px;border:14px solid red;"">","null","","","","","","","","","",""
"","image-keyboard-response","275","228294","0.0-275.0","3NAPMVF0ZX1WSCK9Y1T5NVSD85627Q","ARN8MH7YKZKAZ","3I7KR83SNAZT1REYB2SRC49PCEEK9H","","232.20000004768372","img/land4.png","76","234.39999985694885","3","0","1","2","0.8,0.2,0.2,0.2,0.8,0.2,0.2,0.2,0.8","0.2,0.2,0.8,0.8,0.2,0.2,0.2,0.8,0.2","2","",""
"","html-keyboard-response","276","228597","0.0-276.0","3NAPMVF0ZX1WSCK9Y1T5NVSD85627Q","ARN8MH7YKZKAZ","3I7KR83SNAZT1REYB2SRC49PCEEK9H","","null","<img src=""img/land4.png"" style=""width:200px;border:14px solid red;"">","null","","","","","","","","","",""
"","image-keyboard-response","277","228990","0.0-277.0","3NAPMVF0ZX1WSCK9Y1T5NVSD85627Q","ARN8MH7YKZKAZ","3I7KR83SNAZT1REYB2SRC49PCEEK9H","","391.59999990463257","img/land4.png","76","393","3","1","1","2","0.8,0.2,0.2,0.2,0.8,0.2,0.2,0.2,0.8","0.2,0.2,0.8,0.8,0.2,0.2,0.2,0.8,0.2","2","",""
"","html-keyboard-response","278","229292","0.0-278.0","3NAPMVF0ZX1WSCK9Y1T5NVSD85627Q","ARN8MH7YKZKAZ","3I7KR83SNAZT1REYB2SRC49PCEEK9H","","null","<img src=""img/land4.png"" style=""width:200px; border:14px solid green;"">","null","","","","","","","","","",""
"","image-keyboard-response","279","229950","0.0-279.0","3NAPMVF0ZX1WSCK9Y1T5NVSD85627Q","ARN8MH7YKZKAZ","3I7KR83SNAZT1REYB2SRC49PCEEK9H","","656.7999999523163","img/land1.png","74","658.1000001430511","1","1","2","2","0.8,0.2,0.2,0.2,0.8,0.2,0.2,0.2,0.8","0.2,0.2,0.8,0.8,0.2,0.2,0.2,0.8,0.2","2","",""
"","html-keyboard-response","280","230252","0.0-280.0","3NAPMVF0ZX1WSCK9Y1T5NVSD85627Q","ARN8MH7YKZKAZ","3I7KR83SNAZT1REYB2SRC49PCEEK9H","","null","<img src=""img/land1.png"" style=""width:200px; border:14px solid green;"">","null","","","","","","","","","",""
"","image-keyboard-response","281","230671","0.0-281.0","3NAPMVF0ZX1WSCK9Y1T5NVSD85627Q","ARN8MH7YKZKAZ","3I7KR83SNAZT1REYB2SRC49PCEEK9H","","416.5","img/land1.png","74","418","1","1","2","2","0.8,0.2,0.2,0.2,0.8,0.2,0.2,0.2,0.8","0.2,0.2,0.8,0.8,0.2,0.2,0.2,0.8,0.2","2","",""
"","html-keyboard-response","282","230973","0.0-282.0","3NAPMVF0ZX1WSCK9Y1T5NVSD85627Q","ARN8MH7YKZKAZ","3I7KR83SNAZT1REYB2SRC49PCEEK9H","","null","<img src=""img/land1.png"" style=""width:200px; border:14px solid green;"">","null","","","","","","","","","",""
"","image-keyboard-response","283","231462","0.0-283.0","3NAPMVF0ZX1WSCK9Y1T5NVSD85627Q","ARN8MH7YKZKAZ","3I7KR83SNAZT1REYB2SRC49PCEEK9H","","488.59999990463257","img/land4.png","76","489.60000014305115","3","1","1","2","0.8,0.2,0.2,0.2,0.8,0.2,0.2,0.2,0.8","0.2,0.2,0.8,0.8,0.2,0.2,0.2,0.8,0.2","2","",""
"","html-keyboard-response","284","231764","0.0-284.0","3NAPMVF0ZX1WSCK9Y1T5NVSD85627Q","ARN8MH7YKZKAZ","3I7KR83SNAZT1REYB2SRC49PCEEK9H","","null","<img src=""img/land4.png"" style=""width:200px; border:14px solid green;"">","null","","","","","","","","","",""
"","image-keyboard-response","285","232046","0.0-285.0","3NAPMVF0ZX1WSCK9Y1T5NVSD85627Q","ARN8MH7YKZKAZ","3I7KR83SNAZT1REYB2SRC49PCEEK9H","","280.7000000476837","img/land4.png","76","281.90000009536743","3","1","1","2","0.8,0.2,0.2,0.2,0.8,0.2,0.2,0.2,0.8","0.2,0.2,0.8,0.8,0.2,0.2,0.2,0.8,0.2","2","",""
"","html-keyboard-response","286","232348","0.0-286.0","3NAPMVF0ZX1WSCK9Y1T5NVSD85627Q","ARN8MH7YKZKAZ","3I7KR83SNAZT1REYB2SRC49PCEEK9H","","null","<img src=""img/land4.png"" style=""width:200px; border:14px solid green;"">","null","","","","","","","","","",""
"","image-keyboard-response","287","232703","0.0-287.0","3NAPMVF0ZX1WSCK9Y1T5NVSD85627Q","ARN8MH7YKZKAZ","3I7KR83SNAZT1REYB2SRC49PCEEK9H","","352.7000000476837","img/land4.png","76","354","3","1","1","2","0.8,0.2,0.2,0.2,0.8,0.2,0.2,0.2,0.8","0.2,0.2,0.8,0.8,0.2,0.2,0.2,0.8,0.2","2","",""
"","html-keyboard-response","288","233005","0.0-288.0","3NAPMVF0ZX1WSCK9Y1T5NVSD85627Q","ARN8MH7YKZKAZ","3I7KR83SNAZT1REYB2SRC49PCEEK9H","","null","<img src=""img/land4.png"" style=""width:200px; border:14px solid green;"">","null","","","","","","","","","",""
"","image-keyboard-response","289","233494","0.0-289.0","3NAPMVF0ZX1WSCK9Y1T5NVSD85627Q","ARN8MH7YKZKAZ","3I7KR83SNAZT1REYB2SRC49PCEEK9H","","487.7000000476837","img/land6.png","75","489.2999999523163","2","1","3","2","0.8,0.2,0.2,0.2,0.8,0.2,0.2,0.2,0.8","0.2,0.2,0.8,0.8,0.2,0.2,0.2,0.8,0.2","2","",""
"","html-keyboard-response","290","233796","0.0-290.0","3NAPMVF0ZX1WSCK9Y1T5NVSD85627Q","ARN8MH7YKZKAZ","3I7KR83SNAZT1REYB2SRC49PCEEK9H","","null","<img src=""img/land6.png"" style=""width:200px; border:14px solid green;"">","null","","","","","","","","","",""
"","image-keyboard-response","291","234326","0.0-291.0","3NAPMVF0ZX1WSCK9Y1T5NVSD85627Q","ARN8MH7YKZKAZ","3I7KR83SNAZT1REYB2SRC49PCEEK9H","","528.5","img/land6.png","75","529.7999999523163","2","1","3","2","0.8,0.2,0.2,0.2,0.8,0.2,0.2,0.2,0.8","0.2,0.2,0.8,0.8,0.2,0.2,0.2,0.8,0.2","2","",""
"","html-keyboard-response","292","234629","0.0-292.0","3NAPMVF0ZX1WSCK9Y1T5NVSD85627Q","ARN8MH7YKZKAZ","3I7KR83SNAZT1REYB2SRC49PCEEK9H","","null","<img src=""img/land6.png"" style=""width:200px; border:14px solid green;"">","null","","","","","","","","","",""
"","image-keyboard-response","293","235575","0.0-293.0","3NAPMVF0ZX1WSCK9Y1T5NVSD85627Q","ARN8MH7YKZKAZ","3I7KR83SNAZT1REYB2SRC49PCEEK9H","","944.1000001430511","img/land4.png","76","945.2000000476837","3","1","1","2","0.8,0.2,0.2,0.2,0.8,0.2,0.2,0.2,0.8","0.2,0.2,0.8,0.8,0.2,0.2,0.2,0.8,0.2","2","",""
"","html-keyboard-response","294","235876","0.0-294.0","3NAPMVF0ZX1WSCK9Y1T5NVSD85627Q","ARN8MH7YKZKAZ","3I7KR83SNAZT1REYB2SRC49PCEEK9H","","null","<img src=""img/land4.png"" style=""width:200px; border:14px solid green;"">","null","","","","","","","","","",""
"","image-keyboard-response","295","236558","0.0-295.0","3NAPMVF0ZX1WSCK9Y1T5NVSD85627Q","ARN8MH7YKZKAZ","3I7KR83SNAZT1REYB2SRC49PCEEK9H","","680.5999999046326","img/land6.png","75","681.9000000953674","2","1","3","2","0.8,0.2,0.2,0.2,0.8,0.2,0.2,0.2,0.8","0.2,0.2,0.8,0.8,0.2,0.2,0.2,0.8,0.2","2","",""
"","html-keyboard-response","296","236861","0.0-296.0","3NAPMVF0ZX1WSCK9Y1T5NVSD85627Q","ARN8MH7YKZKAZ","3I7KR83SNAZT1REYB2SRC49PCEEK9H","","null","<img src=""img/land6.png"" style=""width:200px; border:14px solid green;"">","null","","","","","","","","","",""
"","image-keyboard-response","297","237214","0.0-297.0","3NAPMVF0ZX1WSCK9Y1T5NVSD85627Q","ARN8MH7YKZKAZ","3I7KR83SNAZT1REYB2SRC49PCEEK9H","","351.39999985694885","img/land6.png","75","352.7999999523163","2","1","3","2","0.8,0.2,0.2,0.2,0.8,0.2,0.2,0.2,0.8","0.2,0.2,0.8,0.8,0.2,0.2,0.2,0.8,0.2","2","",""
"","html-keyboard-response","298","237516","0.0-298.0","3NAPMVF0ZX1WSCK9Y1T5NVSD85627Q","ARN8MH7YKZKAZ","3I7KR83SNAZT1REYB2SRC49PCEEK9H","","null","<img src=""img/land6.png"" style=""width:200px; border:14px solid green;"">","null","","","","","","","","","",""
"","image-keyboard-response","299","238302","0.0-299.0","3NAPMVF0ZX1WSCK9Y1T5NVSD85627Q","ARN8MH7YKZKAZ","3I7KR83SNAZT1REYB2SRC49PCEEK9H","","784.5999999046326","img/land4.png","76","786.1000001430511","3","1","1","2","0.8,0.2,0.2,0.2,0.8,0.2,0.2,0.2,0.8","0.2,0.2,0.8,0.8,0.2,0.2,0.2,0.8,0.2","2","",""
"","html-keyboard-response","300","238605","0.0-300.0","3NAPMVF0ZX1WSCK9Y1T5NVSD85627Q","ARN8MH7YKZKAZ","3I7KR83SNAZT1REYB2SRC49PCEEK9H","","null","<img src=""img/land4.png"" style=""width:200px; border:14px solid green;"">","null","","","","","","","","","",""
"","image-keyboard-response","301","238854","0.0-301.0","3NAPMVF0ZX1WSCK9Y1T5NVSD85627Q","ARN8MH7YKZKAZ","3I7KR83SNAZT1REYB2SRC49PCEEK9H","","248","img/land6.png","76","249.39999985694885","3","1","3","2","0.8,0.2,0.2,0.2,0.8,0.2,0.2,0.2,0.8","0.2,0.2,0.8,0.8,0.2,0.2,0.2,0.8,0.2","2","",""
"","html-keyboard-response","302","239156","0.0-302.0","3NAPMVF0ZX1WSCK9Y1T5NVSD85627Q","ARN8MH7YKZKAZ","3I7KR83SNAZT1REYB2SRC49PCEEK9H","","null","<img src=""img/land6.png"" style=""width:200px; border:14px solid green;"">","null","","","","","","","","","",""
"","image-keyboard-response","303","239358","0.0-303.0","3NAPMVF0ZX1WSCK9Y1T5NVSD85627Q","ARN8MH7YKZKAZ","3I7KR83SNAZT1REYB2SRC49PCEEK9H","","200.79999995231628","img/land1.png","75","202.20000004768372","2","1","2","2","0.8,0.2,0.2,0.2,0.8,0.2,0.2,0.2,0.8","0.2,0.2,0.8,0.8,0.2,0.2,0.2,0.8,0.2","2","",""
"","html-keyboard-response","304","239660","0.0-304.0","3NAPMVF0ZX1WSCK9Y1T5NVSD85627Q","ARN8MH7YKZKAZ","3I7KR83SNAZT1REYB2SRC49PCEEK9H","","null","<img src=""img/land1.png"" style=""width:200px; border:14px solid green;"">","null","","","","","","","","","",""
"","image-keyboard-response","305","239878","0.0-305.0","3NAPMVF0ZX1WSCK9Y1T5NVSD85627Q","ARN8MH7YKZKAZ","3I7KR83SNAZT1REYB2SRC49PCEEK9H","","217.09999990463257","img/land1.png","74","218.09999990463257","1","1","2","2","0.8,0.2,0.2,0.2,0.8,0.2,0.2,0.2,0.8","0.2,0.2,0.8,0.8,0.2,0.2,0.2,0.8,0.2","2","",""
"","html-keyboard-response","306","240180","0.0-306.0","3NAPMVF0ZX1WSCK9Y1T5NVSD85627Q","ARN8MH7YKZKAZ","3I7KR83SNAZT1REYB2SRC49PCEEK9H","","null","<img src=""img/land1.png"" style=""width:200px; border:14px solid green;"">","null","","","","","","","","","",""
"","image-keyboard-response","307","241150","0.0-307.0","3NAPMVF0ZX1WSCK9Y1T5NVSD85627Q","ARN8MH7YKZKAZ","3I7KR83SNAZT1REYB2SRC49PCEEK9H","","968.2000000476837","img/land6.png","75","969.4000000953674","2","1","3","2","0.8,0.2,0.2,0.2,0.8,0.2,0.2,0.2,0.8","0.2,0.2,0.8,0.8,0.2,0.2,0.2,0.8,0.2","2","",""
"","html-keyboard-response","308","241451","0.0-308.0","3NAPMVF0ZX1WSCK9Y1T5NVSD85627Q","ARN8MH7YKZKAZ","3I7KR83SNAZT1REYB2SRC49PCEEK9H","","null","<img src=""img/land6.png"" style=""width:200px; border:14px solid green;"">","null","","","","","","","","","",""
"","image-keyboard-response","309","242142","0.0-309.0","3NAPMVF0ZX1WSCK9Y1T5NVSD85627Q","ARN8MH7YKZKAZ","3I7KR83SNAZT1REYB2SRC49PCEEK9H","","690.1999998092651","img/land1.png","74","691.4000000953674","1","1","2","2","0.8,0.2,0.2,0.2,0.8,0.2,0.2,0.2,0.8","0.2,0.2,0.8,0.8,0.2,0.2,0.2,0.8,0.2","2","",""
"","html-keyboard-response","310","242445","0.0-310.0","3NAPMVF0ZX1WSCK9Y1T5NVSD85627Q","ARN8MH7YKZKAZ","3I7KR83SNAZT1REYB2SRC49PCEEK9H","","null","<img src=""img/land1.png"" style=""width:200px; border:14px solid green;"">","null","","","","","","","","","",""
"","image-keyboard-response","311","243622","0.0-311.0","3NAPMVF0ZX1WSCK9Y1T5NVSD85627Q","ARN8MH7YKZKAZ","3I7KR83SNAZT1REYB2SRC49PCEEK9H","","1176","img/land4.png","76","1176.8999998569489","3","1","1","2","0.8,0.2,0.2,0.2,0.8,0.2,0.2,0.2,0.8","0.2,0.2,0.8,0.8,0.2,0.2,0.2,0.8,0.2","2","",""
"","html-keyboard-response","312","243924","0.0-312.0","3NAPMVF0ZX1WSCK9Y1T5NVSD85627Q","ARN8MH7YKZKAZ","3I7KR83SNAZT1REYB2SRC49PCEEK9H","","null","<img src=""img/land4.png"" style=""width:200px; border:14px solid green;"">","null","","","","","","","","","",""
"","image-keyboard-response","313","244158","0.0-313.0","3NAPMVF0ZX1WSCK9Y1T5NVSD85627Q","ARN8MH7YKZKAZ","3I7KR83SNAZT1REYB2SRC49PCEEK9H","","233.29999995231628","img/land4.png","76","234.39999985694885","3","1","1","2","0.8,0.2,0.2,0.2,0.8,0.2,0.2,0.2,0.8","0.2,0.2,0.8,0.8,0.2,0.2,0.2,0.8,0.2","2","",""
"","html-keyboard-response","314","244460","0.0-314.0","3NAPMVF0ZX1WSCK9Y1T5NVSD85627Q","ARN8MH7YKZKAZ","3I7KR83SNAZT1REYB2SRC49PCEEK9H","","null","<img src=""img/land4.png"" style=""width:200px; border:14px solid green;"">","null","","","","","","","","","",""
"","image-keyboard-response","315","244750","0.0-315.0","3NAPMVF0ZX1WSCK9Y1T5NVSD85627Q","ARN8MH7YKZKAZ","3I7KR83SNAZT1REYB2SRC49PCEEK9H","","288.69999980926514","img/land4.png","76","289.7999999523163","3","1","1","2","0.8,0.2,0.2,0.2,0.8,0.2,0.2,0.2,0.8","0.2,0.2,0.8,0.8,0.2,0.2,0.2,0.8,0.2","2","",""
"","html-keyboard-response","316","245052","0.0-316.0","3NAPMVF0ZX1WSCK9Y1T5NVSD85627Q","ARN8MH7YKZKAZ","3I7KR83SNAZT1REYB2SRC49PCEEK9H","","null","<img src=""img/land4.png"" style=""width:200px; border:14px solid green;"">","null","","","","","","","","","",""
"","image-keyboard-response","317","245366","0.0-317.0","3NAPMVF0ZX1WSCK9Y1T5NVSD85627Q","ARN8MH7YKZKAZ","3I7KR83SNAZT1REYB2SRC49PCEEK9H","","312.7999999523163","img/land4.png","76","314","3","1","1","2","0.8,0.2,0.2,0.2,0.8,0.2,0.2,0.2,0.8","0.2,0.2,0.8,0.8,0.2,0.2,0.2,0.8,0.2","2","",""
"","html-keyboard-response","318","245668","0.0-318.0","3NAPMVF0ZX1WSCK9Y1T5NVSD85627Q","ARN8MH7YKZKAZ","3I7KR83SNAZT1REYB2SRC49PCEEK9H","","null","<img src=""img/land4.png"" style=""width:200px; border:14px solid green;"">","null","","","","","","","","","",""
"","image-keyboard-response","319","246326","0.0-319.0","3NAPMVF0ZX1WSCK9Y1T5NVSD85627Q","ARN8MH7YKZKAZ","3I7KR83SNAZT1REYB2SRC49PCEEK9H","","657","img/land1.png","74","658.5","1","0","2","2","0.8,0.2,0.2,0.2,0.8,0.2,0.2,0.2,0.8","0.2,0.2,0.8,0.8,0.2,0.2,0.2,0.8,0.2","2","",""
"","html-keyboard-response","320","246629","0.0-320.0","3NAPMVF0ZX1WSCK9Y1T5NVSD85627Q","ARN8MH7YKZKAZ","3I7KR83SNAZT1REYB2SRC49PCEEK9H","","null","<img src=""img/land1.png"" style=""width:200px;border:14px solid red;"">","null","","","","","","","","","",""
"","image-keyboard-response","321","247326","0.0-321.0","3NAPMVF0ZX1WSCK9Y1T5NVSD85627Q","ARN8MH7YKZKAZ","3I7KR83SNAZT1REYB2SRC49PCEEK9H","","695.9000000953674","img/land6.png","75","697.0999999046326","2","1","3","2","0.8,0.2,0.2,0.2,0.8,0.2,0.2,0.2,0.8","0.2,0.2,0.8,0.8,0.2,0.2,0.2,0.8,0.2","2","",""
"","html-keyboard-response","322","247629","0.0-322.0","3NAPMVF0ZX1WSCK9Y1T5NVSD85627Q","ARN8MH7YKZKAZ","3I7KR83SNAZT1REYB2SRC49PCEEK9H","","null","<img src=""img/land6.png"" style=""width:200px; border:14px solid green;"">","null","","","","","","","","","",""
"","image-keyboard-response","323","247998","0.0-323.0","3NAPMVF0ZX1WSCK9Y1T5NVSD85627Q","ARN8MH7YKZKAZ","3I7KR83SNAZT1REYB2SRC49PCEEK9H","","367.2999999523163","img/land6.png","75","368.59999990463257","2","1","3","2","0.8,0.2,0.2,0.2,0.8,0.2,0.2,0.2,0.8","0.2,0.2,0.8,0.8,0.2,0.2,0.2,0.8,0.2","2","",""
"","html-keyboard-response","324","248300","0.0-324.0","3NAPMVF0ZX1WSCK9Y1T5NVSD85627Q","ARN8MH7YKZKAZ","3I7KR83SNAZT1REYB2SRC49PCEEK9H","","null","<img src=""img/land6.png"" style=""width:200px; border:14px solid green;"">","null","","","","","","","","","",""
"","image-keyboard-response","325","249166","0.0-325.0","3NAPMVF0ZX1WSCK9Y1T5NVSD85627Q","ARN8MH7YKZKAZ","3I7KR83SNAZT1REYB2SRC49PCEEK9H","","864.5999999046326","img/land4.png","76","865.8999998569489","3","1","1","2","0.8,0.2,0.2,0.2,0.8,0.2,0.2,0.2,0.8","0.2,0.2,0.8,0.8,0.2,0.2,0.2,0.8,0.2","2","",""
"","html-keyboard-response","326","249468","0.0-326.0","3NAPMVF0ZX1WSCK9Y1T5NVSD85627Q","ARN8MH7YKZKAZ","3I7KR83SNAZT1REYB2SRC49PCEEK9H","","null","<img src=""img/land4.png"" style=""width:200px; border:14px solid green;"">","null","","","","","","","","","",""
"","image-keyboard-response","327","249774","0.0-327.0","3NAPMVF0ZX1WSCK9Y1T5NVSD85627Q","ARN8MH7YKZKAZ","3I7KR83SNAZT1REYB2SRC49PCEEK9H","","304.2000000476837","img/land4.png","76","305.39999985694885","3","1","1","2","0.8,0.2,0.2,0.2,0.8,0.2,0.2,0.2,0.8","0.2,0.2,0.8,0.8,0.2,0.2,0.2,0.8,0.2","2","",""
"","html-keyboard-response","328","250076","0.0-328.0","3NAPMVF0ZX1WSCK9Y1T5NVSD85627Q","ARN8MH7YKZKAZ","3I7KR83SNAZT1REYB2SRC49PCEEK9H","","null","<img src=""img/land4.png"" style=""width:200px; border:14px solid green;"">","null","","","","","","","","","",""
"","image-keyboard-response","329","250549","0.0-329.0","3NAPMVF0ZX1WSCK9Y1T5NVSD85627Q","ARN8MH7YKZKAZ","3I7KR83SNAZT1REYB2SRC49PCEEK9H","","472.60000014305115","img/land1.png","75","473.40000009536743","2","0","2","2","0.8,0.2,0.2,0.2,0.8,0.2,0.2,0.2,0.8","0.2,0.2,0.8,0.8,0.2,0.2,0.2,0.8,0.2","2","",""
"","html-keyboard-response","330","250850","0.0-330.0","3NAPMVF0ZX1WSCK9Y1T5NVSD85627Q","ARN8MH7YKZKAZ","3I7KR83SNAZT1REYB2SRC49PCEEK9H","","null","<img src=""img/land1.png"" style=""width:200px;border:14px solid red;"">","null","","","","","","","","","",""
"","image-keyboard-response","331","251493","0.0-331.0","3NAPMVF0ZX1WSCK9Y1T5NVSD85627Q","ARN8MH7YKZKAZ","3I7KR83SNAZT1REYB2SRC49PCEEK9H","","642","img/land4.png","75","642.8999998569489","2","0","1","2","0.8,0.2,0.2,0.2,0.8,0.2,0.2,0.2,0.8","0.2,0.2,0.8,0.8,0.2,0.2,0.2,0.8,0.2","2","",""
"","html-keyboard-response","332","251796","0.0-332.0","3NAPMVF0ZX1WSCK9Y1T5NVSD85627Q","ARN8MH7YKZKAZ","3I7KR83SNAZT1REYB2SRC49PCEEK9H","","null","<img src=""img/land4.png"" style=""width:200px;border:14px solid red;"">","null","","","","","","","","","",""
"","image-keyboard-response","333","252541","0.0-333.0","3NAPMVF0ZX1WSCK9Y1T5NVSD85627Q","ARN8MH7YKZKAZ","3I7KR83SNAZT1REYB2SRC49PCEEK9H","","743.9000000953674","img/land4.png","76","745.0999999046326","3","1","1","2","0.8,0.2,0.2,0.2,0.8,0.2,0.2,0.2,0.8","0.2,0.2,0.8,0.8,0.2,0.2,0.2,0.8,0.2","2","",""
"","html-keyboard-response","334","252842","0.0-334.0","3NAPMVF0ZX1WSCK9Y1T5NVSD85627Q","ARN8MH7YKZKAZ","3I7KR83SNAZT1REYB2SRC49PCEEK9H","","null","<img src=""img/land4.png"" style=""width:200px; border:14px solid green;"">","null","","","","","","","","","",""
"","image-keyboard-response","335","253101","0.0-335.0","3NAPMVF0ZX1WSCK9Y1T5NVSD85627Q","ARN8MH7YKZKAZ","3I7KR83SNAZT1REYB2SRC49PCEEK9H","","258","img/land4.png","76","258.7999999523163","3","1","1","2","0.8,0.2,0.2,0.2,0.8,0.2,0.2,0.2,0.8","0.2,0.2,0.8,0.8,0.2,0.2,0.2,0.8,0.2","2","",""
"","html-keyboard-response","336","253406","0.0-336.0","3NAPMVF0ZX1WSCK9Y1T5NVSD85627Q","ARN8MH7YKZKAZ","3I7KR83SNAZT1REYB2SRC49PCEEK9H","","null","<img src=""img/land4.png"" style=""width:200px; border:14px solid green;"">","null","","","","","","","","","",""
"","image-keyboard-response","337","253741","0.0-337.0","3NAPMVF0ZX1WSCK9Y1T5NVSD85627Q","ARN8MH7YKZKAZ","3I7KR83SNAZT1REYB2SRC49PCEEK9H","","334.5","img/land4.png","76","335.39999985694885","3","1","1","2","0.8,0.2,0.2,0.2,0.8,0.2,0.2,0.2,0.8","0.2,0.2,0.8,0.8,0.2,0.2,0.2,0.8,0.2","2","",""
"","html-keyboard-response","338","254043","0.0-338.0","3NAPMVF0ZX1WSCK9Y1T5NVSD85627Q","ARN8MH7YKZKAZ","3I7KR83SNAZT1REYB2SRC49PCEEK9H","","null","<img src=""img/land4.png"" style=""width:200px; border:14px solid green;"">","null","","","","","","","","","",""
"","image-keyboard-response","339","254669","0.0-339.0","3NAPMVF0ZX1WSCK9Y1T5NVSD85627Q","ARN8MH7YKZKAZ","3I7KR83SNAZT1REYB2SRC49PCEEK9H","","625.2000000476837","img/land6.png","75","626.0999999046326","2","1","3","2","0.8,0.2,0.2,0.2,0.8,0.2,0.2,0.2,0.8","0.2,0.2,0.8,0.8,0.2,0.2,0.2,0.8,0.2","2","",""
"","html-keyboard-response","340","254970","0.0-340.0","3NAPMVF0ZX1WSCK9Y1T5NVSD85627Q","ARN8MH7YKZKAZ","3I7KR83SNAZT1REYB2SRC49PCEEK9H","","null","<img src=""img/land6.png"" style=""width:200px; border:14px solid green;"">","null","","","","","","","","","",""
"","image-keyboard-response","341","255125","0.0-341.0","3NAPMVF0ZX1WSCK9Y1T5NVSD85627Q","ARN8MH7YKZKAZ","3I7KR83SNAZT1REYB2SRC49PCEEK9H","","153.70000004768372","img/land1.png","75","154.59999990463257","2","0","2","2","0.8,0.2,0.2,0.2,0.8,0.2,0.2,0.2,0.8","0.2,0.2,0.8,0.8,0.2,0.2,0.2,0.8,0.2","2","",""
"","html-keyboard-response","342","255427","0.0-342.0","3NAPMVF0ZX1WSCK9Y1T5NVSD85627Q","ARN8MH7YKZKAZ","3I7KR83SNAZT1REYB2SRC49PCEEK9H","","null","<img src=""img/land1.png"" style=""width:200px;border:14px solid red;"">","null","","","","","","","","","",""
"","image-keyboard-response","343","255709","0.0-343.0","3NAPMVF0ZX1WSCK9Y1T5NVSD85627Q","ARN8MH7YKZKAZ","3I7KR83SNAZT1REYB2SRC49PCEEK9H","","281.40000009536743","img/land4.png","74","282.2000000476837","1","1","1","2","0.8,0.2,0.2,0.2,0.8,0.2,0.2,0.2,0.8","0.2,0.2,0.8,0.8,0.2,0.2,0.2,0.8,0.2","2","",""
"","html-keyboard-response","344","256011","0.0-344.0","3NAPMVF0ZX1WSCK9Y1T5NVSD85627Q","ARN8MH7YKZKAZ","3I7KR83SNAZT1REYB2SRC49PCEEK9H","","null","<img src=""img/land4.png"" style=""width:200px; border:14px solid green;"">","null","","","","","","","","","",""
"","image-keyboard-response","345","256757","0.0-345.0","3NAPMVF0ZX1WSCK9Y1T5NVSD85627Q","ARN8MH7YKZKAZ","3I7KR83SNAZT1REYB2SRC49PCEEK9H","","745.4000000953674","img/land4.png","76","746.3000001907349","3","1","1","2","0.8,0.2,0.2,0.2,0.8,0.2,0.2,0.2,0.8","0.2,0.2,0.8,0.8,0.2,0.2,0.2,0.8,0.2","2","",""
"","html-keyboard-response","346","257059","0.0-346.0","3NAPMVF0ZX1WSCK9Y1T5NVSD85627Q","ARN8MH7YKZKAZ","3I7KR83SNAZT1REYB2SRC49PCEEK9H","","null","<img src=""img/land4.png"" style=""width:200px; border:14px solid green;"">","null","","","","","","","","","",""
"","image-keyboard-response","347","257414","0.0-347.0","3NAPMVF0ZX1WSCK9Y1T5NVSD85627Q","ARN8MH7YKZKAZ","3I7KR83SNAZT1REYB2SRC49PCEEK9H","","352.90000009536743","img/land4.png","76","354.5","3","1","1","2","0.8,0.2,0.2,0.2,0.8,0.2,0.2,0.2,0.8","0.2,0.2,0.8,0.8,0.2,0.2,0.2,0.8,0.2","2","",""
"","html-keyboard-response","348","257716","0.0-348.0","3NAPMVF0ZX1WSCK9Y1T5NVSD85627Q","ARN8MH7YKZKAZ","3I7KR83SNAZT1REYB2SRC49PCEEK9H","","null","<img src=""img/land4.png"" style=""width:200px; border:14px solid green;"">","null","","","","","","","","","",""
"","image-keyboard-response","349","258382","0.0-349.0","3NAPMVF0ZX1WSCK9Y1T5NVSD85627Q","ARN8MH7YKZKAZ","3I7KR83SNAZT1REYB2SRC49PCEEK9H","","664.7999999523163","img/land1.png","74","666.0999999046326","1","1","2","2","0.8,0.2,0.2,0.2,0.8,0.2,0.2,0.2,0.8","0.2,0.2,0.8,0.8,0.2,0.2,0.2,0.8,0.2","2","",""
"","html-keyboard-response","350","258685","0.0-350.0","3NAPMVF0ZX1WSCK9Y1T5NVSD85627Q","ARN8MH7YKZKAZ","3I7KR83SNAZT1REYB2SRC49PCEEK9H","","null","<img src=""img/land1.png"" style=""width:200px; border:14px solid green;"">","null","","","","","","","","","",""
"","image-keyboard-response","351","259390","0.0-351.0","3NAPMVF0ZX1WSCK9Y1T5NVSD85627Q","ARN8MH7YKZKAZ","3I7KR83SNAZT1REYB2SRC49PCEEK9H","","702.9000000953674","img/land4.png","76","704.2999999523163","3","1","1","2","0.8,0.2,0.2,0.2,0.8,0.2,0.2,0.2,0.8","0.2,0.2,0.8,0.8,0.2,0.2,0.2,0.8,0.2","2","",""
"","html-keyboard-response","352","259692","0.0-352.0","3NAPMVF0ZX1WSCK9Y1T5NVSD85627Q","ARN8MH7YKZKAZ","3I7KR83SNAZT1REYB2SRC49PCEEK9H","","null","<img src=""img/land4.png"" style=""width:200px; border:14px solid green;"">","null","","","","","","","","","",""
"","image-keyboard-response","353","259894","0.0-353.0","3NAPMVF0ZX1WSCK9Y1T5NVSD85627Q","ARN8MH7YKZKAZ","3I7KR83SNAZT1REYB2SRC49PCEEK9H","","200.40000009536743","img/land1.png","76","201.60000014305115","3","1","2","2","0.8,0.2,0.2,0.2,0.8,0.2,0.2,0.2,0.8","0.2,0.2,0.8,0.8,0.2,0.2,0.2,0.8,0.2","2","",""
"","html-keyboard-response","354","260196","0.0-354.0","3NAPMVF0ZX1WSCK9Y1T5NVSD85627Q","ARN8MH7YKZKAZ","3I7KR83SNAZT1REYB2SRC49PCEEK9H","","null","<img src=""img/land1.png"" style=""width:200px; border:14px solid green;"">","null","","","","","","","","","",""
"","image-keyboard-response","355","260910","0.0-355.0","3NAPMVF0ZX1WSCK9Y1T5NVSD85627Q","ARN8MH7YKZKAZ","3I7KR83SNAZT1REYB2SRC49PCEEK9H","","712.5","img/land4.png","76","713.7999999523163","3","1","1","2","0.8,0.2,0.2,0.2,0.8,0.2,0.2,0.2,0.8","0.2,0.2,0.8,0.8,0.2,0.2,0.2,0.8,0.2","2","",""
"","html-keyboard-response","356","261212","0.0-356.0","3NAPMVF0ZX1WSCK9Y1T5NVSD85627Q","ARN8MH7YKZKAZ","3I7KR83SNAZT1REYB2SRC49PCEEK9H","","null","<img src=""img/land4.png"" style=""width:200px; border:14px solid green;"">","null","","","","","","","","","",""
