"success","trial_type","trial_index","time_elapsed","internal_node_id","assignmentID","mturkID","hitID","view_history","rt","stimulus","key_press","reactionTime","a","r","s","cond","reward_cond","reward_cond_actual","reward_matrix_idx","responses","question_order"
"true","fullscreen","0","3493","0.0-0.0","39KFRKBFIOHTE35F88H27LFDDBEYO0","AS2MFSWNC5CQI","30UZJB2POHY4464FN6NBJ2NLFWF354","","","","","","","","","","","","","",""
"","instructions","1","9698","0.0-1.0","39KFRKBFIOHTE35F88H27LFDDBEYO0","AS2MFSWNC5CQI","30UZJB2POHY4464FN6NBJ2NLFWF354","[{""page_index"":0,""viewing_time"":1621.7000000476837},{""page_index"":1,""viewing_time"":959.7999999523163},{""page_index"":2,""viewing_time"":196.20000004768372},{""page_index"":3,""viewing_time"":963.7999999523163},{""page_index"":4,""viewing_time"":883.9000000953674},{""page_index"":5,""viewing_time"":858},{""page_index"":6,""viewing_time"":718.2000000476837}]","6201.800000190735","","","","","","","","","","","",""
"","image-keyboard-response","2","11453","0.0-2.0","39KFRKBFIOHTE35F88H27LFDDBEYO0","AS2MFSWNC5CQI","30UZJB2POHY4464FN6NBJ2NLFWF354","","1753.5999999046326","img/land2.png","74","1755.2999999523163","1","1","1","1","0.8,0.2,0.2,0.2,0.8,0.2,0.2,0.2,0.8","0.8,0.2,0.2,0.2,0.8,0.2,0.2,0.2,0.8","1","",""
"","html-keyboard-response","3","11767","0.0-3.0","39KFRKBFIOHTE35F88H27LFDDBEYO0","AS2MFSWNC5CQI","30UZJB2POHY4464FN6NBJ2NLFWF354","","null","<img src=""img/land2.png"" style=""width:200px; border:14px solid green;"">","null","","","","","","","","","",""
"","image-keyboard-response","4","12499","0.0-4.0","39KFRKBFIOHTE35F88H27LFDDBEYO0","AS2MFSWNC5CQI","30UZJB2POHY4464FN6NBJ2NLFWF354","","730.0999999046326","img/land4.png","75","731.2000000476837","2","0","3","1","0.8,0.2,0.2,0.2,0.8,0.2,0.2,0.2,0.8","0.8,0.2,0.2,0.2,0.8,0.2,0.2,0.2,0.8","1","",""
"","html-keyboard-response","5","12802","0.0-5.0","39KFRKBFIOHTE35F88H27LFDDBEYO0","AS2MFSWNC5CQI","30UZJB2POHY4464FN6NBJ2NLFWF354","","null","<img src=""img/land4.png"" style=""width:200px;border:14px solid red;"">","null","","","","","","","","","",""
"","image-keyboard-response","6","13292","0.0-6.0","39KFRKBFIOHTE35F88H27LFDDBEYO0","AS2MFSWNC5CQI","30UZJB2POHY4464FN6NBJ2NLFWF354","","487.7000000476837","img/land4.png","76","489.30000019073486","3","1","3","1","0.8,0.2,0.2,0.2,0.8,0.2,0.2,0.2,0.8","0.8,0.2,0.2,0.2,0.8,0.2,0.2,0.2,0.8","1","",""
"","html-keyboard-response","7","13595","0.0-7.0","39KFRKBFIOHTE35F88H27LFDDBEYO0","AS2MFSWNC5CQI","30UZJB2POHY4464FN6NBJ2NLFWF354","","null","<img src=""img/land4.png"" style=""width:200px; border:14px solid green;"">","null","","","","","","","","","",""
"","image-keyboard-response","8","14363","0.0-8.0","39KFRKBFIOHTE35F88H27LFDDBEYO0","AS2MFSWNC5CQI","30UZJB2POHY4464FN6NBJ2NLFWF354","","767.8000001907349","img/land2.png","74","768.5","1","1","1","1","0.8,0.2,0.2,0.2,0.8,0.2,0.2,0.2,0.8","0.8,0.2,0.2,0.2,0.8,0.2,0.2,0.2,0.8","1","",""
"","html-keyboard-response","9","14665","0.0-9.0","39KFRKBFIOHTE35F88H27LFDDBEYO0","AS2MFSWNC5CQI","30UZJB2POHY4464FN6NBJ2NLFWF354","","null","<img src=""img/land2.png"" style=""width:200px; border:14px solid green;"">","null","","","","","","","","","",""
"","image-keyboard-response","10","15445","0.0-10.0","39KFRKBFIOHTE35F88H27LFDDBEYO0","AS2MFSWNC5CQI","30UZJB2POHY4464FN6NBJ2NLFWF354","","778.3000001907349","img/land2.png","74","780.0999999046326","1","1","1","1","0.8,0.2,0.2,0.2,0.8,0.2,0.2,0.2,0.8","0.8,0.2,0.2,0.2,0.8,0.2,0.2,0.2,0.8","1","",""
"","html-keyboard-response","11","15752","0.0-11.0","39KFRKBFIOHTE35F88H27LFDDBEYO0","AS2MFSWNC5CQI","30UZJB2POHY4464FN6NBJ2NLFWF354","","null","<img src=""img/land2.png"" style=""width:200px; border:14px solid green;"">","null","","","","","","","","","",""
"","image-keyboard-response","12","16533","0.0-12.0","39KFRKBFIOHTE35F88H27LFDDBEYO0","AS2MFSWNC5CQI","30UZJB2POHY4464FN6NBJ2NLFWF354","","779.4000000953674","img/land5.png","75","780.5","2","1","2","1","0.8,0.2,0.2,0.2,0.8,0.2,0.2,0.2,0.8","0.8,0.2,0.2,0.2,0.8,0.2,0.2,0.2,0.8","1","",""
"","html-keyboard-response","13","16840","0.0-13.0","39KFRKBFIOHTE35F88H27LFDDBEYO0","AS2MFSWNC5CQI","30UZJB2POHY4464FN6NBJ2NLFWF354","","null","<img src=""img/land5.png"" style=""width:200px; border:14px solid green;"">","null","","","","","","","","","",""
"","image-keyboard-response","14","17444","0.0-14.0","39KFRKBFIOHTE35F88H27LFDDBEYO0","AS2MFSWNC5CQI","30UZJB2POHY4464FN6NBJ2NLFWF354","","602.0999999046326","img/land5.png","75","603.5999999046326","2","1","2","1","0.8,0.2,0.2,0.2,0.8,0.2,0.2,0.2,0.8","0.8,0.2,0.2,0.2,0.8,0.2,0.2,0.2,0.8","1","",""
"","html-keyboard-response","15","17757","0.0-15.0","39KFRKBFIOHTE35F88H27LFDDBEYO0","AS2MFSWNC5CQI","30UZJB2POHY4464FN6NBJ2NLFWF354","","null","<img src=""img/land5.png"" style=""width:200px; border:14px solid green;"">","null","","","","","","","","","",""
"","image-keyboard-response","16","18518","0.0-16.0","39KFRKBFIOHTE35F88H27LFDDBEYO0","AS2MFSWNC5CQI","30UZJB2POHY4464FN6NBJ2NLFWF354","","759.9000000953674","img/land4.png","74","761","1","0","3","1","0.8,0.2,0.2,0.2,0.8,0.2,0.2,0.2,0.8","0.8,0.2,0.2,0.2,0.8,0.2,0.2,0.2,0.8","1","",""
"","html-keyboard-response","17","18828","0.0-17.0","39KFRKBFIOHTE35F88H27LFDDBEYO0","AS2MFSWNC5CQI","30UZJB2POHY4464FN6NBJ2NLFWF354","","null","<img src=""img/land4.png"" style=""width:200px;border:14px solid red;"">","null","","","","","","","","","",""
"","image-keyboard-response","18","19563","0.0-18.0","39KFRKBFIOHTE35F88H27LFDDBEYO0","AS2MFSWNC5CQI","30UZJB2POHY4464FN6NBJ2NLFWF354","","733.1999998092651","img/land4.png","76","734.5","3","1","3","1","0.8,0.2,0.2,0.2,0.8,0.2,0.2,0.2,0.8","0.8,0.2,0.2,0.2,0.8,0.2,0.2,0.2,0.8","1","",""
"","html-keyboard-response","19","19867","0.0-19.0","39KFRKBFIOHTE35F88H27LFDDBEYO0","AS2MFSWNC5CQI","30UZJB2POHY4464FN6NBJ2NLFWF354","","null","<img src=""img/land4.png"" style=""width:200px; border:14px solid green;"">","null","","","","","","","","","",""
"","image-keyboard-response","20","20445","0.0-20.0","39KFRKBFIOHTE35F88H27LFDDBEYO0","AS2MFSWNC5CQI","30UZJB2POHY4464FN6NBJ2NLFWF354","","575.5","img/land4.png","76","577.4000000953674","3","1","3","1","0.8,0.2,0.2,0.2,0.8,0.2,0.2,0.2,0.8","0.8,0.2,0.2,0.2,0.8,0.2,0.2,0.2,0.8","1","",""
"","html-keyboard-response","21","20755","0.0-21.0","39KFRKBFIOHTE35F88H27LFDDBEYO0","AS2MFSWNC5CQI","30UZJB2POHY4464FN6NBJ2NLFWF354","","null","<img src=""img/land4.png"" style=""width:200px; border:14px solid green;"">","null","","","","","","","","","",""
"","image-keyboard-response","22","21549","0.0-22.0","39KFRKBFIOHTE35F88H27LFDDBEYO0","AS2MFSWNC5CQI","30UZJB2POHY4464FN6NBJ2NLFWF354","","792.1000001430511","img/land5.png","75","793.7000000476837","2","1","2","1","0.8,0.2,0.2,0.2,0.8,0.2,0.2,0.2,0.8","0.8,0.2,0.2,0.2,0.8,0.2,0.2,0.2,0.8","1","",""
"","html-keyboard-response","23","21857","0.0-23.0","39KFRKBFIOHTE35F88H27LFDDBEYO0","AS2MFSWNC5CQI","30UZJB2POHY4464FN6NBJ2NLFWF354","","null","<img src=""img/land5.png"" style=""width:200px; border:14px solid green;"">","null","","","","","","","","","",""
"","image-keyboard-response","24","22484","0.0-24.0","39KFRKBFIOHTE35F88H27LFDDBEYO0","AS2MFSWNC5CQI","30UZJB2POHY4464FN6NBJ2NLFWF354","","624.7999999523163","img/land4.png","76","626.2999999523163","3","1","3","1","0.8,0.2,0.2,0.2,0.8,0.2,0.2,0.2,0.8","0.8,0.2,0.2,0.2,0.8,0.2,0.2,0.2,0.8","1","",""
"","html-keyboard-response","25","22790","0.0-25.0","39KFRKBFIOHTE35F88H27LFDDBEYO0","AS2MFSWNC5CQI","30UZJB2POHY4464FN6NBJ2NLFWF354","","null","<img src=""img/land4.png"" style=""width:200px; border:14px solid green;"">","null","","","","","","","","","",""
"","image-keyboard-response","26","23403","0.0-26.0","39KFRKBFIOHTE35F88H27LFDDBEYO0","AS2MFSWNC5CQI","30UZJB2POHY4464FN6NBJ2NLFWF354","","611.0999999046326","img/land5.png","76","612.2999999523163","3","0","2","1","0.8,0.2,0.2,0.2,0.8,0.2,0.2,0.2,0.8","0.8,0.2,0.2,0.2,0.8,0.2,0.2,0.2,0.8","1","",""
"","html-keyboard-response","27","23706","0.0-27.0","39KFRKBFIOHTE35F88H27LFDDBEYO0","AS2MFSWNC5CQI","30UZJB2POHY4464FN6NBJ2NLFWF354","","null","<img src=""img/land5.png"" style=""width:200px;border:14px solid red;"">","null","","","","","","","","","",""
"","image-keyboard-response","28","24540","0.0-28.0","39KFRKBFIOHTE35F88H27LFDDBEYO0","AS2MFSWNC5CQI","30UZJB2POHY4464FN6NBJ2NLFWF354","","832.9000000953674","img/land2.png","74","834.3000001907349","1","1","1","1","0.8,0.2,0.2,0.2,0.8,0.2,0.2,0.2,0.8","0.8,0.2,0.2,0.2,0.8,0.2,0.2,0.2,0.8","1","",""
"","html-keyboard-response","29","24853","0.0-29.0","39KFRKBFIOHTE35F88H27LFDDBEYO0","AS2MFSWNC5CQI","30UZJB2POHY4464FN6NBJ2NLFWF354","","null","<img src=""img/land2.png"" style=""width:200px; border:14px solid green;"">","null","","","","","","","","","",""
"","image-keyboard-response","30","25804","0.0-30.0","39KFRKBFIOHTE35F88H27LFDDBEYO0","AS2MFSWNC5CQI","30UZJB2POHY4464FN6NBJ2NLFWF354","","948.6999998092651","img/land4.png","76","950.1000001430511","3","0","3","1","0.8,0.2,0.2,0.2,0.8,0.2,0.2,0.2,0.8","0.8,0.2,0.2,0.2,0.8,0.2,0.2,0.2,0.8","1","",""
"","html-keyboard-response","31","26107","0.0-31.0","39KFRKBFIOHTE35F88H27LFDDBEYO0","AS2MFSWNC5CQI","30UZJB2POHY4464FN6NBJ2NLFWF354","","null","<img src=""img/land4.png"" style=""width:200px;border:14px solid red;"">","null","","","","","","","","","",""
"","image-keyboard-response","32","27221","0.0-32.0","39KFRKBFIOHTE35F88H27LFDDBEYO0","AS2MFSWNC5CQI","30UZJB2POHY4464FN6NBJ2NLFWF354","","1113.3999998569489","img/land4.png","74","1114.2000000476837","1","0","3","1","0.8,0.2,0.2,0.2,0.8,0.2,0.2,0.2,0.8","0.8,0.2,0.2,0.2,0.8,0.2,0.2,0.2,0.8","1","",""
"","html-keyboard-response","33","27537","0.0-33.0","39KFRKBFIOHTE35F88H27LFDDBEYO0","AS2MFSWNC5CQI","30UZJB2POHY4464FN6NBJ2NLFWF354","","null","<img src=""img/land4.png"" style=""width:200px;border:14px solid red;"">","null","","","","","","","","","",""
"","image-keyboard-response","34","28268","0.0-34.0","39KFRKBFIOHTE35F88H27LFDDBEYO0","AS2MFSWNC5CQI","30UZJB2POHY4464FN6NBJ2NLFWF354","","729.9000000953674","img/land5.png","75","731","2","1","2","1","0.8,0.2,0.2,0.2,0.8,0.2,0.2,0.2,0.8","0.8,0.2,0.2,0.2,0.8,0.2,0.2,0.2,0.8","1","",""
"","html-keyboard-response","35","28572","0.0-35.0","39KFRKBFIOHTE35F88H27LFDDBEYO0","AS2MFSWNC5CQI","30UZJB2POHY4464FN6NBJ2NLFWF354","","null","<img src=""img/land5.png"" style=""width:200px; border:14px solid green;"">","null","","","","","","","","","",""
"","image-keyboard-response","36","29140","0.0-36.0","39KFRKBFIOHTE35F88H27LFDDBEYO0","AS2MFSWNC5CQI","30UZJB2POHY4464FN6NBJ2NLFWF354","","567.2000000476837","img/land5.png","75","567.9000000953674","2","1","2","1","0.8,0.2,0.2,0.2,0.8,0.2,0.2,0.2,0.8","0.8,0.2,0.2,0.2,0.8,0.2,0.2,0.2,0.8","1","",""
"","html-keyboard-response","37","29442","0.0-37.0","39KFRKBFIOHTE35F88H27LFDDBEYO0","AS2MFSWNC5CQI","30UZJB2POHY4464FN6NBJ2NLFWF354","","null","<img src=""img/land5.png"" style=""width:200px; border:14px solid green;"">","null","","","","","","","","","",""
"","image-keyboard-response","38","30725","0.0-38.0","39KFRKBFIOHTE35F88H27LFDDBEYO0","AS2MFSWNC5CQI","30UZJB2POHY4464FN6NBJ2NLFWF354","","1281.2999999523163","img/land2.png","74","1282.7999999523163","1","0","1","1","0.8,0.2,0.2,0.2,0.8,0.2,0.2,0.2,0.8","0.8,0.2,0.2,0.2,0.8,0.2,0.2,0.2,0.8","1","",""
"","html-keyboard-response","39","31028","0.0-39.0","39KFRKBFIOHTE35F88H27LFDDBEYO0","AS2MFSWNC5CQI","30UZJB2POHY4464FN6NBJ2NLFWF354","","null","<img src=""img/land2.png"" style=""width:200px;border:14px solid red;"">","null","","","","","","","","","",""
"","image-keyboard-response","40","32116","0.0-40.0","39KFRKBFIOHTE35F88H27LFDDBEYO0","AS2MFSWNC5CQI","30UZJB2POHY4464FN6NBJ2NLFWF354","","1086","img/land4.png","76","1087.2999999523163","3","0","3","1","0.8,0.2,0.2,0.2,0.8,0.2,0.2,0.2,0.8","0.8,0.2,0.2,0.2,0.8,0.2,0.2,0.2,0.8","1","",""
"","html-keyboard-response","41","32418","0.0-41.0","39KFRKBFIOHTE35F88H27LFDDBEYO0","AS2MFSWNC5CQI","30UZJB2POHY4464FN6NBJ2NLFWF354","","null","<img src=""img/land4.png"" style=""width:200px;border:14px solid red;"">","null","","","","","","","","","",""
"","image-keyboard-response","42","33690","0.0-42.0","39KFRKBFIOHTE35F88H27LFDDBEYO0","AS2MFSWNC5CQI","30UZJB2POHY4464FN6NBJ2NLFWF354","","1271","img/land4.png","74","1272","1","1","3","1","0.8,0.2,0.2,0.2,0.8,0.2,0.2,0.2,0.8","0.8,0.2,0.2,0.2,0.8,0.2,0.2,0.2,0.8","1","",""
"","html-keyboard-response","43","33993","0.0-43.0","39KFRKBFIOHTE35F88H27LFDDBEYO0","AS2MFSWNC5CQI","30UZJB2POHY4464FN6NBJ2NLFWF354","","null","<img src=""img/land4.png"" style=""width:200px; border:14px solid green;"">","null","","","","","","","","","",""
"","image-keyboard-response","44","34708","0.0-44.0","39KFRKBFIOHTE35F88H27LFDDBEYO0","AS2MFSWNC5CQI","30UZJB2POHY4464FN6NBJ2NLFWF354","","714.0999999046326","img/land5.png","75","714.9000000953674","2","1","2","1","0.8,0.2,0.2,0.2,0.8,0.2,0.2,0.2,0.8","0.8,0.2,0.2,0.2,0.8,0.2,0.2,0.2,0.8","1","",""
"","html-keyboard-response","45","35010","0.0-45.0","39KFRKBFIOHTE35F88H27LFDDBEYO0","AS2MFSWNC5CQI","30UZJB2POHY4464FN6NBJ2NLFWF354","","null","<img src=""img/land5.png"" style=""width:200px; border:14px solid green;"">","null","","","","","","","","","",""
"","image-keyboard-response","46","35602","0.0-46.0","39KFRKBFIOHTE35F88H27LFDDBEYO0","AS2MFSWNC5CQI","30UZJB2POHY4464FN6NBJ2NLFWF354","","591.7999999523163","img/land4.png","74","592.4000000953674","1","0","3","1","0.8,0.2,0.2,0.2,0.8,0.2,0.2,0.2,0.8","0.8,0.2,0.2,0.2,0.8,0.2,0.2,0.2,0.8","1","",""
"","html-keyboard-response","47","35903","0.0-47.0","39KFRKBFIOHTE35F88H27LFDDBEYO0","AS2MFSWNC5CQI","30UZJB2POHY4464FN6NBJ2NLFWF354","","null","<img src=""img/land4.png"" style=""width:200px;border:14px solid red;"">","null","","","","","","","","","",""
"","image-keyboard-response","48","36660","0.0-48.0","39KFRKBFIOHTE35F88H27LFDDBEYO0","AS2MFSWNC5CQI","30UZJB2POHY4464FN6NBJ2NLFWF354","","754.7000000476837","img/land5.png","75","756.2000000476837","2","1","2","1","0.8,0.2,0.2,0.2,0.8,0.2,0.2,0.2,0.8","0.8,0.2,0.2,0.2,0.8,0.2,0.2,0.2,0.8","1","",""
"","html-keyboard-response","49","36962","0.0-49.0","39KFRKBFIOHTE35F88H27LFDDBEYO0","AS2MFSWNC5CQI","30UZJB2POHY4464FN6NBJ2NLFWF354","","null","<img src=""img/land5.png"" style=""width:200px; border:14px solid green;"">","null","","","","","","","","","",""
"","image-keyboard-response","50","37812","0.0-50.0","39KFRKBFIOHTE35F88H27LFDDBEYO0","AS2MFSWNC5CQI","30UZJB2POHY4464FN6NBJ2NLFWF354","","847.5","img/land4.png","76","848.8999998569489","3","1","3","1","0.8,0.2,0.2,0.2,0.8,0.2,0.2,0.2,0.8","0.8,0.2,0.2,0.2,0.8,0.2,0.2,0.2,0.8","1","",""
"","html-keyboard-response","51","38113","0.0-51.0","39KFRKBFIOHTE35F88H27LFDDBEYO0","AS2MFSWNC5CQI","30UZJB2POHY4464FN6NBJ2NLFWF354","","null","<img src=""img/land4.png"" style=""width:200px; border:14px solid green;"">","null","","","","","","","","","",""
"","image-keyboard-response","52","38978","0.0-52.0","39KFRKBFIOHTE35F88H27LFDDBEYO0","AS2MFSWNC5CQI","30UZJB2POHY4464FN6NBJ2NLFWF354","","863.6000001430511","img/land2.png","74","864.7999999523163","1","1","1","1","0.8,0.2,0.2,0.2,0.8,0.2,0.2,0.2,0.8","0.8,0.2,0.2,0.2,0.8,0.2,0.2,0.2,0.8","1","",""
"","html-keyboard-response","53","39280","0.0-53.0","39KFRKBFIOHTE35F88H27LFDDBEYO0","AS2MFSWNC5CQI","30UZJB2POHY4464FN6NBJ2NLFWF354","","null","<img src=""img/land2.png"" style=""width:200px; border:14px solid green;"">","null","","","","","","","","","",""
"","image-keyboard-response","54","39868","0.0-54.0","39KFRKBFIOHTE35F88H27LFDDBEYO0","AS2MFSWNC5CQI","30UZJB2POHY4464FN6NBJ2NLFWF354","","586.4000000953674","img/land2.png","74","587.8000001907349","1","1","1","1","0.8,0.2,0.2,0.2,0.8,0.2,0.2,0.2,0.8","0.8,0.2,0.2,0.2,0.8,0.2,0.2,0.2,0.8","1","",""
"","html-keyboard-response","55","40170","0.0-55.0","39KFRKBFIOHTE35F88H27LFDDBEYO0","AS2MFSWNC5CQI","30UZJB2POHY4464FN6NBJ2NLFWF354","","null","<img src=""img/land2.png"" style=""width:200px; border:14px solid green;"">","null","","","","","","","","","",""
"","image-keyboard-response","56","40772","0.0-56.0","39KFRKBFIOHTE35F88H27LFDDBEYO0","AS2MFSWNC5CQI","30UZJB2POHY4464FN6NBJ2NLFWF354","","600.0999999046326","img/land5.png","75","601.4000000953674","2","0","2","1","0.8,0.2,0.2,0.2,0.8,0.2,0.2,0.2,0.8","0.8,0.2,0.2,0.2,0.8,0.2,0.2,0.2,0.8","1","",""
"","html-keyboard-response","57","41075","0.0-57.0","39KFRKBFIOHTE35F88H27LFDDBEYO0","AS2MFSWNC5CQI","30UZJB2POHY4464FN6NBJ2NLFWF354","","null","<img src=""img/land5.png"" style=""width:200px;border:14px solid red;"">","null","","","","","","","","","",""
"","image-keyboard-response","58","42356","0.0-58.0","39KFRKBFIOHTE35F88H27LFDDBEYO0","AS2MFSWNC5CQI","30UZJB2POHY4464FN6NBJ2NLFWF354","","1279.3000001907349","img/land4.png","76","1280.5","3","0","3","1","0.8,0.2,0.2,0.2,0.8,0.2,0.2,0.2,0.8","0.8,0.2,0.2,0.2,0.8,0.2,0.2,0.2,0.8","1","",""
"","html-keyboard-response","59","42658","0.0-59.0","39KFRKBFIOHTE35F88H27LFDDBEYO0","AS2MFSWNC5CQI","30UZJB2POHY4464FN6NBJ2NLFWF354","","null","<img src=""img/land4.png"" style=""width:200px;border:14px solid red;"">","null","","","","","","","","","",""
"","image-keyboard-response","60","43285","0.0-60.0","39KFRKBFIOHTE35F88H27LFDDBEYO0","AS2MFSWNC5CQI","30UZJB2POHY4464FN6NBJ2NLFWF354","","625.0999999046326","img/land2.png","74","626.5","1","1","1","1","0.8,0.2,0.2,0.2,0.8,0.2,0.2,0.2,0.8","0.8,0.2,0.2,0.2,0.8,0.2,0.2,0.2,0.8","1","",""
"","html-keyboard-response","61","43587","0.0-61.0","39KFRKBFIOHTE35F88H27LFDDBEYO0","AS2MFSWNC5CQI","30UZJB2POHY4464FN6NBJ2NLFWF354","","null","<img src=""img/land2.png"" style=""width:200px; border:14px solid green;"">","null","","","","","","","","","",""
"","image-keyboard-response","62","44316","0.0-62.0","39KFRKBFIOHTE35F88H27LFDDBEYO0","AS2MFSWNC5CQI","30UZJB2POHY4464FN6NBJ2NLFWF354","","728.5","img/land5.png","75","729.2999999523163","2","0","2","1","0.8,0.2,0.2,0.2,0.8,0.2,0.2,0.2,0.8","0.8,0.2,0.2,0.2,0.8,0.2,0.2,0.2,0.8","1","",""
"","html-keyboard-response","63","44618","0.0-63.0","39KFRKBFIOHTE35F88H27LFDDBEYO0","AS2MFSWNC5CQI","30UZJB2POHY4464FN6NBJ2NLFWF354","","null","<img src=""img/land5.png"" style=""width:200px;border:14px solid red;"">","null","","","","","","","","","",""
"","image-keyboard-response","64","46490","0.0-64.0","39KFRKBFIOHTE35F88H27LFDDBEYO0","AS2MFSWNC5CQI","30UZJB2POHY4464FN6NBJ2NLFWF354","","1870.8999998569489","img/land2.png","74","1871.7000000476837","1","1","1","1","0.8,0.2,0.2,0.2,0.8,0.2,0.2,0.2,0.8","0.8,0.2,0.2,0.2,0.8,0.2,0.2,0.2,0.8","1","",""
"","html-keyboard-response","65","46792","0.0-65.0","39KFRKBFIOHTE35F88H27LFDDBEYO0","AS2MFSWNC5CQI","30UZJB2POHY4464FN6NBJ2NLFWF354","","null","<img src=""img/land2.png"" style=""width:200px; border:14px solid green;"">","null","","","","","","","","","",""
"","image-keyboard-response","66","47643","0.0-66.0","39KFRKBFIOHTE35F88H27LFDDBEYO0","AS2MFSWNC5CQI","30UZJB2POHY4464FN6NBJ2NLFWF354","","849.2000000476837","img/land5.png","76","850.3000001907349","3","1","2","1","0.8,0.2,0.2,0.2,0.8,0.2,0.2,0.2,0.8","0.8,0.2,0.2,0.2,0.8,0.2,0.2,0.2,0.8","1","",""
"","html-keyboard-response","67","47945","0.0-67.0","39KFRKBFIOHTE35F88H27LFDDBEYO0","AS2MFSWNC5CQI","30UZJB2POHY4464FN6NBJ2NLFWF354","","null","<img src=""img/land5.png"" style=""width:200px; border:14px solid green;"">","null","","","","","","","","","",""
"","image-keyboard-response","68","48571","0.0-68.0","39KFRKBFIOHTE35F88H27LFDDBEYO0","AS2MFSWNC5CQI","30UZJB2POHY4464FN6NBJ2NLFWF354","","624.6000001430511","img/land5.png","76","625.5","3","0","2","1","0.8,0.2,0.2,0.2,0.8,0.2,0.2,0.2,0.8","0.8,0.2,0.2,0.2,0.8,0.2,0.2,0.2,0.8","1","",""
"","html-keyboard-response","69","48873","0.0-69.0","39KFRKBFIOHTE35F88H27LFDDBEYO0","AS2MFSWNC5CQI","30UZJB2POHY4464FN6NBJ2NLFWF354","","null","<img src=""img/land5.png"" style=""width:200px;border:14px solid red;"">","null","","","","","","","","","",""
"","image-keyboard-response","70","50650","0.0-70.0","39KFRKBFIOHTE35F88H27LFDDBEYO0","AS2MFSWNC5CQI","30UZJB2POHY4464FN6NBJ2NLFWF354","","1775.7000000476837","img/land4.png","74","1776.7999999523163","1","0","3","1","0.8,0.2,0.2,0.2,0.8,0.2,0.2,0.2,0.8","0.8,0.2,0.2,0.2,0.8,0.2,0.2,0.2,0.8","1","",""
"","html-keyboard-response","71","50965","0.0-71.0","39KFRKBFIOHTE35F88H27LFDDBEYO0","AS2MFSWNC5CQI","30UZJB2POHY4464FN6NBJ2NLFWF354","","null","<img src=""img/land4.png"" style=""width:200px;border:14px solid red;"">","null","","","","","","","","","",""
"","image-keyboard-response","72","51342","0.0-72.0","39KFRKBFIOHTE35F88H27LFDDBEYO0","AS2MFSWNC5CQI","30UZJB2POHY4464FN6NBJ2NLFWF354","","374.7000000476837","img/land2.png","75","376.09999990463257","2","1","1","1","0.8,0.2,0.2,0.2,0.8,0.2,0.2,0.2,0.8","0.8,0.2,0.2,0.2,0.8,0.2,0.2,0.2,0.8","1","",""
"","html-keyboard-response","73","51645","0.0-73.0","39KFRKBFIOHTE35F88H27LFDDBEYO0","AS2MFSWNC5CQI","30UZJB2POHY4464FN6NBJ2NLFWF354","","null","<img src=""img/land2.png"" style=""width:200px; border:14px solid green;"">","null","","","","","","","","","",""
"","image-keyboard-response","74","53187","0.0-74.0","39KFRKBFIOHTE35F88H27LFDDBEYO0","AS2MFSWNC5CQI","30UZJB2POHY4464FN6NBJ2NLFWF354","","1540.1000001430511","img/land4.png","74","1541.2999999523163","1","0","3","1","0.8,0.2,0.2,0.2,0.8,0.2,0.2,0.2,0.8","0.8,0.2,0.2,0.2,0.8,0.2,0.2,0.2,0.8","1","",""
"","html-keyboard-response","75","53488","0.0-75.0","39KFRKBFIOHTE35F88H27LFDDBEYO0","AS2MFSWNC5CQI","30UZJB2POHY4464FN6NBJ2NLFWF354","","null","<img src=""img/land4.png"" style=""width:200px;border:14px solid red;"">","null","","","","","","","","","",""
"","image-keyboard-response","76","54211","0.0-76.0","39KFRKBFIOHTE35F88H27LFDDBEYO0","AS2MFSWNC5CQI","30UZJB2POHY4464FN6NBJ2NLFWF354","","721.7999999523163","img/land5.png","75","723","2","0","2","1","0.8,0.2,0.2,0.2,0.8,0.2,0.2,0.2,0.8","0.8,0.2,0.2,0.2,0.8,0.2,0.2,0.2,0.8","1","",""
"","html-keyboard-response","77","54514","0.0-77.0","39KFRKBFIOHTE35F88H27LFDDBEYO0","AS2MFSWNC5CQI","30UZJB2POHY4464FN6NBJ2NLFWF354","","null","<img src=""img/land5.png"" style=""width:200px;border:14px solid red;"">","null","","","","","","","","","",""
"","image-keyboard-response","78","54970","0.0-78.0","39KFRKBFIOHTE35F88H27LFDDBEYO0","AS2MFSWNC5CQI","30UZJB2POHY4464FN6NBJ2NLFWF354","","454.40000009536743","img/land4.png","76","455.5","3","1","3","1","0.8,0.2,0.2,0.2,0.8,0.2,0.2,0.2,0.8","0.8,0.2,0.2,0.2,0.8,0.2,0.2,0.2,0.8","1","",""
"","html-keyboard-response","79","55271","0.0-79.0","39KFRKBFIOHTE35F88H27LFDDBEYO0","AS2MFSWNC5CQI","30UZJB2POHY4464FN6NBJ2NLFWF354","","null","<img src=""img/land4.png"" style=""width:200px; border:14px solid green;"">","null","","","","","","","","","",""
"","image-keyboard-response","80","56109","0.0-80.0","39KFRKBFIOHTE35F88H27LFDDBEYO0","AS2MFSWNC5CQI","30UZJB2POHY4464FN6NBJ2NLFWF354","","836.5","img/land5.png","75","837.2999999523163","2","1","2","1","0.8,0.2,0.2,0.2,0.8,0.2,0.2,0.2,0.8","0.8,0.2,0.2,0.2,0.8,0.2,0.2,0.2,0.8","1","",""
"","html-keyboard-response","81","56411","0.0-81.0","39KFRKBFIOHTE35F88H27LFDDBEYO0","AS2MFSWNC5CQI","30UZJB2POHY4464FN6NBJ2NLFWF354","","null","<img src=""img/land5.png"" style=""width:200px; border:14px solid green;"">","null","","","","","","","","","",""
"","image-keyboard-response","82","57652","0.0-82.0","39KFRKBFIOHTE35F88H27LFDDBEYO0","AS2MFSWNC5CQI","30UZJB2POHY4464FN6NBJ2NLFWF354","","1238.2999999523163","img/land4.png","74","1239.7999999523163","1","1","3","1","0.8,0.2,0.2,0.2,0.8,0.2,0.2,0.2,0.8","0.8,0.2,0.2,0.2,0.8,0.2,0.2,0.2,0.8","1","",""
"","html-keyboard-response","83","57954","0.0-83.0","39KFRKBFIOHTE35F88H27LFDDBEYO0","AS2MFSWNC5CQI","30UZJB2POHY4464FN6NBJ2NLFWF354","","null","<img src=""img/land4.png"" style=""width:200px; border:14px solid green;"">","null","","","","","","","","","",""
"","image-keyboard-response","84","58787","0.0-84.0","39KFRKBFIOHTE35F88H27LFDDBEYO0","AS2MFSWNC5CQI","30UZJB2POHY4464FN6NBJ2NLFWF354","","832.8000001907349","img/land5.png","75","833.7000000476837","2","1","2","1","0.8,0.2,0.2,0.2,0.8,0.2,0.2,0.2,0.8","0.8,0.2,0.2,0.2,0.8,0.2,0.2,0.2,0.8","1","",""
"","html-keyboard-response","85","59090","0.0-85.0","39KFRKBFIOHTE35F88H27LFDDBEYO0","AS2MFSWNC5CQI","30UZJB2POHY4464FN6NBJ2NLFWF354","","null","<img src=""img/land5.png"" style=""width:200px; border:14px solid green;"">","null","","","","","","","","","",""
"","image-keyboard-response","86","59587","0.0-86.0","39KFRKBFIOHTE35F88H27LFDDBEYO0","AS2MFSWNC5CQI","30UZJB2POHY4464FN6NBJ2NLFWF354","","495.69999980926514","img/land5.png","75","496.7000000476837","2","0","2","1","0.8,0.2,0.2,0.2,0.8,0.2,0.2,0.2,0.8","0.8,0.2,0.2,0.2,0.8,0.2,0.2,0.2,0.8","1","",""
"","html-keyboard-response","87","59888","0.0-87.0","39KFRKBFIOHTE35F88H27LFDDBEYO0","AS2MFSWNC5CQI","30UZJB2POHY4464FN6NBJ2NLFWF354","","null","<img src=""img/land5.png"" style=""width:200px;border:14px solid red;"">","null","","","","","","","","","",""
"","image-keyboard-response","88","60643","0.0-88.0","39KFRKBFIOHTE35F88H27LFDDBEYO0","AS2MFSWNC5CQI","30UZJB2POHY4464FN6NBJ2NLFWF354","","754.7999999523163","img/land2.png","74","755.7000000476837","1","1","1","1","0.8,0.2,0.2,0.2,0.8,0.2,0.2,0.2,0.8","0.8,0.2,0.2,0.2,0.8,0.2,0.2,0.2,0.8","1","",""
"","html-keyboard-response","89","60947","0.0-89.0","39KFRKBFIOHTE35F88H27LFDDBEYO0","AS2MFSWNC5CQI","30UZJB2POHY4464FN6NBJ2NLFWF354","","null","<img src=""img/land2.png"" style=""width:200px; border:14px solid green;"">","null","","","","","","","","","",""
"","image-keyboard-response","90","61764","0.0-90.0","39KFRKBFIOHTE35F88H27LFDDBEYO0","AS2MFSWNC5CQI","30UZJB2POHY4464FN6NBJ2NLFWF354","","815.9000000953674","img/land5.png","75","816.5999999046326","2","1","2","1","0.8,0.2,0.2,0.2,0.8,0.2,0.2,0.2,0.8","0.8,0.2,0.2,0.2,0.8,0.2,0.2,0.2,0.8","1","",""
"","html-keyboard-response","91","62067","0.0-91.0","39KFRKBFIOHTE35F88H27LFDDBEYO0","AS2MFSWNC5CQI","30UZJB2POHY4464FN6NBJ2NLFWF354","","null","<img src=""img/land5.png"" style=""width:200px; border:14px solid green;"">","null","","","","","","","","","",""
"","image-keyboard-response","92","62954","0.0-92.0","39KFRKBFIOHTE35F88H27LFDDBEYO0","AS2MFSWNC5CQI","30UZJB2POHY4464FN6NBJ2NLFWF354","","886.1000001430511","img/land2.png","75","887.2999999523163","2","0","1","1","0.8,0.2,0.2,0.2,0.8,0.2,0.2,0.2,0.8","0.8,0.2,0.2,0.2,0.8,0.2,0.2,0.2,0.8","1","",""
"","html-keyboard-response","93","63256","0.0-93.0","39KFRKBFIOHTE35F88H27LFDDBEYO0","AS2MFSWNC5CQI","30UZJB2POHY4464FN6NBJ2NLFWF354","","null","<img src=""img/land2.png"" style=""width:200px;border:14px solid red;"">","null","","","","","","","","","",""
"","image-keyboard-response","94","63764","0.0-94.0","39KFRKBFIOHTE35F88H27LFDDBEYO0","AS2MFSWNC5CQI","30UZJB2POHY4464FN6NBJ2NLFWF354","","506.09999990463257","img/land2.png","76","507.59999990463257","3","0","1","1","0.8,0.2,0.2,0.2,0.8,0.2,0.2,0.2,0.8","0.8,0.2,0.2,0.2,0.8,0.2,0.2,0.2,0.8","1","",""
"","html-keyboard-response","95","64066","0.0-95.0","39KFRKBFIOHTE35F88H27LFDDBEYO0","AS2MFSWNC5CQI","30UZJB2POHY4464FN6NBJ2NLFWF354","","null","<img src=""img/land2.png"" style=""width:200px;border:14px solid red;"">","null","","","","","","","","","",""
"","image-keyboard-response","96","64917","0.0-96.0","39KFRKBFIOHTE35F88H27LFDDBEYO0","AS2MFSWNC5CQI","30UZJB2POHY4464FN6NBJ2NLFWF354","","849.2000000476837","img/land5.png","75","850.6000001430511","2","1","2","1","0.8,0.2,0.2,0.2,0.8,0.2,0.2,0.2,0.8","0.8,0.2,0.2,0.2,0.8,0.2,0.2,0.2,0.8","1","",""
"","html-keyboard-response","97","65220","0.0-97.0","39KFRKBFIOHTE35F88H27LFDDBEYO0","AS2MFSWNC5CQI","30UZJB2POHY4464FN6NBJ2NLFWF354","","null","<img src=""img/land5.png"" style=""width:200px; border:14px solid green;"">","null","","","","","","","","","",""
"","image-keyboard-response","98","65740","0.0-98.0","39KFRKBFIOHTE35F88H27LFDDBEYO0","AS2MFSWNC5CQI","30UZJB2POHY4464FN6NBJ2NLFWF354","","519.2999999523163","img/land5.png","75","520.5","2","1","2","1","0.8,0.2,0.2,0.2,0.8,0.2,0.2,0.2,0.8","0.8,0.2,0.2,0.2,0.8,0.2,0.2,0.2,0.8","1","",""
"","html-keyboard-response","99","66043","0.0-99.0","39KFRKBFIOHTE35F88H27LFDDBEYO0","AS2MFSWNC5CQI","30UZJB2POHY4464FN6NBJ2NLFWF354","","null","<img src=""img/land5.png"" style=""width:200px; border:14px solid green;"">","null","","","","","","","","","",""
"","image-keyboard-response","100","66643","0.0-100.0","39KFRKBFIOHTE35F88H27LFDDBEYO0","AS2MFSWNC5CQI","30UZJB2POHY4464FN6NBJ2NLFWF354","","599.8999998569489","img/land2.png","74","600.7000000476837","1","1","1","1","0.8,0.2,0.2,0.2,0.8,0.2,0.2,0.2,0.8","0.8,0.2,0.2,0.2,0.8,0.2,0.2,0.2,0.8","1","",""
"","html-keyboard-response","101","66946","0.0-101.0","39KFRKBFIOHTE35F88H27LFDDBEYO0","AS2MFSWNC5CQI","30UZJB2POHY4464FN6NBJ2NLFWF354","","null","<img src=""img/land2.png"" style=""width:200px; border:14px solid green;"">","null","","","","","","","","","",""
"","image-keyboard-response","102","67780","0.0-102.0","39KFRKBFIOHTE35F88H27LFDDBEYO0","AS2MFSWNC5CQI","30UZJB2POHY4464FN6NBJ2NLFWF354","","831.7999999523163","img/land4.png","74","833","1","0","3","1","0.8,0.2,0.2,0.2,0.8,0.2,0.2,0.2,0.8","0.8,0.2,0.2,0.2,0.8,0.2,0.2,0.2,0.8","1","",""
"","html-keyboard-response","103","68082","0.0-103.0","39KFRKBFIOHTE35F88H27LFDDBEYO0","AS2MFSWNC5CQI","30UZJB2POHY4464FN6NBJ2NLFWF354","","null","<img src=""img/land4.png"" style=""width:200px;border:14px solid red;"">","null","","","","","","","","","",""
"","image-keyboard-response","104","68602","0.0-104.0","39KFRKBFIOHTE35F88H27LFDDBEYO0","AS2MFSWNC5CQI","30UZJB2POHY4464FN6NBJ2NLFWF354","","519","img/land2.png","75","520.0999999046326","2","0","1","1","0.8,0.2,0.2,0.2,0.8,0.2,0.2,0.2,0.8","0.8,0.2,0.2,0.2,0.8,0.2,0.2,0.2,0.8","1","",""
"","html-keyboard-response","105","68905","0.0-105.0","39KFRKBFIOHTE35F88H27LFDDBEYO0","AS2MFSWNC5CQI","30UZJB2POHY4464FN6NBJ2NLFWF354","","null","<img src=""img/land2.png"" style=""width:200px;border:14px solid red;"">","null","","","","","","","","","",""
"","image-keyboard-response","106","69259","0.0-106.0","39KFRKBFIOHTE35F88H27LFDDBEYO0","AS2MFSWNC5CQI","30UZJB2POHY4464FN6NBJ2NLFWF354","","352.7999999523163","img/land4.png","76","354","3","1","3","1","0.8,0.2,0.2,0.2,0.8,0.2,0.2,0.2,0.8","0.8,0.2,0.2,0.2,0.8,0.2,0.2,0.2,0.8","1","",""
"","html-keyboard-response","107","69560","0.0-107.0","39KFRKBFIOHTE35F88H27LFDDBEYO0","AS2MFSWNC5CQI","30UZJB2POHY4464FN6NBJ2NLFWF354","","null","<img src=""img/land4.png"" style=""width:200px; border:14px solid green;"">","null","","","","","","","","","",""
"","image-keyboard-response","108","70114","0.0-108.0","39KFRKBFIOHTE35F88H27LFDDBEYO0","AS2MFSWNC5CQI","30UZJB2POHY4464FN6NBJ2NLFWF354","","553.3999998569489","img/land4.png","76","553.8999998569489","3","1","3","1","0.8,0.2,0.2,0.2,0.8,0.2,0.2,0.2,0.8","0.8,0.2,0.2,0.2,0.8,0.2,0.2,0.2,0.8","1","",""
"","html-keyboard-response","109","70416","0.0-109.0","39KFRKBFIOHTE35F88H27LFDDBEYO0","AS2MFSWNC5CQI","30UZJB2POHY4464FN6NBJ2NLFWF354","","null","<img src=""img/land4.png"" style=""width:200px; border:14px solid green;"">","null","","","","","","","","","",""
"","image-keyboard-response","110","71235","0.0-110.0","39KFRKBFIOHTE35F88H27LFDDBEYO0","AS2MFSWNC5CQI","30UZJB2POHY4464FN6NBJ2NLFWF354","","818.8000001907349","img/land5.png","75","819.7000000476837","2","1","2","1","0.8,0.2,0.2,0.2,0.8,0.2,0.2,0.2,0.8","0.8,0.2,0.2,0.2,0.8,0.2,0.2,0.2,0.8","1","",""
"","html-keyboard-response","111","71538","0.0-111.0","39KFRKBFIOHTE35F88H27LFDDBEYO0","AS2MFSWNC5CQI","30UZJB2POHY4464FN6NBJ2NLFWF354","","null","<img src=""img/land5.png"" style=""width:200px; border:14px solid green;"">","null","","","","","","","","","",""
"","image-keyboard-response","112","72203","0.0-112.0","39KFRKBFIOHTE35F88H27LFDDBEYO0","AS2MFSWNC5CQI","30UZJB2POHY4464FN6NBJ2NLFWF354","","663.2000000476837","img/land2.png","76","664.2999999523163","3","0","1","1","0.8,0.2,0.2,0.2,0.8,0.2,0.2,0.2,0.8","0.8,0.2,0.2,0.2,0.8,0.2,0.2,0.2,0.8","1","",""
"","html-keyboard-response","113","72504","0.0-113.0","39KFRKBFIOHTE35F88H27LFDDBEYO0","AS2MFSWNC5CQI","30UZJB2POHY4464FN6NBJ2NLFWF354","","null","<img src=""img/land2.png"" style=""width:200px;border:14px solid red;"">","null","","","","","","","","","",""
"","image-keyboard-response","114","73122","0.0-114.0","39KFRKBFIOHTE35F88H27LFDDBEYO0","AS2MFSWNC5CQI","30UZJB2POHY4464FN6NBJ2NLFWF354","","616.4000000953674","img/land4.png","74","617.5","1","0","3","1","0.8,0.2,0.2,0.2,0.8,0.2,0.2,0.2,0.8","0.8,0.2,0.2,0.2,0.8,0.2,0.2,0.2,0.8","1","",""
"","html-keyboard-response","115","73424","0.0-115.0","39KFRKBFIOHTE35F88H27LFDDBEYO0","AS2MFSWNC5CQI","30UZJB2POHY4464FN6NBJ2NLFWF354","","null","<img src=""img/land4.png"" style=""width:200px;border:14px solid red;"">","null","","","","","","","","","",""
"","image-keyboard-response","116","74044","0.0-116.0","39KFRKBFIOHTE35F88H27LFDDBEYO0","AS2MFSWNC5CQI","30UZJB2POHY4464FN6NBJ2NLFWF354","","618","img/land5.png","75","619.4000000953674","2","1","2","1","0.8,0.2,0.2,0.2,0.8,0.2,0.2,0.2,0.8","0.8,0.2,0.2,0.2,0.8,0.2,0.2,0.2,0.8","1","",""
"","html-keyboard-response","117","74346","0.0-117.0","39KFRKBFIOHTE35F88H27LFDDBEYO0","AS2MFSWNC5CQI","30UZJB2POHY4464FN6NBJ2NLFWF354","","null","<img src=""img/land5.png"" style=""width:200px; border:14px solid green;"">","null","","","","","","","","","",""
"","image-keyboard-response","118","74795","0.0-118.0","39KFRKBFIOHTE35F88H27LFDDBEYO0","AS2MFSWNC5CQI","30UZJB2POHY4464FN6NBJ2NLFWF354","","447.59999990463257","img/land5.png","76","449.09999990463257","3","0","2","1","0.8,0.2,0.2,0.2,0.8,0.2,0.2,0.2,0.8","0.8,0.2,0.2,0.2,0.8,0.2,0.2,0.2,0.8","1","",""
"","html-keyboard-response","119","75097","0.0-119.0","39KFRKBFIOHTE35F88H27LFDDBEYO0","AS2MFSWNC5CQI","30UZJB2POHY4464FN6NBJ2NLFWF354","","null","<img src=""img/land5.png"" style=""width:200px;border:14px solid red;"">","null","","","","","","","","","",""
"","image-keyboard-response","120","75907","0.0-120.0","39KFRKBFIOHTE35F88H27LFDDBEYO0","AS2MFSWNC5CQI","30UZJB2POHY4464FN6NBJ2NLFWF354","","809.3000001907349","img/land4.png","76","810.0999999046326","3","0","3","1","0.8,0.2,0.2,0.2,0.8,0.2,0.2,0.2,0.8","0.8,0.2,0.2,0.2,0.8,0.2,0.2,0.2,0.8","1","",""
"","html-keyboard-response","121","76211","0.0-121.0","39KFRKBFIOHTE35F88H27LFDDBEYO0","AS2MFSWNC5CQI","30UZJB2POHY4464FN6NBJ2NLFWF354","","null","<img src=""img/land4.png"" style=""width:200px;border:14px solid red;"">","null","","","","","","","","","",""
"","image-keyboard-response","122","76643","0.0-122.0","39KFRKBFIOHTE35F88H27LFDDBEYO0","AS2MFSWNC5CQI","30UZJB2POHY4464FN6NBJ2NLFWF354","","431.60000014305115","img/land2.png","74","432.5","1","0","1","1","0.8,0.2,0.2,0.2,0.8,0.2,0.2,0.2,0.8","0.8,0.2,0.2,0.2,0.8,0.2,0.2,0.2,0.8","1","",""
"","html-keyboard-response","123","76946","0.0-123.0","39KFRKBFIOHTE35F88H27LFDDBEYO0","AS2MFSWNC5CQI","30UZJB2POHY4464FN6NBJ2NLFWF354","","null","<img src=""img/land2.png"" style=""width:200px;border:14px solid red;"">","null","","","","","","","","","",""
"","image-keyboard-response","124","77123","0.0-124.0","39KFRKBFIOHTE35F88H27LFDDBEYO0","AS2MFSWNC5CQI","30UZJB2POHY4464FN6NBJ2NLFWF354","","175.5","img/land5.png","75","176.90000009536743","2","0","2","1","0.8,0.2,0.2,0.2,0.8,0.2,0.2,0.2,0.8","0.8,0.2,0.2,0.2,0.8,0.2,0.2,0.2,0.8","1","",""
"","html-keyboard-response","125","77426","0.0-125.0","39KFRKBFIOHTE35F88H27LFDDBEYO0","AS2MFSWNC5CQI","30UZJB2POHY4464FN6NBJ2NLFWF354","","null","<img src=""img/land5.png"" style=""width:200px;border:14px solid red;"">","null","","","","","","","","","",""
"","image-keyboard-response","126","77893","0.0-126.0","39KFRKBFIOHTE35F88H27LFDDBEYO0","AS2MFSWNC5CQI","30UZJB2POHY4464FN6NBJ2NLFWF354","","464.7000000476837","img/land2.png","76","466.2000000476837","3","0","1","1","0.8,0.2,0.2,0.2,0.8,0.2,0.2,0.2,0.8","0.8,0.2,0.2,0.2,0.8,0.2,0.2,0.2,0.8","1","",""
"","html-keyboard-response","127","78196","0.0-127.0","39KFRKBFIOHTE35F88H27LFDDBEYO0","AS2MFSWNC5CQI","30UZJB2POHY4464FN6NBJ2NLFWF354","","null","<img src=""img/land2.png"" style=""width:200px;border:14px solid red;"">","null","","","","","","","","","",""
"","image-keyboard-response","128","78379","0.0-128.0","39KFRKBFIOHTE35F88H27LFDDBEYO0","AS2MFSWNC5CQI","30UZJB2POHY4464FN6NBJ2NLFWF354","","181.20000004768372","img/land4.png","75","182.79999995231628","2","0","3","1","0.8,0.2,0.2,0.2,0.8,0.2,0.2,0.2,0.8","0.8,0.2,0.2,0.2,0.8,0.2,0.2,0.2,0.8","1","",""
"","html-keyboard-response","129","78682","0.0-129.0","39KFRKBFIOHTE35F88H27LFDDBEYO0","AS2MFSWNC5CQI","30UZJB2POHY4464FN6NBJ2NLFWF354","","null","<img src=""img/land4.png"" style=""width:200px;border:14px solid red;"">","null","","","","","","","","","",""
"","image-keyboard-response","130","79251","0.0-130.0","39KFRKBFIOHTE35F88H27LFDDBEYO0","AS2MFSWNC5CQI","30UZJB2POHY4464FN6NBJ2NLFWF354","","567.1999998092651","img/land2.png","74","568.4000000953674","1","1","1","1","0.8,0.2,0.2,0.2,0.8,0.2,0.2,0.2,0.8","0.8,0.2,0.2,0.2,0.8,0.2,0.2,0.2,0.8","1","",""
"","html-keyboard-response","131","79552","0.0-131.0","39KFRKBFIOHTE35F88H27LFDDBEYO0","AS2MFSWNC5CQI","30UZJB2POHY4464FN6NBJ2NLFWF354","","null","<img src=""img/land2.png"" style=""width:200px; border:14px solid green;"">","null","","","","","","","","","",""
"","image-keyboard-response","132","80331","0.0-132.0","39KFRKBFIOHTE35F88H27LFDDBEYO0","AS2MFSWNC5CQI","30UZJB2POHY4464FN6NBJ2NLFWF354","","778.0999999046326","img/land4.png","75","778.7000000476837","2","0","3","1","0.8,0.2,0.2,0.2,0.8,0.2,0.2,0.2,0.8","0.8,0.2,0.2,0.2,0.8,0.2,0.2,0.2,0.8","1","",""
"","html-keyboard-response","133","80633","0.0-133.0","39KFRKBFIOHTE35F88H27LFDDBEYO0","AS2MFSWNC5CQI","30UZJB2POHY4464FN6NBJ2NLFWF354","","null","<img src=""img/land4.png"" style=""width:200px;border:14px solid red;"">","null","","","","","","","","","",""
"","image-keyboard-response","134","81036","0.0-134.0","39KFRKBFIOHTE35F88H27LFDDBEYO0","AS2MFSWNC5CQI","30UZJB2POHY4464FN6NBJ2NLFWF354","","400.80000019073486","img/land4.png","74","402.2000000476837","1","1","3","1","0.8,0.2,0.2,0.2,0.8,0.2,0.2,0.2,0.8","0.8,0.2,0.2,0.2,0.8,0.2,0.2,0.2,0.8","1","",""
"","html-keyboard-response","135","81339","0.0-135.0","39KFRKBFIOHTE35F88H27LFDDBEYO0","AS2MFSWNC5CQI","30UZJB2POHY4464FN6NBJ2NLFWF354","","null","<img src=""img/land4.png"" style=""width:200px; border:14px solid green;"">","null","","","","","","","","","",""
"","image-keyboard-response","136","81963","0.0-136.0","39KFRKBFIOHTE35F88H27LFDDBEYO0","AS2MFSWNC5CQI","30UZJB2POHY4464FN6NBJ2NLFWF354","","623.6000001430511","img/land4.png","74","624.5","1","0","3","1","0.8,0.2,0.2,0.2,0.8,0.2,0.2,0.2,0.8","0.8,0.2,0.2,0.2,0.8,0.2,0.2,0.2,0.8","1","",""
"","html-keyboard-response","137","82265","0.0-137.0","39KFRKBFIOHTE35F88H27LFDDBEYO0","AS2MFSWNC5CQI","30UZJB2POHY4464FN6NBJ2NLFWF354","","null","<img src=""img/land4.png"" style=""width:200px;border:14px solid red;"">","null","","","","","","","","","",""
"","image-keyboard-response","138","82837","0.0-138.0","39KFRKBFIOHTE35F88H27LFDDBEYO0","AS2MFSWNC5CQI","30UZJB2POHY4464FN6NBJ2NLFWF354","","570.7000000476837","img/land2.png","74","571.5","1","0","1","1","0.8,0.2,0.2,0.2,0.8,0.2,0.2,0.2,0.8","0.8,0.2,0.2,0.2,0.8,0.2,0.2,0.2,0.8","1","",""
"","html-keyboard-response","139","83139","0.0-139.0","39KFRKBFIOHTE35F88H27LFDDBEYO0","AS2MFSWNC5CQI","30UZJB2POHY4464FN6NBJ2NLFWF354","","null","<img src=""img/land2.png"" style=""width:200px;border:14px solid red;"">","null","","","","","","","","","",""
"","image-keyboard-response","140","83539","0.0-140.0","39KFRKBFIOHTE35F88H27LFDDBEYO0","AS2MFSWNC5CQI","30UZJB2POHY4464FN6NBJ2NLFWF354","","398.80000019073486","img/land4.png","76","400","3","1","3","1","0.8,0.2,0.2,0.2,0.8,0.2,0.2,0.2,0.8","0.8,0.2,0.2,0.2,0.8,0.2,0.2,0.2,0.8","1","",""
"","html-keyboard-response","141","83841","0.0-141.0","39KFRKBFIOHTE35F88H27LFDDBEYO0","AS2MFSWNC5CQI","30UZJB2POHY4464FN6NBJ2NLFWF354","","null","<img src=""img/land4.png"" style=""width:200px; border:14px solid green;"">","null","","","","","","","","","",""
"","image-keyboard-response","142","84619","0.0-142.0","39KFRKBFIOHTE35F88H27LFDDBEYO0","AS2MFSWNC5CQI","30UZJB2POHY4464FN6NBJ2NLFWF354","","776.5","img/land5.png","75","778","2","1","2","1","0.8,0.2,0.2,0.2,0.8,0.2,0.2,0.2,0.8","0.8,0.2,0.2,0.2,0.8,0.2,0.2,0.2,0.8","1","",""
"","html-keyboard-response","143","84935","0.0-143.0","39KFRKBFIOHTE35F88H27LFDDBEYO0","AS2MFSWNC5CQI","30UZJB2POHY4464FN6NBJ2NLFWF354","","null","<img src=""img/land5.png"" style=""width:200px; border:14px solid green;"">","null","","","","","","","","","",""
"","image-keyboard-response","144","85460","0.0-144.0","39KFRKBFIOHTE35F88H27LFDDBEYO0","AS2MFSWNC5CQI","30UZJB2POHY4464FN6NBJ2NLFWF354","","523.2000000476837","img/land5.png","75","524.7000000476837","2","1","2","1","0.8,0.2,0.2,0.2,0.8,0.2,0.2,0.2,0.8","0.8,0.2,0.2,0.2,0.8,0.2,0.2,0.2,0.8","1","",""
"","html-keyboard-response","145","85762","0.0-145.0","39KFRKBFIOHTE35F88H27LFDDBEYO0","AS2MFSWNC5CQI","30UZJB2POHY4464FN6NBJ2NLFWF354","","null","<img src=""img/land5.png"" style=""width:200px; border:14px solid green;"">","null","","","","","","","","","",""
"","image-keyboard-response","146","86507","0.0-146.0","39KFRKBFIOHTE35F88H27LFDDBEYO0","AS2MFSWNC5CQI","30UZJB2POHY4464FN6NBJ2NLFWF354","","743.5","img/land2.png","74","744.7999999523163","1","0","1","1","0.8,0.2,0.2,0.2,0.8,0.2,0.2,0.2,0.8","0.8,0.2,0.2,0.2,0.8,0.2,0.2,0.2,0.8","1","",""
"","html-keyboard-response","147","86809","0.0-147.0","39KFRKBFIOHTE35F88H27LFDDBEYO0","AS2MFSWNC5CQI","30UZJB2POHY4464FN6NBJ2NLFWF354","","null","<img src=""img/land2.png"" style=""width:200px;border:14px solid red;"">","null","","","","","","","","","",""
"","image-keyboard-response","148","87300","0.0-148.0","39KFRKBFIOHTE35F88H27LFDDBEYO0","AS2MFSWNC5CQI","30UZJB2POHY4464FN6NBJ2NLFWF354","","488.90000009536743","img/land2.png","76","490.30000019073486","3","1","1","1","0.8,0.2,0.2,0.2,0.8,0.2,0.2,0.2,0.8","0.8,0.2,0.2,0.2,0.8,0.2,0.2,0.2,0.8","1","",""
"","html-keyboard-response","149","87602","0.0-149.0","39KFRKBFIOHTE35F88H27LFDDBEYO0","AS2MFSWNC5CQI","30UZJB2POHY4464FN6NBJ2NLFWF354","","null","<img src=""img/land2.png"" style=""width:200px; border:14px solid green;"">","null","","","","","","","","","",""
"","image-keyboard-response","150","88324","0.0-150.0","39KFRKBFIOHTE35F88H27LFDDBEYO0","AS2MFSWNC5CQI","30UZJB2POHY4464FN6NBJ2NLFWF354","","721.2000000476837","img/land5.png","75","722","2","1","2","1","0.8,0.2,0.2,0.2,0.8,0.2,0.2,0.2,0.8","0.8,0.2,0.2,0.2,0.8,0.2,0.2,0.2,0.8","1","",""
"","html-keyboard-response","151","88626","0.0-151.0","39KFRKBFIOHTE35F88H27LFDDBEYO0","AS2MFSWNC5CQI","30UZJB2POHY4464FN6NBJ2NLFWF354","","null","<img src=""img/land5.png"" style=""width:200px; border:14px solid green;"">","null","","","","","","","","","",""
"","image-keyboard-response","152","89228","0.0-152.0","39KFRKBFIOHTE35F88H27LFDDBEYO0","AS2MFSWNC5CQI","30UZJB2POHY4464FN6NBJ2NLFWF354","","601","img/land2.png","76","601.9000000953674","3","0","1","1","0.8,0.2,0.2,0.2,0.8,0.2,0.2,0.2,0.8","0.8,0.2,0.2,0.2,0.8,0.2,0.2,0.2,0.8","1","",""
"","html-keyboard-response","153","89530","0.0-153.0","39KFRKBFIOHTE35F88H27LFDDBEYO0","AS2MFSWNC5CQI","30UZJB2POHY4464FN6NBJ2NLFWF354","","null","<img src=""img/land2.png"" style=""width:200px;border:14px solid red;"">","null","","","","","","","","","",""
"","image-keyboard-response","154","90133","0.0-154.0","39KFRKBFIOHTE35F88H27LFDDBEYO0","AS2MFSWNC5CQI","30UZJB2POHY4464FN6NBJ2NLFWF354","","600.6999998092651","img/land2.png","74","602.0999999046326","1","1","1","1","0.8,0.2,0.2,0.2,0.8,0.2,0.2,0.2,0.8","0.8,0.2,0.2,0.2,0.8,0.2,0.2,0.2,0.8","1","",""
"","html-keyboard-response","155","90435","0.0-155.0","39KFRKBFIOHTE35F88H27LFDDBEYO0","AS2MFSWNC5CQI","30UZJB2POHY4464FN6NBJ2NLFWF354","","null","<img src=""img/land2.png"" style=""width:200px; border:14px solid green;"">","null","","","","","","","","","",""
"","image-keyboard-response","156","91778","0.0-156.0","39KFRKBFIOHTE35F88H27LFDDBEYO0","AS2MFSWNC5CQI","30UZJB2POHY4464FN6NBJ2NLFWF354","","1341.7999999523163","img/land2.png","74","1342.9000000953674","1","1","1","1","0.8,0.2,0.2,0.2,0.8,0.2,0.2,0.2,0.8","0.8,0.2,0.2,0.2,0.8,0.2,0.2,0.2,0.8","1","",""
"","html-keyboard-response","157","92079","0.0-157.0","39KFRKBFIOHTE35F88H27LFDDBEYO0","AS2MFSWNC5CQI","30UZJB2POHY4464FN6NBJ2NLFWF354","","null","<img src=""img/land2.png"" style=""width:200px; border:14px solid green;"">","null","","","","","","","","","",""
"","image-keyboard-response","158","92708","0.0-158.0","39KFRKBFIOHTE35F88H27LFDDBEYO0","AS2MFSWNC5CQI","30UZJB2POHY4464FN6NBJ2NLFWF354","","626.3000001907349","img/land5.png","75","627.0999999046326","2","1","2","1","0.8,0.2,0.2,0.2,0.8,0.2,0.2,0.2,0.8","0.8,0.2,0.2,0.2,0.8,0.2,0.2,0.2,0.8","1","",""
"","html-keyboard-response","159","93011","0.0-159.0","39KFRKBFIOHTE35F88H27LFDDBEYO0","AS2MFSWNC5CQI","30UZJB2POHY4464FN6NBJ2NLFWF354","","null","<img src=""img/land5.png"" style=""width:200px; border:14px solid green;"">","null","","","","","","","","","",""
"","image-keyboard-response","160","93709","0.0-160.0","39KFRKBFIOHTE35F88H27LFDDBEYO0","AS2MFSWNC5CQI","30UZJB2POHY4464FN6NBJ2NLFWF354","","696.7999999523163","img/land2.png","74","698","1","1","1","1","0.8,0.2,0.2,0.2,0.8,0.2,0.2,0.2,0.8","0.8,0.2,0.2,0.2,0.8,0.2,0.2,0.2,0.8","1","",""
"","html-keyboard-response","161","94012","0.0-161.0","39KFRKBFIOHTE35F88H27LFDDBEYO0","AS2MFSWNC5CQI","30UZJB2POHY4464FN6NBJ2NLFWF354","","null","<img src=""img/land2.png"" style=""width:200px; border:14px solid green;"">","null","","","","","","","","","",""
"","image-keyboard-response","162","94789","0.0-162.0","39KFRKBFIOHTE35F88H27LFDDBEYO0","AS2MFSWNC5CQI","30UZJB2POHY4464FN6NBJ2NLFWF354","","774.5","img/land4.png","75","775.8000001907349","2","0","3","1","0.8,0.2,0.2,0.2,0.8,0.2,0.2,0.2,0.8","0.8,0.2,0.2,0.2,0.8,0.2,0.2,0.2,0.8","1","",""
"","html-keyboard-response","163","95091","0.0-163.0","39KFRKBFIOHTE35F88H27LFDDBEYO0","AS2MFSWNC5CQI","30UZJB2POHY4464FN6NBJ2NLFWF354","","null","<img src=""img/land4.png"" style=""width:200px;border:14px solid red;"">","null","","","","","","","","","",""
"","image-keyboard-response","164","95508","0.0-164.0","39KFRKBFIOHTE35F88H27LFDDBEYO0","AS2MFSWNC5CQI","30UZJB2POHY4464FN6NBJ2NLFWF354","","415.69999980926514","img/land4.png","76","417.19999980926514","3","1","3","1","0.8,0.2,0.2,0.2,0.8,0.2,0.2,0.2,0.8","0.8,0.2,0.2,0.2,0.8,0.2,0.2,0.2,0.8","1","",""
"","html-keyboard-response","165","95810","0.0-165.0","39KFRKBFIOHTE35F88H27LFDDBEYO0","AS2MFSWNC5CQI","30UZJB2POHY4464FN6NBJ2NLFWF354","","null","<img src=""img/land4.png"" style=""width:200px; border:14px solid green;"">","null","","","","","","","","","",""
"","image-keyboard-response","166","96595","0.0-166.0","39KFRKBFIOHTE35F88H27LFDDBEYO0","AS2MFSWNC5CQI","30UZJB2POHY4464FN6NBJ2NLFWF354","","782.8999998569489","img/land2.png","74","784","1","1","1","1","0.8,0.2,0.2,0.2,0.8,0.2,0.2,0.2,0.8","0.8,0.2,0.2,0.2,0.8,0.2,0.2,0.2,0.8","1","",""
"","html-keyboard-response","167","96896","0.0-167.0","39KFRKBFIOHTE35F88H27LFDDBEYO0","AS2MFSWNC5CQI","30UZJB2POHY4464FN6NBJ2NLFWF354","","null","<img src=""img/land2.png"" style=""width:200px; border:14px solid green;"">","null","","","","","","","","","",""
"","image-keyboard-response","168","97491","0.0-168.0","39KFRKBFIOHTE35F88H27LFDDBEYO0","AS2MFSWNC5CQI","30UZJB2POHY4464FN6NBJ2NLFWF354","","594.3000001907349","img/land5.png","75","595","2","1","2","1","0.8,0.2,0.2,0.2,0.8,0.2,0.2,0.2,0.8","0.8,0.2,0.2,0.2,0.8,0.2,0.2,0.2,0.8","1","",""
"","html-keyboard-response","169","97794","0.0-169.0","39KFRKBFIOHTE35F88H27LFDDBEYO0","AS2MFSWNC5CQI","30UZJB2POHY4464FN6NBJ2NLFWF354","","null","<img src=""img/land5.png"" style=""width:200px; border:14px solid green;"">","null","","","","","","","","","",""
"","image-keyboard-response","170","98421","0.0-170.0","39KFRKBFIOHTE35F88H27LFDDBEYO0","AS2MFSWNC5CQI","30UZJB2POHY4464FN6NBJ2NLFWF354","","625.3999998569489","img/land4.png","74","626.8000001907349","1","1","3","1","0.8,0.2,0.2,0.2,0.8,0.2,0.2,0.2,0.8","0.8,0.2,0.2,0.2,0.8,0.2,0.2,0.2,0.8","1","",""
"","html-keyboard-response","171","98723","0.0-171.0","39KFRKBFIOHTE35F88H27LFDDBEYO0","AS2MFSWNC5CQI","30UZJB2POHY4464FN6NBJ2NLFWF354","","null","<img src=""img/land4.png"" style=""width:200px; border:14px solid green;"">","null","","","","","","","","","",""
"","image-keyboard-response","172","99284","0.0-172.0","39KFRKBFIOHTE35F88H27LFDDBEYO0","AS2MFSWNC5CQI","30UZJB2POHY4464FN6NBJ2NLFWF354","","559.5","img/land2.png","75","560.8999998569489","2","0","1","1","0.8,0.2,0.2,0.2,0.8,0.2,0.2,0.2,0.8","0.8,0.2,0.2,0.2,0.8,0.2,0.2,0.2,0.8","1","",""
"","html-keyboard-response","173","99587","0.0-173.0","39KFRKBFIOHTE35F88H27LFDDBEYO0","AS2MFSWNC5CQI","30UZJB2POHY4464FN6NBJ2NLFWF354","","null","<img src=""img/land2.png"" style=""width:200px;border:14px solid red;"">","null","","","","","","","","","",""
"","image-keyboard-response","174","100267","0.0-174.0","39KFRKBFIOHTE35F88H27LFDDBEYO0","AS2MFSWNC5CQI","30UZJB2POHY4464FN6NBJ2NLFWF354","","679.8000001907349","img/land2.png","76","680.5999999046326","3","0","1","1","0.8,0.2,0.2,0.2,0.8,0.2,0.2,0.2,0.8","0.8,0.2,0.2,0.2,0.8,0.2,0.2,0.2,0.8","1","",""
"","html-keyboard-response","175","100570","0.0-175.0","39KFRKBFIOHTE35F88H27LFDDBEYO0","AS2MFSWNC5CQI","30UZJB2POHY4464FN6NBJ2NLFWF354","","null","<img src=""img/land2.png"" style=""width:200px;border:14px solid red;"">","null","","","","","","","","","",""
"","image-keyboard-response","176","100994","0.0-176.0","39KFRKBFIOHTE35F88H27LFDDBEYO0","AS2MFSWNC5CQI","30UZJB2POHY4464FN6NBJ2NLFWF354","","423.2000000476837","img/land2.png","74","423.7999999523163","1","1","1","1","0.8,0.2,0.2,0.2,0.8,0.2,0.2,0.2,0.8","0.8,0.2,0.2,0.2,0.8,0.2,0.2,0.2,0.8","1","",""
"","html-keyboard-response","177","101295","0.0-177.0","39KFRKBFIOHTE35F88H27LFDDBEYO0","AS2MFSWNC5CQI","30UZJB2POHY4464FN6NBJ2NLFWF354","","null","<img src=""img/land2.png"" style=""width:200px; border:14px solid green;"">","null","","","","","","","","","",""
"","image-keyboard-response","178","101996","0.0-178.0","39KFRKBFIOHTE35F88H27LFDDBEYO0","AS2MFSWNC5CQI","30UZJB2POHY4464FN6NBJ2NLFWF354","","699.5","img/land5.png","75","701","2","1","2","1","0.8,0.2,0.2,0.2,0.8,0.2,0.2,0.2,0.8","0.8,0.2,0.2,0.2,0.8,0.2,0.2,0.2,0.8","1","",""
"","html-keyboard-response","179","102298","0.0-179.0","39KFRKBFIOHTE35F88H27LFDDBEYO0","AS2MFSWNC5CQI","30UZJB2POHY4464FN6NBJ2NLFWF354","","null","<img src=""img/land5.png"" style=""width:200px; border:14px solid green;"">","null","","","","","","","","","",""
"","image-keyboard-response","180","102861","0.0-180.0","39KFRKBFIOHTE35F88H27LFDDBEYO0","AS2MFSWNC5CQI","30UZJB2POHY4464FN6NBJ2NLFWF354","","562.2999999523163","img/land5.png","75","562.8000001907349","2","1","2","1","0.8,0.2,0.2,0.2,0.8,0.2,0.2,0.2,0.8","0.8,0.2,0.2,0.2,0.8,0.2,0.2,0.2,0.8","1","",""
"","html-keyboard-response","181","103163","0.0-181.0","39KFRKBFIOHTE35F88H27LFDDBEYO0","AS2MFSWNC5CQI","30UZJB2POHY4464FN6NBJ2NLFWF354","","null","<img src=""img/land5.png"" style=""width:200px; border:14px solid green;"">","null","","","","","","","","","",""
"","html-keyboard-response","182","105901","0.0-182.0","39KFRKBFIOHTE35F88H27LFDDBEYO0","AS2MFSWNC5CQI","30UZJB2POHY4464FN6NBJ2NLFWF354","","","","","","","","","","","","","",""
"","image-keyboard-response","183","107556","0.0-183.0","39KFRKBFIOHTE35F88H27LFDDBEYO0","AS2MFSWNC5CQI","30UZJB2POHY4464FN6NBJ2NLFWF354","","1653.2999999523163","img/land6.png","74","1654.2999999523163","1","0","3","2","0.8,0.2,0.2,0.2,0.8,0.2,0.2,0.2,0.8","0.8,0.2,0.2,0.2,0.8,0.2,0.2,0.2,0.8","1","",""
"","html-keyboard-response","184","107858","0.0-184.0","39KFRKBFIOHTE35F88H27LFDDBEYO0","AS2MFSWNC5CQI","30UZJB2POHY4464FN6NBJ2NLFWF354","","null","<img src=""img/land6.png"" style=""width:200px;border:14px solid red;"">","null","","","","","","","","","",""
"","image-keyboard-response","185","108522","0.0-185.0","39KFRKBFIOHTE35F88H27LFDDBEYO0","AS2MFSWNC5CQI","30UZJB2POHY4464FN6NBJ2NLFWF354","","662.7000000476837","img/land1.png","75","663.8999998569489","2","0","1","2","0.8,0.2,0.2,0.2,0.8,0.2,0.2,0.2,0.8","0.8,0.2,0.2,0.2,0.8,0.2,0.2,0.2,0.8","1","",""
"","html-keyboard-response","186","108824","0.0-186.0","39KFRKBFIOHTE35F88H27LFDDBEYO0","AS2MFSWNC5CQI","30UZJB2POHY4464FN6NBJ2NLFWF354","","null","<img src=""img/land1.png"" style=""width:200px;border:14px solid red;"">","null","","","","","","","","","",""
"","image-keyboard-response","187","109228","0.0-187.0","39KFRKBFIOHTE35F88H27LFDDBEYO0","AS2MFSWNC5CQI","30UZJB2POHY4464FN6NBJ2NLFWF354","","403.40000009536743","img/land6.png","76","404.09999990463257","3","1","3","2","0.8,0.2,0.2,0.2,0.8,0.2,0.2,0.2,0.8","0.8,0.2,0.2,0.2,0.8,0.2,0.2,0.2,0.8","1","",""
"","html-keyboard-response","188","109530","0.0-188.0","39KFRKBFIOHTE35F88H27LFDDBEYO0","AS2MFSWNC5CQI","30UZJB2POHY4464FN6NBJ2NLFWF354","","null","<img src=""img/land6.png"" style=""width:200px; border:14px solid green;"">","null","","","","","","","","","",""
"","image-keyboard-response","189","110477","0.0-189.0","39KFRKBFIOHTE35F88H27LFDDBEYO0","AS2MFSWNC5CQI","30UZJB2POHY4464FN6NBJ2NLFWF354","","944.6000001430511","img/land1.png","75","946","2","0","1","2","0.8,0.2,0.2,0.2,0.8,0.2,0.2,0.2,0.8","0.8,0.2,0.2,0.2,0.8,0.2,0.2,0.2,0.8","1","",""
"","html-keyboard-response","190","110780","0.0-190.0","39KFRKBFIOHTE35F88H27LFDDBEYO0","AS2MFSWNC5CQI","30UZJB2POHY4464FN6NBJ2NLFWF354","","null","<img src=""img/land1.png"" style=""width:200px;border:14px solid red;"">","null","","","","","","","","","",""
"","image-keyboard-response","191","111395","0.0-191.0","39KFRKBFIOHTE35F88H27LFDDBEYO0","AS2MFSWNC5CQI","30UZJB2POHY4464FN6NBJ2NLFWF354","","614.4000000953674","img/land6.png","76","615.5","3","1","3","2","0.8,0.2,0.2,0.2,0.8,0.2,0.2,0.2,0.8","0.8,0.2,0.2,0.2,0.8,0.2,0.2,0.2,0.8","1","",""
"","html-keyboard-response","192","111699","0.0-192.0","39KFRKBFIOHTE35F88H27LFDDBEYO0","AS2MFSWNC5CQI","30UZJB2POHY4464FN6NBJ2NLFWF354","","null","<img src=""img/land6.png"" style=""width:200px; border:14px solid green;"">","null","","","","","","","","","",""
"","image-keyboard-response","193","112196","0.0-193.0","39KFRKBFIOHTE35F88H27LFDDBEYO0","AS2MFSWNC5CQI","30UZJB2POHY4464FN6NBJ2NLFWF354","","496.39999985694885","img/land1.png","74","497.30000019073486","1","0","1","2","0.8,0.2,0.2,0.2,0.8,0.2,0.2,0.2,0.8","0.8,0.2,0.2,0.2,0.8,0.2,0.2,0.2,0.8","1","",""
"","html-keyboard-response","194","112499","0.0-194.0","39KFRKBFIOHTE35F88H27LFDDBEYO0","AS2MFSWNC5CQI","30UZJB2POHY4464FN6NBJ2NLFWF354","","null","<img src=""img/land1.png"" style=""width:200px;border:14px solid red;"">","null","","","","","","","","","",""
"","image-keyboard-response","195","113091","0.0-195.0","39KFRKBFIOHTE35F88H27LFDDBEYO0","AS2MFSWNC5CQI","30UZJB2POHY4464FN6NBJ2NLFWF354","","590.5","img/land1.png","75","592","2","0","1","2","0.8,0.2,0.2,0.2,0.8,0.2,0.2,0.2,0.8","0.8,0.2,0.2,0.2,0.8,0.2,0.2,0.2,0.8","1","",""
"","html-keyboard-response","196","113394","0.0-196.0","39KFRKBFIOHTE35F88H27LFDDBEYO0","AS2MFSWNC5CQI","30UZJB2POHY4464FN6NBJ2NLFWF354","","null","<img src=""img/land1.png"" style=""width:200px;border:14px solid red;"">","null","","","","","","","","","",""
"","image-keyboard-response","197","113554","0.0-197.0","39KFRKBFIOHTE35F88H27LFDDBEYO0","AS2MFSWNC5CQI","30UZJB2POHY4464FN6NBJ2NLFWF354","","160.09999990463257","img/land1.png","76","160.60000014305115","3","0","1","2","0.8,0.2,0.2,0.2,0.8,0.2,0.2,0.2,0.8","0.8,0.2,0.2,0.2,0.8,0.2,0.2,0.2,0.8","1","",""
"","html-keyboard-response","198","113856","0.0-198.0","39KFRKBFIOHTE35F88H27LFDDBEYO0","AS2MFSWNC5CQI","30UZJB2POHY4464FN6NBJ2NLFWF354","","null","<img src=""img/land1.png"" style=""width:200px;border:14px solid red;"">","null","","","","","","","","","",""
"","image-keyboard-response","199","114578","0.0-199.0","39KFRKBFIOHTE35F88H27LFDDBEYO0","AS2MFSWNC5CQI","30UZJB2POHY4464FN6NBJ2NLFWF354","","720.7000000476837","img/land1.png","74","721.7999999523163","1","1","1","2","0.8,0.2,0.2,0.2,0.8,0.2,0.2,0.2,0.8","0.8,0.2,0.2,0.2,0.8,0.2,0.2,0.2,0.8","1","",""
"","html-keyboard-response","200","114879","0.0-200.0","39KFRKBFIOHTE35F88H27LFDDBEYO0","AS2MFSWNC5CQI","30UZJB2POHY4464FN6NBJ2NLFWF354","","null","<img src=""img/land1.png"" style=""width:200px; border:14px solid green;"">","null","","","","","","","","","",""
"","image-keyboard-response","201","116172","0.0-201.0","39KFRKBFIOHTE35F88H27LFDDBEYO0","AS2MFSWNC5CQI","30UZJB2POHY4464FN6NBJ2NLFWF354","","1292","img/land3.png","75","1292.8000001907349","2","1","2","2","0.8,0.2,0.2,0.2,0.8,0.2,0.2,0.2,0.8","0.8,0.2,0.2,0.2,0.8,0.2,0.2,0.2,0.8","1","",""
"","html-keyboard-response","202","116474","0.0-202.0","39KFRKBFIOHTE35F88H27LFDDBEYO0","AS2MFSWNC5CQI","30UZJB2POHY4464FN6NBJ2NLFWF354","","null","<img src=""img/land3.png"" style=""width:200px; border:14px solid green;"">","null","","","","","","","","","",""
"","image-keyboard-response","203","117387","0.0-203.0","39KFRKBFIOHTE35F88H27LFDDBEYO0","AS2MFSWNC5CQI","30UZJB2POHY4464FN6NBJ2NLFWF354","","911.3999998569489","img/land1.png","74","912.8999998569489","1","1","1","2","0.8,0.2,0.2,0.2,0.8,0.2,0.2,0.2,0.8","0.8,0.2,0.2,0.2,0.8,0.2,0.2,0.2,0.8","1","",""
"","html-keyboard-response","204","117691","0.0-204.0","39KFRKBFIOHTE35F88H27LFDDBEYO0","AS2MFSWNC5CQI","30UZJB2POHY4464FN6NBJ2NLFWF354","","null","<img src=""img/land1.png"" style=""width:200px; border:14px solid green;"">","null","","","","","","","","","",""
"","image-keyboard-response","205","118611","0.0-205.0","39KFRKBFIOHTE35F88H27LFDDBEYO0","AS2MFSWNC5CQI","30UZJB2POHY4464FN6NBJ2NLFWF354","","919.2000000476837","img/land1.png","74","919.7999999523163","1","1","1","2","0.8,0.2,0.2,0.2,0.8,0.2,0.2,0.2,0.8","0.8,0.2,0.2,0.2,0.8,0.2,0.2,0.2,0.8","1","",""
"","html-keyboard-response","206","118913","0.0-206.0","39KFRKBFIOHTE35F88H27LFDDBEYO0","AS2MFSWNC5CQI","30UZJB2POHY4464FN6NBJ2NLFWF354","","null","<img src=""img/land1.png"" style=""width:200px; border:14px solid green;"">","null","","","","","","","","","",""
"","image-keyboard-response","207","119365","0.0-207.0","39KFRKBFIOHTE35F88H27LFDDBEYO0","AS2MFSWNC5CQI","30UZJB2POHY4464FN6NBJ2NLFWF354","","450.60000014305115","img/land1.png","74","451.40000009536743","1","1","1","2","0.8,0.2,0.2,0.2,0.8,0.2,0.2,0.2,0.8","0.8,0.2,0.2,0.2,0.8,0.2,0.2,0.2,0.8","1","",""
"","html-keyboard-response","208","119667","0.0-208.0","39KFRKBFIOHTE35F88H27LFDDBEYO0","AS2MFSWNC5CQI","30UZJB2POHY4464FN6NBJ2NLFWF354","","null","<img src=""img/land1.png"" style=""width:200px; border:14px solid green;"">","null","","","","","","","","","",""
"","image-keyboard-response","209","120067","0.0-209.0","39KFRKBFIOHTE35F88H27LFDDBEYO0","AS2MFSWNC5CQI","30UZJB2POHY4464FN6NBJ2NLFWF354","","398.40000009536743","img/land1.png","74","399.2999999523163","1","0","1","2","0.8,0.2,0.2,0.2,0.8,0.2,0.2,0.2,0.8","0.8,0.2,0.2,0.2,0.8,0.2,0.2,0.2,0.8","1","",""
"","html-keyboard-response","210","120368","0.0-210.0","39KFRKBFIOHTE35F88H27LFDDBEYO0","AS2MFSWNC5CQI","30UZJB2POHY4464FN6NBJ2NLFWF354","","null","<img src=""img/land1.png"" style=""width:200px;border:14px solid red;"">","null","","","","","","","","","",""
"","image-keyboard-response","211","121315","0.0-211.0","39KFRKBFIOHTE35F88H27LFDDBEYO0","AS2MFSWNC5CQI","30UZJB2POHY4464FN6NBJ2NLFWF354","","945.5","img/land6.png","76","946.6000001430511","3","1","3","2","0.8,0.2,0.2,0.2,0.8,0.2,0.2,0.2,0.8","0.8,0.2,0.2,0.2,0.8,0.2,0.2,0.2,0.8","1","",""
"","html-keyboard-response","212","121617","0.0-212.0","39KFRKBFIOHTE35F88H27LFDDBEYO0","AS2MFSWNC5CQI","30UZJB2POHY4464FN6NBJ2NLFWF354","","null","<img src=""img/land6.png"" style=""width:200px; border:14px solid green;"">","null","","","","","","","","","",""
"","image-keyboard-response","213","122213","0.0-213.0","39KFRKBFIOHTE35F88H27LFDDBEYO0","AS2MFSWNC5CQI","30UZJB2POHY4464FN6NBJ2NLFWF354","","595.4000000953674","img/land3.png","75","596.0999999046326","2","1","2","2","0.8,0.2,0.2,0.2,0.8,0.2,0.2,0.2,0.8","0.8,0.2,0.2,0.2,0.8,0.2,0.2,0.2,0.8","1","",""
"","html-keyboard-response","214","122515","0.0-214.0","39KFRKBFIOHTE35F88H27LFDDBEYO0","AS2MFSWNC5CQI","30UZJB2POHY4464FN6NBJ2NLFWF354","","null","<img src=""img/land3.png"" style=""width:200px; border:14px solid green;"">","null","","","","","","","","","",""
"","image-keyboard-response","215","123309","0.0-215.0","39KFRKBFIOHTE35F88H27LFDDBEYO0","AS2MFSWNC5CQI","30UZJB2POHY4464FN6NBJ2NLFWF354","","792.8000001907349","img/land1.png","74","794.3000001907349","1","1","1","2","0.8,0.2,0.2,0.2,0.8,0.2,0.2,0.2,0.8","0.8,0.2,0.2,0.2,0.8,0.2,0.2,0.2,0.8","1","",""
"","html-keyboard-response","216","123611","0.0-216.0","39KFRKBFIOHTE35F88H27LFDDBEYO0","AS2MFSWNC5CQI","30UZJB2POHY4464FN6NBJ2NLFWF354","","null","<img src=""img/land1.png"" style=""width:200px; border:14px solid green;"">","null","","","","","","","","","",""
"","image-keyboard-response","217","124052","0.0-217.0","39KFRKBFIOHTE35F88H27LFDDBEYO0","AS2MFSWNC5CQI","30UZJB2POHY4464FN6NBJ2NLFWF354","","439.90000009536743","img/land1.png","74","440.60000014305115","1","0","1","2","0.8,0.2,0.2,0.2,0.8,0.2,0.2,0.2,0.8","0.8,0.2,0.2,0.2,0.8,0.2,0.2,0.2,0.8","1","",""
"","html-keyboard-response","218","124354","0.0-218.0","39KFRKBFIOHTE35F88H27LFDDBEYO0","AS2MFSWNC5CQI","30UZJB2POHY4464FN6NBJ2NLFWF354","","null","<img src=""img/land1.png"" style=""width:200px;border:14px solid red;"">","null","","","","","","","","","",""
"","image-keyboard-response","219","124813","0.0-219.0","39KFRKBFIOHTE35F88H27LFDDBEYO0","AS2MFSWNC5CQI","30UZJB2POHY4464FN6NBJ2NLFWF354","","456.7000000476837","img/land1.png","74","458.30000019073486","1","0","1","2","0.8,0.2,0.2,0.2,0.8,0.2,0.2,0.2,0.8","0.8,0.2,0.2,0.2,0.8,0.2,0.2,0.2,0.8","1","",""
"","html-keyboard-response","220","125119","0.0-220.0","39KFRKBFIOHTE35F88H27LFDDBEYO0","AS2MFSWNC5CQI","30UZJB2POHY4464FN6NBJ2NLFWF354","","null","<img src=""img/land1.png"" style=""width:200px;border:14px solid red;"">","null","","","","","","","","","",""
"","image-keyboard-response","221","125884","0.0-221.0","39KFRKBFIOHTE35F88H27LFDDBEYO0","AS2MFSWNC5CQI","30UZJB2POHY4464FN6NBJ2NLFWF354","","763.5999999046326","img/land6.png","76","765.0999999046326","3","1","3","2","0.8,0.2,0.2,0.2,0.8,0.2,0.2,0.2,0.8","0.8,0.2,0.2,0.2,0.8,0.2,0.2,0.2,0.8","1","",""
"","html-keyboard-response","222","126187","0.0-222.0","39KFRKBFIOHTE35F88H27LFDDBEYO0","AS2MFSWNC5CQI","30UZJB2POHY4464FN6NBJ2NLFWF354","","null","<img src=""img/land6.png"" style=""width:200px; border:14px solid green;"">","null","","","","","","","","","",""
"","image-keyboard-response","223","127044","0.0-223.0","39KFRKBFIOHTE35F88H27LFDDBEYO0","AS2MFSWNC5CQI","30UZJB2POHY4464FN6NBJ2NLFWF354","","856.2999999523163","img/land1.png","74","857","1","1","1","2","0.8,0.2,0.2,0.2,0.8,0.2,0.2,0.2,0.8","0.8,0.2,0.2,0.2,0.8,0.2,0.2,0.2,0.8","1","",""
"","html-keyboard-response","224","127346","0.0-224.0","39KFRKBFIOHTE35F88H27LFDDBEYO0","AS2MFSWNC5CQI","30UZJB2POHY4464FN6NBJ2NLFWF354","","null","<img src=""img/land1.png"" style=""width:200px; border:14px solid green;"">","null","","","","","","","","","",""
"","image-keyboard-response","225","127932","0.0-225.0","39KFRKBFIOHTE35F88H27LFDDBEYO0","AS2MFSWNC5CQI","30UZJB2POHY4464FN6NBJ2NLFWF354","","584.4000000953674","img/land1.png","74","585.7000000476837","1","1","1","2","0.8,0.2,0.2,0.2,0.8,0.2,0.2,0.2,0.8","0.8,0.2,0.2,0.2,0.8,0.2,0.2,0.2,0.8","1","",""
"","html-keyboard-response","226","128235","0.0-226.0","39KFRKBFIOHTE35F88H27LFDDBEYO0","AS2MFSWNC5CQI","30UZJB2POHY4464FN6NBJ2NLFWF354","","null","<img src=""img/land1.png"" style=""width:200px; border:14px solid green;"">","null","","","","","","","","","",""
"","image-keyboard-response","227","128971","0.0-227.0","39KFRKBFIOHTE35F88H27LFDDBEYO0","AS2MFSWNC5CQI","30UZJB2POHY4464FN6NBJ2NLFWF354","","735.3999998569489","img/land6.png","75","736","2","0","3","2","0.8,0.2,0.2,0.2,0.8,0.2,0.2,0.2,0.8","0.8,0.2,0.2,0.2,0.8,0.2,0.2,0.2,0.8","1","",""
"","html-keyboard-response","228","129273","0.0-228.0","39KFRKBFIOHTE35F88H27LFDDBEYO0","AS2MFSWNC5CQI","30UZJB2POHY4464FN6NBJ2NLFWF354","","null","<img src=""img/land6.png"" style=""width:200px;border:14px solid red;"">","null","","","","","","","","","",""
"","image-keyboard-response","229","130189","0.0-229.0","39KFRKBFIOHTE35F88H27LFDDBEYO0","AS2MFSWNC5CQI","30UZJB2POHY4464FN6NBJ2NLFWF354","","915.3999998569489","img/land1.png","74","916.2000000476837","1","1","1","2","0.8,0.2,0.2,0.2,0.8,0.2,0.2,0.2,0.8","0.8,0.2,0.2,0.2,0.8,0.2,0.2,0.2,0.8","1","",""
"","html-keyboard-response","230","130492","0.0-230.0","39KFRKBFIOHTE35F88H27LFDDBEYO0","AS2MFSWNC5CQI","30UZJB2POHY4464FN6NBJ2NLFWF354","","null","<img src=""img/land1.png"" style=""width:200px; border:14px solid green;"">","null","","","","","","","","","",""
"","image-keyboard-response","231","130989","0.0-231.0","39KFRKBFIOHTE35F88H27LFDDBEYO0","AS2MFSWNC5CQI","30UZJB2POHY4464FN6NBJ2NLFWF354","","495.60000014305115","img/land1.png","74","496.7999999523163","1","1","1","2","0.8,0.2,0.2,0.2,0.8,0.2,0.2,0.2,0.8","0.8,0.2,0.2,0.2,0.8,0.2,0.2,0.2,0.8","1","",""
"","html-keyboard-response","232","131291","0.0-232.0","39KFRKBFIOHTE35F88H27LFDDBEYO0","AS2MFSWNC5CQI","30UZJB2POHY4464FN6NBJ2NLFWF354","","null","<img src=""img/land1.png"" style=""width:200px; border:14px solid green;"">","null","","","","","","","","","",""
"","image-keyboard-response","233","131676","0.0-233.0","39KFRKBFIOHTE35F88H27LFDDBEYO0","AS2MFSWNC5CQI","30UZJB2POHY4464FN6NBJ2NLFWF354","","383.10000014305115","img/land1.png","74","384.39999985694885","1","1","1","2","0.8,0.2,0.2,0.2,0.8,0.2,0.2,0.2,0.8","0.8,0.2,0.2,0.2,0.8,0.2,0.2,0.2,0.8","1","",""
"","html-keyboard-response","234","131979","0.0-234.0","39KFRKBFIOHTE35F88H27LFDDBEYO0","AS2MFSWNC5CQI","30UZJB2POHY4464FN6NBJ2NLFWF354","","null","<img src=""img/land1.png"" style=""width:200px; border:14px solid green;"">","null","","","","","","","","","",""
"","image-keyboard-response","235","132557","0.0-235.0","39KFRKBFIOHTE35F88H27LFDDBEYO0","AS2MFSWNC5CQI","30UZJB2POHY4464FN6NBJ2NLFWF354","","576.6000001430511","img/land6.png","76","578","3","1","3","2","0.8,0.2,0.2,0.2,0.8,0.2,0.2,0.2,0.8","0.8,0.2,0.2,0.2,0.8,0.2,0.2,0.2,0.8","1","",""
"","html-keyboard-response","236","132860","0.0-236.0","39KFRKBFIOHTE35F88H27LFDDBEYO0","AS2MFSWNC5CQI","30UZJB2POHY4464FN6NBJ2NLFWF354","","null","<img src=""img/land6.png"" style=""width:200px; border:14px solid green;"">","null","","","","","","","","","",""
"","image-keyboard-response","237","133531","0.0-237.0","39KFRKBFIOHTE35F88H27LFDDBEYO0","AS2MFSWNC5CQI","30UZJB2POHY4464FN6NBJ2NLFWF354","","669.5","img/land3.png","76","671.1000001430511","3","0","2","2","0.8,0.2,0.2,0.2,0.8,0.2,0.2,0.2,0.8","0.8,0.2,0.2,0.2,0.8,0.2,0.2,0.2,0.8","1","",""
"","html-keyboard-response","238","133833","0.0-238.0","39KFRKBFIOHTE35F88H27LFDDBEYO0","AS2MFSWNC5CQI","30UZJB2POHY4464FN6NBJ2NLFWF354","","null","<img src=""img/land3.png"" style=""width:200px;border:14px solid red;"">","null","","","","","","","","","",""
"","image-keyboard-response","239","135100","0.0-239.0","39KFRKBFIOHTE35F88H27LFDDBEYO0","AS2MFSWNC5CQI","30UZJB2POHY4464FN6NBJ2NLFWF354","","1266.0999999046326","img/land1.png","74","1267.0999999046326","1","1","1","2","0.8,0.2,0.2,0.2,0.8,0.2,0.2,0.2,0.8","0.8,0.2,0.2,0.2,0.8,0.2,0.2,0.2,0.8","1","",""
"","html-keyboard-response","240","135402","0.0-240.0","39KFRKBFIOHTE35F88H27LFDDBEYO0","AS2MFSWNC5CQI","30UZJB2POHY4464FN6NBJ2NLFWF354","","null","<img src=""img/land1.png"" style=""width:200px; border:14px solid green;"">","null","","","","","","","","","",""
"","image-keyboard-response","241","135773","0.0-241.0","39KFRKBFIOHTE35F88H27LFDDBEYO0","AS2MFSWNC5CQI","30UZJB2POHY4464FN6NBJ2NLFWF354","","370.40000009536743","img/land1.png","74","371.2000000476837","1","1","1","2","0.8,0.2,0.2,0.2,0.8,0.2,0.2,0.2,0.8","0.8,0.2,0.2,0.2,0.8,0.2,0.2,0.2,0.8","1","",""
"","html-keyboard-response","242","136076","0.0-242.0","39KFRKBFIOHTE35F88H27LFDDBEYO0","AS2MFSWNC5CQI","30UZJB2POHY4464FN6NBJ2NLFWF354","","null","<img src=""img/land1.png"" style=""width:200px; border:14px solid green;"">","null","","","","","","","","","",""
"","image-keyboard-response","243","136299","0.0-243.0","39KFRKBFIOHTE35F88H27LFDDBEYO0","AS2MFSWNC5CQI","30UZJB2POHY4464FN6NBJ2NLFWF354","","221.30000019073486","img/land1.png","74","222.40000009536743","1","0","1","2","0.8,0.2,0.2,0.2,0.8,0.2,0.2,0.2,0.8","0.8,0.2,0.2,0.2,0.8,0.2,0.2,0.2,0.8","1","",""
"","html-keyboard-response","244","136600","0.0-244.0","39KFRKBFIOHTE35F88H27LFDDBEYO0","AS2MFSWNC5CQI","30UZJB2POHY4464FN6NBJ2NLFWF354","","null","<img src=""img/land1.png"" style=""width:200px;border:14px solid red;"">","null","","","","","","","","","",""
"","image-keyboard-response","245","137366","0.0-245.0","39KFRKBFIOHTE35F88H27LFDDBEYO0","AS2MFSWNC5CQI","30UZJB2POHY4464FN6NBJ2NLFWF354","","765","img/land3.png","76","765.7000000476837","3","1","2","2","0.8,0.2,0.2,0.2,0.8,0.2,0.2,0.2,0.8","0.8,0.2,0.2,0.2,0.8,0.2,0.2,0.2,0.8","1","",""
"","html-keyboard-response","246","137668","0.0-246.0","39KFRKBFIOHTE35F88H27LFDDBEYO0","AS2MFSWNC5CQI","30UZJB2POHY4464FN6NBJ2NLFWF354","","null","<img src=""img/land3.png"" style=""width:200px; border:14px solid green;"">","null","","","","","","","","","",""
"","image-keyboard-response","247","138443","0.0-247.0","39KFRKBFIOHTE35F88H27LFDDBEYO0","AS2MFSWNC5CQI","30UZJB2POHY4464FN6NBJ2NLFWF354","","774.5999999046326","img/land1.png","74","775.1000001430511","1","1","1","2","0.8,0.2,0.2,0.2,0.8,0.2,0.2,0.2,0.8","0.8,0.2,0.2,0.2,0.8,0.2,0.2,0.2,0.8","1","",""
"","html-keyboard-response","248","138744","0.0-248.0","39KFRKBFIOHTE35F88H27LFDDBEYO0","AS2MFSWNC5CQI","30UZJB2POHY4464FN6NBJ2NLFWF354","","null","<img src=""img/land1.png"" style=""width:200px; border:14px solid green;"">","null","","","","","","","","","",""
"","image-keyboard-response","249","138995","0.0-249.0","39KFRKBFIOHTE35F88H27LFDDBEYO0","AS2MFSWNC5CQI","30UZJB2POHY4464FN6NBJ2NLFWF354","","249.90000009536743","img/land1.png","74","250.39999985694885","1","1","1","2","0.8,0.2,0.2,0.2,0.8,0.2,0.2,0.2,0.8","0.8,0.2,0.2,0.2,0.8,0.2,0.2,0.2,0.8","1","",""
"","html-keyboard-response","250","139300","0.0-250.0","39KFRKBFIOHTE35F88H27LFDDBEYO0","AS2MFSWNC5CQI","30UZJB2POHY4464FN6NBJ2NLFWF354","","null","<img src=""img/land1.png"" style=""width:200px; border:14px solid green;"">","null","","","","","","","","","",""
"","image-keyboard-response","251","139716","0.0-251.0","39KFRKBFIOHTE35F88H27LFDDBEYO0","AS2MFSWNC5CQI","30UZJB2POHY4464FN6NBJ2NLFWF354","","414.10000014305115","img/land1.png","74","415.7000000476837","1","1","1","2","0.8,0.2,0.2,0.2,0.8,0.2,0.2,0.2,0.8","0.8,0.2,0.2,0.2,0.8,0.2,0.2,0.2,0.8","1","",""
"","html-keyboard-response","252","140019","0.0-252.0","39KFRKBFIOHTE35F88H27LFDDBEYO0","AS2MFSWNC5CQI","30UZJB2POHY4464FN6NBJ2NLFWF354","","null","<img src=""img/land1.png"" style=""width:200px; border:14px solid green;"">","null","","","","","","","","","",""
"","image-keyboard-response","253","140428","0.0-253.0","39KFRKBFIOHTE35F88H27LFDDBEYO0","AS2MFSWNC5CQI","30UZJB2POHY4464FN6NBJ2NLFWF354","","407.30000019073486","img/land1.png","74","408.80000019073486","1","1","1","2","0.8,0.2,0.2,0.2,0.8,0.2,0.2,0.2,0.8","0.8,0.2,0.2,0.2,0.8,0.2,0.2,0.2,0.8","1","",""
"","html-keyboard-response","254","140731","0.0-254.0","39KFRKBFIOHTE35F88H27LFDDBEYO0","AS2MFSWNC5CQI","30UZJB2POHY4464FN6NBJ2NLFWF354","","null","<img src=""img/land1.png"" style=""width:200px; border:14px solid green;"">","null","","","","","","","","","",""
"","image-keyboard-response","255","141437","0.0-255.0","39KFRKBFIOHTE35F88H27LFDDBEYO0","AS2MFSWNC5CQI","30UZJB2POHY4464FN6NBJ2NLFWF354","","704.6000001430511","img/land6.png","75","706.1000001430511","2","1","3","2","0.8,0.2,0.2,0.2,0.8,0.2,0.2,0.2,0.8","0.8,0.2,0.2,0.2,0.8,0.2,0.2,0.2,0.8","1","",""
"","html-keyboard-response","256","141740","0.0-256.0","39KFRKBFIOHTE35F88H27LFDDBEYO0","AS2MFSWNC5CQI","30UZJB2POHY4464FN6NBJ2NLFWF354","","null","<img src=""img/land6.png"" style=""width:200px; border:14px solid green;"">","null","","","","","","","","","",""
"","image-keyboard-response","257","142547","0.0-257.0","39KFRKBFIOHTE35F88H27LFDDBEYO0","AS2MFSWNC5CQI","30UZJB2POHY4464FN6NBJ2NLFWF354","","805.4000000953674","img/land1.png","74","806.6000001430511","1","1","1","2","0.8,0.2,0.2,0.2,0.8,0.2,0.2,0.2,0.8","0.8,0.2,0.2,0.2,0.8,0.2,0.2,0.2,0.8","1","",""
"","html-keyboard-response","258","142849","0.0-258.0","39KFRKBFIOHTE35F88H27LFDDBEYO0","AS2MFSWNC5CQI","30UZJB2POHY4464FN6NBJ2NLFWF354","","null","<img src=""img/land1.png"" style=""width:200px; border:14px solid green;"">","null","","","","","","","","","",""
"","image-keyboard-response","259","143124","0.0-259.0","39KFRKBFIOHTE35F88H27LFDDBEYO0","AS2MFSWNC5CQI","30UZJB2POHY4464FN6NBJ2NLFWF354","","273.7000000476837","img/land3.png","74","275.2000000476837","1","0","2","2","0.8,0.2,0.2,0.2,0.8,0.2,0.2,0.2,0.8","0.8,0.2,0.2,0.2,0.8,0.2,0.2,0.2,0.8","1","",""
"","html-keyboard-response","260","143427","0.0-260.0","39KFRKBFIOHTE35F88H27LFDDBEYO0","AS2MFSWNC5CQI","30UZJB2POHY4464FN6NBJ2NLFWF354","","null","<img src=""img/land3.png"" style=""width:200px;border:14px solid red;"">","null","","","","","","","","","",""
"","image-keyboard-response","261","144156","0.0-261.0","39KFRKBFIOHTE35F88H27LFDDBEYO0","AS2MFSWNC5CQI","30UZJB2POHY4464FN6NBJ2NLFWF354","","727.5","img/land1.png","74","729.2000000476837","1","1","1","2","0.8,0.2,0.2,0.2,0.8,0.2,0.2,0.2,0.8","0.8,0.2,0.2,0.2,0.8,0.2,0.2,0.2,0.8","1","",""
"","html-keyboard-response","262","144459","0.0-262.0","39KFRKBFIOHTE35F88H27LFDDBEYO0","AS2MFSWNC5CQI","30UZJB2POHY4464FN6NBJ2NLFWF354","","null","<img src=""img/land1.png"" style=""width:200px; border:14px solid green;"">","null","","","","","","","","","",""
"","image-keyboard-response","263","144788","0.0-263.0","39KFRKBFIOHTE35F88H27LFDDBEYO0","AS2MFSWNC5CQI","30UZJB2POHY4464FN6NBJ2NLFWF354","","327.7999999523163","img/land1.png","74","329.2999999523163","1","1","1","2","0.8,0.2,0.2,0.2,0.8,0.2,0.2,0.2,0.8","0.8,0.2,0.2,0.2,0.8,0.2,0.2,0.2,0.8","1","",""
"","html-keyboard-response","264","145091","0.0-264.0","39KFRKBFIOHTE35F88H27LFDDBEYO0","AS2MFSWNC5CQI","30UZJB2POHY4464FN6NBJ2NLFWF354","","null","<img src=""img/land1.png"" style=""width:200px; border:14px solid green;"">","null","","","","","","","","","",""
"","image-keyboard-response","265","145260","0.0-265.0","39KFRKBFIOHTE35F88H27LFDDBEYO0","AS2MFSWNC5CQI","30UZJB2POHY4464FN6NBJ2NLFWF354","","167.29999995231628","img/land1.png","74","168.70000004768372","1","1","1","2","0.8,0.2,0.2,0.2,0.8,0.2,0.2,0.2,0.8","0.8,0.2,0.2,0.2,0.8,0.2,0.2,0.2,0.8","1","",""
"","html-keyboard-response","266","145562","0.0-266.0","39KFRKBFIOHTE35F88H27LFDDBEYO0","AS2MFSWNC5CQI","30UZJB2POHY4464FN6NBJ2NLFWF354","","null","<img src=""img/land1.png"" style=""width:200px; border:14px solid green;"">","null","","","","","","","","","",""
"","image-keyboard-response","267","145748","0.0-267.0","39KFRKBFIOHTE35F88H27LFDDBEYO0","AS2MFSWNC5CQI","30UZJB2POHY4464FN6NBJ2NLFWF354","","184.79999995231628","img/land3.png","74","185.59999990463257","1","0","2","2","0.8,0.2,0.2,0.2,0.8,0.2,0.2,0.2,0.8","0.8,0.2,0.2,0.2,0.8,0.2,0.2,0.2,0.8","1","",""
"","html-keyboard-response","268","146050","0.0-268.0","39KFRKBFIOHTE35F88H27LFDDBEYO0","AS2MFSWNC5CQI","30UZJB2POHY4464FN6NBJ2NLFWF354","","null","<img src=""img/land3.png"" style=""width:200px;border:14px solid red;"">","null","","","","","","","","","",""
"","image-keyboard-response","269","146788","0.0-269.0","39KFRKBFIOHTE35F88H27LFDDBEYO0","AS2MFSWNC5CQI","30UZJB2POHY4464FN6NBJ2NLFWF354","","736.2000000476837","img/land6.png","75","737.5999999046326","2","0","3","2","0.8,0.2,0.2,0.2,0.8,0.2,0.2,0.2,0.8","0.8,0.2,0.2,0.2,0.8,0.2,0.2,0.2,0.8","1","",""
"","html-keyboard-response","270","147091","0.0-270.0","39KFRKBFIOHTE35F88H27LFDDBEYO0","AS2MFSWNC5CQI","30UZJB2POHY4464FN6NBJ2NLFWF354","","null","<img src=""img/land6.png"" style=""width:200px;border:14px solid red;"">","null","","","","","","","","","",""
"","image-keyboard-response","271","147909","0.0-271.0","39KFRKBFIOHTE35F88H27LFDDBEYO0","AS2MFSWNC5CQI","30UZJB2POHY4464FN6NBJ2NLFWF354","","816.1000001430511","img/land3.png","75","817.5","2","0","2","2","0.8,0.2,0.2,0.2,0.8,0.2,0.2,0.2,0.8","0.8,0.2,0.2,0.2,0.8,0.2,0.2,0.2,0.8","1","",""
"","html-keyboard-response","272","148211","0.0-272.0","39KFRKBFIOHTE35F88H27LFDDBEYO0","AS2MFSWNC5CQI","30UZJB2POHY4464FN6NBJ2NLFWF354","","null","<img src=""img/land3.png"" style=""width:200px;border:14px solid red;"">","null","","","","","","","","","",""
"","image-keyboard-response","273","148949","0.0-273.0","39KFRKBFIOHTE35F88H27LFDDBEYO0","AS2MFSWNC5CQI","30UZJB2POHY4464FN6NBJ2NLFWF354","","736.0999999046326","img/land1.png","74","737.5999999046326","1","1","1","2","0.8,0.2,0.2,0.2,0.8,0.2,0.2,0.2,0.8","0.8,0.2,0.2,0.2,0.8,0.2,0.2,0.2,0.8","1","",""
"","html-keyboard-response","274","149251","0.0-274.0","39KFRKBFIOHTE35F88H27LFDDBEYO0","AS2MFSWNC5CQI","30UZJB2POHY4464FN6NBJ2NLFWF354","","null","<img src=""img/land1.png"" style=""width:200px; border:14px solid green;"">","null","","","","","","","","","",""
"","image-keyboard-response","275","149635","0.0-275.0","39KFRKBFIOHTE35F88H27LFDDBEYO0","AS2MFSWNC5CQI","30UZJB2POHY4464FN6NBJ2NLFWF354","","381.89999985694885","img/land1.png","74","382.90000009536743","1","1","1","2","0.8,0.2,0.2,0.2,0.8,0.2,0.2,0.2,0.8","0.8,0.2,0.2,0.2,0.8,0.2,0.2,0.2,0.8","1","",""
"","html-keyboard-response","276","149937","0.0-276.0","39KFRKBFIOHTE35F88H27LFDDBEYO0","AS2MFSWNC5CQI","30UZJB2POHY4464FN6NBJ2NLFWF354","","null","<img src=""img/land1.png"" style=""width:200px; border:14px solid green;"">","null","","","","","","","","","",""
"","image-keyboard-response","277","150179","0.0-277.0","39KFRKBFIOHTE35F88H27LFDDBEYO0","AS2MFSWNC5CQI","30UZJB2POHY4464FN6NBJ2NLFWF354","","240.39999985694885","img/land1.png","74","241.5","1","0","1","2","0.8,0.2,0.2,0.2,0.8,0.2,0.2,0.2,0.8","0.8,0.2,0.2,0.2,0.8,0.2,0.2,0.2,0.8","1","",""
"","html-keyboard-response","278","150480","0.0-278.0","39KFRKBFIOHTE35F88H27LFDDBEYO0","AS2MFSWNC5CQI","30UZJB2POHY4464FN6NBJ2NLFWF354","","null","<img src=""img/land1.png"" style=""width:200px;border:14px solid red;"">","null","","","","","","","","","",""
"","image-keyboard-response","279","151324","0.0-279.0","39KFRKBFIOHTE35F88H27LFDDBEYO0","AS2MFSWNC5CQI","30UZJB2POHY4464FN6NBJ2NLFWF354","","843.2000000476837","img/land6.png","76","844.1999998092651","3","1","3","2","0.8,0.2,0.2,0.2,0.8,0.2,0.2,0.2,0.8","0.8,0.2,0.2,0.2,0.8,0.2,0.2,0.2,0.8","1","",""
"","html-keyboard-response","280","151627","0.0-280.0","39KFRKBFIOHTE35F88H27LFDDBEYO0","AS2MFSWNC5CQI","30UZJB2POHY4464FN6NBJ2NLFWF354","","null","<img src=""img/land6.png"" style=""width:200px; border:14px solid green;"">","null","","","","","","","","","",""
"","image-keyboard-response","281","152467","0.0-281.0","39KFRKBFIOHTE35F88H27LFDDBEYO0","AS2MFSWNC5CQI","30UZJB2POHY4464FN6NBJ2NLFWF354","","838.2000000476837","img/land6.png","76","839.5","3","0","3","2","0.8,0.2,0.2,0.2,0.8,0.2,0.2,0.2,0.8","0.8,0.2,0.2,0.2,0.8,0.2,0.2,0.2,0.8","1","",""
"","html-keyboard-response","282","152769","0.0-282.0","39KFRKBFIOHTE35F88H27LFDDBEYO0","AS2MFSWNC5CQI","30UZJB2POHY4464FN6NBJ2NLFWF354","","null","<img src=""img/land6.png"" style=""width:200px;border:14px solid red;"">","null","","","","","","","","","",""
"","image-keyboard-response","283","153892","0.0-283.0","39KFRKBFIOHTE35F88H27LFDDBEYO0","AS2MFSWNC5CQI","30UZJB2POHY4464FN6NBJ2NLFWF354","","1122","img/land1.png","74","1123.3999998569489","1","1","1","2","0.8,0.2,0.2,0.2,0.8,0.2,0.2,0.2,0.8","0.8,0.2,0.2,0.2,0.8,0.2,0.2,0.2,0.8","1","",""
"","html-keyboard-response","284","154194","0.0-284.0","39KFRKBFIOHTE35F88H27LFDDBEYO0","AS2MFSWNC5CQI","30UZJB2POHY4464FN6NBJ2NLFWF354","","null","<img src=""img/land1.png"" style=""width:200px; border:14px solid green;"">","null","","","","","","","","","",""
"","image-keyboard-response","285","155100","0.0-285.0","39KFRKBFIOHTE35F88H27LFDDBEYO0","AS2MFSWNC5CQI","30UZJB2POHY4464FN6NBJ2NLFWF354","","903.7000000476837","img/land1.png","74","905.2000000476837","1","1","1","2","0.8,0.2,0.2,0.2,0.8,0.2,0.2,0.2,0.8","0.8,0.2,0.2,0.2,0.8,0.2,0.2,0.2,0.8","1","",""
"","html-keyboard-response","286","155402","0.0-286.0","39KFRKBFIOHTE35F88H27LFDDBEYO0","AS2MFSWNC5CQI","30UZJB2POHY4464FN6NBJ2NLFWF354","","null","<img src=""img/land1.png"" style=""width:200px; border:14px solid green;"">","null","","","","","","","","","",""
"","image-keyboard-response","287","156045","0.0-287.0","39KFRKBFIOHTE35F88H27LFDDBEYO0","AS2MFSWNC5CQI","30UZJB2POHY4464FN6NBJ2NLFWF354","","641.1999998092651","img/land1.png","74","642.6999998092651","1","0","1","2","0.8,0.2,0.2,0.2,0.8,0.2,0.2,0.2,0.8","0.8,0.2,0.2,0.2,0.8,0.2,0.2,0.2,0.8","1","",""
"","html-keyboard-response","288","156348","0.0-288.0","39KFRKBFIOHTE35F88H27LFDDBEYO0","AS2MFSWNC5CQI","30UZJB2POHY4464FN6NBJ2NLFWF354","","null","<img src=""img/land1.png"" style=""width:200px;border:14px solid red;"">","null","","","","","","","","","",""
"","image-keyboard-response","289","156964","0.0-289.0","39KFRKBFIOHTE35F88H27LFDDBEYO0","AS2MFSWNC5CQI","30UZJB2POHY4464FN6NBJ2NLFWF354","","614.8999998569489","img/land1.png","74","616.4000000953674","1","0","1","2","0.8,0.2,0.2,0.2,0.8,0.2,0.2,0.2,0.8","0.8,0.2,0.2,0.2,0.8,0.2,0.2,0.2,0.8","1","",""
"","html-keyboard-response","290","157267","0.0-290.0","39KFRKBFIOHTE35F88H27LFDDBEYO0","AS2MFSWNC5CQI","30UZJB2POHY4464FN6NBJ2NLFWF354","","null","<img src=""img/land1.png"" style=""width:200px;border:14px solid red;"">","null","","","","","","","","","",""
"","image-keyboard-response","291","158077","0.0-291.0","39KFRKBFIOHTE35F88H27LFDDBEYO0","AS2MFSWNC5CQI","30UZJB2POHY4464FN6NBJ2NLFWF354","","807.9000000953674","img/land1.png","75","809.5","2","0","1","2","0.8,0.2,0.2,0.2,0.8,0.2,0.2,0.2,0.8","0.8,0.2,0.2,0.2,0.8,0.2,0.2,0.2,0.8","1","",""
"","html-keyboard-response","292","158379","0.0-292.0","39KFRKBFIOHTE35F88H27LFDDBEYO0","AS2MFSWNC5CQI","30UZJB2POHY4464FN6NBJ2NLFWF354","","null","<img src=""img/land1.png"" style=""width:200px;border:14px solid red;"">","null","","","","","","","","","",""
"","image-keyboard-response","293","158859","0.0-293.0","39KFRKBFIOHTE35F88H27LFDDBEYO0","AS2MFSWNC5CQI","30UZJB2POHY4464FN6NBJ2NLFWF354","","479.5","img/land1.png","76","480.39999985694885","3","0","1","2","0.8,0.2,0.2,0.2,0.8,0.2,0.2,0.2,0.8","0.8,0.2,0.2,0.2,0.8,0.2,0.2,0.2,0.8","1","",""
"","html-keyboard-response","294","159161","0.0-294.0","39KFRKBFIOHTE35F88H27LFDDBEYO0","AS2MFSWNC5CQI","30UZJB2POHY4464FN6NBJ2NLFWF354","","null","<img src=""img/land1.png"" style=""width:200px;border:14px solid red;"">","null","","","","","","","","","",""
"","image-keyboard-response","295","159540","0.0-295.0","39KFRKBFIOHTE35F88H27LFDDBEYO0","AS2MFSWNC5CQI","30UZJB2POHY4464FN6NBJ2NLFWF354","","377.7999999523163","img/land1.png","74","379.2999999523163","1","1","1","2","0.8,0.2,0.2,0.2,0.8,0.2,0.2,0.2,0.8","0.8,0.2,0.2,0.2,0.8,0.2,0.2,0.2,0.8","1","",""
"","html-keyboard-response","296","159843","0.0-296.0","39KFRKBFIOHTE35F88H27LFDDBEYO0","AS2MFSWNC5CQI","30UZJB2POHY4464FN6NBJ2NLFWF354","","null","<img src=""img/land1.png"" style=""width:200px; border:14px solid green;"">","null","","","","","","","","","",""
"","image-keyboard-response","297","160685","0.0-297.0","39KFRKBFIOHTE35F88H27LFDDBEYO0","AS2MFSWNC5CQI","30UZJB2POHY4464FN6NBJ2NLFWF354","","840.0999999046326","img/land1.png","74","841.6999998092651","1","1","1","2","0.8,0.2,0.2,0.2,0.8,0.2,0.2,0.2,0.8","0.8,0.2,0.2,0.2,0.8,0.2,0.2,0.2,0.8","1","",""
"","html-keyboard-response","298","160987","0.0-298.0","39KFRKBFIOHTE35F88H27LFDDBEYO0","AS2MFSWNC5CQI","30UZJB2POHY4464FN6NBJ2NLFWF354","","null","<img src=""img/land1.png"" style=""width:200px; border:14px solid green;"">","null","","","","","","","","","",""
"","image-keyboard-response","299","161877","0.0-299.0","39KFRKBFIOHTE35F88H27LFDDBEYO0","AS2MFSWNC5CQI","30UZJB2POHY4464FN6NBJ2NLFWF354","","887.6000001430511","img/land1.png","74","889","1","1","1","2","0.8,0.2,0.2,0.2,0.8,0.2,0.2,0.2,0.8","0.8,0.2,0.2,0.2,0.8,0.2,0.2,0.2,0.8","1","",""
"","html-keyboard-response","300","162180","0.0-300.0","39KFRKBFIOHTE35F88H27LFDDBEYO0","AS2MFSWNC5CQI","30UZJB2POHY4464FN6NBJ2NLFWF354","","null","<img src=""img/land1.png"" style=""width:200px; border:14px solid green;"">","null","","","","","","","","","",""
"","image-keyboard-response","301","162988","0.0-301.0","39KFRKBFIOHTE35F88H27LFDDBEYO0","AS2MFSWNC5CQI","30UZJB2POHY4464FN6NBJ2NLFWF354","","806.5999999046326","img/land1.png","74","808.2000000476837","1","1","1","2","0.8,0.2,0.2,0.2,0.8,0.2,0.2,0.2,0.8","0.8,0.2,0.2,0.2,0.8,0.2,0.2,0.2,0.8","1","",""
"","html-keyboard-response","302","163291","0.0-302.0","39KFRKBFIOHTE35F88H27LFDDBEYO0","AS2MFSWNC5CQI","30UZJB2POHY4464FN6NBJ2NLFWF354","","null","<img src=""img/land1.png"" style=""width:200px; border:14px solid green;"">","null","","","","","","","","","",""
"","image-keyboard-response","303","164244","0.0-303.0","39KFRKBFIOHTE35F88H27LFDDBEYO0","AS2MFSWNC5CQI","30UZJB2POHY4464FN6NBJ2NLFWF354","","951.6000001430511","img/land3.png","75","953.2000000476837","2","0","2","2","0.8,0.2,0.2,0.2,0.8,0.2,0.2,0.2,0.8","0.8,0.2,0.2,0.2,0.8,0.2,0.2,0.2,0.8","1","",""
"","html-keyboard-response","304","164547","0.0-304.0","39KFRKBFIOHTE35F88H27LFDDBEYO0","AS2MFSWNC5CQI","30UZJB2POHY4464FN6NBJ2NLFWF354","","null","<img src=""img/land3.png"" style=""width:200px;border:14px solid red;"">","null","","","","","","","","","",""
"","image-keyboard-response","305","165068","0.0-305.0","39KFRKBFIOHTE35F88H27LFDDBEYO0","AS2MFSWNC5CQI","30UZJB2POHY4464FN6NBJ2NLFWF354","","519.0999999046326","img/land1.png","74","520.5999999046326","1","0","1","2","0.8,0.2,0.2,0.2,0.8,0.2,0.2,0.2,0.8","0.8,0.2,0.2,0.2,0.8,0.2,0.2,0.2,0.8","1","",""
"","html-keyboard-response","306","165371","0.0-306.0","39KFRKBFIOHTE35F88H27LFDDBEYO0","AS2MFSWNC5CQI","30UZJB2POHY4464FN6NBJ2NLFWF354","","null","<img src=""img/land1.png"" style=""width:200px;border:14px solid red;"">","null","","","","","","","","","",""
"","image-keyboard-response","307","165765","0.0-307.0","39KFRKBFIOHTE35F88H27LFDDBEYO0","AS2MFSWNC5CQI","30UZJB2POHY4464FN6NBJ2NLFWF354","","390.5","img/land1.png","74","392","1","1","1","2","0.8,0.2,0.2,0.2,0.8,0.2,0.2,0.2,0.8","0.8,0.2,0.2,0.2,0.8,0.2,0.2,0.2,0.8","1","",""
"","html-keyboard-response","308","166069","0.0-308.0","39KFRKBFIOHTE35F88H27LFDDBEYO0","AS2MFSWNC5CQI","30UZJB2POHY4464FN6NBJ2NLFWF354","","null","<img src=""img/land1.png"" style=""width:200px; border:14px solid green;"">","null","","","","","","","","","",""
"","image-keyboard-response","309","166330","0.0-309.0","39KFRKBFIOHTE35F88H27LFDDBEYO0","AS2MFSWNC5CQI","30UZJB2POHY4464FN6NBJ2NLFWF354","","260.09999990463257","img/land1.png","74","261.2000000476837","1","1","1","2","0.8,0.2,0.2,0.2,0.8,0.2,0.2,0.2,0.8","0.8,0.2,0.2,0.2,0.8,0.2,0.2,0.2,0.8","1","",""
"","html-keyboard-response","310","166632","0.0-310.0","39KFRKBFIOHTE35F88H27LFDDBEYO0","AS2MFSWNC5CQI","30UZJB2POHY4464FN6NBJ2NLFWF354","","null","<img src=""img/land1.png"" style=""width:200px; border:14px solid green;"">","null","","","","","","","","","",""
"","image-keyboard-response","311","166948","0.0-311.0","39KFRKBFIOHTE35F88H27LFDDBEYO0","AS2MFSWNC5CQI","30UZJB2POHY4464FN6NBJ2NLFWF354","","314.7000000476837","img/land1.png","74","315.7999999523163","1","1","1","2","0.8,0.2,0.2,0.2,0.8,0.2,0.2,0.2,0.8","0.8,0.2,0.2,0.2,0.8,0.2,0.2,0.2,0.8","1","",""
"","html-keyboard-response","312","167251","0.0-312.0","39KFRKBFIOHTE35F88H27LFDDBEYO0","AS2MFSWNC5CQI","30UZJB2POHY4464FN6NBJ2NLFWF354","","null","<img src=""img/land1.png"" style=""width:200px; border:14px solid green;"">","null","","","","","","","","","",""
"","image-keyboard-response","313","167587","0.0-313.0","39KFRKBFIOHTE35F88H27LFDDBEYO0","AS2MFSWNC5CQI","30UZJB2POHY4464FN6NBJ2NLFWF354","","334.2999999523163","img/land1.png","74","335.60000014305115","1","1","1","2","0.8,0.2,0.2,0.2,0.8,0.2,0.2,0.2,0.8","0.8,0.2,0.2,0.2,0.8,0.2,0.2,0.2,0.8","1","",""
"","html-keyboard-response","314","167888","0.0-314.0","39KFRKBFIOHTE35F88H27LFDDBEYO0","AS2MFSWNC5CQI","30UZJB2POHY4464FN6NBJ2NLFWF354","","null","<img src=""img/land1.png"" style=""width:200px; border:14px solid green;"">","null","","","","","","","","","",""
"","image-keyboard-response","315","168133","0.0-315.0","39KFRKBFIOHTE35F88H27LFDDBEYO0","AS2MFSWNC5CQI","30UZJB2POHY4464FN6NBJ2NLFWF354","","244","img/land1.png","74","244.90000009536743","1","1","1","2","0.8,0.2,0.2,0.2,0.8,0.2,0.2,0.2,0.8","0.8,0.2,0.2,0.2,0.8,0.2,0.2,0.2,0.8","1","",""
"","html-keyboard-response","316","168437","0.0-316.0","39KFRKBFIOHTE35F88H27LFDDBEYO0","AS2MFSWNC5CQI","30UZJB2POHY4464FN6NBJ2NLFWF354","","null","<img src=""img/land1.png"" style=""width:200px; border:14px solid green;"">","null","","","","","","","","","",""
"","image-keyboard-response","317","168707","0.0-317.0","39KFRKBFIOHTE35F88H27LFDDBEYO0","AS2MFSWNC5CQI","30UZJB2POHY4464FN6NBJ2NLFWF354","","268.80000019073486","img/land1.png","74","270","1","0","1","2","0.8,0.2,0.2,0.2,0.8,0.2,0.2,0.2,0.8","0.8,0.2,0.2,0.2,0.8,0.2,0.2,0.2,0.8","1","",""
"","html-keyboard-response","318","169009","0.0-318.0","39KFRKBFIOHTE35F88H27LFDDBEYO0","AS2MFSWNC5CQI","30UZJB2POHY4464FN6NBJ2NLFWF354","","null","<img src=""img/land1.png"" style=""width:200px;border:14px solid red;"">","null","","","","","","","","","",""
"","image-keyboard-response","319","169549","0.0-319.0","39KFRKBFIOHTE35F88H27LFDDBEYO0","AS2MFSWNC5CQI","30UZJB2POHY4464FN6NBJ2NLFWF354","","539.4000000953674","img/land1.png","74","540.1999998092651","1","1","1","2","0.8,0.2,0.2,0.2,0.8,0.2,0.2,0.2,0.8","0.8,0.2,0.2,0.2,0.8,0.2,0.2,0.2,0.8","1","",""
"","html-keyboard-response","320","169851","0.0-320.0","39KFRKBFIOHTE35F88H27LFDDBEYO0","AS2MFSWNC5CQI","30UZJB2POHY4464FN6NBJ2NLFWF354","","null","<img src=""img/land1.png"" style=""width:200px; border:14px solid green;"">","null","","","","","","","","","",""
"","image-keyboard-response","321","170317","0.0-321.0","39KFRKBFIOHTE35F88H27LFDDBEYO0","AS2MFSWNC5CQI","30UZJB2POHY4464FN6NBJ2NLFWF354","","464.40000009536743","img/land1.png","74","465.7999999523163","1","1","1","2","0.8,0.2,0.2,0.2,0.8,0.2,0.2,0.2,0.8","0.8,0.2,0.2,0.2,0.8,0.2,0.2,0.2,0.8","1","",""
"","html-keyboard-response","322","170620","0.0-322.0","39KFRKBFIOHTE35F88H27LFDDBEYO0","AS2MFSWNC5CQI","30UZJB2POHY4464FN6NBJ2NLFWF354","","null","<img src=""img/land1.png"" style=""width:200px; border:14px solid green;"">","null","","","","","","","","","",""
"","image-keyboard-response","323","171155","0.0-323.0","39KFRKBFIOHTE35F88H27LFDDBEYO0","AS2MFSWNC5CQI","30UZJB2POHY4464FN6NBJ2NLFWF354","","533.5","img/land1.png","74","534.6000001430511","1","1","1","2","0.8,0.2,0.2,0.2,0.8,0.2,0.2,0.2,0.8","0.8,0.2,0.2,0.2,0.8,0.2,0.2,0.2,0.8","1","",""
"","html-keyboard-response","324","171457","0.0-324.0","39KFRKBFIOHTE35F88H27LFDDBEYO0","AS2MFSWNC5CQI","30UZJB2POHY4464FN6NBJ2NLFWF354","","null","<img src=""img/land1.png"" style=""width:200px; border:14px solid green;"">","null","","","","","","","","","",""
"","image-keyboard-response","325","171892","0.0-325.0","39KFRKBFIOHTE35F88H27LFDDBEYO0","AS2MFSWNC5CQI","30UZJB2POHY4464FN6NBJ2NLFWF354","","433.60000014305115","img/land1.png","74","435.2000000476837","1","1","1","2","0.8,0.2,0.2,0.2,0.8,0.2,0.2,0.2,0.8","0.8,0.2,0.2,0.2,0.8,0.2,0.2,0.2,0.8","1","",""
"","html-keyboard-response","326","172195","0.0-326.0","39KFRKBFIOHTE35F88H27LFDDBEYO0","AS2MFSWNC5CQI","30UZJB2POHY4464FN6NBJ2NLFWF354","","null","<img src=""img/land1.png"" style=""width:200px; border:14px solid green;"">","null","","","","","","","","","",""
"","image-keyboard-response","327","172620","0.0-327.0","39KFRKBFIOHTE35F88H27LFDDBEYO0","AS2MFSWNC5CQI","30UZJB2POHY4464FN6NBJ2NLFWF354","","423.2000000476837","img/land1.png","74","424.5","1","1","1","2","0.8,0.2,0.2,0.2,0.8,0.2,0.2,0.2,0.8","0.8,0.2,0.2,0.2,0.8,0.2,0.2,0.2,0.8","1","",""
"","html-keyboard-response","328","172922","0.0-328.0","39KFRKBFIOHTE35F88H27LFDDBEYO0","AS2MFSWNC5CQI","30UZJB2POHY4464FN6NBJ2NLFWF354","","null","<img src=""img/land1.png"" style=""width:200px; border:14px solid green;"">","null","","","","","","","","","",""
"","image-keyboard-response","329","173309","0.0-329.0","39KFRKBFIOHTE35F88H27LFDDBEYO0","AS2MFSWNC5CQI","30UZJB2POHY4464FN6NBJ2NLFWF354","","385.09999990463257","img/land1.png","74","386.5","1","1","1","2","0.8,0.2,0.2,0.2,0.8,0.2,0.2,0.2,0.8","0.8,0.2,0.2,0.2,0.8,0.2,0.2,0.2,0.8","1","",""
"","html-keyboard-response","330","173612","0.0-330.0","39KFRKBFIOHTE35F88H27LFDDBEYO0","AS2MFSWNC5CQI","30UZJB2POHY4464FN6NBJ2NLFWF354","","null","<img src=""img/land1.png"" style=""width:200px; border:14px solid green;"">","null","","","","","","","","","",""
"","image-keyboard-response","331","174510","0.0-331.0","39KFRKBFIOHTE35F88H27LFDDBEYO0","AS2MFSWNC5CQI","30UZJB2POHY4464FN6NBJ2NLFWF354","","897.1000001430511","img/land3.png","75","897.7999999523163","2","0","2","2","0.8,0.2,0.2,0.2,0.8,0.2,0.2,0.2,0.8","0.8,0.2,0.2,0.2,0.8,0.2,0.2,0.2,0.8","1","",""
"","html-keyboard-response","332","174820","0.0-332.0","39KFRKBFIOHTE35F88H27LFDDBEYO0","AS2MFSWNC5CQI","30UZJB2POHY4464FN6NBJ2NLFWF354","","null","<img src=""img/land3.png"" style=""width:200px;border:14px solid red;"">","null","","","","","","","","","",""
"","image-keyboard-response","333","175555","0.0-333.0","39KFRKBFIOHTE35F88H27LFDDBEYO0","AS2MFSWNC5CQI","30UZJB2POHY4464FN6NBJ2NLFWF354","","733.0999999046326","img/land1.png","74","734.1999998092651","1","1","1","2","0.8,0.2,0.2,0.2,0.8,0.2,0.2,0.2,0.8","0.8,0.2,0.2,0.2,0.8,0.2,0.2,0.2,0.8","1","",""
"","html-keyboard-response","334","175856","0.0-334.0","39KFRKBFIOHTE35F88H27LFDDBEYO0","AS2MFSWNC5CQI","30UZJB2POHY4464FN6NBJ2NLFWF354","","null","<img src=""img/land1.png"" style=""width:200px; border:14px solid green;"">","null","","","","","","","","","",""
"","image-keyboard-response","335","176549","0.0-335.0","39KFRKBFIOHTE35F88H27LFDDBEYO0","AS2MFSWNC5CQI","30UZJB2POHY4464FN6NBJ2NLFWF354","","690.3000001907349","img/land3.png","75","691.9000000953674","2","1","2","2","0.8,0.2,0.2,0.2,0.8,0.2,0.2,0.2,0.8","0.8,0.2,0.2,0.2,0.8,0.2,0.2,0.2,0.8","1","",""
"","html-keyboard-response","336","176851","0.0-336.0","39KFRKBFIOHTE35F88H27LFDDBEYO0","AS2MFSWNC5CQI","30UZJB2POHY4464FN6NBJ2NLFWF354","","null","<img src=""img/land3.png"" style=""width:200px; border:14px solid green;"">","null","","","","","","","","","",""
"","image-keyboard-response","337","177444","0.0-337.0","39KFRKBFIOHTE35F88H27LFDDBEYO0","AS2MFSWNC5CQI","30UZJB2POHY4464FN6NBJ2NLFWF354","","591.6999998092651","img/land1.png","74","593.2000000476837","1","0","1","2","0.8,0.2,0.2,0.2,0.8,0.2,0.2,0.2,0.8","0.8,0.2,0.2,0.2,0.8,0.2,0.2,0.2,0.8","1","",""
"","html-keyboard-response","338","177747","0.0-338.0","39KFRKBFIOHTE35F88H27LFDDBEYO0","AS2MFSWNC5CQI","30UZJB2POHY4464FN6NBJ2NLFWF354","","null","<img src=""img/land1.png"" style=""width:200px;border:14px solid red;"">","null","","","","","","","","","",""
"","image-keyboard-response","339","178612","0.0-339.0","39KFRKBFIOHTE35F88H27LFDDBEYO0","AS2MFSWNC5CQI","30UZJB2POHY4464FN6NBJ2NLFWF354","","863.6999998092651","img/land6.png","76","864.2999999523163","3","0","3","2","0.8,0.2,0.2,0.2,0.8,0.2,0.2,0.2,0.8","0.8,0.2,0.2,0.2,0.8,0.2,0.2,0.2,0.8","1","",""
"","html-keyboard-response","340","178913","0.0-340.0","39KFRKBFIOHTE35F88H27LFDDBEYO0","AS2MFSWNC5CQI","30UZJB2POHY4464FN6NBJ2NLFWF354","","null","<img src=""img/land6.png"" style=""width:200px;border:14px solid red;"">","null","","","","","","","","","",""
"","image-keyboard-response","341","179586","0.0-341.0","39KFRKBFIOHTE35F88H27LFDDBEYO0","AS2MFSWNC5CQI","30UZJB2POHY4464FN6NBJ2NLFWF354","","672.2999999523163","img/land6.png","76","673.5","3","1","3","2","0.8,0.2,0.2,0.2,0.8,0.2,0.2,0.2,0.8","0.8,0.2,0.2,0.2,0.8,0.2,0.2,0.2,0.8","1","",""
"","html-keyboard-response","342","179889","0.0-342.0","39KFRKBFIOHTE35F88H27LFDDBEYO0","AS2MFSWNC5CQI","30UZJB2POHY4464FN6NBJ2NLFWF354","","null","<img src=""img/land6.png"" style=""width:200px; border:14px solid green;"">","null","","","","","","","","","",""
"","image-keyboard-response","343","180685","0.0-343.0","39KFRKBFIOHTE35F88H27LFDDBEYO0","AS2MFSWNC5CQI","30UZJB2POHY4464FN6NBJ2NLFWF354","","794.5999999046326","img/land1.png","74","796.1999998092651","1","1","1","2","0.8,0.2,0.2,0.2,0.8,0.2,0.2,0.2,0.8","0.8,0.2,0.2,0.2,0.8,0.2,0.2,0.2,0.8","1","",""
"","html-keyboard-response","344","180987","0.0-344.0","39KFRKBFIOHTE35F88H27LFDDBEYO0","AS2MFSWNC5CQI","30UZJB2POHY4464FN6NBJ2NLFWF354","","null","<img src=""img/land1.png"" style=""width:200px; border:14px solid green;"">","null","","","","","","","","","",""
"","image-keyboard-response","345","181917","0.0-345.0","39KFRKBFIOHTE35F88H27LFDDBEYO0","AS2MFSWNC5CQI","30UZJB2POHY4464FN6NBJ2NLFWF354","","928.1000001430511","img/land1.png","74","929.5","1","1","1","2","0.8,0.2,0.2,0.2,0.8,0.2,0.2,0.2,0.8","0.8,0.2,0.2,0.2,0.8,0.2,0.2,0.2,0.8","1","",""
"","html-keyboard-response","346","182220","0.0-346.0","39KFRKBFIOHTE35F88H27LFDDBEYO0","AS2MFSWNC5CQI","30UZJB2POHY4464FN6NBJ2NLFWF354","","null","<img src=""img/land1.png"" style=""width:200px; border:14px solid green;"">","null","","","","","","","","","",""
"","image-keyboard-response","347","182948","0.0-347.0","39KFRKBFIOHTE35F88H27LFDDBEYO0","AS2MFSWNC5CQI","30UZJB2POHY4464FN6NBJ2NLFWF354","","726.0999999046326","img/land3.png","75","727.4000000953674","2","1","2","2","0.8,0.2,0.2,0.2,0.8,0.2,0.2,0.2,0.8","0.8,0.2,0.2,0.2,0.8,0.2,0.2,0.2,0.8","1","",""
"","html-keyboard-response","348","183250","0.0-348.0","39KFRKBFIOHTE35F88H27LFDDBEYO0","AS2MFSWNC5CQI","30UZJB2POHY4464FN6NBJ2NLFWF354","","null","<img src=""img/land3.png"" style=""width:200px; border:14px solid green;"">","null","","","","","","","","","",""
"","image-keyboard-response","349","184069","0.0-349.0","39KFRKBFIOHTE35F88H27LFDDBEYO0","AS2MFSWNC5CQI","30UZJB2POHY4464FN6NBJ2NLFWF354","","817.9000000953674","img/land6.png","76","818.7000000476837","3","0","3","2","0.8,0.2,0.2,0.2,0.8,0.2,0.2,0.2,0.8","0.8,0.2,0.2,0.2,0.8,0.2,0.2,0.2,0.8","1","",""
"","html-keyboard-response","350","184371","0.0-350.0","39KFRKBFIOHTE35F88H27LFDDBEYO0","AS2MFSWNC5CQI","30UZJB2POHY4464FN6NBJ2NLFWF354","","null","<img src=""img/land6.png"" style=""width:200px;border:14px solid red;"">","null","","","","","","","","","",""
"","image-keyboard-response","351","184901","0.0-351.0","39KFRKBFIOHTE35F88H27LFDDBEYO0","AS2MFSWNC5CQI","30UZJB2POHY4464FN6NBJ2NLFWF354","","529.5999999046326","img/land1.png","74","530.3999998569489","1","1","1","2","0.8,0.2,0.2,0.2,0.8,0.2,0.2,0.2,0.8","0.8,0.2,0.2,0.2,0.8,0.2,0.2,0.2,0.8","1","",""
"","html-keyboard-response","352","185204","0.0-352.0","39KFRKBFIOHTE35F88H27LFDDBEYO0","AS2MFSWNC5CQI","30UZJB2POHY4464FN6NBJ2NLFWF354","","null","<img src=""img/land1.png"" style=""width:200px; border:14px solid green;"">","null","","","","","","","","","",""
"","image-keyboard-response","353","185724","0.0-353.0","39KFRKBFIOHTE35F88H27LFDDBEYO0","AS2MFSWNC5CQI","30UZJB2POHY4464FN6NBJ2NLFWF354","","518.7000000476837","img/land1.png","74","520.4000000953674","1","1","1","2","0.8,0.2,0.2,0.2,0.8,0.2,0.2,0.2,0.8","0.8,0.2,0.2,0.2,0.8,0.2,0.2,0.2,0.8","1","",""
"","html-keyboard-response","354","186027","0.0-354.0","39KFRKBFIOHTE35F88H27LFDDBEYO0","AS2MFSWNC5CQI","30UZJB2POHY4464FN6NBJ2NLFWF354","","null","<img src=""img/land1.png"" style=""width:200px; border:14px solid green;"">","null","","","","","","","","","",""
"","image-keyboard-response","355","186812","0.0-355.0","39KFRKBFIOHTE35F88H27LFDDBEYO0","AS2MFSWNC5CQI","30UZJB2POHY4464FN6NBJ2NLFWF354","","782.7999999523163","img/land3.png","75","784.4000000953674","2","1","2","2","0.8,0.2,0.2,0.2,0.8,0.2,0.2,0.2,0.8","0.8,0.2,0.2,0.2,0.8,0.2,0.2,0.2,0.8","1","",""
"","html-keyboard-response","356","187114","0.0-356.0","39KFRKBFIOHTE35F88H27LFDDBEYO0","AS2MFSWNC5CQI","30UZJB2POHY4464FN6NBJ2NLFWF354","","null","<img src=""img/land3.png"" style=""width:200px; border:14px solid green;"">","null","","","","","","","","","",""
