"success","trial_type","trial_index","time_elapsed","internal_node_id","assignmentID","mturkID","hitID","view_history","rt","stimulus","key_press","reactionTime","a","r","s","cond","reward_cond","reward_cond_actual","reward_matrix_idx","responses","question_order"
"true","fullscreen","0","2980","0.0-0.0","3MRNMEIQW6SIA77RZKEW2J1IZYFDLX","ATIVK9XUANIUE","389A2A304O4TMZEXJTS0VAVO4ZC0C5","","","","","","","","","","","","","",""
"","instructions","1","24888","0.0-1.0","3MRNMEIQW6SIA77RZKEW2J1IZYFDLX","ATIVK9XUANIUE","389A2A304O4TMZEXJTS0VAVO4ZC0C5","[{""page_index"":0,""viewing_time"":1181},{""page_index"":1,""viewing_time"":3941},{""page_index"":2,""viewing_time"":4196},{""page_index"":3,""viewing_time"":2340},{""page_index"":4,""viewing_time"":3750},{""page_index"":5,""viewing_time"":5350},{""page_index"":6,""viewing_time"":1148}]","21906","","","","","","","","","","","",""
"","image-keyboard-response","2","26699","0.0-2.0","3MRNMEIQW6SIA77RZKEW2J1IZYFDLX","ATIVK9XUANIUE","389A2A304O4TMZEXJTS0VAVO4ZC0C5","","1809","img/land2.png","74","1811","1","0","2","1","1,0,0,0.25,0.5,0.25,0.25,0.25,0.5","0,1,0,0.5,0.25,0.25,0.25,0.25,0.5","3","",""
"","html-keyboard-response","3","27012","0.0-3.0","3MRNMEIQW6SIA77RZKEW2J1IZYFDLX","ATIVK9XUANIUE","389A2A304O4TMZEXJTS0VAVO4ZC0C5","","null","<img src=""img/land2.png"" style=""width:200px;border:14px solid red;"">","null","","","","","","","","","",""
"","image-keyboard-response","4","29017","0.0-4.0","3MRNMEIQW6SIA77RZKEW2J1IZYFDLX","ATIVK9XUANIUE","389A2A304O4TMZEXJTS0VAVO4ZC0C5","","","img/land2.png","","2005","-1","0","2","1","1,0,0,0.25,0.5,0.25,0.25,0.25,0.5","0,1,0,0.5,0.25,0.25,0.25,0.25,0.5","3","",""
"","html-keyboard-response","5","29319","0.0-5.0","3MRNMEIQW6SIA77RZKEW2J1IZYFDLX","ATIVK9XUANIUE","389A2A304O4TMZEXJTS0VAVO4ZC0C5","","null","<img src=""img/land2.png"" style=""width:200px;border:14px solid red;"">","null","","","","","","","","","",""
"","image-keyboard-response","6","30213","0.0-6.0","3MRNMEIQW6SIA77RZKEW2J1IZYFDLX","ATIVK9XUANIUE","389A2A304O4TMZEXJTS0VAVO4ZC0C5","","892","img/land1.png","75","893","2","1","1","1","1,0,0,0.25,0.5,0.25,0.25,0.25,0.5","0,1,0,0.5,0.25,0.25,0.25,0.25,0.5","3","",""
"","html-keyboard-response","7","30517","0.0-7.0","3MRNMEIQW6SIA77RZKEW2J1IZYFDLX","ATIVK9XUANIUE","389A2A304O4TMZEXJTS0VAVO4ZC0C5","","null","<img src=""img/land1.png"" style=""width:200px; border:14px solid green;"">","null","","","","","","","","","",""
"","image-keyboard-response","8","31614","0.0-8.0","3MRNMEIQW6SIA77RZKEW2J1IZYFDLX","ATIVK9XUANIUE","389A2A304O4TMZEXJTS0VAVO4ZC0C5","","1096","img/land2.png","75","1096","2","0","2","1","1,0,0,0.25,0.5,0.25,0.25,0.25,0.5","0,1,0,0.5,0.25,0.25,0.25,0.25,0.5","3","",""
"","html-keyboard-response","9","31921","0.0-9.0","3MRNMEIQW6SIA77RZKEW2J1IZYFDLX","ATIVK9XUANIUE","389A2A304O4TMZEXJTS0VAVO4ZC0C5","","null","<img src=""img/land2.png"" style=""width:200px;border:14px solid red;"">","null","","","","","","","","","",""
"","image-keyboard-response","10","33938","0.0-10.0","3MRNMEIQW6SIA77RZKEW2J1IZYFDLX","ATIVK9XUANIUE","389A2A304O4TMZEXJTS0VAVO4ZC0C5","","","img/land2.png","","2016","-1","0","2","1","1,0,0,0.25,0.5,0.25,0.25,0.25,0.5","0,1,0,0.5,0.25,0.25,0.25,0.25,0.5","3","",""
"","html-keyboard-response","11","34248","0.0-11.0","3MRNMEIQW6SIA77RZKEW2J1IZYFDLX","ATIVK9XUANIUE","389A2A304O4TMZEXJTS0VAVO4ZC0C5","","null","<img src=""img/land2.png"" style=""width:200px;border:14px solid red;"">","null","","","","","","","","","",""
"","image-keyboard-response","12","34262","0.0-12.0","3MRNMEIQW6SIA77RZKEW2J1IZYFDLX","ATIVK9XUANIUE","389A2A304O4TMZEXJTS0VAVO4ZC0C5","","12","img/land1.png","75","12","2","1","1","1","1,0,0,0.25,0.5,0.25,0.25,0.25,0.5","0,1,0,0.5,0.25,0.25,0.25,0.25,0.5","3","",""
"","html-keyboard-response","13","34577","0.0-13.0","3MRNMEIQW6SIA77RZKEW2J1IZYFDLX","ATIVK9XUANIUE","389A2A304O4TMZEXJTS0VAVO4ZC0C5","","null","<img src=""img/land1.png"" style=""width:200px; border:14px solid green;"">","null","","","","","","","","","",""
"","image-keyboard-response","14","35665","0.0-14.0","3MRNMEIQW6SIA77RZKEW2J1IZYFDLX","ATIVK9XUANIUE","389A2A304O4TMZEXJTS0VAVO4ZC0C5","","1088","img/land3.png","76","1088","3","1","3","1","1,0,0,0.25,0.5,0.25,0.25,0.25,0.5","0,1,0,0.5,0.25,0.25,0.25,0.25,0.5","3","",""
"","html-keyboard-response","15","35969","0.0-15.0","3MRNMEIQW6SIA77RZKEW2J1IZYFDLX","ATIVK9XUANIUE","389A2A304O4TMZEXJTS0VAVO4ZC0C5","","null","<img src=""img/land3.png"" style=""width:200px; border:14px solid green;"">","null","","","","","","","","","",""
"","image-keyboard-response","16","37978","0.0-16.0","3MRNMEIQW6SIA77RZKEW2J1IZYFDLX","ATIVK9XUANIUE","389A2A304O4TMZEXJTS0VAVO4ZC0C5","","","img/land3.png","","2010","-1","0","3","1","1,0,0,0.25,0.5,0.25,0.25,0.25,0.5","0,1,0,0.5,0.25,0.25,0.25,0.25,0.5","3","",""
"","html-keyboard-response","17","38294","0.0-17.0","3MRNMEIQW6SIA77RZKEW2J1IZYFDLX","ATIVK9XUANIUE","389A2A304O4TMZEXJTS0VAVO4ZC0C5","","null","<img src=""img/land3.png"" style=""width:200px;border:14px solid red;"">","null","","","","","","","","","",""
"","image-keyboard-response","18","39190","0.0-18.0","3MRNMEIQW6SIA77RZKEW2J1IZYFDLX","ATIVK9XUANIUE","389A2A304O4TMZEXJTS0VAVO4ZC0C5","","895","img/land1.png","75","896","2","1","1","1","1,0,0,0.25,0.5,0.25,0.25,0.25,0.5","0,1,0,0.5,0.25,0.25,0.25,0.25,0.5","3","",""
"","html-keyboard-response","19","39491","0.0-19.0","3MRNMEIQW6SIA77RZKEW2J1IZYFDLX","ATIVK9XUANIUE","389A2A304O4TMZEXJTS0VAVO4ZC0C5","","null","<img src=""img/land1.png"" style=""width:200px; border:14px solid green;"">","null","","","","","","","","","",""
"","image-keyboard-response","20","40301","0.0-20.0","3MRNMEIQW6SIA77RZKEW2J1IZYFDLX","ATIVK9XUANIUE","389A2A304O4TMZEXJTS0VAVO4ZC0C5","","808","img/land3.png","76","808","3","0","3","1","1,0,0,0.25,0.5,0.25,0.25,0.25,0.5","0,1,0,0.5,0.25,0.25,0.25,0.25,0.5","3","",""
"","html-keyboard-response","21","40604","0.0-21.0","3MRNMEIQW6SIA77RZKEW2J1IZYFDLX","ATIVK9XUANIUE","389A2A304O4TMZEXJTS0VAVO4ZC0C5","","null","<img src=""img/land3.png"" style=""width:200px;border:14px solid red;"">","null","","","","","","","","","",""
"","image-keyboard-response","22","41711","0.0-22.0","3MRNMEIQW6SIA77RZKEW2J1IZYFDLX","ATIVK9XUANIUE","389A2A304O4TMZEXJTS0VAVO4ZC0C5","","1105","img/land3.png","76","1106","3","1","3","1","1,0,0,0.25,0.5,0.25,0.25,0.25,0.5","0,1,0,0.5,0.25,0.25,0.25,0.25,0.5","3","",""
"","html-keyboard-response","23","42026","0.0-23.0","3MRNMEIQW6SIA77RZKEW2J1IZYFDLX","ATIVK9XUANIUE","389A2A304O4TMZEXJTS0VAVO4ZC0C5","","null","<img src=""img/land3.png"" style=""width:200px; border:14px solid green;"">","null","","","","","","","","","",""
"","image-keyboard-response","24","42850","0.0-24.0","3MRNMEIQW6SIA77RZKEW2J1IZYFDLX","ATIVK9XUANIUE","389A2A304O4TMZEXJTS0VAVO4ZC0C5","","822","img/land1.png","75","823","2","1","1","1","1,0,0,0.25,0.5,0.25,0.25,0.25,0.5","0,1,0,0.5,0.25,0.25,0.25,0.25,0.5","3","",""
"","html-keyboard-response","25","43152","0.0-25.0","3MRNMEIQW6SIA77RZKEW2J1IZYFDLX","ATIVK9XUANIUE","389A2A304O4TMZEXJTS0VAVO4ZC0C5","","null","<img src=""img/land1.png"" style=""width:200px; border:14px solid green;"">","null","","","","","","","","","",""
"","image-keyboard-response","26","43855","0.0-26.0","3MRNMEIQW6SIA77RZKEW2J1IZYFDLX","ATIVK9XUANIUE","389A2A304O4TMZEXJTS0VAVO4ZC0C5","","703","img/land2.png","74","703","1","1","2","1","1,0,0,0.25,0.5,0.25,0.25,0.25,0.5","0,1,0,0.5,0.25,0.25,0.25,0.25,0.5","3","",""
"","html-keyboard-response","27","44161","0.0-27.0","3MRNMEIQW6SIA77RZKEW2J1IZYFDLX","ATIVK9XUANIUE","389A2A304O4TMZEXJTS0VAVO4ZC0C5","","null","<img src=""img/land2.png"" style=""width:200px; border:14px solid green;"">","null","","","","","","","","","",""
"","image-keyboard-response","28","44966","0.0-28.0","3MRNMEIQW6SIA77RZKEW2J1IZYFDLX","ATIVK9XUANIUE","389A2A304O4TMZEXJTS0VAVO4ZC0C5","","803","img/land1.png","75","803","2","1","1","1","1,0,0,0.25,0.5,0.25,0.25,0.25,0.5","0,1,0,0.5,0.25,0.25,0.25,0.25,0.5","3","",""
"","html-keyboard-response","29","45278","0.0-29.0","3MRNMEIQW6SIA77RZKEW2J1IZYFDLX","ATIVK9XUANIUE","389A2A304O4TMZEXJTS0VAVO4ZC0C5","","null","<img src=""img/land1.png"" style=""width:200px; border:14px solid green;"">","null","","","","","","","","","",""
"","image-keyboard-response","30","46001","0.0-30.0","3MRNMEIQW6SIA77RZKEW2J1IZYFDLX","ATIVK9XUANIUE","389A2A304O4TMZEXJTS0VAVO4ZC0C5","","722","img/land1.png","75","723","2","1","1","1","1,0,0,0.25,0.5,0.25,0.25,0.25,0.5","0,1,0,0.5,0.25,0.25,0.25,0.25,0.5","3","",""
"","html-keyboard-response","31","46308","0.0-31.0","3MRNMEIQW6SIA77RZKEW2J1IZYFDLX","ATIVK9XUANIUE","389A2A304O4TMZEXJTS0VAVO4ZC0C5","","null","<img src=""img/land1.png"" style=""width:200px; border:14px solid green;"">","null","","","","","","","","","",""
"","image-keyboard-response","32","46946","0.0-32.0","3MRNMEIQW6SIA77RZKEW2J1IZYFDLX","ATIVK9XUANIUE","389A2A304O4TMZEXJTS0VAVO4ZC0C5","","637","img/land1.png","75","637","2","1","1","1","1,0,0,0.25,0.5,0.25,0.25,0.25,0.5","0,1,0,0.5,0.25,0.25,0.25,0.25,0.5","3","",""
"","html-keyboard-response","33","47253","0.0-33.0","3MRNMEIQW6SIA77RZKEW2J1IZYFDLX","ATIVK9XUANIUE","389A2A304O4TMZEXJTS0VAVO4ZC0C5","","null","<img src=""img/land1.png"" style=""width:200px; border:14px solid green;"">","null","","","","","","","","","",""
"","image-keyboard-response","34","47816","0.0-34.0","3MRNMEIQW6SIA77RZKEW2J1IZYFDLX","ATIVK9XUANIUE","389A2A304O4TMZEXJTS0VAVO4ZC0C5","","562","img/land1.png","75","563","2","1","1","1","1,0,0,0.25,0.5,0.25,0.25,0.25,0.5","0,1,0,0.5,0.25,0.25,0.25,0.25,0.5","3","",""
"","html-keyboard-response","35","48131","0.0-35.0","3MRNMEIQW6SIA77RZKEW2J1IZYFDLX","ATIVK9XUANIUE","389A2A304O4TMZEXJTS0VAVO4ZC0C5","","null","<img src=""img/land1.png"" style=""width:200px; border:14px solid green;"">","null","","","","","","","","","",""
"","image-keyboard-response","36","48670","0.0-36.0","3MRNMEIQW6SIA77RZKEW2J1IZYFDLX","ATIVK9XUANIUE","389A2A304O4TMZEXJTS0VAVO4ZC0C5","","538","img/land1.png","75","538","2","1","1","1","1,0,0,0.25,0.5,0.25,0.25,0.25,0.5","0,1,0,0.5,0.25,0.25,0.25,0.25,0.5","3","",""
"","html-keyboard-response","37","48980","0.0-37.0","3MRNMEIQW6SIA77RZKEW2J1IZYFDLX","ATIVK9XUANIUE","389A2A304O4TMZEXJTS0VAVO4ZC0C5","","null","<img src=""img/land1.png"" style=""width:200px; border:14px solid green;"">","null","","","","","","","","","",""
"","image-keyboard-response","38","49525","0.0-38.0","3MRNMEIQW6SIA77RZKEW2J1IZYFDLX","ATIVK9XUANIUE","389A2A304O4TMZEXJTS0VAVO4ZC0C5","","545","img/land1.png","75","545","2","1","1","1","1,0,0,0.25,0.5,0.25,0.25,0.25,0.5","0,1,0,0.5,0.25,0.25,0.25,0.25,0.5","3","",""
"","html-keyboard-response","39","49838","0.0-39.0","3MRNMEIQW6SIA77RZKEW2J1IZYFDLX","ATIVK9XUANIUE","389A2A304O4TMZEXJTS0VAVO4ZC0C5","","null","<img src=""img/land1.png"" style=""width:200px; border:14px solid green;"">","null","","","","","","","","","",""
"","image-keyboard-response","40","50395","0.0-40.0","3MRNMEIQW6SIA77RZKEW2J1IZYFDLX","ATIVK9XUANIUE","389A2A304O4TMZEXJTS0VAVO4ZC0C5","","556","img/land1.png","75","556","2","1","1","1","1,0,0,0.25,0.5,0.25,0.25,0.25,0.5","0,1,0,0.5,0.25,0.25,0.25,0.25,0.5","3","",""
"","html-keyboard-response","41","50699","0.0-41.0","3MRNMEIQW6SIA77RZKEW2J1IZYFDLX","ATIVK9XUANIUE","389A2A304O4TMZEXJTS0VAVO4ZC0C5","","null","<img src=""img/land1.png"" style=""width:200px; border:14px solid green;"">","null","","","","","","","","","",""
"","image-keyboard-response","42","51715","0.0-42.0","3MRNMEIQW6SIA77RZKEW2J1IZYFDLX","ATIVK9XUANIUE","389A2A304O4TMZEXJTS0VAVO4ZC0C5","","1015","img/land2.png","74","1015","1","0","2","1","1,0,0,0.25,0.5,0.25,0.25,0.25,0.5","0,1,0,0.5,0.25,0.25,0.25,0.25,0.5","3","",""
"","html-keyboard-response","43","52021","0.0-43.0","3MRNMEIQW6SIA77RZKEW2J1IZYFDLX","ATIVK9XUANIUE","389A2A304O4TMZEXJTS0VAVO4ZC0C5","","null","<img src=""img/land2.png"" style=""width:200px;border:14px solid red;"">","null","","","","","","","","","",""
"","image-keyboard-response","44","53455","0.0-44.0","3MRNMEIQW6SIA77RZKEW2J1IZYFDLX","ATIVK9XUANIUE","389A2A304O4TMZEXJTS0VAVO4ZC0C5","","1433","img/land2.png","74","1434","1","0","2","1","1,0,0,0.25,0.5,0.25,0.25,0.25,0.5","0,1,0,0.5,0.25,0.25,0.25,0.25,0.5","3","",""
"","html-keyboard-response","45","53771","0.0-45.0","3MRNMEIQW6SIA77RZKEW2J1IZYFDLX","ATIVK9XUANIUE","389A2A304O4TMZEXJTS0VAVO4ZC0C5","","null","<img src=""img/land2.png"" style=""width:200px;border:14px solid red;"">","null","","","","","","","","","",""
"","image-keyboard-response","46","54355","0.0-46.0","3MRNMEIQW6SIA77RZKEW2J1IZYFDLX","ATIVK9XUANIUE","389A2A304O4TMZEXJTS0VAVO4ZC0C5","","583","img/land1.png","75","584","2","1","1","1","1,0,0,0.25,0.5,0.25,0.25,0.25,0.5","0,1,0,0.5,0.25,0.25,0.25,0.25,0.5","3","",""
"","html-keyboard-response","47","54658","0.0-47.0","3MRNMEIQW6SIA77RZKEW2J1IZYFDLX","ATIVK9XUANIUE","389A2A304O4TMZEXJTS0VAVO4ZC0C5","","null","<img src=""img/land1.png"" style=""width:200px; border:14px solid green;"">","null","","","","","","","","","",""
"","image-keyboard-response","48","55435","0.0-48.0","3MRNMEIQW6SIA77RZKEW2J1IZYFDLX","ATIVK9XUANIUE","389A2A304O4TMZEXJTS0VAVO4ZC0C5","","777","img/land1.png","75","778","2","1","1","1","1,0,0,0.25,0.5,0.25,0.25,0.25,0.5","0,1,0,0.5,0.25,0.25,0.25,0.25,0.5","3","",""
"","html-keyboard-response","49","55744","0.0-49.0","3MRNMEIQW6SIA77RZKEW2J1IZYFDLX","ATIVK9XUANIUE","389A2A304O4TMZEXJTS0VAVO4ZC0C5","","null","<img src=""img/land1.png"" style=""width:200px; border:14px solid green;"">","null","","","","","","","","","",""
"","image-keyboard-response","50","56140","0.0-50.0","3MRNMEIQW6SIA77RZKEW2J1IZYFDLX","ATIVK9XUANIUE","389A2A304O4TMZEXJTS0VAVO4ZC0C5","","395","img/land1.png","75","396","2","1","1","1","1,0,0,0.25,0.5,0.25,0.25,0.25,0.5","0,1,0,0.5,0.25,0.25,0.25,0.25,0.5","3","",""
"","html-keyboard-response","51","56453","0.0-51.0","3MRNMEIQW6SIA77RZKEW2J1IZYFDLX","ATIVK9XUANIUE","389A2A304O4TMZEXJTS0VAVO4ZC0C5","","null","<img src=""img/land1.png"" style=""width:200px; border:14px solid green;"">","null","","","","","","","","","",""
"","image-keyboard-response","52","57161","0.0-52.0","3MRNMEIQW6SIA77RZKEW2J1IZYFDLX","ATIVK9XUANIUE","389A2A304O4TMZEXJTS0VAVO4ZC0C5","","707","img/land2.png","74","707","1","0","2","1","1,0,0,0.25,0.5,0.25,0.25,0.25,0.5","0,1,0,0.5,0.25,0.25,0.25,0.25,0.5","3","",""
"","html-keyboard-response","53","57472","0.0-53.0","3MRNMEIQW6SIA77RZKEW2J1IZYFDLX","ATIVK9XUANIUE","389A2A304O4TMZEXJTS0VAVO4ZC0C5","","null","<img src=""img/land2.png"" style=""width:200px;border:14px solid red;"">","null","","","","","","","","","",""
"","image-keyboard-response","54","58330","0.0-54.0","3MRNMEIQW6SIA77RZKEW2J1IZYFDLX","ATIVK9XUANIUE","389A2A304O4TMZEXJTS0VAVO4ZC0C5","","857","img/land2.png","74","858","1","0","2","1","1,0,0,0.25,0.5,0.25,0.25,0.25,0.5","0,1,0,0.5,0.25,0.25,0.25,0.25,0.5","3","",""
"","html-keyboard-response","55","58632","0.0-55.0","3MRNMEIQW6SIA77RZKEW2J1IZYFDLX","ATIVK9XUANIUE","389A2A304O4TMZEXJTS0VAVO4ZC0C5","","null","<img src=""img/land2.png"" style=""width:200px;border:14px solid red;"">","null","","","","","","","","","",""
"","image-keyboard-response","56","59291","0.0-56.0","3MRNMEIQW6SIA77RZKEW2J1IZYFDLX","ATIVK9XUANIUE","389A2A304O4TMZEXJTS0VAVO4ZC0C5","","657","img/land1.png","75","658","2","1","1","1","1,0,0,0.25,0.5,0.25,0.25,0.25,0.5","0,1,0,0.5,0.25,0.25,0.25,0.25,0.5","3","",""
"","html-keyboard-response","57","59596","0.0-57.0","3MRNMEIQW6SIA77RZKEW2J1IZYFDLX","ATIVK9XUANIUE","389A2A304O4TMZEXJTS0VAVO4ZC0C5","","null","<img src=""img/land1.png"" style=""width:200px; border:14px solid green;"">","null","","","","","","","","","",""
"","image-keyboard-response","58","60055","0.0-58.0","3MRNMEIQW6SIA77RZKEW2J1IZYFDLX","ATIVK9XUANIUE","389A2A304O4TMZEXJTS0VAVO4ZC0C5","","458","img/land1.png","75","459","2","1","1","1","1,0,0,0.25,0.5,0.25,0.25,0.25,0.5","0,1,0,0.5,0.25,0.25,0.25,0.25,0.5","3","",""
"","html-keyboard-response","59","60357","0.0-59.0","3MRNMEIQW6SIA77RZKEW2J1IZYFDLX","ATIVK9XUANIUE","389A2A304O4TMZEXJTS0VAVO4ZC0C5","","null","<img src=""img/land1.png"" style=""width:200px; border:14px solid green;"">","null","","","","","","","","","",""
"","image-keyboard-response","60","60744","0.0-60.0","3MRNMEIQW6SIA77RZKEW2J1IZYFDLX","ATIVK9XUANIUE","389A2A304O4TMZEXJTS0VAVO4ZC0C5","","386","img/land1.png","75","387","2","1","1","1","1,0,0,0.25,0.5,0.25,0.25,0.25,0.5","0,1,0,0.5,0.25,0.25,0.25,0.25,0.5","3","",""
"","html-keyboard-response","61","61054","0.0-61.0","3MRNMEIQW6SIA77RZKEW2J1IZYFDLX","ATIVK9XUANIUE","389A2A304O4TMZEXJTS0VAVO4ZC0C5","","null","<img src=""img/land1.png"" style=""width:200px; border:14px solid green;"">","null","","","","","","","","","",""
"","image-keyboard-response","62","61450","0.0-62.0","3MRNMEIQW6SIA77RZKEW2J1IZYFDLX","ATIVK9XUANIUE","389A2A304O4TMZEXJTS0VAVO4ZC0C5","","396","img/land1.png","75","396","2","1","1","1","1,0,0,0.25,0.5,0.25,0.25,0.25,0.5","0,1,0,0.5,0.25,0.25,0.25,0.25,0.5","3","",""
"","html-keyboard-response","63","61756","0.0-63.0","3MRNMEIQW6SIA77RZKEW2J1IZYFDLX","ATIVK9XUANIUE","389A2A304O4TMZEXJTS0VAVO4ZC0C5","","null","<img src=""img/land1.png"" style=""width:200px; border:14px solid green;"">","null","","","","","","","","","",""
"","image-keyboard-response","64","62200","0.0-64.0","3MRNMEIQW6SIA77RZKEW2J1IZYFDLX","ATIVK9XUANIUE","389A2A304O4TMZEXJTS0VAVO4ZC0C5","","443","img/land1.png","75","443","2","1","1","1","1,0,0,0.25,0.5,0.25,0.25,0.25,0.5","0,1,0,0.5,0.25,0.25,0.25,0.25,0.5","3","",""
"","html-keyboard-response","65","62509","0.0-65.0","3MRNMEIQW6SIA77RZKEW2J1IZYFDLX","ATIVK9XUANIUE","389A2A304O4TMZEXJTS0VAVO4ZC0C5","","null","<img src=""img/land1.png"" style=""width:200px; border:14px solid green;"">","null","","","","","","","","","",""
"","image-keyboard-response","66","62920","0.0-66.0","3MRNMEIQW6SIA77RZKEW2J1IZYFDLX","ATIVK9XUANIUE","389A2A304O4TMZEXJTS0VAVO4ZC0C5","","410","img/land1.png","75","410","2","1","1","1","1,0,0,0.25,0.5,0.25,0.25,0.25,0.5","0,1,0,0.5,0.25,0.25,0.25,0.25,0.5","3","",""
"","html-keyboard-response","67","63234","0.0-67.0","3MRNMEIQW6SIA77RZKEW2J1IZYFDLX","ATIVK9XUANIUE","389A2A304O4TMZEXJTS0VAVO4ZC0C5","","null","<img src=""img/land1.png"" style=""width:200px; border:14px solid green;"">","null","","","","","","","","","",""
"","image-keyboard-response","68","63640","0.0-68.0","3MRNMEIQW6SIA77RZKEW2J1IZYFDLX","ATIVK9XUANIUE","389A2A304O4TMZEXJTS0VAVO4ZC0C5","","407","img/land1.png","75","407","2","1","1","1","1,0,0,0.25,0.5,0.25,0.25,0.25,0.5","0,1,0,0.5,0.25,0.25,0.25,0.25,0.5","3","",""
"","html-keyboard-response","69","63948","0.0-69.0","3MRNMEIQW6SIA77RZKEW2J1IZYFDLX","ATIVK9XUANIUE","389A2A304O4TMZEXJTS0VAVO4ZC0C5","","null","<img src=""img/land1.png"" style=""width:200px; border:14px solid green;"">","null","","","","","","","","","",""
"","image-keyboard-response","70","64314","0.0-70.0","3MRNMEIQW6SIA77RZKEW2J1IZYFDLX","ATIVK9XUANIUE","389A2A304O4TMZEXJTS0VAVO4ZC0C5","","366","img/land1.png","75","367","2","1","1","1","1,0,0,0.25,0.5,0.25,0.25,0.25,0.5","0,1,0,0.5,0.25,0.25,0.25,0.25,0.5","3","",""
"","html-keyboard-response","71","64628","0.0-71.0","3MRNMEIQW6SIA77RZKEW2J1IZYFDLX","ATIVK9XUANIUE","389A2A304O4TMZEXJTS0VAVO4ZC0C5","","null","<img src=""img/land1.png"" style=""width:200px; border:14px solid green;"">","null","","","","","","","","","",""
"","image-keyboard-response","72","65021","0.0-72.0","3MRNMEIQW6SIA77RZKEW2J1IZYFDLX","ATIVK9XUANIUE","389A2A304O4TMZEXJTS0VAVO4ZC0C5","","394","img/land1.png","75","394","2","1","1","1","1,0,0,0.25,0.5,0.25,0.25,0.25,0.5","0,1,0,0.5,0.25,0.25,0.25,0.25,0.5","3","",""
"","html-keyboard-response","73","65323","0.0-73.0","3MRNMEIQW6SIA77RZKEW2J1IZYFDLX","ATIVK9XUANIUE","389A2A304O4TMZEXJTS0VAVO4ZC0C5","","null","<img src=""img/land1.png"" style=""width:200px; border:14px solid green;"">","null","","","","","","","","","",""
"","image-keyboard-response","74","66071","0.0-74.0","3MRNMEIQW6SIA77RZKEW2J1IZYFDLX","ATIVK9XUANIUE","389A2A304O4TMZEXJTS0VAVO4ZC0C5","","747","img/land3.png","76","748","3","0","3","1","1,0,0,0.25,0.5,0.25,0.25,0.25,0.5","0,1,0,0.5,0.25,0.25,0.25,0.25,0.5","3","",""
"","html-keyboard-response","75","66386","0.0-75.0","3MRNMEIQW6SIA77RZKEW2J1IZYFDLX","ATIVK9XUANIUE","389A2A304O4TMZEXJTS0VAVO4ZC0C5","","null","<img src=""img/land3.png"" style=""width:200px;border:14px solid red;"">","null","","","","","","","","","",""
"","image-keyboard-response","76","66879","0.0-76.0","3MRNMEIQW6SIA77RZKEW2J1IZYFDLX","ATIVK9XUANIUE","389A2A304O4TMZEXJTS0VAVO4ZC0C5","","493","img/land3.png","76","493","3","0","3","1","1,0,0,0.25,0.5,0.25,0.25,0.25,0.5","0,1,0,0.5,0.25,0.25,0.25,0.25,0.5","3","",""
"","html-keyboard-response","77","67180","0.0-77.0","3MRNMEIQW6SIA77RZKEW2J1IZYFDLX","ATIVK9XUANIUE","389A2A304O4TMZEXJTS0VAVO4ZC0C5","","null","<img src=""img/land3.png"" style=""width:200px;border:14px solid red;"">","null","","","","","","","","","",""
"","image-keyboard-response","78","67509","0.0-78.0","3MRNMEIQW6SIA77RZKEW2J1IZYFDLX","ATIVK9XUANIUE","389A2A304O4TMZEXJTS0VAVO4ZC0C5","","328","img/land3.png","76","329","3","1","3","1","1,0,0,0.25,0.5,0.25,0.25,0.25,0.5","0,1,0,0.5,0.25,0.25,0.25,0.25,0.5","3","",""
"","html-keyboard-response","79","67824","0.0-79.0","3MRNMEIQW6SIA77RZKEW2J1IZYFDLX","ATIVK9XUANIUE","389A2A304O4TMZEXJTS0VAVO4ZC0C5","","null","<img src=""img/land3.png"" style=""width:200px; border:14px solid green;"">","null","","","","","","","","","",""
"","image-keyboard-response","80","68531","0.0-80.0","3MRNMEIQW6SIA77RZKEW2J1IZYFDLX","ATIVK9XUANIUE","389A2A304O4TMZEXJTS0VAVO4ZC0C5","","705","img/land1.png","75","706","2","1","1","1","1,0,0,0.25,0.5,0.25,0.25,0.25,0.5","0,1,0,0.5,0.25,0.25,0.25,0.25,0.5","3","",""
"","html-keyboard-response","81","68837","0.0-81.0","3MRNMEIQW6SIA77RZKEW2J1IZYFDLX","ATIVK9XUANIUE","389A2A304O4TMZEXJTS0VAVO4ZC0C5","","null","<img src=""img/land1.png"" style=""width:200px; border:14px solid green;"">","null","","","","","","","","","",""
"","image-keyboard-response","82","68891","0.0-82.0","3MRNMEIQW6SIA77RZKEW2J1IZYFDLX","ATIVK9XUANIUE","389A2A304O4TMZEXJTS0VAVO4ZC0C5","","53","img/land3.png","75","54","2","0","3","1","1,0,0,0.25,0.5,0.25,0.25,0.25,0.5","0,1,0,0.5,0.25,0.25,0.25,0.25,0.5","3","",""
"","html-keyboard-response","83","69200","0.0-83.0","3MRNMEIQW6SIA77RZKEW2J1IZYFDLX","ATIVK9XUANIUE","389A2A304O4TMZEXJTS0VAVO4ZC0C5","","null","<img src=""img/land3.png"" style=""width:200px;border:14px solid red;"">","null","","","","","","","","","",""
"","image-keyboard-response","84","69970","0.0-84.0","3MRNMEIQW6SIA77RZKEW2J1IZYFDLX","ATIVK9XUANIUE","389A2A304O4TMZEXJTS0VAVO4ZC0C5","","770","img/land1.png","75","770","2","1","1","1","1,0,0,0.25,0.5,0.25,0.25,0.25,0.5","0,1,0,0.5,0.25,0.25,0.25,0.25,0.5","3","",""
"","html-keyboard-response","85","70271","0.0-85.0","3MRNMEIQW6SIA77RZKEW2J1IZYFDLX","ATIVK9XUANIUE","389A2A304O4TMZEXJTS0VAVO4ZC0C5","","null","<img src=""img/land1.png"" style=""width:200px; border:14px solid green;"">","null","","","","","","","","","",""
"","image-keyboard-response","86","70705","0.0-86.0","3MRNMEIQW6SIA77RZKEW2J1IZYFDLX","ATIVK9XUANIUE","389A2A304O4TMZEXJTS0VAVO4ZC0C5","","433","img/land1.png","75","433","2","1","1","1","1,0,0,0.25,0.5,0.25,0.25,0.25,0.5","0,1,0,0.5,0.25,0.25,0.25,0.25,0.5","3","",""
"","html-keyboard-response","87","71011","0.0-87.0","3MRNMEIQW6SIA77RZKEW2J1IZYFDLX","ATIVK9XUANIUE","389A2A304O4TMZEXJTS0VAVO4ZC0C5","","null","<img src=""img/land1.png"" style=""width:200px; border:14px solid green;"">","null","","","","","","","","","",""
"","image-keyboard-response","88","71365","0.0-88.0","3MRNMEIQW6SIA77RZKEW2J1IZYFDLX","ATIVK9XUANIUE","389A2A304O4TMZEXJTS0VAVO4ZC0C5","","353","img/land1.png","75","353","2","1","1","1","1,0,0,0.25,0.5,0.25,0.25,0.25,0.5","0,1,0,0.5,0.25,0.25,0.25,0.25,0.5","3","",""
"","html-keyboard-response","89","71671","0.0-89.0","3MRNMEIQW6SIA77RZKEW2J1IZYFDLX","ATIVK9XUANIUE","389A2A304O4TMZEXJTS0VAVO4ZC0C5","","null","<img src=""img/land1.png"" style=""width:200px; border:14px solid green;"">","null","","","","","","","","","",""
"","image-keyboard-response","90","72190","0.0-90.0","3MRNMEIQW6SIA77RZKEW2J1IZYFDLX","ATIVK9XUANIUE","389A2A304O4TMZEXJTS0VAVO4ZC0C5","","518","img/land1.png","75","518","2","1","1","1","1,0,0,0.25,0.5,0.25,0.25,0.25,0.5","0,1,0,0.5,0.25,0.25,0.25,0.25,0.5","3","",""
"","html-keyboard-response","91","72492","0.0-91.0","3MRNMEIQW6SIA77RZKEW2J1IZYFDLX","ATIVK9XUANIUE","389A2A304O4TMZEXJTS0VAVO4ZC0C5","","null","<img src=""img/land1.png"" style=""width:200px; border:14px solid green;"">","null","","","","","","","","","",""
"","image-keyboard-response","92","73134","0.0-92.0","3MRNMEIQW6SIA77RZKEW2J1IZYFDLX","ATIVK9XUANIUE","389A2A304O4TMZEXJTS0VAVO4ZC0C5","","642","img/land2.png","74","643","1","0","2","1","1,0,0,0.25,0.5,0.25,0.25,0.25,0.5","0,1,0,0.5,0.25,0.25,0.25,0.25,0.5","3","",""
"","html-keyboard-response","93","73439","0.0-93.0","3MRNMEIQW6SIA77RZKEW2J1IZYFDLX","ATIVK9XUANIUE","389A2A304O4TMZEXJTS0VAVO4ZC0C5","","null","<img src=""img/land2.png"" style=""width:200px;border:14px solid red;"">","null","","","","","","","","","",""
"","image-keyboard-response","94","74200","0.0-94.0","3MRNMEIQW6SIA77RZKEW2J1IZYFDLX","ATIVK9XUANIUE","389A2A304O4TMZEXJTS0VAVO4ZC0C5","","760","img/land1.png","75","761","2","1","1","1","1,0,0,0.25,0.5,0.25,0.25,0.25,0.5","0,1,0,0.5,0.25,0.25,0.25,0.25,0.5","3","",""
"","html-keyboard-response","95","74513","0.0-95.0","3MRNMEIQW6SIA77RZKEW2J1IZYFDLX","ATIVK9XUANIUE","389A2A304O4TMZEXJTS0VAVO4ZC0C5","","null","<img src=""img/land1.png"" style=""width:200px; border:14px solid green;"">","null","","","","","","","","","",""
"","image-keyboard-response","96","75115","0.0-96.0","3MRNMEIQW6SIA77RZKEW2J1IZYFDLX","ATIVK9XUANIUE","389A2A304O4TMZEXJTS0VAVO4ZC0C5","","601","img/land3.png","76","602","3","1","3","1","1,0,0,0.25,0.5,0.25,0.25,0.25,0.5","0,1,0,0.5,0.25,0.25,0.25,0.25,0.5","3","",""
"","html-keyboard-response","97","75425","0.0-97.0","3MRNMEIQW6SIA77RZKEW2J1IZYFDLX","ATIVK9XUANIUE","389A2A304O4TMZEXJTS0VAVO4ZC0C5","","null","<img src=""img/land3.png"" style=""width:200px; border:14px solid green;"">","null","","","","","","","","","",""
"","image-keyboard-response","98","75820","0.0-98.0","3MRNMEIQW6SIA77RZKEW2J1IZYFDLX","ATIVK9XUANIUE","389A2A304O4TMZEXJTS0VAVO4ZC0C5","","396","img/land3.png","76","396","3","1","3","1","1,0,0,0.25,0.5,0.25,0.25,0.25,0.5","0,1,0,0.5,0.25,0.25,0.25,0.25,0.5","3","",""
"","html-keyboard-response","99","76124","0.0-99.0","3MRNMEIQW6SIA77RZKEW2J1IZYFDLX","ATIVK9XUANIUE","389A2A304O4TMZEXJTS0VAVO4ZC0C5","","null","<img src=""img/land3.png"" style=""width:200px; border:14px solid green;"">","null","","","","","","","","","",""
"","image-keyboard-response","100","76810","0.0-100.0","3MRNMEIQW6SIA77RZKEW2J1IZYFDLX","ATIVK9XUANIUE","389A2A304O4TMZEXJTS0VAVO4ZC0C5","","685","img/land2.png","76","686","3","0","2","1","1,0,0,0.25,0.5,0.25,0.25,0.25,0.5","0,1,0,0.5,0.25,0.25,0.25,0.25,0.5","3","",""
"","html-keyboard-response","101","77116","0.0-101.0","3MRNMEIQW6SIA77RZKEW2J1IZYFDLX","ATIVK9XUANIUE","389A2A304O4TMZEXJTS0VAVO4ZC0C5","","null","<img src=""img/land2.png"" style=""width:200px;border:14px solid red;"">","null","","","","","","","","","",""
"","image-keyboard-response","102","77651","0.0-102.0","3MRNMEIQW6SIA77RZKEW2J1IZYFDLX","ATIVK9XUANIUE","389A2A304O4TMZEXJTS0VAVO4ZC0C5","","533","img/land2.png","75","534","2","1","2","1","1,0,0,0.25,0.5,0.25,0.25,0.25,0.5","0,1,0,0.5,0.25,0.25,0.25,0.25,0.5","3","",""
"","html-keyboard-response","103","77966","0.0-103.0","3MRNMEIQW6SIA77RZKEW2J1IZYFDLX","ATIVK9XUANIUE","389A2A304O4TMZEXJTS0VAVO4ZC0C5","","null","<img src=""img/land2.png"" style=""width:200px; border:14px solid green;"">","null","","","","","","","","","",""
"","image-keyboard-response","104","78505","0.0-104.0","3MRNMEIQW6SIA77RZKEW2J1IZYFDLX","ATIVK9XUANIUE","389A2A304O4TMZEXJTS0VAVO4ZC0C5","","539","img/land1.png","75","539","2","1","1","1","1,0,0,0.25,0.5,0.25,0.25,0.25,0.5","0,1,0,0.5,0.25,0.25,0.25,0.25,0.5","3","",""
"","html-keyboard-response","105","78819","0.0-105.0","3MRNMEIQW6SIA77RZKEW2J1IZYFDLX","ATIVK9XUANIUE","389A2A304O4TMZEXJTS0VAVO4ZC0C5","","null","<img src=""img/land1.png"" style=""width:200px; border:14px solid green;"">","null","","","","","","","","","",""
"","image-keyboard-response","106","79480","0.0-106.0","3MRNMEIQW6SIA77RZKEW2J1IZYFDLX","ATIVK9XUANIUE","389A2A304O4TMZEXJTS0VAVO4ZC0C5","","659","img/land3.png","76","660","3","0","3","1","1,0,0,0.25,0.5,0.25,0.25,0.25,0.5","0,1,0,0.5,0.25,0.25,0.25,0.25,0.5","3","",""
"","html-keyboard-response","107","79795","0.0-107.0","3MRNMEIQW6SIA77RZKEW2J1IZYFDLX","ATIVK9XUANIUE","389A2A304O4TMZEXJTS0VAVO4ZC0C5","","null","<img src=""img/land3.png"" style=""width:200px;border:14px solid red;"">","null","","","","","","","","","",""
"","image-keyboard-response","108","80440","0.0-108.0","3MRNMEIQW6SIA77RZKEW2J1IZYFDLX","ATIVK9XUANIUE","389A2A304O4TMZEXJTS0VAVO4ZC0C5","","644","img/land1.png","75","645","2","1","1","1","1,0,0,0.25,0.5,0.25,0.25,0.25,0.5","0,1,0,0.5,0.25,0.25,0.25,0.25,0.5","3","",""
"","html-keyboard-response","109","80744","0.0-109.0","3MRNMEIQW6SIA77RZKEW2J1IZYFDLX","ATIVK9XUANIUE","389A2A304O4TMZEXJTS0VAVO4ZC0C5","","null","<img src=""img/land1.png"" style=""width:200px; border:14px solid green;"">","null","","","","","","","","","",""
"","image-keyboard-response","110","81235","0.0-110.0","3MRNMEIQW6SIA77RZKEW2J1IZYFDLX","ATIVK9XUANIUE","389A2A304O4TMZEXJTS0VAVO4ZC0C5","","492","img/land1.png","75","492","2","1","1","1","1,0,0,0.25,0.5,0.25,0.25,0.25,0.5","0,1,0,0.5,0.25,0.25,0.25,0.25,0.5","3","",""
"","html-keyboard-response","111","81538","0.0-111.0","3MRNMEIQW6SIA77RZKEW2J1IZYFDLX","ATIVK9XUANIUE","389A2A304O4TMZEXJTS0VAVO4ZC0C5","","null","<img src=""img/land1.png"" style=""width:200px; border:14px solid green;"">","null","","","","","","","","","",""
"","image-keyboard-response","112","81940","0.0-112.0","3MRNMEIQW6SIA77RZKEW2J1IZYFDLX","ATIVK9XUANIUE","389A2A304O4TMZEXJTS0VAVO4ZC0C5","","402","img/land1.png","75","402","2","1","1","1","1,0,0,0.25,0.5,0.25,0.25,0.25,0.5","0,1,0,0.5,0.25,0.25,0.25,0.25,0.5","3","",""
"","html-keyboard-response","113","82248","0.0-113.0","3MRNMEIQW6SIA77RZKEW2J1IZYFDLX","ATIVK9XUANIUE","389A2A304O4TMZEXJTS0VAVO4ZC0C5","","null","<img src=""img/land1.png"" style=""width:200px; border:14px solid green;"">","null","","","","","","","","","",""
"","image-keyboard-response","114","82930","0.0-114.0","3MRNMEIQW6SIA77RZKEW2J1IZYFDLX","ATIVK9XUANIUE","389A2A304O4TMZEXJTS0VAVO4ZC0C5","","682","img/land3.png","76","682","3","1","3","1","1,0,0,0.25,0.5,0.25,0.25,0.25,0.5","0,1,0,0.5,0.25,0.25,0.25,0.25,0.5","3","",""
"","html-keyboard-response","115","83242","0.0-115.0","3MRNMEIQW6SIA77RZKEW2J1IZYFDLX","ATIVK9XUANIUE","389A2A304O4TMZEXJTS0VAVO4ZC0C5","","null","<img src=""img/land3.png"" style=""width:200px; border:14px solid green;"">","null","","","","","","","","","",""
"","image-keyboard-response","116","83801","0.0-116.0","3MRNMEIQW6SIA77RZKEW2J1IZYFDLX","ATIVK9XUANIUE","389A2A304O4TMZEXJTS0VAVO4ZC0C5","","558","img/land1.png","75","559","2","1","1","1","1,0,0,0.25,0.5,0.25,0.25,0.25,0.5","0,1,0,0.5,0.25,0.25,0.25,0.25,0.5","3","",""
"","html-keyboard-response","117","84113","0.0-117.0","3MRNMEIQW6SIA77RZKEW2J1IZYFDLX","ATIVK9XUANIUE","389A2A304O4TMZEXJTS0VAVO4ZC0C5","","null","<img src=""img/land1.png"" style=""width:200px; border:14px solid green;"">","null","","","","","","","","","",""
"","image-keyboard-response","118","84491","0.0-118.0","3MRNMEIQW6SIA77RZKEW2J1IZYFDLX","ATIVK9XUANIUE","389A2A304O4TMZEXJTS0VAVO4ZC0C5","","376","img/land1.png","75","376","2","1","1","1","1,0,0,0.25,0.5,0.25,0.25,0.25,0.5","0,1,0,0.5,0.25,0.25,0.25,0.25,0.5","3","",""
"","html-keyboard-response","119","84795","0.0-119.0","3MRNMEIQW6SIA77RZKEW2J1IZYFDLX","ATIVK9XUANIUE","389A2A304O4TMZEXJTS0VAVO4ZC0C5","","null","<img src=""img/land1.png"" style=""width:200px; border:14px solid green;"">","null","","","","","","","","","",""
"","image-keyboard-response","120","85180","0.0-120.0","3MRNMEIQW6SIA77RZKEW2J1IZYFDLX","ATIVK9XUANIUE","389A2A304O4TMZEXJTS0VAVO4ZC0C5","","385","img/land1.png","75","385","2","1","1","1","1,0,0,0.25,0.5,0.25,0.25,0.25,0.5","0,1,0,0.5,0.25,0.25,0.25,0.25,0.5","3","",""
"","html-keyboard-response","121","85490","0.0-121.0","3MRNMEIQW6SIA77RZKEW2J1IZYFDLX","ATIVK9XUANIUE","389A2A304O4TMZEXJTS0VAVO4ZC0C5","","null","<img src=""img/land1.png"" style=""width:200px; border:14px solid green;"">","null","","","","","","","","","",""
"","image-keyboard-response","122","85915","0.0-122.0","3MRNMEIQW6SIA77RZKEW2J1IZYFDLX","ATIVK9XUANIUE","389A2A304O4TMZEXJTS0VAVO4ZC0C5","","424","img/land1.png","75","425","2","1","1","1","1,0,0,0.25,0.5,0.25,0.25,0.25,0.5","0,1,0,0.5,0.25,0.25,0.25,0.25,0.5","3","",""
"","html-keyboard-response","123","86227","0.0-123.0","3MRNMEIQW6SIA77RZKEW2J1IZYFDLX","ATIVK9XUANIUE","389A2A304O4TMZEXJTS0VAVO4ZC0C5","","null","<img src=""img/land1.png"" style=""width:200px; border:14px solid green;"">","null","","","","","","","","","",""
"","image-keyboard-response","124","86741","0.0-124.0","3MRNMEIQW6SIA77RZKEW2J1IZYFDLX","ATIVK9XUANIUE","389A2A304O4TMZEXJTS0VAVO4ZC0C5","","513","img/land2.png","75","513","2","1","2","1","1,0,0,0.25,0.5,0.25,0.25,0.25,0.5","0,1,0,0.5,0.25,0.25,0.25,0.25,0.5","3","",""
"","html-keyboard-response","125","87046","0.0-125.0","3MRNMEIQW6SIA77RZKEW2J1IZYFDLX","ATIVK9XUANIUE","389A2A304O4TMZEXJTS0VAVO4ZC0C5","","null","<img src=""img/land2.png"" style=""width:200px; border:14px solid green;"">","null","","","","","","","","","",""
"","image-keyboard-response","126","87355","0.0-126.0","3MRNMEIQW6SIA77RZKEW2J1IZYFDLX","ATIVK9XUANIUE","389A2A304O4TMZEXJTS0VAVO4ZC0C5","","309","img/land2.png","75","309","2","1","2","1","1,0,0,0.25,0.5,0.25,0.25,0.25,0.5","0,1,0,0.5,0.25,0.25,0.25,0.25,0.5","3","",""
"","html-keyboard-response","127","87663","0.0-127.0","3MRNMEIQW6SIA77RZKEW2J1IZYFDLX","ATIVK9XUANIUE","389A2A304O4TMZEXJTS0VAVO4ZC0C5","","null","<img src=""img/land2.png"" style=""width:200px; border:14px solid green;"">","null","","","","","","","","","",""
"","image-keyboard-response","128","87925","0.0-128.0","3MRNMEIQW6SIA77RZKEW2J1IZYFDLX","ATIVK9XUANIUE","389A2A304O4TMZEXJTS0VAVO4ZC0C5","","262","img/land3.png","75","262","2","0","3","1","1,0,0,0.25,0.5,0.25,0.25,0.25,0.5","0,1,0,0.5,0.25,0.25,0.25,0.25,0.5","3","",""
"","html-keyboard-response","129","88230","0.0-129.0","3MRNMEIQW6SIA77RZKEW2J1IZYFDLX","ATIVK9XUANIUE","389A2A304O4TMZEXJTS0VAVO4ZC0C5","","null","<img src=""img/land3.png"" style=""width:200px;border:14px solid red;"">","null","","","","","","","","","",""
"","image-keyboard-response","130","88555","0.0-130.0","3MRNMEIQW6SIA77RZKEW2J1IZYFDLX","ATIVK9XUANIUE","389A2A304O4TMZEXJTS0VAVO4ZC0C5","","324","img/land3.png","76","326","3","0","3","1","1,0,0,0.25,0.5,0.25,0.25,0.25,0.5","0,1,0,0.5,0.25,0.25,0.25,0.25,0.5","3","",""
"","html-keyboard-response","131","88859","0.0-131.0","3MRNMEIQW6SIA77RZKEW2J1IZYFDLX","ATIVK9XUANIUE","389A2A304O4TMZEXJTS0VAVO4ZC0C5","","null","<img src=""img/land3.png"" style=""width:200px;border:14px solid red;"">","null","","","","","","","","","",""
"","image-keyboard-response","132","89530","0.0-132.0","3MRNMEIQW6SIA77RZKEW2J1IZYFDLX","ATIVK9XUANIUE","389A2A304O4TMZEXJTS0VAVO4ZC0C5","","670","img/land1.png","75","670","2","1","1","1","1,0,0,0.25,0.5,0.25,0.25,0.25,0.5","0,1,0,0.5,0.25,0.25,0.25,0.25,0.5","3","",""
"","html-keyboard-response","133","89840","0.0-133.0","3MRNMEIQW6SIA77RZKEW2J1IZYFDLX","ATIVK9XUANIUE","389A2A304O4TMZEXJTS0VAVO4ZC0C5","","null","<img src=""img/land1.png"" style=""width:200px; border:14px solid green;"">","null","","","","","","","","","",""
"","image-keyboard-response","134","90265","0.0-134.0","3MRNMEIQW6SIA77RZKEW2J1IZYFDLX","ATIVK9XUANIUE","389A2A304O4TMZEXJTS0VAVO4ZC0C5","","424","img/land1.png","75","426","2","1","1","1","1,0,0,0.25,0.5,0.25,0.25,0.25,0.5","0,1,0,0.5,0.25,0.25,0.25,0.25,0.5","3","",""
"","html-keyboard-response","135","90567","0.0-135.0","3MRNMEIQW6SIA77RZKEW2J1IZYFDLX","ATIVK9XUANIUE","389A2A304O4TMZEXJTS0VAVO4ZC0C5","","null","<img src=""img/land1.png"" style=""width:200px; border:14px solid green;"">","null","","","","","","","","","",""
"","image-keyboard-response","136","91330","0.0-136.0","3MRNMEIQW6SIA77RZKEW2J1IZYFDLX","ATIVK9XUANIUE","389A2A304O4TMZEXJTS0VAVO4ZC0C5","","762","img/land3.png","76","763","3","1","3","1","1,0,0,0.25,0.5,0.25,0.25,0.25,0.5","0,1,0,0.5,0.25,0.25,0.25,0.25,0.5","3","",""
"","html-keyboard-response","137","91640","0.0-137.0","3MRNMEIQW6SIA77RZKEW2J1IZYFDLX","ATIVK9XUANIUE","389A2A304O4TMZEXJTS0VAVO4ZC0C5","","null","<img src=""img/land3.png"" style=""width:200px; border:14px solid green;"">","null","","","","","","","","","",""
"","image-keyboard-response","138","92410","0.0-138.0","3MRNMEIQW6SIA77RZKEW2J1IZYFDLX","ATIVK9XUANIUE","389A2A304O4TMZEXJTS0VAVO4ZC0C5","","770","img/land1.png","75","771","2","1","1","1","1,0,0,0.25,0.5,0.25,0.25,0.25,0.5","0,1,0,0.5,0.25,0.25,0.25,0.25,0.5","3","",""
"","html-keyboard-response","139","92726","0.0-139.0","3MRNMEIQW6SIA77RZKEW2J1IZYFDLX","ATIVK9XUANIUE","389A2A304O4TMZEXJTS0VAVO4ZC0C5","","null","<img src=""img/land1.png"" style=""width:200px; border:14px solid green;"">","null","","","","","","","","","",""
"","image-keyboard-response","140","93100","0.0-140.0","3MRNMEIQW6SIA77RZKEW2J1IZYFDLX","ATIVK9XUANIUE","389A2A304O4TMZEXJTS0VAVO4ZC0C5","","373","img/land1.png","75","374","2","1","1","1","1,0,0,0.25,0.5,0.25,0.25,0.25,0.5","0,1,0,0.5,0.25,0.25,0.25,0.25,0.5","3","",""
"","html-keyboard-response","141","93403","0.0-141.0","3MRNMEIQW6SIA77RZKEW2J1IZYFDLX","ATIVK9XUANIUE","389A2A304O4TMZEXJTS0VAVO4ZC0C5","","null","<img src=""img/land1.png"" style=""width:200px; border:14px solid green;"">","null","","","","","","","","","",""
"","image-keyboard-response","142","93865","0.0-142.0","3MRNMEIQW6SIA77RZKEW2J1IZYFDLX","ATIVK9XUANIUE","389A2A304O4TMZEXJTS0VAVO4ZC0C5","","463","img/land1.png","75","463","2","1","1","1","1,0,0,0.25,0.5,0.25,0.25,0.25,0.5","0,1,0,0.5,0.25,0.25,0.25,0.25,0.5","3","",""
"","html-keyboard-response","143","94178","0.0-143.0","3MRNMEIQW6SIA77RZKEW2J1IZYFDLX","ATIVK9XUANIUE","389A2A304O4TMZEXJTS0VAVO4ZC0C5","","null","<img src=""img/land1.png"" style=""width:200px; border:14px solid green;"">","null","","","","","","","","","",""
"","image-keyboard-response","144","94525","0.0-144.0","3MRNMEIQW6SIA77RZKEW2J1IZYFDLX","ATIVK9XUANIUE","389A2A304O4TMZEXJTS0VAVO4ZC0C5","","347","img/land1.png","75","347","2","1","1","1","1,0,0,0.25,0.5,0.25,0.25,0.25,0.5","0,1,0,0.5,0.25,0.25,0.25,0.25,0.5","3","",""
"","html-keyboard-response","145","94841","0.0-145.0","3MRNMEIQW6SIA77RZKEW2J1IZYFDLX","ATIVK9XUANIUE","389A2A304O4TMZEXJTS0VAVO4ZC0C5","","null","<img src=""img/land1.png"" style=""width:200px; border:14px solid green;"">","null","","","","","","","","","",""
"","image-keyboard-response","146","95755","0.0-146.0","3MRNMEIQW6SIA77RZKEW2J1IZYFDLX","ATIVK9XUANIUE","389A2A304O4TMZEXJTS0VAVO4ZC0C5","","915","img/land3.png","76","915","3","1","3","1","1,0,0,0.25,0.5,0.25,0.25,0.25,0.5","0,1,0,0.5,0.25,0.25,0.25,0.25,0.5","3","",""
"","html-keyboard-response","147","96056","0.0-147.0","3MRNMEIQW6SIA77RZKEW2J1IZYFDLX","ATIVK9XUANIUE","389A2A304O4TMZEXJTS0VAVO4ZC0C5","","null","<img src=""img/land3.png"" style=""width:200px; border:14px solid green;"">","null","","","","","","","","","",""
"","image-keyboard-response","148","96566","0.0-148.0","3MRNMEIQW6SIA77RZKEW2J1IZYFDLX","ATIVK9XUANIUE","389A2A304O4TMZEXJTS0VAVO4ZC0C5","","508","img/land1.png","75","508","2","1","1","1","1,0,0,0.25,0.5,0.25,0.25,0.25,0.5","0,1,0,0.5,0.25,0.25,0.25,0.25,0.5","3","",""
"","html-keyboard-response","149","96876","0.0-149.0","3MRNMEIQW6SIA77RZKEW2J1IZYFDLX","ATIVK9XUANIUE","389A2A304O4TMZEXJTS0VAVO4ZC0C5","","null","<img src=""img/land1.png"" style=""width:200px; border:14px solid green;"">","null","","","","","","","","","",""
"","image-keyboard-response","150","97256","0.0-150.0","3MRNMEIQW6SIA77RZKEW2J1IZYFDLX","ATIVK9XUANIUE","389A2A304O4TMZEXJTS0VAVO4ZC0C5","","378","img/land1.png","75","379","2","1","1","1","1,0,0,0.25,0.5,0.25,0.25,0.25,0.5","0,1,0,0.5,0.25,0.25,0.25,0.25,0.5","3","",""
"","html-keyboard-response","151","97557","0.0-151.0","3MRNMEIQW6SIA77RZKEW2J1IZYFDLX","ATIVK9XUANIUE","389A2A304O4TMZEXJTS0VAVO4ZC0C5","","null","<img src=""img/land1.png"" style=""width:200px; border:14px solid green;"">","null","","","","","","","","","",""
"","image-keyboard-response","152","98335","0.0-152.0","3MRNMEIQW6SIA77RZKEW2J1IZYFDLX","ATIVK9XUANIUE","389A2A304O4TMZEXJTS0VAVO4ZC0C5","","777","img/land3.png","76","777","3","0","3","1","1,0,0,0.25,0.5,0.25,0.25,0.25,0.5","0,1,0,0.5,0.25,0.25,0.25,0.25,0.5","3","",""
"","html-keyboard-response","153","98644","0.0-153.0","3MRNMEIQW6SIA77RZKEW2J1IZYFDLX","ATIVK9XUANIUE","389A2A304O4TMZEXJTS0VAVO4ZC0C5","","null","<img src=""img/land3.png"" style=""width:200px;border:14px solid red;"">","null","","","","","","","","","",""
"","image-keyboard-response","154","99191","0.0-154.0","3MRNMEIQW6SIA77RZKEW2J1IZYFDLX","ATIVK9XUANIUE","389A2A304O4TMZEXJTS0VAVO4ZC0C5","","546","img/land3.png","76","548","3","0","3","1","1,0,0,0.25,0.5,0.25,0.25,0.25,0.5","0,1,0,0.5,0.25,0.25,0.25,0.25,0.5","3","",""
"","html-keyboard-response","155","99497","0.0-155.0","3MRNMEIQW6SIA77RZKEW2J1IZYFDLX","ATIVK9XUANIUE","389A2A304O4TMZEXJTS0VAVO4ZC0C5","","null","<img src=""img/land3.png"" style=""width:200px;border:14px solid red;"">","null","","","","","","","","","",""
"","image-keyboard-response","156","100030","0.0-156.0","3MRNMEIQW6SIA77RZKEW2J1IZYFDLX","ATIVK9XUANIUE","389A2A304O4TMZEXJTS0VAVO4ZC0C5","","532","img/land1.png","75","533","2","1","1","1","1,0,0,0.25,0.5,0.25,0.25,0.25,0.5","0,1,0,0.5,0.25,0.25,0.25,0.25,0.5","3","",""
"","html-keyboard-response","157","100335","0.0-157.0","3MRNMEIQW6SIA77RZKEW2J1IZYFDLX","ATIVK9XUANIUE","389A2A304O4TMZEXJTS0VAVO4ZC0C5","","null","<img src=""img/land1.png"" style=""width:200px; border:14px solid green;"">","null","","","","","","","","","",""
"","image-keyboard-response","158","101051","0.0-158.0","3MRNMEIQW6SIA77RZKEW2J1IZYFDLX","ATIVK9XUANIUE","389A2A304O4TMZEXJTS0VAVO4ZC0C5","","714","img/land3.png","76","715","3","1","3","1","1,0,0,0.25,0.5,0.25,0.25,0.25,0.5","0,1,0,0.5,0.25,0.25,0.25,0.25,0.5","3","",""
"","html-keyboard-response","159","101357","0.0-159.0","3MRNMEIQW6SIA77RZKEW2J1IZYFDLX","ATIVK9XUANIUE","389A2A304O4TMZEXJTS0VAVO4ZC0C5","","null","<img src=""img/land3.png"" style=""width:200px; border:14px solid green;"">","null","","","","","","","","","",""
"","image-keyboard-response","160","101695","0.0-160.0","3MRNMEIQW6SIA77RZKEW2J1IZYFDLX","ATIVK9XUANIUE","389A2A304O4TMZEXJTS0VAVO4ZC0C5","","337","img/land3.png","76","337","3","1","3","1","1,0,0,0.25,0.5,0.25,0.25,0.25,0.5","0,1,0,0.5,0.25,0.25,0.25,0.25,0.5","3","",""
"","html-keyboard-response","161","102010","0.0-161.0","3MRNMEIQW6SIA77RZKEW2J1IZYFDLX","ATIVK9XUANIUE","389A2A304O4TMZEXJTS0VAVO4ZC0C5","","null","<img src=""img/land3.png"" style=""width:200px; border:14px solid green;"">","null","","","","","","","","","",""
"","image-keyboard-response","162","102566","0.0-162.0","3MRNMEIQW6SIA77RZKEW2J1IZYFDLX","ATIVK9XUANIUE","389A2A304O4TMZEXJTS0VAVO4ZC0C5","","553","img/land1.png","75","554","2","1","1","1","1,0,0,0.25,0.5,0.25,0.25,0.25,0.5","0,1,0,0.5,0.25,0.25,0.25,0.25,0.5","3","",""
"","html-keyboard-response","163","102881","0.0-163.0","3MRNMEIQW6SIA77RZKEW2J1IZYFDLX","ATIVK9XUANIUE","389A2A304O4TMZEXJTS0VAVO4ZC0C5","","null","<img src=""img/land1.png"" style=""width:200px; border:14px solid green;"">","null","","","","","","","","","",""
"","image-keyboard-response","164","103330","0.0-164.0","3MRNMEIQW6SIA77RZKEW2J1IZYFDLX","ATIVK9XUANIUE","389A2A304O4TMZEXJTS0VAVO4ZC0C5","","449","img/land1.png","75","449","2","1","1","1","1,0,0,0.25,0.5,0.25,0.25,0.25,0.5","0,1,0,0.5,0.25,0.25,0.25,0.25,0.5","3","",""
"","html-keyboard-response","165","103637","0.0-165.0","3MRNMEIQW6SIA77RZKEW2J1IZYFDLX","ATIVK9XUANIUE","389A2A304O4TMZEXJTS0VAVO4ZC0C5","","null","<img src=""img/land1.png"" style=""width:200px; border:14px solid green;"">","null","","","","","","","","","",""
"","image-keyboard-response","166","104096","0.0-166.0","3MRNMEIQW6SIA77RZKEW2J1IZYFDLX","ATIVK9XUANIUE","389A2A304O4TMZEXJTS0VAVO4ZC0C5","","457","img/land2.png","75","458","2","1","2","1","1,0,0,0.25,0.5,0.25,0.25,0.25,0.5","0,1,0,0.5,0.25,0.25,0.25,0.25,0.5","3","",""
"","html-keyboard-response","167","104410","0.0-167.0","3MRNMEIQW6SIA77RZKEW2J1IZYFDLX","ATIVK9XUANIUE","389A2A304O4TMZEXJTS0VAVO4ZC0C5","","null","<img src=""img/land2.png"" style=""width:200px; border:14px solid green;"">","null","","","","","","","","","",""
"","image-keyboard-response","168","104484","0.0-168.0","3MRNMEIQW6SIA77RZKEW2J1IZYFDLX","ATIVK9XUANIUE","389A2A304O4TMZEXJTS0VAVO4ZC0C5","","74","img/land1.png","76","75","3","0","1","1","1,0,0,0.25,0.5,0.25,0.25,0.25,0.5","0,1,0,0.5,0.25,0.25,0.25,0.25,0.5","3","",""
"","html-keyboard-response","169","104793","0.0-169.0","3MRNMEIQW6SIA77RZKEW2J1IZYFDLX","ATIVK9XUANIUE","389A2A304O4TMZEXJTS0VAVO4ZC0C5","","null","<img src=""img/land1.png"" style=""width:200px;border:14px solid red;"">","null","","","","","","","","","",""
"","image-keyboard-response","170","105491","0.0-170.0","3MRNMEIQW6SIA77RZKEW2J1IZYFDLX","ATIVK9XUANIUE","389A2A304O4TMZEXJTS0VAVO4ZC0C5","","697","img/land1.png","75","698","2","1","1","1","1,0,0,0.25,0.5,0.25,0.25,0.25,0.5","0,1,0,0.5,0.25,0.25,0.25,0.25,0.5","3","",""
"","html-keyboard-response","171","105800","0.0-171.0","3MRNMEIQW6SIA77RZKEW2J1IZYFDLX","ATIVK9XUANIUE","389A2A304O4TMZEXJTS0VAVO4ZC0C5","","null","<img src=""img/land1.png"" style=""width:200px; border:14px solid green;"">","null","","","","","","","","","",""
"","image-keyboard-response","172","106406","0.0-172.0","3MRNMEIQW6SIA77RZKEW2J1IZYFDLX","ATIVK9XUANIUE","389A2A304O4TMZEXJTS0VAVO4ZC0C5","","604","img/land3.png","76","604","3","0","3","1","1,0,0,0.25,0.5,0.25,0.25,0.25,0.5","0,1,0,0.5,0.25,0.25,0.25,0.25,0.5","3","",""
"","html-keyboard-response","173","106716","0.0-173.0","3MRNMEIQW6SIA77RZKEW2J1IZYFDLX","ATIVK9XUANIUE","389A2A304O4TMZEXJTS0VAVO4ZC0C5","","null","<img src=""img/land3.png"" style=""width:200px;border:14px solid red;"">","null","","","","","","","","","",""
"","image-keyboard-response","174","107289","0.0-174.0","3MRNMEIQW6SIA77RZKEW2J1IZYFDLX","ATIVK9XUANIUE","389A2A304O4TMZEXJTS0VAVO4ZC0C5","","572","img/land1.png","75","574","2","1","1","1","1,0,0,0.25,0.5,0.25,0.25,0.25,0.5","0,1,0,0.5,0.25,0.25,0.25,0.25,0.5","3","",""
"","html-keyboard-response","175","107602","0.0-175.0","3MRNMEIQW6SIA77RZKEW2J1IZYFDLX","ATIVK9XUANIUE","389A2A304O4TMZEXJTS0VAVO4ZC0C5","","null","<img src=""img/land1.png"" style=""width:200px; border:14px solid green;"">","null","","","","","","","","","",""
"","image-keyboard-response","176","108056","0.0-176.0","3MRNMEIQW6SIA77RZKEW2J1IZYFDLX","ATIVK9XUANIUE","389A2A304O4TMZEXJTS0VAVO4ZC0C5","","452","img/land1.png","75","452","2","1","1","1","1,0,0,0.25,0.5,0.25,0.25,0.25,0.5","0,1,0,0.5,0.25,0.25,0.25,0.25,0.5","3","",""
"","html-keyboard-response","177","108363","0.0-177.0","3MRNMEIQW6SIA77RZKEW2J1IZYFDLX","ATIVK9XUANIUE","389A2A304O4TMZEXJTS0VAVO4ZC0C5","","null","<img src=""img/land1.png"" style=""width:200px; border:14px solid green;"">","null","","","","","","","","","",""
"","image-keyboard-response","178","108850","0.0-178.0","3MRNMEIQW6SIA77RZKEW2J1IZYFDLX","ATIVK9XUANIUE","389A2A304O4TMZEXJTS0VAVO4ZC0C5","","487","img/land1.png","75","489","2","1","1","1","1,0,0,0.25,0.5,0.25,0.25,0.25,0.5","0,1,0,0.5,0.25,0.25,0.25,0.25,0.5","3","",""
"","html-keyboard-response","179","109156","0.0-179.0","3MRNMEIQW6SIA77RZKEW2J1IZYFDLX","ATIVK9XUANIUE","389A2A304O4TMZEXJTS0VAVO4ZC0C5","","null","<img src=""img/land1.png"" style=""width:200px; border:14px solid green;"">","null","","","","","","","","","",""
"","image-keyboard-response","180","109796","0.0-180.0","3MRNMEIQW6SIA77RZKEW2J1IZYFDLX","ATIVK9XUANIUE","389A2A304O4TMZEXJTS0VAVO4ZC0C5","","640","img/land2.png","75","640","2","0","2","1","1,0,0,0.25,0.5,0.25,0.25,0.25,0.5","0,1,0,0.5,0.25,0.25,0.25,0.25,0.5","3","",""
"","html-keyboard-response","181","110102","0.0-181.0","3MRNMEIQW6SIA77RZKEW2J1IZYFDLX","ATIVK9XUANIUE","389A2A304O4TMZEXJTS0VAVO4ZC0C5","","null","<img src=""img/land2.png"" style=""width:200px;border:14px solid red;"">","null","","","","","","","","","",""
"","image-keyboard-response","182","110516","0.0-182.0","3MRNMEIQW6SIA77RZKEW2J1IZYFDLX","ATIVK9XUANIUE","389A2A304O4TMZEXJTS0VAVO4ZC0C5","","413","img/land2.png","75","413","2","1","2","1","1,0,0,0.25,0.5,0.25,0.25,0.25,0.5","0,1,0,0.5,0.25,0.25,0.25,0.25,0.5","3","",""
"","html-keyboard-response","183","110826","0.0-183.0","3MRNMEIQW6SIA77RZKEW2J1IZYFDLX","ATIVK9XUANIUE","389A2A304O4TMZEXJTS0VAVO4ZC0C5","","null","<img src=""img/land2.png"" style=""width:200px; border:14px solid green;"">","null","","","","","","","","","",""
"","image-keyboard-response","184","111355","0.0-184.0","3MRNMEIQW6SIA77RZKEW2J1IZYFDLX","ATIVK9XUANIUE","389A2A304O4TMZEXJTS0VAVO4ZC0C5","","529","img/land1.png","75","530","2","1","1","1","1,0,0,0.25,0.5,0.25,0.25,0.25,0.5","0,1,0,0.5,0.25,0.25,0.25,0.25,0.5","3","",""
"","html-keyboard-response","185","111665","0.0-185.0","3MRNMEIQW6SIA77RZKEW2J1IZYFDLX","ATIVK9XUANIUE","389A2A304O4TMZEXJTS0VAVO4ZC0C5","","null","<img src=""img/land1.png"" style=""width:200px; border:14px solid green;"">","null","","","","","","","","","",""
"","image-keyboard-response","186","112255","0.0-186.0","3MRNMEIQW6SIA77RZKEW2J1IZYFDLX","ATIVK9XUANIUE","389A2A304O4TMZEXJTS0VAVO4ZC0C5","","588","img/land2.png","75","590","2","0","2","1","1,0,0,0.25,0.5,0.25,0.25,0.25,0.5","0,1,0,0.5,0.25,0.25,0.25,0.25,0.5","3","",""
"","html-keyboard-response","187","112568","0.0-187.0","3MRNMEIQW6SIA77RZKEW2J1IZYFDLX","ATIVK9XUANIUE","389A2A304O4TMZEXJTS0VAVO4ZC0C5","","null","<img src=""img/land2.png"" style=""width:200px;border:14px solid red;"">","null","","","","","","","","","",""
"","image-keyboard-response","188","113095","0.0-188.0","3MRNMEIQW6SIA77RZKEW2J1IZYFDLX","ATIVK9XUANIUE","389A2A304O4TMZEXJTS0VAVO4ZC0C5","","527","img/land3.png","75","528","2","1","3","1","1,0,0,0.25,0.5,0.25,0.25,0.25,0.5","0,1,0,0.5,0.25,0.25,0.25,0.25,0.5","3","",""
"","html-keyboard-response","189","113407","0.0-189.0","3MRNMEIQW6SIA77RZKEW2J1IZYFDLX","ATIVK9XUANIUE","389A2A304O4TMZEXJTS0VAVO4ZC0C5","","null","<img src=""img/land3.png"" style=""width:200px; border:14px solid green;"">","null","","","","","","","","","",""
"","image-keyboard-response","190","114085","0.0-190.0","3MRNMEIQW6SIA77RZKEW2J1IZYFDLX","ATIVK9XUANIUE","389A2A304O4TMZEXJTS0VAVO4ZC0C5","","678","img/land1.png","75","679","2","1","1","1","1,0,0,0.25,0.5,0.25,0.25,0.25,0.5","0,1,0,0.5,0.25,0.25,0.25,0.25,0.5","3","",""
"","html-keyboard-response","191","114399","0.0-191.0","3MRNMEIQW6SIA77RZKEW2J1IZYFDLX","ATIVK9XUANIUE","389A2A304O4TMZEXJTS0VAVO4ZC0C5","","null","<img src=""img/land1.png"" style=""width:200px; border:14px solid green;"">","null","","","","","","","","","",""
"","image-keyboard-response","192","114999","0.0-192.0","3MRNMEIQW6SIA77RZKEW2J1IZYFDLX","ATIVK9XUANIUE","389A2A304O4TMZEXJTS0VAVO4ZC0C5","","599","img/land3.png","76","601","3","0","3","1","1,0,0,0.25,0.5,0.25,0.25,0.25,0.5","0,1,0,0.5,0.25,0.25,0.25,0.25,0.5","3","",""
"","html-keyboard-response","193","115309","0.0-193.0","3MRNMEIQW6SIA77RZKEW2J1IZYFDLX","ATIVK9XUANIUE","389A2A304O4TMZEXJTS0VAVO4ZC0C5","","null","<img src=""img/land3.png"" style=""width:200px;border:14px solid red;"">","null","","","","","","","","","",""
"","image-keyboard-response","194","115916","0.0-194.0","3MRNMEIQW6SIA77RZKEW2J1IZYFDLX","ATIVK9XUANIUE","389A2A304O4TMZEXJTS0VAVO4ZC0C5","","606","img/land1.png","75","608","2","1","1","1","1,0,0,0.25,0.5,0.25,0.25,0.25,0.5","0,1,0,0.5,0.25,0.25,0.25,0.25,0.5","3","",""
"","html-keyboard-response","195","116223","0.0-195.0","3MRNMEIQW6SIA77RZKEW2J1IZYFDLX","ATIVK9XUANIUE","389A2A304O4TMZEXJTS0VAVO4ZC0C5","","null","<img src=""img/land1.png"" style=""width:200px; border:14px solid green;"">","null","","","","","","","","","",""
"","image-keyboard-response","196","116785","0.0-196.0","3MRNMEIQW6SIA77RZKEW2J1IZYFDLX","ATIVK9XUANIUE","389A2A304O4TMZEXJTS0VAVO4ZC0C5","","561","img/land1.png","75","561","2","1","1","1","1,0,0,0.25,0.5,0.25,0.25,0.25,0.5","0,1,0,0.5,0.25,0.25,0.25,0.25,0.5","3","",""
"","html-keyboard-response","197","117092","0.0-197.0","3MRNMEIQW6SIA77RZKEW2J1IZYFDLX","ATIVK9XUANIUE","389A2A304O4TMZEXJTS0VAVO4ZC0C5","","null","<img src=""img/land1.png"" style=""width:200px; border:14px solid green;"">","null","","","","","","","","","",""
"","image-keyboard-response","198","117535","0.0-198.0","3MRNMEIQW6SIA77RZKEW2J1IZYFDLX","ATIVK9XUANIUE","389A2A304O4TMZEXJTS0VAVO4ZC0C5","","442","img/land1.png","75","444","2","1","1","1","1,0,0,0.25,0.5,0.25,0.25,0.25,0.5","0,1,0,0.5,0.25,0.25,0.25,0.25,0.5","3","",""
"","html-keyboard-response","199","117853","0.0-199.0","3MRNMEIQW6SIA77RZKEW2J1IZYFDLX","ATIVK9XUANIUE","389A2A304O4TMZEXJTS0VAVO4ZC0C5","","null","<img src=""img/land1.png"" style=""width:200px; border:14px solid green;"">","null","","","","","","","","","",""
"","image-keyboard-response","200","118285","0.0-200.0","3MRNMEIQW6SIA77RZKEW2J1IZYFDLX","ATIVK9XUANIUE","389A2A304O4TMZEXJTS0VAVO4ZC0C5","","430","img/land1.png","75","432","2","1","1","1","1,0,0,0.25,0.5,0.25,0.25,0.25,0.5","0,1,0,0.5,0.25,0.25,0.25,0.25,0.5","3","",""
"","html-keyboard-response","201","118586","0.0-201.0","3MRNMEIQW6SIA77RZKEW2J1IZYFDLX","ATIVK9XUANIUE","389A2A304O4TMZEXJTS0VAVO4ZC0C5","","null","<img src=""img/land1.png"" style=""width:200px; border:14px solid green;"">","null","","","","","","","","","",""
"","image-keyboard-response","202","119020","0.0-202.0","3MRNMEIQW6SIA77RZKEW2J1IZYFDLX","ATIVK9XUANIUE","389A2A304O4TMZEXJTS0VAVO4ZC0C5","","433","img/land1.png","75","435","2","1","1","1","1,0,0,0.25,0.5,0.25,0.25,0.25,0.5","0,1,0,0.5,0.25,0.25,0.25,0.25,0.5","3","",""
"","html-keyboard-response","203","119329","0.0-203.0","3MRNMEIQW6SIA77RZKEW2J1IZYFDLX","ATIVK9XUANIUE","389A2A304O4TMZEXJTS0VAVO4ZC0C5","","null","<img src=""img/land1.png"" style=""width:200px; border:14px solid green;"">","null","","","","","","","","","",""
"","image-keyboard-response","204","119771","0.0-204.0","3MRNMEIQW6SIA77RZKEW2J1IZYFDLX","ATIVK9XUANIUE","389A2A304O4TMZEXJTS0VAVO4ZC0C5","","441","img/land1.png","75","441","2","1","1","1","1,0,0,0.25,0.5,0.25,0.25,0.25,0.5","0,1,0,0.5,0.25,0.25,0.25,0.25,0.5","3","",""
"","html-keyboard-response","205","120086","0.0-205.0","3MRNMEIQW6SIA77RZKEW2J1IZYFDLX","ATIVK9XUANIUE","389A2A304O4TMZEXJTS0VAVO4ZC0C5","","null","<img src=""img/land1.png"" style=""width:200px; border:14px solid green;"">","null","","","","","","","","","",""
"","image-keyboard-response","206","120700","0.0-206.0","3MRNMEIQW6SIA77RZKEW2J1IZYFDLX","ATIVK9XUANIUE","389A2A304O4TMZEXJTS0VAVO4ZC0C5","","614","img/land3.png","76","614","3","0","3","1","1,0,0,0.25,0.5,0.25,0.25,0.25,0.5","0,1,0,0.5,0.25,0.25,0.25,0.25,0.5","3","",""
"","html-keyboard-response","207","121006","0.0-207.0","3MRNMEIQW6SIA77RZKEW2J1IZYFDLX","ATIVK9XUANIUE","389A2A304O4TMZEXJTS0VAVO4ZC0C5","","null","<img src=""img/land3.png"" style=""width:200px;border:14px solid red;"">","null","","","","","","","","","",""
"","image-keyboard-response","208","122064","0.0-208.0","3MRNMEIQW6SIA77RZKEW2J1IZYFDLX","ATIVK9XUANIUE","389A2A304O4TMZEXJTS0VAVO4ZC0C5","","1057","img/land2.png","75","1060","2","0","2","1","1,0,0,0.25,0.5,0.25,0.25,0.25,0.5","0,1,0,0.5,0.25,0.25,0.25,0.25,0.5","3","",""
"","html-keyboard-response","209","122366","0.0-209.0","3MRNMEIQW6SIA77RZKEW2J1IZYFDLX","ATIVK9XUANIUE","389A2A304O4TMZEXJTS0VAVO4ZC0C5","","null","<img src=""img/land2.png"" style=""width:200px;border:14px solid red;"">","null","","","","","","","","","",""
"","image-keyboard-response","210","122980","0.0-210.0","3MRNMEIQW6SIA77RZKEW2J1IZYFDLX","ATIVK9XUANIUE","389A2A304O4TMZEXJTS0VAVO4ZC0C5","","613","img/land1.png","75","613","2","1","1","1","1,0,0,0.25,0.5,0.25,0.25,0.25,0.5","0,1,0,0.5,0.25,0.25,0.25,0.25,0.5","3","",""
"","html-keyboard-response","211","123284","0.0-211.0","3MRNMEIQW6SIA77RZKEW2J1IZYFDLX","ATIVK9XUANIUE","389A2A304O4TMZEXJTS0VAVO4ZC0C5","","null","<img src=""img/land1.png"" style=""width:200px; border:14px solid green;"">","null","","","","","","","","","",""
"","image-keyboard-response","212","123670","0.0-212.0","3MRNMEIQW6SIA77RZKEW2J1IZYFDLX","ATIVK9XUANIUE","389A2A304O4TMZEXJTS0VAVO4ZC0C5","","387","img/land1.png","75","387","2","1","1","1","1,0,0,0.25,0.5,0.25,0.25,0.25,0.5","0,1,0,0.5,0.25,0.25,0.25,0.25,0.5","3","",""
"","html-keyboard-response","213","123982","0.0-213.0","3MRNMEIQW6SIA77RZKEW2J1IZYFDLX","ATIVK9XUANIUE","389A2A304O4TMZEXJTS0VAVO4ZC0C5","","null","<img src=""img/land1.png"" style=""width:200px; border:14px solid green;"">","null","","","","","","","","","",""
"","image-keyboard-response","214","124300","0.0-214.0","3MRNMEIQW6SIA77RZKEW2J1IZYFDLX","ATIVK9XUANIUE","389A2A304O4TMZEXJTS0VAVO4ZC0C5","","317","img/land2.png","75","318","2","0","2","1","1,0,0,0.25,0.5,0.25,0.25,0.25,0.5","0,1,0,0.5,0.25,0.25,0.25,0.25,0.5","3","",""
"","html-keyboard-response","215","124614","0.0-215.0","3MRNMEIQW6SIA77RZKEW2J1IZYFDLX","ATIVK9XUANIUE","389A2A304O4TMZEXJTS0VAVO4ZC0C5","","null","<img src=""img/land2.png"" style=""width:200px;border:14px solid red;"">","null","","","","","","","","","",""
"","image-keyboard-response","216","124705","0.0-216.0","3MRNMEIQW6SIA77RZKEW2J1IZYFDLX","ATIVK9XUANIUE","389A2A304O4TMZEXJTS0VAVO4ZC0C5","","90","img/land2.png","75","92","2","0","2","1","1,0,0,0.25,0.5,0.25,0.25,0.25,0.5","0,1,0,0.5,0.25,0.25,0.25,0.25,0.5","3","",""
"","html-keyboard-response","217","125010","0.0-217.0","3MRNMEIQW6SIA77RZKEW2J1IZYFDLX","ATIVK9XUANIUE","389A2A304O4TMZEXJTS0VAVO4ZC0C5","","null","<img src=""img/land2.png"" style=""width:200px;border:14px solid red;"">","null","","","","","","","","","",""
"","image-keyboard-response","218","125620","0.0-218.0","3MRNMEIQW6SIA77RZKEW2J1IZYFDLX","ATIVK9XUANIUE","389A2A304O4TMZEXJTS0VAVO4ZC0C5","","610","img/land3.png","75","611","2","0","3","1","1,0,0,0.25,0.5,0.25,0.25,0.25,0.5","0,1,0,0.5,0.25,0.25,0.25,0.25,0.5","3","",""
"","html-keyboard-response","219","125922","0.0-219.0","3MRNMEIQW6SIA77RZKEW2J1IZYFDLX","ATIVK9XUANIUE","389A2A304O4TMZEXJTS0VAVO4ZC0C5","","null","<img src=""img/land3.png"" style=""width:200px;border:14px solid red;"">","null","","","","","","","","","",""
"","image-keyboard-response","220","126609","0.0-220.0","3MRNMEIQW6SIA77RZKEW2J1IZYFDLX","ATIVK9XUANIUE","389A2A304O4TMZEXJTS0VAVO4ZC0C5","","685","img/land1.png","75","686","2","1","1","1","1,0,0,0.25,0.5,0.25,0.25,0.25,0.5","0,1,0,0.5,0.25,0.25,0.25,0.25,0.5","3","",""
"","html-keyboard-response","221","126918","0.0-221.0","3MRNMEIQW6SIA77RZKEW2J1IZYFDLX","ATIVK9XUANIUE","389A2A304O4TMZEXJTS0VAVO4ZC0C5","","null","<img src=""img/land1.png"" style=""width:200px; border:14px solid green;"">","null","","","","","","","","","",""
"","image-keyboard-response","222","127286","0.0-222.0","3MRNMEIQW6SIA77RZKEW2J1IZYFDLX","ATIVK9XUANIUE","389A2A304O4TMZEXJTS0VAVO4ZC0C5","","367","img/land1.png","75","368","2","1","1","1","1,0,0,0.25,0.5,0.25,0.25,0.25,0.5","0,1,0,0.5,0.25,0.25,0.25,0.25,0.5","3","",""
"","html-keyboard-response","223","127595","0.0-223.0","3MRNMEIQW6SIA77RZKEW2J1IZYFDLX","ATIVK9XUANIUE","389A2A304O4TMZEXJTS0VAVO4ZC0C5","","null","<img src=""img/land1.png"" style=""width:200px; border:14px solid green;"">","null","","","","","","","","","",""
"","image-keyboard-response","224","128621","0.0-224.0","3MRNMEIQW6SIA77RZKEW2J1IZYFDLX","ATIVK9XUANIUE","389A2A304O4TMZEXJTS0VAVO4ZC0C5","","1024","img/land2.png","75","1025","2","1","2","1","1,0,0,0.25,0.5,0.25,0.25,0.25,0.5","0,1,0,0.5,0.25,0.25,0.25,0.25,0.5","3","",""
"","html-keyboard-response","225","128923","0.0-225.0","3MRNMEIQW6SIA77RZKEW2J1IZYFDLX","ATIVK9XUANIUE","389A2A304O4TMZEXJTS0VAVO4ZC0C5","","null","<img src=""img/land2.png"" style=""width:200px; border:14px solid green;"">","null","","","","","","","","","",""
"","image-keyboard-response","226","129460","0.0-226.0","3MRNMEIQW6SIA77RZKEW2J1IZYFDLX","ATIVK9XUANIUE","389A2A304O4TMZEXJTS0VAVO4ZC0C5","","536","img/land1.png","75","536","2","1","1","1","1,0,0,0.25,0.5,0.25,0.25,0.25,0.5","0,1,0,0.5,0.25,0.25,0.25,0.25,0.5","3","",""
"","html-keyboard-response","227","129778","0.0-227.0","3MRNMEIQW6SIA77RZKEW2J1IZYFDLX","ATIVK9XUANIUE","389A2A304O4TMZEXJTS0VAVO4ZC0C5","","null","<img src=""img/land1.png"" style=""width:200px; border:14px solid green;"">","null","","","","","","","","","",""
"","image-keyboard-response","228","130360","0.0-228.0","3MRNMEIQW6SIA77RZKEW2J1IZYFDLX","ATIVK9XUANIUE","389A2A304O4TMZEXJTS0VAVO4ZC0C5","","581","img/land2.png","75","582","2","0","2","1","1,0,0,0.25,0.5,0.25,0.25,0.25,0.5","0,1,0,0.5,0.25,0.25,0.25,0.25,0.5","3","",""
"","html-keyboard-response","229","130675","0.0-229.0","3MRNMEIQW6SIA77RZKEW2J1IZYFDLX","ATIVK9XUANIUE","389A2A304O4TMZEXJTS0VAVO4ZC0C5","","null","<img src=""img/land2.png"" style=""width:200px;border:14px solid red;"">","null","","","","","","","","","",""
"","image-keyboard-response","230","131169","0.0-230.0","3MRNMEIQW6SIA77RZKEW2J1IZYFDLX","ATIVK9XUANIUE","389A2A304O4TMZEXJTS0VAVO4ZC0C5","","493","img/land1.png","75","494","2","1","1","1","1,0,0,0.25,0.5,0.25,0.25,0.25,0.5","0,1,0,0.5,0.25,0.25,0.25,0.25,0.5","3","",""
"","html-keyboard-response","231","131485","0.0-231.0","3MRNMEIQW6SIA77RZKEW2J1IZYFDLX","ATIVK9XUANIUE","389A2A304O4TMZEXJTS0VAVO4ZC0C5","","null","<img src=""img/land1.png"" style=""width:200px; border:14px solid green;"">","null","","","","","","","","","",""
"","image-keyboard-response","232","132115","0.0-232.0","3MRNMEIQW6SIA77RZKEW2J1IZYFDLX","ATIVK9XUANIUE","389A2A304O4TMZEXJTS0VAVO4ZC0C5","","629","img/land3.png","76","629","3","0","3","1","1,0,0,0.25,0.5,0.25,0.25,0.25,0.5","0,1,0,0.5,0.25,0.25,0.25,0.25,0.5","3","",""
"","html-keyboard-response","233","132429","0.0-233.0","3MRNMEIQW6SIA77RZKEW2J1IZYFDLX","ATIVK9XUANIUE","389A2A304O4TMZEXJTS0VAVO4ZC0C5","","null","<img src=""img/land3.png"" style=""width:200px;border:14px solid red;"">","null","","","","","","","","","",""
"","image-keyboard-response","234","133150","0.0-234.0","3MRNMEIQW6SIA77RZKEW2J1IZYFDLX","ATIVK9XUANIUE","389A2A304O4TMZEXJTS0VAVO4ZC0C5","","720","img/land1.png","75","720","2","1","1","1","1,0,0,0.25,0.5,0.25,0.25,0.25,0.5","0,1,0,0.5,0.25,0.25,0.25,0.25,0.5","3","",""
"","html-keyboard-response","235","133452","0.0-235.0","3MRNMEIQW6SIA77RZKEW2J1IZYFDLX","ATIVK9XUANIUE","389A2A304O4TMZEXJTS0VAVO4ZC0C5","","null","<img src=""img/land1.png"" style=""width:200px; border:14px solid green;"">","null","","","","","","","","","",""
"","image-keyboard-response","236","133960","0.0-236.0","3MRNMEIQW6SIA77RZKEW2J1IZYFDLX","ATIVK9XUANIUE","389A2A304O4TMZEXJTS0VAVO4ZC0C5","","506","img/land1.png","75","507","2","1","1","1","1,0,0,0.25,0.5,0.25,0.25,0.25,0.5","0,1,0,0.5,0.25,0.25,0.25,0.25,0.5","3","",""
"","html-keyboard-response","237","134273","0.0-237.0","3MRNMEIQW6SIA77RZKEW2J1IZYFDLX","ATIVK9XUANIUE","389A2A304O4TMZEXJTS0VAVO4ZC0C5","","null","<img src=""img/land1.png"" style=""width:200px; border:14px solid green;"">","null","","","","","","","","","",""
"","image-keyboard-response","238","135280","0.0-238.0","3MRNMEIQW6SIA77RZKEW2J1IZYFDLX","ATIVK9XUANIUE","389A2A304O4TMZEXJTS0VAVO4ZC0C5","","1007","img/land2.png","75","1008","2","0","2","1","1,0,0,0.25,0.5,0.25,0.25,0.25,0.5","0,1,0,0.5,0.25,0.25,0.25,0.25,0.5","3","",""
"","html-keyboard-response","239","135583","0.0-239.0","3MRNMEIQW6SIA77RZKEW2J1IZYFDLX","ATIVK9XUANIUE","389A2A304O4TMZEXJTS0VAVO4ZC0C5","","null","<img src=""img/land2.png"" style=""width:200px;border:14px solid red;"">","null","","","","","","","","","",""
"","image-keyboard-response","240","136210","0.0-240.0","3MRNMEIQW6SIA77RZKEW2J1IZYFDLX","ATIVK9XUANIUE","389A2A304O4TMZEXJTS0VAVO4ZC0C5","","627","img/land1.png","75","628","2","1","1","1","1,0,0,0.25,0.5,0.25,0.25,0.25,0.5","0,1,0,0.5,0.25,0.25,0.25,0.25,0.5","3","",""
"","html-keyboard-response","241","136517","0.0-241.0","3MRNMEIQW6SIA77RZKEW2J1IZYFDLX","ATIVK9XUANIUE","389A2A304O4TMZEXJTS0VAVO4ZC0C5","","null","<img src=""img/land1.png"" style=""width:200px; border:14px solid green;"">","null","","","","","","","","","",""
"","image-keyboard-response","242","136932","0.0-242.0","3MRNMEIQW6SIA77RZKEW2J1IZYFDLX","ATIVK9XUANIUE","389A2A304O4TMZEXJTS0VAVO4ZC0C5","","414","img/land1.png","75","415","2","1","1","1","1,0,0,0.25,0.5,0.25,0.25,0.25,0.5","0,1,0,0.5,0.25,0.25,0.25,0.25,0.5","3","",""
"","html-keyboard-response","243","137245","0.0-243.0","3MRNMEIQW6SIA77RZKEW2J1IZYFDLX","ATIVK9XUANIUE","389A2A304O4TMZEXJTS0VAVO4ZC0C5","","null","<img src=""img/land1.png"" style=""width:200px; border:14px solid green;"">","null","","","","","","","","","",""
"","image-keyboard-response","244","137636","0.0-244.0","3MRNMEIQW6SIA77RZKEW2J1IZYFDLX","ATIVK9XUANIUE","389A2A304O4TMZEXJTS0VAVO4ZC0C5","","390","img/land1.png","75","391","2","1","1","1","1,0,0,0.25,0.5,0.25,0.25,0.25,0.5","0,1,0,0.5,0.25,0.25,0.25,0.25,0.5","3","",""
"","html-keyboard-response","245","137951","0.0-245.0","3MRNMEIQW6SIA77RZKEW2J1IZYFDLX","ATIVK9XUANIUE","389A2A304O4TMZEXJTS0VAVO4ZC0C5","","null","<img src=""img/land1.png"" style=""width:200px; border:14px solid green;"">","null","","","","","","","","","",""
"","image-keyboard-response","246","138775","0.0-246.0","3MRNMEIQW6SIA77RZKEW2J1IZYFDLX","ATIVK9XUANIUE","389A2A304O4TMZEXJTS0VAVO4ZC0C5","","824","img/land2.png","75","824","2","0","2","1","1,0,0,0.25,0.5,0.25,0.25,0.25,0.5","0,1,0,0.5,0.25,0.25,0.25,0.25,0.5","3","",""
"","html-keyboard-response","247","139092","0.0-247.0","3MRNMEIQW6SIA77RZKEW2J1IZYFDLX","ATIVK9XUANIUE","389A2A304O4TMZEXJTS0VAVO4ZC0C5","","null","<img src=""img/land2.png"" style=""width:200px;border:14px solid red;"">","null","","","","","","","","","",""
"","image-keyboard-response","248","139585","0.0-248.0","3MRNMEIQW6SIA77RZKEW2J1IZYFDLX","ATIVK9XUANIUE","389A2A304O4TMZEXJTS0VAVO4ZC0C5","","493","img/land1.png","75","494","2","1","1","1","1,0,0,0.25,0.5,0.25,0.25,0.25,0.5","0,1,0,0.5,0.25,0.25,0.25,0.25,0.5","3","",""
"","html-keyboard-response","249","139891","0.0-249.0","3MRNMEIQW6SIA77RZKEW2J1IZYFDLX","ATIVK9XUANIUE","389A2A304O4TMZEXJTS0VAVO4ZC0C5","","null","<img src=""img/land1.png"" style=""width:200px; border:14px solid green;"">","null","","","","","","","","","",""
"","image-keyboard-response","250","140260","0.0-250.0","3MRNMEIQW6SIA77RZKEW2J1IZYFDLX","ATIVK9XUANIUE","389A2A304O4TMZEXJTS0VAVO4ZC0C5","","369","img/land1.png","75","371","2","1","1","1","1,0,0,0.25,0.5,0.25,0.25,0.25,0.5","0,1,0,0.5,0.25,0.25,0.25,0.25,0.5","3","",""
"","html-keyboard-response","251","140573","0.0-251.0","3MRNMEIQW6SIA77RZKEW2J1IZYFDLX","ATIVK9XUANIUE","389A2A304O4TMZEXJTS0VAVO4ZC0C5","","null","<img src=""img/land1.png"" style=""width:200px; border:14px solid green;"">","null","","","","","","","","","",""
"","image-keyboard-response","252","141085","0.0-252.0","3MRNMEIQW6SIA77RZKEW2J1IZYFDLX","ATIVK9XUANIUE","389A2A304O4TMZEXJTS0VAVO4ZC0C5","","512","img/land3.png","75","512","2","0","3","1","1,0,0,0.25,0.5,0.25,0.25,0.25,0.5","0,1,0,0.5,0.25,0.25,0.25,0.25,0.5","3","",""
"","html-keyboard-response","253","141393","0.0-253.0","3MRNMEIQW6SIA77RZKEW2J1IZYFDLX","ATIVK9XUANIUE","389A2A304O4TMZEXJTS0VAVO4ZC0C5","","null","<img src=""img/land3.png"" style=""width:200px;border:14px solid red;"">","null","","","","","","","","","",""
"","image-keyboard-response","254","142016","0.0-254.0","3MRNMEIQW6SIA77RZKEW2J1IZYFDLX","ATIVK9XUANIUE","389A2A304O4TMZEXJTS0VAVO4ZC0C5","","621","img/land1.png","75","623","2","1","1","1","1,0,0,0.25,0.5,0.25,0.25,0.25,0.5","0,1,0,0.5,0.25,0.25,0.25,0.25,0.5","3","",""
"","html-keyboard-response","255","142325","0.0-255.0","3MRNMEIQW6SIA77RZKEW2J1IZYFDLX","ATIVK9XUANIUE","389A2A304O4TMZEXJTS0VAVO4ZC0C5","","null","<img src=""img/land1.png"" style=""width:200px; border:14px solid green;"">","null","","","","","","","","","",""
"","image-keyboard-response","256","142675","0.0-256.0","3MRNMEIQW6SIA77RZKEW2J1IZYFDLX","ATIVK9XUANIUE","389A2A304O4TMZEXJTS0VAVO4ZC0C5","","348","img/land1.png","75","350","2","1","1","1","1,0,0,0.25,0.5,0.25,0.25,0.25,0.5","0,1,0,0.5,0.25,0.25,0.25,0.25,0.5","3","",""
"","html-keyboard-response","257","142988","0.0-257.0","3MRNMEIQW6SIA77RZKEW2J1IZYFDLX","ATIVK9XUANIUE","389A2A304O4TMZEXJTS0VAVO4ZC0C5","","null","<img src=""img/land1.png"" style=""width:200px; border:14px solid green;"">","null","","","","","","","","","",""
"","image-keyboard-response","258","143395","0.0-258.0","3MRNMEIQW6SIA77RZKEW2J1IZYFDLX","ATIVK9XUANIUE","389A2A304O4TMZEXJTS0VAVO4ZC0C5","","405","img/land1.png","75","405","2","1","1","1","1,0,0,0.25,0.5,0.25,0.25,0.25,0.5","0,1,0,0.5,0.25,0.25,0.25,0.25,0.5","3","",""
"","html-keyboard-response","259","143698","0.0-259.0","3MRNMEIQW6SIA77RZKEW2J1IZYFDLX","ATIVK9XUANIUE","389A2A304O4TMZEXJTS0VAVO4ZC0C5","","null","<img src=""img/land1.png"" style=""width:200px; border:14px solid green;"">","null","","","","","","","","","",""
"","image-keyboard-response","260","144432","0.0-260.0","3MRNMEIQW6SIA77RZKEW2J1IZYFDLX","ATIVK9XUANIUE","389A2A304O4TMZEXJTS0VAVO4ZC0C5","","732","img/land2.png","75","733","2","1","2","1","1,0,0,0.25,0.5,0.25,0.25,0.25,0.5","0,1,0,0.5,0.25,0.25,0.25,0.25,0.5","3","",""
"","html-keyboard-response","261","144738","0.0-261.0","3MRNMEIQW6SIA77RZKEW2J1IZYFDLX","ATIVK9XUANIUE","389A2A304O4TMZEXJTS0VAVO4ZC0C5","","null","<img src=""img/land2.png"" style=""width:200px; border:14px solid green;"">","null","","","","","","","","","",""
"","image-keyboard-response","262","145361","0.0-262.0","3MRNMEIQW6SIA77RZKEW2J1IZYFDLX","ATIVK9XUANIUE","389A2A304O4TMZEXJTS0VAVO4ZC0C5","","623","img/land1.png","75","623","2","1","1","1","1,0,0,0.25,0.5,0.25,0.25,0.25,0.5","0,1,0,0.5,0.25,0.25,0.25,0.25,0.5","3","",""
"","html-keyboard-response","263","145664","0.0-263.0","3MRNMEIQW6SIA77RZKEW2J1IZYFDLX","ATIVK9XUANIUE","389A2A304O4TMZEXJTS0VAVO4ZC0C5","","null","<img src=""img/land1.png"" style=""width:200px; border:14px solid green;"">","null","","","","","","","","","",""
"","image-keyboard-response","264","146620","0.0-264.0","3MRNMEIQW6SIA77RZKEW2J1IZYFDLX","ATIVK9XUANIUE","389A2A304O4TMZEXJTS0VAVO4ZC0C5","","956","img/land3.png","76","956","3","1","3","1","1,0,0,0.25,0.5,0.25,0.25,0.25,0.5","0,1,0,0.5,0.25,0.25,0.25,0.25,0.5","3","",""
"","html-keyboard-response","265","146936","0.0-265.0","3MRNMEIQW6SIA77RZKEW2J1IZYFDLX","ATIVK9XUANIUE","389A2A304O4TMZEXJTS0VAVO4ZC0C5","","null","<img src=""img/land3.png"" style=""width:200px; border:14px solid green;"">","null","","","","","","","","","",""
"","image-keyboard-response","266","147521","0.0-266.0","3MRNMEIQW6SIA77RZKEW2J1IZYFDLX","ATIVK9XUANIUE","389A2A304O4TMZEXJTS0VAVO4ZC0C5","","584","img/land1.png","75","584","2","1","1","1","1,0,0,0.25,0.5,0.25,0.25,0.25,0.5","0,1,0,0.5,0.25,0.25,0.25,0.25,0.5","3","",""
"","html-keyboard-response","267","147836","0.0-267.0","3MRNMEIQW6SIA77RZKEW2J1IZYFDLX","ATIVK9XUANIUE","389A2A304O4TMZEXJTS0VAVO4ZC0C5","","null","<img src=""img/land1.png"" style=""width:200px; border:14px solid green;"">","null","","","","","","","","","",""
"","image-keyboard-response","268","148225","0.0-268.0","3MRNMEIQW6SIA77RZKEW2J1IZYFDLX","ATIVK9XUANIUE","389A2A304O4TMZEXJTS0VAVO4ZC0C5","","388","img/land1.png","75","389","2","1","1","1","1,0,0,0.25,0.5,0.25,0.25,0.25,0.5","0,1,0,0.5,0.25,0.25,0.25,0.25,0.5","3","",""
"","html-keyboard-response","269","148531","0.0-269.0","3MRNMEIQW6SIA77RZKEW2J1IZYFDLX","ATIVK9XUANIUE","389A2A304O4TMZEXJTS0VAVO4ZC0C5","","null","<img src=""img/land1.png"" style=""width:200px; border:14px solid green;"">","null","","","","","","","","","",""
"","image-keyboard-response","270","148944","0.0-270.0","3MRNMEIQW6SIA77RZKEW2J1IZYFDLX","ATIVK9XUANIUE","389A2A304O4TMZEXJTS0VAVO4ZC0C5","","412","img/land1.png","75","413","2","1","1","1","1,0,0,0.25,0.5,0.25,0.25,0.25,0.5","0,1,0,0.5,0.25,0.25,0.25,0.25,0.5","3","",""
"","html-keyboard-response","271","149256","0.0-271.0","3MRNMEIQW6SIA77RZKEW2J1IZYFDLX","ATIVK9XUANIUE","389A2A304O4TMZEXJTS0VAVO4ZC0C5","","null","<img src=""img/land1.png"" style=""width:200px; border:14px solid green;"">","null","","","","","","","","","",""
"","image-keyboard-response","272","149696","0.0-272.0","3MRNMEIQW6SIA77RZKEW2J1IZYFDLX","ATIVK9XUANIUE","389A2A304O4TMZEXJTS0VAVO4ZC0C5","","440","img/land1.png","75","440","2","1","1","1","1,0,0,0.25,0.5,0.25,0.25,0.25,0.5","0,1,0,0.5,0.25,0.25,0.25,0.25,0.5","3","",""
"","html-keyboard-response","273","149998","0.0-273.0","3MRNMEIQW6SIA77RZKEW2J1IZYFDLX","ATIVK9XUANIUE","389A2A304O4TMZEXJTS0VAVO4ZC0C5","","null","<img src=""img/land1.png"" style=""width:200px; border:14px solid green;"">","null","","","","","","","","","",""
"","image-keyboard-response","274","150446","0.0-274.0","3MRNMEIQW6SIA77RZKEW2J1IZYFDLX","ATIVK9XUANIUE","389A2A304O4TMZEXJTS0VAVO4ZC0C5","","446","img/land1.png","75","447","2","1","1","1","1,0,0,0.25,0.5,0.25,0.25,0.25,0.5","0,1,0,0.5,0.25,0.25,0.25,0.25,0.5","3","",""
"","html-keyboard-response","275","150754","0.0-275.0","3MRNMEIQW6SIA77RZKEW2J1IZYFDLX","ATIVK9XUANIUE","389A2A304O4TMZEXJTS0VAVO4ZC0C5","","null","<img src=""img/land1.png"" style=""width:200px; border:14px solid green;"">","null","","","","","","","","","",""
"","image-keyboard-response","276","151300","0.0-276.0","3MRNMEIQW6SIA77RZKEW2J1IZYFDLX","ATIVK9XUANIUE","389A2A304O4TMZEXJTS0VAVO4ZC0C5","","546","img/land3.png","76","546","3","1","3","1","1,0,0,0.25,0.5,0.25,0.25,0.25,0.5","0,1,0,0.5,0.25,0.25,0.25,0.25,0.5","3","",""
"","html-keyboard-response","277","151604","0.0-277.0","3MRNMEIQW6SIA77RZKEW2J1IZYFDLX","ATIVK9XUANIUE","389A2A304O4TMZEXJTS0VAVO4ZC0C5","","null","<img src=""img/land3.png"" style=""width:200px; border:14px solid green;"">","null","","","","","","","","","",""
"","image-keyboard-response","278","152095","0.0-278.0","3MRNMEIQW6SIA77RZKEW2J1IZYFDLX","ATIVK9XUANIUE","389A2A304O4TMZEXJTS0VAVO4ZC0C5","","491","img/land1.png","75","491","2","1","1","1","1,0,0,0.25,0.5,0.25,0.25,0.25,0.5","0,1,0,0.5,0.25,0.25,0.25,0.25,0.5","3","",""
"","html-keyboard-response","279","152409","0.0-279.0","3MRNMEIQW6SIA77RZKEW2J1IZYFDLX","ATIVK9XUANIUE","389A2A304O4TMZEXJTS0VAVO4ZC0C5","","null","<img src=""img/land1.png"" style=""width:200px; border:14px solid green;"">","null","","","","","","","","","",""
"","image-keyboard-response","280","153356","0.0-280.0","3MRNMEIQW6SIA77RZKEW2J1IZYFDLX","ATIVK9XUANIUE","389A2A304O4TMZEXJTS0VAVO4ZC0C5","","946","img/land3.png","76","946","3","1","3","1","1,0,0,0.25,0.5,0.25,0.25,0.25,0.5","0,1,0,0.5,0.25,0.25,0.25,0.25,0.5","3","",""
"","html-keyboard-response","281","153656","0.0-281.0","3MRNMEIQW6SIA77RZKEW2J1IZYFDLX","ATIVK9XUANIUE","389A2A304O4TMZEXJTS0VAVO4ZC0C5","","null","<img src=""img/land3.png"" style=""width:200px; border:14px solid green;"">","null","","","","","","","","","",""
"","image-keyboard-response","282","154209","0.0-282.0","3MRNMEIQW6SIA77RZKEW2J1IZYFDLX","ATIVK9XUANIUE","389A2A304O4TMZEXJTS0VAVO4ZC0C5","","551","img/land1.png","75","552","2","1","1","1","1,0,0,0.25,0.5,0.25,0.25,0.25,0.5","0,1,0,0.5,0.25,0.25,0.25,0.25,0.5","3","",""
"","html-keyboard-response","283","154519","0.0-283.0","3MRNMEIQW6SIA77RZKEW2J1IZYFDLX","ATIVK9XUANIUE","389A2A304O4TMZEXJTS0VAVO4ZC0C5","","null","<img src=""img/land1.png"" style=""width:200px; border:14px solid green;"">","null","","","","","","","","","",""
"","image-keyboard-response","284","155185","0.0-284.0","3MRNMEIQW6SIA77RZKEW2J1IZYFDLX","ATIVK9XUANIUE","389A2A304O4TMZEXJTS0VAVO4ZC0C5","","666","img/land2.png","75","666","2","0","2","1","1,0,0,0.25,0.5,0.25,0.25,0.25,0.5","0,1,0,0.5,0.25,0.25,0.25,0.25,0.5","3","",""
"","html-keyboard-response","285","155496","0.0-285.0","3MRNMEIQW6SIA77RZKEW2J1IZYFDLX","ATIVK9XUANIUE","389A2A304O4TMZEXJTS0VAVO4ZC0C5","","null","<img src=""img/land2.png"" style=""width:200px;border:14px solid red;"">","null","","","","","","","","","",""
"","image-keyboard-response","286","156025","0.0-286.0","3MRNMEIQW6SIA77RZKEW2J1IZYFDLX","ATIVK9XUANIUE","389A2A304O4TMZEXJTS0VAVO4ZC0C5","","528","img/land1.png","75","530","2","1","1","1","1,0,0,0.25,0.5,0.25,0.25,0.25,0.5","0,1,0,0.5,0.25,0.25,0.25,0.25,0.5","3","",""
"","html-keyboard-response","287","156328","0.0-287.0","3MRNMEIQW6SIA77RZKEW2J1IZYFDLX","ATIVK9XUANIUE","389A2A304O4TMZEXJTS0VAVO4ZC0C5","","null","<img src=""img/land1.png"" style=""width:200px; border:14px solid green;"">","null","","","","","","","","","",""
"","image-keyboard-response","288","156895","0.0-288.0","3MRNMEIQW6SIA77RZKEW2J1IZYFDLX","ATIVK9XUANIUE","389A2A304O4TMZEXJTS0VAVO4ZC0C5","","567","img/land2.png","75","567","2","0","2","1","1,0,0,0.25,0.5,0.25,0.25,0.25,0.5","0,1,0,0.5,0.25,0.25,0.25,0.25,0.5","3","",""
"","html-keyboard-response","289","157198","0.0-289.0","3MRNMEIQW6SIA77RZKEW2J1IZYFDLX","ATIVK9XUANIUE","389A2A304O4TMZEXJTS0VAVO4ZC0C5","","null","<img src=""img/land2.png"" style=""width:200px;border:14px solid red;"">","null","","","","","","","","","",""
"","image-keyboard-response","290","157705","0.0-290.0","3MRNMEIQW6SIA77RZKEW2J1IZYFDLX","ATIVK9XUANIUE","389A2A304O4TMZEXJTS0VAVO4ZC0C5","","505","img/land2.png","75","506","2","1","2","1","1,0,0,0.25,0.5,0.25,0.25,0.25,0.5","0,1,0,0.5,0.25,0.25,0.25,0.25,0.5","3","",""
"","html-keyboard-response","291","158020","0.0-291.0","3MRNMEIQW6SIA77RZKEW2J1IZYFDLX","ATIVK9XUANIUE","389A2A304O4TMZEXJTS0VAVO4ZC0C5","","null","<img src=""img/land2.png"" style=""width:200px; border:14px solid green;"">","null","","","","","","","","","",""
"","image-keyboard-response","292","158666","0.0-292.0","3MRNMEIQW6SIA77RZKEW2J1IZYFDLX","ATIVK9XUANIUE","389A2A304O4TMZEXJTS0VAVO4ZC0C5","","645","img/land1.png","75","646","2","1","1","1","1,0,0,0.25,0.5,0.25,0.25,0.25,0.5","0,1,0,0.5,0.25,0.25,0.25,0.25,0.5","3","",""
"","html-keyboard-response","293","158980","0.0-293.0","3MRNMEIQW6SIA77RZKEW2J1IZYFDLX","ATIVK9XUANIUE","389A2A304O4TMZEXJTS0VAVO4ZC0C5","","null","<img src=""img/land1.png"" style=""width:200px; border:14px solid green;"">","null","","","","","","","","","",""
"","image-keyboard-response","294","159880","0.0-294.0","3MRNMEIQW6SIA77RZKEW2J1IZYFDLX","ATIVK9XUANIUE","389A2A304O4TMZEXJTS0VAVO4ZC0C5","","899","img/land2.png","75","900","2","1","2","1","1,0,0,0.25,0.5,0.25,0.25,0.25,0.5","0,1,0,0.5,0.25,0.25,0.25,0.25,0.5","3","",""
"","html-keyboard-response","295","160186","0.0-295.0","3MRNMEIQW6SIA77RZKEW2J1IZYFDLX","ATIVK9XUANIUE","389A2A304O4TMZEXJTS0VAVO4ZC0C5","","null","<img src=""img/land2.png"" style=""width:200px; border:14px solid green;"">","null","","","","","","","","","",""
"","image-keyboard-response","296","160765","0.0-296.0","3MRNMEIQW6SIA77RZKEW2J1IZYFDLX","ATIVK9XUANIUE","389A2A304O4TMZEXJTS0VAVO4ZC0C5","","580","img/land1.png","75","580","2","1","1","1","1,0,0,0.25,0.5,0.25,0.25,0.25,0.5","0,1,0,0.5,0.25,0.25,0.25,0.25,0.5","3","",""
"","html-keyboard-response","297","161072","0.0-297.0","3MRNMEIQW6SIA77RZKEW2J1IZYFDLX","ATIVK9XUANIUE","389A2A304O4TMZEXJTS0VAVO4ZC0C5","","null","<img src=""img/land1.png"" style=""width:200px; border:14px solid green;"">","null","","","","","","","","","",""
"","image-keyboard-response","298","161620","0.0-298.0","3MRNMEIQW6SIA77RZKEW2J1IZYFDLX","ATIVK9XUANIUE","389A2A304O4TMZEXJTS0VAVO4ZC0C5","","548","img/land1.png","75","548","2","1","1","1","1,0,0,0.25,0.5,0.25,0.25,0.25,0.5","0,1,0,0.5,0.25,0.25,0.25,0.25,0.5","3","",""
"","html-keyboard-response","299","161929","0.0-299.0","3MRNMEIQW6SIA77RZKEW2J1IZYFDLX","ATIVK9XUANIUE","389A2A304O4TMZEXJTS0VAVO4ZC0C5","","null","<img src=""img/land1.png"" style=""width:200px; border:14px solid green;"">","null","","","","","","","","","",""
"","image-keyboard-response","300","162401","0.0-300.0","3MRNMEIQW6SIA77RZKEW2J1IZYFDLX","ATIVK9XUANIUE","389A2A304O4TMZEXJTS0VAVO4ZC0C5","","471","img/land1.png","75","471","2","1","1","1","1,0,0,0.25,0.5,0.25,0.25,0.25,0.5","0,1,0,0.5,0.25,0.25,0.25,0.25,0.5","3","",""
"","html-keyboard-response","301","162711","0.0-301.0","3MRNMEIQW6SIA77RZKEW2J1IZYFDLX","ATIVK9XUANIUE","389A2A304O4TMZEXJTS0VAVO4ZC0C5","","null","<img src=""img/land1.png"" style=""width:200px; border:14px solid green;"">","null","","","","","","","","","",""
"","html-keyboard-response","302","168921","0.0-302.0","3MRNMEIQW6SIA77RZKEW2J1IZYFDLX","ATIVK9XUANIUE","389A2A304O4TMZEXJTS0VAVO4ZC0C5","","","","","","","","","","","","","",""
"","image-keyboard-response","303","169803","0.0-303.0","3MRNMEIQW6SIA77RZKEW2J1IZYFDLX","ATIVK9XUANIUE","389A2A304O4TMZEXJTS0VAVO4ZC0C5","","880","img/land5.png","75","883","2","0","2","2","1,0,0,0.25,0.5,0.25,0.25,0.25,0.5","0,1,0,0.5,0.25,0.25,0.25,0.25,0.5","3","",""
"","html-keyboard-response","304","170116","0.0-304.0","3MRNMEIQW6SIA77RZKEW2J1IZYFDLX","ATIVK9XUANIUE","389A2A304O4TMZEXJTS0VAVO4ZC0C5","","null","<img src=""img/land5.png"" style=""width:200px;border:14px solid red;"">","null","","","","","","","","","",""
"","image-keyboard-response","305","170755","0.0-305.0","3MRNMEIQW6SIA77RZKEW2J1IZYFDLX","ATIVK9XUANIUE","389A2A304O4TMZEXJTS0VAVO4ZC0C5","","637","img/land6.png","75","638","2","0","3","2","1,0,0,0.25,0.5,0.25,0.25,0.25,0.5","0,1,0,0.5,0.25,0.25,0.25,0.25,0.5","3","",""
"","html-keyboard-response","306","171063","0.0-306.0","3MRNMEIQW6SIA77RZKEW2J1IZYFDLX","ATIVK9XUANIUE","389A2A304O4TMZEXJTS0VAVO4ZC0C5","","null","<img src=""img/land6.png"" style=""width:200px;border:14px solid red;"">","null","","","","","","","","","",""
"","image-keyboard-response","307","171761","0.0-307.0","3MRNMEIQW6SIA77RZKEW2J1IZYFDLX","ATIVK9XUANIUE","389A2A304O4TMZEXJTS0VAVO4ZC0C5","","697","img/land6.png","76","698","3","0","3","2","1,0,0,0.25,0.5,0.25,0.25,0.25,0.5","0,1,0,0.5,0.25,0.25,0.25,0.25,0.5","3","",""
"","html-keyboard-response","308","172070","0.0-308.0","3MRNMEIQW6SIA77RZKEW2J1IZYFDLX","ATIVK9XUANIUE","389A2A304O4TMZEXJTS0VAVO4ZC0C5","","null","<img src=""img/land6.png"" style=""width:200px;border:14px solid red;"">","null","","","","","","","","","",""
"","image-keyboard-response","309","172751","0.0-309.0","3MRNMEIQW6SIA77RZKEW2J1IZYFDLX","ATIVK9XUANIUE","389A2A304O4TMZEXJTS0VAVO4ZC0C5","","681","img/land5.png","76","683","3","0","2","2","1,0,0,0.25,0.5,0.25,0.25,0.25,0.5","0,1,0,0.5,0.25,0.25,0.25,0.25,0.5","3","",""
"","html-keyboard-response","310","173053","0.0-310.0","3MRNMEIQW6SIA77RZKEW2J1IZYFDLX","ATIVK9XUANIUE","389A2A304O4TMZEXJTS0VAVO4ZC0C5","","null","<img src=""img/land5.png"" style=""width:200px;border:14px solid red;"">","null","","","","","","","","","",""
"","image-keyboard-response","311","173801","0.0-311.0","3MRNMEIQW6SIA77RZKEW2J1IZYFDLX","ATIVK9XUANIUE","389A2A304O4TMZEXJTS0VAVO4ZC0C5","","748","img/land6.png","74","749","1","1","3","2","1,0,0,0.25,0.5,0.25,0.25,0.25,0.5","0,1,0,0.5,0.25,0.25,0.25,0.25,0.5","3","",""
"","html-keyboard-response","312","174107","0.0-312.0","3MRNMEIQW6SIA77RZKEW2J1IZYFDLX","ATIVK9XUANIUE","389A2A304O4TMZEXJTS0VAVO4ZC0C5","","null","<img src=""img/land6.png"" style=""width:200px; border:14px solid green;"">","null","","","","","","","","","",""
"","image-keyboard-response","313","174970","0.0-313.0","3MRNMEIQW6SIA77RZKEW2J1IZYFDLX","ATIVK9XUANIUE","389A2A304O4TMZEXJTS0VAVO4ZC0C5","","863","img/land4.png","74","863","1","0","1","2","1,0,0,0.25,0.5,0.25,0.25,0.25,0.5","0,1,0,0.5,0.25,0.25,0.25,0.25,0.5","3","",""
"","html-keyboard-response","314","175278","0.0-314.0","3MRNMEIQW6SIA77RZKEW2J1IZYFDLX","ATIVK9XUANIUE","389A2A304O4TMZEXJTS0VAVO4ZC0C5","","null","<img src=""img/land4.png"" style=""width:200px;border:14px solid red;"">","null","","","","","","","","","",""
"","image-keyboard-response","315","176245","0.0-315.0","3MRNMEIQW6SIA77RZKEW2J1IZYFDLX","ATIVK9XUANIUE","389A2A304O4TMZEXJTS0VAVO4ZC0C5","","967","img/land5.png","75","967","2","0","2","2","1,0,0,0.25,0.5,0.25,0.25,0.25,0.5","0,1,0,0.5,0.25,0.25,0.25,0.25,0.5","3","",""
"","html-keyboard-response","316","176553","0.0-316.0","3MRNMEIQW6SIA77RZKEW2J1IZYFDLX","ATIVK9XUANIUE","389A2A304O4TMZEXJTS0VAVO4ZC0C5","","null","<img src=""img/land5.png"" style=""width:200px;border:14px solid red;"">","null","","","","","","","","","",""
"","image-keyboard-response","317","177325","0.0-317.0","3MRNMEIQW6SIA77RZKEW2J1IZYFDLX","ATIVK9XUANIUE","389A2A304O4TMZEXJTS0VAVO4ZC0C5","","772","img/land6.png","74","772","1","0","3","2","1,0,0,0.25,0.5,0.25,0.25,0.25,0.5","0,1,0,0.5,0.25,0.25,0.25,0.25,0.5","3","",""
"","html-keyboard-response","318","177628","0.0-318.0","3MRNMEIQW6SIA77RZKEW2J1IZYFDLX","ATIVK9XUANIUE","389A2A304O4TMZEXJTS0VAVO4ZC0C5","","null","<img src=""img/land6.png"" style=""width:200px;border:14px solid red;"">","null","","","","","","","","","",""
"","image-keyboard-response","319","178045","0.0-319.0","3MRNMEIQW6SIA77RZKEW2J1IZYFDLX","ATIVK9XUANIUE","389A2A304O4TMZEXJTS0VAVO4ZC0C5","","415","img/land6.png","74","417","1","1","3","2","1,0,0,0.25,0.5,0.25,0.25,0.25,0.5","0,1,0,0.5,0.25,0.25,0.25,0.25,0.5","3","",""
"","html-keyboard-response","320","178354","0.0-320.0","3MRNMEIQW6SIA77RZKEW2J1IZYFDLX","ATIVK9XUANIUE","389A2A304O4TMZEXJTS0VAVO4ZC0C5","","null","<img src=""img/land6.png"" style=""width:200px; border:14px solid green;"">","null","","","","","","","","","",""
"","image-keyboard-response","321","179110","0.0-321.0","3MRNMEIQW6SIA77RZKEW2J1IZYFDLX","ATIVK9XUANIUE","389A2A304O4TMZEXJTS0VAVO4ZC0C5","","756","img/land5.png","74","756","1","1","2","2","1,0,0,0.25,0.5,0.25,0.25,0.25,0.5","0,1,0,0.5,0.25,0.25,0.25,0.25,0.5","3","",""
"","html-keyboard-response","322","179413","0.0-322.0","3MRNMEIQW6SIA77RZKEW2J1IZYFDLX","ATIVK9XUANIUE","389A2A304O4TMZEXJTS0VAVO4ZC0C5","","null","<img src=""img/land5.png"" style=""width:200px; border:14px solid green;"">","null","","","","","","","","","",""
"","image-keyboard-response","323","180221","0.0-323.0","3MRNMEIQW6SIA77RZKEW2J1IZYFDLX","ATIVK9XUANIUE","389A2A304O4TMZEXJTS0VAVO4ZC0C5","","806","img/land4.png","74","806","1","0","1","2","1,0,0,0.25,0.5,0.25,0.25,0.25,0.5","0,1,0,0.5,0.25,0.25,0.25,0.25,0.5","3","",""
"","html-keyboard-response","324","180535","0.0-324.0","3MRNMEIQW6SIA77RZKEW2J1IZYFDLX","ATIVK9XUANIUE","389A2A304O4TMZEXJTS0VAVO4ZC0C5","","null","<img src=""img/land4.png"" style=""width:200px;border:14px solid red;"">","null","","","","","","","","","",""
"","image-keyboard-response","325","181046","0.0-325.0","3MRNMEIQW6SIA77RZKEW2J1IZYFDLX","ATIVK9XUANIUE","389A2A304O4TMZEXJTS0VAVO4ZC0C5","","510","img/land4.png","76","511","3","0","1","2","1,0,0,0.25,0.5,0.25,0.25,0.25,0.5","0,1,0,0.5,0.25,0.25,0.25,0.25,0.5","3","",""
"","html-keyboard-response","326","181356","0.0-326.0","3MRNMEIQW6SIA77RZKEW2J1IZYFDLX","ATIVK9XUANIUE","389A2A304O4TMZEXJTS0VAVO4ZC0C5","","null","<img src=""img/land4.png"" style=""width:200px;border:14px solid red;"">","null","","","","","","","","","",""
"","image-keyboard-response","327","182066","0.0-327.0","3MRNMEIQW6SIA77RZKEW2J1IZYFDLX","ATIVK9XUANIUE","389A2A304O4TMZEXJTS0VAVO4ZC0C5","","708","img/land5.png","74","709","1","0","2","2","1,0,0,0.25,0.5,0.25,0.25,0.25,0.5","0,1,0,0.5,0.25,0.25,0.25,0.25,0.5","3","",""
"","html-keyboard-response","328","182379","0.0-328.0","3MRNMEIQW6SIA77RZKEW2J1IZYFDLX","ATIVK9XUANIUE","389A2A304O4TMZEXJTS0VAVO4ZC0C5","","null","<img src=""img/land5.png"" style=""width:200px;border:14px solid red;"">","null","","","","","","","","","",""
"","image-keyboard-response","329","183175","0.0-329.0","3MRNMEIQW6SIA77RZKEW2J1IZYFDLX","ATIVK9XUANIUE","389A2A304O4TMZEXJTS0VAVO4ZC0C5","","795","img/land6.png","74","796","1","0","3","2","1,0,0,0.25,0.5,0.25,0.25,0.25,0.5","0,1,0,0.5,0.25,0.25,0.25,0.25,0.5","3","",""
"","html-keyboard-response","330","183483","0.0-330.0","3MRNMEIQW6SIA77RZKEW2J1IZYFDLX","ATIVK9XUANIUE","389A2A304O4TMZEXJTS0VAVO4ZC0C5","","null","<img src=""img/land6.png"" style=""width:200px;border:14px solid red;"">","null","","","","","","","","","",""
"","image-keyboard-response","331","183835","0.0-331.0","3MRNMEIQW6SIA77RZKEW2J1IZYFDLX","ATIVK9XUANIUE","389A2A304O4TMZEXJTS0VAVO4ZC0C5","","351","img/land5.png","74","352","1","0","2","2","1,0,0,0.25,0.5,0.25,0.25,0.25,0.5","0,1,0,0.5,0.25,0.25,0.25,0.25,0.5","3","",""
"","html-keyboard-response","332","184147","0.0-332.0","3MRNMEIQW6SIA77RZKEW2J1IZYFDLX","ATIVK9XUANIUE","389A2A304O4TMZEXJTS0VAVO4ZC0C5","","null","<img src=""img/land5.png"" style=""width:200px;border:14px solid red;"">","null","","","","","","","","","",""
"","image-keyboard-response","333","184706","0.0-333.0","3MRNMEIQW6SIA77RZKEW2J1IZYFDLX","ATIVK9XUANIUE","389A2A304O4TMZEXJTS0VAVO4ZC0C5","","558","img/land6.png","74","559","1","1","3","2","1,0,0,0.25,0.5,0.25,0.25,0.25,0.5","0,1,0,0.5,0.25,0.25,0.25,0.25,0.5","3","",""
"","html-keyboard-response","334","185011","0.0-334.0","3MRNMEIQW6SIA77RZKEW2J1IZYFDLX","ATIVK9XUANIUE","389A2A304O4TMZEXJTS0VAVO4ZC0C5","","null","<img src=""img/land6.png"" style=""width:200px; border:14px solid green;"">","null","","","","","","","","","",""
"","image-keyboard-response","335","185801","0.0-335.0","3MRNMEIQW6SIA77RZKEW2J1IZYFDLX","ATIVK9XUANIUE","389A2A304O4TMZEXJTS0VAVO4ZC0C5","","788","img/land4.png","74","788","1","0","1","2","1,0,0,0.25,0.5,0.25,0.25,0.25,0.5","0,1,0,0.5,0.25,0.25,0.25,0.25,0.5","3","",""
"","html-keyboard-response","336","186105","0.0-336.0","3MRNMEIQW6SIA77RZKEW2J1IZYFDLX","ATIVK9XUANIUE","389A2A304O4TMZEXJTS0VAVO4ZC0C5","","null","<img src=""img/land4.png"" style=""width:200px;border:14px solid red;"">","null","","","","","","","","","",""
"","image-keyboard-response","337","186701","0.0-337.0","3MRNMEIQW6SIA77RZKEW2J1IZYFDLX","ATIVK9XUANIUE","389A2A304O4TMZEXJTS0VAVO4ZC0C5","","596","img/land5.png","75","596","2","0","2","2","1,0,0,0.25,0.5,0.25,0.25,0.25,0.5","0,1,0,0.5,0.25,0.25,0.25,0.25,0.5","3","",""
"","html-keyboard-response","338","187016","0.0-338.0","3MRNMEIQW6SIA77RZKEW2J1IZYFDLX","ATIVK9XUANIUE","389A2A304O4TMZEXJTS0VAVO4ZC0C5","","null","<img src=""img/land5.png"" style=""width:200px;border:14px solid red;"">","null","","","","","","","","","",""
"","image-keyboard-response","339","187571","0.0-339.0","3MRNMEIQW6SIA77RZKEW2J1IZYFDLX","ATIVK9XUANIUE","389A2A304O4TMZEXJTS0VAVO4ZC0C5","","555","img/land6.png","76","555","3","0","3","2","1,0,0,0.25,0.5,0.25,0.25,0.25,0.5","0,1,0,0.5,0.25,0.25,0.25,0.25,0.5","3","",""
"","html-keyboard-response","340","187881","0.0-340.0","3MRNMEIQW6SIA77RZKEW2J1IZYFDLX","ATIVK9XUANIUE","389A2A304O4TMZEXJTS0VAVO4ZC0C5","","null","<img src=""img/land6.png"" style=""width:200px;border:14px solid red;"">","null","","","","","","","","","",""
"","image-keyboard-response","341","188456","0.0-341.0","3MRNMEIQW6SIA77RZKEW2J1IZYFDLX","ATIVK9XUANIUE","389A2A304O4TMZEXJTS0VAVO4ZC0C5","","575","img/land5.png","76","576","3","0","2","2","1,0,0,0.25,0.5,0.25,0.25,0.25,0.5","0,1,0,0.5,0.25,0.25,0.25,0.25,0.5","3","",""
"","html-keyboard-response","342","188763","0.0-342.0","3MRNMEIQW6SIA77RZKEW2J1IZYFDLX","ATIVK9XUANIUE","389A2A304O4TMZEXJTS0VAVO4ZC0C5","","null","<img src=""img/land5.png"" style=""width:200px;border:14px solid red;"">","null","","","","","","","","","",""
"","image-keyboard-response","343","189130","0.0-343.0","3MRNMEIQW6SIA77RZKEW2J1IZYFDLX","ATIVK9XUANIUE","389A2A304O4TMZEXJTS0VAVO4ZC0C5","","366","img/land5.png","76","366","3","0","2","2","1,0,0,0.25,0.5,0.25,0.25,0.25,0.5","0,1,0,0.5,0.25,0.25,0.25,0.25,0.5","3","",""
"","html-keyboard-response","344","189441","0.0-344.0","3MRNMEIQW6SIA77RZKEW2J1IZYFDLX","ATIVK9XUANIUE","389A2A304O4TMZEXJTS0VAVO4ZC0C5","","null","<img src=""img/land5.png"" style=""width:200px;border:14px solid red;"">","null","","","","","","","","","",""
"","image-keyboard-response","345","189790","0.0-345.0","3MRNMEIQW6SIA77RZKEW2J1IZYFDLX","ATIVK9XUANIUE","389A2A304O4TMZEXJTS0VAVO4ZC0C5","","348","img/land5.png","76","348","3","0","2","2","1,0,0,0.25,0.5,0.25,0.25,0.25,0.5","0,1,0,0.5,0.25,0.25,0.25,0.25,0.5","3","",""
"","html-keyboard-response","346","190102","0.0-346.0","3MRNMEIQW6SIA77RZKEW2J1IZYFDLX","ATIVK9XUANIUE","389A2A304O4TMZEXJTS0VAVO4ZC0C5","","null","<img src=""img/land5.png"" style=""width:200px;border:14px solid red;"">","null","","","","","","","","","",""
"","image-keyboard-response","347","190315","0.0-347.0","3MRNMEIQW6SIA77RZKEW2J1IZYFDLX","ATIVK9XUANIUE","389A2A304O4TMZEXJTS0VAVO4ZC0C5","","213","img/land4.png","75","214","2","1","1","2","1,0,0,0.25,0.5,0.25,0.25,0.25,0.5","0,1,0,0.5,0.25,0.25,0.25,0.25,0.5","3","",""
"","html-keyboard-response","348","190627","0.0-348.0","3MRNMEIQW6SIA77RZKEW2J1IZYFDLX","ATIVK9XUANIUE","389A2A304O4TMZEXJTS0VAVO4ZC0C5","","null","<img src=""img/land4.png"" style=""width:200px; border:14px solid green;"">","null","","","","","","","","","",""
"","image-keyboard-response","349","191515","0.0-349.0","3MRNMEIQW6SIA77RZKEW2J1IZYFDLX","ATIVK9XUANIUE","389A2A304O4TMZEXJTS0VAVO4ZC0C5","","886","img/land6.png","74","886","1","0","3","2","1,0,0,0.25,0.5,0.25,0.25,0.25,0.5","0,1,0,0.5,0.25,0.25,0.25,0.25,0.5","3","",""
"","html-keyboard-response","350","191821","0.0-350.0","3MRNMEIQW6SIA77RZKEW2J1IZYFDLX","ATIVK9XUANIUE","389A2A304O4TMZEXJTS0VAVO4ZC0C5","","null","<img src=""img/land6.png"" style=""width:200px;border:14px solid red;"">","null","","","","","","","","","",""
"","image-keyboard-response","351","192506","0.0-351.0","3MRNMEIQW6SIA77RZKEW2J1IZYFDLX","ATIVK9XUANIUE","389A2A304O4TMZEXJTS0VAVO4ZC0C5","","683","img/land4.png","75","685","2","1","1","2","1,0,0,0.25,0.5,0.25,0.25,0.25,0.5","0,1,0,0.5,0.25,0.25,0.25,0.25,0.5","3","",""
"","html-keyboard-response","352","192814","0.0-352.0","3MRNMEIQW6SIA77RZKEW2J1IZYFDLX","ATIVK9XUANIUE","389A2A304O4TMZEXJTS0VAVO4ZC0C5","","null","<img src=""img/land4.png"" style=""width:200px; border:14px solid green;"">","null","","","","","","","","","",""
"","image-keyboard-response","353","193361","0.0-353.0","3MRNMEIQW6SIA77RZKEW2J1IZYFDLX","ATIVK9XUANIUE","389A2A304O4TMZEXJTS0VAVO4ZC0C5","","545","img/land4.png","75","546","2","1","1","2","1,0,0,0.25,0.5,0.25,0.25,0.25,0.5","0,1,0,0.5,0.25,0.25,0.25,0.25,0.5","3","",""
"","html-keyboard-response","354","193661","0.0-354.0","3MRNMEIQW6SIA77RZKEW2J1IZYFDLX","ATIVK9XUANIUE","389A2A304O4TMZEXJTS0VAVO4ZC0C5","","null","<img src=""img/land4.png"" style=""width:200px; border:14px solid green;"">","null","","","","","","","","","",""
"","image-keyboard-response","355","194650","0.0-355.0","3MRNMEIQW6SIA77RZKEW2J1IZYFDLX","ATIVK9XUANIUE","389A2A304O4TMZEXJTS0VAVO4ZC0C5","","988","img/land5.png","75","988","2","0","2","2","1,0,0,0.25,0.5,0.25,0.25,0.25,0.5","0,1,0,0.5,0.25,0.25,0.25,0.25,0.5","3","",""
"","html-keyboard-response","356","194957","0.0-356.0","3MRNMEIQW6SIA77RZKEW2J1IZYFDLX","ATIVK9XUANIUE","389A2A304O4TMZEXJTS0VAVO4ZC0C5","","null","<img src=""img/land5.png"" style=""width:200px;border:14px solid red;"">","null","","","","","","","","","",""
"","image-keyboard-response","357","195595","0.0-357.0","3MRNMEIQW6SIA77RZKEW2J1IZYFDLX","ATIVK9XUANIUE","389A2A304O4TMZEXJTS0VAVO4ZC0C5","","638","img/land5.png","75","638","2","0","2","2","1,0,0,0.25,0.5,0.25,0.25,0.25,0.5","0,1,0,0.5,0.25,0.25,0.25,0.25,0.5","3","",""
"","html-keyboard-response","358","195904","0.0-358.0","3MRNMEIQW6SIA77RZKEW2J1IZYFDLX","ATIVK9XUANIUE","389A2A304O4TMZEXJTS0VAVO4ZC0C5","","null","<img src=""img/land5.png"" style=""width:200px;border:14px solid red;"">","null","","","","","","","","","",""
"","image-keyboard-response","359","196121","0.0-359.0","3MRNMEIQW6SIA77RZKEW2J1IZYFDLX","ATIVK9XUANIUE","389A2A304O4TMZEXJTS0VAVO4ZC0C5","","217","img/land5.png","74","217","1","0","2","2","1,0,0,0.25,0.5,0.25,0.25,0.25,0.5","0,1,0,0.5,0.25,0.25,0.25,0.25,0.5","3","",""
"","html-keyboard-response","360","196425","0.0-360.0","3MRNMEIQW6SIA77RZKEW2J1IZYFDLX","ATIVK9XUANIUE","389A2A304O4TMZEXJTS0VAVO4ZC0C5","","null","<img src=""img/land5.png"" style=""width:200px;border:14px solid red;"">","null","","","","","","","","","",""
"","image-keyboard-response","361","196690","0.0-361.0","3MRNMEIQW6SIA77RZKEW2J1IZYFDLX","ATIVK9XUANIUE","389A2A304O4TMZEXJTS0VAVO4ZC0C5","","264","img/land6.png","76","265","3","1","3","2","1,0,0,0.25,0.5,0.25,0.25,0.25,0.5","0,1,0,0.5,0.25,0.25,0.25,0.25,0.5","3","",""
"","html-keyboard-response","362","196996","0.0-362.0","3MRNMEIQW6SIA77RZKEW2J1IZYFDLX","ATIVK9XUANIUE","389A2A304O4TMZEXJTS0VAVO4ZC0C5","","null","<img src=""img/land6.png"" style=""width:200px; border:14px solid green;"">","null","","","","","","","","","",""
"","image-keyboard-response","363","198070","0.0-363.0","3MRNMEIQW6SIA77RZKEW2J1IZYFDLX","ATIVK9XUANIUE","389A2A304O4TMZEXJTS0VAVO4ZC0C5","","1074","img/land4.png","75","1075","2","1","1","2","1,0,0,0.25,0.5,0.25,0.25,0.25,0.5","0,1,0,0.5,0.25,0.25,0.25,0.25,0.5","3","",""
"","html-keyboard-response","364","198373","0.0-364.0","3MRNMEIQW6SIA77RZKEW2J1IZYFDLX","ATIVK9XUANIUE","389A2A304O4TMZEXJTS0VAVO4ZC0C5","","null","<img src=""img/land4.png"" style=""width:200px; border:14px solid green;"">","null","","","","","","","","","",""
"","image-keyboard-response","365","199285","0.0-365.0","3MRNMEIQW6SIA77RZKEW2J1IZYFDLX","ATIVK9XUANIUE","389A2A304O4TMZEXJTS0VAVO4ZC0C5","","911","img/land5.png","75","913","2","0","2","2","1,0,0,0.25,0.5,0.25,0.25,0.25,0.5","0,1,0,0.5,0.25,0.25,0.25,0.25,0.5","3","",""
"","html-keyboard-response","366","199595","0.0-366.0","3MRNMEIQW6SIA77RZKEW2J1IZYFDLX","ATIVK9XUANIUE","389A2A304O4TMZEXJTS0VAVO4ZC0C5","","null","<img src=""img/land5.png"" style=""width:200px;border:14px solid red;"">","null","","","","","","","","","",""
"","image-keyboard-response","367","199690","0.0-367.0","3MRNMEIQW6SIA77RZKEW2J1IZYFDLX","ATIVK9XUANIUE","389A2A304O4TMZEXJTS0VAVO4ZC0C5","","94","img/land4.png","76","95","3","0","1","2","1,0,0,0.25,0.5,0.25,0.25,0.25,0.5","0,1,0,0.5,0.25,0.25,0.25,0.25,0.5","3","",""
"","html-keyboard-response","368","199999","0.0-368.0","3MRNMEIQW6SIA77RZKEW2J1IZYFDLX","ATIVK9XUANIUE","389A2A304O4TMZEXJTS0VAVO4ZC0C5","","null","<img src=""img/land4.png"" style=""width:200px;border:14px solid red;"">","null","","","","","","","","","",""
"","image-keyboard-response","369","200770","0.0-369.0","3MRNMEIQW6SIA77RZKEW2J1IZYFDLX","ATIVK9XUANIUE","389A2A304O4TMZEXJTS0VAVO4ZC0C5","","770","img/land6.png","75","770","2","0","3","2","1,0,0,0.25,0.5,0.25,0.25,0.25,0.5","0,1,0,0.5,0.25,0.25,0.25,0.25,0.5","3","",""
"","html-keyboard-response","370","201073","0.0-370.0","3MRNMEIQW6SIA77RZKEW2J1IZYFDLX","ATIVK9XUANIUE","389A2A304O4TMZEXJTS0VAVO4ZC0C5","","null","<img src=""img/land6.png"" style=""width:200px;border:14px solid red;"">","null","","","","","","","","","",""
"","image-keyboard-response","371","201865","0.0-371.0","3MRNMEIQW6SIA77RZKEW2J1IZYFDLX","ATIVK9XUANIUE","389A2A304O4TMZEXJTS0VAVO4ZC0C5","","791","img/land4.png","75","791","2","1","1","2","1,0,0,0.25,0.5,0.25,0.25,0.25,0.5","0,1,0,0.5,0.25,0.25,0.25,0.25,0.5","3","",""
"","html-keyboard-response","372","202166","0.0-372.0","3MRNMEIQW6SIA77RZKEW2J1IZYFDLX","ATIVK9XUANIUE","389A2A304O4TMZEXJTS0VAVO4ZC0C5","","null","<img src=""img/land4.png"" style=""width:200px; border:14px solid green;"">","null","","","","","","","","","",""
"","image-keyboard-response","373","202661","0.0-373.0","3MRNMEIQW6SIA77RZKEW2J1IZYFDLX","ATIVK9XUANIUE","389A2A304O4TMZEXJTS0VAVO4ZC0C5","","493","img/land4.png","75","495","2","1","1","2","1,0,0,0.25,0.5,0.25,0.25,0.25,0.5","0,1,0,0.5,0.25,0.25,0.25,0.25,0.5","3","",""
"","html-keyboard-response","374","202969","0.0-374.0","3MRNMEIQW6SIA77RZKEW2J1IZYFDLX","ATIVK9XUANIUE","389A2A304O4TMZEXJTS0VAVO4ZC0C5","","null","<img src=""img/land4.png"" style=""width:200px; border:14px solid green;"">","null","","","","","","","","","",""
