"success","trial_type","trial_index","time_elapsed","internal_node_id","assignmentID","mturkID","hitID","view_history","rt","stimulus","key_press","reactionTime","a","r","s","cond","reward_cond","reward_cond_actual","reward_matrix_idx","responses","question_order"
"true","fullscreen","0","8850","0.0-0.0","","","","","","","","","","","","","","","","",""
"","instructions","1","17988","0.0-1.0","","","","[{""page_index"":0,""viewing_time"":2541.899999856949},{""page_index"":1,""viewing_time"":691.1000001430511},{""page_index"":2,""viewing_time"":336},{""page_index"":3,""viewing_time"":880.0999999046326},{""page_index"":4,""viewing_time"":2638.0999999046326},{""page_index"":5,""viewing_time"":1286},{""page_index"":6,""viewing_time"":762.3000001907349}]","9136.199999809265","","","","","","","","","","","",""
"","image-keyboard-response","2","18519","0.0-2.0","","","","","529.2000000476837","img/land4.png","74","530.7000000476837","1","0","3","1","1,0.5,0.5,0.5,1,0.5,0.5,0.5,1","1,0.5,0.5,0.5,1,0.5,0.5,0.5,1","1","",""
"","html-keyboard-response","3","18829","0.0-3.0","","","","","null","<img src=""img/land4.png"" style=""width:200px;border:14px solid red;"">","null","","","","","","","","","",""
"","image-keyboard-response","4","18901","0.0-4.0","","","","","71.39999985694885","img/land4.png","75","72.10000014305115","2","1","3","1","1,0.5,0.5,0.5,1,0.5,0.5,0.5,1","1,0.5,0.5,0.5,1,0.5,0.5,0.5,1","1","",""
"","html-keyboard-response","5","19212","0.0-5.0","","","","","null","<img src=""img/land4.png"" style=""width:200px; border:14px solid green;"">","null","","","","","","","","","",""
"","image-keyboard-response","6","19328","0.0-6.0","","","","","115.5","img/land3.png","76","116.29999995231628","3","1","2","1","1,0.5,0.5,0.5,1,0.5,0.5,0.5,1","1,0.5,0.5,0.5,1,0.5,0.5,0.5,1","1","",""
"","html-keyboard-response","7","19644","0.0-7.0","","","","","null","<img src=""img/land3.png"" style=""width:200px; border:14px solid green;"">","null","","","","","","","","","",""
"","image-keyboard-response","8","19786","0.0-8.0","","","","","141.09999990463257","img/land5.png","76","142.09999990463257","3","0","1","1","1,0.5,0.5,0.5,1,0.5,0.5,0.5,1","1,0.5,0.5,0.5,1,0.5,0.5,0.5,1","1","",""
"","html-keyboard-response","9","20093","0.0-9.0","","","","","null","<img src=""img/land5.png"" style=""width:200px;border:14px solid red;"">","null","","","","","","","","","",""
"","image-keyboard-response","10","20161","0.0-10.0","","","","","67","img/land3.png","75","67.80000019073486","2","1","2","1","1,0.5,0.5,0.5,1,0.5,0.5,0.5,1","1,0.5,0.5,0.5,1,0.5,0.5,0.5,1","1","",""
"","html-keyboard-response","11","20466","0.0-11.0","","","","","null","<img src=""img/land3.png"" style=""width:200px; border:14px solid green;"">","null","","","","","","","","","",""
"","image-keyboard-response","12","20599","0.0-12.0","","","","","132","img/land4.png","75","133","2","1","3","1","1,0.5,0.5,0.5,1,0.5,0.5,0.5,1","1,0.5,0.5,0.5,1,0.5,0.5,0.5,1","1","",""
"","html-keyboard-response","13","20913","0.0-13.0","","","","","null","<img src=""img/land4.png"" style=""width:200px; border:14px solid green;"">","null","","","","","","","","","",""
"","image-keyboard-response","14","21036","0.0-14.0","","","","","122.20000004768372","img/land3.png","74","122.90000009536743","1","1","2","1","1,0.5,0.5,0.5,1,0.5,0.5,0.5,1","1,0.5,0.5,0.5,1,0.5,0.5,0.5,1","1","",""
"","html-keyboard-response","15","21350","0.0-15.0","","","","","null","<img src=""img/land3.png"" style=""width:200px; border:14px solid green;"">","null","","","","","","","","","",""
"","image-keyboard-response","16","21482","0.0-16.0","","","","","131.5","img/land4.png","74","132.20000004768372","1","1","3","1","1,0.5,0.5,0.5,1,0.5,0.5,0.5,1","1,0.5,0.5,0.5,1,0.5,0.5,0.5,1","1","",""
"","html-keyboard-response","17","21796","0.0-17.0","","","","","null","<img src=""img/land4.png"" style=""width:200px; border:14px solid green;"">","null","","","","","","","","","",""
"","image-keyboard-response","18","21983","0.0-18.0","","","","","186.5","img/land5.png","74","187.30000019073486","1","1","1","1","1,0.5,0.5,0.5,1,0.5,0.5,0.5,1","1,0.5,0.5,0.5,1,0.5,0.5,0.5,1","1","",""
"","html-keyboard-response","19","22298","0.0-19.0","","","","","null","<img src=""img/land5.png"" style=""width:200px; border:14px solid green;"">","null","","","","","","","","","",""
"","image-keyboard-response","20","22343","0.0-20.0","","","","","43.60000014305115","img/land5.png","75","44.700000047683716","2","1","1","1","1,0.5,0.5,0.5,1,0.5,0.5,0.5,1","1,0.5,0.5,0.5,1,0.5,0.5,0.5,1","1","",""
"","html-keyboard-response","21","22653","0.0-21.0","","","","","null","<img src=""img/land5.png"" style=""width:200px; border:14px solid green;"">","null","","","","","","","","","",""
"","image-keyboard-response","22","22675","0.0-22.0","","","","","21.200000047683716","img/land3.png","75","21.800000190734863","2","1","2","1","1,0.5,0.5,0.5,1,0.5,0.5,0.5,1","1,0.5,0.5,0.5,1,0.5,0.5,0.5,1","1","",""
"","html-keyboard-response","23","22978","0.0-23.0","","","","","null","<img src=""img/land3.png"" style=""width:200px; border:14px solid green;"">","null","","","","","","","","","",""
"","image-keyboard-response","24","23106","0.0-24.0","","","","","127.10000014305115","img/land4.png","74","127.90000009536743","1","1","3","1","1,0.5,0.5,0.5,1,0.5,0.5,0.5,1","1,0.5,0.5,0.5,1,0.5,0.5,0.5,1","1","",""
"","html-keyboard-response","25","23412","0.0-25.0","","","","","null","<img src=""img/land4.png"" style=""width:200px; border:14px solid green;"">","null","","","","","","","","","",""
"","image-keyboard-response","26","23779","0.0-26.0","","","","","365.2999999523163","img/land3.png","74","366.09999990463257","1","1","2","1","1,0.5,0.5,0.5,1,0.5,0.5,0.5,1","1,0.5,0.5,0.5,1,0.5,0.5,0.5,1","1","",""
"","html-keyboard-response","27","24092","0.0-27.0","","","","","null","<img src=""img/land3.png"" style=""width:200px; border:14px solid green;"">","null","","","","","","","","","",""
"","image-keyboard-response","28","24157","0.0-28.0","","","","","64.20000004768372","img/land3.png","75","65.09999990463257","2","1","2","1","1,0.5,0.5,0.5,1,0.5,0.5,0.5,1","1,0.5,0.5,0.5,1,0.5,0.5,0.5,1","1","",""
"","html-keyboard-response","29","24460","0.0-29.0","","","","","null","<img src=""img/land3.png"" style=""width:200px; border:14px solid green;"">","null","","","","","","","","","",""
"","image-keyboard-response","30","24933","0.0-30.0","","","","","471.90000009536743","img/land4.png","76","472.5","3","1","3","1","1,0.5,0.5,0.5,1,0.5,0.5,0.5,1","1,0.5,0.5,0.5,1,0.5,0.5,0.5,1","1","",""
"","html-keyboard-response","31","25236","0.0-31.0","","","","","null","<img src=""img/land4.png"" style=""width:200px; border:14px solid green;"">","null","","","","","","","","","",""
"","image-keyboard-response","32","25293","0.0-32.0","","","","","55.40000009536743","img/land5.png","74","56.40000009536743","1","1","1","1","1,0.5,0.5,0.5,1,0.5,0.5,0.5,1","1,0.5,0.5,0.5,1,0.5,0.5,0.5,1","1","",""
"","html-keyboard-response","33","25601","0.0-33.0","","","","","null","<img src=""img/land5.png"" style=""width:200px; border:14px solid green;"">","null","","","","","","","","","",""
"","image-keyboard-response","34","25705","0.0-34.0","","","","","103.70000004768372","img/land4.png","74","104.20000004768372","1","0","3","1","1,0.5,0.5,0.5,1,0.5,0.5,0.5,1","1,0.5,0.5,0.5,1,0.5,0.5,0.5,1","1","",""
"","html-keyboard-response","35","26017","0.0-35.0","","","","","null","<img src=""img/land4.png"" style=""width:200px;border:14px solid red;"">","null","","","","","","","","","",""
"","image-keyboard-response","36","26117","0.0-36.0","","","","","99.80000019073486","img/land5.png","75","100.40000009536743","2","1","1","1","1,0.5,0.5,0.5,1,0.5,0.5,0.5,1","1,0.5,0.5,0.5,1,0.5,0.5,0.5,1","1","",""
"","html-keyboard-response","37","26423","0.0-37.0","","","","","null","<img src=""img/land5.png"" style=""width:200px; border:14px solid green;"">","null","","","","","","","","","",""
"","image-keyboard-response","38","26527","0.0-38.0","","","","","102.10000014305115","img/land5.png","76","103.20000004768372","3","0","1","1","1,0.5,0.5,0.5,1,0.5,0.5,0.5,1","1,0.5,0.5,0.5,1,0.5,0.5,0.5,1","1","",""
"","html-keyboard-response","39","26839","0.0-39.0","","","","","null","<img src=""img/land5.png"" style=""width:200px;border:14px solid red;"">","null","","","","","","","","","",""
"","image-keyboard-response","40","26932","0.0-40.0","","","","","92.09999990463257","img/land5.png","74","92.70000004768372","1","1","1","1","1,0.5,0.5,0.5,1,0.5,0.5,0.5,1","1,0.5,0.5,0.5,1,0.5,0.5,0.5,1","1","",""
"","html-keyboard-response","41","27238","0.0-41.0","","","","","null","<img src=""img/land5.png"" style=""width:200px; border:14px solid green;"">","null","","","","","","","","","",""
"","image-keyboard-response","42","27334","0.0-42.0","","","","","94.09999990463257","img/land5.png","75","95","2","1","1","1","1,0.5,0.5,0.5,1,0.5,0.5,0.5,1","1,0.5,0.5,0.5,1,0.5,0.5,0.5,1","1","",""
"","html-keyboard-response","43","27637","0.0-43.0","","","","","null","<img src=""img/land5.png"" style=""width:200px; border:14px solid green;"">","null","","","","","","","","","",""
"","image-keyboard-response","44","27811","0.0-44.0","","","","","173.39999985694885","img/land3.png","74","174.20000004768372","1","1","2","1","1,0.5,0.5,0.5,1,0.5,0.5,0.5,1","1,0.5,0.5,0.5,1,0.5,0.5,0.5,1","1","",""
"","html-keyboard-response","45","28124","0.0-45.0","","","","","null","<img src=""img/land3.png"" style=""width:200px; border:14px solid green;"">","null","","","","","","","","","",""
"","image-keyboard-response","46","28275","0.0-46.0","","","","","150.39999985694885","img/land5.png","75","151.20000004768372","2","0","1","1","1,0.5,0.5,0.5,1,0.5,0.5,0.5,1","1,0.5,0.5,0.5,1,0.5,0.5,0.5,1","1","",""
"","html-keyboard-response","47","28588","0.0-47.0","","","","","null","<img src=""img/land5.png"" style=""width:200px;border:14px solid red;"">","null","","","","","","","","","",""
"","image-keyboard-response","48","28716","0.0-48.0","","","","","127.30000019073486","img/land5.png","76","128.19999980926514","3","1","1","1","1,0.5,0.5,0.5,1,0.5,0.5,0.5,1","1,0.5,0.5,0.5,1,0.5,0.5,0.5,1","1","",""
"","html-keyboard-response","49","29018","0.0-49.0","","","","","null","<img src=""img/land5.png"" style=""width:200px; border:14px solid green;"">","null","","","","","","","","","",""
"","image-keyboard-response","50","29101","0.0-50.0","","","","","81.5","img/land3.png","74","82.10000014305115","1","0","2","1","1,0.5,0.5,0.5,1,0.5,0.5,0.5,1","1,0.5,0.5,0.5,1,0.5,0.5,0.5,1","1","",""
"","html-keyboard-response","51","29407","0.0-51.0","","","","","null","<img src=""img/land3.png"" style=""width:200px;border:14px solid red;"">","null","","","","","","","","","",""
"","image-keyboard-response","52","29578","0.0-52.0","","","","","169.79999995231628","img/land4.png","75","170.60000014305115","2","1","3","1","1,0.5,0.5,0.5,1,0.5,0.5,0.5,1","1,0.5,0.5,0.5,1,0.5,0.5,0.5,1","1","",""
"","html-keyboard-response","53","29880","0.0-53.0","","","","","null","<img src=""img/land4.png"" style=""width:200px; border:14px solid green;"">","null","","","","","","","","","",""
"","image-keyboard-response","54","29974","0.0-54.0","","","","","93.20000004768372","img/land3.png","75","94","2","1","2","1","1,0.5,0.5,0.5,1,0.5,0.5,0.5,1","1,0.5,0.5,0.5,1,0.5,0.5,0.5,1","1","",""
"","html-keyboard-response","55","30279","0.0-55.0","","","","","null","<img src=""img/land3.png"" style=""width:200px; border:14px solid green;"">","null","","","","","","","","","",""
"","image-keyboard-response","56","30332","0.0-56.0","","","","","52.200000047683716","img/land5.png","76","53.09999990463257","3","0","1","1","1,0.5,0.5,0.5,1,0.5,0.5,0.5,1","1,0.5,0.5,0.5,1,0.5,0.5,0.5,1","1","",""
"","html-keyboard-response","57","30634","0.0-57.0","","","","","null","<img src=""img/land5.png"" style=""width:200px;border:14px solid red;"">","null","","","","","","","","","",""
"","image-keyboard-response","58","30760","0.0-58.0","","","","","124.60000014305115","img/land4.png","74","125.40000009536743","1","1","3","1","1,0.5,0.5,0.5,1,0.5,0.5,0.5,1","1,0.5,0.5,0.5,1,0.5,0.5,0.5,1","1","",""
"","html-keyboard-response","59","31062","0.0-59.0","","","","","null","<img src=""img/land4.png"" style=""width:200px; border:14px solid green;"">","null","","","","","","","","","",""
"","image-keyboard-response","60","31123","0.0-60.0","","","","","59.80000019073486","img/land5.png","74","60.5","1","1","1","1","1,0.5,0.5,0.5,1,0.5,0.5,0.5,1","1,0.5,0.5,0.5,1,0.5,0.5,0.5,1","1","",""
"","html-keyboard-response","61","31425","0.0-61.0","","","","","null","<img src=""img/land5.png"" style=""width:200px; border:14px solid green;"">","null","","","","","","","","","",""
"","image-keyboard-response","62","31482","0.0-62.0","","","","","56.40000009536743","img/land5.png","75","57.5","2","1","1","1","1,0.5,0.5,0.5,1,0.5,0.5,0.5,1","1,0.5,0.5,0.5,1,0.5,0.5,0.5,1","1","",""
"","html-keyboard-response","63","31785","0.0-63.0","","","","","null","<img src=""img/land5.png"" style=""width:200px; border:14px solid green;"">","null","","","","","","","","","",""
"","image-keyboard-response","64","31893","0.0-64.0","","","","","107.09999990463257","img/land3.png","75","108","2","1","2","1","1,0.5,0.5,0.5,1,0.5,0.5,0.5,1","1,0.5,0.5,0.5,1,0.5,0.5,0.5,1","1","",""
"","html-keyboard-response","65","32195","0.0-65.0","","","","","null","<img src=""img/land3.png"" style=""width:200px; border:14px solid green;"">","null","","","","","","","","","",""
"","image-keyboard-response","66","32218","0.0-66.0","","","","","21.799999952316284","img/land3.png","74","22.799999952316284","1","0","2","1","1,0.5,0.5,0.5,1,0.5,0.5,0.5,1","1,0.5,0.5,0.5,1,0.5,0.5,0.5,1","1","",""
"","html-keyboard-response","67","32521","0.0-67.0","","","","","null","<img src=""img/land3.png"" style=""width:200px;border:14px solid red;"">","null","","","","","","","","","",""
"","image-keyboard-response","68","32530","0.0-68.0","","","","","7.799999952316284","img/land4.png","74","8.599999904632568","1","0","3","1","1,0.5,0.5,0.5,1,0.5,0.5,0.5,1","1,0.5,0.5,0.5,1,0.5,0.5,0.5,1","1","",""
"","html-keyboard-response","69","32831","0.0-69.0","","","","","null","<img src=""img/land4.png"" style=""width:200px;border:14px solid red;"">","null","","","","","","","","","",""
"","image-keyboard-response","70","33103","0.0-70.0","","","","","271.80000019073486","img/land5.png","75","272.60000014305115","2","1","1","1","1,0.5,0.5,0.5,1,0.5,0.5,0.5,1","1,0.5,0.5,0.5,1,0.5,0.5,0.5,1","1","",""
"","html-keyboard-response","71","33405","0.0-71.0","","","","","null","<img src=""img/land5.png"" style=""width:200px; border:14px solid green;"">","null","","","","","","","","","",""
"","image-keyboard-response","72","33731","0.0-72.0","","","","","324.60000014305115","img/land4.png","76","325.89999985694885","3","1","3","1","1,0.5,0.5,0.5,1,0.5,0.5,0.5,1","1,0.5,0.5,0.5,1,0.5,0.5,0.5,1","1","",""
"","html-keyboard-response","73","34033","0.0-73.0","","","","","null","<img src=""img/land4.png"" style=""width:200px; border:14px solid green;"">","null","","","","","","","","","",""
"","image-keyboard-response","74","34088","0.0-74.0","","","","","55","img/land3.png","75","55.799999952316284","2","1","2","1","1,0.5,0.5,0.5,1,0.5,0.5,0.5,1","1,0.5,0.5,0.5,1,0.5,0.5,0.5,1","1","",""
"","html-keyboard-response","75","34391","0.0-75.0","","","","","null","<img src=""img/land3.png"" style=""width:200px; border:14px solid green;"">","null","","","","","","","","","",""
"","image-keyboard-response","76","34425","0.0-76.0","","","","","33.700000047683716","img/land4.png","75","34.39999985694885","2","0","3","1","1,0.5,0.5,0.5,1,0.5,0.5,0.5,1","1,0.5,0.5,0.5,1,0.5,0.5,0.5,1","1","",""
"","html-keyboard-response","77","34727","0.0-77.0","","","","","null","<img src=""img/land4.png"" style=""width:200px;border:14px solid red;"">","null","","","","","","","","","",""
"","image-keyboard-response","78","35012","0.0-78.0","","","","","284.2000000476837","img/land3.png","76","285","3","1","2","1","1,0.5,0.5,0.5,1,0.5,0.5,0.5,1","1,0.5,0.5,0.5,1,0.5,0.5,0.5,1","1","",""
"","html-keyboard-response","79","35314","0.0-79.0","","","","","null","<img src=""img/land3.png"" style=""width:200px; border:14px solid green;"">","null","","","","","","","","","",""
"","image-keyboard-response","80","35404","0.0-80.0","","","","","89.90000009536743","img/land4.png","76","90.79999995231628","3","1","3","1","1,0.5,0.5,0.5,1,0.5,0.5,0.5,1","1,0.5,0.5,0.5,1,0.5,0.5,0.5,1","1","",""
"","html-keyboard-response","81","35706","0.0-81.0","","","","","null","<img src=""img/land4.png"" style=""width:200px; border:14px solid green;"">","null","","","","","","","","","",""
"","image-keyboard-response","82","35877","0.0-82.0","","","","","169.29999995231628","img/land4.png","76","170.59999990463257","3","1","3","1","1,0.5,0.5,0.5,1,0.5,0.5,0.5,1","1,0.5,0.5,0.5,1,0.5,0.5,0.5,1","1","",""
"","html-keyboard-response","83","36179","0.0-83.0","","","","","null","<img src=""img/land4.png"" style=""width:200px; border:14px solid green;"">","null","","","","","","","","","",""
"","image-keyboard-response","84","36262","0.0-84.0","","","","","82.90000009536743","img/land5.png","75","83.5","2","0","1","1","1,0.5,0.5,0.5,1,0.5,0.5,0.5,1","1,0.5,0.5,0.5,1,0.5,0.5,0.5,1","1","",""
"","html-keyboard-response","85","36564","0.0-85.0","","","","","null","<img src=""img/land5.png"" style=""width:200px;border:14px solid red;"">","null","","","","","","","","","",""
"","image-keyboard-response","86","36653","0.0-86.0","","","","","87.90000009536743","img/land5.png","74","88.70000004768372","1","1","1","1","1,0.5,0.5,0.5,1,0.5,0.5,0.5,1","1,0.5,0.5,0.5,1,0.5,0.5,0.5,1","1","",""
"","html-keyboard-response","87","36954","0.0-87.0","","","","","null","<img src=""img/land5.png"" style=""width:200px; border:14px solid green;"">","null","","","","","","","","","",""
"","image-keyboard-response","88","37314","0.0-88.0","","","","","359.5","img/land5.png","74","360.19999980926514","1","1","1","1","1,0.5,0.5,0.5,1,0.5,0.5,0.5,1","1,0.5,0.5,0.5,1,0.5,0.5,0.5,1","1","",""
"","html-keyboard-response","89","37616","0.0-89.0","","","","","null","<img src=""img/land5.png"" style=""width:200px; border:14px solid green;"">","null","","","","","","","","","",""
"","image-keyboard-response","90","37819","0.0-90.0","","","","","202.40000009536743","img/land3.png","75","203.29999995231628","2","1","2","1","1,0.5,0.5,0.5,1,0.5,0.5,0.5,1","1,0.5,0.5,0.5,1,0.5,0.5,0.5,1","1","",""
"","html-keyboard-response","91","38121","0.0-91.0","","","","","null","<img src=""img/land3.png"" style=""width:200px; border:14px solid green;"">","null","","","","","","","","","",""
"","image-keyboard-response","92","38231","0.0-92.0","","","","","108.79999995231628","img/land3.png","74","109.60000014305115","1","1","2","1","1,0.5,0.5,0.5,1,0.5,0.5,0.5,1","1,0.5,0.5,0.5,1,0.5,0.5,0.5,1","1","",""
"","html-keyboard-response","93","38533","0.0-93.0","","","","","null","<img src=""img/land3.png"" style=""width:200px; border:14px solid green;"">","null","","","","","","","","","",""
"","image-keyboard-response","94","38951","0.0-94.0","","","","","417","img/land4.png","74","417.90000009536743","1","0","3","1","1,0.5,0.5,0.5,1,0.5,0.5,0.5,1","1,0.5,0.5,0.5,1,0.5,0.5,0.5,1","1","",""
"","html-keyboard-response","95","39253","0.0-95.0","","","","","null","<img src=""img/land4.png"" style=""width:200px;border:14px solid red;"">","null","","","","","","","","","",""
"","image-keyboard-response","96","39342","0.0-96.0","","","","","88.39999985694885","img/land5.png","75","89.40000009536743","2","1","1","1","1,0.5,0.5,0.5,1,0.5,0.5,0.5,1","1,0.5,0.5,0.5,1,0.5,0.5,0.5,1","1","",""
"","html-keyboard-response","97","39643","0.0-97.0","","","","","null","<img src=""img/land5.png"" style=""width:200px; border:14px solid green;"">","null","","","","","","","","","",""
"","image-keyboard-response","98","39900","0.0-98.0","","","","","256.09999990463257","img/land5.png","76","256.7999999523163","3","1","1","1","1,0.5,0.5,0.5,1,0.5,0.5,0.5,1","1,0.5,0.5,0.5,1,0.5,0.5,0.5,1","1","",""
"","html-keyboard-response","99","40202","0.0-99.0","","","","","null","<img src=""img/land5.png"" style=""width:200px; border:14px solid green;"">","null","","","","","","","","","",""
"","image-keyboard-response","100","40334","0.0-100.0","","","","","130.89999985694885","img/land3.png","76","131.70000004768372","3","0","2","1","1,0.5,0.5,0.5,1,0.5,0.5,0.5,1","1,0.5,0.5,0.5,1,0.5,0.5,0.5,1","1","",""
"","html-keyboard-response","101","40636","0.0-101.0","","","","","null","<img src=""img/land3.png"" style=""width:200px;border:14px solid red;"">","null","","","","","","","","","",""
"","image-keyboard-response","102","40686","0.0-102.0","","","","","49","img/land5.png","75","49.90000009536743","2","0","1","1","1,0.5,0.5,0.5,1,0.5,0.5,0.5,1","1,0.5,0.5,0.5,1,0.5,0.5,0.5,1","1","",""
"","html-keyboard-response","103","40987","0.0-103.0","","","","","null","<img src=""img/land5.png"" style=""width:200px;border:14px solid red;"">","null","","","","","","","","","",""
"","image-keyboard-response","104","41028","0.0-104.0","","","","","39.69999980926514","img/land5.png","74","40.60000014305115","1","1","1","1","1,0.5,0.5,0.5,1,0.5,0.5,0.5,1","1,0.5,0.5,0.5,1,0.5,0.5,0.5,1","1","",""
"","html-keyboard-response","105","41330","0.0-105.0","","","","","null","<img src=""img/land5.png"" style=""width:200px; border:14px solid green;"">","null","","","","","","","","","",""
"","image-keyboard-response","106","41678","0.0-106.0","","","","","346.5","img/land3.png","74","347.7000000476837","1","1","2","1","1,0.5,0.5,0.5,1,0.5,0.5,0.5,1","1,0.5,0.5,0.5,1,0.5,0.5,0.5,1","1","",""
"","html-keyboard-response","107","41980","0.0-107.0","","","","","null","<img src=""img/land3.png"" style=""width:200px; border:14px solid green;"">","null","","","","","","","","","",""
"","image-keyboard-response","108","42111","0.0-108.0","","","","","129.70000004768372","img/land4.png","74","130.59999990463257","1","0","3","1","1,0.5,0.5,0.5,1,0.5,0.5,0.5,1","1,0.5,0.5,0.5,1,0.5,0.5,0.5,1","1","",""
"","html-keyboard-response","109","42413","0.0-109.0","","","","","null","<img src=""img/land4.png"" style=""width:200px;border:14px solid red;"">","null","","","","","","","","","",""
"","image-keyboard-response","110","42482","0.0-110.0","","","","","68.29999995231628","img/land3.png","75","69.19999980926514","2","1","2","1","1,0.5,0.5,0.5,1,0.5,0.5,0.5,1","1,0.5,0.5,0.5,1,0.5,0.5,0.5,1","1","",""
"","html-keyboard-response","111","42784","0.0-111.0","","","","","null","<img src=""img/land3.png"" style=""width:200px; border:14px solid green;"">","null","","","","","","","","","",""
"","image-keyboard-response","112","42821","0.0-112.0","","","","","36.700000047683716","img/land3.png","76","37.40000009536743","3","0","2","1","1,0.5,0.5,0.5,1,0.5,0.5,0.5,1","1,0.5,0.5,0.5,1,0.5,0.5,0.5,1","1","",""
"","html-keyboard-response","113","43138","0.0-113.0","","","","","null","<img src=""img/land3.png"" style=""width:200px;border:14px solid red;"">","null","","","","","","","","","",""
"","image-keyboard-response","114","43194","0.0-114.0","","","","","55.299999952316284","img/land4.png","76","56.09999990463257","3","1","3","1","1,0.5,0.5,0.5,1,0.5,0.5,0.5,1","1,0.5,0.5,0.5,1,0.5,0.5,0.5,1","1","",""
"","html-keyboard-response","115","43496","0.0-115.0","","","","","null","<img src=""img/land4.png"" style=""width:200px; border:14px solid green;"">","null","","","","","","","","","",""
"","image-keyboard-response","116","43870","0.0-116.0","","","","","373.40000009536743","img/land4.png","74","374","1","0","3","1","1,0.5,0.5,0.5,1,0.5,0.5,0.5,1","1,0.5,0.5,0.5,1,0.5,0.5,0.5,1","1","",""
"","html-keyboard-response","117","44172","0.0-117.0","","","","","null","<img src=""img/land4.png"" style=""width:200px;border:14px solid red;"">","null","","","","","","","","","",""
"","image-keyboard-response","118","44202","0.0-118.0","","","","","29.5","img/land4.png","74","30.300000190734863","1","1","3","1","1,0.5,0.5,0.5,1,0.5,0.5,0.5,1","1,0.5,0.5,0.5,1,0.5,0.5,0.5,1","1","",""
"","html-keyboard-response","119","44504","0.0-119.0","","","","","null","<img src=""img/land4.png"" style=""width:200px; border:14px solid green;"">","null","","","","","","","","","",""
"","image-keyboard-response","120","44510","0.0-120.0","","","","","5.099999904632568","img/land3.png","75","6","2","1","2","1","1,0.5,0.5,0.5,1,0.5,0.5,0.5,1","1,0.5,0.5,0.5,1,0.5,0.5,0.5,1","1","",""
"","html-keyboard-response","121","44811","0.0-121.0","","","","","null","<img src=""img/land3.png"" style=""width:200px; border:14px solid green;"">","null","","","","","","","","","",""
"","image-keyboard-response","122","44915","0.0-122.0","","","","","103.20000004768372","img/land5.png","75","103.79999995231628","2","1","1","1","1,0.5,0.5,0.5,1,0.5,0.5,0.5,1","1,0.5,0.5,0.5,1,0.5,0.5,0.5,1","1","",""
"","html-keyboard-response","123","45216","0.0-123.0","","","","","null","<img src=""img/land5.png"" style=""width:200px; border:14px solid green;"">","null","","","","","","","","","",""
"","image-keyboard-response","124","45239","0.0-124.0","","","","","21.799999952316284","img/land3.png","76","22.5","3","0","2","1","1,0.5,0.5,0.5,1,0.5,0.5,0.5,1","1,0.5,0.5,0.5,1,0.5,0.5,0.5,1","1","",""
"","html-keyboard-response","125","45540","0.0-125.0","","","","","null","<img src=""img/land3.png"" style=""width:200px;border:14px solid red;"">","null","","","","","","","","","",""
"","image-keyboard-response","126","45585","0.0-126.0","","","","","44.09999990463257","img/land5.png","74","44.89999985694885","1","1","1","1","1,0.5,0.5,0.5,1,0.5,0.5,0.5,1","1,0.5,0.5,0.5,1,0.5,0.5,0.5,1","1","",""
"","html-keyboard-response","127","45887","0.0-127.0","","","","","null","<img src=""img/land5.png"" style=""width:200px; border:14px solid green;"">","null","","","","","","","","","",""
"","image-keyboard-response","128","45926","0.0-128.0","","","","","38","img/land4.png","75","38.799999952316284","2","1","3","1","1,0.5,0.5,0.5,1,0.5,0.5,0.5,1","1,0.5,0.5,0.5,1,0.5,0.5,0.5,1","1","",""
"","html-keyboard-response","129","46228","0.0-129.0","","","","","null","<img src=""img/land4.png"" style=""width:200px; border:14px solid green;"">","null","","","","","","","","","",""
"","image-keyboard-response","130","46593","0.0-130.0","","","","","363.59999990463257","img/land5.png","74","364.5","1","1","1","1","1,0.5,0.5,0.5,1,0.5,0.5,0.5,1","1,0.5,0.5,0.5,1,0.5,0.5,0.5,1","1","",""
"","html-keyboard-response","131","46895","0.0-131.0","","","","","null","<img src=""img/land5.png"" style=""width:200px; border:14px solid green;"">","null","","","","","","","","","",""
"","image-keyboard-response","132","46999","0.0-132.0","","","","","102.30000019073486","img/land3.png","74","103.5","1","0","2","1","1,0.5,0.5,0.5,1,0.5,0.5,0.5,1","1,0.5,0.5,0.5,1,0.5,0.5,0.5,1","1","",""
"","html-keyboard-response","133","47301","0.0-133.0","","","","","null","<img src=""img/land3.png"" style=""width:200px;border:14px solid red;"">","null","","","","","","","","","",""
"","image-keyboard-response","134","47304","0.0-134.0","","","","","2.5","img/land4.png","74","3.299999952316284","1","0","3","1","1,0.5,0.5,0.5,1,0.5,0.5,0.5,1","1,0.5,0.5,0.5,1,0.5,0.5,0.5,1","1","",""
"","html-keyboard-response","135","47606","0.0-135.0","","","","","null","<img src=""img/land4.png"" style=""width:200px;border:14px solid red;"">","null","","","","","","","","","",""
"","image-keyboard-response","136","47880","0.0-136.0","","","","","273.09999990463257","img/land5.png","75","274.09999990463257","2","1","1","1","1,0.5,0.5,0.5,1,0.5,0.5,0.5,1","1,0.5,0.5,0.5,1,0.5,0.5,0.5,1","1","",""
"","html-keyboard-response","137","48181","0.0-137.0","","","","","null","<img src=""img/land5.png"" style=""width:200px; border:14px solid green;"">","null","","","","","","","","","",""
"","image-keyboard-response","138","48215","0.0-138.0","","","","","32.799999952316284","img/land5.png","76","33.799999952316284","3","1","1","1","1,0.5,0.5,0.5,1,0.5,0.5,0.5,1","1,0.5,0.5,0.5,1,0.5,0.5,0.5,1","1","",""
"","html-keyboard-response","139","48517","0.0-139.0","","","","","null","<img src=""img/land5.png"" style=""width:200px; border:14px solid green;"">","null","","","","","","","","","",""
"","image-keyboard-response","140","48541","0.0-140.0","","","","","22.40000009536743","img/land4.png","76","23.299999952316284","3","1","3","1","1,0.5,0.5,0.5,1,0.5,0.5,0.5,1","1,0.5,0.5,0.5,1,0.5,0.5,0.5,1","1","",""
"","html-keyboard-response","141","48842","0.0-141.0","","","","","null","<img src=""img/land4.png"" style=""width:200px; border:14px solid green;"">","null","","","","","","","","","",""
"","image-keyboard-response","142","48896","0.0-142.0","","","","","52.59999990463257","img/land5.png","75","53.39999985694885","2","1","1","1","1,0.5,0.5,0.5,1,0.5,0.5,0.5,1","1,0.5,0.5,0.5,1,0.5,0.5,0.5,1","1","",""
"","html-keyboard-response","143","49197","0.0-143.0","","","","","null","<img src=""img/land5.png"" style=""width:200px; border:14px solid green;"">","null","","","","","","","","","",""
"","image-keyboard-response","144","49219","0.0-144.0","","","","","20","img/land3.png","75","21.09999990463257","2","1","2","1","1,0.5,0.5,0.5,1,0.5,0.5,0.5,1","1,0.5,0.5,0.5,1,0.5,0.5,0.5,1","1","",""
"","html-keyboard-response","145","49521","0.0-145.0","","","","","null","<img src=""img/land3.png"" style=""width:200px; border:14px solid green;"">","null","","","","","","","","","",""
"","image-keyboard-response","146","49546","0.0-146.0","","","","","25","img/land3.png","76","25.5","3","0","2","1","1,0.5,0.5,0.5,1,0.5,0.5,0.5,1","1,0.5,0.5,0.5,1,0.5,0.5,0.5,1","1","",""
"","html-keyboard-response","147","49849","0.0-147.0","","","","","null","<img src=""img/land3.png"" style=""width:200px;border:14px solid red;"">","null","","","","","","","","","",""
"","image-keyboard-response","148","49882","0.0-148.0","","","","","32.39999985694885","img/land4.png","75","33.299999952316284","2","1","3","1","1,0.5,0.5,0.5,1,0.5,0.5,0.5,1","1,0.5,0.5,0.5,1,0.5,0.5,0.5,1","1","",""
"","html-keyboard-response","149","50184","0.0-149.0","","","","","null","<img src=""img/land4.png"" style=""width:200px; border:14px solid green;"">","null","","","","","","","","","",""
"","image-keyboard-response","150","50435","0.0-150.0","","","","","249.90000009536743","img/land4.png","74","250.60000014305115","1","1","3","1","1,0.5,0.5,0.5,1,0.5,0.5,0.5,1","1,0.5,0.5,0.5,1,0.5,0.5,0.5,1","1","",""
"","html-keyboard-response","151","50740","0.0-151.0","","","","","null","<img src=""img/land4.png"" style=""width:200px; border:14px solid green;"">","null","","","","","","","","","",""
"","image-keyboard-response","152","51004","0.0-152.0","","","","","263.7999999523163","img/land5.png","75","264.5","2","1","1","1","1,0.5,0.5,0.5,1,0.5,0.5,0.5,1","1,0.5,0.5,0.5,1,0.5,0.5,0.5,1","1","",""
"","html-keyboard-response","153","51306","0.0-153.0","","","","","null","<img src=""img/land5.png"" style=""width:200px; border:14px solid green;"">","null","","","","","","","","","",""
"","image-keyboard-response","154","51317","0.0-154.0","","","","","9","img/land4.png","75","10","2","0","3","1","1,0.5,0.5,0.5,1,0.5,0.5,0.5,1","1,0.5,0.5,0.5,1,0.5,0.5,0.5,1","1","",""
"","html-keyboard-response","155","51619","0.0-155.0","","","","","null","<img src=""img/land4.png"" style=""width:200px;border:14px solid red;"">","null","","","","","","","","","",""
"","image-keyboard-response","156","51892","0.0-156.0","","","","","271.7999999523163","img/land5.png","74","272.80000019073486","1","1","1","1","1,0.5,0.5,0.5,1,0.5,0.5,0.5,1","1,0.5,0.5,0.5,1,0.5,0.5,0.5,1","1","",""
"","html-keyboard-response","157","52193","0.0-157.0","","","","","null","<img src=""img/land5.png"" style=""width:200px; border:14px solid green;"">","null","","","","","","","","","",""
"","image-keyboard-response","158","52419","0.0-158.0","","","","","225.80000019073486","img/land4.png","74","226.60000014305115","1","0","3","1","1,0.5,0.5,0.5,1,0.5,0.5,0.5,1","1,0.5,0.5,0.5,1,0.5,0.5,0.5,1","1","",""
"","html-keyboard-response","159","52722","0.0-159.0","","","","","null","<img src=""img/land4.png"" style=""width:200px;border:14px solid red;"">","null","","","","","","","","","",""
"","image-keyboard-response","160","52981","0.0-160.0","","","","","257.90000009536743","img/land4.png","75","259","2","1","3","1","1,0.5,0.5,0.5,1,0.5,0.5,0.5,1","1,0.5,0.5,0.5,1,0.5,0.5,0.5,1","1","",""
"","html-keyboard-response","161","53282","0.0-161.0","","","","","null","<img src=""img/land4.png"" style=""width:200px; border:14px solid green;"">","null","","","","","","","","","",""
"","image-keyboard-response","162","53585","0.0-162.0","","","","","302.2000000476837","img/land4.png","74","303.2000000476837","1","0","3","1","1,0.5,0.5,0.5,1,0.5,0.5,0.5,1","1,0.5,0.5,0.5,1,0.5,0.5,0.5,1","1","",""
"","html-keyboard-response","163","53887","0.0-163.0","","","","","null","<img src=""img/land4.png"" style=""width:200px;border:14px solid red;"">","null","","","","","","","","","",""
"","image-keyboard-response","164","54072","0.0-164.0","","","","","184.60000014305115","img/land3.png","74","185.5","1","1","2","1","1,0.5,0.5,0.5,1,0.5,0.5,0.5,1","1,0.5,0.5,0.5,1,0.5,0.5,0.5,1","1","",""
"","html-keyboard-response","165","54374","0.0-165.0","","","","","null","<img src=""img/land3.png"" style=""width:200px; border:14px solid green;"">","null","","","","","","","","","",""
"","image-keyboard-response","166","54562","0.0-166.0","","","","","186.79999995231628","img/land3.png","75","187.90000009536743","2","1","2","1","1,0.5,0.5,0.5,1,0.5,0.5,0.5,1","1,0.5,0.5,0.5,1,0.5,0.5,0.5,1","1","",""
"","html-keyboard-response","167","54864","0.0-167.0","","","","","null","<img src=""img/land3.png"" style=""width:200px; border:14px solid green;"">","null","","","","","","","","","",""
"","image-keyboard-response","168","55118","0.0-168.0","","","","","252.70000004768372","img/land4.png","76","253.29999995231628","3","1","3","1","1,0.5,0.5,0.5,1,0.5,0.5,0.5,1","1,0.5,0.5,0.5,1,0.5,0.5,0.5,1","1","",""
"","html-keyboard-response","169","55419","0.0-169.0","","","","","null","<img src=""img/land4.png"" style=""width:200px; border:14px solid green;"">","null","","","","","","","","","",""
"","image-keyboard-response","170","55636","0.0-170.0","","","","","215.5","img/land5.png","74","216.40000009536743","1","1","1","1","1,0.5,0.5,0.5,1,0.5,0.5,0.5,1","1,0.5,0.5,0.5,1,0.5,0.5,0.5,1","1","",""
"","html-keyboard-response","171","55937","0.0-171.0","","","","","null","<img src=""img/land5.png"" style=""width:200px; border:14px solid green;"">","null","","","","","","","","","",""
"","image-keyboard-response","172","56169","0.0-172.0","","","","","231.29999995231628","img/land3.png","75","232.09999990463257","2","1","2","1","1,0.5,0.5,0.5,1,0.5,0.5,0.5,1","1,0.5,0.5,0.5,1,0.5,0.5,0.5,1","1","",""
"","html-keyboard-response","173","56472","0.0-173.0","","","","","null","<img src=""img/land3.png"" style=""width:200px; border:14px solid green;"">","null","","","","","","","","","",""
"","image-keyboard-response","174","56482","0.0-174.0","","","","","9.700000047683716","img/land3.png","74","10.400000095367432","1","1","2","1","1,0.5,0.5,0.5,1,0.5,0.5,0.5,1","1,0.5,0.5,0.5,1,0.5,0.5,0.5,1","1","",""
"","html-keyboard-response","175","56784","0.0-175.0","","","","","null","<img src=""img/land3.png"" style=""width:200px; border:14px solid green;"">","null","","","","","","","","","",""
"","image-keyboard-response","176","57014","0.0-176.0","","","","","228.60000014305115","img/land4.png","74","229.5","1","1","3","1","1,0.5,0.5,0.5,1,0.5,0.5,0.5,1","1,0.5,0.5,0.5,1,0.5,0.5,0.5,1","1","",""
"","html-keyboard-response","177","57316","0.0-177.0","","","","","null","<img src=""img/land4.png"" style=""width:200px; border:14px solid green;"">","null","","","","","","","","","",""
"","image-keyboard-response","178","57556","0.0-178.0","","","","","239.70000004768372","img/land3.png","75","240.39999985694885","2","1","2","1","1,0.5,0.5,0.5,1,0.5,0.5,0.5,1","1,0.5,0.5,0.5,1,0.5,0.5,0.5,1","1","",""
"","html-keyboard-response","179","57859","0.0-179.0","","","","","null","<img src=""img/land3.png"" style=""width:200px; border:14px solid green;"">","null","","","","","","","","","",""
"","image-keyboard-response","180","58027","0.0-180.0","","","","","167.20000004768372","img/land3.png","74","168.19999980926514","1","1","2","1","1,0.5,0.5,0.5,1,0.5,0.5,0.5,1","1,0.5,0.5,0.5,1,0.5,0.5,0.5,1","1","",""
"","html-keyboard-response","181","58328","0.0-181.0","","","","","null","<img src=""img/land3.png"" style=""width:200px; border:14px solid green;"">","null","","","","","","","","","",""
"","html-keyboard-response","182","60430","0.0-182.0","","","","","","","","","","","","","","","","",""
"","image-keyboard-response","183","60867","0.0-183.0","","","","","436.2999999523163","img/land6.png","76","437.40000009536743","3","1","2","2","1,0.5,0.5,0.5,1,0.5,0.5,0.5,1","0.5,1,0.5,0.5,0.5,1,1,0.5,0.5","3","",""
"","html-keyboard-response","184","61169","0.0-184.0","","","","","null","<img src=""img/land6.png"" style=""width:200px; border:14px solid green;"">","null","","","","","","","","","",""
"","image-keyboard-response","185","61205","0.0-185.0","","","","","34.10000014305115","img/land6.png","75","35","2","1","2","2","1,0.5,0.5,0.5,1,0.5,0.5,0.5,1","0.5,1,0.5,0.5,0.5,1,1,0.5,0.5","3","",""
"","html-keyboard-response","186","61507","0.0-186.0","","","","","null","<img src=""img/land6.png"" style=""width:200px; border:14px solid green;"">","null","","","","","","","","","",""
"","image-keyboard-response","187","61620","0.0-187.0","","","","","112.59999990463257","img/land2.png","75","113.30000019073486","2","1","1","2","1,0.5,0.5,0.5,1,0.5,0.5,0.5,1","0.5,1,0.5,0.5,0.5,1,1,0.5,0.5","3","",""
"","html-keyboard-response","188","61922","0.0-188.0","","","","","null","<img src=""img/land2.png"" style=""width:200px; border:14px solid green;"">","null","","","","","","","","","",""
"","image-keyboard-response","189","62076","0.0-189.0","","","","","152.5","img/land2.png","75","153.20000004768372","2","1","1","2","1,0.5,0.5,0.5,1,0.5,0.5,0.5,1","0.5,1,0.5,0.5,0.5,1,1,0.5,0.5","3","",""
"","html-keyboard-response","190","62377","0.0-190.0","","","","","null","<img src=""img/land2.png"" style=""width:200px; border:14px solid green;"">","null","","","","","","","","","",""
"","image-keyboard-response","191","62386","0.0-191.0","","","","","7.6000001430511475","img/land1.png","75","8.5","2","1","3","2","1,0.5,0.5,0.5,1,0.5,0.5,0.5,1","0.5,1,0.5,0.5,0.5,1,1,0.5,0.5","3","",""
"","html-keyboard-response","192","62688","0.0-192.0","","","","","null","<img src=""img/land1.png"" style=""width:200px; border:14px solid green;"">","null","","","","","","","","","",""
"","image-keyboard-response","193","62718","0.0-193.0","","","","","28.59999990463257","img/land2.png","76","29.59999990463257","3","1","1","2","1,0.5,0.5,0.5,1,0.5,0.5,0.5,1","0.5,1,0.5,0.5,0.5,1,1,0.5,0.5","3","",""
"","html-keyboard-response","194","63019","0.0-194.0","","","","","null","<img src=""img/land2.png"" style=""width:200px; border:14px solid green;"">","null","","","","","","","","","",""
"","image-keyboard-response","195","63022","0.0-195.0","","","","","1.4000000953674316","img/land2.png","75","2.5999999046325684","2","1","1","2","1,0.5,0.5,0.5,1,0.5,0.5,0.5,1","0.5,1,0.5,0.5,0.5,1,1,0.5,0.5","3","",""
"","html-keyboard-response","196","63324","0.0-196.0","","","","","null","<img src=""img/land2.png"" style=""width:200px; border:14px solid green;"">","null","","","","","","","","","",""
"","image-keyboard-response","197","63641","0.0-197.0","","","","","316.09999990463257","img/land1.png","76","316.7000000476837","3","1","3","2","1,0.5,0.5,0.5,1,0.5,0.5,0.5,1","0.5,1,0.5,0.5,0.5,1,1,0.5,0.5","3","",""
"","html-keyboard-response","198","63942","0.0-198.0","","","","","null","<img src=""img/land1.png"" style=""width:200px; border:14px solid green;"">","null","","","","","","","","","",""
"","image-keyboard-response","199","64054","0.0-199.0","","","","","111.40000009536743","img/land2.png","75","112.20000004768372","2","1","1","2","1,0.5,0.5,0.5,1,0.5,0.5,0.5,1","0.5,1,0.5,0.5,0.5,1,1,0.5,0.5","3","",""
"","html-keyboard-response","200","64356","0.0-200.0","","","","","null","<img src=""img/land2.png"" style=""width:200px; border:14px solid green;"">","null","","","","","","","","","",""
"","image-keyboard-response","201","64369","0.0-201.0","","","","","11.900000095367432","img/land1.png","75","12.900000095367432","2","0","3","2","1,0.5,0.5,0.5,1,0.5,0.5,0.5,1","0.5,1,0.5,0.5,0.5,1,1,0.5,0.5","3","",""
"","html-keyboard-response","202","64670","0.0-202.0","","","","","null","<img src=""img/land1.png"" style=""width:200px;border:14px solid red;"">","null","","","","","","","","","",""
"","image-keyboard-response","203","64925","0.0-203.0","","","","","254.29999995231628","img/land2.png","74","254.89999985694885","1","1","1","2","1,0.5,0.5,0.5,1,0.5,0.5,0.5,1","0.5,1,0.5,0.5,0.5,1,1,0.5,0.5","3","",""
"","html-keyboard-response","204","65227","0.0-204.0","","","","","null","<img src=""img/land2.png"" style=""width:200px; border:14px solid green;"">","null","","","","","","","","","",""
"","image-keyboard-response","205","65519","0.0-205.0","","","","","291.10000014305115","img/land2.png","76","292.09999990463257","3","0","1","2","1,0.5,0.5,0.5,1,0.5,0.5,0.5,1","0.5,1,0.5,0.5,0.5,1,1,0.5,0.5","3","",""
"","html-keyboard-response","206","65821","0.0-206.0","","","","","null","<img src=""img/land2.png"" style=""width:200px;border:14px solid red;"">","null","","","","","","","","","",""
"","image-keyboard-response","207","66015","0.0-207.0","","","","","192.09999990463257","img/land2.png","75","193.20000004768372","2","1","1","2","1,0.5,0.5,0.5,1,0.5,0.5,0.5,1","0.5,1,0.5,0.5,0.5,1,1,0.5,0.5","3","",""
"","html-keyboard-response","208","66316","0.0-208.0","","","","","null","<img src=""img/land2.png"" style=""width:200px; border:14px solid green;"">","null","","","","","","","","","",""
"","image-keyboard-response","209","66327","0.0-209.0","","","","","9.200000047683716","img/land2.png","74","10.200000047683716","1","0","1","2","1,0.5,0.5,0.5,1,0.5,0.5,0.5,1","0.5,1,0.5,0.5,0.5,1,1,0.5,0.5","3","",""
"","html-keyboard-response","210","66628","0.0-210.0","","","","","null","<img src=""img/land2.png"" style=""width:200px;border:14px solid red;"">","null","","","","","","","","","",""
"","image-keyboard-response","211","66961","0.0-211.0","","","","","331.7000000476837","img/land6.png","74","332.40000009536743","1","0","2","2","1,0.5,0.5,0.5,1,0.5,0.5,0.5,1","0.5,1,0.5,0.5,0.5,1,1,0.5,0.5","3","",""
"","html-keyboard-response","212","67263","0.0-212.0","","","","","null","<img src=""img/land6.png"" style=""width:200px;border:14px solid red;"">","null","","","","","","","","","",""
"","image-keyboard-response","213","67576","0.0-213.0","","","","","311.5","img/land6.png","75","312.5","2","1","2","2","1,0.5,0.5,0.5,1,0.5,0.5,0.5,1","0.5,1,0.5,0.5,0.5,1,1,0.5,0.5","3","",""
"","html-keyboard-response","214","67878","0.0-214.0","","","","","null","<img src=""img/land6.png"" style=""width:200px; border:14px solid green;"">","null","","","","","","","","","",""
"","image-keyboard-response","215","67907","0.0-215.0","","","","","27.59999990463257","img/land2.png","76","28.699999809265137","3","1","1","2","1,0.5,0.5,0.5,1,0.5,0.5,0.5,1","0.5,1,0.5,0.5,0.5,1,1,0.5,0.5","3","",""
"","html-keyboard-response","216","68208","0.0-216.0","","","","","null","<img src=""img/land2.png"" style=""width:200px; border:14px solid green;"">","null","","","","","","","","","",""
"","image-keyboard-response","217","68541","0.0-217.0","","","","","331.80000019073486","img/land6.png","74","332.7000000476837","1","1","2","2","1,0.5,0.5,0.5,1,0.5,0.5,0.5,1","0.5,1,0.5,0.5,0.5,1,1,0.5,0.5","3","",""
"","html-keyboard-response","218","68842","0.0-218.0","","","","","null","<img src=""img/land6.png"" style=""width:200px; border:14px solid green;"">","null","","","","","","","","","",""
"","image-keyboard-response","219","68872","0.0-219.0","","","","","29.100000143051147","img/land6.png","75","29.90000009536743","2","1","2","2","1,0.5,0.5,0.5,1,0.5,0.5,0.5,1","0.5,1,0.5,0.5,0.5,1,1,0.5,0.5","3","",""
"","html-keyboard-response","220","69174","0.0-220.0","","","","","null","<img src=""img/land6.png"" style=""width:200px; border:14px solid green;"">","null","","","","","","","","","",""
"","image-keyboard-response","221","69476","0.0-221.0","","","","","301","img/land2.png","76","302.10000014305115","3","0","1","2","1,0.5,0.5,0.5,1,0.5,0.5,0.5,1","0.5,1,0.5,0.5,0.5,1,1,0.5,0.5","3","",""
"","html-keyboard-response","222","69778","0.0-222.0","","","","","null","<img src=""img/land2.png"" style=""width:200px;border:14px solid red;"">","null","","","","","","","","","",""
"","image-keyboard-response","223","70042","0.0-223.0","","","","","262.59999990463257","img/land2.png","74","263.69999980926514","1","0","1","2","1,0.5,0.5,0.5,1,0.5,0.5,0.5,1","0.5,1,0.5,0.5,0.5,1,1,0.5,0.5","3","",""
"","html-keyboard-response","224","70343","0.0-224.0","","","","","null","<img src=""img/land2.png"" style=""width:200px;border:14px solid red;"">","null","","","","","","","","","",""
"","image-keyboard-response","225","70632","0.0-225.0","","","","","287.2999999523163","img/land2.png","75","288.10000014305115","2","1","1","2","1,0.5,0.5,0.5,1,0.5,0.5,0.5,1","0.5,1,0.5,0.5,0.5,1,1,0.5,0.5","3","",""
"","html-keyboard-response","226","70934","0.0-226.0","","","","","null","<img src=""img/land2.png"" style=""width:200px; border:14px solid green;"">","null","","","","","","","","","",""
"","image-keyboard-response","227","70965","0.0-227.0","","","","","30","img/land2.png","75","30.899999856948853","2","1","1","2","1,0.5,0.5,0.5,1,0.5,0.5,0.5,1","0.5,1,0.5,0.5,0.5,1,1,0.5,0.5","3","",""
"","html-keyboard-response","228","71267","0.0-228.0","","","","","null","<img src=""img/land2.png"" style=""width:200px; border:14px solid green;"">","null","","","","","","","","","",""
"","image-keyboard-response","229","71277","0.0-229.0","","","","","8.900000095367432","img/land2.png","74","9.700000047683716","1","0","1","2","1,0.5,0.5,0.5,1,0.5,0.5,0.5,1","0.5,1,0.5,0.5,0.5,1,1,0.5,0.5","3","",""
"","html-keyboard-response","230","71579","0.0-230.0","","","","","null","<img src=""img/land2.png"" style=""width:200px;border:14px solid red;"">","null","","","","","","","","","",""
"","image-keyboard-response","231","71610","0.0-231.0","","","","","29.299999952316284","img/land2.png","74","30.40000009536743","1","1","1","2","1,0.5,0.5,0.5,1,0.5,0.5,0.5,1","0.5,1,0.5,0.5,0.5,1,1,0.5,0.5","3","",""
"","html-keyboard-response","232","71911","0.0-232.0","","","","","null","<img src=""img/land2.png"" style=""width:200px; border:14px solid green;"">","null","","","","","","","","","",""
"","image-keyboard-response","233","72190","0.0-233.0","","","","","278.30000019073486","img/land2.png","74","279.5","1","1","1","2","1,0.5,0.5,0.5,1,0.5,0.5,0.5,1","0.5,1,0.5,0.5,0.5,1,1,0.5,0.5","3","",""
"","html-keyboard-response","234","72492","0.0-234.0","","","","","null","<img src=""img/land2.png"" style=""width:200px; border:14px solid green;"">","null","","","","","","","","","",""
"","image-keyboard-response","235","72556","0.0-235.0","","","","","62.5","img/land2.png","74","63.299999952316284","1","1","1","2","1,0.5,0.5,0.5,1,0.5,0.5,0.5,1","0.5,1,0.5,0.5,0.5,1,1,0.5,0.5","3","",""
"","html-keyboard-response","236","72860","0.0-236.0","","","","","null","<img src=""img/land2.png"" style=""width:200px; border:14px solid green;"">","null","","","","","","","","","",""
"","image-keyboard-response","237","72877","0.0-237.0","","","","","15.799999952316284","img/land2.png","75","16.700000047683716","2","1","1","2","1,0.5,0.5,0.5,1,0.5,0.5,0.5,1","0.5,1,0.5,0.5,0.5,1,1,0.5,0.5","3","",""
"","html-keyboard-response","238","73178","0.0-238.0","","","","","null","<img src=""img/land2.png"" style=""width:200px; border:14px solid green;"">","null","","","","","","","","","",""
"","image-keyboard-response","239","73250","0.0-239.0","","","","","70.69999980926514","img/land6.png","75","71.29999995231628","2","1","2","2","1,0.5,0.5,0.5,1,0.5,0.5,0.5,1","0.5,1,0.5,0.5,0.5,1,1,0.5,0.5","3","",""
"","html-keyboard-response","240","73552","0.0-240.0","","","","","null","<img src=""img/land6.png"" style=""width:200px; border:14px solid green;"">","null","","","","","","","","","",""
"","image-keyboard-response","241","73557","0.0-241.0","","","","","4.700000047683716","img/land1.png","76","5.3999998569488525","3","1","3","2","1,0.5,0.5,0.5,1,0.5,0.5,0.5,1","0.5,1,0.5,0.5,0.5,1,1,0.5,0.5","3","",""
"","html-keyboard-response","242","73858","0.0-242.0","","","","","null","<img src=""img/land1.png"" style=""width:200px; border:14px solid green;"">","null","","","","","","","","","",""
"","image-keyboard-response","243","73907","0.0-243.0","","","","","48.19999980926514","img/land2.png","75","49.200000047683716","2","1","1","2","1,0.5,0.5,0.5,1,0.5,0.5,0.5,1","0.5,1,0.5,0.5,0.5,1,1,0.5,0.5","3","",""
"","html-keyboard-response","244","74209","0.0-244.0","","","","","null","<img src=""img/land2.png"" style=""width:200px; border:14px solid green;"">","null","","","","","","","","","",""
"","image-keyboard-response","245","74484","0.0-245.0","","","","","273.40000009536743","img/land6.png","74","274.60000014305115","1","0","2","2","1,0.5,0.5,0.5,1,0.5,0.5,0.5,1","0.5,1,0.5,0.5,0.5,1,1,0.5,0.5","3","",""
"","html-keyboard-response","246","74785","0.0-246.0","","","","","null","<img src=""img/land6.png"" style=""width:200px;border:14px solid red;"">","null","","","","","","","","","",""
"","image-keyboard-response","247","75066","0.0-247.0","","","","","279.09999990463257","img/land6.png","75","279.7000000476837","2","1","2","2","1,0.5,0.5,0.5,1,0.5,0.5,0.5,1","0.5,1,0.5,0.5,0.5,1,1,0.5,0.5","3","",""
"","html-keyboard-response","248","75371","0.0-248.0","","","","","null","<img src=""img/land6.png"" style=""width:200px; border:14px solid green;"">","null","","","","","","","","","",""
"","image-keyboard-response","249","75402","0.0-249.0","","","","","29.5","img/land1.png","76","30.600000143051147","3","1","3","2","1,0.5,0.5,0.5,1,0.5,0.5,0.5,1","0.5,1,0.5,0.5,0.5,1,1,0.5,0.5","3","",""
"","html-keyboard-response","250","75704","0.0-250.0","","","","","null","<img src=""img/land1.png"" style=""width:200px; border:14px solid green;"">","null","","","","","","","","","",""
"","image-keyboard-response","251","75725","0.0-251.0","","","","","20.600000143051147","img/land2.png","75","21.5","2","1","1","2","1,0.5,0.5,0.5,1,0.5,0.5,0.5,1","0.5,1,0.5,0.5,0.5,1,1,0.5,0.5","3","",""
"","html-keyboard-response","252","76027","0.0-252.0","","","","","null","<img src=""img/land2.png"" style=""width:200px; border:14px solid green;"">","null","","","","","","","","","",""
"","image-keyboard-response","253","76282","0.0-253.0","","","","","253","img/land2.png","74","254.20000004768372","1","0","1","2","1,0.5,0.5,0.5,1,0.5,0.5,0.5,1","0.5,1,0.5,0.5,0.5,1,1,0.5,0.5","3","",""
"","html-keyboard-response","254","76584","0.0-254.0","","","","","null","<img src=""img/land2.png"" style=""width:200px;border:14px solid red;"">","null","","","","","","","","","",""
"","image-keyboard-response","255","76593","0.0-255.0","","","","","8.099999904632568","img/land1.png","75","9.099999904632568","2","1","3","2","1,0.5,0.5,0.5,1,0.5,0.5,0.5,1","0.5,1,0.5,0.5,0.5,1,1,0.5,0.5","3","",""
"","html-keyboard-response","256","76895","0.0-256.0","","","","","null","<img src=""img/land1.png"" style=""width:200px; border:14px solid green;"">","null","","","","","","","","","",""
"","image-keyboard-response","257","77131","0.0-257.0","","","","","235.40000009536743","img/land6.png","76","236.39999985694885","3","1","2","2","1,0.5,0.5,0.5,1,0.5,0.5,0.5,1","0.5,1,0.5,0.5,0.5,1,1,0.5,0.5","3","",""
"","html-keyboard-response","258","77433","0.0-258.0","","","","","null","<img src=""img/land6.png"" style=""width:200px; border:14px solid green;"">","null","","","","","","","","","",""
"","image-keyboard-response","259","77655","0.0-259.0","","","","","221","img/land2.png","74","221.79999995231628","1","1","1","2","1,0.5,0.5,0.5,1,0.5,0.5,0.5,1","0.5,1,0.5,0.5,0.5,1,1,0.5,0.5","3","",""
"","html-keyboard-response","260","77957","0.0-260.0","","","","","null","<img src=""img/land2.png"" style=""width:200px; border:14px solid green;"">","null","","","","","","","","","",""
"","image-keyboard-response","261","78161","0.0-261.0","","","","","203.40000009536743","img/land6.png","75","204.29999995231628","2","0","2","2","1,0.5,0.5,0.5,1,0.5,0.5,0.5,1","0.5,1,0.5,0.5,0.5,1,1,0.5,0.5","3","",""
"","html-keyboard-response","262","78463","0.0-262.0","","","","","null","<img src=""img/land6.png"" style=""width:200px;border:14px solid red;"">","null","","","","","","","","","",""
"","image-keyboard-response","263","78662","0.0-263.0","","","","","198.70000004768372","img/land1.png","75","199.29999995231628","2","1","3","2","1,0.5,0.5,0.5,1,0.5,0.5,0.5,1","0.5,1,0.5,0.5,0.5,1,1,0.5,0.5","3","",""
"","html-keyboard-response","264","78964","0.0-264.0","","","","","null","<img src=""img/land1.png"" style=""width:200px; border:14px solid green;"">","null","","","","","","","","","",""
"","image-keyboard-response","265","79126","0.0-265.0","","","","","161.70000004768372","img/land6.png","74","162.40000009536743","1","0","2","2","1,0.5,0.5,0.5,1,0.5,0.5,0.5,1","0.5,1,0.5,0.5,0.5,1,1,0.5,0.5","3","",""
"","html-keyboard-response","266","79429","0.0-266.0","","","","","null","<img src=""img/land6.png"" style=""width:200px;border:14px solid red;"">","null","","","","","","","","","",""
"","image-keyboard-response","267","79584","0.0-267.0","","","","","153.5","img/land2.png","75","154.5","2","1","1","2","1,0.5,0.5,0.5,1,0.5,0.5,0.5,1","0.5,1,0.5,0.5,0.5,1,1,0.5,0.5","3","",""
"","html-keyboard-response","268","79885","0.0-268.0","","","","","null","<img src=""img/land2.png"" style=""width:200px; border:14px solid green;"">","null","","","","","","","","","",""
"","image-keyboard-response","269","80075","0.0-269.0","","","","","188.10000014305115","img/land2.png","76","189","3","1","1","2","1,0.5,0.5,0.5,1,0.5,0.5,0.5,1","0.5,1,0.5,0.5,0.5,1,1,0.5,0.5","3","",""
"","html-keyboard-response","270","80388","0.0-270.0","","","","","null","<img src=""img/land2.png"" style=""width:200px; border:14px solid green;"">","null","","","","","","","","","",""
"","image-keyboard-response","271","80522","0.0-271.0","","","","","132","img/land1.png","74","133","1","1","3","2","1,0.5,0.5,0.5,1,0.5,0.5,0.5,1","0.5,1,0.5,0.5,0.5,1,1,0.5,0.5","3","",""
"","html-keyboard-response","272","80823","0.0-272.0","","","","","null","<img src=""img/land1.png"" style=""width:200px; border:14px solid green;"">","null","","","","","","","","","",""
"","image-keyboard-response","273","80976","0.0-273.0","","","","","151.70000004768372","img/land2.png","74","152.69999980926514","1","1","1","2","1,0.5,0.5,0.5,1,0.5,0.5,0.5,1","0.5,1,0.5,0.5,0.5,1,1,0.5,0.5","3","",""
"","html-keyboard-response","274","81277","0.0-274.0","","","","","null","<img src=""img/land2.png"" style=""width:200px; border:14px solid green;"">","null","","","","","","","","","",""
"","image-keyboard-response","275","81463","0.0-275.0","","","","","185.5","img/land2.png","75","186.39999985694885","2","1","1","2","1,0.5,0.5,0.5,1,0.5,0.5,0.5,1","0.5,1,0.5,0.5,0.5,1,1,0.5,0.5","3","",""
"","html-keyboard-response","276","81765","0.0-276.0","","","","","null","<img src=""img/land2.png"" style=""width:200px; border:14px solid green;"">","null","","","","","","","","","",""
"","image-keyboard-response","277","81887","0.0-277.0","","","","","120.79999995231628","img/land2.png","76","121.89999985694885","3","1","1","2","1,0.5,0.5,0.5,1,0.5,0.5,0.5,1","0.5,1,0.5,0.5,0.5,1,1,0.5,0.5","3","",""
"","html-keyboard-response","278","82188","0.0-278.0","","","","","null","<img src=""img/land2.png"" style=""width:200px; border:14px solid green;"">","null","","","","","","","","","",""
"","image-keyboard-response","279","82361","0.0-279.0","","","","","171.40000009536743","img/land6.png","74","172.40000009536743","1","0","2","2","1,0.5,0.5,0.5,1,0.5,0.5,0.5,1","0.5,1,0.5,0.5,0.5,1,1,0.5,0.5","3","",""
"","html-keyboard-response","280","82663","0.0-280.0","","","","","null","<img src=""img/land6.png"" style=""width:200px;border:14px solid red;"">","null","","","","","","","","","",""
"","image-keyboard-response","281","82809","0.0-281.0","","","","","145.70000004768372","img/land6.png","75","146.80000019073486","2","0","2","2","1,0.5,0.5,0.5,1,0.5,0.5,0.5,1","0.5,1,0.5,0.5,0.5,1,1,0.5,0.5","3","",""
"","html-keyboard-response","282","83112","0.0-282.0","","","","","null","<img src=""img/land6.png"" style=""width:200px;border:14px solid red;"">","null","","","","","","","","","",""
"","image-keyboard-response","283","83278","0.0-283.0","","","","","165.59999990463257","img/land1.png","74","166.30000019073486","1","1","3","2","1,0.5,0.5,0.5,1,0.5,0.5,0.5,1","0.5,1,0.5,0.5,0.5,1,1,0.5,0.5","3","",""
"","html-keyboard-response","284","83580","0.0-284.0","","","","","null","<img src=""img/land1.png"" style=""width:200px; border:14px solid green;"">","null","","","","","","","","","",""
"","image-keyboard-response","285","83792","0.0-285.0","","","","","211.5","img/land2.png","74","212.20000004768372","1","1","1","2","1,0.5,0.5,0.5,1,0.5,0.5,0.5,1","0.5,1,0.5,0.5,0.5,1,1,0.5,0.5","3","",""
"","html-keyboard-response","286","84093","0.0-286.0","","","","","null","<img src=""img/land2.png"" style=""width:200px; border:14px solid green;"">","null","","","","","","","","","",""
"","image-keyboard-response","287","84162","0.0-287.0","","","","","67.39999985694885","img/land2.png","76","68.39999985694885","3","0","1","2","1,0.5,0.5,0.5,1,0.5,0.5,0.5,1","0.5,1,0.5,0.5,0.5,1,1,0.5,0.5","3","",""
"","html-keyboard-response","288","84463","0.0-288.0","","","","","null","<img src=""img/land2.png"" style=""width:200px;border:14px solid red;"">","null","","","","","","","","","",""
"","image-keyboard-response","289","84595","0.0-289.0","","","","","130.80000019073486","img/land2.png","74","132","1","0","1","2","1,0.5,0.5,0.5,1,0.5,0.5,0.5,1","0.5,1,0.5,0.5,0.5,1,1,0.5,0.5","3","",""
"","html-keyboard-response","290","84898","0.0-290.0","","","","","null","<img src=""img/land2.png"" style=""width:200px;border:14px solid red;"">","null","","","","","","","","","",""
"","image-keyboard-response","291","84975","0.0-291.0","","","","","76.60000014305115","img/land2.png","75","77.20000004768372","2","1","1","2","1,0.5,0.5,0.5,1,0.5,0.5,0.5,1","0.5,1,0.5,0.5,0.5,1,1,0.5,0.5","3","",""
"","html-keyboard-response","292","85277","0.0-292.0","","","","","null","<img src=""img/land2.png"" style=""width:200px; border:14px solid green;"">","null","","","","","","","","","",""
"","image-keyboard-response","293","85432","0.0-293.0","","","","","153.5","img/land1.png","76","154.59999990463257","3","1","3","2","1,0.5,0.5,0.5,1,0.5,0.5,0.5,1","0.5,1,0.5,0.5,0.5,1,1,0.5,0.5","3","",""
"","html-keyboard-response","294","85733","0.0-294.0","","","","","null","<img src=""img/land1.png"" style=""width:200px; border:14px solid green;"">","null","","","","","","","","","",""
"","image-keyboard-response","295","85936","0.0-295.0","","","","","201.79999995231628","img/land2.png","74","202.89999985694885","1","1","1","2","1,0.5,0.5,0.5,1,0.5,0.5,0.5,1","0.5,1,0.5,0.5,0.5,1,1,0.5,0.5","3","",""
"","html-keyboard-response","296","86249","0.0-296.0","","","","","null","<img src=""img/land2.png"" style=""width:200px; border:14px solid green;"">","null","","","","","","","","","",""
"","image-keyboard-response","297","86363","0.0-297.0","","","","","112.5","img/land1.png","74","113.20000004768372","1","1","3","2","1,0.5,0.5,0.5,1,0.5,0.5,0.5,1","0.5,1,0.5,0.5,0.5,1,1,0.5,0.5","3","",""
"","html-keyboard-response","298","86665","0.0-298.0","","","","","null","<img src=""img/land1.png"" style=""width:200px; border:14px solid green;"">","null","","","","","","","","","",""
"","image-keyboard-response","299","86799","0.0-299.0","","","","","133.59999990463257","img/land6.png","75","134.5","2","1","2","2","1,0.5,0.5,0.5,1,0.5,0.5,0.5,1","0.5,1,0.5,0.5,0.5,1,1,0.5,0.5","3","",""
"","html-keyboard-response","300","87101","0.0-300.0","","","","","null","<img src=""img/land6.png"" style=""width:200px; border:14px solid green;"">","null","","","","","","","","","",""
"","image-keyboard-response","301","87236","0.0-301.0","","","","","133.79999995231628","img/land2.png","75","134.5","2","1","1","2","1,0.5,0.5,0.5,1,0.5,0.5,0.5,1","0.5,1,0.5,0.5,0.5,1,1,0.5,0.5","3","",""
"","html-keyboard-response","302","87538","0.0-302.0","","","","","null","<img src=""img/land2.png"" style=""width:200px; border:14px solid green;"">","null","","","","","","","","","",""
"","image-keyboard-response","303","87641","0.0-303.0","","","","","102.69999980926514","img/land2.png","74","103.5","1","0","1","2","1,0.5,0.5,0.5,1,0.5,0.5,0.5,1","0.5,1,0.5,0.5,0.5,1,1,0.5,0.5","3","",""
"","html-keyboard-response","304","87943","0.0-304.0","","","","","null","<img src=""img/land2.png"" style=""width:200px;border:14px solid red;"">","null","","","","","","","","","",""
"","image-keyboard-response","305","88012","0.0-305.0","","","","","68.20000004768372","img/land2.png","75","69","2","1","1","2","1,0.5,0.5,0.5,1,0.5,0.5,0.5,1","0.5,1,0.5,0.5,0.5,1,1,0.5,0.5","3","",""
"","html-keyboard-response","306","88314","0.0-306.0","","","","","null","<img src=""img/land2.png"" style=""width:200px; border:14px solid green;"">","null","","","","","","","","","",""
"","image-keyboard-response","307","88408","0.0-307.0","","","","","92.70000004768372","img/land2.png","75","93.59999990463257","2","1","1","2","1,0.5,0.5,0.5,1,0.5,0.5,0.5,1","0.5,1,0.5,0.5,0.5,1,1,0.5,0.5","3","",""
"","html-keyboard-response","308","88719","0.0-308.0","","","","","null","<img src=""img/land2.png"" style=""width:200px; border:14px solid green;"">","null","","","","","","","","","",""
"","image-keyboard-response","309","88765","0.0-309.0","","","","","45.09999990463257","img/land6.png","76","45.700000047683716","3","1","2","2","1,0.5,0.5,0.5,1,0.5,0.5,0.5,1","0.5,1,0.5,0.5,0.5,1,1,0.5,0.5","3","",""
"","html-keyboard-response","310","89066","0.0-310.0","","","","","null","<img src=""img/land6.png"" style=""width:200px; border:14px solid green;"">","null","","","","","","","","","",""
"","image-keyboard-response","311","89281","0.0-311.0","","","","","213.90000009536743","img/land2.png","76","214.70000004768372","3","1","1","2","1,0.5,0.5,0.5,1,0.5,0.5,0.5,1","0.5,1,0.5,0.5,0.5,1,1,0.5,0.5","3","",""
"","html-keyboard-response","312","89583","0.0-312.0","","","","","null","<img src=""img/land2.png"" style=""width:200px; border:14px solid green;"">","null","","","","","","","","","",""
"","image-keyboard-response","313","89682","0.0-313.0","","","","","98","img/land2.png","75","99.39999985694885","2","1","1","2","1,0.5,0.5,0.5,1,0.5,0.5,0.5,1","0.5,1,0.5,0.5,0.5,1,1,0.5,0.5","3","",""
"","html-keyboard-response","314","89984","0.0-314.0","","","","","null","<img src=""img/land2.png"" style=""width:200px; border:14px solid green;"">","null","","","","","","","","","",""
"","image-keyboard-response","315","90152","0.0-315.0","","","","","165.89999985694885","img/land1.png","76","167.19999980926514","3","1","3","2","1,0.5,0.5,0.5,1,0.5,0.5,0.5,1","0.5,1,0.5,0.5,0.5,1,1,0.5,0.5","3","",""
"","html-keyboard-response","316","90453","0.0-316.0","","","","","null","<img src=""img/land1.png"" style=""width:200px; border:14px solid green;"">","null","","","","","","","","","",""
"","image-keyboard-response","317","90491","0.0-317.0","","","","","37.09999990463257","img/land2.png","76","38","3","0","1","2","1,0.5,0.5,0.5,1,0.5,0.5,0.5,1","0.5,1,0.5,0.5,0.5,1,1,0.5,0.5","3","",""
"","html-keyboard-response","318","90793","0.0-318.0","","","","","null","<img src=""img/land2.png"" style=""width:200px;border:14px solid red;"">","null","","","","","","","","","",""
"","image-keyboard-response","319","90904","0.0-319.0","","","","","109.59999990463257","img/land2.png","75","110.39999985694885","2","1","1","2","1,0.5,0.5,0.5,1,0.5,0.5,0.5,1","0.5,1,0.5,0.5,0.5,1,1,0.5,0.5","3","",""
"","html-keyboard-response","320","91206","0.0-320.0","","","","","null","<img src=""img/land2.png"" style=""width:200px; border:14px solid green;"">","null","","","","","","","","","",""
"","image-keyboard-response","321","91409","0.0-321.0","","","","","201.69999980926514","img/land1.png","75","202.39999985694885","2","1","3","2","1,0.5,0.5,0.5,1,0.5,0.5,0.5,1","0.5,1,0.5,0.5,0.5,1,1,0.5,0.5","3","",""
"","html-keyboard-response","322","91710","0.0-322.0","","","","","null","<img src=""img/land1.png"" style=""width:200px; border:14px solid green;"">","null","","","","","","","","","",""
"","image-keyboard-response","323","91752","0.0-323.0","","","","","40.700000047683716","img/land2.png","75","41.5","2","1","1","2","1,0.5,0.5,0.5,1,0.5,0.5,0.5,1","0.5,1,0.5,0.5,0.5,1,1,0.5,0.5","3","",""
"","html-keyboard-response","324","92053","0.0-324.0","","","","","null","<img src=""img/land2.png"" style=""width:200px; border:14px solid green;"">","null","","","","","","","","","",""
"","image-keyboard-response","325","92230","0.0-325.0","","","","","176.40000009536743","img/land2.png","74","177.20000004768372","1","0","1","2","1,0.5,0.5,0.5,1,0.5,0.5,0.5,1","0.5,1,0.5,0.5,0.5,1,1,0.5,0.5","3","",""
"","html-keyboard-response","326","92532","0.0-326.0","","","","","null","<img src=""img/land2.png"" style=""width:200px;border:14px solid red;"">","null","","","","","","","","","",""
"","image-keyboard-response","327","92722","0.0-327.0","","","","","188.59999990463257","img/land2.png","75","189.5","2","1","1","2","1,0.5,0.5,0.5,1,0.5,0.5,0.5,1","0.5,1,0.5,0.5,0.5,1,1,0.5,0.5","3","",""
"","html-keyboard-response","328","93024","0.0-328.0","","","","","null","<img src=""img/land2.png"" style=""width:200px; border:14px solid green;"">","null","","","","","","","","","",""
"","image-keyboard-response","329","93165","0.0-329.0","","","","","140.5","img/land2.png","75","141.39999985694885","2","1","1","2","1,0.5,0.5,0.5,1,0.5,0.5,0.5,1","0.5,1,0.5,0.5,0.5,1,1,0.5,0.5","3","",""
"","html-keyboard-response","330","93467","0.0-330.0","","","","","null","<img src=""img/land2.png"" style=""width:200px; border:14px solid green;"">","null","","","","","","","","","",""
"","image-keyboard-response","331","93590","0.0-331.0","","","","","121.5","img/land2.png","76","122.60000014305115","3","0","1","2","1,0.5,0.5,0.5,1,0.5,0.5,0.5,1","0.5,1,0.5,0.5,0.5,1,1,0.5,0.5","3","",""
"","html-keyboard-response","332","93892","0.0-332.0","","","","","null","<img src=""img/land2.png"" style=""width:200px;border:14px solid red;"">","null","","","","","","","","","",""
"","image-keyboard-response","333","94018","0.0-333.0","","","","","125.5","img/land6.png","74","126.39999985694885","1","0","2","2","1,0.5,0.5,0.5,1,0.5,0.5,0.5,1","0.5,1,0.5,0.5,0.5,1,1,0.5,0.5","3","",""
"","html-keyboard-response","334","94320","0.0-334.0","","","","","null","<img src=""img/land6.png"" style=""width:200px;border:14px solid red;"">","null","","","","","","","","","",""
"","image-keyboard-response","335","94441","0.0-335.0","","","","","120.29999995231628","img/land2.png","74","121.30000019073486","1","0","1","2","1,0.5,0.5,0.5,1,0.5,0.5,0.5,1","0.5,1,0.5,0.5,0.5,1,1,0.5,0.5","3","",""
"","html-keyboard-response","336","94743","0.0-336.0","","","","","null","<img src=""img/land2.png"" style=""width:200px;border:14px solid red;"">","null","","","","","","","","","",""
"","image-keyboard-response","337","95136","0.0-337.0","","","","","391.40000009536743","img/land1.png","75","392.59999990463257","2","0","3","2","1,0.5,0.5,0.5,1,0.5,0.5,0.5,1","0.5,1,0.5,0.5,0.5,1,1,0.5,0.5","3","",""
"","html-keyboard-response","338","95438","0.0-338.0","","","","","null","<img src=""img/land1.png"" style=""width:200px;border:14px solid red;"">","null","","","","","","","","","",""
"","image-keyboard-response","339","95737","0.0-339.0","","","","","298.2000000476837","img/land2.png","75","299.2000000476837","2","1","1","2","1,0.5,0.5,0.5,1,0.5,0.5,0.5,1","0.5,1,0.5,0.5,0.5,1,1,0.5,0.5","3","",""
"","html-keyboard-response","340","96039","0.0-340.0","","","","","null","<img src=""img/land2.png"" style=""width:200px; border:14px solid green;"">","null","","","","","","","","","",""
"","image-keyboard-response","341","96229","0.0-341.0","","","","","188.79999995231628","img/land2.png","74","189.90000009536743","1","1","1","2","1,0.5,0.5,0.5,1,0.5,0.5,0.5,1","0.5,1,0.5,0.5,0.5,1,1,0.5,0.5","3","",""
"","html-keyboard-response","342","96531","0.0-342.0","","","","","null","<img src=""img/land2.png"" style=""width:200px; border:14px solid green;"">","null","","","","","","","","","",""
"","image-keyboard-response","343","96916","0.0-343.0","","","","","383.7999999523163","img/land2.png","74","384.5","1","0","1","2","1,0.5,0.5,0.5,1,0.5,0.5,0.5,1","0.5,1,0.5,0.5,0.5,1,1,0.5,0.5","3","",""
"","html-keyboard-response","344","97217","0.0-344.0","","","","","null","<img src=""img/land2.png"" style=""width:200px;border:14px solid red;"">","null","","","","","","","","","",""
"","image-keyboard-response","345","97359","0.0-345.0","","","","","140.30000019073486","img/land1.png","75","141.59999990463257","2","0","3","2","1,0.5,0.5,0.5,1,0.5,0.5,0.5,1","0.5,1,0.5,0.5,0.5,1,1,0.5,0.5","3","",""
"","html-keyboard-response","346","97661","0.0-346.0","","","","","null","<img src=""img/land1.png"" style=""width:200px;border:14px solid red;"">","null","","","","","","","","","",""
"","image-keyboard-response","347","97728","0.0-347.0","","","","","65.90000009536743","img/land1.png","75","66.90000009536743","2","0","3","2","1,0.5,0.5,0.5,1,0.5,0.5,0.5,1","0.5,1,0.5,0.5,0.5,1,1,0.5,0.5","3","",""
"","html-keyboard-response","348","98030","0.0-348.0","","","","","null","<img src=""img/land1.png"" style=""width:200px;border:14px solid red;"">","null","","","","","","","","","",""
"","image-keyboard-response","349","98333","0.0-349.0","","","","","302.2999999523163","img/land2.png","76","303.09999990463257","3","1","1","2","1,0.5,0.5,0.5,1,0.5,0.5,0.5,1","0.5,1,0.5,0.5,0.5,1,1,0.5,0.5","3","",""
"","html-keyboard-response","350","98634","0.0-350.0","","","","","null","<img src=""img/land2.png"" style=""width:200px; border:14px solid green;"">","null","","","","","","","","","",""
"","image-keyboard-response","351","98643","0.0-351.0","","","","","7.299999952316284","img/land1.png","76","8.300000190734863","3","0","3","2","1,0.5,0.5,0.5,1,0.5,0.5,0.5,1","0.5,1,0.5,0.5,0.5,1,1,0.5,0.5","3","",""
"","html-keyboard-response","352","98944","0.0-352.0","","","","","null","<img src=""img/land1.png"" style=""width:200px;border:14px solid red;"">","null","","","","","","","","","",""
"","image-keyboard-response","353","99042","0.0-353.0","","","","","96.70000004768372","img/land1.png","76","97.79999995231628","3","1","3","2","1,0.5,0.5,0.5,1,0.5,0.5,0.5,1","0.5,1,0.5,0.5,0.5,1,1,0.5,0.5","3","",""
"","html-keyboard-response","354","99344","0.0-354.0","","","","","null","<img src=""img/land1.png"" style=""width:200px; border:14px solid green;"">","null","","","","","","","","","",""
"","image-keyboard-response","355","99432","0.0-355.0","","","","","86.5","img/land2.png","76","87.5","3","0","1","2","1,0.5,0.5,0.5,1,0.5,0.5,0.5,1","0.5,1,0.5,0.5,0.5,1,1,0.5,0.5","3","",""
"","html-keyboard-response","356","99733","0.0-356.0","","","","","null","<img src=""img/land2.png"" style=""width:200px;border:14px solid red;"">","null","","","","","","","","","",""
"","image-keyboard-response","357","99835","0.0-357.0","","","","","101.39999985694885","img/land2.png","75","102.19999980926514","2","1","1","2","1,0.5,0.5,0.5,1,0.5,0.5,0.5,1","0.5,1,0.5,0.5,0.5,1,1,0.5,0.5","3","",""
"","html-keyboard-response","358","100138","0.0-358.0","","","","","null","<img src=""img/land2.png"" style=""width:200px; border:14px solid green;"">","null","","","","","","","","","",""
"","image-keyboard-response","359","100161","0.0-359.0","","","","","22.5","img/land2.png","74","23.40000009536743","1","1","1","2","1,0.5,0.5,0.5,1,0.5,0.5,0.5,1","0.5,1,0.5,0.5,0.5,1,1,0.5,0.5","3","",""
"","html-keyboard-response","360","100463","0.0-360.0","","","","","null","<img src=""img/land2.png"" style=""width:200px; border:14px solid green;"">","null","","","","","","","","","",""
"","image-keyboard-response","361","100490","0.0-361.0","","","","","25.59999990463257","img/land2.png","74","26.5","1","0","1","2","1,0.5,0.5,0.5,1,0.5,0.5,0.5,1","0.5,1,0.5,0.5,0.5,1,1,0.5,0.5","3","",""
"","html-keyboard-response","362","100792","0.0-362.0","","","","","null","<img src=""img/land2.png"" style=""width:200px;border:14px solid red;"">","null","","","","","","","","","",""
"","image-keyboard-response","363","100860","0.0-363.0","","","","","67.20000004768372","img/land2.png","74","68.20000004768372","1","0","1","2","1,0.5,0.5,0.5,1,0.5,0.5,0.5,1","0.5,1,0.5,0.5,0.5,1,1,0.5,0.5","3","",""
"","html-keyboard-response","364","101162","0.0-364.0","","","","","null","<img src=""img/land2.png"" style=""width:200px;border:14px solid red;"">","null","","","","","","","","","",""
"","image-keyboard-response","365","101210","0.0-365.0","","","","","47.60000014305115","img/land2.png","75","48.299999952316284","2","1","1","2","1,0.5,0.5,0.5,1,0.5,0.5,0.5,1","0.5,1,0.5,0.5,0.5,1,1,0.5,0.5","3","",""
"","html-keyboard-response","366","101512","0.0-366.0","","","","","null","<img src=""img/land2.png"" style=""width:200px; border:14px solid green;"">","null","","","","","","","","","",""
"","image-keyboard-response","367","101562","0.0-367.0","","","","","49.200000047683716","img/land2.png","75","50.5","2","1","1","2","1,0.5,0.5,0.5,1,0.5,0.5,0.5,1","0.5,1,0.5,0.5,0.5,1,1,0.5,0.5","3","",""
"","html-keyboard-response","368","101864","0.0-368.0","","","","","null","<img src=""img/land2.png"" style=""width:200px; border:14px solid green;"">","null","","","","","","","","","",""
"","image-keyboard-response","369","101883","0.0-369.0","","","","","17.800000190734863","img/land6.png","76","18.5","3","1","2","2","1,0.5,0.5,0.5,1,0.5,0.5,0.5,1","0.5,1,0.5,0.5,0.5,1,1,0.5,0.5","3","",""
"","html-keyboard-response","370","102185","0.0-370.0","","","","","null","<img src=""img/land6.png"" style=""width:200px; border:14px solid green;"">","null","","","","","","","","","",""
"","image-keyboard-response","371","102195","0.0-371.0","","","","","8.599999904632568","img/land2.png","75","9.400000095367432","2","1","1","2","1,0.5,0.5,0.5,1,0.5,0.5,0.5,1","0.5,1,0.5,0.5,0.5,1,1,0.5,0.5","3","",""
"","html-keyboard-response","372","102496","0.0-372.0","","","","","null","<img src=""img/land2.png"" style=""width:200px; border:14px solid green;"">","null","","","","","","","","","",""
"","image-keyboard-response","373","102822","0.0-373.0","","","","","324.5","img/land6.png","76","325.2000000476837","3","1","2","2","1,0.5,0.5,0.5,1,0.5,0.5,0.5,1","0.5,1,0.5,0.5,0.5,1,1,0.5,0.5","3","",""
"","html-keyboard-response","374","103124","0.0-374.0","","","","","null","<img src=""img/land6.png"" style=""width:200px; border:14px solid green;"">","null","","","","","","","","","",""
"","image-keyboard-response","375","103322","0.0-375.0","","","","","196.29999995231628","img/land6.png","75","197.29999995231628","2","0","2","2","1,0.5,0.5,0.5,1,0.5,0.5,0.5,1","0.5,1,0.5,0.5,0.5,1,1,0.5,0.5","3","",""
"","html-keyboard-response","376","103623","0.0-376.0","","","","","null","<img src=""img/land6.png"" style=""width:200px;border:14px solid red;"">","null","","","","","","","","","",""
"","image-keyboard-response","377","103809","0.0-377.0","","","","","184.79999995231628","img/land2.png","74","186","1","1","1","2","1,0.5,0.5,0.5,1,0.5,0.5,0.5,1","0.5,1,0.5,0.5,0.5,1,1,0.5,0.5","3","",""
"","html-keyboard-response","378","104111","0.0-378.0","","","","","null","<img src=""img/land2.png"" style=""width:200px; border:14px solid green;"">","null","","","","","","","","","",""
"","image-keyboard-response","379","104279","0.0-379.0","","","","","167.5","img/land2.png","74","168.20000004768372","1","0","1","2","1,0.5,0.5,0.5,1,0.5,0.5,0.5,1","0.5,1,0.5,0.5,0.5,1,1,0.5,0.5","3","",""
"","html-keyboard-response","380","104580","0.0-380.0","","","","","null","<img src=""img/land2.png"" style=""width:200px;border:14px solid red;"">","null","","","","","","","","","",""
"","image-keyboard-response","381","104772","0.0-381.0","","","","","190.80000019073486","img/land2.png","75","191.60000014305115","2","1","1","2","1,0.5,0.5,0.5,1,0.5,0.5,0.5,1","0.5,1,0.5,0.5,0.5,1,1,0.5,0.5","3","",""
"","html-keyboard-response","382","105074","0.0-382.0","","","","","null","<img src=""img/land2.png"" style=""width:200px; border:14px solid green;"">","null","","","","","","","","","",""
"","image-keyboard-response","383","105305","0.0-383.0","","","","","230.29999995231628","img/land6.png","75","231","2","1","2","2","1,0.5,0.5,0.5,1,0.5,0.5,0.5,1","0.5,1,0.5,0.5,0.5,1,1,0.5,0.5","3","",""
"","html-keyboard-response","384","105606","0.0-384.0","","","","","null","<img src=""img/land6.png"" style=""width:200px; border:14px solid green;"">","null","","","","","","","","","",""
"","image-keyboard-response","385","105717","0.0-385.0","","","","","109.5","img/land2.png","74","110.5","1","0","1","2","1,0.5,0.5,0.5,1,0.5,0.5,0.5,1","0.5,1,0.5,0.5,0.5,1,1,0.5,0.5","3","",""
"","html-keyboard-response","386","106020","0.0-386.0","","","","","null","<img src=""img/land2.png"" style=""width:200px;border:14px solid red;"">","null","","","","","","","","","",""
"","image-keyboard-response","387","106254","0.0-387.0","","","","","232.89999985694885","img/land2.png","75","233.69999980926514","2","1","1","2","1,0.5,0.5,0.5,1,0.5,0.5,0.5,1","0.5,1,0.5,0.5,0.5,1,1,0.5,0.5","3","",""
"","html-keyboard-response","388","106556","0.0-388.0","","","","","null","<img src=""img/land2.png"" style=""width:200px; border:14px solid green;"">","null","","","","","","","","","",""
"","image-keyboard-response","389","106726","0.0-389.0","","","","","169.09999990463257","img/land1.png","75","170","2","1","3","2","1,0.5,0.5,0.5,1,0.5,0.5,0.5,1","0.5,1,0.5,0.5,0.5,1,1,0.5,0.5","3","",""
"","html-keyboard-response","390","107028","0.0-390.0","","","","","null","<img src=""img/land1.png"" style=""width:200px; border:14px solid green;"">","null","","","","","","","","","",""
"","image-keyboard-response","391","107370","0.0-391.0","","","","","341.09999990463257","img/land1.png","75","342.10000014305115","2","1","3","2","1,0.5,0.5,0.5,1,0.5,0.5,0.5,1","0.5,1,0.5,0.5,0.5,1,1,0.5,0.5","3","",""
"","html-keyboard-response","392","107672","0.0-392.0","","","","","null","<img src=""img/land1.png"" style=""width:200px; border:14px solid green;"">","null","","","","","","","","","",""
"","image-keyboard-response","393","107900","0.0-393.0","","","","","226.90000009536743","img/land1.png","75","227.59999990463257","2","0","3","2","1,0.5,0.5,0.5,1,0.5,0.5,0.5,1","0.5,1,0.5,0.5,0.5,1,1,0.5,0.5","3","",""
"","html-keyboard-response","394","108201","0.0-394.0","","","","","null","<img src=""img/land1.png"" style=""width:200px;border:14px solid red;"">","null","","","","","","","","","",""
"","image-keyboard-response","395","108220","0.0-395.0","","","","","18.300000190734863","img/land2.png","75","19","2","1","1","2","1,0.5,0.5,0.5,1,0.5,0.5,0.5,1","0.5,1,0.5,0.5,0.5,1,1,0.5,0.5","3","",""
"","html-keyboard-response","396","108521","0.0-396.0","","","","","null","<img src=""img/land2.png"" style=""width:200px; border:14px solid green;"">","null","","","","","","","","","",""
"","image-keyboard-response","397","108611","0.0-397.0","","","","","89.09999990463257","img/land2.png","75","89.79999995231628","2","1","1","2","1,0.5,0.5,0.5,1,0.5,0.5,0.5,1","0.5,1,0.5,0.5,0.5,1,1,0.5,0.5","3","",""
"","html-keyboard-response","398","108913","0.0-398.0","","","","","null","<img src=""img/land2.png"" style=""width:200px; border:14px solid green;"">","null","","","","","","","","","",""
"","image-keyboard-response","399","109108","0.0-399.0","","","","","193.79999995231628","img/land6.png","74","194.70000004768372","1","0","2","2","1,0.5,0.5,0.5,1,0.5,0.5,0.5,1","0.5,1,0.5,0.5,0.5,1,1,0.5,0.5","3","",""
"","html-keyboard-response","400","109409","0.0-400.0","","","","","null","<img src=""img/land6.png"" style=""width:200px;border:14px solid red;"">","null","","","","","","","","","",""
"","image-keyboard-response","401","109665","0.0-401.0","","","","","254.39999985694885","img/land1.png","75","255.70000004768372","2","1","3","2","1,0.5,0.5,0.5,1,0.5,0.5,0.5,1","0.5,1,0.5,0.5,0.5,1,1,0.5,0.5","3","",""
"","html-keyboard-response","402","109966","0.0-402.0","","","","","null","<img src=""img/land1.png"" style=""width:200px; border:14px solid green;"">","null","","","","","","","","","",""
"","image-keyboard-response","403","110228","0.0-403.0","","","","","261.5","img/land2.png","76","262.2000000476837","3","0","1","2","1,0.5,0.5,0.5,1,0.5,0.5,0.5,1","0.5,1,0.5,0.5,0.5,1,1,0.5,0.5","3","",""
"","html-keyboard-response","404","110530","0.0-404.0","","","","","null","<img src=""img/land2.png"" style=""width:200px;border:14px solid red;"">","null","","","","","","","","","",""
"","image-keyboard-response","405","110701","0.0-405.0","","","","","169.5","img/land2.png","75","170.40000009536743","2","1","1","2","1,0.5,0.5,0.5,1,0.5,0.5,0.5,1","0.5,1,0.5,0.5,0.5,1,1,0.5,0.5","3","",""
"","html-keyboard-response","406","111002","0.0-406.0","","","","","null","<img src=""img/land2.png"" style=""width:200px; border:14px solid green;"">","null","","","","","","","","","",""
"","image-keyboard-response","407","111243","0.0-407.0","","","","","240.29999995231628","img/land1.png","75","241","2","0","3","2","1,0.5,0.5,0.5,1,0.5,0.5,0.5,1","0.5,1,0.5,0.5,0.5,1,1,0.5,0.5","3","",""
"","html-keyboard-response","408","111543","0.0-408.0","","","","","null","<img src=""img/land1.png"" style=""width:200px;border:14px solid red;"">","null","","","","","","","","","",""
"","image-keyboard-response","409","111663","0.0-409.0","","","","","118.79999995231628","img/land2.png","74","119.40000009536743","1","1","1","2","1,0.5,0.5,0.5,1,0.5,0.5,0.5,1","0.5,1,0.5,0.5,0.5,1,1,0.5,0.5","3","",""
"","html-keyboard-response","410","111965","0.0-410.0","","","","","null","<img src=""img/land2.png"" style=""width:200px; border:14px solid green;"">","null","","","","","","","","","",""
"","image-keyboard-response","411","112230","0.0-411.0","","","","","263.5","img/land2.png","76","264.5","3","1","1","2","1,0.5,0.5,0.5,1,0.5,0.5,0.5,1","0.5,1,0.5,0.5,0.5,1,1,0.5,0.5","3","",""
"","html-keyboard-response","412","112532","0.0-412.0","","","","","null","<img src=""img/land2.png"" style=""width:200px; border:14px solid green;"">","null","","","","","","","","","",""
"","image-keyboard-response","413","112670","0.0-413.0","","","","","137","img/land2.png","75","137.90000009536743","2","1","1","2","1,0.5,0.5,0.5,1,0.5,0.5,0.5,1","0.5,1,0.5,0.5,0.5,1,1,0.5,0.5","3","",""
"","html-keyboard-response","414","112972","0.0-414.0","","","","","null","<img src=""img/land2.png"" style=""width:200px; border:14px solid green;"">","null","","","","","","","","","",""
"","image-keyboard-response","415","113116","0.0-415.0","","","","","142.79999995231628","img/land2.png","75","143.70000004768372","2","1","1","2","1,0.5,0.5,0.5,1,0.5,0.5,0.5,1","0.5,1,0.5,0.5,0.5,1,1,0.5,0.5","3","",""
"","html-keyboard-response","416","113418","0.0-416.0","","","","","null","<img src=""img/land2.png"" style=""width:200px; border:14px solid green;"">","null","","","","","","","","","",""
"","image-keyboard-response","417","113624","0.0-417.0","","","","","204.59999990463257","img/land1.png","76","205.69999980926514","3","1","3","2","1,0.5,0.5,0.5,1,0.5,0.5,0.5,1","0.5,1,0.5,0.5,0.5,1,1,0.5,0.5","3","",""
"","html-keyboard-response","418","113926","0.0-418.0","","","","","null","<img src=""img/land1.png"" style=""width:200px; border:14px solid green;"">","null","","","","","","","","","",""
"","image-keyboard-response","419","113975","0.0-419.0","","","","","47.799999952316284","img/land2.png","75","48.40000009536743","2","1","1","2","1,0.5,0.5,0.5,1,0.5,0.5,0.5,1","0.5,1,0.5,0.5,0.5,1,1,0.5,0.5","3","",""
"","html-keyboard-response","420","114277","0.0-420.0","","","","","null","<img src=""img/land2.png"" style=""width:200px; border:14px solid green;"">","null","","","","","","","","","",""
"","image-keyboard-response","421","114383","0.0-421.0","","","","","105.5","img/land2.png","74","106.60000014305115","1","0","1","2","1,0.5,0.5,0.5,1,0.5,0.5,0.5,1","0.5,1,0.5,0.5,0.5,1,1,0.5,0.5","3","",""
"","html-keyboard-response","422","114685","0.0-422.0","","","","","null","<img src=""img/land2.png"" style=""width:200px;border:14px solid red;"">","null","","","","","","","","","",""
"","image-keyboard-response","423","114818","0.0-423.0","","","","","131.5","img/land2.png","75","132.40000009536743","2","1","1","2","1,0.5,0.5,0.5,1,0.5,0.5,0.5,1","0.5,1,0.5,0.5,0.5,1,1,0.5,0.5","3","",""
"","html-keyboard-response","424","115120","0.0-424.0","","","","","null","<img src=""img/land2.png"" style=""width:200px; border:14px solid green;"">","null","","","","","","","","","",""
"","image-keyboard-response","425","115322","0.0-425.0","","","","","201.09999990463257","img/land2.png","76","201.80000019073486","3","1","1","2","1,0.5,0.5,0.5,1,0.5,0.5,0.5,1","0.5,1,0.5,0.5,0.5,1,1,0.5,0.5","3","",""
"","html-keyboard-response","426","115624","0.0-426.0","","","","","null","<img src=""img/land2.png"" style=""width:200px; border:14px solid green;"">","null","","","","","","","","","",""
"","image-keyboard-response","427","115755","0.0-427.0","","","","","129.20000004768372","img/land2.png","75","130.09999990463257","2","1","1","2","1,0.5,0.5,0.5,1,0.5,0.5,0.5,1","0.5,1,0.5,0.5,0.5,1,1,0.5,0.5","3","",""
"","html-keyboard-response","428","116057","0.0-428.0","","","","","null","<img src=""img/land2.png"" style=""width:200px; border:14px solid green;"">","null","","","","","","","","","",""
"","image-keyboard-response","429","116231","0.0-429.0","","","","","173.69999980926514","img/land2.png","74","174.39999985694885","1","1","1","2","1,0.5,0.5,0.5,1,0.5,0.5,0.5,1","0.5,1,0.5,0.5,0.5,1,1,0.5,0.5","3","",""
"","html-keyboard-response","430","116533","0.0-430.0","","","","","null","<img src=""img/land2.png"" style=""width:200px; border:14px solid green;"">","null","","","","","","","","","",""
"","image-keyboard-response","431","116767","0.0-431.0","","","","","233.40000009536743","img/land6.png","75","234.29999995231628","2","0","2","2","1,0.5,0.5,0.5,1,0.5,0.5,0.5,1","0.5,1,0.5,0.5,0.5,1,1,0.5,0.5","3","",""
"","html-keyboard-response","432","117069","0.0-432.0","","","","","null","<img src=""img/land6.png"" style=""width:200px;border:14px solid red;"">","null","","","","","","","","","",""
"","image-keyboard-response","433","117249","0.0-433.0","","","","","178.5","img/land2.png","75","179.60000014305115","2","1","1","2","1,0.5,0.5,0.5,1,0.5,0.5,0.5,1","0.5,1,0.5,0.5,0.5,1,1,0.5,0.5","3","",""
"","html-keyboard-response","434","117550","0.0-434.0","","","","","null","<img src=""img/land2.png"" style=""width:200px; border:14px solid green;"">","null","","","","","","","","","",""
"","image-keyboard-response","435","117769","0.0-435.0","","","","","218.20000004768372","img/land6.png","75","219","2","1","2","2","1,0.5,0.5,0.5,1,0.5,0.5,0.5,1","0.5,1,0.5,0.5,0.5,1,1,0.5,0.5","3","",""
"","html-keyboard-response","436","118071","0.0-436.0","","","","","null","<img src=""img/land6.png"" style=""width:200px; border:14px solid green;"">","null","","","","","","","","","",""
"","image-keyboard-response","437","118285","0.0-437.0","","","","","213.29999995231628","img/land2.png","76","214.20000004768372","3","0","1","2","1,0.5,0.5,0.5,1,0.5,0.5,0.5,1","0.5,1,0.5,0.5,0.5,1,1,0.5,0.5","3","",""
"","html-keyboard-response","438","118587","0.0-438.0","","","","","null","<img src=""img/land2.png"" style=""width:200px;border:14px solid red;"">","null","","","","","","","","","",""
"","image-keyboard-response","439","118782","0.0-439.0","","","","","193.5","img/land6.png","75","194.29999995231628","2","0","2","2","1,0.5,0.5,0.5,1,0.5,0.5,0.5,1","0.5,1,0.5,0.5,0.5,1,1,0.5,0.5","3","",""
"","html-keyboard-response","440","119083","0.0-440.0","","","","","null","<img src=""img/land6.png"" style=""width:200px;border:14px solid red;"">","null","","","","","","","","","",""
"","image-keyboard-response","441","119275","0.0-441.0","","","","","190.59999990463257","img/land1.png","75","191.5","2","1","3","2","1,0.5,0.5,0.5,1,0.5,0.5,0.5,1","0.5,1,0.5,0.5,0.5,1,1,0.5,0.5","3","",""
"","html-keyboard-response","442","119576","0.0-442.0","","","","","null","<img src=""img/land1.png"" style=""width:200px; border:14px solid green;"">","null","","","","","","","","","",""
"","image-keyboard-response","443","119793","0.0-443.0","","","","","214.70000004768372","img/land6.png","75","215.89999985694885","2","1","2","2","1,0.5,0.5,0.5,1,0.5,0.5,0.5,1","0.5,1,0.5,0.5,0.5,1,1,0.5,0.5","3","",""
"","html-keyboard-response","444","120095","0.0-444.0","","","","","null","<img src=""img/land6.png"" style=""width:200px; border:14px solid green;"">","null","","","","","","","","","",""
"","image-keyboard-response","445","120157","0.0-445.0","","","","","60.89999985694885","img/land1.png","74","61.89999985694885","1","1","3","2","1,0.5,0.5,0.5,1,0.5,0.5,0.5,1","0.5,1,0.5,0.5,0.5,1,1,0.5,0.5","3","",""
"","html-keyboard-response","446","120467","0.0-446.0","","","","","null","<img src=""img/land1.png"" style=""width:200px; border:14px solid green;"">","null","","","","","","","","","",""
"","image-keyboard-response","447","120646","0.0-447.0","","","","","177.60000014305115","img/land6.png","75","178.79999995231628","2","0","2","2","1,0.5,0.5,0.5,1,0.5,0.5,0.5,1","0.5,1,0.5,0.5,0.5,1,1,0.5,0.5","3","",""
"","html-keyboard-response","448","120948","0.0-448.0","","","","","null","<img src=""img/land6.png"" style=""width:200px;border:14px solid red;"">","null","","","","","","","","","",""
"","image-keyboard-response","449","121101","0.0-449.0","","","","","152.79999995231628","img/land6.png","76","153.40000009536743","3","1","2","2","1,0.5,0.5,0.5,1,0.5,0.5,0.5,1","0.5,1,0.5,0.5,0.5,1,1,0.5,0.5","3","",""
"","html-keyboard-response","450","121402","0.0-450.0","","","","","null","<img src=""img/land6.png"" style=""width:200px; border:14px solid green;"">","null","","","","","","","","","",""
"","image-keyboard-response","451","121586","0.0-451.0","","","","","182.30000019073486","img/land1.png","74","183.30000019073486","1","1","3","2","1,0.5,0.5,0.5,1,0.5,0.5,0.5,1","0.5,1,0.5,0.5,0.5,1,1,0.5,0.5","3","",""
"","html-keyboard-response","452","121888","0.0-452.0","","","","","null","<img src=""img/land1.png"" style=""width:200px; border:14px solid green;"">","null","","","","","","","","","",""
"","image-keyboard-response","453","122060","0.0-453.0","","","","","171","img/land1.png","75","171.79999995231628","2","0","3","2","1,0.5,0.5,0.5,1,0.5,0.5,0.5,1","0.5,1,0.5,0.5,0.5,1,1,0.5,0.5","3","",""
"","html-keyboard-response","454","122361","0.0-454.0","","","","","null","<img src=""img/land1.png"" style=""width:200px;border:14px solid red;"">","null","","","","","","","","","",""
"","image-keyboard-response","455","122590","0.0-455.0","","","","","228.09999990463257","img/land2.png","76","228.79999995231628","3","1","1","2","1,0.5,0.5,0.5,1,0.5,0.5,0.5,1","0.5,1,0.5,0.5,0.5,1,1,0.5,0.5","3","",""
"","html-keyboard-response","456","122892","0.0-456.0","","","","","null","<img src=""img/land2.png"" style=""width:200px; border:14px solid green;"">","null","","","","","","","","","",""
"","image-keyboard-response","457","123068","0.0-457.0","","","","","175.29999995231628","img/land1.png","75","176","2","0","3","2","1,0.5,0.5,0.5,1,0.5,0.5,0.5,1","0.5,1,0.5,0.5,0.5,1,1,0.5,0.5","3","",""
"","html-keyboard-response","458","123371","0.0-458.0","","","","","null","<img src=""img/land1.png"" style=""width:200px;border:14px solid red;"">","null","","","","","","","","","",""
"","image-keyboard-response","459","123523","0.0-459.0","","","","","150.90000009536743","img/land1.png","76","151.79999995231628","3","1","3","2","1,0.5,0.5,0.5,1,0.5,0.5,0.5,1","0.5,1,0.5,0.5,0.5,1,1,0.5,0.5","3","",""
"","html-keyboard-response","460","123824","0.0-460.0","","","","","null","<img src=""img/land1.png"" style=""width:200px; border:14px solid green;"">","null","","","","","","","","","",""
"","image-keyboard-response","461","124029","0.0-461.0","","","","","203.79999995231628","img/land2.png","74","204.60000014305115","1","0","1","2","1,0.5,0.5,0.5,1,0.5,0.5,0.5,1","0.5,1,0.5,0.5,0.5,1,1,0.5,0.5","3","",""
"","html-keyboard-response","462","124331","0.0-462.0","","","","","null","<img src=""img/land2.png"" style=""width:200px;border:14px solid red;"">","null","","","","","","","","","",""
"","image-keyboard-response","463","124550","0.0-463.0","","","","","218.5","img/land2.png","75","219.39999985694885","2","1","1","2","1,0.5,0.5,0.5,1,0.5,0.5,0.5,1","0.5,1,0.5,0.5,0.5,1,1,0.5,0.5","3","",""
"","html-keyboard-response","464","124852","0.0-464.0","","","","","null","<img src=""img/land2.png"" style=""width:200px; border:14px solid green;"">","null","","","","","","","","","",""
"","image-keyboard-response","465","125042","0.0-465.0","","","","","188.70000004768372","img/land2.png","76","189.69999980926514","3","0","1","2","1,0.5,0.5,0.5,1,0.5,0.5,0.5,1","0.5,1,0.5,0.5,0.5,1,1,0.5,0.5","3","",""
"","html-keyboard-response","466","125343","0.0-466.0","","","","","null","<img src=""img/land2.png"" style=""width:200px;border:14px solid red;"">","null","","","","","","","","","",""
"","image-keyboard-response","467","125529","0.0-467.0","","","","","184.5","img/land2.png","74","185.29999995231628","1","0","1","2","1,0.5,0.5,0.5,1,0.5,0.5,0.5,1","0.5,1,0.5,0.5,0.5,1,1,0.5,0.5","3","",""
"","html-keyboard-response","468","125831","0.0-468.0","","","","","null","<img src=""img/land2.png"" style=""width:200px;border:14px solid red;"">","null","","","","","","","","","",""
"","image-keyboard-response","469","126032","0.0-469.0","","","","","200.20000004768372","img/land2.png","75","200.90000009536743","2","1","1","2","1,0.5,0.5,0.5,1,0.5,0.5,0.5,1","0.5,1,0.5,0.5,0.5,1,1,0.5,0.5","3","",""
"","html-keyboard-response","470","126333","0.0-470.0","","","","","null","<img src=""img/land2.png"" style=""width:200px; border:14px solid green;"">","null","","","","","","","","","",""
"","image-keyboard-response","471","126560","0.0-471.0","","","","","225.70000004768372","img/land6.png","76","226.60000014305115","3","1","2","2","1,0.5,0.5,0.5,1,0.5,0.5,0.5,1","0.5,1,0.5,0.5,0.5,1,1,0.5,0.5","3","",""
"","html-keyboard-response","472","126862","0.0-472.0","","","","","null","<img src=""img/land6.png"" style=""width:200px; border:14px solid green;"">","null","","","","","","","","","",""
"","image-keyboard-response","473","127045","0.0-473.0","","","","","182.40000009536743","img/land6.png","75","183.20000004768372","2","1","2","2","1,0.5,0.5,0.5,1,0.5,0.5,0.5,1","0.5,1,0.5,0.5,0.5,1,1,0.5,0.5","3","",""
"","html-keyboard-response","474","127346","0.0-474.0","","","","","null","<img src=""img/land6.png"" style=""width:200px; border:14px solid green;"">","null","","","","","","","","","",""
"","image-keyboard-response","475","127528","0.0-475.0","","","","","180.5","img/land2.png","75","181.40000009536743","2","1","1","2","1,0.5,0.5,0.5,1,0.5,0.5,0.5,1","0.5,1,0.5,0.5,0.5,1,1,0.5,0.5","3","",""
"","html-keyboard-response","476","127829","0.0-476.0","","","","","null","<img src=""img/land2.png"" style=""width:200px; border:14px solid green;"">","null","","","","","","","","","",""
"","image-keyboard-response","477","127990","0.0-477.0","","","","","159.79999995231628","img/land2.png","76","160.59999990463257","3","0","1","2","1,0.5,0.5,0.5,1,0.5,0.5,0.5,1","0.5,1,0.5,0.5,0.5,1,1,0.5,0.5","3","",""
"","html-keyboard-response","478","128291","0.0-478.0","","","","","null","<img src=""img/land2.png"" style=""width:200px;border:14px solid red;"">","null","","","","","","","","","",""
"","image-keyboard-response","479","128460","0.0-479.0","","","","","167.29999995231628","img/land2.png","74","168.20000004768372","1","1","1","2","1,0.5,0.5,0.5,1,0.5,0.5,0.5,1","0.5,1,0.5,0.5,0.5,1,1,0.5,0.5","3","",""
"","html-keyboard-response","480","128761","0.0-480.0","","","","","null","<img src=""img/land2.png"" style=""width:200px; border:14px solid green;"">","null","","","","","","","","","",""
"","image-keyboard-response","481","128972","0.0-481.0","","","","","210.10000014305115","img/land2.png","75","210.90000009536743","2","1","1","2","1,0.5,0.5,0.5,1,0.5,0.5,0.5,1","0.5,1,0.5,0.5,0.5,1,1,0.5,0.5","3","",""
"","html-keyboard-response","482","129274","0.0-482.0","","","","","null","<img src=""img/land2.png"" style=""width:200px; border:14px solid green;"">","null","","","","","","","","","",""
"","instructions","483","131499","0.0-483.0","","","","[{""page_index"":0,""viewing_time"":2224.5999999046326}]","2224.899999856949","","","","","","","","","","","",""
"","survey-text","484","137773","0.0-484.0-0.0","","","","","6270.100000143051","","","","","","","","","","","{""Q0"":""32""}",""
"","survey-multi-choice","485","140871","0.0-484.0-1.0","","","","","3096.7000000476837","","","","","","","","","","","{""gender"":""F""}","[0]"
"","survey-text","486","146788","0.0-485.0","","","","","5914.900000095367","","","","","","","","","","","{""Q0"":""ATP2BJPDK4K2B""}",""
