"success","trial_type","trial_index","time_elapsed","internal_node_id","assignmentID","mturkID","hitID","view_history","rt","stimulus","key_press","reactionTime","a","r","s","cond","reward_cond","reward_cond_actual","reward_matrix_idx","responses","question_order"
"true","fullscreen","0","5291","0.0-0.0","3F6KKYWMNCN8Y7ACBXUBFB5756YNDJ","AURYD2FH3FUOQ","3UDTAB6HH6LRO17U79I9TKUGYFV09C","","","","","","","","","","","","","",""
"","instructions","1","42709","0.0-1.0","3F6KKYWMNCN8Y7ACBXUBFB5756YNDJ","AURYD2FH3FUOQ","3UDTAB6HH6LRO17U79I9TKUGYFV09C","[{""page_index"":0,""viewing_time"":5839.100000008941},{""page_index"":1,""viewing_time"":3589.2000000029802},{""page_index"":2,""viewing_time"":3575.199999988079},{""page_index"":3,""viewing_time"":5423.4000000059605},{""page_index"":4,""viewing_time"":3917.4000000059605},{""page_index"":5,""viewing_time"":11346.5},{""page_index"":6,""viewing_time"":3721.199999988079}]","37412.80000001192","","","","","","","","","","","",""
"","image-keyboard-response","2","44423","0.0-2.0","3F6KKYWMNCN8Y7ACBXUBFB5756YNDJ","AURYD2FH3FUOQ","3UDTAB6HH6LRO17U79I9TKUGYFV09C","","1708.5","img/land5.png","74","1713.0999999940395","1","0","2","1","0.8,0.2,0.2,0.2,0.8,0.2,0.2,0.2,0.8","0.8,0.2,0.2,0.2,0.8,0.2,0.2,0.2,0.8","1","",""
"","html-keyboard-response","3","44730","0.0-3.0","3F6KKYWMNCN8Y7ACBXUBFB5756YNDJ","AURYD2FH3FUOQ","3UDTAB6HH6LRO17U79I9TKUGYFV09C","","null","<img src=""img/land5.png"" style=""width:200px;border:14px solid red;"">","null","","","","","","","","","",""
"","image-keyboard-response","4","46168","0.0-4.0","3F6KKYWMNCN8Y7ACBXUBFB5756YNDJ","AURYD2FH3FUOQ","3UDTAB6HH6LRO17U79I9TKUGYFV09C","","1434.6000000089407","img/land5.png","74","1437.2999999970198","1","0","2","1","0.8,0.2,0.2,0.2,0.8,0.2,0.2,0.2,0.8","0.8,0.2,0.2,0.2,0.8,0.2,0.2,0.2,0.8","1","",""
"","html-keyboard-response","5","46473","0.0-5.0","3F6KKYWMNCN8Y7ACBXUBFB5756YNDJ","AURYD2FH3FUOQ","3UDTAB6HH6LRO17U79I9TKUGYFV09C","","null","<img src=""img/land5.png"" style=""width:200px;border:14px solid red;"">","null","","","","","","","","","",""
"","image-keyboard-response","6","47610","0.0-6.0","3F6KKYWMNCN8Y7ACBXUBFB5756YNDJ","AURYD2FH3FUOQ","3UDTAB6HH6LRO17U79I9TKUGYFV09C","","1134.4000000059605","img/land1.png","75","1136.5999999940395","2","1","1","1","0.8,0.2,0.2,0.2,0.8,0.2,0.2,0.2,0.8","0.8,0.2,0.2,0.2,0.8,0.2,0.2,0.2,0.8","1","",""
"","html-keyboard-response","7","47914","0.0-7.0","3F6KKYWMNCN8Y7ACBXUBFB5756YNDJ","AURYD2FH3FUOQ","3UDTAB6HH6LRO17U79I9TKUGYFV09C","","null","<img src=""img/land1.png"" style=""width:200px; border:14px solid green;"">","null","","","","","","","","","",""
"","image-keyboard-response","8","49537","0.0-8.0","3F6KKYWMNCN8Y7ACBXUBFB5756YNDJ","AURYD2FH3FUOQ","3UDTAB6HH6LRO17U79I9TKUGYFV09C","","1620.2000000029802","img/land2.png","76","1622.1000000089407","3","0","3","1","0.8,0.2,0.2,0.2,0.8,0.2,0.2,0.2,0.8","0.8,0.2,0.2,0.2,0.8,0.2,0.2,0.2,0.8","1","",""
"","html-keyboard-response","9","49839","0.0-9.0","3F6KKYWMNCN8Y7ACBXUBFB5756YNDJ","AURYD2FH3FUOQ","3UDTAB6HH6LRO17U79I9TKUGYFV09C","","null","<img src=""img/land2.png"" style=""width:200px;border:14px solid red;"">","null","","","","","","","","","",""
"","image-keyboard-response","10","51321","0.0-10.0","3F6KKYWMNCN8Y7ACBXUBFB5756YNDJ","AURYD2FH3FUOQ","3UDTAB6HH6LRO17U79I9TKUGYFV09C","","1478.5","img/land5.png","75","1481.2999999970198","2","1","2","1","0.8,0.2,0.2,0.2,0.8,0.2,0.2,0.2,0.8","0.8,0.2,0.2,0.2,0.8,0.2,0.2,0.2,0.8","1","",""
"","html-keyboard-response","11","51626","0.0-11.0","3F6KKYWMNCN8Y7ACBXUBFB5756YNDJ","AURYD2FH3FUOQ","3UDTAB6HH6LRO17U79I9TKUGYFV09C","","null","<img src=""img/land5.png"" style=""width:200px; border:14px solid green;"">","null","","","","","","","","","",""
"","image-keyboard-response","12","52919","0.0-12.0","3F6KKYWMNCN8Y7ACBXUBFB5756YNDJ","AURYD2FH3FUOQ","3UDTAB6HH6LRO17U79I9TKUGYFV09C","","1291.3999999910593","img/land2.png","74","1292.5999999940395","1","0","3","1","0.8,0.2,0.2,0.2,0.8,0.2,0.2,0.2,0.8","0.8,0.2,0.2,0.2,0.8,0.2,0.2,0.2,0.8","1","",""
"","html-keyboard-response","13","53221","0.0-13.0","3F6KKYWMNCN8Y7ACBXUBFB5756YNDJ","AURYD2FH3FUOQ","3UDTAB6HH6LRO17U79I9TKUGYFV09C","","null","<img src=""img/land2.png"" style=""width:200px;border:14px solid red;"">","null","","","","","","","","","",""
"","image-keyboard-response","14","54934","0.0-14.0","3F6KKYWMNCN8Y7ACBXUBFB5756YNDJ","AURYD2FH3FUOQ","3UDTAB6HH6LRO17U79I9TKUGYFV09C","","1711.4000000059605","img/land5.png","75","1713","2","1","2","1","0.8,0.2,0.2,0.2,0.8,0.2,0.2,0.2,0.8","0.8,0.2,0.2,0.2,0.8,0.2,0.2,0.2,0.8","1","",""
"","html-keyboard-response","15","55237","0.0-15.0","3F6KKYWMNCN8Y7ACBXUBFB5756YNDJ","AURYD2FH3FUOQ","3UDTAB6HH6LRO17U79I9TKUGYFV09C","","null","<img src=""img/land5.png"" style=""width:200px; border:14px solid green;"">","null","","","","","","","","","",""
"","image-keyboard-response","16","56714","0.0-16.0","3F6KKYWMNCN8Y7ACBXUBFB5756YNDJ","AURYD2FH3FUOQ","3UDTAB6HH6LRO17U79I9TKUGYFV09C","","1475.8999999910593","img/land2.png","74","1477","1","0","3","1","0.8,0.2,0.2,0.2,0.8,0.2,0.2,0.2,0.8","0.8,0.2,0.2,0.2,0.8,0.2,0.2,0.2,0.8","1","",""
"","html-keyboard-response","17","57017","0.0-17.0","3F6KKYWMNCN8Y7ACBXUBFB5756YNDJ","AURYD2FH3FUOQ","3UDTAB6HH6LRO17U79I9TKUGYFV09C","","null","<img src=""img/land2.png"" style=""width:200px;border:14px solid red;"">","null","","","","","","","","","",""
"","image-keyboard-response","18","58284","0.0-18.0","3F6KKYWMNCN8Y7ACBXUBFB5756YNDJ","AURYD2FH3FUOQ","3UDTAB6HH6LRO17U79I9TKUGYFV09C","","1265.4000000059605","img/land2.png","76","1267.4000000059605","3","1","3","1","0.8,0.2,0.2,0.2,0.8,0.2,0.2,0.2,0.8","0.8,0.2,0.2,0.2,0.8,0.2,0.2,0.2,0.8","1","",""
"","html-keyboard-response","19","58587","0.0-19.0","3F6KKYWMNCN8Y7ACBXUBFB5756YNDJ","AURYD2FH3FUOQ","3UDTAB6HH6LRO17U79I9TKUGYFV09C","","null","<img src=""img/land2.png"" style=""width:200px; border:14px solid green;"">","null","","","","","","","","","",""
"","image-keyboard-response","20","59801","0.0-20.0","3F6KKYWMNCN8Y7ACBXUBFB5756YNDJ","AURYD2FH3FUOQ","3UDTAB6HH6LRO17U79I9TKUGYFV09C","","1208.2000000029802","img/land5.png","75","1210.9000000059605","2","1","2","1","0.8,0.2,0.2,0.2,0.8,0.2,0.2,0.2,0.8","0.8,0.2,0.2,0.2,0.8,0.2,0.2,0.2,0.8","1","",""
"","html-keyboard-response","21","60104","0.0-21.0","3F6KKYWMNCN8Y7ACBXUBFB5756YNDJ","AURYD2FH3FUOQ","3UDTAB6HH6LRO17U79I9TKUGYFV09C","","null","<img src=""img/land5.png"" style=""width:200px; border:14px solid green;"">","null","","","","","","","","","",""
"","image-keyboard-response","22","61248","0.0-22.0","3F6KKYWMNCN8Y7ACBXUBFB5756YNDJ","AURYD2FH3FUOQ","3UDTAB6HH6LRO17U79I9TKUGYFV09C","","1141.4000000059605","img/land2.png","76","1143.5","3","1","3","1","0.8,0.2,0.2,0.2,0.8,0.2,0.2,0.2,0.8","0.8,0.2,0.2,0.2,0.8,0.2,0.2,0.2,0.8","1","",""
"","html-keyboard-response","23","61553","0.0-23.0","3F6KKYWMNCN8Y7ACBXUBFB5756YNDJ","AURYD2FH3FUOQ","3UDTAB6HH6LRO17U79I9TKUGYFV09C","","null","<img src=""img/land2.png"" style=""width:200px; border:14px solid green;"">","null","","","","","","","","","",""
"","image-keyboard-response","24","62681","0.0-24.0","3F6KKYWMNCN8Y7ACBXUBFB5756YNDJ","AURYD2FH3FUOQ","3UDTAB6HH6LRO17U79I9TKUGYFV09C","","1124.699999988079","img/land1.png","75","1126.8999999910593","2","1","1","1","0.8,0.2,0.2,0.2,0.8,0.2,0.2,0.2,0.8","0.8,0.2,0.2,0.2,0.8,0.2,0.2,0.2,0.8","1","",""
"","html-keyboard-response","25","62986","0.0-25.0","3F6KKYWMNCN8Y7ACBXUBFB5756YNDJ","AURYD2FH3FUOQ","3UDTAB6HH6LRO17U79I9TKUGYFV09C","","null","<img src=""img/land1.png"" style=""width:200px; border:14px solid green;"">","null","","","","","","","","","",""
"","image-keyboard-response","26","64006","0.0-26.0","3F6KKYWMNCN8Y7ACBXUBFB5756YNDJ","AURYD2FH3FUOQ","3UDTAB6HH6LRO17U79I9TKUGYFV09C","","1017.5999999940395","img/land1.png","75","1019.7999999970198","2","0","1","1","0.8,0.2,0.2,0.2,0.8,0.2,0.2,0.2,0.8","0.8,0.2,0.2,0.2,0.8,0.2,0.2,0.2,0.8","1","",""
"","html-keyboard-response","27","64311","0.0-27.0","3F6KKYWMNCN8Y7ACBXUBFB5756YNDJ","AURYD2FH3FUOQ","3UDTAB6HH6LRO17U79I9TKUGYFV09C","","null","<img src=""img/land1.png"" style=""width:200px;border:14px solid red;"">","null","","","","","","","","","",""
"","image-keyboard-response","28","65733","0.0-28.0","3F6KKYWMNCN8Y7ACBXUBFB5756YNDJ","AURYD2FH3FUOQ","3UDTAB6HH6LRO17U79I9TKUGYFV09C","","1419.7000000029802","img/land2.png","76","1421.5999999940395","3","1","3","1","0.8,0.2,0.2,0.2,0.8,0.2,0.2,0.2,0.8","0.8,0.2,0.2,0.2,0.8,0.2,0.2,0.2,0.8","1","",""
"","html-keyboard-response","29","66037","0.0-29.0","3F6KKYWMNCN8Y7ACBXUBFB5756YNDJ","AURYD2FH3FUOQ","3UDTAB6HH6LRO17U79I9TKUGYFV09C","","null","<img src=""img/land2.png"" style=""width:200px; border:14px solid green;"">","null","","","","","","","","","",""
"","image-keyboard-response","30","67049","0.0-30.0","3F6KKYWMNCN8Y7ACBXUBFB5756YNDJ","AURYD2FH3FUOQ","3UDTAB6HH6LRO17U79I9TKUGYFV09C","","1009.7999999970198","img/land2.png","76","1011.6000000089407","3","1","3","1","0.8,0.2,0.2,0.2,0.8,0.2,0.2,0.2,0.8","0.8,0.2,0.2,0.2,0.8,0.2,0.2,0.2,0.8","1","",""
"","html-keyboard-response","31","67352","0.0-31.0","3F6KKYWMNCN8Y7ACBXUBFB5756YNDJ","AURYD2FH3FUOQ","3UDTAB6HH6LRO17U79I9TKUGYFV09C","","null","<img src=""img/land2.png"" style=""width:200px; border:14px solid green;"">","null","","","","","","","","","",""
"","image-keyboard-response","32","68545","0.0-32.0","3F6KKYWMNCN8Y7ACBXUBFB5756YNDJ","AURYD2FH3FUOQ","3UDTAB6HH6LRO17U79I9TKUGYFV09C","","1189.7000000029802","img/land1.png","75","1191.8999999910593","2","0","1","1","0.8,0.2,0.2,0.2,0.8,0.2,0.2,0.2,0.8","0.8,0.2,0.2,0.2,0.8,0.2,0.2,0.2,0.8","1","",""
"","html-keyboard-response","33","68848","0.0-33.0","3F6KKYWMNCN8Y7ACBXUBFB5756YNDJ","AURYD2FH3FUOQ","3UDTAB6HH6LRO17U79I9TKUGYFV09C","","null","<img src=""img/land1.png"" style=""width:200px;border:14px solid red;"">","null","","","","","","","","","",""
"","image-keyboard-response","34","70159","0.0-34.0","3F6KKYWMNCN8Y7ACBXUBFB5756YNDJ","AURYD2FH3FUOQ","3UDTAB6HH6LRO17U79I9TKUGYFV09C","","1308.0999999940395","img/land2.png","76","1310.0999999940395","3","1","3","1","0.8,0.2,0.2,0.2,0.8,0.2,0.2,0.2,0.8","0.8,0.2,0.2,0.2,0.8,0.2,0.2,0.2,0.8","1","",""
"","html-keyboard-response","35","70463","0.0-35.0","3F6KKYWMNCN8Y7ACBXUBFB5756YNDJ","AURYD2FH3FUOQ","3UDTAB6HH6LRO17U79I9TKUGYFV09C","","null","<img src=""img/land2.png"" style=""width:200px; border:14px solid green;"">","null","","","","","","","","","",""
"","image-keyboard-response","36","71648","0.0-36.0","3F6KKYWMNCN8Y7ACBXUBFB5756YNDJ","AURYD2FH3FUOQ","3UDTAB6HH6LRO17U79I9TKUGYFV09C","","1182.7999999970198","img/land2.png","76","1184.7999999970198","3","0","3","1","0.8,0.2,0.2,0.2,0.8,0.2,0.2,0.2,0.8","0.8,0.2,0.2,0.2,0.8,0.2,0.2,0.2,0.8","1","",""
"","html-keyboard-response","37","71951","0.0-37.0","3F6KKYWMNCN8Y7ACBXUBFB5756YNDJ","AURYD2FH3FUOQ","3UDTAB6HH6LRO17U79I9TKUGYFV09C","","null","<img src=""img/land2.png"" style=""width:200px;border:14px solid red;"">","null","","","","","","","","","",""
"","image-keyboard-response","38","73231","0.0-38.0","3F6KKYWMNCN8Y7ACBXUBFB5756YNDJ","AURYD2FH3FUOQ","3UDTAB6HH6LRO17U79I9TKUGYFV09C","","1278.0999999940395","img/land5.png","75","1280","2","1","2","1","0.8,0.2,0.2,0.2,0.8,0.2,0.2,0.2,0.8","0.8,0.2,0.2,0.2,0.8,0.2,0.2,0.2,0.8","1","",""
"","html-keyboard-response","39","73536","0.0-39.0","3F6KKYWMNCN8Y7ACBXUBFB5756YNDJ","AURYD2FH3FUOQ","3UDTAB6HH6LRO17U79I9TKUGYFV09C","","null","<img src=""img/land5.png"" style=""width:200px; border:14px solid green;"">","null","","","","","","","","","",""
"","image-keyboard-response","40","74510","0.0-40.0","3F6KKYWMNCN8Y7ACBXUBFB5756YNDJ","AURYD2FH3FUOQ","3UDTAB6HH6LRO17U79I9TKUGYFV09C","","971.6000000089407","img/land5.png","75","973.6000000089407","2","1","2","1","0.8,0.2,0.2,0.2,0.8,0.2,0.2,0.2,0.8","0.8,0.2,0.2,0.2,0.8,0.2,0.2,0.2,0.8","1","",""
"","html-keyboard-response","41","74813","0.0-41.0","3F6KKYWMNCN8Y7ACBXUBFB5756YNDJ","AURYD2FH3FUOQ","3UDTAB6HH6LRO17U79I9TKUGYFV09C","","null","<img src=""img/land5.png"" style=""width:200px; border:14px solid green;"">","null","","","","","","","","","",""
"","image-keyboard-response","42","75692","0.0-42.0","3F6KKYWMNCN8Y7ACBXUBFB5756YNDJ","AURYD2FH3FUOQ","3UDTAB6HH6LRO17U79I9TKUGYFV09C","","875.7000000029802","img/land5.png","75","878.0999999940395","2","0","2","1","0.8,0.2,0.2,0.2,0.8,0.2,0.2,0.2,0.8","0.8,0.2,0.2,0.2,0.8,0.2,0.2,0.2,0.8","1","",""
"","html-keyboard-response","43","75996","0.0-43.0","3F6KKYWMNCN8Y7ACBXUBFB5756YNDJ","AURYD2FH3FUOQ","3UDTAB6HH6LRO17U79I9TKUGYFV09C","","null","<img src=""img/land5.png"" style=""width:200px;border:14px solid red;"">","null","","","","","","","","","",""
"","image-keyboard-response","44","77076","0.0-44.0","3F6KKYWMNCN8Y7ACBXUBFB5756YNDJ","AURYD2FH3FUOQ","3UDTAB6HH6LRO17U79I9TKUGYFV09C","","1076.5999999940395","img/land1.png","75","1078.8999999910593","2","0","1","1","0.8,0.2,0.2,0.2,0.8,0.2,0.2,0.2,0.8","0.8,0.2,0.2,0.2,0.8,0.2,0.2,0.2,0.8","1","",""
"","html-keyboard-response","45","77380","0.0-45.0","3F6KKYWMNCN8Y7ACBXUBFB5756YNDJ","AURYD2FH3FUOQ","3UDTAB6HH6LRO17U79I9TKUGYFV09C","","null","<img src=""img/land1.png"" style=""width:200px;border:14px solid red;"">","null","","","","","","","","","",""
"","image-keyboard-response","46","78394","0.0-46.0","3F6KKYWMNCN8Y7ACBXUBFB5756YNDJ","AURYD2FH3FUOQ","3UDTAB6HH6LRO17U79I9TKUGYFV09C","","1011.5","img/land1.png","75","1013.8999999910593","2","0","1","1","0.8,0.2,0.2,0.2,0.8,0.2,0.2,0.2,0.8","0.8,0.2,0.2,0.2,0.8,0.2,0.2,0.2,0.8","1","",""
"","html-keyboard-response","47","78698","0.0-47.0","3F6KKYWMNCN8Y7ACBXUBFB5756YNDJ","AURYD2FH3FUOQ","3UDTAB6HH6LRO17U79I9TKUGYFV09C","","null","<img src=""img/land1.png"" style=""width:200px;border:14px solid red;"">","null","","","","","","","","","",""
"","image-keyboard-response","48","80169","0.0-48.0","3F6KKYWMNCN8Y7ACBXUBFB5756YNDJ","AURYD2FH3FUOQ","3UDTAB6HH6LRO17U79I9TKUGYFV09C","","1468.5","img/land5.png","74","1470.7000000029802","1","0","2","1","0.8,0.2,0.2,0.2,0.8,0.2,0.2,0.2,0.8","0.8,0.2,0.2,0.2,0.8,0.2,0.2,0.2,0.8","1","",""
"","html-keyboard-response","49","80474","0.0-49.0","3F6KKYWMNCN8Y7ACBXUBFB5756YNDJ","AURYD2FH3FUOQ","3UDTAB6HH6LRO17U79I9TKUGYFV09C","","null","<img src=""img/land5.png"" style=""width:200px;border:14px solid red;"">","null","","","","","","","","","",""
"","image-keyboard-response","50","81540","0.0-50.0","3F6KKYWMNCN8Y7ACBXUBFB5756YNDJ","AURYD2FH3FUOQ","3UDTAB6HH6LRO17U79I9TKUGYFV09C","","1063.7000000029802","img/land5.png","75","1066.2000000029802","2","1","2","1","0.8,0.2,0.2,0.2,0.8,0.2,0.2,0.2,0.8","0.8,0.2,0.2,0.2,0.8,0.2,0.2,0.2,0.8","1","",""
"","html-keyboard-response","51","81844","0.0-51.0","3F6KKYWMNCN8Y7ACBXUBFB5756YNDJ","AURYD2FH3FUOQ","3UDTAB6HH6LRO17U79I9TKUGYFV09C","","null","<img src=""img/land5.png"" style=""width:200px; border:14px solid green;"">","null","","","","","","","","","",""
"","image-keyboard-response","52","83003","0.0-52.0","3F6KKYWMNCN8Y7ACBXUBFB5756YNDJ","AURYD2FH3FUOQ","3UDTAB6HH6LRO17U79I9TKUGYFV09C","","1157.2000000029802","img/land1.png","75","1159.2999999970198","2","0","1","1","0.8,0.2,0.2,0.2,0.8,0.2,0.2,0.2,0.8","0.8,0.2,0.2,0.2,0.8,0.2,0.2,0.2,0.8","1","",""
"","html-keyboard-response","53","83307","0.0-53.0","3F6KKYWMNCN8Y7ACBXUBFB5756YNDJ","AURYD2FH3FUOQ","3UDTAB6HH6LRO17U79I9TKUGYFV09C","","null","<img src=""img/land1.png"" style=""width:200px;border:14px solid red;"">","null","","","","","","","","","",""
"","image-keyboard-response","54","84362","0.0-54.0","3F6KKYWMNCN8Y7ACBXUBFB5756YNDJ","AURYD2FH3FUOQ","3UDTAB6HH6LRO17U79I9TKUGYFV09C","","1051.8999999910593","img/land2.png","76","1054.2000000029802","3","1","3","1","0.8,0.2,0.2,0.2,0.8,0.2,0.2,0.2,0.8","0.8,0.2,0.2,0.2,0.8,0.2,0.2,0.2,0.8","1","",""
"","html-keyboard-response","55","84666","0.0-55.0","3F6KKYWMNCN8Y7ACBXUBFB5756YNDJ","AURYD2FH3FUOQ","3UDTAB6HH6LRO17U79I9TKUGYFV09C","","null","<img src=""img/land2.png"" style=""width:200px; border:14px solid green;"">","null","","","","","","","","","",""
"","image-keyboard-response","56","85865","0.0-56.0","3F6KKYWMNCN8Y7ACBXUBFB5756YNDJ","AURYD2FH3FUOQ","3UDTAB6HH6LRO17U79I9TKUGYFV09C","","1196.9000000059605","img/land1.png","75","1199.3999999910593","2","1","1","1","0.8,0.2,0.2,0.2,0.8,0.2,0.2,0.2,0.8","0.8,0.2,0.2,0.2,0.8,0.2,0.2,0.2,0.8","1","",""
"","html-keyboard-response","57","86170","0.0-57.0","3F6KKYWMNCN8Y7ACBXUBFB5756YNDJ","AURYD2FH3FUOQ","3UDTAB6HH6LRO17U79I9TKUGYFV09C","","null","<img src=""img/land1.png"" style=""width:200px; border:14px solid green;"">","null","","","","","","","","","",""
"","image-keyboard-response","58","87170","0.0-58.0","3F6KKYWMNCN8Y7ACBXUBFB5756YNDJ","AURYD2FH3FUOQ","3UDTAB6HH6LRO17U79I9TKUGYFV09C","","998.2000000029802","img/land1.png","75","1000.2000000029802","2","0","1","1","0.8,0.2,0.2,0.2,0.8,0.2,0.2,0.2,0.8","0.8,0.2,0.2,0.2,0.8,0.2,0.2,0.2,0.8","1","",""
"","html-keyboard-response","59","87474","0.0-59.0","3F6KKYWMNCN8Y7ACBXUBFB5756YNDJ","AURYD2FH3FUOQ","3UDTAB6HH6LRO17U79I9TKUGYFV09C","","null","<img src=""img/land1.png"" style=""width:200px;border:14px solid red;"">","null","","","","","","","","","",""
"","image-keyboard-response","60","88644","0.0-60.0","3F6KKYWMNCN8Y7ACBXUBFB5756YNDJ","AURYD2FH3FUOQ","3UDTAB6HH6LRO17U79I9TKUGYFV09C","","1167.8999999910593","img/land5.png","74","1170","1","0","2","1","0.8,0.2,0.2,0.2,0.8,0.2,0.2,0.2,0.8","0.8,0.2,0.2,0.2,0.8,0.2,0.2,0.2,0.8","1","",""
"","html-keyboard-response","61","88948","0.0-61.0","3F6KKYWMNCN8Y7ACBXUBFB5756YNDJ","AURYD2FH3FUOQ","3UDTAB6HH6LRO17U79I9TKUGYFV09C","","null","<img src=""img/land5.png"" style=""width:200px;border:14px solid red;"">","null","","","","","","","","","",""
"","image-keyboard-response","62","89935","0.0-62.0","3F6KKYWMNCN8Y7ACBXUBFB5756YNDJ","AURYD2FH3FUOQ","3UDTAB6HH6LRO17U79I9TKUGYFV09C","","985.6000000089407","img/land5.png","75","987.2000000029802","2","1","2","1","0.8,0.2,0.2,0.2,0.8,0.2,0.2,0.2,0.8","0.8,0.2,0.2,0.2,0.8,0.2,0.2,0.2,0.8","1","",""
"","html-keyboard-response","63","90238","0.0-63.0","3F6KKYWMNCN8Y7ACBXUBFB5756YNDJ","AURYD2FH3FUOQ","3UDTAB6HH6LRO17U79I9TKUGYFV09C","","null","<img src=""img/land5.png"" style=""width:200px; border:14px solid green;"">","null","","","","","","","","","",""
"","image-keyboard-response","64","91490","0.0-64.0","3F6KKYWMNCN8Y7ACBXUBFB5756YNDJ","AURYD2FH3FUOQ","3UDTAB6HH6LRO17U79I9TKUGYFV09C","","1250.2999999970198","img/land5.png","75","1252","2","0","2","1","0.8,0.2,0.2,0.2,0.8,0.2,0.2,0.2,0.8","0.8,0.2,0.2,0.2,0.8,0.2,0.2,0.2,0.8","1","",""
"","html-keyboard-response","65","91794","0.0-65.0","3F6KKYWMNCN8Y7ACBXUBFB5756YNDJ","AURYD2FH3FUOQ","3UDTAB6HH6LRO17U79I9TKUGYFV09C","","null","<img src=""img/land5.png"" style=""width:200px;border:14px solid red;"">","null","","","","","","","","","",""
"","image-keyboard-response","66","93122","0.0-66.0","3F6KKYWMNCN8Y7ACBXUBFB5756YNDJ","AURYD2FH3FUOQ","3UDTAB6HH6LRO17U79I9TKUGYFV09C","","1325.2999999970198","img/land1.png","75","1327.7999999970198","2","0","1","1","0.8,0.2,0.2,0.2,0.8,0.2,0.2,0.2,0.8","0.8,0.2,0.2,0.2,0.8,0.2,0.2,0.2,0.8","1","",""
"","html-keyboard-response","67","93426","0.0-67.0","3F6KKYWMNCN8Y7ACBXUBFB5756YNDJ","AURYD2FH3FUOQ","3UDTAB6HH6LRO17U79I9TKUGYFV09C","","null","<img src=""img/land1.png"" style=""width:200px;border:14px solid red;"">","null","","","","","","","","","",""
"","image-keyboard-response","68","94472","0.0-68.0","3F6KKYWMNCN8Y7ACBXUBFB5756YNDJ","AURYD2FH3FUOQ","3UDTAB6HH6LRO17U79I9TKUGYFV09C","","1043.1000000089407","img/land1.png","74","1045.2999999970198","1","0","1","1","0.8,0.2,0.2,0.2,0.8,0.2,0.2,0.2,0.8","0.8,0.2,0.2,0.2,0.8,0.2,0.2,0.2,0.8","1","",""
"","html-keyboard-response","69","94776","0.0-69.0","3F6KKYWMNCN8Y7ACBXUBFB5756YNDJ","AURYD2FH3FUOQ","3UDTAB6HH6LRO17U79I9TKUGYFV09C","","null","<img src=""img/land1.png"" style=""width:200px;border:14px solid red;"">","null","","","","","","","","","",""
"","image-keyboard-response","70","95727","0.0-70.0","3F6KKYWMNCN8Y7ACBXUBFB5756YNDJ","AURYD2FH3FUOQ","3UDTAB6HH6LRO17U79I9TKUGYFV09C","","947.6999999880791","img/land1.png","75","949.8999999910593","2","0","1","1","0.8,0.2,0.2,0.2,0.8,0.2,0.2,0.2,0.8","0.8,0.2,0.2,0.2,0.8,0.2,0.2,0.2,0.8","1","",""
"","html-keyboard-response","71","96031","0.0-71.0","3F6KKYWMNCN8Y7ACBXUBFB5756YNDJ","AURYD2FH3FUOQ","3UDTAB6HH6LRO17U79I9TKUGYFV09C","","null","<img src=""img/land1.png"" style=""width:200px;border:14px solid red;"">","null","","","","","","","","","",""
"","image-keyboard-response","72","97218","0.0-72.0","3F6KKYWMNCN8Y7ACBXUBFB5756YNDJ","AURYD2FH3FUOQ","3UDTAB6HH6LRO17U79I9TKUGYFV09C","","1183.2999999970198","img/land2.png","76","1186.2000000029802","3","0","3","1","0.8,0.2,0.2,0.2,0.8,0.2,0.2,0.2,0.8","0.8,0.2,0.2,0.2,0.8,0.2,0.2,0.2,0.8","1","",""
"","html-keyboard-response","73","97522","0.0-73.0","3F6KKYWMNCN8Y7ACBXUBFB5756YNDJ","AURYD2FH3FUOQ","3UDTAB6HH6LRO17U79I9TKUGYFV09C","","null","<img src=""img/land2.png"" style=""width:200px;border:14px solid red;"">","null","","","","","","","","","",""
"","image-keyboard-response","74","98632","0.0-74.0","3F6KKYWMNCN8Y7ACBXUBFB5756YNDJ","AURYD2FH3FUOQ","3UDTAB6HH6LRO17U79I9TKUGYFV09C","","1107.699999988079","img/land1.png","75","1109.699999988079","2","0","1","1","0.8,0.2,0.2,0.2,0.8,0.2,0.2,0.2,0.8","0.8,0.2,0.2,0.2,0.8,0.2,0.2,0.2,0.8","1","",""
"","html-keyboard-response","75","98936","0.0-75.0","3F6KKYWMNCN8Y7ACBXUBFB5756YNDJ","AURYD2FH3FUOQ","3UDTAB6HH6LRO17U79I9TKUGYFV09C","","null","<img src=""img/land1.png"" style=""width:200px;border:14px solid red;"">","null","","","","","","","","","",""
"","image-keyboard-response","76","100306","0.0-76.0","3F6KKYWMNCN8Y7ACBXUBFB5756YNDJ","AURYD2FH3FUOQ","3UDTAB6HH6LRO17U79I9TKUGYFV09C","","1366.9000000059605","img/land2.png","76","1369.4000000059605","3","1","3","1","0.8,0.2,0.2,0.2,0.8,0.2,0.2,0.2,0.8","0.8,0.2,0.2,0.2,0.8,0.2,0.2,0.2,0.8","1","",""
"","html-keyboard-response","77","100624","0.0-77.0","3F6KKYWMNCN8Y7ACBXUBFB5756YNDJ","AURYD2FH3FUOQ","3UDTAB6HH6LRO17U79I9TKUGYFV09C","","null","<img src=""img/land2.png"" style=""width:200px; border:14px solid green;"">","null","","","","","","","","","",""
"","image-keyboard-response","78","101686","0.0-78.0","3F6KKYWMNCN8Y7ACBXUBFB5756YNDJ","AURYD2FH3FUOQ","3UDTAB6HH6LRO17U79I9TKUGYFV09C","","1058","img/land2.png","76","1060.7000000029802","3","1","3","1","0.8,0.2,0.2,0.2,0.8,0.2,0.2,0.2,0.8","0.8,0.2,0.2,0.2,0.8,0.2,0.2,0.2,0.8","1","",""
"","html-keyboard-response","79","101991","0.0-79.0","3F6KKYWMNCN8Y7ACBXUBFB5756YNDJ","AURYD2FH3FUOQ","3UDTAB6HH6LRO17U79I9TKUGYFV09C","","null","<img src=""img/land2.png"" style=""width:200px; border:14px solid green;"">","null","","","","","","","","","",""
"","image-keyboard-response","80","103257","0.0-80.0","3F6KKYWMNCN8Y7ACBXUBFB5756YNDJ","AURYD2FH3FUOQ","3UDTAB6HH6LRO17U79I9TKUGYFV09C","","1263.2000000029802","img/land1.png","75","1265.5999999940395","2","0","1","1","0.8,0.2,0.2,0.2,0.8,0.2,0.2,0.2,0.8","0.8,0.2,0.2,0.2,0.8,0.2,0.2,0.2,0.8","1","",""
"","html-keyboard-response","81","103561","0.0-81.0","3F6KKYWMNCN8Y7ACBXUBFB5756YNDJ","AURYD2FH3FUOQ","3UDTAB6HH6LRO17U79I9TKUGYFV09C","","null","<img src=""img/land1.png"" style=""width:200px;border:14px solid red;"">","null","","","","","","","","","",""
"","image-keyboard-response","82","104574","0.0-82.0","3F6KKYWMNCN8Y7ACBXUBFB5756YNDJ","AURYD2FH3FUOQ","3UDTAB6HH6LRO17U79I9TKUGYFV09C","","1010.6000000089407","img/land1.png","75","1012.2000000029802","2","1","1","1","0.8,0.2,0.2,0.2,0.8,0.2,0.2,0.2,0.8","0.8,0.2,0.2,0.2,0.8,0.2,0.2,0.2,0.8","1","",""
"","html-keyboard-response","83","104876","0.0-83.0","3F6KKYWMNCN8Y7ACBXUBFB5756YNDJ","AURYD2FH3FUOQ","3UDTAB6HH6LRO17U79I9TKUGYFV09C","","null","<img src=""img/land1.png"" style=""width:200px; border:14px solid green;"">","null","","","","","","","","","",""
"","image-keyboard-response","84","106408","0.0-84.0","3F6KKYWMNCN8Y7ACBXUBFB5756YNDJ","AURYD2FH3FUOQ","3UDTAB6HH6LRO17U79I9TKUGYFV09C","","1529","img/land2.png","76","1530.7999999970198","3","1","3","1","0.8,0.2,0.2,0.2,0.8,0.2,0.2,0.2,0.8","0.8,0.2,0.2,0.2,0.8,0.2,0.2,0.2,0.8","1","",""
"","html-keyboard-response","85","106711","0.0-85.0","3F6KKYWMNCN8Y7ACBXUBFB5756YNDJ","AURYD2FH3FUOQ","3UDTAB6HH6LRO17U79I9TKUGYFV09C","","null","<img src=""img/land2.png"" style=""width:200px; border:14px solid green;"">","null","","","","","","","","","",""
"","image-keyboard-response","86","107967","0.0-86.0","3F6KKYWMNCN8Y7ACBXUBFB5756YNDJ","AURYD2FH3FUOQ","3UDTAB6HH6LRO17U79I9TKUGYFV09C","","1251.7000000029802","img/land5.png","75","1254.3999999910593","2","1","2","1","0.8,0.2,0.2,0.2,0.8,0.2,0.2,0.2,0.8","0.8,0.2,0.2,0.2,0.8,0.2,0.2,0.2,0.8","1","",""
"","html-keyboard-response","87","108270","0.0-87.0","3F6KKYWMNCN8Y7ACBXUBFB5756YNDJ","AURYD2FH3FUOQ","3UDTAB6HH6LRO17U79I9TKUGYFV09C","","null","<img src=""img/land5.png"" style=""width:200px; border:14px solid green;"">","null","","","","","","","","","",""
"","image-keyboard-response","88","109193","0.0-88.0","3F6KKYWMNCN8Y7ACBXUBFB5756YNDJ","AURYD2FH3FUOQ","3UDTAB6HH6LRO17U79I9TKUGYFV09C","","919.5999999940395","img/land5.png","75","922.6999999880791","2","1","2","1","0.8,0.2,0.2,0.2,0.8,0.2,0.2,0.2,0.8","0.8,0.2,0.2,0.2,0.8,0.2,0.2,0.2,0.8","1","",""
"","html-keyboard-response","89","109497","0.0-89.0","3F6KKYWMNCN8Y7ACBXUBFB5756YNDJ","AURYD2FH3FUOQ","3UDTAB6HH6LRO17U79I9TKUGYFV09C","","null","<img src=""img/land5.png"" style=""width:200px; border:14px solid green;"">","null","","","","","","","","","",""
"","image-keyboard-response","90","110355","0.0-90.0","3F6KKYWMNCN8Y7ACBXUBFB5756YNDJ","AURYD2FH3FUOQ","3UDTAB6HH6LRO17U79I9TKUGYFV09C","","855.3999999910593","img/land5.png","75","857.1999999880791","2","1","2","1","0.8,0.2,0.2,0.2,0.8,0.2,0.2,0.2,0.8","0.8,0.2,0.2,0.2,0.8,0.2,0.2,0.2,0.8","1","",""
"","html-keyboard-response","91","110659","0.0-91.0","3F6KKYWMNCN8Y7ACBXUBFB5756YNDJ","AURYD2FH3FUOQ","3UDTAB6HH6LRO17U79I9TKUGYFV09C","","null","<img src=""img/land5.png"" style=""width:200px; border:14px solid green;"">","null","","","","","","","","","",""
"","image-keyboard-response","92","112038","0.0-92.0","3F6KKYWMNCN8Y7ACBXUBFB5756YNDJ","AURYD2FH3FUOQ","3UDTAB6HH6LRO17U79I9TKUGYFV09C","","1375.2999999970198","img/land2.png","76","1377.6000000089407","3","1","3","1","0.8,0.2,0.2,0.2,0.8,0.2,0.2,0.2,0.8","0.8,0.2,0.2,0.2,0.8,0.2,0.2,0.2,0.8","1","",""
"","html-keyboard-response","93","112340","0.0-93.0","3F6KKYWMNCN8Y7ACBXUBFB5756YNDJ","AURYD2FH3FUOQ","3UDTAB6HH6LRO17U79I9TKUGYFV09C","","null","<img src=""img/land2.png"" style=""width:200px; border:14px solid green;"">","null","","","","","","","","","",""
"","image-keyboard-response","94","113283","0.0-94.0","3F6KKYWMNCN8Y7ACBXUBFB5756YNDJ","AURYD2FH3FUOQ","3UDTAB6HH6LRO17U79I9TKUGYFV09C","","940.0999999940395","img/land2.png","76","941.9000000059605","3","1","3","1","0.8,0.2,0.2,0.2,0.8,0.2,0.2,0.2,0.8","0.8,0.2,0.2,0.2,0.8,0.2,0.2,0.2,0.8","1","",""
"","html-keyboard-response","95","113587","0.0-95.0","3F6KKYWMNCN8Y7ACBXUBFB5756YNDJ","AURYD2FH3FUOQ","3UDTAB6HH6LRO17U79I9TKUGYFV09C","","null","<img src=""img/land2.png"" style=""width:200px; border:14px solid green;"">","null","","","","","","","","","",""
"","image-keyboard-response","96","114758","0.0-96.0","3F6KKYWMNCN8Y7ACBXUBFB5756YNDJ","AURYD2FH3FUOQ","3UDTAB6HH6LRO17U79I9TKUGYFV09C","","1168.800000011921","img/land1.png","75","1171.1000000089407","2","1","1","1","0.8,0.2,0.2,0.2,0.8,0.2,0.2,0.2,0.8","0.8,0.2,0.2,0.2,0.8,0.2,0.2,0.2,0.8","1","",""
"","html-keyboard-response","97","115062","0.0-97.0","3F6KKYWMNCN8Y7ACBXUBFB5756YNDJ","AURYD2FH3FUOQ","3UDTAB6HH6LRO17U79I9TKUGYFV09C","","null","<img src=""img/land1.png"" style=""width:200px; border:14px solid green;"">","null","","","","","","","","","",""
"","image-keyboard-response","98","116643","0.0-98.0","3F6KKYWMNCN8Y7ACBXUBFB5756YNDJ","AURYD2FH3FUOQ","3UDTAB6HH6LRO17U79I9TKUGYFV09C","","1579.5","img/land5.png","75","1581.2999999970198","2","1","2","1","0.8,0.2,0.2,0.2,0.8,0.2,0.2,0.2,0.8","0.8,0.2,0.2,0.2,0.8,0.2,0.2,0.2,0.8","1","",""
"","html-keyboard-response","99","116946","0.0-99.0","3F6KKYWMNCN8Y7ACBXUBFB5756YNDJ","AURYD2FH3FUOQ","3UDTAB6HH6LRO17U79I9TKUGYFV09C","","null","<img src=""img/land5.png"" style=""width:200px; border:14px solid green;"">","null","","","","","","","","","",""
"","image-keyboard-response","100","118285","0.0-100.0","3F6KKYWMNCN8Y7ACBXUBFB5756YNDJ","AURYD2FH3FUOQ","3UDTAB6HH6LRO17U79I9TKUGYFV09C","","1335.7000000029802","img/land2.png","76","1338.2999999970198","3","0","3","1","0.8,0.2,0.2,0.2,0.8,0.2,0.2,0.2,0.8","0.8,0.2,0.2,0.2,0.8,0.2,0.2,0.2,0.8","1","",""
"","html-keyboard-response","101","118588","0.0-101.0","3F6KKYWMNCN8Y7ACBXUBFB5756YNDJ","AURYD2FH3FUOQ","3UDTAB6HH6LRO17U79I9TKUGYFV09C","","null","<img src=""img/land2.png"" style=""width:200px;border:14px solid red;"">","null","","","","","","","","","",""
"","image-keyboard-response","102","119769","0.0-102.0","3F6KKYWMNCN8Y7ACBXUBFB5756YNDJ","AURYD2FH3FUOQ","3UDTAB6HH6LRO17U79I9TKUGYFV09C","","1178.4000000059605","img/land5.png","75","1180.800000011921","2","1","2","1","0.8,0.2,0.2,0.2,0.8,0.2,0.2,0.2,0.8","0.8,0.2,0.2,0.2,0.8,0.2,0.2,0.2,0.8","1","",""
"","html-keyboard-response","103","120075","0.0-103.0","3F6KKYWMNCN8Y7ACBXUBFB5756YNDJ","AURYD2FH3FUOQ","3UDTAB6HH6LRO17U79I9TKUGYFV09C","","null","<img src=""img/land5.png"" style=""width:200px; border:14px solid green;"">","null","","","","","","","","","",""
"","image-keyboard-response","104","121075","0.0-104.0","3F6KKYWMNCN8Y7ACBXUBFB5756YNDJ","AURYD2FH3FUOQ","3UDTAB6HH6LRO17U79I9TKUGYFV09C","","997.3999999910593","img/land1.png","75","999.5","2","1","1","1","0.8,0.2,0.2,0.2,0.8,0.2,0.2,0.2,0.8","0.8,0.2,0.2,0.2,0.8,0.2,0.2,0.2,0.8","1","",""
"","html-keyboard-response","105","121379","0.0-105.0","3F6KKYWMNCN8Y7ACBXUBFB5756YNDJ","AURYD2FH3FUOQ","3UDTAB6HH6LRO17U79I9TKUGYFV09C","","null","<img src=""img/land1.png"" style=""width:200px; border:14px solid green;"">","null","","","","","","","","","",""
"","image-keyboard-response","106","122381","0.0-106.0","3F6KKYWMNCN8Y7ACBXUBFB5756YNDJ","AURYD2FH3FUOQ","3UDTAB6HH6LRO17U79I9TKUGYFV09C","","999.7999999970198","img/land2.png","75","1002","2","0","3","1","0.8,0.2,0.2,0.2,0.8,0.2,0.2,0.2,0.8","0.8,0.2,0.2,0.2,0.8,0.2,0.2,0.2,0.8","1","",""
"","html-keyboard-response","107","122686","0.0-107.0","3F6KKYWMNCN8Y7ACBXUBFB5756YNDJ","AURYD2FH3FUOQ","3UDTAB6HH6LRO17U79I9TKUGYFV09C","","null","<img src=""img/land2.png"" style=""width:200px;border:14px solid red;"">","null","","","","","","","","","",""
"","image-keyboard-response","108","123812","0.0-108.0","3F6KKYWMNCN8Y7ACBXUBFB5756YNDJ","AURYD2FH3FUOQ","3UDTAB6HH6LRO17U79I9TKUGYFV09C","","1123.0999999940395","img/land5.png","75","1125.4000000059605","2","0","2","1","0.8,0.2,0.2,0.2,0.8,0.2,0.2,0.2,0.8","0.8,0.2,0.2,0.2,0.8,0.2,0.2,0.2,0.8","1","",""
"","html-keyboard-response","109","124116","0.0-109.0","3F6KKYWMNCN8Y7ACBXUBFB5756YNDJ","AURYD2FH3FUOQ","3UDTAB6HH6LRO17U79I9TKUGYFV09C","","null","<img src=""img/land5.png"" style=""width:200px;border:14px solid red;"">","null","","","","","","","","","",""
"","image-keyboard-response","110","124991","0.0-110.0","3F6KKYWMNCN8Y7ACBXUBFB5756YNDJ","AURYD2FH3FUOQ","3UDTAB6HH6LRO17U79I9TKUGYFV09C","","872.5","img/land1.png","76","874.4000000059605","3","0","1","1","0.8,0.2,0.2,0.2,0.8,0.2,0.2,0.2,0.8","0.8,0.2,0.2,0.2,0.8,0.2,0.2,0.2,0.8","1","",""
"","html-keyboard-response","111","125295","0.0-111.0","3F6KKYWMNCN8Y7ACBXUBFB5756YNDJ","AURYD2FH3FUOQ","3UDTAB6HH6LRO17U79I9TKUGYFV09C","","null","<img src=""img/land1.png"" style=""width:200px;border:14px solid red;"">","null","","","","","","","","","",""
"","image-keyboard-response","112","126142","0.0-112.0","3F6KKYWMNCN8Y7ACBXUBFB5756YNDJ","AURYD2FH3FUOQ","3UDTAB6HH6LRO17U79I9TKUGYFV09C","","844.8999999910593","img/land5.png","75","846.5","2","1","2","1","0.8,0.2,0.2,0.2,0.8,0.2,0.2,0.2,0.8","0.8,0.2,0.2,0.2,0.8,0.2,0.2,0.2,0.8","1","",""
"","html-keyboard-response","113","126445","0.0-113.0","3F6KKYWMNCN8Y7ACBXUBFB5756YNDJ","AURYD2FH3FUOQ","3UDTAB6HH6LRO17U79I9TKUGYFV09C","","null","<img src=""img/land5.png"" style=""width:200px; border:14px solid green;"">","null","","","","","","","","","",""
"","image-keyboard-response","114","127722","0.0-114.0","3F6KKYWMNCN8Y7ACBXUBFB5756YNDJ","AURYD2FH3FUOQ","3UDTAB6HH6LRO17U79I9TKUGYFV09C","","1274.7000000029802","img/land1.png","75","1276.800000011921","2","0","1","1","0.8,0.2,0.2,0.2,0.8,0.2,0.2,0.2,0.8","0.8,0.2,0.2,0.2,0.8,0.2,0.2,0.2,0.8","1","",""
"","html-keyboard-response","115","128027","0.0-115.0","3F6KKYWMNCN8Y7ACBXUBFB5756YNDJ","AURYD2FH3FUOQ","3UDTAB6HH6LRO17U79I9TKUGYFV09C","","null","<img src=""img/land1.png"" style=""width:200px;border:14px solid red;"">","null","","","","","","","","","",""
"","image-keyboard-response","116","129073","0.0-116.0","3F6KKYWMNCN8Y7ACBXUBFB5756YNDJ","AURYD2FH3FUOQ","3UDTAB6HH6LRO17U79I9TKUGYFV09C","","1041.9000000059605","img/land1.png","75","1045.2000000029802","2","0","1","1","0.8,0.2,0.2,0.2,0.8,0.2,0.2,0.2,0.8","0.8,0.2,0.2,0.2,0.8,0.2,0.2,0.2,0.8","1","",""
"","html-keyboard-response","117","129377","0.0-117.0","3F6KKYWMNCN8Y7ACBXUBFB5756YNDJ","AURYD2FH3FUOQ","3UDTAB6HH6LRO17U79I9TKUGYFV09C","","null","<img src=""img/land1.png"" style=""width:200px;border:14px solid red;"">","null","","","","","","","","","",""
"","image-keyboard-response","118","130501","0.0-118.0","3F6KKYWMNCN8Y7ACBXUBFB5756YNDJ","AURYD2FH3FUOQ","3UDTAB6HH6LRO17U79I9TKUGYFV09C","","1121.7999999970198","img/land2.png","76","1123.5","3","0","3","1","0.8,0.2,0.2,0.2,0.8,0.2,0.2,0.2,0.8","0.8,0.2,0.2,0.2,0.8,0.2,0.2,0.2,0.8","1","",""
"","html-keyboard-response","119","130803","0.0-119.0","3F6KKYWMNCN8Y7ACBXUBFB5756YNDJ","AURYD2FH3FUOQ","3UDTAB6HH6LRO17U79I9TKUGYFV09C","","null","<img src=""img/land2.png"" style=""width:200px;border:14px solid red;"">","null","","","","","","","","","",""
"","image-keyboard-response","120","131917","0.0-120.0","3F6KKYWMNCN8Y7ACBXUBFB5756YNDJ","AURYD2FH3FUOQ","3UDTAB6HH6LRO17U79I9TKUGYFV09C","","1111.6000000089407","img/land1.png","75","1113.2000000029802","2","0","1","1","0.8,0.2,0.2,0.2,0.8,0.2,0.2,0.2,0.8","0.8,0.2,0.2,0.2,0.8,0.2,0.2,0.2,0.8","1","",""
"","html-keyboard-response","121","132221","0.0-121.0","3F6KKYWMNCN8Y7ACBXUBFB5756YNDJ","AURYD2FH3FUOQ","3UDTAB6HH6LRO17U79I9TKUGYFV09C","","null","<img src=""img/land1.png"" style=""width:200px;border:14px solid red;"">","null","","","","","","","","","",""
"","image-keyboard-response","122","133361","0.0-122.0","3F6KKYWMNCN8Y7ACBXUBFB5756YNDJ","AURYD2FH3FUOQ","3UDTAB6HH6LRO17U79I9TKUGYFV09C","","1137.2999999970198","img/land5.png","75","1140","2","1","2","1","0.8,0.2,0.2,0.2,0.8,0.2,0.2,0.2,0.8","0.8,0.2,0.2,0.2,0.8,0.2,0.2,0.2,0.8","1","",""
"","html-keyboard-response","123","133666","0.0-123.0","3F6KKYWMNCN8Y7ACBXUBFB5756YNDJ","AURYD2FH3FUOQ","3UDTAB6HH6LRO17U79I9TKUGYFV09C","","null","<img src=""img/land5.png"" style=""width:200px; border:14px solid green;"">","null","","","","","","","","","",""
"","image-keyboard-response","124","134624","0.0-124.0","3F6KKYWMNCN8Y7ACBXUBFB5756YNDJ","AURYD2FH3FUOQ","3UDTAB6HH6LRO17U79I9TKUGYFV09C","","955.7000000029802","img/land1.png","76","958","3","1","1","1","0.8,0.2,0.2,0.2,0.8,0.2,0.2,0.2,0.8","0.8,0.2,0.2,0.2,0.8,0.2,0.2,0.2,0.8","1","",""
"","html-keyboard-response","125","134929","0.0-125.0","3F6KKYWMNCN8Y7ACBXUBFB5756YNDJ","AURYD2FH3FUOQ","3UDTAB6HH6LRO17U79I9TKUGYFV09C","","null","<img src=""img/land1.png"" style=""width:200px; border:14px solid green;"">","null","","","","","","","","","",""
"","image-keyboard-response","126","136486","0.0-126.0","3F6KKYWMNCN8Y7ACBXUBFB5756YNDJ","AURYD2FH3FUOQ","3UDTAB6HH6LRO17U79I9TKUGYFV09C","","1553.7999999970198","img/land2.png","76","1556","3","1","3","1","0.8,0.2,0.2,0.2,0.8,0.2,0.2,0.2,0.8","0.8,0.2,0.2,0.2,0.8,0.2,0.2,0.2,0.8","1","",""
"","html-keyboard-response","127","136791","0.0-127.0","3F6KKYWMNCN8Y7ACBXUBFB5756YNDJ","AURYD2FH3FUOQ","3UDTAB6HH6LRO17U79I9TKUGYFV09C","","null","<img src=""img/land2.png"" style=""width:200px; border:14px solid green;"">","null","","","","","","","","","",""
"","image-keyboard-response","128","138070","0.0-128.0","3F6KKYWMNCN8Y7ACBXUBFB5756YNDJ","AURYD2FH3FUOQ","3UDTAB6HH6LRO17U79I9TKUGYFV09C","","1276.5","img/land5.png","75","1278.7999999970198","2","0","2","1","0.8,0.2,0.2,0.2,0.8,0.2,0.2,0.2,0.8","0.8,0.2,0.2,0.2,0.8,0.2,0.2,0.2,0.8","1","",""
"","html-keyboard-response","129","138373","0.0-129.0","3F6KKYWMNCN8Y7ACBXUBFB5756YNDJ","AURYD2FH3FUOQ","3UDTAB6HH6LRO17U79I9TKUGYFV09C","","null","<img src=""img/land5.png"" style=""width:200px;border:14px solid red;"">","null","","","","","","","","","",""
"","image-keyboard-response","130","139475","0.0-130.0","3F6KKYWMNCN8Y7ACBXUBFB5756YNDJ","AURYD2FH3FUOQ","3UDTAB6HH6LRO17U79I9TKUGYFV09C","","1099.3999999910593","img/land5.png","75","1101.699999988079","2","1","2","1","0.8,0.2,0.2,0.2,0.8,0.2,0.2,0.2,0.8","0.8,0.2,0.2,0.2,0.8,0.2,0.2,0.2,0.8","1","",""
"","html-keyboard-response","131","139781","0.0-131.0","3F6KKYWMNCN8Y7ACBXUBFB5756YNDJ","AURYD2FH3FUOQ","3UDTAB6HH6LRO17U79I9TKUGYFV09C","","null","<img src=""img/land5.png"" style=""width:200px; border:14px solid green;"">","null","","","","","","","","","",""
"","image-keyboard-response","132","140979","0.0-132.0","3F6KKYWMNCN8Y7ACBXUBFB5756YNDJ","AURYD2FH3FUOQ","3UDTAB6HH6LRO17U79I9TKUGYFV09C","","1194.699999988079","img/land5.png","75","1197.2999999970198","2","1","2","1","0.8,0.2,0.2,0.2,0.8,0.2,0.2,0.2,0.8","0.8,0.2,0.2,0.2,0.8,0.2,0.2,0.2,0.8","1","",""
"","html-keyboard-response","133","141283","0.0-133.0","3F6KKYWMNCN8Y7ACBXUBFB5756YNDJ","AURYD2FH3FUOQ","3UDTAB6HH6LRO17U79I9TKUGYFV09C","","null","<img src=""img/land5.png"" style=""width:200px; border:14px solid green;"">","null","","","","","","","","","",""
"","image-keyboard-response","134","142551","0.0-134.0","3F6KKYWMNCN8Y7ACBXUBFB5756YNDJ","AURYD2FH3FUOQ","3UDTAB6HH6LRO17U79I9TKUGYFV09C","","1264","img/land1.png","75","1266.1000000089407","2","1","1","1","0.8,0.2,0.2,0.2,0.8,0.2,0.2,0.2,0.8","0.8,0.2,0.2,0.2,0.8,0.2,0.2,0.2,0.8","1","",""
"","html-keyboard-response","135","142856","0.0-135.0","3F6KKYWMNCN8Y7ACBXUBFB5756YNDJ","AURYD2FH3FUOQ","3UDTAB6HH6LRO17U79I9TKUGYFV09C","","null","<img src=""img/land1.png"" style=""width:200px; border:14px solid green;"">","null","","","","","","","","","",""
"","image-keyboard-response","136","144141","0.0-136.0","3F6KKYWMNCN8Y7ACBXUBFB5756YNDJ","AURYD2FH3FUOQ","3UDTAB6HH6LRO17U79I9TKUGYFV09C","","1282.7999999970198","img/land2.png","76","1284.7999999970198","3","1","3","1","0.8,0.2,0.2,0.2,0.8,0.2,0.2,0.2,0.8","0.8,0.2,0.2,0.2,0.8,0.2,0.2,0.2,0.8","1","",""
"","html-keyboard-response","137","144444","0.0-137.0","3F6KKYWMNCN8Y7ACBXUBFB5756YNDJ","AURYD2FH3FUOQ","3UDTAB6HH6LRO17U79I9TKUGYFV09C","","null","<img src=""img/land2.png"" style=""width:200px; border:14px solid green;"">","null","","","","","","","","","",""
"","image-keyboard-response","138","145632","0.0-138.0","3F6KKYWMNCN8Y7ACBXUBFB5756YNDJ","AURYD2FH3FUOQ","3UDTAB6HH6LRO17U79I9TKUGYFV09C","","1184.5999999940395","img/land5.png","75","1187","2","1","2","1","0.8,0.2,0.2,0.2,0.8,0.2,0.2,0.2,0.8","0.8,0.2,0.2,0.2,0.8,0.2,0.2,0.2,0.8","1","",""
"","html-keyboard-response","139","145935","0.0-139.0","3F6KKYWMNCN8Y7ACBXUBFB5756YNDJ","AURYD2FH3FUOQ","3UDTAB6HH6LRO17U79I9TKUGYFV09C","","null","<img src=""img/land5.png"" style=""width:200px; border:14px solid green;"">","null","","","","","","","","","",""
"","image-keyboard-response","140","147165","0.0-140.0","3F6KKYWMNCN8Y7ACBXUBFB5756YNDJ","AURYD2FH3FUOQ","3UDTAB6HH6LRO17U79I9TKUGYFV09C","","1227.2999999970198","img/land2.png","76","1229.2000000029802","3","0","3","1","0.8,0.2,0.2,0.2,0.8,0.2,0.2,0.2,0.8","0.8,0.2,0.2,0.2,0.8,0.2,0.2,0.2,0.8","1","",""
"","html-keyboard-response","141","147470","0.0-141.0","3F6KKYWMNCN8Y7ACBXUBFB5756YNDJ","AURYD2FH3FUOQ","3UDTAB6HH6LRO17U79I9TKUGYFV09C","","null","<img src=""img/land2.png"" style=""width:200px;border:14px solid red;"">","null","","","","","","","","","",""
"","image-keyboard-response","142","148662","0.0-142.0","3F6KKYWMNCN8Y7ACBXUBFB5756YNDJ","AURYD2FH3FUOQ","3UDTAB6HH6LRO17U79I9TKUGYFV09C","","1190.0999999940395","img/land5.png","75","1192.0999999940395","2","1","2","1","0.8,0.2,0.2,0.2,0.8,0.2,0.2,0.2,0.8","0.8,0.2,0.2,0.2,0.8,0.2,0.2,0.2,0.8","1","",""
"","html-keyboard-response","143","148967","0.0-143.0","3F6KKYWMNCN8Y7ACBXUBFB5756YNDJ","AURYD2FH3FUOQ","3UDTAB6HH6LRO17U79I9TKUGYFV09C","","null","<img src=""img/land5.png"" style=""width:200px; border:14px solid green;"">","null","","","","","","","","","",""
"","image-keyboard-response","144","150133","0.0-144.0","3F6KKYWMNCN8Y7ACBXUBFB5756YNDJ","AURYD2FH3FUOQ","3UDTAB6HH6LRO17U79I9TKUGYFV09C","","1163.9000000059605","img/land1.png","75","1166.0999999940395","2","0","1","1","0.8,0.2,0.2,0.2,0.8,0.2,0.2,0.2,0.8","0.8,0.2,0.2,0.2,0.8,0.2,0.2,0.2,0.8","1","",""
"","html-keyboard-response","145","150436","0.0-145.0","3F6KKYWMNCN8Y7ACBXUBFB5756YNDJ","AURYD2FH3FUOQ","3UDTAB6HH6LRO17U79I9TKUGYFV09C","","null","<img src=""img/land1.png"" style=""width:200px;border:14px solid red;"">","null","","","","","","","","","",""
"","image-keyboard-response","146","151628","0.0-146.0","3F6KKYWMNCN8Y7ACBXUBFB5756YNDJ","AURYD2FH3FUOQ","3UDTAB6HH6LRO17U79I9TKUGYFV09C","","1189.3999999910593","img/land5.png","75","1191.5","2","1","2","1","0.8,0.2,0.2,0.2,0.8,0.2,0.2,0.2,0.8","0.8,0.2,0.2,0.2,0.8,0.2,0.2,0.2,0.8","1","",""
"","html-keyboard-response","147","151931","0.0-147.0","3F6KKYWMNCN8Y7ACBXUBFB5756YNDJ","AURYD2FH3FUOQ","3UDTAB6HH6LRO17U79I9TKUGYFV09C","","null","<img src=""img/land5.png"" style=""width:200px; border:14px solid green;"">","null","","","","","","","","","",""
"","image-keyboard-response","148","153159","0.0-148.0","3F6KKYWMNCN8Y7ACBXUBFB5756YNDJ","AURYD2FH3FUOQ","3UDTAB6HH6LRO17U79I9TKUGYFV09C","","1227.199999988079","img/land2.png","76","1228.5","3","1","3","1","0.8,0.2,0.2,0.2,0.8,0.2,0.2,0.2,0.8","0.8,0.2,0.2,0.2,0.8,0.2,0.2,0.2,0.8","1","",""
"","html-keyboard-response","149","153478","0.0-149.0","3F6KKYWMNCN8Y7ACBXUBFB5756YNDJ","AURYD2FH3FUOQ","3UDTAB6HH6LRO17U79I9TKUGYFV09C","","null","<img src=""img/land2.png"" style=""width:200px; border:14px solid green;"">","null","","","","","","","","","",""
"","image-keyboard-response","150","154646","0.0-150.0","3F6KKYWMNCN8Y7ACBXUBFB5756YNDJ","AURYD2FH3FUOQ","3UDTAB6HH6LRO17U79I9TKUGYFV09C","","1165.2999999970198","img/land1.png","75","1167.3999999910593","2","0","1","1","0.8,0.2,0.2,0.2,0.8,0.2,0.2,0.2,0.8","0.8,0.2,0.2,0.2,0.8,0.2,0.2,0.2,0.8","1","",""
"","html-keyboard-response","151","154950","0.0-151.0","3F6KKYWMNCN8Y7ACBXUBFB5756YNDJ","AURYD2FH3FUOQ","3UDTAB6HH6LRO17U79I9TKUGYFV09C","","null","<img src=""img/land1.png"" style=""width:200px;border:14px solid red;"">","null","","","","","","","","","",""
"","image-keyboard-response","152","155908","0.0-152.0","3F6KKYWMNCN8Y7ACBXUBFB5756YNDJ","AURYD2FH3FUOQ","3UDTAB6HH6LRO17U79I9TKUGYFV09C","","955.2000000029802","img/land1.png","75","957.2000000029802","2","0","1","1","0.8,0.2,0.2,0.2,0.8,0.2,0.2,0.2,0.8","0.8,0.2,0.2,0.2,0.8,0.2,0.2,0.2,0.8","1","",""
"","html-keyboard-response","153","156211","0.0-153.0","3F6KKYWMNCN8Y7ACBXUBFB5756YNDJ","AURYD2FH3FUOQ","3UDTAB6HH6LRO17U79I9TKUGYFV09C","","null","<img src=""img/land1.png"" style=""width:200px;border:14px solid red;"">","null","","","","","","","","","",""
"","image-keyboard-response","154","157159","0.0-154.0","3F6KKYWMNCN8Y7ACBXUBFB5756YNDJ","AURYD2FH3FUOQ","3UDTAB6HH6LRO17U79I9TKUGYFV09C","","945.4000000059605","img/land1.png","75","946.9000000059605","2","1","1","1","0.8,0.2,0.2,0.2,0.8,0.2,0.2,0.2,0.8","0.8,0.2,0.2,0.2,0.8,0.2,0.2,0.2,0.8","1","",""
"","html-keyboard-response","155","157462","0.0-155.0","3F6KKYWMNCN8Y7ACBXUBFB5756YNDJ","AURYD2FH3FUOQ","3UDTAB6HH6LRO17U79I9TKUGYFV09C","","null","<img src=""img/land1.png"" style=""width:200px; border:14px solid green;"">","null","","","","","","","","","",""
"","image-keyboard-response","156","158565","0.0-156.0","3F6KKYWMNCN8Y7ACBXUBFB5756YNDJ","AURYD2FH3FUOQ","3UDTAB6HH6LRO17U79I9TKUGYFV09C","","1100.8999999910593","img/land5.png","75","1102.7999999970198","2","1","2","1","0.8,0.2,0.2,0.2,0.8,0.2,0.2,0.2,0.8","0.8,0.2,0.2,0.2,0.8,0.2,0.2,0.2,0.8","1","",""
"","html-keyboard-response","157","158870","0.0-157.0","3F6KKYWMNCN8Y7ACBXUBFB5756YNDJ","AURYD2FH3FUOQ","3UDTAB6HH6LRO17U79I9TKUGYFV09C","","null","<img src=""img/land5.png"" style=""width:200px; border:14px solid green;"">","null","","","","","","","","","",""
"","image-keyboard-response","158","159955","0.0-158.0","3F6KKYWMNCN8Y7ACBXUBFB5756YNDJ","AURYD2FH3FUOQ","3UDTAB6HH6LRO17U79I9TKUGYFV09C","","1082.1000000089407","img/land2.png","76","1084.5","3","1","3","1","0.8,0.2,0.2,0.2,0.8,0.2,0.2,0.2,0.8","0.8,0.2,0.2,0.2,0.8,0.2,0.2,0.2,0.8","1","",""
"","html-keyboard-response","159","160259","0.0-159.0","3F6KKYWMNCN8Y7ACBXUBFB5756YNDJ","AURYD2FH3FUOQ","3UDTAB6HH6LRO17U79I9TKUGYFV09C","","null","<img src=""img/land2.png"" style=""width:200px; border:14px solid green;"">","null","","","","","","","","","",""
"","image-keyboard-response","160","161181","0.0-160.0","3F6KKYWMNCN8Y7ACBXUBFB5756YNDJ","AURYD2FH3FUOQ","3UDTAB6HH6LRO17U79I9TKUGYFV09C","","919.1000000089407","img/land2.png","76","921.3000000119209","3","1","3","1","0.8,0.2,0.2,0.2,0.8,0.2,0.2,0.2,0.8","0.8,0.2,0.2,0.2,0.8,0.2,0.2,0.2,0.8","1","",""
"","html-keyboard-response","161","161485","0.0-161.0","3F6KKYWMNCN8Y7ACBXUBFB5756YNDJ","AURYD2FH3FUOQ","3UDTAB6HH6LRO17U79I9TKUGYFV09C","","null","<img src=""img/land2.png"" style=""width:200px; border:14px solid green;"">","null","","","","","","","","","",""
"","image-keyboard-response","162","162586","0.0-162.0","3F6KKYWMNCN8Y7ACBXUBFB5756YNDJ","AURYD2FH3FUOQ","3UDTAB6HH6LRO17U79I9TKUGYFV09C","","1099.5","img/land5.png","75","1101.2000000029802","2","1","2","1","0.8,0.2,0.2,0.2,0.8,0.2,0.2,0.2,0.8","0.8,0.2,0.2,0.2,0.8,0.2,0.2,0.2,0.8","1","",""
"","html-keyboard-response","163","162890","0.0-163.0","3F6KKYWMNCN8Y7ACBXUBFB5756YNDJ","AURYD2FH3FUOQ","3UDTAB6HH6LRO17U79I9TKUGYFV09C","","null","<img src=""img/land5.png"" style=""width:200px; border:14px solid green;"">","null","","","","","","","","","",""
"","image-keyboard-response","164","164044","0.0-164.0","3F6KKYWMNCN8Y7ACBXUBFB5756YNDJ","AURYD2FH3FUOQ","3UDTAB6HH6LRO17U79I9TKUGYFV09C","","1150.5","img/land2.png","76","1152.9000000059605","3","1","3","1","0.8,0.2,0.2,0.2,0.8,0.2,0.2,0.2,0.8","0.8,0.2,0.2,0.2,0.8,0.2,0.2,0.2,0.8","1","",""
"","html-keyboard-response","165","164348","0.0-165.0","3F6KKYWMNCN8Y7ACBXUBFB5756YNDJ","AURYD2FH3FUOQ","3UDTAB6HH6LRO17U79I9TKUGYFV09C","","null","<img src=""img/land2.png"" style=""width:200px; border:14px solid green;"">","null","","","","","","","","","",""
"","image-keyboard-response","166","165385","0.0-166.0","3F6KKYWMNCN8Y7ACBXUBFB5756YNDJ","AURYD2FH3FUOQ","3UDTAB6HH6LRO17U79I9TKUGYFV09C","","1034.800000011921","img/land2.png","76","1036.800000011921","3","1","3","1","0.8,0.2,0.2,0.2,0.8,0.2,0.2,0.2,0.8","0.8,0.2,0.2,0.2,0.8,0.2,0.2,0.2,0.8","1","",""
"","html-keyboard-response","167","165689","0.0-167.0","3F6KKYWMNCN8Y7ACBXUBFB5756YNDJ","AURYD2FH3FUOQ","3UDTAB6HH6LRO17U79I9TKUGYFV09C","","null","<img src=""img/land2.png"" style=""width:200px; border:14px solid green;"">","null","","","","","","","","","",""
"","image-keyboard-response","168","166683","0.0-168.0","3F6KKYWMNCN8Y7ACBXUBFB5756YNDJ","AURYD2FH3FUOQ","3UDTAB6HH6LRO17U79I9TKUGYFV09C","","990.7999999970198","img/land2.png","76","992.9000000059605","3","1","3","1","0.8,0.2,0.2,0.2,0.8,0.2,0.2,0.2,0.8","0.8,0.2,0.2,0.2,0.8,0.2,0.2,0.2,0.8","1","",""
"","html-keyboard-response","169","166987","0.0-169.0","3F6KKYWMNCN8Y7ACBXUBFB5756YNDJ","AURYD2FH3FUOQ","3UDTAB6HH6LRO17U79I9TKUGYFV09C","","null","<img src=""img/land2.png"" style=""width:200px; border:14px solid green;"">","null","","","","","","","","","",""
"","image-keyboard-response","170","168024","0.0-170.0","3F6KKYWMNCN8Y7ACBXUBFB5756YNDJ","AURYD2FH3FUOQ","3UDTAB6HH6LRO17U79I9TKUGYFV09C","","1034.0999999940395","img/land1.png","75","1036","2","0","1","1","0.8,0.2,0.2,0.2,0.8,0.2,0.2,0.2,0.8","0.8,0.2,0.2,0.2,0.8,0.2,0.2,0.2,0.8","1","",""
"","html-keyboard-response","171","168328","0.0-171.0","3F6KKYWMNCN8Y7ACBXUBFB5756YNDJ","AURYD2FH3FUOQ","3UDTAB6HH6LRO17U79I9TKUGYFV09C","","null","<img src=""img/land1.png"" style=""width:200px;border:14px solid red;"">","null","","","","","","","","","",""
"","image-keyboard-response","172","169245","0.0-172.0","3F6KKYWMNCN8Y7ACBXUBFB5756YNDJ","AURYD2FH3FUOQ","3UDTAB6HH6LRO17U79I9TKUGYFV09C","","914.0999999940395","img/land2.png","75","916.2999999970198","2","0","3","1","0.8,0.2,0.2,0.2,0.8,0.2,0.2,0.2,0.8","0.8,0.2,0.2,0.2,0.8,0.2,0.2,0.2,0.8","1","",""
"","html-keyboard-response","173","169549","0.0-173.0","3F6KKYWMNCN8Y7ACBXUBFB5756YNDJ","AURYD2FH3FUOQ","3UDTAB6HH6LRO17U79I9TKUGYFV09C","","null","<img src=""img/land2.png"" style=""width:200px;border:14px solid red;"">","null","","","","","","","","","",""
"","image-keyboard-response","174","170729","0.0-174.0","3F6KKYWMNCN8Y7ACBXUBFB5756YNDJ","AURYD2FH3FUOQ","3UDTAB6HH6LRO17U79I9TKUGYFV09C","","1178.0999999940395","img/land2.png","76","1179.5999999940395","3","1","3","1","0.8,0.2,0.2,0.2,0.8,0.2,0.2,0.2,0.8","0.8,0.2,0.2,0.2,0.8,0.2,0.2,0.2,0.8","1","",""
"","html-keyboard-response","175","171031","0.0-175.0","3F6KKYWMNCN8Y7ACBXUBFB5756YNDJ","AURYD2FH3FUOQ","3UDTAB6HH6LRO17U79I9TKUGYFV09C","","null","<img src=""img/land2.png"" style=""width:200px; border:14px solid green;"">","null","","","","","","","","","",""
"","image-keyboard-response","176","172040","0.0-176.0","3F6KKYWMNCN8Y7ACBXUBFB5756YNDJ","AURYD2FH3FUOQ","3UDTAB6HH6LRO17U79I9TKUGYFV09C","","1006.5","img/land1.png","75","1008.5999999940395","2","0","1","1","0.8,0.2,0.2,0.2,0.8,0.2,0.2,0.2,0.8","0.8,0.2,0.2,0.2,0.8,0.2,0.2,0.2,0.8","1","",""
"","html-keyboard-response","177","172343","0.0-177.0","3F6KKYWMNCN8Y7ACBXUBFB5756YNDJ","AURYD2FH3FUOQ","3UDTAB6HH6LRO17U79I9TKUGYFV09C","","null","<img src=""img/land1.png"" style=""width:200px;border:14px solid red;"">","null","","","","","","","","","",""
"","image-keyboard-response","178","173488","0.0-178.0","3F6KKYWMNCN8Y7ACBXUBFB5756YNDJ","AURYD2FH3FUOQ","3UDTAB6HH6LRO17U79I9TKUGYFV09C","","1141.3999999910593","img/land5.png","75","1144.0999999940395","2","1","2","1","0.8,0.2,0.2,0.2,0.8,0.2,0.2,0.2,0.8","0.8,0.2,0.2,0.2,0.8,0.2,0.2,0.2,0.8","1","",""
"","html-keyboard-response","179","173792","0.0-179.0","3F6KKYWMNCN8Y7ACBXUBFB5756YNDJ","AURYD2FH3FUOQ","3UDTAB6HH6LRO17U79I9TKUGYFV09C","","null","<img src=""img/land5.png"" style=""width:200px; border:14px solid green;"">","null","","","","","","","","","",""
"","image-keyboard-response","180","174869","0.0-180.0","3F6KKYWMNCN8Y7ACBXUBFB5756YNDJ","AURYD2FH3FUOQ","3UDTAB6HH6LRO17U79I9TKUGYFV09C","","1074.4000000059605","img/land1.png","75","1076.5","2","0","1","1","0.8,0.2,0.2,0.2,0.8,0.2,0.2,0.2,0.8","0.8,0.2,0.2,0.2,0.8,0.2,0.2,0.2,0.8","1","",""
"","html-keyboard-response","181","175173","0.0-181.0","3F6KKYWMNCN8Y7ACBXUBFB5756YNDJ","AURYD2FH3FUOQ","3UDTAB6HH6LRO17U79I9TKUGYFV09C","","null","<img src=""img/land1.png"" style=""width:200px;border:14px solid red;"">","null","","","","","","","","","",""
"","html-keyboard-response","182","185737","0.0-182.0","3F6KKYWMNCN8Y7ACBXUBFB5756YNDJ","AURYD2FH3FUOQ","3UDTAB6HH6LRO17U79I9TKUGYFV09C","","","","","","","","","","","","","",""
"","image-keyboard-response","183","187606","0.0-183.0","3F6KKYWMNCN8Y7ACBXUBFB5756YNDJ","AURYD2FH3FUOQ","3UDTAB6HH6LRO17U79I9TKUGYFV09C","","1865.9000000059605","img/land3.png","74","1868.7000000029802","1","0","2","2","0.8,0.2,0.2,0.2,0.8,0.2,0.2,0.2,0.8","0.8,0.2,0.2,0.2,0.8,0.2,0.2,0.2,0.8","1","",""
"","html-keyboard-response","184","187912","0.0-184.0","3F6KKYWMNCN8Y7ACBXUBFB5756YNDJ","AURYD2FH3FUOQ","3UDTAB6HH6LRO17U79I9TKUGYFV09C","","null","<img src=""img/land3.png"" style=""width:200px;border:14px solid red;"">","null","","","","","","","","","",""
"","image-keyboard-response","185","189428","0.0-185.0","3F6KKYWMNCN8Y7ACBXUBFB5756YNDJ","AURYD2FH3FUOQ","3UDTAB6HH6LRO17U79I9TKUGYFV09C","","1514.1000000089407","img/land4.png","74","1516.2000000029802","1","0","3","2","0.8,0.2,0.2,0.2,0.8,0.2,0.2,0.2,0.8","0.8,0.2,0.2,0.2,0.8,0.2,0.2,0.2,0.8","1","",""
"","html-keyboard-response","186","189732","0.0-186.0","3F6KKYWMNCN8Y7ACBXUBFB5756YNDJ","AURYD2FH3FUOQ","3UDTAB6HH6LRO17U79I9TKUGYFV09C","","null","<img src=""img/land4.png"" style=""width:200px;border:14px solid red;"">","null","","","","","","","","","",""
"","image-keyboard-response","187","191390","0.0-187.0","3F6KKYWMNCN8Y7ACBXUBFB5756YNDJ","AURYD2FH3FUOQ","3UDTAB6HH6LRO17U79I9TKUGYFV09C","","1655.7000000029802","img/land3.png","75","1657.9000000059605","2","1","2","2","0.8,0.2,0.2,0.2,0.8,0.2,0.2,0.2,0.8","0.8,0.2,0.2,0.2,0.8,0.2,0.2,0.2,0.8","1","",""
"","html-keyboard-response","188","191694","0.0-188.0","3F6KKYWMNCN8Y7ACBXUBFB5756YNDJ","AURYD2FH3FUOQ","3UDTAB6HH6LRO17U79I9TKUGYFV09C","","null","<img src=""img/land3.png"" style=""width:200px; border:14px solid green;"">","null","","","","","","","","","",""
"","image-keyboard-response","189","193259","0.0-189.0","3F6KKYWMNCN8Y7ACBXUBFB5756YNDJ","AURYD2FH3FUOQ","3UDTAB6HH6LRO17U79I9TKUGYFV09C","","1562.800000011921","img/land4.png","74","1565.300000011921","1","0","3","2","0.8,0.2,0.2,0.2,0.8,0.2,0.2,0.2,0.8","0.8,0.2,0.2,0.2,0.8,0.2,0.2,0.2,0.8","1","",""
"","html-keyboard-response","190","193563","0.0-190.0","3F6KKYWMNCN8Y7ACBXUBFB5756YNDJ","AURYD2FH3FUOQ","3UDTAB6HH6LRO17U79I9TKUGYFV09C","","null","<img src=""img/land4.png"" style=""width:200px;border:14px solid red;"">","null","","","","","","","","","",""
"","image-keyboard-response","191","195276","0.0-191.0","3F6KKYWMNCN8Y7ACBXUBFB5756YNDJ","AURYD2FH3FUOQ","3UDTAB6HH6LRO17U79I9TKUGYFV09C","","1710.1000000089407","img/land6.png","74","1712.4000000059605","1","1","1","2","0.8,0.2,0.2,0.2,0.8,0.2,0.2,0.2,0.8","0.8,0.2,0.2,0.2,0.8,0.2,0.2,0.2,0.8","1","",""
"","html-keyboard-response","192","195580","0.0-192.0","3F6KKYWMNCN8Y7ACBXUBFB5756YNDJ","AURYD2FH3FUOQ","3UDTAB6HH6LRO17U79I9TKUGYFV09C","","null","<img src=""img/land6.png"" style=""width:200px; border:14px solid green;"">","null","","","","","","","","","",""
"","image-keyboard-response","193","197233","0.0-193.0","3F6KKYWMNCN8Y7ACBXUBFB5756YNDJ","AURYD2FH3FUOQ","3UDTAB6HH6LRO17U79I9TKUGYFV09C","","1651.5999999940395","img/land6.png","74","1653.2000000029802","1","1","1","2","0.8,0.2,0.2,0.2,0.8,0.2,0.2,0.2,0.8","0.8,0.2,0.2,0.2,0.8,0.2,0.2,0.2,0.8","1","",""
"","html-keyboard-response","194","197536","0.0-194.0","3F6KKYWMNCN8Y7ACBXUBFB5756YNDJ","AURYD2FH3FUOQ","3UDTAB6HH6LRO17U79I9TKUGYFV09C","","null","<img src=""img/land6.png"" style=""width:200px; border:14px solid green;"">","null","","","","","","","","","",""
"","image-keyboard-response","195","199209","0.0-195.0","3F6KKYWMNCN8Y7ACBXUBFB5756YNDJ","AURYD2FH3FUOQ","3UDTAB6HH6LRO17U79I9TKUGYFV09C","","1670.4000000059605","img/land4.png","76","1672.6000000089407","3","0","3","2","0.8,0.2,0.2,0.2,0.8,0.2,0.2,0.2,0.8","0.8,0.2,0.2,0.2,0.8,0.2,0.2,0.2,0.8","1","",""
"","html-keyboard-response","196","199514","0.0-196.0","3F6KKYWMNCN8Y7ACBXUBFB5756YNDJ","AURYD2FH3FUOQ","3UDTAB6HH6LRO17U79I9TKUGYFV09C","","null","<img src=""img/land4.png"" style=""width:200px;border:14px solid red;"">","null","","","","","","","","","",""
"","image-keyboard-response","197","201200","0.0-197.0","3F6KKYWMNCN8Y7ACBXUBFB5756YNDJ","AURYD2FH3FUOQ","3UDTAB6HH6LRO17U79I9TKUGYFV09C","","1682.199999988079","img/land6.png","74","1685.7999999970198","1","1","1","2","0.8,0.2,0.2,0.2,0.8,0.2,0.2,0.2,0.8","0.8,0.2,0.2,0.2,0.8,0.2,0.2,0.2,0.8","1","",""
"","html-keyboard-response","198","201504","0.0-198.0","3F6KKYWMNCN8Y7ACBXUBFB5756YNDJ","AURYD2FH3FUOQ","3UDTAB6HH6LRO17U79I9TKUGYFV09C","","null","<img src=""img/land6.png"" style=""width:200px; border:14px solid green;"">","null","","","","","","","","","",""
"","image-keyboard-response","199","202546","0.0-199.0","3F6KKYWMNCN8Y7ACBXUBFB5756YNDJ","AURYD2FH3FUOQ","3UDTAB6HH6LRO17U79I9TKUGYFV09C","","1038.5999999940395","img/land6.png","74","1040.7999999970198","1","1","1","2","0.8,0.2,0.2,0.2,0.8,0.2,0.2,0.2,0.8","0.8,0.2,0.2,0.2,0.8,0.2,0.2,0.2,0.8","1","",""
"","html-keyboard-response","200","202849","0.0-200.0","3F6KKYWMNCN8Y7ACBXUBFB5756YNDJ","AURYD2FH3FUOQ","3UDTAB6HH6LRO17U79I9TKUGYFV09C","","null","<img src=""img/land6.png"" style=""width:200px; border:14px solid green;"">","null","","","","","","","","","",""
"","image-keyboard-response","201","204075","0.0-201.0","3F6KKYWMNCN8Y7ACBXUBFB5756YNDJ","AURYD2FH3FUOQ","3UDTAB6HH6LRO17U79I9TKUGYFV09C","","1222.699999988079","img/land6.png","74","1225.300000011921","1","1","1","2","0.8,0.2,0.2,0.2,0.8,0.2,0.2,0.2,0.8","0.8,0.2,0.2,0.2,0.8,0.2,0.2,0.2,0.8","1","",""
"","html-keyboard-response","202","204378","0.0-202.0","3F6KKYWMNCN8Y7ACBXUBFB5756YNDJ","AURYD2FH3FUOQ","3UDTAB6HH6LRO17U79I9TKUGYFV09C","","null","<img src=""img/land6.png"" style=""width:200px; border:14px solid green;"">","null","","","","","","","","","",""
"","image-keyboard-response","203","205541","0.0-203.0","3F6KKYWMNCN8Y7ACBXUBFB5756YNDJ","AURYD2FH3FUOQ","3UDTAB6HH6LRO17U79I9TKUGYFV09C","","1160.2000000029802","img/land6.png","74","1162.5","1","1","1","2","0.8,0.2,0.2,0.2,0.8,0.2,0.2,0.2,0.8","0.8,0.2,0.2,0.2,0.8,0.2,0.2,0.2,0.8","1","",""
"","html-keyboard-response","204","205846","0.0-204.0","3F6KKYWMNCN8Y7ACBXUBFB5756YNDJ","AURYD2FH3FUOQ","3UDTAB6HH6LRO17U79I9TKUGYFV09C","","null","<img src=""img/land6.png"" style=""width:200px; border:14px solid green;"">","null","","","","","","","","","",""
"","image-keyboard-response","205","207635","0.0-205.0","3F6KKYWMNCN8Y7ACBXUBFB5756YNDJ","AURYD2FH3FUOQ","3UDTAB6HH6LRO17U79I9TKUGYFV09C","","1784.1000000089407","img/land4.png","76","1787","3","1","3","2","0.8,0.2,0.2,0.2,0.8,0.2,0.2,0.2,0.8","0.8,0.2,0.2,0.2,0.8,0.2,0.2,0.2,0.8","1","",""
"","html-keyboard-response","206","207937","0.0-206.0","3F6KKYWMNCN8Y7ACBXUBFB5756YNDJ","AURYD2FH3FUOQ","3UDTAB6HH6LRO17U79I9TKUGYFV09C","","null","<img src=""img/land4.png"" style=""width:200px; border:14px solid green;"">","null","","","","","","","","","",""
"","image-keyboard-response","207","209118","0.0-207.0","3F6KKYWMNCN8Y7ACBXUBFB5756YNDJ","AURYD2FH3FUOQ","3UDTAB6HH6LRO17U79I9TKUGYFV09C","","1179.2999999970198","img/land4.png","76","1181.5","3","0","3","2","0.8,0.2,0.2,0.2,0.8,0.2,0.2,0.2,0.8","0.8,0.2,0.2,0.2,0.8,0.2,0.2,0.2,0.8","1","",""
"","html-keyboard-response","208","209422","0.0-208.0","3F6KKYWMNCN8Y7ACBXUBFB5756YNDJ","AURYD2FH3FUOQ","3UDTAB6HH6LRO17U79I9TKUGYFV09C","","null","<img src=""img/land4.png"" style=""width:200px;border:14px solid red;"">","null","","","","","","","","","",""
"","image-keyboard-response","209","210941","0.0-209.0","3F6KKYWMNCN8Y7ACBXUBFB5756YNDJ","AURYD2FH3FUOQ","3UDTAB6HH6LRO17U79I9TKUGYFV09C","","1515.9000000059605","img/land6.png","74","1518","1","1","1","2","0.8,0.2,0.2,0.2,0.8,0.2,0.2,0.2,0.8","0.8,0.2,0.2,0.2,0.8,0.2,0.2,0.2,0.8","1","",""
"","html-keyboard-response","210","211245","0.0-210.0","3F6KKYWMNCN8Y7ACBXUBFB5756YNDJ","AURYD2FH3FUOQ","3UDTAB6HH6LRO17U79I9TKUGYFV09C","","null","<img src=""img/land6.png"" style=""width:200px; border:14px solid green;"">","null","","","","","","","","","",""
"","image-keyboard-response","211","212145","0.0-211.0","3F6KKYWMNCN8Y7ACBXUBFB5756YNDJ","AURYD2FH3FUOQ","3UDTAB6HH6LRO17U79I9TKUGYFV09C","","898","img/land6.png","74","900.1999999880791","1","1","1","2","0.8,0.2,0.2,0.2,0.8,0.2,0.2,0.2,0.8","0.8,0.2,0.2,0.2,0.8,0.2,0.2,0.2,0.8","1","",""
"","html-keyboard-response","212","212449","0.0-212.0","3F6KKYWMNCN8Y7ACBXUBFB5756YNDJ","AURYD2FH3FUOQ","3UDTAB6HH6LRO17U79I9TKUGYFV09C","","null","<img src=""img/land6.png"" style=""width:200px; border:14px solid green;"">","null","","","","","","","","","",""
"","image-keyboard-response","213","213750","0.0-213.0","3F6KKYWMNCN8Y7ACBXUBFB5756YNDJ","AURYD2FH3FUOQ","3UDTAB6HH6LRO17U79I9TKUGYFV09C","","1297.7999999970198","img/land6.png","74","1300.3999999910593","1","1","1","2","0.8,0.2,0.2,0.2,0.8,0.2,0.2,0.2,0.8","0.8,0.2,0.2,0.2,0.8,0.2,0.2,0.2,0.8","1","",""
"","html-keyboard-response","214","214053","0.0-214.0","3F6KKYWMNCN8Y7ACBXUBFB5756YNDJ","AURYD2FH3FUOQ","3UDTAB6HH6LRO17U79I9TKUGYFV09C","","null","<img src=""img/land6.png"" style=""width:200px; border:14px solid green;"">","null","","","","","","","","","",""
"","image-keyboard-response","215","215614","0.0-215.0","3F6KKYWMNCN8Y7ACBXUBFB5756YNDJ","AURYD2FH3FUOQ","3UDTAB6HH6LRO17U79I9TKUGYFV09C","","1557.5","img/land4.png","76","1559.2999999970198","3","1","3","2","0.8,0.2,0.2,0.2,0.8,0.2,0.2,0.2,0.8","0.8,0.2,0.2,0.2,0.8,0.2,0.2,0.2,0.8","1","",""
"","html-keyboard-response","216","215922","0.0-216.0","3F6KKYWMNCN8Y7ACBXUBFB5756YNDJ","AURYD2FH3FUOQ","3UDTAB6HH6LRO17U79I9TKUGYFV09C","","null","<img src=""img/land4.png"" style=""width:200px; border:14px solid green;"">","null","","","","","","","","","",""
"","image-keyboard-response","217","217189","0.0-217.0","3F6KKYWMNCN8Y7ACBXUBFB5756YNDJ","AURYD2FH3FUOQ","3UDTAB6HH6LRO17U79I9TKUGYFV09C","","1264.3999999910593","img/land6.png","74","1266.3999999910593","1","1","1","2","0.8,0.2,0.2,0.2,0.8,0.2,0.2,0.2,0.8","0.8,0.2,0.2,0.2,0.8,0.2,0.2,0.2,0.8","1","",""
"","html-keyboard-response","218","217492","0.0-218.0","3F6KKYWMNCN8Y7ACBXUBFB5756YNDJ","AURYD2FH3FUOQ","3UDTAB6HH6LRO17U79I9TKUGYFV09C","","null","<img src=""img/land6.png"" style=""width:200px; border:14px solid green;"">","null","","","","","","","","","",""
"","image-keyboard-response","219","218555","0.0-219.0","3F6KKYWMNCN8Y7ACBXUBFB5756YNDJ","AURYD2FH3FUOQ","3UDTAB6HH6LRO17U79I9TKUGYFV09C","","1059.7999999970198","img/land6.png","74","1062.5","1","0","1","2","0.8,0.2,0.2,0.2,0.8,0.2,0.2,0.2,0.8","0.8,0.2,0.2,0.2,0.8,0.2,0.2,0.2,0.8","1","",""
"","html-keyboard-response","220","218860","0.0-220.0","3F6KKYWMNCN8Y7ACBXUBFB5756YNDJ","AURYD2FH3FUOQ","3UDTAB6HH6LRO17U79I9TKUGYFV09C","","null","<img src=""img/land6.png"" style=""width:200px;border:14px solid red;"">","null","","","","","","","","","",""
"","image-keyboard-response","221","220220","0.0-221.0","3F6KKYWMNCN8Y7ACBXUBFB5756YNDJ","AURYD2FH3FUOQ","3UDTAB6HH6LRO17U79I9TKUGYFV09C","","1357.4000000059605","img/land3.png","75","1359.5999999940395","2","1","2","2","0.8,0.2,0.2,0.2,0.8,0.2,0.2,0.2,0.8","0.8,0.2,0.2,0.2,0.8,0.2,0.2,0.2,0.8","1","",""
"","html-keyboard-response","222","220524","0.0-222.0","3F6KKYWMNCN8Y7ACBXUBFB5756YNDJ","AURYD2FH3FUOQ","3UDTAB6HH6LRO17U79I9TKUGYFV09C","","null","<img src=""img/land3.png"" style=""width:200px; border:14px solid green;"">","null","","","","","","","","","",""
"","image-keyboard-response","223","221825","0.0-223.0","3F6KKYWMNCN8Y7ACBXUBFB5756YNDJ","AURYD2FH3FUOQ","3UDTAB6HH6LRO17U79I9TKUGYFV09C","","1298.1000000089407","img/land6.png","74","1300.2000000029802","1","0","1","2","0.8,0.2,0.2,0.2,0.8,0.2,0.2,0.2,0.8","0.8,0.2,0.2,0.2,0.8,0.2,0.2,0.2,0.8","1","",""
"","html-keyboard-response","224","222129","0.0-224.0","3F6KKYWMNCN8Y7ACBXUBFB5756YNDJ","AURYD2FH3FUOQ","3UDTAB6HH6LRO17U79I9TKUGYFV09C","","null","<img src=""img/land6.png"" style=""width:200px;border:14px solid red;"">","null","","","","","","","","","",""
"","image-keyboard-response","225","223276","0.0-225.0","3F6KKYWMNCN8Y7ACBXUBFB5756YNDJ","AURYD2FH3FUOQ","3UDTAB6HH6LRO17U79I9TKUGYFV09C","","1144.0999999940395","img/land3.png","76","1146.2999999970198","3","0","2","2","0.8,0.2,0.2,0.2,0.8,0.2,0.2,0.2,0.8","0.8,0.2,0.2,0.2,0.8,0.2,0.2,0.2,0.8","1","",""
"","html-keyboard-response","226","223579","0.0-226.0","3F6KKYWMNCN8Y7ACBXUBFB5756YNDJ","AURYD2FH3FUOQ","3UDTAB6HH6LRO17U79I9TKUGYFV09C","","null","<img src=""img/land3.png"" style=""width:200px;border:14px solid red;"">","null","","","","","","","","","",""
"","image-keyboard-response","227","224873","0.0-227.0","3F6KKYWMNCN8Y7ACBXUBFB5756YNDJ","AURYD2FH3FUOQ","3UDTAB6HH6LRO17U79I9TKUGYFV09C","","1292.7999999970198","img/land6.png","74","1294.199999988079","1","1","1","2","0.8,0.2,0.2,0.2,0.8,0.2,0.2,0.2,0.8","0.8,0.2,0.2,0.2,0.8,0.2,0.2,0.2,0.8","1","",""
"","html-keyboard-response","228","225191","0.0-228.0","3F6KKYWMNCN8Y7ACBXUBFB5756YNDJ","AURYD2FH3FUOQ","3UDTAB6HH6LRO17U79I9TKUGYFV09C","","null","<img src=""img/land6.png"" style=""width:200px; border:14px solid green;"">","null","","","","","","","","","",""
"","image-keyboard-response","229","226171","0.0-229.0","3F6KKYWMNCN8Y7ACBXUBFB5756YNDJ","AURYD2FH3FUOQ","3UDTAB6HH6LRO17U79I9TKUGYFV09C","","977.7999999970198","img/land6.png","74","979.2999999970198","1","1","1","2","0.8,0.2,0.2,0.2,0.8,0.2,0.2,0.2,0.8","0.8,0.2,0.2,0.2,0.8,0.2,0.2,0.2,0.8","1","",""
"","html-keyboard-response","230","226473","0.0-230.0","3F6KKYWMNCN8Y7ACBXUBFB5756YNDJ","AURYD2FH3FUOQ","3UDTAB6HH6LRO17U79I9TKUGYFV09C","","null","<img src=""img/land6.png"" style=""width:200px; border:14px solid green;"">","null","","","","","","","","","",""
"","image-keyboard-response","231","227677","0.0-231.0","3F6KKYWMNCN8Y7ACBXUBFB5756YNDJ","AURYD2FH3FUOQ","3UDTAB6HH6LRO17U79I9TKUGYFV09C","","1201.699999988079","img/land3.png","75","1203.2000000029802","2","1","2","2","0.8,0.2,0.2,0.2,0.8,0.2,0.2,0.2,0.8","0.8,0.2,0.2,0.2,0.8,0.2,0.2,0.2,0.8","1","",""
"","html-keyboard-response","232","227978","0.0-232.0","3F6KKYWMNCN8Y7ACBXUBFB5756YNDJ","AURYD2FH3FUOQ","3UDTAB6HH6LRO17U79I9TKUGYFV09C","","null","<img src=""img/land3.png"" style=""width:200px; border:14px solid green;"">","null","","","","","","","","","",""
"","image-keyboard-response","233","229537","0.0-233.0","3F6KKYWMNCN8Y7ACBXUBFB5756YNDJ","AURYD2FH3FUOQ","3UDTAB6HH6LRO17U79I9TKUGYFV09C","","1556.2999999970198","img/land6.png","74","1558.5","1","1","1","2","0.8,0.2,0.2,0.2,0.8,0.2,0.2,0.2,0.8","0.8,0.2,0.2,0.2,0.8,0.2,0.2,0.2,0.8","1","",""
"","html-keyboard-response","234","229840","0.0-234.0","3F6KKYWMNCN8Y7ACBXUBFB5756YNDJ","AURYD2FH3FUOQ","3UDTAB6HH6LRO17U79I9TKUGYFV09C","","null","<img src=""img/land6.png"" style=""width:200px; border:14px solid green;"">","null","","","","","","","","","",""
"","image-keyboard-response","235","230981","0.0-235.0","3F6KKYWMNCN8Y7ACBXUBFB5756YNDJ","AURYD2FH3FUOQ","3UDTAB6HH6LRO17U79I9TKUGYFV09C","","1138.0999999940395","img/land6.png","74","1140.300000011921","1","1","1","2","0.8,0.2,0.2,0.2,0.8,0.2,0.2,0.2,0.8","0.8,0.2,0.2,0.2,0.8,0.2,0.2,0.2,0.8","1","",""
"","html-keyboard-response","236","231284","0.0-236.0","3F6KKYWMNCN8Y7ACBXUBFB5756YNDJ","AURYD2FH3FUOQ","3UDTAB6HH6LRO17U79I9TKUGYFV09C","","null","<img src=""img/land6.png"" style=""width:200px; border:14px solid green;"">","null","","","","","","","","","",""
"","image-keyboard-response","237","232239","0.0-237.0","3F6KKYWMNCN8Y7ACBXUBFB5756YNDJ","AURYD2FH3FUOQ","3UDTAB6HH6LRO17U79I9TKUGYFV09C","","953","img/land6.png","74","954.5999999940395","1","1","1","2","0.8,0.2,0.2,0.2,0.8,0.2,0.2,0.2,0.8","0.8,0.2,0.2,0.2,0.8,0.2,0.2,0.2,0.8","1","",""
"","html-keyboard-response","238","232542","0.0-238.0","3F6KKYWMNCN8Y7ACBXUBFB5756YNDJ","AURYD2FH3FUOQ","3UDTAB6HH6LRO17U79I9TKUGYFV09C","","null","<img src=""img/land6.png"" style=""width:200px; border:14px solid green;"">","null","","","","","","","","","",""
"","image-keyboard-response","239","233474","0.0-239.0","3F6KKYWMNCN8Y7ACBXUBFB5756YNDJ","AURYD2FH3FUOQ","3UDTAB6HH6LRO17U79I9TKUGYFV09C","","929.7999999970198","img/land6.png","74","932","1","1","1","2","0.8,0.2,0.2,0.2,0.8,0.2,0.2,0.2,0.8","0.8,0.2,0.2,0.2,0.8,0.2,0.2,0.2,0.8","1","",""
"","html-keyboard-response","240","233779","0.0-240.0","3F6KKYWMNCN8Y7ACBXUBFB5756YNDJ","AURYD2FH3FUOQ","3UDTAB6HH6LRO17U79I9TKUGYFV09C","","null","<img src=""img/land6.png"" style=""width:200px; border:14px solid green;"">","null","","","","","","","","","",""
"","image-keyboard-response","241","234964","0.0-241.0","3F6KKYWMNCN8Y7ACBXUBFB5756YNDJ","AURYD2FH3FUOQ","3UDTAB6HH6LRO17U79I9TKUGYFV09C","","1181.3999999910593","img/land4.png","76","1183.7999999970198","3","1","3","2","0.8,0.2,0.2,0.2,0.8,0.2,0.2,0.2,0.8","0.8,0.2,0.2,0.2,0.8,0.2,0.2,0.2,0.8","1","",""
"","html-keyboard-response","242","235267","0.0-242.0","3F6KKYWMNCN8Y7ACBXUBFB5756YNDJ","AURYD2FH3FUOQ","3UDTAB6HH6LRO17U79I9TKUGYFV09C","","null","<img src=""img/land4.png"" style=""width:200px; border:14px solid green;"">","null","","","","","","","","","",""
"","image-keyboard-response","243","236542","0.0-243.0","3F6KKYWMNCN8Y7ACBXUBFB5756YNDJ","AURYD2FH3FUOQ","3UDTAB6HH6LRO17U79I9TKUGYFV09C","","1272.4000000059605","img/land6.png","74","1274.7000000029802","1","1","1","2","0.8,0.2,0.2,0.2,0.8,0.2,0.2,0.2,0.8","0.8,0.2,0.2,0.2,0.8,0.2,0.2,0.2,0.8","1","",""
"","html-keyboard-response","244","236846","0.0-244.0","3F6KKYWMNCN8Y7ACBXUBFB5756YNDJ","AURYD2FH3FUOQ","3UDTAB6HH6LRO17U79I9TKUGYFV09C","","null","<img src=""img/land6.png"" style=""width:200px; border:14px solid green;"">","null","","","","","","","","","",""
"","image-keyboard-response","245","237727","0.0-245.0","3F6KKYWMNCN8Y7ACBXUBFB5756YNDJ","AURYD2FH3FUOQ","3UDTAB6HH6LRO17U79I9TKUGYFV09C","","878.5999999940395","img/land6.png","74","880.9000000059605","1","1","1","2","0.8,0.2,0.2,0.2,0.8,0.2,0.2,0.2,0.8","0.8,0.2,0.2,0.2,0.8,0.2,0.2,0.2,0.8","1","",""
"","html-keyboard-response","246","238030","0.0-246.0","3F6KKYWMNCN8Y7ACBXUBFB5756YNDJ","AURYD2FH3FUOQ","3UDTAB6HH6LRO17U79I9TKUGYFV09C","","null","<img src=""img/land6.png"" style=""width:200px; border:14px solid green;"">","null","","","","","","","","","",""
"","image-keyboard-response","247","239098","0.0-247.0","3F6KKYWMNCN8Y7ACBXUBFB5756YNDJ","AURYD2FH3FUOQ","3UDTAB6HH6LRO17U79I9TKUGYFV09C","","1066.5","img/land6.png","74","1068.2000000029802","1","1","1","2","0.8,0.2,0.2,0.2,0.8,0.2,0.2,0.2,0.8","0.8,0.2,0.2,0.2,0.8,0.2,0.2,0.2,0.8","1","",""
"","html-keyboard-response","248","239403","0.0-248.0","3F6KKYWMNCN8Y7ACBXUBFB5756YNDJ","AURYD2FH3FUOQ","3UDTAB6HH6LRO17U79I9TKUGYFV09C","","null","<img src=""img/land6.png"" style=""width:200px; border:14px solid green;"">","null","","","","","","","","","",""
"","image-keyboard-response","249","240302","0.0-249.0","3F6KKYWMNCN8Y7ACBXUBFB5756YNDJ","AURYD2FH3FUOQ","3UDTAB6HH6LRO17U79I9TKUGYFV09C","","894.5999999940395","img/land6.png","74","897.7000000029802","1","1","1","2","0.8,0.2,0.2,0.2,0.8,0.2,0.2,0.2,0.8","0.8,0.2,0.2,0.2,0.8,0.2,0.2,0.2,0.8","1","",""
"","html-keyboard-response","250","240606","0.0-250.0","3F6KKYWMNCN8Y7ACBXUBFB5756YNDJ","AURYD2FH3FUOQ","3UDTAB6HH6LRO17U79I9TKUGYFV09C","","null","<img src=""img/land6.png"" style=""width:200px; border:14px solid green;"">","null","","","","","","","","","",""
"","image-keyboard-response","251","241669","0.0-251.0","3F6KKYWMNCN8Y7ACBXUBFB5756YNDJ","AURYD2FH3FUOQ","3UDTAB6HH6LRO17U79I9TKUGYFV09C","","1060.5","img/land6.png","74","1062.6000000089407","1","1","1","2","0.8,0.2,0.2,0.2,0.8,0.2,0.2,0.2,0.8","0.8,0.2,0.2,0.2,0.8,0.2,0.2,0.2,0.8","1","",""
"","html-keyboard-response","252","241972","0.0-252.0","3F6KKYWMNCN8Y7ACBXUBFB5756YNDJ","AURYD2FH3FUOQ","3UDTAB6HH6LRO17U79I9TKUGYFV09C","","null","<img src=""img/land6.png"" style=""width:200px; border:14px solid green;"">","null","","","","","","","","","",""
"","image-keyboard-response","253","242963","0.0-253.0","3F6KKYWMNCN8Y7ACBXUBFB5756YNDJ","AURYD2FH3FUOQ","3UDTAB6HH6LRO17U79I9TKUGYFV09C","","988.2999999970198","img/land3.png","75","990.2999999970198","2","1","2","2","0.8,0.2,0.2,0.2,0.8,0.2,0.2,0.2,0.8","0.8,0.2,0.2,0.2,0.8,0.2,0.2,0.2,0.8","1","",""
"","html-keyboard-response","254","243268","0.0-254.0","3F6KKYWMNCN8Y7ACBXUBFB5756YNDJ","AURYD2FH3FUOQ","3UDTAB6HH6LRO17U79I9TKUGYFV09C","","null","<img src=""img/land3.png"" style=""width:200px; border:14px solid green;"">","null","","","","","","","","","",""
"","image-keyboard-response","255","244475","0.0-255.0","3F6KKYWMNCN8Y7ACBXUBFB5756YNDJ","AURYD2FH3FUOQ","3UDTAB6HH6LRO17U79I9TKUGYFV09C","","1202.199999988079","img/land4.png","76","1203.8999999910593","3","1","3","2","0.8,0.2,0.2,0.2,0.8,0.2,0.2,0.2,0.8","0.8,0.2,0.2,0.2,0.8,0.2,0.2,0.2,0.8","1","",""
"","html-keyboard-response","256","244778","0.0-256.0","3F6KKYWMNCN8Y7ACBXUBFB5756YNDJ","AURYD2FH3FUOQ","3UDTAB6HH6LRO17U79I9TKUGYFV09C","","null","<img src=""img/land4.png"" style=""width:200px; border:14px solid green;"">","null","","","","","","","","","",""
"","image-keyboard-response","257","245855","0.0-257.0","3F6KKYWMNCN8Y7ACBXUBFB5756YNDJ","AURYD2FH3FUOQ","3UDTAB6HH6LRO17U79I9TKUGYFV09C","","1074.800000011921","img/land6.png","74","1076.9000000059605","1","0","1","2","0.8,0.2,0.2,0.2,0.8,0.2,0.2,0.2,0.8","0.8,0.2,0.2,0.2,0.8,0.2,0.2,0.2,0.8","1","",""
"","html-keyboard-response","258","246158","0.0-258.0","3F6KKYWMNCN8Y7ACBXUBFB5756YNDJ","AURYD2FH3FUOQ","3UDTAB6HH6LRO17U79I9TKUGYFV09C","","null","<img src=""img/land6.png"" style=""width:200px;border:14px solid red;"">","null","","","","","","","","","",""
"","image-keyboard-response","259","247337","0.0-259.0","3F6KKYWMNCN8Y7ACBXUBFB5756YNDJ","AURYD2FH3FUOQ","3UDTAB6HH6LRO17U79I9TKUGYFV09C","","1177.7999999970198","img/land6.png","74","1179.5999999940395","1","1","1","2","0.8,0.2,0.2,0.2,0.8,0.2,0.2,0.2,0.8","0.8,0.2,0.2,0.2,0.8,0.2,0.2,0.2,0.8","1","",""
"","html-keyboard-response","260","247641","0.0-260.0","3F6KKYWMNCN8Y7ACBXUBFB5756YNDJ","AURYD2FH3FUOQ","3UDTAB6HH6LRO17U79I9TKUGYFV09C","","null","<img src=""img/land6.png"" style=""width:200px; border:14px solid green;"">","null","","","","","","","","","",""
"","image-keyboard-response","261","248786","0.0-261.0","3F6KKYWMNCN8Y7ACBXUBFB5756YNDJ","AURYD2FH3FUOQ","3UDTAB6HH6LRO17U79I9TKUGYFV09C","","1143.9000000059605","img/land3.png","75","1145.699999988079","2","1","2","2","0.8,0.2,0.2,0.2,0.8,0.2,0.2,0.2,0.8","0.8,0.2,0.2,0.2,0.8,0.2,0.2,0.2,0.8","1","",""
"","html-keyboard-response","262","249091","0.0-262.0","3F6KKYWMNCN8Y7ACBXUBFB5756YNDJ","AURYD2FH3FUOQ","3UDTAB6HH6LRO17U79I9TKUGYFV09C","","null","<img src=""img/land3.png"" style=""width:200px; border:14px solid green;"">","null","","","","","","","","","",""
"","image-keyboard-response","263","250356","0.0-263.0","3F6KKYWMNCN8Y7ACBXUBFB5756YNDJ","AURYD2FH3FUOQ","3UDTAB6HH6LRO17U79I9TKUGYFV09C","","1263","img/land6.png","74","1264.9000000059605","1","1","1","2","0.8,0.2,0.2,0.2,0.8,0.2,0.2,0.2,0.8","0.8,0.2,0.2,0.2,0.8,0.2,0.2,0.2,0.8","1","",""
"","html-keyboard-response","264","250676","0.0-264.0","3F6KKYWMNCN8Y7ACBXUBFB5756YNDJ","AURYD2FH3FUOQ","3UDTAB6HH6LRO17U79I9TKUGYFV09C","","null","<img src=""img/land6.png"" style=""width:200px; border:14px solid green;"">","null","","","","","","","","","",""
"","image-keyboard-response","265","251761","0.0-265.0","3F6KKYWMNCN8Y7ACBXUBFB5756YNDJ","AURYD2FH3FUOQ","3UDTAB6HH6LRO17U79I9TKUGYFV09C","","1081.9000000059605","img/land6.png","74","1084.2999999970198","1","1","1","2","0.8,0.2,0.2,0.2,0.8,0.2,0.2,0.2,0.8","0.8,0.2,0.2,0.2,0.8,0.2,0.2,0.2,0.8","1","",""
"","html-keyboard-response","266","252065","0.0-266.0","3F6KKYWMNCN8Y7ACBXUBFB5756YNDJ","AURYD2FH3FUOQ","3UDTAB6HH6LRO17U79I9TKUGYFV09C","","null","<img src=""img/land6.png"" style=""width:200px; border:14px solid green;"">","null","","","","","","","","","",""
"","image-keyboard-response","267","253344","0.0-267.0","3F6KKYWMNCN8Y7ACBXUBFB5756YNDJ","AURYD2FH3FUOQ","3UDTAB6HH6LRO17U79I9TKUGYFV09C","","1276","img/land3.png","75","1278.2999999970198","2","1","2","2","0.8,0.2,0.2,0.2,0.8,0.2,0.2,0.2,0.8","0.8,0.2,0.2,0.2,0.8,0.2,0.2,0.2,0.8","1","",""
"","html-keyboard-response","268","253647","0.0-268.0","3F6KKYWMNCN8Y7ACBXUBFB5756YNDJ","AURYD2FH3FUOQ","3UDTAB6HH6LRO17U79I9TKUGYFV09C","","null","<img src=""img/land3.png"" style=""width:200px; border:14px solid green;"">","null","","","","","","","","","",""
"","image-keyboard-response","269","255083","0.0-269.0","3F6KKYWMNCN8Y7ACBXUBFB5756YNDJ","AURYD2FH3FUOQ","3UDTAB6HH6LRO17U79I9TKUGYFV09C","","1433.5","img/land6.png","74","1435.6000000089407","1","1","1","2","0.8,0.2,0.2,0.2,0.8,0.2,0.2,0.2,0.8","0.8,0.2,0.2,0.2,0.8,0.2,0.2,0.2,0.8","1","",""
"","html-keyboard-response","270","255387","0.0-270.0","3F6KKYWMNCN8Y7ACBXUBFB5756YNDJ","AURYD2FH3FUOQ","3UDTAB6HH6LRO17U79I9TKUGYFV09C","","null","<img src=""img/land6.png"" style=""width:200px; border:14px solid green;"">","null","","","","","","","","","",""
"","image-keyboard-response","271","256712","0.0-271.0","3F6KKYWMNCN8Y7ACBXUBFB5756YNDJ","AURYD2FH3FUOQ","3UDTAB6HH6LRO17U79I9TKUGYFV09C","","1321.800000011921","img/land4.png","76","1324.4000000059605","3","1","3","2","0.8,0.2,0.2,0.2,0.8,0.2,0.2,0.2,0.8","0.8,0.2,0.2,0.2,0.8,0.2,0.2,0.2,0.8","1","",""
"","html-keyboard-response","272","257016","0.0-272.0","3F6KKYWMNCN8Y7ACBXUBFB5756YNDJ","AURYD2FH3FUOQ","3UDTAB6HH6LRO17U79I9TKUGYFV09C","","null","<img src=""img/land4.png"" style=""width:200px; border:14px solid green;"">","null","","","","","","","","","",""
"","image-keyboard-response","273","258254","0.0-273.0","3F6KKYWMNCN8Y7ACBXUBFB5756YNDJ","AURYD2FH3FUOQ","3UDTAB6HH6LRO17U79I9TKUGYFV09C","","1235.2999999970198","img/land3.png","75","1237.8999999910593","2","1","2","2","0.8,0.2,0.2,0.2,0.8,0.2,0.2,0.2,0.8","0.8,0.2,0.2,0.2,0.8,0.2,0.2,0.2,0.8","1","",""
"","html-keyboard-response","274","258558","0.0-274.0","3F6KKYWMNCN8Y7ACBXUBFB5756YNDJ","AURYD2FH3FUOQ","3UDTAB6HH6LRO17U79I9TKUGYFV09C","","null","<img src=""img/land3.png"" style=""width:200px; border:14px solid green;"">","null","","","","","","","","","",""
"","image-keyboard-response","275","259807","0.0-275.0","3F6KKYWMNCN8Y7ACBXUBFB5756YNDJ","AURYD2FH3FUOQ","3UDTAB6HH6LRO17U79I9TKUGYFV09C","","1246.0999999940395","img/land6.png","74","1248.4000000059605","1","1","1","2","0.8,0.2,0.2,0.2,0.8,0.2,0.2,0.2,0.8","0.8,0.2,0.2,0.2,0.8,0.2,0.2,0.2,0.8","1","",""
"","html-keyboard-response","276","260110","0.0-276.0","3F6KKYWMNCN8Y7ACBXUBFB5756YNDJ","AURYD2FH3FUOQ","3UDTAB6HH6LRO17U79I9TKUGYFV09C","","null","<img src=""img/land6.png"" style=""width:200px; border:14px solid green;"">","null","","","","","","","","","",""
"","image-keyboard-response","277","261186","0.0-277.0","3F6KKYWMNCN8Y7ACBXUBFB5756YNDJ","AURYD2FH3FUOQ","3UDTAB6HH6LRO17U79I9TKUGYFV09C","","1073.5","img/land6.png","74","1075.199999988079","1","1","1","2","0.8,0.2,0.2,0.2,0.8,0.2,0.2,0.2,0.8","0.8,0.2,0.2,0.2,0.8,0.2,0.2,0.2,0.8","1","",""
"","html-keyboard-response","278","261490","0.0-278.0","3F6KKYWMNCN8Y7ACBXUBFB5756YNDJ","AURYD2FH3FUOQ","3UDTAB6HH6LRO17U79I9TKUGYFV09C","","null","<img src=""img/land6.png"" style=""width:200px; border:14px solid green;"">","null","","","","","","","","","",""
"","image-keyboard-response","279","262492","0.0-279.0","3F6KKYWMNCN8Y7ACBXUBFB5756YNDJ","AURYD2FH3FUOQ","3UDTAB6HH6LRO17U79I9TKUGYFV09C","","999.2999999970198","img/land6.png","74","1001.5","1","1","1","2","0.8,0.2,0.2,0.2,0.8,0.2,0.2,0.2,0.8","0.8,0.2,0.2,0.2,0.8,0.2,0.2,0.2,0.8","1","",""
"","html-keyboard-response","280","262796","0.0-280.0","3F6KKYWMNCN8Y7ACBXUBFB5756YNDJ","AURYD2FH3FUOQ","3UDTAB6HH6LRO17U79I9TKUGYFV09C","","null","<img src=""img/land6.png"" style=""width:200px; border:14px solid green;"">","null","","","","","","","","","",""
"","image-keyboard-response","281","263792","0.0-281.0","3F6KKYWMNCN8Y7ACBXUBFB5756YNDJ","AURYD2FH3FUOQ","3UDTAB6HH6LRO17U79I9TKUGYFV09C","","993.2999999970198","img/land6.png","74","995.7000000029802","1","1","1","2","0.8,0.2,0.2,0.2,0.8,0.2,0.2,0.2,0.8","0.8,0.2,0.2,0.2,0.8,0.2,0.2,0.2,0.8","1","",""
"","html-keyboard-response","282","264096","0.0-282.0","3F6KKYWMNCN8Y7ACBXUBFB5756YNDJ","AURYD2FH3FUOQ","3UDTAB6HH6LRO17U79I9TKUGYFV09C","","null","<img src=""img/land6.png"" style=""width:200px; border:14px solid green;"">","null","","","","","","","","","",""
"","image-keyboard-response","283","265423","0.0-283.0","3F6KKYWMNCN8Y7ACBXUBFB5756YNDJ","AURYD2FH3FUOQ","3UDTAB6HH6LRO17U79I9TKUGYFV09C","","1325.8999999910593","img/land3.png","75","1327.2000000029802","2","1","2","2","0.8,0.2,0.2,0.2,0.8,0.2,0.2,0.2,0.8","0.8,0.2,0.2,0.2,0.8,0.2,0.2,0.2,0.8","1","",""
"","html-keyboard-response","284","265725","0.0-284.0","3F6KKYWMNCN8Y7ACBXUBFB5756YNDJ","AURYD2FH3FUOQ","3UDTAB6HH6LRO17U79I9TKUGYFV09C","","null","<img src=""img/land3.png"" style=""width:200px; border:14px solid green;"">","null","","","","","","","","","",""
"","image-keyboard-response","285","267077","0.0-285.0","3F6KKYWMNCN8Y7ACBXUBFB5756YNDJ","AURYD2FH3FUOQ","3UDTAB6HH6LRO17U79I9TKUGYFV09C","","1349.2000000029802","img/land6.png","74","1351.2000000029802","1","1","1","2","0.8,0.2,0.2,0.2,0.8,0.2,0.2,0.2,0.8","0.8,0.2,0.2,0.2,0.8,0.2,0.2,0.2,0.8","1","",""
"","html-keyboard-response","286","267381","0.0-286.0","3F6KKYWMNCN8Y7ACBXUBFB5756YNDJ","AURYD2FH3FUOQ","3UDTAB6HH6LRO17U79I9TKUGYFV09C","","null","<img src=""img/land6.png"" style=""width:200px; border:14px solid green;"">","null","","","","","","","","","",""
"","image-keyboard-response","287","268588","0.0-287.0","3F6KKYWMNCN8Y7ACBXUBFB5756YNDJ","AURYD2FH3FUOQ","3UDTAB6HH6LRO17U79I9TKUGYFV09C","","1203","img/land3.png","75","1205.2999999970198","2","1","2","2","0.8,0.2,0.2,0.2,0.8,0.2,0.2,0.2,0.8","0.8,0.2,0.2,0.2,0.8,0.2,0.2,0.2,0.8","1","",""
"","html-keyboard-response","288","268892","0.0-288.0","3F6KKYWMNCN8Y7ACBXUBFB5756YNDJ","AURYD2FH3FUOQ","3UDTAB6HH6LRO17U79I9TKUGYFV09C","","null","<img src=""img/land3.png"" style=""width:200px; border:14px solid green;"">","null","","","","","","","","","",""
"","image-keyboard-response","289","269863","0.0-289.0","3F6KKYWMNCN8Y7ACBXUBFB5756YNDJ","AURYD2FH3FUOQ","3UDTAB6HH6LRO17U79I9TKUGYFV09C","","968.1999999880791","img/land3.png","75","970.4000000059605","2","1","2","2","0.8,0.2,0.2,0.2,0.8,0.2,0.2,0.2,0.8","0.8,0.2,0.2,0.2,0.8,0.2,0.2,0.2,0.8","1","",""
"","html-keyboard-response","290","270167","0.0-290.0","3F6KKYWMNCN8Y7ACBXUBFB5756YNDJ","AURYD2FH3FUOQ","3UDTAB6HH6LRO17U79I9TKUGYFV09C","","null","<img src=""img/land3.png"" style=""width:200px; border:14px solid green;"">","null","","","","","","","","","",""
"","image-keyboard-response","291","271355","0.0-291.0","3F6KKYWMNCN8Y7ACBXUBFB5756YNDJ","AURYD2FH3FUOQ","3UDTAB6HH6LRO17U79I9TKUGYFV09C","","1185.5999999940395","img/land6.png","74","1187.7000000029802","1","0","1","2","0.8,0.2,0.2,0.2,0.8,0.2,0.2,0.2,0.8","0.8,0.2,0.2,0.2,0.8,0.2,0.2,0.2,0.8","1","",""
"","html-keyboard-response","292","271658","0.0-292.0","3F6KKYWMNCN8Y7ACBXUBFB5756YNDJ","AURYD2FH3FUOQ","3UDTAB6HH6LRO17U79I9TKUGYFV09C","","null","<img src=""img/land6.png"" style=""width:200px;border:14px solid red;"">","null","","","","","","","","","",""
"","image-keyboard-response","293","273028","0.0-293.0","3F6KKYWMNCN8Y7ACBXUBFB5756YNDJ","AURYD2FH3FUOQ","3UDTAB6HH6LRO17U79I9TKUGYFV09C","","1368.5999999940395","img/land4.png","76","1370","3","1","3","2","0.8,0.2,0.2,0.2,0.8,0.2,0.2,0.2,0.8","0.8,0.2,0.2,0.2,0.8,0.2,0.2,0.2,0.8","1","",""
"","html-keyboard-response","294","273331","0.0-294.0","3F6KKYWMNCN8Y7ACBXUBFB5756YNDJ","AURYD2FH3FUOQ","3UDTAB6HH6LRO17U79I9TKUGYFV09C","","null","<img src=""img/land4.png"" style=""width:200px; border:14px solid green;"">","null","","","","","","","","","",""
"","image-keyboard-response","295","274530","0.0-295.0","3F6KKYWMNCN8Y7ACBXUBFB5756YNDJ","AURYD2FH3FUOQ","3UDTAB6HH6LRO17U79I9TKUGYFV09C","","1195.9000000059605","img/land3.png","75","1198.2000000029802","2","1","2","2","0.8,0.2,0.2,0.2,0.8,0.2,0.2,0.2,0.8","0.8,0.2,0.2,0.2,0.8,0.2,0.2,0.2,0.8","1","",""
"","html-keyboard-response","296","274834","0.0-296.0","3F6KKYWMNCN8Y7ACBXUBFB5756YNDJ","AURYD2FH3FUOQ","3UDTAB6HH6LRO17U79I9TKUGYFV09C","","null","<img src=""img/land3.png"" style=""width:200px; border:14px solid green;"">","null","","","","","","","","","",""
"","image-keyboard-response","297","276254","0.0-297.0","3F6KKYWMNCN8Y7ACBXUBFB5756YNDJ","AURYD2FH3FUOQ","3UDTAB6HH6LRO17U79I9TKUGYFV09C","","1417.199999988079","img/land4.png","76","1420.0999999940395","3","1","3","2","0.8,0.2,0.2,0.2,0.8,0.2,0.2,0.2,0.8","0.8,0.2,0.2,0.2,0.8,0.2,0.2,0.2,0.8","1","",""
"","html-keyboard-response","298","276560","0.0-298.0","3F6KKYWMNCN8Y7ACBXUBFB5756YNDJ","AURYD2FH3FUOQ","3UDTAB6HH6LRO17U79I9TKUGYFV09C","","null","<img src=""img/land4.png"" style=""width:200px; border:14px solid green;"">","null","","","","","","","","","",""
"","image-keyboard-response","299","277697","0.0-299.0","3F6KKYWMNCN8Y7ACBXUBFB5756YNDJ","AURYD2FH3FUOQ","3UDTAB6HH6LRO17U79I9TKUGYFV09C","","1134.9000000059605","img/land4.png","76","1137","3","0","3","2","0.8,0.2,0.2,0.2,0.8,0.2,0.2,0.2,0.8","0.8,0.2,0.2,0.2,0.8,0.2,0.2,0.2,0.8","1","",""
"","html-keyboard-response","300","278001","0.0-300.0","3F6KKYWMNCN8Y7ACBXUBFB5756YNDJ","AURYD2FH3FUOQ","3UDTAB6HH6LRO17U79I9TKUGYFV09C","","null","<img src=""img/land4.png"" style=""width:200px;border:14px solid red;"">","null","","","","","","","","","",""
"","image-keyboard-response","301","279492","0.0-301.0","3F6KKYWMNCN8Y7ACBXUBFB5756YNDJ","AURYD2FH3FUOQ","3UDTAB6HH6LRO17U79I9TKUGYFV09C","","1489.4000000059605","img/land6.png","74","1491.2000000029802","1","1","1","2","0.8,0.2,0.2,0.2,0.8,0.2,0.2,0.2,0.8","0.8,0.2,0.2,0.2,0.8,0.2,0.2,0.2,0.8","1","",""
"","html-keyboard-response","302","279796","0.0-302.0","3F6KKYWMNCN8Y7ACBXUBFB5756YNDJ","AURYD2FH3FUOQ","3UDTAB6HH6LRO17U79I9TKUGYFV09C","","null","<img src=""img/land6.png"" style=""width:200px; border:14px solid green;"">","null","","","","","","","","","",""
"","image-keyboard-response","303","280723","0.0-303.0","3F6KKYWMNCN8Y7ACBXUBFB5756YNDJ","AURYD2FH3FUOQ","3UDTAB6HH6LRO17U79I9TKUGYFV09C","","924.5","img/land6.png","74","927.0999999940395","1","1","1","2","0.8,0.2,0.2,0.2,0.8,0.2,0.2,0.2,0.8","0.8,0.2,0.2,0.2,0.8,0.2,0.2,0.2,0.8","1","",""
"","html-keyboard-response","304","281027","0.0-304.0","3F6KKYWMNCN8Y7ACBXUBFB5756YNDJ","AURYD2FH3FUOQ","3UDTAB6HH6LRO17U79I9TKUGYFV09C","","null","<img src=""img/land6.png"" style=""width:200px; border:14px solid green;"">","null","","","","","","","","","",""
"","image-keyboard-response","305","281910","0.0-305.0","3F6KKYWMNCN8Y7ACBXUBFB5756YNDJ","AURYD2FH3FUOQ","3UDTAB6HH6LRO17U79I9TKUGYFV09C","","878.9000000059605","img/land6.png","74","882.2000000029802","1","1","1","2","0.8,0.2,0.2,0.2,0.8,0.2,0.2,0.2,0.8","0.8,0.2,0.2,0.2,0.8,0.2,0.2,0.2,0.8","1","",""
"","html-keyboard-response","306","282214","0.0-306.0","3F6KKYWMNCN8Y7ACBXUBFB5756YNDJ","AURYD2FH3FUOQ","3UDTAB6HH6LRO17U79I9TKUGYFV09C","","null","<img src=""img/land6.png"" style=""width:200px; border:14px solid green;"">","null","","","","","","","","","",""
"","image-keyboard-response","307","283023","0.0-307.0","3F6KKYWMNCN8Y7ACBXUBFB5756YNDJ","AURYD2FH3FUOQ","3UDTAB6HH6LRO17U79I9TKUGYFV09C","","806.3000000119209","img/land6.png","74","808.7999999970198","1","0","1","2","0.8,0.2,0.2,0.2,0.8,0.2,0.2,0.2,0.8","0.8,0.2,0.2,0.2,0.8,0.2,0.2,0.2,0.8","1","",""
"","html-keyboard-response","308","283328","0.0-308.0","3F6KKYWMNCN8Y7ACBXUBFB5756YNDJ","AURYD2FH3FUOQ","3UDTAB6HH6LRO17U79I9TKUGYFV09C","","null","<img src=""img/land6.png"" style=""width:200px;border:14px solid red;"">","null","","","","","","","","","",""
"","image-keyboard-response","309","284246","0.0-309.0","3F6KKYWMNCN8Y7ACBXUBFB5756YNDJ","AURYD2FH3FUOQ","3UDTAB6HH6LRO17U79I9TKUGYFV09C","","915.6999999880791","img/land6.png","74","917.8999999910593","1","0","1","2","0.8,0.2,0.2,0.2,0.8,0.2,0.2,0.2,0.8","0.8,0.2,0.2,0.2,0.8,0.2,0.2,0.2,0.8","1","",""
"","html-keyboard-response","310","284550","0.0-310.0","3F6KKYWMNCN8Y7ACBXUBFB5756YNDJ","AURYD2FH3FUOQ","3UDTAB6HH6LRO17U79I9TKUGYFV09C","","null","<img src=""img/land6.png"" style=""width:200px;border:14px solid red;"">","null","","","","","","","","","",""
"","image-keyboard-response","311","285700","0.0-311.0","3F6KKYWMNCN8Y7ACBXUBFB5756YNDJ","AURYD2FH3FUOQ","3UDTAB6HH6LRO17U79I9TKUGYFV09C","","1147.199999988079","img/land3.png","75","1149.7999999970198","2","1","2","2","0.8,0.2,0.2,0.2,0.8,0.2,0.2,0.2,0.8","0.8,0.2,0.2,0.2,0.8,0.2,0.2,0.2,0.8","1","",""
"","html-keyboard-response","312","286005","0.0-312.0","3F6KKYWMNCN8Y7ACBXUBFB5756YNDJ","AURYD2FH3FUOQ","3UDTAB6HH6LRO17U79I9TKUGYFV09C","","null","<img src=""img/land3.png"" style=""width:200px; border:14px solid green;"">","null","","","","","","","","","",""
"","image-keyboard-response","313","287237","0.0-313.0","3F6KKYWMNCN8Y7ACBXUBFB5756YNDJ","AURYD2FH3FUOQ","3UDTAB6HH6LRO17U79I9TKUGYFV09C","","1229.4000000059605","img/land4.png","76","1231.1000000089407","3","0","3","2","0.8,0.2,0.2,0.2,0.8,0.2,0.2,0.2,0.8","0.8,0.2,0.2,0.2,0.8,0.2,0.2,0.2,0.8","1","",""
"","html-keyboard-response","314","287539","0.0-314.0","3F6KKYWMNCN8Y7ACBXUBFB5756YNDJ","AURYD2FH3FUOQ","3UDTAB6HH6LRO17U79I9TKUGYFV09C","","null","<img src=""img/land4.png"" style=""width:200px;border:14px solid red;"">","null","","","","","","","","","",""
"","image-keyboard-response","315","288914","0.0-315.0","3F6KKYWMNCN8Y7ACBXUBFB5756YNDJ","AURYD2FH3FUOQ","3UDTAB6HH6LRO17U79I9TKUGYFV09C","","1372.7999999970198","img/land6.png","74","1374.7999999970198","1","1","1","2","0.8,0.2,0.2,0.2,0.8,0.2,0.2,0.2,0.8","0.8,0.2,0.2,0.2,0.8,0.2,0.2,0.2,0.8","1","",""
"","html-keyboard-response","316","289217","0.0-316.0","3F6KKYWMNCN8Y7ACBXUBFB5756YNDJ","AURYD2FH3FUOQ","3UDTAB6HH6LRO17U79I9TKUGYFV09C","","null","<img src=""img/land6.png"" style=""width:200px; border:14px solid green;"">","null","","","","","","","","","",""
"","image-keyboard-response","317","290413","0.0-317.0","3F6KKYWMNCN8Y7ACBXUBFB5756YNDJ","AURYD2FH3FUOQ","3UDTAB6HH6LRO17U79I9TKUGYFV09C","","1194","img/land6.png","74","1195.9000000059605","1","1","1","2","0.8,0.2,0.2,0.2,0.8,0.2,0.2,0.2,0.8","0.8,0.2,0.2,0.2,0.8,0.2,0.2,0.2,0.8","1","",""
"","html-keyboard-response","318","290716","0.0-318.0","3F6KKYWMNCN8Y7ACBXUBFB5756YNDJ","AURYD2FH3FUOQ","3UDTAB6HH6LRO17U79I9TKUGYFV09C","","null","<img src=""img/land6.png"" style=""width:200px; border:14px solid green;"">","null","","","","","","","","","",""
"","image-keyboard-response","319","292022","0.0-319.0","3F6KKYWMNCN8Y7ACBXUBFB5756YNDJ","AURYD2FH3FUOQ","3UDTAB6HH6LRO17U79I9TKUGYFV09C","","1303.300000011921","img/land3.png","75","1305.6000000089407","2","1","2","2","0.8,0.2,0.2,0.2,0.8,0.2,0.2,0.2,0.8","0.8,0.2,0.2,0.2,0.8,0.2,0.2,0.2,0.8","1","",""
"","html-keyboard-response","320","292325","0.0-320.0","3F6KKYWMNCN8Y7ACBXUBFB5756YNDJ","AURYD2FH3FUOQ","3UDTAB6HH6LRO17U79I9TKUGYFV09C","","null","<img src=""img/land3.png"" style=""width:200px; border:14px solid green;"">","null","","","","","","","","","",""
"","image-keyboard-response","321","293486","0.0-321.0","3F6KKYWMNCN8Y7ACBXUBFB5756YNDJ","AURYD2FH3FUOQ","3UDTAB6HH6LRO17U79I9TKUGYFV09C","","1158","img/land4.png","76","1160.2000000029802","3","1","3","2","0.8,0.2,0.2,0.2,0.8,0.2,0.2,0.2,0.8","0.8,0.2,0.2,0.2,0.8,0.2,0.2,0.2,0.8","1","",""
"","html-keyboard-response","322","293805","0.0-322.0","3F6KKYWMNCN8Y7ACBXUBFB5756YNDJ","AURYD2FH3FUOQ","3UDTAB6HH6LRO17U79I9TKUGYFV09C","","null","<img src=""img/land4.png"" style=""width:200px; border:14px solid green;"">","null","","","","","","","","","",""
"","image-keyboard-response","323","295116","0.0-323.0","3F6KKYWMNCN8Y7ACBXUBFB5756YNDJ","AURYD2FH3FUOQ","3UDTAB6HH6LRO17U79I9TKUGYFV09C","","1308.5","img/land3.png","75","1311.2000000029802","2","1","2","2","0.8,0.2,0.2,0.2,0.8,0.2,0.2,0.2,0.8","0.8,0.2,0.2,0.2,0.8,0.2,0.2,0.2,0.8","1","",""
"","html-keyboard-response","324","295421","0.0-324.0","3F6KKYWMNCN8Y7ACBXUBFB5756YNDJ","AURYD2FH3FUOQ","3UDTAB6HH6LRO17U79I9TKUGYFV09C","","null","<img src=""img/land3.png"" style=""width:200px; border:14px solid green;"">","null","","","","","","","","","",""
"","image-keyboard-response","325","296729","0.0-325.0","3F6KKYWMNCN8Y7ACBXUBFB5756YNDJ","AURYD2FH3FUOQ","3UDTAB6HH6LRO17U79I9TKUGYFV09C","","1305.5","img/land6.png","74","1307.800000011921","1","0","1","2","0.8,0.2,0.2,0.2,0.8,0.2,0.2,0.2,0.8","0.8,0.2,0.2,0.2,0.8,0.2,0.2,0.2,0.8","1","",""
"","html-keyboard-response","326","297047","0.0-326.0","3F6KKYWMNCN8Y7ACBXUBFB5756YNDJ","AURYD2FH3FUOQ","3UDTAB6HH6LRO17U79I9TKUGYFV09C","","null","<img src=""img/land6.png"" style=""width:200px;border:14px solid red;"">","null","","","","","","","","","",""
"","image-keyboard-response","327","298000","0.0-327.0","3F6KKYWMNCN8Y7ACBXUBFB5756YNDJ","AURYD2FH3FUOQ","3UDTAB6HH6LRO17U79I9TKUGYFV09C","","950.8999999910593","img/land6.png","74","953.1000000089407","1","1","1","2","0.8,0.2,0.2,0.2,0.8,0.2,0.2,0.2,0.8","0.8,0.2,0.2,0.2,0.8,0.2,0.2,0.2,0.8","1","",""
"","html-keyboard-response","328","298304","0.0-328.0","3F6KKYWMNCN8Y7ACBXUBFB5756YNDJ","AURYD2FH3FUOQ","3UDTAB6HH6LRO17U79I9TKUGYFV09C","","null","<img src=""img/land6.png"" style=""width:200px; border:14px solid green;"">","null","","","","","","","","","",""
"","image-keyboard-response","329","299171","0.0-329.0","3F6KKYWMNCN8Y7ACBXUBFB5756YNDJ","AURYD2FH3FUOQ","3UDTAB6HH6LRO17U79I9TKUGYFV09C","","864.0999999940395","img/land6.png","74","866.7999999970198","1","1","1","2","0.8,0.2,0.2,0.2,0.8,0.2,0.2,0.2,0.8","0.8,0.2,0.2,0.2,0.8,0.2,0.2,0.2,0.8","1","",""
"","html-keyboard-response","330","299476","0.0-330.0","3F6KKYWMNCN8Y7ACBXUBFB5756YNDJ","AURYD2FH3FUOQ","3UDTAB6HH6LRO17U79I9TKUGYFV09C","","null","<img src=""img/land6.png"" style=""width:200px; border:14px solid green;"">","null","","","","","","","","","",""
"","image-keyboard-response","331","300704","0.0-331.0","3F6KKYWMNCN8Y7ACBXUBFB5756YNDJ","AURYD2FH3FUOQ","3UDTAB6HH6LRO17U79I9TKUGYFV09C","","1225.1000000089407","img/land3.png","75","1227.5","2","1","2","2","0.8,0.2,0.2,0.2,0.8,0.2,0.2,0.2,0.8","0.8,0.2,0.2,0.2,0.8,0.2,0.2,0.2,0.8","1","",""
"","html-keyboard-response","332","301007","0.0-332.0","3F6KKYWMNCN8Y7ACBXUBFB5756YNDJ","AURYD2FH3FUOQ","3UDTAB6HH6LRO17U79I9TKUGYFV09C","","null","<img src=""img/land3.png"" style=""width:200px; border:14px solid green;"">","null","","","","","","","","","",""
"","image-keyboard-response","333","302291","0.0-333.0","3F6KKYWMNCN8Y7ACBXUBFB5756YNDJ","AURYD2FH3FUOQ","3UDTAB6HH6LRO17U79I9TKUGYFV09C","","1280.4000000059605","img/land6.png","74","1282.800000011921","1","1","1","2","0.8,0.2,0.2,0.2,0.8,0.2,0.2,0.2,0.8","0.8,0.2,0.2,0.2,0.8,0.2,0.2,0.2,0.8","1","",""
"","html-keyboard-response","334","302596","0.0-334.0","3F6KKYWMNCN8Y7ACBXUBFB5756YNDJ","AURYD2FH3FUOQ","3UDTAB6HH6LRO17U79I9TKUGYFV09C","","null","<img src=""img/land6.png"" style=""width:200px; border:14px solid green;"">","null","","","","","","","","","",""
"","image-keyboard-response","335","303669","0.0-335.0","3F6KKYWMNCN8Y7ACBXUBFB5756YNDJ","AURYD2FH3FUOQ","3UDTAB6HH6LRO17U79I9TKUGYFV09C","","1070.3999999910593","img/land6.png","74","1073.199999988079","1","1","1","2","0.8,0.2,0.2,0.2,0.8,0.2,0.2,0.2,0.8","0.8,0.2,0.2,0.2,0.8,0.2,0.2,0.2,0.8","1","",""
"","html-keyboard-response","336","303975","0.0-336.0","3F6KKYWMNCN8Y7ACBXUBFB5756YNDJ","AURYD2FH3FUOQ","3UDTAB6HH6LRO17U79I9TKUGYFV09C","","null","<img src=""img/land6.png"" style=""width:200px; border:14px solid green;"">","null","","","","","","","","","",""
"","image-keyboard-response","337","305300","0.0-337.0","3F6KKYWMNCN8Y7ACBXUBFB5756YNDJ","AURYD2FH3FUOQ","3UDTAB6HH6LRO17U79I9TKUGYFV09C","","1320.7000000029802","img/land4.png","76","1322.9000000059605","3","1","3","2","0.8,0.2,0.2,0.2,0.8,0.2,0.2,0.2,0.8","0.8,0.2,0.2,0.2,0.8,0.2,0.2,0.2,0.8","1","",""
"","html-keyboard-response","338","305618","0.0-338.0","3F6KKYWMNCN8Y7ACBXUBFB5756YNDJ","AURYD2FH3FUOQ","3UDTAB6HH6LRO17U79I9TKUGYFV09C","","null","<img src=""img/land4.png"" style=""width:200px; border:14px solid green;"">","null","","","","","","","","","",""
"","image-keyboard-response","339","306807","0.0-339.0","3F6KKYWMNCN8Y7ACBXUBFB5756YNDJ","AURYD2FH3FUOQ","3UDTAB6HH6LRO17U79I9TKUGYFV09C","","1185.5999999940395","img/land3.png","75","1188","2","1","2","2","0.8,0.2,0.2,0.2,0.8,0.2,0.2,0.2,0.8","0.8,0.2,0.2,0.2,0.8,0.2,0.2,0.2,0.8","1","",""
"","html-keyboard-response","340","307110","0.0-340.0","3F6KKYWMNCN8Y7ACBXUBFB5756YNDJ","AURYD2FH3FUOQ","3UDTAB6HH6LRO17U79I9TKUGYFV09C","","null","<img src=""img/land3.png"" style=""width:200px; border:14px solid green;"">","null","","","","","","","","","",""
"","image-keyboard-response","341","308243","0.0-341.0","3F6KKYWMNCN8Y7ACBXUBFB5756YNDJ","AURYD2FH3FUOQ","3UDTAB6HH6LRO17U79I9TKUGYFV09C","","1129.9000000059605","img/land6.png","74","1132.5","1","1","1","2","0.8,0.2,0.2,0.2,0.8,0.2,0.2,0.2,0.8","0.8,0.2,0.2,0.2,0.8,0.2,0.2,0.2,0.8","1","",""
"","html-keyboard-response","342","308548","0.0-342.0","3F6KKYWMNCN8Y7ACBXUBFB5756YNDJ","AURYD2FH3FUOQ","3UDTAB6HH6LRO17U79I9TKUGYFV09C","","null","<img src=""img/land6.png"" style=""width:200px; border:14px solid green;"">","null","","","","","","","","","",""
"","image-keyboard-response","343","309706","0.0-343.0","3F6KKYWMNCN8Y7ACBXUBFB5756YNDJ","AURYD2FH3FUOQ","3UDTAB6HH6LRO17U79I9TKUGYFV09C","","1155.5","img/land4.png","76","1157.7999999970198","3","0","3","2","0.8,0.2,0.2,0.2,0.8,0.2,0.2,0.2,0.8","0.8,0.2,0.2,0.2,0.8,0.2,0.2,0.2,0.8","1","",""
"","html-keyboard-response","344","310010","0.0-344.0","3F6KKYWMNCN8Y7ACBXUBFB5756YNDJ","AURYD2FH3FUOQ","3UDTAB6HH6LRO17U79I9TKUGYFV09C","","null","<img src=""img/land4.png"" style=""width:200px;border:14px solid red;"">","null","","","","","","","","","",""
"","image-keyboard-response","345","311228","0.0-345.0","3F6KKYWMNCN8Y7ACBXUBFB5756YNDJ","AURYD2FH3FUOQ","3UDTAB6HH6LRO17U79I9TKUGYFV09C","","1215.2999999970198","img/land6.png","74","1217.5","1","1","1","2","0.8,0.2,0.2,0.2,0.8,0.2,0.2,0.2,0.8","0.8,0.2,0.2,0.2,0.8,0.2,0.2,0.2,0.8","1","",""
"","html-keyboard-response","346","311531","0.0-346.0","3F6KKYWMNCN8Y7ACBXUBFB5756YNDJ","AURYD2FH3FUOQ","3UDTAB6HH6LRO17U79I9TKUGYFV09C","","null","<img src=""img/land6.png"" style=""width:200px; border:14px solid green;"">","null","","","","","","","","","",""
"","image-keyboard-response","347","312528","0.0-347.0","3F6KKYWMNCN8Y7ACBXUBFB5756YNDJ","AURYD2FH3FUOQ","3UDTAB6HH6LRO17U79I9TKUGYFV09C","","994.6999999880791","img/land6.png","74","996.6000000089407","1","1","1","2","0.8,0.2,0.2,0.2,0.8,0.2,0.2,0.2,0.8","0.8,0.2,0.2,0.2,0.8,0.2,0.2,0.2,0.8","1","",""
"","html-keyboard-response","348","312830","0.0-348.0","3F6KKYWMNCN8Y7ACBXUBFB5756YNDJ","AURYD2FH3FUOQ","3UDTAB6HH6LRO17U79I9TKUGYFV09C","","null","<img src=""img/land6.png"" style=""width:200px; border:14px solid green;"">","null","","","","","","","","","",""
"","image-keyboard-response","349","313930","0.0-349.0","3F6KKYWMNCN8Y7ACBXUBFB5756YNDJ","AURYD2FH3FUOQ","3UDTAB6HH6LRO17U79I9TKUGYFV09C","","1097.800000011921","img/land6.png","74","1099.4000000059605","1","1","1","2","0.8,0.2,0.2,0.2,0.8,0.2,0.2,0.2,0.8","0.8,0.2,0.2,0.2,0.8,0.2,0.2,0.2,0.8","1","",""
"","html-keyboard-response","350","314240","0.0-350.0","3F6KKYWMNCN8Y7ACBXUBFB5756YNDJ","AURYD2FH3FUOQ","3UDTAB6HH6LRO17U79I9TKUGYFV09C","","null","<img src=""img/land6.png"" style=""width:200px; border:14px solid green;"">","null","","","","","","","","","",""
"","image-keyboard-response","351","315222","0.0-351.0","3F6KKYWMNCN8Y7ACBXUBFB5756YNDJ","AURYD2FH3FUOQ","3UDTAB6HH6LRO17U79I9TKUGYFV09C","","979.3999999910593","img/land6.png","74","981.7999999970198","1","1","1","2","0.8,0.2,0.2,0.2,0.8,0.2,0.2,0.2,0.8","0.8,0.2,0.2,0.2,0.8,0.2,0.2,0.2,0.8","1","",""
"","html-keyboard-response","352","315526","0.0-352.0","3F6KKYWMNCN8Y7ACBXUBFB5756YNDJ","AURYD2FH3FUOQ","3UDTAB6HH6LRO17U79I9TKUGYFV09C","","null","<img src=""img/land6.png"" style=""width:200px; border:14px solid green;"">","null","","","","","","","","","",""
"","image-keyboard-response","353","316615","0.0-353.0","3F6KKYWMNCN8Y7ACBXUBFB5756YNDJ","AURYD2FH3FUOQ","3UDTAB6HH6LRO17U79I9TKUGYFV09C","","1087.2000000029802","img/land3.png","75","1089.3999999910593","2","1","2","2","0.8,0.2,0.2,0.2,0.8,0.2,0.2,0.2,0.8","0.8,0.2,0.2,0.2,0.8,0.2,0.2,0.2,0.8","1","",""
"","html-keyboard-response","354","316921","0.0-354.0","3F6KKYWMNCN8Y7ACBXUBFB5756YNDJ","AURYD2FH3FUOQ","3UDTAB6HH6LRO17U79I9TKUGYFV09C","","null","<img src=""img/land3.png"" style=""width:200px; border:14px solid green;"">","null","","","","","","","","","",""
