"success","trial_type","trial_index","time_elapsed","internal_node_id","assignmentID","mturkID","hitID","view_history","rt","stimulus","key_press","reactionTime","a","r","s","cond","reward_cond","reward_cond_actual","reward_matrix_idx","responses","question_order"
"true","fullscreen","0","3519","0.0-0.0","","","","","","","","","","","","","","","","",""
"","instructions","1","27809","0.0-1.0","","","","[{""page_index"":0,""viewing_time"":3494.699999809265},{""page_index"":1,""viewing_time"":4223.60000038147},{""page_index"":2,""viewing_time"":3280},{""page_index"":3,""viewing_time"":4344},{""page_index"":4,""viewing_time"":2087.8999996185303},{""page_index"":5,""viewing_time"":4288.200000286102},{""page_index"":6,""viewing_time"":2567.9000000953674}]","24286.599999904633","","","","","","","","","","","",""
"","image-keyboard-response","2","28736","0.0-2.0","","","","","923.4000000953674","img/land3.png","74","926.0999999046326","1","1","3","2","1,0,0,0.25,0.5,0.25,0.25,0.25,0.5","0,1,0,0.5,0.25,0.25,0.25,0.25,0.5","3","",""
"","html-keyboard-response","3","29048","0.0-3.0","","","","","null","<img src=""img/land3.png"" style=""width:200px; border:14px solid green;"">","null","","","","","","","","","",""
"","image-keyboard-response","4","30204","0.0-4.0","","","","","1153.4000000953674","img/land3.png","74","1155.4000000953674","1","0","3","2","1,0,0,0.25,0.5,0.25,0.25,0.25,0.5","0,1,0,0.5,0.25,0.25,0.25,0.25,0.5","3","",""
"","html-keyboard-response","5","30507","0.0-5.0","","","","","null","<img src=""img/land3.png"" style=""width:200px;border:14px solid red;"">","null","","","","","","","","","",""
"","image-keyboard-response","6","31196","0.0-6.0","","","","","686.1999998092651","img/land3.png","74","688","1","0","3","2","1,0,0,0.25,0.5,0.25,0.25,0.25,0.5","0,1,0,0.5,0.25,0.25,0.25,0.25,0.5","3","",""
"","html-keyboard-response","7","31499","0.0-7.0","","","","","null","<img src=""img/land3.png"" style=""width:200px;border:14px solid red;"">","null","","","","","","","","","",""
"","image-keyboard-response","8","32150","0.0-8.0","","","","","649.4000000953674","img/land3.png","74","650.9000000953674","1","0","3","2","1,0,0,0.25,0.5,0.25,0.25,0.25,0.5","0,1,0,0.5,0.25,0.25,0.25,0.25,0.5","3","",""
"","html-keyboard-response","9","32452","0.0-9.0","","","","","null","<img src=""img/land3.png"" style=""width:200px;border:14px solid red;"">","null","","","","","","","","","",""
"","image-keyboard-response","10","33180","0.0-10.0","","","","","724.9000000953674","img/land1.png","75","726.8999996185303","2","1","1","2","1,0,0,0.25,0.5,0.25,0.25,0.25,0.5","0,1,0,0.5,0.25,0.25,0.25,0.25,0.5","3","",""
"","html-keyboard-response","11","33483","0.0-11.0","","","","","null","<img src=""img/land1.png"" style=""width:200px; border:14px solid green;"">","null","","","","","","","","","",""
"","image-keyboard-response","12","34240","0.0-12.0","","","","","755","img/land3.png","74","757","1","0","3","2","1,0,0,0.25,0.5,0.25,0.25,0.25,0.5","0,1,0,0.5,0.25,0.25,0.25,0.25,0.5","3","",""
"","html-keyboard-response","13","34543","0.0-13.0","","","","","null","<img src=""img/land3.png"" style=""width:200px;border:14px solid red;"">","null","","","","","","","","","",""
"","image-keyboard-response","14","35652","0.0-14.0","","","","","1106.6999998092651","img/land1.png","74","1108.4000000953674","1","0","1","2","1,0,0,0.25,0.5,0.25,0.25,0.25,0.5","0,1,0,0.5,0.25,0.25,0.25,0.25,0.5","3","",""
"","html-keyboard-response","15","35955","0.0-15.0","","","","","null","<img src=""img/land1.png"" style=""width:200px;border:14px solid red;"">","null","","","","","","","","","",""
"","image-keyboard-response","16","36543","0.0-16.0","","","","","586.1000003814697","img/land1.png","75","587.9000000953674","2","1","1","2","1,0,0,0.25,0.5,0.25,0.25,0.25,0.5","0,1,0,0.5,0.25,0.25,0.25,0.25,0.5","3","",""
"","html-keyboard-response","17","36846","0.0-17.0","","","","","null","<img src=""img/land1.png"" style=""width:200px; border:14px solid green;"">","null","","","","","","","","","",""
"","image-keyboard-response","18","37804","0.0-18.0","","","","","955","img/land3.png","75","956.9000000953674","2","1","3","2","1,0,0,0.25,0.5,0.25,0.25,0.25,0.5","0,1,0,0.5,0.25,0.25,0.25,0.25,0.5","3","",""
"","html-keyboard-response","19","38106","0.0-19.0","","","","","null","<img src=""img/land3.png"" style=""width:200px; border:14px solid green;"">","null","","","","","","","","","",""
"","image-keyboard-response","20","38618","0.0-20.0","","","","","509.59999990463257","img/land3.png","75","511.40000009536743","2","0","3","2","1,0,0,0.25,0.5,0.25,0.25,0.25,0.5","0,1,0,0.5,0.25,0.25,0.25,0.25,0.5","3","",""
"","html-keyboard-response","21","38921","0.0-21.0","","","","","null","<img src=""img/land3.png"" style=""width:200px;border:14px solid red;"">","null","","","","","","","","","",""
"","image-keyboard-response","22","39411","0.0-22.0","","","","","488.7999997138977","img/land3.png","75","490.3999996185303","2","0","3","2","1,0,0,0.25,0.5,0.25,0.25,0.25,0.5","0,1,0,0.5,0.25,0.25,0.25,0.25,0.5","3","",""
"","html-keyboard-response","23","39713","0.0-23.0","","","","","null","<img src=""img/land3.png"" style=""width:200px;border:14px solid red;"">","null","","","","","","","","","",""
"","image-keyboard-response","24","40196","0.0-24.0","","","","","480.90000009536743","img/land3.png","74","482.40000009536743","1","0","3","2","1,0,0,0.25,0.5,0.25,0.25,0.25,0.5","0,1,0,0.5,0.25,0.25,0.25,0.25,0.5","3","",""
"","html-keyboard-response","25","40499","0.0-25.0","","","","","null","<img src=""img/land3.png"" style=""width:200px;border:14px solid red;"">","null","","","","","","","","","",""
"","image-keyboard-response","26","41423","0.0-26.0","","","","","921.9000000953674","img/land2.png","76","923.4000000953674","3","1","2","2","1,0,0,0.25,0.5,0.25,0.25,0.25,0.5","0,1,0,0.5,0.25,0.25,0.25,0.25,0.5","3","",""
"","html-keyboard-response","27","41726","0.0-27.0","","","","","null","<img src=""img/land2.png"" style=""width:200px; border:14px solid green;"">","null","","","","","","","","","",""
"","image-keyboard-response","28","42615","0.0-28.0","","","","","888.0999999046326","img/land3.png","75","889.2999997138977","2","1","3","2","1,0,0,0.25,0.5,0.25,0.25,0.25,0.5","0,1,0,0.5,0.25,0.25,0.25,0.25,0.5","3","",""
"","html-keyboard-response","29","42917","0.0-29.0","","","","","null","<img src=""img/land3.png"" style=""width:200px; border:14px solid green;"">","null","","","","","","","","","",""
"","image-keyboard-response","30","43905","0.0-30.0","","","","","985.9000000953674","img/land2.png","76","987.7000002861023","3","0","2","2","1,0,0,0.25,0.5,0.25,0.25,0.25,0.5","0,1,0,0.5,0.25,0.25,0.25,0.25,0.5","3","",""
"","html-keyboard-response","31","44208","0.0-31.0","","","","","null","<img src=""img/land2.png"" style=""width:200px;border:14px solid red;"">","null","","","","","","","","","",""
"","image-keyboard-response","32","44873","0.0-32.0","","","","","663.4000000953674","img/land3.png","75","664.8000001907349","2","0","3","2","1,0,0,0.25,0.5,0.25,0.25,0.25,0.5","0,1,0,0.5,0.25,0.25,0.25,0.25,0.5","3","",""
"","html-keyboard-response","33","45176","0.0-33.0","","","","","null","<img src=""img/land3.png"" style=""width:200px;border:14px solid red;"">","null","","","","","","","","","",""
"","image-keyboard-response","34","45662","0.0-34.0","","","","","483.5","img/land3.png","75","484.7999997138977","2","0","3","2","1,0,0,0.25,0.5,0.25,0.25,0.25,0.5","0,1,0,0.5,0.25,0.25,0.25,0.25,0.5","3","",""
"","html-keyboard-response","35","45964","0.0-35.0","","","","","null","<img src=""img/land3.png"" style=""width:200px;border:14px solid red;"">","null","","","","","","","","","",""
"","image-keyboard-response","36","46740","0.0-36.0","","","","","773.7000002861023","img/land2.png","76","775","3","0","2","2","1,0,0,0.25,0.5,0.25,0.25,0.25,0.5","0,1,0,0.5,0.25,0.25,0.25,0.25,0.5","3","",""
"","html-keyboard-response","37","47041","0.0-37.0","","","","","null","<img src=""img/land2.png"" style=""width:200px;border:14px solid red;"">","null","","","","","","","","","",""
"","image-keyboard-response","38","47745","0.0-38.0","","","","","702.6000003814697","img/land1.png","75","703.3000001907349","2","1","1","2","1,0,0,0.25,0.5,0.25,0.25,0.25,0.5","0,1,0,0.5,0.25,0.25,0.25,0.25,0.5","3","",""
"","html-keyboard-response","39","48047","0.0-39.0","","","","","null","<img src=""img/land1.png"" style=""width:200px; border:14px solid green;"">","null","","","","","","","","","",""
"","image-keyboard-response","40","49039","0.0-40.0","","","","","990","img/land3.png","76","991.5999999046326","3","0","3","2","1,0,0,0.25,0.5,0.25,0.25,0.25,0.5","0,1,0,0.5,0.25,0.25,0.25,0.25,0.5","3","",""
"","html-keyboard-response","41","49342","0.0-41.0","","","","","null","<img src=""img/land3.png"" style=""width:200px;border:14px solid red;"">","null","","","","","","","","","",""
"","image-keyboard-response","42","50126","0.0-42.0","","","","","782.4000000953674","img/land1.png","75","783.4000000953674","2","1","1","2","1,0,0,0.25,0.5,0.25,0.25,0.25,0.5","0,1,0,0.5,0.25,0.25,0.25,0.25,0.5","3","",""
"","html-keyboard-response","43","50428","0.0-43.0","","","","","null","<img src=""img/land1.png"" style=""width:200px; border:14px solid green;"">","null","","","","","","","","","",""
"","image-keyboard-response","44","51409","0.0-44.0","","","","","979.4000000953674","img/land3.png","74","980.5","1","1","3","2","1,0,0,0.25,0.5,0.25,0.25,0.25,0.5","0,1,0,0.5,0.25,0.25,0.25,0.25,0.5","3","",""
"","html-keyboard-response","45","51712","0.0-45.0","","","","","null","<img src=""img/land3.png"" style=""width:200px; border:14px solid green;"">","null","","","","","","","","","",""
"","image-keyboard-response","46","52650","0.0-46.0","","","","","936.5","img/land2.png","76","937.7999997138977","3","0","2","2","1,0,0,0.25,0.5,0.25,0.25,0.25,0.5","0,1,0,0.5,0.25,0.25,0.25,0.25,0.5","3","",""
"","html-keyboard-response","47","52953","0.0-47.0","","","","","null","<img src=""img/land2.png"" style=""width:200px;border:14px solid red;"">","null","","","","","","","","","",""
"","image-keyboard-response","48","53804","0.0-48.0","","","","","850.8000001907349","img/land2.png","75","851.6000003814697","2","1","2","2","1,0,0,0.25,0.5,0.25,0.25,0.25,0.5","0,1,0,0.5,0.25,0.25,0.25,0.25,0.5","3","",""
"","html-keyboard-response","49","54107","0.0-49.0","","","","","null","<img src=""img/land2.png"" style=""width:200px; border:14px solid green;"">","null","","","","","","","","","",""
"","image-keyboard-response","50","54983","0.0-50.0","","","","","874.0999999046326","img/land3.png","74","875.7999997138977","1","0","3","2","1,0,0,0.25,0.5,0.25,0.25,0.25,0.5","0,1,0,0.5,0.25,0.25,0.25,0.25,0.5","3","",""
"","html-keyboard-response","51","55286","0.0-51.0","","","","","null","<img src=""img/land3.png"" style=""width:200px;border:14px solid red;"">","null","","","","","","","","","",""
"","image-keyboard-response","52","55915","0.0-52.0","","","","","627.2000002861023","img/land3.png","74","628.8000001907349","1","0","3","2","1,0,0,0.25,0.5,0.25,0.25,0.25,0.5","0,1,0,0.5,0.25,0.25,0.25,0.25,0.5","3","",""
"","html-keyboard-response","53","56217","0.0-53.0","","","","","null","<img src=""img/land3.png"" style=""width:200px;border:14px solid red;"">","null","","","","","","","","","",""
"","image-keyboard-response","54","56916","0.0-54.0","","","","","697.9000000953674","img/land2.png","75","698.5999999046326","2","1","2","2","1,0,0,0.25,0.5,0.25,0.25,0.25,0.5","0,1,0,0.5,0.25,0.25,0.25,0.25,0.5","3","",""
"","html-keyboard-response","55","57217","0.0-55.0","","","","","null","<img src=""img/land2.png"" style=""width:200px; border:14px solid green;"">","null","","","","","","","","","",""
"","image-keyboard-response","56","58014","0.0-56.0","","","","","794.5999999046326","img/land3.png","75","796","2","1","3","2","1,0,0,0.25,0.5,0.25,0.25,0.25,0.5","0,1,0,0.5,0.25,0.25,0.25,0.25,0.5","3","",""
"","html-keyboard-response","57","58316","0.0-57.0","","","","","null","<img src=""img/land3.png"" style=""width:200px; border:14px solid green;"">","null","","","","","","","","","",""
"","image-keyboard-response","58","58883","0.0-58.0","","","","","564.8000001907349","img/land3.png","75","566.4000000953674","2","0","3","2","1,0,0,0.25,0.5,0.25,0.25,0.25,0.5","0,1,0,0.5,0.25,0.25,0.25,0.25,0.5","3","",""
"","html-keyboard-response","59","59186","0.0-59.0","","","","","null","<img src=""img/land3.png"" style=""width:200px;border:14px solid red;"">","null","","","","","","","","","",""
"","image-keyboard-response","60","59778","0.0-60.0","","","","","589.6999998092651","img/land1.png","75","591.4000000953674","2","1","1","2","1,0,0,0.25,0.5,0.25,0.25,0.25,0.5","0,1,0,0.5,0.25,0.25,0.25,0.25,0.5","3","",""
"","html-keyboard-response","61","60081","0.0-61.0","","","","","null","<img src=""img/land1.png"" style=""width:200px; border:14px solid green;"">","null","","","","","","","","","",""
"","image-keyboard-response","62","60836","0.0-62.0","","","","","752.9000000953674","img/land1.png","75","754.3000001907349","2","1","1","2","1,0,0,0.25,0.5,0.25,0.25,0.25,0.5","0,1,0,0.5,0.25,0.25,0.25,0.25,0.5","3","",""
"","html-keyboard-response","63","61138","0.0-63.0","","","","","null","<img src=""img/land1.png"" style=""width:200px; border:14px solid green;"">","null","","","","","","","","","",""
"","image-keyboard-response","64","61914","0.0-64.0","","","","","774.5","img/land1.png","75","775.5999999046326","2","1","1","2","1,0,0,0.25,0.5,0.25,0.25,0.25,0.5","0,1,0,0.5,0.25,0.25,0.25,0.25,0.5","3","",""
"","html-keyboard-response","65","62217","0.0-65.0","","","","","null","<img src=""img/land1.png"" style=""width:200px; border:14px solid green;"">","null","","","","","","","","","",""
"","image-keyboard-response","66","62986","0.0-66.0","","","","","766.5999999046326","img/land2.png","75","768.5999999046326","2","0","2","2","1,0,0,0.25,0.5,0.25,0.25,0.25,0.5","0,1,0,0.5,0.25,0.25,0.25,0.25,0.5","3","",""
"","html-keyboard-response","67","63289","0.0-67.0","","","","","null","<img src=""img/land2.png"" style=""width:200px;border:14px solid red;"">","null","","","","","","","","","",""
"","image-keyboard-response","68","63944","0.0-68.0","","","","","654","img/land1.png","75","655.0999999046326","2","1","1","2","1,0,0,0.25,0.5,0.25,0.25,0.25,0.5","0,1,0,0.5,0.25,0.25,0.25,0.25,0.5","3","",""
"","html-keyboard-response","69","64247","0.0-69.0","","","","","null","<img src=""img/land1.png"" style=""width:200px; border:14px solid green;"">","null","","","","","","","","","",""
"","image-keyboard-response","70","64840","0.0-70.0","","","","","592.4000000953674","img/land1.png","75","593.4000000953674","2","1","1","2","1,0,0,0.25,0.5,0.25,0.25,0.25,0.5","0,1,0,0.5,0.25,0.25,0.25,0.25,0.5","3","",""
"","html-keyboard-response","71","65142","0.0-71.0","","","","","null","<img src=""img/land1.png"" style=""width:200px; border:14px solid green;"">","null","","","","","","","","","",""
"","image-keyboard-response","72","65660","0.0-72.0","","","","","515.7999997138977","img/land1.png","75","517.4000000953674","2","1","1","2","1,0,0,0.25,0.5,0.25,0.25,0.25,0.5","0,1,0,0.5,0.25,0.25,0.25,0.25,0.5","3","",""
"","html-keyboard-response","73","65963","0.0-73.0","","","","","null","<img src=""img/land1.png"" style=""width:200px; border:14px solid green;"">","null","","","","","","","","","",""
"","image-keyboard-response","74","66473","0.0-74.0","","","","","508.30000019073486","img/land1.png","75","510.1000003814697","2","1","1","2","1,0,0,0.25,0.5,0.25,0.25,0.25,0.5","0,1,0,0.5,0.25,0.25,0.25,0.25,0.5","3","",""
"","html-keyboard-response","75","66776","0.0-75.0","","","","","null","<img src=""img/land1.png"" style=""width:200px; border:14px solid green;"">","null","","","","","","","","","",""
"","image-keyboard-response","76","67265","0.0-76.0","","","","","487.5","img/land1.png","75","489.19999980926514","2","1","1","2","1,0,0,0.25,0.5,0.25,0.25,0.25,0.5","0,1,0,0.5,0.25,0.25,0.25,0.25,0.5","3","",""
"","html-keyboard-response","77","67568","0.0-77.0","","","","","null","<img src=""img/land1.png"" style=""width:200px; border:14px solid green;"">","null","","","","","","","","","",""
"","image-keyboard-response","78","68519","0.0-78.0","","","","","948.3000001907349","img/land2.png","75","950.2000002861023","2","1","2","2","1,0,0,0.25,0.5,0.25,0.25,0.25,0.5","0,1,0,0.5,0.25,0.25,0.25,0.25,0.5","3","",""
"","html-keyboard-response","79","68822","0.0-79.0","","","","","null","<img src=""img/land2.png"" style=""width:200px; border:14px solid green;"">","null","","","","","","","","","",""
"","image-keyboard-response","80","69418","0.0-80.0","","","","","594.1999998092651","img/land1.png","75","595.8000001907349","2","1","1","2","1,0,0,0.25,0.5,0.25,0.25,0.25,0.5","0,1,0,0.5,0.25,0.25,0.25,0.25,0.5","3","",""
"","html-keyboard-response","81","69720","0.0-81.0","","","","","null","<img src=""img/land1.png"" style=""width:200px; border:14px solid green;"">","null","","","","","","","","","",""
"","image-keyboard-response","82","70320","0.0-82.0","","","","","598.0999999046326","img/land1.png","75","599.0999999046326","2","1","1","2","1,0,0,0.25,0.5,0.25,0.25,0.25,0.5","0,1,0,0.5,0.25,0.25,0.25,0.25,0.5","3","",""
"","html-keyboard-response","83","70622","0.0-83.0","","","","","null","<img src=""img/land1.png"" style=""width:200px; border:14px solid green;"">","null","","","","","","","","","",""
"","image-keyboard-response","84","71294","0.0-84.0","","","","","671.5","img/land2.png","75","672.0999999046326","2","0","2","2","1,0,0,0.25,0.5,0.25,0.25,0.25,0.5","0,1,0,0.5,0.25,0.25,0.25,0.25,0.5","3","",""
"","html-keyboard-response","85","71596","0.0-85.0","","","","","null","<img src=""img/land2.png"" style=""width:200px;border:14px solid red;"">","null","","","","","","","","","",""
"","image-keyboard-response","86","71995","0.0-86.0","","","","","396.90000009536743","img/land2.png","75","398.19999980926514","2","0","2","2","1,0,0,0.25,0.5,0.25,0.25,0.25,0.5","0,1,0,0.5,0.25,0.25,0.25,0.25,0.5","3","",""
"","html-keyboard-response","87","72296","0.0-87.0","","","","","null","<img src=""img/land2.png"" style=""width:200px;border:14px solid red;"">","null","","","","","","","","","",""
"","image-keyboard-response","88","72716","0.0-88.0","","","","","419.19999980926514","img/land2.png","75","420.30000019073486","2","1","2","2","1,0,0,0.25,0.5,0.25,0.25,0.25,0.5","0,1,0,0.5,0.25,0.25,0.25,0.25,0.5","3","",""
"","html-keyboard-response","89","73020","0.0-89.0","","","","","null","<img src=""img/land2.png"" style=""width:200px; border:14px solid green;"">","null","","","","","","","","","",""
"","image-keyboard-response","90","73491","0.0-90.0","","","","","468.59999990463257","img/land2.png","75","470.2999997138977","2","0","2","2","1,0,0,0.25,0.5,0.25,0.25,0.25,0.5","0,1,0,0.5,0.25,0.25,0.25,0.25,0.5","3","",""
"","html-keyboard-response","91","73793","0.0-91.0","","","","","null","<img src=""img/land2.png"" style=""width:200px;border:14px solid red;"">","null","","","","","","","","","",""
"","image-keyboard-response","92","74221","0.0-92.0","","","","","425.59999990463257","img/land2.png","75","427.5","2","0","2","2","1,0,0,0.25,0.5,0.25,0.25,0.25,0.5","0,1,0,0.5,0.25,0.25,0.25,0.25,0.5","3","",""
"","html-keyboard-response","93","74523","0.0-93.0","","","","","null","<img src=""img/land2.png"" style=""width:200px;border:14px solid red;"">","null","","","","","","","","","",""
"","image-keyboard-response","94","75106","0.0-94.0","","","","","580.2000002861023","img/land1.png","75","581.9000000953674","2","1","1","2","1,0,0,0.25,0.5,0.25,0.25,0.25,0.5","0,1,0,0.5,0.25,0.25,0.25,0.25,0.5","3","",""
"","html-keyboard-response","95","75408","0.0-95.0","","","","","null","<img src=""img/land1.png"" style=""width:200px; border:14px solid green;"">","null","","","","","","","","","",""
"","image-keyboard-response","96","75960","0.0-96.0","","","","","549.8000001907349","img/land2.png","75","551.4000000953674","2","0","2","2","1,0,0,0.25,0.5,0.25,0.25,0.25,0.5","0,1,0,0.5,0.25,0.25,0.25,0.25,0.5","3","",""
"","html-keyboard-response","97","76263","0.0-97.0","","","","","null","<img src=""img/land2.png"" style=""width:200px;border:14px solid red;"">","null","","","","","","","","","",""
"","image-keyboard-response","98","76823","0.0-98.0","","","","","558.4000000953674","img/land2.png","76","559.6000003814697","3","0","2","2","1,0,0,0.25,0.5,0.25,0.25,0.25,0.5","0,1,0,0.5,0.25,0.25,0.25,0.25,0.5","3","",""
"","html-keyboard-response","99","77125","0.0-99.0","","","","","null","<img src=""img/land2.png"" style=""width:200px;border:14px solid red;"">","null","","","","","","","","","",""
"","image-keyboard-response","100","77585","0.0-100.0","","","","","457.5","img/land1.png","75","459.40000009536743","2","1","1","2","1,0,0,0.25,0.5,0.25,0.25,0.25,0.5","0,1,0,0.5,0.25,0.25,0.25,0.25,0.5","3","",""
"","html-keyboard-response","101","77894","0.0-101.0","","","","","null","<img src=""img/land1.png"" style=""width:200px; border:14px solid green;"">","null","","","","","","","","","",""
"","image-keyboard-response","102","79172","0.0-102.0","","","","","1276","img/land3.png","74","1277.6000003814697","1","1","3","2","1,0,0,0.25,0.5,0.25,0.25,0.25,0.5","0,1,0,0.5,0.25,0.25,0.25,0.25,0.5","3","",""
"","html-keyboard-response","103","79475","0.0-103.0","","","","","null","<img src=""img/land3.png"" style=""width:200px; border:14px solid green;"">","null","","","","","","","","","",""
"","image-keyboard-response","104","80136","0.0-104.0","","","","","660.1999998092651","img/land1.png","75","661.3000001907349","2","1","1","2","1,0,0,0.25,0.5,0.25,0.25,0.25,0.5","0,1,0,0.5,0.25,0.25,0.25,0.25,0.5","3","",""
"","html-keyboard-response","105","80444","0.0-105.0","","","","","null","<img src=""img/land1.png"" style=""width:200px; border:14px solid green;"">","null","","","","","","","","","",""
"","image-keyboard-response","106","81265","0.0-106.0","","","","","819.5999999046326","img/land2.png","75","821.1999998092651","2","1","2","2","1,0,0,0.25,0.5,0.25,0.25,0.25,0.5","0,1,0,0.5,0.25,0.25,0.25,0.25,0.5","3","",""
"","html-keyboard-response","107","81569","0.0-107.0","","","","","null","<img src=""img/land2.png"" style=""width:200px; border:14px solid green;"">","null","","","","","","","","","",""
"","image-keyboard-response","108","81991","0.0-108.0","","","","","421.2000002861023","img/land2.png","75","422.09999990463257","2","1","2","2","1,0,0,0.25,0.5,0.25,0.25,0.25,0.5","0,1,0,0.5,0.25,0.25,0.25,0.25,0.5","3","",""
"","html-keyboard-response","109","82294","0.0-109.0","","","","","null","<img src=""img/land2.png"" style=""width:200px; border:14px solid green;"">","null","","","","","","","","","",""
"","image-keyboard-response","110","82671","0.0-110.0","","","","","374.59999990463257","img/land2.png","75","376.30000019073486","2","0","2","2","1,0,0,0.25,0.5,0.25,0.25,0.25,0.5","0,1,0,0.5,0.25,0.25,0.25,0.25,0.5","3","",""
"","html-keyboard-response","111","82974","0.0-111.0","","","","","null","<img src=""img/land2.png"" style=""width:200px;border:14px solid red;"">","null","","","","","","","","","",""
"","image-keyboard-response","112","83819","0.0-112.0","","","","","843.7999997138977","img/land3.png","74","845.3000001907349","1","0","3","2","1,0,0,0.25,0.5,0.25,0.25,0.25,0.5","0,1,0,0.5,0.25,0.25,0.25,0.25,0.5","3","",""
"","html-keyboard-response","113","84121","0.0-113.0","","","","","null","<img src=""img/land3.png"" style=""width:200px;border:14px solid red;"">","null","","","","","","","","","",""
"","image-keyboard-response","114","84669","0.0-114.0","","","","","546.0999999046326","img/land1.png","75","547.6999998092651","2","1","1","2","1,0,0,0.25,0.5,0.25,0.25,0.25,0.5","0,1,0,0.5,0.25,0.25,0.25,0.25,0.5","3","",""
"","html-keyboard-response","115","84986","0.0-115.0","","","","","null","<img src=""img/land1.png"" style=""width:200px; border:14px solid green;"">","null","","","","","","","","","",""
"","image-keyboard-response","116","85648","0.0-116.0","","","","","659.0999999046326","img/land3.png","74","660.8000001907349","1","0","3","2","1,0,0,0.25,0.5,0.25,0.25,0.25,0.5","0,1,0,0.5,0.25,0.25,0.25,0.25,0.5","3","",""
"","html-keyboard-response","117","85951","0.0-117.0","","","","","null","<img src=""img/land3.png"" style=""width:200px;border:14px solid red;"">","null","","","","","","","","","",""
"","image-keyboard-response","118","86268","0.0-118.0","","","","","314.8999996185303","img/land1.png","75","316.40000009536743","2","1","1","2","1,0,0,0.25,0.5,0.25,0.25,0.25,0.5","0,1,0,0.5,0.25,0.25,0.25,0.25,0.5","3","",""
"","html-keyboard-response","119","86570","0.0-119.0","","","","","null","<img src=""img/land1.png"" style=""width:200px; border:14px solid green;"">","null","","","","","","","","","",""
"","image-keyboard-response","120","86954","0.0-120.0","","","","","381.5","img/land2.png","75","382.7999997138977","2","0","2","2","1,0,0,0.25,0.5,0.25,0.25,0.25,0.5","0,1,0,0.5,0.25,0.25,0.25,0.25,0.5","3","",""
"","html-keyboard-response","121","87255","0.0-121.0","","","","","null","<img src=""img/land2.png"" style=""width:200px;border:14px solid red;"">","null","","","","","","","","","",""
"","image-keyboard-response","122","87894","0.0-122.0","","","","","636.4000000953674","img/land3.png","75","637.8999996185303","2","0","3","2","1,0,0,0.25,0.5,0.25,0.25,0.25,0.5","0,1,0,0.5,0.25,0.25,0.25,0.25,0.5","3","",""
"","html-keyboard-response","123","88196","0.0-123.0","","","","","null","<img src=""img/land3.png"" style=""width:200px;border:14px solid red;"">","null","","","","","","","","","",""
"","image-keyboard-response","124","89088","0.0-124.0","","","","","889.5999999046326","img/land2.png","75","891.4000000953674","2","0","2","2","1,0,0,0.25,0.5,0.25,0.25,0.25,0.5","0,1,0,0.5,0.25,0.25,0.25,0.25,0.5","3","",""
"","html-keyboard-response","125","89391","0.0-125.0","","","","","null","<img src=""img/land2.png"" style=""width:200px;border:14px solid red;"">","null","","","","","","","","","",""
"","image-keyboard-response","126","90064","0.0-126.0","","","","","671.2999997138977","img/land1.png","75","672.9000000953674","2","1","1","2","1,0,0,0.25,0.5,0.25,0.25,0.25,0.5","0,1,0,0.5,0.25,0.25,0.25,0.25,0.5","3","",""
"","html-keyboard-response","127","90367","0.0-127.0","","","","","null","<img src=""img/land1.png"" style=""width:200px; border:14px solid green;"">","null","","","","","","","","","",""
"","image-keyboard-response","128","91064","0.0-128.0","","","","","695","img/land3.png","74","696.6999998092651","1","0","3","2","1,0,0,0.25,0.5,0.25,0.25,0.25,0.5","0,1,0,0.5,0.25,0.25,0.25,0.25,0.5","3","",""
"","html-keyboard-response","129","91367","0.0-129.0","","","","","null","<img src=""img/land3.png"" style=""width:200px;border:14px solid red;"">","null","","","","","","","","","",""
"","image-keyboard-response","130","91739","0.0-130.0","","","","","370.7999997138977","img/land1.png","75","372","2","1","1","2","1,0,0,0.25,0.5,0.25,0.25,0.25,0.5","0,1,0,0.5,0.25,0.25,0.25,0.25,0.5","3","",""
"","html-keyboard-response","131","92042","0.0-131.0","","","","","null","<img src=""img/land1.png"" style=""width:200px; border:14px solid green;"">","null","","","","","","","","","",""
"","image-keyboard-response","132","92629","0.0-132.0","","","","","585","img/land2.png","75","586.6999998092651","2","0","2","2","1,0,0,0.25,0.5,0.25,0.25,0.25,0.5","0,1,0,0.5,0.25,0.25,0.25,0.25,0.5","3","",""
"","html-keyboard-response","133","92932","0.0-133.0","","","","","null","<img src=""img/land2.png"" style=""width:200px;border:14px solid red;"">","null","","","","","","","","","",""
"","image-keyboard-response","134","93455","0.0-134.0","","","","","521","img/land2.png","75","522.5999999046326","2","0","2","2","1,0,0,0.25,0.5,0.25,0.25,0.25,0.5","0,1,0,0.5,0.25,0.25,0.25,0.25,0.5","3","",""
"","html-keyboard-response","135","93758","0.0-135.0","","","","","null","<img src=""img/land2.png"" style=""width:200px;border:14px solid red;"">","null","","","","","","","","","",""
"","image-keyboard-response","136","94271","0.0-136.0","","","","","510.80000019073486","img/land3.png","75","512.5","2","0","3","2","1,0,0,0.25,0.5,0.25,0.25,0.25,0.5","0,1,0,0.5,0.25,0.25,0.25,0.25,0.5","3","",""
"","html-keyboard-response","137","94573","0.0-137.0","","","","","null","<img src=""img/land3.png"" style=""width:200px;border:14px solid red;"">","null","","","","","","","","","",""
"","image-keyboard-response","138","94851","0.0-138.0","","","","","273.90000009536743","img/land1.png","74","275.5","1","0","1","2","1,0,0,0.25,0.5,0.25,0.25,0.25,0.5","0,1,0,0.5,0.25,0.25,0.25,0.25,0.5","3","",""
"","html-keyboard-response","139","95154","0.0-139.0","","","","","null","<img src=""img/land1.png"" style=""width:200px;border:14px solid red;"">","null","","","","","","","","","",""
"","image-keyboard-response","140","95988","0.0-140.0","","","","","832","img/land3.png","75","833.5999999046326","2","0","3","2","1,0,0,0.25,0.5,0.25,0.25,0.25,0.5","0,1,0,0.5,0.25,0.25,0.25,0.25,0.5","3","",""
"","html-keyboard-response","141","96291","0.0-141.0","","","","","null","<img src=""img/land3.png"" style=""width:200px;border:14px solid red;"">","null","","","","","","","","","",""
"","image-keyboard-response","142","97005","0.0-142.0","","","","","711.6000003814697","img/land1.png","75","713.3000001907349","2","1","1","2","1,0,0,0.25,0.5,0.25,0.25,0.25,0.5","0,1,0,0.5,0.25,0.25,0.25,0.25,0.5","3","",""
"","html-keyboard-response","143","97306","0.0-143.0","","","","","null","<img src=""img/land1.png"" style=""width:200px; border:14px solid green;"">","null","","","","","","","","","",""
"","image-keyboard-response","144","98139","0.0-144.0","","","","","831.1999998092651","img/land2.png","75","832.7000002861023","2","0","2","2","1,0,0,0.25,0.5,0.25,0.25,0.25,0.5","0,1,0,0.5,0.25,0.25,0.25,0.25,0.5","3","",""
"","html-keyboard-response","145","98442","0.0-145.0","","","","","null","<img src=""img/land2.png"" style=""width:200px;border:14px solid red;"">","null","","","","","","","","","",""
"","image-keyboard-response","146","99145","0.0-146.0","","","","","701.5999999046326","img/land1.png","75","703.0999999046326","2","1","1","2","1,0,0,0.25,0.5,0.25,0.25,0.25,0.5","0,1,0,0.5,0.25,0.25,0.25,0.25,0.5","3","",""
"","html-keyboard-response","147","99448","0.0-147.0","","","","","null","<img src=""img/land1.png"" style=""width:200px; border:14px solid green;"">","null","","","","","","","","","",""
"","image-keyboard-response","148","100457","0.0-148.0","","","","","1006.0999999046326","img/land2.png","76","1007.8999996185303","3","0","2","2","1,0,0,0.25,0.5,0.25,0.25,0.25,0.5","0,1,0,0.5,0.25,0.25,0.25,0.25,0.5","3","",""
"","html-keyboard-response","149","100759","0.0-149.0","","","","","null","<img src=""img/land2.png"" style=""width:200px;border:14px solid red;"">","null","","","","","","","","","",""
"","image-keyboard-response","150","101145","0.0-150.0","","","","","384.5","img/land2.png","75","385.90000009536743","2","0","2","2","1,0,0,0.25,0.5,0.25,0.25,0.25,0.5","0,1,0,0.5,0.25,0.25,0.25,0.25,0.5","3","",""
"","html-keyboard-response","151","101450","0.0-151.0","","","","","null","<img src=""img/land2.png"" style=""width:200px;border:14px solid red;"">","null","","","","","","","","","",""
"","image-keyboard-response","152","102289","0.0-152.0","","","","","837.5","img/land1.png","75","838.4000000953674","2","1","1","2","1,0,0,0.25,0.5,0.25,0.25,0.25,0.5","0,1,0,0.5,0.25,0.25,0.25,0.25,0.5","3","",""
"","html-keyboard-response","153","102591","0.0-153.0","","","","","null","<img src=""img/land1.png"" style=""width:200px; border:14px solid green;"">","null","","","","","","","","","",""
"","image-keyboard-response","154","103319","0.0-154.0","","","","","726.5","img/land3.png","74","728","1","1","3","2","1,0,0,0.25,0.5,0.25,0.25,0.25,0.5","0,1,0,0.5,0.25,0.25,0.25,0.25,0.5","3","",""
"","html-keyboard-response","155","103632","0.0-155.0","","","","","null","<img src=""img/land3.png"" style=""width:200px; border:14px solid green;"">","null","","","","","","","","","",""
"","image-keyboard-response","156","104255","0.0-156.0","","","","","621","img/land2.png","75","622.7000002861023","2","0","2","2","1,0,0,0.25,0.5,0.25,0.25,0.25,0.5","0,1,0,0.5,0.25,0.25,0.25,0.25,0.5","3","",""
"","html-keyboard-response","157","104558","0.0-157.0","","","","","null","<img src=""img/land2.png"" style=""width:200px;border:14px solid red;"">","null","","","","","","","","","",""
"","image-keyboard-response","158","105046","0.0-158.0","","","","","485.6000003814697","img/land2.png","75","487.09999990463257","2","0","2","2","1,0,0,0.25,0.5,0.25,0.25,0.25,0.5","0,1,0,0.5,0.25,0.25,0.25,0.25,0.5","3","",""
"","html-keyboard-response","159","105347","0.0-159.0","","","","","null","<img src=""img/land2.png"" style=""width:200px;border:14px solid red;"">","null","","","","","","","","","",""
"","image-keyboard-response","160","106281","0.0-160.0","","","","","931.3999996185303","img/land2.png","75","932.8999996185303","2","1","2","2","1,0,0,0.25,0.5,0.25,0.25,0.25,0.5","0,1,0,0.5,0.25,0.25,0.25,0.25,0.5","3","",""
"","html-keyboard-response","161","106583","0.0-161.0","","","","","null","<img src=""img/land2.png"" style=""width:200px; border:14px solid green;"">","null","","","","","","","","","",""
"","image-keyboard-response","162","107256","0.0-162.0","","","","","671.5999999046326","img/land3.png","74","672.5","1","0","3","2","1,0,0,0.25,0.5,0.25,0.25,0.25,0.5","0,1,0,0.5,0.25,0.25,0.25,0.25,0.5","3","",""
"","html-keyboard-response","163","107558","0.0-163.0","","","","","null","<img src=""img/land3.png"" style=""width:200px;border:14px solid red;"">","null","","","","","","","","","",""
"","image-keyboard-response","164","108128","0.0-164.0","","","","","568.3000001907349","img/land1.png","75","570.1999998092651","2","1","1","2","1,0,0,0.25,0.5,0.25,0.25,0.25,0.5","0,1,0,0.5,0.25,0.25,0.25,0.25,0.5","3","",""
"","html-keyboard-response","165","108432","0.0-165.0","","","","","null","<img src=""img/land1.png"" style=""width:200px; border:14px solid green;"">","null","","","","","","","","","",""
"","image-keyboard-response","166","108868","0.0-166.0","","","","","434.59999990463257","img/land1.png","75","435.19999980926514","2","1","1","2","1,0,0,0.25,0.5,0.25,0.25,0.25,0.5","0,1,0,0.5,0.25,0.25,0.25,0.25,0.5","3","",""
"","html-keyboard-response","167","109170","0.0-167.0","","","","","null","<img src=""img/land1.png"" style=""width:200px; border:14px solid green;"">","null","","","","","","","","","",""
"","image-keyboard-response","168","109869","0.0-168.0","","","","","697.3000001907349","img/land3.png","74","698.7000002861023","1","1","3","2","1,0,0,0.25,0.5,0.25,0.25,0.25,0.5","0,1,0,0.5,0.25,0.25,0.25,0.25,0.5","3","",""
"","html-keyboard-response","169","110172","0.0-169.0","","","","","null","<img src=""img/land3.png"" style=""width:200px; border:14px solid green;"">","null","","","","","","","","","",""
"","image-keyboard-response","170","110838","0.0-170.0","","","","","664.3000001907349","img/land2.png","75","665.6999998092651","2","0","2","2","1,0,0,0.25,0.5,0.25,0.25,0.25,0.5","0,1,0,0.5,0.25,0.25,0.25,0.25,0.5","3","",""
"","html-keyboard-response","171","111140","0.0-171.0","","","","","null","<img src=""img/land2.png"" style=""width:200px;border:14px solid red;"">","null","","","","","","","","","",""
"","image-keyboard-response","172","111555","0.0-172.0","","","","","414","img/land2.png","75","415","2","0","2","2","1,0,0,0.25,0.5,0.25,0.25,0.25,0.5","0,1,0,0.5,0.25,0.25,0.25,0.25,0.5","3","",""
"","html-keyboard-response","173","111858","0.0-173.0","","","","","null","<img src=""img/land2.png"" style=""width:200px;border:14px solid red;"">","null","","","","","","","","","",""
"","image-keyboard-response","174","112419","0.0-174.0","","","","","559.0999999046326","img/land3.png","74","560.2999997138977","1","0","3","2","1,0,0,0.25,0.5,0.25,0.25,0.25,0.5","0,1,0,0.5,0.25,0.25,0.25,0.25,0.5","3","",""
"","html-keyboard-response","175","112721","0.0-175.0","","","","","null","<img src=""img/land3.png"" style=""width:200px;border:14px solid red;"">","null","","","","","","","","","",""
"","image-keyboard-response","176","113339","0.0-176.0","","","","","615.4000000953674","img/land1.png","75","617","2","1","1","2","1,0,0,0.25,0.5,0.25,0.25,0.25,0.5","0,1,0,0.5,0.25,0.25,0.25,0.25,0.5","3","",""
"","html-keyboard-response","177","113641","0.0-177.0","","","","","null","<img src=""img/land1.png"" style=""width:200px; border:14px solid green;"">","null","","","","","","","","","",""
"","image-keyboard-response","178","114154","0.0-178.0","","","","","510.90000009536743","img/land1.png","75","512.3000001907349","2","1","1","2","1,0,0,0.25,0.5,0.25,0.25,0.25,0.5","0,1,0,0.5,0.25,0.25,0.25,0.25,0.5","3","",""
"","html-keyboard-response","179","114456","0.0-179.0","","","","","null","<img src=""img/land1.png"" style=""width:200px; border:14px solid green;"">","null","","","","","","","","","",""
"","image-keyboard-response","180","115181","0.0-180.0","","","","","722.5","img/land3.png","74","724.4000000953674","1","1","3","2","1,0,0,0.25,0.5,0.25,0.25,0.25,0.5","0,1,0,0.5,0.25,0.25,0.25,0.25,0.5","3","",""
"","html-keyboard-response","181","115483","0.0-181.0","","","","","null","<img src=""img/land3.png"" style=""width:200px; border:14px solid green;"">","null","","","","","","","","","",""
"","image-keyboard-response","182","116692","0.0-182.0","","","","","1206.9000000953674","img/land4.png","76","1208.3999996185303","3","0","1","1","1,0,0,0.25,0.5,0.25,0.25,0.25,0.5","1,0,0,0.25,0.5,0.25,0.25,0.25,0.5","1","",""
"","html-keyboard-response","183","116994","0.0-183.0","","","","","null","<img src=""img/land4.png"" style=""width:200px;border:14px solid red;"">","null","","","","","","","","","",""
"","image-keyboard-response","184","117578","0.0-184.0","","","","","582","img/land4.png","75","583.4000000953674","2","0","1","1","1,0,0,0.25,0.5,0.25,0.25,0.25,0.5","1,0,0,0.25,0.5,0.25,0.25,0.25,0.5","1","",""
"","html-keyboard-response","185","117880","0.0-185.0","","","","","null","<img src=""img/land4.png"" style=""width:200px;border:14px solid red;"">","null","","","","","","","","","",""
"","image-keyboard-response","186","118455","0.0-186.0","","","","","574.3000001907349","img/land4.png","74","575.0999999046326","1","1","1","1","1,0,0,0.25,0.5,0.25,0.25,0.25,0.5","1,0,0,0.25,0.5,0.25,0.25,0.25,0.5","1","",""
"","html-keyboard-response","187","118757","0.0-187.0","","","","","null","<img src=""img/land4.png"" style=""width:200px; border:14px solid green;"">","null","","","","","","","","","",""
"","image-keyboard-response","188","119198","0.0-188.0","","","","","438.69999980926514","img/land4.png","74","440.40000009536743","1","1","1","1","1,0,0,0.25,0.5,0.25,0.25,0.25,0.5","1,0,0,0.25,0.5,0.25,0.25,0.25,0.5","1","",""
"","html-keyboard-response","189","119501","0.0-189.0","","","","","null","<img src=""img/land4.png"" style=""width:200px; border:14px solid green;"">","null","","","","","","","","","",""
"","image-keyboard-response","190","120604","0.0-190.0","","","","","1100.7000002861023","img/land5.png","75","1102.2000002861023","2","1","2","1","1,0,0,0.25,0.5,0.25,0.25,0.25,0.5","1,0,0,0.25,0.5,0.25,0.25,0.25,0.5","1","",""
"","html-keyboard-response","191","120906","0.0-191.0","","","","","null","<img src=""img/land5.png"" style=""width:200px; border:14px solid green;"">","null","","","","","","","","","",""
"","image-keyboard-response","192","122214","0.0-192.0","","","","","1307.0999999046326","img/land6.png","75","1308.0999999046326","2","0","3","1","1,0,0,0.25,0.5,0.25,0.25,0.25,0.5","1,0,0,0.25,0.5,0.25,0.25,0.25,0.5","1","",""
"","html-keyboard-response","193","122517","0.0-193.0","","","","","null","<img src=""img/land6.png"" style=""width:200px;border:14px solid red;"">","null","","","","","","","","","",""
"","image-keyboard-response","194","122719","0.0-194.0","","","","","200.5","img/land5.png","76","201.5","3","0","2","1","1,0,0,0.25,0.5,0.25,0.25,0.25,0.5","1,0,0,0.25,0.5,0.25,0.25,0.25,0.5","1","",""
"","html-keyboard-response","195","123021","0.0-195.0","","","","","null","<img src=""img/land5.png"" style=""width:200px;border:14px solid red;"">","null","","","","","","","","","",""
"","image-keyboard-response","196","123764","0.0-196.0","","","","","740.1999998092651","img/land6.png","76","741.9000000953674","3","0","3","1","1,0,0,0.25,0.5,0.25,0.25,0.25,0.5","1,0,0,0.25,0.5,0.25,0.25,0.25,0.5","1","",""
"","html-keyboard-response","197","124066","0.0-197.0","","","","","null","<img src=""img/land6.png"" style=""width:200px;border:14px solid red;"">","null","","","","","","","","","",""
"","image-keyboard-response","198","124922","0.0-198.0","","","","","854.0999999046326","img/land4.png","75","855.5999999046326","2","0","1","1","1,0,0,0.25,0.5,0.25,0.25,0.25,0.5","1,0,0,0.25,0.5,0.25,0.25,0.25,0.5","1","",""
"","html-keyboard-response","199","125225","0.0-199.0","","","","","null","<img src=""img/land4.png"" style=""width:200px;border:14px solid red;"">","null","","","","","","","","","",""
"","image-keyboard-response","200","126830","0.0-200.0","","","","","1604.5","img/land6.png","75","1605.5","2","0","3","1","1,0,0,0.25,0.5,0.25,0.25,0.25,0.5","1,0,0,0.25,0.5,0.25,0.25,0.25,0.5","1","",""
"","html-keyboard-response","201","127133","0.0-201.0","","","","","null","<img src=""img/land6.png"" style=""width:200px;border:14px solid red;"">","null","","","","","","","","","",""
"","image-keyboard-response","202","127922","0.0-202.0","","","","","787.5999999046326","img/land4.png","74","789","1","1","1","1","1,0,0,0.25,0.5,0.25,0.25,0.25,0.5","1,0,0,0.25,0.5,0.25,0.25,0.25,0.5","1","",""
"","html-keyboard-response","203","128225","0.0-203.0","","","","","null","<img src=""img/land4.png"" style=""width:200px; border:14px solid green;"">","null","","","","","","","","","",""
"","image-keyboard-response","204","128665","0.0-204.0","","","","","439","img/land4.png","74","440.2000002861023","1","1","1","1","1,0,0,0.25,0.5,0.25,0.25,0.25,0.5","1,0,0,0.25,0.5,0.25,0.25,0.25,0.5","1","",""
"","html-keyboard-response","205","128967","0.0-205.0","","","","","null","<img src=""img/land4.png"" style=""width:200px; border:14px solid green;"">","null","","","","","","","","","",""
"","image-keyboard-response","206","129654","0.0-206.0","","","","","685.2999997138977","img/land6.png","74","686.4000000953674","1","1","3","1","1,0,0,0.25,0.5,0.25,0.25,0.25,0.5","1,0,0,0.25,0.5,0.25,0.25,0.25,0.5","1","",""
"","html-keyboard-response","207","129956","0.0-207.0","","","","","null","<img src=""img/land6.png"" style=""width:200px; border:14px solid green;"">","null","","","","","","","","","",""
"","image-keyboard-response","208","130387","0.0-208.0","","","","","430.59999990463257","img/land6.png","74","431.40000009536743","1","0","3","1","1,0,0,0.25,0.5,0.25,0.25,0.25,0.5","1,0,0,0.25,0.5,0.25,0.25,0.25,0.5","1","",""
"","html-keyboard-response","209","130690","0.0-209.0","","","","","null","<img src=""img/land6.png"" style=""width:200px;border:14px solid red;"">","null","","","","","","","","","",""
"","image-keyboard-response","210","131642","0.0-210.0","","","","","950.4000000953674","img/land4.png","74","951.8000001907349","1","1","1","1","1,0,0,0.25,0.5,0.25,0.25,0.25,0.5","1,0,0,0.25,0.5,0.25,0.25,0.25,0.5","1","",""
"","html-keyboard-response","211","131944","0.0-211.0","","","","","null","<img src=""img/land4.png"" style=""width:200px; border:14px solid green;"">","null","","","","","","","","","",""
"","image-keyboard-response","212","132680","0.0-212.0","","","","","733.8000001907349","img/land6.png","74","735.5","1","0","3","1","1,0,0,0.25,0.5,0.25,0.25,0.25,0.5","1,0,0,0.25,0.5,0.25,0.25,0.25,0.5","1","",""
"","html-keyboard-response","213","132983","0.0-213.0","","","","","null","<img src=""img/land6.png"" style=""width:200px;border:14px solid red;"">","null","","","","","","","","","",""
"","image-keyboard-response","214","133763","0.0-214.0","","","","","777.7999997138977","img/land4.png","74","779.3999996185303","1","1","1","1","1,0,0,0.25,0.5,0.25,0.25,0.25,0.5","1,0,0,0.25,0.5,0.25,0.25,0.25,0.5","1","",""
"","html-keyboard-response","215","134066","0.0-215.0","","","","","null","<img src=""img/land4.png"" style=""width:200px; border:14px solid green;"">","null","","","","","","","","","",""
"","image-keyboard-response","216","134815","0.0-216.0","","","","","747.8999996185303","img/land6.png","74","748.8999996185303","1","1","3","1","1,0,0,0.25,0.5,0.25,0.25,0.25,0.5","1,0,0,0.25,0.5,0.25,0.25,0.25,0.5","1","",""
"","html-keyboard-response","217","135118","0.0-217.0","","","","","null","<img src=""img/land6.png"" style=""width:200px; border:14px solid green;"">","null","","","","","","","","","",""
"","image-keyboard-response","218","135839","0.0-218.0","","","","","720.6999998092651","img/land4.png","74","722.1999998092651","1","1","1","1","1,0,0,0.25,0.5,0.25,0.25,0.25,0.5","1,0,0,0.25,0.5,0.25,0.25,0.25,0.5","1","",""
"","html-keyboard-response","219","136141","0.0-219.0","","","","","null","<img src=""img/land4.png"" style=""width:200px; border:14px solid green;"">","null","","","","","","","","","",""
"","image-keyboard-response","220","136784","0.0-220.0","","","","","641.2999997138977","img/land4.png","74","642.1999998092651","1","1","1","1","1,0,0,0.25,0.5,0.25,0.25,0.25,0.5","1,0,0,0.25,0.5,0.25,0.25,0.25,0.5","1","",""
"","html-keyboard-response","221","137086","0.0-221.0","","","","","null","<img src=""img/land4.png"" style=""width:200px; border:14px solid green;"">","null","","","","","","","","","",""
"","image-keyboard-response","222","137473","0.0-222.0","","","","","384.19999980926514","img/land4.png","74","385.90000009536743","1","1","1","1","1,0,0,0.25,0.5,0.25,0.25,0.25,0.5","1,0,0,0.25,0.5,0.25,0.25,0.25,0.5","1","",""
"","html-keyboard-response","223","137775","0.0-223.0","","","","","null","<img src=""img/land4.png"" style=""width:200px; border:14px solid green;"">","null","","","","","","","","","",""
"","image-keyboard-response","224","139052","0.0-224.0","","","","","1274.8000001907349","img/land5.png","76","1276.6999998092651","3","1","2","1","1,0,0,0.25,0.5,0.25,0.25,0.25,0.5","1,0,0,0.25,0.5,0.25,0.25,0.25,0.5","1","",""
"","html-keyboard-response","225","139355","0.0-225.0","","","","","null","<img src=""img/land5.png"" style=""width:200px; border:14px solid green;"">","null","","","","","","","","","",""
"","image-keyboard-response","226","140157","0.0-226.0","","","","","800","img/land4.png","74","801.6999998092651","1","1","1","1","1,0,0,0.25,0.5,0.25,0.25,0.25,0.5","1,0,0,0.25,0.5,0.25,0.25,0.25,0.5","1","",""
"","html-keyboard-response","227","140460","0.0-227.0","","","","","null","<img src=""img/land4.png"" style=""width:200px; border:14px solid green;"">","null","","","","","","","","","",""
"","image-keyboard-response","228","141377","0.0-228.0","","","","","915.5","img/land6.png","74","917.2000002861023","1","1","3","1","1,0,0,0.25,0.5,0.25,0.25,0.25,0.5","1,0,0,0.25,0.5,0.25,0.25,0.25,0.5","1","",""
"","html-keyboard-response","229","141679","0.0-229.0","","","","","null","<img src=""img/land6.png"" style=""width:200px; border:14px solid green;"">","null","","","","","","","","","",""
"","image-keyboard-response","230","142299","0.0-230.0","","","","","616.7999997138977","img/land4.png","74","618.8999996185303","1","1","1","1","1,0,0,0.25,0.5,0.25,0.25,0.25,0.5","1,0,0,0.25,0.5,0.25,0.25,0.25,0.5","1","",""
"","html-keyboard-response","231","142602","0.0-231.0","","","","","null","<img src=""img/land4.png"" style=""width:200px; border:14px solid green;"">","null","","","","","","","","","",""
"","image-keyboard-response","232","143235","0.0-232.0","","","","","631","img/land4.png","74","632.7000002861023","1","1","1","1","1,0,0,0.25,0.5,0.25,0.25,0.25,0.5","1,0,0,0.25,0.5,0.25,0.25,0.25,0.5","1","",""
"","html-keyboard-response","233","143537","0.0-233.0","","","","","null","<img src=""img/land4.png"" style=""width:200px; border:14px solid green;"">","null","","","","","","","","","",""
"","image-keyboard-response","234","144290","0.0-234.0","","","","","750.9000000953674","img/land6.png","74","752.5999999046326","1","0","3","1","1,0,0,0.25,0.5,0.25,0.25,0.25,0.5","1,0,0,0.25,0.5,0.25,0.25,0.25,0.5","1","",""
"","html-keyboard-response","235","144592","0.0-235.0","","","","","null","<img src=""img/land6.png"" style=""width:200px;border:14px solid red;"">","null","","","","","","","","","",""
"","image-keyboard-response","236","145258","0.0-236.0","","","","","664.8000001907349","img/land4.png","74","665.7000002861023","1","1","1","1","1,0,0,0.25,0.5,0.25,0.25,0.25,0.5","1,0,0,0.25,0.5,0.25,0.25,0.25,0.5","1","",""
"","html-keyboard-response","237","145561","0.0-237.0","","","","","null","<img src=""img/land4.png"" style=""width:200px; border:14px solid green;"">","null","","","","","","","","","",""
"","image-keyboard-response","238","146132","0.0-238.0","","","","","569.3999996185303","img/land4.png","74","570.7000002861023","1","1","1","1","1,0,0,0.25,0.5,0.25,0.25,0.25,0.5","1,0,0,0.25,0.5,0.25,0.25,0.25,0.5","1","",""
"","html-keyboard-response","239","146433","0.0-239.0","","","","","null","<img src=""img/land4.png"" style=""width:200px; border:14px solid green;"">","null","","","","","","","","","",""
"","image-keyboard-response","240","147144","0.0-240.0","","","","","708.5","img/land5.png","76","710.2000002861023","3","1","2","1","1,0,0,0.25,0.5,0.25,0.25,0.25,0.5","1,0,0,0.25,0.5,0.25,0.25,0.25,0.5","1","",""
"","html-keyboard-response","241","147446","0.0-241.0","","","","","null","<img src=""img/land5.png"" style=""width:200px; border:14px solid green;"">","null","","","","","","","","","",""
"","image-keyboard-response","242","148138","0.0-242.0","","","","","689.7000002861023","img/land4.png","74","691.0999999046326","1","1","1","1","1,0,0,0.25,0.5,0.25,0.25,0.25,0.5","1,0,0,0.25,0.5,0.25,0.25,0.25,0.5","1","",""
"","html-keyboard-response","243","148439","0.0-243.0","","","","","null","<img src=""img/land4.png"" style=""width:200px; border:14px solid green;"">","null","","","","","","","","","",""
"","image-keyboard-response","244","149110","0.0-244.0","","","","","668.3999996185303","img/land5.png","76","670.3000001907349","3","0","2","1","1,0,0,0.25,0.5,0.25,0.25,0.25,0.5","1,0,0,0.25,0.5,0.25,0.25,0.25,0.5","1","",""
"","html-keyboard-response","245","149414","0.0-245.0","","","","","null","<img src=""img/land5.png"" style=""width:200px;border:14px solid red;"">","null","","","","","","","","","",""
"","image-keyboard-response","246","150222","0.0-246.0","","","","","806","img/land6.png","74","807.6000003814697","1","0","3","1","1,0,0,0.25,0.5,0.25,0.25,0.25,0.5","1,0,0,0.25,0.5,0.25,0.25,0.25,0.5","1","",""
"","html-keyboard-response","247","150525","0.0-247.0","","","","","null","<img src=""img/land6.png"" style=""width:200px;border:14px solid red;"">","null","","","","","","","","","",""
"","image-keyboard-response","248","151014","0.0-248.0","","","","","487.2999997138977","img/land4.png","74","488.80000019073486","1","1","1","1","1,0,0,0.25,0.5,0.25,0.25,0.25,0.5","1,0,0,0.25,0.5,0.25,0.25,0.25,0.5","1","",""
"","html-keyboard-response","249","151316","0.0-249.0","","","","","null","<img src=""img/land4.png"" style=""width:200px; border:14px solid green;"">","null","","","","","","","","","",""
"","image-keyboard-response","250","151991","0.0-250.0","","","","","672.2999997138977","img/land5.png","76","673.8999996185303","3","1","2","1","1,0,0,0.25,0.5,0.25,0.25,0.25,0.5","1,0,0,0.25,0.5,0.25,0.25,0.25,0.5","1","",""
"","html-keyboard-response","251","152294","0.0-251.0","","","","","null","<img src=""img/land5.png"" style=""width:200px; border:14px solid green;"">","null","","","","","","","","","",""
"","image-keyboard-response","252","153025","0.0-252.0","","","","","729.3999996185303","img/land6.png","74","730.9000000953674","1","0","3","1","1,0,0,0.25,0.5,0.25,0.25,0.25,0.5","1,0,0,0.25,0.5,0.25,0.25,0.25,0.5","1","",""
"","html-keyboard-response","253","153326","0.0-253.0","","","","","null","<img src=""img/land6.png"" style=""width:200px;border:14px solid red;"">","null","","","","","","","","","",""
"","image-keyboard-response","254","153842","0.0-254.0","","","","","513.9000000953674","img/land4.png","74","515.4000000953674","1","1","1","1","1,0,0,0.25,0.5,0.25,0.25,0.25,0.5","1,0,0,0.25,0.5,0.25,0.25,0.25,0.5","1","",""
"","html-keyboard-response","255","154144","0.0-255.0","","","","","null","<img src=""img/land4.png"" style=""width:200px; border:14px solid green;"">","null","","","","","","","","","",""
"","image-keyboard-response","256","155102","0.0-256.0","","","","","957.0999999046326","img/land6.png","74","958","1","0","3","1","1,0,0,0.25,0.5,0.25,0.25,0.25,0.5","1,0,0,0.25,0.5,0.25,0.25,0.25,0.5","1","",""
"","html-keyboard-response","257","155405","0.0-257.0","","","","","null","<img src=""img/land6.png"" style=""width:200px;border:14px solid red;"">","null","","","","","","","","","",""
"","image-keyboard-response","258","156377","0.0-258.0","","","","","970.0999999046326","img/land4.png","74","971.6999998092651","1","1","1","1","1,0,0,0.25,0.5,0.25,0.25,0.25,0.5","1,0,0,0.25,0.5,0.25,0.25,0.25,0.5","1","",""
"","html-keyboard-response","259","156679","0.0-259.0","","","","","null","<img src=""img/land4.png"" style=""width:200px; border:14px solid green;"">","null","","","","","","","","","",""
"","image-keyboard-response","260","157325","0.0-260.0","","","","","644","img/land4.png","74","645.3000001907349","1","1","1","1","1,0,0,0.25,0.5,0.25,0.25,0.25,0.5","1,0,0,0.25,0.5,0.25,0.25,0.25,0.5","1","",""
"","html-keyboard-response","261","157627","0.0-261.0","","","","","null","<img src=""img/land4.png"" style=""width:200px; border:14px solid green;"">","null","","","","","","","","","",""
"","image-keyboard-response","262","158437","0.0-262.0","","","","","807.9000000953674","img/land5.png","76","809.7000002861023","3","0","2","1","1,0,0,0.25,0.5,0.25,0.25,0.25,0.5","1,0,0,0.25,0.5,0.25,0.25,0.25,0.5","1","",""
"","html-keyboard-response","263","158741","0.0-263.0","","","","","null","<img src=""img/land5.png"" style=""width:200px;border:14px solid red;"">","null","","","","","","","","","",""
"","image-keyboard-response","264","159709","0.0-264.0","","","","","966.1999998092651","img/land4.png","74","967.7000002861023","1","1","1","1","1,0,0,0.25,0.5,0.25,0.25,0.25,0.5","1,0,0,0.25,0.5,0.25,0.25,0.25,0.5","1","",""
"","html-keyboard-response","265","160011","0.0-265.0","","","","","null","<img src=""img/land4.png"" style=""width:200px; border:14px solid green;"">","null","","","","","","","","","",""
"","image-keyboard-response","266","160800","0.0-266.0","","","","","786.5","img/land4.png","74","788.2000002861023","1","1","1","1","1,0,0,0.25,0.5,0.25,0.25,0.25,0.5","1,0,0,0.25,0.5,0.25,0.25,0.25,0.5","1","",""
"","html-keyboard-response","267","161103","0.0-267.0","","","","","null","<img src=""img/land4.png"" style=""width:200px; border:14px solid green;"">","null","","","","","","","","","",""
"","image-keyboard-response","268","161861","0.0-268.0","","","","","755.5","img/land4.png","74","757.4000000953674","1","1","1","1","1,0,0,0.25,0.5,0.25,0.25,0.25,0.5","1,0,0,0.25,0.5,0.25,0.25,0.25,0.5","1","",""
"","html-keyboard-response","269","162164","0.0-269.0","","","","","null","<img src=""img/land4.png"" style=""width:200px; border:14px solid green;"">","null","","","","","","","","","",""
"","image-keyboard-response","270","162987","0.0-270.0","","","","","822.2999997138977","img/land4.png","74","823.1999998092651","1","1","1","1","1,0,0,0.25,0.5,0.25,0.25,0.25,0.5","1,0,0,0.25,0.5,0.25,0.25,0.25,0.5","1","",""
"","html-keyboard-response","271","163290","0.0-271.0","","","","","null","<img src=""img/land4.png"" style=""width:200px; border:14px solid green;"">","null","","","","","","","","","",""
"","image-keyboard-response","272","164097","0.0-272.0","","","","","804.6999998092651","img/land4.png","74","806.4000000953674","1","1","1","1","1,0,0,0.25,0.5,0.25,0.25,0.25,0.5","1,0,0,0.25,0.5,0.25,0.25,0.25,0.5","1","",""
"","html-keyboard-response","273","164399","0.0-273.0","","","","","null","<img src=""img/land4.png"" style=""width:200px; border:14px solid green;"">","null","","","","","","","","","",""
"","image-keyboard-response","274","165134","0.0-274.0","","","","","733.1999998092651","img/land4.png","74","734.7000002861023","1","1","1","1","1,0,0,0.25,0.5,0.25,0.25,0.25,0.5","1,0,0,0.25,0.5,0.25,0.25,0.25,0.5","1","",""
"","html-keyboard-response","275","165435","0.0-275.0","","","","","null","<img src=""img/land4.png"" style=""width:200px; border:14px solid green;"">","null","","","","","","","","","",""
"","image-keyboard-response","276","166001","0.0-276.0","","","","","562.9000000953674","img/land4.png","74","564.6999998092651","1","1","1","1","1,0,0,0.25,0.5,0.25,0.25,0.25,0.5","1,0,0,0.25,0.5,0.25,0.25,0.25,0.5","1","",""
"","html-keyboard-response","277","166303","0.0-277.0","","","","","null","<img src=""img/land4.png"" style=""width:200px; border:14px solid green;"">","null","","","","","","","","","",""
"","image-keyboard-response","278","167016","0.0-278.0","","","","","710.9000000953674","img/land4.png","74","712.2999997138977","1","1","1","1","1,0,0,0.25,0.5,0.25,0.25,0.25,0.5","1,0,0,0.25,0.5,0.25,0.25,0.25,0.5","1","",""
"","html-keyboard-response","279","167319","0.0-279.0","","","","","null","<img src=""img/land4.png"" style=""width:200px; border:14px solid green;"">","null","","","","","","","","","",""
"","image-keyboard-response","280","168224","0.0-280.0","","","","","903.7000002861023","img/land4.png","74","905.3000001907349","1","1","1","1","1,0,0,0.25,0.5,0.25,0.25,0.25,0.5","1,0,0,0.25,0.5,0.25,0.25,0.25,0.5","1","",""
"","html-keyboard-response","281","168527","0.0-281.0","","","","","null","<img src=""img/land4.png"" style=""width:200px; border:14px solid green;"">","null","","","","","","","","","",""
"","image-keyboard-response","282","169493","0.0-282.0","","","","","963.6999998092651","img/land4.png","74","965.3999996185303","1","1","1","1","1,0,0,0.25,0.5,0.25,0.25,0.25,0.5","1,0,0,0.25,0.5,0.25,0.25,0.25,0.5","1","",""
"","html-keyboard-response","283","169796","0.0-283.0","","","","","null","<img src=""img/land4.png"" style=""width:200px; border:14px solid green;"">","null","","","","","","","","","",""
"","image-keyboard-response","284","170431","0.0-284.0","","","","","634.9000000953674","img/land5.png","76","635.7000002861023","3","0","2","1","1,0,0,0.25,0.5,0.25,0.25,0.25,0.5","1,0,0,0.25,0.5,0.25,0.25,0.25,0.5","1","",""
"","html-keyboard-response","285","170734","0.0-285.0","","","","","null","<img src=""img/land5.png"" style=""width:200px;border:14px solid red;"">","null","","","","","","","","","",""
"","image-keyboard-response","286","171164","0.0-286.0","","","","","428.40000009536743","img/land4.png","76","429.69999980926514","3","0","1","1","1,0,0,0.25,0.5,0.25,0.25,0.25,0.5","1,0,0,0.25,0.5,0.25,0.25,0.25,0.5","1","",""
"","html-keyboard-response","287","171469","0.0-287.0","","","","","null","<img src=""img/land4.png"" style=""width:200px;border:14px solid red;"">","null","","","","","","","","","",""
"","image-keyboard-response","288","172441","0.0-288.0","","","","","970.1000003814697","img/land5.png","76","971.6999998092651","3","1","2","1","1,0,0,0.25,0.5,0.25,0.25,0.25,0.5","1,0,0,0.25,0.5,0.25,0.25,0.25,0.5","1","",""
"","html-keyboard-response","289","172745","0.0-289.0","","","","","null","<img src=""img/land5.png"" style=""width:200px; border:14px solid green;"">","null","","","","","","","","","",""
"","image-keyboard-response","290","173270","0.0-290.0","","","","","523.1999998092651","img/land4.png","74","524.6999998092651","1","1","1","1","1,0,0,0.25,0.5,0.25,0.25,0.25,0.5","1,0,0,0.25,0.5,0.25,0.25,0.25,0.5","1","",""
"","html-keyboard-response","291","173573","0.0-291.0","","","","","null","<img src=""img/land4.png"" style=""width:200px; border:14px solid green;"">","null","","","","","","","","","",""
"","image-keyboard-response","292","174284","0.0-292.0","","","","","709.5","img/land4.png","74","711.1000003814697","1","1","1","1","1,0,0,0.25,0.5,0.25,0.25,0.25,0.5","1,0,0,0.25,0.5,0.25,0.25,0.25,0.5","1","",""
"","html-keyboard-response","293","174587","0.0-293.0","","","","","null","<img src=""img/land4.png"" style=""width:200px; border:14px solid green;"">","null","","","","","","","","","",""
"","image-keyboard-response","294","175180","0.0-294.0","","","","","590.6999998092651","img/land4.png","74","592.3999996185303","1","1","1","1","1,0,0,0.25,0.5,0.25,0.25,0.25,0.5","1,0,0,0.25,0.5,0.25,0.25,0.25,0.5","1","",""
"","html-keyboard-response","295","175484","0.0-295.0","","","","","null","<img src=""img/land4.png"" style=""width:200px; border:14px solid green;"">","null","","","","","","","","","",""
"","image-keyboard-response","296","176040","0.0-296.0","","","","","554.3000001907349","img/land4.png","74","555.9000000953674","1","1","1","1","1,0,0,0.25,0.5,0.25,0.25,0.25,0.5","1,0,0,0.25,0.5,0.25,0.25,0.25,0.5","1","",""
"","html-keyboard-response","297","176343","0.0-297.0","","","","","null","<img src=""img/land4.png"" style=""width:200px; border:14px solid green;"">","null","","","","","","","","","",""
"","image-keyboard-response","298","177128","0.0-298.0","","","","","783.2999997138977","img/land6.png","74","784.5999999046326","1","0","3","1","1,0,0,0.25,0.5,0.25,0.25,0.25,0.5","1,0,0,0.25,0.5,0.25,0.25,0.25,0.5","1","",""
"","html-keyboard-response","299","177431","0.0-299.0","","","","","null","<img src=""img/land6.png"" style=""width:200px;border:14px solid red;"">","null","","","","","","","","","",""
"","image-keyboard-response","300","177993","0.0-300.0","","","","","560.4000000953674","img/land4.png","74","561.9000000953674","1","1","1","1","1,0,0,0.25,0.5,0.25,0.25,0.25,0.5","1,0,0,0.25,0.5,0.25,0.25,0.25,0.5","1","",""
"","html-keyboard-response","301","178296","0.0-301.0","","","","","null","<img src=""img/land4.png"" style=""width:200px; border:14px solid green;"">","null","","","","","","","","","",""
"","image-keyboard-response","302","179014","0.0-302.0","","","","","716.2999997138977","img/land4.png","74","717.8999996185303","1","1","1","1","1,0,0,0.25,0.5,0.25,0.25,0.25,0.5","1,0,0,0.25,0.5,0.25,0.25,0.25,0.5","1","",""
"","html-keyboard-response","303","179317","0.0-303.0","","","","","null","<img src=""img/land4.png"" style=""width:200px; border:14px solid green;"">","null","","","","","","","","","",""
"","image-keyboard-response","304","179753","0.0-304.0","","","","","434.19999980926514","img/land6.png","74","435.2999997138977","1","1","3","1","1,0,0,0.25,0.5,0.25,0.25,0.25,0.5","1,0,0,0.25,0.5,0.25,0.25,0.25,0.5","1","",""
"","html-keyboard-response","305","180055","0.0-305.0","","","","","null","<img src=""img/land6.png"" style=""width:200px; border:14px solid green;"">","null","","","","","","","","","",""
"","image-keyboard-response","306","180708","0.0-306.0","","","","","651.4000000953674","img/land4.png","74","653","1","1","1","1","1,0,0,0.25,0.5,0.25,0.25,0.25,0.5","1,0,0,0.25,0.5,0.25,0.25,0.25,0.5","1","",""
"","html-keyboard-response","307","181011","0.0-307.0","","","","","null","<img src=""img/land4.png"" style=""width:200px; border:14px solid green;"">","null","","","","","","","","","",""
"","image-keyboard-response","308","181604","0.0-308.0","","","","","590.7000002861023","img/land4.png","74","592.5","1","1","1","1","1,0,0,0.25,0.5,0.25,0.25,0.25,0.5","1,0,0,0.25,0.5,0.25,0.25,0.25,0.5","1","",""
"","html-keyboard-response","309","181907","0.0-309.0","","","","","null","<img src=""img/land4.png"" style=""width:200px; border:14px solid green;"">","null","","","","","","","","","",""
"","image-keyboard-response","310","182476","0.0-310.0","","","","","566.7000002861023","img/land4.png","74","568.7000002861023","1","1","1","1","1,0,0,0.25,0.5,0.25,0.25,0.25,0.5","1,0,0,0.25,0.5,0.25,0.25,0.25,0.5","1","",""
"","html-keyboard-response","311","182779","0.0-311.0","","","","","null","<img src=""img/land4.png"" style=""width:200px; border:14px solid green;"">","null","","","","","","","","","",""
"","image-keyboard-response","312","183223","0.0-312.0","","","","","441.5","img/land4.png","74","442.90000009536743","1","1","1","1","1,0,0,0.25,0.5,0.25,0.25,0.25,0.5","1,0,0,0.25,0.5,0.25,0.25,0.25,0.5","1","",""
"","html-keyboard-response","313","183524","0.0-313.0","","","","","null","<img src=""img/land4.png"" style=""width:200px; border:14px solid green;"">","null","","","","","","","","","",""
"","image-keyboard-response","314","183931","0.0-314.0","","","","","405.30000019073486","img/land4.png","74","407","1","1","1","1","1,0,0,0.25,0.5,0.25,0.25,0.25,0.5","1,0,0,0.25,0.5,0.25,0.25,0.25,0.5","1","",""
"","html-keyboard-response","315","184234","0.0-315.0","","","","","null","<img src=""img/land4.png"" style=""width:200px; border:14px solid green;"">","null","","","","","","","","","",""
"","image-keyboard-response","316","184605","0.0-316.0","","","","","368.09999990463257","img/land4.png","74","369.7999997138977","1","1","1","1","1,0,0,0.25,0.5,0.25,0.25,0.25,0.5","1,0,0,0.25,0.5,0.25,0.25,0.25,0.5","1","",""
"","html-keyboard-response","317","184907","0.0-317.0","","","","","null","<img src=""img/land4.png"" style=""width:200px; border:14px solid green;"">","null","","","","","","","","","",""
"","image-keyboard-response","318","185315","0.0-318.0","","","","","405.5","img/land4.png","74","407.09999990463257","1","1","1","1","1,0,0,0.25,0.5,0.25,0.25,0.25,0.5","1,0,0,0.25,0.5,0.25,0.25,0.25,0.5","1","",""
"","html-keyboard-response","319","185617","0.0-319.0","","","","","null","<img src=""img/land4.png"" style=""width:200px; border:14px solid green;"">","null","","","","","","","","","",""
"","image-keyboard-response","320","186260","0.0-320.0","","","","","641.3000001907349","img/land5.png","76","643","3","0","2","1","1,0,0,0.25,0.5,0.25,0.25,0.25,0.5","1,0,0,0.25,0.5,0.25,0.25,0.25,0.5","1","",""
"","html-keyboard-response","321","186568","0.0-321.0","","","","","null","<img src=""img/land5.png"" style=""width:200px;border:14px solid red;"">","null","","","","","","","","","",""
"","image-keyboard-response","322","187182","0.0-322.0","","","","","612","img/land4.png","74","613.4000000953674","1","1","1","1","1,0,0,0.25,0.5,0.25,0.25,0.25,0.5","1,0,0,0.25,0.5,0.25,0.25,0.25,0.5","1","",""
"","html-keyboard-response","323","187484","0.0-323.0","","","","","null","<img src=""img/land4.png"" style=""width:200px; border:14px solid green;"">","null","","","","","","","","","",""
"","image-keyboard-response","324","188167","0.0-324.0","","","","","681","img/land5.png","76","682.5999999046326","3","1","2","1","1,0,0,0.25,0.5,0.25,0.25,0.25,0.5","1,0,0,0.25,0.5,0.25,0.25,0.25,0.5","1","",""
"","html-keyboard-response","325","188470","0.0-325.0","","","","","null","<img src=""img/land5.png"" style=""width:200px; border:14px solid green;"">","null","","","","","","","","","",""
"","image-keyboard-response","326","189017","0.0-326.0","","","","","546.5","img/land4.png","74","547.2999997138977","1","1","1","1","1,0,0,0.25,0.5,0.25,0.25,0.25,0.5","1,0,0,0.25,0.5,0.25,0.25,0.25,0.5","1","",""
"","html-keyboard-response","327","189320","0.0-327.0","","","","","null","<img src=""img/land4.png"" style=""width:200px; border:14px solid green;"">","null","","","","","","","","","",""
"","image-keyboard-response","328","189799","0.0-328.0","","","","","477.59999990463257","img/land5.png","74","479.30000019073486","1","0","2","1","1,0,0,0.25,0.5,0.25,0.25,0.25,0.5","1,0,0,0.25,0.5,0.25,0.25,0.25,0.5","1","",""
"","html-keyboard-response","329","190102","0.0-329.0","","","","","null","<img src=""img/land5.png"" style=""width:200px;border:14px solid red;"">","null","","","","","","","","","",""
"","image-keyboard-response","330","190236","0.0-330.0","","","","","132.09999990463257","img/land6.png","76","133.19999980926514","3","1","3","1","1,0,0,0.25,0.5,0.25,0.25,0.25,0.5","1,0,0,0.25,0.5,0.25,0.25,0.25,0.5","1","",""
"","html-keyboard-response","331","190538","0.0-331.0","","","","","null","<img src=""img/land6.png"" style=""width:200px; border:14px solid green;"">","null","","","","","","","","","",""
"","image-keyboard-response","332","192224","0.0-332.0","","","","","1684","img/land4.png","74","1685.6999998092651","1","1","1","1","1,0,0,0.25,0.5,0.25,0.25,0.25,0.5","1,0,0,0.25,0.5,0.25,0.25,0.25,0.5","1","",""
"","html-keyboard-response","333","192526","0.0-333.0","","","","","null","<img src=""img/land4.png"" style=""width:200px; border:14px solid green;"">","null","","","","","","","","","",""
"","image-keyboard-response","334","193031","0.0-334.0","","","","","503.5","img/land4.png","74","504.69999980926514","1","1","1","1","1,0,0,0.25,0.5,0.25,0.25,0.25,0.5","1,0,0,0.25,0.5,0.25,0.25,0.25,0.5","1","",""
"","html-keyboard-response","335","193334","0.0-335.0","","","","","null","<img src=""img/land4.png"" style=""width:200px; border:14px solid green;"">","null","","","","","","","","","",""
"","image-keyboard-response","336","193760","0.0-336.0","","","","","423.2999997138977","img/land4.png","74","425.2999997138977","1","1","1","1","1,0,0,0.25,0.5,0.25,0.25,0.25,0.5","1,0,0,0.25,0.5,0.25,0.25,0.25,0.5","1","",""
"","html-keyboard-response","337","194063","0.0-337.0","","","","","null","<img src=""img/land4.png"" style=""width:200px; border:14px solid green;"">","null","","","","","","","","","",""
"","image-keyboard-response","338","194864","0.0-338.0","","","","","798.6000003814697","img/land6.png","74","800.3000001907349","1","0","3","1","1,0,0,0.25,0.5,0.25,0.25,0.25,0.5","1,0,0,0.25,0.5,0.25,0.25,0.25,0.5","1","",""
"","html-keyboard-response","339","195167","0.0-339.0","","","","","null","<img src=""img/land6.png"" style=""width:200px;border:14px solid red;"">","null","","","","","","","","","",""
"","image-keyboard-response","340","196076","0.0-340.0","","","","","908","img/land5.png","76","909.5","3","0","2","1","1,0,0,0.25,0.5,0.25,0.25,0.25,0.5","1,0,0,0.25,0.5,0.25,0.25,0.25,0.5","1","",""
"","html-keyboard-response","341","196381","0.0-341.0","","","","","null","<img src=""img/land5.png"" style=""width:200px;border:14px solid red;"">","null","","","","","","","","","",""
"","image-keyboard-response","342","197014","0.0-342.0","","","","","631.7000002861023","img/land6.png","74","633.3000001907349","1","0","3","1","1,0,0,0.25,0.5,0.25,0.25,0.25,0.5","1,0,0,0.25,0.5,0.25,0.25,0.25,0.5","1","",""
"","html-keyboard-response","343","197317","0.0-343.0","","","","","null","<img src=""img/land6.png"" style=""width:200px;border:14px solid red;"">","null","","","","","","","","","",""
"","image-keyboard-response","344","198325","0.0-344.0","","","","","1006.5","img/land4.png","74","1007.9000000953674","1","1","1","1","1,0,0,0.25,0.5,0.25,0.25,0.25,0.5","1,0,0,0.25,0.5,0.25,0.25,0.25,0.5","1","",""
"","html-keyboard-response","345","198627","0.0-345.0","","","","","null","<img src=""img/land4.png"" style=""width:200px; border:14px solid green;"">","null","","","","","","","","","",""
"","image-keyboard-response","346","199325","0.0-346.0","","","","","696.0999999046326","img/land6.png","75","697.6999998092651","2","1","3","1","1,0,0,0.25,0.5,0.25,0.25,0.25,0.5","1,0,0,0.25,0.5,0.25,0.25,0.25,0.5","1","",""
"","html-keyboard-response","347","199627","0.0-347.0","","","","","null","<img src=""img/land6.png"" style=""width:200px; border:14px solid green;"">","null","","","","","","","","","",""
"","image-keyboard-response","348","200393","0.0-348.0","","","","","764.4000000953674","img/land4.png","74","765.9000000953674","1","1","1","1","1,0,0,0.25,0.5,0.25,0.25,0.25,0.5","1,0,0,0.25,0.5,0.25,0.25,0.25,0.5","1","",""
"","html-keyboard-response","349","200696","0.0-349.0","","","","","null","<img src=""img/land4.png"" style=""width:200px; border:14px solid green;"">","null","","","","","","","","","",""
"","image-keyboard-response","350","201040","0.0-350.0","","","","","342.7999997138977","img/land4.png","74","343.90000009536743","1","1","1","1","1,0,0,0.25,0.5,0.25,0.25,0.25,0.5","1,0,0,0.25,0.5,0.25,0.25,0.25,0.5","1","",""
"","html-keyboard-response","351","201345","0.0-351.0","","","","","null","<img src=""img/land4.png"" style=""width:200px; border:14px solid green;"">","null","","","","","","","","","",""
"","image-keyboard-response","352","201669","0.0-352.0","","","","","323.6000003814697","img/land4.png","74","324.59999990463257","1","1","1","1","1,0,0,0.25,0.5,0.25,0.25,0.25,0.5","1,0,0,0.25,0.5,0.25,0.25,0.25,0.5","1","",""
"","html-keyboard-response","353","201973","0.0-353.0","","","","","null","<img src=""img/land4.png"" style=""width:200px; border:14px solid green;"">","null","","","","","","","","","",""
"","image-keyboard-response","354","202742","0.0-354.0","","","","","767.2000002861023","img/land5.png","76","768.8999996185303","3","1","2","1","1,0,0,0.25,0.5,0.25,0.25,0.25,0.5","1,0,0,0.25,0.5,0.25,0.25,0.25,0.5","1","",""
"","html-keyboard-response","355","203044","0.0-355.0","","","","","null","<img src=""img/land5.png"" style=""width:200px; border:14px solid green;"">","null","","","","","","","","","",""
"","image-keyboard-response","356","203841","0.0-356.0","","","","","794.8000001907349","img/land4.png","74","796.5","1","1","1","1","1,0,0,0.25,0.5,0.25,0.25,0.25,0.5","1,0,0,0.25,0.5,0.25,0.25,0.25,0.5","1","",""
"","html-keyboard-response","357","204144","0.0-357.0","","","","","null","<img src=""img/land4.png"" style=""width:200px; border:14px solid green;"">","null","","","","","","","","","",""
"","image-keyboard-response","358","204610","0.0-358.0","","","","","464","img/land4.png","74","465","1","1","1","1","1,0,0,0.25,0.5,0.25,0.25,0.25,0.5","1,0,0,0.25,0.5,0.25,0.25,0.25,0.5","1","",""
"","html-keyboard-response","359","204912","0.0-359.0","","","","","null","<img src=""img/land4.png"" style=""width:200px; border:14px solid green;"">","null","","","","","","","","","",""
"","image-keyboard-response","360","205422","0.0-360.0","","","","","508.69999980926514","img/land4.png","74","510.2999997138977","1","1","1","1","1,0,0,0.25,0.5,0.25,0.25,0.25,0.5","1,0,0,0.25,0.5,0.25,0.25,0.25,0.5","1","",""
"","html-keyboard-response","361","205725","0.0-361.0","","","","","null","<img src=""img/land4.png"" style=""width:200px; border:14px solid green;"">","null","","","","","","","","","",""
"","image-keyboard-response","362","206354","0.0-362.0","","","","","626.8000001907349","img/land6.png","75","628.0999999046326","2","0","3","1","1,0,0,0.25,0.5,0.25,0.25,0.25,0.5","1,0,0,0.25,0.5,0.25,0.25,0.25,0.5","1","",""
"","html-keyboard-response","363","206656","0.0-363.0","","","","","null","<img src=""img/land6.png"" style=""width:200px;border:14px solid red;"">","null","","","","","","","","","",""
"","image-keyboard-response","364","207668","0.0-364.0","","","","","1009.7999997138977","img/land4.png","74","1011.4000000953674","1","1","1","1","1,0,0,0.25,0.5,0.25,0.25,0.25,0.5","1,0,0,0.25,0.5,0.25,0.25,0.25,0.5","1","",""
"","html-keyboard-response","365","207971","0.0-365.0","","","","","null","<img src=""img/land4.png"" style=""width:200px; border:14px solid green;"">","null","","","","","","","","","",""
"","image-keyboard-response","366","208359","0.0-366.0","","","","","385.69999980926514","img/land4.png","74","387.5","1","1","1","1","1,0,0,0.25,0.5,0.25,0.25,0.25,0.5","1,0,0,0.25,0.5,0.25,0.25,0.25,0.5","1","",""
"","html-keyboard-response","367","208662","0.0-367.0","","","","","null","<img src=""img/land4.png"" style=""width:200px; border:14px solid green;"">","null","","","","","","","","","",""
"","image-keyboard-response","368","209061","0.0-368.0","","","","","397.5","img/land4.png","74","399.09999990463257","1","1","1","1","1,0,0,0.25,0.5,0.25,0.25,0.25,0.5","1,0,0,0.25,0.5,0.25,0.25,0.25,0.5","1","",""
"","html-keyboard-response","369","209364","0.0-369.0","","","","","null","<img src=""img/land4.png"" style=""width:200px; border:14px solid green;"">","null","","","","","","","","","",""
"","image-keyboard-response","370","209801","0.0-370.0","","","","","434.40000009536743","img/land4.png","74","435.7999997138977","1","1","1","1","1,0,0,0.25,0.5,0.25,0.25,0.25,0.5","1,0,0,0.25,0.5,0.25,0.25,0.25,0.5","1","",""
"","html-keyboard-response","371","210102","0.0-371.0","","","","","null","<img src=""img/land4.png"" style=""width:200px; border:14px solid green;"">","null","","","","","","","","","",""
"","image-keyboard-response","372","210528","0.0-372.0","","","","","423.7000002861023","img/land4.png","74","425.2000002861023","1","1","1","1","1,0,0,0.25,0.5,0.25,0.25,0.25,0.5","1,0,0,0.25,0.5,0.25,0.25,0.25,0.5","1","",""
"","html-keyboard-response","373","210831","0.0-373.0","","","","","null","<img src=""img/land4.png"" style=""width:200px; border:14px solid green;"">","null","","","","","","","","","",""
"","image-keyboard-response","374","211948","0.0-374.0","","","","","1114.6000003814697","img/land6.png","75","1116.4000000953674","2","0","3","1","1,0,0,0.25,0.5,0.25,0.25,0.25,0.5","1,0,0,0.25,0.5,0.25,0.25,0.25,0.5","1","",""
"","html-keyboard-response","375","212251","0.0-375.0","","","","","null","<img src=""img/land6.png"" style=""width:200px;border:14px solid red;"">","null","","","","","","","","","",""
"","image-keyboard-response","376","212920","0.0-376.0","","","","","666.9000000953674","img/land4.png","74","668.8000001907349","1","1","1","1","1,0,0,0.25,0.5,0.25,0.25,0.25,0.5","1,0,0,0.25,0.5,0.25,0.25,0.25,0.5","1","",""
"","html-keyboard-response","377","213223","0.0-377.0","","","","","null","<img src=""img/land4.png"" style=""width:200px; border:14px solid green;"">","null","","","","","","","","","",""
"","image-keyboard-response","378","213957","0.0-378.0","","","","","732.9000000953674","img/land5.png","76","733.8000001907349","3","0","2","1","1,0,0,0.25,0.5,0.25,0.25,0.25,0.5","1,0,0,0.25,0.5,0.25,0.25,0.25,0.5","1","",""
"","html-keyboard-response","379","214259","0.0-379.0","","","","","null","<img src=""img/land5.png"" style=""width:200px;border:14px solid red;"">","null","","","","","","","","","",""
"","image-keyboard-response","380","215270","0.0-380.0","","","","","1008.9000000953674","img/land4.png","74","1010.4000000953674","1","1","1","1","1,0,0,0.25,0.5,0.25,0.25,0.25,0.5","1,0,0,0.25,0.5,0.25,0.25,0.25,0.5","1","",""
"","html-keyboard-response","381","215573","0.0-381.0","","","","","null","<img src=""img/land4.png"" style=""width:200px; border:14px solid green;"">","null","","","","","","","","","",""
"","image-keyboard-response","382","216352","0.0-382.0","","","","","777.5","img/land5.png","76","778.9000000953674","3","0","2","1","1,0,0,0.25,0.5,0.25,0.25,0.25,0.5","1,0,0,0.25,0.5,0.25,0.25,0.25,0.5","1","",""
"","html-keyboard-response","383","216655","0.0-383.0","","","","","null","<img src=""img/land5.png"" style=""width:200px;border:14px solid red;"">","null","","","","","","","","","",""
"","image-keyboard-response","384","217782","0.0-384.0","","","","","1125.5999999046326","img/land4.png","74","1126.8000001907349","1","1","1","1","1,0,0,0.25,0.5,0.25,0.25,0.25,0.5","1,0,0,0.25,0.5,0.25,0.25,0.25,0.5","1","",""
"","html-keyboard-response","385","218084","0.0-385.0","","","","","null","<img src=""img/land4.png"" style=""width:200px; border:14px solid green;"">","null","","","","","","","","","",""
"","image-keyboard-response","386","218629","0.0-386.0","","","","","542.5","img/land4.png","74","544.3000001907349","1","1","1","1","1,0,0,0.25,0.5,0.25,0.25,0.25,0.5","1,0,0,0.25,0.5,0.25,0.25,0.25,0.5","1","",""
"","html-keyboard-response","387","218932","0.0-387.0","","","","","null","<img src=""img/land4.png"" style=""width:200px; border:14px solid green;"">","null","","","","","","","","","",""
"","image-keyboard-response","388","219715","0.0-388.0","","","","","781.2000002861023","img/land6.png","74","783.0999999046326","1","1","3","1","1,0,0,0.25,0.5,0.25,0.25,0.25,0.5","1,0,0,0.25,0.5,0.25,0.25,0.25,0.5","1","",""
"","html-keyboard-response","389","220018","0.0-389.0","","","","","null","<img src=""img/land6.png"" style=""width:200px; border:14px solid green;"">","null","","","","","","","","","",""
"","image-keyboard-response","390","220600","0.0-390.0","","","","","580.0999999046326","img/land4.png","74","581.6999998092651","1","1","1","1","1,0,0,0.25,0.5,0.25,0.25,0.25,0.5","1,0,0,0.25,0.5,0.25,0.25,0.25,0.5","1","",""
"","html-keyboard-response","391","220903","0.0-391.0","","","","","null","<img src=""img/land4.png"" style=""width:200px; border:14px solid green;"">","null","","","","","","","","","",""
"","image-keyboard-response","392","221605","0.0-392.0","","","","","700.8999996185303","img/land4.png","74","701.7999997138977","1","1","1","1","1,0,0,0.25,0.5,0.25,0.25,0.25,0.5","1,0,0,0.25,0.5,0.25,0.25,0.25,0.5","1","",""
"","html-keyboard-response","393","221908","0.0-393.0","","","","","null","<img src=""img/land4.png"" style=""width:200px; border:14px solid green;"">","null","","","","","","","","","",""
"","image-keyboard-response","394","222527","0.0-394.0","","","","","616.6999998092651","img/land4.png","74","618.4000000953674","1","1","1","1","1,0,0,0.25,0.5,0.25,0.25,0.25,0.5","1,0,0,0.25,0.5,0.25,0.25,0.25,0.5","1","",""
"","html-keyboard-response","395","222829","0.0-395.0","","","","","null","<img src=""img/land4.png"" style=""width:200px; border:14px solid green;"">","null","","","","","","","","","",""
"","image-keyboard-response","396","223168","0.0-396.0","","","","","336.5","img/land4.png","74","338.40000009536743","1","1","1","1","1,0,0,0.25,0.5,0.25,0.25,0.25,0.5","1,0,0,0.25,0.5,0.25,0.25,0.25,0.5","1","",""
"","html-keyboard-response","397","223471","0.0-397.0","","","","","null","<img src=""img/land4.png"" style=""width:200px; border:14px solid green;"">","null","","","","","","","","","",""
"","image-keyboard-response","398","223755","0.0-398.0","","","","","282.40000009536743","img/land4.png","74","284.40000009536743","1","1","1","1","1,0,0,0.25,0.5,0.25,0.25,0.25,0.5","1,0,0,0.25,0.5,0.25,0.25,0.25,0.5","1","",""
"","html-keyboard-response","399","224058","0.0-399.0","","","","","null","<img src=""img/land4.png"" style=""width:200px; border:14px solid green;"">","null","","","","","","","","","",""
"","image-keyboard-response","400","224324","0.0-400.0","","","","","263.1000003814697","img/land4.png","74","264.90000009536743","1","1","1","1","1,0,0,0.25,0.5,0.25,0.25,0.25,0.5","1,0,0,0.25,0.5,0.25,0.25,0.25,0.5","1","",""
"","html-keyboard-response","401","224626","0.0-401.0","","","","","null","<img src=""img/land4.png"" style=""width:200px; border:14px solid green;"">","null","","","","","","","","","",""
"","image-keyboard-response","402","224926","0.0-402.0","","","","","297.5","img/land4.png","74","299.1000003814697","1","1","1","1","1,0,0,0.25,0.5,0.25,0.25,0.25,0.5","1,0,0,0.25,0.5,0.25,0.25,0.25,0.5","1","",""
"","html-keyboard-response","403","225229","0.0-403.0","","","","","null","<img src=""img/land4.png"" style=""width:200px; border:14px solid green;"">","null","","","","","","","","","",""
"","image-keyboard-response","404","225552","0.0-404.0","","","","","322.7999997138977","img/land4.png","74","323.59999990463257","1","1","1","1","1,0,0,0.25,0.5,0.25,0.25,0.25,0.5","1,0,0,0.25,0.5,0.25,0.25,0.25,0.5","1","",""
"","html-keyboard-response","405","225854","0.0-405.0","","","","","null","<img src=""img/land4.png"" style=""width:200px; border:14px solid green;"">","null","","","","","","","","","",""
"","image-keyboard-response","406","226125","0.0-406.0","","","","","267.7999997138977","img/land4.png","74","269.7000002861023","1","1","1","1","1,0,0,0.25,0.5,0.25,0.25,0.25,0.5","1,0,0,0.25,0.5,0.25,0.25,0.25,0.5","1","",""
"","html-keyboard-response","407","226427","0.0-407.0","","","","","null","<img src=""img/land4.png"" style=""width:200px; border:14px solid green;"">","null","","","","","","","","","",""
"","image-keyboard-response","408","226990","0.0-408.0","","","","","560.4000000953674","img/land6.png","74","563.5","1","0","3","1","1,0,0,0.25,0.5,0.25,0.25,0.25,0.5","1,0,0,0.25,0.5,0.25,0.25,0.25,0.5","1","",""
"","html-keyboard-response","409","227293","0.0-409.0","","","","","null","<img src=""img/land6.png"" style=""width:200px;border:14px solid red;"">","null","","","","","","","","","",""
"","image-keyboard-response","410","228110","0.0-410.0","","","","","814.4000000953674","img/land5.png","76","816.6999998092651","3","0","2","1","1,0,0,0.25,0.5,0.25,0.25,0.25,0.5","1,0,0,0.25,0.5,0.25,0.25,0.25,0.5","1","",""
"","html-keyboard-response","411","228414","0.0-411.0","","","","","null","<img src=""img/land5.png"" style=""width:200px;border:14px solid red;"">","null","","","","","","","","","",""
"","image-keyboard-response","412","229337","0.0-412.0","","","","","921.1999998092651","img/land4.png","74","923.1000003814697","1","1","1","1","1,0,0,0.25,0.5,0.25,0.25,0.25,0.5","1,0,0,0.25,0.5,0.25,0.25,0.25,0.5","1","",""
"","html-keyboard-response","413","229641","0.0-413.0","","","","","null","<img src=""img/land4.png"" style=""width:200px; border:14px solid green;"">","null","","","","","","","","","",""
"","image-keyboard-response","414","230807","0.0-414.0","","","","","1164","img/land5.png","76","1165.6999998092651","3","0","2","1","1,0,0,0.25,0.5,0.25,0.25,0.25,0.5","1,0,0,0.25,0.5,0.25,0.25,0.25,0.5","1","",""
"","html-keyboard-response","415","231109","0.0-415.0","","","","","null","<img src=""img/land5.png"" style=""width:200px;border:14px solid red;"">","null","","","","","","","","","",""
"","image-keyboard-response","416","231535","0.0-416.0","","","","","424.09999990463257","img/land5.png","75","425.3999996185303","2","1","2","1","1,0,0,0.25,0.5,0.25,0.25,0.25,0.5","1,0,0,0.25,0.5,0.25,0.25,0.25,0.5","1","",""
"","html-keyboard-response","417","231838","0.0-417.0","","","","","null","<img src=""img/land5.png"" style=""width:200px; border:14px solid green;"">","null","","","","","","","","","",""
"","image-keyboard-response","418","232660","0.0-418.0","","","","","820.8000001907349","img/land4.png","74","822.3000001907349","1","1","1","1","1,0,0,0.25,0.5,0.25,0.25,0.25,0.5","1,0,0,0.25,0.5,0.25,0.25,0.25,0.5","1","",""
"","html-keyboard-response","419","232963","0.0-419.0","","","","","null","<img src=""img/land4.png"" style=""width:200px; border:14px solid green;"">","null","","","","","","","","","",""
"","image-keyboard-response","420","233627","0.0-420.0","","","","","662.5","img/land5.png","75","663.4000000953674","2","0","2","1","1,0,0,0.25,0.5,0.25,0.25,0.25,0.5","1,0,0,0.25,0.5,0.25,0.25,0.25,0.5","1","",""
"","html-keyboard-response","421","233929","0.0-421.0","","","","","null","<img src=""img/land5.png"" style=""width:200px;border:14px solid red;"">","null","","","","","","","","","",""
"","image-keyboard-response","422","234495","0.0-422.0","","","","","563.8000001907349","img/land4.png","74","565.6999998092651","1","1","1","1","1,0,0,0.25,0.5,0.25,0.25,0.25,0.5","1,0,0,0.25,0.5,0.25,0.25,0.25,0.5","1","",""
"","html-keyboard-response","423","234800","0.0-423.0","","","","","null","<img src=""img/land4.png"" style=""width:200px; border:14px solid green;"">","null","","","","","","","","","",""
"","image-keyboard-response","424","235501","0.0-424.0","","","","","698.4000000953674","img/land6.png","74","700.3999996185303","1","1","3","1","1,0,0,0.25,0.5,0.25,0.25,0.25,0.5","1,0,0,0.25,0.5,0.25,0.25,0.25,0.5","1","",""
"","html-keyboard-response","425","235804","0.0-425.0","","","","","null","<img src=""img/land6.png"" style=""width:200px; border:14px solid green;"">","null","","","","","","","","","",""
"","image-keyboard-response","426","236331","0.0-426.0","","","","","524.5","img/land6.png","74","526.1999998092651","1","0","3","1","1,0,0,0.25,0.5,0.25,0.25,0.25,0.5","1,0,0,0.25,0.5,0.25,0.25,0.25,0.5","1","",""
"","html-keyboard-response","427","236633","0.0-427.0","","","","","null","<img src=""img/land6.png"" style=""width:200px;border:14px solid red;"">","null","","","","","","","","","",""
"","image-keyboard-response","428","237215","0.0-428.0","","","","","579.8000001907349","img/land4.png","74","581.0999999046326","1","1","1","1","1,0,0,0.25,0.5,0.25,0.25,0.25,0.5","1,0,0,0.25,0.5,0.25,0.25,0.25,0.5","1","",""
"","html-keyboard-response","429","237517","0.0-429.0","","","","","null","<img src=""img/land4.png"" style=""width:200px; border:14px solid green;"">","null","","","","","","","","","",""
"","image-keyboard-response","430","238072","0.0-430.0","","","","","553.1000003814697","img/land5.png","75","554.9000000953674","2","0","2","1","1,0,0,0.25,0.5,0.25,0.25,0.25,0.5","1,0,0,0.25,0.5,0.25,0.25,0.25,0.5","1","",""
"","html-keyboard-response","431","238375","0.0-431.0","","","","","null","<img src=""img/land5.png"" style=""width:200px;border:14px solid red;"">","null","","","","","","","","","",""
"","image-keyboard-response","432","238656","0.0-432.0","","","","","279.40000009536743","img/land4.png","76","280.40000009536743","3","0","1","1","1,0,0,0.25,0.5,0.25,0.25,0.25,0.5","1,0,0,0.25,0.5,0.25,0.25,0.25,0.5","1","",""
"","html-keyboard-response","433","238958","0.0-433.0","","","","","null","<img src=""img/land4.png"" style=""width:200px;border:14px solid red;"">","null","","","","","","","","","",""
"","image-keyboard-response","434","239431","0.0-434.0","","","","","470.8999996185303","img/land4.png","74","472.69999980926514","1","1","1","1","1,0,0,0.25,0.5,0.25,0.25,0.25,0.5","1,0,0,0.25,0.5,0.25,0.25,0.25,0.5","1","",""
"","html-keyboard-response","435","239733","0.0-435.0","","","","","null","<img src=""img/land4.png"" style=""width:200px; border:14px solid green;"">","null","","","","","","","","","",""
"","image-keyboard-response","436","240705","0.0-436.0","","","","","969.9000000953674","img/land5.png","75","971.4000000953674","2","1","2","1","1,0,0,0.25,0.5,0.25,0.25,0.25,0.5","1,0,0,0.25,0.5,0.25,0.25,0.25,0.5","1","",""
"","html-keyboard-response","437","241008","0.0-437.0","","","","","null","<img src=""img/land5.png"" style=""width:200px; border:14px solid green;"">","null","","","","","","","","","",""
"","image-keyboard-response","438","241743","0.0-438.0","","","","","731.6999998092651","img/land5.png","75","733.5","2","1","2","1","1,0,0,0.25,0.5,0.25,0.25,0.25,0.5","1,0,0,0.25,0.5,0.25,0.25,0.25,0.5","1","",""
"","html-keyboard-response","439","242045","0.0-439.0","","","","","null","<img src=""img/land5.png"" style=""width:200px; border:14px solid green;"">","null","","","","","","","","","",""
"","image-keyboard-response","440","242698","0.0-440.0","","","","","650.5","img/land4.png","74","652.0999999046326","1","1","1","1","1,0,0,0.25,0.5,0.25,0.25,0.25,0.5","1,0,0,0.25,0.5,0.25,0.25,0.25,0.5","1","",""
"","html-keyboard-response","441","243000","0.0-441.0","","","","","null","<img src=""img/land4.png"" style=""width:200px; border:14px solid green;"">","null","","","","","","","","","",""
"","image-keyboard-response","442","243606","0.0-442.0","","","","","604.4000000953674","img/land4.png","74","606.1999998092651","1","1","1","1","1,0,0,0.25,0.5,0.25,0.25,0.25,0.5","1,0,0,0.25,0.5,0.25,0.25,0.25,0.5","1","",""
"","html-keyboard-response","443","243909","0.0-443.0","","","","","null","<img src=""img/land4.png"" style=""width:200px; border:14px solid green;"">","null","","","","","","","","","",""
"","image-keyboard-response","444","244472","0.0-444.0","","","","","561.4000000953674","img/land4.png","74","563","1","1","1","1","1,0,0,0.25,0.5,0.25,0.25,0.25,0.5","1,0,0,0.25,0.5,0.25,0.25,0.25,0.5","1","",""
"","html-keyboard-response","445","244774","0.0-445.0","","","","","null","<img src=""img/land4.png"" style=""width:200px; border:14px solid green;"">","null","","","","","","","","","",""
"","image-keyboard-response","446","245444","0.0-446.0","","","","","668.2000002861023","img/land5.png","75","669.1999998092651","2","0","2","1","1,0,0,0.25,0.5,0.25,0.25,0.25,0.5","1,0,0,0.25,0.5,0.25,0.25,0.25,0.5","1","",""
"","html-keyboard-response","447","245746","0.0-447.0","","","","","null","<img src=""img/land5.png"" style=""width:200px;border:14px solid red;"">","null","","","","","","","","","",""
"","image-keyboard-response","448","246318","0.0-448.0","","","","","570.3999996185303","img/land6.png","74","571.9000000953674","1","0","3","1","1,0,0,0.25,0.5,0.25,0.25,0.25,0.5","1,0,0,0.25,0.5,0.25,0.25,0.25,0.5","1","",""
"","html-keyboard-response","449","246621","0.0-449.0","","","","","null","<img src=""img/land6.png"" style=""width:200px;border:14px solid red;"">","null","","","","","","","","","",""
"","image-keyboard-response","450","247270","0.0-450.0","","","","","646.9000000953674","img/land6.png","74","648.4000000953674","1","0","3","1","1,0,0,0.25,0.5,0.25,0.25,0.25,0.5","1,0,0,0.25,0.5,0.25,0.25,0.25,0.5","1","",""
"","html-keyboard-response","451","247583","0.0-451.0","","","","","null","<img src=""img/land6.png"" style=""width:200px;border:14px solid red;"">","null","","","","","","","","","",""
"","image-keyboard-response","452","248014","0.0-452.0","","","","","429.30000019073486","img/land6.png","75","430.59999990463257","2","0","3","1","1,0,0,0.25,0.5,0.25,0.25,0.25,0.5","1,0,0,0.25,0.5,0.25,0.25,0.25,0.5","1","",""
"","html-keyboard-response","453","248317","0.0-453.0","","","","","null","<img src=""img/land6.png"" style=""width:200px;border:14px solid red;"">","null","","","","","","","","","",""
"","image-keyboard-response","454","248823","0.0-454.0","","","","","503.2000002861023","img/land4.png","76","505.40000009536743","3","0","1","1","1,0,0,0.25,0.5,0.25,0.25,0.25,0.5","1,0,0,0.25,0.5,0.25,0.25,0.25,0.5","1","",""
"","html-keyboard-response","455","249126","0.0-455.0","","","","","null","<img src=""img/land4.png"" style=""width:200px;border:14px solid red;"">","null","","","","","","","","","",""
"","image-keyboard-response","456","250167","0.0-456.0","","","","","1039.1999998092651","img/land5.png","75","1041","2","1","2","1","1,0,0,0.25,0.5,0.25,0.25,0.25,0.5","1,0,0,0.25,0.5,0.25,0.25,0.25,0.5","1","",""
"","html-keyboard-response","457","250470","0.0-457.0","","","","","null","<img src=""img/land5.png"" style=""width:200px; border:14px solid green;"">","null","","","","","","","","","",""
"","image-keyboard-response","458","251326","0.0-458.0","","","","","854.4000000953674","img/land5.png","75","856","2","1","2","1","1,0,0,0.25,0.5,0.25,0.25,0.25,0.5","1,0,0,0.25,0.5,0.25,0.25,0.25,0.5","1","",""
"","html-keyboard-response","459","251629","0.0-459.0","","","","","null","<img src=""img/land5.png"" style=""width:200px; border:14px solid green;"">","null","","","","","","","","","",""
"","image-keyboard-response","460","252753","0.0-460.0","","","","","1123.3000001907349","img/land6.png","74","1124.4000000953674","1","0","3","1","1,0,0,0.25,0.5,0.25,0.25,0.25,0.5","1,0,0,0.25,0.5,0.25,0.25,0.25,0.5","1","",""
"","html-keyboard-response","461","253055","0.0-461.0","","","","","null","<img src=""img/land6.png"" style=""width:200px;border:14px solid red;"">","null","","","","","","","","","",""
"","image-keyboard-response","462","253664","0.0-462.0","","","","","608","img/land4.png","74","609.0999999046326","1","1","1","1","1,0,0,0.25,0.5,0.25,0.25,0.25,0.5","1,0,0,0.25,0.5,0.25,0.25,0.25,0.5","1","",""
"","html-keyboard-response","463","253967","0.0-463.0","","","","","null","<img src=""img/land4.png"" style=""width:200px; border:14px solid green;"">","null","","","","","","","","","",""
"","image-keyboard-response","464","255054","0.0-464.0","","","","","1084.5999999046326","img/land6.png","75","1086.3000001907349","2","0","3","1","1,0,0,0.25,0.5,0.25,0.25,0.25,0.5","1,0,0,0.25,0.5,0.25,0.25,0.25,0.5","1","",""
"","html-keyboard-response","465","255358","0.0-465.0","","","","","null","<img src=""img/land6.png"" style=""width:200px;border:14px solid red;"">","null","","","","","","","","","",""
"","image-keyboard-response","466","256398","0.0-466.0","","","","","1038.8000001907349","img/land5.png","76","1039.6999998092651","3","1","2","1","1,0,0,0.25,0.5,0.25,0.25,0.25,0.5","1,0,0,0.25,0.5,0.25,0.25,0.25,0.5","1","",""
"","html-keyboard-response","467","256700","0.0-467.0","","","","","null","<img src=""img/land5.png"" style=""width:200px; border:14px solid green;"">","null","","","","","","","","","",""
"","image-keyboard-response","468","257645","0.0-468.0","","","","","944.3000001907349","img/land4.png","74","945","1","1","1","1","1,0,0,0.25,0.5,0.25,0.25,0.25,0.5","1,0,0,0.25,0.5,0.25,0.25,0.25,0.5","1","",""
"","html-keyboard-response","469","257947","0.0-469.0","","","","","null","<img src=""img/land4.png"" style=""width:200px; border:14px solid green;"">","null","","","","","","","","","",""
"","image-keyboard-response","470","259000","0.0-470.0","","","","","1052","img/land5.png","76","1052.7999997138977","3","0","2","1","1,0,0,0.25,0.5,0.25,0.25,0.25,0.5","1,0,0,0.25,0.5,0.25,0.25,0.25,0.5","1","",""
"","html-keyboard-response","471","259302","0.0-471.0","","","","","null","<img src=""img/land5.png"" style=""width:200px;border:14px solid red;"">","null","","","","","","","","","",""
"","image-keyboard-response","472","259774","0.0-472.0","","","","","471.40000009536743","img/land4.png","75","472.40000009536743","2","0","1","1","1,0,0,0.25,0.5,0.25,0.25,0.25,0.5","1,0,0,0.25,0.5,0.25,0.25,0.25,0.5","1","",""
"","html-keyboard-response","473","260077","0.0-473.0","","","","","null","<img src=""img/land4.png"" style=""width:200px;border:14px solid red;"">","null","","","","","","","","","",""
"","image-keyboard-response","474","260982","0.0-474.0","","","","","904.4000000953674","img/land5.png","75","905","2","0","2","1","1,0,0,0.25,0.5,0.25,0.25,0.25,0.5","1,0,0,0.25,0.5,0.25,0.25,0.25,0.5","1","",""
"","html-keyboard-response","475","261284","0.0-475.0","","","","","null","<img src=""img/land5.png"" style=""width:200px;border:14px solid red;"">","null","","","","","","","","","",""
"","image-keyboard-response","476","262099","0.0-476.0","","","","","813.9000000953674","img/land4.png","74","814.5999999046326","1","1","1","1","1,0,0,0.25,0.5,0.25,0.25,0.25,0.5","1,0,0,0.25,0.5,0.25,0.25,0.25,0.5","1","",""
"","html-keyboard-response","477","262401","0.0-477.0","","","","","null","<img src=""img/land4.png"" style=""width:200px; border:14px solid green;"">","null","","","","","","","","","",""
"","image-keyboard-response","478","263484","0.0-478.0","","","","","1080","img/land6.png","74","1081.7000002861023","1","0","3","1","1,0,0,0.25,0.5,0.25,0.25,0.25,0.5","1,0,0,0.25,0.5,0.25,0.25,0.25,0.5","1","",""
"","html-keyboard-response","479","263786","0.0-479.0","","","","","null","<img src=""img/land6.png"" style=""width:200px;border:14px solid red;"">","null","","","","","","","","","",""
"","image-keyboard-response","480","264911","0.0-480.0","","","","","1124","img/land5.png","76","1125","3","1","2","1","1,0,0,0.25,0.5,0.25,0.25,0.25,0.5","1,0,0,0.25,0.5,0.25,0.25,0.25,0.5","1","",""
"","html-keyboard-response","481","265214","0.0-481.0","","","","","null","<img src=""img/land5.png"" style=""width:200px; border:14px solid green;"">","null","","","","","","","","","",""
"","html-keyboard-response","482","273136","0.0-482.0","","","","","","","","","","","","","","","","",""
"","instructions","483","279817","0.0-483.0","","","","[{""page_index"":0,""viewing_time"":6678.89999961853}]","6679.299999713898","","","","","","","","","","","",""
"","survey-text","484","284345","0.0-484.0-0.0","","","","","4522.400000095367","","","","","","","","","","","{""Q0"":""56""}",""
"","survey-multi-choice","485","287889","0.0-484.0-1.0","","","","","3542.699999809265","","","","","","","","","","","{""gender"":""M""}","[0]"
"","survey-text","486","298729","0.0-485.0","","","","","10837","","","","","","","","","","","{""Q0"":""AUZNL6ARA1UEC""}",""
