"success","trial_type","trial_index","time_elapsed","internal_node_id","assignmentID","mturkID","hitID","view_history","rt","stimulus","key_press","reactionTime","a","r","s","cond","reward_cond","reward_cond_actual","reward_matrix_idx","responses","question_order"
"true","fullscreen","0","2668","0.0-0.0","3RJSC4XJ11GA9Y3CVLAU6NL2K6Y50B","AVKMFV9CZ0MLR","3L1EFR8WWTRIL5MKAR1UWRHK4IC9FJ","","","","","","","","","","","","","",""
"","instructions","1","44214","0.0-1.0","3RJSC4XJ11GA9Y3CVLAU6NL2K6Y50B","AVKMFV9CZ0MLR","3L1EFR8WWTRIL5MKAR1UWRHK4IC9FJ","[{""page_index"":0,""viewing_time"":1823.4000000953674},{""page_index"":1,""viewing_time"":1391.2999999523163},{""page_index"":2,""viewing_time"":2064.100000023842},{""page_index"":3,""viewing_time"":7562.899999976158},{""page_index"":4,""viewing_time"":4601.700000047684},{""page_index"":5,""viewing_time"":17187.5},{""page_index"":6,""viewing_time"":6913.5}]","41545.10000002384","","","","","","","","","","","",""
"","image-keyboard-response","2","46216","0.0-2.0","3RJSC4XJ11GA9Y3CVLAU6NL2K6Y50B","AVKMFV9CZ0MLR","3L1EFR8WWTRIL5MKAR1UWRHK4IC9FJ","","","img/land3.png","","2002","-1","0","2","2","0.8,0.2,0.2,0.2,0.8,0.2,0.2,0.2,0.8","0.2,0.8,0.2,0.2,0.2,0.8,0.8,0.2,0.2","3","",""
"","html-keyboard-response","3","46520","0.0-3.0","3RJSC4XJ11GA9Y3CVLAU6NL2K6Y50B","AVKMFV9CZ0MLR","3L1EFR8WWTRIL5MKAR1UWRHK4IC9FJ","","null","<img src=""img/land3.png"" style=""width:200px;border:14px solid red;"">","null","","","","","","","","","",""
"","image-keyboard-response","4","46523","0.0-4.0","3RJSC4XJ11GA9Y3CVLAU6NL2K6Y50B","AVKMFV9CZ0MLR","3L1EFR8WWTRIL5MKAR1UWRHK4IC9FJ","","2.600000023841858","img/land4.png","74","3.600000023841858","1","0","1","2","0.8,0.2,0.2,0.2,0.8,0.2,0.2,0.2,0.8","0.2,0.8,0.2,0.2,0.2,0.8,0.8,0.2,0.2","3","",""
"","html-keyboard-response","5","46825","0.0-5.0","3RJSC4XJ11GA9Y3CVLAU6NL2K6Y50B","AVKMFV9CZ0MLR","3L1EFR8WWTRIL5MKAR1UWRHK4IC9FJ","","null","<img src=""img/land4.png"" style=""width:200px;border:14px solid red;"">","null","","","","","","","","","",""
"","image-keyboard-response","6","47772","0.0-6.0","3RJSC4XJ11GA9Y3CVLAU6NL2K6Y50B","AVKMFV9CZ0MLR","3L1EFR8WWTRIL5MKAR1UWRHK4IC9FJ","","945.2999999523163","img/land4.png","76","946.8000000715256","3","0","1","2","0.8,0.2,0.2,0.2,0.8,0.2,0.2,0.2,0.8","0.2,0.8,0.2,0.2,0.2,0.8,0.8,0.2,0.2","3","",""
"","html-keyboard-response","7","48075","0.0-7.0","3RJSC4XJ11GA9Y3CVLAU6NL2K6Y50B","AVKMFV9CZ0MLR","3L1EFR8WWTRIL5MKAR1UWRHK4IC9FJ","","null","<img src=""img/land4.png"" style=""width:200px;border:14px solid red;"">","null","","","","","","","","","",""
"","image-keyboard-response","8","50077","0.0-8.0","3RJSC4XJ11GA9Y3CVLAU6NL2K6Y50B","AVKMFV9CZ0MLR","3L1EFR8WWTRIL5MKAR1UWRHK4IC9FJ","","","img/land4.png","","2002","-1","0","1","2","0.8,0.2,0.2,0.2,0.8,0.2,0.2,0.2,0.8","0.2,0.8,0.2,0.2,0.2,0.8,0.8,0.2,0.2","3","",""
"","html-keyboard-response","9","50378","0.0-9.0","3RJSC4XJ11GA9Y3CVLAU6NL2K6Y50B","AVKMFV9CZ0MLR","3L1EFR8WWTRIL5MKAR1UWRHK4IC9FJ","","null","<img src=""img/land4.png"" style=""width:200px;border:14px solid red;"">","null","","","","","","","","","",""
"","image-keyboard-response","10","51718","0.0-10.0","3RJSC4XJ11GA9Y3CVLAU6NL2K6Y50B","AVKMFV9CZ0MLR","3L1EFR8WWTRIL5MKAR1UWRHK4IC9FJ","","1338.3999999761581","img/land5.png","75","1339.7000000476837","2","1","3","2","0.8,0.2,0.2,0.2,0.8,0.2,0.2,0.2,0.8","0.2,0.8,0.2,0.2,0.2,0.8,0.8,0.2,0.2","3","",""
"","html-keyboard-response","11","52020","0.0-11.0","3RJSC4XJ11GA9Y3CVLAU6NL2K6Y50B","AVKMFV9CZ0MLR","3L1EFR8WWTRIL5MKAR1UWRHK4IC9FJ","","null","<img src=""img/land5.png"" style=""width:200px; border:14px solid green;"">","null","","","","","","","","","",""
"","image-keyboard-response","12","52842","0.0-12.0","3RJSC4XJ11GA9Y3CVLAU6NL2K6Y50B","AVKMFV9CZ0MLR","3L1EFR8WWTRIL5MKAR1UWRHK4IC9FJ","","821","img/land4.png","76","822.1000000238419","3","0","1","2","0.8,0.2,0.2,0.2,0.8,0.2,0.2,0.2,0.8","0.2,0.8,0.2,0.2,0.2,0.8,0.8,0.2,0.2","3","",""
"","html-keyboard-response","13","53144","0.0-13.0","3RJSC4XJ11GA9Y3CVLAU6NL2K6Y50B","AVKMFV9CZ0MLR","3L1EFR8WWTRIL5MKAR1UWRHK4IC9FJ","","null","<img src=""img/land4.png"" style=""width:200px;border:14px solid red;"">","null","","","","","","","","","",""
"","image-keyboard-response","14","53867","0.0-14.0","3RJSC4XJ11GA9Y3CVLAU6NL2K6Y50B","AVKMFV9CZ0MLR","3L1EFR8WWTRIL5MKAR1UWRHK4IC9FJ","","720.8000000715256","img/land3.png","74","722.0999999046326","1","0","2","2","0.8,0.2,0.2,0.2,0.8,0.2,0.2,0.2,0.8","0.2,0.8,0.2,0.2,0.2,0.8,0.8,0.2,0.2","3","",""
"","html-keyboard-response","15","54168","0.0-15.0","3RJSC4XJ11GA9Y3CVLAU6NL2K6Y50B","AVKMFV9CZ0MLR","3L1EFR8WWTRIL5MKAR1UWRHK4IC9FJ","","null","<img src=""img/land3.png"" style=""width:200px;border:14px solid red;"">","null","","","","","","","","","",""
"","image-keyboard-response","16","54956","0.0-16.0","3RJSC4XJ11GA9Y3CVLAU6NL2K6Y50B","AVKMFV9CZ0MLR","3L1EFR8WWTRIL5MKAR1UWRHK4IC9FJ","","786.3999999761581","img/land4.png","76","787.7999999523163","3","0","1","2","0.8,0.2,0.2,0.2,0.8,0.2,0.2,0.2,0.8","0.2,0.8,0.2,0.2,0.2,0.8,0.8,0.2,0.2","3","",""
"","html-keyboard-response","17","55258","0.0-17.0","3RJSC4XJ11GA9Y3CVLAU6NL2K6Y50B","AVKMFV9CZ0MLR","3L1EFR8WWTRIL5MKAR1UWRHK4IC9FJ","","null","<img src=""img/land4.png"" style=""width:200px;border:14px solid red;"">","null","","","","","","","","","",""
"","image-keyboard-response","18","57261","0.0-18.0","3RJSC4XJ11GA9Y3CVLAU6NL2K6Y50B","AVKMFV9CZ0MLR","3L1EFR8WWTRIL5MKAR1UWRHK4IC9FJ","","","img/land4.png","","2002.6000000238419","-1","0","1","2","0.8,0.2,0.2,0.2,0.8,0.2,0.2,0.2,0.8","0.2,0.8,0.2,0.2,0.2,0.8,0.8,0.2,0.2","3","",""
"","html-keyboard-response","19","57564","0.0-19.0","3RJSC4XJ11GA9Y3CVLAU6NL2K6Y50B","AVKMFV9CZ0MLR","3L1EFR8WWTRIL5MKAR1UWRHK4IC9FJ","","null","<img src=""img/land4.png"" style=""width:200px;border:14px solid red;"">","null","","","","","","","","","",""
"","image-keyboard-response","20","58039","0.0-20.0","3RJSC4XJ11GA9Y3CVLAU6NL2K6Y50B","AVKMFV9CZ0MLR","3L1EFR8WWTRIL5MKAR1UWRHK4IC9FJ","","473.2999999523163","img/land4.png","76","474.60000002384186","3","0","1","2","0.8,0.2,0.2,0.2,0.8,0.2,0.2,0.2,0.8","0.2,0.8,0.2,0.2,0.2,0.8,0.8,0.2,0.2","3","",""
"","html-keyboard-response","21","58342","0.0-21.0","3RJSC4XJ11GA9Y3CVLAU6NL2K6Y50B","AVKMFV9CZ0MLR","3L1EFR8WWTRIL5MKAR1UWRHK4IC9FJ","","null","<img src=""img/land4.png"" style=""width:200px;border:14px solid red;"">","null","","","","","","","","","",""
"","image-keyboard-response","22","59213","0.0-22.0","3RJSC4XJ11GA9Y3CVLAU6NL2K6Y50B","AVKMFV9CZ0MLR","3L1EFR8WWTRIL5MKAR1UWRHK4IC9FJ","","868.8999999761581","img/land5.png","75","870.1000000238419","2","0","3","2","0.8,0.2,0.2,0.2,0.8,0.2,0.2,0.2,0.8","0.2,0.8,0.2,0.2,0.2,0.8,0.8,0.2,0.2","3","",""
"","html-keyboard-response","23","59515","0.0-23.0","3RJSC4XJ11GA9Y3CVLAU6NL2K6Y50B","AVKMFV9CZ0MLR","3L1EFR8WWTRIL5MKAR1UWRHK4IC9FJ","","null","<img src=""img/land5.png"" style=""width:200px;border:14px solid red;"">","null","","","","","","","","","",""
"","image-keyboard-response","24","60193","0.0-24.0","3RJSC4XJ11GA9Y3CVLAU6NL2K6Y50B","AVKMFV9CZ0MLR","3L1EFR8WWTRIL5MKAR1UWRHK4IC9FJ","","676.4000000953674","img/land3.png","74","677.6999999284744","1","0","2","2","0.8,0.2,0.2,0.2,0.8,0.2,0.2,0.2,0.8","0.2,0.8,0.2,0.2,0.2,0.8,0.8,0.2,0.2","3","",""
"","html-keyboard-response","25","60494","0.0-25.0","3RJSC4XJ11GA9Y3CVLAU6NL2K6Y50B","AVKMFV9CZ0MLR","3L1EFR8WWTRIL5MKAR1UWRHK4IC9FJ","","null","<img src=""img/land3.png"" style=""width:200px;border:14px solid red;"">","null","","","","","","","","","",""
"","image-keyboard-response","26","61426","0.0-26.0","3RJSC4XJ11GA9Y3CVLAU6NL2K6Y50B","AVKMFV9CZ0MLR","3L1EFR8WWTRIL5MKAR1UWRHK4IC9FJ","","930.5","img/land4.png","76","931.5999999046326","3","0","1","2","0.8,0.2,0.2,0.2,0.8,0.2,0.2,0.2,0.8","0.2,0.8,0.2,0.2,0.2,0.8,0.8,0.2,0.2","3","",""
"","html-keyboard-response","27","61728","0.0-27.0","3RJSC4XJ11GA9Y3CVLAU6NL2K6Y50B","AVKMFV9CZ0MLR","3L1EFR8WWTRIL5MKAR1UWRHK4IC9FJ","","null","<img src=""img/land4.png"" style=""width:200px;border:14px solid red;"">","null","","","","","","","","","",""
"","image-keyboard-response","28","63730","0.0-28.0","3RJSC4XJ11GA9Y3CVLAU6NL2K6Y50B","AVKMFV9CZ0MLR","3L1EFR8WWTRIL5MKAR1UWRHK4IC9FJ","","","img/land4.png","","2002.3999999761581","-1","0","1","2","0.8,0.2,0.2,0.2,0.8,0.2,0.2,0.2,0.8","0.2,0.8,0.2,0.2,0.2,0.8,0.8,0.2,0.2","3","",""
"","html-keyboard-response","29","64032","0.0-29.0","3RJSC4XJ11GA9Y3CVLAU6NL2K6Y50B","AVKMFV9CZ0MLR","3L1EFR8WWTRIL5MKAR1UWRHK4IC9FJ","","null","<img src=""img/land4.png"" style=""width:200px;border:14px solid red;"">","null","","","","","","","","","",""
"","image-keyboard-response","30","64844","0.0-30.0","3RJSC4XJ11GA9Y3CVLAU6NL2K6Y50B","AVKMFV9CZ0MLR","3L1EFR8WWTRIL5MKAR1UWRHK4IC9FJ","","810.3999999761581","img/land5.png","75","811.3999999761581","2","0","3","2","0.8,0.2,0.2,0.2,0.8,0.2,0.2,0.2,0.8","0.2,0.8,0.2,0.2,0.2,0.8,0.8,0.2,0.2","3","",""
"","html-keyboard-response","31","65146","0.0-31.0","3RJSC4XJ11GA9Y3CVLAU6NL2K6Y50B","AVKMFV9CZ0MLR","3L1EFR8WWTRIL5MKAR1UWRHK4IC9FJ","","null","<img src=""img/land5.png"" style=""width:200px;border:14px solid red;"">","null","","","","","","","","","",""
"","image-keyboard-response","32","66183","0.0-32.0","3RJSC4XJ11GA9Y3CVLAU6NL2K6Y50B","AVKMFV9CZ0MLR","3L1EFR8WWTRIL5MKAR1UWRHK4IC9FJ","","1035.2000000476837","img/land4.png","76","1036.1999999284744","3","1","1","2","0.8,0.2,0.2,0.2,0.8,0.2,0.2,0.2,0.8","0.2,0.8,0.2,0.2,0.2,0.8,0.8,0.2,0.2","3","",""
"","html-keyboard-response","33","66485","0.0-33.0","3RJSC4XJ11GA9Y3CVLAU6NL2K6Y50B","AVKMFV9CZ0MLR","3L1EFR8WWTRIL5MKAR1UWRHK4IC9FJ","","null","<img src=""img/land4.png"" style=""width:200px; border:14px solid green;"">","null","","","","","","","","","",""
"","image-keyboard-response","34","67331","0.0-34.0","3RJSC4XJ11GA9Y3CVLAU6NL2K6Y50B","AVKMFV9CZ0MLR","3L1EFR8WWTRIL5MKAR1UWRHK4IC9FJ","","845.3000000715256","img/land5.png","75","846.5","2","0","3","2","0.8,0.2,0.2,0.2,0.8,0.2,0.2,0.2,0.8","0.2,0.8,0.2,0.2,0.2,0.8,0.8,0.2,0.2","3","",""
"","html-keyboard-response","35","67634","0.0-35.0","3RJSC4XJ11GA9Y3CVLAU6NL2K6Y50B","AVKMFV9CZ0MLR","3L1EFR8WWTRIL5MKAR1UWRHK4IC9FJ","","null","<img src=""img/land5.png"" style=""width:200px;border:14px solid red;"">","null","","","","","","","","","",""
"","image-keyboard-response","36","69636","0.0-36.0","3RJSC4XJ11GA9Y3CVLAU6NL2K6Y50B","AVKMFV9CZ0MLR","3L1EFR8WWTRIL5MKAR1UWRHK4IC9FJ","","","img/land5.png","","2001.6000000238419","-1","0","3","2","0.8,0.2,0.2,0.2,0.8,0.2,0.2,0.2,0.8","0.2,0.8,0.2,0.2,0.2,0.8,0.8,0.2,0.2","3","",""
"","html-keyboard-response","37","69937","0.0-37.0","3RJSC4XJ11GA9Y3CVLAU6NL2K6Y50B","AVKMFV9CZ0MLR","3L1EFR8WWTRIL5MKAR1UWRHK4IC9FJ","","null","<img src=""img/land5.png"" style=""width:200px;border:14px solid red;"">","null","","","","","","","","","",""
"","image-keyboard-response","38","70644","0.0-38.0","3RJSC4XJ11GA9Y3CVLAU6NL2K6Y50B","AVKMFV9CZ0MLR","3L1EFR8WWTRIL5MKAR1UWRHK4IC9FJ","","705.4000000953674","img/land4.png","76","706.5","3","1","1","2","0.8,0.2,0.2,0.2,0.8,0.2,0.2,0.2,0.8","0.2,0.8,0.2,0.2,0.2,0.8,0.8,0.2,0.2","3","",""
"","html-keyboard-response","39","70946","0.0-39.0","3RJSC4XJ11GA9Y3CVLAU6NL2K6Y50B","AVKMFV9CZ0MLR","3L1EFR8WWTRIL5MKAR1UWRHK4IC9FJ","","null","<img src=""img/land4.png"" style=""width:200px; border:14px solid green;"">","null","","","","","","","","","",""
"","image-keyboard-response","40","71863","0.0-40.0","3RJSC4XJ11GA9Y3CVLAU6NL2K6Y50B","AVKMFV9CZ0MLR","3L1EFR8WWTRIL5MKAR1UWRHK4IC9FJ","","915.7000000476837","img/land5.png","75","916.8999999761581","2","0","3","2","0.8,0.2,0.2,0.2,0.8,0.2,0.2,0.2,0.8","0.2,0.8,0.2,0.2,0.2,0.8,0.8,0.2,0.2","3","",""
"","html-keyboard-response","41","72165","0.0-41.0","3RJSC4XJ11GA9Y3CVLAU6NL2K6Y50B","AVKMFV9CZ0MLR","3L1EFR8WWTRIL5MKAR1UWRHK4IC9FJ","","null","<img src=""img/land5.png"" style=""width:200px;border:14px solid red;"">","null","","","","","","","","","",""
"","image-keyboard-response","42","74167","0.0-42.0","3RJSC4XJ11GA9Y3CVLAU6NL2K6Y50B","AVKMFV9CZ0MLR","3L1EFR8WWTRIL5MKAR1UWRHK4IC9FJ","","","img/land4.png","","2002","-1","0","1","2","0.8,0.2,0.2,0.2,0.8,0.2,0.2,0.2,0.8","0.2,0.8,0.2,0.2,0.2,0.8,0.8,0.2,0.2","3","",""
"","html-keyboard-response","43","74470","0.0-43.0","3RJSC4XJ11GA9Y3CVLAU6NL2K6Y50B","AVKMFV9CZ0MLR","3L1EFR8WWTRIL5MKAR1UWRHK4IC9FJ","","null","<img src=""img/land4.png"" style=""width:200px;border:14px solid red;"">","null","","","","","","","","","",""
"","image-keyboard-response","44","75380","0.0-44.0","3RJSC4XJ11GA9Y3CVLAU6NL2K6Y50B","AVKMFV9CZ0MLR","3L1EFR8WWTRIL5MKAR1UWRHK4IC9FJ","","907.8999999761581","img/land5.png","75","908.8999999761581","2","0","3","2","0.8,0.2,0.2,0.2,0.8,0.2,0.2,0.2,0.8","0.2,0.8,0.2,0.2,0.2,0.8,0.8,0.2,0.2","3","",""
"","html-keyboard-response","45","75682","0.0-45.0","3RJSC4XJ11GA9Y3CVLAU6NL2K6Y50B","AVKMFV9CZ0MLR","3L1EFR8WWTRIL5MKAR1UWRHK4IC9FJ","","null","<img src=""img/land5.png"" style=""width:200px;border:14px solid red;"">","null","","","","","","","","","",""
"","image-keyboard-response","46","76349","0.0-46.0","3RJSC4XJ11GA9Y3CVLAU6NL2K6Y50B","AVKMFV9CZ0MLR","3L1EFR8WWTRIL5MKAR1UWRHK4IC9FJ","","665.9000000953674","img/land4.png","76","667.2000000476837","3","0","1","2","0.8,0.2,0.2,0.2,0.8,0.2,0.2,0.2,0.8","0.2,0.8,0.2,0.2,0.2,0.8,0.8,0.2,0.2","3","",""
"","html-keyboard-response","47","76653","0.0-47.0","3RJSC4XJ11GA9Y3CVLAU6NL2K6Y50B","AVKMFV9CZ0MLR","3L1EFR8WWTRIL5MKAR1UWRHK4IC9FJ","","null","<img src=""img/land4.png"" style=""width:200px;border:14px solid red;"">","null","","","","","","","","","",""
"","image-keyboard-response","48","78655","0.0-48.0","3RJSC4XJ11GA9Y3CVLAU6NL2K6Y50B","AVKMFV9CZ0MLR","3L1EFR8WWTRIL5MKAR1UWRHK4IC9FJ","","","img/land4.png","","2002.3000000715256","-1","0","1","2","0.8,0.2,0.2,0.2,0.8,0.2,0.2,0.2,0.8","0.2,0.8,0.2,0.2,0.2,0.8,0.8,0.2,0.2","3","",""
"","html-keyboard-response","49","78957","0.0-49.0","3RJSC4XJ11GA9Y3CVLAU6NL2K6Y50B","AVKMFV9CZ0MLR","3L1EFR8WWTRIL5MKAR1UWRHK4IC9FJ","","null","<img src=""img/land4.png"" style=""width:200px;border:14px solid red;"">","null","","","","","","","","","",""
"","image-keyboard-response","50","79602","0.0-50.0","3RJSC4XJ11GA9Y3CVLAU6NL2K6Y50B","AVKMFV9CZ0MLR","3L1EFR8WWTRIL5MKAR1UWRHK4IC9FJ","","643.6000000238419","img/land4.png","76","644.8000000715256","3","0","1","2","0.8,0.2,0.2,0.2,0.8,0.2,0.2,0.2,0.8","0.2,0.8,0.2,0.2,0.2,0.8,0.8,0.2,0.2","3","",""
"","html-keyboard-response","51","79904","0.0-51.0","3RJSC4XJ11GA9Y3CVLAU6NL2K6Y50B","AVKMFV9CZ0MLR","3L1EFR8WWTRIL5MKAR1UWRHK4IC9FJ","","null","<img src=""img/land4.png"" style=""width:200px;border:14px solid red;"">","null","","","","","","","","","",""
"","image-keyboard-response","52","81906","0.0-52.0","3RJSC4XJ11GA9Y3CVLAU6NL2K6Y50B","AVKMFV9CZ0MLR","3L1EFR8WWTRIL5MKAR1UWRHK4IC9FJ","","","img/land4.png","","2002","-1","0","1","2","0.8,0.2,0.2,0.2,0.8,0.2,0.2,0.2,0.8","0.2,0.8,0.2,0.2,0.2,0.8,0.8,0.2,0.2","3","",""
"","html-keyboard-response","53","82209","0.0-53.0","3RJSC4XJ11GA9Y3CVLAU6NL2K6Y50B","AVKMFV9CZ0MLR","3L1EFR8WWTRIL5MKAR1UWRHK4IC9FJ","","null","<img src=""img/land4.png"" style=""width:200px;border:14px solid red;"">","null","","","","","","","","","",""
"","image-keyboard-response","54","82885","0.0-54.0","3RJSC4XJ11GA9Y3CVLAU6NL2K6Y50B","AVKMFV9CZ0MLR","3L1EFR8WWTRIL5MKAR1UWRHK4IC9FJ","","674.6000000238419","img/land3.png","74","675.8000000715256","1","0","2","2","0.8,0.2,0.2,0.2,0.8,0.2,0.2,0.2,0.8","0.2,0.8,0.2,0.2,0.2,0.8,0.8,0.2,0.2","3","",""
"","html-keyboard-response","55","83187","0.0-55.0","3RJSC4XJ11GA9Y3CVLAU6NL2K6Y50B","AVKMFV9CZ0MLR","3L1EFR8WWTRIL5MKAR1UWRHK4IC9FJ","","null","<img src=""img/land3.png"" style=""width:200px;border:14px solid red;"">","null","","","","","","","","","",""
"","image-keyboard-response","56","84517","0.0-56.0","3RJSC4XJ11GA9Y3CVLAU6NL2K6Y50B","AVKMFV9CZ0MLR","3L1EFR8WWTRIL5MKAR1UWRHK4IC9FJ","","1329.3999999761581","img/land4.png","76","1330.3999999761581","3","0","1","2","0.8,0.2,0.2,0.2,0.8,0.2,0.2,0.2,0.8","0.2,0.8,0.2,0.2,0.2,0.8,0.8,0.2,0.2","3","",""
"","html-keyboard-response","57","84819","0.0-57.0","3RJSC4XJ11GA9Y3CVLAU6NL2K6Y50B","AVKMFV9CZ0MLR","3L1EFR8WWTRIL5MKAR1UWRHK4IC9FJ","","null","<img src=""img/land4.png"" style=""width:200px;border:14px solid red;"">","null","","","","","","","","","",""
"","image-keyboard-response","58","85646","0.0-58.0","3RJSC4XJ11GA9Y3CVLAU6NL2K6Y50B","AVKMFV9CZ0MLR","3L1EFR8WWTRIL5MKAR1UWRHK4IC9FJ","","825.7000000476837","img/land5.png","75","826.7999999523163","2","0","3","2","0.8,0.2,0.2,0.2,0.8,0.2,0.2,0.2,0.8","0.2,0.8,0.2,0.2,0.2,0.8,0.8,0.2,0.2","3","",""
"","html-keyboard-response","59","85948","0.0-59.0","3RJSC4XJ11GA9Y3CVLAU6NL2K6Y50B","AVKMFV9CZ0MLR","3L1EFR8WWTRIL5MKAR1UWRHK4IC9FJ","","null","<img src=""img/land5.png"" style=""width:200px;border:14px solid red;"">","null","","","","","","","","","",""
"","image-keyboard-response","60","86889","0.0-60.0","3RJSC4XJ11GA9Y3CVLAU6NL2K6Y50B","AVKMFV9CZ0MLR","3L1EFR8WWTRIL5MKAR1UWRHK4IC9FJ","","939.6000000238419","img/land3.png","74","940.7999999523163","1","1","2","2","0.8,0.2,0.2,0.2,0.8,0.2,0.2,0.2,0.8","0.2,0.8,0.2,0.2,0.2,0.8,0.8,0.2,0.2","3","",""
"","html-keyboard-response","61","87191","0.0-61.0","3RJSC4XJ11GA9Y3CVLAU6NL2K6Y50B","AVKMFV9CZ0MLR","3L1EFR8WWTRIL5MKAR1UWRHK4IC9FJ","","null","<img src=""img/land3.png"" style=""width:200px; border:14px solid green;"">","null","","","","","","","","","",""
"","image-keyboard-response","62","87925","0.0-62.0","3RJSC4XJ11GA9Y3CVLAU6NL2K6Y50B","AVKMFV9CZ0MLR","3L1EFR8WWTRIL5MKAR1UWRHK4IC9FJ","","732.8999999761581","img/land4.png","76","733.9000000953674","3","0","1","2","0.8,0.2,0.2,0.2,0.8,0.2,0.2,0.2,0.8","0.2,0.8,0.2,0.2,0.2,0.8,0.8,0.2,0.2","3","",""
"","html-keyboard-response","63","88227","0.0-63.0","3RJSC4XJ11GA9Y3CVLAU6NL2K6Y50B","AVKMFV9CZ0MLR","3L1EFR8WWTRIL5MKAR1UWRHK4IC9FJ","","null","<img src=""img/land4.png"" style=""width:200px;border:14px solid red;"">","null","","","","","","","","","",""
"","image-keyboard-response","64","90233","0.0-64.0","3RJSC4XJ11GA9Y3CVLAU6NL2K6Y50B","AVKMFV9CZ0MLR","3L1EFR8WWTRIL5MKAR1UWRHK4IC9FJ","","","img/land4.png","","2005.2000000476837","-1","0","1","2","0.8,0.2,0.2,0.2,0.8,0.2,0.2,0.2,0.8","0.2,0.8,0.2,0.2,0.2,0.8,0.8,0.2,0.2","3","",""
"","html-keyboard-response","65","90535","0.0-65.0","3RJSC4XJ11GA9Y3CVLAU6NL2K6Y50B","AVKMFV9CZ0MLR","3L1EFR8WWTRIL5MKAR1UWRHK4IC9FJ","","null","<img src=""img/land4.png"" style=""width:200px;border:14px solid red;"">","null","","","","","","","","","",""
"","image-keyboard-response","66","90867","0.0-66.0","3RJSC4XJ11GA9Y3CVLAU6NL2K6Y50B","AVKMFV9CZ0MLR","3L1EFR8WWTRIL5MKAR1UWRHK4IC9FJ","","330.60000002384186","img/land4.png","76","331.6999999284744","3","0","1","2","0.8,0.2,0.2,0.2,0.8,0.2,0.2,0.2,0.8","0.2,0.8,0.2,0.2,0.2,0.8,0.8,0.2,0.2","3","",""
"","html-keyboard-response","67","91169","0.0-67.0","3RJSC4XJ11GA9Y3CVLAU6NL2K6Y50B","AVKMFV9CZ0MLR","3L1EFR8WWTRIL5MKAR1UWRHK4IC9FJ","","null","<img src=""img/land4.png"" style=""width:200px;border:14px solid red;"">","null","","","","","","","","","",""
"","image-keyboard-response","68","93170","0.0-68.0","3RJSC4XJ11GA9Y3CVLAU6NL2K6Y50B","AVKMFV9CZ0MLR","3L1EFR8WWTRIL5MKAR1UWRHK4IC9FJ","","","img/land4.png","","2001.6000000238419","-1","0","1","2","0.8,0.2,0.2,0.2,0.8,0.2,0.2,0.2,0.8","0.2,0.8,0.2,0.2,0.2,0.8,0.8,0.2,0.2","3","",""
"","html-keyboard-response","69","93473","0.0-69.0","3RJSC4XJ11GA9Y3CVLAU6NL2K6Y50B","AVKMFV9CZ0MLR","3L1EFR8WWTRIL5MKAR1UWRHK4IC9FJ","","null","<img src=""img/land4.png"" style=""width:200px;border:14px solid red;"">","null","","","","","","","","","",""
"","image-keyboard-response","70","95475","0.0-70.0","3RJSC4XJ11GA9Y3CVLAU6NL2K6Y50B","AVKMFV9CZ0MLR","3L1EFR8WWTRIL5MKAR1UWRHK4IC9FJ","","","img/land4.png","","2001.7000000476837","-1","0","1","2","0.8,0.2,0.2,0.2,0.8,0.2,0.2,0.2,0.8","0.2,0.8,0.2,0.2,0.2,0.8,0.8,0.2,0.2","3","",""
"","html-keyboard-response","71","95777","0.0-71.0","3RJSC4XJ11GA9Y3CVLAU6NL2K6Y50B","AVKMFV9CZ0MLR","3L1EFR8WWTRIL5MKAR1UWRHK4IC9FJ","","null","<img src=""img/land4.png"" style=""width:200px;border:14px solid red;"">","null","","","","","","","","","",""
"","image-keyboard-response","72","96443","0.0-72.0","3RJSC4XJ11GA9Y3CVLAU6NL2K6Y50B","AVKMFV9CZ0MLR","3L1EFR8WWTRIL5MKAR1UWRHK4IC9FJ","","663.7999999523163","img/land3.png","74","664.9000000953674","1","1","2","2","0.8,0.2,0.2,0.2,0.8,0.2,0.2,0.2,0.8","0.2,0.8,0.2,0.2,0.2,0.8,0.8,0.2,0.2","3","",""
"","html-keyboard-response","73","96745","0.0-73.0","3RJSC4XJ11GA9Y3CVLAU6NL2K6Y50B","AVKMFV9CZ0MLR","3L1EFR8WWTRIL5MKAR1UWRHK4IC9FJ","","null","<img src=""img/land3.png"" style=""width:200px; border:14px solid green;"">","null","","","","","","","","","",""
"","image-keyboard-response","74","97712","0.0-74.0","3RJSC4XJ11GA9Y3CVLAU6NL2K6Y50B","AVKMFV9CZ0MLR","3L1EFR8WWTRIL5MKAR1UWRHK4IC9FJ","","966.5","img/land5.png","75","967.5","2","0","3","2","0.8,0.2,0.2,0.2,0.8,0.2,0.2,0.2,0.8","0.2,0.8,0.2,0.2,0.2,0.8,0.8,0.2,0.2","3","",""
"","html-keyboard-response","75","98014","0.0-75.0","3RJSC4XJ11GA9Y3CVLAU6NL2K6Y50B","AVKMFV9CZ0MLR","3L1EFR8WWTRIL5MKAR1UWRHK4IC9FJ","","null","<img src=""img/land5.png"" style=""width:200px;border:14px solid red;"">","null","","","","","","","","","",""
"","image-keyboard-response","76","98981","0.0-76.0","3RJSC4XJ11GA9Y3CVLAU6NL2K6Y50B","AVKMFV9CZ0MLR","3L1EFR8WWTRIL5MKAR1UWRHK4IC9FJ","","965.3999999761581","img/land3.png","74","966.4000000953674","1","0","2","2","0.8,0.2,0.2,0.2,0.8,0.2,0.2,0.2,0.8","0.2,0.8,0.2,0.2,0.2,0.8,0.8,0.2,0.2","3","",""
"","html-keyboard-response","77","99284","0.0-77.0","3RJSC4XJ11GA9Y3CVLAU6NL2K6Y50B","AVKMFV9CZ0MLR","3L1EFR8WWTRIL5MKAR1UWRHK4IC9FJ","","null","<img src=""img/land3.png"" style=""width:200px;border:14px solid red;"">","null","","","","","","","","","",""
"","image-keyboard-response","78","101286","0.0-78.0","3RJSC4XJ11GA9Y3CVLAU6NL2K6Y50B","AVKMFV9CZ0MLR","3L1EFR8WWTRIL5MKAR1UWRHK4IC9FJ","","","img/land3.png","","2001.5","-1","0","2","2","0.8,0.2,0.2,0.2,0.8,0.2,0.2,0.2,0.8","0.2,0.8,0.2,0.2,0.2,0.8,0.8,0.2,0.2","3","",""
"","html-keyboard-response","79","101587","0.0-79.0","3RJSC4XJ11GA9Y3CVLAU6NL2K6Y50B","AVKMFV9CZ0MLR","3L1EFR8WWTRIL5MKAR1UWRHK4IC9FJ","","null","<img src=""img/land3.png"" style=""width:200px;border:14px solid red;"">","null","","","","","","","","","",""
"","image-keyboard-response","80","103590","0.0-80.0","3RJSC4XJ11GA9Y3CVLAU6NL2K6Y50B","AVKMFV9CZ0MLR","3L1EFR8WWTRIL5MKAR1UWRHK4IC9FJ","","","img/land3.png","","2001.8000000715256","-1","0","2","2","0.8,0.2,0.2,0.2,0.8,0.2,0.2,0.2,0.8","0.2,0.8,0.2,0.2,0.2,0.8,0.8,0.2,0.2","3","",""
"","html-keyboard-response","81","103892","0.0-81.0","3RJSC4XJ11GA9Y3CVLAU6NL2K6Y50B","AVKMFV9CZ0MLR","3L1EFR8WWTRIL5MKAR1UWRHK4IC9FJ","","null","<img src=""img/land3.png"" style=""width:200px;border:14px solid red;"">","null","","","","","","","","","",""
"","image-keyboard-response","82","104990","0.0-82.0","3RJSC4XJ11GA9Y3CVLAU6NL2K6Y50B","AVKMFV9CZ0MLR","3L1EFR8WWTRIL5MKAR1UWRHK4IC9FJ","","1096.2999999523163","img/land4.png","75","1097.6999999284744","2","1","1","2","0.8,0.2,0.2,0.2,0.8,0.2,0.2,0.2,0.8","0.2,0.8,0.2,0.2,0.2,0.8,0.8,0.2,0.2","3","",""
"","html-keyboard-response","83","105293","0.0-83.0","3RJSC4XJ11GA9Y3CVLAU6NL2K6Y50B","AVKMFV9CZ0MLR","3L1EFR8WWTRIL5MKAR1UWRHK4IC9FJ","","null","<img src=""img/land4.png"" style=""width:200px; border:14px solid green;"">","null","","","","","","","","","",""
"","image-keyboard-response","84","106155","0.0-84.0","3RJSC4XJ11GA9Y3CVLAU6NL2K6Y50B","AVKMFV9CZ0MLR","3L1EFR8WWTRIL5MKAR1UWRHK4IC9FJ","","860.3000000715256","img/land3.png","74","861.6000000238419","1","0","2","2","0.8,0.2,0.2,0.2,0.8,0.2,0.2,0.2,0.8","0.2,0.8,0.2,0.2,0.2,0.8,0.8,0.2,0.2","3","",""
"","html-keyboard-response","85","106456","0.0-85.0","3RJSC4XJ11GA9Y3CVLAU6NL2K6Y50B","AVKMFV9CZ0MLR","3L1EFR8WWTRIL5MKAR1UWRHK4IC9FJ","","null","<img src=""img/land3.png"" style=""width:200px;border:14px solid red;"">","null","","","","","","","","","",""
"","image-keyboard-response","86","107388","0.0-86.0","3RJSC4XJ11GA9Y3CVLAU6NL2K6Y50B","AVKMFV9CZ0MLR","3L1EFR8WWTRIL5MKAR1UWRHK4IC9FJ","","930.6000000238419","img/land5.png","76","931.6999999284744","3","0","3","2","0.8,0.2,0.2,0.2,0.8,0.2,0.2,0.2,0.8","0.2,0.8,0.2,0.2,0.2,0.8,0.8,0.2,0.2","3","",""
"","html-keyboard-response","87","107690","0.0-87.0","3RJSC4XJ11GA9Y3CVLAU6NL2K6Y50B","AVKMFV9CZ0MLR","3L1EFR8WWTRIL5MKAR1UWRHK4IC9FJ","","null","<img src=""img/land5.png"" style=""width:200px;border:14px solid red;"">","null","","","","","","","","","",""
"","image-keyboard-response","88","109698","0.0-88.0","3RJSC4XJ11GA9Y3CVLAU6NL2K6Y50B","AVKMFV9CZ0MLR","3L1EFR8WWTRIL5MKAR1UWRHK4IC9FJ","","","img/land5.png","","2007.7000000476837","-1","0","3","2","0.8,0.2,0.2,0.2,0.8,0.2,0.2,0.2,0.8","0.2,0.8,0.2,0.2,0.2,0.8,0.8,0.2,0.2","3","",""
"","html-keyboard-response","89","110000","0.0-89.0","3RJSC4XJ11GA9Y3CVLAU6NL2K6Y50B","AVKMFV9CZ0MLR","3L1EFR8WWTRIL5MKAR1UWRHK4IC9FJ","","null","<img src=""img/land5.png"" style=""width:200px;border:14px solid red;"">","null","","","","","","","","","",""
"","image-keyboard-response","90","111202","0.0-90.0","3RJSC4XJ11GA9Y3CVLAU6NL2K6Y50B","AVKMFV9CZ0MLR","3L1EFR8WWTRIL5MKAR1UWRHK4IC9FJ","","1200.8999999761581","img/land4.png","75","1202.1000000238419","2","0","1","2","0.8,0.2,0.2,0.2,0.8,0.2,0.2,0.2,0.8","0.2,0.8,0.2,0.2,0.2,0.8,0.8,0.2,0.2","3","",""
"","html-keyboard-response","91","111504","0.0-91.0","3RJSC4XJ11GA9Y3CVLAU6NL2K6Y50B","AVKMFV9CZ0MLR","3L1EFR8WWTRIL5MKAR1UWRHK4IC9FJ","","null","<img src=""img/land4.png"" style=""width:200px;border:14px solid red;"">","null","","","","","","","","","",""
"","image-keyboard-response","92","112440","0.0-92.0","3RJSC4XJ11GA9Y3CVLAU6NL2K6Y50B","AVKMFV9CZ0MLR","3L1EFR8WWTRIL5MKAR1UWRHK4IC9FJ","","934.0999999046326","img/land5.png","76","935.2000000476837","3","0","3","2","0.8,0.2,0.2,0.2,0.8,0.2,0.2,0.2,0.8","0.2,0.8,0.2,0.2,0.2,0.8,0.8,0.2,0.2","3","",""
"","html-keyboard-response","93","112741","0.0-93.0","3RJSC4XJ11GA9Y3CVLAU6NL2K6Y50B","AVKMFV9CZ0MLR","3L1EFR8WWTRIL5MKAR1UWRHK4IC9FJ","","null","<img src=""img/land5.png"" style=""width:200px;border:14px solid red;"">","null","","","","","","","","","",""
"","image-keyboard-response","94","113324","0.0-94.0","3RJSC4XJ11GA9Y3CVLAU6NL2K6Y50B","AVKMFV9CZ0MLR","3L1EFR8WWTRIL5MKAR1UWRHK4IC9FJ","","582","img/land3.png","74","583.2000000476837","1","0","2","2","0.8,0.2,0.2,0.2,0.8,0.2,0.2,0.2,0.8","0.2,0.8,0.2,0.2,0.2,0.8,0.8,0.2,0.2","3","",""
"","html-keyboard-response","95","113626","0.0-95.0","3RJSC4XJ11GA9Y3CVLAU6NL2K6Y50B","AVKMFV9CZ0MLR","3L1EFR8WWTRIL5MKAR1UWRHK4IC9FJ","","null","<img src=""img/land3.png"" style=""width:200px;border:14px solid red;"">","null","","","","","","","","","",""
"","image-keyboard-response","96","115628","0.0-96.0","3RJSC4XJ11GA9Y3CVLAU6NL2K6Y50B","AVKMFV9CZ0MLR","3L1EFR8WWTRIL5MKAR1UWRHK4IC9FJ","","","img/land3.png","","2002.1000000238419","-1","0","2","2","0.8,0.2,0.2,0.2,0.8,0.2,0.2,0.2,0.8","0.2,0.8,0.2,0.2,0.2,0.8,0.8,0.2,0.2","3","",""
"","html-keyboard-response","97","115930","0.0-97.0","3RJSC4XJ11GA9Y3CVLAU6NL2K6Y50B","AVKMFV9CZ0MLR","3L1EFR8WWTRIL5MKAR1UWRHK4IC9FJ","","null","<img src=""img/land3.png"" style=""width:200px;border:14px solid red;"">","null","","","","","","","","","",""
"","image-keyboard-response","98","117135","0.0-98.0","3RJSC4XJ11GA9Y3CVLAU6NL2K6Y50B","AVKMFV9CZ0MLR","3L1EFR8WWTRIL5MKAR1UWRHK4IC9FJ","","1204.1000000238419","img/land4.png","75","1205.3999999761581","2","1","1","2","0.8,0.2,0.2,0.2,0.8,0.2,0.2,0.2,0.8","0.2,0.8,0.2,0.2,0.2,0.8,0.8,0.2,0.2","3","",""
"","html-keyboard-response","99","117438","0.0-99.0","3RJSC4XJ11GA9Y3CVLAU6NL2K6Y50B","AVKMFV9CZ0MLR","3L1EFR8WWTRIL5MKAR1UWRHK4IC9FJ","","null","<img src=""img/land4.png"" style=""width:200px; border:14px solid green;"">","null","","","","","","","","","",""
"","image-keyboard-response","100","119439","0.0-100.0","3RJSC4XJ11GA9Y3CVLAU6NL2K6Y50B","AVKMFV9CZ0MLR","3L1EFR8WWTRIL5MKAR1UWRHK4IC9FJ","","","img/land4.png","","2001.7000000476837","-1","0","1","2","0.8,0.2,0.2,0.2,0.8,0.2,0.2,0.2,0.8","0.2,0.8,0.2,0.2,0.2,0.8,0.8,0.2,0.2","3","",""
"","html-keyboard-response","101","119741","0.0-101.0","3RJSC4XJ11GA9Y3CVLAU6NL2K6Y50B","AVKMFV9CZ0MLR","3L1EFR8WWTRIL5MKAR1UWRHK4IC9FJ","","null","<img src=""img/land4.png"" style=""width:200px;border:14px solid red;"">","null","","","","","","","","","",""
"","image-keyboard-response","102","121744","0.0-102.0","3RJSC4XJ11GA9Y3CVLAU6NL2K6Y50B","AVKMFV9CZ0MLR","3L1EFR8WWTRIL5MKAR1UWRHK4IC9FJ","","","img/land4.png","","2002.2999999523163","-1","0","1","2","0.8,0.2,0.2,0.2,0.8,0.2,0.2,0.2,0.8","0.2,0.8,0.2,0.2,0.2,0.8,0.8,0.2,0.2","3","",""
"","html-keyboard-response","103","122045","0.0-103.0","3RJSC4XJ11GA9Y3CVLAU6NL2K6Y50B","AVKMFV9CZ0MLR","3L1EFR8WWTRIL5MKAR1UWRHK4IC9FJ","","null","<img src=""img/land4.png"" style=""width:200px;border:14px solid red;"">","null","","","","","","","","","",""
"","image-keyboard-response","104","124046","0.0-104.0","3RJSC4XJ11GA9Y3CVLAU6NL2K6Y50B","AVKMFV9CZ0MLR","3L1EFR8WWTRIL5MKAR1UWRHK4IC9FJ","","","img/land4.png","","2001.5","-1","0","1","2","0.8,0.2,0.2,0.2,0.8,0.2,0.2,0.2,0.8","0.2,0.8,0.2,0.2,0.2,0.8,0.8,0.2,0.2","3","",""
"","html-keyboard-response","105","124349","0.0-105.0","3RJSC4XJ11GA9Y3CVLAU6NL2K6Y50B","AVKMFV9CZ0MLR","3L1EFR8WWTRIL5MKAR1UWRHK4IC9FJ","","null","<img src=""img/land4.png"" style=""width:200px;border:14px solid red;"">","null","","","","","","","","","",""
"","image-keyboard-response","106","125748","0.0-106.0","3RJSC4XJ11GA9Y3CVLAU6NL2K6Y50B","AVKMFV9CZ0MLR","3L1EFR8WWTRIL5MKAR1UWRHK4IC9FJ","","1398.3000000715256","img/land4.png","75","1399.2999999523163","2","1","1","2","0.8,0.2,0.2,0.2,0.8,0.2,0.2,0.2,0.8","0.2,0.8,0.2,0.2,0.2,0.8,0.8,0.2,0.2","3","",""
"","html-keyboard-response","107","126050","0.0-107.0","3RJSC4XJ11GA9Y3CVLAU6NL2K6Y50B","AVKMFV9CZ0MLR","3L1EFR8WWTRIL5MKAR1UWRHK4IC9FJ","","null","<img src=""img/land4.png"" style=""width:200px; border:14px solid green;"">","null","","","","","","","","","",""
"","image-keyboard-response","108","128053","0.0-108.0","3RJSC4XJ11GA9Y3CVLAU6NL2K6Y50B","AVKMFV9CZ0MLR","3L1EFR8WWTRIL5MKAR1UWRHK4IC9FJ","","","img/land4.png","","2001.9000000953674","-1","0","1","2","0.8,0.2,0.2,0.2,0.8,0.2,0.2,0.2,0.8","0.2,0.8,0.2,0.2,0.2,0.8,0.8,0.2,0.2","3","",""
"","html-keyboard-response","109","128355","0.0-109.0","3RJSC4XJ11GA9Y3CVLAU6NL2K6Y50B","AVKMFV9CZ0MLR","3L1EFR8WWTRIL5MKAR1UWRHK4IC9FJ","","null","<img src=""img/land4.png"" style=""width:200px;border:14px solid red;"">","null","","","","","","","","","",""
"","image-keyboard-response","110","129030","0.0-110.0","3RJSC4XJ11GA9Y3CVLAU6NL2K6Y50B","AVKMFV9CZ0MLR","3L1EFR8WWTRIL5MKAR1UWRHK4IC9FJ","","673.5","img/land4.png","75","674.7000000476837","2","1","1","2","0.8,0.2,0.2,0.2,0.8,0.2,0.2,0.2,0.8","0.2,0.8,0.2,0.2,0.2,0.8,0.8,0.2,0.2","3","",""
"","html-keyboard-response","111","129332","0.0-111.0","3RJSC4XJ11GA9Y3CVLAU6NL2K6Y50B","AVKMFV9CZ0MLR","3L1EFR8WWTRIL5MKAR1UWRHK4IC9FJ","","null","<img src=""img/land4.png"" style=""width:200px; border:14px solid green;"">","null","","","","","","","","","",""
"","image-keyboard-response","112","131335","0.0-112.0","3RJSC4XJ11GA9Y3CVLAU6NL2K6Y50B","AVKMFV9CZ0MLR","3L1EFR8WWTRIL5MKAR1UWRHK4IC9FJ","","","img/land4.png","","2002.1000000238419","-1","0","1","2","0.8,0.2,0.2,0.2,0.8,0.2,0.2,0.2,0.8","0.2,0.8,0.2,0.2,0.2,0.8,0.8,0.2,0.2","3","",""
"","html-keyboard-response","113","131636","0.0-113.0","3RJSC4XJ11GA9Y3CVLAU6NL2K6Y50B","AVKMFV9CZ0MLR","3L1EFR8WWTRIL5MKAR1UWRHK4IC9FJ","","null","<img src=""img/land4.png"" style=""width:200px;border:14px solid red;"">","null","","","","","","","","","",""
"","image-keyboard-response","114","133639","0.0-114.0","3RJSC4XJ11GA9Y3CVLAU6NL2K6Y50B","AVKMFV9CZ0MLR","3L1EFR8WWTRIL5MKAR1UWRHK4IC9FJ","","","img/land4.png","","2002.3999999761581","-1","0","1","2","0.8,0.2,0.2,0.2,0.8,0.2,0.2,0.2,0.8","0.2,0.8,0.2,0.2,0.2,0.8,0.8,0.2,0.2","3","",""
"","html-keyboard-response","115","133941","0.0-115.0","3RJSC4XJ11GA9Y3CVLAU6NL2K6Y50B","AVKMFV9CZ0MLR","3L1EFR8WWTRIL5MKAR1UWRHK4IC9FJ","","null","<img src=""img/land4.png"" style=""width:200px;border:14px solid red;"">","null","","","","","","","","","",""
"","image-keyboard-response","116","134182","0.0-116.0","3RJSC4XJ11GA9Y3CVLAU6NL2K6Y50B","AVKMFV9CZ0MLR","3L1EFR8WWTRIL5MKAR1UWRHK4IC9FJ","","240","img/land4.png","75","241.30000007152557","2","1","1","2","0.8,0.2,0.2,0.2,0.8,0.2,0.2,0.2,0.8","0.2,0.8,0.2,0.2,0.2,0.8,0.8,0.2,0.2","3","",""
"","html-keyboard-response","117","134485","0.0-117.0","3RJSC4XJ11GA9Y3CVLAU6NL2K6Y50B","AVKMFV9CZ0MLR","3L1EFR8WWTRIL5MKAR1UWRHK4IC9FJ","","null","<img src=""img/land4.png"" style=""width:200px; border:14px solid green;"">","null","","","","","","","","","",""
"","image-keyboard-response","118","136487","0.0-118.0","3RJSC4XJ11GA9Y3CVLAU6NL2K6Y50B","AVKMFV9CZ0MLR","3L1EFR8WWTRIL5MKAR1UWRHK4IC9FJ","","","img/land4.png","","2002","-1","0","1","2","0.8,0.2,0.2,0.2,0.8,0.2,0.2,0.2,0.8","0.2,0.8,0.2,0.2,0.2,0.8,0.8,0.2,0.2","3","",""
"","html-keyboard-response","119","136789","0.0-119.0","3RJSC4XJ11GA9Y3CVLAU6NL2K6Y50B","AVKMFV9CZ0MLR","3L1EFR8WWTRIL5MKAR1UWRHK4IC9FJ","","null","<img src=""img/land4.png"" style=""width:200px;border:14px solid red;"">","null","","","","","","","","","",""
"","image-keyboard-response","120","137064","0.0-120.0","3RJSC4XJ11GA9Y3CVLAU6NL2K6Y50B","AVKMFV9CZ0MLR","3L1EFR8WWTRIL5MKAR1UWRHK4IC9FJ","","272.7999999523163","img/land3.png","75","273.89999997615814","2","0","2","2","0.8,0.2,0.2,0.2,0.8,0.2,0.2,0.2,0.8","0.2,0.8,0.2,0.2,0.2,0.8,0.8,0.2,0.2","3","",""
"","html-keyboard-response","121","137378","0.0-121.0","3RJSC4XJ11GA9Y3CVLAU6NL2K6Y50B","AVKMFV9CZ0MLR","3L1EFR8WWTRIL5MKAR1UWRHK4IC9FJ","","null","<img src=""img/land3.png"" style=""width:200px;border:14px solid red;"">","null","","","","","","","","","",""
"","image-keyboard-response","122","137539","0.0-122.0","3RJSC4XJ11GA9Y3CVLAU6NL2K6Y50B","AVKMFV9CZ0MLR","3L1EFR8WWTRIL5MKAR1UWRHK4IC9FJ","","159.89999997615814","img/land4.png","74","161.20000004768372","1","1","1","2","0.8,0.2,0.2,0.2,0.8,0.2,0.2,0.2,0.8","0.2,0.8,0.2,0.2,0.2,0.8,0.8,0.2,0.2","3","",""
"","html-keyboard-response","123","137843","0.0-123.0","3RJSC4XJ11GA9Y3CVLAU6NL2K6Y50B","AVKMFV9CZ0MLR","3L1EFR8WWTRIL5MKAR1UWRHK4IC9FJ","","null","<img src=""img/land4.png"" style=""width:200px; border:14px solid green;"">","null","","","","","","","","","",""
"","image-keyboard-response","124","139127","0.0-124.0","3RJSC4XJ11GA9Y3CVLAU6NL2K6Y50B","AVKMFV9CZ0MLR","3L1EFR8WWTRIL5MKAR1UWRHK4IC9FJ","","1283.3999999761581","img/land4.png","75","1284.2000000476837","2","1","1","2","0.8,0.2,0.2,0.2,0.8,0.2,0.2,0.2,0.8","0.2,0.8,0.2,0.2,0.2,0.8,0.8,0.2,0.2","3","",""
"","html-keyboard-response","125","139429","0.0-125.0","3RJSC4XJ11GA9Y3CVLAU6NL2K6Y50B","AVKMFV9CZ0MLR","3L1EFR8WWTRIL5MKAR1UWRHK4IC9FJ","","null","<img src=""img/land4.png"" style=""width:200px; border:14px solid green;"">","null","","","","","","","","","",""
"","image-keyboard-response","126","141444","0.0-126.0","3RJSC4XJ11GA9Y3CVLAU6NL2K6Y50B","AVKMFV9CZ0MLR","3L1EFR8WWTRIL5MKAR1UWRHK4IC9FJ","","","img/land4.png","","2015.3999999761581","-1","0","1","2","0.8,0.2,0.2,0.2,0.8,0.2,0.2,0.2,0.8","0.2,0.8,0.2,0.2,0.2,0.8,0.8,0.2,0.2","3","",""
"","html-keyboard-response","127","141747","0.0-127.0","3RJSC4XJ11GA9Y3CVLAU6NL2K6Y50B","AVKMFV9CZ0MLR","3L1EFR8WWTRIL5MKAR1UWRHK4IC9FJ","","null","<img src=""img/land4.png"" style=""width:200px;border:14px solid red;"">","null","","","","","","","","","",""
"","image-keyboard-response","128","142464","0.0-128.0","3RJSC4XJ11GA9Y3CVLAU6NL2K6Y50B","AVKMFV9CZ0MLR","3L1EFR8WWTRIL5MKAR1UWRHK4IC9FJ","","716.4000000953674","img/land5.png","76","717.7000000476837","3","0","3","2","0.8,0.2,0.2,0.2,0.8,0.2,0.2,0.2,0.8","0.2,0.8,0.2,0.2,0.2,0.8,0.8,0.2,0.2","3","",""
"","html-keyboard-response","129","142767","0.0-129.0","3RJSC4XJ11GA9Y3CVLAU6NL2K6Y50B","AVKMFV9CZ0MLR","3L1EFR8WWTRIL5MKAR1UWRHK4IC9FJ","","null","<img src=""img/land5.png"" style=""width:200px;border:14px solid red;"">","null","","","","","","","","","",""
"","image-keyboard-response","130","144769","0.0-130.0","3RJSC4XJ11GA9Y3CVLAU6NL2K6Y50B","AVKMFV9CZ0MLR","3L1EFR8WWTRIL5MKAR1UWRHK4IC9FJ","","","img/land5.png","","2001.6999999284744","-1","0","3","2","0.8,0.2,0.2,0.2,0.8,0.2,0.2,0.2,0.8","0.2,0.8,0.2,0.2,0.2,0.8,0.8,0.2,0.2","3","",""
"","html-keyboard-response","131","145072","0.0-131.0","3RJSC4XJ11GA9Y3CVLAU6NL2K6Y50B","AVKMFV9CZ0MLR","3L1EFR8WWTRIL5MKAR1UWRHK4IC9FJ","","null","<img src=""img/land5.png"" style=""width:200px;border:14px solid red;"">","null","","","","","","","","","",""
"","image-keyboard-response","132","145702","0.0-132.0","3RJSC4XJ11GA9Y3CVLAU6NL2K6Y50B","AVKMFV9CZ0MLR","3L1EFR8WWTRIL5MKAR1UWRHK4IC9FJ","","629.5","img/land3.png","74","630.5999999046326","1","0","2","2","0.8,0.2,0.2,0.2,0.8,0.2,0.2,0.2,0.8","0.2,0.8,0.2,0.2,0.2,0.8,0.8,0.2,0.2","3","",""
"","html-keyboard-response","133","146004","0.0-133.0","3RJSC4XJ11GA9Y3CVLAU6NL2K6Y50B","AVKMFV9CZ0MLR","3L1EFR8WWTRIL5MKAR1UWRHK4IC9FJ","","null","<img src=""img/land3.png"" style=""width:200px;border:14px solid red;"">","null","","","","","","","","","",""
"","image-keyboard-response","134","147730","0.0-134.0","3RJSC4XJ11GA9Y3CVLAU6NL2K6Y50B","AVKMFV9CZ0MLR","3L1EFR8WWTRIL5MKAR1UWRHK4IC9FJ","","1724.3999999761581","img/land4.png","75","1725.5","2","1","1","2","0.8,0.2,0.2,0.2,0.8,0.2,0.2,0.2,0.8","0.2,0.8,0.2,0.2,0.2,0.8,0.8,0.2,0.2","3","",""
"","html-keyboard-response","135","148032","0.0-135.0","3RJSC4XJ11GA9Y3CVLAU6NL2K6Y50B","AVKMFV9CZ0MLR","3L1EFR8WWTRIL5MKAR1UWRHK4IC9FJ","","null","<img src=""img/land4.png"" style=""width:200px; border:14px solid green;"">","null","","","","","","","","","",""
"","image-keyboard-response","136","150035","0.0-136.0","3RJSC4XJ11GA9Y3CVLAU6NL2K6Y50B","AVKMFV9CZ0MLR","3L1EFR8WWTRIL5MKAR1UWRHK4IC9FJ","","","img/land4.png","","2001.8999999761581","-1","0","1","2","0.8,0.2,0.2,0.2,0.8,0.2,0.2,0.2,0.8","0.2,0.8,0.2,0.2,0.2,0.8,0.8,0.2,0.2","3","",""
"","html-keyboard-response","137","150336","0.0-137.0","3RJSC4XJ11GA9Y3CVLAU6NL2K6Y50B","AVKMFV9CZ0MLR","3L1EFR8WWTRIL5MKAR1UWRHK4IC9FJ","","null","<img src=""img/land4.png"" style=""width:200px;border:14px solid red;"">","null","","","","","","","","","",""
"","image-keyboard-response","138","151282","0.0-138.0","3RJSC4XJ11GA9Y3CVLAU6NL2K6Y50B","AVKMFV9CZ0MLR","3L1EFR8WWTRIL5MKAR1UWRHK4IC9FJ","","944.6999999284744","img/land4.png","75","946","2","1","1","2","0.8,0.2,0.2,0.2,0.8,0.2,0.2,0.2,0.8","0.2,0.8,0.2,0.2,0.2,0.8,0.8,0.2,0.2","3","",""
"","html-keyboard-response","139","151585","0.0-139.0","3RJSC4XJ11GA9Y3CVLAU6NL2K6Y50B","AVKMFV9CZ0MLR","3L1EFR8WWTRIL5MKAR1UWRHK4IC9FJ","","null","<img src=""img/land4.png"" style=""width:200px; border:14px solid green;"">","null","","","","","","","","","",""
"","image-keyboard-response","140","152256","0.0-140.0","3RJSC4XJ11GA9Y3CVLAU6NL2K6Y50B","AVKMFV9CZ0MLR","3L1EFR8WWTRIL5MKAR1UWRHK4IC9FJ","","670.1000000238419","img/land3.png","74","671.1000000238419","1","0","2","2","0.8,0.2,0.2,0.2,0.8,0.2,0.2,0.2,0.8","0.2,0.8,0.2,0.2,0.2,0.8,0.8,0.2,0.2","3","",""
"","html-keyboard-response","141","152559","0.0-141.0","3RJSC4XJ11GA9Y3CVLAU6NL2K6Y50B","AVKMFV9CZ0MLR","3L1EFR8WWTRIL5MKAR1UWRHK4IC9FJ","","null","<img src=""img/land3.png"" style=""width:200px;border:14px solid red;"">","null","","","","","","","","","",""
"","image-keyboard-response","142","153581","0.0-142.0","3RJSC4XJ11GA9Y3CVLAU6NL2K6Y50B","AVKMFV9CZ0MLR","3L1EFR8WWTRIL5MKAR1UWRHK4IC9FJ","","1020.5999999046326","img/land4.png","75","1021.7000000476837","2","1","1","2","0.8,0.2,0.2,0.2,0.8,0.2,0.2,0.2,0.8","0.2,0.8,0.2,0.2,0.2,0.8,0.8,0.2,0.2","3","",""
"","html-keyboard-response","143","153883","0.0-143.0","3RJSC4XJ11GA9Y3CVLAU6NL2K6Y50B","AVKMFV9CZ0MLR","3L1EFR8WWTRIL5MKAR1UWRHK4IC9FJ","","null","<img src=""img/land4.png"" style=""width:200px; border:14px solid green;"">","null","","","","","","","","","",""
"","image-keyboard-response","144","155885","0.0-144.0","3RJSC4XJ11GA9Y3CVLAU6NL2K6Y50B","AVKMFV9CZ0MLR","3L1EFR8WWTRIL5MKAR1UWRHK4IC9FJ","","","img/land4.png","","2001.3000000715256","-1","0","1","2","0.8,0.2,0.2,0.2,0.8,0.2,0.2,0.2,0.8","0.2,0.8,0.2,0.2,0.2,0.8,0.8,0.2,0.2","3","",""
"","html-keyboard-response","145","156186","0.0-145.0","3RJSC4XJ11GA9Y3CVLAU6NL2K6Y50B","AVKMFV9CZ0MLR","3L1EFR8WWTRIL5MKAR1UWRHK4IC9FJ","","null","<img src=""img/land4.png"" style=""width:200px;border:14px solid red;"">","null","","","","","","","","","",""
"","image-keyboard-response","146","157667","0.0-146.0","3RJSC4XJ11GA9Y3CVLAU6NL2K6Y50B","AVKMFV9CZ0MLR","3L1EFR8WWTRIL5MKAR1UWRHK4IC9FJ","","1479.3999999761581","img/land4.png","75","1480.3999999761581","2","1","1","2","0.8,0.2,0.2,0.2,0.8,0.2,0.2,0.2,0.8","0.2,0.8,0.2,0.2,0.2,0.8,0.8,0.2,0.2","3","",""
"","html-keyboard-response","147","157969","0.0-147.0","3RJSC4XJ11GA9Y3CVLAU6NL2K6Y50B","AVKMFV9CZ0MLR","3L1EFR8WWTRIL5MKAR1UWRHK4IC9FJ","","null","<img src=""img/land4.png"" style=""width:200px; border:14px solid green;"">","null","","","","","","","","","",""
"","image-keyboard-response","148","159970","0.0-148.0","3RJSC4XJ11GA9Y3CVLAU6NL2K6Y50B","AVKMFV9CZ0MLR","3L1EFR8WWTRIL5MKAR1UWRHK4IC9FJ","","","img/land4.png","","2001.1000000238419","-1","0","1","2","0.8,0.2,0.2,0.2,0.8,0.2,0.2,0.2,0.8","0.2,0.8,0.2,0.2,0.2,0.8,0.8,0.2,0.2","3","",""
"","html-keyboard-response","149","160272","0.0-149.0","3RJSC4XJ11GA9Y3CVLAU6NL2K6Y50B","AVKMFV9CZ0MLR","3L1EFR8WWTRIL5MKAR1UWRHK4IC9FJ","","null","<img src=""img/land4.png"" style=""width:200px;border:14px solid red;"">","null","","","","","","","","","",""
"","image-keyboard-response","150","160855","0.0-150.0","3RJSC4XJ11GA9Y3CVLAU6NL2K6Y50B","AVKMFV9CZ0MLR","3L1EFR8WWTRIL5MKAR1UWRHK4IC9FJ","","581.5","img/land3.png","74","582.6000000238419","1","0","2","2","0.8,0.2,0.2,0.2,0.8,0.2,0.2,0.2,0.8","0.2,0.8,0.2,0.2,0.2,0.8,0.8,0.2,0.2","3","",""
"","html-keyboard-response","151","161158","0.0-151.0","3RJSC4XJ11GA9Y3CVLAU6NL2K6Y50B","AVKMFV9CZ0MLR","3L1EFR8WWTRIL5MKAR1UWRHK4IC9FJ","","null","<img src=""img/land3.png"" style=""width:200px;border:14px solid red;"">","null","","","","","","","","","",""
"","image-keyboard-response","152","162314","0.0-152.0","3RJSC4XJ11GA9Y3CVLAU6NL2K6Y50B","AVKMFV9CZ0MLR","3L1EFR8WWTRIL5MKAR1UWRHK4IC9FJ","","1154.6999999284744","img/land4.png","75","1155.8999999761581","2","0","1","2","0.8,0.2,0.2,0.2,0.8,0.2,0.2,0.2,0.8","0.2,0.8,0.2,0.2,0.2,0.8,0.8,0.2,0.2","3","",""
"","html-keyboard-response","153","162615","0.0-153.0","3RJSC4XJ11GA9Y3CVLAU6NL2K6Y50B","AVKMFV9CZ0MLR","3L1EFR8WWTRIL5MKAR1UWRHK4IC9FJ","","null","<img src=""img/land4.png"" style=""width:200px;border:14px solid red;"">","null","","","","","","","","","",""
"","image-keyboard-response","154","164617","0.0-154.0","3RJSC4XJ11GA9Y3CVLAU6NL2K6Y50B","AVKMFV9CZ0MLR","3L1EFR8WWTRIL5MKAR1UWRHK4IC9FJ","","","img/land4.png","","2001.3999999761581","-1","0","1","2","0.8,0.2,0.2,0.2,0.8,0.2,0.2,0.2,0.8","0.2,0.8,0.2,0.2,0.2,0.8,0.8,0.2,0.2","3","",""
"","html-keyboard-response","155","164919","0.0-155.0","3RJSC4XJ11GA9Y3CVLAU6NL2K6Y50B","AVKMFV9CZ0MLR","3L1EFR8WWTRIL5MKAR1UWRHK4IC9FJ","","null","<img src=""img/land4.png"" style=""width:200px;border:14px solid red;"">","null","","","","","","","","","",""
"","image-keyboard-response","156","165496","0.0-156.0","3RJSC4XJ11GA9Y3CVLAU6NL2K6Y50B","AVKMFV9CZ0MLR","3L1EFR8WWTRIL5MKAR1UWRHK4IC9FJ","","575.3000000715256","img/land3.png","74","576.3000000715256","1","0","2","2","0.8,0.2,0.2,0.2,0.8,0.2,0.2,0.2,0.8","0.2,0.8,0.2,0.2,0.2,0.8,0.8,0.2,0.2","3","",""
"","html-keyboard-response","157","165799","0.0-157.0","3RJSC4XJ11GA9Y3CVLAU6NL2K6Y50B","AVKMFV9CZ0MLR","3L1EFR8WWTRIL5MKAR1UWRHK4IC9FJ","","null","<img src=""img/land3.png"" style=""width:200px;border:14px solid red;"">","null","","","","","","","","","",""
"","image-keyboard-response","158","166745","0.0-158.0","3RJSC4XJ11GA9Y3CVLAU6NL2K6Y50B","AVKMFV9CZ0MLR","3L1EFR8WWTRIL5MKAR1UWRHK4IC9FJ","","944.7000000476837","img/land4.png","75","946","2","1","1","2","0.8,0.2,0.2,0.2,0.8,0.2,0.2,0.2,0.8","0.2,0.8,0.2,0.2,0.2,0.8,0.8,0.2,0.2","3","",""
"","html-keyboard-response","159","167052","0.0-159.0","3RJSC4XJ11GA9Y3CVLAU6NL2K6Y50B","AVKMFV9CZ0MLR","3L1EFR8WWTRIL5MKAR1UWRHK4IC9FJ","","null","<img src=""img/land4.png"" style=""width:200px; border:14px solid green;"">","null","","","","","","","","","",""
"","image-keyboard-response","160","167859","0.0-160.0","3RJSC4XJ11GA9Y3CVLAU6NL2K6Y50B","AVKMFV9CZ0MLR","3L1EFR8WWTRIL5MKAR1UWRHK4IC9FJ","","805.3000000715256","img/land3.png","74","806.7000000476837","1","0","2","2","0.8,0.2,0.2,0.2,0.8,0.2,0.2,0.2,0.8","0.2,0.8,0.2,0.2,0.2,0.8,0.8,0.2,0.2","3","",""
"","html-keyboard-response","161","168161","0.0-161.0","3RJSC4XJ11GA9Y3CVLAU6NL2K6Y50B","AVKMFV9CZ0MLR","3L1EFR8WWTRIL5MKAR1UWRHK4IC9FJ","","null","<img src=""img/land3.png"" style=""width:200px;border:14px solid red;"">","null","","","","","","","","","",""
"","image-keyboard-response","162","168968","0.0-162.0","3RJSC4XJ11GA9Y3CVLAU6NL2K6Y50B","AVKMFV9CZ0MLR","3L1EFR8WWTRIL5MKAR1UWRHK4IC9FJ","","805.4000000953674","img/land5.png","76","806.7000000476837","3","0","3","2","0.8,0.2,0.2,0.2,0.8,0.2,0.2,0.2,0.8","0.2,0.8,0.2,0.2,0.2,0.8,0.8,0.2,0.2","3","",""
"","html-keyboard-response","163","169270","0.0-163.0","3RJSC4XJ11GA9Y3CVLAU6NL2K6Y50B","AVKMFV9CZ0MLR","3L1EFR8WWTRIL5MKAR1UWRHK4IC9FJ","","null","<img src=""img/land5.png"" style=""width:200px;border:14px solid red;"">","null","","","","","","","","","",""
"","image-keyboard-response","164","171272","0.0-164.0","3RJSC4XJ11GA9Y3CVLAU6NL2K6Y50B","AVKMFV9CZ0MLR","3L1EFR8WWTRIL5MKAR1UWRHK4IC9FJ","","","img/land5.png","","2001.7999999523163","-1","0","3","2","0.8,0.2,0.2,0.2,0.8,0.2,0.2,0.2,0.8","0.2,0.8,0.2,0.2,0.2,0.8,0.8,0.2,0.2","3","",""
"","html-keyboard-response","165","171575","0.0-165.0","3RJSC4XJ11GA9Y3CVLAU6NL2K6Y50B","AVKMFV9CZ0MLR","3L1EFR8WWTRIL5MKAR1UWRHK4IC9FJ","","null","<img src=""img/land5.png"" style=""width:200px;border:14px solid red;"">","null","","","","","","","","","",""
"","image-keyboard-response","166","172217","0.0-166.0","3RJSC4XJ11GA9Y3CVLAU6NL2K6Y50B","AVKMFV9CZ0MLR","3L1EFR8WWTRIL5MKAR1UWRHK4IC9FJ","","641.2000000476837","img/land3.png","74","642.2999999523163","1","0","2","2","0.8,0.2,0.2,0.2,0.8,0.2,0.2,0.2,0.8","0.2,0.8,0.2,0.2,0.2,0.8,0.8,0.2,0.2","3","",""
"","html-keyboard-response","167","172519","0.0-167.0","3RJSC4XJ11GA9Y3CVLAU6NL2K6Y50B","AVKMFV9CZ0MLR","3L1EFR8WWTRIL5MKAR1UWRHK4IC9FJ","","null","<img src=""img/land3.png"" style=""width:200px;border:14px solid red;"">","null","","","","","","","","","",""
"","image-keyboard-response","168","174522","0.0-168.0","3RJSC4XJ11GA9Y3CVLAU6NL2K6Y50B","AVKMFV9CZ0MLR","3L1EFR8WWTRIL5MKAR1UWRHK4IC9FJ","","","img/land3.png","","2002.5","-1","0","2","2","0.8,0.2,0.2,0.2,0.8,0.2,0.2,0.2,0.8","0.2,0.8,0.2,0.2,0.2,0.8,0.8,0.2,0.2","3","",""
"","html-keyboard-response","169","174823","0.0-169.0","3RJSC4XJ11GA9Y3CVLAU6NL2K6Y50B","AVKMFV9CZ0MLR","3L1EFR8WWTRIL5MKAR1UWRHK4IC9FJ","","null","<img src=""img/land3.png"" style=""width:200px;border:14px solid red;"">","null","","","","","","","","","",""
"","image-keyboard-response","170","175883","0.0-170.0","3RJSC4XJ11GA9Y3CVLAU6NL2K6Y50B","AVKMFV9CZ0MLR","3L1EFR8WWTRIL5MKAR1UWRHK4IC9FJ","","1058","img/land5.png","76","1059.2000000476837","3","0","3","2","0.8,0.2,0.2,0.2,0.8,0.2,0.2,0.2,0.8","0.2,0.8,0.2,0.2,0.2,0.8,0.8,0.2,0.2","3","",""
"","html-keyboard-response","171","176184","0.0-171.0","3RJSC4XJ11GA9Y3CVLAU6NL2K6Y50B","AVKMFV9CZ0MLR","3L1EFR8WWTRIL5MKAR1UWRHK4IC9FJ","","null","<img src=""img/land5.png"" style=""width:200px;border:14px solid red;"">","null","","","","","","","","","",""
"","image-keyboard-response","172","177781","0.0-172.0","3RJSC4XJ11GA9Y3CVLAU6NL2K6Y50B","AVKMFV9CZ0MLR","3L1EFR8WWTRIL5MKAR1UWRHK4IC9FJ","","1595.6000000238419","img/land3.png","74","1596.6000000238419","1","0","2","2","0.8,0.2,0.2,0.2,0.8,0.2,0.2,0.2,0.8","0.2,0.8,0.2,0.2,0.2,0.8,0.8,0.2,0.2","3","",""
"","html-keyboard-response","173","178083","0.0-173.0","3RJSC4XJ11GA9Y3CVLAU6NL2K6Y50B","AVKMFV9CZ0MLR","3L1EFR8WWTRIL5MKAR1UWRHK4IC9FJ","","null","<img src=""img/land3.png"" style=""width:200px;border:14px solid red;"">","null","","","","","","","","","",""
"","image-keyboard-response","174","179020","0.0-174.0","3RJSC4XJ11GA9Y3CVLAU6NL2K6Y50B","AVKMFV9CZ0MLR","3L1EFR8WWTRIL5MKAR1UWRHK4IC9FJ","","935.8999999761581","img/land5.png","76","937.0999999046326","3","0","3","2","0.8,0.2,0.2,0.2,0.8,0.2,0.2,0.2,0.8","0.2,0.8,0.2,0.2,0.2,0.8,0.8,0.2,0.2","3","",""
"","html-keyboard-response","175","179322","0.0-175.0","3RJSC4XJ11GA9Y3CVLAU6NL2K6Y50B","AVKMFV9CZ0MLR","3L1EFR8WWTRIL5MKAR1UWRHK4IC9FJ","","null","<img src=""img/land5.png"" style=""width:200px;border:14px solid red;"">","null","","","","","","","","","",""
"","image-keyboard-response","176","179925","0.0-176.0","3RJSC4XJ11GA9Y3CVLAU6NL2K6Y50B","AVKMFV9CZ0MLR","3L1EFR8WWTRIL5MKAR1UWRHK4IC9FJ","","601.5","img/land4.png","75","602.5","2","1","1","2","0.8,0.2,0.2,0.2,0.8,0.2,0.2,0.2,0.8","0.2,0.8,0.2,0.2,0.2,0.8,0.8,0.2,0.2","3","",""
"","html-keyboard-response","177","180226","0.0-177.0","3RJSC4XJ11GA9Y3CVLAU6NL2K6Y50B","AVKMFV9CZ0MLR","3L1EFR8WWTRIL5MKAR1UWRHK4IC9FJ","","null","<img src=""img/land4.png"" style=""width:200px; border:14px solid green;"">","null","","","","","","","","","",""
"","image-keyboard-response","178","182228","0.0-178.0","3RJSC4XJ11GA9Y3CVLAU6NL2K6Y50B","AVKMFV9CZ0MLR","3L1EFR8WWTRIL5MKAR1UWRHK4IC9FJ","","","img/land4.png","","2001.5999999046326","-1","0","1","2","0.8,0.2,0.2,0.2,0.8,0.2,0.2,0.2,0.8","0.2,0.8,0.2,0.2,0.2,0.8,0.8,0.2,0.2","3","",""
"","html-keyboard-response","179","182530","0.0-179.0","3RJSC4XJ11GA9Y3CVLAU6NL2K6Y50B","AVKMFV9CZ0MLR","3L1EFR8WWTRIL5MKAR1UWRHK4IC9FJ","","null","<img src=""img/land4.png"" style=""width:200px;border:14px solid red;"">","null","","","","","","","","","",""
"","image-keyboard-response","180","183202","0.0-180.0","3RJSC4XJ11GA9Y3CVLAU6NL2K6Y50B","AVKMFV9CZ0MLR","3L1EFR8WWTRIL5MKAR1UWRHK4IC9FJ","","669.6000000238419","img/land4.png","74","670.7000000476837","1","1","1","2","0.8,0.2,0.2,0.2,0.8,0.2,0.2,0.2,0.8","0.2,0.8,0.2,0.2,0.2,0.8,0.8,0.2,0.2","3","",""
"","html-keyboard-response","181","183504","0.0-181.0","3RJSC4XJ11GA9Y3CVLAU6NL2K6Y50B","AVKMFV9CZ0MLR","3L1EFR8WWTRIL5MKAR1UWRHK4IC9FJ","","null","<img src=""img/land4.png"" style=""width:200px; border:14px solid green;"">","null","","","","","","","","","",""
"","image-keyboard-response","182","184390","0.0-182.0","3RJSC4XJ11GA9Y3CVLAU6NL2K6Y50B","AVKMFV9CZ0MLR","3L1EFR8WWTRIL5MKAR1UWRHK4IC9FJ","","884.6000000238419","img/land3.png","74","885.6999999284744","1","0","2","2","0.8,0.2,0.2,0.2,0.8,0.2,0.2,0.2,0.8","0.2,0.8,0.2,0.2,0.2,0.8,0.8,0.2,0.2","3","",""
"","html-keyboard-response","183","184696","0.0-183.0","3RJSC4XJ11GA9Y3CVLAU6NL2K6Y50B","AVKMFV9CZ0MLR","3L1EFR8WWTRIL5MKAR1UWRHK4IC9FJ","","null","<img src=""img/land3.png"" style=""width:200px;border:14px solid red;"">","null","","","","","","","","","",""
"","image-keyboard-response","184","185794","0.0-184.0","3RJSC4XJ11GA9Y3CVLAU6NL2K6Y50B","AVKMFV9CZ0MLR","3L1EFR8WWTRIL5MKAR1UWRHK4IC9FJ","","1096.5","img/land4.png","75","1097.5999999046326","2","0","1","2","0.8,0.2,0.2,0.2,0.8,0.2,0.2,0.2,0.8","0.2,0.8,0.2,0.2,0.2,0.8,0.8,0.2,0.2","3","",""
"","html-keyboard-response","185","186096","0.0-185.0","3RJSC4XJ11GA9Y3CVLAU6NL2K6Y50B","AVKMFV9CZ0MLR","3L1EFR8WWTRIL5MKAR1UWRHK4IC9FJ","","null","<img src=""img/land4.png"" style=""width:200px;border:14px solid red;"">","null","","","","","","","","","",""
"","image-keyboard-response","186","188099","0.0-186.0","3RJSC4XJ11GA9Y3CVLAU6NL2K6Y50B","AVKMFV9CZ0MLR","3L1EFR8WWTRIL5MKAR1UWRHK4IC9FJ","","","img/land4.png","","2002.7999999523163","-1","0","1","2","0.8,0.2,0.2,0.2,0.8,0.2,0.2,0.2,0.8","0.2,0.8,0.2,0.2,0.2,0.8,0.8,0.2,0.2","3","",""
"","html-keyboard-response","187","188401","0.0-187.0","3RJSC4XJ11GA9Y3CVLAU6NL2K6Y50B","AVKMFV9CZ0MLR","3L1EFR8WWTRIL5MKAR1UWRHK4IC9FJ","","null","<img src=""img/land4.png"" style=""width:200px;border:14px solid red;"">","null","","","","","","","","","",""
"","image-keyboard-response","188","189021","0.0-188.0","3RJSC4XJ11GA9Y3CVLAU6NL2K6Y50B","AVKMFV9CZ0MLR","3L1EFR8WWTRIL5MKAR1UWRHK4IC9FJ","","618.8999999761581","img/land5.png","76","620","3","0","3","2","0.8,0.2,0.2,0.2,0.8,0.2,0.2,0.2,0.8","0.2,0.8,0.2,0.2,0.2,0.8,0.8,0.2,0.2","3","",""
"","html-keyboard-response","189","189323","0.0-189.0","3RJSC4XJ11GA9Y3CVLAU6NL2K6Y50B","AVKMFV9CZ0MLR","3L1EFR8WWTRIL5MKAR1UWRHK4IC9FJ","","null","<img src=""img/land5.png"" style=""width:200px;border:14px solid red;"">","null","","","","","","","","","",""
"","image-keyboard-response","190","191325","0.0-190.0","3RJSC4XJ11GA9Y3CVLAU6NL2K6Y50B","AVKMFV9CZ0MLR","3L1EFR8WWTRIL5MKAR1UWRHK4IC9FJ","","","img/land4.png","","2002.1000000238419","-1","0","1","2","0.8,0.2,0.2,0.2,0.8,0.2,0.2,0.2,0.8","0.2,0.8,0.2,0.2,0.2,0.8,0.8,0.2,0.2","3","",""
"","html-keyboard-response","191","191627","0.0-191.0","3RJSC4XJ11GA9Y3CVLAU6NL2K6Y50B","AVKMFV9CZ0MLR","3L1EFR8WWTRIL5MKAR1UWRHK4IC9FJ","","null","<img src=""img/land4.png"" style=""width:200px;border:14px solid red;"">","null","","","","","","","","","",""
"","image-keyboard-response","192","192315","0.0-192.0","3RJSC4XJ11GA9Y3CVLAU6NL2K6Y50B","AVKMFV9CZ0MLR","3L1EFR8WWTRIL5MKAR1UWRHK4IC9FJ","","686.6000000238419","img/land4.png","74","687.6000000238419","1","0","1","2","0.8,0.2,0.2,0.2,0.8,0.2,0.2,0.2,0.8","0.2,0.8,0.2,0.2,0.2,0.8,0.8,0.2,0.2","3","",""
"","html-keyboard-response","193","192616","0.0-193.0","3RJSC4XJ11GA9Y3CVLAU6NL2K6Y50B","AVKMFV9CZ0MLR","3L1EFR8WWTRIL5MKAR1UWRHK4IC9FJ","","null","<img src=""img/land4.png"" style=""width:200px;border:14px solid red;"">","null","","","","","","","","","",""
"","image-keyboard-response","194","193783","0.0-194.0","3RJSC4XJ11GA9Y3CVLAU6NL2K6Y50B","AVKMFV9CZ0MLR","3L1EFR8WWTRIL5MKAR1UWRHK4IC9FJ","","1165.5","img/land4.png","75","1166.6999999284744","2","1","1","2","0.8,0.2,0.2,0.2,0.8,0.2,0.2,0.2,0.8","0.2,0.8,0.2,0.2,0.2,0.8,0.8,0.2,0.2","3","",""
"","html-keyboard-response","195","194086","0.0-195.0","3RJSC4XJ11GA9Y3CVLAU6NL2K6Y50B","AVKMFV9CZ0MLR","3L1EFR8WWTRIL5MKAR1UWRHK4IC9FJ","","null","<img src=""img/land4.png"" style=""width:200px; border:14px solid green;"">","null","","","","","","","","","",""
"","image-keyboard-response","196","194962","0.0-196.0","3RJSC4XJ11GA9Y3CVLAU6NL2K6Y50B","AVKMFV9CZ0MLR","3L1EFR8WWTRIL5MKAR1UWRHK4IC9FJ","","875.3999999761581","img/land5.png","76","876.3999999761581","3","0","3","2","0.8,0.2,0.2,0.2,0.8,0.2,0.2,0.2,0.8","0.2,0.8,0.2,0.2,0.2,0.8,0.8,0.2,0.2","3","",""
"","html-keyboard-response","197","195264","0.0-197.0","3RJSC4XJ11GA9Y3CVLAU6NL2K6Y50B","AVKMFV9CZ0MLR","3L1EFR8WWTRIL5MKAR1UWRHK4IC9FJ","","null","<img src=""img/land5.png"" style=""width:200px;border:14px solid red;"">","null","","","","","","","","","",""
"","image-keyboard-response","198","196441","0.0-198.0","3RJSC4XJ11GA9Y3CVLAU6NL2K6Y50B","AVKMFV9CZ0MLR","3L1EFR8WWTRIL5MKAR1UWRHK4IC9FJ","","1176.3000000715256","img/land4.png","75","1177.2999999523163","2","1","1","2","0.8,0.2,0.2,0.2,0.8,0.2,0.2,0.2,0.8","0.2,0.8,0.2,0.2,0.2,0.8,0.8,0.2,0.2","3","",""
"","html-keyboard-response","199","196743","0.0-199.0","3RJSC4XJ11GA9Y3CVLAU6NL2K6Y50B","AVKMFV9CZ0MLR","3L1EFR8WWTRIL5MKAR1UWRHK4IC9FJ","","null","<img src=""img/land4.png"" style=""width:200px; border:14px solid green;"">","null","","","","","","","","","",""
"","image-keyboard-response","200","197521","0.0-200.0","3RJSC4XJ11GA9Y3CVLAU6NL2K6Y50B","AVKMFV9CZ0MLR","3L1EFR8WWTRIL5MKAR1UWRHK4IC9FJ","","774.9000000953674","img/land3.png","74","776","1","1","2","2","0.8,0.2,0.2,0.2,0.8,0.2,0.2,0.2,0.8","0.2,0.8,0.2,0.2,0.2,0.8,0.8,0.2,0.2","3","",""
"","html-keyboard-response","201","197822","0.0-201.0","3RJSC4XJ11GA9Y3CVLAU6NL2K6Y50B","AVKMFV9CZ0MLR","3L1EFR8WWTRIL5MKAR1UWRHK4IC9FJ","","null","<img src=""img/land3.png"" style=""width:200px; border:14px solid green;"">","null","","","","","","","","","",""
"","image-keyboard-response","202","198990","0.0-202.0","3RJSC4XJ11GA9Y3CVLAU6NL2K6Y50B","AVKMFV9CZ0MLR","3L1EFR8WWTRIL5MKAR1UWRHK4IC9FJ","","1166.3000000715256","img/land4.png","75","1167.6000000238419","2","0","1","2","0.8,0.2,0.2,0.2,0.8,0.2,0.2,0.2,0.8","0.2,0.8,0.2,0.2,0.2,0.8,0.8,0.2,0.2","3","",""
"","html-keyboard-response","203","199292","0.0-203.0","3RJSC4XJ11GA9Y3CVLAU6NL2K6Y50B","AVKMFV9CZ0MLR","3L1EFR8WWTRIL5MKAR1UWRHK4IC9FJ","","null","<img src=""img/land4.png"" style=""width:200px;border:14px solid red;"">","null","","","","","","","","","",""
"","image-keyboard-response","204","200498","0.0-204.0","3RJSC4XJ11GA9Y3CVLAU6NL2K6Y50B","AVKMFV9CZ0MLR","3L1EFR8WWTRIL5MKAR1UWRHK4IC9FJ","","1204.8000000715256","img/land3.png","74","1205.8999999761581","1","0","2","2","0.8,0.2,0.2,0.2,0.8,0.2,0.2,0.2,0.8","0.2,0.8,0.2,0.2,0.2,0.8,0.8,0.2,0.2","3","",""
"","html-keyboard-response","205","200800","0.0-205.0","3RJSC4XJ11GA9Y3CVLAU6NL2K6Y50B","AVKMFV9CZ0MLR","3L1EFR8WWTRIL5MKAR1UWRHK4IC9FJ","","null","<img src=""img/land3.png"" style=""width:200px;border:14px solid red;"">","null","","","","","","","","","",""
"","image-keyboard-response","206","201477","0.0-206.0","3RJSC4XJ11GA9Y3CVLAU6NL2K6Y50B","AVKMFV9CZ0MLR","3L1EFR8WWTRIL5MKAR1UWRHK4IC9FJ","","676.2999999523163","img/land4.png","75","677.3999999761581","2","0","1","2","0.8,0.2,0.2,0.2,0.8,0.2,0.2,0.2,0.8","0.2,0.8,0.2,0.2,0.2,0.8,0.8,0.2,0.2","3","",""
"","html-keyboard-response","207","201779","0.0-207.0","3RJSC4XJ11GA9Y3CVLAU6NL2K6Y50B","AVKMFV9CZ0MLR","3L1EFR8WWTRIL5MKAR1UWRHK4IC9FJ","","null","<img src=""img/land4.png"" style=""width:200px;border:14px solid red;"">","null","","","","","","","","","",""
"","image-keyboard-response","208","202620","0.0-208.0","3RJSC4XJ11GA9Y3CVLAU6NL2K6Y50B","AVKMFV9CZ0MLR","3L1EFR8WWTRIL5MKAR1UWRHK4IC9FJ","","839.6000000238419","img/land3.png","74","840.6999999284744","1","0","2","2","0.8,0.2,0.2,0.2,0.8,0.2,0.2,0.2,0.8","0.2,0.8,0.2,0.2,0.2,0.8,0.8,0.2,0.2","3","",""
"","html-keyboard-response","209","202922","0.0-209.0","3RJSC4XJ11GA9Y3CVLAU6NL2K6Y50B","AVKMFV9CZ0MLR","3L1EFR8WWTRIL5MKAR1UWRHK4IC9FJ","","null","<img src=""img/land3.png"" style=""width:200px;border:14px solid red;"">","null","","","","","","","","","",""
"","image-keyboard-response","210","203495","0.0-210.0","3RJSC4XJ11GA9Y3CVLAU6NL2K6Y50B","AVKMFV9CZ0MLR","3L1EFR8WWTRIL5MKAR1UWRHK4IC9FJ","","572.2999999523163","img/land4.png","75","573.3999999761581","2","0","1","2","0.8,0.2,0.2,0.2,0.8,0.2,0.2,0.2,0.8","0.2,0.8,0.2,0.2,0.2,0.8,0.8,0.2,0.2","3","",""
"","html-keyboard-response","211","203797","0.0-211.0","3RJSC4XJ11GA9Y3CVLAU6NL2K6Y50B","AVKMFV9CZ0MLR","3L1EFR8WWTRIL5MKAR1UWRHK4IC9FJ","","null","<img src=""img/land4.png"" style=""width:200px;border:14px solid red;"">","null","","","","","","","","","",""
"","image-keyboard-response","212","204655","0.0-212.0","3RJSC4XJ11GA9Y3CVLAU6NL2K6Y50B","AVKMFV9CZ0MLR","3L1EFR8WWTRIL5MKAR1UWRHK4IC9FJ","","856.3000000715256","img/land5.png","76","857.3999999761581","3","1","3","2","0.8,0.2,0.2,0.2,0.8,0.2,0.2,0.2,0.8","0.2,0.8,0.2,0.2,0.2,0.8,0.8,0.2,0.2","3","",""
"","html-keyboard-response","213","204957","0.0-213.0","3RJSC4XJ11GA9Y3CVLAU6NL2K6Y50B","AVKMFV9CZ0MLR","3L1EFR8WWTRIL5MKAR1UWRHK4IC9FJ","","null","<img src=""img/land5.png"" style=""width:200px; border:14px solid green;"">","null","","","","","","","","","",""
"","image-keyboard-response","214","205764","0.0-214.0","3RJSC4XJ11GA9Y3CVLAU6NL2K6Y50B","AVKMFV9CZ0MLR","3L1EFR8WWTRIL5MKAR1UWRHK4IC9FJ","","805.7000000476837","img/land3.png","74","806.7999999523163","1","1","2","2","0.8,0.2,0.2,0.2,0.8,0.2,0.2,0.2,0.8","0.2,0.8,0.2,0.2,0.2,0.8,0.8,0.2,0.2","3","",""
"","html-keyboard-response","215","206066","0.0-215.0","3RJSC4XJ11GA9Y3CVLAU6NL2K6Y50B","AVKMFV9CZ0MLR","3L1EFR8WWTRIL5MKAR1UWRHK4IC9FJ","","null","<img src=""img/land3.png"" style=""width:200px; border:14px solid green;"">","null","","","","","","","","","",""
"","image-keyboard-response","216","206943","0.0-216.0","3RJSC4XJ11GA9Y3CVLAU6NL2K6Y50B","AVKMFV9CZ0MLR","3L1EFR8WWTRIL5MKAR1UWRHK4IC9FJ","","875.7999999523163","img/land4.png","75","876.8999999761581","2","1","1","2","0.8,0.2,0.2,0.2,0.8,0.2,0.2,0.2,0.8","0.2,0.8,0.2,0.2,0.2,0.8,0.8,0.2,0.2","3","",""
"","html-keyboard-response","217","207245","0.0-217.0","3RJSC4XJ11GA9Y3CVLAU6NL2K6Y50B","AVKMFV9CZ0MLR","3L1EFR8WWTRIL5MKAR1UWRHK4IC9FJ","","null","<img src=""img/land4.png"" style=""width:200px; border:14px solid green;"">","null","","","","","","","","","",""
"","image-keyboard-response","218","208203","0.0-218.0","3RJSC4XJ11GA9Y3CVLAU6NL2K6Y50B","AVKMFV9CZ0MLR","3L1EFR8WWTRIL5MKAR1UWRHK4IC9FJ","","956.6000000238419","img/land4.png","75","957.7000000476837","2","1","1","2","0.8,0.2,0.2,0.2,0.8,0.2,0.2,0.2,0.8","0.2,0.8,0.2,0.2,0.2,0.8,0.8,0.2,0.2","3","",""
"","html-keyboard-response","219","208505","0.0-219.0","3RJSC4XJ11GA9Y3CVLAU6NL2K6Y50B","AVKMFV9CZ0MLR","3L1EFR8WWTRIL5MKAR1UWRHK4IC9FJ","","null","<img src=""img/land4.png"" style=""width:200px; border:14px solid green;"">","null","","","","","","","","","",""
"","image-keyboard-response","220","209835","0.0-220.0","3RJSC4XJ11GA9Y3CVLAU6NL2K6Y50B","AVKMFV9CZ0MLR","3L1EFR8WWTRIL5MKAR1UWRHK4IC9FJ","","1329.3999999761581","img/land4.png","75","1330.5","2","1","1","2","0.8,0.2,0.2,0.2,0.8,0.2,0.2,0.2,0.8","0.2,0.8,0.2,0.2,0.2,0.8,0.8,0.2,0.2","3","",""
"","html-keyboard-response","221","210138","0.0-221.0","3RJSC4XJ11GA9Y3CVLAU6NL2K6Y50B","AVKMFV9CZ0MLR","3L1EFR8WWTRIL5MKAR1UWRHK4IC9FJ","","null","<img src=""img/land4.png"" style=""width:200px; border:14px solid green;"">","null","","","","","","","","","",""
"","image-keyboard-response","222","210955","0.0-222.0","3RJSC4XJ11GA9Y3CVLAU6NL2K6Y50B","AVKMFV9CZ0MLR","3L1EFR8WWTRIL5MKAR1UWRHK4IC9FJ","","815.6000000238419","img/land5.png","76","816.7000000476837","3","0","3","2","0.8,0.2,0.2,0.2,0.8,0.2,0.2,0.2,0.8","0.2,0.8,0.2,0.2,0.2,0.8,0.8,0.2,0.2","3","",""
"","html-keyboard-response","223","211257","0.0-223.0","3RJSC4XJ11GA9Y3CVLAU6NL2K6Y50B","AVKMFV9CZ0MLR","3L1EFR8WWTRIL5MKAR1UWRHK4IC9FJ","","null","<img src=""img/land5.png"" style=""width:200px;border:14px solid red;"">","null","","","","","","","","","",""
"","image-keyboard-response","224","211959","0.0-224.0","3RJSC4XJ11GA9Y3CVLAU6NL2K6Y50B","AVKMFV9CZ0MLR","3L1EFR8WWTRIL5MKAR1UWRHK4IC9FJ","","701.2000000476837","img/land4.png","74","702.3999999761581","1","0","1","2","0.8,0.2,0.2,0.2,0.8,0.2,0.2,0.2,0.8","0.2,0.8,0.2,0.2,0.2,0.8,0.8,0.2,0.2","3","",""
"","html-keyboard-response","225","212261","0.0-225.0","3RJSC4XJ11GA9Y3CVLAU6NL2K6Y50B","AVKMFV9CZ0MLR","3L1EFR8WWTRIL5MKAR1UWRHK4IC9FJ","","null","<img src=""img/land4.png"" style=""width:200px;border:14px solid red;"">","null","","","","","","","","","",""
"","image-keyboard-response","226","213428","0.0-226.0","3RJSC4XJ11GA9Y3CVLAU6NL2K6Y50B","AVKMFV9CZ0MLR","3L1EFR8WWTRIL5MKAR1UWRHK4IC9FJ","","1165.1999999284744","img/land4.png","75","1166.3000000715256","2","1","1","2","0.8,0.2,0.2,0.2,0.8,0.2,0.2,0.2,0.8","0.2,0.8,0.2,0.2,0.2,0.8,0.8,0.2,0.2","3","",""
"","html-keyboard-response","227","213730","0.0-227.0","3RJSC4XJ11GA9Y3CVLAU6NL2K6Y50B","AVKMFV9CZ0MLR","3L1EFR8WWTRIL5MKAR1UWRHK4IC9FJ","","null","<img src=""img/land4.png"" style=""width:200px; border:14px solid green;"">","null","","","","","","","","","",""
"","image-keyboard-response","228","215326","0.0-228.0","3RJSC4XJ11GA9Y3CVLAU6NL2K6Y50B","AVKMFV9CZ0MLR","3L1EFR8WWTRIL5MKAR1UWRHK4IC9FJ","","1595.1000000238419","img/land4.png","75","1596.3000000715256","2","1","1","2","0.8,0.2,0.2,0.2,0.8,0.2,0.2,0.2,0.8","0.2,0.8,0.2,0.2,0.2,0.8,0.8,0.2,0.2","3","",""
"","html-keyboard-response","229","215629","0.0-229.0","3RJSC4XJ11GA9Y3CVLAU6NL2K6Y50B","AVKMFV9CZ0MLR","3L1EFR8WWTRIL5MKAR1UWRHK4IC9FJ","","null","<img src=""img/land4.png"" style=""width:200px; border:14px solid green;"">","null","","","","","","","","","",""
"","image-keyboard-response","230","216835","0.0-230.0","3RJSC4XJ11GA9Y3CVLAU6NL2K6Y50B","AVKMFV9CZ0MLR","3L1EFR8WWTRIL5MKAR1UWRHK4IC9FJ","","1204.7000000476837","img/land4.png","75","1206.0999999046326","2","0","1","2","0.8,0.2,0.2,0.2,0.8,0.2,0.2,0.2,0.8","0.2,0.8,0.2,0.2,0.2,0.8,0.8,0.2,0.2","3","",""
"","html-keyboard-response","231","217137","0.0-231.0","3RJSC4XJ11GA9Y3CVLAU6NL2K6Y50B","AVKMFV9CZ0MLR","3L1EFR8WWTRIL5MKAR1UWRHK4IC9FJ","","null","<img src=""img/land4.png"" style=""width:200px;border:14px solid red;"">","null","","","","","","","","","",""
"","image-keyboard-response","232","218699","0.0-232.0","3RJSC4XJ11GA9Y3CVLAU6NL2K6Y50B","AVKMFV9CZ0MLR","3L1EFR8WWTRIL5MKAR1UWRHK4IC9FJ","","1560","img/land4.png","75","1561.2999999523163","2","1","1","2","0.8,0.2,0.2,0.2,0.8,0.2,0.2,0.2,0.8","0.2,0.8,0.2,0.2,0.2,0.8,0.8,0.2,0.2","3","",""
"","html-keyboard-response","233","219000","0.0-233.0","3RJSC4XJ11GA9Y3CVLAU6NL2K6Y50B","AVKMFV9CZ0MLR","3L1EFR8WWTRIL5MKAR1UWRHK4IC9FJ","","null","<img src=""img/land4.png"" style=""width:200px; border:14px solid green;"">","null","","","","","","","","","",""
"","image-keyboard-response","234","220402","0.0-234.0","3RJSC4XJ11GA9Y3CVLAU6NL2K6Y50B","AVKMFV9CZ0MLR","3L1EFR8WWTRIL5MKAR1UWRHK4IC9FJ","","1400.3000000715256","img/land4.png","75","1401.3999999761581","2","1","1","2","0.8,0.2,0.2,0.2,0.8,0.2,0.2,0.2,0.8","0.2,0.8,0.2,0.2,0.2,0.8,0.8,0.2,0.2","3","",""
"","html-keyboard-response","235","220703","0.0-235.0","3RJSC4XJ11GA9Y3CVLAU6NL2K6Y50B","AVKMFV9CZ0MLR","3L1EFR8WWTRIL5MKAR1UWRHK4IC9FJ","","null","<img src=""img/land4.png"" style=""width:200px; border:14px solid green;"">","null","","","","","","","","","",""
"","image-keyboard-response","236","221941","0.0-236.0","3RJSC4XJ11GA9Y3CVLAU6NL2K6Y50B","AVKMFV9CZ0MLR","3L1EFR8WWTRIL5MKAR1UWRHK4IC9FJ","","1236.4000000953674","img/land4.png","75","1237.6000000238419","2","1","1","2","0.8,0.2,0.2,0.2,0.8,0.2,0.2,0.2,0.8","0.2,0.8,0.2,0.2,0.2,0.8,0.8,0.2,0.2","3","",""
"","html-keyboard-response","237","222243","0.0-237.0","3RJSC4XJ11GA9Y3CVLAU6NL2K6Y50B","AVKMFV9CZ0MLR","3L1EFR8WWTRIL5MKAR1UWRHK4IC9FJ","","null","<img src=""img/land4.png"" style=""width:200px; border:14px solid green;"">","null","","","","","","","","","",""
"","image-keyboard-response","238","223779","0.0-238.0","3RJSC4XJ11GA9Y3CVLAU6NL2K6Y50B","AVKMFV9CZ0MLR","3L1EFR8WWTRIL5MKAR1UWRHK4IC9FJ","","1535.2999999523163","img/land4.png","75","1536.3999999761581","2","1","1","2","0.8,0.2,0.2,0.2,0.8,0.2,0.2,0.2,0.8","0.2,0.8,0.2,0.2,0.2,0.8,0.8,0.2,0.2","3","",""
"","html-keyboard-response","239","224081","0.0-239.0","3RJSC4XJ11GA9Y3CVLAU6NL2K6Y50B","AVKMFV9CZ0MLR","3L1EFR8WWTRIL5MKAR1UWRHK4IC9FJ","","null","<img src=""img/land4.png"" style=""width:200px; border:14px solid green;"">","null","","","","","","","","","",""
"","image-keyboard-response","240","226083","0.0-240.0","3RJSC4XJ11GA9Y3CVLAU6NL2K6Y50B","AVKMFV9CZ0MLR","3L1EFR8WWTRIL5MKAR1UWRHK4IC9FJ","","","img/land4.png","","2001.8000000715256","-1","0","1","2","0.8,0.2,0.2,0.2,0.8,0.2,0.2,0.2,0.8","0.2,0.8,0.2,0.2,0.2,0.8,0.8,0.2,0.2","3","",""
"","html-keyboard-response","241","226386","0.0-241.0","3RJSC4XJ11GA9Y3CVLAU6NL2K6Y50B","AVKMFV9CZ0MLR","3L1EFR8WWTRIL5MKAR1UWRHK4IC9FJ","","null","<img src=""img/land4.png"" style=""width:200px;border:14px solid red;"">","null","","","","","","","","","",""
"","image-keyboard-response","242","226973","0.0-242.0","3RJSC4XJ11GA9Y3CVLAU6NL2K6Y50B","AVKMFV9CZ0MLR","3L1EFR8WWTRIL5MKAR1UWRHK4IC9FJ","","585.5","img/land3.png","74","586.6000000238419","1","0","2","2","0.8,0.2,0.2,0.2,0.8,0.2,0.2,0.2,0.8","0.2,0.8,0.2,0.2,0.2,0.8,0.8,0.2,0.2","3","",""
"","html-keyboard-response","243","227274","0.0-243.0","3RJSC4XJ11GA9Y3CVLAU6NL2K6Y50B","AVKMFV9CZ0MLR","3L1EFR8WWTRIL5MKAR1UWRHK4IC9FJ","","null","<img src=""img/land3.png"" style=""width:200px;border:14px solid red;"">","null","","","","","","","","","",""
"","image-keyboard-response","244","228060","0.0-244.0","3RJSC4XJ11GA9Y3CVLAU6NL2K6Y50B","AVKMFV9CZ0MLR","3L1EFR8WWTRIL5MKAR1UWRHK4IC9FJ","","785","img/land4.png","75","785.7999999523163","2","1","1","2","0.8,0.2,0.2,0.2,0.8,0.2,0.2,0.2,0.8","0.2,0.8,0.2,0.2,0.2,0.8,0.8,0.2,0.2","3","",""
"","html-keyboard-response","245","228362","0.0-245.0","3RJSC4XJ11GA9Y3CVLAU6NL2K6Y50B","AVKMFV9CZ0MLR","3L1EFR8WWTRIL5MKAR1UWRHK4IC9FJ","","null","<img src=""img/land4.png"" style=""width:200px; border:14px solid green;"">","null","","","","","","","","","",""
"","image-keyboard-response","246","229075","0.0-246.0","3RJSC4XJ11GA9Y3CVLAU6NL2K6Y50B","AVKMFV9CZ0MLR","3L1EFR8WWTRIL5MKAR1UWRHK4IC9FJ","","711.3999999761581","img/land5.png","76","712.6999999284744","3","0","3","2","0.8,0.2,0.2,0.2,0.8,0.2,0.2,0.2,0.8","0.2,0.8,0.2,0.2,0.2,0.8,0.8,0.2,0.2","3","",""
"","html-keyboard-response","247","229377","0.0-247.0","3RJSC4XJ11GA9Y3CVLAU6NL2K6Y50B","AVKMFV9CZ0MLR","3L1EFR8WWTRIL5MKAR1UWRHK4IC9FJ","","null","<img src=""img/land5.png"" style=""width:200px;border:14px solid red;"">","null","","","","","","","","","",""
"","image-keyboard-response","248","230324","0.0-248.0","3RJSC4XJ11GA9Y3CVLAU6NL2K6Y50B","AVKMFV9CZ0MLR","3L1EFR8WWTRIL5MKAR1UWRHK4IC9FJ","","945.6000000238419","img/land4.png","75","946.5999999046326","2","1","1","2","0.8,0.2,0.2,0.2,0.8,0.2,0.2,0.2,0.8","0.2,0.8,0.2,0.2,0.2,0.8,0.8,0.2,0.2","3","",""
"","html-keyboard-response","249","230626","0.0-249.0","3RJSC4XJ11GA9Y3CVLAU6NL2K6Y50B","AVKMFV9CZ0MLR","3L1EFR8WWTRIL5MKAR1UWRHK4IC9FJ","","null","<img src=""img/land4.png"" style=""width:200px; border:14px solid green;"">","null","","","","","","","","","",""
"","image-keyboard-response","250","231453","0.0-250.0","3RJSC4XJ11GA9Y3CVLAU6NL2K6Y50B","AVKMFV9CZ0MLR","3L1EFR8WWTRIL5MKAR1UWRHK4IC9FJ","","825.7999999523163","img/land5.png","76","827","3","1","3","2","0.8,0.2,0.2,0.2,0.8,0.2,0.2,0.2,0.8","0.2,0.8,0.2,0.2,0.2,0.8,0.8,0.2,0.2","3","",""
"","html-keyboard-response","251","231755","0.0-251.0","3RJSC4XJ11GA9Y3CVLAU6NL2K6Y50B","AVKMFV9CZ0MLR","3L1EFR8WWTRIL5MKAR1UWRHK4IC9FJ","","null","<img src=""img/land5.png"" style=""width:200px; border:14px solid green;"">","null","","","","","","","","","",""
"","image-keyboard-response","252","232542","0.0-252.0","3RJSC4XJ11GA9Y3CVLAU6NL2K6Y50B","AVKMFV9CZ0MLR","3L1EFR8WWTRIL5MKAR1UWRHK4IC9FJ","","786.0999999046326","img/land4.png","75","787.2000000476837","2","1","1","2","0.8,0.2,0.2,0.2,0.8,0.2,0.2,0.2,0.8","0.2,0.8,0.2,0.2,0.2,0.8,0.8,0.2,0.2","3","",""
"","html-keyboard-response","253","232844","0.0-253.0","3RJSC4XJ11GA9Y3CVLAU6NL2K6Y50B","AVKMFV9CZ0MLR","3L1EFR8WWTRIL5MKAR1UWRHK4IC9FJ","","null","<img src=""img/land4.png"" style=""width:200px; border:14px solid green;"">","null","","","","","","","","","",""
"","image-keyboard-response","254","234847","0.0-254.0","3RJSC4XJ11GA9Y3CVLAU6NL2K6Y50B","AVKMFV9CZ0MLR","3L1EFR8WWTRIL5MKAR1UWRHK4IC9FJ","","","img/land4.png","","2002.5999999046326","-1","0","1","2","0.8,0.2,0.2,0.2,0.8,0.2,0.2,0.2,0.8","0.2,0.8,0.2,0.2,0.2,0.8,0.8,0.2,0.2","3","",""
"","html-keyboard-response","255","235150","0.0-255.0","3RJSC4XJ11GA9Y3CVLAU6NL2K6Y50B","AVKMFV9CZ0MLR","3L1EFR8WWTRIL5MKAR1UWRHK4IC9FJ","","null","<img src=""img/land4.png"" style=""width:200px;border:14px solid red;"">","null","","","","","","","","","",""
"","image-keyboard-response","256","236215","0.0-256.0","3RJSC4XJ11GA9Y3CVLAU6NL2K6Y50B","AVKMFV9CZ0MLR","3L1EFR8WWTRIL5MKAR1UWRHK4IC9FJ","","1063.2000000476837","img/land4.png","75","1064.3999999761581","2","1","1","2","0.8,0.2,0.2,0.2,0.8,0.2,0.2,0.2,0.8","0.2,0.8,0.2,0.2,0.2,0.8,0.8,0.2,0.2","3","",""
"","html-keyboard-response","257","236517","0.0-257.0","3RJSC4XJ11GA9Y3CVLAU6NL2K6Y50B","AVKMFV9CZ0MLR","3L1EFR8WWTRIL5MKAR1UWRHK4IC9FJ","","null","<img src=""img/land4.png"" style=""width:200px; border:14px solid green;"">","null","","","","","","","","","",""
"","image-keyboard-response","258","237293","0.0-258.0","3RJSC4XJ11GA9Y3CVLAU6NL2K6Y50B","AVKMFV9CZ0MLR","3L1EFR8WWTRIL5MKAR1UWRHK4IC9FJ","","775.3999999761581","img/land5.png","76","776.3999999761581","3","0","3","2","0.8,0.2,0.2,0.2,0.8,0.2,0.2,0.2,0.8","0.2,0.8,0.2,0.2,0.2,0.8,0.8,0.2,0.2","3","",""
"","html-keyboard-response","259","237595","0.0-259.0","3RJSC4XJ11GA9Y3CVLAU6NL2K6Y50B","AVKMFV9CZ0MLR","3L1EFR8WWTRIL5MKAR1UWRHK4IC9FJ","","null","<img src=""img/land5.png"" style=""width:200px;border:14px solid red;"">","null","","","","","","","","","",""
"","image-keyboard-response","260","238463","0.0-260.0","3RJSC4XJ11GA9Y3CVLAU6NL2K6Y50B","AVKMFV9CZ0MLR","3L1EFR8WWTRIL5MKAR1UWRHK4IC9FJ","","867.2000000476837","img/land4.png","75","868.1000000238419","2","1","1","2","0.8,0.2,0.2,0.2,0.8,0.2,0.2,0.2,0.8","0.2,0.8,0.2,0.2,0.2,0.8,0.8,0.2,0.2","3","",""
"","html-keyboard-response","261","238765","0.0-261.0","3RJSC4XJ11GA9Y3CVLAU6NL2K6Y50B","AVKMFV9CZ0MLR","3L1EFR8WWTRIL5MKAR1UWRHK4IC9FJ","","null","<img src=""img/land4.png"" style=""width:200px; border:14px solid green;"">","null","","","","","","","","","",""
"","image-keyboard-response","262","240768","0.0-262.0","3RJSC4XJ11GA9Y3CVLAU6NL2K6Y50B","AVKMFV9CZ0MLR","3L1EFR8WWTRIL5MKAR1UWRHK4IC9FJ","","","img/land4.png","","2002.2000000476837","-1","0","1","2","0.8,0.2,0.2,0.2,0.8,0.2,0.2,0.2,0.8","0.2,0.8,0.2,0.2,0.2,0.8,0.8,0.2,0.2","3","",""
"","html-keyboard-response","263","241070","0.0-263.0","3RJSC4XJ11GA9Y3CVLAU6NL2K6Y50B","AVKMFV9CZ0MLR","3L1EFR8WWTRIL5MKAR1UWRHK4IC9FJ","","null","<img src=""img/land4.png"" style=""width:200px;border:14px solid red;"">","null","","","","","","","","","",""
"","image-keyboard-response","264","241661","0.0-264.0","3RJSC4XJ11GA9Y3CVLAU6NL2K6Y50B","AVKMFV9CZ0MLR","3L1EFR8WWTRIL5MKAR1UWRHK4IC9FJ","","589.6000000238419","img/land3.png","74","590.6999999284744","1","0","2","2","0.8,0.2,0.2,0.2,0.8,0.2,0.2,0.2,0.8","0.2,0.8,0.2,0.2,0.2,0.8,0.8,0.2,0.2","3","",""
"","html-keyboard-response","265","241963","0.0-265.0","3RJSC4XJ11GA9Y3CVLAU6NL2K6Y50B","AVKMFV9CZ0MLR","3L1EFR8WWTRIL5MKAR1UWRHK4IC9FJ","","null","<img src=""img/land3.png"" style=""width:200px;border:14px solid red;"">","null","","","","","","","","","",""
"","image-keyboard-response","266","242714","0.0-266.0","3RJSC4XJ11GA9Y3CVLAU6NL2K6Y50B","AVKMFV9CZ0MLR","3L1EFR8WWTRIL5MKAR1UWRHK4IC9FJ","","749.8999999761581","img/land4.png","75","751.1999999284744","2","1","1","2","0.8,0.2,0.2,0.2,0.8,0.2,0.2,0.2,0.8","0.2,0.8,0.2,0.2,0.2,0.8,0.8,0.2,0.2","3","",""
"","html-keyboard-response","267","243016","0.0-267.0","3RJSC4XJ11GA9Y3CVLAU6NL2K6Y50B","AVKMFV9CZ0MLR","3L1EFR8WWTRIL5MKAR1UWRHK4IC9FJ","","null","<img src=""img/land4.png"" style=""width:200px; border:14px solid green;"">","null","","","","","","","","","",""
"","image-keyboard-response","268","243694","0.0-268.0","3RJSC4XJ11GA9Y3CVLAU6NL2K6Y50B","AVKMFV9CZ0MLR","3L1EFR8WWTRIL5MKAR1UWRHK4IC9FJ","","676.7999999523163","img/land5.png","76","678","3","0","3","2","0.8,0.2,0.2,0.2,0.8,0.2,0.2,0.2,0.8","0.2,0.8,0.2,0.2,0.2,0.8,0.8,0.2,0.2","3","",""
"","html-keyboard-response","269","243996","0.0-269.0","3RJSC4XJ11GA9Y3CVLAU6NL2K6Y50B","AVKMFV9CZ0MLR","3L1EFR8WWTRIL5MKAR1UWRHK4IC9FJ","","null","<img src=""img/land5.png"" style=""width:200px;border:14px solid red;"">","null","","","","","","","","","",""
"","image-keyboard-response","270","245999","0.0-270.0","3RJSC4XJ11GA9Y3CVLAU6NL2K6Y50B","AVKMFV9CZ0MLR","3L1EFR8WWTRIL5MKAR1UWRHK4IC9FJ","","","img/land5.png","","2002.5","-1","0","3","2","0.8,0.2,0.2,0.2,0.8,0.2,0.2,0.2,0.8","0.2,0.8,0.2,0.2,0.2,0.8,0.8,0.2,0.2","3","",""
"","html-keyboard-response","271","246300","0.0-271.0","3RJSC4XJ11GA9Y3CVLAU6NL2K6Y50B","AVKMFV9CZ0MLR","3L1EFR8WWTRIL5MKAR1UWRHK4IC9FJ","","null","<img src=""img/land5.png"" style=""width:200px;border:14px solid red;"">","null","","","","","","","","","",""
"","image-keyboard-response","272","247220","0.0-272.0","3RJSC4XJ11GA9Y3CVLAU6NL2K6Y50B","AVKMFV9CZ0MLR","3L1EFR8WWTRIL5MKAR1UWRHK4IC9FJ","","918.8999999761581","img/land4.png","75","920","2","1","1","2","0.8,0.2,0.2,0.2,0.8,0.2,0.2,0.2,0.8","0.2,0.8,0.2,0.2,0.2,0.8,0.8,0.2,0.2","3","",""
"","html-keyboard-response","273","247522","0.0-273.0","3RJSC4XJ11GA9Y3CVLAU6NL2K6Y50B","AVKMFV9CZ0MLR","3L1EFR8WWTRIL5MKAR1UWRHK4IC9FJ","","null","<img src=""img/land4.png"" style=""width:200px; border:14px solid green;"">","null","","","","","","","","","",""
"","image-keyboard-response","274","249524","0.0-274.0","3RJSC4XJ11GA9Y3CVLAU6NL2K6Y50B","AVKMFV9CZ0MLR","3L1EFR8WWTRIL5MKAR1UWRHK4IC9FJ","","","img/land4.png","","2001.7999999523163","-1","0","1","2","0.8,0.2,0.2,0.2,0.8,0.2,0.2,0.2,0.8","0.2,0.8,0.2,0.2,0.2,0.8,0.8,0.2,0.2","3","",""
"","html-keyboard-response","275","249827","0.0-275.0","3RJSC4XJ11GA9Y3CVLAU6NL2K6Y50B","AVKMFV9CZ0MLR","3L1EFR8WWTRIL5MKAR1UWRHK4IC9FJ","","null","<img src=""img/land4.png"" style=""width:200px;border:14px solid red;"">","null","","","","","","","","","",""
"","image-keyboard-response","276","250364","0.0-276.0","3RJSC4XJ11GA9Y3CVLAU6NL2K6Y50B","AVKMFV9CZ0MLR","3L1EFR8WWTRIL5MKAR1UWRHK4IC9FJ","","536.3000000715256","img/land4.png","75","537.5","2","1","1","2","0.8,0.2,0.2,0.2,0.8,0.2,0.2,0.2,0.8","0.2,0.8,0.2,0.2,0.2,0.8,0.8,0.2,0.2","3","",""
"","html-keyboard-response","277","250667","0.0-277.0","3RJSC4XJ11GA9Y3CVLAU6NL2K6Y50B","AVKMFV9CZ0MLR","3L1EFR8WWTRIL5MKAR1UWRHK4IC9FJ","","null","<img src=""img/land4.png"" style=""width:200px; border:14px solid green;"">","null","","","","","","","","","",""
"","image-keyboard-response","278","252377","0.0-278.0","3RJSC4XJ11GA9Y3CVLAU6NL2K6Y50B","AVKMFV9CZ0MLR","3L1EFR8WWTRIL5MKAR1UWRHK4IC9FJ","","1709","img/land4.png","75","1710","2","0","1","2","0.8,0.2,0.2,0.2,0.8,0.2,0.2,0.2,0.8","0.2,0.8,0.2,0.2,0.2,0.8,0.8,0.2,0.2","3","",""
"","html-keyboard-response","279","252679","0.0-279.0","3RJSC4XJ11GA9Y3CVLAU6NL2K6Y50B","AVKMFV9CZ0MLR","3L1EFR8WWTRIL5MKAR1UWRHK4IC9FJ","","null","<img src=""img/land4.png"" style=""width:200px;border:14px solid red;"">","null","","","","","","","","","",""
"","image-keyboard-response","280","253566","0.0-280.0","3RJSC4XJ11GA9Y3CVLAU6NL2K6Y50B","AVKMFV9CZ0MLR","3L1EFR8WWTRIL5MKAR1UWRHK4IC9FJ","","884.9000000953674","img/land5.png","76","886.1000000238419","3","0","3","2","0.8,0.2,0.2,0.2,0.8,0.2,0.2,0.2,0.8","0.2,0.8,0.2,0.2,0.2,0.8,0.8,0.2,0.2","3","",""
"","html-keyboard-response","281","253867","0.0-281.0","3RJSC4XJ11GA9Y3CVLAU6NL2K6Y50B","AVKMFV9CZ0MLR","3L1EFR8WWTRIL5MKAR1UWRHK4IC9FJ","","null","<img src=""img/land5.png"" style=""width:200px;border:14px solid red;"">","null","","","","","","","","","",""
"","image-keyboard-response","282","255870","0.0-282.0","3RJSC4XJ11GA9Y3CVLAU6NL2K6Y50B","AVKMFV9CZ0MLR","3L1EFR8WWTRIL5MKAR1UWRHK4IC9FJ","","","img/land5.png","","2002","-1","0","3","2","0.8,0.2,0.2,0.2,0.8,0.2,0.2,0.2,0.8","0.2,0.8,0.2,0.2,0.2,0.8,0.8,0.2,0.2","3","",""
"","html-keyboard-response","283","256172","0.0-283.0","3RJSC4XJ11GA9Y3CVLAU6NL2K6Y50B","AVKMFV9CZ0MLR","3L1EFR8WWTRIL5MKAR1UWRHK4IC9FJ","","null","<img src=""img/land5.png"" style=""width:200px;border:14px solid red;"">","null","","","","","","","","","",""
"","image-keyboard-response","284","256837","0.0-284.0","3RJSC4XJ11GA9Y3CVLAU6NL2K6Y50B","AVKMFV9CZ0MLR","3L1EFR8WWTRIL5MKAR1UWRHK4IC9FJ","","663.5","img/land4.png","75","664.6000000238419","2","0","1","2","0.8,0.2,0.2,0.2,0.8,0.2,0.2,0.2,0.8","0.2,0.8,0.2,0.2,0.2,0.8,0.8,0.2,0.2","3","",""
"","html-keyboard-response","285","257140","0.0-285.0","3RJSC4XJ11GA9Y3CVLAU6NL2K6Y50B","AVKMFV9CZ0MLR","3L1EFR8WWTRIL5MKAR1UWRHK4IC9FJ","","null","<img src=""img/land4.png"" style=""width:200px;border:14px solid red;"">","null","","","","","","","","","",""
"","image-keyboard-response","286","259143","0.0-286.0","3RJSC4XJ11GA9Y3CVLAU6NL2K6Y50B","AVKMFV9CZ0MLR","3L1EFR8WWTRIL5MKAR1UWRHK4IC9FJ","","","img/land4.png","","2003","-1","0","1","2","0.8,0.2,0.2,0.2,0.8,0.2,0.2,0.2,0.8","0.2,0.8,0.2,0.2,0.2,0.8,0.8,0.2,0.2","3","",""
"","html-keyboard-response","287","259445","0.0-287.0","3RJSC4XJ11GA9Y3CVLAU6NL2K6Y50B","AVKMFV9CZ0MLR","3L1EFR8WWTRIL5MKAR1UWRHK4IC9FJ","","null","<img src=""img/land4.png"" style=""width:200px;border:14px solid red;"">","null","","","","","","","","","",""
"","image-keyboard-response","288","260050","0.0-288.0","3RJSC4XJ11GA9Y3CVLAU6NL2K6Y50B","AVKMFV9CZ0MLR","3L1EFR8WWTRIL5MKAR1UWRHK4IC9FJ","","603.8999999761581","img/land3.png","74","604.8999999761581","1","0","2","2","0.8,0.2,0.2,0.2,0.8,0.2,0.2,0.2,0.8","0.2,0.8,0.2,0.2,0.2,0.8,0.8,0.2,0.2","3","",""
"","html-keyboard-response","289","260351","0.0-289.0","3RJSC4XJ11GA9Y3CVLAU6NL2K6Y50B","AVKMFV9CZ0MLR","3L1EFR8WWTRIL5MKAR1UWRHK4IC9FJ","","null","<img src=""img/land3.png"" style=""width:200px;border:14px solid red;"">","null","","","","","","","","","",""
"","image-keyboard-response","290","261190","0.0-290.0","3RJSC4XJ11GA9Y3CVLAU6NL2K6Y50B","AVKMFV9CZ0MLR","3L1EFR8WWTRIL5MKAR1UWRHK4IC9FJ","","837.3000000715256","img/land4.png","75","838.5","2","1","1","2","0.8,0.2,0.2,0.2,0.8,0.2,0.2,0.2,0.8","0.2,0.8,0.2,0.2,0.2,0.8,0.8,0.2,0.2","3","",""
"","html-keyboard-response","291","261493","0.0-291.0","3RJSC4XJ11GA9Y3CVLAU6NL2K6Y50B","AVKMFV9CZ0MLR","3L1EFR8WWTRIL5MKAR1UWRHK4IC9FJ","","null","<img src=""img/land4.png"" style=""width:200px; border:14px solid green;"">","null","","","","","","","","","",""
"","image-keyboard-response","292","263495","0.0-292.0","3RJSC4XJ11GA9Y3CVLAU6NL2K6Y50B","AVKMFV9CZ0MLR","3L1EFR8WWTRIL5MKAR1UWRHK4IC9FJ","","","img/land4.png","","2001.8999999761581","-1","0","1","2","0.8,0.2,0.2,0.2,0.8,0.2,0.2,0.2,0.8","0.2,0.8,0.2,0.2,0.2,0.8,0.8,0.2,0.2","3","",""
"","html-keyboard-response","293","263796","0.0-293.0","3RJSC4XJ11GA9Y3CVLAU6NL2K6Y50B","AVKMFV9CZ0MLR","3L1EFR8WWTRIL5MKAR1UWRHK4IC9FJ","","null","<img src=""img/land4.png"" style=""width:200px;border:14px solid red;"">","null","","","","","","","","","",""
"","image-keyboard-response","294","264491","0.0-294.0","3RJSC4XJ11GA9Y3CVLAU6NL2K6Y50B","AVKMFV9CZ0MLR","3L1EFR8WWTRIL5MKAR1UWRHK4IC9FJ","","693","img/land3.png","74","694.1000000238419","1","0","2","2","0.8,0.2,0.2,0.2,0.8,0.2,0.2,0.2,0.8","0.2,0.8,0.2,0.2,0.2,0.8,0.8,0.2,0.2","3","",""
"","html-keyboard-response","295","264793","0.0-295.0","3RJSC4XJ11GA9Y3CVLAU6NL2K6Y50B","AVKMFV9CZ0MLR","3L1EFR8WWTRIL5MKAR1UWRHK4IC9FJ","","null","<img src=""img/land3.png"" style=""width:200px;border:14px solid red;"">","null","","","","","","","","","",""
"","image-keyboard-response","296","265741","0.0-296.0","3RJSC4XJ11GA9Y3CVLAU6NL2K6Y50B","AVKMFV9CZ0MLR","3L1EFR8WWTRIL5MKAR1UWRHK4IC9FJ","","946.3999999761581","img/land5.png","76","947.5999999046326","3","0","3","2","0.8,0.2,0.2,0.2,0.8,0.2,0.2,0.2,0.8","0.2,0.8,0.2,0.2,0.2,0.8,0.8,0.2,0.2","3","",""
"","html-keyboard-response","297","266043","0.0-297.0","3RJSC4XJ11GA9Y3CVLAU6NL2K6Y50B","AVKMFV9CZ0MLR","3L1EFR8WWTRIL5MKAR1UWRHK4IC9FJ","","null","<img src=""img/land5.png"" style=""width:200px;border:14px solid red;"">","null","","","","","","","","","",""
"","image-keyboard-response","298","266964","0.0-298.0","3RJSC4XJ11GA9Y3CVLAU6NL2K6Y50B","AVKMFV9CZ0MLR","3L1EFR8WWTRIL5MKAR1UWRHK4IC9FJ","","920","img/land4.png","75","921.1999999284744","2","1","1","2","0.8,0.2,0.2,0.2,0.8,0.2,0.2,0.2,0.8","0.2,0.8,0.2,0.2,0.2,0.8,0.8,0.2,0.2","3","",""
"","html-keyboard-response","299","267267","0.0-299.0","3RJSC4XJ11GA9Y3CVLAU6NL2K6Y50B","AVKMFV9CZ0MLR","3L1EFR8WWTRIL5MKAR1UWRHK4IC9FJ","","null","<img src=""img/land4.png"" style=""width:200px; border:14px solid green;"">","null","","","","","","","","","",""
"","image-keyboard-response","300","269269","0.0-300.0","3RJSC4XJ11GA9Y3CVLAU6NL2K6Y50B","AVKMFV9CZ0MLR","3L1EFR8WWTRIL5MKAR1UWRHK4IC9FJ","","","img/land4.png","","2001.6999999284744","-1","0","1","2","0.8,0.2,0.2,0.2,0.8,0.2,0.2,0.2,0.8","0.2,0.8,0.2,0.2,0.2,0.8,0.8,0.2,0.2","3","",""
"","html-keyboard-response","301","269571","0.0-301.0","3RJSC4XJ11GA9Y3CVLAU6NL2K6Y50B","AVKMFV9CZ0MLR","3L1EFR8WWTRIL5MKAR1UWRHK4IC9FJ","","null","<img src=""img/land4.png"" style=""width:200px;border:14px solid red;"">","null","","","","","","","","","",""
"","image-keyboard-response","302","271573","0.0-302.0","3RJSC4XJ11GA9Y3CVLAU6NL2K6Y50B","AVKMFV9CZ0MLR","3L1EFR8WWTRIL5MKAR1UWRHK4IC9FJ","","","img/land2.png","","2001.7999999523163","-1","0","1","1","0.8,0.2,0.2,0.2,0.8,0.2,0.2,0.2,0.8","0.8,0.2,0.2,0.2,0.8,0.2,0.2,0.2,0.8","1","",""
"","html-keyboard-response","303","271876","0.0-303.0","3RJSC4XJ11GA9Y3CVLAU6NL2K6Y50B","AVKMFV9CZ0MLR","3L1EFR8WWTRIL5MKAR1UWRHK4IC9FJ","","null","<img src=""img/land2.png"" style=""width:200px;border:14px solid red;"">","null","","","","","","","","","",""
"","image-keyboard-response","304","273878","0.0-304.0","3RJSC4XJ11GA9Y3CVLAU6NL2K6Y50B","AVKMFV9CZ0MLR","3L1EFR8WWTRIL5MKAR1UWRHK4IC9FJ","","","img/land2.png","","2002.2000000476837","-1","0","1","1","0.8,0.2,0.2,0.2,0.8,0.2,0.2,0.2,0.8","0.8,0.2,0.2,0.2,0.8,0.2,0.2,0.2,0.8","1","",""
"","html-keyboard-response","305","274180","0.0-305.0","3RJSC4XJ11GA9Y3CVLAU6NL2K6Y50B","AVKMFV9CZ0MLR","3L1EFR8WWTRIL5MKAR1UWRHK4IC9FJ","","null","<img src=""img/land2.png"" style=""width:200px;border:14px solid red;"">","null","","","","","","","","","",""
"","image-keyboard-response","306","276182","0.0-306.0","3RJSC4XJ11GA9Y3CVLAU6NL2K6Y50B","AVKMFV9CZ0MLR","3L1EFR8WWTRIL5MKAR1UWRHK4IC9FJ","","","img/land6.png","","2002.1000000238419","-1","0","2","1","0.8,0.2,0.2,0.2,0.8,0.2,0.2,0.2,0.8","0.8,0.2,0.2,0.2,0.8,0.2,0.2,0.2,0.8","1","",""
"","html-keyboard-response","307","276485","0.0-307.0","3RJSC4XJ11GA9Y3CVLAU6NL2K6Y50B","AVKMFV9CZ0MLR","3L1EFR8WWTRIL5MKAR1UWRHK4IC9FJ","","null","<img src=""img/land6.png"" style=""width:200px;border:14px solid red;"">","null","","","","","","","","","",""
"","image-keyboard-response","308","276691","0.0-308.0","3RJSC4XJ11GA9Y3CVLAU6NL2K6Y50B","AVKMFV9CZ0MLR","3L1EFR8WWTRIL5MKAR1UWRHK4IC9FJ","","204.69999992847443","img/land2.png","75","205.89999997615814","2","1","1","1","0.8,0.2,0.2,0.2,0.8,0.2,0.2,0.2,0.8","0.8,0.2,0.2,0.2,0.8,0.2,0.2,0.2,0.8","1","",""
"","html-keyboard-response","309","276993","0.0-309.0","3RJSC4XJ11GA9Y3CVLAU6NL2K6Y50B","AVKMFV9CZ0MLR","3L1EFR8WWTRIL5MKAR1UWRHK4IC9FJ","","null","<img src=""img/land2.png"" style=""width:200px; border:14px solid green;"">","null","","","","","","","","","",""
"","image-keyboard-response","310","278160","0.0-310.0","3RJSC4XJ11GA9Y3CVLAU6NL2K6Y50B","AVKMFV9CZ0MLR","3L1EFR8WWTRIL5MKAR1UWRHK4IC9FJ","","1165.8000000715256","img/land6.png","75","1167","2","0","2","1","0.8,0.2,0.2,0.2,0.8,0.2,0.2,0.2,0.8","0.8,0.2,0.2,0.2,0.8,0.2,0.2,0.2,0.8","1","",""
"","html-keyboard-response","311","278462","0.0-311.0","3RJSC4XJ11GA9Y3CVLAU6NL2K6Y50B","AVKMFV9CZ0MLR","3L1EFR8WWTRIL5MKAR1UWRHK4IC9FJ","","null","<img src=""img/land6.png"" style=""width:200px;border:14px solid red;"">","null","","","","","","","","","",""
"","image-keyboard-response","312","280148","0.0-312.0","3RJSC4XJ11GA9Y3CVLAU6NL2K6Y50B","AVKMFV9CZ0MLR","3L1EFR8WWTRIL5MKAR1UWRHK4IC9FJ","","1684.5999999046326","img/land2.png","75","1685.8000000715256","2","0","1","1","0.8,0.2,0.2,0.2,0.8,0.2,0.2,0.2,0.8","0.8,0.2,0.2,0.2,0.8,0.2,0.2,0.2,0.8","1","",""
"","html-keyboard-response","313","280450","0.0-313.0","3RJSC4XJ11GA9Y3CVLAU6NL2K6Y50B","AVKMFV9CZ0MLR","3L1EFR8WWTRIL5MKAR1UWRHK4IC9FJ","","null","<img src=""img/land2.png"" style=""width:200px;border:14px solid red;"">","null","","","","","","","","","",""
"","image-keyboard-response","314","282452","0.0-314.0","3RJSC4XJ11GA9Y3CVLAU6NL2K6Y50B","AVKMFV9CZ0MLR","3L1EFR8WWTRIL5MKAR1UWRHK4IC9FJ","","","img/land2.png","","2001.5","-1","0","1","1","0.8,0.2,0.2,0.2,0.8,0.2,0.2,0.2,0.8","0.8,0.2,0.2,0.2,0.8,0.2,0.2,0.2,0.8","1","",""
"","html-keyboard-response","315","282753","0.0-315.0","3RJSC4XJ11GA9Y3CVLAU6NL2K6Y50B","AVKMFV9CZ0MLR","3L1EFR8WWTRIL5MKAR1UWRHK4IC9FJ","","null","<img src=""img/land2.png"" style=""width:200px;border:14px solid red;"">","null","","","","","","","","","",""
"","image-keyboard-response","316","284005","0.0-316.0","3RJSC4XJ11GA9Y3CVLAU6NL2K6Y50B","AVKMFV9CZ0MLR","3L1EFR8WWTRIL5MKAR1UWRHK4IC9FJ","","1250.5","img/land1.png","75","1251.5","2","1","3","1","0.8,0.2,0.2,0.2,0.8,0.2,0.2,0.2,0.8","0.8,0.2,0.2,0.2,0.8,0.2,0.2,0.2,0.8","1","",""
"","html-keyboard-response","317","284307","0.0-317.0","3RJSC4XJ11GA9Y3CVLAU6NL2K6Y50B","AVKMFV9CZ0MLR","3L1EFR8WWTRIL5MKAR1UWRHK4IC9FJ","","null","<img src=""img/land1.png"" style=""width:200px; border:14px solid green;"">","null","","","","","","","","","",""
"","image-keyboard-response","318","285017","0.0-318.0","3RJSC4XJ11GA9Y3CVLAU6NL2K6Y50B","AVKMFV9CZ0MLR","3L1EFR8WWTRIL5MKAR1UWRHK4IC9FJ","","709.7000000476837","img/land6.png","75","710.2999999523163","2","1","2","1","0.8,0.2,0.2,0.2,0.8,0.2,0.2,0.2,0.8","0.8,0.2,0.2,0.2,0.8,0.2,0.2,0.2,0.8","1","",""
"","html-keyboard-response","319","285319","0.0-319.0","3RJSC4XJ11GA9Y3CVLAU6NL2K6Y50B","AVKMFV9CZ0MLR","3L1EFR8WWTRIL5MKAR1UWRHK4IC9FJ","","null","<img src=""img/land6.png"" style=""width:200px; border:14px solid green;"">","null","","","","","","","","","",""
"","image-keyboard-response","320","287167","0.0-320.0","3RJSC4XJ11GA9Y3CVLAU6NL2K6Y50B","AVKMFV9CZ0MLR","3L1EFR8WWTRIL5MKAR1UWRHK4IC9FJ","","1847.2999999523163","img/land6.png","75","1848","2","1","2","1","0.8,0.2,0.2,0.2,0.8,0.2,0.2,0.2,0.8","0.8,0.2,0.2,0.2,0.8,0.2,0.2,0.2,0.8","1","",""
"","html-keyboard-response","321","287468","0.0-321.0","3RJSC4XJ11GA9Y3CVLAU6NL2K6Y50B","AVKMFV9CZ0MLR","3L1EFR8WWTRIL5MKAR1UWRHK4IC9FJ","","null","<img src=""img/land6.png"" style=""width:200px; border:14px solid green;"">","null","","","","","","","","","",""
"","image-keyboard-response","322","288101","0.0-322.0","3RJSC4XJ11GA9Y3CVLAU6NL2K6Y50B","AVKMFV9CZ0MLR","3L1EFR8WWTRIL5MKAR1UWRHK4IC9FJ","","632.1000000238419","img/land1.png","75","632.9000000953674","2","0","3","1","0.8,0.2,0.2,0.2,0.8,0.2,0.2,0.2,0.8","0.8,0.2,0.2,0.2,0.8,0.2,0.2,0.2,0.8","1","",""
"","html-keyboard-response","323","288403","0.0-323.0","3RJSC4XJ11GA9Y3CVLAU6NL2K6Y50B","AVKMFV9CZ0MLR","3L1EFR8WWTRIL5MKAR1UWRHK4IC9FJ","","null","<img src=""img/land1.png"" style=""width:200px;border:14px solid red;"">","null","","","","","","","","","",""
"","image-keyboard-response","324","290405","0.0-324.0","3RJSC4XJ11GA9Y3CVLAU6NL2K6Y50B","AVKMFV9CZ0MLR","3L1EFR8WWTRIL5MKAR1UWRHK4IC9FJ","","","img/land1.png","","2002","-1","0","3","1","0.8,0.2,0.2,0.2,0.8,0.2,0.2,0.2,0.8","0.8,0.2,0.2,0.2,0.8,0.2,0.2,0.2,0.8","1","",""
"","html-keyboard-response","325","290707","0.0-325.0","3RJSC4XJ11GA9Y3CVLAU6NL2K6Y50B","AVKMFV9CZ0MLR","3L1EFR8WWTRIL5MKAR1UWRHK4IC9FJ","","null","<img src=""img/land1.png"" style=""width:200px;border:14px solid red;"">","null","","","","","","","","","",""
"","image-keyboard-response","326","291356","0.0-326.0","3RJSC4XJ11GA9Y3CVLAU6NL2K6Y50B","AVKMFV9CZ0MLR","3L1EFR8WWTRIL5MKAR1UWRHK4IC9FJ","","647.3999999761581","img/land2.png","75","648.4000000953674","2","1","1","1","0.8,0.2,0.2,0.2,0.8,0.2,0.2,0.2,0.8","0.8,0.2,0.2,0.2,0.8,0.2,0.2,0.2,0.8","1","",""
"","html-keyboard-response","327","291657","0.0-327.0","3RJSC4XJ11GA9Y3CVLAU6NL2K6Y50B","AVKMFV9CZ0MLR","3L1EFR8WWTRIL5MKAR1UWRHK4IC9FJ","","null","<img src=""img/land2.png"" style=""width:200px; border:14px solid green;"">","null","","","","","","","","","",""
"","image-keyboard-response","328","292258","0.0-328.0","3RJSC4XJ11GA9Y3CVLAU6NL2K6Y50B","AVKMFV9CZ0MLR","3L1EFR8WWTRIL5MKAR1UWRHK4IC9FJ","","599.8000000715256","img/land1.png","75","600.8000000715256","2","0","3","1","0.8,0.2,0.2,0.2,0.8,0.2,0.2,0.2,0.8","0.8,0.2,0.2,0.2,0.8,0.2,0.2,0.2,0.8","1","",""
"","html-keyboard-response","329","292561","0.0-329.0","3RJSC4XJ11GA9Y3CVLAU6NL2K6Y50B","AVKMFV9CZ0MLR","3L1EFR8WWTRIL5MKAR1UWRHK4IC9FJ","","null","<img src=""img/land1.png"" style=""width:200px;border:14px solid red;"">","null","","","","","","","","","",""
"","image-keyboard-response","330","293243","0.0-330.0","3RJSC4XJ11GA9Y3CVLAU6NL2K6Y50B","AVKMFV9CZ0MLR","3L1EFR8WWTRIL5MKAR1UWRHK4IC9FJ","","680.8999999761581","img/land6.png","75","681.9000000953674","2","1","2","1","0.8,0.2,0.2,0.2,0.8,0.2,0.2,0.2,0.8","0.8,0.2,0.2,0.2,0.8,0.2,0.2,0.2,0.8","1","",""
"","html-keyboard-response","331","293546","0.0-331.0","3RJSC4XJ11GA9Y3CVLAU6NL2K6Y50B","AVKMFV9CZ0MLR","3L1EFR8WWTRIL5MKAR1UWRHK4IC9FJ","","null","<img src=""img/land6.png"" style=""width:200px; border:14px solid green;"">","null","","","","","","","","","",""
"","image-keyboard-response","332","295548","0.0-332.0","3RJSC4XJ11GA9Y3CVLAU6NL2K6Y50B","AVKMFV9CZ0MLR","3L1EFR8WWTRIL5MKAR1UWRHK4IC9FJ","","","img/land6.png","","2002.3000000715256","-1","0","2","1","0.8,0.2,0.2,0.2,0.8,0.2,0.2,0.2,0.8","0.8,0.2,0.2,0.2,0.8,0.2,0.2,0.2,0.8","1","",""
"","html-keyboard-response","333","295858","0.0-333.0","3RJSC4XJ11GA9Y3CVLAU6NL2K6Y50B","AVKMFV9CZ0MLR","3L1EFR8WWTRIL5MKAR1UWRHK4IC9FJ","","null","<img src=""img/land6.png"" style=""width:200px;border:14px solid red;"">","null","","","","","","","","","",""
"","image-keyboard-response","334","296486","0.0-334.0","3RJSC4XJ11GA9Y3CVLAU6NL2K6Y50B","AVKMFV9CZ0MLR","3L1EFR8WWTRIL5MKAR1UWRHK4IC9FJ","","626.8000000715256","img/land2.png","75","627.8999999761581","2","0","1","1","0.8,0.2,0.2,0.2,0.8,0.2,0.2,0.2,0.8","0.8,0.2,0.2,0.2,0.8,0.2,0.2,0.2,0.8","1","",""
"","html-keyboard-response","335","296787","0.0-335.0","3RJSC4XJ11GA9Y3CVLAU6NL2K6Y50B","AVKMFV9CZ0MLR","3L1EFR8WWTRIL5MKAR1UWRHK4IC9FJ","","null","<img src=""img/land2.png"" style=""width:200px;border:14px solid red;"">","null","","","","","","","","","",""
"","image-keyboard-response","336","297394","0.0-336.0","3RJSC4XJ11GA9Y3CVLAU6NL2K6Y50B","AVKMFV9CZ0MLR","3L1EFR8WWTRIL5MKAR1UWRHK4IC9FJ","","605.8999999761581","img/land1.png","75","607.0999999046326","2","0","3","1","0.8,0.2,0.2,0.2,0.8,0.2,0.2,0.2,0.8","0.8,0.2,0.2,0.2,0.8,0.2,0.2,0.2,0.8","1","",""
"","html-keyboard-response","337","297696","0.0-337.0","3RJSC4XJ11GA9Y3CVLAU6NL2K6Y50B","AVKMFV9CZ0MLR","3L1EFR8WWTRIL5MKAR1UWRHK4IC9FJ","","null","<img src=""img/land1.png"" style=""width:200px;border:14px solid red;"">","null","","","","","","","","","",""
"","image-keyboard-response","338","299118","0.0-338.0","3RJSC4XJ11GA9Y3CVLAU6NL2K6Y50B","AVKMFV9CZ0MLR","3L1EFR8WWTRIL5MKAR1UWRHK4IC9FJ","","1421.2000000476837","img/land1.png","75","1422.3999999761581","2","1","3","1","0.8,0.2,0.2,0.2,0.8,0.2,0.2,0.2,0.8","0.8,0.2,0.2,0.2,0.8,0.2,0.2,0.2,0.8","1","",""
"","html-keyboard-response","339","299420","0.0-339.0","3RJSC4XJ11GA9Y3CVLAU6NL2K6Y50B","AVKMFV9CZ0MLR","3L1EFR8WWTRIL5MKAR1UWRHK4IC9FJ","","null","<img src=""img/land1.png"" style=""width:200px; border:14px solid green;"">","null","","","","","","","","","",""
"","image-keyboard-response","340","300362","0.0-340.0","3RJSC4XJ11GA9Y3CVLAU6NL2K6Y50B","AVKMFV9CZ0MLR","3L1EFR8WWTRIL5MKAR1UWRHK4IC9FJ","","940.7999999523163","img/land1.png","75","942","2","0","3","1","0.8,0.2,0.2,0.2,0.8,0.2,0.2,0.2,0.8","0.8,0.2,0.2,0.2,0.8,0.2,0.2,0.2,0.8","1","",""
"","html-keyboard-response","341","300665","0.0-341.0","3RJSC4XJ11GA9Y3CVLAU6NL2K6Y50B","AVKMFV9CZ0MLR","3L1EFR8WWTRIL5MKAR1UWRHK4IC9FJ","","null","<img src=""img/land1.png"" style=""width:200px;border:14px solid red;"">","null","","","","","","","","","",""
"","image-keyboard-response","342","301262","0.0-342.0","3RJSC4XJ11GA9Y3CVLAU6NL2K6Y50B","AVKMFV9CZ0MLR","3L1EFR8WWTRIL5MKAR1UWRHK4IC9FJ","","595.8999999761581","img/land6.png","75","597.1000000238419","2","1","2","1","0.8,0.2,0.2,0.2,0.8,0.2,0.2,0.2,0.8","0.8,0.2,0.2,0.2,0.8,0.2,0.2,0.2,0.8","1","",""
"","html-keyboard-response","343","301564","0.0-343.0","3RJSC4XJ11GA9Y3CVLAU6NL2K6Y50B","AVKMFV9CZ0MLR","3L1EFR8WWTRIL5MKAR1UWRHK4IC9FJ","","null","<img src=""img/land6.png"" style=""width:200px; border:14px solid green;"">","null","","","","","","","","","",""
"","image-keyboard-response","344","302276","0.0-344.0","3RJSC4XJ11GA9Y3CVLAU6NL2K6Y50B","AVKMFV9CZ0MLR","3L1EFR8WWTRIL5MKAR1UWRHK4IC9FJ","","710.7000000476837","img/land2.png","75","711.8999999761581","2","0","1","1","0.8,0.2,0.2,0.2,0.8,0.2,0.2,0.2,0.8","0.8,0.2,0.2,0.2,0.8,0.2,0.2,0.2,0.8","1","",""
"","html-keyboard-response","345","302578","0.0-345.0","3RJSC4XJ11GA9Y3CVLAU6NL2K6Y50B","AVKMFV9CZ0MLR","3L1EFR8WWTRIL5MKAR1UWRHK4IC9FJ","","null","<img src=""img/land2.png"" style=""width:200px;border:14px solid red;"">","null","","","","","","","","","",""
"","image-keyboard-response","346","303161","0.0-346.0","3RJSC4XJ11GA9Y3CVLAU6NL2K6Y50B","AVKMFV9CZ0MLR","3L1EFR8WWTRIL5MKAR1UWRHK4IC9FJ","","581.7000000476837","img/land6.png","75","582.9000000953674","2","1","2","1","0.8,0.2,0.2,0.2,0.8,0.2,0.2,0.2,0.8","0.8,0.2,0.2,0.2,0.8,0.2,0.2,0.2,0.8","1","",""
"","html-keyboard-response","347","303463","0.0-347.0","3RJSC4XJ11GA9Y3CVLAU6NL2K6Y50B","AVKMFV9CZ0MLR","3L1EFR8WWTRIL5MKAR1UWRHK4IC9FJ","","null","<img src=""img/land6.png"" style=""width:200px; border:14px solid green;"">","null","","","","","","","","","",""
"","image-keyboard-response","348","304339","0.0-348.0","3RJSC4XJ11GA9Y3CVLAU6NL2K6Y50B","AVKMFV9CZ0MLR","3L1EFR8WWTRIL5MKAR1UWRHK4IC9FJ","","875.1000000238419","img/land6.png","75","876.1999999284744","2","1","2","1","0.8,0.2,0.2,0.2,0.8,0.2,0.2,0.2,0.8","0.8,0.2,0.2,0.2,0.8,0.2,0.2,0.2,0.8","1","",""
"","html-keyboard-response","349","304642","0.0-349.0","3RJSC4XJ11GA9Y3CVLAU6NL2K6Y50B","AVKMFV9CZ0MLR","3L1EFR8WWTRIL5MKAR1UWRHK4IC9FJ","","null","<img src=""img/land6.png"" style=""width:200px; border:14px solid green;"">","null","","","","","","","","","",""
"","image-keyboard-response","350","305419","0.0-350.0","3RJSC4XJ11GA9Y3CVLAU6NL2K6Y50B","AVKMFV9CZ0MLR","3L1EFR8WWTRIL5MKAR1UWRHK4IC9FJ","","775.5","img/land6.png","75","776.6000000238419","2","1","2","1","0.8,0.2,0.2,0.2,0.8,0.2,0.2,0.2,0.8","0.8,0.2,0.2,0.2,0.8,0.2,0.2,0.2,0.8","1","",""
"","html-keyboard-response","351","305722","0.0-351.0","3RJSC4XJ11GA9Y3CVLAU6NL2K6Y50B","AVKMFV9CZ0MLR","3L1EFR8WWTRIL5MKAR1UWRHK4IC9FJ","","null","<img src=""img/land6.png"" style=""width:200px; border:14px solid green;"">","null","","","","","","","","","",""
"","image-keyboard-response","352","306594","0.0-352.0","3RJSC4XJ11GA9Y3CVLAU6NL2K6Y50B","AVKMFV9CZ0MLR","3L1EFR8WWTRIL5MKAR1UWRHK4IC9FJ","","870.5","img/land6.png","75","871.7000000476837","2","1","2","1","0.8,0.2,0.2,0.2,0.8,0.2,0.2,0.2,0.8","0.8,0.2,0.2,0.2,0.8,0.2,0.2,0.2,0.8","1","",""
"","html-keyboard-response","353","306895","0.0-353.0","3RJSC4XJ11GA9Y3CVLAU6NL2K6Y50B","AVKMFV9CZ0MLR","3L1EFR8WWTRIL5MKAR1UWRHK4IC9FJ","","null","<img src=""img/land6.png"" style=""width:200px; border:14px solid green;"">","null","","","","","","","","","",""
"","image-keyboard-response","354","307572","0.0-354.0","3RJSC4XJ11GA9Y3CVLAU6NL2K6Y50B","AVKMFV9CZ0MLR","3L1EFR8WWTRIL5MKAR1UWRHK4IC9FJ","","675.5","img/land1.png","75","676.6000000238419","2","0","3","1","0.8,0.2,0.2,0.2,0.8,0.2,0.2,0.2,0.8","0.8,0.2,0.2,0.2,0.8,0.2,0.2,0.2,0.8","1","",""
"","html-keyboard-response","355","307874","0.0-355.0","3RJSC4XJ11GA9Y3CVLAU6NL2K6Y50B","AVKMFV9CZ0MLR","3L1EFR8WWTRIL5MKAR1UWRHK4IC9FJ","","null","<img src=""img/land1.png"" style=""width:200px;border:14px solid red;"">","null","","","","","","","","","",""
"","image-keyboard-response","356","308491","0.0-356.0","3RJSC4XJ11GA9Y3CVLAU6NL2K6Y50B","AVKMFV9CZ0MLR","3L1EFR8WWTRIL5MKAR1UWRHK4IC9FJ","","615.6000000238419","img/land2.png","75","617","2","0","1","1","0.8,0.2,0.2,0.2,0.8,0.2,0.2,0.2,0.8","0.8,0.2,0.2,0.2,0.8,0.2,0.2,0.2,0.8","1","",""
"","html-keyboard-response","357","308794","0.0-357.0","3RJSC4XJ11GA9Y3CVLAU6NL2K6Y50B","AVKMFV9CZ0MLR","3L1EFR8WWTRIL5MKAR1UWRHK4IC9FJ","","null","<img src=""img/land2.png"" style=""width:200px;border:14px solid red;"">","null","","","","","","","","","",""
"","image-keyboard-response","358","309436","0.0-358.0","3RJSC4XJ11GA9Y3CVLAU6NL2K6Y50B","AVKMFV9CZ0MLR","3L1EFR8WWTRIL5MKAR1UWRHK4IC9FJ","","641.2000000476837","img/land1.png","75","642.2000000476837","2","0","3","1","0.8,0.2,0.2,0.2,0.8,0.2,0.2,0.2,0.8","0.8,0.2,0.2,0.2,0.8,0.2,0.2,0.2,0.8","1","",""
