"success","trial_type","trial_index","time_elapsed","internal_node_id","assignmentID","mturkID","hitID","view_history","rt","stimulus","key_press","reactionTime","a","r","warning","s","reward_cond","responses","question_order"
"true","fullscreen","0","2442","0.0-0.0","33F859I567ZN9EQHU38SF1KBCZIBH8","AW5O1RK3W60FC","379OL9DBSS0OLW3FFHTILCO0AJC9Y6","","","","","","","","","","","",""
"","instructions","1","56583","0.0-1.0","33F859I567ZN9EQHU38SF1KBCZIBH8","AW5O1RK3W60FC","379OL9DBSS0OLW3FFHTILCO0AJC9Y6","[{""page_index"":0,""viewing_time"":16849},{""page_index"":1,""viewing_time"":2210.1000000089407},{""page_index"":2,""viewing_time"":1713.8999999910593},{""page_index"":3,""viewing_time"":3537.800000011921},{""page_index"":4,""viewing_time"":13352},{""page_index"":5,""viewing_time"":2687.8999999910593},{""page_index"":6,""viewing_time"":2384},{""page_index"":7,""viewing_time"":11402.5}]","54137.90000000596","","","","","","","","","",""
"","image-keyboard-response","2","57397","0.0-2.0","33F859I567ZN9EQHU38SF1KBCZIBH8","AW5O1RK3W60FC","379OL9DBSS0OLW3FFHTILCO0AJC9Y6","","811.7999999970198","img/land3.png","74","813.2999999970198","1","0","false","1","0.6,0.6,0,0,0.6,0.6,0.6,0,0.6","",""
"","html-keyboard-response","3","57701","0.0-3.0","33F859I567ZN9EQHU38SF1KBCZIBH8","AW5O1RK3W60FC","379OL9DBSS0OLW3FFHTILCO0AJC9Y6","","null","<img src=""img/land3.png"" style=""width:200px;border:14px solid red;"">","null","","","","","","","",""
"","image-keyboard-response","4","58703","0.0-5.0","33F859I567ZN9EQHU38SF1KBCZIBH8","AW5O1RK3W60FC","379OL9DBSS0OLW3FFHTILCO0AJC9Y6","","","img/land9.png","","1002","-1","0","true","2","0.6,0.6,0,0,0.6,0.6,0.6,0,0.6","",""
"","html-keyboard-response","5","59005","0.0-6.0","33F859I567ZN9EQHU38SF1KBCZIBH8","AW5O1RK3W60FC","379OL9DBSS0OLW3FFHTILCO0AJC9Y6","","null","<img src=""img/land9.png"" style=""width:200px;border:14px solid red;"">","null","","","","","","","",""
"","html-keyboard-response","6","64522","0.0-7.0-0.0","33F859I567ZN9EQHU38SF1KBCZIBH8","AW5O1RK3W60FC","379OL9DBSS0OLW3FFHTILCO0AJC9Y6","","","","","","","","","","","",""
"","image-keyboard-response","7","65452","0.0-8.0","33F859I567ZN9EQHU38SF1KBCZIBH8","AW5O1RK3W60FC","379OL9DBSS0OLW3FFHTILCO0AJC9Y6","","928.2999999970198","img/land3.png","75","929.6000000089407","2","0","false","1","0.6,0.6,0,0,0.6,0.6,0.6,0,0.6","",""
"","html-keyboard-response","8","65754","0.0-9.0","33F859I567ZN9EQHU38SF1KBCZIBH8","AW5O1RK3W60FC","379OL9DBSS0OLW3FFHTILCO0AJC9Y6","","null","<img src=""img/land3.png"" style=""width:200px;border:14px solid red;"">","null","","","","","","","",""
"","image-keyboard-response","9","66228","0.0-11.0","33F859I567ZN9EQHU38SF1KBCZIBH8","AW5O1RK3W60FC","379OL9DBSS0OLW3FFHTILCO0AJC9Y6","","471.70000000298023","img/land3.png","75","472.79999999701977","2","0","false","1","0.6,0.6,0,0,0.6,0.6,0.6,0,0.6","",""
"","html-keyboard-response","10","66530","0.0-12.0","33F859I567ZN9EQHU38SF1KBCZIBH8","AW5O1RK3W60FC","379OL9DBSS0OLW3FFHTILCO0AJC9Y6","","null","<img src=""img/land3.png"" style=""width:200px;border:14px solid red;"">","null","","","","","","","",""
"","image-keyboard-response","11","67260","0.0-14.0","33F859I567ZN9EQHU38SF1KBCZIBH8","AW5O1RK3W60FC","379OL9DBSS0OLW3FFHTILCO0AJC9Y6","","728.4000000059605","img/land5.png","76","729.2000000029802","3","1","false","3","0.6,0.6,0,0,0.6,0.6,0.6,0,0.6","",""
"","html-keyboard-response","12","67562","0.0-15.0","33F859I567ZN9EQHU38SF1KBCZIBH8","AW5O1RK3W60FC","379OL9DBSS0OLW3FFHTILCO0AJC9Y6","","null","<img src=""img/land5.png"" style=""width:200px; border:14px solid green;"">","null","","","","","","","",""
"","image-keyboard-response","13","68365","0.0-17.0","33F859I567ZN9EQHU38SF1KBCZIBH8","AW5O1RK3W60FC","379OL9DBSS0OLW3FFHTILCO0AJC9Y6","","801.7000000029802","img/land9.png","75","802.6000000089407","2","1","false","2","0.6,0.6,0,0,0.6,0.6,0.6,0,0.6","",""
"","html-keyboard-response","14","68667","0.0-18.0","33F859I567ZN9EQHU38SF1KBCZIBH8","AW5O1RK3W60FC","379OL9DBSS0OLW3FFHTILCO0AJC9Y6","","null","<img src=""img/land9.png"" style=""width:200px; border:14px solid green;"">","null","","","","","","","",""
"","image-keyboard-response","15","69284","0.0-20.0","33F859I567ZN9EQHU38SF1KBCZIBH8","AW5O1RK3W60FC","379OL9DBSS0OLW3FFHTILCO0AJC9Y6","","616","img/land5.png","76","617","3","0","false","3","0.6,0.6,0,0,0.6,0.6,0.6,0,0.6","",""
"","html-keyboard-response","16","69587","0.0-21.0","33F859I567ZN9EQHU38SF1KBCZIBH8","AW5O1RK3W60FC","379OL9DBSS0OLW3FFHTILCO0AJC9Y6","","null","<img src=""img/land5.png"" style=""width:200px;border:14px solid red;"">","null","","","","","","","",""
"","image-keyboard-response","17","70589","0.0-23.0","33F859I567ZN9EQHU38SF1KBCZIBH8","AW5O1RK3W60FC","379OL9DBSS0OLW3FFHTILCO0AJC9Y6","","","img/land3.png","","1002.4000000059605","-1","0","true","1","0.6,0.6,0,0,0.6,0.6,0.6,0,0.6","",""
"","html-keyboard-response","18","70891","0.0-24.0","33F859I567ZN9EQHU38SF1KBCZIBH8","AW5O1RK3W60FC","379OL9DBSS0OLW3FFHTILCO0AJC9Y6","","null","<img src=""img/land3.png"" style=""width:200px;border:14px solid red;"">","null","","","","","","","",""
"","html-keyboard-response","19","75448","0.0-25.0-0.0","33F859I567ZN9EQHU38SF1KBCZIBH8","AW5O1RK3W60FC","379OL9DBSS0OLW3FFHTILCO0AJC9Y6","","","","","","","","","","","",""
"","image-keyboard-response","20","76245","0.0-26.0","33F859I567ZN9EQHU38SF1KBCZIBH8","AW5O1RK3W60FC","379OL9DBSS0OLW3FFHTILCO0AJC9Y6","","793","img/land9.png","75","796.1000000089407","2","0","false","2","0.6,0.6,0,0,0.6,0.6,0.6,0,0.6","",""
"","html-keyboard-response","21","76547","0.0-27.0","33F859I567ZN9EQHU38SF1KBCZIBH8","AW5O1RK3W60FC","379OL9DBSS0OLW3FFHTILCO0AJC9Y6","","null","<img src=""img/land9.png"" style=""width:200px;border:14px solid red;"">","null","","","","","","","",""
"","image-keyboard-response","22","77253","0.0-29.0","33F859I567ZN9EQHU38SF1KBCZIBH8","AW5O1RK3W60FC","379OL9DBSS0OLW3FFHTILCO0AJC9Y6","","704.1000000089407","img/land3.png","76","705.2000000029802","3","0","false","1","0.6,0.6,0,0,0.6,0.6,0.6,0,0.6","",""
"","html-keyboard-response","23","77556","0.0-30.0","33F859I567ZN9EQHU38SF1KBCZIBH8","AW5O1RK3W60FC","379OL9DBSS0OLW3FFHTILCO0AJC9Y6","","null","<img src=""img/land3.png"" style=""width:200px;border:14px solid red;"">","null","","","","","","","",""
"","image-keyboard-response","24","78012","0.0-32.0","33F859I567ZN9EQHU38SF1KBCZIBH8","AW5O1RK3W60FC","379OL9DBSS0OLW3FFHTILCO0AJC9Y6","","455","img/land9.png","76","456","3","0","false","2","0.6,0.6,0,0,0.6,0.6,0.6,0,0.6","",""
"","html-keyboard-response","25","78314","0.0-33.0","33F859I567ZN9EQHU38SF1KBCZIBH8","AW5O1RK3W60FC","379OL9DBSS0OLW3FFHTILCO0AJC9Y6","","null","<img src=""img/land9.png"" style=""width:200px;border:14px solid red;"">","null","","","","","","","",""
"","image-keyboard-response","26","78748","0.0-35.0","33F859I567ZN9EQHU38SF1KBCZIBH8","AW5O1RK3W60FC","379OL9DBSS0OLW3FFHTILCO0AJC9Y6","","432.70000000298023","img/land5.png","75","434","2","0","false","3","0.6,0.6,0,0,0.6,0.6,0.6,0,0.6","",""
"","html-keyboard-response","27","79051","0.0-36.0","33F859I567ZN9EQHU38SF1KBCZIBH8","AW5O1RK3W60FC","379OL9DBSS0OLW3FFHTILCO0AJC9Y6","","null","<img src=""img/land5.png"" style=""width:200px;border:14px solid red;"">","null","","","","","","","",""
"","image-keyboard-response","28","79221","0.0-38.0","33F859I567ZN9EQHU38SF1KBCZIBH8","AW5O1RK3W60FC","379OL9DBSS0OLW3FFHTILCO0AJC9Y6","","168.40000000596046","img/land5.png","76","169.69999998807907","3","1","false","3","0.6,0.6,0,0,0.6,0.6,0.6,0,0.6","",""
"","html-keyboard-response","29","79535","0.0-39.0","33F859I567ZN9EQHU38SF1KBCZIBH8","AW5O1RK3W60FC","379OL9DBSS0OLW3FFHTILCO0AJC9Y6","","null","<img src=""img/land5.png"" style=""width:200px; border:14px solid green;"">","null","","","","","","","",""
"","image-keyboard-response","30","80228","0.0-41.0","33F859I567ZN9EQHU38SF1KBCZIBH8","AW5O1RK3W60FC","379OL9DBSS0OLW3FFHTILCO0AJC9Y6","","691.7999999970198","img/land9.png","75","693","2","1","false","2","0.6,0.6,0,0,0.6,0.6,0.6,0,0.6","",""
"","html-keyboard-response","31","80530","0.0-42.0","33F859I567ZN9EQHU38SF1KBCZIBH8","AW5O1RK3W60FC","379OL9DBSS0OLW3FFHTILCO0AJC9Y6","","null","<img src=""img/land9.png"" style=""width:200px; border:14px solid green;"">","null","","","","","","","",""
"","image-keyboard-response","32","80932","0.0-44.0","33F859I567ZN9EQHU38SF1KBCZIBH8","AW5O1RK3W60FC","379OL9DBSS0OLW3FFHTILCO0AJC9Y6","","400.40000000596046","img/land9.png","75","401.20000000298023","2","0","false","2","0.6,0.6,0,0,0.6,0.6,0.6,0,0.6","",""
"","html-keyboard-response","33","81234","0.0-45.0","33F859I567ZN9EQHU38SF1KBCZIBH8","AW5O1RK3W60FC","379OL9DBSS0OLW3FFHTILCO0AJC9Y6","","null","<img src=""img/land9.png"" style=""width:200px;border:14px solid red;"">","null","","","","","","","",""
"","image-keyboard-response","34","81773","0.0-47.0","33F859I567ZN9EQHU38SF1KBCZIBH8","AW5O1RK3W60FC","379OL9DBSS0OLW3FFHTILCO0AJC9Y6","","536.7000000029802","img/land3.png","76","537.9000000059605","3","0","false","1","0.6,0.6,0,0,0.6,0.6,0.6,0,0.6","",""
"","html-keyboard-response","35","82074","0.0-48.0","33F859I567ZN9EQHU38SF1KBCZIBH8","AW5O1RK3W60FC","379OL9DBSS0OLW3FFHTILCO0AJC9Y6","","null","<img src=""img/land3.png"" style=""width:200px;border:14px solid red;"">","null","","","","","","","",""
"","image-keyboard-response","36","82732","0.0-50.0","33F859I567ZN9EQHU38SF1KBCZIBH8","AW5O1RK3W60FC","379OL9DBSS0OLW3FFHTILCO0AJC9Y6","","656.5","img/land5.png","75","657.2999999970198","2","0","false","3","0.6,0.6,0,0,0.6,0.6,0.6,0,0.6","",""
"","html-keyboard-response","37","83034","0.0-51.0","33F859I567ZN9EQHU38SF1KBCZIBH8","AW5O1RK3W60FC","379OL9DBSS0OLW3FFHTILCO0AJC9Y6","","null","<img src=""img/land5.png"" style=""width:200px;border:14px solid red;"">","null","","","","","","","",""
"","image-keyboard-response","38","83052","0.0-53.0","33F859I567ZN9EQHU38SF1KBCZIBH8","AW5O1RK3W60FC","379OL9DBSS0OLW3FFHTILCO0AJC9Y6","","16.700000002980232","img/land5.png","76","17.80000001192093","3","0","false","3","0.6,0.6,0,0,0.6,0.6,0.6,0,0.6","",""
"","html-keyboard-response","39","83354","0.0-54.0","33F859I567ZN9EQHU38SF1KBCZIBH8","AW5O1RK3W60FC","379OL9DBSS0OLW3FFHTILCO0AJC9Y6","","null","<img src=""img/land5.png"" style=""width:200px;border:14px solid red;"">","null","","","","","","","",""
"","image-keyboard-response","40","83868","0.0-56.0","33F859I567ZN9EQHU38SF1KBCZIBH8","AW5O1RK3W60FC","379OL9DBSS0OLW3FFHTILCO0AJC9Y6","","513.0999999940395","img/land3.png","76","514.1000000089407","3","0","false","1","0.6,0.6,0,0,0.6,0.6,0.6,0,0.6","",""
"","html-keyboard-response","41","84170","0.0-57.0","33F859I567ZN9EQHU38SF1KBCZIBH8","AW5O1RK3W60FC","379OL9DBSS0OLW3FFHTILCO0AJC9Y6","","null","<img src=""img/land3.png"" style=""width:200px;border:14px solid red;"">","null","","","","","","","",""
"","image-keyboard-response","42","84748","0.0-59.0","33F859I567ZN9EQHU38SF1KBCZIBH8","AW5O1RK3W60FC","379OL9DBSS0OLW3FFHTILCO0AJC9Y6","","576.7000000029802","img/land9.png","76","577.7999999970198","3","0","false","2","0.6,0.6,0,0,0.6,0.6,0.6,0,0.6","",""
"","html-keyboard-response","43","85057","0.0-60.0","33F859I567ZN9EQHU38SF1KBCZIBH8","AW5O1RK3W60FC","379OL9DBSS0OLW3FFHTILCO0AJC9Y6","","null","<img src=""img/land9.png"" style=""width:200px;border:14px solid red;"">","null","","","","","","","",""
"","image-keyboard-response","44","85645","0.0-62.0","33F859I567ZN9EQHU38SF1KBCZIBH8","AW5O1RK3W60FC","379OL9DBSS0OLW3FFHTILCO0AJC9Y6","","587","img/land5.png","76","588","3","0","false","3","0.6,0.6,0,0,0.6,0.6,0.6,0,0.6","",""
"","html-keyboard-response","45","85947","0.0-63.0","33F859I567ZN9EQHU38SF1KBCZIBH8","AW5O1RK3W60FC","379OL9DBSS0OLW3FFHTILCO0AJC9Y6","","null","<img src=""img/land5.png"" style=""width:200px;border:14px solid red;"">","null","","","","","","","",""
"","image-keyboard-response","46","86933","0.0-65.0","33F859I567ZN9EQHU38SF1KBCZIBH8","AW5O1RK3W60FC","379OL9DBSS0OLW3FFHTILCO0AJC9Y6","","984.5999999940395","img/land3.png","76","985.6000000089407","3","0","false","1","0.6,0.6,0,0,0.6,0.6,0.6,0,0.6","",""
"","html-keyboard-response","47","87235","0.0-66.0","33F859I567ZN9EQHU38SF1KBCZIBH8","AW5O1RK3W60FC","379OL9DBSS0OLW3FFHTILCO0AJC9Y6","","null","<img src=""img/land3.png"" style=""width:200px;border:14px solid red;"">","null","","","","","","","",""
"","image-keyboard-response","48","87733","0.0-68.0","33F859I567ZN9EQHU38SF1KBCZIBH8","AW5O1RK3W60FC","379OL9DBSS0OLW3FFHTILCO0AJC9Y6","","496","img/land9.png","76","497.29999999701977","3","1","false","2","0.6,0.6,0,0,0.6,0.6,0.6,0,0.6","",""
"","html-keyboard-response","49","88035","0.0-69.0","33F859I567ZN9EQHU38SF1KBCZIBH8","AW5O1RK3W60FC","379OL9DBSS0OLW3FFHTILCO0AJC9Y6","","null","<img src=""img/land9.png"" style=""width:200px; border:14px solid green;"">","null","","","","","","","",""
"","image-keyboard-response","50","88453","0.0-71.0","33F859I567ZN9EQHU38SF1KBCZIBH8","AW5O1RK3W60FC","379OL9DBSS0OLW3FFHTILCO0AJC9Y6","","416.70000000298023","img/land9.png","76","417.79999999701977","3","1","false","2","0.6,0.6,0,0,0.6,0.6,0.6,0,0.6","",""
"","html-keyboard-response","51","88755","0.0-72.0","33F859I567ZN9EQHU38SF1KBCZIBH8","AW5O1RK3W60FC","379OL9DBSS0OLW3FFHTILCO0AJC9Y6","","null","<img src=""img/land9.png"" style=""width:200px; border:14px solid green;"">","null","","","","","","","",""
"","image-keyboard-response","52","89406","0.0-74.0","33F859I567ZN9EQHU38SF1KBCZIBH8","AW5O1RK3W60FC","379OL9DBSS0OLW3FFHTILCO0AJC9Y6","","649.1000000089407","img/land3.png","76","650.8000000119209","3","0","false","1","0.6,0.6,0,0,0.6,0.6,0.6,0,0.6","",""
"","html-keyboard-response","53","89709","0.0-75.0","33F859I567ZN9EQHU38SF1KBCZIBH8","AW5O1RK3W60FC","379OL9DBSS0OLW3FFHTILCO0AJC9Y6","","null","<img src=""img/land3.png"" style=""width:200px;border:14px solid red;"">","null","","","","","","","",""
"","image-keyboard-response","54","90268","0.0-77.0","33F859I567ZN9EQHU38SF1KBCZIBH8","AW5O1RK3W60FC","379OL9DBSS0OLW3FFHTILCO0AJC9Y6","","557.5999999940395","img/land9.png","76","558.7000000029802","3","1","false","2","0.6,0.6,0,0,0.6,0.6,0.6,0,0.6","",""
"","html-keyboard-response","55","90571","0.0-78.0","33F859I567ZN9EQHU38SF1KBCZIBH8","AW5O1RK3W60FC","379OL9DBSS0OLW3FFHTILCO0AJC9Y6","","null","<img src=""img/land9.png"" style=""width:200px; border:14px solid green;"">","null","","","","","","","",""
"","image-keyboard-response","56","91005","0.0-80.0","33F859I567ZN9EQHU38SF1KBCZIBH8","AW5O1RK3W60FC","379OL9DBSS0OLW3FFHTILCO0AJC9Y6","","432.20000000298023","img/land9.png","76","433.20000000298023","3","1","false","2","0.6,0.6,0,0,0.6,0.6,0.6,0,0.6","",""
"","html-keyboard-response","57","91307","0.0-81.0","33F859I567ZN9EQHU38SF1KBCZIBH8","AW5O1RK3W60FC","379OL9DBSS0OLW3FFHTILCO0AJC9Y6","","null","<img src=""img/land9.png"" style=""width:200px; border:14px solid green;"">","null","","","","","","","",""
"","image-keyboard-response","58","92165","0.0-83.0","33F859I567ZN9EQHU38SF1KBCZIBH8","AW5O1RK3W60FC","379OL9DBSS0OLW3FFHTILCO0AJC9Y6","","856.4000000059605","img/land3.png","76","857.4000000059605","3","0","false","1","0.6,0.6,0,0,0.6,0.6,0.6,0,0.6","",""
"","html-keyboard-response","59","92467","0.0-84.0","33F859I567ZN9EQHU38SF1KBCZIBH8","AW5O1RK3W60FC","379OL9DBSS0OLW3FFHTILCO0AJC9Y6","","null","<img src=""img/land3.png"" style=""width:200px;border:14px solid red;"">","null","","","","","","","",""
"","image-keyboard-response","60","93268","0.0-86.0","33F859I567ZN9EQHU38SF1KBCZIBH8","AW5O1RK3W60FC","379OL9DBSS0OLW3FFHTILCO0AJC9Y6","","800.0999999940395","img/land5.png","76","801.2000000029802","3","1","false","3","0.6,0.6,0,0,0.6,0.6,0.6,0,0.6","",""
"","html-keyboard-response","61","93570","0.0-87.0","33F859I567ZN9EQHU38SF1KBCZIBH8","AW5O1RK3W60FC","379OL9DBSS0OLW3FFHTILCO0AJC9Y6","","null","<img src=""img/land5.png"" style=""width:200px; border:14px solid green;"">","null","","","","","","","",""
"","image-keyboard-response","62","94101","0.0-89.0","33F859I567ZN9EQHU38SF1KBCZIBH8","AW5O1RK3W60FC","379OL9DBSS0OLW3FFHTILCO0AJC9Y6","","529.0999999940395","img/land5.png","76","530.2000000029802","3","1","false","3","0.6,0.6,0,0,0.6,0.6,0.6,0,0.6","",""
"","html-keyboard-response","63","94403","0.0-90.0","33F859I567ZN9EQHU38SF1KBCZIBH8","AW5O1RK3W60FC","379OL9DBSS0OLW3FFHTILCO0AJC9Y6","","null","<img src=""img/land5.png"" style=""width:200px; border:14px solid green;"">","null","","","","","","","",""
"","image-keyboard-response","64","94844","0.0-92.0","33F859I567ZN9EQHU38SF1KBCZIBH8","AW5O1RK3W60FC","379OL9DBSS0OLW3FFHTILCO0AJC9Y6","","439.30000001192093","img/land5.png","76","440.5","3","1","false","3","0.6,0.6,0,0,0.6,0.6,0.6,0,0.6","",""
"","html-keyboard-response","65","95147","0.0-93.0","33F859I567ZN9EQHU38SF1KBCZIBH8","AW5O1RK3W60FC","379OL9DBSS0OLW3FFHTILCO0AJC9Y6","","null","<img src=""img/land5.png"" style=""width:200px; border:14px solid green;"">","null","","","","","","","",""
"","image-keyboard-response","66","95973","0.0-95.0","33F859I567ZN9EQHU38SF1KBCZIBH8","AW5O1RK3W60FC","379OL9DBSS0OLW3FFHTILCO0AJC9Y6","","824.2999999970198","img/land3.png","76","825.2999999970198","3","0","false","1","0.6,0.6,0,0,0.6,0.6,0.6,0,0.6","",""
"","html-keyboard-response","67","96275","0.0-96.0","33F859I567ZN9EQHU38SF1KBCZIBH8","AW5O1RK3W60FC","379OL9DBSS0OLW3FFHTILCO0AJC9Y6","","null","<img src=""img/land3.png"" style=""width:200px;border:14px solid red;"">","null","","","","","","","",""
"","image-keyboard-response","68","96765","0.0-98.0","33F859I567ZN9EQHU38SF1KBCZIBH8","AW5O1RK3W60FC","379OL9DBSS0OLW3FFHTILCO0AJC9Y6","","488.5","img/land5.png","76","489.29999999701977","3","0","false","3","0.6,0.6,0,0,0.6,0.6,0.6,0,0.6","",""
"","html-keyboard-response","69","97066","0.0-99.0","33F859I567ZN9EQHU38SF1KBCZIBH8","AW5O1RK3W60FC","379OL9DBSS0OLW3FFHTILCO0AJC9Y6","","null","<img src=""img/land5.png"" style=""width:200px;border:14px solid red;"">","null","","","","","","","",""
"","image-keyboard-response","70","97556","0.0-101.0","33F859I567ZN9EQHU38SF1KBCZIBH8","AW5O1RK3W60FC","379OL9DBSS0OLW3FFHTILCO0AJC9Y6","","489","img/land5.png","76","489.79999999701977","3","1","false","3","0.6,0.6,0,0,0.6,0.6,0.6,0,0.6","",""
"","html-keyboard-response","71","97858","0.0-102.0","33F859I567ZN9EQHU38SF1KBCZIBH8","AW5O1RK3W60FC","379OL9DBSS0OLW3FFHTILCO0AJC9Y6","","null","<img src=""img/land5.png"" style=""width:200px; border:14px solid green;"">","null","","","","","","","",""
"","image-keyboard-response","72","98308","0.0-104.0","33F859I567ZN9EQHU38SF1KBCZIBH8","AW5O1RK3W60FC","379OL9DBSS0OLW3FFHTILCO0AJC9Y6","","449.20000000298023","img/land5.png","76","450.1000000089407","3","0","false","3","0.6,0.6,0,0,0.6,0.6,0.6,0,0.6","",""
"","html-keyboard-response","73","98609","0.0-105.0","33F859I567ZN9EQHU38SF1KBCZIBH8","AW5O1RK3W60FC","379OL9DBSS0OLW3FFHTILCO0AJC9Y6","","null","<img src=""img/land5.png"" style=""width:200px;border:14px solid red;"">","null","","","","","","","",""
"","image-keyboard-response","74","99061","0.0-107.0","33F859I567ZN9EQHU38SF1KBCZIBH8","AW5O1RK3W60FC","379OL9DBSS0OLW3FFHTILCO0AJC9Y6","","449.29999999701977","img/land5.png","76","450.59999999403954","3","1","false","3","0.6,0.6,0,0,0.6,0.6,0.6,0,0.6","",""
"","html-keyboard-response","75","99363","0.0-108.0","33F859I567ZN9EQHU38SF1KBCZIBH8","AW5O1RK3W60FC","379OL9DBSS0OLW3FFHTILCO0AJC9Y6","","null","<img src=""img/land5.png"" style=""width:200px; border:14px solid green;"">","null","","","","","","","",""
"","image-keyboard-response","76","100148","0.0-110.0","33F859I567ZN9EQHU38SF1KBCZIBH8","AW5O1RK3W60FC","379OL9DBSS0OLW3FFHTILCO0AJC9Y6","","784.2000000029802","img/land3.png","74","785.2000000029802","1","1","false","1","0.6,0.6,0,0,0.6,0.6,0.6,0,0.6","",""
"","html-keyboard-response","77","100450","0.0-111.0","33F859I567ZN9EQHU38SF1KBCZIBH8","AW5O1RK3W60FC","379OL9DBSS0OLW3FFHTILCO0AJC9Y6","","null","<img src=""img/land3.png"" style=""width:200px; border:14px solid green;"">","null","","","","","","","",""
"","image-keyboard-response","78","100917","0.0-113.0","33F859I567ZN9EQHU38SF1KBCZIBH8","AW5O1RK3W60FC","379OL9DBSS0OLW3FFHTILCO0AJC9Y6","","465.79999999701977","img/land3.png","74","466.59999999403954","1","1","false","1","0.6,0.6,0,0,0.6,0.6,0.6,0,0.6","",""
"","html-keyboard-response","79","101219","0.0-114.0","33F859I567ZN9EQHU38SF1KBCZIBH8","AW5O1RK3W60FC","379OL9DBSS0OLW3FFHTILCO0AJC9Y6","","null","<img src=""img/land3.png"" style=""width:200px; border:14px solid green;"">","null","","","","","","","",""
"","image-keyboard-response","80","102060","0.0-116.0","33F859I567ZN9EQHU38SF1KBCZIBH8","AW5O1RK3W60FC","379OL9DBSS0OLW3FFHTILCO0AJC9Y6","","840.2000000029802","img/land9.png","76","841.1000000089407","3","1","false","2","0.6,0.6,0,0,0.6,0.6,0.6,0,0.6","",""
"","html-keyboard-response","81","102362","0.0-117.0","33F859I567ZN9EQHU38SF1KBCZIBH8","AW5O1RK3W60FC","379OL9DBSS0OLW3FFHTILCO0AJC9Y6","","null","<img src=""img/land9.png"" style=""width:200px; border:14px solid green;"">","null","","","","","","","",""
"","image-keyboard-response","82","103109","0.0-119.0","33F859I567ZN9EQHU38SF1KBCZIBH8","AW5O1RK3W60FC","379OL9DBSS0OLW3FFHTILCO0AJC9Y6","","745.1000000089407","img/land3.png","74","746.0999999940395","1","1","false","1","0.6,0.6,0,0,0.6,0.6,0.6,0,0.6","",""
"","html-keyboard-response","83","103411","0.0-120.0","33F859I567ZN9EQHU38SF1KBCZIBH8","AW5O1RK3W60FC","379OL9DBSS0OLW3FFHTILCO0AJC9Y6","","null","<img src=""img/land3.png"" style=""width:200px; border:14px solid green;"">","null","","","","","","","",""
"","image-keyboard-response","84","103996","0.0-122.0","33F859I567ZN9EQHU38SF1KBCZIBH8","AW5O1RK3W60FC","379OL9DBSS0OLW3FFHTILCO0AJC9Y6","","584","img/land5.png","76","584.7999999970198","3","0","false","3","0.6,0.6,0,0,0.6,0.6,0.6,0,0.6","",""
"","html-keyboard-response","85","104297","0.0-123.0","33F859I567ZN9EQHU38SF1KBCZIBH8","AW5O1RK3W60FC","379OL9DBSS0OLW3FFHTILCO0AJC9Y6","","null","<img src=""img/land5.png"" style=""width:200px;border:14px solid red;"">","null","","","","","","","",""
"","image-keyboard-response","86","104837","0.0-125.0","33F859I567ZN9EQHU38SF1KBCZIBH8","AW5O1RK3W60FC","379OL9DBSS0OLW3FFHTILCO0AJC9Y6","","538.2000000029802","img/land3.png","74","539.2000000029802","1","0","false","1","0.6,0.6,0,0,0.6,0.6,0.6,0,0.6","",""
"","html-keyboard-response","87","105140","0.0-126.0","33F859I567ZN9EQHU38SF1KBCZIBH8","AW5O1RK3W60FC","379OL9DBSS0OLW3FFHTILCO0AJC9Y6","","null","<img src=""img/land3.png"" style=""width:200px;border:14px solid red;"">","null","","","","","","","",""
"","image-keyboard-response","88","105596","0.0-128.0","33F859I567ZN9EQHU38SF1KBCZIBH8","AW5O1RK3W60FC","379OL9DBSS0OLW3FFHTILCO0AJC9Y6","","455.5","img/land3.png","74","456.5","1","1","false","1","0.6,0.6,0,0,0.6,0.6,0.6,0,0.6","",""
"","html-keyboard-response","89","105898","0.0-129.0","33F859I567ZN9EQHU38SF1KBCZIBH8","AW5O1RK3W60FC","379OL9DBSS0OLW3FFHTILCO0AJC9Y6","","null","<img src=""img/land3.png"" style=""width:200px; border:14px solid green;"">","null","","","","","","","",""
"","image-keyboard-response","90","106333","0.0-131.0","33F859I567ZN9EQHU38SF1KBCZIBH8","AW5O1RK3W60FC","379OL9DBSS0OLW3FFHTILCO0AJC9Y6","","433.40000000596046","img/land3.png","74","434.3999999910593","1","1","false","1","0.6,0.6,0,0,0.6,0.6,0.6,0,0.6","",""
"","html-keyboard-response","91","106635","0.0-132.0","33F859I567ZN9EQHU38SF1KBCZIBH8","AW5O1RK3W60FC","379OL9DBSS0OLW3FFHTILCO0AJC9Y6","","null","<img src=""img/land3.png"" style=""width:200px; border:14px solid green;"">","null","","","","","","","",""
"","image-keyboard-response","92","107180","0.0-134.0","33F859I567ZN9EQHU38SF1KBCZIBH8","AW5O1RK3W60FC","379OL9DBSS0OLW3FFHTILCO0AJC9Y6","","543.5999999940395","img/land5.png","76","544.5","3","1","false","3","0.6,0.6,0,0,0.6,0.6,0.6,0,0.6","",""
"","html-keyboard-response","93","107482","0.0-135.0","33F859I567ZN9EQHU38SF1KBCZIBH8","AW5O1RK3W60FC","379OL9DBSS0OLW3FFHTILCO0AJC9Y6","","null","<img src=""img/land5.png"" style=""width:200px; border:14px solid green;"">","null","","","","","","","",""
"","image-keyboard-response","94","108253","0.0-137.0","33F859I567ZN9EQHU38SF1KBCZIBH8","AW5O1RK3W60FC","379OL9DBSS0OLW3FFHTILCO0AJC9Y6","","769.2000000029802","img/land3.png","74","770.3999999910593","1","1","false","1","0.6,0.6,0,0,0.6,0.6,0.6,0,0.6","",""
"","html-keyboard-response","95","108555","0.0-138.0","33F859I567ZN9EQHU38SF1KBCZIBH8","AW5O1RK3W60FC","379OL9DBSS0OLW3FFHTILCO0AJC9Y6","","null","<img src=""img/land3.png"" style=""width:200px; border:14px solid green;"">","null","","","","","","","",""
"","image-keyboard-response","96","109044","0.0-140.0","33F859I567ZN9EQHU38SF1KBCZIBH8","AW5O1RK3W60FC","379OL9DBSS0OLW3FFHTILCO0AJC9Y6","","487.8999999910593","img/land5.png","76","489","3","0","false","3","0.6,0.6,0,0,0.6,0.6,0.6,0,0.6","",""
"","html-keyboard-response","97","109346","0.0-141.0","33F859I567ZN9EQHU38SF1KBCZIBH8","AW5O1RK3W60FC","379OL9DBSS0OLW3FFHTILCO0AJC9Y6","","null","<img src=""img/land5.png"" style=""width:200px;border:14px solid red;"">","null","","","","","","","",""
"","image-keyboard-response","98","109844","0.0-143.0","33F859I567ZN9EQHU38SF1KBCZIBH8","AW5O1RK3W60FC","379OL9DBSS0OLW3FFHTILCO0AJC9Y6","","496.3999999910593","img/land9.png","76","497.29999999701977","3","1","false","2","0.6,0.6,0,0,0.6,0.6,0.6,0,0.6","",""
"","html-keyboard-response","99","110146","0.0-144.0","33F859I567ZN9EQHU38SF1KBCZIBH8","AW5O1RK3W60FC","379OL9DBSS0OLW3FFHTILCO0AJC9Y6","","null","<img src=""img/land9.png"" style=""width:200px; border:14px solid green;"">","null","","","","","","","",""
"","image-keyboard-response","100","110581","0.0-146.0","33F859I567ZN9EQHU38SF1KBCZIBH8","AW5O1RK3W60FC","379OL9DBSS0OLW3FFHTILCO0AJC9Y6","","433.20000000298023","img/land9.png","76","434.5","3","1","false","2","0.6,0.6,0,0,0.6,0.6,0.6,0,0.6","",""
"","html-keyboard-response","101","110884","0.0-147.0","33F859I567ZN9EQHU38SF1KBCZIBH8","AW5O1RK3W60FC","379OL9DBSS0OLW3FFHTILCO0AJC9Y6","","null","<img src=""img/land9.png"" style=""width:200px; border:14px solid green;"">","null","","","","","","","",""
"","image-keyboard-response","102","111396","0.0-149.0","33F859I567ZN9EQHU38SF1KBCZIBH8","AW5O1RK3W60FC","379OL9DBSS0OLW3FFHTILCO0AJC9Y6","","511","img/land9.png","76","512","3","0","false","2","0.6,0.6,0,0,0.6,0.6,0.6,0,0.6","",""
"","html-keyboard-response","103","111698","0.0-150.0","33F859I567ZN9EQHU38SF1KBCZIBH8","AW5O1RK3W60FC","379OL9DBSS0OLW3FFHTILCO0AJC9Y6","","null","<img src=""img/land9.png"" style=""width:200px;border:14px solid red;"">","null","","","","","","","",""
"","image-keyboard-response","104","112253","0.0-152.0","33F859I567ZN9EQHU38SF1KBCZIBH8","AW5O1RK3W60FC","379OL9DBSS0OLW3FFHTILCO0AJC9Y6","","552.6000000089407","img/land9.png","76","553.7999999970198","3","1","false","2","0.6,0.6,0,0,0.6,0.6,0.6,0,0.6","",""
"","html-keyboard-response","105","112556","0.0-153.0","33F859I567ZN9EQHU38SF1KBCZIBH8","AW5O1RK3W60FC","379OL9DBSS0OLW3FFHTILCO0AJC9Y6","","null","<img src=""img/land9.png"" style=""width:200px; border:14px solid green;"">","null","","","","","","","",""
"","image-keyboard-response","106","113061","0.0-155.0","33F859I567ZN9EQHU38SF1KBCZIBH8","AW5O1RK3W60FC","379OL9DBSS0OLW3FFHTILCO0AJC9Y6","","503.59999999403954","img/land9.png","76","504.79999999701977","3","1","false","2","0.6,0.6,0,0,0.6,0.6,0.6,0,0.6","",""
"","html-keyboard-response","107","113363","0.0-156.0","33F859I567ZN9EQHU38SF1KBCZIBH8","AW5O1RK3W60FC","379OL9DBSS0OLW3FFHTILCO0AJC9Y6","","null","<img src=""img/land9.png"" style=""width:200px; border:14px solid green;"">","null","","","","","","","",""
"","image-keyboard-response","108","113932","0.0-158.0","33F859I567ZN9EQHU38SF1KBCZIBH8","AW5O1RK3W60FC","379OL9DBSS0OLW3FFHTILCO0AJC9Y6","","567.7999999970198","img/land5.png","76","568.6000000089407","3","0","false","3","0.6,0.6,0,0,0.6,0.6,0.6,0,0.6","",""
"","html-keyboard-response","109","114235","0.0-159.0","33F859I567ZN9EQHU38SF1KBCZIBH8","AW5O1RK3W60FC","379OL9DBSS0OLW3FFHTILCO0AJC9Y6","","null","<img src=""img/land5.png"" style=""width:200px;border:14px solid red;"">","null","","","","","","","",""
"","image-keyboard-response","110","114740","0.0-161.0","33F859I567ZN9EQHU38SF1KBCZIBH8","AW5O1RK3W60FC","379OL9DBSS0OLW3FFHTILCO0AJC9Y6","","504.29999999701977","img/land3.png","74","505.30000001192093","1","0","false","1","0.6,0.6,0,0,0.6,0.6,0.6,0,0.6","",""
"","html-keyboard-response","111","115042","0.0-162.0","33F859I567ZN9EQHU38SF1KBCZIBH8","AW5O1RK3W60FC","379OL9DBSS0OLW3FFHTILCO0AJC9Y6","","null","<img src=""img/land3.png"" style=""width:200px;border:14px solid red;"">","null","","","","","","","",""
"","image-keyboard-response","112","115477","0.0-164.0","33F859I567ZN9EQHU38SF1KBCZIBH8","AW5O1RK3W60FC","379OL9DBSS0OLW3FFHTILCO0AJC9Y6","","432.79999999701977","img/land3.png","74","433.8999999910593","1","0","false","1","0.6,0.6,0,0,0.6,0.6,0.6,0,0.6","",""
"","html-keyboard-response","113","115779","0.0-165.0","33F859I567ZN9EQHU38SF1KBCZIBH8","AW5O1RK3W60FC","379OL9DBSS0OLW3FFHTILCO0AJC9Y6","","null","<img src=""img/land3.png"" style=""width:200px;border:14px solid red;"">","null","","","","","","","",""
"","image-keyboard-response","114","116253","0.0-167.0","33F859I567ZN9EQHU38SF1KBCZIBH8","AW5O1RK3W60FC","379OL9DBSS0OLW3FFHTILCO0AJC9Y6","","472.90000000596046","img/land5.png","76","474.1000000089407","3","1","false","3","0.6,0.6,0,0,0.6,0.6,0.6,0,0.6","",""
"","html-keyboard-response","115","116555","0.0-168.0","33F859I567ZN9EQHU38SF1KBCZIBH8","AW5O1RK3W60FC","379OL9DBSS0OLW3FFHTILCO0AJC9Y6","","null","<img src=""img/land5.png"" style=""width:200px; border:14px solid green;"">","null","","","","","","","",""
"","image-keyboard-response","116","117116","0.0-170.0","33F859I567ZN9EQHU38SF1KBCZIBH8","AW5O1RK3W60FC","379OL9DBSS0OLW3FFHTILCO0AJC9Y6","","559.2999999970198","img/land3.png","74","560.2000000029802","1","1","false","1","0.6,0.6,0,0,0.6,0.6,0.6,0,0.6","",""
"","html-keyboard-response","117","117418","0.0-171.0","33F859I567ZN9EQHU38SF1KBCZIBH8","AW5O1RK3W60FC","379OL9DBSS0OLW3FFHTILCO0AJC9Y6","","null","<img src=""img/land3.png"" style=""width:200px; border:14px solid green;"">","null","","","","","","","",""
"","image-keyboard-response","118","117908","0.0-173.0","33F859I567ZN9EQHU38SF1KBCZIBH8","AW5O1RK3W60FC","379OL9DBSS0OLW3FFHTILCO0AJC9Y6","","488.5","img/land5.png","76","489.5","3","1","false","3","0.6,0.6,0,0,0.6,0.6,0.6,0,0.6","",""
"","html-keyboard-response","119","118210","0.0-174.0","33F859I567ZN9EQHU38SF1KBCZIBH8","AW5O1RK3W60FC","379OL9DBSS0OLW3FFHTILCO0AJC9Y6","","null","<img src=""img/land5.png"" style=""width:200px; border:14px solid green;"">","null","","","","","","","",""
"","image-keyboard-response","120","118636","0.0-176.0","33F859I567ZN9EQHU38SF1KBCZIBH8","AW5O1RK3W60FC","379OL9DBSS0OLW3FFHTILCO0AJC9Y6","","424.90000000596046","img/land5.png","76","425.69999998807907","3","0","false","3","0.6,0.6,0,0,0.6,0.6,0.6,0,0.6","",""
"","html-keyboard-response","121","118938","0.0-177.0","33F859I567ZN9EQHU38SF1KBCZIBH8","AW5O1RK3W60FC","379OL9DBSS0OLW3FFHTILCO0AJC9Y6","","null","<img src=""img/land5.png"" style=""width:200px;border:14px solid red;"">","null","","","","","","","",""
"","image-keyboard-response","122","119373","0.0-179.0","33F859I567ZN9EQHU38SF1KBCZIBH8","AW5O1RK3W60FC","379OL9DBSS0OLW3FFHTILCO0AJC9Y6","","434.59999999403954","img/land5.png","76","435.59999999403954","3","0","false","3","0.6,0.6,0,0,0.6,0.6,0.6,0,0.6","",""
"","html-keyboard-response","123","119675","0.0-180.0","33F859I567ZN9EQHU38SF1KBCZIBH8","AW5O1RK3W60FC","379OL9DBSS0OLW3FFHTILCO0AJC9Y6","","null","<img src=""img/land5.png"" style=""width:200px;border:14px solid red;"">","null","","","","","","","",""
"","image-keyboard-response","124","120197","0.0-182.0","33F859I567ZN9EQHU38SF1KBCZIBH8","AW5O1RK3W60FC","379OL9DBSS0OLW3FFHTILCO0AJC9Y6","","520.1000000089407","img/land3.png","74","521.2000000029802","1","0","false","1","0.6,0.6,0,0,0.6,0.6,0.6,0,0.6","",""
"","html-keyboard-response","125","120500","0.0-183.0","33F859I567ZN9EQHU38SF1KBCZIBH8","AW5O1RK3W60FC","379OL9DBSS0OLW3FFHTILCO0AJC9Y6","","null","<img src=""img/land3.png"" style=""width:200px;border:14px solid red;"">","null","","","","","","","",""
"","image-keyboard-response","126","120997","0.0-185.0","33F859I567ZN9EQHU38SF1KBCZIBH8","AW5O1RK3W60FC","379OL9DBSS0OLW3FFHTILCO0AJC9Y6","","496.29999999701977","img/land5.png","76","497.20000000298023","3","1","false","3","0.6,0.6,0,0,0.6,0.6,0.6,0,0.6","",""
"","html-keyboard-response","127","121299","0.0-186.0","33F859I567ZN9EQHU38SF1KBCZIBH8","AW5O1RK3W60FC","379OL9DBSS0OLW3FFHTILCO0AJC9Y6","","null","<img src=""img/land5.png"" style=""width:200px; border:14px solid green;"">","null","","","","","","","",""
"","image-keyboard-response","128","121868","0.0-188.0","33F859I567ZN9EQHU38SF1KBCZIBH8","AW5O1RK3W60FC","379OL9DBSS0OLW3FFHTILCO0AJC9Y6","","568.3999999910593","img/land3.png","74","569.5","1","1","false","1","0.6,0.6,0,0,0.6,0.6,0.6,0,0.6","",""
"","html-keyboard-response","129","122171","0.0-189.0","33F859I567ZN9EQHU38SF1KBCZIBH8","AW5O1RK3W60FC","379OL9DBSS0OLW3FFHTILCO0AJC9Y6","","null","<img src=""img/land3.png"" style=""width:200px; border:14px solid green;"">","null","","","","","","","",""
"","image-keyboard-response","130","122677","0.0-191.0","33F859I567ZN9EQHU38SF1KBCZIBH8","AW5O1RK3W60FC","379OL9DBSS0OLW3FFHTILCO0AJC9Y6","","504.70000000298023","img/land9.png","76","505.79999999701977","3","0","false","2","0.6,0.6,0,0,0.6,0.6,0.6,0,0.6","",""
"","html-keyboard-response","131","122979","0.0-192.0","33F859I567ZN9EQHU38SF1KBCZIBH8","AW5O1RK3W60FC","379OL9DBSS0OLW3FFHTILCO0AJC9Y6","","null","<img src=""img/land9.png"" style=""width:200px;border:14px solid red;"">","null","","","","","","","",""
"","image-keyboard-response","132","123749","0.0-194.0","33F859I567ZN9EQHU38SF1KBCZIBH8","AW5O1RK3W60FC","379OL9DBSS0OLW3FFHTILCO0AJC9Y6","","768","img/land3.png","74","769.0999999940395","1","1","false","1","0.6,0.6,0,0,0.6,0.6,0.6,0,0.6","",""
"","html-keyboard-response","133","124051","0.0-195.0","33F859I567ZN9EQHU38SF1KBCZIBH8","AW5O1RK3W60FC","379OL9DBSS0OLW3FFHTILCO0AJC9Y6","","null","<img src=""img/land3.png"" style=""width:200px; border:14px solid green;"">","null","","","","","","","",""
"","image-keyboard-response","134","124637","0.0-197.0","33F859I567ZN9EQHU38SF1KBCZIBH8","AW5O1RK3W60FC","379OL9DBSS0OLW3FFHTILCO0AJC9Y6","","584.3999999910593","img/land9.png","76","585.5","3","1","false","2","0.6,0.6,0,0,0.6,0.6,0.6,0,0.6","",""
"","html-keyboard-response","135","124939","0.0-198.0","33F859I567ZN9EQHU38SF1KBCZIBH8","AW5O1RK3W60FC","379OL9DBSS0OLW3FFHTILCO0AJC9Y6","","null","<img src=""img/land9.png"" style=""width:200px; border:14px solid green;"">","null","","","","","","","",""
"","image-keyboard-response","136","125405","0.0-200.0","33F859I567ZN9EQHU38SF1KBCZIBH8","AW5O1RK3W60FC","379OL9DBSS0OLW3FFHTILCO0AJC9Y6","","465.20000000298023","img/land9.png","76","466.29999999701977","3","1","false","2","0.6,0.6,0,0,0.6,0.6,0.6,0,0.6","",""
"","html-keyboard-response","137","125707","0.0-201.0","33F859I567ZN9EQHU38SF1KBCZIBH8","AW5O1RK3W60FC","379OL9DBSS0OLW3FFHTILCO0AJC9Y6","","null","<img src=""img/land9.png"" style=""width:200px; border:14px solid green;"">","null","","","","","","","",""
"","image-keyboard-response","138","126221","0.0-203.0","33F859I567ZN9EQHU38SF1KBCZIBH8","AW5O1RK3W60FC","379OL9DBSS0OLW3FFHTILCO0AJC9Y6","","512.4000000059605","img/land9.png","76","513.5999999940395","3","1","false","2","0.6,0.6,0,0,0.6,0.6,0.6,0,0.6","",""
"","html-keyboard-response","139","126523","0.0-204.0","33F859I567ZN9EQHU38SF1KBCZIBH8","AW5O1RK3W60FC","379OL9DBSS0OLW3FFHTILCO0AJC9Y6","","null","<img src=""img/land9.png"" style=""width:200px; border:14px solid green;"">","null","","","","","","","",""
"","image-keyboard-response","140","127133","0.0-206.0","33F859I567ZN9EQHU38SF1KBCZIBH8","AW5O1RK3W60FC","379OL9DBSS0OLW3FFHTILCO0AJC9Y6","","608.2999999970198","img/land3.png","74","609.2999999970198","1","0","false","1","0.6,0.6,0,0,0.6,0.6,0.6,0,0.6","",""
"","html-keyboard-response","141","127435","0.0-207.0","33F859I567ZN9EQHU38SF1KBCZIBH8","AW5O1RK3W60FC","379OL9DBSS0OLW3FFHTILCO0AJC9Y6","","null","<img src=""img/land3.png"" style=""width:200px;border:14px solid red;"">","null","","","","","","","",""
"","image-keyboard-response","142","127877","0.0-209.0","33F859I567ZN9EQHU38SF1KBCZIBH8","AW5O1RK3W60FC","379OL9DBSS0OLW3FFHTILCO0AJC9Y6","","440.40000000596046","img/land3.png","74","441.40000000596046","1","1","false","1","0.6,0.6,0,0,0.6,0.6,0.6,0,0.6","",""
"","html-keyboard-response","143","128179","0.0-210.0","33F859I567ZN9EQHU38SF1KBCZIBH8","AW5O1RK3W60FC","379OL9DBSS0OLW3FFHTILCO0AJC9Y6","","null","<img src=""img/land3.png"" style=""width:200px; border:14px solid green;"">","null","","","","","","","",""
"","image-keyboard-response","144","128733","0.0-212.0","33F859I567ZN9EQHU38SF1KBCZIBH8","AW5O1RK3W60FC","379OL9DBSS0OLW3FFHTILCO0AJC9Y6","","552.7999999970198","img/land9.png","76","553.5","3","0","false","2","0.6,0.6,0,0,0.6,0.6,0.6,0,0.6","",""
"","html-keyboard-response","145","129035","0.0-213.0","33F859I567ZN9EQHU38SF1KBCZIBH8","AW5O1RK3W60FC","379OL9DBSS0OLW3FFHTILCO0AJC9Y6","","null","<img src=""img/land9.png"" style=""width:200px;border:14px solid red;"">","null","","","","","","","",""
"","image-keyboard-response","146","129485","0.0-215.0","33F859I567ZN9EQHU38SF1KBCZIBH8","AW5O1RK3W60FC","379OL9DBSS0OLW3FFHTILCO0AJC9Y6","","449","img/land9.png","76","450.09999999403954","3","0","false","2","0.6,0.6,0,0,0.6,0.6,0.6,0,0.6","",""
"","html-keyboard-response","147","129787","0.0-216.0","33F859I567ZN9EQHU38SF1KBCZIBH8","AW5O1RK3W60FC","379OL9DBSS0OLW3FFHTILCO0AJC9Y6","","null","<img src=""img/land9.png"" style=""width:200px;border:14px solid red;"">","null","","","","","","","",""
"","image-keyboard-response","148","130237","0.0-218.0","33F859I567ZN9EQHU38SF1KBCZIBH8","AW5O1RK3W60FC","379OL9DBSS0OLW3FFHTILCO0AJC9Y6","","448.20000000298023","img/land9.png","76","449.09999999403954","3","1","false","2","0.6,0.6,0,0,0.6,0.6,0.6,0,0.6","",""
"","html-keyboard-response","149","130539","0.0-219.0","33F859I567ZN9EQHU38SF1KBCZIBH8","AW5O1RK3W60FC","379OL9DBSS0OLW3FFHTILCO0AJC9Y6","","null","<img src=""img/land9.png"" style=""width:200px; border:14px solid green;"">","null","","","","","","","",""
"","image-keyboard-response","150","131061","0.0-221.0","33F859I567ZN9EQHU38SF1KBCZIBH8","AW5O1RK3W60FC","379OL9DBSS0OLW3FFHTILCO0AJC9Y6","","521.2999999970198","img/land3.png","74","522.2999999970198","1","1","false","1","0.6,0.6,0,0,0.6,0.6,0.6,0,0.6","",""
"","html-keyboard-response","151","131363","0.0-222.0","33F859I567ZN9EQHU38SF1KBCZIBH8","AW5O1RK3W60FC","379OL9DBSS0OLW3FFHTILCO0AJC9Y6","","null","<img src=""img/land3.png"" style=""width:200px; border:14px solid green;"">","null","","","","","","","",""
"","image-keyboard-response","152","131885","0.0-224.0","33F859I567ZN9EQHU38SF1KBCZIBH8","AW5O1RK3W60FC","379OL9DBSS0OLW3FFHTILCO0AJC9Y6","","519.9000000059605","img/land5.png","76","520.9000000059605","3","0","false","3","0.6,0.6,0,0,0.6,0.6,0.6,0,0.6","",""
"","html-keyboard-response","153","132187","0.0-225.0","33F859I567ZN9EQHU38SF1KBCZIBH8","AW5O1RK3W60FC","379OL9DBSS0OLW3FFHTILCO0AJC9Y6","","null","<img src=""img/land5.png"" style=""width:200px;border:14px solid red;"">","null","","","","","","","",""
"","image-keyboard-response","154","132701","0.0-227.0","33F859I567ZN9EQHU38SF1KBCZIBH8","AW5O1RK3W60FC","379OL9DBSS0OLW3FFHTILCO0AJC9Y6","","513","img/land5.png","76","514.1000000089407","3","1","false","3","0.6,0.6,0,0,0.6,0.6,0.6,0,0.6","",""
"","html-keyboard-response","155","133003","0.0-228.0","33F859I567ZN9EQHU38SF1KBCZIBH8","AW5O1RK3W60FC","379OL9DBSS0OLW3FFHTILCO0AJC9Y6","","null","<img src=""img/land5.png"" style=""width:200px; border:14px solid green;"">","null","","","","","","","",""
"","image-keyboard-response","156","133653","0.0-230.0","33F859I567ZN9EQHU38SF1KBCZIBH8","AW5O1RK3W60FC","379OL9DBSS0OLW3FFHTILCO0AJC9Y6","","648.3999999910593","img/land9.png","76","649.4000000059605","3","0","false","2","0.6,0.6,0,0,0.6,0.6,0.6,0,0.6","",""
"","html-keyboard-response","157","133956","0.0-231.0","33F859I567ZN9EQHU38SF1KBCZIBH8","AW5O1RK3W60FC","379OL9DBSS0OLW3FFHTILCO0AJC9Y6","","null","<img src=""img/land9.png"" style=""width:200px;border:14px solid red;"">","null","","","","","","","",""
"","image-keyboard-response","158","134541","0.0-233.0","33F859I567ZN9EQHU38SF1KBCZIBH8","AW5O1RK3W60FC","379OL9DBSS0OLW3FFHTILCO0AJC9Y6","","583.2999999970198","img/land3.png","74","584.4000000059605","1","1","false","1","0.6,0.6,0,0,0.6,0.6,0.6,0,0.6","",""
"","html-keyboard-response","159","134843","0.0-234.0","33F859I567ZN9EQHU38SF1KBCZIBH8","AW5O1RK3W60FC","379OL9DBSS0OLW3FFHTILCO0AJC9Y6","","null","<img src=""img/land3.png"" style=""width:200px; border:14px solid green;"">","null","","","","","","","",""
"","image-keyboard-response","160","135375","0.0-236.0","33F859I567ZN9EQHU38SF1KBCZIBH8","AW5O1RK3W60FC","379OL9DBSS0OLW3FFHTILCO0AJC9Y6","","530.4000000059605","img/land9.png","76","531.8999999910593","3","0","false","2","0.6,0.6,0,0,0.6,0.6,0.6,0,0.6","",""
"","html-keyboard-response","161","135678","0.0-237.0","33F859I567ZN9EQHU38SF1KBCZIBH8","AW5O1RK3W60FC","379OL9DBSS0OLW3FFHTILCO0AJC9Y6","","null","<img src=""img/land9.png"" style=""width:200px;border:14px solid red;"">","null","","","","","","","",""
"","image-keyboard-response","162","136261","0.0-239.0","33F859I567ZN9EQHU38SF1KBCZIBH8","AW5O1RK3W60FC","379OL9DBSS0OLW3FFHTILCO0AJC9Y6","","581.6999999880791","img/land3.png","74","582.5","1","0","false","1","0.6,0.6,0,0,0.6,0.6,0.6,0,0.6","",""
"","html-keyboard-response","163","136563","0.0-240.0","33F859I567ZN9EQHU38SF1KBCZIBH8","AW5O1RK3W60FC","379OL9DBSS0OLW3FFHTILCO0AJC9Y6","","null","<img src=""img/land3.png"" style=""width:200px;border:14px solid red;"">","null","","","","","","","",""
"","image-keyboard-response","164","137085","0.0-242.0","33F859I567ZN9EQHU38SF1KBCZIBH8","AW5O1RK3W60FC","379OL9DBSS0OLW3FFHTILCO0AJC9Y6","","520.7999999970198","img/land9.png","76","522","3","1","false","2","0.6,0.6,0,0,0.6,0.6,0.6,0,0.6","",""
"","html-keyboard-response","165","137386","0.0-243.0","33F859I567ZN9EQHU38SF1KBCZIBH8","AW5O1RK3W60FC","379OL9DBSS0OLW3FFHTILCO0AJC9Y6","","null","<img src=""img/land9.png"" style=""width:200px; border:14px solid green;"">","null","","","","","","","",""
"","image-keyboard-response","166","137949","0.0-245.0","33F859I567ZN9EQHU38SF1KBCZIBH8","AW5O1RK3W60FC","379OL9DBSS0OLW3FFHTILCO0AJC9Y6","","561.4000000059605","img/land5.png","76","562.2000000029802","3","1","false","3","0.6,0.6,0,0,0.6,0.6,0.6,0,0.6","",""
"","html-keyboard-response","167","138252","0.0-246.0","33F859I567ZN9EQHU38SF1KBCZIBH8","AW5O1RK3W60FC","379OL9DBSS0OLW3FFHTILCO0AJC9Y6","","null","<img src=""img/land5.png"" style=""width:200px; border:14px solid green;"">","null","","","","","","","",""
"","image-keyboard-response","168","138757","0.0-248.0","33F859I567ZN9EQHU38SF1KBCZIBH8","AW5O1RK3W60FC","379OL9DBSS0OLW3FFHTILCO0AJC9Y6","","503.40000000596046","img/land9.png","76","504.40000000596046","3","0","false","2","0.6,0.6,0,0,0.6,0.6,0.6,0,0.6","",""
"","html-keyboard-response","169","139058","0.0-249.0","33F859I567ZN9EQHU38SF1KBCZIBH8","AW5O1RK3W60FC","379OL9DBSS0OLW3FFHTILCO0AJC9Y6","","null","<img src=""img/land9.png"" style=""width:200px;border:14px solid red;"">","null","","","","","","","",""
"","image-keyboard-response","170","139573","0.0-251.0","33F859I567ZN9EQHU38SF1KBCZIBH8","AW5O1RK3W60FC","379OL9DBSS0OLW3FFHTILCO0AJC9Y6","","513.5","img/land5.png","76","514.5","3","0","false","3","0.6,0.6,0,0,0.6,0.6,0.6,0,0.6","",""
"","html-keyboard-response","171","139877","0.0-252.0","33F859I567ZN9EQHU38SF1KBCZIBH8","AW5O1RK3W60FC","379OL9DBSS0OLW3FFHTILCO0AJC9Y6","","null","<img src=""img/land5.png"" style=""width:200px;border:14px solid red;"">","null","","","","","","","",""
"","image-keyboard-response","172","140325","0.0-254.0","33F859I567ZN9EQHU38SF1KBCZIBH8","AW5O1RK3W60FC","379OL9DBSS0OLW3FFHTILCO0AJC9Y6","","446.69999998807907","img/land5.png","76","447.70000000298023","3","1","false","3","0.6,0.6,0,0,0.6,0.6,0.6,0,0.6","",""
"","html-keyboard-response","173","140627","0.0-255.0","33F859I567ZN9EQHU38SF1KBCZIBH8","AW5O1RK3W60FC","379OL9DBSS0OLW3FFHTILCO0AJC9Y6","","null","<img src=""img/land5.png"" style=""width:200px; border:14px solid green;"">","null","","","","","","","",""
"","image-keyboard-response","174","141140","0.0-257.0","33F859I567ZN9EQHU38SF1KBCZIBH8","AW5O1RK3W60FC","379OL9DBSS0OLW3FFHTILCO0AJC9Y6","","511.79999999701977","img/land5.png","76","512.8999999910593","3","1","false","3","0.6,0.6,0,0,0.6,0.6,0.6,0,0.6","",""
"","html-keyboard-response","175","141442","0.0-258.0","33F859I567ZN9EQHU38SF1KBCZIBH8","AW5O1RK3W60FC","379OL9DBSS0OLW3FFHTILCO0AJC9Y6","","null","<img src=""img/land5.png"" style=""width:200px; border:14px solid green;"">","null","","","","","","","",""
"","image-keyboard-response","176","142013","0.0-260.0","33F859I567ZN9EQHU38SF1KBCZIBH8","AW5O1RK3W60FC","379OL9DBSS0OLW3FFHTILCO0AJC9Y6","","569.4000000059605","img/land3.png","74","570.4000000059605","1","1","false","1","0.6,0.6,0,0,0.6,0.6,0.6,0,0.6","",""
"","html-keyboard-response","177","142315","0.0-261.0","33F859I567ZN9EQHU38SF1KBCZIBH8","AW5O1RK3W60FC","379OL9DBSS0OLW3FFHTILCO0AJC9Y6","","null","<img src=""img/land3.png"" style=""width:200px; border:14px solid green;"">","null","","","","","","","",""
"","image-keyboard-response","178","142821","0.0-263.0","33F859I567ZN9EQHU38SF1KBCZIBH8","AW5O1RK3W60FC","379OL9DBSS0OLW3FFHTILCO0AJC9Y6","","505.40000000596046","img/land5.png","76","506.29999999701977","3","1","false","3","0.6,0.6,0,0,0.6,0.6,0.6,0,0.6","",""
"","html-keyboard-response","179","143124","0.0-264.0","33F859I567ZN9EQHU38SF1KBCZIBH8","AW5O1RK3W60FC","379OL9DBSS0OLW3FFHTILCO0AJC9Y6","","null","<img src=""img/land5.png"" style=""width:200px; border:14px solid green;"">","null","","","","","","","",""
"","image-keyboard-response","180","143709","0.0-266.0","33F859I567ZN9EQHU38SF1KBCZIBH8","AW5O1RK3W60FC","379OL9DBSS0OLW3FFHTILCO0AJC9Y6","","583.6000000089407","img/land9.png","76","584.5999999940395","3","0","false","2","0.6,0.6,0,0,0.6,0.6,0.6,0,0.6","",""
"","html-keyboard-response","181","144011","0.0-267.0","33F859I567ZN9EQHU38SF1KBCZIBH8","AW5O1RK3W60FC","379OL9DBSS0OLW3FFHTILCO0AJC9Y6","","null","<img src=""img/land9.png"" style=""width:200px;border:14px solid red;"">","null","","","","","","","",""
"","image-keyboard-response","182","144509","0.0-269.0","33F859I567ZN9EQHU38SF1KBCZIBH8","AW5O1RK3W60FC","379OL9DBSS0OLW3FFHTILCO0AJC9Y6","","496.29999999701977","img/land9.png","76","497.20000000298023","3","1","false","2","0.6,0.6,0,0,0.6,0.6,0.6,0,0.6","",""
"","html-keyboard-response","183","144812","0.0-270.0","33F859I567ZN9EQHU38SF1KBCZIBH8","AW5O1RK3W60FC","379OL9DBSS0OLW3FFHTILCO0AJC9Y6","","null","<img src=""img/land9.png"" style=""width:200px; border:14px solid green;"">","null","","","","","","","",""
"","html-keyboard-response","184","151141","0.0-272.0","33F859I567ZN9EQHU38SF1KBCZIBH8","AW5O1RK3W60FC","379OL9DBSS0OLW3FFHTILCO0AJC9Y6","","","","","","","","","","","",""
"","image-keyboard-response","185","152069","0.0-273.0","33F859I567ZN9EQHU38SF1KBCZIBH8","AW5O1RK3W60FC","379OL9DBSS0OLW3FFHTILCO0AJC9Y6","","926.5999999940395","img/land8.png","76","928.0999999940395","3","1","false","2","0.8,0.2,0.2,0.2,0.8,0.2,0.2,0.2,0.8","",""
"","html-keyboard-response","186","152371","0.0-274.0","33F859I567ZN9EQHU38SF1KBCZIBH8","AW5O1RK3W60FC","379OL9DBSS0OLW3FFHTILCO0AJC9Y6","","null","<img src=""img/land8.png"" style=""width:200px; border:14px solid green;"">","null","","","","","","","",""
"","image-keyboard-response","187","153373","0.0-276.0","33F859I567ZN9EQHU38SF1KBCZIBH8","AW5O1RK3W60FC","379OL9DBSS0OLW3FFHTILCO0AJC9Y6","","","img/land7.png","","1001.7999999970198","-1","0","true","3","0.8,0.2,0.2,0.2,0.8,0.2,0.2,0.2,0.8","",""
"","html-keyboard-response","188","153675","0.0-277.0","33F859I567ZN9EQHU38SF1KBCZIBH8","AW5O1RK3W60FC","379OL9DBSS0OLW3FFHTILCO0AJC9Y6","","null","<img src=""img/land7.png"" style=""width:200px;border:14px solid red;"">","null","","","","","","","",""
"","html-keyboard-response","189","161421","0.0-278.0-0.0","33F859I567ZN9EQHU38SF1KBCZIBH8","AW5O1RK3W60FC","379OL9DBSS0OLW3FFHTILCO0AJC9Y6","","","","","","","","","","","",""
"","image-keyboard-response","190","162181","0.0-279.0","33F859I567ZN9EQHU38SF1KBCZIBH8","AW5O1RK3W60FC","379OL9DBSS0OLW3FFHTILCO0AJC9Y6","","759.6000000089407","img/land7.png","76","760.7000000029802","3","1","false","3","0.8,0.2,0.2,0.2,0.8,0.2,0.2,0.2,0.8","",""
"","html-keyboard-response","191","162483","0.0-280.0","33F859I567ZN9EQHU38SF1KBCZIBH8","AW5O1RK3W60FC","379OL9DBSS0OLW3FFHTILCO0AJC9Y6","","null","<img src=""img/land7.png"" style=""width:200px; border:14px solid green;"">","null","","","","","","","",""
"","image-keyboard-response","192","163189","0.0-282.0","33F859I567ZN9EQHU38SF1KBCZIBH8","AW5O1RK3W60FC","379OL9DBSS0OLW3FFHTILCO0AJC9Y6","","703.8999999910593","img/land8.png","76","704.9000000059605","3","0","false","2","0.8,0.2,0.2,0.2,0.8,0.2,0.2,0.2,0.8","",""
"","html-keyboard-response","193","163490","0.0-283.0","33F859I567ZN9EQHU38SF1KBCZIBH8","AW5O1RK3W60FC","379OL9DBSS0OLW3FFHTILCO0AJC9Y6","","null","<img src=""img/land8.png"" style=""width:200px;border:14px solid red;"">","null","","","","","","","",""
"","image-keyboard-response","194","164021","0.0-285.0","33F859I567ZN9EQHU38SF1KBCZIBH8","AW5O1RK3W60FC","379OL9DBSS0OLW3FFHTILCO0AJC9Y6","","529.0999999940395","img/land8.png","75","530.5999999940395","2","0","false","2","0.8,0.2,0.2,0.2,0.8,0.2,0.2,0.2,0.8","",""
"","html-keyboard-response","195","164323","0.0-286.0","33F859I567ZN9EQHU38SF1KBCZIBH8","AW5O1RK3W60FC","379OL9DBSS0OLW3FFHTILCO0AJC9Y6","","null","<img src=""img/land8.png"" style=""width:200px;border:14px solid red;"">","null","","","","","","","",""
"","image-keyboard-response","196","164765","0.0-288.0","33F859I567ZN9EQHU38SF1KBCZIBH8","AW5O1RK3W60FC","379OL9DBSS0OLW3FFHTILCO0AJC9Y6","","440.70000000298023","img/land7.png","74","441.6000000089407","1","0","false","3","0.8,0.2,0.2,0.2,0.8,0.2,0.2,0.2,0.8","",""
"","html-keyboard-response","197","165067","0.0-289.0","33F859I567ZN9EQHU38SF1KBCZIBH8","AW5O1RK3W60FC","379OL9DBSS0OLW3FFHTILCO0AJC9Y6","","null","<img src=""img/land7.png"" style=""width:200px;border:14px solid red;"">","null","","","","","","","",""
"","image-keyboard-response","198","165709","0.0-291.0","33F859I567ZN9EQHU38SF1KBCZIBH8","AW5O1RK3W60FC","379OL9DBSS0OLW3FFHTILCO0AJC9Y6","","640.5","img/land8.png","76","641.5","3","0","false","2","0.8,0.2,0.2,0.2,0.8,0.2,0.2,0.2,0.8","",""
"","html-keyboard-response","199","166011","0.0-292.0","33F859I567ZN9EQHU38SF1KBCZIBH8","AW5O1RK3W60FC","379OL9DBSS0OLW3FFHTILCO0AJC9Y6","","null","<img src=""img/land8.png"" style=""width:200px;border:14px solid red;"">","null","","","","","","","",""
"","image-keyboard-response","200","166440","0.0-294.0","33F859I567ZN9EQHU38SF1KBCZIBH8","AW5O1RK3W60FC","379OL9DBSS0OLW3FFHTILCO0AJC9Y6","","427.09999999403954","img/land8.png","76","428.40000000596046","3","1","false","2","0.8,0.2,0.2,0.2,0.8,0.2,0.2,0.2,0.8","",""
"","html-keyboard-response","201","166742","0.0-295.0","33F859I567ZN9EQHU38SF1KBCZIBH8","AW5O1RK3W60FC","379OL9DBSS0OLW3FFHTILCO0AJC9Y6","","null","<img src=""img/land8.png"" style=""width:200px; border:14px solid green;"">","null","","","","","","","",""
"","image-keyboard-response","202","167397","0.0-297.0","33F859I567ZN9EQHU38SF1KBCZIBH8","AW5O1RK3W60FC","379OL9DBSS0OLW3FFHTILCO0AJC9Y6","","653.1999999880791","img/land7.png","76","654.2000000029802","3","1","false","3","0.8,0.2,0.2,0.2,0.8,0.2,0.2,0.2,0.8","",""
"","html-keyboard-response","203","167699","0.0-298.0","33F859I567ZN9EQHU38SF1KBCZIBH8","AW5O1RK3W60FC","379OL9DBSS0OLW3FFHTILCO0AJC9Y6","","null","<img src=""img/land7.png"" style=""width:200px; border:14px solid green;"">","null","","","","","","","",""
"","image-keyboard-response","204","168701","0.0-300.0","33F859I567ZN9EQHU38SF1KBCZIBH8","AW5O1RK3W60FC","379OL9DBSS0OLW3FFHTILCO0AJC9Y6","","","img/land6.png","","1001.7999999970198","-1","0","true","1","0.8,0.2,0.2,0.2,0.8,0.2,0.2,0.2,0.8","",""
"","html-keyboard-response","205","169003","0.0-301.0","33F859I567ZN9EQHU38SF1KBCZIBH8","AW5O1RK3W60FC","379OL9DBSS0OLW3FFHTILCO0AJC9Y6","","null","<img src=""img/land6.png"" style=""width:200px;border:14px solid red;"">","null","","","","","","","",""
"","html-keyboard-response","206","172589","0.0-302.0-0.0","33F859I567ZN9EQHU38SF1KBCZIBH8","AW5O1RK3W60FC","379OL9DBSS0OLW3FFHTILCO0AJC9Y6","","","","","","","","","","","",""
"","image-keyboard-response","207","173141","0.0-303.0","33F859I567ZN9EQHU38SF1KBCZIBH8","AW5O1RK3W60FC","379OL9DBSS0OLW3FFHTILCO0AJC9Y6","","551.3999999910593","img/land6.png","74","552.5","1","1","false","1","0.8,0.2,0.2,0.2,0.8,0.2,0.2,0.2,0.8","",""
"","html-keyboard-response","208","173444","0.0-304.0","33F859I567ZN9EQHU38SF1KBCZIBH8","AW5O1RK3W60FC","379OL9DBSS0OLW3FFHTILCO0AJC9Y6","","null","<img src=""img/land6.png"" style=""width:200px; border:14px solid green;"">","null","","","","","","","",""
"","image-keyboard-response","209","174189","0.0-306.0","33F859I567ZN9EQHU38SF1KBCZIBH8","AW5O1RK3W60FC","379OL9DBSS0OLW3FFHTILCO0AJC9Y6","","744.5","img/land8.png","76","745.4000000059605","3","0","false","2","0.8,0.2,0.2,0.2,0.8,0.2,0.2,0.2,0.8","",""
"","html-keyboard-response","210","174492","0.0-307.0","33F859I567ZN9EQHU38SF1KBCZIBH8","AW5O1RK3W60FC","379OL9DBSS0OLW3FFHTILCO0AJC9Y6","","null","<img src=""img/land8.png"" style=""width:200px;border:14px solid red;"">","null","","","","","","","",""
"","image-keyboard-response","211","174853","0.0-309.0","33F859I567ZN9EQHU38SF1KBCZIBH8","AW5O1RK3W60FC","379OL9DBSS0OLW3FFHTILCO0AJC9Y6","","359.59999999403954","img/land8.png","76","360.59999999403954","3","0","false","2","0.8,0.2,0.2,0.2,0.8,0.2,0.2,0.2,0.8","",""
"","html-keyboard-response","212","175156","0.0-310.0","33F859I567ZN9EQHU38SF1KBCZIBH8","AW5O1RK3W60FC","379OL9DBSS0OLW3FFHTILCO0AJC9Y6","","null","<img src=""img/land8.png"" style=""width:200px;border:14px solid red;"">","null","","","","","","","",""
"","image-keyboard-response","213","175726","0.0-312.0","33F859I567ZN9EQHU38SF1KBCZIBH8","AW5O1RK3W60FC","379OL9DBSS0OLW3FFHTILCO0AJC9Y6","","568.0999999940395","img/land7.png","76","569.0999999940395","3","1","false","3","0.8,0.2,0.2,0.2,0.8,0.2,0.2,0.2,0.8","",""
"","html-keyboard-response","214","176028","0.0-313.0","33F859I567ZN9EQHU38SF1KBCZIBH8","AW5O1RK3W60FC","379OL9DBSS0OLW3FFHTILCO0AJC9Y6","","null","<img src=""img/land7.png"" style=""width:200px; border:14px solid green;"">","null","","","","","","","",""
"","image-keyboard-response","215","176582","0.0-315.0","33F859I567ZN9EQHU38SF1KBCZIBH8","AW5O1RK3W60FC","379OL9DBSS0OLW3FFHTILCO0AJC9Y6","","552.1000000089407","img/land6.png","76","553.0999999940395","3","0","false","1","0.8,0.2,0.2,0.2,0.8,0.2,0.2,0.2,0.8","",""
"","html-keyboard-response","216","176883","0.0-316.0","33F859I567ZN9EQHU38SF1KBCZIBH8","AW5O1RK3W60FC","379OL9DBSS0OLW3FFHTILCO0AJC9Y6","","null","<img src=""img/land6.png"" style=""width:200px;border:14px solid red;"">","null","","","","","","","",""
"","image-keyboard-response","217","177277","0.0-318.0","33F859I567ZN9EQHU38SF1KBCZIBH8","AW5O1RK3W60FC","379OL9DBSS0OLW3FFHTILCO0AJC9Y6","","391.70000000298023","img/land7.png","76","392.80000001192093","3","1","false","3","0.8,0.2,0.2,0.2,0.8,0.2,0.2,0.2,0.8","",""
"","html-keyboard-response","218","177580","0.0-319.0","33F859I567ZN9EQHU38SF1KBCZIBH8","AW5O1RK3W60FC","379OL9DBSS0OLW3FFHTILCO0AJC9Y6","","null","<img src=""img/land7.png"" style=""width:200px; border:14px solid green;"">","null","","","","","","","",""
"","image-keyboard-response","219","178006","0.0-321.0","33F859I567ZN9EQHU38SF1KBCZIBH8","AW5O1RK3W60FC","379OL9DBSS0OLW3FFHTILCO0AJC9Y6","","423.70000000298023","img/land7.png","76","425.1000000089407","3","1","false","3","0.8,0.2,0.2,0.2,0.8,0.2,0.2,0.2,0.8","",""
"","html-keyboard-response","220","178308","0.0-322.0","33F859I567ZN9EQHU38SF1KBCZIBH8","AW5O1RK3W60FC","379OL9DBSS0OLW3FFHTILCO0AJC9Y6","","null","<img src=""img/land7.png"" style=""width:200px; border:14px solid green;"">","null","","","","","","","",""
"","image-keyboard-response","221","178925","0.0-324.0","33F859I567ZN9EQHU38SF1KBCZIBH8","AW5O1RK3W60FC","379OL9DBSS0OLW3FFHTILCO0AJC9Y6","","615.5","img/land6.png","74","616.5999999940395","1","1","false","1","0.8,0.2,0.2,0.2,0.8,0.2,0.2,0.2,0.8","",""
"","html-keyboard-response","222","179226","0.0-325.0","33F859I567ZN9EQHU38SF1KBCZIBH8","AW5O1RK3W60FC","379OL9DBSS0OLW3FFHTILCO0AJC9Y6","","null","<img src=""img/land6.png"" style=""width:200px; border:14px solid green;"">","null","","","","","","","",""
"","image-keyboard-response","223","179701","0.0-327.0","33F859I567ZN9EQHU38SF1KBCZIBH8","AW5O1RK3W60FC","379OL9DBSS0OLW3FFHTILCO0AJC9Y6","","473.1000000089407","img/land7.png","76","474.20000000298023","3","0","false","3","0.8,0.2,0.2,0.2,0.8,0.2,0.2,0.2,0.8","",""
"","html-keyboard-response","224","180004","0.0-328.0","33F859I567ZN9EQHU38SF1KBCZIBH8","AW5O1RK3W60FC","379OL9DBSS0OLW3FFHTILCO0AJC9Y6","","null","<img src=""img/land7.png"" style=""width:200px;border:14px solid red;"">","null","","","","","","","",""
"","image-keyboard-response","225","180388","0.0-330.0","33F859I567ZN9EQHU38SF1KBCZIBH8","AW5O1RK3W60FC","379OL9DBSS0OLW3FFHTILCO0AJC9Y6","","383","img/land7.png","76","384","3","1","false","3","0.8,0.2,0.2,0.2,0.8,0.2,0.2,0.2,0.8","",""
"","html-keyboard-response","226","180691","0.0-331.0","33F859I567ZN9EQHU38SF1KBCZIBH8","AW5O1RK3W60FC","379OL9DBSS0OLW3FFHTILCO0AJC9Y6","","null","<img src=""img/land7.png"" style=""width:200px; border:14px solid green;"">","null","","","","","","","",""
"","image-keyboard-response","227","181237","0.0-333.0","33F859I567ZN9EQHU38SF1KBCZIBH8","AW5O1RK3W60FC","379OL9DBSS0OLW3FFHTILCO0AJC9Y6","","544.8000000119209","img/land6.png","74","545.8000000119209","1","1","false","1","0.8,0.2,0.2,0.2,0.8,0.2,0.2,0.2,0.8","",""
"","html-keyboard-response","228","181550","0.0-334.0","33F859I567ZN9EQHU38SF1KBCZIBH8","AW5O1RK3W60FC","379OL9DBSS0OLW3FFHTILCO0AJC9Y6","","null","<img src=""img/land6.png"" style=""width:200px; border:14px solid green;"">","null","","","","","","","",""
"","image-keyboard-response","229","182062","0.0-336.0","33F859I567ZN9EQHU38SF1KBCZIBH8","AW5O1RK3W60FC","379OL9DBSS0OLW3FFHTILCO0AJC9Y6","","510.29999999701977","img/land8.png","76","511.59999999403954","3","1","false","2","0.8,0.2,0.2,0.2,0.8,0.2,0.2,0.2,0.8","",""
"","html-keyboard-response","230","182365","0.0-337.0","33F859I567ZN9EQHU38SF1KBCZIBH8","AW5O1RK3W60FC","379OL9DBSS0OLW3FFHTILCO0AJC9Y6","","null","<img src=""img/land8.png"" style=""width:200px; border:14px solid green;"">","null","","","","","","","",""
"","image-keyboard-response","231","182821","0.0-339.0","33F859I567ZN9EQHU38SF1KBCZIBH8","AW5O1RK3W60FC","379OL9DBSS0OLW3FFHTILCO0AJC9Y6","","455","img/land7.png","76","456.1000000089407","3","1","false","3","0.8,0.2,0.2,0.2,0.8,0.2,0.2,0.2,0.8","",""
"","html-keyboard-response","232","183124","0.0-340.0","33F859I567ZN9EQHU38SF1KBCZIBH8","AW5O1RK3W60FC","379OL9DBSS0OLW3FFHTILCO0AJC9Y6","","null","<img src=""img/land7.png"" style=""width:200px; border:14px solid green;"">","null","","","","","","","",""
"","image-keyboard-response","233","183509","0.0-342.0","33F859I567ZN9EQHU38SF1KBCZIBH8","AW5O1RK3W60FC","379OL9DBSS0OLW3FFHTILCO0AJC9Y6","","383.5","img/land7.png","76","384.80000001192093","3","1","false","3","0.8,0.2,0.2,0.2,0.8,0.2,0.2,0.2,0.8","",""
"","html-keyboard-response","234","183811","0.0-343.0","33F859I567ZN9EQHU38SF1KBCZIBH8","AW5O1RK3W60FC","379OL9DBSS0OLW3FFHTILCO0AJC9Y6","","null","<img src=""img/land7.png"" style=""width:200px; border:14px solid green;"">","null","","","","","","","",""
"","image-keyboard-response","235","184365","0.0-345.0","33F859I567ZN9EQHU38SF1KBCZIBH8","AW5O1RK3W60FC","379OL9DBSS0OLW3FFHTILCO0AJC9Y6","","552.7000000029802","img/land6.png","74","553.7000000029802","1","1","false","1","0.8,0.2,0.2,0.2,0.8,0.2,0.2,0.2,0.8","",""
"","html-keyboard-response","236","184667","0.0-346.0","33F859I567ZN9EQHU38SF1KBCZIBH8","AW5O1RK3W60FC","379OL9DBSS0OLW3FFHTILCO0AJC9Y6","","null","<img src=""img/land6.png"" style=""width:200px; border:14px solid green;"">","null","","","","","","","",""
"","image-keyboard-response","237","185069","0.0-348.0","33F859I567ZN9EQHU38SF1KBCZIBH8","AW5O1RK3W60FC","379OL9DBSS0OLW3FFHTILCO0AJC9Y6","","400.40000000596046","img/land8.png","76","401.69999998807907","3","0","false","2","0.8,0.2,0.2,0.2,0.8,0.2,0.2,0.2,0.8","",""
"","html-keyboard-response","238","185372","0.0-349.0","33F859I567ZN9EQHU38SF1KBCZIBH8","AW5O1RK3W60FC","379OL9DBSS0OLW3FFHTILCO0AJC9Y6","","null","<img src=""img/land8.png"" style=""width:200px;border:14px solid red;"">","null","","","","","","","",""
"","image-keyboard-response","239","185765","0.0-351.0","33F859I567ZN9EQHU38SF1KBCZIBH8","AW5O1RK3W60FC","379OL9DBSS0OLW3FFHTILCO0AJC9Y6","","391.70000000298023","img/land8.png","76","393","3","0","false","2","0.8,0.2,0.2,0.2,0.8,0.2,0.2,0.2,0.8","",""
"","html-keyboard-response","240","186067","0.0-352.0","33F859I567ZN9EQHU38SF1KBCZIBH8","AW5O1RK3W60FC","379OL9DBSS0OLW3FFHTILCO0AJC9Y6","","null","<img src=""img/land8.png"" style=""width:200px;border:14px solid red;"">","null","","","","","","","",""
"","image-keyboard-response","241","186621","0.0-354.0","33F859I567ZN9EQHU38SF1KBCZIBH8","AW5O1RK3W60FC","379OL9DBSS0OLW3FFHTILCO0AJC9Y6","","552.7000000029802","img/land6.png","76","553.7999999970198","3","0","false","1","0.8,0.2,0.2,0.2,0.8,0.2,0.2,0.2,0.8","",""
"","html-keyboard-response","242","186923","0.0-355.0","33F859I567ZN9EQHU38SF1KBCZIBH8","AW5O1RK3W60FC","379OL9DBSS0OLW3FFHTILCO0AJC9Y6","","null","<img src=""img/land6.png"" style=""width:200px;border:14px solid red;"">","null","","","","","","","",""
"","image-keyboard-response","243","187517","0.0-357.0","33F859I567ZN9EQHU38SF1KBCZIBH8","AW5O1RK3W60FC","379OL9DBSS0OLW3FFHTILCO0AJC9Y6","","593","img/land7.png","76","594","3","1","false","3","0.8,0.2,0.2,0.2,0.8,0.2,0.2,0.2,0.8","",""
"","html-keyboard-response","244","187819","0.0-358.0","33F859I567ZN9EQHU38SF1KBCZIBH8","AW5O1RK3W60FC","379OL9DBSS0OLW3FFHTILCO0AJC9Y6","","null","<img src=""img/land7.png"" style=""width:200px; border:14px solid green;"">","null","","","","","","","",""
"","image-keyboard-response","245","188197","0.0-360.0","33F859I567ZN9EQHU38SF1KBCZIBH8","AW5O1RK3W60FC","379OL9DBSS0OLW3FFHTILCO0AJC9Y6","","376.40000000596046","img/land7.png","76","377.5","3","1","false","3","0.8,0.2,0.2,0.2,0.8,0.2,0.2,0.2,0.8","",""
"","html-keyboard-response","246","188499","0.0-361.0","33F859I567ZN9EQHU38SF1KBCZIBH8","AW5O1RK3W60FC","379OL9DBSS0OLW3FFHTILCO0AJC9Y6","","null","<img src=""img/land7.png"" style=""width:200px; border:14px solid green;"">","null","","","","","","","",""
"","image-keyboard-response","247","189053","0.0-363.0","33F859I567ZN9EQHU38SF1KBCZIBH8","AW5O1RK3W60FC","379OL9DBSS0OLW3FFHTILCO0AJC9Y6","","552.5999999940395","img/land6.png","74","553.4000000059605","1","1","false","1","0.8,0.2,0.2,0.2,0.8,0.2,0.2,0.2,0.8","",""
"","html-keyboard-response","248","189356","0.0-364.0","33F859I567ZN9EQHU38SF1KBCZIBH8","AW5O1RK3W60FC","379OL9DBSS0OLW3FFHTILCO0AJC9Y6","","null","<img src=""img/land6.png"" style=""width:200px; border:14px solid green;"">","null","","","","","","","",""
"","image-keyboard-response","249","189748","0.0-366.0","33F859I567ZN9EQHU38SF1KBCZIBH8","AW5O1RK3W60FC","379OL9DBSS0OLW3FFHTILCO0AJC9Y6","","391.40000000596046","img/land8.png","76","392.29999999701977","3","0","false","2","0.8,0.2,0.2,0.2,0.8,0.2,0.2,0.2,0.8","",""
"","html-keyboard-response","250","190050","0.0-367.0","33F859I567ZN9EQHU38SF1KBCZIBH8","AW5O1RK3W60FC","379OL9DBSS0OLW3FFHTILCO0AJC9Y6","","null","<img src=""img/land8.png"" style=""width:200px;border:14px solid red;"">","null","","","","","","","",""
"","image-keyboard-response","251","190436","0.0-369.0","33F859I567ZN9EQHU38SF1KBCZIBH8","AW5O1RK3W60FC","379OL9DBSS0OLW3FFHTILCO0AJC9Y6","","385","img/land8.png","76","386","3","0","false","2","0.8,0.2,0.2,0.2,0.8,0.2,0.2,0.2,0.8","",""
"","html-keyboard-response","252","190738","0.0-370.0","33F859I567ZN9EQHU38SF1KBCZIBH8","AW5O1RK3W60FC","379OL9DBSS0OLW3FFHTILCO0AJC9Y6","","null","<img src=""img/land8.png"" style=""width:200px;border:14px solid red;"">","null","","","","","","","",""
"","image-keyboard-response","253","191237","0.0-372.0","33F859I567ZN9EQHU38SF1KBCZIBH8","AW5O1RK3W60FC","379OL9DBSS0OLW3FFHTILCO0AJC9Y6","","496.90000000596046","img/land6.png","74","498","1","1","false","1","0.8,0.2,0.2,0.2,0.8,0.2,0.2,0.2,0.8","",""
"","html-keyboard-response","254","191545","0.0-373.0","33F859I567ZN9EQHU38SF1KBCZIBH8","AW5O1RK3W60FC","379OL9DBSS0OLW3FFHTILCO0AJC9Y6","","null","<img src=""img/land6.png"" style=""width:200px; border:14px solid green;"">","null","","","","","","","",""
"","image-keyboard-response","255","191981","0.0-375.0","33F859I567ZN9EQHU38SF1KBCZIBH8","AW5O1RK3W60FC","379OL9DBSS0OLW3FFHTILCO0AJC9Y6","","434.6000000089407","img/land8.png","76","435.70000000298023","3","0","false","2","0.8,0.2,0.2,0.2,0.8,0.2,0.2,0.2,0.8","",""
"","html-keyboard-response","256","192283","0.0-376.0","33F859I567ZN9EQHU38SF1KBCZIBH8","AW5O1RK3W60FC","379OL9DBSS0OLW3FFHTILCO0AJC9Y6","","null","<img src=""img/land8.png"" style=""width:200px;border:14px solid red;"">","null","","","","","","","",""
"","image-keyboard-response","257","192781","0.0-378.0","33F859I567ZN9EQHU38SF1KBCZIBH8","AW5O1RK3W60FC","379OL9DBSS0OLW3FFHTILCO0AJC9Y6","","496.59999999403954","img/land6.png","74","497.70000000298023","1","0","false","1","0.8,0.2,0.2,0.2,0.8,0.2,0.2,0.2,0.8","",""
"","html-keyboard-response","258","193084","0.0-379.0","33F859I567ZN9EQHU38SF1KBCZIBH8","AW5O1RK3W60FC","379OL9DBSS0OLW3FFHTILCO0AJC9Y6","","null","<img src=""img/land6.png"" style=""width:200px;border:14px solid red;"">","null","","","","","","","",""
"","image-keyboard-response","259","193477","0.0-381.0","33F859I567ZN9EQHU38SF1KBCZIBH8","AW5O1RK3W60FC","379OL9DBSS0OLW3FFHTILCO0AJC9Y6","","391.5","img/land6.png","76","392.79999999701977","3","0","false","1","0.8,0.2,0.2,0.2,0.8,0.2,0.2,0.2,0.8","",""
"","html-keyboard-response","260","193779","0.0-382.0","33F859I567ZN9EQHU38SF1KBCZIBH8","AW5O1RK3W60FC","379OL9DBSS0OLW3FFHTILCO0AJC9Y6","","null","<img src=""img/land6.png"" style=""width:200px;border:14px solid red;"">","null","","","","","","","",""
"","image-keyboard-response","261","194341","0.0-384.0","33F859I567ZN9EQHU38SF1KBCZIBH8","AW5O1RK3W60FC","379OL9DBSS0OLW3FFHTILCO0AJC9Y6","","559.7999999970198","img/land8.png","76","560.8999999910593","3","1","false","2","0.8,0.2,0.2,0.2,0.8,0.2,0.2,0.2,0.8","",""
"","html-keyboard-response","262","194642","0.0-385.0","33F859I567ZN9EQHU38SF1KBCZIBH8","AW5O1RK3W60FC","379OL9DBSS0OLW3FFHTILCO0AJC9Y6","","null","<img src=""img/land8.png"" style=""width:200px; border:14px solid green;"">","null","","","","","","","",""
"","image-keyboard-response","263","195045","0.0-387.0","33F859I567ZN9EQHU38SF1KBCZIBH8","AW5O1RK3W60FC","379OL9DBSS0OLW3FFHTILCO0AJC9Y6","","401.59999999403954","img/land8.png","76","402.90000000596046","3","0","false","2","0.8,0.2,0.2,0.2,0.8,0.2,0.2,0.2,0.8","",""
"","html-keyboard-response","264","195347","0.0-388.0","33F859I567ZN9EQHU38SF1KBCZIBH8","AW5O1RK3W60FC","379OL9DBSS0OLW3FFHTILCO0AJC9Y6","","null","<img src=""img/land8.png"" style=""width:200px;border:14px solid red;"">","null","","","","","","","",""
"","image-keyboard-response","265","195765","0.0-390.0","33F859I567ZN9EQHU38SF1KBCZIBH8","AW5O1RK3W60FC","379OL9DBSS0OLW3FFHTILCO0AJC9Y6","","416.6000000089407","img/land8.png","76","417.59999999403954","3","0","false","2","0.8,0.2,0.2,0.2,0.8,0.2,0.2,0.2,0.8","",""
"","html-keyboard-response","266","196066","0.0-391.0","33F859I567ZN9EQHU38SF1KBCZIBH8","AW5O1RK3W60FC","379OL9DBSS0OLW3FFHTILCO0AJC9Y6","","null","<img src=""img/land8.png"" style=""width:200px;border:14px solid red;"">","null","","","","","","","",""
"","image-keyboard-response","267","196781","0.0-393.0","33F859I567ZN9EQHU38SF1KBCZIBH8","AW5O1RK3W60FC","379OL9DBSS0OLW3FFHTILCO0AJC9Y6","","713.1000000089407","img/land7.png","76","714.2000000029802","3","0","false","3","0.8,0.2,0.2,0.2,0.8,0.2,0.2,0.2,0.8","",""
"","html-keyboard-response","268","197084","0.0-394.0","33F859I567ZN9EQHU38SF1KBCZIBH8","AW5O1RK3W60FC","379OL9DBSS0OLW3FFHTILCO0AJC9Y6","","null","<img src=""img/land7.png"" style=""width:200px;border:14px solid red;"">","null","","","","","","","",""
"","image-keyboard-response","269","197613","0.0-396.0","33F859I567ZN9EQHU38SF1KBCZIBH8","AW5O1RK3W60FC","379OL9DBSS0OLW3FFHTILCO0AJC9Y6","","527.2999999970198","img/land6.png","74","528.3999999910593","1","1","false","1","0.8,0.2,0.2,0.2,0.8,0.2,0.2,0.2,0.8","",""
"","html-keyboard-response","270","197916","0.0-397.0","33F859I567ZN9EQHU38SF1KBCZIBH8","AW5O1RK3W60FC","379OL9DBSS0OLW3FFHTILCO0AJC9Y6","","null","<img src=""img/land6.png"" style=""width:200px; border:14px solid green;"">","null","","","","","","","",""
"","image-keyboard-response","271","198317","0.0-399.0","33F859I567ZN9EQHU38SF1KBCZIBH8","AW5O1RK3W60FC","379OL9DBSS0OLW3FFHTILCO0AJC9Y6","","399.6000000089407","img/land6.png","74","400.5","1","1","false","1","0.8,0.2,0.2,0.2,0.8,0.2,0.2,0.2,0.8","",""
"","html-keyboard-response","272","198618","0.0-400.0","33F859I567ZN9EQHU38SF1KBCZIBH8","AW5O1RK3W60FC","379OL9DBSS0OLW3FFHTILCO0AJC9Y6","","null","<img src=""img/land6.png"" style=""width:200px; border:14px solid green;"">","null","","","","","","","",""
"","image-keyboard-response","273","199109","0.0-402.0","33F859I567ZN9EQHU38SF1KBCZIBH8","AW5O1RK3W60FC","379OL9DBSS0OLW3FFHTILCO0AJC9Y6","","489.09999999403954","img/land8.png","76","490.20000000298023","3","0","false","2","0.8,0.2,0.2,0.2,0.8,0.2,0.2,0.2,0.8","",""
"","html-keyboard-response","274","199412","0.0-403.0","33F859I567ZN9EQHU38SF1KBCZIBH8","AW5O1RK3W60FC","379OL9DBSS0OLW3FFHTILCO0AJC9Y6","","null","<img src=""img/land8.png"" style=""width:200px;border:14px solid red;"">","null","","","","","","","",""
"","image-keyboard-response","275","199861","0.0-405.0","33F859I567ZN9EQHU38SF1KBCZIBH8","AW5O1RK3W60FC","379OL9DBSS0OLW3FFHTILCO0AJC9Y6","","447.90000000596046","img/land7.png","76","448.79999999701977","3","1","false","3","0.8,0.2,0.2,0.2,0.8,0.2,0.2,0.2,0.8","",""
"","html-keyboard-response","276","200163","0.0-406.0","33F859I567ZN9EQHU38SF1KBCZIBH8","AW5O1RK3W60FC","379OL9DBSS0OLW3FFHTILCO0AJC9Y6","","null","<img src=""img/land7.png"" style=""width:200px; border:14px solid green;"">","null","","","","","","","",""
"","image-keyboard-response","277","200597","0.0-408.0","33F859I567ZN9EQHU38SF1KBCZIBH8","AW5O1RK3W60FC","379OL9DBSS0OLW3FFHTILCO0AJC9Y6","","433.29999999701977","img/land7.png","76","434.20000000298023","3","1","false","3","0.8,0.2,0.2,0.2,0.8,0.2,0.2,0.2,0.8","",""
"","html-keyboard-response","278","200899","0.0-409.0","33F859I567ZN9EQHU38SF1KBCZIBH8","AW5O1RK3W60FC","379OL9DBSS0OLW3FFHTILCO0AJC9Y6","","null","<img src=""img/land7.png"" style=""width:200px; border:14px solid green;"">","null","","","","","","","",""
"","image-keyboard-response","279","201604","0.0-411.0","33F859I567ZN9EQHU38SF1KBCZIBH8","AW5O1RK3W60FC","379OL9DBSS0OLW3FFHTILCO0AJC9Y6","","703.7999999970198","img/land8.png","76","704.9000000059605","3","0","false","2","0.8,0.2,0.2,0.2,0.8,0.2,0.2,0.2,0.8","",""
"","html-keyboard-response","280","201906","0.0-412.0","33F859I567ZN9EQHU38SF1KBCZIBH8","AW5O1RK3W60FC","379OL9DBSS0OLW3FFHTILCO0AJC9Y6","","null","<img src=""img/land8.png"" style=""width:200px;border:14px solid red;"">","null","","","","","","","",""
"","image-keyboard-response","281","202157","0.0-414.0","33F859I567ZN9EQHU38SF1KBCZIBH8","AW5O1RK3W60FC","379OL9DBSS0OLW3FFHTILCO0AJC9Y6","","249.20000000298023","img/land7.png","76","250.29999999701977","3","0","false","3","0.8,0.2,0.2,0.2,0.8,0.2,0.2,0.2,0.8","",""
"","html-keyboard-response","282","202460","0.0-415.0","33F859I567ZN9EQHU38SF1KBCZIBH8","AW5O1RK3W60FC","379OL9DBSS0OLW3FFHTILCO0AJC9Y6","","null","<img src=""img/land7.png"" style=""width:200px;border:14px solid red;"">","null","","","","","","","",""
"","image-keyboard-response","283","202981","0.0-417.0","33F859I567ZN9EQHU38SF1KBCZIBH8","AW5O1RK3W60FC","379OL9DBSS0OLW3FFHTILCO0AJC9Y6","","520.4000000059605","img/land7.png","76","521.5","3","1","false","3","0.8,0.2,0.2,0.2,0.8,0.2,0.2,0.2,0.8","",""
"","html-keyboard-response","284","203283","0.0-418.0","33F859I567ZN9EQHU38SF1KBCZIBH8","AW5O1RK3W60FC","379OL9DBSS0OLW3FFHTILCO0AJC9Y6","","null","<img src=""img/land7.png"" style=""width:200px; border:14px solid green;"">","null","","","","","","","",""
"","image-keyboard-response","285","203877","0.0-420.0","33F859I567ZN9EQHU38SF1KBCZIBH8","AW5O1RK3W60FC","379OL9DBSS0OLW3FFHTILCO0AJC9Y6","","591.7000000029802","img/land8.png","76","592.7999999970198","3","0","false","2","0.8,0.2,0.2,0.2,0.8,0.2,0.2,0.2,0.8","",""
"","html-keyboard-response","286","204178","0.0-421.0","33F859I567ZN9EQHU38SF1KBCZIBH8","AW5O1RK3W60FC","379OL9DBSS0OLW3FFHTILCO0AJC9Y6","","null","<img src=""img/land8.png"" style=""width:200px;border:14px solid red;"">","null","","","","","","","",""
"","image-keyboard-response","287","204645","0.0-423.0","33F859I567ZN9EQHU38SF1KBCZIBH8","AW5O1RK3W60FC","379OL9DBSS0OLW3FFHTILCO0AJC9Y6","","464.8999999910593","img/land7.png","76","466.1000000089407","3","0","false","3","0.8,0.2,0.2,0.2,0.8,0.2,0.2,0.2,0.8","",""
"","html-keyboard-response","288","204957","0.0-424.0","33F859I567ZN9EQHU38SF1KBCZIBH8","AW5O1RK3W60FC","379OL9DBSS0OLW3FFHTILCO0AJC9Y6","","null","<img src=""img/land7.png"" style=""width:200px;border:14px solid red;"">","null","","","","","","","",""
"","image-keyboard-response","289","205382","0.0-426.0","33F859I567ZN9EQHU38SF1KBCZIBH8","AW5O1RK3W60FC","379OL9DBSS0OLW3FFHTILCO0AJC9Y6","","422.8999999910593","img/land8.png","76","424.5","3","0","false","2","0.8,0.2,0.2,0.2,0.8,0.2,0.2,0.2,0.8","",""
"","html-keyboard-response","290","205684","0.0-427.0","33F859I567ZN9EQHU38SF1KBCZIBH8","AW5O1RK3W60FC","379OL9DBSS0OLW3FFHTILCO0AJC9Y6","","null","<img src=""img/land8.png"" style=""width:200px;border:14px solid red;"">","null","","","","","","","",""
"","image-keyboard-response","291","206166","0.0-429.0","33F859I567ZN9EQHU38SF1KBCZIBH8","AW5O1RK3W60FC","379OL9DBSS0OLW3FFHTILCO0AJC9Y6","","479.5","img/land6.png","74","480.90000000596046","1","1","false","1","0.8,0.2,0.2,0.2,0.8,0.2,0.2,0.2,0.8","",""
"","html-keyboard-response","292","206468","0.0-430.0","33F859I567ZN9EQHU38SF1KBCZIBH8","AW5O1RK3W60FC","379OL9DBSS0OLW3FFHTILCO0AJC9Y6","","null","<img src=""img/land6.png"" style=""width:200px; border:14px solid green;"">","null","","","","","","","",""
"","image-keyboard-response","293","206845","0.0-432.0","33F859I567ZN9EQHU38SF1KBCZIBH8","AW5O1RK3W60FC","379OL9DBSS0OLW3FFHTILCO0AJC9Y6","","375.3999999910593","img/land6.png","74","376.70000000298023","1","1","false","1","0.8,0.2,0.2,0.2,0.8,0.2,0.2,0.2,0.8","",""
"","html-keyboard-response","294","207147","0.0-433.0","33F859I567ZN9EQHU38SF1KBCZIBH8","AW5O1RK3W60FC","379OL9DBSS0OLW3FFHTILCO0AJC9Y6","","null","<img src=""img/land6.png"" style=""width:200px; border:14px solid green;"">","null","","","","","","","",""
"","image-keyboard-response","295","207573","0.0-435.0","33F859I567ZN9EQHU38SF1KBCZIBH8","AW5O1RK3W60FC","379OL9DBSS0OLW3FFHTILCO0AJC9Y6","","424.40000000596046","img/land6.png","74","425.3999999910593","1","1","false","1","0.8,0.2,0.2,0.2,0.8,0.2,0.2,0.2,0.8","",""
"","html-keyboard-response","296","207876","0.0-436.0","33F859I567ZN9EQHU38SF1KBCZIBH8","AW5O1RK3W60FC","379OL9DBSS0OLW3FFHTILCO0AJC9Y6","","null","<img src=""img/land6.png"" style=""width:200px; border:14px solid green;"">","null","","","","","","","",""
"","image-keyboard-response","297","208318","0.0-438.0","33F859I567ZN9EQHU38SF1KBCZIBH8","AW5O1RK3W60FC","379OL9DBSS0OLW3FFHTILCO0AJC9Y6","","440.5","img/land6.png","74","441.5","1","1","false","1","0.8,0.2,0.2,0.2,0.8,0.2,0.2,0.2,0.8","",""
"","html-keyboard-response","298","208620","0.0-439.0","33F859I567ZN9EQHU38SF1KBCZIBH8","AW5O1RK3W60FC","379OL9DBSS0OLW3FFHTILCO0AJC9Y6","","null","<img src=""img/land6.png"" style=""width:200px; border:14px solid green;"">","null","","","","","","","",""
"","image-keyboard-response","299","209110","0.0-441.0","33F859I567ZN9EQHU38SF1KBCZIBH8","AW5O1RK3W60FC","379OL9DBSS0OLW3FFHTILCO0AJC9Y6","","488.5","img/land7.png","76","489.70000000298023","3","1","false","3","0.8,0.2,0.2,0.2,0.8,0.2,0.2,0.2,0.8","",""
"","html-keyboard-response","300","209422","0.0-442.0","33F859I567ZN9EQHU38SF1KBCZIBH8","AW5O1RK3W60FC","379OL9DBSS0OLW3FFHTILCO0AJC9Y6","","null","<img src=""img/land7.png"" style=""width:200px; border:14px solid green;"">","null","","","","","","","",""
"","image-keyboard-response","301","209885","0.0-444.0","33F859I567ZN9EQHU38SF1KBCZIBH8","AW5O1RK3W60FC","379OL9DBSS0OLW3FFHTILCO0AJC9Y6","","462","img/land6.png","76","463.20000000298023","3","0","false","1","0.8,0.2,0.2,0.2,0.8,0.2,0.2,0.2,0.8","",""
"","html-keyboard-response","302","210187","0.0-445.0","33F859I567ZN9EQHU38SF1KBCZIBH8","AW5O1RK3W60FC","379OL9DBSS0OLW3FFHTILCO0AJC9Y6","","null","<img src=""img/land6.png"" style=""width:200px;border:14px solid red;"">","null","","","","","","","",""
"","image-keyboard-response","303","210702","0.0-447.0","33F859I567ZN9EQHU38SF1KBCZIBH8","AW5O1RK3W60FC","379OL9DBSS0OLW3FFHTILCO0AJC9Y6","","513.1000000089407","img/land8.png","76","514.1999999880791","3","0","false","2","0.8,0.2,0.2,0.2,0.8,0.2,0.2,0.2,0.8","",""
"","html-keyboard-response","304","211004","0.0-448.0","33F859I567ZN9EQHU38SF1KBCZIBH8","AW5O1RK3W60FC","379OL9DBSS0OLW3FFHTILCO0AJC9Y6","","null","<img src=""img/land8.png"" style=""width:200px;border:14px solid red;"">","null","","","","","","","",""
"","image-keyboard-response","305","211557","0.0-450.0","33F859I567ZN9EQHU38SF1KBCZIBH8","AW5O1RK3W60FC","379OL9DBSS0OLW3FFHTILCO0AJC9Y6","","551.3000000119209","img/land7.png","74","552.5","1","0","false","3","0.8,0.2,0.2,0.2,0.8,0.2,0.2,0.2,0.8","",""
"","html-keyboard-response","306","211859","0.0-451.0","33F859I567ZN9EQHU38SF1KBCZIBH8","AW5O1RK3W60FC","379OL9DBSS0OLW3FFHTILCO0AJC9Y6","","null","<img src=""img/land7.png"" style=""width:200px;border:14px solid red;"">","null","","","","","","","",""
"","image-keyboard-response","307","212365","0.0-453.0","33F859I567ZN9EQHU38SF1KBCZIBH8","AW5O1RK3W60FC","379OL9DBSS0OLW3FFHTILCO0AJC9Y6","","504.69999998807907","img/land7.png","74","505.70000000298023","1","0","false","3","0.8,0.2,0.2,0.2,0.8,0.2,0.2,0.2,0.8","",""
"","html-keyboard-response","308","212667","0.0-454.0","33F859I567ZN9EQHU38SF1KBCZIBH8","AW5O1RK3W60FC","379OL9DBSS0OLW3FFHTILCO0AJC9Y6","","null","<img src=""img/land7.png"" style=""width:200px;border:14px solid red;"">","null","","","","","","","",""
"","image-keyboard-response","309","212717","0.0-456.0","33F859I567ZN9EQHU38SF1KBCZIBH8","AW5O1RK3W60FC","379OL9DBSS0OLW3FFHTILCO0AJC9Y6","","49.5","img/land6.png","76","50.29999999701977","3","0","false","1","0.8,0.2,0.2,0.2,0.8,0.2,0.2,0.2,0.8","",""
"","html-keyboard-response","310","213020","0.0-457.0","33F859I567ZN9EQHU38SF1KBCZIBH8","AW5O1RK3W60FC","379OL9DBSS0OLW3FFHTILCO0AJC9Y6","","null","<img src=""img/land6.png"" style=""width:200px;border:14px solid red;"">","null","","","","","","","",""
"","image-keyboard-response","311","213333","0.0-459.0","33F859I567ZN9EQHU38SF1KBCZIBH8","AW5O1RK3W60FC","379OL9DBSS0OLW3FFHTILCO0AJC9Y6","","311.3999999910593","img/land8.png","74","312.29999999701977","1","0","false","2","0.8,0.2,0.2,0.2,0.8,0.2,0.2,0.2,0.8","",""
"","html-keyboard-response","312","213636","0.0-460.0","33F859I567ZN9EQHU38SF1KBCZIBH8","AW5O1RK3W60FC","379OL9DBSS0OLW3FFHTILCO0AJC9Y6","","null","<img src=""img/land8.png"" style=""width:200px;border:14px solid red;"">","null","","","","","","","",""
"","image-keyboard-response","313","214326","0.0-462.0","33F859I567ZN9EQHU38SF1KBCZIBH8","AW5O1RK3W60FC","379OL9DBSS0OLW3FFHTILCO0AJC9Y6","","688","img/land6.png","74","689","1","1","false","1","0.8,0.2,0.2,0.2,0.8,0.2,0.2,0.2,0.8","",""
"","html-keyboard-response","314","214628","0.0-463.0","33F859I567ZN9EQHU38SF1KBCZIBH8","AW5O1RK3W60FC","379OL9DBSS0OLW3FFHTILCO0AJC9Y6","","null","<img src=""img/land6.png"" style=""width:200px; border:14px solid green;"">","null","","","","","","","",""
"","image-keyboard-response","315","215213","0.0-465.0","33F859I567ZN9EQHU38SF1KBCZIBH8","AW5O1RK3W60FC","379OL9DBSS0OLW3FFHTILCO0AJC9Y6","","584","img/land8.png","76","584.8999999910593","3","1","false","2","0.8,0.2,0.2,0.2,0.8,0.2,0.2,0.2,0.8","",""
"","html-keyboard-response","316","215515","0.0-466.0","33F859I567ZN9EQHU38SF1KBCZIBH8","AW5O1RK3W60FC","379OL9DBSS0OLW3FFHTILCO0AJC9Y6","","null","<img src=""img/land8.png"" style=""width:200px; border:14px solid green;"">","null","","","","","","","",""
"","image-keyboard-response","317","215965","0.0-468.0","33F859I567ZN9EQHU38SF1KBCZIBH8","AW5O1RK3W60FC","379OL9DBSS0OLW3FFHTILCO0AJC9Y6","","448.20000000298023","img/land7.png","76","449.29999999701977","3","1","false","3","0.8,0.2,0.2,0.2,0.8,0.2,0.2,0.2,0.8","",""
"","html-keyboard-response","318","216267","0.0-469.0","33F859I567ZN9EQHU38SF1KBCZIBH8","AW5O1RK3W60FC","379OL9DBSS0OLW3FFHTILCO0AJC9Y6","","null","<img src=""img/land7.png"" style=""width:200px; border:14px solid green;"">","null","","","","","","","",""
"","image-keyboard-response","319","216717","0.0-471.0","33F859I567ZN9EQHU38SF1KBCZIBH8","AW5O1RK3W60FC","379OL9DBSS0OLW3FFHTILCO0AJC9Y6","","449.20000000298023","img/land6.png","76","450.20000000298023","3","0","false","1","0.8,0.2,0.2,0.2,0.8,0.2,0.2,0.2,0.8","",""
"","html-keyboard-response","320","217019","0.0-472.0","33F859I567ZN9EQHU38SF1KBCZIBH8","AW5O1RK3W60FC","379OL9DBSS0OLW3FFHTILCO0AJC9Y6","","null","<img src=""img/land6.png"" style=""width:200px;border:14px solid red;"">","null","","","","","","","",""
"","image-keyboard-response","321","217645","0.0-474.0","33F859I567ZN9EQHU38SF1KBCZIBH8","AW5O1RK3W60FC","379OL9DBSS0OLW3FFHTILCO0AJC9Y6","","624.7999999970198","img/land6.png","74","626","1","1","false","1","0.8,0.2,0.2,0.2,0.8,0.2,0.2,0.2,0.8","",""
"","html-keyboard-response","322","217947","0.0-475.0","33F859I567ZN9EQHU38SF1KBCZIBH8","AW5O1RK3W60FC","379OL9DBSS0OLW3FFHTILCO0AJC9Y6","","null","<img src=""img/land6.png"" style=""width:200px; border:14px solid green;"">","null","","","","","","","",""
"","image-keyboard-response","323","218589","0.0-477.0","33F859I567ZN9EQHU38SF1KBCZIBH8","AW5O1RK3W60FC","379OL9DBSS0OLW3FFHTILCO0AJC9Y6","","640.3999999910593","img/land7.png","76","641.5","3","1","false","3","0.8,0.2,0.2,0.2,0.8,0.2,0.2,0.2,0.8","",""
"","html-keyboard-response","324","218892","0.0-478.0","33F859I567ZN9EQHU38SF1KBCZIBH8","AW5O1RK3W60FC","379OL9DBSS0OLW3FFHTILCO0AJC9Y6","","null","<img src=""img/land7.png"" style=""width:200px; border:14px solid green;"">","null","","","","","","","",""
"","image-keyboard-response","325","219438","0.0-480.0","33F859I567ZN9EQHU38SF1KBCZIBH8","AW5O1RK3W60FC","379OL9DBSS0OLW3FFHTILCO0AJC9Y6","","544.1000000089407","img/land6.png","74","545.2000000029802","1","1","false","1","0.8,0.2,0.2,0.2,0.8,0.2,0.2,0.2,0.8","",""
"","html-keyboard-response","326","219740","0.0-481.0","33F859I567ZN9EQHU38SF1KBCZIBH8","AW5O1RK3W60FC","379OL9DBSS0OLW3FFHTILCO0AJC9Y6","","null","<img src=""img/land6.png"" style=""width:200px; border:14px solid green;"">","null","","","","","","","",""
"","image-keyboard-response","327","220269","0.0-483.0","33F859I567ZN9EQHU38SF1KBCZIBH8","AW5O1RK3W60FC","379OL9DBSS0OLW3FFHTILCO0AJC9Y6","","527.1000000089407","img/land7.png","76","528.3000000119209","3","1","false","3","0.8,0.2,0.2,0.2,0.8,0.2,0.2,0.2,0.8","",""
"","html-keyboard-response","328","220571","0.0-484.0","33F859I567ZN9EQHU38SF1KBCZIBH8","AW5O1RK3W60FC","379OL9DBSS0OLW3FFHTILCO0AJC9Y6","","null","<img src=""img/land7.png"" style=""width:200px; border:14px solid green;"">","null","","","","","","","",""
"","image-keyboard-response","329","220885","0.0-486.0","33F859I567ZN9EQHU38SF1KBCZIBH8","AW5O1RK3W60FC","379OL9DBSS0OLW3FFHTILCO0AJC9Y6","","312.90000000596046","img/land8.png","76","313.8999999910593","3","0","false","2","0.8,0.2,0.2,0.2,0.8,0.2,0.2,0.2,0.8","",""
"","html-keyboard-response","330","221187","0.0-487.0","33F859I567ZN9EQHU38SF1KBCZIBH8","AW5O1RK3W60FC","379OL9DBSS0OLW3FFHTILCO0AJC9Y6","","null","<img src=""img/land8.png"" style=""width:200px;border:14px solid red;"">","null","","","","","","","",""
"","image-keyboard-response","331","221885","0.0-489.0","33F859I567ZN9EQHU38SF1KBCZIBH8","AW5O1RK3W60FC","379OL9DBSS0OLW3FFHTILCO0AJC9Y6","","696.9000000059605","img/land6.png","74","698.0999999940395","1","0","false","1","0.8,0.2,0.2,0.2,0.8,0.2,0.2,0.2,0.8","",""
"","html-keyboard-response","332","222187","0.0-490.0","33F859I567ZN9EQHU38SF1KBCZIBH8","AW5O1RK3W60FC","379OL9DBSS0OLW3FFHTILCO0AJC9Y6","","null","<img src=""img/land6.png"" style=""width:200px;border:14px solid red;"">","null","","","","","","","",""
"","image-keyboard-response","333","222557","0.0-492.0","33F859I567ZN9EQHU38SF1KBCZIBH8","AW5O1RK3W60FC","379OL9DBSS0OLW3FFHTILCO0AJC9Y6","","368.69999998807907","img/land6.png","74","369.5","1","1","false","1","0.8,0.2,0.2,0.2,0.8,0.2,0.2,0.2,0.8","",""
"","html-keyboard-response","334","222859","0.0-493.0","33F859I567ZN9EQHU38SF1KBCZIBH8","AW5O1RK3W60FC","379OL9DBSS0OLW3FFHTILCO0AJC9Y6","","null","<img src=""img/land6.png"" style=""width:200px; border:14px solid green;"">","null","","","","","","","",""
"","image-keyboard-response","335","223349","0.0-495.0","33F859I567ZN9EQHU38SF1KBCZIBH8","AW5O1RK3W60FC","379OL9DBSS0OLW3FFHTILCO0AJC9Y6","","488.90000000596046","img/land8.png","76","489.80000001192093","3","0","false","2","0.8,0.2,0.2,0.2,0.8,0.2,0.2,0.2,0.8","",""
"","html-keyboard-response","336","223650","0.0-496.0","33F859I567ZN9EQHU38SF1KBCZIBH8","AW5O1RK3W60FC","379OL9DBSS0OLW3FFHTILCO0AJC9Y6","","null","<img src=""img/land8.png"" style=""width:200px;border:14px solid red;"">","null","","","","","","","",""
"","image-keyboard-response","337","224301","0.0-498.0","33F859I567ZN9EQHU38SF1KBCZIBH8","AW5O1RK3W60FC","379OL9DBSS0OLW3FFHTILCO0AJC9Y6","","649.2000000029802","img/land6.png","76","650.2000000029802","3","1","false","1","0.8,0.2,0.2,0.2,0.8,0.2,0.2,0.2,0.8","",""
"","html-keyboard-response","338","224603","0.0-499.0","33F859I567ZN9EQHU38SF1KBCZIBH8","AW5O1RK3W60FC","379OL9DBSS0OLW3FFHTILCO0AJC9Y6","","null","<img src=""img/land6.png"" style=""width:200px; border:14px solid green;"">","null","","","","","","","",""
"","image-keyboard-response","339","225276","0.0-501.0","33F859I567ZN9EQHU38SF1KBCZIBH8","AW5O1RK3W60FC","379OL9DBSS0OLW3FFHTILCO0AJC9Y6","","672.2000000029802","img/land8.png","76","673.0999999940395","3","0","false","2","0.8,0.2,0.2,0.2,0.8,0.2,0.2,0.2,0.8","",""
"","html-keyboard-response","340","225578","0.0-502.0","33F859I567ZN9EQHU38SF1KBCZIBH8","AW5O1RK3W60FC","379OL9DBSS0OLW3FFHTILCO0AJC9Y6","","null","<img src=""img/land8.png"" style=""width:200px;border:14px solid red;"">","null","","","","","","","",""
"","image-keyboard-response","341","226094","0.0-504.0","33F859I567ZN9EQHU38SF1KBCZIBH8","AW5O1RK3W60FC","379OL9DBSS0OLW3FFHTILCO0AJC9Y6","","513.7999999970198","img/land7.png","74","514.9000000059605","1","0","false","3","0.8,0.2,0.2,0.2,0.8,0.2,0.2,0.2,0.8","",""
"","html-keyboard-response","342","226396","0.0-505.0","33F859I567ZN9EQHU38SF1KBCZIBH8","AW5O1RK3W60FC","379OL9DBSS0OLW3FFHTILCO0AJC9Y6","","null","<img src=""img/land7.png"" style=""width:200px;border:14px solid red;"">","null","","","","","","","",""
"","image-keyboard-response","343","226966","0.0-507.0","33F859I567ZN9EQHU38SF1KBCZIBH8","AW5O1RK3W60FC","379OL9DBSS0OLW3FFHTILCO0AJC9Y6","","568.5","img/land6.png","74","569.5999999940395","1","1","false","1","0.8,0.2,0.2,0.2,0.8,0.2,0.2,0.2,0.8","",""
"","html-keyboard-response","344","227270","0.0-508.0","33F859I567ZN9EQHU38SF1KBCZIBH8","AW5O1RK3W60FC","379OL9DBSS0OLW3FFHTILCO0AJC9Y6","","null","<img src=""img/land6.png"" style=""width:200px; border:14px solid green;"">","null","","","","","","","",""
"","image-keyboard-response","345","227805","0.0-510.0","33F859I567ZN9EQHU38SF1KBCZIBH8","AW5O1RK3W60FC","379OL9DBSS0OLW3FFHTILCO0AJC9Y6","","522.3999999910593","img/land7.png","76","523.4000000059605","3","1","false","3","0.8,0.2,0.2,0.2,0.8,0.2,0.2,0.2,0.8","",""
"","html-keyboard-response","346","228107","0.0-511.0","33F859I567ZN9EQHU38SF1KBCZIBH8","AW5O1RK3W60FC","379OL9DBSS0OLW3FFHTILCO0AJC9Y6","","null","<img src=""img/land7.png"" style=""width:200px; border:14px solid green;"">","null","","","","","","","",""
"","image-keyboard-response","347","228485","0.0-513.0","33F859I567ZN9EQHU38SF1KBCZIBH8","AW5O1RK3W60FC","379OL9DBSS0OLW3FFHTILCO0AJC9Y6","","376.20000000298023","img/land7.png","76","377.29999999701977","3","0","false","3","0.8,0.2,0.2,0.2,0.8,0.2,0.2,0.2,0.8","",""
"","html-keyboard-response","348","228798","0.0-514.0","33F859I567ZN9EQHU38SF1KBCZIBH8","AW5O1RK3W60FC","379OL9DBSS0OLW3FFHTILCO0AJC9Y6","","null","<img src=""img/land7.png"" style=""width:200px;border:14px solid red;"">","null","","","","","","","",""
"","image-keyboard-response","349","229510","0.0-516.0","33F859I567ZN9EQHU38SF1KBCZIBH8","AW5O1RK3W60FC","379OL9DBSS0OLW3FFHTILCO0AJC9Y6","","710.4000000059605","img/land8.png","76","711.7999999970198","3","0","false","2","0.8,0.2,0.2,0.2,0.8,0.2,0.2,0.2,0.8","",""
"","html-keyboard-response","350","229812","0.0-517.0","33F859I567ZN9EQHU38SF1KBCZIBH8","AW5O1RK3W60FC","379OL9DBSS0OLW3FFHTILCO0AJC9Y6","","null","<img src=""img/land8.png"" style=""width:200px;border:14px solid red;"">","null","","","","","","","",""
"","image-keyboard-response","351","230221","0.0-519.0","33F859I567ZN9EQHU38SF1KBCZIBH8","AW5O1RK3W60FC","379OL9DBSS0OLW3FFHTILCO0AJC9Y6","","407.70000000298023","img/land8.png","76","408.79999999701977","3","1","false","2","0.8,0.2,0.2,0.2,0.8,0.2,0.2,0.2,0.8","",""
"","html-keyboard-response","352","230523","0.0-520.0","33F859I567ZN9EQHU38SF1KBCZIBH8","AW5O1RK3W60FC","379OL9DBSS0OLW3FFHTILCO0AJC9Y6","","null","<img src=""img/land8.png"" style=""width:200px; border:14px solid green;"">","null","","","","","","","",""
"","image-keyboard-response","353","230981","0.0-522.0","33F859I567ZN9EQHU38SF1KBCZIBH8","AW5O1RK3W60FC","379OL9DBSS0OLW3FFHTILCO0AJC9Y6","","456.79999999701977","img/land8.png","76","457.6000000089407","3","1","false","2","0.8,0.2,0.2,0.2,0.8,0.2,0.2,0.2,0.8","",""
"","html-keyboard-response","354","231283","0.0-523.0","33F859I567ZN9EQHU38SF1KBCZIBH8","AW5O1RK3W60FC","379OL9DBSS0OLW3FFHTILCO0AJC9Y6","","null","<img src=""img/land8.png"" style=""width:200px; border:14px solid green;"">","null","","","","","","","",""
"","image-keyboard-response","355","231829","0.0-525.0","33F859I567ZN9EQHU38SF1KBCZIBH8","AW5O1RK3W60FC","379OL9DBSS0OLW3FFHTILCO0AJC9Y6","","544.3999999910593","img/land6.png","74","545.5","1","1","false","1","0.8,0.2,0.2,0.2,0.8,0.2,0.2,0.2,0.8","",""
"","html-keyboard-response","356","232131","0.0-526.0","33F859I567ZN9EQHU38SF1KBCZIBH8","AW5O1RK3W60FC","379OL9DBSS0OLW3FFHTILCO0AJC9Y6","","null","<img src=""img/land6.png"" style=""width:200px; border:14px solid green;"">","null","","","","","","","",""
"","image-keyboard-response","357","232533","0.0-528.0","33F859I567ZN9EQHU38SF1KBCZIBH8","AW5O1RK3W60FC","379OL9DBSS0OLW3FFHTILCO0AJC9Y6","","400.70000000298023","img/land6.png","74","401.59999999403954","1","1","false","1","0.8,0.2,0.2,0.2,0.8,0.2,0.2,0.2,0.8","",""
"","html-keyboard-response","358","232837","0.0-529.0","33F859I567ZN9EQHU38SF1KBCZIBH8","AW5O1RK3W60FC","379OL9DBSS0OLW3FFHTILCO0AJC9Y6","","null","<img src=""img/land6.png"" style=""width:200px; border:14px solid green;"">","null","","","","","","","",""
"","image-keyboard-response","359","233317","0.0-531.0","33F859I567ZN9EQHU38SF1KBCZIBH8","AW5O1RK3W60FC","379OL9DBSS0OLW3FFHTILCO0AJC9Y6","","479.3999999910593","img/land6.png","74","480.5","1","1","false","1","0.8,0.2,0.2,0.2,0.8,0.2,0.2,0.2,0.8","",""
"","html-keyboard-response","360","233620","0.0-532.0","33F859I567ZN9EQHU38SF1KBCZIBH8","AW5O1RK3W60FC","379OL9DBSS0OLW3FFHTILCO0AJC9Y6","","null","<img src=""img/land6.png"" style=""width:200px; border:14px solid green;"">","null","","","","","","","",""
"","image-keyboard-response","361","234221","0.0-534.0","33F859I567ZN9EQHU38SF1KBCZIBH8","AW5O1RK3W60FC","379OL9DBSS0OLW3FFHTILCO0AJC9Y6","","599.7000000029802","img/land7.png","76","600.5999999940395","3","0","false","3","0.8,0.2,0.2,0.2,0.8,0.2,0.2,0.2,0.8","",""
"","html-keyboard-response","362","234536","0.0-535.0","33F859I567ZN9EQHU38SF1KBCZIBH8","AW5O1RK3W60FC","379OL9DBSS0OLW3FFHTILCO0AJC9Y6","","null","<img src=""img/land7.png"" style=""width:200px;border:14px solid red;"">","null","","","","","","","",""
"","image-keyboard-response","363","234949","0.0-537.0","33F859I567ZN9EQHU38SF1KBCZIBH8","AW5O1RK3W60FC","379OL9DBSS0OLW3FFHTILCO0AJC9Y6","","412.29999999701977","img/land7.png","76","413.29999999701977","3","1","false","3","0.8,0.2,0.2,0.2,0.8,0.2,0.2,0.2,0.8","",""
"","html-keyboard-response","364","235252","0.0-538.0","33F859I567ZN9EQHU38SF1KBCZIBH8","AW5O1RK3W60FC","379OL9DBSS0OLW3FFHTILCO0AJC9Y6","","null","<img src=""img/land7.png"" style=""width:200px; border:14px solid green;"">","null","","","","","","","",""
"","image-keyboard-response","365","236077","0.0-540.0","33F859I567ZN9EQHU38SF1KBCZIBH8","AW5O1RK3W60FC","379OL9DBSS0OLW3FFHTILCO0AJC9Y6","","823.2999999970198","img/land8.png","74","824.4000000059605","1","0","false","2","0.8,0.2,0.2,0.2,0.8,0.2,0.2,0.2,0.8","",""
"","html-keyboard-response","366","236379","0.0-541.0","33F859I567ZN9EQHU38SF1KBCZIBH8","AW5O1RK3W60FC","379OL9DBSS0OLW3FFHTILCO0AJC9Y6","","null","<img src=""img/land8.png"" style=""width:200px;border:14px solid red;"">","null","","","","","","","",""
"","html-keyboard-response","367","241301","0.0-543.0","33F859I567ZN9EQHU38SF1KBCZIBH8","AW5O1RK3W60FC","379OL9DBSS0OLW3FFHTILCO0AJC9Y6","","","","","","","","","","","",""
"","image-keyboard-response","368","241990","0.0-544.0","33F859I567ZN9EQHU38SF1KBCZIBH8","AW5O1RK3W60FC","379OL9DBSS0OLW3FFHTILCO0AJC9Y6","","687.5","img/land2.png","75","688.7999999970198","2","1","false","2","0.8,0.8,0.2,0.2,0.8,0.8,0.8,0.2,0.8","",""
"","html-keyboard-response","369","242292","0.0-545.0","33F859I567ZN9EQHU38SF1KBCZIBH8","AW5O1RK3W60FC","379OL9DBSS0OLW3FFHTILCO0AJC9Y6","","null","<img src=""img/land2.png"" style=""width:200px; border:14px solid green;"">","null","","","","","","","",""
"","image-keyboard-response","370","242766","0.0-547.0","33F859I567ZN9EQHU38SF1KBCZIBH8","AW5O1RK3W60FC","379OL9DBSS0OLW3FFHTILCO0AJC9Y6","","472.70000000298023","img/land2.png","75","473.5","2","1","false","2","0.8,0.8,0.2,0.2,0.8,0.8,0.8,0.2,0.8","",""
"","html-keyboard-response","371","243068","0.0-548.0","33F859I567ZN9EQHU38SF1KBCZIBH8","AW5O1RK3W60FC","379OL9DBSS0OLW3FFHTILCO0AJC9Y6","","null","<img src=""img/land2.png"" style=""width:200px; border:14px solid green;"">","null","","","","","","","",""
"","image-keyboard-response","372","243902","0.0-550.0","33F859I567ZN9EQHU38SF1KBCZIBH8","AW5O1RK3W60FC","379OL9DBSS0OLW3FFHTILCO0AJC9Y6","","832.7000000029802","img/land4.png","76","833.7999999970198","3","1","false","3","0.8,0.8,0.2,0.2,0.8,0.8,0.8,0.2,0.8","",""
"","html-keyboard-response","373","244204","0.0-551.0","33F859I567ZN9EQHU38SF1KBCZIBH8","AW5O1RK3W60FC","379OL9DBSS0OLW3FFHTILCO0AJC9Y6","","null","<img src=""img/land4.png"" style=""width:200px; border:14px solid green;"">","null","","","","","","","",""
"","image-keyboard-response","374","244830","0.0-553.0","33F859I567ZN9EQHU38SF1KBCZIBH8","AW5O1RK3W60FC","379OL9DBSS0OLW3FFHTILCO0AJC9Y6","","624","img/land1.png","75","625.2999999970198","2","1","false","1","0.8,0.8,0.2,0.2,0.8,0.8,0.8,0.2,0.8","",""
"","html-keyboard-response","375","245131","0.0-554.0","33F859I567ZN9EQHU38SF1KBCZIBH8","AW5O1RK3W60FC","379OL9DBSS0OLW3FFHTILCO0AJC9Y6","","null","<img src=""img/land1.png"" style=""width:200px; border:14px solid green;"">","null","","","","","","","",""
"","image-keyboard-response","376","246118","0.0-556.0","33F859I567ZN9EQHU38SF1KBCZIBH8","AW5O1RK3W60FC","379OL9DBSS0OLW3FFHTILCO0AJC9Y6","","984.9000000059605","img/land2.png","74","986","1","1","false","2","0.8,0.8,0.2,0.2,0.8,0.8,0.8,0.2,0.8","",""
"","html-keyboard-response","377","246421","0.0-557.0","33F859I567ZN9EQHU38SF1KBCZIBH8","AW5O1RK3W60FC","379OL9DBSS0OLW3FFHTILCO0AJC9Y6","","null","<img src=""img/land2.png"" style=""width:200px; border:14px solid green;"">","null","","","","","","","",""
"","image-keyboard-response","378","246790","0.0-559.0","33F859I567ZN9EQHU38SF1KBCZIBH8","AW5O1RK3W60FC","379OL9DBSS0OLW3FFHTILCO0AJC9Y6","","367.90000000596046","img/land4.png","74","368.79999999701977","1","1","false","3","0.8,0.8,0.2,0.2,0.8,0.8,0.8,0.2,0.8","",""
"","html-keyboard-response","379","247091","0.0-560.0","33F859I567ZN9EQHU38SF1KBCZIBH8","AW5O1RK3W60FC","379OL9DBSS0OLW3FFHTILCO0AJC9Y6","","null","<img src=""img/land4.png"" style=""width:200px; border:14px solid green;"">","null","","","","","","","",""
"","image-keyboard-response","380","247702","0.0-562.0","33F859I567ZN9EQHU38SF1KBCZIBH8","AW5O1RK3W60FC","379OL9DBSS0OLW3FFHTILCO0AJC9Y6","","609.2000000029802","img/land1.png","74","610.2000000029802","1","1","false","1","0.8,0.8,0.2,0.2,0.8,0.8,0.8,0.2,0.8","",""
"","html-keyboard-response","381","248004","0.0-563.0","33F859I567ZN9EQHU38SF1KBCZIBH8","AW5O1RK3W60FC","379OL9DBSS0OLW3FFHTILCO0AJC9Y6","","null","<img src=""img/land1.png"" style=""width:200px; border:14px solid green;"">","null","","","","","","","",""
"","image-keyboard-response","382","248573","0.0-565.0","33F859I567ZN9EQHU38SF1KBCZIBH8","AW5O1RK3W60FC","379OL9DBSS0OLW3FFHTILCO0AJC9Y6","","568.2999999970198","img/land4.png","74","569.4000000059605","1","1","false","3","0.8,0.8,0.2,0.2,0.8,0.8,0.8,0.2,0.8","",""
"","html-keyboard-response","383","248876","0.0-566.0","33F859I567ZN9EQHU38SF1KBCZIBH8","AW5O1RK3W60FC","379OL9DBSS0OLW3FFHTILCO0AJC9Y6","","null","<img src=""img/land4.png"" style=""width:200px; border:14px solid green;"">","null","","","","","","","",""
"","image-keyboard-response","384","249342","0.0-568.0","33F859I567ZN9EQHU38SF1KBCZIBH8","AW5O1RK3W60FC","379OL9DBSS0OLW3FFHTILCO0AJC9Y6","","464.09999999403954","img/land4.png","74","465.3999999910593","1","0","false","3","0.8,0.8,0.2,0.2,0.8,0.8,0.8,0.2,0.8","",""
"","html-keyboard-response","385","249644","0.0-569.0","33F859I567ZN9EQHU38SF1KBCZIBH8","AW5O1RK3W60FC","379OL9DBSS0OLW3FFHTILCO0AJC9Y6","","null","<img src=""img/land4.png"" style=""width:200px;border:14px solid red;"">","null","","","","","","","",""
"","image-keyboard-response","386","250214","0.0-571.0","33F859I567ZN9EQHU38SF1KBCZIBH8","AW5O1RK3W60FC","379OL9DBSS0OLW3FFHTILCO0AJC9Y6","","568.0999999940395","img/land4.png","74","569.5999999940395","1","0","false","3","0.8,0.8,0.2,0.2,0.8,0.8,0.8,0.2,0.8","",""
"","html-keyboard-response","387","250516","0.0-572.0","33F859I567ZN9EQHU38SF1KBCZIBH8","AW5O1RK3W60FC","379OL9DBSS0OLW3FFHTILCO0AJC9Y6","","null","<img src=""img/land4.png"" style=""width:200px;border:14px solid red;"">","null","","","","","","","",""
"","image-keyboard-response","388","251397","0.0-574.0","33F859I567ZN9EQHU38SF1KBCZIBH8","AW5O1RK3W60FC","379OL9DBSS0OLW3FFHTILCO0AJC9Y6","","880.1999999880791","img/land2.png","75","881.0999999940395","2","0","false","2","0.8,0.8,0.2,0.2,0.8,0.8,0.8,0.2,0.8","",""
"","html-keyboard-response","389","251699","0.0-575.0","33F859I567ZN9EQHU38SF1KBCZIBH8","AW5O1RK3W60FC","379OL9DBSS0OLW3FFHTILCO0AJC9Y6","","null","<img src=""img/land2.png"" style=""width:200px;border:14px solid red;"">","null","","","","","","","",""
"","image-keyboard-response","390","252254","0.0-577.0","33F859I567ZN9EQHU38SF1KBCZIBH8","AW5O1RK3W60FC","379OL9DBSS0OLW3FFHTILCO0AJC9Y6","","552.8999999910593","img/land1.png","74","554.2000000029802","1","1","false","1","0.8,0.8,0.2,0.2,0.8,0.8,0.8,0.2,0.8","",""
