"success","trial_type","trial_index","time_elapsed","internal_node_id","assignmentID","mturkID","hitID","view_history","rt","stimulus","key_press","reactionTime","a","r","s","cond","reward_cond","reward_cond_actual","reward_matrix_idx","responses","question_order"
"true","fullscreen","0","2079","0.0-0.0","3BDCF01OGYGL8I2IVG1AF4BJHRXLYZ","AXY0D2AMLKE2A","3BDORL6HKKZHMTYWD6BFF6WBDQ9CRF","","","","","","","","","","","","","",""
"","instructions","1","11112","0.0-1.0","3BDCF01OGYGL8I2IVG1AF4BJHRXLYZ","AXY0D2AMLKE2A","3BDORL6HKKZHMTYWD6BFF6WBDQ9CRF","[{""page_index"":0,""viewing_time"":1019.6000000238419},{""page_index"":1,""viewing_time"":818},{""page_index"":2,""viewing_time"":632},{""page_index"":3,""viewing_time"":2181.100000023842},{""page_index"":4,""viewing_time"":1253.8999999761581},{""page_index"":5,""viewing_time"":1909.3999999761581},{""page_index"":6,""viewing_time"":1218.7000000476837}]","9032.899999976158","","","","","","","","","","","",""
"","image-keyboard-response","2","11552","0.0-2.0","3BDCF01OGYGL8I2IVG1AF4BJHRXLYZ","AXY0D2AMLKE2A","3BDORL6HKKZHMTYWD6BFF6WBDQ9CRF","","439.2000000476837","img/land6.png","75","439.7999999523163","2","0","1","2","1,0.5,0.5,0.5,1,0.5,0.5,0.5,1","0.5,0.5,1,1,0.5,0.5,0.5,1,0.5","2","",""
"","html-keyboard-response","3","11863","0.0-3.0","3BDCF01OGYGL8I2IVG1AF4BJHRXLYZ","AXY0D2AMLKE2A","3BDORL6HKKZHMTYWD6BFF6WBDQ9CRF","","null","<img src=""img/land6.png"" style=""width:200px;border:14px solid red;"">","null","","","","","","","","","",""
"","image-keyboard-response","4","11969","0.0-4.0","3BDCF01OGYGL8I2IVG1AF4BJHRXLYZ","AXY0D2AMLKE2A","3BDORL6HKKZHMTYWD6BFF6WBDQ9CRF","","105.80000007152557","img/land5.png","74","106.39999997615814","1","0","3","2","1,0.5,0.5,0.5,1,0.5,0.5,0.5,1","0.5,0.5,1,1,0.5,0.5,0.5,1,0.5","2","",""
"","html-keyboard-response","5","12277","0.0-5.0","3BDCF01OGYGL8I2IVG1AF4BJHRXLYZ","AXY0D2AMLKE2A","3BDORL6HKKZHMTYWD6BFF6WBDQ9CRF","","null","<img src=""img/land5.png"" style=""width:200px;border:14px solid red;"">","null","","","","","","","","","",""
"","image-keyboard-response","6","12360","0.0-6.0","3BDCF01OGYGL8I2IVG1AF4BJHRXLYZ","AXY0D2AMLKE2A","3BDORL6HKKZHMTYWD6BFF6WBDQ9CRF","","82.5","img/land6.png","74","82.90000009536743","1","1","1","2","1,0.5,0.5,0.5,1,0.5,0.5,0.5,1","0.5,0.5,1,1,0.5,0.5,0.5,1,0.5","2","",""
"","html-keyboard-response","7","12674","0.0-7.0","3BDCF01OGYGL8I2IVG1AF4BJHRXLYZ","AXY0D2AMLKE2A","3BDORL6HKKZHMTYWD6BFF6WBDQ9CRF","","null","<img src=""img/land6.png"" style=""width:200px; border:14px solid green;"">","null","","","","","","","","","",""
"","image-keyboard-response","8","12771","0.0-8.0","3BDCF01OGYGL8I2IVG1AF4BJHRXLYZ","AXY0D2AMLKE2A","3BDORL6HKKZHMTYWD6BFF6WBDQ9CRF","","97","img/land6.png","76","97.5","3","1","1","2","1,0.5,0.5,0.5,1,0.5,0.5,0.5,1","0.5,0.5,1,1,0.5,0.5,0.5,1,0.5","2","",""
"","html-keyboard-response","9","13073","0.0-9.0","3BDCF01OGYGL8I2IVG1AF4BJHRXLYZ","AXY0D2AMLKE2A","3BDORL6HKKZHMTYWD6BFF6WBDQ9CRF","","null","<img src=""img/land6.png"" style=""width:200px; border:14px solid green;"">","null","","","","","","","","","",""
"","image-keyboard-response","10","13086","0.0-10.0","3BDCF01OGYGL8I2IVG1AF4BJHRXLYZ","AXY0D2AMLKE2A","3BDORL6HKKZHMTYWD6BFF6WBDQ9CRF","","12.700000047683716","img/land2.png","75","13.200000047683716","2","0","2","2","1,0.5,0.5,0.5,1,0.5,0.5,0.5,1","0.5,0.5,1,1,0.5,0.5,0.5,1,0.5","2","",""
"","html-keyboard-response","11","13391","0.0-11.0","3BDCF01OGYGL8I2IVG1AF4BJHRXLYZ","AXY0D2AMLKE2A","3BDORL6HKKZHMTYWD6BFF6WBDQ9CRF","","null","<img src=""img/land2.png"" style=""width:200px;border:14px solid red;"">","null","","","","","","","","","",""
"","image-keyboard-response","12","13402","0.0-12.0","3BDCF01OGYGL8I2IVG1AF4BJHRXLYZ","AXY0D2AMLKE2A","3BDORL6HKKZHMTYWD6BFF6WBDQ9CRF","","10.5","img/land6.png","75","10.800000071525574","2","0","1","2","1,0.5,0.5,0.5,1,0.5,0.5,0.5,1","0.5,0.5,1,1,0.5,0.5,0.5,1,0.5","2","",""
"","html-keyboard-response","13","13717","0.0-13.0","3BDCF01OGYGL8I2IVG1AF4BJHRXLYZ","AXY0D2AMLKE2A","3BDORL6HKKZHMTYWD6BFF6WBDQ9CRF","","null","<img src=""img/land6.png"" style=""width:200px;border:14px solid red;"">","null","","","","","","","","","",""
"","image-keyboard-response","14","13799","0.0-14.0","3BDCF01OGYGL8I2IVG1AF4BJHRXLYZ","AXY0D2AMLKE2A","3BDORL6HKKZHMTYWD6BFF6WBDQ9CRF","","82","img/land6.png","76","82.30000007152557","3","1","1","2","1,0.5,0.5,0.5,1,0.5,0.5,0.5,1","0.5,0.5,1,1,0.5,0.5,0.5,1,0.5","2","",""
"","html-keyboard-response","15","14106","0.0-15.0","3BDCF01OGYGL8I2IVG1AF4BJHRXLYZ","AXY0D2AMLKE2A","3BDORL6HKKZHMTYWD6BFF6WBDQ9CRF","","null","<img src=""img/land6.png"" style=""width:200px; border:14px solid green;"">","null","","","","","","","","","",""
"","image-keyboard-response","16","14121","0.0-16.0","3BDCF01OGYGL8I2IVG1AF4BJHRXLYZ","AXY0D2AMLKE2A","3BDORL6HKKZHMTYWD6BFF6WBDQ9CRF","","14.800000071525574","img/land6.png","74","15.200000047683716","1","0","1","2","1,0.5,0.5,0.5,1,0.5,0.5,0.5,1","0.5,0.5,1,1,0.5,0.5,0.5,1,0.5","2","",""
"","html-keyboard-response","17","14423","0.0-17.0","3BDCF01OGYGL8I2IVG1AF4BJHRXLYZ","AXY0D2AMLKE2A","3BDORL6HKKZHMTYWD6BFF6WBDQ9CRF","","null","<img src=""img/land6.png"" style=""width:200px;border:14px solid red;"">","null","","","","","","","","","",""
"","image-keyboard-response","18","14450","0.0-18.0","3BDCF01OGYGL8I2IVG1AF4BJHRXLYZ","AXY0D2AMLKE2A","3BDORL6HKKZHMTYWD6BFF6WBDQ9CRF","","26.5","img/land2.png","74","26.90000009536743","1","1","2","2","1,0.5,0.5,0.5,1,0.5,0.5,0.5,1","0.5,0.5,1,1,0.5,0.5,0.5,1,0.5","2","",""
"","html-keyboard-response","19","14764","0.0-19.0","3BDCF01OGYGL8I2IVG1AF4BJHRXLYZ","AXY0D2AMLKE2A","3BDORL6HKKZHMTYWD6BFF6WBDQ9CRF","","null","<img src=""img/land2.png"" style=""width:200px; border:14px solid green;"">","null","","","","","","","","","",""
"","image-keyboard-response","20","14828","0.0-20.0","3BDCF01OGYGL8I2IVG1AF4BJHRXLYZ","AXY0D2AMLKE2A","3BDORL6HKKZHMTYWD6BFF6WBDQ9CRF","","64.10000002384186","img/land2.png","76","64.5","3","0","2","2","1,0.5,0.5,0.5,1,0.5,0.5,0.5,1","0.5,0.5,1,1,0.5,0.5,0.5,1,0.5","2","",""
"","html-keyboard-response","21","15136","0.0-21.0","3BDCF01OGYGL8I2IVG1AF4BJHRXLYZ","AXY0D2AMLKE2A","3BDORL6HKKZHMTYWD6BFF6WBDQ9CRF","","null","<img src=""img/land2.png"" style=""width:200px;border:14px solid red;"">","null","","","","","","","","","",""
"","image-keyboard-response","22","15205","0.0-22.0","3BDCF01OGYGL8I2IVG1AF4BJHRXLYZ","AXY0D2AMLKE2A","3BDORL6HKKZHMTYWD6BFF6WBDQ9CRF","","68.60000002384186","img/land5.png","76","69","3","0","3","2","1,0.5,0.5,0.5,1,0.5,0.5,0.5,1","0.5,0.5,1,1,0.5,0.5,0.5,1,0.5","2","",""
"","html-keyboard-response","23","15512","0.0-23.0","3BDCF01OGYGL8I2IVG1AF4BJHRXLYZ","AXY0D2AMLKE2A","3BDORL6HKKZHMTYWD6BFF6WBDQ9CRF","","null","<img src=""img/land5.png"" style=""width:200px;border:14px solid red;"">","null","","","","","","","","","",""
"","image-keyboard-response","24","15575","0.0-24.0","3BDCF01OGYGL8I2IVG1AF4BJHRXLYZ","AXY0D2AMLKE2A","3BDORL6HKKZHMTYWD6BFF6WBDQ9CRF","","63","img/land6.png","75","63.39999997615814","2","1","1","2","1,0.5,0.5,0.5,1,0.5,0.5,0.5,1","0.5,0.5,1,1,0.5,0.5,0.5,1,0.5","2","",""
"","html-keyboard-response","25","15887","0.0-25.0","3BDCF01OGYGL8I2IVG1AF4BJHRXLYZ","AXY0D2AMLKE2A","3BDORL6HKKZHMTYWD6BFF6WBDQ9CRF","","null","<img src=""img/land6.png"" style=""width:200px; border:14px solid green;"">","null","","","","","","","","","",""
"","image-keyboard-response","26","15925","0.0-26.0","3BDCF01OGYGL8I2IVG1AF4BJHRXLYZ","AXY0D2AMLKE2A","3BDORL6HKKZHMTYWD6BFF6WBDQ9CRF","","37.700000047683716","img/land6.png","74","38.299999952316284","1","1","1","2","1,0.5,0.5,0.5,1,0.5,0.5,0.5,1","0.5,0.5,1,1,0.5,0.5,0.5,1,0.5","2","",""
"","html-keyboard-response","27","16233","0.0-27.0","3BDCF01OGYGL8I2IVG1AF4BJHRXLYZ","AXY0D2AMLKE2A","3BDORL6HKKZHMTYWD6BFF6WBDQ9CRF","","null","<img src=""img/land6.png"" style=""width:200px; border:14px solid green;"">","null","","","","","","","","","",""
"","image-keyboard-response","28","16254","0.0-28.0","3BDCF01OGYGL8I2IVG1AF4BJHRXLYZ","AXY0D2AMLKE2A","3BDORL6HKKZHMTYWD6BFF6WBDQ9CRF","","20.899999976158142","img/land6.png","74","21.299999952316284","1","0","1","2","1,0.5,0.5,0.5,1,0.5,0.5,0.5,1","0.5,0.5,1,1,0.5,0.5,0.5,1,0.5","2","",""
"","html-keyboard-response","29","16561","0.0-29.0","3BDCF01OGYGL8I2IVG1AF4BJHRXLYZ","AXY0D2AMLKE2A","3BDORL6HKKZHMTYWD6BFF6WBDQ9CRF","","null","<img src=""img/land6.png"" style=""width:200px;border:14px solid red;"">","null","","","","","","","","","",""
"","image-keyboard-response","30","16857","0.0-30.0","3BDCF01OGYGL8I2IVG1AF4BJHRXLYZ","AXY0D2AMLKE2A","3BDORL6HKKZHMTYWD6BFF6WBDQ9CRF","","296","img/land6.png","76","296.5","3","1","1","2","1,0.5,0.5,0.5,1,0.5,0.5,0.5,1","0.5,0.5,1,1,0.5,0.5,0.5,1,0.5","2","",""
"","html-keyboard-response","31","17168","0.0-31.0","3BDCF01OGYGL8I2IVG1AF4BJHRXLYZ","AXY0D2AMLKE2A","3BDORL6HKKZHMTYWD6BFF6WBDQ9CRF","","null","<img src=""img/land6.png"" style=""width:200px; border:14px solid green;"">","null","","","","","","","","","",""
"","image-keyboard-response","32","17227","0.0-32.0","3BDCF01OGYGL8I2IVG1AF4BJHRXLYZ","AXY0D2AMLKE2A","3BDORL6HKKZHMTYWD6BFF6WBDQ9CRF","","59.199999928474426","img/land6.png","76","59.60000002384186","3","1","1","2","1,0.5,0.5,0.5,1,0.5,0.5,0.5,1","0.5,0.5,1,1,0.5,0.5,0.5,1,0.5","2","",""
"","html-keyboard-response","33","17538","0.0-33.0","3BDCF01OGYGL8I2IVG1AF4BJHRXLYZ","AXY0D2AMLKE2A","3BDORL6HKKZHMTYWD6BFF6WBDQ9CRF","","null","<img src=""img/land6.png"" style=""width:200px; border:14px solid green;"">","null","","","","","","","","","",""
"","image-keyboard-response","34","17611","0.0-34.0","3BDCF01OGYGL8I2IVG1AF4BJHRXLYZ","AXY0D2AMLKE2A","3BDORL6HKKZHMTYWD6BFF6WBDQ9CRF","","73.09999990463257","img/land6.png","76","73.60000002384186","3","1","1","2","1,0.5,0.5,0.5,1,0.5,0.5,0.5,1","0.5,0.5,1,1,0.5,0.5,0.5,1,0.5","2","",""
"","html-keyboard-response","35","17915","0.0-35.0","3BDCF01OGYGL8I2IVG1AF4BJHRXLYZ","AXY0D2AMLKE2A","3BDORL6HKKZHMTYWD6BFF6WBDQ9CRF","","null","<img src=""img/land6.png"" style=""width:200px; border:14px solid green;"">","null","","","","","","","","","",""
"","image-keyboard-response","36","17995","0.0-36.0","3BDCF01OGYGL8I2IVG1AF4BJHRXLYZ","AXY0D2AMLKE2A","3BDORL6HKKZHMTYWD6BFF6WBDQ9CRF","","80","img/land6.png","76","80.5","3","1","1","2","1,0.5,0.5,0.5,1,0.5,0.5,0.5,1","0.5,0.5,1,1,0.5,0.5,0.5,1,0.5","2","",""
"","html-keyboard-response","37","18306","0.0-37.0","3BDCF01OGYGL8I2IVG1AF4BJHRXLYZ","AXY0D2AMLKE2A","3BDORL6HKKZHMTYWD6BFF6WBDQ9CRF","","null","<img src=""img/land6.png"" style=""width:200px; border:14px solid green;"">","null","","","","","","","","","",""
"","image-keyboard-response","38","18372","0.0-38.0","3BDCF01OGYGL8I2IVG1AF4BJHRXLYZ","AXY0D2AMLKE2A","3BDORL6HKKZHMTYWD6BFF6WBDQ9CRF","","65.60000002384186","img/land6.png","76","66","3","1","1","2","1,0.5,0.5,0.5,1,0.5,0.5,0.5,1","0.5,0.5,1,1,0.5,0.5,0.5,1,0.5","2","",""
"","html-keyboard-response","39","18680","0.0-39.0","3BDCF01OGYGL8I2IVG1AF4BJHRXLYZ","AXY0D2AMLKE2A","3BDORL6HKKZHMTYWD6BFF6WBDQ9CRF","","null","<img src=""img/land6.png"" style=""width:200px; border:14px solid green;"">","null","","","","","","","","","",""
"","image-keyboard-response","40","18749","0.0-40.0","3BDCF01OGYGL8I2IVG1AF4BJHRXLYZ","AXY0D2AMLKE2A","3BDORL6HKKZHMTYWD6BFF6WBDQ9CRF","","68.80000007152557","img/land2.png","76","69.20000004768372","3","1","2","2","1,0.5,0.5,0.5,1,0.5,0.5,0.5,1","0.5,0.5,1,1,0.5,0.5,0.5,1,0.5","2","",""
"","html-keyboard-response","41","19056","0.0-41.0","3BDCF01OGYGL8I2IVG1AF4BJHRXLYZ","AXY0D2AMLKE2A","3BDORL6HKKZHMTYWD6BFF6WBDQ9CRF","","null","<img src=""img/land2.png"" style=""width:200px; border:14px solid green;"">","null","","","","","","","","","",""
"","image-keyboard-response","42","19133","0.0-42.0","3BDCF01OGYGL8I2IVG1AF4BJHRXLYZ","AXY0D2AMLKE2A","3BDORL6HKKZHMTYWD6BFF6WBDQ9CRF","","77.19999992847443","img/land5.png","76","77.5","3","0","3","2","1,0.5,0.5,0.5,1,0.5,0.5,0.5,1","0.5,0.5,1,1,0.5,0.5,0.5,1,0.5","2","",""
"","html-keyboard-response","43","19445","0.0-43.0","3BDCF01OGYGL8I2IVG1AF4BJHRXLYZ","AXY0D2AMLKE2A","3BDORL6HKKZHMTYWD6BFF6WBDQ9CRF","","null","<img src=""img/land5.png"" style=""width:200px;border:14px solid red;"">","null","","","","","","","","","",""
"","image-keyboard-response","44","19511","0.0-44.0","3BDCF01OGYGL8I2IVG1AF4BJHRXLYZ","AXY0D2AMLKE2A","3BDORL6HKKZHMTYWD6BFF6WBDQ9CRF","","65.70000004768372","img/land5.png","76","66.09999990463257","3","0","3","2","1,0.5,0.5,0.5,1,0.5,0.5,0.5,1","0.5,0.5,1,1,0.5,0.5,0.5,1,0.5","2","",""
"","html-keyboard-response","45","19820","0.0-45.0","3BDCF01OGYGL8I2IVG1AF4BJHRXLYZ","AXY0D2AMLKE2A","3BDORL6HKKZHMTYWD6BFF6WBDQ9CRF","","null","<img src=""img/land5.png"" style=""width:200px;border:14px solid red;"">","null","","","","","","","","","",""
"","image-keyboard-response","46","19895","0.0-46.0","3BDCF01OGYGL8I2IVG1AF4BJHRXLYZ","AXY0D2AMLKE2A","3BDORL6HKKZHMTYWD6BFF6WBDQ9CRF","","75.19999992847443","img/land6.png","76","75.60000002384186","3","1","1","2","1,0.5,0.5,0.5,1,0.5,0.5,0.5,1","0.5,0.5,1,1,0.5,0.5,0.5,1,0.5","2","",""
"","html-keyboard-response","47","20197","0.0-47.0","3BDCF01OGYGL8I2IVG1AF4BJHRXLYZ","AXY0D2AMLKE2A","3BDORL6HKKZHMTYWD6BFF6WBDQ9CRF","","null","<img src=""img/land6.png"" style=""width:200px; border:14px solid green;"">","null","","","","","","","","","",""
"","image-keyboard-response","48","20251","0.0-48.0","3BDCF01OGYGL8I2IVG1AF4BJHRXLYZ","AXY0D2AMLKE2A","3BDORL6HKKZHMTYWD6BFF6WBDQ9CRF","","54","img/land6.png","76","54.5","3","1","1","2","1,0.5,0.5,0.5,1,0.5,0.5,0.5,1","0.5,0.5,1,1,0.5,0.5,0.5,1,0.5","2","",""
"","html-keyboard-response","49","20556","0.0-49.0","3BDCF01OGYGL8I2IVG1AF4BJHRXLYZ","AXY0D2AMLKE2A","3BDORL6HKKZHMTYWD6BFF6WBDQ9CRF","","null","<img src=""img/land6.png"" style=""width:200px; border:14px solid green;"">","null","","","","","","","","","",""
"","image-keyboard-response","50","20628","0.0-50.0","3BDCF01OGYGL8I2IVG1AF4BJHRXLYZ","AXY0D2AMLKE2A","3BDORL6HKKZHMTYWD6BFF6WBDQ9CRF","","72","img/land5.png","76","72.39999997615814","3","0","3","2","1,0.5,0.5,0.5,1,0.5,0.5,0.5,1","0.5,0.5,1,1,0.5,0.5,0.5,1,0.5","2","",""
"","html-keyboard-response","51","20930","0.0-51.0","3BDCF01OGYGL8I2IVG1AF4BJHRXLYZ","AXY0D2AMLKE2A","3BDORL6HKKZHMTYWD6BFF6WBDQ9CRF","","null","<img src=""img/land5.png"" style=""width:200px;border:14px solid red;"">","null","","","","","","","","","",""
"","image-keyboard-response","52","20937","0.0-52.0","3BDCF01OGYGL8I2IVG1AF4BJHRXLYZ","AXY0D2AMLKE2A","3BDORL6HKKZHMTYWD6BFF6WBDQ9CRF","","6.899999976158142","img/land5.png","74","7.300000071525574","1","1","3","2","1,0.5,0.5,0.5,1,0.5,0.5,0.5,1","0.5,0.5,1,1,0.5,0.5,0.5,1,0.5","2","",""
"","html-keyboard-response","53","21243","0.0-53.0","3BDCF01OGYGL8I2IVG1AF4BJHRXLYZ","AXY0D2AMLKE2A","3BDORL6HKKZHMTYWD6BFF6WBDQ9CRF","","null","<img src=""img/land5.png"" style=""width:200px; border:14px solid green;"">","null","","","","","","","","","",""
"","image-keyboard-response","54","21307","0.0-54.0","3BDCF01OGYGL8I2IVG1AF4BJHRXLYZ","AXY0D2AMLKE2A","3BDORL6HKKZHMTYWD6BFF6WBDQ9CRF","","63.60000002384186","img/land2.png","74","64","1","1","2","2","1,0.5,0.5,0.5,1,0.5,0.5,0.5,1","0.5,0.5,1,1,0.5,0.5,0.5,1,0.5","2","",""
"","html-keyboard-response","55","21617","0.0-55.0","3BDCF01OGYGL8I2IVG1AF4BJHRXLYZ","AXY0D2AMLKE2A","3BDORL6HKKZHMTYWD6BFF6WBDQ9CRF","","null","<img src=""img/land2.png"" style=""width:200px; border:14px solid green;"">","null","","","","","","","","","",""
"","image-keyboard-response","56","21684","0.0-56.0","3BDCF01OGYGL8I2IVG1AF4BJHRXLYZ","AXY0D2AMLKE2A","3BDORL6HKKZHMTYWD6BFF6WBDQ9CRF","","67","img/land6.png","74","67.39999997615814","1","1","1","2","1,0.5,0.5,0.5,1,0.5,0.5,0.5,1","0.5,0.5,1,1,0.5,0.5,0.5,1,0.5","2","",""
"","html-keyboard-response","57","21992","0.0-57.0","3BDCF01OGYGL8I2IVG1AF4BJHRXLYZ","AXY0D2AMLKE2A","3BDORL6HKKZHMTYWD6BFF6WBDQ9CRF","","null","<img src=""img/land6.png"" style=""width:200px; border:14px solid green;"">","null","","","","","","","","","",""
"","image-keyboard-response","58","22054","0.0-58.0","3BDCF01OGYGL8I2IVG1AF4BJHRXLYZ","AXY0D2AMLKE2A","3BDORL6HKKZHMTYWD6BFF6WBDQ9CRF","","62","img/land6.png","74","62.5","1","0","1","2","1,0.5,0.5,0.5,1,0.5,0.5,0.5,1","0.5,0.5,1,1,0.5,0.5,0.5,1,0.5","2","",""
"","html-keyboard-response","59","22364","0.0-59.0","3BDCF01OGYGL8I2IVG1AF4BJHRXLYZ","AXY0D2AMLKE2A","3BDORL6HKKZHMTYWD6BFF6WBDQ9CRF","","null","<img src=""img/land6.png"" style=""width:200px;border:14px solid red;"">","null","","","","","","","","","",""
"","image-keyboard-response","60","22431","0.0-60.0","3BDCF01OGYGL8I2IVG1AF4BJHRXLYZ","AXY0D2AMLKE2A","3BDORL6HKKZHMTYWD6BFF6WBDQ9CRF","","67.09999990463257","img/land6.png","74","67.60000002384186","1","0","1","2","1,0.5,0.5,0.5,1,0.5,0.5,0.5,1","0.5,0.5,1,1,0.5,0.5,0.5,1,0.5","2","",""
"","html-keyboard-response","61","22740","0.0-61.0","3BDCF01OGYGL8I2IVG1AF4BJHRXLYZ","AXY0D2AMLKE2A","3BDORL6HKKZHMTYWD6BFF6WBDQ9CRF","","null","<img src=""img/land6.png"" style=""width:200px;border:14px solid red;"">","null","","","","","","","","","",""
"","image-keyboard-response","62","22815","0.0-62.0","3BDCF01OGYGL8I2IVG1AF4BJHRXLYZ","AXY0D2AMLKE2A","3BDORL6HKKZHMTYWD6BFF6WBDQ9CRF","","74.90000009536743","img/land6.png","74","75.29999995231628","1","0","1","2","1,0.5,0.5,0.5,1,0.5,0.5,0.5,1","0.5,0.5,1,1,0.5,0.5,0.5,1,0.5","2","",""
"","html-keyboard-response","63","23117","0.0-63.0","3BDCF01OGYGL8I2IVG1AF4BJHRXLYZ","AXY0D2AMLKE2A","3BDORL6HKKZHMTYWD6BFF6WBDQ9CRF","","null","<img src=""img/land6.png"" style=""width:200px;border:14px solid red;"">","null","","","","","","","","","",""
"","image-keyboard-response","64","23199","0.0-64.0","3BDCF01OGYGL8I2IVG1AF4BJHRXLYZ","AXY0D2AMLKE2A","3BDORL6HKKZHMTYWD6BFF6WBDQ9CRF","","81.60000002384186","img/land5.png","74","82","1","1","3","2","1,0.5,0.5,0.5,1,0.5,0.5,0.5,1","0.5,0.5,1,1,0.5,0.5,0.5,1,0.5","2","",""
"","html-keyboard-response","65","23504","0.0-65.0","3BDCF01OGYGL8I2IVG1AF4BJHRXLYZ","AXY0D2AMLKE2A","3BDORL6HKKZHMTYWD6BFF6WBDQ9CRF","","null","<img src=""img/land5.png"" style=""width:200px; border:14px solid green;"">","null","","","","","","","","","",""
"","image-keyboard-response","66","23569","0.0-66.0","3BDCF01OGYGL8I2IVG1AF4BJHRXLYZ","AXY0D2AMLKE2A","3BDORL6HKKZHMTYWD6BFF6WBDQ9CRF","","65.20000004768372","img/land2.png","75","65.69999992847443","2","1","2","2","1,0.5,0.5,0.5,1,0.5,0.5,0.5,1","0.5,0.5,1,1,0.5,0.5,0.5,1,0.5","2","",""
"","html-keyboard-response","67","23878","0.0-67.0","3BDCF01OGYGL8I2IVG1AF4BJHRXLYZ","AXY0D2AMLKE2A","3BDORL6HKKZHMTYWD6BFF6WBDQ9CRF","","null","<img src=""img/land2.png"" style=""width:200px; border:14px solid green;"">","null","","","","","","","","","",""
"","image-keyboard-response","68","23974","0.0-68.0","3BDCF01OGYGL8I2IVG1AF4BJHRXLYZ","AXY0D2AMLKE2A","3BDORL6HKKZHMTYWD6BFF6WBDQ9CRF","","95.5","img/land6.png","75","95.89999997615814","2","1","1","2","1,0.5,0.5,0.5,1,0.5,0.5,0.5,1","0.5,0.5,1,1,0.5,0.5,0.5,1,0.5","2","",""
"","html-keyboard-response","69","24285","0.0-69.0","3BDCF01OGYGL8I2IVG1AF4BJHRXLYZ","AXY0D2AMLKE2A","3BDORL6HKKZHMTYWD6BFF6WBDQ9CRF","","null","<img src=""img/land6.png"" style=""width:200px; border:14px solid green;"">","null","","","","","","","","","",""
"","image-keyboard-response","70","24392","0.0-70.0","3BDCF01OGYGL8I2IVG1AF4BJHRXLYZ","AXY0D2AMLKE2A","3BDORL6HKKZHMTYWD6BFF6WBDQ9CRF","","107","img/land5.png","74","107.39999997615814","1","1","3","2","1,0.5,0.5,0.5,1,0.5,0.5,0.5,1","0.5,0.5,1,1,0.5,0.5,0.5,1,0.5","2","",""
"","html-keyboard-response","71","24707","0.0-71.0","3BDCF01OGYGL8I2IVG1AF4BJHRXLYZ","AXY0D2AMLKE2A","3BDORL6HKKZHMTYWD6BFF6WBDQ9CRF","","null","<img src=""img/land5.png"" style=""width:200px; border:14px solid green;"">","null","","","","","","","","","",""
"","image-keyboard-response","72","24784","0.0-72.0","3BDCF01OGYGL8I2IVG1AF4BJHRXLYZ","AXY0D2AMLKE2A","3BDORL6HKKZHMTYWD6BFF6WBDQ9CRF","","75.79999995231628","img/land6.png","74","76.29999995231628","1","1","1","2","1,0.5,0.5,0.5,1,0.5,0.5,0.5,1","0.5,0.5,1,1,0.5,0.5,0.5,1,0.5","2","",""
"","html-keyboard-response","73","25085","0.0-73.0","3BDCF01OGYGL8I2IVG1AF4BJHRXLYZ","AXY0D2AMLKE2A","3BDORL6HKKZHMTYWD6BFF6WBDQ9CRF","","null","<img src=""img/land6.png"" style=""width:200px; border:14px solid green;"">","null","","","","","","","","","",""
"","image-keyboard-response","74","25187","0.0-74.0","3BDCF01OGYGL8I2IVG1AF4BJHRXLYZ","AXY0D2AMLKE2A","3BDORL6HKKZHMTYWD6BFF6WBDQ9CRF","","102","img/land5.png","74","102.5","1","0","3","2","1,0.5,0.5,0.5,1,0.5,0.5,0.5,1","0.5,0.5,1,1,0.5,0.5,0.5,1,0.5","2","",""
"","html-keyboard-response","75","25493","0.0-75.0","3BDCF01OGYGL8I2IVG1AF4BJHRXLYZ","AXY0D2AMLKE2A","3BDORL6HKKZHMTYWD6BFF6WBDQ9CRF","","null","<img src=""img/land5.png"" style=""width:200px;border:14px solid red;"">","null","","","","","","","","","",""
"","image-keyboard-response","76","25504","0.0-76.0","3BDCF01OGYGL8I2IVG1AF4BJHRXLYZ","AXY0D2AMLKE2A","3BDORL6HKKZHMTYWD6BFF6WBDQ9CRF","","9.899999976158142","img/land6.png","76","10.199999928474426","3","1","1","2","1,0.5,0.5,0.5,1,0.5,0.5,0.5,1","0.5,0.5,1,1,0.5,0.5,0.5,1,0.5","2","",""
"","html-keyboard-response","77","25818","0.0-77.0","3BDCF01OGYGL8I2IVG1AF4BJHRXLYZ","AXY0D2AMLKE2A","3BDORL6HKKZHMTYWD6BFF6WBDQ9CRF","","null","<img src=""img/land6.png"" style=""width:200px; border:14px solid green;"">","null","","","","","","","","","",""
"","image-keyboard-response","78","25819","0.0-78.0","3BDCF01OGYGL8I2IVG1AF4BJHRXLYZ","AXY0D2AMLKE2A","3BDORL6HKKZHMTYWD6BFF6WBDQ9CRF","","0.20000004768371582","img/land6.png","75","0.5999999046325684","2","1","1","2","1,0.5,0.5,0.5,1,0.5,0.5,0.5,1","0.5,0.5,1,1,0.5,0.5,0.5,1,0.5","2","",""
"","html-keyboard-response","79","26128","0.0-79.0","3BDCF01OGYGL8I2IVG1AF4BJHRXLYZ","AXY0D2AMLKE2A","3BDORL6HKKZHMTYWD6BFF6WBDQ9CRF","","null","<img src=""img/land6.png"" style=""width:200px; border:14px solid green;"">","null","","","","","","","","","",""
"","image-keyboard-response","80","26134","0.0-80.0","3BDCF01OGYGL8I2IVG1AF4BJHRXLYZ","AXY0D2AMLKE2A","3BDORL6HKKZHMTYWD6BFF6WBDQ9CRF","","5.699999928474426","img/land6.png","76","6.299999952316284","3","1","1","2","1,0.5,0.5,0.5,1,0.5,0.5,0.5,1","0.5,0.5,1,1,0.5,0.5,0.5,1,0.5","2","",""
"","html-keyboard-response","81","26440","0.0-81.0","3BDCF01OGYGL8I2IVG1AF4BJHRXLYZ","AXY0D2AMLKE2A","3BDORL6HKKZHMTYWD6BFF6WBDQ9CRF","","null","<img src=""img/land6.png"" style=""width:200px; border:14px solid green;"">","null","","","","","","","","","",""
"","image-keyboard-response","82","26545","0.0-82.0","3BDCF01OGYGL8I2IVG1AF4BJHRXLYZ","AXY0D2AMLKE2A","3BDORL6HKKZHMTYWD6BFF6WBDQ9CRF","","104.39999997615814","img/land2.png","76","104.89999997615814","3","1","2","2","1,0.5,0.5,0.5,1,0.5,0.5,0.5,1","0.5,0.5,1,1,0.5,0.5,0.5,1,0.5","2","",""
"","html-keyboard-response","83","26847","0.0-83.0","3BDCF01OGYGL8I2IVG1AF4BJHRXLYZ","AXY0D2AMLKE2A","3BDORL6HKKZHMTYWD6BFF6WBDQ9CRF","","null","<img src=""img/land2.png"" style=""width:200px; border:14px solid green;"">","null","","","","","","","","","",""
"","image-keyboard-response","84","26944","0.0-84.0","3BDCF01OGYGL8I2IVG1AF4BJHRXLYZ","AXY0D2AMLKE2A","3BDORL6HKKZHMTYWD6BFF6WBDQ9CRF","","95.89999997615814","img/land2.png","76","96.29999995231628","3","1","2","2","1,0.5,0.5,0.5,1,0.5,0.5,0.5,1","0.5,0.5,1,1,0.5,0.5,0.5,1,0.5","2","",""
"","html-keyboard-response","85","27250","0.0-85.0","3BDCF01OGYGL8I2IVG1AF4BJHRXLYZ","AXY0D2AMLKE2A","3BDORL6HKKZHMTYWD6BFF6WBDQ9CRF","","null","<img src=""img/land2.png"" style=""width:200px; border:14px solid green;"">","null","","","","","","","","","",""
"","image-keyboard-response","86","27354","0.0-86.0","3BDCF01OGYGL8I2IVG1AF4BJHRXLYZ","AXY0D2AMLKE2A","3BDORL6HKKZHMTYWD6BFF6WBDQ9CRF","","103.79999995231628","img/land6.png","76","104.20000004768372","3","1","1","2","1,0.5,0.5,0.5,1,0.5,0.5,0.5,1","0.5,0.5,1,1,0.5,0.5,0.5,1,0.5","2","",""
"","html-keyboard-response","87","27656","0.0-87.0","3BDCF01OGYGL8I2IVG1AF4BJHRXLYZ","AXY0D2AMLKE2A","3BDORL6HKKZHMTYWD6BFF6WBDQ9CRF","","null","<img src=""img/land6.png"" style=""width:200px; border:14px solid green;"">","null","","","","","","","","","",""
"","image-keyboard-response","88","27766","0.0-88.0","3BDCF01OGYGL8I2IVG1AF4BJHRXLYZ","AXY0D2AMLKE2A","3BDORL6HKKZHMTYWD6BFF6WBDQ9CRF","","110","img/land6.png","76","110.39999997615814","3","1","1","2","1,0.5,0.5,0.5,1,0.5,0.5,0.5,1","0.5,0.5,1,1,0.5,0.5,0.5,1,0.5","2","",""
"","html-keyboard-response","89","28075","0.0-89.0","3BDCF01OGYGL8I2IVG1AF4BJHRXLYZ","AXY0D2AMLKE2A","3BDORL6HKKZHMTYWD6BFF6WBDQ9CRF","","null","<img src=""img/land6.png"" style=""width:200px; border:14px solid green;"">","null","","","","","","","","","",""
"","image-keyboard-response","90","28164","0.0-90.0","3BDCF01OGYGL8I2IVG1AF4BJHRXLYZ","AXY0D2AMLKE2A","3BDORL6HKKZHMTYWD6BFF6WBDQ9CRF","","87.69999992847443","img/land6.png","76","88.10000002384186","3","1","1","2","1,0.5,0.5,0.5,1,0.5,0.5,0.5,1","0.5,0.5,1,1,0.5,0.5,0.5,1,0.5","2","",""
"","html-keyboard-response","91","28468","0.0-91.0","3BDCF01OGYGL8I2IVG1AF4BJHRXLYZ","AXY0D2AMLKE2A","3BDORL6HKKZHMTYWD6BFF6WBDQ9CRF","","null","<img src=""img/land6.png"" style=""width:200px; border:14px solid green;"">","null","","","","","","","","","",""
"","image-keyboard-response","92","28562","0.0-92.0","3BDCF01OGYGL8I2IVG1AF4BJHRXLYZ","AXY0D2AMLKE2A","3BDORL6HKKZHMTYWD6BFF6WBDQ9CRF","","93.39999997615814","img/land6.png","76","93.89999997615814","3","1","1","2","1,0.5,0.5,0.5,1,0.5,0.5,0.5,1","0.5,0.5,1,1,0.5,0.5,0.5,1,0.5","2","",""
"","html-keyboard-response","93","28864","0.0-93.0","3BDCF01OGYGL8I2IVG1AF4BJHRXLYZ","AXY0D2AMLKE2A","3BDORL6HKKZHMTYWD6BFF6WBDQ9CRF","","null","<img src=""img/land6.png"" style=""width:200px; border:14px solid green;"">","null","","","","","","","","","",""
"","image-keyboard-response","94","28980","0.0-94.0","3BDCF01OGYGL8I2IVG1AF4BJHRXLYZ","AXY0D2AMLKE2A","3BDORL6HKKZHMTYWD6BFF6WBDQ9CRF","","115.5","img/land2.png","76","115.89999997615814","3","1","2","2","1,0.5,0.5,0.5,1,0.5,0.5,0.5,1","0.5,0.5,1,1,0.5,0.5,0.5,1,0.5","2","",""
"","html-keyboard-response","95","29294","0.0-95.0","3BDCF01OGYGL8I2IVG1AF4BJHRXLYZ","AXY0D2AMLKE2A","3BDORL6HKKZHMTYWD6BFF6WBDQ9CRF","","null","<img src=""img/land2.png"" style=""width:200px; border:14px solid green;"">","null","","","","","","","","","",""
"","image-keyboard-response","96","29301","0.0-96.0","3BDCF01OGYGL8I2IVG1AF4BJHRXLYZ","AXY0D2AMLKE2A","3BDORL6HKKZHMTYWD6BFF6WBDQ9CRF","","7.099999904632568","img/land6.png","75","7.399999976158142","2","0","1","2","1,0.5,0.5,0.5,1,0.5,0.5,0.5,1","0.5,0.5,1,1,0.5,0.5,0.5,1,0.5","2","",""
"","html-keyboard-response","97","29604","0.0-97.0","3BDCF01OGYGL8I2IVG1AF4BJHRXLYZ","AXY0D2AMLKE2A","3BDORL6HKKZHMTYWD6BFF6WBDQ9CRF","","null","<img src=""img/land6.png"" style=""width:200px;border:14px solid red;"">","null","","","","","","","","","",""
"","image-keyboard-response","98","29637","0.0-98.0","3BDCF01OGYGL8I2IVG1AF4BJHRXLYZ","AXY0D2AMLKE2A","3BDORL6HKKZHMTYWD6BFF6WBDQ9CRF","","32.799999952316284","img/land6.png","75","33.199999928474426","2","0","1","2","1,0.5,0.5,0.5,1,0.5,0.5,0.5,1","0.5,0.5,1,1,0.5,0.5,0.5,1,0.5","2","",""
"","html-keyboard-response","99","29939","0.0-99.0","3BDCF01OGYGL8I2IVG1AF4BJHRXLYZ","AXY0D2AMLKE2A","3BDORL6HKKZHMTYWD6BFF6WBDQ9CRF","","null","<img src=""img/land6.png"" style=""width:200px;border:14px solid red;"">","null","","","","","","","","","",""
"","image-keyboard-response","100","29947","0.0-100.0","3BDCF01OGYGL8I2IVG1AF4BJHRXLYZ","AXY0D2AMLKE2A","3BDORL6HKKZHMTYWD6BFF6WBDQ9CRF","","7.5","img/land6.png","74","7.800000071525574","1","0","1","2","1,0.5,0.5,0.5,1,0.5,0.5,0.5,1","0.5,0.5,1,1,0.5,0.5,0.5,1,0.5","2","",""
"","html-keyboard-response","101","30248","0.0-101.0","3BDCF01OGYGL8I2IVG1AF4BJHRXLYZ","AXY0D2AMLKE2A","3BDORL6HKKZHMTYWD6BFF6WBDQ9CRF","","null","<img src=""img/land6.png"" style=""width:200px;border:14px solid red;"">","null","","","","","","","","","",""
"","image-keyboard-response","102","30379","0.0-102.0","3BDCF01OGYGL8I2IVG1AF4BJHRXLYZ","AXY0D2AMLKE2A","3BDORL6HKKZHMTYWD6BFF6WBDQ9CRF","","129.89999997615814","img/land6.png","74","130.39999997615814","1","1","1","2","1,0.5,0.5,0.5,1,0.5,0.5,0.5,1","0.5,0.5,1,1,0.5,0.5,0.5,1,0.5","2","",""
"","html-keyboard-response","103","30680","0.0-103.0","3BDCF01OGYGL8I2IVG1AF4BJHRXLYZ","AXY0D2AMLKE2A","3BDORL6HKKZHMTYWD6BFF6WBDQ9CRF","","null","<img src=""img/land6.png"" style=""width:200px; border:14px solid green;"">","null","","","","","","","","","",""
"","image-keyboard-response","104","30755","0.0-104.0","3BDCF01OGYGL8I2IVG1AF4BJHRXLYZ","AXY0D2AMLKE2A","3BDORL6HKKZHMTYWD6BFF6WBDQ9CRF","","75.19999992847443","img/land6.png","74","75.69999992847443","1","0","1","2","1,0.5,0.5,0.5,1,0.5,0.5,0.5,1","0.5,0.5,1,1,0.5,0.5,0.5,1,0.5","2","",""
"","html-keyboard-response","105","31057","0.0-105.0","3BDCF01OGYGL8I2IVG1AF4BJHRXLYZ","AXY0D2AMLKE2A","3BDORL6HKKZHMTYWD6BFF6WBDQ9CRF","","null","<img src=""img/land6.png"" style=""width:200px;border:14px solid red;"">","null","","","","","","","","","",""
"","image-keyboard-response","106","31064","0.0-106.0","3BDCF01OGYGL8I2IVG1AF4BJHRXLYZ","AXY0D2AMLKE2A","3BDORL6HKKZHMTYWD6BFF6WBDQ9CRF","","6.699999928474426","img/land6.png","76","7.100000023841858","3","1","1","2","1,0.5,0.5,0.5,1,0.5,0.5,0.5,1","0.5,0.5,1,1,0.5,0.5,0.5,1,0.5","2","",""
"","html-keyboard-response","107","31365","0.0-107.0","3BDCF01OGYGL8I2IVG1AF4BJHRXLYZ","AXY0D2AMLKE2A","3BDORL6HKKZHMTYWD6BFF6WBDQ9CRF","","null","<img src=""img/land6.png"" style=""width:200px; border:14px solid green;"">","null","","","","","","","","","",""
"","image-keyboard-response","108","31386","0.0-108.0","3BDCF01OGYGL8I2IVG1AF4BJHRXLYZ","AXY0D2AMLKE2A","3BDORL6HKKZHMTYWD6BFF6WBDQ9CRF","","21","img/land6.png","74","21.399999976158142","1","1","1","2","1,0.5,0.5,0.5,1,0.5,0.5,0.5,1","0.5,0.5,1,1,0.5,0.5,0.5,1,0.5","2","",""
"","html-keyboard-response","109","31687","0.0-109.0","3BDCF01OGYGL8I2IVG1AF4BJHRXLYZ","AXY0D2AMLKE2A","3BDORL6HKKZHMTYWD6BFF6WBDQ9CRF","","null","<img src=""img/land6.png"" style=""width:200px; border:14px solid green;"">","null","","","","","","","","","",""
"","image-keyboard-response","110","31790","0.0-110.0","3BDCF01OGYGL8I2IVG1AF4BJHRXLYZ","AXY0D2AMLKE2A","3BDORL6HKKZHMTYWD6BFF6WBDQ9CRF","","102.69999992847443","img/land5.png","75","103.20000004768372","2","1","3","2","1,0.5,0.5,0.5,1,0.5,0.5,0.5,1","0.5,0.5,1,1,0.5,0.5,0.5,1,0.5","2","",""
"","html-keyboard-response","111","32093","0.0-111.0","3BDCF01OGYGL8I2IVG1AF4BJHRXLYZ","AXY0D2AMLKE2A","3BDORL6HKKZHMTYWD6BFF6WBDQ9CRF","","null","<img src=""img/land5.png"" style=""width:200px; border:14px solid green;"">","null","","","","","","","","","",""
"","image-keyboard-response","112","32161","0.0-112.0","3BDCF01OGYGL8I2IVG1AF4BJHRXLYZ","AXY0D2AMLKE2A","3BDORL6HKKZHMTYWD6BFF6WBDQ9CRF","","66.70000004768372","img/land2.png","74","67.29999995231628","1","1","2","2","1,0.5,0.5,0.5,1,0.5,0.5,0.5,1","0.5,0.5,1,1,0.5,0.5,0.5,1,0.5","2","",""
"","html-keyboard-response","113","32462","0.0-113.0","3BDCF01OGYGL8I2IVG1AF4BJHRXLYZ","AXY0D2AMLKE2A","3BDORL6HKKZHMTYWD6BFF6WBDQ9CRF","","null","<img src=""img/land2.png"" style=""width:200px; border:14px solid green;"">","null","","","","","","","","","",""
"","image-keyboard-response","114","32477","0.0-114.0","3BDCF01OGYGL8I2IVG1AF4BJHRXLYZ","AXY0D2AMLKE2A","3BDORL6HKKZHMTYWD6BFF6WBDQ9CRF","","14.300000071525574","img/land6.png","76","14.600000023841858","3","1","1","2","1,0.5,0.5,0.5,1,0.5,0.5,0.5,1","0.5,0.5,1,1,0.5,0.5,0.5,1,0.5","2","",""
"","html-keyboard-response","115","32777","0.0-115.0","3BDCF01OGYGL8I2IVG1AF4BJHRXLYZ","AXY0D2AMLKE2A","3BDORL6HKKZHMTYWD6BFF6WBDQ9CRF","","null","<img src=""img/land6.png"" style=""width:200px; border:14px solid green;"">","null","","","","","","","","","",""
"","image-keyboard-response","116","32861","0.0-116.0","3BDCF01OGYGL8I2IVG1AF4BJHRXLYZ","AXY0D2AMLKE2A","3BDORL6HKKZHMTYWD6BFF6WBDQ9CRF","","82.79999995231628","img/land2.png","76","83.10000002384186","3","0","2","2","1,0.5,0.5,0.5,1,0.5,0.5,0.5,1","0.5,0.5,1,1,0.5,0.5,0.5,1,0.5","2","",""
"","html-keyboard-response","117","33161","0.0-117.0","3BDCF01OGYGL8I2IVG1AF4BJHRXLYZ","AXY0D2AMLKE2A","3BDORL6HKKZHMTYWD6BFF6WBDQ9CRF","","null","<img src=""img/land2.png"" style=""width:200px;border:14px solid red;"">","null","","","","","","","","","",""
"","image-keyboard-response","118","33279","0.0-118.0","3BDCF01OGYGL8I2IVG1AF4BJHRXLYZ","AXY0D2AMLKE2A","3BDORL6HKKZHMTYWD6BFF6WBDQ9CRF","","116.60000002384186","img/land6.png","76","117","3","1","1","2","1,0.5,0.5,0.5,1,0.5,0.5,0.5,1","0.5,0.5,1,1,0.5,0.5,0.5,1,0.5","2","",""
"","html-keyboard-response","119","33580","0.0-119.0","3BDCF01OGYGL8I2IVG1AF4BJHRXLYZ","AXY0D2AMLKE2A","3BDORL6HKKZHMTYWD6BFF6WBDQ9CRF","","null","<img src=""img/land6.png"" style=""width:200px; border:14px solid green;"">","null","","","","","","","","","",""
"","image-keyboard-response","120","33594","0.0-120.0","3BDCF01OGYGL8I2IVG1AF4BJHRXLYZ","AXY0D2AMLKE2A","3BDORL6HKKZHMTYWD6BFF6WBDQ9CRF","","13","img/land6.png","75","13.399999976158142","2","0","1","2","1,0.5,0.5,0.5,1,0.5,0.5,0.5,1","0.5,0.5,1,1,0.5,0.5,0.5,1,0.5","2","",""
"","html-keyboard-response","121","33895","0.0-121.0","3BDCF01OGYGL8I2IVG1AF4BJHRXLYZ","AXY0D2AMLKE2A","3BDORL6HKKZHMTYWD6BFF6WBDQ9CRF","","null","<img src=""img/land6.png"" style=""width:200px;border:14px solid red;"">","null","","","","","","","","","",""
"","image-keyboard-response","122","33903","0.0-122.0","3BDCF01OGYGL8I2IVG1AF4BJHRXLYZ","AXY0D2AMLKE2A","3BDORL6HKKZHMTYWD6BFF6WBDQ9CRF","","6.899999976158142","img/land6.png","75","7.299999952316284","2","1","1","2","1,0.5,0.5,0.5,1,0.5,0.5,0.5,1","0.5,0.5,1,1,0.5,0.5,0.5,1,0.5","2","",""
"","html-keyboard-response","123","34203","0.0-123.0","3BDCF01OGYGL8I2IVG1AF4BJHRXLYZ","AXY0D2AMLKE2A","3BDORL6HKKZHMTYWD6BFF6WBDQ9CRF","","null","<img src=""img/land6.png"" style=""width:200px; border:14px solid green;"">","null","","","","","","","","","",""
"","image-keyboard-response","124","34225","0.0-124.0","3BDCF01OGYGL8I2IVG1AF4BJHRXLYZ","AXY0D2AMLKE2A","3BDORL6HKKZHMTYWD6BFF6WBDQ9CRF","","20.899999976158142","img/land2.png","74","21.200000047683716","1","1","2","2","1,0.5,0.5,0.5,1,0.5,0.5,0.5,1","0.5,0.5,1,1,0.5,0.5,0.5,1,0.5","2","",""
"","html-keyboard-response","125","34526","0.0-125.0","3BDCF01OGYGL8I2IVG1AF4BJHRXLYZ","AXY0D2AMLKE2A","3BDORL6HKKZHMTYWD6BFF6WBDQ9CRF","","null","<img src=""img/land2.png"" style=""width:200px; border:14px solid green;"">","null","","","","","","","","","",""
"","image-keyboard-response","126","34635","0.0-126.0","3BDCF01OGYGL8I2IVG1AF4BJHRXLYZ","AXY0D2AMLKE2A","3BDORL6HKKZHMTYWD6BFF6WBDQ9CRF","","108.69999992847443","img/land5.png","75","109.19999992847443","2","1","3","2","1,0.5,0.5,0.5,1,0.5,0.5,0.5,1","0.5,0.5,1,1,0.5,0.5,0.5,1,0.5","2","",""
"","html-keyboard-response","127","34936","0.0-127.0","3BDCF01OGYGL8I2IVG1AF4BJHRXLYZ","AXY0D2AMLKE2A","3BDORL6HKKZHMTYWD6BFF6WBDQ9CRF","","null","<img src=""img/land5.png"" style=""width:200px; border:14px solid green;"">","null","","","","","","","","","",""
"","image-keyboard-response","128","34966","0.0-128.0","3BDCF01OGYGL8I2IVG1AF4BJHRXLYZ","AXY0D2AMLKE2A","3BDORL6HKKZHMTYWD6BFF6WBDQ9CRF","","28.799999952316284","img/land5.png","76","29.200000047683716","3","0","3","2","1,0.5,0.5,0.5,1,0.5,0.5,0.5,1","0.5,0.5,1,1,0.5,0.5,0.5,1,0.5","2","",""
"","html-keyboard-response","129","35266","0.0-129.0","3BDCF01OGYGL8I2IVG1AF4BJHRXLYZ","AXY0D2AMLKE2A","3BDORL6HKKZHMTYWD6BFF6WBDQ9CRF","","null","<img src=""img/land5.png"" style=""width:200px;border:14px solid red;"">","null","","","","","","","","","",""
"","image-keyboard-response","130","35302","0.0-130.0","3BDCF01OGYGL8I2IVG1AF4BJHRXLYZ","AXY0D2AMLKE2A","3BDORL6HKKZHMTYWD6BFF6WBDQ9CRF","","34.699999928474426","img/land2.png","75","35.200000047683716","2","1","2","2","1,0.5,0.5,0.5,1,0.5,0.5,0.5,1","0.5,0.5,1,1,0.5,0.5,0.5,1,0.5","2","",""
"","html-keyboard-response","131","35603","0.0-131.0","3BDCF01OGYGL8I2IVG1AF4BJHRXLYZ","AXY0D2AMLKE2A","3BDORL6HKKZHMTYWD6BFF6WBDQ9CRF","","null","<img src=""img/land2.png"" style=""width:200px; border:14px solid green;"">","null","","","","","","","","","",""
"","image-keyboard-response","132","35617","0.0-132.0","3BDCF01OGYGL8I2IVG1AF4BJHRXLYZ","AXY0D2AMLKE2A","3BDORL6HKKZHMTYWD6BFF6WBDQ9CRF","","12.899999976158142","img/land5.png","75","13.399999976158142","2","1","3","2","1,0.5,0.5,0.5,1,0.5,0.5,0.5,1","0.5,0.5,1,1,0.5,0.5,0.5,1,0.5","2","",""
"","html-keyboard-response","133","35917","0.0-133.0","3BDCF01OGYGL8I2IVG1AF4BJHRXLYZ","AXY0D2AMLKE2A","3BDORL6HKKZHMTYWD6BFF6WBDQ9CRF","","null","<img src=""img/land5.png"" style=""width:200px; border:14px solid green;"">","null","","","","","","","","","",""
"","image-keyboard-response","134","35953","0.0-134.0","3BDCF01OGYGL8I2IVG1AF4BJHRXLYZ","AXY0D2AMLKE2A","3BDORL6HKKZHMTYWD6BFF6WBDQ9CRF","","34.89999997615814","img/land6.png","75","35.300000071525574","2","0","1","2","1,0.5,0.5,0.5,1,0.5,0.5,0.5,1","0.5,0.5,1,1,0.5,0.5,0.5,1,0.5","2","",""
"","html-keyboard-response","135","36254","0.0-135.0","3BDCF01OGYGL8I2IVG1AF4BJHRXLYZ","AXY0D2AMLKE2A","3BDORL6HKKZHMTYWD6BFF6WBDQ9CRF","","null","<img src=""img/land6.png"" style=""width:200px;border:14px solid red;"">","null","","","","","","","","","",""
"","image-keyboard-response","136","36357","0.0-136.0","3BDCF01OGYGL8I2IVG1AF4BJHRXLYZ","AXY0D2AMLKE2A","3BDORL6HKKZHMTYWD6BFF6WBDQ9CRF","","101.79999995231628","img/land6.png","74","102.20000004768372","1","1","1","2","1,0.5,0.5,0.5,1,0.5,0.5,0.5,1","0.5,0.5,1,1,0.5,0.5,0.5,1,0.5","2","",""
"","html-keyboard-response","137","36658","0.0-137.0","3BDCF01OGYGL8I2IVG1AF4BJHRXLYZ","AXY0D2AMLKE2A","3BDORL6HKKZHMTYWD6BFF6WBDQ9CRF","","null","<img src=""img/land6.png"" style=""width:200px; border:14px solid green;"">","null","","","","","","","","","",""
"","image-keyboard-response","138","36659","0.0-138.0","3BDCF01OGYGL8I2IVG1AF4BJHRXLYZ","AXY0D2AMLKE2A","3BDORL6HKKZHMTYWD6BFF6WBDQ9CRF","","0.5","img/land5.png","76","0.7999999523162842","3","0","3","2","1,0.5,0.5,0.5,1,0.5,0.5,0.5,1","0.5,0.5,1,1,0.5,0.5,0.5,1,0.5","2","",""
"","html-keyboard-response","139","36967","0.0-139.0","3BDCF01OGYGL8I2IVG1AF4BJHRXLYZ","AXY0D2AMLKE2A","3BDORL6HKKZHMTYWD6BFF6WBDQ9CRF","","null","<img src=""img/land5.png"" style=""width:200px;border:14px solid red;"">","null","","","","","","","","","",""
"","image-keyboard-response","140","37056","0.0-140.0","3BDCF01OGYGL8I2IVG1AF4BJHRXLYZ","AXY0D2AMLKE2A","3BDORL6HKKZHMTYWD6BFF6WBDQ9CRF","","88.5","img/land6.png","76","88.79999995231628","3","1","1","2","1,0.5,0.5,0.5,1,0.5,0.5,0.5,1","0.5,0.5,1,1,0.5,0.5,0.5,1,0.5","2","",""
"","html-keyboard-response","141","37357","0.0-141.0","3BDCF01OGYGL8I2IVG1AF4BJHRXLYZ","AXY0D2AMLKE2A","3BDORL6HKKZHMTYWD6BFF6WBDQ9CRF","","null","<img src=""img/land6.png"" style=""width:200px; border:14px solid green;"">","null","","","","","","","","","",""
"","image-keyboard-response","142","37365","0.0-142.0","3BDCF01OGYGL8I2IVG1AF4BJHRXLYZ","AXY0D2AMLKE2A","3BDORL6HKKZHMTYWD6BFF6WBDQ9CRF","","6.899999976158142","img/land6.png","74","7.200000047683716","1","0","1","2","1,0.5,0.5,0.5,1,0.5,0.5,0.5,1","0.5,0.5,1,1,0.5,0.5,0.5,1,0.5","2","",""
"","html-keyboard-response","143","37666","0.0-143.0","3BDCF01OGYGL8I2IVG1AF4BJHRXLYZ","AXY0D2AMLKE2A","3BDORL6HKKZHMTYWD6BFF6WBDQ9CRF","","null","<img src=""img/land6.png"" style=""width:200px;border:14px solid red;"">","null","","","","","","","","","",""
"","image-keyboard-response","144","37680","0.0-144.0","3BDCF01OGYGL8I2IVG1AF4BJHRXLYZ","AXY0D2AMLKE2A","3BDORL6HKKZHMTYWD6BFF6WBDQ9CRF","","12.899999976158142","img/land6.png","76","13.200000047683716","3","1","1","2","1,0.5,0.5,0.5,1,0.5,0.5,0.5,1","0.5,0.5,1,1,0.5,0.5,0.5,1,0.5","2","",""
"","html-keyboard-response","145","37986","0.0-145.0","3BDCF01OGYGL8I2IVG1AF4BJHRXLYZ","AXY0D2AMLKE2A","3BDORL6HKKZHMTYWD6BFF6WBDQ9CRF","","null","<img src=""img/land6.png"" style=""width:200px; border:14px solid green;"">","null","","","","","","","","","",""
"","image-keyboard-response","146","37996","0.0-146.0","3BDCF01OGYGL8I2IVG1AF4BJHRXLYZ","AXY0D2AMLKE2A","3BDORL6HKKZHMTYWD6BFF6WBDQ9CRF","","9","img/land6.png","74","9.399999976158142","1","1","1","2","1,0.5,0.5,0.5,1,0.5,0.5,0.5,1","0.5,0.5,1,1,0.5,0.5,0.5,1,0.5","2","",""
"","html-keyboard-response","147","38297","0.0-147.0","3BDCF01OGYGL8I2IVG1AF4BJHRXLYZ","AXY0D2AMLKE2A","3BDORL6HKKZHMTYWD6BFF6WBDQ9CRF","","null","<img src=""img/land6.png"" style=""width:200px; border:14px solid green;"">","null","","","","","","","","","",""
"","image-keyboard-response","148","38332","0.0-148.0","3BDCF01OGYGL8I2IVG1AF4BJHRXLYZ","AXY0D2AMLKE2A","3BDORL6HKKZHMTYWD6BFF6WBDQ9CRF","","34.5","img/land6.png","75","35","2","1","1","2","1,0.5,0.5,0.5,1,0.5,0.5,0.5,1","0.5,0.5,1,1,0.5,0.5,0.5,1,0.5","2","",""
"","html-keyboard-response","149","38633","0.0-149.0","3BDCF01OGYGL8I2IVG1AF4BJHRXLYZ","AXY0D2AMLKE2A","3BDORL6HKKZHMTYWD6BFF6WBDQ9CRF","","null","<img src=""img/land6.png"" style=""width:200px; border:14px solid green;"">","null","","","","","","","","","",""
"","image-keyboard-response","150","38757","0.0-150.0","3BDCF01OGYGL8I2IVG1AF4BJHRXLYZ","AXY0D2AMLKE2A","3BDORL6HKKZHMTYWD6BFF6WBDQ9CRF","","123.20000004768372","img/land6.png","74","123.70000004768372","1","1","1","2","1,0.5,0.5,0.5,1,0.5,0.5,0.5,1","0.5,0.5,1,1,0.5,0.5,0.5,1,0.5","2","",""
"","html-keyboard-response","151","39058","0.0-151.0","3BDCF01OGYGL8I2IVG1AF4BJHRXLYZ","AXY0D2AMLKE2A","3BDORL6HKKZHMTYWD6BFF6WBDQ9CRF","","null","<img src=""img/land6.png"" style=""width:200px; border:14px solid green;"">","null","","","","","","","","","",""
"","image-keyboard-response","152","39100","0.0-152.0","3BDCF01OGYGL8I2IVG1AF4BJHRXLYZ","AXY0D2AMLKE2A","3BDORL6HKKZHMTYWD6BFF6WBDQ9CRF","","41.90000009536743","img/land2.png","76","42.299999952316284","3","0","2","2","1,0.5,0.5,0.5,1,0.5,0.5,0.5,1","0.5,0.5,1,1,0.5,0.5,0.5,1,0.5","2","",""
"","html-keyboard-response","153","39401","0.0-153.0","3BDCF01OGYGL8I2IVG1AF4BJHRXLYZ","AXY0D2AMLKE2A","3BDORL6HKKZHMTYWD6BFF6WBDQ9CRF","","null","<img src=""img/land2.png"" style=""width:200px;border:14px solid red;"">","null","","","","","","","","","",""
"","image-keyboard-response","154","39518","0.0-154.0","3BDCF01OGYGL8I2IVG1AF4BJHRXLYZ","AXY0D2AMLKE2A","3BDORL6HKKZHMTYWD6BFF6WBDQ9CRF","","116","img/land5.png","75","116.60000002384186","2","1","3","2","1,0.5,0.5,0.5,1,0.5,0.5,0.5,1","0.5,0.5,1,1,0.5,0.5,0.5,1,0.5","2","",""
"","html-keyboard-response","155","39818","0.0-155.0","3BDCF01OGYGL8I2IVG1AF4BJHRXLYZ","AXY0D2AMLKE2A","3BDORL6HKKZHMTYWD6BFF6WBDQ9CRF","","null","<img src=""img/land5.png"" style=""width:200px; border:14px solid green;"">","null","","","","","","","","","",""
"","image-keyboard-response","156","39826","0.0-156.0","3BDCF01OGYGL8I2IVG1AF4BJHRXLYZ","AXY0D2AMLKE2A","3BDORL6HKKZHMTYWD6BFF6WBDQ9CRF","","6.799999952316284","img/land5.png","76","7.200000047683716","3","0","3","2","1,0.5,0.5,0.5,1,0.5,0.5,0.5,1","0.5,0.5,1,1,0.5,0.5,0.5,1,0.5","2","",""
"","html-keyboard-response","157","40126","0.0-157.0","3BDCF01OGYGL8I2IVG1AF4BJHRXLYZ","AXY0D2AMLKE2A","3BDORL6HKKZHMTYWD6BFF6WBDQ9CRF","","null","<img src=""img/land5.png"" style=""width:200px;border:14px solid red;"">","null","","","","","","","","","",""
"","image-keyboard-response","158","40149","0.0-158.0","3BDCF01OGYGL8I2IVG1AF4BJHRXLYZ","AXY0D2AMLKE2A","3BDORL6HKKZHMTYWD6BFF6WBDQ9CRF","","22","img/land6.png","74","22.5","1","0","1","2","1,0.5,0.5,0.5,1,0.5,0.5,0.5,1","0.5,0.5,1,1,0.5,0.5,0.5,1,0.5","2","",""
"","html-keyboard-response","159","40450","0.0-159.0","3BDCF01OGYGL8I2IVG1AF4BJHRXLYZ","AXY0D2AMLKE2A","3BDORL6HKKZHMTYWD6BFF6WBDQ9CRF","","null","<img src=""img/land6.png"" style=""width:200px;border:14px solid red;"">","null","","","","","","","","","",""
"","image-keyboard-response","160","40492","0.0-160.0","3BDCF01OGYGL8I2IVG1AF4BJHRXLYZ","AXY0D2AMLKE2A","3BDORL6HKKZHMTYWD6BFF6WBDQ9CRF","","41.10000002384186","img/land6.png","76","41.59999990463257","3","1","1","2","1,0.5,0.5,0.5,1,0.5,0.5,0.5,1","0.5,0.5,1,1,0.5,0.5,0.5,1,0.5","2","",""
"","html-keyboard-response","161","40793","0.0-161.0","3BDCF01OGYGL8I2IVG1AF4BJHRXLYZ","AXY0D2AMLKE2A","3BDORL6HKKZHMTYWD6BFF6WBDQ9CRF","","null","<img src=""img/land6.png"" style=""width:200px; border:14px solid green;"">","null","","","","","","","","","",""
"","image-keyboard-response","162","40814","0.0-162.0","3BDCF01OGYGL8I2IVG1AF4BJHRXLYZ","AXY0D2AMLKE2A","3BDORL6HKKZHMTYWD6BFF6WBDQ9CRF","","20.100000023841858","img/land5.png","75","20.399999976158142","2","1","3","2","1,0.5,0.5,0.5,1,0.5,0.5,0.5,1","0.5,0.5,1,1,0.5,0.5,0.5,1,0.5","2","",""
"","html-keyboard-response","163","41114","0.0-163.0","3BDCF01OGYGL8I2IVG1AF4BJHRXLYZ","AXY0D2AMLKE2A","3BDORL6HKKZHMTYWD6BFF6WBDQ9CRF","","null","<img src=""img/land5.png"" style=""width:200px; border:14px solid green;"">","null","","","","","","","","","",""
"","image-keyboard-response","164","41150","0.0-164.0","3BDCF01OGYGL8I2IVG1AF4BJHRXLYZ","AXY0D2AMLKE2A","3BDORL6HKKZHMTYWD6BFF6WBDQ9CRF","","34.800000071525574","img/land6.png","76","35.200000047683716","3","1","1","2","1,0.5,0.5,0.5,1,0.5,0.5,0.5,1","0.5,0.5,1,1,0.5,0.5,0.5,1,0.5","2","",""
"","html-keyboard-response","165","41450","0.0-165.0","3BDCF01OGYGL8I2IVG1AF4BJHRXLYZ","AXY0D2AMLKE2A","3BDORL6HKKZHMTYWD6BFF6WBDQ9CRF","","null","<img src=""img/land6.png"" style=""width:200px; border:14px solid green;"">","null","","","","","","","","","",""
"","image-keyboard-response","166","41472","0.0-166.0","3BDCF01OGYGL8I2IVG1AF4BJHRXLYZ","AXY0D2AMLKE2A","3BDORL6HKKZHMTYWD6BFF6WBDQ9CRF","","20.800000071525574","img/land2.png","74","21.100000023841858","1","1","2","2","1,0.5,0.5,0.5,1,0.5,0.5,0.5,1","0.5,0.5,1,1,0.5,0.5,0.5,1,0.5","2","",""
"","html-keyboard-response","167","41772","0.0-167.0","3BDCF01OGYGL8I2IVG1AF4BJHRXLYZ","AXY0D2AMLKE2A","3BDORL6HKKZHMTYWD6BFF6WBDQ9CRF","","null","<img src=""img/land2.png"" style=""width:200px; border:14px solid green;"">","null","","","","","","","","","",""
"","image-keyboard-response","168","41808","0.0-168.0","3BDCF01OGYGL8I2IVG1AF4BJHRXLYZ","AXY0D2AMLKE2A","3BDORL6HKKZHMTYWD6BFF6WBDQ9CRF","","34.89999997615814","img/land5.png","75","35.300000071525574","2","1","3","2","1,0.5,0.5,0.5,1,0.5,0.5,0.5,1","0.5,0.5,1,1,0.5,0.5,0.5,1,0.5","2","",""
"","html-keyboard-response","169","42108","0.0-169.0","3BDCF01OGYGL8I2IVG1AF4BJHRXLYZ","AXY0D2AMLKE2A","3BDORL6HKKZHMTYWD6BFF6WBDQ9CRF","","null","<img src=""img/land5.png"" style=""width:200px; border:14px solid green;"">","null","","","","","","","","","",""
"","image-keyboard-response","170","42116","0.0-170.0","3BDCF01OGYGL8I2IVG1AF4BJHRXLYZ","AXY0D2AMLKE2A","3BDORL6HKKZHMTYWD6BFF6WBDQ9CRF","","7","img/land6.png","74","7.400000095367432","1","1","1","2","1,0.5,0.5,0.5,1,0.5,0.5,0.5,1","0.5,0.5,1,1,0.5,0.5,0.5,1,0.5","2","",""
"","html-keyboard-response","171","42416","0.0-171.0","3BDCF01OGYGL8I2IVG1AF4BJHRXLYZ","AXY0D2AMLKE2A","3BDORL6HKKZHMTYWD6BFF6WBDQ9CRF","","null","<img src=""img/land6.png"" style=""width:200px; border:14px solid green;"">","null","","","","","","","","","",""
"","image-keyboard-response","172","42459","0.0-172.0","3BDCF01OGYGL8I2IVG1AF4BJHRXLYZ","AXY0D2AMLKE2A","3BDORL6HKKZHMTYWD6BFF6WBDQ9CRF","","42.60000002384186","img/land6.png","75","43","2","1","1","2","1,0.5,0.5,0.5,1,0.5,0.5,0.5,1","0.5,0.5,1,1,0.5,0.5,0.5,1,0.5","2","",""
"","html-keyboard-response","173","42761","0.0-173.0","3BDCF01OGYGL8I2IVG1AF4BJHRXLYZ","AXY0D2AMLKE2A","3BDORL6HKKZHMTYWD6BFF6WBDQ9CRF","","null","<img src=""img/land6.png"" style=""width:200px; border:14px solid green;"">","null","","","","","","","","","",""
"","image-keyboard-response","174","42802","0.0-174.0","3BDCF01OGYGL8I2IVG1AF4BJHRXLYZ","AXY0D2AMLKE2A","3BDORL6HKKZHMTYWD6BFF6WBDQ9CRF","","40.200000047683716","img/land6.png","74","40.5","1","1","1","2","1,0.5,0.5,0.5,1,0.5,0.5,0.5,1","0.5,0.5,1,1,0.5,0.5,0.5,1,0.5","2","",""
"","html-keyboard-response","175","43102","0.0-175.0","3BDCF01OGYGL8I2IVG1AF4BJHRXLYZ","AXY0D2AMLKE2A","3BDORL6HKKZHMTYWD6BFF6WBDQ9CRF","","null","<img src=""img/land6.png"" style=""width:200px; border:14px solid green;"">","null","","","","","","","","","",""
"","image-keyboard-response","176","43240","0.0-176.0","3BDCF01OGYGL8I2IVG1AF4BJHRXLYZ","AXY0D2AMLKE2A","3BDORL6HKKZHMTYWD6BFF6WBDQ9CRF","","137.10000002384186","img/land6.png","74","137.5","1","1","1","2","1,0.5,0.5,0.5,1,0.5,0.5,0.5,1","0.5,0.5,1,1,0.5,0.5,0.5,1,0.5","2","",""
"","html-keyboard-response","177","43541","0.0-177.0","3BDCF01OGYGL8I2IVG1AF4BJHRXLYZ","AXY0D2AMLKE2A","3BDORL6HKKZHMTYWD6BFF6WBDQ9CRF","","null","<img src=""img/land6.png"" style=""width:200px; border:14px solid green;"">","null","","","","","","","","","",""
"","image-keyboard-response","178","43926","0.0-178.0","3BDCF01OGYGL8I2IVG1AF4BJHRXLYZ","AXY0D2AMLKE2A","3BDORL6HKKZHMTYWD6BFF6WBDQ9CRF","","384.3000000715256","img/land2.png","76","384.6999999284744","3","1","2","2","1,0.5,0.5,0.5,1,0.5,0.5,0.5,1","0.5,0.5,1,1,0.5,0.5,0.5,1,0.5","2","",""
"","html-keyboard-response","179","44227","0.0-179.0","3BDCF01OGYGL8I2IVG1AF4BJHRXLYZ","AXY0D2AMLKE2A","3BDORL6HKKZHMTYWD6BFF6WBDQ9CRF","","null","<img src=""img/land2.png"" style=""width:200px; border:14px solid green;"">","null","","","","","","","","","",""
"","image-keyboard-response","180","44317","0.0-180.0","3BDCF01OGYGL8I2IVG1AF4BJHRXLYZ","AXY0D2AMLKE2A","3BDORL6HKKZHMTYWD6BFF6WBDQ9CRF","","89.20000004768372","img/land6.png","74","89.69999992847443","1","1","1","2","1,0.5,0.5,0.5,1,0.5,0.5,0.5,1","0.5,0.5,1,1,0.5,0.5,0.5,1,0.5","2","",""
"","html-keyboard-response","181","44618","0.0-181.0","3BDCF01OGYGL8I2IVG1AF4BJHRXLYZ","AXY0D2AMLKE2A","3BDORL6HKKZHMTYWD6BFF6WBDQ9CRF","","null","<img src=""img/land6.png"" style=""width:200px; border:14px solid green;"">","null","","","","","","","","","",""
"","image-keyboard-response","182","44722","0.0-182.0","3BDCF01OGYGL8I2IVG1AF4BJHRXLYZ","AXY0D2AMLKE2A","3BDORL6HKKZHMTYWD6BFF6WBDQ9CRF","","103.80000007152557","img/land6.png","75","104.10000002384186","2","0","1","2","1,0.5,0.5,0.5,1,0.5,0.5,0.5,1","0.5,0.5,1,1,0.5,0.5,0.5,1,0.5","2","",""
"","html-keyboard-response","183","45022","0.0-183.0","3BDCF01OGYGL8I2IVG1AF4BJHRXLYZ","AXY0D2AMLKE2A","3BDORL6HKKZHMTYWD6BFF6WBDQ9CRF","","null","<img src=""img/land6.png"" style=""width:200px;border:14px solid red;"">","null","","","","","","","","","",""
"","image-keyboard-response","184","45531","0.0-184.0","3BDCF01OGYGL8I2IVG1AF4BJHRXLYZ","AXY0D2AMLKE2A","3BDORL6HKKZHMTYWD6BFF6WBDQ9CRF","","508","img/land6.png","76","508.39999997615814","3","1","1","2","1,0.5,0.5,0.5,1,0.5,0.5,0.5,1","0.5,0.5,1,1,0.5,0.5,0.5,1,0.5","2","",""
"","html-keyboard-response","185","45832","0.0-185.0","3BDCF01OGYGL8I2IVG1AF4BJHRXLYZ","AXY0D2AMLKE2A","3BDORL6HKKZHMTYWD6BFF6WBDQ9CRF","","null","<img src=""img/land6.png"" style=""width:200px; border:14px solid green;"">","null","","","","","","","","","",""
"","image-keyboard-response","186","45997","0.0-186.0","3BDCF01OGYGL8I2IVG1AF4BJHRXLYZ","AXY0D2AMLKE2A","3BDORL6HKKZHMTYWD6BFF6WBDQ9CRF","","164.90000009536743","img/land2.png","76","165.29999995231628","3","0","2","2","1,0.5,0.5,0.5,1,0.5,0.5,0.5,1","0.5,0.5,1,1,0.5,0.5,0.5,1,0.5","2","",""
"","html-keyboard-response","187","46302","0.0-187.0","3BDCF01OGYGL8I2IVG1AF4BJHRXLYZ","AXY0D2AMLKE2A","3BDORL6HKKZHMTYWD6BFF6WBDQ9CRF","","null","<img src=""img/land2.png"" style=""width:200px;border:14px solid red;"">","null","","","","","","","","","",""
"","image-keyboard-response","188","46339","0.0-188.0","3BDCF01OGYGL8I2IVG1AF4BJHRXLYZ","AXY0D2AMLKE2A","3BDORL6HKKZHMTYWD6BFF6WBDQ9CRF","","36.299999952316284","img/land6.png","75","36.699999928474426","2","0","1","2","1,0.5,0.5,0.5,1,0.5,0.5,0.5,1","0.5,0.5,1,1,0.5,0.5,0.5,1,0.5","2","",""
"","html-keyboard-response","189","46639","0.0-189.0","3BDCF01OGYGL8I2IVG1AF4BJHRXLYZ","AXY0D2AMLKE2A","3BDORL6HKKZHMTYWD6BFF6WBDQ9CRF","","null","<img src=""img/land6.png"" style=""width:200px;border:14px solid red;"">","null","","","","","","","","","",""
"","image-keyboard-response","190","46723","0.0-190.0","3BDCF01OGYGL8I2IVG1AF4BJHRXLYZ","AXY0D2AMLKE2A","3BDORL6HKKZHMTYWD6BFF6WBDQ9CRF","","83","img/land6.png","76","83.39999997615814","3","1","1","2","1,0.5,0.5,0.5,1,0.5,0.5,0.5,1","0.5,0.5,1,1,0.5,0.5,0.5,1,0.5","2","",""
"","html-keyboard-response","191","47024","0.0-191.0","3BDCF01OGYGL8I2IVG1AF4BJHRXLYZ","AXY0D2AMLKE2A","3BDORL6HKKZHMTYWD6BFF6WBDQ9CRF","","null","<img src=""img/land6.png"" style=""width:200px; border:14px solid green;"">","null","","","","","","","","","",""
"","image-keyboard-response","192","47107","0.0-192.0","3BDCF01OGYGL8I2IVG1AF4BJHRXLYZ","AXY0D2AMLKE2A","3BDORL6HKKZHMTYWD6BFF6WBDQ9CRF","","82.30000007152557","img/land6.png","74","82.69999992847443","1","0","1","2","1,0.5,0.5,0.5,1,0.5,0.5,0.5,1","0.5,0.5,1,1,0.5,0.5,0.5,1,0.5","2","",""
"","html-keyboard-response","193","47407","0.0-193.0","3BDCF01OGYGL8I2IVG1AF4BJHRXLYZ","AXY0D2AMLKE2A","3BDORL6HKKZHMTYWD6BFF6WBDQ9CRF","","null","<img src=""img/land6.png"" style=""width:200px;border:14px solid red;"">","null","","","","","","","","","",""
"","image-keyboard-response","194","47450","0.0-194.0","3BDCF01OGYGL8I2IVG1AF4BJHRXLYZ","AXY0D2AMLKE2A","3BDORL6HKKZHMTYWD6BFF6WBDQ9CRF","","42","img/land5.png","75","42.5","2","1","3","2","1,0.5,0.5,0.5,1,0.5,0.5,0.5,1","0.5,0.5,1,1,0.5,0.5,0.5,1,0.5","2","",""
"","html-keyboard-response","195","47751","0.0-195.0","3BDCF01OGYGL8I2IVG1AF4BJHRXLYZ","AXY0D2AMLKE2A","3BDORL6HKKZHMTYWD6BFF6WBDQ9CRF","","null","<img src=""img/land5.png"" style=""width:200px; border:14px solid green;"">","null","","","","","","","","","",""
"","image-keyboard-response","196","47841","0.0-196.0","3BDCF01OGYGL8I2IVG1AF4BJHRXLYZ","AXY0D2AMLKE2A","3BDORL6HKKZHMTYWD6BFF6WBDQ9CRF","","89","img/land6.png","76","89.5","3","1","1","2","1,0.5,0.5,0.5,1,0.5,0.5,0.5,1","0.5,0.5,1,1,0.5,0.5,0.5,1,0.5","2","",""
"","html-keyboard-response","197","48143","0.0-197.0","3BDCF01OGYGL8I2IVG1AF4BJHRXLYZ","AXY0D2AMLKE2A","3BDORL6HKKZHMTYWD6BFF6WBDQ9CRF","","null","<img src=""img/land6.png"" style=""width:200px; border:14px solid green;"">","null","","","","","","","","","",""
"","image-keyboard-response","198","48280","0.0-198.0","3BDCF01OGYGL8I2IVG1AF4BJHRXLYZ","AXY0D2AMLKE2A","3BDORL6HKKZHMTYWD6BFF6WBDQ9CRF","","136.10000002384186","img/land2.png","76","136.60000002384186","3","0","2","2","1,0.5,0.5,0.5,1,0.5,0.5,0.5,1","0.5,0.5,1,1,0.5,0.5,0.5,1,0.5","2","",""
"","html-keyboard-response","199","48580","0.0-199.0","3BDCF01OGYGL8I2IVG1AF4BJHRXLYZ","AXY0D2AMLKE2A","3BDORL6HKKZHMTYWD6BFF6WBDQ9CRF","","null","<img src=""img/land2.png"" style=""width:200px;border:14px solid red;"">","null","","","","","","","","","",""
"","image-keyboard-response","200","48712","0.0-200.0","3BDCF01OGYGL8I2IVG1AF4BJHRXLYZ","AXY0D2AMLKE2A","3BDORL6HKKZHMTYWD6BFF6WBDQ9CRF","","131.39999997615814","img/land6.png","76","131.70000004768372","3","1","1","2","1,0.5,0.5,0.5,1,0.5,0.5,0.5,1","0.5,0.5,1,1,0.5,0.5,0.5,1,0.5","2","",""
"","html-keyboard-response","201","49013","0.0-201.0","3BDCF01OGYGL8I2IVG1AF4BJHRXLYZ","AXY0D2AMLKE2A","3BDORL6HKKZHMTYWD6BFF6WBDQ9CRF","","null","<img src=""img/land6.png"" style=""width:200px; border:14px solid green;"">","null","","","","","","","","","",""
"","image-keyboard-response","202","49020","0.0-202.0","3BDCF01OGYGL8I2IVG1AF4BJHRXLYZ","AXY0D2AMLKE2A","3BDORL6HKKZHMTYWD6BFF6WBDQ9CRF","","6.399999976158142","img/land5.png","75","6.900000095367432","2","1","3","2","1,0.5,0.5,0.5,1,0.5,0.5,0.5,1","0.5,0.5,1,1,0.5,0.5,0.5,1,0.5","2","",""
"","html-keyboard-response","203","49321","0.0-203.0","3BDCF01OGYGL8I2IVG1AF4BJHRXLYZ","AXY0D2AMLKE2A","3BDORL6HKKZHMTYWD6BFF6WBDQ9CRF","","null","<img src=""img/land5.png"" style=""width:200px; border:14px solid green;"">","null","","","","","","","","","",""
"","image-keyboard-response","204","49418","0.0-204.0","3BDCF01OGYGL8I2IVG1AF4BJHRXLYZ","AXY0D2AMLKE2A","3BDORL6HKKZHMTYWD6BFF6WBDQ9CRF","","96.89999997615814","img/land5.png","75","97.09999990463257","2","1","3","2","1,0.5,0.5,0.5,1,0.5,0.5,0.5,1","0.5,0.5,1,1,0.5,0.5,0.5,1,0.5","2","",""
"","html-keyboard-response","205","49718","0.0-205.0","3BDCF01OGYGL8I2IVG1AF4BJHRXLYZ","AXY0D2AMLKE2A","3BDORL6HKKZHMTYWD6BFF6WBDQ9CRF","","null","<img src=""img/land5.png"" style=""width:200px; border:14px solid green;"">","null","","","","","","","","","",""
"","image-keyboard-response","206","49829","0.0-206.0","3BDCF01OGYGL8I2IVG1AF4BJHRXLYZ","AXY0D2AMLKE2A","3BDORL6HKKZHMTYWD6BFF6WBDQ9CRF","","110.39999997615814","img/land6.png","75","110.80000007152557","2","0","1","2","1,0.5,0.5,0.5,1,0.5,0.5,0.5,1","0.5,0.5,1,1,0.5,0.5,0.5,1,0.5","2","",""
"","html-keyboard-response","207","50131","0.0-207.0","3BDCF01OGYGL8I2IVG1AF4BJHRXLYZ","AXY0D2AMLKE2A","3BDORL6HKKZHMTYWD6BFF6WBDQ9CRF","","null","<img src=""img/land6.png"" style=""width:200px;border:14px solid red;"">","null","","","","","","","","","",""
"","image-keyboard-response","208","50261","0.0-208.0","3BDCF01OGYGL8I2IVG1AF4BJHRXLYZ","AXY0D2AMLKE2A","3BDORL6HKKZHMTYWD6BFF6WBDQ9CRF","","129.80000007152557","img/land6.png","75","130.19999992847443","2","0","1","2","1,0.5,0.5,0.5,1,0.5,0.5,0.5,1","0.5,0.5,1,1,0.5,0.5,0.5,1,0.5","2","",""
"","html-keyboard-response","209","50574","0.0-209.0","3BDCF01OGYGL8I2IVG1AF4BJHRXLYZ","AXY0D2AMLKE2A","3BDORL6HKKZHMTYWD6BFF6WBDQ9CRF","","null","<img src=""img/land6.png"" style=""width:200px;border:14px solid red;"">","null","","","","","","","","","",""
"","image-keyboard-response","210","50611","0.0-210.0","3BDCF01OGYGL8I2IVG1AF4BJHRXLYZ","AXY0D2AMLKE2A","3BDORL6HKKZHMTYWD6BFF6WBDQ9CRF","","36.10000002384186","img/land5.png","75","36.59999990463257","2","1","3","2","1,0.5,0.5,0.5,1,0.5,0.5,0.5,1","0.5,0.5,1,1,0.5,0.5,0.5,1,0.5","2","",""
"","html-keyboard-response","211","50913","0.0-211.0","3BDCF01OGYGL8I2IVG1AF4BJHRXLYZ","AXY0D2AMLKE2A","3BDORL6HKKZHMTYWD6BFF6WBDQ9CRF","","null","<img src=""img/land5.png"" style=""width:200px; border:14px solid green;"">","null","","","","","","","","","",""
"","image-keyboard-response","212","50974","0.0-212.0","3BDCF01OGYGL8I2IVG1AF4BJHRXLYZ","AXY0D2AMLKE2A","3BDORL6HKKZHMTYWD6BFF6WBDQ9CRF","","60.60000002384186","img/land6.png","74","61.10000002384186","1","0","1","2","1,0.5,0.5,0.5,1,0.5,0.5,0.5,1","0.5,0.5,1,1,0.5,0.5,0.5,1,0.5","2","",""
"","html-keyboard-response","213","51275","0.0-213.0","3BDCF01OGYGL8I2IVG1AF4BJHRXLYZ","AXY0D2AMLKE2A","3BDORL6HKKZHMTYWD6BFF6WBDQ9CRF","","null","<img src=""img/land6.png"" style=""width:200px;border:14px solid red;"">","null","","","","","","","","","",""
"","image-keyboard-response","214","51413","0.0-214.0","3BDCF01OGYGL8I2IVG1AF4BJHRXLYZ","AXY0D2AMLKE2A","3BDORL6HKKZHMTYWD6BFF6WBDQ9CRF","","137.70000004768372","img/land6.png","74","138.20000004768372","1","0","1","2","1,0.5,0.5,0.5,1,0.5,0.5,0.5,1","0.5,0.5,1,1,0.5,0.5,0.5,1,0.5","2","",""
"","html-keyboard-response","215","51714","0.0-215.0","3BDCF01OGYGL8I2IVG1AF4BJHRXLYZ","AXY0D2AMLKE2A","3BDORL6HKKZHMTYWD6BFF6WBDQ9CRF","","null","<img src=""img/land6.png"" style=""width:200px;border:14px solid red;"">","null","","","","","","","","","",""
"","image-keyboard-response","216","51769","0.0-216.0","3BDCF01OGYGL8I2IVG1AF4BJHRXLYZ","AXY0D2AMLKE2A","3BDORL6HKKZHMTYWD6BFF6WBDQ9CRF","","54.799999952316284","img/land2.png","75","55.199999928474426","2","0","2","2","1,0.5,0.5,0.5,1,0.5,0.5,0.5,1","0.5,0.5,1,1,0.5,0.5,0.5,1,0.5","2","",""
"","html-keyboard-response","217","52069","0.0-217.0","3BDCF01OGYGL8I2IVG1AF4BJHRXLYZ","AXY0D2AMLKE2A","3BDORL6HKKZHMTYWD6BFF6WBDQ9CRF","","null","<img src=""img/land2.png"" style=""width:200px;border:14px solid red;"">","null","","","","","","","","","",""
"","image-keyboard-response","218","52078","0.0-218.0","3BDCF01OGYGL8I2IVG1AF4BJHRXLYZ","AXY0D2AMLKE2A","3BDORL6HKKZHMTYWD6BFF6WBDQ9CRF","","7.900000095367432","img/land5.png","74","8.5","1","0","3","2","1,0.5,0.5,0.5,1,0.5,0.5,0.5,1","0.5,0.5,1,1,0.5,0.5,0.5,1,0.5","2","",""
"","html-keyboard-response","219","52379","0.0-219.0","3BDCF01OGYGL8I2IVG1AF4BJHRXLYZ","AXY0D2AMLKE2A","3BDORL6HKKZHMTYWD6BFF6WBDQ9CRF","","null","<img src=""img/land5.png"" style=""width:200px;border:14px solid red;"">","null","","","","","","","","","",""
"","image-keyboard-response","220","52517","0.0-220.0","3BDCF01OGYGL8I2IVG1AF4BJHRXLYZ","AXY0D2AMLKE2A","3BDORL6HKKZHMTYWD6BFF6WBDQ9CRF","","137.89999997615814","img/land6.png","75","138.39999997615814","2","0","1","2","1,0.5,0.5,0.5,1,0.5,0.5,0.5,1","0.5,0.5,1,1,0.5,0.5,0.5,1,0.5","2","",""
"","html-keyboard-response","221","52818","0.0-221.0","3BDCF01OGYGL8I2IVG1AF4BJHRXLYZ","AXY0D2AMLKE2A","3BDORL6HKKZHMTYWD6BFF6WBDQ9CRF","","null","<img src=""img/land6.png"" style=""width:200px;border:14px solid red;"">","null","","","","","","","","","",""
"","image-keyboard-response","222","52935","0.0-222.0","3BDCF01OGYGL8I2IVG1AF4BJHRXLYZ","AXY0D2AMLKE2A","3BDORL6HKKZHMTYWD6BFF6WBDQ9CRF","","117","img/land6.png","75","117.29999995231628","2","1","1","2","1,0.5,0.5,0.5,1,0.5,0.5,0.5,1","0.5,0.5,1,1,0.5,0.5,0.5,1,0.5","2","",""
"","html-keyboard-response","223","53236","0.0-223.0","3BDCF01OGYGL8I2IVG1AF4BJHRXLYZ","AXY0D2AMLKE2A","3BDORL6HKKZHMTYWD6BFF6WBDQ9CRF","","null","<img src=""img/land6.png"" style=""width:200px; border:14px solid green;"">","null","","","","","","","","","",""
"","image-keyboard-response","224","53723","0.0-224.0","3BDCF01OGYGL8I2IVG1AF4BJHRXLYZ","AXY0D2AMLKE2A","3BDORL6HKKZHMTYWD6BFF6WBDQ9CRF","","486.89999997615814","img/land6.png","74","487.2999999523163","1","0","1","2","1,0.5,0.5,0.5,1,0.5,0.5,0.5,1","0.5,0.5,1,1,0.5,0.5,0.5,1,0.5","2","",""
"","html-keyboard-response","225","54024","0.0-225.0","3BDCF01OGYGL8I2IVG1AF4BJHRXLYZ","AXY0D2AMLKE2A","3BDORL6HKKZHMTYWD6BFF6WBDQ9CRF","","null","<img src=""img/land6.png"" style=""width:200px;border:14px solid red;"">","null","","","","","","","","","",""
"","image-keyboard-response","226","54334","0.0-226.0","3BDCF01OGYGL8I2IVG1AF4BJHRXLYZ","AXY0D2AMLKE2A","3BDORL6HKKZHMTYWD6BFF6WBDQ9CRF","","309.89999997615814","img/land2.png","76","310.39999997615814","3","0","2","2","1,0.5,0.5,0.5,1,0.5,0.5,0.5,1","0.5,0.5,1,1,0.5,0.5,0.5,1,0.5","2","",""
"","html-keyboard-response","227","54635","0.0-227.0","3BDCF01OGYGL8I2IVG1AF4BJHRXLYZ","AXY0D2AMLKE2A","3BDORL6HKKZHMTYWD6BFF6WBDQ9CRF","","null","<img src=""img/land2.png"" style=""width:200px;border:14px solid red;"">","null","","","","","","","","","",""
"","image-keyboard-response","228","54683","0.0-228.0","3BDCF01OGYGL8I2IVG1AF4BJHRXLYZ","AXY0D2AMLKE2A","3BDORL6HKKZHMTYWD6BFF6WBDQ9CRF","","47.09999990463257","img/land6.png","74","47.5","1","0","1","2","1,0.5,0.5,0.5,1,0.5,0.5,0.5,1","0.5,0.5,1,1,0.5,0.5,0.5,1,0.5","2","",""
"","html-keyboard-response","229","54984","0.0-229.0","3BDCF01OGYGL8I2IVG1AF4BJHRXLYZ","AXY0D2AMLKE2A","3BDORL6HKKZHMTYWD6BFF6WBDQ9CRF","","null","<img src=""img/land6.png"" style=""width:200px;border:14px solid red;"">","null","","","","","","","","","",""
"","image-keyboard-response","230","55047","0.0-230.0","3BDCF01OGYGL8I2IVG1AF4BJHRXLYZ","AXY0D2AMLKE2A","3BDORL6HKKZHMTYWD6BFF6WBDQ9CRF","","62.799999952316284","img/land6.png","76","63.199999928474426","3","1","1","2","1,0.5,0.5,0.5,1,0.5,0.5,0.5,1","0.5,0.5,1,1,0.5,0.5,0.5,1,0.5","2","",""
"","html-keyboard-response","231","55348","0.0-231.0","3BDCF01OGYGL8I2IVG1AF4BJHRXLYZ","AXY0D2AMLKE2A","3BDORL6HKKZHMTYWD6BFF6WBDQ9CRF","","null","<img src=""img/land6.png"" style=""width:200px; border:14px solid green;"">","null","","","","","","","","","",""
"","image-keyboard-response","232","55397","0.0-232.0","3BDCF01OGYGL8I2IVG1AF4BJHRXLYZ","AXY0D2AMLKE2A","3BDORL6HKKZHMTYWD6BFF6WBDQ9CRF","","48.799999952316284","img/land6.png","75","49.10000002384186","2","1","1","2","1,0.5,0.5,0.5,1,0.5,0.5,0.5,1","0.5,0.5,1,1,0.5,0.5,0.5,1,0.5","2","",""
"","html-keyboard-response","233","55698","0.0-233.0","3BDCF01OGYGL8I2IVG1AF4BJHRXLYZ","AXY0D2AMLKE2A","3BDORL6HKKZHMTYWD6BFF6WBDQ9CRF","","null","<img src=""img/land6.png"" style=""width:200px; border:14px solid green;"">","null","","","","","","","","","",""
"","image-keyboard-response","234","55760","0.0-234.0","3BDCF01OGYGL8I2IVG1AF4BJHRXLYZ","AXY0D2AMLKE2A","3BDORL6HKKZHMTYWD6BFF6WBDQ9CRF","","62","img/land6.png","76","62.39999997615814","3","1","1","2","1,0.5,0.5,0.5,1,0.5,0.5,0.5,1","0.5,0.5,1,1,0.5,0.5,0.5,1,0.5","2","",""
"","html-keyboard-response","235","56061","0.0-235.0","3BDCF01OGYGL8I2IVG1AF4BJHRXLYZ","AXY0D2AMLKE2A","3BDORL6HKKZHMTYWD6BFF6WBDQ9CRF","","null","<img src=""img/land6.png"" style=""width:200px; border:14px solid green;"">","null","","","","","","","","","",""
"","image-keyboard-response","236","56096","0.0-236.0","3BDCF01OGYGL8I2IVG1AF4BJHRXLYZ","AXY0D2AMLKE2A","3BDORL6HKKZHMTYWD6BFF6WBDQ9CRF","","34.09999990463257","img/land6.png","74","34.5","1","0","1","2","1,0.5,0.5,0.5,1,0.5,0.5,0.5,1","0.5,0.5,1,1,0.5,0.5,0.5,1,0.5","2","",""
"","html-keyboard-response","237","56397","0.0-237.0","3BDCF01OGYGL8I2IVG1AF4BJHRXLYZ","AXY0D2AMLKE2A","3BDORL6HKKZHMTYWD6BFF6WBDQ9CRF","","null","<img src=""img/land6.png"" style=""width:200px;border:14px solid red;"">","null","","","","","","","","","",""
"","image-keyboard-response","238","56445","0.0-238.0","3BDCF01OGYGL8I2IVG1AF4BJHRXLYZ","AXY0D2AMLKE2A","3BDORL6HKKZHMTYWD6BFF6WBDQ9CRF","","47.59999990463257","img/land2.png","76","48","3","1","2","2","1,0.5,0.5,0.5,1,0.5,0.5,0.5,1","0.5,0.5,1,1,0.5,0.5,0.5,1,0.5","2","",""
"","html-keyboard-response","239","56746","0.0-239.0","3BDCF01OGYGL8I2IVG1AF4BJHRXLYZ","AXY0D2AMLKE2A","3BDORL6HKKZHMTYWD6BFF6WBDQ9CRF","","null","<img src=""img/land2.png"" style=""width:200px; border:14px solid green;"">","null","","","","","","","","","",""
"","image-keyboard-response","240","56767","0.0-240.0","3BDCF01OGYGL8I2IVG1AF4BJHRXLYZ","AXY0D2AMLKE2A","3BDORL6HKKZHMTYWD6BFF6WBDQ9CRF","","20.199999928474426","img/land6.png","75","20.600000023841858","2","1","1","2","1,0.5,0.5,0.5,1,0.5,0.5,0.5,1","0.5,0.5,1,1,0.5,0.5,0.5,1,0.5","2","",""
"","html-keyboard-response","241","57069","0.0-241.0","3BDCF01OGYGL8I2IVG1AF4BJHRXLYZ","AXY0D2AMLKE2A","3BDORL6HKKZHMTYWD6BFF6WBDQ9CRF","","null","<img src=""img/land6.png"" style=""width:200px; border:14px solid green;"">","null","","","","","","","","","",""
"","image-keyboard-response","242","57089","0.0-242.0","3BDCF01OGYGL8I2IVG1AF4BJHRXLYZ","AXY0D2AMLKE2A","3BDORL6HKKZHMTYWD6BFF6WBDQ9CRF","","20","img/land6.png","76","20.299999952316284","3","1","1","2","1,0.5,0.5,0.5,1,0.5,0.5,0.5,1","0.5,0.5,1,1,0.5,0.5,0.5,1,0.5","2","",""
"","html-keyboard-response","243","57389","0.0-243.0","3BDCF01OGYGL8I2IVG1AF4BJHRXLYZ","AXY0D2AMLKE2A","3BDORL6HKKZHMTYWD6BFF6WBDQ9CRF","","null","<img src=""img/land6.png"" style=""width:200px; border:14px solid green;"">","null","","","","","","","","","",""
"","image-keyboard-response","244","57425","0.0-244.0","3BDCF01OGYGL8I2IVG1AF4BJHRXLYZ","AXY0D2AMLKE2A","3BDORL6HKKZHMTYWD6BFF6WBDQ9CRF","","35.10000002384186","img/land6.png","74","35.5","1","1","1","2","1,0.5,0.5,0.5,1,0.5,0.5,0.5,1","0.5,0.5,1,1,0.5,0.5,0.5,1,0.5","2","",""
"","html-keyboard-response","245","57726","0.0-245.0","3BDCF01OGYGL8I2IVG1AF4BJHRXLYZ","AXY0D2AMLKE2A","3BDORL6HKKZHMTYWD6BFF6WBDQ9CRF","","null","<img src=""img/land6.png"" style=""width:200px; border:14px solid green;"">","null","","","","","","","","","",""
"","image-keyboard-response","246","57755","0.0-246.0","3BDCF01OGYGL8I2IVG1AF4BJHRXLYZ","AXY0D2AMLKE2A","3BDORL6HKKZHMTYWD6BFF6WBDQ9CRF","","28.700000047683716","img/land2.png","76","29","3","0","2","2","1,0.5,0.5,0.5,1,0.5,0.5,0.5,1","0.5,0.5,1,1,0.5,0.5,0.5,1,0.5","2","",""
"","html-keyboard-response","247","58056","0.0-247.0","3BDCF01OGYGL8I2IVG1AF4BJHRXLYZ","AXY0D2AMLKE2A","3BDORL6HKKZHMTYWD6BFF6WBDQ9CRF","","null","<img src=""img/land2.png"" style=""width:200px;border:14px solid red;"">","null","","","","","","","","","",""
"","image-keyboard-response","248","58104","0.0-248.0","3BDCF01OGYGL8I2IVG1AF4BJHRXLYZ","AXY0D2AMLKE2A","3BDORL6HKKZHMTYWD6BFF6WBDQ9CRF","","47.299999952316284","img/land2.png","75","47.700000047683716","2","0","2","2","1,0.5,0.5,0.5,1,0.5,0.5,0.5,1","0.5,0.5,1,1,0.5,0.5,0.5,1,0.5","2","",""
"","html-keyboard-response","249","58405","0.0-249.0","3BDCF01OGYGL8I2IVG1AF4BJHRXLYZ","AXY0D2AMLKE2A","3BDORL6HKKZHMTYWD6BFF6WBDQ9CRF","","null","<img src=""img/land2.png"" style=""width:200px;border:14px solid red;"">","null","","","","","","","","","",""
"","image-keyboard-response","250","58454","0.0-250.0","3BDCF01OGYGL8I2IVG1AF4BJHRXLYZ","AXY0D2AMLKE2A","3BDORL6HKKZHMTYWD6BFF6WBDQ9CRF","","49.200000047683716","img/land5.png","76","49.5","3","0","3","2","1,0.5,0.5,0.5,1,0.5,0.5,0.5,1","0.5,0.5,1,1,0.5,0.5,0.5,1,0.5","2","",""
"","html-keyboard-response","251","58756","0.0-251.0","3BDCF01OGYGL8I2IVG1AF4BJHRXLYZ","AXY0D2AMLKE2A","3BDORL6HKKZHMTYWD6BFF6WBDQ9CRF","","null","<img src=""img/land5.png"" style=""width:200px;border:14px solid red;"">","null","","","","","","","","","",""
"","image-keyboard-response","252","58790","0.0-252.0","3BDCF01OGYGL8I2IVG1AF4BJHRXLYZ","AXY0D2AMLKE2A","3BDORL6HKKZHMTYWD6BFF6WBDQ9CRF","","33.5","img/land2.png","74","33.89999997615814","1","1","2","2","1,0.5,0.5,0.5,1,0.5,0.5,0.5,1","0.5,0.5,1,1,0.5,0.5,0.5,1,0.5","2","",""
"","html-keyboard-response","253","59092","0.0-253.0","3BDCF01OGYGL8I2IVG1AF4BJHRXLYZ","AXY0D2AMLKE2A","3BDORL6HKKZHMTYWD6BFF6WBDQ9CRF","","null","<img src=""img/land2.png"" style=""width:200px; border:14px solid green;"">","null","","","","","","","","","",""
"","image-keyboard-response","254","59153","0.0-254.0","3BDCF01OGYGL8I2IVG1AF4BJHRXLYZ","AXY0D2AMLKE2A","3BDORL6HKKZHMTYWD6BFF6WBDQ9CRF","","60.799999952316284","img/land2.png","76","61.200000047683716","3","0","2","2","1,0.5,0.5,0.5,1,0.5,0.5,0.5,1","0.5,0.5,1,1,0.5,0.5,0.5,1,0.5","2","",""
"","html-keyboard-response","255","59454","0.0-255.0","3BDCF01OGYGL8I2IVG1AF4BJHRXLYZ","AXY0D2AMLKE2A","3BDORL6HKKZHMTYWD6BFF6WBDQ9CRF","","null","<img src=""img/land2.png"" style=""width:200px;border:14px solid red;"">","null","","","","","","","","","",""
"","image-keyboard-response","256","59503","0.0-256.0","3BDCF01OGYGL8I2IVG1AF4BJHRXLYZ","AXY0D2AMLKE2A","3BDORL6HKKZHMTYWD6BFF6WBDQ9CRF","","49.10000002384186","img/land6.png","74","49.5","1","1","1","2","1,0.5,0.5,0.5,1,0.5,0.5,0.5,1","0.5,0.5,1,1,0.5,0.5,0.5,1,0.5","2","",""
"","html-keyboard-response","257","59804","0.0-257.0","3BDCF01OGYGL8I2IVG1AF4BJHRXLYZ","AXY0D2AMLKE2A","3BDORL6HKKZHMTYWD6BFF6WBDQ9CRF","","null","<img src=""img/land6.png"" style=""width:200px; border:14px solid green;"">","null","","","","","","","","","",""
"","image-keyboard-response","258","59839","0.0-258.0","3BDCF01OGYGL8I2IVG1AF4BJHRXLYZ","AXY0D2AMLKE2A","3BDORL6HKKZHMTYWD6BFF6WBDQ9CRF","","34.799999952316284","img/land6.png","76","35.300000071525574","3","1","1","2","1,0.5,0.5,0.5,1,0.5,0.5,0.5,1","0.5,0.5,1,1,0.5,0.5,0.5,1,0.5","2","",""
"","html-keyboard-response","259","60140","0.0-259.0","3BDCF01OGYGL8I2IVG1AF4BJHRXLYZ","AXY0D2AMLKE2A","3BDORL6HKKZHMTYWD6BFF6WBDQ9CRF","","null","<img src=""img/land6.png"" style=""width:200px; border:14px solid green;"">","null","","","","","","","","","",""
"","image-keyboard-response","260","60189","0.0-260.0","3BDCF01OGYGL8I2IVG1AF4BJHRXLYZ","AXY0D2AMLKE2A","3BDORL6HKKZHMTYWD6BFF6WBDQ9CRF","","48.799999952316284","img/land6.png","75","49.300000071525574","2","0","1","2","1,0.5,0.5,0.5,1,0.5,0.5,0.5,1","0.5,0.5,1,1,0.5,0.5,0.5,1,0.5","2","",""
"","html-keyboard-response","261","60490","0.0-261.0","3BDCF01OGYGL8I2IVG1AF4BJHRXLYZ","AXY0D2AMLKE2A","3BDORL6HKKZHMTYWD6BFF6WBDQ9CRF","","null","<img src=""img/land6.png"" style=""width:200px;border:14px solid red;"">","null","","","","","","","","","",""
"","image-keyboard-response","262","60524","0.0-262.0","3BDCF01OGYGL8I2IVG1AF4BJHRXLYZ","AXY0D2AMLKE2A","3BDORL6HKKZHMTYWD6BFF6WBDQ9CRF","","33.700000047683716","img/land2.png","76","33.89999997615814","3","1","2","2","1,0.5,0.5,0.5,1,0.5,0.5,0.5,1","0.5,0.5,1,1,0.5,0.5,0.5,1,0.5","2","",""
"","html-keyboard-response","263","60831","0.0-263.0","3BDCF01OGYGL8I2IVG1AF4BJHRXLYZ","AXY0D2AMLKE2A","3BDORL6HKKZHMTYWD6BFF6WBDQ9CRF","","null","<img src=""img/land2.png"" style=""width:200px; border:14px solid green;"">","null","","","","","","","","","",""
"","image-keyboard-response","264","60860","0.0-264.0","3BDCF01OGYGL8I2IVG1AF4BJHRXLYZ","AXY0D2AMLKE2A","3BDORL6HKKZHMTYWD6BFF6WBDQ9CRF","","28.799999952316284","img/land5.png","74","29.199999928474426","1","0","3","2","1,0.5,0.5,0.5,1,0.5,0.5,0.5,1","0.5,0.5,1,1,0.5,0.5,0.5,1,0.5","2","",""
"","html-keyboard-response","265","61162","0.0-265.0","3BDCF01OGYGL8I2IVG1AF4BJHRXLYZ","AXY0D2AMLKE2A","3BDORL6HKKZHMTYWD6BFF6WBDQ9CRF","","null","<img src=""img/land5.png"" style=""width:200px;border:14px solid red;"">","null","","","","","","","","","",""
"","image-keyboard-response","266","61182","0.0-266.0","3BDCF01OGYGL8I2IVG1AF4BJHRXLYZ","AXY0D2AMLKE2A","3BDORL6HKKZHMTYWD6BFF6WBDQ9CRF","","20","img/land6.png","76","20.600000023841858","3","1","1","2","1,0.5,0.5,0.5,1,0.5,0.5,0.5,1","0.5,0.5,1,1,0.5,0.5,0.5,1,0.5","2","",""
"","html-keyboard-response","267","61484","0.0-267.0","3BDCF01OGYGL8I2IVG1AF4BJHRXLYZ","AXY0D2AMLKE2A","3BDORL6HKKZHMTYWD6BFF6WBDQ9CRF","","null","<img src=""img/land6.png"" style=""width:200px; border:14px solid green;"">","null","","","","","","","","","",""
"","image-keyboard-response","268","61525","0.0-268.0","3BDCF01OGYGL8I2IVG1AF4BJHRXLYZ","AXY0D2AMLKE2A","3BDORL6HKKZHMTYWD6BFF6WBDQ9CRF","","40.699999928474426","img/land6.png","74","41.200000047683716","1","1","1","2","1,0.5,0.5,0.5,1,0.5,0.5,0.5,1","0.5,0.5,1,1,0.5,0.5,0.5,1,0.5","2","",""
"","html-keyboard-response","269","61826","0.0-269.0","3BDCF01OGYGL8I2IVG1AF4BJHRXLYZ","AXY0D2AMLKE2A","3BDORL6HKKZHMTYWD6BFF6WBDQ9CRF","","null","<img src=""img/land6.png"" style=""width:200px; border:14px solid green;"">","null","","","","","","","","","",""
"","image-keyboard-response","270","61834","0.0-270.0","3BDCF01OGYGL8I2IVG1AF4BJHRXLYZ","AXY0D2AMLKE2A","3BDORL6HKKZHMTYWD6BFF6WBDQ9CRF","","7.299999952316284","img/land6.png","76","7.600000023841858","3","1","1","2","1,0.5,0.5,0.5,1,0.5,0.5,0.5,1","0.5,0.5,1,1,0.5,0.5,0.5,1,0.5","2","",""
"","html-keyboard-response","271","62135","0.0-271.0","3BDCF01OGYGL8I2IVG1AF4BJHRXLYZ","AXY0D2AMLKE2A","3BDORL6HKKZHMTYWD6BFF6WBDQ9CRF","","null","<img src=""img/land6.png"" style=""width:200px; border:14px solid green;"">","null","","","","","","","","","",""
"","image-keyboard-response","272","62170","0.0-272.0","3BDCF01OGYGL8I2IVG1AF4BJHRXLYZ","AXY0D2AMLKE2A","3BDORL6HKKZHMTYWD6BFF6WBDQ9CRF","","35.199999928474426","img/land5.png","74","35.5","1","1","3","2","1,0.5,0.5,0.5,1,0.5,0.5,0.5,1","0.5,0.5,1,1,0.5,0.5,0.5,1,0.5","2","",""
"","html-keyboard-response","273","62471","0.0-273.0","3BDCF01OGYGL8I2IVG1AF4BJHRXLYZ","AXY0D2AMLKE2A","3BDORL6HKKZHMTYWD6BFF6WBDQ9CRF","","null","<img src=""img/land5.png"" style=""width:200px; border:14px solid green;"">","null","","","","","","","","","",""
"","image-keyboard-response","274","62499","0.0-274.0","3BDCF01OGYGL8I2IVG1AF4BJHRXLYZ","AXY0D2AMLKE2A","3BDORL6HKKZHMTYWD6BFF6WBDQ9CRF","","27.899999976158142","img/land5.png","76","28.100000023841858","3","0","3","2","1,0.5,0.5,0.5,1,0.5,0.5,0.5,1","0.5,0.5,1,1,0.5,0.5,0.5,1,0.5","2","",""
"","html-keyboard-response","275","62800","0.0-275.0","3BDCF01OGYGL8I2IVG1AF4BJHRXLYZ","AXY0D2AMLKE2A","3BDORL6HKKZHMTYWD6BFF6WBDQ9CRF","","null","<img src=""img/land5.png"" style=""width:200px;border:14px solid red;"">","null","","","","","","","","","",""
"","image-keyboard-response","276","62848","0.0-276.0","3BDCF01OGYGL8I2IVG1AF4BJHRXLYZ","AXY0D2AMLKE2A","3BDORL6HKKZHMTYWD6BFF6WBDQ9CRF","","47.89999997615814","img/land6.png","75","49.199999928474426","2","0","1","2","1,0.5,0.5,0.5,1,0.5,0.5,0.5,1","0.5,0.5,1,1,0.5,0.5,0.5,1,0.5","2","",""
"","html-keyboard-response","277","63151","0.0-277.0","3BDCF01OGYGL8I2IVG1AF4BJHRXLYZ","AXY0D2AMLKE2A","3BDORL6HKKZHMTYWD6BFF6WBDQ9CRF","","null","<img src=""img/land6.png"" style=""width:200px;border:14px solid red;"">","null","","","","","","","","","",""
"","image-keyboard-response","278","63164","0.0-278.0","3BDCF01OGYGL8I2IVG1AF4BJHRXLYZ","AXY0D2AMLKE2A","3BDORL6HKKZHMTYWD6BFF6WBDQ9CRF","","12.899999976158142","img/land2.png","76","13.199999928474426","3","0","2","2","1,0.5,0.5,0.5,1,0.5,0.5,0.5,1","0.5,0.5,1,1,0.5,0.5,0.5,1,0.5","2","",""
"","html-keyboard-response","279","63465","0.0-279.0","3BDCF01OGYGL8I2IVG1AF4BJHRXLYZ","AXY0D2AMLKE2A","3BDORL6HKKZHMTYWD6BFF6WBDQ9CRF","","null","<img src=""img/land2.png"" style=""width:200px;border:14px solid red;"">","null","","","","","","","","","",""
"","image-keyboard-response","280","63555","0.0-280.0","3BDCF01OGYGL8I2IVG1AF4BJHRXLYZ","AXY0D2AMLKE2A","3BDORL6HKKZHMTYWD6BFF6WBDQ9CRF","","90.10000002384186","img/land5.png","75","90.39999997615814","2","1","3","2","1,0.5,0.5,0.5,1,0.5,0.5,0.5,1","0.5,0.5,1,1,0.5,0.5,0.5,1,0.5","2","",""
"","html-keyboard-response","281","63856","0.0-281.0","3BDCF01OGYGL8I2IVG1AF4BJHRXLYZ","AXY0D2AMLKE2A","3BDORL6HKKZHMTYWD6BFF6WBDQ9CRF","","null","<img src=""img/land5.png"" style=""width:200px; border:14px solid green;"">","null","","","","","","","","","",""
"","image-keyboard-response","282","63870","0.0-282.0","3BDCF01OGYGL8I2IVG1AF4BJHRXLYZ","AXY0D2AMLKE2A","3BDORL6HKKZHMTYWD6BFF6WBDQ9CRF","","14.099999904632568","img/land2.png","76","14.299999952316284","3","1","2","2","1,0.5,0.5,0.5,1,0.5,0.5,0.5,1","0.5,0.5,1,1,0.5,0.5,0.5,1,0.5","2","",""
"","html-keyboard-response","283","64172","0.0-283.0","3BDCF01OGYGL8I2IVG1AF4BJHRXLYZ","AXY0D2AMLKE2A","3BDORL6HKKZHMTYWD6BFF6WBDQ9CRF","","null","<img src=""img/land2.png"" style=""width:200px; border:14px solid green;"">","null","","","","","","","","","",""
"","image-keyboard-response","284","64179","0.0-284.0","3BDCF01OGYGL8I2IVG1AF4BJHRXLYZ","AXY0D2AMLKE2A","3BDORL6HKKZHMTYWD6BFF6WBDQ9CRF","","7","img/land6.png","74","7.5","1","0","1","2","1,0.5,0.5,0.5,1,0.5,0.5,0.5,1","0.5,0.5,1,1,0.5,0.5,0.5,1,0.5","2","",""
"","html-keyboard-response","285","64480","0.0-285.0","3BDCF01OGYGL8I2IVG1AF4BJHRXLYZ","AXY0D2AMLKE2A","3BDORL6HKKZHMTYWD6BFF6WBDQ9CRF","","null","<img src=""img/land6.png"" style=""width:200px;border:14px solid red;"">","null","","","","","","","","","",""
"","image-keyboard-response","286","64521","0.0-286.0","3BDCF01OGYGL8I2IVG1AF4BJHRXLYZ","AXY0D2AMLKE2A","3BDORL6HKKZHMTYWD6BFF6WBDQ9CRF","","40.89999997615814","img/land2.png","76","41.40000009536743","3","0","2","2","1,0.5,0.5,0.5,1,0.5,0.5,0.5,1","0.5,0.5,1,1,0.5,0.5,0.5,1,0.5","2","",""
"","html-keyboard-response","287","64822","0.0-287.0","3BDCF01OGYGL8I2IVG1AF4BJHRXLYZ","AXY0D2AMLKE2A","3BDORL6HKKZHMTYWD6BFF6WBDQ9CRF","","null","<img src=""img/land2.png"" style=""width:200px;border:14px solid red;"">","null","","","","","","","","","",""
"","image-keyboard-response","288","64878","0.0-288.0","3BDCF01OGYGL8I2IVG1AF4BJHRXLYZ","AXY0D2AMLKE2A","3BDORL6HKKZHMTYWD6BFF6WBDQ9CRF","","55.39999997615814","img/land5.png","74","55.800000071525574","1","0","3","2","1,0.5,0.5,0.5,1,0.5,0.5,0.5,1","0.5,0.5,1,1,0.5,0.5,0.5,1,0.5","2","",""
"","html-keyboard-response","289","65180","0.0-289.0","3BDCF01OGYGL8I2IVG1AF4BJHRXLYZ","AXY0D2AMLKE2A","3BDORL6HKKZHMTYWD6BFF6WBDQ9CRF","","null","<img src=""img/land5.png"" style=""width:200px;border:14px solid red;"">","null","","","","","","","","","",""
"","image-keyboard-response","290","65200","0.0-290.0","3BDCF01OGYGL8I2IVG1AF4BJHRXLYZ","AXY0D2AMLKE2A","3BDORL6HKKZHMTYWD6BFF6WBDQ9CRF","","19.899999976158142","img/land6.png","76","20.300000071525574","3","1","1","2","1,0.5,0.5,0.5,1,0.5,0.5,0.5,1","0.5,0.5,1,1,0.5,0.5,0.5,1,0.5","2","",""
"","html-keyboard-response","291","65502","0.0-291.0","3BDCF01OGYGL8I2IVG1AF4BJHRXLYZ","AXY0D2AMLKE2A","3BDORL6HKKZHMTYWD6BFF6WBDQ9CRF","","null","<img src=""img/land6.png"" style=""width:200px; border:14px solid green;"">","null","","","","","","","","","",""
"","image-keyboard-response","292","65543","0.0-292.0","3BDCF01OGYGL8I2IVG1AF4BJHRXLYZ","AXY0D2AMLKE2A","3BDORL6HKKZHMTYWD6BFF6WBDQ9CRF","","41.200000047683716","img/land2.png","75","41.60000002384186","2","0","2","2","1,0.5,0.5,0.5,1,0.5,0.5,0.5,1","0.5,0.5,1,1,0.5,0.5,0.5,1,0.5","2","",""
"","html-keyboard-response","293","65845","0.0-293.0","3BDCF01OGYGL8I2IVG1AF4BJHRXLYZ","AXY0D2AMLKE2A","3BDORL6HKKZHMTYWD6BFF6WBDQ9CRF","","null","<img src=""img/land2.png"" style=""width:200px;border:14px solid red;"">","null","","","","","","","","","",""
"","image-keyboard-response","294","65872","0.0-294.0","3BDCF01OGYGL8I2IVG1AF4BJHRXLYZ","AXY0D2AMLKE2A","3BDORL6HKKZHMTYWD6BFF6WBDQ9CRF","","26.600000023841858","img/land5.png","76","27.100000023841858","3","1","3","2","1,0.5,0.5,0.5,1,0.5,0.5,0.5,1","0.5,0.5,1,1,0.5,0.5,0.5,1,0.5","2","",""
"","html-keyboard-response","295","66173","0.0-295.0","3BDCF01OGYGL8I2IVG1AF4BJHRXLYZ","AXY0D2AMLKE2A","3BDORL6HKKZHMTYWD6BFF6WBDQ9CRF","","null","<img src=""img/land5.png"" style=""width:200px; border:14px solid green;"">","null","","","","","","","","","",""
"","image-keyboard-response","296","66194","0.0-296.0","3BDCF01OGYGL8I2IVG1AF4BJHRXLYZ","AXY0D2AMLKE2A","3BDORL6HKKZHMTYWD6BFF6WBDQ9CRF","","20.799999952316284","img/land6.png","74","21.200000047683716","1","0","1","2","1,0.5,0.5,0.5,1,0.5,0.5,0.5,1","0.5,0.5,1,1,0.5,0.5,0.5,1,0.5","2","",""
"","html-keyboard-response","297","66496","0.0-297.0","3BDCF01OGYGL8I2IVG1AF4BJHRXLYZ","AXY0D2AMLKE2A","3BDORL6HKKZHMTYWD6BFF6WBDQ9CRF","","null","<img src=""img/land6.png"" style=""width:200px;border:14px solid red;"">","null","","","","","","","","","",""
"","image-keyboard-response","298","66550","0.0-298.0","3BDCF01OGYGL8I2IVG1AF4BJHRXLYZ","AXY0D2AMLKE2A","3BDORL6HKKZHMTYWD6BFF6WBDQ9CRF","","54","img/land6.png","76","54.60000002384186","3","1","1","2","1,0.5,0.5,0.5,1,0.5,0.5,0.5,1","0.5,0.5,1,1,0.5,0.5,0.5,1,0.5","2","",""
"","html-keyboard-response","299","66851","0.0-299.0","3BDCF01OGYGL8I2IVG1AF4BJHRXLYZ","AXY0D2AMLKE2A","3BDORL6HKKZHMTYWD6BFF6WBDQ9CRF","","null","<img src=""img/land6.png"" style=""width:200px; border:14px solid green;"">","null","","","","","","","","","",""
"","image-keyboard-response","300","66886","0.0-300.0","3BDCF01OGYGL8I2IVG1AF4BJHRXLYZ","AXY0D2AMLKE2A","3BDORL6HKKZHMTYWD6BFF6WBDQ9CRF","","34.89999997615814","img/land6.png","75","35.39999997615814","2","0","1","2","1,0.5,0.5,0.5,1,0.5,0.5,0.5,1","0.5,0.5,1,1,0.5,0.5,0.5,1,0.5","2","",""
"","html-keyboard-response","301","67187","0.0-301.0","3BDCF01OGYGL8I2IVG1AF4BJHRXLYZ","AXY0D2AMLKE2A","3BDORL6HKKZHMTYWD6BFF6WBDQ9CRF","","null","<img src=""img/land6.png"" style=""width:200px;border:14px solid red;"">","null","","","","","","","","","",""
"","image-keyboard-response","302","67222","0.0-302.0","3BDCF01OGYGL8I2IVG1AF4BJHRXLYZ","AXY0D2AMLKE2A","3BDORL6HKKZHMTYWD6BFF6WBDQ9CRF","","35.200000047683716","img/land4.png","76","35.59999990463257","3","0","2","1","1,0.5,0.5,0.5,1,0.5,0.5,0.5,1","1,0.5,0.5,0.5,1,0.5,0.5,0.5,1","1","",""
"","html-keyboard-response","303","67534","0.0-303.0","3BDCF01OGYGL8I2IVG1AF4BJHRXLYZ","AXY0D2AMLKE2A","3BDORL6HKKZHMTYWD6BFF6WBDQ9CRF","","null","<img src=""img/land4.png"" style=""width:200px;border:14px solid red;"">","null","","","","","","","","","",""
"","image-keyboard-response","304","67552","0.0-304.0","3BDCF01OGYGL8I2IVG1AF4BJHRXLYZ","AXY0D2AMLKE2A","3BDORL6HKKZHMTYWD6BFF6WBDQ9CRF","","17.899999976158142","img/land1.png","74","18.5","1","0","3","1","1,0.5,0.5,0.5,1,0.5,0.5,0.5,1","1,0.5,0.5,0.5,1,0.5,0.5,0.5,1","1","",""
"","html-keyboard-response","305","67855","0.0-305.0","3BDCF01OGYGL8I2IVG1AF4BJHRXLYZ","AXY0D2AMLKE2A","3BDORL6HKKZHMTYWD6BFF6WBDQ9CRF","","null","<img src=""img/land1.png"" style=""width:200px;border:14px solid red;"">","null","","","","","","","","","",""
"","image-keyboard-response","306","67888","0.0-306.0","3BDCF01OGYGL8I2IVG1AF4BJHRXLYZ","AXY0D2AMLKE2A","3BDORL6HKKZHMTYWD6BFF6WBDQ9CRF","","33","img/land1.png","76","33.39999997615814","3","1","3","1","1,0.5,0.5,0.5,1,0.5,0.5,0.5,1","1,0.5,0.5,0.5,1,0.5,0.5,0.5,1","1","",""
"","html-keyboard-response","307","68189","0.0-307.0","3BDCF01OGYGL8I2IVG1AF4BJHRXLYZ","AXY0D2AMLKE2A","3BDORL6HKKZHMTYWD6BFF6WBDQ9CRF","","null","<img src=""img/land1.png"" style=""width:200px; border:14px solid green;"">","null","","","","","","","","","",""
"","image-keyboard-response","308","68245","0.0-308.0","3BDCF01OGYGL8I2IVG1AF4BJHRXLYZ","AXY0D2AMLKE2A","3BDORL6HKKZHMTYWD6BFF6WBDQ9CRF","","54.89999997615814","img/land1.png","74","55.299999952316284","1","1","3","1","1,0.5,0.5,0.5,1,0.5,0.5,0.5,1","1,0.5,0.5,0.5,1,0.5,0.5,0.5,1","1","",""
"","html-keyboard-response","309","68545","0.0-309.0","3BDCF01OGYGL8I2IVG1AF4BJHRXLYZ","AXY0D2AMLKE2A","3BDORL6HKKZHMTYWD6BFF6WBDQ9CRF","","null","<img src=""img/land1.png"" style=""width:200px; border:14px solid green;"">","null","","","","","","","","","",""
"","image-keyboard-response","310","68581","0.0-310.0","3BDCF01OGYGL8I2IVG1AF4BJHRXLYZ","AXY0D2AMLKE2A","3BDORL6HKKZHMTYWD6BFF6WBDQ9CRF","","35","img/land3.png","76","35.39999997615814","3","1","1","1","1,0.5,0.5,0.5,1,0.5,0.5,0.5,1","1,0.5,0.5,0.5,1,0.5,0.5,0.5,1","1","",""
"","html-keyboard-response","311","68882","0.0-311.0","3BDCF01OGYGL8I2IVG1AF4BJHRXLYZ","AXY0D2AMLKE2A","3BDORL6HKKZHMTYWD6BFF6WBDQ9CRF","","null","<img src=""img/land3.png"" style=""width:200px; border:14px solid green;"">","null","","","","","","","","","",""
"","image-keyboard-response","312","68902","0.0-312.0","3BDCF01OGYGL8I2IVG1AF4BJHRXLYZ","AXY0D2AMLKE2A","3BDORL6HKKZHMTYWD6BFF6WBDQ9CRF","","20.200000047683716","img/land4.png","75","20.600000023841858","2","1","2","1","1,0.5,0.5,0.5,1,0.5,0.5,0.5,1","1,0.5,0.5,0.5,1,0.5,0.5,0.5,1","1","",""
"","html-keyboard-response","313","69203","0.0-313.0","3BDCF01OGYGL8I2IVG1AF4BJHRXLYZ","AXY0D2AMLKE2A","3BDORL6HKKZHMTYWD6BFF6WBDQ9CRF","","null","<img src=""img/land4.png"" style=""width:200px; border:14px solid green;"">","null","","","","","","","","","",""
"","image-keyboard-response","314","69259","0.0-314.0","3BDCF01OGYGL8I2IVG1AF4BJHRXLYZ","AXY0D2AMLKE2A","3BDORL6HKKZHMTYWD6BFF6WBDQ9CRF","","56","img/land4.png","76","56.5","3","0","2","1","1,0.5,0.5,0.5,1,0.5,0.5,0.5,1","1,0.5,0.5,0.5,1,0.5,0.5,0.5,1","1","",""
"","html-keyboard-response","315","69560","0.0-315.0","3BDCF01OGYGL8I2IVG1AF4BJHRXLYZ","AXY0D2AMLKE2A","3BDORL6HKKZHMTYWD6BFF6WBDQ9CRF","","null","<img src=""img/land4.png"" style=""width:200px;border:14px solid red;"">","null","","","","","","","","","",""
"","image-keyboard-response","316","69581","0.0-316.0","3BDCF01OGYGL8I2IVG1AF4BJHRXLYZ","AXY0D2AMLKE2A","3BDORL6HKKZHMTYWD6BFF6WBDQ9CRF","","21","img/land3.png","75","21.40000009536743","2","1","1","1","1,0.5,0.5,0.5,1,0.5,0.5,0.5,1","1,0.5,0.5,0.5,1,0.5,0.5,0.5,1","1","",""
"","html-keyboard-response","317","69882","0.0-317.0","3BDCF01OGYGL8I2IVG1AF4BJHRXLYZ","AXY0D2AMLKE2A","3BDORL6HKKZHMTYWD6BFF6WBDQ9CRF","","null","<img src=""img/land3.png"" style=""width:200px; border:14px solid green;"">","null","","","","","","","","","",""
"","image-keyboard-response","318","69917","0.0-318.0","3BDCF01OGYGL8I2IVG1AF4BJHRXLYZ","AXY0D2AMLKE2A","3BDORL6HKKZHMTYWD6BFF6WBDQ9CRF","","34.700000047683716","img/land3.png","76","35.10000002384186","3","1","1","1","1,0.5,0.5,0.5,1,0.5,0.5,0.5,1","1,0.5,0.5,0.5,1,0.5,0.5,0.5,1","1","",""
"","html-keyboard-response","319","70218","0.0-319.0","3BDCF01OGYGL8I2IVG1AF4BJHRXLYZ","AXY0D2AMLKE2A","3BDORL6HKKZHMTYWD6BFF6WBDQ9CRF","","null","<img src=""img/land3.png"" style=""width:200px; border:14px solid green;"">","null","","","","","","","","","",""
"","image-keyboard-response","320","70247","0.0-320.0","3BDCF01OGYGL8I2IVG1AF4BJHRXLYZ","AXY0D2AMLKE2A","3BDORL6HKKZHMTYWD6BFF6WBDQ9CRF","","27.299999952316284","img/land1.png","75","27.699999928474426","2","0","3","1","1,0.5,0.5,0.5,1,0.5,0.5,0.5,1","1,0.5,0.5,0.5,1,0.5,0.5,0.5,1","1","",""
"","html-keyboard-response","321","70548","0.0-321.0","3BDCF01OGYGL8I2IVG1AF4BJHRXLYZ","AXY0D2AMLKE2A","3BDORL6HKKZHMTYWD6BFF6WBDQ9CRF","","null","<img src=""img/land1.png"" style=""width:200px;border:14px solid red;"">","null","","","","","","","","","",""
"","image-keyboard-response","322","70575","0.0-322.0","3BDCF01OGYGL8I2IVG1AF4BJHRXLYZ","AXY0D2AMLKE2A","3BDORL6HKKZHMTYWD6BFF6WBDQ9CRF","","27.100000023841858","img/land1.png","75","27.5","2","1","3","1","1,0.5,0.5,0.5,1,0.5,0.5,0.5,1","1,0.5,0.5,0.5,1,0.5,0.5,0.5,1","1","",""
"","html-keyboard-response","323","70876","0.0-323.0","3BDCF01OGYGL8I2IVG1AF4BJHRXLYZ","AXY0D2AMLKE2A","3BDORL6HKKZHMTYWD6BFF6WBDQ9CRF","","null","<img src=""img/land1.png"" style=""width:200px; border:14px solid green;"">","null","","","","","","","","","",""
"","image-keyboard-response","324","70890","0.0-324.0","3BDCF01OGYGL8I2IVG1AF4BJHRXLYZ","AXY0D2AMLKE2A","3BDORL6HKKZHMTYWD6BFF6WBDQ9CRF","","13.899999976158142","img/land4.png","74","14.5","1","1","2","1","1,0.5,0.5,0.5,1,0.5,0.5,0.5,1","1,0.5,0.5,0.5,1,0.5,0.5,0.5,1","1","",""
"","html-keyboard-response","325","71191","0.0-325.0","3BDCF01OGYGL8I2IVG1AF4BJHRXLYZ","AXY0D2AMLKE2A","3BDORL6HKKZHMTYWD6BFF6WBDQ9CRF","","null","<img src=""img/land4.png"" style=""width:200px; border:14px solid green;"">","null","","","","","","","","","",""
"","image-keyboard-response","326","71213","0.0-326.0","3BDCF01OGYGL8I2IVG1AF4BJHRXLYZ","AXY0D2AMLKE2A","3BDORL6HKKZHMTYWD6BFF6WBDQ9CRF","","21.90000009536743","img/land3.png","76","22.399999976158142","3","1","1","1","1,0.5,0.5,0.5,1,0.5,0.5,0.5,1","1,0.5,0.5,0.5,1,0.5,0.5,0.5,1","1","",""
"","html-keyboard-response","327","71514","0.0-327.0","3BDCF01OGYGL8I2IVG1AF4BJHRXLYZ","AXY0D2AMLKE2A","3BDORL6HKKZHMTYWD6BFF6WBDQ9CRF","","null","<img src=""img/land3.png"" style=""width:200px; border:14px solid green;"">","null","","","","","","","","","",""
"","image-keyboard-response","328","71542","0.0-328.0","3BDCF01OGYGL8I2IVG1AF4BJHRXLYZ","AXY0D2AMLKE2A","3BDORL6HKKZHMTYWD6BFF6WBDQ9CRF","","27.800000071525574","img/land4.png","74","28.300000071525574","1","1","2","1","1,0.5,0.5,0.5,1,0.5,0.5,0.5,1","1,0.5,0.5,0.5,1,0.5,0.5,0.5,1","1","",""
"","html-keyboard-response","329","71844","0.0-329.0","3BDCF01OGYGL8I2IVG1AF4BJHRXLYZ","AXY0D2AMLKE2A","3BDORL6HKKZHMTYWD6BFF6WBDQ9CRF","","null","<img src=""img/land4.png"" style=""width:200px; border:14px solid green;"">","null","","","","","","","","","",""
"","image-keyboard-response","330","71864","0.0-330.0","3BDCF01OGYGL8I2IVG1AF4BJHRXLYZ","AXY0D2AMLKE2A","3BDORL6HKKZHMTYWD6BFF6WBDQ9CRF","","20.399999976158142","img/land1.png","75","20.899999976158142","2","1","3","1","1,0.5,0.5,0.5,1,0.5,0.5,0.5,1","1,0.5,0.5,0.5,1,0.5,0.5,0.5,1","1","",""
"","html-keyboard-response","331","72165","0.0-331.0","3BDCF01OGYGL8I2IVG1AF4BJHRXLYZ","AXY0D2AMLKE2A","3BDORL6HKKZHMTYWD6BFF6WBDQ9CRF","","null","<img src=""img/land1.png"" style=""width:200px; border:14px solid green;"">","null","","","","","","","","","",""
"","image-keyboard-response","332","72207","0.0-332.0","3BDCF01OGYGL8I2IVG1AF4BJHRXLYZ","AXY0D2AMLKE2A","3BDORL6HKKZHMTYWD6BFF6WBDQ9CRF","","42","img/land1.png","74","42.40000009536743","1","0","3","1","1,0.5,0.5,0.5,1,0.5,0.5,0.5,1","1,0.5,0.5,0.5,1,0.5,0.5,0.5,1","1","",""
"","html-keyboard-response","333","72509","0.0-333.0","3BDCF01OGYGL8I2IVG1AF4BJHRXLYZ","AXY0D2AMLKE2A","3BDORL6HKKZHMTYWD6BFF6WBDQ9CRF","","null","<img src=""img/land1.png"" style=""width:200px;border:14px solid red;"">","null","","","","","","","","","",""
"","image-keyboard-response","334","72522","0.0-334.0","3BDCF01OGYGL8I2IVG1AF4BJHRXLYZ","AXY0D2AMLKE2A","3BDORL6HKKZHMTYWD6BFF6WBDQ9CRF","","13.5","img/land1.png","76","13.800000071525574","3","1","3","1","1,0.5,0.5,0.5,1,0.5,0.5,0.5,1","1,0.5,0.5,0.5,1,0.5,0.5,0.5,1","1","",""
"","html-keyboard-response","335","72824","0.0-335.0","3BDCF01OGYGL8I2IVG1AF4BJHRXLYZ","AXY0D2AMLKE2A","3BDORL6HKKZHMTYWD6BFF6WBDQ9CRF","","null","<img src=""img/land1.png"" style=""width:200px; border:14px solid green;"">","null","","","","","","","","","",""
"","image-keyboard-response","336","72838","0.0-336.0","3BDCF01OGYGL8I2IVG1AF4BJHRXLYZ","AXY0D2AMLKE2A","3BDORL6HKKZHMTYWD6BFF6WBDQ9CRF","","13.900000095367432","img/land3.png","74","14.200000047683716","1","1","1","1","1,0.5,0.5,0.5,1,0.5,0.5,0.5,1","1,0.5,0.5,0.5,1,0.5,0.5,0.5,1","1","",""
"","html-keyboard-response","337","73139","0.0-337.0","3BDCF01OGYGL8I2IVG1AF4BJHRXLYZ","AXY0D2AMLKE2A","3BDORL6HKKZHMTYWD6BFF6WBDQ9CRF","","null","<img src=""img/land3.png"" style=""width:200px; border:14px solid green;"">","null","","","","","","","","","",""
"","image-keyboard-response","338","73146","0.0-338.0","3BDCF01OGYGL8I2IVG1AF4BJHRXLYZ","AXY0D2AMLKE2A","3BDORL6HKKZHMTYWD6BFF6WBDQ9CRF","","6.700000047683716","img/land1.png","76","7.100000023841858","3","1","3","1","1,0.5,0.5,0.5,1,0.5,0.5,0.5,1","1,0.5,0.5,0.5,1,0.5,0.5,0.5,1","1","",""
"","html-keyboard-response","339","73447","0.0-339.0","3BDCF01OGYGL8I2IVG1AF4BJHRXLYZ","AXY0D2AMLKE2A","3BDORL6HKKZHMTYWD6BFF6WBDQ9CRF","","null","<img src=""img/land1.png"" style=""width:200px; border:14px solid green;"">","null","","","","","","","","","",""
"","image-keyboard-response","340","73448","0.0-340.0","3BDCF01OGYGL8I2IVG1AF4BJHRXLYZ","AXY0D2AMLKE2A","3BDORL6HKKZHMTYWD6BFF6WBDQ9CRF","","0.8000000715255737","img/land4.png","74","1.100000023841858","1","1","2","1","1,0.5,0.5,0.5,1,0.5,0.5,0.5,1","1,0.5,0.5,0.5,1,0.5,0.5,0.5,1","1","",""
"","html-keyboard-response","341","73749","0.0-341.0","3BDCF01OGYGL8I2IVG1AF4BJHRXLYZ","AXY0D2AMLKE2A","3BDORL6HKKZHMTYWD6BFF6WBDQ9CRF","","null","<img src=""img/land4.png"" style=""width:200px; border:14px solid green;"">","null","","","","","","","","","",""
"","image-keyboard-response","342","73763","0.0-342.0","3BDCF01OGYGL8I2IVG1AF4BJHRXLYZ","AXY0D2AMLKE2A","3BDORL6HKKZHMTYWD6BFF6WBDQ9CRF","","13.900000095367432","img/land3.png","76","14.199999928474426","3","1","1","1","1,0.5,0.5,0.5,1,0.5,0.5,0.5,1","1,0.5,0.5,0.5,1,0.5,0.5,0.5,1","1","",""
"","html-keyboard-response","343","74065","0.0-343.0","3BDCF01OGYGL8I2IVG1AF4BJHRXLYZ","AXY0D2AMLKE2A","3BDORL6HKKZHMTYWD6BFF6WBDQ9CRF","","null","<img src=""img/land3.png"" style=""width:200px; border:14px solid green;"">","null","","","","","","","","","",""
"","image-keyboard-response","344","74066","0.0-344.0","3BDCF01OGYGL8I2IVG1AF4BJHRXLYZ","AXY0D2AMLKE2A","3BDORL6HKKZHMTYWD6BFF6WBDQ9CRF","","0.20000004768371582","img/land1.png","74","0.5","1","1","3","1","1,0.5,0.5,0.5,1,0.5,0.5,0.5,1","1,0.5,0.5,0.5,1,0.5,0.5,0.5,1","1","",""
"","html-keyboard-response","345","74367","0.0-345.0","3BDCF01OGYGL8I2IVG1AF4BJHRXLYZ","AXY0D2AMLKE2A","3BDORL6HKKZHMTYWD6BFF6WBDQ9CRF","","null","<img src=""img/land1.png"" style=""width:200px; border:14px solid green;"">","null","","","","","","","","","",""
"","image-keyboard-response","346","74421","0.0-346.0","3BDCF01OGYGL8I2IVG1AF4BJHRXLYZ","AXY0D2AMLKE2A","3BDORL6HKKZHMTYWD6BFF6WBDQ9CRF","","54.200000047683716","img/land4.png","76","54.60000002384186","3","0","2","1","1,0.5,0.5,0.5,1,0.5,0.5,0.5,1","1,0.5,0.5,0.5,1,0.5,0.5,0.5,1","1","",""
"","html-keyboard-response","347","74722","0.0-347.0","3BDCF01OGYGL8I2IVG1AF4BJHRXLYZ","AXY0D2AMLKE2A","3BDORL6HKKZHMTYWD6BFF6WBDQ9CRF","","null","<img src=""img/land4.png"" style=""width:200px;border:14px solid red;"">","null","","","","","","","","","",""
"","image-keyboard-response","348","74738","0.0-348.0","3BDCF01OGYGL8I2IVG1AF4BJHRXLYZ","AXY0D2AMLKE2A","3BDORL6HKKZHMTYWD6BFF6WBDQ9CRF","","14.800000071525574","img/land4.png","75","15.299999952316284","2","1","2","1","1,0.5,0.5,0.5,1,0.5,0.5,0.5,1","1,0.5,0.5,0.5,1,0.5,0.5,0.5,1","1","",""
"","html-keyboard-response","349","75039","0.0-349.0","3BDCF01OGYGL8I2IVG1AF4BJHRXLYZ","AXY0D2AMLKE2A","3BDORL6HKKZHMTYWD6BFF6WBDQ9CRF","","null","<img src=""img/land4.png"" style=""width:200px; border:14px solid green;"">","null","","","","","","","","","",""
"","image-keyboard-response","350","75086","0.0-350.0","3BDCF01OGYGL8I2IVG1AF4BJHRXLYZ","AXY0D2AMLKE2A","3BDORL6HKKZHMTYWD6BFF6WBDQ9CRF","","46.800000071525574","img/land3.png","75","47.299999952316284","2","1","1","1","1,0.5,0.5,0.5,1,0.5,0.5,0.5,1","1,0.5,0.5,0.5,1,0.5,0.5,0.5,1","1","",""
"","html-keyboard-response","351","75388","0.0-351.0","3BDCF01OGYGL8I2IVG1AF4BJHRXLYZ","AXY0D2AMLKE2A","3BDORL6HKKZHMTYWD6BFF6WBDQ9CRF","","null","<img src=""img/land3.png"" style=""width:200px; border:14px solid green;"">","null","","","","","","","","","",""
"","image-keyboard-response","352","75456","0.0-352.0","3BDCF01OGYGL8I2IVG1AF4BJHRXLYZ","AXY0D2AMLKE2A","3BDORL6HKKZHMTYWD6BFF6WBDQ9CRF","","68.10000002384186","img/land4.png","74","68.5","1","0","2","1","1,0.5,0.5,0.5,1,0.5,0.5,0.5,1","1,0.5,0.5,0.5,1,0.5,0.5,0.5,1","1","",""
"","html-keyboard-response","353","75758","0.0-353.0","3BDCF01OGYGL8I2IVG1AF4BJHRXLYZ","AXY0D2AMLKE2A","3BDORL6HKKZHMTYWD6BFF6WBDQ9CRF","","null","<img src=""img/land4.png"" style=""width:200px;border:14px solid red;"">","null","","","","","","","","","",""
"","image-keyboard-response","354","75799","0.0-354.0","3BDCF01OGYGL8I2IVG1AF4BJHRXLYZ","AXY0D2AMLKE2A","3BDORL6HKKZHMTYWD6BFF6WBDQ9CRF","","40.60000002384186","img/land3.png","76","41.199999928474426","3","1","1","1","1,0.5,0.5,0.5,1,0.5,0.5,0.5,1","1,0.5,0.5,0.5,1,0.5,0.5,0.5,1","1","",""
"","html-keyboard-response","355","76102","0.0-355.0","3BDCF01OGYGL8I2IVG1AF4BJHRXLYZ","AXY0D2AMLKE2A","3BDORL6HKKZHMTYWD6BFF6WBDQ9CRF","","null","<img src=""img/land3.png"" style=""width:200px; border:14px solid green;"">","null","","","","","","","","","",""
"","image-keyboard-response","356","76143","0.0-356.0","3BDCF01OGYGL8I2IVG1AF4BJHRXLYZ","AXY0D2AMLKE2A","3BDORL6HKKZHMTYWD6BFF6WBDQ9CRF","","40.299999952316284","img/land4.png","75","40.59999990463257","2","1","2","1","1,0.5,0.5,0.5,1,0.5,0.5,0.5,1","1,0.5,0.5,0.5,1,0.5,0.5,0.5,1","1","",""
"","html-keyboard-response","357","76444","0.0-357.0","3BDCF01OGYGL8I2IVG1AF4BJHRXLYZ","AXY0D2AMLKE2A","3BDORL6HKKZHMTYWD6BFF6WBDQ9CRF","","null","<img src=""img/land4.png"" style=""width:200px; border:14px solid green;"">","null","","","","","","","","","",""
"","image-keyboard-response","358","76486","0.0-358.0","3BDCF01OGYGL8I2IVG1AF4BJHRXLYZ","AXY0D2AMLKE2A","3BDORL6HKKZHMTYWD6BFF6WBDQ9CRF","","41.199999928474426","img/land3.png","76","42.60000002384186","3","1","1","1","1,0.5,0.5,0.5,1,0.5,0.5,0.5,1","1,0.5,0.5,0.5,1,0.5,0.5,0.5,1","1","",""
"","html-keyboard-response","359","76787","0.0-359.0","3BDCF01OGYGL8I2IVG1AF4BJHRXLYZ","AXY0D2AMLKE2A","3BDORL6HKKZHMTYWD6BFF6WBDQ9CRF","","null","<img src=""img/land3.png"" style=""width:200px; border:14px solid green;"">","null","","","","","","","","","",""
"","image-keyboard-response","360","76808","0.0-360.0","3BDCF01OGYGL8I2IVG1AF4BJHRXLYZ","AXY0D2AMLKE2A","3BDORL6HKKZHMTYWD6BFF6WBDQ9CRF","","19.899999976158142","img/land4.png","74","20.299999952316284","1","0","2","1","1,0.5,0.5,0.5,1,0.5,0.5,0.5,1","1,0.5,0.5,0.5,1,0.5,0.5,0.5,1","1","",""
"","html-keyboard-response","361","77109","0.0-361.0","3BDCF01OGYGL8I2IVG1AF4BJHRXLYZ","AXY0D2AMLKE2A","3BDORL6HKKZHMTYWD6BFF6WBDQ9CRF","","null","<img src=""img/land4.png"" style=""width:200px;border:14px solid red;"">","null","","","","","","","","","",""
"","image-keyboard-response","362","77170","0.0-362.0","3BDCF01OGYGL8I2IVG1AF4BJHRXLYZ","AXY0D2AMLKE2A","3BDORL6HKKZHMTYWD6BFF6WBDQ9CRF","","61.10000002384186","img/land4.png","76","61.5","3","0","2","1","1,0.5,0.5,0.5,1,0.5,0.5,0.5,1","1,0.5,0.5,0.5,1,0.5,0.5,0.5,1","1","",""
"","html-keyboard-response","363","77472","0.0-363.0","3BDCF01OGYGL8I2IVG1AF4BJHRXLYZ","AXY0D2AMLKE2A","3BDORL6HKKZHMTYWD6BFF6WBDQ9CRF","","null","<img src=""img/land4.png"" style=""width:200px;border:14px solid red;"">","null","","","","","","","","","",""
"","image-keyboard-response","364","77486","0.0-364.0","3BDCF01OGYGL8I2IVG1AF4BJHRXLYZ","AXY0D2AMLKE2A","3BDORL6HKKZHMTYWD6BFF6WBDQ9CRF","","13.800000071525574","img/land4.png","74","14.299999952316284","1","0","2","1","1,0.5,0.5,0.5,1,0.5,0.5,0.5,1","1,0.5,0.5,0.5,1,0.5,0.5,0.5,1","1","",""
