"success","trial_type","trial_index","time_elapsed","internal_node_id","assignmentID","mturkID","hitID","view_history","rt","stimulus","key_press","reactionTime","a","r","s","cond","reward_cond","reward_cond_actual","reward_matrix_idx","responses","question_order"
"true","fullscreen","0","5107","0.0-0.0","34HJIJKLP6I86G0SKDF9MO5EEW7V4V","AYLYY6ANK0URM","3PIOQ99R7Y8STPN46QFY0SD7JTFNU0","","","","","","","","","","","","","",""
"","instructions","1","19634","0.0-1.0","34HJIJKLP6I86G0SKDF9MO5EEW7V4V","AYLYY6ANK0URM","3PIOQ99R7Y8STPN46QFY0SD7JTFNU0","[{""page_index"":0,""viewing_time"":2333.2000000476837},{""page_index"":1,""viewing_time"":2006},{""page_index"":2,""viewing_time"":2580},{""page_index"":3,""viewing_time"":2306},{""page_index"":4,""viewing_time"":1376.3999998569489},{""page_index"":5,""viewing_time"":2657.4000000953674},{""page_index"":6,""viewing_time"":1266.2000000476837}]","14525.5","","","","","","","","","","","",""
"","image-keyboard-response","2","21639","0.0-2.0","34HJIJKLP6I86G0SKDF9MO5EEW7V4V","AYLYY6ANK0URM","3PIOQ99R7Y8STPN46QFY0SD7JTFNU0","","","img/land6.png","","2005","-1","0","1","2","0.8,0.2,0.2,0.2,0.8,0.2,0.2,0.2,0.8","0.2,0.2,0.8,0.8,0.2,0.2,0.2,0.8,0.2","2","",""
"","html-keyboard-response","3","21948","0.0-3.0","34HJIJKLP6I86G0SKDF9MO5EEW7V4V","AYLYY6ANK0URM","3PIOQ99R7Y8STPN46QFY0SD7JTFNU0","","null","<img src=""img/land6.png"" style=""width:200px;border:14px solid red;"">","null","","","","","","","","","",""
"","image-keyboard-response","4","22868","0.0-4.0","34HJIJKLP6I86G0SKDF9MO5EEW7V4V","AYLYY6ANK0URM","3PIOQ99R7Y8STPN46QFY0SD7JTFNU0","","918.7000000476837","img/land6.png","74","919.1999998092651","1","1","1","2","0.8,0.2,0.2,0.2,0.8,0.2,0.2,0.2,0.8","0.2,0.2,0.8,0.8,0.2,0.2,0.2,0.8,0.2","2","",""
"","html-keyboard-response","5","23173","0.0-5.0","34HJIJKLP6I86G0SKDF9MO5EEW7V4V","AYLYY6ANK0URM","3PIOQ99R7Y8STPN46QFY0SD7JTFNU0","","null","<img src=""img/land6.png"" style=""width:200px; border:14px solid green;"">","null","","","","","","","","","",""
"","image-keyboard-response","6","23860","0.0-6.0","34HJIJKLP6I86G0SKDF9MO5EEW7V4V","AYLYY6ANK0URM","3PIOQ99R7Y8STPN46QFY0SD7JTFNU0","","686","img/land6.png","74","686.7999999523163","1","0","1","2","0.8,0.2,0.2,0.2,0.8,0.2,0.2,0.2,0.8","0.2,0.2,0.8,0.8,0.2,0.2,0.2,0.8,0.2","2","",""
"","html-keyboard-response","7","24170","0.0-7.0","34HJIJKLP6I86G0SKDF9MO5EEW7V4V","AYLYY6ANK0URM","3PIOQ99R7Y8STPN46QFY0SD7JTFNU0","","null","<img src=""img/land6.png"" style=""width:200px;border:14px solid red;"">","null","","","","","","","","","",""
"","image-keyboard-response","8","24839","0.0-8.0","34HJIJKLP6I86G0SKDF9MO5EEW7V4V","AYLYY6ANK0URM","3PIOQ99R7Y8STPN46QFY0SD7JTFNU0","","667.6000001430511","img/land6.png","74","668.1999998092651","1","1","1","2","0.8,0.2,0.2,0.2,0.8,0.2,0.2,0.2,0.8","0.2,0.2,0.8,0.8,0.2,0.2,0.2,0.8,0.2","2","",""
"","html-keyboard-response","9","25153","0.0-9.0","34HJIJKLP6I86G0SKDF9MO5EEW7V4V","AYLYY6ANK0URM","3PIOQ99R7Y8STPN46QFY0SD7JTFNU0","","null","<img src=""img/land6.png"" style=""width:200px; border:14px solid green;"">","null","","","","","","","","","",""
"","image-keyboard-response","10","25698","0.0-10.0","34HJIJKLP6I86G0SKDF9MO5EEW7V4V","AYLYY6ANK0URM","3PIOQ99R7Y8STPN46QFY0SD7JTFNU0","","544.5","img/land6.png","74","545","1","0","1","2","0.8,0.2,0.2,0.2,0.8,0.2,0.2,0.2,0.8","0.2,0.2,0.8,0.8,0.2,0.2,0.2,0.8,0.2","2","",""
"","html-keyboard-response","11","26010","0.0-11.0","34HJIJKLP6I86G0SKDF9MO5EEW7V4V","AYLYY6ANK0URM","3PIOQ99R7Y8STPN46QFY0SD7JTFNU0","","null","<img src=""img/land6.png"" style=""width:200px;border:14px solid red;"">","null","","","","","","","","","",""
"","image-keyboard-response","12","26486","0.0-12.0","34HJIJKLP6I86G0SKDF9MO5EEW7V4V","AYLYY6ANK0URM","3PIOQ99R7Y8STPN46QFY0SD7JTFNU0","","475.2999999523163","img/land6.png","74","475.90000009536743","1","0","1","2","0.8,0.2,0.2,0.2,0.8,0.2,0.2,0.2,0.8","0.2,0.2,0.8,0.8,0.2,0.2,0.2,0.8,0.2","2","",""
"","html-keyboard-response","13","26789","0.0-13.0","34HJIJKLP6I86G0SKDF9MO5EEW7V4V","AYLYY6ANK0URM","3PIOQ99R7Y8STPN46QFY0SD7JTFNU0","","null","<img src=""img/land6.png"" style=""width:200px;border:14px solid red;"">","null","","","","","","","","","",""
"","image-keyboard-response","14","27654","0.0-14.0","34HJIJKLP6I86G0SKDF9MO5EEW7V4V","AYLYY6ANK0URM","3PIOQ99R7Y8STPN46QFY0SD7JTFNU0","","863.8999998569489","img/land5.png","75","864.5","2","0","2","2","0.8,0.2,0.2,0.2,0.8,0.2,0.2,0.2,0.8","0.2,0.2,0.8,0.8,0.2,0.2,0.2,0.8,0.2","2","",""
"","html-keyboard-response","15","27956","0.0-15.0","34HJIJKLP6I86G0SKDF9MO5EEW7V4V","AYLYY6ANK0URM","3PIOQ99R7Y8STPN46QFY0SD7JTFNU0","","null","<img src=""img/land5.png"" style=""width:200px;border:14px solid red;"">","null","","","","","","","","","",""
"","image-keyboard-response","16","28670","0.0-16.0","34HJIJKLP6I86G0SKDF9MO5EEW7V4V","AYLYY6ANK0URM","3PIOQ99R7Y8STPN46QFY0SD7JTFNU0","","714","img/land6.png","74","714.5","1","0","1","2","0.8,0.2,0.2,0.2,0.8,0.2,0.2,0.2,0.8","0.2,0.2,0.8,0.8,0.2,0.2,0.2,0.8,0.2","2","",""
"","html-keyboard-response","17","28973","0.0-17.0","34HJIJKLP6I86G0SKDF9MO5EEW7V4V","AYLYY6ANK0URM","3PIOQ99R7Y8STPN46QFY0SD7JTFNU0","","null","<img src=""img/land6.png"" style=""width:200px;border:14px solid red;"">","null","","","","","","","","","",""
"","image-keyboard-response","18","29897","0.0-18.0","34HJIJKLP6I86G0SKDF9MO5EEW7V4V","AYLYY6ANK0URM","3PIOQ99R7Y8STPN46QFY0SD7JTFNU0","","924","img/land6.png","76","924.5","3","1","1","2","0.8,0.2,0.2,0.2,0.8,0.2,0.2,0.2,0.8","0.2,0.2,0.8,0.8,0.2,0.2,0.2,0.8,0.2","2","",""
"","html-keyboard-response","19","30199","0.0-19.0","34HJIJKLP6I86G0SKDF9MO5EEW7V4V","AYLYY6ANK0URM","3PIOQ99R7Y8STPN46QFY0SD7JTFNU0","","null","<img src=""img/land6.png"" style=""width:200px; border:14px solid green;"">","null","","","","","","","","","",""
"","image-keyboard-response","20","30948","0.0-20.0","34HJIJKLP6I86G0SKDF9MO5EEW7V4V","AYLYY6ANK0URM","3PIOQ99R7Y8STPN46QFY0SD7JTFNU0","","748.2999999523163","img/land5.png","75","748.9000000953674","2","0","2","2","0.8,0.2,0.2,0.2,0.8,0.2,0.2,0.2,0.8","0.2,0.2,0.8,0.8,0.2,0.2,0.2,0.8,0.2","2","",""
"","html-keyboard-response","21","31249","0.0-21.0","34HJIJKLP6I86G0SKDF9MO5EEW7V4V","AYLYY6ANK0URM","3PIOQ99R7Y8STPN46QFY0SD7JTFNU0","","null","<img src=""img/land5.png"" style=""width:200px;border:14px solid red;"">","null","","","","","","","","","",""
"","image-keyboard-response","22","31870","0.0-22.0","34HJIJKLP6I86G0SKDF9MO5EEW7V4V","AYLYY6ANK0URM","3PIOQ99R7Y8STPN46QFY0SD7JTFNU0","","620.2999999523163","img/land5.png","74","620.7999999523163","1","1","2","2","0.8,0.2,0.2,0.2,0.8,0.2,0.2,0.2,0.8","0.2,0.2,0.8,0.8,0.2,0.2,0.2,0.8,0.2","2","",""
"","html-keyboard-response","23","32173","0.0-23.0","34HJIJKLP6I86G0SKDF9MO5EEW7V4V","AYLYY6ANK0URM","3PIOQ99R7Y8STPN46QFY0SD7JTFNU0","","null","<img src=""img/land5.png"" style=""width:200px; border:14px solid green;"">","null","","","","","","","","","",""
"","image-keyboard-response","24","32853","0.0-24.0","34HJIJKLP6I86G0SKDF9MO5EEW7V4V","AYLYY6ANK0URM","3PIOQ99R7Y8STPN46QFY0SD7JTFNU0","","679.8999998569489","img/land6.png","76","680.6000001430511","3","0","1","2","0.8,0.2,0.2,0.2,0.8,0.2,0.2,0.2,0.8","0.2,0.2,0.8,0.8,0.2,0.2,0.2,0.8,0.2","2","",""
"","html-keyboard-response","25","33156","0.0-25.0","34HJIJKLP6I86G0SKDF9MO5EEW7V4V","AYLYY6ANK0URM","3PIOQ99R7Y8STPN46QFY0SD7JTFNU0","","null","<img src=""img/land6.png"" style=""width:200px;border:14px solid red;"">","null","","","","","","","","","",""
"","image-keyboard-response","26","33538","0.0-26.0","34HJIJKLP6I86G0SKDF9MO5EEW7V4V","AYLYY6ANK0URM","3PIOQ99R7Y8STPN46QFY0SD7JTFNU0","","381.5","img/land6.png","76","382","3","0","1","2","0.8,0.2,0.2,0.2,0.8,0.2,0.2,0.2,0.8","0.2,0.2,0.8,0.8,0.2,0.2,0.2,0.8,0.2","2","",""
"","html-keyboard-response","27","33839","0.0-27.0","34HJIJKLP6I86G0SKDF9MO5EEW7V4V","AYLYY6ANK0URM","3PIOQ99R7Y8STPN46QFY0SD7JTFNU0","","null","<img src=""img/land6.png"" style=""width:200px;border:14px solid red;"">","null","","","","","","","","","",""
"","image-keyboard-response","28","34298","0.0-28.0","34HJIJKLP6I86G0SKDF9MO5EEW7V4V","AYLYY6ANK0URM","3PIOQ99R7Y8STPN46QFY0SD7JTFNU0","","458.2999999523163","img/land6.png","74","458.89999985694885","1","0","1","2","0.8,0.2,0.2,0.2,0.8,0.2,0.2,0.2,0.8","0.2,0.2,0.8,0.8,0.2,0.2,0.2,0.8,0.2","2","",""
"","html-keyboard-response","29","34599","0.0-29.0","34HJIJKLP6I86G0SKDF9MO5EEW7V4V","AYLYY6ANK0URM","3PIOQ99R7Y8STPN46QFY0SD7JTFNU0","","null","<img src=""img/land6.png"" style=""width:200px;border:14px solid red;"">","null","","","","","","","","","",""
"","image-keyboard-response","30","35308","0.0-30.0","34HJIJKLP6I86G0SKDF9MO5EEW7V4V","AYLYY6ANK0URM","3PIOQ99R7Y8STPN46QFY0SD7JTFNU0","","708.5","img/land6.png","74","708.9000000953674","1","1","1","2","0.8,0.2,0.2,0.2,0.8,0.2,0.2,0.2,0.8","0.2,0.2,0.8,0.8,0.2,0.2,0.2,0.8,0.2","2","",""
"","html-keyboard-response","31","35610","0.0-31.0","34HJIJKLP6I86G0SKDF9MO5EEW7V4V","AYLYY6ANK0URM","3PIOQ99R7Y8STPN46QFY0SD7JTFNU0","","null","<img src=""img/land6.png"" style=""width:200px; border:14px solid green;"">","null","","","","","","","","","",""
"","image-keyboard-response","32","36374","0.0-32.0","34HJIJKLP6I86G0SKDF9MO5EEW7V4V","AYLYY6ANK0URM","3PIOQ99R7Y8STPN46QFY0SD7JTFNU0","","762.7999999523163","img/land2.png","74","763.3999998569489","1","0","3","2","0.8,0.2,0.2,0.2,0.8,0.2,0.2,0.2,0.8","0.2,0.2,0.8,0.8,0.2,0.2,0.2,0.8,0.2","2","",""
"","html-keyboard-response","33","36675","0.0-33.0","34HJIJKLP6I86G0SKDF9MO5EEW7V4V","AYLYY6ANK0URM","3PIOQ99R7Y8STPN46QFY0SD7JTFNU0","","null","<img src=""img/land2.png"" style=""width:200px;border:14px solid red;"">","null","","","","","","","","","",""
"","image-keyboard-response","34","38021","0.0-34.0","34HJIJKLP6I86G0SKDF9MO5EEW7V4V","AYLYY6ANK0URM","3PIOQ99R7Y8STPN46QFY0SD7JTFNU0","","1345.5999999046326","img/land6.png","74","1346.0999999046326","1","0","1","2","0.8,0.2,0.2,0.2,0.8,0.2,0.2,0.2,0.8","0.2,0.2,0.8,0.8,0.2,0.2,0.2,0.8,0.2","2","",""
"","html-keyboard-response","35","38323","0.0-35.0","34HJIJKLP6I86G0SKDF9MO5EEW7V4V","AYLYY6ANK0URM","3PIOQ99R7Y8STPN46QFY0SD7JTFNU0","","null","<img src=""img/land6.png"" style=""width:200px;border:14px solid red;"">","null","","","","","","","","","",""
"","image-keyboard-response","36","38889","0.0-36.0","34HJIJKLP6I86G0SKDF9MO5EEW7V4V","AYLYY6ANK0URM","3PIOQ99R7Y8STPN46QFY0SD7JTFNU0","","566","img/land5.png","75","566.5","2","1","2","2","0.8,0.2,0.2,0.2,0.8,0.2,0.2,0.2,0.8","0.2,0.2,0.8,0.8,0.2,0.2,0.2,0.8,0.2","2","",""
"","html-keyboard-response","37","39191","0.0-37.0","34HJIJKLP6I86G0SKDF9MO5EEW7V4V","AYLYY6ANK0URM","3PIOQ99R7Y8STPN46QFY0SD7JTFNU0","","null","<img src=""img/land5.png"" style=""width:200px; border:14px solid green;"">","null","","","","","","","","","",""
"","image-keyboard-response","38","39699","0.0-38.0","34HJIJKLP6I86G0SKDF9MO5EEW7V4V","AYLYY6ANK0URM","3PIOQ99R7Y8STPN46QFY0SD7JTFNU0","","506.7999999523163","img/land6.png","76","507.7000000476837","3","0","1","2","0.8,0.2,0.2,0.2,0.8,0.2,0.2,0.2,0.8","0.2,0.2,0.8,0.8,0.2,0.2,0.2,0.8,0.2","2","",""
"","html-keyboard-response","39","40000","0.0-39.0","34HJIJKLP6I86G0SKDF9MO5EEW7V4V","AYLYY6ANK0URM","3PIOQ99R7Y8STPN46QFY0SD7JTFNU0","","null","<img src=""img/land6.png"" style=""width:200px;border:14px solid red;"">","null","","","","","","","","","",""
"","image-keyboard-response","40","40514","0.0-40.0","34HJIJKLP6I86G0SKDF9MO5EEW7V4V","AYLYY6ANK0URM","3PIOQ99R7Y8STPN46QFY0SD7JTFNU0","","513.4000000953674","img/land2.png","74","513.9000000953674","1","0","3","2","0.8,0.2,0.2,0.2,0.8,0.2,0.2,0.2,0.8","0.2,0.2,0.8,0.8,0.2,0.2,0.2,0.8,0.2","2","",""
"","html-keyboard-response","41","40816","0.0-41.0","34HJIJKLP6I86G0SKDF9MO5EEW7V4V","AYLYY6ANK0URM","3PIOQ99R7Y8STPN46QFY0SD7JTFNU0","","null","<img src=""img/land2.png"" style=""width:200px;border:14px solid red;"">","null","","","","","","","","","",""
"","image-keyboard-response","42","41351","0.0-42.0","34HJIJKLP6I86G0SKDF9MO5EEW7V4V","AYLYY6ANK0URM","3PIOQ99R7Y8STPN46QFY0SD7JTFNU0","","534.8999998569489","img/land6.png","75","535.6000001430511","2","0","1","2","0.8,0.2,0.2,0.2,0.8,0.2,0.2,0.2,0.8","0.2,0.2,0.8,0.8,0.2,0.2,0.2,0.8,0.2","2","",""
"","html-keyboard-response","43","41653","0.0-43.0","34HJIJKLP6I86G0SKDF9MO5EEW7V4V","AYLYY6ANK0URM","3PIOQ99R7Y8STPN46QFY0SD7JTFNU0","","null","<img src=""img/land6.png"" style=""width:200px;border:14px solid red;"">","null","","","","","","","","","",""
"","image-keyboard-response","44","42065","0.0-44.0","34HJIJKLP6I86G0SKDF9MO5EEW7V4V","AYLYY6ANK0URM","3PIOQ99R7Y8STPN46QFY0SD7JTFNU0","","411.90000009536743","img/land5.png","74","412.5","1","1","2","2","0.8,0.2,0.2,0.2,0.8,0.2,0.2,0.2,0.8","0.2,0.2,0.8,0.8,0.2,0.2,0.2,0.8,0.2","2","",""
"","html-keyboard-response","45","42367","0.0-45.0","34HJIJKLP6I86G0SKDF9MO5EEW7V4V","AYLYY6ANK0URM","3PIOQ99R7Y8STPN46QFY0SD7JTFNU0","","null","<img src=""img/land5.png"" style=""width:200px; border:14px solid green;"">","null","","","","","","","","","",""
"","image-keyboard-response","46","43092","0.0-46.0","34HJIJKLP6I86G0SKDF9MO5EEW7V4V","AYLYY6ANK0URM","3PIOQ99R7Y8STPN46QFY0SD7JTFNU0","","724.5999999046326","img/land6.png","74","725.0999999046326","1","0","1","2","0.8,0.2,0.2,0.2,0.8,0.2,0.2,0.2,0.8","0.2,0.2,0.8,0.8,0.2,0.2,0.2,0.8,0.2","2","",""
"","html-keyboard-response","47","43393","0.0-47.0","34HJIJKLP6I86G0SKDF9MO5EEW7V4V","AYLYY6ANK0URM","3PIOQ99R7Y8STPN46QFY0SD7JTFNU0","","null","<img src=""img/land6.png"" style=""width:200px;border:14px solid red;"">","null","","","","","","","","","",""
"","image-keyboard-response","48","43907","0.0-48.0","34HJIJKLP6I86G0SKDF9MO5EEW7V4V","AYLYY6ANK0URM","3PIOQ99R7Y8STPN46QFY0SD7JTFNU0","","513.2999999523163","img/land6.png","74","513.6999998092651","1","0","1","2","0.8,0.2,0.2,0.2,0.8,0.2,0.2,0.2,0.8","0.2,0.2,0.8,0.8,0.2,0.2,0.2,0.8,0.2","2","",""
"","html-keyboard-response","49","44209","0.0-49.0","34HJIJKLP6I86G0SKDF9MO5EEW7V4V","AYLYY6ANK0URM","3PIOQ99R7Y8STPN46QFY0SD7JTFNU0","","null","<img src=""img/land6.png"" style=""width:200px;border:14px solid red;"">","null","","","","","","","","","",""
"","image-keyboard-response","50","44599","0.0-50.0","34HJIJKLP6I86G0SKDF9MO5EEW7V4V","AYLYY6ANK0URM","3PIOQ99R7Y8STPN46QFY0SD7JTFNU0","","389.2999999523163","img/land6.png","74","389.80000019073486","1","1","1","2","0.8,0.2,0.2,0.2,0.8,0.2,0.2,0.2,0.8","0.2,0.2,0.8,0.8,0.2,0.2,0.2,0.8,0.2","2","",""
"","html-keyboard-response","51","44900","0.0-51.0","34HJIJKLP6I86G0SKDF9MO5EEW7V4V","AYLYY6ANK0URM","3PIOQ99R7Y8STPN46QFY0SD7JTFNU0","","null","<img src=""img/land6.png"" style=""width:200px; border:14px solid green;"">","null","","","","","","","","","",""
"","image-keyboard-response","52","45532","0.0-52.0","34HJIJKLP6I86G0SKDF9MO5EEW7V4V","AYLYY6ANK0URM","3PIOQ99R7Y8STPN46QFY0SD7JTFNU0","","630.8000001907349","img/land5.png","75","631.5","2","0","2","2","0.8,0.2,0.2,0.2,0.8,0.2,0.2,0.2,0.8","0.2,0.2,0.8,0.8,0.2,0.2,0.2,0.8,0.2","2","",""
"","html-keyboard-response","53","45833","0.0-53.0","34HJIJKLP6I86G0SKDF9MO5EEW7V4V","AYLYY6ANK0URM","3PIOQ99R7Y8STPN46QFY0SD7JTFNU0","","null","<img src=""img/land5.png"" style=""width:200px;border:14px solid red;"">","null","","","","","","","","","",""
"","image-keyboard-response","54","46565","0.0-54.0","34HJIJKLP6I86G0SKDF9MO5EEW7V4V","AYLYY6ANK0URM","3PIOQ99R7Y8STPN46QFY0SD7JTFNU0","","730.8999998569489","img/land6.png","74","731.7000000476837","1","0","1","2","0.8,0.2,0.2,0.2,0.8,0.2,0.2,0.2,0.8","0.2,0.2,0.8,0.8,0.2,0.2,0.2,0.8,0.2","2","",""
"","html-keyboard-response","55","46867","0.0-55.0","34HJIJKLP6I86G0SKDF9MO5EEW7V4V","AYLYY6ANK0URM","3PIOQ99R7Y8STPN46QFY0SD7JTFNU0","","null","<img src=""img/land6.png"" style=""width:200px;border:14px solid red;"">","null","","","","","","","","","",""
"","image-keyboard-response","56","47265","0.0-56.0","34HJIJKLP6I86G0SKDF9MO5EEW7V4V","AYLYY6ANK0URM","3PIOQ99R7Y8STPN46QFY0SD7JTFNU0","","396.90000009536743","img/land6.png","74","397.5","1","0","1","2","0.8,0.2,0.2,0.2,0.8,0.2,0.2,0.2,0.8","0.2,0.2,0.8,0.8,0.2,0.2,0.2,0.8,0.2","2","",""
"","html-keyboard-response","57","47567","0.0-57.0","34HJIJKLP6I86G0SKDF9MO5EEW7V4V","AYLYY6ANK0URM","3PIOQ99R7Y8STPN46QFY0SD7JTFNU0","","null","<img src=""img/land6.png"" style=""width:200px;border:14px solid red;"">","null","","","","","","","","","",""
"","image-keyboard-response","58","48210","0.0-58.0","34HJIJKLP6I86G0SKDF9MO5EEW7V4V","AYLYY6ANK0URM","3PIOQ99R7Y8STPN46QFY0SD7JTFNU0","","642.1000001430511","img/land2.png","76","642.6999998092651","3","0","3","2","0.8,0.2,0.2,0.2,0.8,0.2,0.2,0.2,0.8","0.2,0.2,0.8,0.8,0.2,0.2,0.2,0.8,0.2","2","",""
"","html-keyboard-response","59","48511","0.0-59.0","34HJIJKLP6I86G0SKDF9MO5EEW7V4V","AYLYY6ANK0URM","3PIOQ99R7Y8STPN46QFY0SD7JTFNU0","","null","<img src=""img/land2.png"" style=""width:200px;border:14px solid red;"">","null","","","","","","","","","",""
"","image-keyboard-response","60","49249","0.0-60.0","34HJIJKLP6I86G0SKDF9MO5EEW7V4V","AYLYY6ANK0URM","3PIOQ99R7Y8STPN46QFY0SD7JTFNU0","","737.5","img/land5.png","75","737.9000000953674","2","0","2","2","0.8,0.2,0.2,0.2,0.8,0.2,0.2,0.2,0.8","0.2,0.2,0.8,0.8,0.2,0.2,0.2,0.8,0.2","2","",""
"","html-keyboard-response","61","49552","0.0-61.0","34HJIJKLP6I86G0SKDF9MO5EEW7V4V","AYLYY6ANK0URM","3PIOQ99R7Y8STPN46QFY0SD7JTFNU0","","null","<img src=""img/land5.png"" style=""width:200px;border:14px solid red;"">","null","","","","","","","","","",""
"","image-keyboard-response","62","50214","0.0-62.0","34HJIJKLP6I86G0SKDF9MO5EEW7V4V","AYLYY6ANK0URM","3PIOQ99R7Y8STPN46QFY0SD7JTFNU0","","661.7000000476837","img/land6.png","75","662.2999999523163","2","0","1","2","0.8,0.2,0.2,0.2,0.8,0.2,0.2,0.2,0.8","0.2,0.2,0.8,0.8,0.2,0.2,0.2,0.8,0.2","2","",""
"","html-keyboard-response","63","50516","0.0-63.0","34HJIJKLP6I86G0SKDF9MO5EEW7V4V","AYLYY6ANK0URM","3PIOQ99R7Y8STPN46QFY0SD7JTFNU0","","null","<img src=""img/land6.png"" style=""width:200px;border:14px solid red;"">","null","","","","","","","","","",""
"","image-keyboard-response","64","50871","0.0-64.0","34HJIJKLP6I86G0SKDF9MO5EEW7V4V","AYLYY6ANK0URM","3PIOQ99R7Y8STPN46QFY0SD7JTFNU0","","354.59999990463257","img/land6.png","76","355.10000014305115","3","0","1","2","0.8,0.2,0.2,0.2,0.8,0.2,0.2,0.2,0.8","0.2,0.2,0.8,0.8,0.2,0.2,0.2,0.8,0.2","2","",""
"","html-keyboard-response","65","51173","0.0-65.0","34HJIJKLP6I86G0SKDF9MO5EEW7V4V","AYLYY6ANK0URM","3PIOQ99R7Y8STPN46QFY0SD7JTFNU0","","null","<img src=""img/land6.png"" style=""width:200px;border:14px solid red;"">","null","","","","","","","","","",""
"","image-keyboard-response","66","51492","0.0-66.0","34HJIJKLP6I86G0SKDF9MO5EEW7V4V","AYLYY6ANK0URM","3PIOQ99R7Y8STPN46QFY0SD7JTFNU0","","318.40000009536743","img/land6.png","74","319","1","0","1","2","0.8,0.2,0.2,0.2,0.8,0.2,0.2,0.2,0.8","0.2,0.2,0.8,0.8,0.2,0.2,0.2,0.8,0.2","2","",""
"","html-keyboard-response","67","51803","0.0-67.0","34HJIJKLP6I86G0SKDF9MO5EEW7V4V","AYLYY6ANK0URM","3PIOQ99R7Y8STPN46QFY0SD7JTFNU0","","null","<img src=""img/land6.png"" style=""width:200px;border:14px solid red;"">","null","","","","","","","","","",""
"","image-keyboard-response","68","52123","0.0-68.0","34HJIJKLP6I86G0SKDF9MO5EEW7V4V","AYLYY6ANK0URM","3PIOQ99R7Y8STPN46QFY0SD7JTFNU0","","319","img/land6.png","74","319.7000000476837","1","0","1","2","0.8,0.2,0.2,0.2,0.8,0.2,0.2,0.2,0.8","0.2,0.2,0.8,0.8,0.2,0.2,0.2,0.8,0.2","2","",""
"","html-keyboard-response","69","52425","0.0-69.0","34HJIJKLP6I86G0SKDF9MO5EEW7V4V","AYLYY6ANK0URM","3PIOQ99R7Y8STPN46QFY0SD7JTFNU0","","null","<img src=""img/land6.png"" style=""width:200px;border:14px solid red;"">","null","","","","","","","","","",""
"","image-keyboard-response","70","52921","0.0-70.0","34HJIJKLP6I86G0SKDF9MO5EEW7V4V","AYLYY6ANK0URM","3PIOQ99R7Y8STPN46QFY0SD7JTFNU0","","494.60000014305115","img/land2.png","74","495.2999999523163","1","0","3","2","0.8,0.2,0.2,0.2,0.8,0.2,0.2,0.2,0.8","0.2,0.2,0.8,0.8,0.2,0.2,0.2,0.8,0.2","2","",""
"","html-keyboard-response","71","53222","0.0-71.0","34HJIJKLP6I86G0SKDF9MO5EEW7V4V","AYLYY6ANK0URM","3PIOQ99R7Y8STPN46QFY0SD7JTFNU0","","null","<img src=""img/land2.png"" style=""width:200px;border:14px solid red;"">","null","","","","","","","","","",""
"","image-keyboard-response","72","53638","0.0-72.0","34HJIJKLP6I86G0SKDF9MO5EEW7V4V","AYLYY6ANK0URM","3PIOQ99R7Y8STPN46QFY0SD7JTFNU0","","414.7999999523163","img/land6.png","75","415.2999999523163","2","0","1","2","0.8,0.2,0.2,0.2,0.8,0.2,0.2,0.2,0.8","0.2,0.2,0.8,0.8,0.2,0.2,0.2,0.8,0.2","2","",""
"","html-keyboard-response","73","53939","0.0-73.0","34HJIJKLP6I86G0SKDF9MO5EEW7V4V","AYLYY6ANK0URM","3PIOQ99R7Y8STPN46QFY0SD7JTFNU0","","null","<img src=""img/land6.png"" style=""width:200px;border:14px solid red;"">","null","","","","","","","","","",""
"","image-keyboard-response","74","54255","0.0-74.0","34HJIJKLP6I86G0SKDF9MO5EEW7V4V","AYLYY6ANK0URM","3PIOQ99R7Y8STPN46QFY0SD7JTFNU0","","314.5","img/land5.png","74","314.90000009536743","1","1","2","2","0.8,0.2,0.2,0.2,0.8,0.2,0.2,0.2,0.8","0.2,0.2,0.8,0.8,0.2,0.2,0.2,0.8,0.2","2","",""
"","html-keyboard-response","75","54556","0.0-75.0","34HJIJKLP6I86G0SKDF9MO5EEW7V4V","AYLYY6ANK0URM","3PIOQ99R7Y8STPN46QFY0SD7JTFNU0","","null","<img src=""img/land5.png"" style=""width:200px; border:14px solid green;"">","null","","","","","","","","","",""
"","image-keyboard-response","76","55199","0.0-76.0","34HJIJKLP6I86G0SKDF9MO5EEW7V4V","AYLYY6ANK0URM","3PIOQ99R7Y8STPN46QFY0SD7JTFNU0","","642.8999998569489","img/land6.png","74","643.2999999523163","1","0","1","2","0.8,0.2,0.2,0.2,0.8,0.2,0.2,0.2,0.8","0.2,0.2,0.8,0.8,0.2,0.2,0.2,0.8,0.2","2","",""
"","html-keyboard-response","77","55500","0.0-77.0","34HJIJKLP6I86G0SKDF9MO5EEW7V4V","AYLYY6ANK0URM","3PIOQ99R7Y8STPN46QFY0SD7JTFNU0","","null","<img src=""img/land6.png"" style=""width:200px;border:14px solid red;"">","null","","","","","","","","","",""
"","image-keyboard-response","78","55952","0.0-78.0","34HJIJKLP6I86G0SKDF9MO5EEW7V4V","AYLYY6ANK0URM","3PIOQ99R7Y8STPN46QFY0SD7JTFNU0","","451.60000014305115","img/land5.png","74","452.2000000476837","1","1","2","2","0.8,0.2,0.2,0.2,0.8,0.2,0.2,0.2,0.8","0.2,0.2,0.8,0.8,0.2,0.2,0.2,0.8,0.2","2","",""
"","html-keyboard-response","79","56254","0.0-79.0","34HJIJKLP6I86G0SKDF9MO5EEW7V4V","AYLYY6ANK0URM","3PIOQ99R7Y8STPN46QFY0SD7JTFNU0","","null","<img src=""img/land5.png"" style=""width:200px; border:14px solid green;"">","null","","","","","","","","","",""
"","image-keyboard-response","80","56701","0.0-80.0","34HJIJKLP6I86G0SKDF9MO5EEW7V4V","AYLYY6ANK0URM","3PIOQ99R7Y8STPN46QFY0SD7JTFNU0","","445.90000009536743","img/land6.png","74","446.2999999523163","1","1","1","2","0.8,0.2,0.2,0.2,0.8,0.2,0.2,0.2,0.8","0.2,0.2,0.8,0.8,0.2,0.2,0.2,0.8,0.2","2","",""
"","html-keyboard-response","81","57002","0.0-81.0","34HJIJKLP6I86G0SKDF9MO5EEW7V4V","AYLYY6ANK0URM","3PIOQ99R7Y8STPN46QFY0SD7JTFNU0","","null","<img src=""img/land6.png"" style=""width:200px; border:14px solid green;"">","null","","","","","","","","","",""
"","image-keyboard-response","82","57385","0.0-82.0","34HJIJKLP6I86G0SKDF9MO5EEW7V4V","AYLYY6ANK0URM","3PIOQ99R7Y8STPN46QFY0SD7JTFNU0","","381","img/land6.png","74","383","1","0","1","2","0.8,0.2,0.2,0.2,0.8,0.2,0.2,0.2,0.8","0.2,0.2,0.8,0.8,0.2,0.2,0.2,0.8,0.2","2","",""
"","html-keyboard-response","83","57687","0.0-83.0","34HJIJKLP6I86G0SKDF9MO5EEW7V4V","AYLYY6ANK0URM","3PIOQ99R7Y8STPN46QFY0SD7JTFNU0","","null","<img src=""img/land6.png"" style=""width:200px;border:14px solid red;"">","null","","","","","","","","","",""
"","image-keyboard-response","84","57947","0.0-84.0","34HJIJKLP6I86G0SKDF9MO5EEW7V4V","AYLYY6ANK0URM","3PIOQ99R7Y8STPN46QFY0SD7JTFNU0","","260","img/land6.png","76","260.5","3","1","1","2","0.8,0.2,0.2,0.2,0.8,0.2,0.2,0.2,0.8","0.2,0.2,0.8,0.8,0.2,0.2,0.2,0.8,0.2","2","",""
"","html-keyboard-response","85","58249","0.0-85.0","34HJIJKLP6I86G0SKDF9MO5EEW7V4V","AYLYY6ANK0URM","3PIOQ99R7Y8STPN46QFY0SD7JTFNU0","","null","<img src=""img/land6.png"" style=""width:200px; border:14px solid green;"">","null","","","","","","","","","",""
"","image-keyboard-response","86","58473","0.0-86.0","34HJIJKLP6I86G0SKDF9MO5EEW7V4V","AYLYY6ANK0URM","3PIOQ99R7Y8STPN46QFY0SD7JTFNU0","","222.79999995231628","img/land2.png","76","223.30000019073486","3","0","3","2","0.8,0.2,0.2,0.2,0.8,0.2,0.2,0.2,0.8","0.2,0.2,0.8,0.8,0.2,0.2,0.2,0.8,0.2","2","",""
"","html-keyboard-response","87","58774","0.0-87.0","34HJIJKLP6I86G0SKDF9MO5EEW7V4V","AYLYY6ANK0URM","3PIOQ99R7Y8STPN46QFY0SD7JTFNU0","","null","<img src=""img/land2.png"" style=""width:200px;border:14px solid red;"">","null","","","","","","","","","",""
"","image-keyboard-response","88","59979","0.0-88.0","34HJIJKLP6I86G0SKDF9MO5EEW7V4V","AYLYY6ANK0URM","3PIOQ99R7Y8STPN46QFY0SD7JTFNU0","","1204.5","img/land6.png","76","1205.2000000476837","3","1","1","2","0.8,0.2,0.2,0.2,0.8,0.2,0.2,0.2,0.8","0.2,0.2,0.8,0.8,0.2,0.2,0.2,0.8,0.2","2","",""
"","html-keyboard-response","89","60281","0.0-89.0","34HJIJKLP6I86G0SKDF9MO5EEW7V4V","AYLYY6ANK0URM","3PIOQ99R7Y8STPN46QFY0SD7JTFNU0","","null","<img src=""img/land6.png"" style=""width:200px; border:14px solid green;"">","null","","","","","","","","","",""
"","image-keyboard-response","90","60673","0.0-90.0","34HJIJKLP6I86G0SKDF9MO5EEW7V4V","AYLYY6ANK0URM","3PIOQ99R7Y8STPN46QFY0SD7JTFNU0","","391.60000014305115","img/land6.png","76","392.09999990463257","3","1","1","2","0.8,0.2,0.2,0.2,0.8,0.2,0.2,0.2,0.8","0.2,0.2,0.8,0.8,0.2,0.2,0.2,0.8,0.2","2","",""
"","html-keyboard-response","91","60974","0.0-91.0","34HJIJKLP6I86G0SKDF9MO5EEW7V4V","AYLYY6ANK0URM","3PIOQ99R7Y8STPN46QFY0SD7JTFNU0","","null","<img src=""img/land6.png"" style=""width:200px; border:14px solid green;"">","null","","","","","","","","","",""
"","image-keyboard-response","92","61660","0.0-92.0","34HJIJKLP6I86G0SKDF9MO5EEW7V4V","AYLYY6ANK0URM","3PIOQ99R7Y8STPN46QFY0SD7JTFNU0","","684.7999999523163","img/land2.png","74","685.3999998569489","1","0","3","2","0.8,0.2,0.2,0.2,0.8,0.2,0.2,0.2,0.8","0.2,0.2,0.8,0.8,0.2,0.2,0.2,0.8,0.2","2","",""
"","html-keyboard-response","93","61961","0.0-93.0","34HJIJKLP6I86G0SKDF9MO5EEW7V4V","AYLYY6ANK0URM","3PIOQ99R7Y8STPN46QFY0SD7JTFNU0","","null","<img src=""img/land2.png"" style=""width:200px;border:14px solid red;"">","null","","","","","","","","","",""
"","image-keyboard-response","94","62679","0.0-94.0","34HJIJKLP6I86G0SKDF9MO5EEW7V4V","AYLYY6ANK0URM","3PIOQ99R7Y8STPN46QFY0SD7JTFNU0","","717.1000001430511","img/land6.png","76","717.5999999046326","3","1","1","2","0.8,0.2,0.2,0.2,0.8,0.2,0.2,0.2,0.8","0.2,0.2,0.8,0.8,0.2,0.2,0.2,0.8,0.2","2","",""
"","html-keyboard-response","95","62981","0.0-95.0","34HJIJKLP6I86G0SKDF9MO5EEW7V4V","AYLYY6ANK0URM","3PIOQ99R7Y8STPN46QFY0SD7JTFNU0","","null","<img src=""img/land6.png"" style=""width:200px; border:14px solid green;"">","null","","","","","","","","","",""
"","image-keyboard-response","96","63355","0.0-96.0","34HJIJKLP6I86G0SKDF9MO5EEW7V4V","AYLYY6ANK0URM","3PIOQ99R7Y8STPN46QFY0SD7JTFNU0","","373.2999999523163","img/land6.png","76","373.7999999523163","3","1","1","2","0.8,0.2,0.2,0.2,0.8,0.2,0.2,0.2,0.8","0.2,0.2,0.8,0.8,0.2,0.2,0.2,0.8,0.2","2","",""
"","html-keyboard-response","97","63656","0.0-97.0","34HJIJKLP6I86G0SKDF9MO5EEW7V4V","AYLYY6ANK0URM","3PIOQ99R7Y8STPN46QFY0SD7JTFNU0","","null","<img src=""img/land6.png"" style=""width:200px; border:14px solid green;"">","null","","","","","","","","","",""
"","image-keyboard-response","98","63966","0.0-98.0","34HJIJKLP6I86G0SKDF9MO5EEW7V4V","AYLYY6ANK0URM","3PIOQ99R7Y8STPN46QFY0SD7JTFNU0","","309.10000014305115","img/land6.png","76","309.59999990463257","3","1","1","2","0.8,0.2,0.2,0.2,0.8,0.2,0.2,0.2,0.8","0.2,0.2,0.8,0.8,0.2,0.2,0.2,0.8,0.2","2","",""
"","html-keyboard-response","99","64268","0.0-99.0","34HJIJKLP6I86G0SKDF9MO5EEW7V4V","AYLYY6ANK0URM","3PIOQ99R7Y8STPN46QFY0SD7JTFNU0","","null","<img src=""img/land6.png"" style=""width:200px; border:14px solid green;"">","null","","","","","","","","","",""
"","image-keyboard-response","100","64787","0.0-100.0","34HJIJKLP6I86G0SKDF9MO5EEW7V4V","AYLYY6ANK0URM","3PIOQ99R7Y8STPN46QFY0SD7JTFNU0","","518.2000000476837","img/land2.png","75","518.7999999523163","2","1","3","2","0.8,0.2,0.2,0.2,0.8,0.2,0.2,0.2,0.8","0.2,0.2,0.8,0.8,0.2,0.2,0.2,0.8,0.2","2","",""
"","html-keyboard-response","101","65088","0.0-101.0","34HJIJKLP6I86G0SKDF9MO5EEW7V4V","AYLYY6ANK0URM","3PIOQ99R7Y8STPN46QFY0SD7JTFNU0","","null","<img src=""img/land2.png"" style=""width:200px; border:14px solid green;"">","null","","","","","","","","","",""
"","image-keyboard-response","102","65911","0.0-102.0","34HJIJKLP6I86G0SKDF9MO5EEW7V4V","AYLYY6ANK0URM","3PIOQ99R7Y8STPN46QFY0SD7JTFNU0","","822.2999999523163","img/land5.png","74","822.7999999523163","1","0","2","2","0.8,0.2,0.2,0.2,0.8,0.2,0.2,0.2,0.8","0.2,0.2,0.8,0.8,0.2,0.2,0.2,0.8,0.2","2","",""
"","html-keyboard-response","103","66212","0.0-103.0","34HJIJKLP6I86G0SKDF9MO5EEW7V4V","AYLYY6ANK0URM","3PIOQ99R7Y8STPN46QFY0SD7JTFNU0","","null","<img src=""img/land5.png"" style=""width:200px;border:14px solid red;"">","null","","","","","","","","","",""
"","image-keyboard-response","104","66758","0.0-104.0","34HJIJKLP6I86G0SKDF9MO5EEW7V4V","AYLYY6ANK0URM","3PIOQ99R7Y8STPN46QFY0SD7JTFNU0","","544.5999999046326","img/land6.png","76","545.2000000476837","3","1","1","2","0.8,0.2,0.2,0.2,0.8,0.2,0.2,0.2,0.8","0.2,0.2,0.8,0.8,0.2,0.2,0.2,0.8,0.2","2","",""
"","html-keyboard-response","105","67058","0.0-105.0","34HJIJKLP6I86G0SKDF9MO5EEW7V4V","AYLYY6ANK0URM","3PIOQ99R7Y8STPN46QFY0SD7JTFNU0","","null","<img src=""img/land6.png"" style=""width:200px; border:14px solid green;"">","null","","","","","","","","","",""
"","image-keyboard-response","106","67726","0.0-106.0","34HJIJKLP6I86G0SKDF9MO5EEW7V4V","AYLYY6ANK0URM","3PIOQ99R7Y8STPN46QFY0SD7JTFNU0","","667.2000000476837","img/land5.png","74","667.8999998569489","1","1","2","2","0.8,0.2,0.2,0.2,0.8,0.2,0.2,0.2,0.8","0.2,0.2,0.8,0.8,0.2,0.2,0.2,0.8,0.2","2","",""
"","html-keyboard-response","107","68028","0.0-107.0","34HJIJKLP6I86G0SKDF9MO5EEW7V4V","AYLYY6ANK0URM","3PIOQ99R7Y8STPN46QFY0SD7JTFNU0","","null","<img src=""img/land5.png"" style=""width:200px; border:14px solid green;"">","null","","","","","","","","","",""
"","image-keyboard-response","108","68405","0.0-108.0","34HJIJKLP6I86G0SKDF9MO5EEW7V4V","AYLYY6ANK0URM","3PIOQ99R7Y8STPN46QFY0SD7JTFNU0","","376.5","img/land5.png","74","377","1","1","2","2","0.8,0.2,0.2,0.2,0.8,0.2,0.2,0.2,0.8","0.2,0.2,0.8,0.8,0.2,0.2,0.2,0.8,0.2","2","",""
"","html-keyboard-response","109","68706","0.0-109.0","34HJIJKLP6I86G0SKDF9MO5EEW7V4V","AYLYY6ANK0URM","3PIOQ99R7Y8STPN46QFY0SD7JTFNU0","","null","<img src=""img/land5.png"" style=""width:200px; border:14px solid green;"">","null","","","","","","","","","",""
"","image-keyboard-response","110","69201","0.0-110.0","34HJIJKLP6I86G0SKDF9MO5EEW7V4V","AYLYY6ANK0URM","3PIOQ99R7Y8STPN46QFY0SD7JTFNU0","","494.7999999523163","img/land6.png","76","495.2999999523163","3","0","1","2","0.8,0.2,0.2,0.2,0.8,0.2,0.2,0.2,0.8","0.2,0.2,0.8,0.8,0.2,0.2,0.2,0.8,0.2","2","",""
"","html-keyboard-response","111","69502","0.0-111.0","34HJIJKLP6I86G0SKDF9MO5EEW7V4V","AYLYY6ANK0URM","3PIOQ99R7Y8STPN46QFY0SD7JTFNU0","","null","<img src=""img/land6.png"" style=""width:200px;border:14px solid red;"">","null","","","","","","","","","",""
"","image-keyboard-response","112","69871","0.0-112.0","34HJIJKLP6I86G0SKDF9MO5EEW7V4V","AYLYY6ANK0URM","3PIOQ99R7Y8STPN46QFY0SD7JTFNU0","","367.7999999523163","img/land6.png","76","368.30000019073486","3","1","1","2","0.8,0.2,0.2,0.2,0.8,0.2,0.2,0.2,0.8","0.2,0.2,0.8,0.8,0.2,0.2,0.2,0.8,0.2","2","",""
"","html-keyboard-response","113","70172","0.0-113.0","34HJIJKLP6I86G0SKDF9MO5EEW7V4V","AYLYY6ANK0URM","3PIOQ99R7Y8STPN46QFY0SD7JTFNU0","","null","<img src=""img/land6.png"" style=""width:200px; border:14px solid green;"">","null","","","","","","","","","",""
"","image-keyboard-response","114","70523","0.0-114.0","34HJIJKLP6I86G0SKDF9MO5EEW7V4V","AYLYY6ANK0URM","3PIOQ99R7Y8STPN46QFY0SD7JTFNU0","","349.7000000476837","img/land6.png","76","350.30000019073486","3","0","1","2","0.8,0.2,0.2,0.2,0.8,0.2,0.2,0.2,0.8","0.2,0.2,0.8,0.8,0.2,0.2,0.2,0.8,0.2","2","",""
"","html-keyboard-response","115","70824","0.0-115.0","34HJIJKLP6I86G0SKDF9MO5EEW7V4V","AYLYY6ANK0URM","3PIOQ99R7Y8STPN46QFY0SD7JTFNU0","","null","<img src=""img/land6.png"" style=""width:200px;border:14px solid red;"">","null","","","","","","","","","",""
"","image-keyboard-response","116","71422","0.0-116.0","34HJIJKLP6I86G0SKDF9MO5EEW7V4V","AYLYY6ANK0URM","3PIOQ99R7Y8STPN46QFY0SD7JTFNU0","","596.7999999523163","img/land2.png","75","597.5","2","1","3","2","0.8,0.2,0.2,0.2,0.8,0.2,0.2,0.2,0.8","0.2,0.2,0.8,0.8,0.2,0.2,0.2,0.8,0.2","2","",""
"","html-keyboard-response","117","71724","0.0-117.0","34HJIJKLP6I86G0SKDF9MO5EEW7V4V","AYLYY6ANK0URM","3PIOQ99R7Y8STPN46QFY0SD7JTFNU0","","null","<img src=""img/land2.png"" style=""width:200px; border:14px solid green;"">","null","","","","","","","","","",""
"","image-keyboard-response","118","72279","0.0-118.0","34HJIJKLP6I86G0SKDF9MO5EEW7V4V","AYLYY6ANK0URM","3PIOQ99R7Y8STPN46QFY0SD7JTFNU0","","555.1000001430511","img/land5.png","74","555.5","1","1","2","2","0.8,0.2,0.2,0.2,0.8,0.2,0.2,0.2,0.8","0.2,0.2,0.8,0.8,0.2,0.2,0.2,0.8,0.2","2","",""
"","html-keyboard-response","119","72581","0.0-119.0","34HJIJKLP6I86G0SKDF9MO5EEW7V4V","AYLYY6ANK0URM","3PIOQ99R7Y8STPN46QFY0SD7JTFNU0","","null","<img src=""img/land5.png"" style=""width:200px; border:14px solid green;"">","null","","","","","","","","","",""
"","image-keyboard-response","120","73302","0.0-120.0","34HJIJKLP6I86G0SKDF9MO5EEW7V4V","AYLYY6ANK0URM","3PIOQ99R7Y8STPN46QFY0SD7JTFNU0","","720.1000001430511","img/land6.png","76","720.7000000476837","3","1","1","2","0.8,0.2,0.2,0.2,0.8,0.2,0.2,0.2,0.8","0.2,0.2,0.8,0.8,0.2,0.2,0.2,0.8,0.2","2","",""
"","html-keyboard-response","121","73604","0.0-121.0","34HJIJKLP6I86G0SKDF9MO5EEW7V4V","AYLYY6ANK0URM","3PIOQ99R7Y8STPN46QFY0SD7JTFNU0","","null","<img src=""img/land6.png"" style=""width:200px; border:14px solid green;"">","null","","","","","","","","","",""
"","image-keyboard-response","122","73973","0.0-122.0","34HJIJKLP6I86G0SKDF9MO5EEW7V4V","AYLYY6ANK0URM","3PIOQ99R7Y8STPN46QFY0SD7JTFNU0","","368.2000000476837","img/land6.png","76","369","3","1","1","2","0.8,0.2,0.2,0.2,0.8,0.2,0.2,0.2,0.8","0.2,0.2,0.8,0.8,0.2,0.2,0.2,0.8,0.2","2","",""
"","html-keyboard-response","123","74274","0.0-123.0","34HJIJKLP6I86G0SKDF9MO5EEW7V4V","AYLYY6ANK0URM","3PIOQ99R7Y8STPN46QFY0SD7JTFNU0","","null","<img src=""img/land6.png"" style=""width:200px; border:14px solid green;"">","null","","","","","","","","","",""
"","image-keyboard-response","124","74601","0.0-124.0","34HJIJKLP6I86G0SKDF9MO5EEW7V4V","AYLYY6ANK0URM","3PIOQ99R7Y8STPN46QFY0SD7JTFNU0","","326.59999990463257","img/land6.png","76","327.10000014305115","3","0","1","2","0.8,0.2,0.2,0.2,0.8,0.2,0.2,0.2,0.8","0.2,0.2,0.8,0.8,0.2,0.2,0.2,0.8,0.2","2","",""
"","html-keyboard-response","125","74903","0.0-125.0","34HJIJKLP6I86G0SKDF9MO5EEW7V4V","AYLYY6ANK0URM","3PIOQ99R7Y8STPN46QFY0SD7JTFNU0","","null","<img src=""img/land6.png"" style=""width:200px;border:14px solid red;"">","null","","","","","","","","","",""
"","image-keyboard-response","126","75643","0.0-126.0","34HJIJKLP6I86G0SKDF9MO5EEW7V4V","AYLYY6ANK0URM","3PIOQ99R7Y8STPN46QFY0SD7JTFNU0","","740.2999999523163","img/land6.png","76","740.7999999523163","3","1","1","2","0.8,0.2,0.2,0.2,0.8,0.2,0.2,0.2,0.8","0.2,0.2,0.8,0.8,0.2,0.2,0.2,0.8,0.2","2","",""
"","html-keyboard-response","127","75945","0.0-127.0","34HJIJKLP6I86G0SKDF9MO5EEW7V4V","AYLYY6ANK0URM","3PIOQ99R7Y8STPN46QFY0SD7JTFNU0","","null","<img src=""img/land6.png"" style=""width:200px; border:14px solid green;"">","null","","","","","","","","","",""
"","image-keyboard-response","128","76536","0.0-128.0","34HJIJKLP6I86G0SKDF9MO5EEW7V4V","AYLYY6ANK0URM","3PIOQ99R7Y8STPN46QFY0SD7JTFNU0","","590.2000000476837","img/land2.png","74","590.7000000476837","1","0","3","2","0.8,0.2,0.2,0.2,0.8,0.2,0.2,0.2,0.8","0.2,0.2,0.8,0.8,0.2,0.2,0.2,0.8,0.2","2","",""
"","html-keyboard-response","129","76837","0.0-129.0","34HJIJKLP6I86G0SKDF9MO5EEW7V4V","AYLYY6ANK0URM","3PIOQ99R7Y8STPN46QFY0SD7JTFNU0","","null","<img src=""img/land2.png"" style=""width:200px;border:14px solid red;"">","null","","","","","","","","","",""
"","image-keyboard-response","130","77595","0.0-130.0","34HJIJKLP6I86G0SKDF9MO5EEW7V4V","AYLYY6ANK0URM","3PIOQ99R7Y8STPN46QFY0SD7JTFNU0","","757.2999999523163","img/land6.png","76","757.7999999523163","3","1","1","2","0.8,0.2,0.2,0.2,0.8,0.2,0.2,0.2,0.8","0.2,0.2,0.8,0.8,0.2,0.2,0.2,0.8,0.2","2","",""
"","html-keyboard-response","131","77896","0.0-131.0","34HJIJKLP6I86G0SKDF9MO5EEW7V4V","AYLYY6ANK0URM","3PIOQ99R7Y8STPN46QFY0SD7JTFNU0","","null","<img src=""img/land6.png"" style=""width:200px; border:14px solid green;"">","null","","","","","","","","","",""
"","image-keyboard-response","132","78474","0.0-132.0","34HJIJKLP6I86G0SKDF9MO5EEW7V4V","AYLYY6ANK0URM","3PIOQ99R7Y8STPN46QFY0SD7JTFNU0","","576.6999998092651","img/land5.png","75","577.3000001907349","2","0","2","2","0.8,0.2,0.2,0.2,0.8,0.2,0.2,0.2,0.8","0.2,0.2,0.8,0.8,0.2,0.2,0.2,0.8,0.2","2","",""
"","html-keyboard-response","133","78775","0.0-133.0","34HJIJKLP6I86G0SKDF9MO5EEW7V4V","AYLYY6ANK0URM","3PIOQ99R7Y8STPN46QFY0SD7JTFNU0","","null","<img src=""img/land5.png"" style=""width:200px;border:14px solid red;"">","null","","","","","","","","","",""
"","image-keyboard-response","134","79395","0.0-134.0","34HJIJKLP6I86G0SKDF9MO5EEW7V4V","AYLYY6ANK0URM","3PIOQ99R7Y8STPN46QFY0SD7JTFNU0","","619.6000001430511","img/land6.png","76","620.2999999523163","3","1","1","2","0.8,0.2,0.2,0.2,0.8,0.2,0.2,0.2,0.8","0.2,0.2,0.8,0.8,0.2,0.2,0.2,0.8,0.2","2","",""
"","html-keyboard-response","135","79707","0.0-135.0","34HJIJKLP6I86G0SKDF9MO5EEW7V4V","AYLYY6ANK0URM","3PIOQ99R7Y8STPN46QFY0SD7JTFNU0","","null","<img src=""img/land6.png"" style=""width:200px; border:14px solid green;"">","null","","","","","","","","","",""
"","image-keyboard-response","136","80599","0.0-136.0","34HJIJKLP6I86G0SKDF9MO5EEW7V4V","AYLYY6ANK0URM","3PIOQ99R7Y8STPN46QFY0SD7JTFNU0","","891","img/land2.png","74","891.5","1","1","3","2","0.8,0.2,0.2,0.2,0.8,0.2,0.2,0.2,0.8","0.2,0.2,0.8,0.8,0.2,0.2,0.2,0.8,0.2","2","",""
"","html-keyboard-response","137","80900","0.0-137.0","34HJIJKLP6I86G0SKDF9MO5EEW7V4V","AYLYY6ANK0URM","3PIOQ99R7Y8STPN46QFY0SD7JTFNU0","","null","<img src=""img/land2.png"" style=""width:200px; border:14px solid green;"">","null","","","","","","","","","",""
"","image-keyboard-response","138","81629","0.0-138.0","34HJIJKLP6I86G0SKDF9MO5EEW7V4V","AYLYY6ANK0URM","3PIOQ99R7Y8STPN46QFY0SD7JTFNU0","","728.1000001430511","img/land6.png","76","728.7000000476837","3","1","1","2","0.8,0.2,0.2,0.2,0.8,0.2,0.2,0.2,0.8","0.2,0.2,0.8,0.8,0.2,0.2,0.2,0.8,0.2","2","",""
"","html-keyboard-response","139","81930","0.0-139.0","34HJIJKLP6I86G0SKDF9MO5EEW7V4V","AYLYY6ANK0URM","3PIOQ99R7Y8STPN46QFY0SD7JTFNU0","","null","<img src=""img/land6.png"" style=""width:200px; border:14px solid green;"">","null","","","","","","","","","",""
"","image-keyboard-response","140","82319","0.0-140.0","34HJIJKLP6I86G0SKDF9MO5EEW7V4V","AYLYY6ANK0URM","3PIOQ99R7Y8STPN46QFY0SD7JTFNU0","","388.60000014305115","img/land6.png","74","389","1","0","1","2","0.8,0.2,0.2,0.2,0.8,0.2,0.2,0.2,0.8","0.2,0.2,0.8,0.8,0.2,0.2,0.2,0.8,0.2","2","",""
"","html-keyboard-response","141","82621","0.0-141.0","34HJIJKLP6I86G0SKDF9MO5EEW7V4V","AYLYY6ANK0URM","3PIOQ99R7Y8STPN46QFY0SD7JTFNU0","","null","<img src=""img/land6.png"" style=""width:200px;border:14px solid red;"">","null","","","","","","","","","",""
"","image-keyboard-response","142","83332","0.0-142.0","34HJIJKLP6I86G0SKDF9MO5EEW7V4V","AYLYY6ANK0URM","3PIOQ99R7Y8STPN46QFY0SD7JTFNU0","","710.4000000953674","img/land2.png","74","711.2000000476837","1","1","3","2","0.8,0.2,0.2,0.2,0.8,0.2,0.2,0.2,0.8","0.2,0.2,0.8,0.8,0.2,0.2,0.2,0.8,0.2","2","",""
"","html-keyboard-response","143","83634","0.0-143.0","34HJIJKLP6I86G0SKDF9MO5EEW7V4V","AYLYY6ANK0URM","3PIOQ99R7Y8STPN46QFY0SD7JTFNU0","","null","<img src=""img/land2.png"" style=""width:200px; border:14px solid green;"">","null","","","","","","","","","",""
"","image-keyboard-response","144","84226","0.0-144.0","34HJIJKLP6I86G0SKDF9MO5EEW7V4V","AYLYY6ANK0URM","3PIOQ99R7Y8STPN46QFY0SD7JTFNU0","","591.5999999046326","img/land6.png","76","592.1000001430511","3","1","1","2","0.8,0.2,0.2,0.2,0.8,0.2,0.2,0.2,0.8","0.2,0.2,0.8,0.8,0.2,0.2,0.2,0.8,0.2","2","",""
"","html-keyboard-response","145","84528","0.0-145.0","34HJIJKLP6I86G0SKDF9MO5EEW7V4V","AYLYY6ANK0URM","3PIOQ99R7Y8STPN46QFY0SD7JTFNU0","","null","<img src=""img/land6.png"" style=""width:200px; border:14px solid green;"">","null","","","","","","","","","",""
"","image-keyboard-response","146","85129","0.0-146.0","34HJIJKLP6I86G0SKDF9MO5EEW7V4V","AYLYY6ANK0URM","3PIOQ99R7Y8STPN46QFY0SD7JTFNU0","","600.2999999523163","img/land5.png","75","600.7000000476837","2","0","2","2","0.8,0.2,0.2,0.2,0.8,0.2,0.2,0.2,0.8","0.2,0.2,0.8,0.8,0.2,0.2,0.2,0.8,0.2","2","",""
"","html-keyboard-response","147","85443","0.0-147.0","34HJIJKLP6I86G0SKDF9MO5EEW7V4V","AYLYY6ANK0URM","3PIOQ99R7Y8STPN46QFY0SD7JTFNU0","","null","<img src=""img/land5.png"" style=""width:200px;border:14px solid red;"">","null","","","","","","","","","",""
"","image-keyboard-response","148","86078","0.0-148.0","34HJIJKLP6I86G0SKDF9MO5EEW7V4V","AYLYY6ANK0URM","3PIOQ99R7Y8STPN46QFY0SD7JTFNU0","","633.7000000476837","img/land6.png","76","634.5","3","1","1","2","0.8,0.2,0.2,0.2,0.8,0.2,0.2,0.2,0.8","0.2,0.2,0.8,0.8,0.2,0.2,0.2,0.8,0.2","2","",""
"","html-keyboard-response","149","86379","0.0-149.0","34HJIJKLP6I86G0SKDF9MO5EEW7V4V","AYLYY6ANK0URM","3PIOQ99R7Y8STPN46QFY0SD7JTFNU0","","null","<img src=""img/land6.png"" style=""width:200px; border:14px solid green;"">","null","","","","","","","","","",""
"","image-keyboard-response","150","87140","0.0-150.0","34HJIJKLP6I86G0SKDF9MO5EEW7V4V","AYLYY6ANK0URM","3PIOQ99R7Y8STPN46QFY0SD7JTFNU0","","760.2999999523163","img/land5.png","74","760.9000000953674","1","1","2","2","0.8,0.2,0.2,0.2,0.8,0.2,0.2,0.2,0.8","0.2,0.2,0.8,0.8,0.2,0.2,0.2,0.8,0.2","2","",""
"","html-keyboard-response","151","87441","0.0-151.0","34HJIJKLP6I86G0SKDF9MO5EEW7V4V","AYLYY6ANK0URM","3PIOQ99R7Y8STPN46QFY0SD7JTFNU0","","null","<img src=""img/land5.png"" style=""width:200px; border:14px solid green;"">","null","","","","","","","","","",""
"","image-keyboard-response","152","88310","0.0-152.0","34HJIJKLP6I86G0SKDF9MO5EEW7V4V","AYLYY6ANK0URM","3PIOQ99R7Y8STPN46QFY0SD7JTFNU0","","867.5","img/land6.png","76","868.2000000476837","3","0","1","2","0.8,0.2,0.2,0.2,0.8,0.2,0.2,0.2,0.8","0.2,0.2,0.8,0.8,0.2,0.2,0.2,0.8,0.2","2","",""
"","html-keyboard-response","153","88612","0.0-153.0","34HJIJKLP6I86G0SKDF9MO5EEW7V4V","AYLYY6ANK0URM","3PIOQ99R7Y8STPN46QFY0SD7JTFNU0","","null","<img src=""img/land6.png"" style=""width:200px;border:14px solid red;"">","null","","","","","","","","","",""
"","image-keyboard-response","154","89302","0.0-154.0","34HJIJKLP6I86G0SKDF9MO5EEW7V4V","AYLYY6ANK0URM","3PIOQ99R7Y8STPN46QFY0SD7JTFNU0","","689.4000000953674","img/land2.png","75","689.8999998569489","2","1","3","2","0.8,0.2,0.2,0.2,0.8,0.2,0.2,0.2,0.8","0.2,0.2,0.8,0.8,0.2,0.2,0.2,0.8,0.2","2","",""
"","html-keyboard-response","155","89604","0.0-155.0","34HJIJKLP6I86G0SKDF9MO5EEW7V4V","AYLYY6ANK0URM","3PIOQ99R7Y8STPN46QFY0SD7JTFNU0","","null","<img src=""img/land2.png"" style=""width:200px; border:14px solid green;"">","null","","","","","","","","","",""
"","image-keyboard-response","156","90111","0.0-156.0","34HJIJKLP6I86G0SKDF9MO5EEW7V4V","AYLYY6ANK0URM","3PIOQ99R7Y8STPN46QFY0SD7JTFNU0","","506.2999999523163","img/land6.png","76","506.7999999523163","3","0","1","2","0.8,0.2,0.2,0.2,0.8,0.2,0.2,0.2,0.8","0.2,0.2,0.8,0.8,0.2,0.2,0.2,0.8,0.2","2","",""
"","html-keyboard-response","157","90412","0.0-157.0","34HJIJKLP6I86G0SKDF9MO5EEW7V4V","AYLYY6ANK0URM","3PIOQ99R7Y8STPN46QFY0SD7JTFNU0","","null","<img src=""img/land6.png"" style=""width:200px;border:14px solid red;"">","null","","","","","","","","","",""
"","image-keyboard-response","158","90829","0.0-158.0","34HJIJKLP6I86G0SKDF9MO5EEW7V4V","AYLYY6ANK0URM","3PIOQ99R7Y8STPN46QFY0SD7JTFNU0","","416.60000014305115","img/land6.png","76","417","3","1","1","2","0.8,0.2,0.2,0.2,0.8,0.2,0.2,0.2,0.8","0.2,0.2,0.8,0.8,0.2,0.2,0.2,0.8,0.2","2","",""
"","html-keyboard-response","159","91131","0.0-159.0","34HJIJKLP6I86G0SKDF9MO5EEW7V4V","AYLYY6ANK0URM","3PIOQ99R7Y8STPN46QFY0SD7JTFNU0","","null","<img src=""img/land6.png"" style=""width:200px; border:14px solid green;"">","null","","","","","","","","","",""
"","image-keyboard-response","160","91659","0.0-160.0","34HJIJKLP6I86G0SKDF9MO5EEW7V4V","AYLYY6ANK0URM","3PIOQ99R7Y8STPN46QFY0SD7JTFNU0","","526.5","img/land2.png","75","527.1000001430511","2","1","3","2","0.8,0.2,0.2,0.2,0.8,0.2,0.2,0.2,0.8","0.2,0.2,0.8,0.8,0.2,0.2,0.2,0.8,0.2","2","",""
"","html-keyboard-response","161","91959","0.0-161.0","34HJIJKLP6I86G0SKDF9MO5EEW7V4V","AYLYY6ANK0URM","3PIOQ99R7Y8STPN46QFY0SD7JTFNU0","","null","<img src=""img/land2.png"" style=""width:200px; border:14px solid green;"">","null","","","","","","","","","",""
"","image-keyboard-response","162","92344","0.0-162.0","34HJIJKLP6I86G0SKDF9MO5EEW7V4V","AYLYY6ANK0URM","3PIOQ99R7Y8STPN46QFY0SD7JTFNU0","","383.59999990463257","img/land2.png","75","384","2","1","3","2","0.8,0.2,0.2,0.2,0.8,0.2,0.2,0.2,0.8","0.2,0.2,0.8,0.8,0.2,0.2,0.2,0.8,0.2","2","",""
"","html-keyboard-response","163","92645","0.0-163.0","34HJIJKLP6I86G0SKDF9MO5EEW7V4V","AYLYY6ANK0URM","3PIOQ99R7Y8STPN46QFY0SD7JTFNU0","","null","<img src=""img/land2.png"" style=""width:200px; border:14px solid green;"">","null","","","","","","","","","",""
"","image-keyboard-response","164","93238","0.0-164.0","34HJIJKLP6I86G0SKDF9MO5EEW7V4V","AYLYY6ANK0URM","3PIOQ99R7Y8STPN46QFY0SD7JTFNU0","","591.5","img/land5.png","74","592.4000000953674","1","1","2","2","0.8,0.2,0.2,0.2,0.8,0.2,0.2,0.2,0.8","0.2,0.2,0.8,0.8,0.2,0.2,0.2,0.8,0.2","2","",""
"","html-keyboard-response","165","93539","0.0-165.0","34HJIJKLP6I86G0SKDF9MO5EEW7V4V","AYLYY6ANK0URM","3PIOQ99R7Y8STPN46QFY0SD7JTFNU0","","null","<img src=""img/land5.png"" style=""width:200px; border:14px solid green;"">","null","","","","","","","","","",""
"","image-keyboard-response","166","94109","0.0-166.0","34HJIJKLP6I86G0SKDF9MO5EEW7V4V","AYLYY6ANK0URM","3PIOQ99R7Y8STPN46QFY0SD7JTFNU0","","568.8999998569489","img/land2.png","76","569.7000000476837","3","0","3","2","0.8,0.2,0.2,0.2,0.8,0.2,0.2,0.2,0.8","0.2,0.2,0.8,0.8,0.2,0.2,0.2,0.8,0.2","2","",""
"","html-keyboard-response","167","94411","0.0-167.0","34HJIJKLP6I86G0SKDF9MO5EEW7V4V","AYLYY6ANK0URM","3PIOQ99R7Y8STPN46QFY0SD7JTFNU0","","null","<img src=""img/land2.png"" style=""width:200px;border:14px solid red;"">","null","","","","","","","","","",""
"","image-keyboard-response","168","95156","0.0-168.0","34HJIJKLP6I86G0SKDF9MO5EEW7V4V","AYLYY6ANK0URM","3PIOQ99R7Y8STPN46QFY0SD7JTFNU0","","744.7999999523163","img/land6.png","76","745.2999999523163","3","1","1","2","0.8,0.2,0.2,0.2,0.8,0.2,0.2,0.2,0.8","0.2,0.2,0.8,0.8,0.2,0.2,0.2,0.8,0.2","2","",""
"","html-keyboard-response","169","95457","0.0-169.0","34HJIJKLP6I86G0SKDF9MO5EEW7V4V","AYLYY6ANK0URM","3PIOQ99R7Y8STPN46QFY0SD7JTFNU0","","null","<img src=""img/land6.png"" style=""width:200px; border:14px solid green;"">","null","","","","","","","","","",""
"","image-keyboard-response","170","96108","0.0-170.0","34HJIJKLP6I86G0SKDF9MO5EEW7V4V","AYLYY6ANK0URM","3PIOQ99R7Y8STPN46QFY0SD7JTFNU0","","650.9000000953674","img/land5.png","74","651.4000000953674","1","1","2","2","0.8,0.2,0.2,0.2,0.8,0.2,0.2,0.2,0.8","0.2,0.2,0.8,0.8,0.2,0.2,0.2,0.8,0.2","2","",""
"","html-keyboard-response","171","96422","0.0-171.0","34HJIJKLP6I86G0SKDF9MO5EEW7V4V","AYLYY6ANK0URM","3PIOQ99R7Y8STPN46QFY0SD7JTFNU0","","null","<img src=""img/land5.png"" style=""width:200px; border:14px solid green;"">","null","","","","","","","","","",""
"","image-keyboard-response","172","98157","0.0-172.0","34HJIJKLP6I86G0SKDF9MO5EEW7V4V","AYLYY6ANK0URM","3PIOQ99R7Y8STPN46QFY0SD7JTFNU0","","1733.9000000953674","img/land2.png","76","1734.5","3","0","3","2","0.8,0.2,0.2,0.2,0.8,0.2,0.2,0.2,0.8","0.2,0.2,0.8,0.8,0.2,0.2,0.2,0.8,0.2","2","",""
"","html-keyboard-response","173","98458","0.0-173.0","34HJIJKLP6I86G0SKDF9MO5EEW7V4V","AYLYY6ANK0URM","3PIOQ99R7Y8STPN46QFY0SD7JTFNU0","","null","<img src=""img/land2.png"" style=""width:200px;border:14px solid red;"">","null","","","","","","","","","",""
"","image-keyboard-response","174","99209","0.0-174.0","34HJIJKLP6I86G0SKDF9MO5EEW7V4V","AYLYY6ANK0URM","3PIOQ99R7Y8STPN46QFY0SD7JTFNU0","","750.5","img/land2.png","75","751.1000001430511","2","1","3","2","0.8,0.2,0.2,0.2,0.8,0.2,0.2,0.2,0.8","0.2,0.2,0.8,0.8,0.2,0.2,0.2,0.8,0.2","2","",""
"","html-keyboard-response","175","99512","0.0-175.0","34HJIJKLP6I86G0SKDF9MO5EEW7V4V","AYLYY6ANK0URM","3PIOQ99R7Y8STPN46QFY0SD7JTFNU0","","null","<img src=""img/land2.png"" style=""width:200px; border:14px solid green;"">","null","","","","","","","","","",""
"","image-keyboard-response","176","100199","0.0-176.0","34HJIJKLP6I86G0SKDF9MO5EEW7V4V","AYLYY6ANK0URM","3PIOQ99R7Y8STPN46QFY0SD7JTFNU0","","686.7999999523163","img/land6.png","76","687.3999998569489","3","1","1","2","0.8,0.2,0.2,0.2,0.8,0.2,0.2,0.2,0.8","0.2,0.2,0.8,0.8,0.2,0.2,0.2,0.8,0.2","2","",""
"","html-keyboard-response","177","100502","0.0-177.0","34HJIJKLP6I86G0SKDF9MO5EEW7V4V","AYLYY6ANK0URM","3PIOQ99R7Y8STPN46QFY0SD7JTFNU0","","null","<img src=""img/land6.png"" style=""width:200px; border:14px solid green;"">","null","","","","","","","","","",""
"","image-keyboard-response","178","100899","0.0-178.0","34HJIJKLP6I86G0SKDF9MO5EEW7V4V","AYLYY6ANK0URM","3PIOQ99R7Y8STPN46QFY0SD7JTFNU0","","397","img/land6.png","76","397.59999990463257","3","0","1","2","0.8,0.2,0.2,0.2,0.8,0.2,0.2,0.2,0.8","0.2,0.2,0.8,0.8,0.2,0.2,0.2,0.8,0.2","2","",""
"","html-keyboard-response","179","101202","0.0-179.0","34HJIJKLP6I86G0SKDF9MO5EEW7V4V","AYLYY6ANK0URM","3PIOQ99R7Y8STPN46QFY0SD7JTFNU0","","null","<img src=""img/land6.png"" style=""width:200px;border:14px solid red;"">","null","","","","","","","","","",""
"","image-keyboard-response","180","101832","0.0-180.0","34HJIJKLP6I86G0SKDF9MO5EEW7V4V","AYLYY6ANK0URM","3PIOQ99R7Y8STPN46QFY0SD7JTFNU0","","630","img/land5.png","74","630.5999999046326","1","1","2","2","0.8,0.2,0.2,0.2,0.8,0.2,0.2,0.2,0.8","0.2,0.2,0.8,0.8,0.2,0.2,0.2,0.8,0.2","2","",""
"","html-keyboard-response","181","102135","0.0-181.0","34HJIJKLP6I86G0SKDF9MO5EEW7V4V","AYLYY6ANK0URM","3PIOQ99R7Y8STPN46QFY0SD7JTFNU0","","null","<img src=""img/land5.png"" style=""width:200px; border:14px solid green;"">","null","","","","","","","","","",""
"","image-keyboard-response","182","102877","0.0-182.0","34HJIJKLP6I86G0SKDF9MO5EEW7V4V","AYLYY6ANK0URM","3PIOQ99R7Y8STPN46QFY0SD7JTFNU0","","741.7999999523163","img/land6.png","76","742.5","3","1","1","2","0.8,0.2,0.2,0.2,0.8,0.2,0.2,0.2,0.8","0.2,0.2,0.8,0.8,0.2,0.2,0.2,0.8,0.2","2","",""
"","html-keyboard-response","183","103179","0.0-183.0","34HJIJKLP6I86G0SKDF9MO5EEW7V4V","AYLYY6ANK0URM","3PIOQ99R7Y8STPN46QFY0SD7JTFNU0","","null","<img src=""img/land6.png"" style=""width:200px; border:14px solid green;"">","null","","","","","","","","","",""
"","image-keyboard-response","184","103732","0.0-184.0","34HJIJKLP6I86G0SKDF9MO5EEW7V4V","AYLYY6ANK0URM","3PIOQ99R7Y8STPN46QFY0SD7JTFNU0","","552.7999999523163","img/land5.png","74","553.3999998569489","1","1","2","2","0.8,0.2,0.2,0.2,0.8,0.2,0.2,0.2,0.8","0.2,0.2,0.8,0.8,0.2,0.2,0.2,0.8,0.2","2","",""
"","html-keyboard-response","185","104034","0.0-185.0","34HJIJKLP6I86G0SKDF9MO5EEW7V4V","AYLYY6ANK0URM","3PIOQ99R7Y8STPN46QFY0SD7JTFNU0","","null","<img src=""img/land5.png"" style=""width:200px; border:14px solid green;"">","null","","","","","","","","","",""
"","image-keyboard-response","186","104488","0.0-186.0","34HJIJKLP6I86G0SKDF9MO5EEW7V4V","AYLYY6ANK0URM","3PIOQ99R7Y8STPN46QFY0SD7JTFNU0","","454.09999990463257","img/land6.png","76","454.69999980926514","3","1","1","2","0.8,0.2,0.2,0.2,0.8,0.2,0.2,0.2,0.8","0.2,0.2,0.8,0.8,0.2,0.2,0.2,0.8,0.2","2","",""
"","html-keyboard-response","187","104790","0.0-187.0","34HJIJKLP6I86G0SKDF9MO5EEW7V4V","AYLYY6ANK0URM","3PIOQ99R7Y8STPN46QFY0SD7JTFNU0","","null","<img src=""img/land6.png"" style=""width:200px; border:14px solid green;"">","null","","","","","","","","","",""
"","image-keyboard-response","188","105402","0.0-188.0","34HJIJKLP6I86G0SKDF9MO5EEW7V4V","AYLYY6ANK0URM","3PIOQ99R7Y8STPN46QFY0SD7JTFNU0","","611.7000000476837","img/land2.png","75","612.2999999523163","2","1","3","2","0.8,0.2,0.2,0.2,0.8,0.2,0.2,0.2,0.8","0.2,0.2,0.8,0.8,0.2,0.2,0.2,0.8,0.2","2","",""
"","html-keyboard-response","189","105705","0.0-189.0","34HJIJKLP6I86G0SKDF9MO5EEW7V4V","AYLYY6ANK0URM","3PIOQ99R7Y8STPN46QFY0SD7JTFNU0","","null","<img src=""img/land2.png"" style=""width:200px; border:14px solid green;"">","null","","","","","","","","","",""
"","image-keyboard-response","190","106296","0.0-190.0","34HJIJKLP6I86G0SKDF9MO5EEW7V4V","AYLYY6ANK0URM","3PIOQ99R7Y8STPN46QFY0SD7JTFNU0","","591","img/land6.png","76","591.3999998569489","3","1","1","2","0.8,0.2,0.2,0.2,0.8,0.2,0.2,0.2,0.8","0.2,0.2,0.8,0.8,0.2,0.2,0.2,0.8,0.2","2","",""
"","html-keyboard-response","191","106598","0.0-191.0","34HJIJKLP6I86G0SKDF9MO5EEW7V4V","AYLYY6ANK0URM","3PIOQ99R7Y8STPN46QFY0SD7JTFNU0","","null","<img src=""img/land6.png"" style=""width:200px; border:14px solid green;"">","null","","","","","","","","","",""
"","image-keyboard-response","192","107231","0.0-192.0","34HJIJKLP6I86G0SKDF9MO5EEW7V4V","AYLYY6ANK0URM","3PIOQ99R7Y8STPN46QFY0SD7JTFNU0","","630.6999998092651","img/land2.png","75","632.5","2","1","3","2","0.8,0.2,0.2,0.2,0.8,0.2,0.2,0.2,0.8","0.2,0.2,0.8,0.8,0.2,0.2,0.2,0.8,0.2","2","",""
"","html-keyboard-response","193","107532","0.0-193.0","34HJIJKLP6I86G0SKDF9MO5EEW7V4V","AYLYY6ANK0URM","3PIOQ99R7Y8STPN46QFY0SD7JTFNU0","","null","<img src=""img/land2.png"" style=""width:200px; border:14px solid green;"">","null","","","","","","","","","",""
"","image-keyboard-response","194","107927","0.0-194.0","34HJIJKLP6I86G0SKDF9MO5EEW7V4V","AYLYY6ANK0URM","3PIOQ99R7Y8STPN46QFY0SD7JTFNU0","","394.69999980926514","img/land2.png","75","395.2000000476837","2","1","3","2","0.8,0.2,0.2,0.2,0.8,0.2,0.2,0.2,0.8","0.2,0.2,0.8,0.8,0.2,0.2,0.2,0.8,0.2","2","",""
"","html-keyboard-response","195","108229","0.0-195.0","34HJIJKLP6I86G0SKDF9MO5EEW7V4V","AYLYY6ANK0URM","3PIOQ99R7Y8STPN46QFY0SD7JTFNU0","","null","<img src=""img/land2.png"" style=""width:200px; border:14px solid green;"">","null","","","","","","","","","",""
"","image-keyboard-response","196","108535","0.0-196.0","34HJIJKLP6I86G0SKDF9MO5EEW7V4V","AYLYY6ANK0URM","3PIOQ99R7Y8STPN46QFY0SD7JTFNU0","","305.59999990463257","img/land2.png","75","306.40000009536743","2","1","3","2","0.8,0.2,0.2,0.2,0.8,0.2,0.2,0.2,0.8","0.2,0.2,0.8,0.8,0.2,0.2,0.2,0.8,0.2","2","",""
"","html-keyboard-response","197","108836","0.0-197.0","34HJIJKLP6I86G0SKDF9MO5EEW7V4V","AYLYY6ANK0URM","3PIOQ99R7Y8STPN46QFY0SD7JTFNU0","","null","<img src=""img/land2.png"" style=""width:200px; border:14px solid green;"">","null","","","","","","","","","",""
"","image-keyboard-response","198","109105","0.0-198.0","34HJIJKLP6I86G0SKDF9MO5EEW7V4V","AYLYY6ANK0URM","3PIOQ99R7Y8STPN46QFY0SD7JTFNU0","","268.10000014305115","img/land2.png","75","268.60000014305115","2","1","3","2","0.8,0.2,0.2,0.2,0.8,0.2,0.2,0.2,0.8","0.2,0.2,0.8,0.8,0.2,0.2,0.2,0.8,0.2","2","",""
"","html-keyboard-response","199","109407","0.0-199.0","34HJIJKLP6I86G0SKDF9MO5EEW7V4V","AYLYY6ANK0URM","3PIOQ99R7Y8STPN46QFY0SD7JTFNU0","","null","<img src=""img/land2.png"" style=""width:200px; border:14px solid green;"">","null","","","","","","","","","",""
"","image-keyboard-response","200","110020","0.0-200.0","34HJIJKLP6I86G0SKDF9MO5EEW7V4V","AYLYY6ANK0URM","3PIOQ99R7Y8STPN46QFY0SD7JTFNU0","","612.2999999523163","img/land5.png","74","612.9000000953674","1","1","2","2","0.8,0.2,0.2,0.2,0.8,0.2,0.2,0.2,0.8","0.2,0.2,0.8,0.8,0.2,0.2,0.2,0.8,0.2","2","",""
"","html-keyboard-response","201","110321","0.0-201.0","34HJIJKLP6I86G0SKDF9MO5EEW7V4V","AYLYY6ANK0URM","3PIOQ99R7Y8STPN46QFY0SD7JTFNU0","","null","<img src=""img/land5.png"" style=""width:200px; border:14px solid green;"">","null","","","","","","","","","",""
"","image-keyboard-response","202","110658","0.0-202.0","34HJIJKLP6I86G0SKDF9MO5EEW7V4V","AYLYY6ANK0URM","3PIOQ99R7Y8STPN46QFY0SD7JTFNU0","","336.19999980926514","img/land5.png","74","336.5","1","1","2","2","0.8,0.2,0.2,0.2,0.8,0.2,0.2,0.2,0.8","0.2,0.2,0.8,0.8,0.2,0.2,0.2,0.8,0.2","2","",""
"","html-keyboard-response","203","110959","0.0-203.0","34HJIJKLP6I86G0SKDF9MO5EEW7V4V","AYLYY6ANK0URM","3PIOQ99R7Y8STPN46QFY0SD7JTFNU0","","null","<img src=""img/land5.png"" style=""width:200px; border:14px solid green;"">","null","","","","","","","","","",""
"","image-keyboard-response","204","111251","0.0-204.0","34HJIJKLP6I86G0SKDF9MO5EEW7V4V","AYLYY6ANK0URM","3PIOQ99R7Y8STPN46QFY0SD7JTFNU0","","291.5","img/land6.png","74","292","1","0","1","2","0.8,0.2,0.2,0.2,0.8,0.2,0.2,0.2,0.8","0.2,0.2,0.8,0.8,0.2,0.2,0.2,0.8,0.2","2","",""
"","html-keyboard-response","205","111554","0.0-205.0","34HJIJKLP6I86G0SKDF9MO5EEW7V4V","AYLYY6ANK0URM","3PIOQ99R7Y8STPN46QFY0SD7JTFNU0","","null","<img src=""img/land6.png"" style=""width:200px;border:14px solid red;"">","null","","","","","","","","","",""
"","image-keyboard-response","206","112111","0.0-206.0","34HJIJKLP6I86G0SKDF9MO5EEW7V4V","AYLYY6ANK0URM","3PIOQ99R7Y8STPN46QFY0SD7JTFNU0","","556.5999999046326","img/land5.png","74","557","1","1","2","2","0.8,0.2,0.2,0.2,0.8,0.2,0.2,0.2,0.8","0.2,0.2,0.8,0.8,0.2,0.2,0.2,0.8,0.2","2","",""
"","html-keyboard-response","207","112415","0.0-207.0","34HJIJKLP6I86G0SKDF9MO5EEW7V4V","AYLYY6ANK0URM","3PIOQ99R7Y8STPN46QFY0SD7JTFNU0","","null","<img src=""img/land5.png"" style=""width:200px; border:14px solid green;"">","null","","","","","","","","","",""
"","image-keyboard-response","208","112945","0.0-208.0","34HJIJKLP6I86G0SKDF9MO5EEW7V4V","AYLYY6ANK0URM","3PIOQ99R7Y8STPN46QFY0SD7JTFNU0","","529.3999998569489","img/land6.png","76","530.0999999046326","3","0","1","2","0.8,0.2,0.2,0.2,0.8,0.2,0.2,0.2,0.8","0.2,0.2,0.8,0.8,0.2,0.2,0.2,0.8,0.2","2","",""
"","html-keyboard-response","209","113246","0.0-209.0","34HJIJKLP6I86G0SKDF9MO5EEW7V4V","AYLYY6ANK0URM","3PIOQ99R7Y8STPN46QFY0SD7JTFNU0","","null","<img src=""img/land6.png"" style=""width:200px;border:14px solid red;"">","null","","","","","","","","","",""
"","image-keyboard-response","210","113619","0.0-210.0","34HJIJKLP6I86G0SKDF9MO5EEW7V4V","AYLYY6ANK0URM","3PIOQ99R7Y8STPN46QFY0SD7JTFNU0","","372.60000014305115","img/land6.png","76","373.2000000476837","3","0","1","2","0.8,0.2,0.2,0.2,0.8,0.2,0.2,0.2,0.8","0.2,0.2,0.8,0.8,0.2,0.2,0.2,0.8,0.2","2","",""
"","html-keyboard-response","211","113922","0.0-211.0","34HJIJKLP6I86G0SKDF9MO5EEW7V4V","AYLYY6ANK0URM","3PIOQ99R7Y8STPN46QFY0SD7JTFNU0","","null","<img src=""img/land6.png"" style=""width:200px;border:14px solid red;"">","null","","","","","","","","","",""
"","image-keyboard-response","212","114255","0.0-212.0","34HJIJKLP6I86G0SKDF9MO5EEW7V4V","AYLYY6ANK0URM","3PIOQ99R7Y8STPN46QFY0SD7JTFNU0","","332.60000014305115","img/land6.png","76","333","3","0","1","2","0.8,0.2,0.2,0.2,0.8,0.2,0.2,0.2,0.8","0.2,0.2,0.8,0.8,0.2,0.2,0.2,0.8,0.2","2","",""
"","html-keyboard-response","213","114556","0.0-213.0","34HJIJKLP6I86G0SKDF9MO5EEW7V4V","AYLYY6ANK0URM","3PIOQ99R7Y8STPN46QFY0SD7JTFNU0","","null","<img src=""img/land6.png"" style=""width:200px;border:14px solid red;"">","null","","","","","","","","","",""
"","image-keyboard-response","214","115126","0.0-214.0","34HJIJKLP6I86G0SKDF9MO5EEW7V4V","AYLYY6ANK0URM","3PIOQ99R7Y8STPN46QFY0SD7JTFNU0","","569.7999999523163","img/land5.png","74","570.2000000476837","1","1","2","2","0.8,0.2,0.2,0.2,0.8,0.2,0.2,0.2,0.8","0.2,0.2,0.8,0.8,0.2,0.2,0.2,0.8,0.2","2","",""
"","html-keyboard-response","215","115427","0.0-215.0","34HJIJKLP6I86G0SKDF9MO5EEW7V4V","AYLYY6ANK0URM","3PIOQ99R7Y8STPN46QFY0SD7JTFNU0","","null","<img src=""img/land5.png"" style=""width:200px; border:14px solid green;"">","null","","","","","","","","","",""
"","image-keyboard-response","216","115892","0.0-216.0","34HJIJKLP6I86G0SKDF9MO5EEW7V4V","AYLYY6ANK0URM","3PIOQ99R7Y8STPN46QFY0SD7JTFNU0","","463.90000009536743","img/land6.png","76","464.5","3","1","1","2","0.8,0.2,0.2,0.2,0.8,0.2,0.2,0.2,0.8","0.2,0.2,0.8,0.8,0.2,0.2,0.2,0.8,0.2","2","",""
"","html-keyboard-response","217","116194","0.0-217.0","34HJIJKLP6I86G0SKDF9MO5EEW7V4V","AYLYY6ANK0URM","3PIOQ99R7Y8STPN46QFY0SD7JTFNU0","","null","<img src=""img/land6.png"" style=""width:200px; border:14px solid green;"">","null","","","","","","","","","",""
"","image-keyboard-response","218","116579","0.0-218.0","34HJIJKLP6I86G0SKDF9MO5EEW7V4V","AYLYY6ANK0URM","3PIOQ99R7Y8STPN46QFY0SD7JTFNU0","","384.09999990463257","img/land6.png","76","384.7000000476837","3","0","1","2","0.8,0.2,0.2,0.2,0.8,0.2,0.2,0.2,0.8","0.2,0.2,0.8,0.8,0.2,0.2,0.2,0.8,0.2","2","",""
"","html-keyboard-response","219","116880","0.0-219.0","34HJIJKLP6I86G0SKDF9MO5EEW7V4V","AYLYY6ANK0URM","3PIOQ99R7Y8STPN46QFY0SD7JTFNU0","","null","<img src=""img/land6.png"" style=""width:200px;border:14px solid red;"">","null","","","","","","","","","",""
"","image-keyboard-response","220","117199","0.0-220.0","34HJIJKLP6I86G0SKDF9MO5EEW7V4V","AYLYY6ANK0URM","3PIOQ99R7Y8STPN46QFY0SD7JTFNU0","","318.7999999523163","img/land6.png","76","319.2999999523163","3","0","1","2","0.8,0.2,0.2,0.2,0.8,0.2,0.2,0.2,0.8","0.2,0.2,0.8,0.8,0.2,0.2,0.2,0.8,0.2","2","",""
"","html-keyboard-response","221","117501","0.0-221.0","34HJIJKLP6I86G0SKDF9MO5EEW7V4V","AYLYY6ANK0URM","3PIOQ99R7Y8STPN46QFY0SD7JTFNU0","","null","<img src=""img/land6.png"" style=""width:200px;border:14px solid red;"">","null","","","","","","","","","",""
"","image-keyboard-response","222","117721","0.0-222.0","34HJIJKLP6I86G0SKDF9MO5EEW7V4V","AYLYY6ANK0URM","3PIOQ99R7Y8STPN46QFY0SD7JTFNU0","","218.89999985694885","img/land2.png","76","219.5","3","1","3","2","0.8,0.2,0.2,0.2,0.8,0.2,0.2,0.2,0.8","0.2,0.2,0.8,0.8,0.2,0.2,0.2,0.8,0.2","2","",""
"","html-keyboard-response","223","118023","0.0-223.0","34HJIJKLP6I86G0SKDF9MO5EEW7V4V","AYLYY6ANK0URM","3PIOQ99R7Y8STPN46QFY0SD7JTFNU0","","null","<img src=""img/land2.png"" style=""width:200px; border:14px solid green;"">","null","","","","","","","","","",""
"","image-keyboard-response","224","119502","0.0-224.0","34HJIJKLP6I86G0SKDF9MO5EEW7V4V","AYLYY6ANK0URM","3PIOQ99R7Y8STPN46QFY0SD7JTFNU0","","1478.5","img/land6.png","76","1478.8999998569489","3","1","1","2","0.8,0.2,0.2,0.2,0.8,0.2,0.2,0.2,0.8","0.2,0.2,0.8,0.8,0.2,0.2,0.2,0.8,0.2","2","",""
"","html-keyboard-response","225","119803","0.0-225.0","34HJIJKLP6I86G0SKDF9MO5EEW7V4V","AYLYY6ANK0URM","3PIOQ99R7Y8STPN46QFY0SD7JTFNU0","","null","<img src=""img/land6.png"" style=""width:200px; border:14px solid green;"">","null","","","","","","","","","",""
"","image-keyboard-response","226","120165","0.0-226.0","34HJIJKLP6I86G0SKDF9MO5EEW7V4V","AYLYY6ANK0URM","3PIOQ99R7Y8STPN46QFY0SD7JTFNU0","","360.69999980926514","img/land6.png","76","361.39999985694885","3","1","1","2","0.8,0.2,0.2,0.2,0.8,0.2,0.2,0.2,0.8","0.2,0.2,0.8,0.8,0.2,0.2,0.2,0.8,0.2","2","",""
"","html-keyboard-response","227","120466","0.0-227.0","34HJIJKLP6I86G0SKDF9MO5EEW7V4V","AYLYY6ANK0URM","3PIOQ99R7Y8STPN46QFY0SD7JTFNU0","","null","<img src=""img/land6.png"" style=""width:200px; border:14px solid green;"">","null","","","","","","","","","",""
"","image-keyboard-response","228","120769","0.0-228.0","34HJIJKLP6I86G0SKDF9MO5EEW7V4V","AYLYY6ANK0URM","3PIOQ99R7Y8STPN46QFY0SD7JTFNU0","","301.90000009536743","img/land6.png","76","302.40000009536743","3","1","1","2","0.8,0.2,0.2,0.2,0.8,0.2,0.2,0.2,0.8","0.2,0.2,0.8,0.8,0.2,0.2,0.2,0.8,0.2","2","",""
"","html-keyboard-response","229","121070","0.0-229.0","34HJIJKLP6I86G0SKDF9MO5EEW7V4V","AYLYY6ANK0URM","3PIOQ99R7Y8STPN46QFY0SD7JTFNU0","","null","<img src=""img/land6.png"" style=""width:200px; border:14px solid green;"">","null","","","","","","","","","",""
"","image-keyboard-response","230","121349","0.0-230.0","34HJIJKLP6I86G0SKDF9MO5EEW7V4V","AYLYY6ANK0URM","3PIOQ99R7Y8STPN46QFY0SD7JTFNU0","","278.2999999523163","img/land6.png","76","278.80000019073486","3","1","1","2","0.8,0.2,0.2,0.2,0.8,0.2,0.2,0.2,0.8","0.2,0.2,0.8,0.8,0.2,0.2,0.2,0.8,0.2","2","",""
"","html-keyboard-response","231","121651","0.0-231.0","34HJIJKLP6I86G0SKDF9MO5EEW7V4V","AYLYY6ANK0URM","3PIOQ99R7Y8STPN46QFY0SD7JTFNU0","","null","<img src=""img/land6.png"" style=""width:200px; border:14px solid green;"">","null","","","","","","","","","",""
"","image-keyboard-response","232","121982","0.0-232.0","34HJIJKLP6I86G0SKDF9MO5EEW7V4V","AYLYY6ANK0URM","3PIOQ99R7Y8STPN46QFY0SD7JTFNU0","","329.59999990463257","img/land6.png","76","330.30000019073486","3","0","1","2","0.8,0.2,0.2,0.2,0.8,0.2,0.2,0.2,0.8","0.2,0.2,0.8,0.8,0.2,0.2,0.2,0.8,0.2","2","",""
"","html-keyboard-response","233","122283","0.0-233.0","34HJIJKLP6I86G0SKDF9MO5EEW7V4V","AYLYY6ANK0URM","3PIOQ99R7Y8STPN46QFY0SD7JTFNU0","","null","<img src=""img/land6.png"" style=""width:200px;border:14px solid red;"">","null","","","","","","","","","",""
"","image-keyboard-response","234","122544","0.0-234.0","34HJIJKLP6I86G0SKDF9MO5EEW7V4V","AYLYY6ANK0URM","3PIOQ99R7Y8STPN46QFY0SD7JTFNU0","","260.80000019073486","img/land6.png","76","261.2000000476837","3","1","1","2","0.8,0.2,0.2,0.2,0.8,0.2,0.2,0.2,0.8","0.2,0.2,0.8,0.8,0.2,0.2,0.2,0.8,0.2","2","",""
"","html-keyboard-response","235","122846","0.0-235.0","34HJIJKLP6I86G0SKDF9MO5EEW7V4V","AYLYY6ANK0URM","3PIOQ99R7Y8STPN46QFY0SD7JTFNU0","","null","<img src=""img/land6.png"" style=""width:200px; border:14px solid green;"">","null","","","","","","","","","",""
"","image-keyboard-response","236","123072","0.0-236.0","34HJIJKLP6I86G0SKDF9MO5EEW7V4V","AYLYY6ANK0URM","3PIOQ99R7Y8STPN46QFY0SD7JTFNU0","","225.29999995231628","img/land6.png","76","225.80000019073486","3","1","1","2","0.8,0.2,0.2,0.2,0.8,0.2,0.2,0.2,0.8","0.2,0.2,0.8,0.8,0.2,0.2,0.2,0.8,0.2","2","",""
"","html-keyboard-response","237","123374","0.0-237.0","34HJIJKLP6I86G0SKDF9MO5EEW7V4V","AYLYY6ANK0URM","3PIOQ99R7Y8STPN46QFY0SD7JTFNU0","","null","<img src=""img/land6.png"" style=""width:200px; border:14px solid green;"">","null","","","","","","","","","",""
"","image-keyboard-response","238","123952","0.0-238.0","34HJIJKLP6I86G0SKDF9MO5EEW7V4V","AYLYY6ANK0URM","3PIOQ99R7Y8STPN46QFY0SD7JTFNU0","","578.2000000476837","img/land2.png","75","578.7999999523163","2","1","3","2","0.8,0.2,0.2,0.2,0.8,0.2,0.2,0.2,0.8","0.2,0.2,0.8,0.8,0.2,0.2,0.2,0.8,0.2","2","",""
"","html-keyboard-response","239","124254","0.0-239.0","34HJIJKLP6I86G0SKDF9MO5EEW7V4V","AYLYY6ANK0URM","3PIOQ99R7Y8STPN46QFY0SD7JTFNU0","","null","<img src=""img/land2.png"" style=""width:200px; border:14px solid green;"">","null","","","","","","","","","",""
"","image-keyboard-response","240","124936","0.0-240.0","34HJIJKLP6I86G0SKDF9MO5EEW7V4V","AYLYY6ANK0URM","3PIOQ99R7Y8STPN46QFY0SD7JTFNU0","","681.1999998092651","img/land6.png","76","681.7999999523163","3","1","1","2","0.8,0.2,0.2,0.2,0.8,0.2,0.2,0.2,0.8","0.2,0.2,0.8,0.8,0.2,0.2,0.2,0.8,0.2","2","",""
"","html-keyboard-response","241","125237","0.0-241.0","34HJIJKLP6I86G0SKDF9MO5EEW7V4V","AYLYY6ANK0URM","3PIOQ99R7Y8STPN46QFY0SD7JTFNU0","","null","<img src=""img/land6.png"" style=""width:200px; border:14px solid green;"">","null","","","","","","","","","",""
"","image-keyboard-response","242","125582","0.0-242.0","34HJIJKLP6I86G0SKDF9MO5EEW7V4V","AYLYY6ANK0URM","3PIOQ99R7Y8STPN46QFY0SD7JTFNU0","","344.60000014305115","img/land6.png","76","345.19999980926514","3","1","1","2","0.8,0.2,0.2,0.2,0.8,0.2,0.2,0.2,0.8","0.2,0.2,0.8,0.8,0.2,0.2,0.2,0.8,0.2","2","",""
"","html-keyboard-response","243","125883","0.0-243.0","34HJIJKLP6I86G0SKDF9MO5EEW7V4V","AYLYY6ANK0URM","3PIOQ99R7Y8STPN46QFY0SD7JTFNU0","","null","<img src=""img/land6.png"" style=""width:200px; border:14px solid green;"">","null","","","","","","","","","",""
"","image-keyboard-response","244","126196","0.0-244.0","34HJIJKLP6I86G0SKDF9MO5EEW7V4V","AYLYY6ANK0URM","3PIOQ99R7Y8STPN46QFY0SD7JTFNU0","","311.7000000476837","img/land6.png","76","312.09999990463257","3","0","1","2","0.8,0.2,0.2,0.2,0.8,0.2,0.2,0.2,0.8","0.2,0.2,0.8,0.8,0.2,0.2,0.2,0.8,0.2","2","",""
"","html-keyboard-response","245","126503","0.0-245.0","34HJIJKLP6I86G0SKDF9MO5EEW7V4V","AYLYY6ANK0URM","3PIOQ99R7Y8STPN46QFY0SD7JTFNU0","","null","<img src=""img/land6.png"" style=""width:200px;border:14px solid red;"">","null","","","","","","","","","",""
"","image-keyboard-response","246","127131","0.0-246.0","34HJIJKLP6I86G0SKDF9MO5EEW7V4V","AYLYY6ANK0URM","3PIOQ99R7Y8STPN46QFY0SD7JTFNU0","","627.5","img/land5.png","74","628.1000001430511","1","1","2","2","0.8,0.2,0.2,0.2,0.8,0.2,0.2,0.2,0.8","0.2,0.2,0.8,0.8,0.2,0.2,0.2,0.8,0.2","2","",""
"","html-keyboard-response","247","127433","0.0-247.0","34HJIJKLP6I86G0SKDF9MO5EEW7V4V","AYLYY6ANK0URM","3PIOQ99R7Y8STPN46QFY0SD7JTFNU0","","null","<img src=""img/land5.png"" style=""width:200px; border:14px solid green;"">","null","","","","","","","","","",""
"","image-keyboard-response","248","128368","0.0-248.0","34HJIJKLP6I86G0SKDF9MO5EEW7V4V","AYLYY6ANK0URM","3PIOQ99R7Y8STPN46QFY0SD7JTFNU0","","934.1999998092651","img/land6.png","76","935","3","1","1","2","0.8,0.2,0.2,0.2,0.8,0.2,0.2,0.2,0.8","0.2,0.2,0.8,0.8,0.2,0.2,0.2,0.8,0.2","2","",""
"","html-keyboard-response","249","128669","0.0-249.0","34HJIJKLP6I86G0SKDF9MO5EEW7V4V","AYLYY6ANK0URM","3PIOQ99R7Y8STPN46QFY0SD7JTFNU0","","null","<img src=""img/land6.png"" style=""width:200px; border:14px solid green;"">","null","","","","","","","","","",""
"","image-keyboard-response","250","129028","0.0-250.0","34HJIJKLP6I86G0SKDF9MO5EEW7V4V","AYLYY6ANK0URM","3PIOQ99R7Y8STPN46QFY0SD7JTFNU0","","357.7999999523163","img/land6.png","76","358.30000019073486","3","1","1","2","0.8,0.2,0.2,0.2,0.8,0.2,0.2,0.2,0.8","0.2,0.2,0.8,0.8,0.2,0.2,0.2,0.8,0.2","2","",""
"","html-keyboard-response","251","129328","0.0-251.0","34HJIJKLP6I86G0SKDF9MO5EEW7V4V","AYLYY6ANK0URM","3PIOQ99R7Y8STPN46QFY0SD7JTFNU0","","null","<img src=""img/land6.png"" style=""width:200px; border:14px solid green;"">","null","","","","","","","","","",""
"","image-keyboard-response","252","129674","0.0-252.0","34HJIJKLP6I86G0SKDF9MO5EEW7V4V","AYLYY6ANK0URM","3PIOQ99R7Y8STPN46QFY0SD7JTFNU0","","344.5","img/land6.png","76","345.10000014305115","3","1","1","2","0.8,0.2,0.2,0.2,0.8,0.2,0.2,0.2,0.8","0.2,0.2,0.8,0.8,0.2,0.2,0.2,0.8,0.2","2","",""
"","html-keyboard-response","253","129988","0.0-253.0","34HJIJKLP6I86G0SKDF9MO5EEW7V4V","AYLYY6ANK0URM","3PIOQ99R7Y8STPN46QFY0SD7JTFNU0","","null","<img src=""img/land6.png"" style=""width:200px; border:14px solid green;"">","null","","","","","","","","","",""
"","image-keyboard-response","254","130310","0.0-254.0","34HJIJKLP6I86G0SKDF9MO5EEW7V4V","AYLYY6ANK0URM","3PIOQ99R7Y8STPN46QFY0SD7JTFNU0","","320.39999985694885","img/land6.png","76","320.90000009536743","3","1","1","2","0.8,0.2,0.2,0.2,0.8,0.2,0.2,0.2,0.8","0.2,0.2,0.8,0.8,0.2,0.2,0.2,0.8,0.2","2","",""
"","html-keyboard-response","255","130610","0.0-255.0","34HJIJKLP6I86G0SKDF9MO5EEW7V4V","AYLYY6ANK0URM","3PIOQ99R7Y8STPN46QFY0SD7JTFNU0","","null","<img src=""img/land6.png"" style=""width:200px; border:14px solid green;"">","null","","","","","","","","","",""
"","image-keyboard-response","256","130866","0.0-256.0","34HJIJKLP6I86G0SKDF9MO5EEW7V4V","AYLYY6ANK0URM","3PIOQ99R7Y8STPN46QFY0SD7JTFNU0","","254.79999995231628","img/land6.png","76","255.29999995231628","3","1","1","2","0.8,0.2,0.2,0.2,0.8,0.2,0.2,0.2,0.8","0.2,0.2,0.8,0.8,0.2,0.2,0.2,0.8,0.2","2","",""
"","html-keyboard-response","257","131167","0.0-257.0","34HJIJKLP6I86G0SKDF9MO5EEW7V4V","AYLYY6ANK0URM","3PIOQ99R7Y8STPN46QFY0SD7JTFNU0","","null","<img src=""img/land6.png"" style=""width:200px; border:14px solid green;"">","null","","","","","","","","","",""
"","image-keyboard-response","258","131400","0.0-258.0","34HJIJKLP6I86G0SKDF9MO5EEW7V4V","AYLYY6ANK0URM","3PIOQ99R7Y8STPN46QFY0SD7JTFNU0","","231.5","img/land6.png","76","232.30000019073486","3","1","1","2","0.8,0.2,0.2,0.2,0.8,0.2,0.2,0.2,0.8","0.2,0.2,0.8,0.8,0.2,0.2,0.2,0.8,0.2","2","",""
"","html-keyboard-response","259","131701","0.0-259.0","34HJIJKLP6I86G0SKDF9MO5EEW7V4V","AYLYY6ANK0URM","3PIOQ99R7Y8STPN46QFY0SD7JTFNU0","","null","<img src=""img/land6.png"" style=""width:200px; border:14px solid green;"">","null","","","","","","","","","",""
"","image-keyboard-response","260","131954","0.0-260.0","34HJIJKLP6I86G0SKDF9MO5EEW7V4V","AYLYY6ANK0URM","3PIOQ99R7Y8STPN46QFY0SD7JTFNU0","","252","img/land2.png","76","252.5","3","0","3","2","0.8,0.2,0.2,0.2,0.8,0.2,0.2,0.2,0.8","0.2,0.2,0.8,0.8,0.2,0.2,0.2,0.8,0.2","2","",""
"","html-keyboard-response","261","132268","0.0-261.0","34HJIJKLP6I86G0SKDF9MO5EEW7V4V","AYLYY6ANK0URM","3PIOQ99R7Y8STPN46QFY0SD7JTFNU0","","null","<img src=""img/land2.png"" style=""width:200px;border:14px solid red;"">","null","","","","","","","","","",""
"","image-keyboard-response","262","132826","0.0-262.0","34HJIJKLP6I86G0SKDF9MO5EEW7V4V","AYLYY6ANK0URM","3PIOQ99R7Y8STPN46QFY0SD7JTFNU0","","557.2000000476837","img/land6.png","76","557.8999998569489","3","0","1","2","0.8,0.2,0.2,0.2,0.8,0.2,0.2,0.2,0.8","0.2,0.2,0.8,0.8,0.2,0.2,0.2,0.8,0.2","2","",""
"","html-keyboard-response","263","133127","0.0-263.0","34HJIJKLP6I86G0SKDF9MO5EEW7V4V","AYLYY6ANK0URM","3PIOQ99R7Y8STPN46QFY0SD7JTFNU0","","null","<img src=""img/land6.png"" style=""width:200px;border:14px solid red;"">","null","","","","","","","","","",""
"","image-keyboard-response","264","133976","0.0-264.0","34HJIJKLP6I86G0SKDF9MO5EEW7V4V","AYLYY6ANK0URM","3PIOQ99R7Y8STPN46QFY0SD7JTFNU0","","848.7000000476837","img/land2.png","75","849.2999999523163","2","1","3","2","0.8,0.2,0.2,0.2,0.8,0.2,0.2,0.2,0.8","0.2,0.2,0.8,0.8,0.2,0.2,0.2,0.8,0.2","2","",""
"","html-keyboard-response","265","134277","0.0-265.0","34HJIJKLP6I86G0SKDF9MO5EEW7V4V","AYLYY6ANK0URM","3PIOQ99R7Y8STPN46QFY0SD7JTFNU0","","null","<img src=""img/land2.png"" style=""width:200px; border:14px solid green;"">","null","","","","","","","","","",""
"","image-keyboard-response","266","134665","0.0-266.0","34HJIJKLP6I86G0SKDF9MO5EEW7V4V","AYLYY6ANK0URM","3PIOQ99R7Y8STPN46QFY0SD7JTFNU0","","386.89999985694885","img/land2.png","75","387.5","2","1","3","2","0.8,0.2,0.2,0.2,0.8,0.2,0.2,0.2,0.8","0.2,0.2,0.8,0.8,0.2,0.2,0.2,0.8,0.2","2","",""
"","html-keyboard-response","267","134967","0.0-267.0","34HJIJKLP6I86G0SKDF9MO5EEW7V4V","AYLYY6ANK0URM","3PIOQ99R7Y8STPN46QFY0SD7JTFNU0","","null","<img src=""img/land2.png"" style=""width:200px; border:14px solid green;"">","null","","","","","","","","","",""
"","image-keyboard-response","268","135645","0.0-268.0","34HJIJKLP6I86G0SKDF9MO5EEW7V4V","AYLYY6ANK0URM","3PIOQ99R7Y8STPN46QFY0SD7JTFNU0","","677.5999999046326","img/land6.png","76","678.0999999046326","3","1","1","2","0.8,0.2,0.2,0.2,0.8,0.2,0.2,0.2,0.8","0.2,0.2,0.8,0.8,0.2,0.2,0.2,0.8,0.2","2","",""
"","html-keyboard-response","269","135947","0.0-269.0","34HJIJKLP6I86G0SKDF9MO5EEW7V4V","AYLYY6ANK0URM","3PIOQ99R7Y8STPN46QFY0SD7JTFNU0","","null","<img src=""img/land6.png"" style=""width:200px; border:14px solid green;"">","null","","","","","","","","","",""
"","image-keyboard-response","270","136513","0.0-270.0","34HJIJKLP6I86G0SKDF9MO5EEW7V4V","AYLYY6ANK0URM","3PIOQ99R7Y8STPN46QFY0SD7JTFNU0","","565.2999999523163","img/land5.png","74","566.0999999046326","1","1","2","2","0.8,0.2,0.2,0.2,0.8,0.2,0.2,0.2,0.8","0.2,0.2,0.8,0.8,0.2,0.2,0.2,0.8,0.2","2","",""
"","html-keyboard-response","271","136815","0.0-271.0","34HJIJKLP6I86G0SKDF9MO5EEW7V4V","AYLYY6ANK0URM","3PIOQ99R7Y8STPN46QFY0SD7JTFNU0","","null","<img src=""img/land5.png"" style=""width:200px; border:14px solid green;"">","null","","","","","","","","","",""
"","image-keyboard-response","272","137200","0.0-272.0","34HJIJKLP6I86G0SKDF9MO5EEW7V4V","AYLYY6ANK0URM","3PIOQ99R7Y8STPN46QFY0SD7JTFNU0","","384.40000009536743","img/land5.png","74","384.89999985694885","1","1","2","2","0.8,0.2,0.2,0.2,0.8,0.2,0.2,0.2,0.8","0.2,0.2,0.8,0.8,0.2,0.2,0.2,0.8,0.2","2","",""
"","html-keyboard-response","273","137502","0.0-273.0","34HJIJKLP6I86G0SKDF9MO5EEW7V4V","AYLYY6ANK0URM","3PIOQ99R7Y8STPN46QFY0SD7JTFNU0","","null","<img src=""img/land5.png"" style=""width:200px; border:14px solid green;"">","null","","","","","","","","","",""
"","image-keyboard-response","274","137782","0.0-274.0","34HJIJKLP6I86G0SKDF9MO5EEW7V4V","AYLYY6ANK0URM","3PIOQ99R7Y8STPN46QFY0SD7JTFNU0","","279.40000009536743","img/land2.png","74","280","1","1","3","2","0.8,0.2,0.2,0.2,0.8,0.2,0.2,0.2,0.8","0.2,0.2,0.8,0.8,0.2,0.2,0.2,0.8,0.2","2","",""
"","html-keyboard-response","275","138083","0.0-275.0","34HJIJKLP6I86G0SKDF9MO5EEW7V4V","AYLYY6ANK0URM","3PIOQ99R7Y8STPN46QFY0SD7JTFNU0","","null","<img src=""img/land2.png"" style=""width:200px; border:14px solid green;"">","null","","","","","","","","","",""
"","image-keyboard-response","276","138753","0.0-276.0","34HJIJKLP6I86G0SKDF9MO5EEW7V4V","AYLYY6ANK0URM","3PIOQ99R7Y8STPN46QFY0SD7JTFNU0","","669.3999998569489","img/land6.png","76","670","3","1","1","2","0.8,0.2,0.2,0.2,0.8,0.2,0.2,0.2,0.8","0.2,0.2,0.8,0.8,0.2,0.2,0.2,0.8,0.2","2","",""
"","html-keyboard-response","277","139055","0.0-277.0","34HJIJKLP6I86G0SKDF9MO5EEW7V4V","AYLYY6ANK0URM","3PIOQ99R7Y8STPN46QFY0SD7JTFNU0","","null","<img src=""img/land6.png"" style=""width:200px; border:14px solid green;"">","null","","","","","","","","","",""
"","image-keyboard-response","278","139618","0.0-278.0","34HJIJKLP6I86G0SKDF9MO5EEW7V4V","AYLYY6ANK0URM","3PIOQ99R7Y8STPN46QFY0SD7JTFNU0","","562","img/land5.png","74","562.5999999046326","1","1","2","2","0.8,0.2,0.2,0.2,0.8,0.2,0.2,0.2,0.8","0.2,0.2,0.8,0.8,0.2,0.2,0.2,0.8,0.2","2","",""
"","html-keyboard-response","279","139920","0.0-279.0","34HJIJKLP6I86G0SKDF9MO5EEW7V4V","AYLYY6ANK0URM","3PIOQ99R7Y8STPN46QFY0SD7JTFNU0","","null","<img src=""img/land5.png"" style=""width:200px; border:14px solid green;"">","null","","","","","","","","","",""
"","image-keyboard-response","280","140249","0.0-280.0","34HJIJKLP6I86G0SKDF9MO5EEW7V4V","AYLYY6ANK0URM","3PIOQ99R7Y8STPN46QFY0SD7JTFNU0","","328.2000000476837","img/land5.png","74","328.7999999523163","1","0","2","2","0.8,0.2,0.2,0.2,0.8,0.2,0.2,0.2,0.8","0.2,0.2,0.8,0.8,0.2,0.2,0.2,0.8,0.2","2","",""
"","html-keyboard-response","281","140551","0.0-281.0","34HJIJKLP6I86G0SKDF9MO5EEW7V4V","AYLYY6ANK0URM","3PIOQ99R7Y8STPN46QFY0SD7JTFNU0","","null","<img src=""img/land5.png"" style=""width:200px;border:14px solid red;"">","null","","","","","","","","","",""
"","image-keyboard-response","282","141141","0.0-282.0","34HJIJKLP6I86G0SKDF9MO5EEW7V4V","AYLYY6ANK0URM","3PIOQ99R7Y8STPN46QFY0SD7JTFNU0","","589.2999999523163","img/land6.png","76","590","3","0","1","2","0.8,0.2,0.2,0.2,0.8,0.2,0.2,0.2,0.8","0.2,0.2,0.8,0.8,0.2,0.2,0.2,0.8,0.2","2","",""
"","html-keyboard-response","283","141454","0.0-283.0","34HJIJKLP6I86G0SKDF9MO5EEW7V4V","AYLYY6ANK0URM","3PIOQ99R7Y8STPN46QFY0SD7JTFNU0","","null","<img src=""img/land6.png"" style=""width:200px;border:14px solid red;"">","null","","","","","","","","","",""
"","image-keyboard-response","284","141897","0.0-284.0","34HJIJKLP6I86G0SKDF9MO5EEW7V4V","AYLYY6ANK0URM","3PIOQ99R7Y8STPN46QFY0SD7JTFNU0","","442.5","img/land6.png","76","443","3","1","1","2","0.8,0.2,0.2,0.2,0.8,0.2,0.2,0.2,0.8","0.2,0.2,0.8,0.8,0.2,0.2,0.2,0.8,0.2","2","",""
"","html-keyboard-response","285","142199","0.0-285.0","34HJIJKLP6I86G0SKDF9MO5EEW7V4V","AYLYY6ANK0URM","3PIOQ99R7Y8STPN46QFY0SD7JTFNU0","","null","<img src=""img/land6.png"" style=""width:200px; border:14px solid green;"">","null","","","","","","","","","",""
"","image-keyboard-response","286","142736","0.0-286.0","34HJIJKLP6I86G0SKDF9MO5EEW7V4V","AYLYY6ANK0URM","3PIOQ99R7Y8STPN46QFY0SD7JTFNU0","","536.7000000476837","img/land5.png","74","537.2999999523163","1","1","2","2","0.8,0.2,0.2,0.2,0.8,0.2,0.2,0.2,0.8","0.2,0.2,0.8,0.8,0.2,0.2,0.2,0.8,0.2","2","",""
"","html-keyboard-response","287","143038","0.0-287.0","34HJIJKLP6I86G0SKDF9MO5EEW7V4V","AYLYY6ANK0URM","3PIOQ99R7Y8STPN46QFY0SD7JTFNU0","","null","<img src=""img/land5.png"" style=""width:200px; border:14px solid green;"">","null","","","","","","","","","",""
"","image-keyboard-response","288","143541","0.0-288.0","34HJIJKLP6I86G0SKDF9MO5EEW7V4V","AYLYY6ANK0URM","3PIOQ99R7Y8STPN46QFY0SD7JTFNU0","","502","img/land6.png","76","502.59999990463257","3","1","1","2","0.8,0.2,0.2,0.2,0.8,0.2,0.2,0.2,0.8","0.2,0.2,0.8,0.8,0.2,0.2,0.2,0.8,0.2","2","",""
"","html-keyboard-response","289","143842","0.0-289.0","34HJIJKLP6I86G0SKDF9MO5EEW7V4V","AYLYY6ANK0URM","3PIOQ99R7Y8STPN46QFY0SD7JTFNU0","","null","<img src=""img/land6.png"" style=""width:200px; border:14px solid green;"">","null","","","","","","","","","",""
"","image-keyboard-response","290","144462","0.0-290.0","34HJIJKLP6I86G0SKDF9MO5EEW7V4V","AYLYY6ANK0URM","3PIOQ99R7Y8STPN46QFY0SD7JTFNU0","","619.3999998569489","img/land2.png","75","620","2","1","3","2","0.8,0.2,0.2,0.2,0.8,0.2,0.2,0.2,0.8","0.2,0.2,0.8,0.8,0.2,0.2,0.2,0.8,0.2","2","",""
"","html-keyboard-response","291","144764","0.0-291.0","34HJIJKLP6I86G0SKDF9MO5EEW7V4V","AYLYY6ANK0URM","3PIOQ99R7Y8STPN46QFY0SD7JTFNU0","","null","<img src=""img/land2.png"" style=""width:200px; border:14px solid green;"">","null","","","","","","","","","",""
"","image-keyboard-response","292","145398","0.0-292.0","34HJIJKLP6I86G0SKDF9MO5EEW7V4V","AYLYY6ANK0URM","3PIOQ99R7Y8STPN46QFY0SD7JTFNU0","","633.6999998092651","img/land6.png","76","634.2000000476837","3","1","1","2","0.8,0.2,0.2,0.2,0.8,0.2,0.2,0.2,0.8","0.2,0.2,0.8,0.8,0.2,0.2,0.2,0.8,0.2","2","",""
"","html-keyboard-response","293","145699","0.0-293.0","34HJIJKLP6I86G0SKDF9MO5EEW7V4V","AYLYY6ANK0URM","3PIOQ99R7Y8STPN46QFY0SD7JTFNU0","","null","<img src=""img/land6.png"" style=""width:200px; border:14px solid green;"">","null","","","","","","","","","",""
"","image-keyboard-response","294","146519","0.0-294.0","34HJIJKLP6I86G0SKDF9MO5EEW7V4V","AYLYY6ANK0URM","3PIOQ99R7Y8STPN46QFY0SD7JTFNU0","","818.7000000476837","img/land2.png","75","819.0999999046326","2","0","3","2","0.8,0.2,0.2,0.2,0.8,0.2,0.2,0.2,0.8","0.2,0.2,0.8,0.8,0.2,0.2,0.2,0.8,0.2","2","",""
"","html-keyboard-response","295","146820","0.0-295.0","34HJIJKLP6I86G0SKDF9MO5EEW7V4V","AYLYY6ANK0URM","3PIOQ99R7Y8STPN46QFY0SD7JTFNU0","","null","<img src=""img/land2.png"" style=""width:200px;border:14px solid red;"">","null","","","","","","","","","",""
"","image-keyboard-response","296","147327","0.0-296.0","34HJIJKLP6I86G0SKDF9MO5EEW7V4V","AYLYY6ANK0URM","3PIOQ99R7Y8STPN46QFY0SD7JTFNU0","","507.10000014305115","img/land6.png","76","507.59999990463257","3","1","1","2","0.8,0.2,0.2,0.2,0.8,0.2,0.2,0.2,0.8","0.2,0.2,0.8,0.8,0.2,0.2,0.2,0.8,0.2","2","",""
"","html-keyboard-response","297","147628","0.0-297.0","34HJIJKLP6I86G0SKDF9MO5EEW7V4V","AYLYY6ANK0URM","3PIOQ99R7Y8STPN46QFY0SD7JTFNU0","","null","<img src=""img/land6.png"" style=""width:200px; border:14px solid green;"">","null","","","","","","","","","",""
"","image-keyboard-response","298","148041","0.0-298.0","34HJIJKLP6I86G0SKDF9MO5EEW7V4V","AYLYY6ANK0URM","3PIOQ99R7Y8STPN46QFY0SD7JTFNU0","","412.09999990463257","img/land6.png","76","412.60000014305115","3","1","1","2","0.8,0.2,0.2,0.2,0.8,0.2,0.2,0.2,0.8","0.2,0.2,0.8,0.8,0.2,0.2,0.2,0.8,0.2","2","",""
"","html-keyboard-response","299","148343","0.0-299.0","34HJIJKLP6I86G0SKDF9MO5EEW7V4V","AYLYY6ANK0URM","3PIOQ99R7Y8STPN46QFY0SD7JTFNU0","","null","<img src=""img/land6.png"" style=""width:200px; border:14px solid green;"">","null","","","","","","","","","",""
"","image-keyboard-response","300","148832","0.0-300.0","34HJIJKLP6I86G0SKDF9MO5EEW7V4V","AYLYY6ANK0URM","3PIOQ99R7Y8STPN46QFY0SD7JTFNU0","","488.7000000476837","img/land6.png","76","489.40000009536743","3","1","1","2","0.8,0.2,0.2,0.2,0.8,0.2,0.2,0.2,0.8","0.2,0.2,0.8,0.8,0.2,0.2,0.2,0.8,0.2","2","",""
"","html-keyboard-response","301","149134","0.0-301.0","34HJIJKLP6I86G0SKDF9MO5EEW7V4V","AYLYY6ANK0URM","3PIOQ99R7Y8STPN46QFY0SD7JTFNU0","","null","<img src=""img/land6.png"" style=""width:200px; border:14px solid green;"">","null","","","","","","","","","",""
"","image-keyboard-response","302","150788","0.0-302.0","34HJIJKLP6I86G0SKDF9MO5EEW7V4V","AYLYY6ANK0URM","3PIOQ99R7Y8STPN46QFY0SD7JTFNU0","","1653.5999999046326","img/land4.png","76","1654.1000001430511","3","1","1","1","0.8,0.2,0.2,0.2,0.8,0.2,0.2,0.2,0.8","0.8,0.2,0.2,0.2,0.8,0.2,0.2,0.2,0.8","1","",""
"","html-keyboard-response","303","151089","0.0-303.0","34HJIJKLP6I86G0SKDF9MO5EEW7V4V","AYLYY6ANK0URM","3PIOQ99R7Y8STPN46QFY0SD7JTFNU0","","null","<img src=""img/land4.png"" style=""width:200px; border:14px solid green;"">","null","","","","","","","","","",""
"","image-keyboard-response","304","151482","0.0-304.0","34HJIJKLP6I86G0SKDF9MO5EEW7V4V","AYLYY6ANK0URM","3PIOQ99R7Y8STPN46QFY0SD7JTFNU0","","392","img/land4.png","76","392.60000014305115","3","0","1","1","0.8,0.2,0.2,0.2,0.8,0.2,0.2,0.2,0.8","0.8,0.2,0.2,0.2,0.8,0.2,0.2,0.2,0.8","1","",""
"","html-keyboard-response","305","151783","0.0-305.0","34HJIJKLP6I86G0SKDF9MO5EEW7V4V","AYLYY6ANK0URM","3PIOQ99R7Y8STPN46QFY0SD7JTFNU0","","null","<img src=""img/land4.png"" style=""width:200px;border:14px solid red;"">","null","","","","","","","","","",""
"","image-keyboard-response","306","153785","0.0-306.0","34HJIJKLP6I86G0SKDF9MO5EEW7V4V","AYLYY6ANK0URM","3PIOQ99R7Y8STPN46QFY0SD7JTFNU0","","","img/land3.png","","2001.5","-1","0","3","1","0.8,0.2,0.2,0.2,0.8,0.2,0.2,0.2,0.8","0.8,0.2,0.2,0.2,0.8,0.2,0.2,0.2,0.8","1","",""
"","html-keyboard-response","307","154086","0.0-307.0","34HJIJKLP6I86G0SKDF9MO5EEW7V4V","AYLYY6ANK0URM","3PIOQ99R7Y8STPN46QFY0SD7JTFNU0","","null","<img src=""img/land3.png"" style=""width:200px;border:14px solid red;"">","null","","","","","","","","","",""
"","image-keyboard-response","308","154865","0.0-308.0","34HJIJKLP6I86G0SKDF9MO5EEW7V4V","AYLYY6ANK0URM","3PIOQ99R7Y8STPN46QFY0SD7JTFNU0","","778.7999999523163","img/land3.png","76","779.2999999523163","3","1","3","1","0.8,0.2,0.2,0.2,0.8,0.2,0.2,0.2,0.8","0.8,0.2,0.2,0.2,0.8,0.2,0.2,0.2,0.8","1","",""
"","html-keyboard-response","309","155167","0.0-309.0","34HJIJKLP6I86G0SKDF9MO5EEW7V4V","AYLYY6ANK0URM","3PIOQ99R7Y8STPN46QFY0SD7JTFNU0","","null","<img src=""img/land3.png"" style=""width:200px; border:14px solid green;"">","null","","","","","","","","","",""
"","image-keyboard-response","310","155798","0.0-310.0","34HJIJKLP6I86G0SKDF9MO5EEW7V4V","AYLYY6ANK0URM","3PIOQ99R7Y8STPN46QFY0SD7JTFNU0","","630.4000000953674","img/land4.png","75","630.7999999523163","2","1","1","1","0.8,0.2,0.2,0.2,0.8,0.2,0.2,0.2,0.8","0.8,0.2,0.2,0.2,0.8,0.2,0.2,0.2,0.8","1","",""
"","html-keyboard-response","311","156100","0.0-311.0","34HJIJKLP6I86G0SKDF9MO5EEW7V4V","AYLYY6ANK0URM","3PIOQ99R7Y8STPN46QFY0SD7JTFNU0","","null","<img src=""img/land4.png"" style=""width:200px; border:14px solid green;"">","null","","","","","","","","","",""
"","image-keyboard-response","312","156478","0.0-312.0","34HJIJKLP6I86G0SKDF9MO5EEW7V4V","AYLYY6ANK0URM","3PIOQ99R7Y8STPN46QFY0SD7JTFNU0","","376.89999985694885","img/land4.png","75","377.40000009536743","2","1","1","1","0.8,0.2,0.2,0.2,0.8,0.2,0.2,0.2,0.8","0.8,0.2,0.2,0.2,0.8,0.2,0.2,0.2,0.8","1","",""
"","html-keyboard-response","313","156779","0.0-313.0","34HJIJKLP6I86G0SKDF9MO5EEW7V4V","AYLYY6ANK0URM","3PIOQ99R7Y8STPN46QFY0SD7JTFNU0","","null","<img src=""img/land4.png"" style=""width:200px; border:14px solid green;"">","null","","","","","","","","","",""
"","image-keyboard-response","314","157077","0.0-314.0","34HJIJKLP6I86G0SKDF9MO5EEW7V4V","AYLYY6ANK0URM","3PIOQ99R7Y8STPN46QFY0SD7JTFNU0","","297.09999990463257","img/land4.png","75","297.7000000476837","2","1","1","1","0.8,0.2,0.2,0.2,0.8,0.2,0.2,0.2,0.8","0.8,0.2,0.2,0.2,0.8,0.2,0.2,0.2,0.8","1","",""
"","html-keyboard-response","315","157378","0.0-315.0","34HJIJKLP6I86G0SKDF9MO5EEW7V4V","AYLYY6ANK0URM","3PIOQ99R7Y8STPN46QFY0SD7JTFNU0","","null","<img src=""img/land4.png"" style=""width:200px; border:14px solid green;"">","null","","","","","","","","","",""
"","image-keyboard-response","316","158118","0.0-316.0","34HJIJKLP6I86G0SKDF9MO5EEW7V4V","AYLYY6ANK0URM","3PIOQ99R7Y8STPN46QFY0SD7JTFNU0","","739.5999999046326","img/land1.png","74","740.2000000476837","1","1","2","1","0.8,0.2,0.2,0.2,0.8,0.2,0.2,0.2,0.8","0.8,0.2,0.2,0.2,0.8,0.2,0.2,0.2,0.8","1","",""
"","html-keyboard-response","317","158420","0.0-317.0","34HJIJKLP6I86G0SKDF9MO5EEW7V4V","AYLYY6ANK0URM","3PIOQ99R7Y8STPN46QFY0SD7JTFNU0","","null","<img src=""img/land1.png"" style=""width:200px; border:14px solid green;"">","null","","","","","","","","","",""
"","image-keyboard-response","318","158727","0.0-318.0","34HJIJKLP6I86G0SKDF9MO5EEW7V4V","AYLYY6ANK0URM","3PIOQ99R7Y8STPN46QFY0SD7JTFNU0","","305.89999985694885","img/land1.png","74","306.7000000476837","1","0","2","1","0.8,0.2,0.2,0.2,0.8,0.2,0.2,0.2,0.8","0.8,0.2,0.2,0.2,0.8,0.2,0.2,0.2,0.8","1","",""
"","html-keyboard-response","319","159028","0.0-319.0","34HJIJKLP6I86G0SKDF9MO5EEW7V4V","AYLYY6ANK0URM","3PIOQ99R7Y8STPN46QFY0SD7JTFNU0","","null","<img src=""img/land1.png"" style=""width:200px;border:14px solid red;"">","null","","","","","","","","","",""
"","image-keyboard-response","320","159325","0.0-320.0","34HJIJKLP6I86G0SKDF9MO5EEW7V4V","AYLYY6ANK0URM","3PIOQ99R7Y8STPN46QFY0SD7JTFNU0","","296.2999999523163","img/land4.png","74","296.90000009536743","1","1","1","1","0.8,0.2,0.2,0.2,0.8,0.2,0.2,0.2,0.8","0.8,0.2,0.2,0.2,0.8,0.2,0.2,0.2,0.8","1","",""
"","html-keyboard-response","321","159628","0.0-321.0","34HJIJKLP6I86G0SKDF9MO5EEW7V4V","AYLYY6ANK0URM","3PIOQ99R7Y8STPN46QFY0SD7JTFNU0","","null","<img src=""img/land4.png"" style=""width:200px; border:14px solid green;"">","null","","","","","","","","","",""
"","image-keyboard-response","322","160116","0.0-322.0","34HJIJKLP6I86G0SKDF9MO5EEW7V4V","AYLYY6ANK0URM","3PIOQ99R7Y8STPN46QFY0SD7JTFNU0","","487.7000000476837","img/land1.png","76","488.19999980926514","3","0","2","1","0.8,0.2,0.2,0.2,0.8,0.2,0.2,0.2,0.8","0.8,0.2,0.2,0.2,0.8,0.2,0.2,0.2,0.8","1","",""
"","html-keyboard-response","323","160417","0.0-323.0","34HJIJKLP6I86G0SKDF9MO5EEW7V4V","AYLYY6ANK0URM","3PIOQ99R7Y8STPN46QFY0SD7JTFNU0","","null","<img src=""img/land1.png"" style=""width:200px;border:14px solid red;"">","null","","","","","","","","","",""
"","image-keyboard-response","324","160762","0.0-324.0","34HJIJKLP6I86G0SKDF9MO5EEW7V4V","AYLYY6ANK0URM","3PIOQ99R7Y8STPN46QFY0SD7JTFNU0","","343.7000000476837","img/land3.png","75","344.30000019073486","2","0","3","1","0.8,0.2,0.2,0.2,0.8,0.2,0.2,0.2,0.8","0.8,0.2,0.2,0.2,0.8,0.2,0.2,0.2,0.8","1","",""
"","html-keyboard-response","325","161063","0.0-325.0","34HJIJKLP6I86G0SKDF9MO5EEW7V4V","AYLYY6ANK0URM","3PIOQ99R7Y8STPN46QFY0SD7JTFNU0","","null","<img src=""img/land3.png"" style=""width:200px;border:14px solid red;"">","null","","","","","","","","","",""
"","image-keyboard-response","326","161302","0.0-326.0","34HJIJKLP6I86G0SKDF9MO5EEW7V4V","AYLYY6ANK0URM","3PIOQ99R7Y8STPN46QFY0SD7JTFNU0","","238.20000004768372","img/land1.png","74","238.69999980926514","1","0","2","1","0.8,0.2,0.2,0.2,0.8,0.2,0.2,0.2,0.8","0.8,0.2,0.2,0.2,0.8,0.2,0.2,0.2,0.8","1","",""
"","html-keyboard-response","327","161603","0.0-327.0","34HJIJKLP6I86G0SKDF9MO5EEW7V4V","AYLYY6ANK0URM","3PIOQ99R7Y8STPN46QFY0SD7JTFNU0","","null","<img src=""img/land1.png"" style=""width:200px;border:14px solid red;"">","null","","","","","","","","","",""
"","image-keyboard-response","328","162004","0.0-328.0","34HJIJKLP6I86G0SKDF9MO5EEW7V4V","AYLYY6ANK0URM","3PIOQ99R7Y8STPN46QFY0SD7JTFNU0","","400.39999985694885","img/land3.png","76","400.89999985694885","3","1","3","1","0.8,0.2,0.2,0.2,0.8,0.2,0.2,0.2,0.8","0.8,0.2,0.2,0.2,0.8,0.2,0.2,0.2,0.8","1","",""
"","html-keyboard-response","329","162305","0.0-329.0","34HJIJKLP6I86G0SKDF9MO5EEW7V4V","AYLYY6ANK0URM","3PIOQ99R7Y8STPN46QFY0SD7JTFNU0","","null","<img src=""img/land3.png"" style=""width:200px; border:14px solid green;"">","null","","","","","","","","","",""
"","image-keyboard-response","330","162643","0.0-330.0","34HJIJKLP6I86G0SKDF9MO5EEW7V4V","AYLYY6ANK0URM","3PIOQ99R7Y8STPN46QFY0SD7JTFNU0","","336.60000014305115","img/land3.png","76","337.19999980926514","3","1","3","1","0.8,0.2,0.2,0.2,0.8,0.2,0.2,0.2,0.8","0.8,0.2,0.2,0.2,0.8,0.2,0.2,0.2,0.8","1","",""
"","html-keyboard-response","331","162947","0.0-331.0","34HJIJKLP6I86G0SKDF9MO5EEW7V4V","AYLYY6ANK0URM","3PIOQ99R7Y8STPN46QFY0SD7JTFNU0","","null","<img src=""img/land3.png"" style=""width:200px; border:14px solid green;"">","null","","","","","","","","","",""
"","image-keyboard-response","332","163301","0.0-332.0","34HJIJKLP6I86G0SKDF9MO5EEW7V4V","AYLYY6ANK0URM","3PIOQ99R7Y8STPN46QFY0SD7JTFNU0","","353.5","img/land3.png","76","353.90000009536743","3","1","3","1","0.8,0.2,0.2,0.2,0.8,0.2,0.2,0.2,0.8","0.8,0.2,0.2,0.2,0.8,0.2,0.2,0.2,0.8","1","",""
"","html-keyboard-response","333","163603","0.0-333.0","34HJIJKLP6I86G0SKDF9MO5EEW7V4V","AYLYY6ANK0URM","3PIOQ99R7Y8STPN46QFY0SD7JTFNU0","","null","<img src=""img/land3.png"" style=""width:200px; border:14px solid green;"">","null","","","","","","","","","",""
"","image-keyboard-response","334","163957","0.0-334.0","34HJIJKLP6I86G0SKDF9MO5EEW7V4V","AYLYY6ANK0URM","3PIOQ99R7Y8STPN46QFY0SD7JTFNU0","","353","img/land3.png","76","353.59999990463257","3","1","3","1","0.8,0.2,0.2,0.2,0.8,0.2,0.2,0.2,0.8","0.8,0.2,0.2,0.2,0.8,0.2,0.2,0.2,0.8","1","",""
"","html-keyboard-response","335","164258","0.0-335.0","34HJIJKLP6I86G0SKDF9MO5EEW7V4V","AYLYY6ANK0URM","3PIOQ99R7Y8STPN46QFY0SD7JTFNU0","","null","<img src=""img/land3.png"" style=""width:200px; border:14px solid green;"">","null","","","","","","","","","",""
"","image-keyboard-response","336","164684","0.0-336.0","34HJIJKLP6I86G0SKDF9MO5EEW7V4V","AYLYY6ANK0URM","3PIOQ99R7Y8STPN46QFY0SD7JTFNU0","","425.09999990463257","img/land1.png","75","425.7000000476837","2","1","2","1","0.8,0.2,0.2,0.2,0.8,0.2,0.2,0.2,0.8","0.8,0.2,0.2,0.2,0.8,0.2,0.2,0.2,0.8","1","",""
"","html-keyboard-response","337","164985","0.0-337.0","34HJIJKLP6I86G0SKDF9MO5EEW7V4V","AYLYY6ANK0URM","3PIOQ99R7Y8STPN46QFY0SD7JTFNU0","","null","<img src=""img/land1.png"" style=""width:200px; border:14px solid green;"">","null","","","","","","","","","",""
"","image-keyboard-response","338","165230","0.0-338.0","34HJIJKLP6I86G0SKDF9MO5EEW7V4V","AYLYY6ANK0URM","3PIOQ99R7Y8STPN46QFY0SD7JTFNU0","","244.09999990463257","img/land1.png","75","244.70000004768372","2","1","2","1","0.8,0.2,0.2,0.2,0.8,0.2,0.2,0.2,0.8","0.8,0.2,0.2,0.2,0.8,0.2,0.2,0.2,0.8","1","",""
"","html-keyboard-response","339","165531","0.0-339.0","34HJIJKLP6I86G0SKDF9MO5EEW7V4V","AYLYY6ANK0URM","3PIOQ99R7Y8STPN46QFY0SD7JTFNU0","","null","<img src=""img/land1.png"" style=""width:200px; border:14px solid green;"">","null","","","","","","","","","",""
"","image-keyboard-response","340","166011","0.0-340.0","34HJIJKLP6I86G0SKDF9MO5EEW7V4V","AYLYY6ANK0URM","3PIOQ99R7Y8STPN46QFY0SD7JTFNU0","","478.90000009536743","img/land3.png","76","479.60000014305115","3","1","3","1","0.8,0.2,0.2,0.2,0.8,0.2,0.2,0.2,0.8","0.8,0.2,0.2,0.2,0.8,0.2,0.2,0.2,0.8","1","",""
"","html-keyboard-response","341","166312","0.0-341.0","34HJIJKLP6I86G0SKDF9MO5EEW7V4V","AYLYY6ANK0URM","3PIOQ99R7Y8STPN46QFY0SD7JTFNU0","","null","<img src=""img/land3.png"" style=""width:200px; border:14px solid green;"">","null","","","","","","","","","",""
"","image-keyboard-response","342","166782","0.0-342.0","34HJIJKLP6I86G0SKDF9MO5EEW7V4V","AYLYY6ANK0URM","3PIOQ99R7Y8STPN46QFY0SD7JTFNU0","","469.39999985694885","img/land4.png","75","470","2","1","1","1","0.8,0.2,0.2,0.2,0.8,0.2,0.2,0.2,0.8","0.8,0.2,0.2,0.2,0.8,0.2,0.2,0.2,0.8","1","",""
"","html-keyboard-response","343","167084","0.0-343.0","34HJIJKLP6I86G0SKDF9MO5EEW7V4V","AYLYY6ANK0URM","3PIOQ99R7Y8STPN46QFY0SD7JTFNU0","","null","<img src=""img/land4.png"" style=""width:200px; border:14px solid green;"">","null","","","","","","","","","",""
"","image-keyboard-response","344","167350","0.0-344.0","34HJIJKLP6I86G0SKDF9MO5EEW7V4V","AYLYY6ANK0URM","3PIOQ99R7Y8STPN46QFY0SD7JTFNU0","","265.80000019073486","img/land3.png","75","266.39999985694885","2","0","3","1","0.8,0.2,0.2,0.2,0.8,0.2,0.2,0.2,0.8","0.8,0.2,0.2,0.2,0.8,0.2,0.2,0.2,0.8","1","",""
"","html-keyboard-response","345","167652","0.0-345.0","34HJIJKLP6I86G0SKDF9MO5EEW7V4V","AYLYY6ANK0URM","3PIOQ99R7Y8STPN46QFY0SD7JTFNU0","","null","<img src=""img/land3.png"" style=""width:200px;border:14px solid red;"">","null","","","","","","","","","",""
"","image-keyboard-response","346","168262","0.0-346.0","34HJIJKLP6I86G0SKDF9MO5EEW7V4V","AYLYY6ANK0URM","3PIOQ99R7Y8STPN46QFY0SD7JTFNU0","","609.9000000953674","img/land3.png","76","610.5","3","0","3","1","0.8,0.2,0.2,0.2,0.8,0.2,0.2,0.2,0.8","0.8,0.2,0.2,0.2,0.8,0.2,0.2,0.2,0.8","1","",""
"","html-keyboard-response","347","168565","0.0-347.0","34HJIJKLP6I86G0SKDF9MO5EEW7V4V","AYLYY6ANK0URM","3PIOQ99R7Y8STPN46QFY0SD7JTFNU0","","null","<img src=""img/land3.png"" style=""width:200px;border:14px solid red;"">","null","","","","","","","","","",""
"","image-keyboard-response","348","168914","0.0-348.0","34HJIJKLP6I86G0SKDF9MO5EEW7V4V","AYLYY6ANK0URM","3PIOQ99R7Y8STPN46QFY0SD7JTFNU0","","348.30000019073486","img/land3.png","76","348.7999999523163","3","1","3","1","0.8,0.2,0.2,0.2,0.8,0.2,0.2,0.2,0.8","0.8,0.2,0.2,0.2,0.8,0.2,0.2,0.2,0.8","1","",""
"","html-keyboard-response","349","169214","0.0-349.0","34HJIJKLP6I86G0SKDF9MO5EEW7V4V","AYLYY6ANK0URM","3PIOQ99R7Y8STPN46QFY0SD7JTFNU0","","null","<img src=""img/land3.png"" style=""width:200px; border:14px solid green;"">","null","","","","","","","","","",""
"","image-keyboard-response","350","169734","0.0-350.0","34HJIJKLP6I86G0SKDF9MO5EEW7V4V","AYLYY6ANK0URM","3PIOQ99R7Y8STPN46QFY0SD7JTFNU0","","518.8999998569489","img/land1.png","75","519.5","2","0","2","1","0.8,0.2,0.2,0.2,0.8,0.2,0.2,0.2,0.8","0.8,0.2,0.2,0.2,0.8,0.2,0.2,0.2,0.8","1","",""
"","html-keyboard-response","351","170036","0.0-351.0","34HJIJKLP6I86G0SKDF9MO5EEW7V4V","AYLYY6ANK0URM","3PIOQ99R7Y8STPN46QFY0SD7JTFNU0","","null","<img src=""img/land1.png"" style=""width:200px;border:14px solid red;"">","null","","","","","","","","","",""
"","image-keyboard-response","352","170724","0.0-352.0","34HJIJKLP6I86G0SKDF9MO5EEW7V4V","AYLYY6ANK0URM","3PIOQ99R7Y8STPN46QFY0SD7JTFNU0","","687.4000000953674","img/land3.png","74","687.8999998569489","1","0","3","1","0.8,0.2,0.2,0.2,0.8,0.2,0.2,0.2,0.8","0.8,0.2,0.2,0.2,0.8,0.2,0.2,0.2,0.8","1","",""
"","html-keyboard-response","353","171025","0.0-353.0","34HJIJKLP6I86G0SKDF9MO5EEW7V4V","AYLYY6ANK0URM","3PIOQ99R7Y8STPN46QFY0SD7JTFNU0","","null","<img src=""img/land3.png"" style=""width:200px;border:14px solid red;"">","null","","","","","","","","","",""
"","image-keyboard-response","354","171631","0.0-354.0","34HJIJKLP6I86G0SKDF9MO5EEW7V4V","AYLYY6ANK0URM","3PIOQ99R7Y8STPN46QFY0SD7JTFNU0","","606.0999999046326","img/land1.png","74","606.7000000476837","1","0","2","1","0.8,0.2,0.2,0.2,0.8,0.2,0.2,0.2,0.8","0.8,0.2,0.2,0.2,0.8,0.2,0.2,0.2,0.8","1","",""
"","html-keyboard-response","355","171934","0.0-355.0","34HJIJKLP6I86G0SKDF9MO5EEW7V4V","AYLYY6ANK0URM","3PIOQ99R7Y8STPN46QFY0SD7JTFNU0","","null","<img src=""img/land1.png"" style=""width:200px;border:14px solid red;"">","null","","","","","","","","","",""
"","image-keyboard-response","356","172778","0.0-356.0","34HJIJKLP6I86G0SKDF9MO5EEW7V4V","AYLYY6ANK0URM","3PIOQ99R7Y8STPN46QFY0SD7JTFNU0","","843.5","img/land4.png","74","844.0999999046326","1","1","1","1","0.8,0.2,0.2,0.2,0.8,0.2,0.2,0.2,0.8","0.8,0.2,0.2,0.2,0.8,0.2,0.2,0.2,0.8","1","",""
