"success","trial_type","trial_index","time_elapsed","internal_node_id","assignmentID","mturkID","hitID","view_history","rt","stimulus","key_press","reactionTime","a","r","s","cond","reward_cond","reward_cond_actual","reward_matrix_idx","responses","question_order"
"true","fullscreen","0","6951","0.0-0.0","3BXQMRHWK0KOXR0YLR50CWKVLOCMU0","AZ8JL3QNIPY4U","3THR0FZ95PF7SK0MYRNAOUHTWA4OLV","","","","","","","","","","","","","",""
"","instructions","1","19003","0.0-1.0","3BXQMRHWK0KOXR0YLR50CWKVLOCMU0","AZ8JL3QNIPY4U","3THR0FZ95PF7SK0MYRNAOUHTWA4OLV","[{""page_index"":0,""viewing_time"":4055.2000000029802},{""page_index"":1,""viewing_time"":1988},{""page_index"":2,""viewing_time"":535.7999999970198},{""page_index"":3,""viewing_time"":2508},{""page_index"":4,""viewing_time"":1119.8999999985099},{""page_index"":5,""viewing_time"":944.1000000014901},{""page_index"":6,""viewing_time"":899.8999999985099}]","12051.5","","","","","","","","","","","",""
"","image-keyboard-response","2","19486","0.0-2.0","3BXQMRHWK0KOXR0YLR50CWKVLOCMU0","AZ8JL3QNIPY4U","3THR0FZ95PF7SK0MYRNAOUHTWA4OLV","","482","img/land2.png","74","483.20000000298023","1","1","2","1","1,0.7,0.7,0.7,1,0.7,0.7,0.7,1","1,0.7,0.7,0.7,1,0.7,0.7,0.7,1","","",""
"","html-keyboard-response","3","19802","0.0-3.0","3BXQMRHWK0KOXR0YLR50CWKVLOCMU0","AZ8JL3QNIPY4U","3THR0FZ95PF7SK0MYRNAOUHTWA4OLV","","null","<img src=""img/land2.png"" style=""width:200px; border:14px solid green;"">","null","","","","","","","","","",""
"","image-keyboard-response","4","20110","0.0-4.0","3BXQMRHWK0KOXR0YLR50CWKVLOCMU0","AZ8JL3QNIPY4U","3THR0FZ95PF7SK0MYRNAOUHTWA4OLV","","307.5","img/land2.png","74","308.29999999701977","1","1","2","1","1,0.7,0.7,0.7,1,0.7,0.7,0.7,1","1,0.7,0.7,0.7,1,0.7,0.7,0.7,1","","",""
"","html-keyboard-response","5","20424","0.0-5.0","3BXQMRHWK0KOXR0YLR50CWKVLOCMU0","AZ8JL3QNIPY4U","3THR0FZ95PF7SK0MYRNAOUHTWA4OLV","","null","<img src=""img/land2.png"" style=""width:200px; border:14px solid green;"">","null","","","","","","","","","",""
"","image-keyboard-response","6","21230","0.0-6.0","3BXQMRHWK0KOXR0YLR50CWKVLOCMU0","AZ8JL3QNIPY4U","3THR0FZ95PF7SK0MYRNAOUHTWA4OLV","","805.3999999985099","img/land1.png","75","806.3000000044703","2","1","1","1","1,0.7,0.7,0.7,1,0.7,0.7,0.7,1","1,0.7,0.7,0.7,1,0.7,0.7,0.7,1","","",""
"","html-keyboard-response","7","21539","0.0-7.0","3BXQMRHWK0KOXR0YLR50CWKVLOCMU0","AZ8JL3QNIPY4U","3THR0FZ95PF7SK0MYRNAOUHTWA4OLV","","null","<img src=""img/land1.png"" style=""width:200px; border:14px solid green;"">","null","","","","","","","","","",""
"","image-keyboard-response","8","21998","0.0-8.0","3BXQMRHWK0KOXR0YLR50CWKVLOCMU0","AZ8JL3QNIPY4U","3THR0FZ95PF7SK0MYRNAOUHTWA4OLV","","458.3999999985099","img/land1.png","75","459.30000000447035","2","1","1","1","1,0.7,0.7,0.7,1,0.7,0.7,0.7,1","1,0.7,0.7,0.7,1,0.7,0.7,0.7,1","","",""
"","html-keyboard-response","9","22301","0.0-9.0","3BXQMRHWK0KOXR0YLR50CWKVLOCMU0","AZ8JL3QNIPY4U","3THR0FZ95PF7SK0MYRNAOUHTWA4OLV","","null","<img src=""img/land1.png"" style=""width:200px; border:14px solid green;"">","null","","","","","","","","","",""
"","image-keyboard-response","10","23398","0.0-10.0","3BXQMRHWK0KOXR0YLR50CWKVLOCMU0","AZ8JL3QNIPY4U","3THR0FZ95PF7SK0MYRNAOUHTWA4OLV","","1096.6999999955297","img/land2.png","74","1097.6000000014901","1","0","2","1","1,0.7,0.7,0.7,1,0.7,0.7,0.7,1","1,0.7,0.7,0.7,1,0.7,0.7,0.7,1","","",""
"","html-keyboard-response","11","23711","0.0-11.0","3BXQMRHWK0KOXR0YLR50CWKVLOCMU0","AZ8JL3QNIPY4U","3THR0FZ95PF7SK0MYRNAOUHTWA4OLV","","null","<img src=""img/land2.png"" style=""width:200px;border:14px solid red;"">","null","","","","","","","","","",""
"","image-keyboard-response","12","24686","0.0-12.0","3BXQMRHWK0KOXR0YLR50CWKVLOCMU0","AZ8JL3QNIPY4U","3THR0FZ95PF7SK0MYRNAOUHTWA4OLV","","974.1999999955297","img/land1.png","75","974.8999999985099","2","1","1","1","1,0.7,0.7,0.7,1,0.7,0.7,0.7,1","1,0.7,0.7,0.7,1,0.7,0.7,0.7,1","","",""
"","html-keyboard-response","13","24991","0.0-13.0","3BXQMRHWK0KOXR0YLR50CWKVLOCMU0","AZ8JL3QNIPY4U","3THR0FZ95PF7SK0MYRNAOUHTWA4OLV","","null","<img src=""img/land1.png"" style=""width:200px; border:14px solid green;"">","null","","","","","","","","","",""
"","image-keyboard-response","14","25694","0.0-14.0","3BXQMRHWK0KOXR0YLR50CWKVLOCMU0","AZ8JL3QNIPY4U","3THR0FZ95PF7SK0MYRNAOUHTWA4OLV","","702.5","img/land2.png","74","703.2999999970198","1","1","2","1","1,0.7,0.7,0.7,1,0.7,0.7,0.7,1","1,0.7,0.7,0.7,1,0.7,0.7,0.7,1","","",""
"","html-keyboard-response","15","26008","0.0-15.0","3BXQMRHWK0KOXR0YLR50CWKVLOCMU0","AZ8JL3QNIPY4U","3THR0FZ95PF7SK0MYRNAOUHTWA4OLV","","null","<img src=""img/land2.png"" style=""width:200px; border:14px solid green;"">","null","","","","","","","","","",""
"","image-keyboard-response","16","26686","0.0-16.0","3BXQMRHWK0KOXR0YLR50CWKVLOCMU0","AZ8JL3QNIPY4U","3THR0FZ95PF7SK0MYRNAOUHTWA4OLV","","676.7999999970198","img/land3.png","76","677.7000000029802","3","1","3","1","1,0.7,0.7,0.7,1,0.7,0.7,0.7,1","1,0.7,0.7,0.7,1,0.7,0.7,0.7,1","","",""
"","html-keyboard-response","17","27002","0.0-17.0","3BXQMRHWK0KOXR0YLR50CWKVLOCMU0","AZ8JL3QNIPY4U","3THR0FZ95PF7SK0MYRNAOUHTWA4OLV","","null","<img src=""img/land3.png"" style=""width:200px; border:14px solid green;"">","null","","","","","","","","","",""
"","image-keyboard-response","18","27686","0.0-18.0","3BXQMRHWK0KOXR0YLR50CWKVLOCMU0","AZ8JL3QNIPY4U","3THR0FZ95PF7SK0MYRNAOUHTWA4OLV","","683.3999999985099","img/land1.png","75","684.2999999970198","2","1","1","1","1,0.7,0.7,0.7,1,0.7,0.7,0.7,1","1,0.7,0.7,0.7,1,0.7,0.7,0.7,1","","",""
"","html-keyboard-response","19","27998","0.0-19.0","3BXQMRHWK0KOXR0YLR50CWKVLOCMU0","AZ8JL3QNIPY4U","3THR0FZ95PF7SK0MYRNAOUHTWA4OLV","","null","<img src=""img/land1.png"" style=""width:200px; border:14px solid green;"">","null","","","","","","","","","",""
"","image-keyboard-response","20","28766","0.0-20.0","3BXQMRHWK0KOXR0YLR50CWKVLOCMU0","AZ8JL3QNIPY4U","3THR0FZ95PF7SK0MYRNAOUHTWA4OLV","","767.5","img/land3.png","76","768.2999999970198","3","1","3","1","1,0.7,0.7,0.7,1,0.7,0.7,0.7,1","1,0.7,0.7,0.7,1,0.7,0.7,0.7,1","","",""
"","html-keyboard-response","21","29071","0.0-21.0","3BXQMRHWK0KOXR0YLR50CWKVLOCMU0","AZ8JL3QNIPY4U","3THR0FZ95PF7SK0MYRNAOUHTWA4OLV","","null","<img src=""img/land3.png"" style=""width:200px; border:14px solid green;"">","null","","","","","","","","","",""
"","image-keyboard-response","22","29662","0.0-22.0","3BXQMRHWK0KOXR0YLR50CWKVLOCMU0","AZ8JL3QNIPY4U","3THR0FZ95PF7SK0MYRNAOUHTWA4OLV","","589.7000000029802","img/land2.png","74","590.3999999985099","1","0","2","1","1,0.7,0.7,0.7,1,0.7,0.7,0.7,1","1,0.7,0.7,0.7,1,0.7,0.7,0.7,1","","",""
"","html-keyboard-response","23","29963","0.0-23.0","3BXQMRHWK0KOXR0YLR50CWKVLOCMU0","AZ8JL3QNIPY4U","3THR0FZ95PF7SK0MYRNAOUHTWA4OLV","","null","<img src=""img/land2.png"" style=""width:200px;border:14px solid red;"">","null","","","","","","","","","",""
"","image-keyboard-response","24","30550","0.0-24.0","3BXQMRHWK0KOXR0YLR50CWKVLOCMU0","AZ8JL3QNIPY4U","3THR0FZ95PF7SK0MYRNAOUHTWA4OLV","","585.6000000014901","img/land1.png","75","586.3999999985099","2","1","1","1","1,0.7,0.7,0.7,1,0.7,0.7,0.7,1","1,0.7,0.7,0.7,1,0.7,0.7,0.7,1","","",""
"","html-keyboard-response","25","30852","0.0-25.0","3BXQMRHWK0KOXR0YLR50CWKVLOCMU0","AZ8JL3QNIPY4U","3THR0FZ95PF7SK0MYRNAOUHTWA4OLV","","null","<img src=""img/land1.png"" style=""width:200px; border:14px solid green;"">","null","","","","","","","","","",""
"","image-keyboard-response","26","31198","0.0-26.0","3BXQMRHWK0KOXR0YLR50CWKVLOCMU0","AZ8JL3QNIPY4U","3THR0FZ95PF7SK0MYRNAOUHTWA4OLV","","345.40000000596046","img/land1.png","75","346.19999999552965","2","0","1","1","1,0.7,0.7,0.7,1,0.7,0.7,0.7,1","1,0.7,0.7,0.7,1,0.7,0.7,0.7,1","","",""
"","html-keyboard-response","27","31499","0.0-27.0","3BXQMRHWK0KOXR0YLR50CWKVLOCMU0","AZ8JL3QNIPY4U","3THR0FZ95PF7SK0MYRNAOUHTWA4OLV","","null","<img src=""img/land1.png"" style=""width:200px;border:14px solid red;"">","null","","","","","","","","","",""
"","image-keyboard-response","28","32254","0.0-28.0","3BXQMRHWK0KOXR0YLR50CWKVLOCMU0","AZ8JL3QNIPY4U","3THR0FZ95PF7SK0MYRNAOUHTWA4OLV","","753.5","img/land2.png","74","754.1999999955297","1","1","2","1","1,0.7,0.7,0.7,1,0.7,0.7,0.7,1","1,0.7,0.7,0.7,1,0.7,0.7,0.7,1","","",""
"","html-keyboard-response","29","32556","0.0-29.0","3BXQMRHWK0KOXR0YLR50CWKVLOCMU0","AZ8JL3QNIPY4U","3THR0FZ95PF7SK0MYRNAOUHTWA4OLV","","null","<img src=""img/land2.png"" style=""width:200px; border:14px solid green;"">","null","","","","","","","","","",""
"","image-keyboard-response","30","32854","0.0-30.0","3BXQMRHWK0KOXR0YLR50CWKVLOCMU0","AZ8JL3QNIPY4U","3THR0FZ95PF7SK0MYRNAOUHTWA4OLV","","297.6000000014901","img/land2.png","74","298.29999999701977","1","1","2","1","1,0.7,0.7,0.7,1,0.7,0.7,0.7,1","1,0.7,0.7,0.7,1,0.7,0.7,0.7,1","","",""
"","html-keyboard-response","31","33155","0.0-31.0","3BXQMRHWK0KOXR0YLR50CWKVLOCMU0","AZ8JL3QNIPY4U","3THR0FZ95PF7SK0MYRNAOUHTWA4OLV","","null","<img src=""img/land2.png"" style=""width:200px; border:14px solid green;"">","null","","","","","","","","","",""
"","image-keyboard-response","32","33606","0.0-32.0","3BXQMRHWK0KOXR0YLR50CWKVLOCMU0","AZ8JL3QNIPY4U","3THR0FZ95PF7SK0MYRNAOUHTWA4OLV","","449.70000000298023","img/land1.png","75","450.30000000447035","2","0","1","1","1,0.7,0.7,0.7,1,0.7,0.7,0.7,1","1,0.7,0.7,0.7,1,0.7,0.7,0.7,1","","",""
"","html-keyboard-response","33","33907","0.0-33.0","3BXQMRHWK0KOXR0YLR50CWKVLOCMU0","AZ8JL3QNIPY4U","3THR0FZ95PF7SK0MYRNAOUHTWA4OLV","","null","<img src=""img/land1.png"" style=""width:200px;border:14px solid red;"">","null","","","","","","","","","",""
"","image-keyboard-response","34","34646","0.0-34.0","3BXQMRHWK0KOXR0YLR50CWKVLOCMU0","AZ8JL3QNIPY4U","3THR0FZ95PF7SK0MYRNAOUHTWA4OLV","","738.8999999985099","img/land2.png","74","739.5999999940395","1","1","2","1","1,0.7,0.7,0.7,1,0.7,0.7,0.7,1","1,0.7,0.7,0.7,1,0.7,0.7,0.7,1","","",""
"","html-keyboard-response","35","34949","0.0-35.0","3BXQMRHWK0KOXR0YLR50CWKVLOCMU0","AZ8JL3QNIPY4U","3THR0FZ95PF7SK0MYRNAOUHTWA4OLV","","null","<img src=""img/land2.png"" style=""width:200px; border:14px solid green;"">","null","","","","","","","","","",""
"","image-keyboard-response","36","35262","0.0-36.0","3BXQMRHWK0KOXR0YLR50CWKVLOCMU0","AZ8JL3QNIPY4U","3THR0FZ95PF7SK0MYRNAOUHTWA4OLV","","312.3999999985099","img/land2.png","74","313.09999999403954","1","1","2","1","1,0.7,0.7,0.7,1,0.7,0.7,0.7,1","1,0.7,0.7,0.7,1,0.7,0.7,0.7,1","","",""
"","html-keyboard-response","37","35564","0.0-37.0","3BXQMRHWK0KOXR0YLR50CWKVLOCMU0","AZ8JL3QNIPY4U","3THR0FZ95PF7SK0MYRNAOUHTWA4OLV","","null","<img src=""img/land2.png"" style=""width:200px; border:14px solid green;"">","null","","","","","","","","","",""
"","image-keyboard-response","38","35870","0.0-38.0","3BXQMRHWK0KOXR0YLR50CWKVLOCMU0","AZ8JL3QNIPY4U","3THR0FZ95PF7SK0MYRNAOUHTWA4OLV","","305.3999999985099","img/land2.png","74","306.19999999552965","1","1","2","1","1,0.7,0.7,0.7,1,0.7,0.7,0.7,1","1,0.7,0.7,0.7,1,0.7,0.7,0.7,1","","",""
"","html-keyboard-response","39","36171","0.0-39.0","3BXQMRHWK0KOXR0YLR50CWKVLOCMU0","AZ8JL3QNIPY4U","3THR0FZ95PF7SK0MYRNAOUHTWA4OLV","","null","<img src=""img/land2.png"" style=""width:200px; border:14px solid green;"">","null","","","","","","","","","",""
"","image-keyboard-response","40","36630","0.0-40.0","3BXQMRHWK0KOXR0YLR50CWKVLOCMU0","AZ8JL3QNIPY4U","3THR0FZ95PF7SK0MYRNAOUHTWA4OLV","","457.8999999985099","img/land1.png","75","458.70000000298023","2","1","1","1","1,0.7,0.7,0.7,1,0.7,0.7,0.7,1","1,0.7,0.7,0.7,1,0.7,0.7,0.7,1","","",""
"","html-keyboard-response","41","36931","0.0-41.0","3BXQMRHWK0KOXR0YLR50CWKVLOCMU0","AZ8JL3QNIPY4U","3THR0FZ95PF7SK0MYRNAOUHTWA4OLV","","null","<img src=""img/land1.png"" style=""width:200px; border:14px solid green;"">","null","","","","","","","","","",""
"","image-keyboard-response","42","37518","0.0-42.0","3BXQMRHWK0KOXR0YLR50CWKVLOCMU0","AZ8JL3QNIPY4U","3THR0FZ95PF7SK0MYRNAOUHTWA4OLV","","585.7000000029802","img/land3.png","76","586.4000000059605","3","1","3","1","1,0.7,0.7,0.7,1,0.7,0.7,0.7,1","1,0.7,0.7,0.7,1,0.7,0.7,0.7,1","","",""
"","html-keyboard-response","43","37819","0.0-43.0","3BXQMRHWK0KOXR0YLR50CWKVLOCMU0","AZ8JL3QNIPY4U","3THR0FZ95PF7SK0MYRNAOUHTWA4OLV","","null","<img src=""img/land3.png"" style=""width:200px; border:14px solid green;"">","null","","","","","","","","","",""
"","image-keyboard-response","44","38430","0.0-44.0","3BXQMRHWK0KOXR0YLR50CWKVLOCMU0","AZ8JL3QNIPY4U","3THR0FZ95PF7SK0MYRNAOUHTWA4OLV","","609.7000000029802","img/land2.png","75","610.4000000059605","2","1","2","1","1,0.7,0.7,0.7,1,0.7,0.7,0.7,1","1,0.7,0.7,0.7,1,0.7,0.7,0.7,1","","",""
"","html-keyboard-response","45","38731","0.0-45.0","3BXQMRHWK0KOXR0YLR50CWKVLOCMU0","AZ8JL3QNIPY4U","3THR0FZ95PF7SK0MYRNAOUHTWA4OLV","","null","<img src=""img/land2.png"" style=""width:200px; border:14px solid green;"">","null","","","","","","","","","",""
"","image-keyboard-response","46","39662","0.0-46.0","3BXQMRHWK0KOXR0YLR50CWKVLOCMU0","AZ8JL3QNIPY4U","3THR0FZ95PF7SK0MYRNAOUHTWA4OLV","","930.1000000014901","img/land1.png","75","930.8000000044703","2","0","1","1","1,0.7,0.7,0.7,1,0.7,0.7,0.7,1","1,0.7,0.7,0.7,1,0.7,0.7,0.7,1","","",""
"","html-keyboard-response","47","39963","0.0-47.0","3BXQMRHWK0KOXR0YLR50CWKVLOCMU0","AZ8JL3QNIPY4U","3THR0FZ95PF7SK0MYRNAOUHTWA4OLV","","null","<img src=""img/land1.png"" style=""width:200px;border:14px solid red;"">","null","","","","","","","","","",""
"","image-keyboard-response","48","40574","0.0-48.0","3BXQMRHWK0KOXR0YLR50CWKVLOCMU0","AZ8JL3QNIPY4U","3THR0FZ95PF7SK0MYRNAOUHTWA4OLV","","609.7000000029802","img/land3.png","76","610.4000000059605","3","1","3","1","1,0.7,0.7,0.7,1,0.7,0.7,0.7,1","1,0.7,0.7,0.7,1,0.7,0.7,0.7,1","","",""
"","html-keyboard-response","49","40875","0.0-49.0","3BXQMRHWK0KOXR0YLR50CWKVLOCMU0","AZ8JL3QNIPY4U","3THR0FZ95PF7SK0MYRNAOUHTWA4OLV","","null","<img src=""img/land3.png"" style=""width:200px; border:14px solid green;"">","null","","","","","","","","","",""
"","image-keyboard-response","50","41542","0.0-50.0","3BXQMRHWK0KOXR0YLR50CWKVLOCMU0","AZ8JL3QNIPY4U","3THR0FZ95PF7SK0MYRNAOUHTWA4OLV","","665.8999999985099","img/land2.png","74","666.6000000014901","1","1","2","1","1,0.7,0.7,0.7,1,0.7,0.7,0.7,1","1,0.7,0.7,0.7,1,0.7,0.7,0.7,1","","",""
"","html-keyboard-response","51","41843","0.0-51.0","3BXQMRHWK0KOXR0YLR50CWKVLOCMU0","AZ8JL3QNIPY4U","3THR0FZ95PF7SK0MYRNAOUHTWA4OLV","","null","<img src=""img/land2.png"" style=""width:200px; border:14px solid green;"">","null","","","","","","","","","",""
"","image-keyboard-response","52","42158","0.0-52.0","3BXQMRHWK0KOXR0YLR50CWKVLOCMU0","AZ8JL3QNIPY4U","3THR0FZ95PF7SK0MYRNAOUHTWA4OLV","","313.80000000447035","img/land2.png","74","314.5","1","0","2","1","1,0.7,0.7,0.7,1,0.7,0.7,0.7,1","1,0.7,0.7,0.7,1,0.7,0.7,0.7,1","","",""
"","html-keyboard-response","53","42459","0.0-53.0","3BXQMRHWK0KOXR0YLR50CWKVLOCMU0","AZ8JL3QNIPY4U","3THR0FZ95PF7SK0MYRNAOUHTWA4OLV","","null","<img src=""img/land2.png"" style=""width:200px;border:14px solid red;"">","null","","","","","","","","","",""
"","image-keyboard-response","54","43181","0.0-54.0","3BXQMRHWK0KOXR0YLR50CWKVLOCMU0","AZ8JL3QNIPY4U","3THR0FZ95PF7SK0MYRNAOUHTWA4OLV","","721.5999999940395","img/land3.png","76","722.3999999985099","3","1","3","1","1,0.7,0.7,0.7,1,0.7,0.7,0.7,1","1,0.7,0.7,0.7,1,0.7,0.7,0.7,1","","",""
"","html-keyboard-response","55","43482","0.0-55.0","3BXQMRHWK0KOXR0YLR50CWKVLOCMU0","AZ8JL3QNIPY4U","3THR0FZ95PF7SK0MYRNAOUHTWA4OLV","","null","<img src=""img/land3.png"" style=""width:200px; border:14px solid green;"">","null","","","","","","","","","",""
"","image-keyboard-response","56","44062","0.0-56.0","3BXQMRHWK0KOXR0YLR50CWKVLOCMU0","AZ8JL3QNIPY4U","3THR0FZ95PF7SK0MYRNAOUHTWA4OLV","","578.8999999985099","img/land1.png","75","579.6000000014901","2","1","1","1","1,0.7,0.7,0.7,1,0.7,0.7,0.7,1","1,0.7,0.7,0.7,1,0.7,0.7,0.7,1","","",""
"","html-keyboard-response","57","44363","0.0-57.0","3BXQMRHWK0KOXR0YLR50CWKVLOCMU0","AZ8JL3QNIPY4U","3THR0FZ95PF7SK0MYRNAOUHTWA4OLV","","null","<img src=""img/land1.png"" style=""width:200px; border:14px solid green;"">","null","","","","","","","","","",""
"","image-keyboard-response","58","45021","0.0-58.0","3BXQMRHWK0KOXR0YLR50CWKVLOCMU0","AZ8JL3QNIPY4U","3THR0FZ95PF7SK0MYRNAOUHTWA4OLV","","657","img/land3.png","76","657.6999999955297","3","1","3","1","1,0.7,0.7,0.7,1,0.7,0.7,0.7,1","1,0.7,0.7,0.7,1,0.7,0.7,0.7,1","","",""
"","html-keyboard-response","59","45324","0.0-59.0","3BXQMRHWK0KOXR0YLR50CWKVLOCMU0","AZ8JL3QNIPY4U","3THR0FZ95PF7SK0MYRNAOUHTWA4OLV","","null","<img src=""img/land3.png"" style=""width:200px; border:14px solid green;"">","null","","","","","","","","","",""
"","image-keyboard-response","60","45861","0.0-60.0","3BXQMRHWK0KOXR0YLR50CWKVLOCMU0","AZ8JL3QNIPY4U","3THR0FZ95PF7SK0MYRNAOUHTWA4OLV","","537.1999999955297","img/land1.png","75","537.8999999985099","2","1","1","1","1,0.7,0.7,0.7,1,0.7,0.7,0.7,1","1,0.7,0.7,0.7,1,0.7,0.7,0.7,1","","",""
"","html-keyboard-response","61","46163","0.0-61.0","3BXQMRHWK0KOXR0YLR50CWKVLOCMU0","AZ8JL3QNIPY4U","3THR0FZ95PF7SK0MYRNAOUHTWA4OLV","","null","<img src=""img/land1.png"" style=""width:200px; border:14px solid green;"">","null","","","","","","","","","",""
"","image-keyboard-response","62","46470","0.0-62.0","3BXQMRHWK0KOXR0YLR50CWKVLOCMU0","AZ8JL3QNIPY4U","3THR0FZ95PF7SK0MYRNAOUHTWA4OLV","","305.5","img/land1.png","75","306.1000000014901","2","1","1","1","1,0.7,0.7,0.7,1,0.7,0.7,0.7,1","1,0.7,0.7,0.7,1,0.7,0.7,0.7,1","","",""
"","html-keyboard-response","63","46771","0.0-63.0","3BXQMRHWK0KOXR0YLR50CWKVLOCMU0","AZ8JL3QNIPY4U","3THR0FZ95PF7SK0MYRNAOUHTWA4OLV","","null","<img src=""img/land1.png"" style=""width:200px; border:14px solid green;"">","null","","","","","","","","","",""
"","image-keyboard-response","64","47389","0.0-64.0","3BXQMRHWK0KOXR0YLR50CWKVLOCMU0","AZ8JL3QNIPY4U","3THR0FZ95PF7SK0MYRNAOUHTWA4OLV","","617","img/land3.png","76","617.7999999970198","3","1","3","1","1,0.7,0.7,0.7,1,0.7,0.7,0.7,1","1,0.7,0.7,0.7,1,0.7,0.7,0.7,1","","",""
"","html-keyboard-response","65","47692","0.0-65.0","3BXQMRHWK0KOXR0YLR50CWKVLOCMU0","AZ8JL3QNIPY4U","3THR0FZ95PF7SK0MYRNAOUHTWA4OLV","","null","<img src=""img/land3.png"" style=""width:200px; border:14px solid green;"">","null","","","","","","","","","",""
"","image-keyboard-response","66","47997","0.0-66.0","3BXQMRHWK0KOXR0YLR50CWKVLOCMU0","AZ8JL3QNIPY4U","3THR0FZ95PF7SK0MYRNAOUHTWA4OLV","","304.19999999552965","img/land3.png","76","304.8999999985099","3","1","3","1","1,0.7,0.7,0.7,1,0.7,0.7,0.7,1","1,0.7,0.7,0.7,1,0.7,0.7,0.7,1","","",""
"","html-keyboard-response","67","48298","0.0-67.0","3BXQMRHWK0KOXR0YLR50CWKVLOCMU0","AZ8JL3QNIPY4U","3THR0FZ95PF7SK0MYRNAOUHTWA4OLV","","null","<img src=""img/land3.png"" style=""width:200px; border:14px solid green;"">","null","","","","","","","","","",""
"","image-keyboard-response","68","48925","0.0-68.0","3BXQMRHWK0KOXR0YLR50CWKVLOCMU0","AZ8JL3QNIPY4U","3THR0FZ95PF7SK0MYRNAOUHTWA4OLV","","626.2999999970198","img/land2.png","75","627","2","1","2","1","1,0.7,0.7,0.7,1,0.7,0.7,0.7,1","1,0.7,0.7,0.7,1,0.7,0.7,0.7,1","","",""
"","html-keyboard-response","69","49227","0.0-69.0","3BXQMRHWK0KOXR0YLR50CWKVLOCMU0","AZ8JL3QNIPY4U","3THR0FZ95PF7SK0MYRNAOUHTWA4OLV","","null","<img src=""img/land2.png"" style=""width:200px; border:14px solid green;"">","null","","","","","","","","","",""
"","image-keyboard-response","70","50774","0.0-70.0","3BXQMRHWK0KOXR0YLR50CWKVLOCMU0","AZ8JL3QNIPY4U","3THR0FZ95PF7SK0MYRNAOUHTWA4OLV","","1544.6000000014901","img/land1.png","75","1545.4000000059605","2","1","1","1","1,0.7,0.7,0.7,1,0.7,0.7,0.7,1","1,0.7,0.7,0.7,1,0.7,0.7,0.7,1","","",""
"","html-keyboard-response","71","51075","0.0-71.0","3BXQMRHWK0KOXR0YLR50CWKVLOCMU0","AZ8JL3QNIPY4U","3THR0FZ95PF7SK0MYRNAOUHTWA4OLV","","null","<img src=""img/land1.png"" style=""width:200px; border:14px solid green;"">","null","","","","","","","","","",""
"","image-keyboard-response","72","51357","0.0-72.0","3BXQMRHWK0KOXR0YLR50CWKVLOCMU0","AZ8JL3QNIPY4U","3THR0FZ95PF7SK0MYRNAOUHTWA4OLV","","281.20000000298023","img/land1.png","75","282","2","1","1","1","1,0.7,0.7,0.7,1,0.7,0.7,0.7,1","1,0.7,0.7,0.7,1,0.7,0.7,0.7,1","","",""
"","html-keyboard-response","73","51658","0.0-73.0","3BXQMRHWK0KOXR0YLR50CWKVLOCMU0","AZ8JL3QNIPY4U","3THR0FZ95PF7SK0MYRNAOUHTWA4OLV","","null","<img src=""img/land1.png"" style=""width:200px; border:14px solid green;"">","null","","","","","","","","","",""
"","image-keyboard-response","74","52765","0.0-74.0","3BXQMRHWK0KOXR0YLR50CWKVLOCMU0","AZ8JL3QNIPY4U","3THR0FZ95PF7SK0MYRNAOUHTWA4OLV","","1106.1000000014901","img/land2.png","74","1106.8999999985099","1","0","2","1","1,0.7,0.7,0.7,1,0.7,0.7,0.7,1","1,0.7,0.7,0.7,1,0.7,0.7,0.7,1","","",""
"","html-keyboard-response","75","53067","0.0-75.0","3BXQMRHWK0KOXR0YLR50CWKVLOCMU0","AZ8JL3QNIPY4U","3THR0FZ95PF7SK0MYRNAOUHTWA4OLV","","null","<img src=""img/land2.png"" style=""width:200px;border:14px solid red;"">","null","","","","","","","","","",""
"","image-keyboard-response","76","53366","0.0-76.0","3BXQMRHWK0KOXR0YLR50CWKVLOCMU0","AZ8JL3QNIPY4U","3THR0FZ95PF7SK0MYRNAOUHTWA4OLV","","297.8999999985099","img/land2.png","75","298.5","2","1","2","1","1,0.7,0.7,0.7,1,0.7,0.7,0.7,1","1,0.7,0.7,0.7,1,0.7,0.7,0.7,1","","",""
"","html-keyboard-response","77","53667","0.0-77.0","3BXQMRHWK0KOXR0YLR50CWKVLOCMU0","AZ8JL3QNIPY4U","3THR0FZ95PF7SK0MYRNAOUHTWA4OLV","","null","<img src=""img/land2.png"" style=""width:200px; border:14px solid green;"">","null","","","","","","","","","",""
"","image-keyboard-response","78","54221","0.0-78.0","3BXQMRHWK0KOXR0YLR50CWKVLOCMU0","AZ8JL3QNIPY4U","3THR0FZ95PF7SK0MYRNAOUHTWA4OLV","","553.3999999985099","img/land1.png","75","554.1999999955297","2","1","1","1","1,0.7,0.7,0.7,1,0.7,0.7,0.7,1","1,0.7,0.7,0.7,1,0.7,0.7,0.7,1","","",""
"","html-keyboard-response","79","54523","0.0-79.0","3BXQMRHWK0KOXR0YLR50CWKVLOCMU0","AZ8JL3QNIPY4U","3THR0FZ95PF7SK0MYRNAOUHTWA4OLV","","null","<img src=""img/land1.png"" style=""width:200px; border:14px solid green;"">","null","","","","","","","","","",""
"","image-keyboard-response","80","54837","0.0-80.0","3BXQMRHWK0KOXR0YLR50CWKVLOCMU0","AZ8JL3QNIPY4U","3THR0FZ95PF7SK0MYRNAOUHTWA4OLV","","313.5","img/land1.png","75","314.20000000298023","2","1","1","1","1,0.7,0.7,0.7,1,0.7,0.7,0.7,1","1,0.7,0.7,0.7,1,0.7,0.7,0.7,1","","",""
"","html-keyboard-response","81","55140","0.0-81.0","3BXQMRHWK0KOXR0YLR50CWKVLOCMU0","AZ8JL3QNIPY4U","3THR0FZ95PF7SK0MYRNAOUHTWA4OLV","","null","<img src=""img/land1.png"" style=""width:200px; border:14px solid green;"">","null","","","","","","","","","",""
"","image-keyboard-response","82","55637","0.0-82.0","3BXQMRHWK0KOXR0YLR50CWKVLOCMU0","AZ8JL3QNIPY4U","3THR0FZ95PF7SK0MYRNAOUHTWA4OLV","","497","img/land3.png","76","497.69999999552965","3","1","3","1","1,0.7,0.7,0.7,1,0.7,0.7,0.7,1","1,0.7,0.7,0.7,1,0.7,0.7,0.7,1","","",""
"","html-keyboard-response","83","55939","0.0-83.0","3BXQMRHWK0KOXR0YLR50CWKVLOCMU0","AZ8JL3QNIPY4U","3THR0FZ95PF7SK0MYRNAOUHTWA4OLV","","null","<img src=""img/land3.png"" style=""width:200px; border:14px solid green;"">","null","","","","","","","","","",""
"","image-keyboard-response","84","56477","0.0-84.0","3BXQMRHWK0KOXR0YLR50CWKVLOCMU0","AZ8JL3QNIPY4U","3THR0FZ95PF7SK0MYRNAOUHTWA4OLV","","537.6000000014901","img/land1.png","75","538.2999999970198","2","0","1","1","1,0.7,0.7,0.7,1,0.7,0.7,0.7,1","1,0.7,0.7,0.7,1,0.7,0.7,0.7,1","","",""
"","html-keyboard-response","85","56779","0.0-85.0","3BXQMRHWK0KOXR0YLR50CWKVLOCMU0","AZ8JL3QNIPY4U","3THR0FZ95PF7SK0MYRNAOUHTWA4OLV","","null","<img src=""img/land1.png"" style=""width:200px;border:14px solid red;"">","null","","","","","","","","","",""
"","image-keyboard-response","86","57469","0.0-86.0","3BXQMRHWK0KOXR0YLR50CWKVLOCMU0","AZ8JL3QNIPY4U","3THR0FZ95PF7SK0MYRNAOUHTWA4OLV","","689.2000000029802","img/land3.png","76","689.9000000059605","3","1","3","1","1,0.7,0.7,0.7,1,0.7,0.7,0.7,1","1,0.7,0.7,0.7,1,0.7,0.7,0.7,1","","",""
"","html-keyboard-response","87","57772","0.0-87.0","3BXQMRHWK0KOXR0YLR50CWKVLOCMU0","AZ8JL3QNIPY4U","3THR0FZ95PF7SK0MYRNAOUHTWA4OLV","","null","<img src=""img/land3.png"" style=""width:200px; border:14px solid green;"">","null","","","","","","","","","",""
"","image-keyboard-response","88","58406","0.0-88.0","3BXQMRHWK0KOXR0YLR50CWKVLOCMU0","AZ8JL3QNIPY4U","3THR0FZ95PF7SK0MYRNAOUHTWA4OLV","","632.3999999985099","img/land2.png","75","633.2000000029802","2","1","2","1","1,0.7,0.7,0.7,1,0.7,0.7,0.7,1","1,0.7,0.7,0.7,1,0.7,0.7,0.7,1","","",""
"","html-keyboard-response","89","58708","0.0-89.0","3BXQMRHWK0KOXR0YLR50CWKVLOCMU0","AZ8JL3QNIPY4U","3THR0FZ95PF7SK0MYRNAOUHTWA4OLV","","null","<img src=""img/land2.png"" style=""width:200px; border:14px solid green;"">","null","","","","","","","","","",""
"","image-keyboard-response","90","58957","0.0-90.0","3BXQMRHWK0KOXR0YLR50CWKVLOCMU0","AZ8JL3QNIPY4U","3THR0FZ95PF7SK0MYRNAOUHTWA4OLV","","248.79999999701977","img/land2.png","75","249.5","2","1","2","1","1,0.7,0.7,0.7,1,0.7,0.7,0.7,1","1,0.7,0.7,0.7,1,0.7,0.7,0.7,1","","",""
"","html-keyboard-response","91","59258","0.0-91.0","3BXQMRHWK0KOXR0YLR50CWKVLOCMU0","AZ8JL3QNIPY4U","3THR0FZ95PF7SK0MYRNAOUHTWA4OLV","","null","<img src=""img/land2.png"" style=""width:200px; border:14px solid green;"">","null","","","","","","","","","",""
"","image-keyboard-response","92","59541","0.0-92.0","3BXQMRHWK0KOXR0YLR50CWKVLOCMU0","AZ8JL3QNIPY4U","3THR0FZ95PF7SK0MYRNAOUHTWA4OLV","","282.20000000298023","img/land2.png","75","282.80000000447035","2","1","2","1","1,0.7,0.7,0.7,1,0.7,0.7,0.7,1","1,0.7,0.7,0.7,1,0.7,0.7,0.7,1","","",""
"","html-keyboard-response","93","59843","0.0-93.0","3BXQMRHWK0KOXR0YLR50CWKVLOCMU0","AZ8JL3QNIPY4U","3THR0FZ95PF7SK0MYRNAOUHTWA4OLV","","null","<img src=""img/land2.png"" style=""width:200px; border:14px solid green;"">","null","","","","","","","","","",""
"","image-keyboard-response","94","60589","0.0-94.0","3BXQMRHWK0KOXR0YLR50CWKVLOCMU0","AZ8JL3QNIPY4U","3THR0FZ95PF7SK0MYRNAOUHTWA4OLV","","745.3999999985099","img/land3.png","76","745.8999999985099","3","1","3","1","1,0.7,0.7,0.7,1,0.7,0.7,0.7,1","1,0.7,0.7,0.7,1,0.7,0.7,0.7,1","","",""
"","html-keyboard-response","95","60891","0.0-95.0","3BXQMRHWK0KOXR0YLR50CWKVLOCMU0","AZ8JL3QNIPY4U","3THR0FZ95PF7SK0MYRNAOUHTWA4OLV","","null","<img src=""img/land3.png"" style=""width:200px; border:14px solid green;"">","null","","","","","","","","","",""
"","image-keyboard-response","96","61501","0.0-96.0","3BXQMRHWK0KOXR0YLR50CWKVLOCMU0","AZ8JL3QNIPY4U","3THR0FZ95PF7SK0MYRNAOUHTWA4OLV","","610","img/land1.png","75","610.8000000044703","2","1","1","1","1,0.7,0.7,0.7,1,0.7,0.7,0.7,1","1,0.7,0.7,0.7,1,0.7,0.7,0.7,1","","",""
"","html-keyboard-response","97","61803","0.0-97.0","3BXQMRHWK0KOXR0YLR50CWKVLOCMU0","AZ8JL3QNIPY4U","3THR0FZ95PF7SK0MYRNAOUHTWA4OLV","","null","<img src=""img/land1.png"" style=""width:200px; border:14px solid green;"">","null","","","","","","","","","",""
"","image-keyboard-response","98","62541","0.0-98.0","3BXQMRHWK0KOXR0YLR50CWKVLOCMU0","AZ8JL3QNIPY4U","3THR0FZ95PF7SK0MYRNAOUHTWA4OLV","","737.1999999955297","img/land2.png","75","737.7999999970198","2","1","2","1","1,0.7,0.7,0.7,1,0.7,0.7,0.7,1","1,0.7,0.7,0.7,1,0.7,0.7,0.7,1","","",""
"","html-keyboard-response","99","62842","0.0-99.0","3BXQMRHWK0KOXR0YLR50CWKVLOCMU0","AZ8JL3QNIPY4U","3THR0FZ95PF7SK0MYRNAOUHTWA4OLV","","null","<img src=""img/land2.png"" style=""width:200px; border:14px solid green;"">","null","","","","","","","","","",""
"","image-keyboard-response","100","63509","0.0-100.0","3BXQMRHWK0KOXR0YLR50CWKVLOCMU0","AZ8JL3QNIPY4U","3THR0FZ95PF7SK0MYRNAOUHTWA4OLV","","666.1000000014901","img/land3.png","76","666.8999999985099","3","1","3","1","1,0.7,0.7,0.7,1,0.7,0.7,0.7,1","1,0.7,0.7,0.7,1,0.7,0.7,0.7,1","","",""
"","html-keyboard-response","101","63811","0.0-101.0","3BXQMRHWK0KOXR0YLR50CWKVLOCMU0","AZ8JL3QNIPY4U","3THR0FZ95PF7SK0MYRNAOUHTWA4OLV","","null","<img src=""img/land3.png"" style=""width:200px; border:14px solid green;"">","null","","","","","","","","","",""
"","image-keyboard-response","102","64301","0.0-102.0","3BXQMRHWK0KOXR0YLR50CWKVLOCMU0","AZ8JL3QNIPY4U","3THR0FZ95PF7SK0MYRNAOUHTWA4OLV","","489.29999999701977","img/land2.png","75","490","2","1","2","1","1,0.7,0.7,0.7,1,0.7,0.7,0.7,1","1,0.7,0.7,0.7,1,0.7,0.7,0.7,1","","",""
"","html-keyboard-response","103","64603","0.0-103.0","3BXQMRHWK0KOXR0YLR50CWKVLOCMU0","AZ8JL3QNIPY4U","3THR0FZ95PF7SK0MYRNAOUHTWA4OLV","","null","<img src=""img/land2.png"" style=""width:200px; border:14px solid green;"">","null","","","","","","","","","",""
"","image-keyboard-response","104","65293","0.0-104.0","3BXQMRHWK0KOXR0YLR50CWKVLOCMU0","AZ8JL3QNIPY4U","3THR0FZ95PF7SK0MYRNAOUHTWA4OLV","","689.7000000029802","img/land1.png","75","690.6000000014901","2","1","1","1","1,0.7,0.7,0.7,1,0.7,0.7,0.7,1","1,0.7,0.7,0.7,1,0.7,0.7,0.7,1","","",""
"","html-keyboard-response","105","65594","0.0-105.0","3BXQMRHWK0KOXR0YLR50CWKVLOCMU0","AZ8JL3QNIPY4U","3THR0FZ95PF7SK0MYRNAOUHTWA4OLV","","null","<img src=""img/land1.png"" style=""width:200px; border:14px solid green;"">","null","","","","","","","","","",""
"","image-keyboard-response","106","65885","0.0-106.0","3BXQMRHWK0KOXR0YLR50CWKVLOCMU0","AZ8JL3QNIPY4U","3THR0FZ95PF7SK0MYRNAOUHTWA4OLV","","290.29999999701977","img/land1.png","75","291","2","0","1","1","1,0.7,0.7,0.7,1,0.7,0.7,0.7,1","1,0.7,0.7,0.7,1,0.7,0.7,0.7,1","","",""
"","html-keyboard-response","107","66187","0.0-107.0","3BXQMRHWK0KOXR0YLR50CWKVLOCMU0","AZ8JL3QNIPY4U","3THR0FZ95PF7SK0MYRNAOUHTWA4OLV","","null","<img src=""img/land1.png"" style=""width:200px;border:14px solid red;"">","null","","","","","","","","","",""
"","image-keyboard-response","108","66781","0.0-108.0","3BXQMRHWK0KOXR0YLR50CWKVLOCMU0","AZ8JL3QNIPY4U","3THR0FZ95PF7SK0MYRNAOUHTWA4OLV","","593.1000000014901","img/land3.png","76","593.6999999955297","3","1","3","1","1,0.7,0.7,0.7,1,0.7,0.7,0.7,1","1,0.7,0.7,0.7,1,0.7,0.7,0.7,1","","",""
"","html-keyboard-response","109","67083","0.0-109.0","3BXQMRHWK0KOXR0YLR50CWKVLOCMU0","AZ8JL3QNIPY4U","3THR0FZ95PF7SK0MYRNAOUHTWA4OLV","","null","<img src=""img/land3.png"" style=""width:200px; border:14px solid green;"">","null","","","","","","","","","",""
"","image-keyboard-response","110","67373","0.0-110.0","3BXQMRHWK0KOXR0YLR50CWKVLOCMU0","AZ8JL3QNIPY4U","3THR0FZ95PF7SK0MYRNAOUHTWA4OLV","","289","img/land3.png","76","289.79999999701977","3","1","3","1","1,0.7,0.7,0.7,1,0.7,0.7,0.7,1","1,0.7,0.7,0.7,1,0.7,0.7,0.7,1","","",""
"","html-keyboard-response","111","67675","0.0-111.0","3BXQMRHWK0KOXR0YLR50CWKVLOCMU0","AZ8JL3QNIPY4U","3THR0FZ95PF7SK0MYRNAOUHTWA4OLV","","null","<img src=""img/land3.png"" style=""width:200px; border:14px solid green;"">","null","","","","","","","","","",""
"","image-keyboard-response","112","68173","0.0-112.0","3BXQMRHWK0KOXR0YLR50CWKVLOCMU0","AZ8JL3QNIPY4U","3THR0FZ95PF7SK0MYRNAOUHTWA4OLV","","497.80000000447035","img/land2.png","75","498.5","2","1","2","1","1,0.7,0.7,0.7,1,0.7,0.7,0.7,1","1,0.7,0.7,0.7,1,0.7,0.7,0.7,1","","",""
"","html-keyboard-response","113","68474","0.0-113.0","3BXQMRHWK0KOXR0YLR50CWKVLOCMU0","AZ8JL3QNIPY4U","3THR0FZ95PF7SK0MYRNAOUHTWA4OLV","","null","<img src=""img/land2.png"" style=""width:200px; border:14px solid green;"">","null","","","","","","","","","",""
"","image-keyboard-response","114","69061","0.0-114.0","3BXQMRHWK0KOXR0YLR50CWKVLOCMU0","AZ8JL3QNIPY4U","3THR0FZ95PF7SK0MYRNAOUHTWA4OLV","","586.2999999970198","img/land3.png","76","587.1000000014901","3","1","3","1","1,0.7,0.7,0.7,1,0.7,0.7,0.7,1","1,0.7,0.7,0.7,1,0.7,0.7,0.7,1","","",""
"","html-keyboard-response","115","69363","0.0-115.0","3BXQMRHWK0KOXR0YLR50CWKVLOCMU0","AZ8JL3QNIPY4U","3THR0FZ95PF7SK0MYRNAOUHTWA4OLV","","null","<img src=""img/land3.png"" style=""width:200px; border:14px solid green;"">","null","","","","","","","","","",""
"","image-keyboard-response","116","69645","0.0-116.0","3BXQMRHWK0KOXR0YLR50CWKVLOCMU0","AZ8JL3QNIPY4U","3THR0FZ95PF7SK0MYRNAOUHTWA4OLV","","281.6000000014901","img/land3.png","76","282.3999999985099","3","1","3","1","1,0.7,0.7,0.7,1,0.7,0.7,0.7,1","1,0.7,0.7,0.7,1,0.7,0.7,0.7,1","","",""
"","html-keyboard-response","117","69946","0.0-117.0","3BXQMRHWK0KOXR0YLR50CWKVLOCMU0","AZ8JL3QNIPY4U","3THR0FZ95PF7SK0MYRNAOUHTWA4OLV","","null","<img src=""img/land3.png"" style=""width:200px; border:14px solid green;"">","null","","","","","","","","","",""
"","image-keyboard-response","118","70262","0.0-118.0","3BXQMRHWK0KOXR0YLR50CWKVLOCMU0","AZ8JL3QNIPY4U","3THR0FZ95PF7SK0MYRNAOUHTWA4OLV","","314.5","img/land3.png","76","315.20000000298023","3","1","3","1","1,0.7,0.7,0.7,1,0.7,0.7,0.7,1","1,0.7,0.7,0.7,1,0.7,0.7,0.7,1","","",""
"","html-keyboard-response","119","70562","0.0-119.0","3BXQMRHWK0KOXR0YLR50CWKVLOCMU0","AZ8JL3QNIPY4U","3THR0FZ95PF7SK0MYRNAOUHTWA4OLV","","null","<img src=""img/land3.png"" style=""width:200px; border:14px solid green;"">","null","","","","","","","","","",""
"","image-keyboard-response","120","70909","0.0-120.0","3BXQMRHWK0KOXR0YLR50CWKVLOCMU0","AZ8JL3QNIPY4U","3THR0FZ95PF7SK0MYRNAOUHTWA4OLV","","345.90000000596046","img/land3.png","76","346.6000000014901","3","1","3","1","1,0.7,0.7,0.7,1,0.7,0.7,0.7,1","1,0.7,0.7,0.7,1,0.7,0.7,0.7,1","","",""
"","html-keyboard-response","121","71210","0.0-121.0","3BXQMRHWK0KOXR0YLR50CWKVLOCMU0","AZ8JL3QNIPY4U","3THR0FZ95PF7SK0MYRNAOUHTWA4OLV","","null","<img src=""img/land3.png"" style=""width:200px; border:14px solid green;"">","null","","","","","","","","","",""
"","image-keyboard-response","122","71533","0.0-122.0","3BXQMRHWK0KOXR0YLR50CWKVLOCMU0","AZ8JL3QNIPY4U","3THR0FZ95PF7SK0MYRNAOUHTWA4OLV","","322.29999999701977","img/land3.png","76","323","3","1","3","1","1,0.7,0.7,0.7,1,0.7,0.7,0.7,1","1,0.7,0.7,0.7,1,0.7,0.7,0.7,1","","",""
"","html-keyboard-response","123","71835","0.0-123.0","3BXQMRHWK0KOXR0YLR50CWKVLOCMU0","AZ8JL3QNIPY4U","3THR0FZ95PF7SK0MYRNAOUHTWA4OLV","","null","<img src=""img/land3.png"" style=""width:200px; border:14px solid green;"">","null","","","","","","","","","",""
"","image-keyboard-response","124","72133","0.0-124.0","3BXQMRHWK0KOXR0YLR50CWKVLOCMU0","AZ8JL3QNIPY4U","3THR0FZ95PF7SK0MYRNAOUHTWA4OLV","","297.30000000447035","img/land3.png","76","298.1000000014901","3","1","3","1","1,0.7,0.7,0.7,1,0.7,0.7,0.7,1","1,0.7,0.7,0.7,1,0.7,0.7,0.7,1","","",""
"","html-keyboard-response","125","72436","0.0-125.0","3BXQMRHWK0KOXR0YLR50CWKVLOCMU0","AZ8JL3QNIPY4U","3THR0FZ95PF7SK0MYRNAOUHTWA4OLV","","null","<img src=""img/land3.png"" style=""width:200px; border:14px solid green;"">","null","","","","","","","","","",""
"","image-keyboard-response","126","72765","0.0-126.0","3BXQMRHWK0KOXR0YLR50CWKVLOCMU0","AZ8JL3QNIPY4U","3THR0FZ95PF7SK0MYRNAOUHTWA4OLV","","327.79999999701977","img/land3.png","76","328.70000000298023","3","1","3","1","1,0.7,0.7,0.7,1,0.7,0.7,0.7,1","1,0.7,0.7,0.7,1,0.7,0.7,0.7,1","","",""
"","html-keyboard-response","127","73067","0.0-127.0","3BXQMRHWK0KOXR0YLR50CWKVLOCMU0","AZ8JL3QNIPY4U","3THR0FZ95PF7SK0MYRNAOUHTWA4OLV","","null","<img src=""img/land3.png"" style=""width:200px; border:14px solid green;"">","null","","","","","","","","","",""
"","image-keyboard-response","128","73381","0.0-128.0","3BXQMRHWK0KOXR0YLR50CWKVLOCMU0","AZ8JL3QNIPY4U","3THR0FZ95PF7SK0MYRNAOUHTWA4OLV","","313.1000000014901","img/land3.png","76","313.79999999701977","3","1","3","1","1,0.7,0.7,0.7,1,0.7,0.7,0.7,1","1,0.7,0.7,0.7,1,0.7,0.7,0.7,1","","",""
"","html-keyboard-response","129","73682","0.0-129.0","3BXQMRHWK0KOXR0YLR50CWKVLOCMU0","AZ8JL3QNIPY4U","3THR0FZ95PF7SK0MYRNAOUHTWA4OLV","","null","<img src=""img/land3.png"" style=""width:200px; border:14px solid green;"">","null","","","","","","","","","",""
"","image-keyboard-response","130","74161","0.0-130.0","3BXQMRHWK0KOXR0YLR50CWKVLOCMU0","AZ8JL3QNIPY4U","3THR0FZ95PF7SK0MYRNAOUHTWA4OLV","","478","img/land2.png","75","478.80000000447035","2","1","2","1","1,0.7,0.7,0.7,1,0.7,0.7,0.7,1","1,0.7,0.7,0.7,1,0.7,0.7,0.7,1","","",""
"","html-keyboard-response","131","74462","0.0-131.0","3BXQMRHWK0KOXR0YLR50CWKVLOCMU0","AZ8JL3QNIPY4U","3THR0FZ95PF7SK0MYRNAOUHTWA4OLV","","null","<img src=""img/land2.png"" style=""width:200px; border:14px solid green;"">","null","","","","","","","","","",""
"","image-keyboard-response","132","74741","0.0-132.0","3BXQMRHWK0KOXR0YLR50CWKVLOCMU0","AZ8JL3QNIPY4U","3THR0FZ95PF7SK0MYRNAOUHTWA4OLV","","277.79999999701977","img/land2.png","75","278.3999999985099","2","1","2","1","1,0.7,0.7,0.7,1,0.7,0.7,0.7,1","1,0.7,0.7,0.7,1,0.7,0.7,0.7,1","","",""
"","html-keyboard-response","133","75043","0.0-133.0","3BXQMRHWK0KOXR0YLR50CWKVLOCMU0","AZ8JL3QNIPY4U","3THR0FZ95PF7SK0MYRNAOUHTWA4OLV","","null","<img src=""img/land2.png"" style=""width:200px; border:14px solid green;"">","null","","","","","","","","","",""
"","image-keyboard-response","134","75733","0.0-134.0","3BXQMRHWK0KOXR0YLR50CWKVLOCMU0","AZ8JL3QNIPY4U","3THR0FZ95PF7SK0MYRNAOUHTWA4OLV","","688.7000000029802","img/land3.png","76","689.2999999970198","3","1","3","1","1,0.7,0.7,0.7,1,0.7,0.7,0.7,1","1,0.7,0.7,0.7,1,0.7,0.7,0.7,1","","",""
"","html-keyboard-response","135","76035","0.0-135.0","3BXQMRHWK0KOXR0YLR50CWKVLOCMU0","AZ8JL3QNIPY4U","3THR0FZ95PF7SK0MYRNAOUHTWA4OLV","","null","<img src=""img/land3.png"" style=""width:200px; border:14px solid green;"">","null","","","","","","","","","",""
"","image-keyboard-response","136","76349","0.0-136.0","3BXQMRHWK0KOXR0YLR50CWKVLOCMU0","AZ8JL3QNIPY4U","3THR0FZ95PF7SK0MYRNAOUHTWA4OLV","","313","img/land3.png","76","313.80000000447035","3","1","3","1","1,0.7,0.7,0.7,1,0.7,0.7,0.7,1","1,0.7,0.7,0.7,1,0.7,0.7,0.7,1","","",""
"","html-keyboard-response","137","76650","0.0-137.0","3BXQMRHWK0KOXR0YLR50CWKVLOCMU0","AZ8JL3QNIPY4U","3THR0FZ95PF7SK0MYRNAOUHTWA4OLV","","null","<img src=""img/land3.png"" style=""width:200px; border:14px solid green;"">","null","","","","","","","","","",""
"","image-keyboard-response","138","77133","0.0-138.0","3BXQMRHWK0KOXR0YLR50CWKVLOCMU0","AZ8JL3QNIPY4U","3THR0FZ95PF7SK0MYRNAOUHTWA4OLV","","481.8999999985099","img/land2.png","75","482.6000000014901","2","1","2","1","1,0.7,0.7,0.7,1,0.7,0.7,0.7,1","1,0.7,0.7,0.7,1,0.7,0.7,0.7,1","","",""
"","html-keyboard-response","139","77436","0.0-139.0","3BXQMRHWK0KOXR0YLR50CWKVLOCMU0","AZ8JL3QNIPY4U","3THR0FZ95PF7SK0MYRNAOUHTWA4OLV","","null","<img src=""img/land2.png"" style=""width:200px; border:14px solid green;"">","null","","","","","","","","","",""
"","image-keyboard-response","140","78045","0.0-140.0","3BXQMRHWK0KOXR0YLR50CWKVLOCMU0","AZ8JL3QNIPY4U","3THR0FZ95PF7SK0MYRNAOUHTWA4OLV","","608.7000000029802","img/land1.png","75","609.3000000044703","2","1","1","1","1,0.7,0.7,0.7,1,0.7,0.7,0.7,1","1,0.7,0.7,0.7,1,0.7,0.7,0.7,1","","",""
"","html-keyboard-response","141","78347","0.0-141.0","3BXQMRHWK0KOXR0YLR50CWKVLOCMU0","AZ8JL3QNIPY4U","3THR0FZ95PF7SK0MYRNAOUHTWA4OLV","","null","<img src=""img/land1.png"" style=""width:200px; border:14px solid green;"">","null","","","","","","","","","",""
"","image-keyboard-response","142","78837","0.0-142.0","3BXQMRHWK0KOXR0YLR50CWKVLOCMU0","AZ8JL3QNIPY4U","3THR0FZ95PF7SK0MYRNAOUHTWA4OLV","","489","img/land3.png","75","489.70000000298023","2","1","3","1","1,0.7,0.7,0.7,1,0.7,0.7,0.7,1","1,0.7,0.7,0.7,1,0.7,0.7,0.7,1","","",""
"","html-keyboard-response","143","79139","0.0-143.0","3BXQMRHWK0KOXR0YLR50CWKVLOCMU0","AZ8JL3QNIPY4U","3THR0FZ95PF7SK0MYRNAOUHTWA4OLV","","null","<img src=""img/land3.png"" style=""width:200px; border:14px solid green;"">","null","","","","","","","","","",""
"","image-keyboard-response","144","79517","0.0-144.0","3BXQMRHWK0KOXR0YLR50CWKVLOCMU0","AZ8JL3QNIPY4U","3THR0FZ95PF7SK0MYRNAOUHTWA4OLV","","377.69999999552965","img/land1.png","76","378.40000000596046","3","1","1","1","1,0.7,0.7,0.7,1,0.7,0.7,0.7,1","1,0.7,0.7,0.7,1,0.7,0.7,0.7,1","","",""
"","html-keyboard-response","145","79818","0.0-145.0","3BXQMRHWK0KOXR0YLR50CWKVLOCMU0","AZ8JL3QNIPY4U","3THR0FZ95PF7SK0MYRNAOUHTWA4OLV","","null","<img src=""img/land1.png"" style=""width:200px; border:14px solid green;"">","null","","","","","","","","","",""
"","image-keyboard-response","146","80245","0.0-146.0","3BXQMRHWK0KOXR0YLR50CWKVLOCMU0","AZ8JL3QNIPY4U","3THR0FZ95PF7SK0MYRNAOUHTWA4OLV","","425.79999999701977","img/land1.png","75","426.6000000014901","2","1","1","1","1,0.7,0.7,0.7,1,0.7,0.7,0.7,1","1,0.7,0.7,0.7,1,0.7,0.7,0.7,1","","",""
"","html-keyboard-response","147","80547","0.0-147.0","3BXQMRHWK0KOXR0YLR50CWKVLOCMU0","AZ8JL3QNIPY4U","3THR0FZ95PF7SK0MYRNAOUHTWA4OLV","","null","<img src=""img/land1.png"" style=""width:200px; border:14px solid green;"">","null","","","","","","","","","",""
"","image-keyboard-response","148","80829","0.0-148.0","3BXQMRHWK0KOXR0YLR50CWKVLOCMU0","AZ8JL3QNIPY4U","3THR0FZ95PF7SK0MYRNAOUHTWA4OLV","","280.79999999701977","img/land1.png","75","281.5","2","0","1","1","1,0.7,0.7,0.7,1,0.7,0.7,0.7,1","1,0.7,0.7,0.7,1,0.7,0.7,0.7,1","","",""
"","html-keyboard-response","149","81142","0.0-149.0","3BXQMRHWK0KOXR0YLR50CWKVLOCMU0","AZ8JL3QNIPY4U","3THR0FZ95PF7SK0MYRNAOUHTWA4OLV","","null","<img src=""img/land1.png"" style=""width:200px;border:14px solid red;"">","null","","","","","","","","","",""
"","image-keyboard-response","150","81597","0.0-150.0","3BXQMRHWK0KOXR0YLR50CWKVLOCMU0","AZ8JL3QNIPY4U","3THR0FZ95PF7SK0MYRNAOUHTWA4OLV","","453.79999999701977","img/land2.png","76","454.3999999985099","3","0","2","1","1,0.7,0.7,0.7,1,0.7,0.7,0.7,1","1,0.7,0.7,0.7,1,0.7,0.7,0.7,1","","",""
"","html-keyboard-response","151","81899","0.0-151.0","3BXQMRHWK0KOXR0YLR50CWKVLOCMU0","AZ8JL3QNIPY4U","3THR0FZ95PF7SK0MYRNAOUHTWA4OLV","","null","<img src=""img/land2.png"" style=""width:200px;border:14px solid red;"">","null","","","","","","","","","",""
"","image-keyboard-response","152","82645","0.0-152.0","3BXQMRHWK0KOXR0YLR50CWKVLOCMU0","AZ8JL3QNIPY4U","3THR0FZ95PF7SK0MYRNAOUHTWA4OLV","","745.2999999970198","img/land3.png","76","746.2000000029802","3","1","3","1","1,0.7,0.7,0.7,1,0.7,0.7,0.7,1","1,0.7,0.7,0.7,1,0.7,0.7,0.7,1","","",""
"","html-keyboard-response","153","82948","0.0-153.0","3BXQMRHWK0KOXR0YLR50CWKVLOCMU0","AZ8JL3QNIPY4U","3THR0FZ95PF7SK0MYRNAOUHTWA4OLV","","null","<img src=""img/land3.png"" style=""width:200px; border:14px solid green;"">","null","","","","","","","","","",""
"","image-keyboard-response","154","83549","0.0-154.0","3BXQMRHWK0KOXR0YLR50CWKVLOCMU0","AZ8JL3QNIPY4U","3THR0FZ95PF7SK0MYRNAOUHTWA4OLV","","600.3999999985099","img/land1.png","75","601","2","1","1","1","1,0.7,0.7,0.7,1,0.7,0.7,0.7,1","1,0.7,0.7,0.7,1,0.7,0.7,0.7,1","","",""
"","html-keyboard-response","155","83850","0.0-155.0","3BXQMRHWK0KOXR0YLR50CWKVLOCMU0","AZ8JL3QNIPY4U","3THR0FZ95PF7SK0MYRNAOUHTWA4OLV","","null","<img src=""img/land1.png"" style=""width:200px; border:14px solid green;"">","null","","","","","","","","","",""
"","image-keyboard-response","156","84166","0.0-156.0","3BXQMRHWK0KOXR0YLR50CWKVLOCMU0","AZ8JL3QNIPY4U","3THR0FZ95PF7SK0MYRNAOUHTWA4OLV","","315","img/land1.png","75","315.80000000447035","2","1","1","1","1,0.7,0.7,0.7,1,0.7,0.7,0.7,1","1,0.7,0.7,0.7,1,0.7,0.7,0.7,1","","",""
"","html-keyboard-response","157","84467","0.0-157.0","3BXQMRHWK0KOXR0YLR50CWKVLOCMU0","AZ8JL3QNIPY4U","3THR0FZ95PF7SK0MYRNAOUHTWA4OLV","","null","<img src=""img/land1.png"" style=""width:200px; border:14px solid green;"">","null","","","","","","","","","",""
"","image-keyboard-response","158","85158","0.0-158.0","3BXQMRHWK0KOXR0YLR50CWKVLOCMU0","AZ8JL3QNIPY4U","3THR0FZ95PF7SK0MYRNAOUHTWA4OLV","","690.2000000029802","img/land2.png","75","691","2","1","2","1","1,0.7,0.7,0.7,1,0.7,0.7,0.7,1","1,0.7,0.7,0.7,1,0.7,0.7,0.7,1","","",""
"","html-keyboard-response","159","85459","0.0-159.0","3BXQMRHWK0KOXR0YLR50CWKVLOCMU0","AZ8JL3QNIPY4U","3THR0FZ95PF7SK0MYRNAOUHTWA4OLV","","null","<img src=""img/land2.png"" style=""width:200px; border:14px solid green;"">","null","","","","","","","","","",""
"","image-keyboard-response","160","85957","0.0-160.0","3BXQMRHWK0KOXR0YLR50CWKVLOCMU0","AZ8JL3QNIPY4U","3THR0FZ95PF7SK0MYRNAOUHTWA4OLV","","496.6000000014901","img/land1.png","75","497.29999999701977","2","1","1","1","1,0.7,0.7,0.7,1,0.7,0.7,0.7,1","1,0.7,0.7,0.7,1,0.7,0.7,0.7,1","","",""
"","html-keyboard-response","161","86259","0.0-161.0","3BXQMRHWK0KOXR0YLR50CWKVLOCMU0","AZ8JL3QNIPY4U","3THR0FZ95PF7SK0MYRNAOUHTWA4OLV","","null","<img src=""img/land1.png"" style=""width:200px; border:14px solid green;"">","null","","","","","","","","","",""
"","image-keyboard-response","162","86725","0.0-162.0","3BXQMRHWK0KOXR0YLR50CWKVLOCMU0","AZ8JL3QNIPY4U","3THR0FZ95PF7SK0MYRNAOUHTWA4OLV","","465.19999999552965","img/land3.png","76","466","3","1","3","1","1,0.7,0.7,0.7,1,0.7,0.7,0.7,1","1,0.7,0.7,0.7,1,0.7,0.7,0.7,1","","",""
"","html-keyboard-response","163","87027","0.0-163.0","3BXQMRHWK0KOXR0YLR50CWKVLOCMU0","AZ8JL3QNIPY4U","3THR0FZ95PF7SK0MYRNAOUHTWA4OLV","","null","<img src=""img/land3.png"" style=""width:200px; border:14px solid green;"">","null","","","","","","","","","",""
"","image-keyboard-response","164","87317","0.0-164.0","3BXQMRHWK0KOXR0YLR50CWKVLOCMU0","AZ8JL3QNIPY4U","3THR0FZ95PF7SK0MYRNAOUHTWA4OLV","","288.5","img/land3.png","76","289.29999999701977","3","1","3","1","1,0.7,0.7,0.7,1,0.7,0.7,0.7,1","1,0.7,0.7,0.7,1,0.7,0.7,0.7,1","","",""
"","html-keyboard-response","165","87618","0.0-165.0","3BXQMRHWK0KOXR0YLR50CWKVLOCMU0","AZ8JL3QNIPY4U","3THR0FZ95PF7SK0MYRNAOUHTWA4OLV","","null","<img src=""img/land3.png"" style=""width:200px; border:14px solid green;"">","null","","","","","","","","","",""
"","image-keyboard-response","166","88093","0.0-166.0","3BXQMRHWK0KOXR0YLR50CWKVLOCMU0","AZ8JL3QNIPY4U","3THR0FZ95PF7SK0MYRNAOUHTWA4OLV","","473.6000000014901","img/land2.png","75","474.29999999701977","2","1","2","1","1,0.7,0.7,0.7,1,0.7,0.7,0.7,1","1,0.7,0.7,0.7,1,0.7,0.7,0.7,1","","",""
"","html-keyboard-response","167","88394","0.0-167.0","3BXQMRHWK0KOXR0YLR50CWKVLOCMU0","AZ8JL3QNIPY4U","3THR0FZ95PF7SK0MYRNAOUHTWA4OLV","","null","<img src=""img/land2.png"" style=""width:200px; border:14px solid green;"">","null","","","","","","","","","",""
"","image-keyboard-response","168","88925","0.0-168.0","3BXQMRHWK0KOXR0YLR50CWKVLOCMU0","AZ8JL3QNIPY4U","3THR0FZ95PF7SK0MYRNAOUHTWA4OLV","","529.9000000059605","img/land1.png","75","530.5","2","0","1","1","1,0.7,0.7,0.7,1,0.7,0.7,0.7,1","1,0.7,0.7,0.7,1,0.7,0.7,0.7,1","","",""
"","html-keyboard-response","169","89227","0.0-169.0","3BXQMRHWK0KOXR0YLR50CWKVLOCMU0","AZ8JL3QNIPY4U","3THR0FZ95PF7SK0MYRNAOUHTWA4OLV","","null","<img src=""img/land1.png"" style=""width:200px;border:14px solid red;"">","null","","","","","","","","","",""
"","html-keyboard-response","170","92805","0.0-170.0","3BXQMRHWK0KOXR0YLR50CWKVLOCMU0","AZ8JL3QNIPY4U","3THR0FZ95PF7SK0MYRNAOUHTWA4OLV","","","","","","","","","","","","","",""
"","image-keyboard-response","171","93717","0.0-171.0","3BXQMRHWK0KOXR0YLR50CWKVLOCMU0","AZ8JL3QNIPY4U","3THR0FZ95PF7SK0MYRNAOUHTWA4OLV","","910.8000000044703","img/land4.png","74","911.7999999970198","1","1","1","1","1,0.7,0.7,0.7,1,0.7,0.7,0.7,1","1,0.7,0.7,0.7,1,0.7,0.7,0.7,1","","",""
"","html-keyboard-response","172","94019","0.0-172.0","3BXQMRHWK0KOXR0YLR50CWKVLOCMU0","AZ8JL3QNIPY4U","3THR0FZ95PF7SK0MYRNAOUHTWA4OLV","","null","<img src=""img/land4.png"" style=""width:200px; border:14px solid green;"">","null","","","","","","","","","",""
"","image-keyboard-response","173","94357","0.0-173.0","3BXQMRHWK0KOXR0YLR50CWKVLOCMU0","AZ8JL3QNIPY4U","3THR0FZ95PF7SK0MYRNAOUHTWA4OLV","","336.6000000014901","img/land4.png","74","337.3999999985099","1","1","1","1","1,0.7,0.7,0.7,1,0.7,0.7,0.7,1","1,0.7,0.7,0.7,1,0.7,0.7,0.7,1","","",""
"","html-keyboard-response","174","94658","0.0-174.0","3BXQMRHWK0KOXR0YLR50CWKVLOCMU0","AZ8JL3QNIPY4U","3THR0FZ95PF7SK0MYRNAOUHTWA4OLV","","null","<img src=""img/land4.png"" style=""width:200px; border:14px solid green;"">","null","","","","","","","","","",""
"","image-keyboard-response","175","95645","0.0-175.0","3BXQMRHWK0KOXR0YLR50CWKVLOCMU0","AZ8JL3QNIPY4U","3THR0FZ95PF7SK0MYRNAOUHTWA4OLV","","985.7000000029802","img/land6.png","75","986.5","2","1","3","1","1,0.7,0.7,0.7,1,0.7,0.7,0.7,1","1,0.7,0.7,0.7,1,0.7,0.7,0.7,1","","",""
"","html-keyboard-response","176","95946","0.0-176.0","3BXQMRHWK0KOXR0YLR50CWKVLOCMU0","AZ8JL3QNIPY4U","3THR0FZ95PF7SK0MYRNAOUHTWA4OLV","","null","<img src=""img/land6.png"" style=""width:200px; border:14px solid green;"">","null","","","","","","","","","",""
"","image-keyboard-response","177","96564","0.0-177.0","3BXQMRHWK0KOXR0YLR50CWKVLOCMU0","AZ8JL3QNIPY4U","3THR0FZ95PF7SK0MYRNAOUHTWA4OLV","","617.5","img/land5.png","76","618.2000000029802","3","1","2","1","1,0.7,0.7,0.7,1,0.7,0.7,0.7,1","1,0.7,0.7,0.7,1,0.7,0.7,0.7,1","","",""
"","html-keyboard-response","178","96865","0.0-178.0","3BXQMRHWK0KOXR0YLR50CWKVLOCMU0","AZ8JL3QNIPY4U","3THR0FZ95PF7SK0MYRNAOUHTWA4OLV","","null","<img src=""img/land5.png"" style=""width:200px; border:14px solid green;"">","null","","","","","","","","","",""
"","image-keyboard-response","179","97365","0.0-179.0","3BXQMRHWK0KOXR0YLR50CWKVLOCMU0","AZ8JL3QNIPY4U","3THR0FZ95PF7SK0MYRNAOUHTWA4OLV","","498.3999999985099","img/land6.png","75","499.29999999701977","2","1","3","1","1,0.7,0.7,0.7,1,0.7,0.7,0.7,1","1,0.7,0.7,0.7,1,0.7,0.7,0.7,1","","",""
"","html-keyboard-response","180","97667","0.0-180.0","3BXQMRHWK0KOXR0YLR50CWKVLOCMU0","AZ8JL3QNIPY4U","3THR0FZ95PF7SK0MYRNAOUHTWA4OLV","","null","<img src=""img/land6.png"" style=""width:200px; border:14px solid green;"">","null","","","","","","","","","",""
"","image-keyboard-response","181","98092","0.0-181.0","3BXQMRHWK0KOXR0YLR50CWKVLOCMU0","AZ8JL3QNIPY4U","3THR0FZ95PF7SK0MYRNAOUHTWA4OLV","","424.29999999701977","img/land5.png","76","425.1000000014901","3","1","2","1","1,0.7,0.7,0.7,1,0.7,0.7,0.7,1","1,0.7,0.7,0.7,1,0.7,0.7,0.7,1","","",""
"","html-keyboard-response","182","98394","0.0-182.0","3BXQMRHWK0KOXR0YLR50CWKVLOCMU0","AZ8JL3QNIPY4U","3THR0FZ95PF7SK0MYRNAOUHTWA4OLV","","null","<img src=""img/land5.png"" style=""width:200px; border:14px solid green;"">","null","","","","","","","","","",""
"","image-keyboard-response","183","98852","0.0-183.0","3BXQMRHWK0KOXR0YLR50CWKVLOCMU0","AZ8JL3QNIPY4U","3THR0FZ95PF7SK0MYRNAOUHTWA4OLV","","457.6000000014901","img/land5.png","76","458.30000000447035","3","1","2","1","1,0.7,0.7,0.7,1,0.7,0.7,0.7,1","1,0.7,0.7,0.7,1,0.7,0.7,0.7,1","","",""
"","html-keyboard-response","184","99154","0.0-184.0","3BXQMRHWK0KOXR0YLR50CWKVLOCMU0","AZ8JL3QNIPY4U","3THR0FZ95PF7SK0MYRNAOUHTWA4OLV","","null","<img src=""img/land5.png"" style=""width:200px; border:14px solid green;"">","null","","","","","","","","","",""
"","image-keyboard-response","185","99468","0.0-185.0","3BXQMRHWK0KOXR0YLR50CWKVLOCMU0","AZ8JL3QNIPY4U","3THR0FZ95PF7SK0MYRNAOUHTWA4OLV","","312.69999999552965","img/land5.png","76","313.5","3","1","2","1","1,0.7,0.7,0.7,1,0.7,0.7,0.7,1","1,0.7,0.7,0.7,1,0.7,0.7,0.7,1","","",""
"","html-keyboard-response","186","99770","0.0-186.0","3BXQMRHWK0KOXR0YLR50CWKVLOCMU0","AZ8JL3QNIPY4U","3THR0FZ95PF7SK0MYRNAOUHTWA4OLV","","null","<img src=""img/land5.png"" style=""width:200px; border:14px solid green;"">","null","","","","","","","","","",""
"","image-keyboard-response","187","100517","0.0-187.0","3BXQMRHWK0KOXR0YLR50CWKVLOCMU0","AZ8JL3QNIPY4U","3THR0FZ95PF7SK0MYRNAOUHTWA4OLV","","745.8000000044703","img/land4.png","74","746.7999999970198","1","1","1","1","1,0.7,0.7,0.7,1,0.7,0.7,0.7,1","1,0.7,0.7,0.7,1,0.7,0.7,0.7,1","","",""
"","html-keyboard-response","188","100818","0.0-188.0","3BXQMRHWK0KOXR0YLR50CWKVLOCMU0","AZ8JL3QNIPY4U","3THR0FZ95PF7SK0MYRNAOUHTWA4OLV","","null","<img src=""img/land4.png"" style=""width:200px; border:14px solid green;"">","null","","","","","","","","","",""
"","image-keyboard-response","189","101436","0.0-189.0","3BXQMRHWK0KOXR0YLR50CWKVLOCMU0","AZ8JL3QNIPY4U","3THR0FZ95PF7SK0MYRNAOUHTWA4OLV","","617.5999999940395","img/land5.png","75","618.2999999970198","2","1","2","1","1,0.7,0.7,0.7,1,0.7,0.7,0.7,1","1,0.7,0.7,0.7,1,0.7,0.7,0.7,1","","",""
"","html-keyboard-response","190","101737","0.0-190.0","3BXQMRHWK0KOXR0YLR50CWKVLOCMU0","AZ8JL3QNIPY4U","3THR0FZ95PF7SK0MYRNAOUHTWA4OLV","","null","<img src=""img/land5.png"" style=""width:200px; border:14px solid green;"">","null","","","","","","","","","",""
"","image-keyboard-response","191","102004","0.0-191.0","3BXQMRHWK0KOXR0YLR50CWKVLOCMU0","AZ8JL3QNIPY4U","3THR0FZ95PF7SK0MYRNAOUHTWA4OLV","","266.19999999552965","img/land5.png","75","267.1000000014901","2","1","2","1","1,0.7,0.7,0.7,1,0.7,0.7,0.7,1","1,0.7,0.7,0.7,1,0.7,0.7,0.7,1","","",""
"","html-keyboard-response","192","102306","0.0-192.0","3BXQMRHWK0KOXR0YLR50CWKVLOCMU0","AZ8JL3QNIPY4U","3THR0FZ95PF7SK0MYRNAOUHTWA4OLV","","null","<img src=""img/land5.png"" style=""width:200px; border:14px solid green;"">","null","","","","","","","","","",""
"","image-keyboard-response","193","102628","0.0-193.0","3BXQMRHWK0KOXR0YLR50CWKVLOCMU0","AZ8JL3QNIPY4U","3THR0FZ95PF7SK0MYRNAOUHTWA4OLV","","321.29999999701977","img/land5.png","75","322.1000000014901","2","1","2","1","1,0.7,0.7,0.7,1,0.7,0.7,0.7,1","1,0.7,0.7,0.7,1,0.7,0.7,0.7,1","","",""
"","html-keyboard-response","194","102930","0.0-194.0","3BXQMRHWK0KOXR0YLR50CWKVLOCMU0","AZ8JL3QNIPY4U","3THR0FZ95PF7SK0MYRNAOUHTWA4OLV","","null","<img src=""img/land5.png"" style=""width:200px; border:14px solid green;"">","null","","","","","","","","","",""
"","image-keyboard-response","195","103693","0.0-195.0","3BXQMRHWK0KOXR0YLR50CWKVLOCMU0","AZ8JL3QNIPY4U","3THR0FZ95PF7SK0MYRNAOUHTWA4OLV","","761.2999999970198","img/land6.png","75","762.1000000014901","2","1","3","1","1,0.7,0.7,0.7,1,0.7,0.7,0.7,1","1,0.7,0.7,0.7,1,0.7,0.7,0.7,1","","",""
"","html-keyboard-response","196","103995","0.0-196.0","3BXQMRHWK0KOXR0YLR50CWKVLOCMU0","AZ8JL3QNIPY4U","3THR0FZ95PF7SK0MYRNAOUHTWA4OLV","","null","<img src=""img/land6.png"" style=""width:200px; border:14px solid green;"">","null","","","","","","","","","",""
"","image-keyboard-response","197","104276","0.0-197.0","3BXQMRHWK0KOXR0YLR50CWKVLOCMU0","AZ8JL3QNIPY4U","3THR0FZ95PF7SK0MYRNAOUHTWA4OLV","","280.30000000447035","img/land6.png","75","281.20000000298023","2","0","3","1","1,0.7,0.7,0.7,1,0.7,0.7,0.7,1","1,0.7,0.7,0.7,1,0.7,0.7,0.7,1","","",""
"","html-keyboard-response","198","104578","0.0-198.0","3BXQMRHWK0KOXR0YLR50CWKVLOCMU0","AZ8JL3QNIPY4U","3THR0FZ95PF7SK0MYRNAOUHTWA4OLV","","null","<img src=""img/land6.png"" style=""width:200px;border:14px solid red;"">","null","","","","","","","","","",""
"","image-keyboard-response","199","105196","0.0-199.0","3BXQMRHWK0KOXR0YLR50CWKVLOCMU0","AZ8JL3QNIPY4U","3THR0FZ95PF7SK0MYRNAOUHTWA4OLV","","617.5999999940395","img/land4.png","74","618.6000000014901","1","1","1","1","1,0.7,0.7,0.7,1,0.7,0.7,0.7,1","1,0.7,0.7,0.7,1,0.7,0.7,0.7,1","","",""
"","html-keyboard-response","200","105498","0.0-200.0","3BXQMRHWK0KOXR0YLR50CWKVLOCMU0","AZ8JL3QNIPY4U","3THR0FZ95PF7SK0MYRNAOUHTWA4OLV","","null","<img src=""img/land4.png"" style=""width:200px; border:14px solid green;"">","null","","","","","","","","","",""
"","image-keyboard-response","201","105788","0.0-201.0","3BXQMRHWK0KOXR0YLR50CWKVLOCMU0","AZ8JL3QNIPY4U","3THR0FZ95PF7SK0MYRNAOUHTWA4OLV","","289.29999999701977","img/land4.png","74","289.8999999985099","1","1","1","1","1,0.7,0.7,0.7,1,0.7,0.7,0.7,1","1,0.7,0.7,0.7,1,0.7,0.7,0.7,1","","",""
"","html-keyboard-response","202","106090","0.0-202.0","3BXQMRHWK0KOXR0YLR50CWKVLOCMU0","AZ8JL3QNIPY4U","3THR0FZ95PF7SK0MYRNAOUHTWA4OLV","","null","<img src=""img/land4.png"" style=""width:200px; border:14px solid green;"">","null","","","","","","","","","",""
"","image-keyboard-response","203","106716","0.0-203.0","3BXQMRHWK0KOXR0YLR50CWKVLOCMU0","AZ8JL3QNIPY4U","3THR0FZ95PF7SK0MYRNAOUHTWA4OLV","","625","img/land5.png","76","625.6999999955297","3","0","2","1","1,0.7,0.7,0.7,1,0.7,0.7,0.7,1","1,0.7,0.7,0.7,1,0.7,0.7,0.7,1","","",""
"","html-keyboard-response","204","107019","0.0-204.0","3BXQMRHWK0KOXR0YLR50CWKVLOCMU0","AZ8JL3QNIPY4U","3THR0FZ95PF7SK0MYRNAOUHTWA4OLV","","null","<img src=""img/land5.png"" style=""width:200px;border:14px solid red;"">","null","","","","","","","","","",""
"","image-keyboard-response","205","107628","0.0-205.0","3BXQMRHWK0KOXR0YLR50CWKVLOCMU0","AZ8JL3QNIPY4U","3THR0FZ95PF7SK0MYRNAOUHTWA4OLV","","608.5","img/land6.png","75","609.2000000029802","2","1","3","1","1,0.7,0.7,0.7,1,0.7,0.7,0.7,1","1,0.7,0.7,0.7,1,0.7,0.7,0.7,1","","",""
"","html-keyboard-response","206","107930","0.0-206.0","3BXQMRHWK0KOXR0YLR50CWKVLOCMU0","AZ8JL3QNIPY4U","3THR0FZ95PF7SK0MYRNAOUHTWA4OLV","","null","<img src=""img/land6.png"" style=""width:200px; border:14px solid green;"">","null","","","","","","","","","",""
"","image-keyboard-response","207","108220","0.0-207.0","3BXQMRHWK0KOXR0YLR50CWKVLOCMU0","AZ8JL3QNIPY4U","3THR0FZ95PF7SK0MYRNAOUHTWA4OLV","","289.3999999985099","img/land6.png","75","290.1000000014901","2","1","3","1","1,0.7,0.7,0.7,1,0.7,0.7,0.7,1","1,0.7,0.7,0.7,1,0.7,0.7,0.7,1","","",""
"","html-keyboard-response","208","108521","0.0-208.0","3BXQMRHWK0KOXR0YLR50CWKVLOCMU0","AZ8JL3QNIPY4U","3THR0FZ95PF7SK0MYRNAOUHTWA4OLV","","null","<img src=""img/land6.png"" style=""width:200px; border:14px solid green;"">","null","","","","","","","","","",""
"","image-keyboard-response","209","109236","0.0-209.0","3BXQMRHWK0KOXR0YLR50CWKVLOCMU0","AZ8JL3QNIPY4U","3THR0FZ95PF7SK0MYRNAOUHTWA4OLV","","713.8999999985099","img/land4.png","74","714.6000000014901","1","1","1","1","1,0.7,0.7,0.7,1,0.7,0.7,0.7,1","1,0.7,0.7,0.7,1,0.7,0.7,0.7,1","","",""
"","html-keyboard-response","210","109537","0.0-210.0","3BXQMRHWK0KOXR0YLR50CWKVLOCMU0","AZ8JL3QNIPY4U","3THR0FZ95PF7SK0MYRNAOUHTWA4OLV","","null","<img src=""img/land4.png"" style=""width:200px; border:14px solid green;"">","null","","","","","","","","","",""
"","image-keyboard-response","211","110060","0.0-211.0","3BXQMRHWK0KOXR0YLR50CWKVLOCMU0","AZ8JL3QNIPY4U","3THR0FZ95PF7SK0MYRNAOUHTWA4OLV","","522.1000000014901","img/land6.png","75","522.8999999985099","2","0","3","1","1,0.7,0.7,0.7,1,0.7,0.7,0.7,1","1,0.7,0.7,0.7,1,0.7,0.7,0.7,1","","",""
"","html-keyboard-response","212","110362","0.0-212.0","3BXQMRHWK0KOXR0YLR50CWKVLOCMU0","AZ8JL3QNIPY4U","3THR0FZ95PF7SK0MYRNAOUHTWA4OLV","","null","<img src=""img/land6.png"" style=""width:200px;border:14px solid red;"">","null","","","","","","","","","",""
"","image-keyboard-response","213","110700","0.0-213.0","3BXQMRHWK0KOXR0YLR50CWKVLOCMU0","AZ8JL3QNIPY4U","3THR0FZ95PF7SK0MYRNAOUHTWA4OLV","","337.30000000447035","img/land6.png","75","338","2","1","3","1","1,0.7,0.7,0.7,1,0.7,0.7,0.7,1","1,0.7,0.7,0.7,1,0.7,0.7,0.7,1","","",""
"","html-keyboard-response","214","111003","0.0-214.0","3BXQMRHWK0KOXR0YLR50CWKVLOCMU0","AZ8JL3QNIPY4U","3THR0FZ95PF7SK0MYRNAOUHTWA4OLV","","null","<img src=""img/land6.png"" style=""width:200px; border:14px solid green;"">","null","","","","","","","","","",""
"","image-keyboard-response","215","111348","0.0-215.0","3BXQMRHWK0KOXR0YLR50CWKVLOCMU0","AZ8JL3QNIPY4U","3THR0FZ95PF7SK0MYRNAOUHTWA4OLV","","344.5","img/land6.png","75","345.29999999701977","2","1","3","1","1,0.7,0.7,0.7,1,0.7,0.7,0.7,1","1,0.7,0.7,0.7,1,0.7,0.7,0.7,1","","",""
"","html-keyboard-response","216","111650","0.0-216.0","3BXQMRHWK0KOXR0YLR50CWKVLOCMU0","AZ8JL3QNIPY4U","3THR0FZ95PF7SK0MYRNAOUHTWA4OLV","","null","<img src=""img/land6.png"" style=""width:200px; border:14px solid green;"">","null","","","","","","","","","",""
"","image-keyboard-response","217","112196","0.0-217.0","3BXQMRHWK0KOXR0YLR50CWKVLOCMU0","AZ8JL3QNIPY4U","3THR0FZ95PF7SK0MYRNAOUHTWA4OLV","","544.8000000044703","img/land4.png","76","545.5999999940395","3","1","1","1","1,0.7,0.7,0.7,1,0.7,0.7,0.7,1","1,0.7,0.7,0.7,1,0.7,0.7,0.7,1","","",""
"","html-keyboard-response","218","112498","0.0-218.0","3BXQMRHWK0KOXR0YLR50CWKVLOCMU0","AZ8JL3QNIPY4U","3THR0FZ95PF7SK0MYRNAOUHTWA4OLV","","null","<img src=""img/land4.png"" style=""width:200px; border:14px solid green;"">","null","","","","","","","","","",""
"","image-keyboard-response","219","113236","0.0-219.0","3BXQMRHWK0KOXR0YLR50CWKVLOCMU0","AZ8JL3QNIPY4U","3THR0FZ95PF7SK0MYRNAOUHTWA4OLV","","737.3000000044703","img/land5.png","76","738.1999999955297","3","0","2","1","1,0.7,0.7,0.7,1,0.7,0.7,0.7,1","1,0.7,0.7,0.7,1,0.7,0.7,0.7,1","","",""
"","html-keyboard-response","220","113537","0.0-220.0","3BXQMRHWK0KOXR0YLR50CWKVLOCMU0","AZ8JL3QNIPY4U","3THR0FZ95PF7SK0MYRNAOUHTWA4OLV","","null","<img src=""img/land5.png"" style=""width:200px;border:14px solid red;"">","null","","","","","","","","","",""
"","image-keyboard-response","221","114124","0.0-221.0","3BXQMRHWK0KOXR0YLR50CWKVLOCMU0","AZ8JL3QNIPY4U","3THR0FZ95PF7SK0MYRNAOUHTWA4OLV","","585.8999999985099","img/land6.png","75","586.7000000029802","2","1","3","1","1,0.7,0.7,0.7,1,0.7,0.7,0.7,1","1,0.7,0.7,0.7,1,0.7,0.7,0.7,1","","",""
"","html-keyboard-response","222","114425","0.0-222.0","3BXQMRHWK0KOXR0YLR50CWKVLOCMU0","AZ8JL3QNIPY4U","3THR0FZ95PF7SK0MYRNAOUHTWA4OLV","","null","<img src=""img/land6.png"" style=""width:200px; border:14px solid green;"">","null","","","","","","","","","",""
"","image-keyboard-response","223","114732","0.0-223.0","3BXQMRHWK0KOXR0YLR50CWKVLOCMU0","AZ8JL3QNIPY4U","3THR0FZ95PF7SK0MYRNAOUHTWA4OLV","","306.30000000447035","img/land6.png","75","307.09999999403954","2","0","3","1","1,0.7,0.7,0.7,1,0.7,0.7,0.7,1","1,0.7,0.7,0.7,1,0.7,0.7,0.7,1","","",""
"","html-keyboard-response","224","115034","0.0-224.0","3BXQMRHWK0KOXR0YLR50CWKVLOCMU0","AZ8JL3QNIPY4U","3THR0FZ95PF7SK0MYRNAOUHTWA4OLV","","null","<img src=""img/land6.png"" style=""width:200px;border:14px solid red;"">","null","","","","","","","","","",""
"","image-keyboard-response","225","115764","0.0-225.0","3BXQMRHWK0KOXR0YLR50CWKVLOCMU0","AZ8JL3QNIPY4U","3THR0FZ95PF7SK0MYRNAOUHTWA4OLV","","729.6000000014901","img/land5.png","75","730.2999999970198","2","1","2","1","1,0.7,0.7,0.7,1,0.7,0.7,0.7,1","1,0.7,0.7,0.7,1,0.7,0.7,0.7,1","","",""
"","html-keyboard-response","226","116066","0.0-226.0","3BXQMRHWK0KOXR0YLR50CWKVLOCMU0","AZ8JL3QNIPY4U","3THR0FZ95PF7SK0MYRNAOUHTWA4OLV","","null","<img src=""img/land5.png"" style=""width:200px; border:14px solid green;"">","null","","","","","","","","","",""
"","image-keyboard-response","227","117012","0.0-227.0","3BXQMRHWK0KOXR0YLR50CWKVLOCMU0","AZ8JL3QNIPY4U","3THR0FZ95PF7SK0MYRNAOUHTWA4OLV","","945.2999999970198","img/land4.png","74","946.1000000014901","1","1","1","1","1,0.7,0.7,0.7,1,0.7,0.7,0.7,1","1,0.7,0.7,0.7,1,0.7,0.7,0.7,1","","",""
"","html-keyboard-response","228","117314","0.0-228.0","3BXQMRHWK0KOXR0YLR50CWKVLOCMU0","AZ8JL3QNIPY4U","3THR0FZ95PF7SK0MYRNAOUHTWA4OLV","","null","<img src=""img/land4.png"" style=""width:200px; border:14px solid green;"">","null","","","","","","","","","",""
"","image-keyboard-response","229","117788","0.0-229.0","3BXQMRHWK0KOXR0YLR50CWKVLOCMU0","AZ8JL3QNIPY4U","3THR0FZ95PF7SK0MYRNAOUHTWA4OLV","","473.5","img/land6.png","75","474.29999999701977","2","0","3","1","1,0.7,0.7,0.7,1,0.7,0.7,0.7,1","1,0.7,0.7,0.7,1,0.7,0.7,0.7,1","","",""
"","html-keyboard-response","230","118090","0.0-230.0","3BXQMRHWK0KOXR0YLR50CWKVLOCMU0","AZ8JL3QNIPY4U","3THR0FZ95PF7SK0MYRNAOUHTWA4OLV","","null","<img src=""img/land6.png"" style=""width:200px;border:14px solid red;"">","null","","","","","","","","","",""
"","image-keyboard-response","231","118420","0.0-231.0","3BXQMRHWK0KOXR0YLR50CWKVLOCMU0","AZ8JL3QNIPY4U","3THR0FZ95PF7SK0MYRNAOUHTWA4OLV","","329.1000000014901","img/land6.png","75","330","2","1","3","1","1,0.7,0.7,0.7,1,0.7,0.7,0.7,1","1,0.7,0.7,0.7,1,0.7,0.7,0.7,1","","",""
"","html-keyboard-response","232","118723","0.0-232.0","3BXQMRHWK0KOXR0YLR50CWKVLOCMU0","AZ8JL3QNIPY4U","3THR0FZ95PF7SK0MYRNAOUHTWA4OLV","","null","<img src=""img/land6.png"" style=""width:200px; border:14px solid green;"">","null","","","","","","","","","",""
"","image-keyboard-response","233","119228","0.0-233.0","3BXQMRHWK0KOXR0YLR50CWKVLOCMU0","AZ8JL3QNIPY4U","3THR0FZ95PF7SK0MYRNAOUHTWA4OLV","","504.1000000014901","img/land4.png","75","505","2","1","1","1","1,0.7,0.7,0.7,1,0.7,0.7,0.7,1","1,0.7,0.7,0.7,1,0.7,0.7,0.7,1","","",""
"","html-keyboard-response","234","119529","0.0-234.0","3BXQMRHWK0KOXR0YLR50CWKVLOCMU0","AZ8JL3QNIPY4U","3THR0FZ95PF7SK0MYRNAOUHTWA4OLV","","null","<img src=""img/land4.png"" style=""width:200px; border:14px solid green;"">","null","","","","","","","","","",""
"","image-keyboard-response","235","120300","0.0-235.0","3BXQMRHWK0KOXR0YLR50CWKVLOCMU0","AZ8JL3QNIPY4U","3THR0FZ95PF7SK0MYRNAOUHTWA4OLV","","769.6999999955297","img/land5.png","75","770.3999999985099","2","1","2","1","1,0.7,0.7,0.7,1,0.7,0.7,0.7,1","1,0.7,0.7,0.7,1,0.7,0.7,0.7,1","","",""
"","html-keyboard-response","236","120602","0.0-236.0","3BXQMRHWK0KOXR0YLR50CWKVLOCMU0","AZ8JL3QNIPY4U","3THR0FZ95PF7SK0MYRNAOUHTWA4OLV","","null","<img src=""img/land5.png"" style=""width:200px; border:14px solid green;"">","null","","","","","","","","","",""
"","image-keyboard-response","237","121348","0.0-237.0","3BXQMRHWK0KOXR0YLR50CWKVLOCMU0","AZ8JL3QNIPY4U","3THR0FZ95PF7SK0MYRNAOUHTWA4OLV","","745.2999999970198","img/land6.png","75","746","2","1","3","1","1,0.7,0.7,0.7,1,0.7,0.7,0.7,1","1,0.7,0.7,0.7,1,0.7,0.7,0.7,1","","",""
"","html-keyboard-response","238","121650","0.0-238.0","3BXQMRHWK0KOXR0YLR50CWKVLOCMU0","AZ8JL3QNIPY4U","3THR0FZ95PF7SK0MYRNAOUHTWA4OLV","","null","<img src=""img/land6.png"" style=""width:200px; border:14px solid green;"">","null","","","","","","","","","",""
"","image-keyboard-response","239","121956","0.0-239.0","3BXQMRHWK0KOXR0YLR50CWKVLOCMU0","AZ8JL3QNIPY4U","3THR0FZ95PF7SK0MYRNAOUHTWA4OLV","","304.5","img/land6.png","75","305.29999999701977","2","0","3","1","1,0.7,0.7,0.7,1,0.7,0.7,0.7,1","1,0.7,0.7,0.7,1,0.7,0.7,0.7,1","","",""
"","html-keyboard-response","240","122257","0.0-240.0","3BXQMRHWK0KOXR0YLR50CWKVLOCMU0","AZ8JL3QNIPY4U","3THR0FZ95PF7SK0MYRNAOUHTWA4OLV","","null","<img src=""img/land6.png"" style=""width:200px;border:14px solid red;"">","null","","","","","","","","","",""
"","image-keyboard-response","241","122564","0.0-241.0","3BXQMRHWK0KOXR0YLR50CWKVLOCMU0","AZ8JL3QNIPY4U","3THR0FZ95PF7SK0MYRNAOUHTWA4OLV","","305.69999999552965","img/land6.png","75","306.5","2","1","3","1","1,0.7,0.7,0.7,1,0.7,0.7,0.7,1","1,0.7,0.7,0.7,1,0.7,0.7,0.7,1","","",""
"","html-keyboard-response","242","122866","0.0-242.0","3BXQMRHWK0KOXR0YLR50CWKVLOCMU0","AZ8JL3QNIPY4U","3THR0FZ95PF7SK0MYRNAOUHTWA4OLV","","null","<img src=""img/land6.png"" style=""width:200px; border:14px solid green;"">","null","","","","","","","","","",""
"","image-keyboard-response","243","123444","0.0-243.0","3BXQMRHWK0KOXR0YLR50CWKVLOCMU0","AZ8JL3QNIPY4U","3THR0FZ95PF7SK0MYRNAOUHTWA4OLV","","576.5","img/land4.png","74","577.2000000029802","1","1","1","1","1,0.7,0.7,0.7,1,0.7,0.7,0.7,1","1,0.7,0.7,0.7,1,0.7,0.7,0.7,1","","",""
"","html-keyboard-response","244","123745","0.0-244.0","3BXQMRHWK0KOXR0YLR50CWKVLOCMU0","AZ8JL3QNIPY4U","3THR0FZ95PF7SK0MYRNAOUHTWA4OLV","","null","<img src=""img/land4.png"" style=""width:200px; border:14px solid green;"">","null","","","","","","","","","",""
"","image-keyboard-response","245","124452","0.0-245.0","3BXQMRHWK0KOXR0YLR50CWKVLOCMU0","AZ8JL3QNIPY4U","3THR0FZ95PF7SK0MYRNAOUHTWA4OLV","","706.1999999955297","img/land5.png","75","706.8999999985099","2","1","2","1","1,0.7,0.7,0.7,1,0.7,0.7,0.7,1","1,0.7,0.7,0.7,1,0.7,0.7,0.7,1","","",""
"","html-keyboard-response","246","124753","0.0-246.0","3BXQMRHWK0KOXR0YLR50CWKVLOCMU0","AZ8JL3QNIPY4U","3THR0FZ95PF7SK0MYRNAOUHTWA4OLV","","null","<img src=""img/land5.png"" style=""width:200px; border:14px solid green;"">","null","","","","","","","","","",""
"","image-keyboard-response","247","125412","0.0-247.0","3BXQMRHWK0KOXR0YLR50CWKVLOCMU0","AZ8JL3QNIPY4U","3THR0FZ95PF7SK0MYRNAOUHTWA4OLV","","657.5","img/land6.png","75","658.2000000029802","2","0","3","1","1,0.7,0.7,0.7,1,0.7,0.7,0.7,1","1,0.7,0.7,0.7,1,0.7,0.7,0.7,1","","",""
"","html-keyboard-response","248","125713","0.0-248.0","3BXQMRHWK0KOXR0YLR50CWKVLOCMU0","AZ8JL3QNIPY4U","3THR0FZ95PF7SK0MYRNAOUHTWA4OLV","","null","<img src=""img/land6.png"" style=""width:200px;border:14px solid red;"">","null","","","","","","","","","",""
"","image-keyboard-response","249","126132","0.0-249.0","3BXQMRHWK0KOXR0YLR50CWKVLOCMU0","AZ8JL3QNIPY4U","3THR0FZ95PF7SK0MYRNAOUHTWA4OLV","","417.30000000447035","img/land6.png","76","418","3","1","3","1","1,0.7,0.7,0.7,1,0.7,0.7,0.7,1","1,0.7,0.7,0.7,1,0.7,0.7,0.7,1","","",""
"","html-keyboard-response","250","126432","0.0-250.0","3BXQMRHWK0KOXR0YLR50CWKVLOCMU0","AZ8JL3QNIPY4U","3THR0FZ95PF7SK0MYRNAOUHTWA4OLV","","null","<img src=""img/land6.png"" style=""width:200px; border:14px solid green;"">","null","","","","","","","","","",""
"","image-keyboard-response","251","126668","0.0-251.0","3BXQMRHWK0KOXR0YLR50CWKVLOCMU0","AZ8JL3QNIPY4U","3THR0FZ95PF7SK0MYRNAOUHTWA4OLV","","234.5","img/land6.png","76","235.10000000149012","3","1","3","1","1,0.7,0.7,0.7,1,0.7,0.7,0.7,1","1,0.7,0.7,0.7,1,0.7,0.7,0.7,1","","",""
"","html-keyboard-response","252","126970","0.0-252.0","3BXQMRHWK0KOXR0YLR50CWKVLOCMU0","AZ8JL3QNIPY4U","3THR0FZ95PF7SK0MYRNAOUHTWA4OLV","","null","<img src=""img/land6.png"" style=""width:200px; border:14px solid green;"">","null","","","","","","","","","",""
"","image-keyboard-response","253","127300","0.0-253.0","3BXQMRHWK0KOXR0YLR50CWKVLOCMU0","AZ8JL3QNIPY4U","3THR0FZ95PF7SK0MYRNAOUHTWA4OLV","","329.19999999552965","img/land6.png","76","330","3","1","3","1","1,0.7,0.7,0.7,1,0.7,0.7,0.7,1","1,0.7,0.7,0.7,1,0.7,0.7,0.7,1","","",""
"","html-keyboard-response","254","127601","0.0-254.0","3BXQMRHWK0KOXR0YLR50CWKVLOCMU0","AZ8JL3QNIPY4U","3THR0FZ95PF7SK0MYRNAOUHTWA4OLV","","null","<img src=""img/land6.png"" style=""width:200px; border:14px solid green;"">","null","","","","","","","","","",""
"","image-keyboard-response","255","128484","0.0-255.0","3BXQMRHWK0KOXR0YLR50CWKVLOCMU0","AZ8JL3QNIPY4U","3THR0FZ95PF7SK0MYRNAOUHTWA4OLV","","881.8000000044703","img/land4.png","74","882.5","1","1","1","1","1,0.7,0.7,0.7,1,0.7,0.7,0.7,1","1,0.7,0.7,0.7,1,0.7,0.7,0.7,1","","",""
"","html-keyboard-response","256","128785","0.0-256.0","3BXQMRHWK0KOXR0YLR50CWKVLOCMU0","AZ8JL3QNIPY4U","3THR0FZ95PF7SK0MYRNAOUHTWA4OLV","","null","<img src=""img/land4.png"" style=""width:200px; border:14px solid green;"">","null","","","","","","","","","",""
"","image-keyboard-response","257","129924","0.0-257.0","3BXQMRHWK0KOXR0YLR50CWKVLOCMU0","AZ8JL3QNIPY4U","3THR0FZ95PF7SK0MYRNAOUHTWA4OLV","","1137.8000000044703","img/land6.png","76","1138.6000000014901","3","1","3","1","1,0.7,0.7,0.7,1,0.7,0.7,0.7,1","1,0.7,0.7,0.7,1,0.7,0.7,0.7,1","","",""
"","html-keyboard-response","258","130225","0.0-258.0","3BXQMRHWK0KOXR0YLR50CWKVLOCMU0","AZ8JL3QNIPY4U","3THR0FZ95PF7SK0MYRNAOUHTWA4OLV","","null","<img src=""img/land6.png"" style=""width:200px; border:14px solid green;"">","null","","","","","","","","","",""
"","image-keyboard-response","259","130452","0.0-259.0","3BXQMRHWK0KOXR0YLR50CWKVLOCMU0","AZ8JL3QNIPY4U","3THR0FZ95PF7SK0MYRNAOUHTWA4OLV","","225.30000000447035","img/land6.png","76","226","3","1","3","1","1,0.7,0.7,0.7,1,0.7,0.7,0.7,1","1,0.7,0.7,0.7,1,0.7,0.7,0.7,1","","",""
"","html-keyboard-response","260","130753","0.0-260.0","3BXQMRHWK0KOXR0YLR50CWKVLOCMU0","AZ8JL3QNIPY4U","3THR0FZ95PF7SK0MYRNAOUHTWA4OLV","","null","<img src=""img/land6.png"" style=""width:200px; border:14px solid green;"">","null","","","","","","","","","",""
"","image-keyboard-response","261","131244","0.0-261.0","3BXQMRHWK0KOXR0YLR50CWKVLOCMU0","AZ8JL3QNIPY4U","3THR0FZ95PF7SK0MYRNAOUHTWA4OLV","","489.80000000447035","img/land4.png","74","490.5","1","1","1","1","1,0.7,0.7,0.7,1,0.7,0.7,0.7,1","1,0.7,0.7,0.7,1,0.7,0.7,0.7,1","","",""
"","html-keyboard-response","262","131546","0.0-262.0","3BXQMRHWK0KOXR0YLR50CWKVLOCMU0","AZ8JL3QNIPY4U","3THR0FZ95PF7SK0MYRNAOUHTWA4OLV","","null","<img src=""img/land4.png"" style=""width:200px; border:14px solid green;"">","null","","","","","","","","","",""
"","image-keyboard-response","263","132196","0.0-263.0","3BXQMRHWK0KOXR0YLR50CWKVLOCMU0","AZ8JL3QNIPY4U","3THR0FZ95PF7SK0MYRNAOUHTWA4OLV","","649.1000000014901","img/land6.png","75","649.8999999985099","2","1","3","1","1,0.7,0.7,0.7,1,0.7,0.7,0.7,1","1,0.7,0.7,0.7,1,0.7,0.7,0.7,1","","",""
"","html-keyboard-response","264","132497","0.0-264.0","3BXQMRHWK0KOXR0YLR50CWKVLOCMU0","AZ8JL3QNIPY4U","3THR0FZ95PF7SK0MYRNAOUHTWA4OLV","","null","<img src=""img/land6.png"" style=""width:200px; border:14px solid green;"">","null","","","","","","","","","",""
"","image-keyboard-response","265","133027","0.0-265.0","3BXQMRHWK0KOXR0YLR50CWKVLOCMU0","AZ8JL3QNIPY4U","3THR0FZ95PF7SK0MYRNAOUHTWA4OLV","","530.1000000014901","img/land4.png","74","530.7999999970198","1","1","1","1","1,0.7,0.7,0.7,1,0.7,0.7,0.7,1","1,0.7,0.7,0.7,1,0.7,0.7,0.7,1","","",""
"","html-keyboard-response","266","133328","0.0-266.0","3BXQMRHWK0KOXR0YLR50CWKVLOCMU0","AZ8JL3QNIPY4U","3THR0FZ95PF7SK0MYRNAOUHTWA4OLV","","null","<img src=""img/land4.png"" style=""width:200px; border:14px solid green;"">","null","","","","","","","","","",""
"","image-keyboard-response","267","133843","0.0-267.0","3BXQMRHWK0KOXR0YLR50CWKVLOCMU0","AZ8JL3QNIPY4U","3THR0FZ95PF7SK0MYRNAOUHTWA4OLV","","514.2000000029802","img/land6.png","75","515","2","1","3","1","1,0.7,0.7,0.7,1,0.7,0.7,0.7,1","1,0.7,0.7,0.7,1,0.7,0.7,0.7,1","","",""
"","html-keyboard-response","268","134144","0.0-268.0","3BXQMRHWK0KOXR0YLR50CWKVLOCMU0","AZ8JL3QNIPY4U","3THR0FZ95PF7SK0MYRNAOUHTWA4OLV","","null","<img src=""img/land6.png"" style=""width:200px; border:14px solid green;"">","null","","","","","","","","","",""
"","image-keyboard-response","269","134724","0.0-269.0","3BXQMRHWK0KOXR0YLR50CWKVLOCMU0","AZ8JL3QNIPY4U","3THR0FZ95PF7SK0MYRNAOUHTWA4OLV","","578.6000000014901","img/land4.png","74","579.2000000029802","1","1","1","1","1,0.7,0.7,0.7,1,0.7,0.7,0.7,1","1,0.7,0.7,0.7,1,0.7,0.7,0.7,1","","",""
"","html-keyboard-response","270","135025","0.0-270.0","3BXQMRHWK0KOXR0YLR50CWKVLOCMU0","AZ8JL3QNIPY4U","3THR0FZ95PF7SK0MYRNAOUHTWA4OLV","","null","<img src=""img/land4.png"" style=""width:200px; border:14px solid green;"">","null","","","","","","","","","",""
"","image-keyboard-response","271","135620","0.0-271.0","3BXQMRHWK0KOXR0YLR50CWKVLOCMU0","AZ8JL3QNIPY4U","3THR0FZ95PF7SK0MYRNAOUHTWA4OLV","","593.1000000014901","img/land6.png","75","594","2","1","3","1","1,0.7,0.7,0.7,1,0.7,0.7,0.7,1","1,0.7,0.7,0.7,1,0.7,0.7,0.7,1","","",""
"","html-keyboard-response","272","135921","0.0-272.0","3BXQMRHWK0KOXR0YLR50CWKVLOCMU0","AZ8JL3QNIPY4U","3THR0FZ95PF7SK0MYRNAOUHTWA4OLV","","null","<img src=""img/land6.png"" style=""width:200px; border:14px solid green;"">","null","","","","","","","","","",""
"","image-keyboard-response","273","136459","0.0-273.0","3BXQMRHWK0KOXR0YLR50CWKVLOCMU0","AZ8JL3QNIPY4U","3THR0FZ95PF7SK0MYRNAOUHTWA4OLV","","537.6999999955297","img/land4.png","74","538.5","1","1","1","1","1,0.7,0.7,0.7,1,0.7,0.7,0.7,1","1,0.7,0.7,0.7,1,0.7,0.7,0.7,1","","",""
"","html-keyboard-response","274","136761","0.0-274.0","3BXQMRHWK0KOXR0YLR50CWKVLOCMU0","AZ8JL3QNIPY4U","3THR0FZ95PF7SK0MYRNAOUHTWA4OLV","","null","<img src=""img/land4.png"" style=""width:200px; border:14px solid green;"">","null","","","","","","","","","",""
"","image-keyboard-response","275","137211","0.0-275.0","3BXQMRHWK0KOXR0YLR50CWKVLOCMU0","AZ8JL3QNIPY4U","3THR0FZ95PF7SK0MYRNAOUHTWA4OLV","","450","img/land6.png","75","450.80000000447035","2","1","3","1","1,0.7,0.7,0.7,1,0.7,0.7,0.7,1","1,0.7,0.7,0.7,1,0.7,0.7,0.7,1","","",""
"","html-keyboard-response","276","137512","0.0-276.0","3BXQMRHWK0KOXR0YLR50CWKVLOCMU0","AZ8JL3QNIPY4U","3THR0FZ95PF7SK0MYRNAOUHTWA4OLV","","null","<img src=""img/land6.png"" style=""width:200px; border:14px solid green;"">","null","","","","","","","","","",""
"","image-keyboard-response","277","138091","0.0-277.0","3BXQMRHWK0KOXR0YLR50CWKVLOCMU0","AZ8JL3QNIPY4U","3THR0FZ95PF7SK0MYRNAOUHTWA4OLV","","578.1999999955297","img/land4.png","74","578.8000000044703","1","1","1","1","1,0.7,0.7,0.7,1,0.7,0.7,0.7,1","1,0.7,0.7,0.7,1,0.7,0.7,0.7,1","","",""
"","html-keyboard-response","278","138392","0.0-278.0","3BXQMRHWK0KOXR0YLR50CWKVLOCMU0","AZ8JL3QNIPY4U","3THR0FZ95PF7SK0MYRNAOUHTWA4OLV","","null","<img src=""img/land4.png"" style=""width:200px; border:14px solid green;"">","null","","","","","","","","","",""
"","image-keyboard-response","279","139275","0.0-279.0","3BXQMRHWK0KOXR0YLR50CWKVLOCMU0","AZ8JL3QNIPY4U","3THR0FZ95PF7SK0MYRNAOUHTWA4OLV","","882.2000000029802","img/land5.png","75","882.9000000059605","2","1","2","1","1,0.7,0.7,0.7,1,0.7,0.7,0.7,1","1,0.7,0.7,0.7,1,0.7,0.7,0.7,1","","",""
"","html-keyboard-response","280","139576","0.0-280.0","3BXQMRHWK0KOXR0YLR50CWKVLOCMU0","AZ8JL3QNIPY4U","3THR0FZ95PF7SK0MYRNAOUHTWA4OLV","","null","<img src=""img/land5.png"" style=""width:200px; border:14px solid green;"">","null","","","","","","","","","",""
"","image-keyboard-response","281","139843","0.0-281.0","3BXQMRHWK0KOXR0YLR50CWKVLOCMU0","AZ8JL3QNIPY4U","3THR0FZ95PF7SK0MYRNAOUHTWA4OLV","","266.1000000014901","img/land5.png","75","266.80000000447035","2","1","2","1","1,0.7,0.7,0.7,1,0.7,0.7,0.7,1","1,0.7,0.7,0.7,1,0.7,0.7,0.7,1","","",""
"","html-keyboard-response","282","140145","0.0-282.0","3BXQMRHWK0KOXR0YLR50CWKVLOCMU0","AZ8JL3QNIPY4U","3THR0FZ95PF7SK0MYRNAOUHTWA4OLV","","null","<img src=""img/land5.png"" style=""width:200px; border:14px solid green;"">","null","","","","","","","","","",""
"","image-keyboard-response","283","140715","0.0-283.0","3BXQMRHWK0KOXR0YLR50CWKVLOCMU0","AZ8JL3QNIPY4U","3THR0FZ95PF7SK0MYRNAOUHTWA4OLV","","569.5","img/land6.png","74","570.3999999985099","1","1","3","1","1,0.7,0.7,0.7,1,0.7,0.7,0.7,1","1,0.7,0.7,0.7,1,0.7,0.7,0.7,1","","",""
"","html-keyboard-response","284","141017","0.0-284.0","3BXQMRHWK0KOXR0YLR50CWKVLOCMU0","AZ8JL3QNIPY4U","3THR0FZ95PF7SK0MYRNAOUHTWA4OLV","","null","<img src=""img/land6.png"" style=""width:200px; border:14px solid green;"">","null","","","","","","","","","",""
"","image-keyboard-response","285","141803","0.0-285.0","3BXQMRHWK0KOXR0YLR50CWKVLOCMU0","AZ8JL3QNIPY4U","3THR0FZ95PF7SK0MYRNAOUHTWA4OLV","","785.8999999985099","img/land4.png","74","786.8000000044703","1","1","1","1","1,0.7,0.7,0.7,1,0.7,0.7,0.7,1","1,0.7,0.7,0.7,1,0.7,0.7,0.7,1","","",""
"","html-keyboard-response","286","142105","0.0-286.0","3BXQMRHWK0KOXR0YLR50CWKVLOCMU0","AZ8JL3QNIPY4U","3THR0FZ95PF7SK0MYRNAOUHTWA4OLV","","null","<img src=""img/land4.png"" style=""width:200px; border:14px solid green;"">","null","","","","","","","","","",""
"","image-keyboard-response","287","142107","0.0-287.0","3BXQMRHWK0KOXR0YLR50CWKVLOCMU0","AZ8JL3QNIPY4U","3THR0FZ95PF7SK0MYRNAOUHTWA4OLV","","1.6999999955296516","img/land4.png","74","2.2999999970197678","1","1","1","1","1,0.7,0.7,0.7,1,0.7,0.7,0.7,1","1,0.7,0.7,0.7,1,0.7,0.7,0.7,1","","",""
"","html-keyboard-response","288","142409","0.0-288.0","3BXQMRHWK0KOXR0YLR50CWKVLOCMU0","AZ8JL3QNIPY4U","3THR0FZ95PF7SK0MYRNAOUHTWA4OLV","","null","<img src=""img/land4.png"" style=""width:200px; border:14px solid green;"">","null","","","","","","","","","",""
"","image-keyboard-response","289","142915","0.0-289.0","3BXQMRHWK0KOXR0YLR50CWKVLOCMU0","AZ8JL3QNIPY4U","3THR0FZ95PF7SK0MYRNAOUHTWA4OLV","","505.19999999552965","img/land6.png","75","506","2","1","3","1","1,0.7,0.7,0.7,1,0.7,0.7,0.7,1","1,0.7,0.7,0.7,1,0.7,0.7,0.7,1","","",""
"","html-keyboard-response","290","143217","0.0-290.0","3BXQMRHWK0KOXR0YLR50CWKVLOCMU0","AZ8JL3QNIPY4U","3THR0FZ95PF7SK0MYRNAOUHTWA4OLV","","null","<img src=""img/land6.png"" style=""width:200px; border:14px solid green;"">","null","","","","","","","","","",""
"","image-keyboard-response","291","143859","0.0-291.0","3BXQMRHWK0KOXR0YLR50CWKVLOCMU0","AZ8JL3QNIPY4U","3THR0FZ95PF7SK0MYRNAOUHTWA4OLV","","641.5","img/land4.png","75","642.2999999970198","2","1","1","1","1,0.7,0.7,0.7,1,0.7,0.7,0.7,1","1,0.7,0.7,0.7,1,0.7,0.7,0.7,1","","",""
"","html-keyboard-response","292","144160","0.0-292.0","3BXQMRHWK0KOXR0YLR50CWKVLOCMU0","AZ8JL3QNIPY4U","3THR0FZ95PF7SK0MYRNAOUHTWA4OLV","","null","<img src=""img/land4.png"" style=""width:200px; border:14px solid green;"">","null","","","","","","","","","",""
"","image-keyboard-response","293","145203","0.0-293.0","3BXQMRHWK0KOXR0YLR50CWKVLOCMU0","AZ8JL3QNIPY4U","3THR0FZ95PF7SK0MYRNAOUHTWA4OLV","","1041.7000000029802","img/land6.png","74","1042.6000000014901","1","1","3","1","1,0.7,0.7,0.7,1,0.7,0.7,0.7,1","1,0.7,0.7,0.7,1,0.7,0.7,0.7,1","","",""
"","html-keyboard-response","294","145505","0.0-294.0","3BXQMRHWK0KOXR0YLR50CWKVLOCMU0","AZ8JL3QNIPY4U","3THR0FZ95PF7SK0MYRNAOUHTWA4OLV","","null","<img src=""img/land6.png"" style=""width:200px; border:14px solid green;"">","null","","","","","","","","","",""
"","image-keyboard-response","295","146331","0.0-295.0","3BXQMRHWK0KOXR0YLR50CWKVLOCMU0","AZ8JL3QNIPY4U","3THR0FZ95PF7SK0MYRNAOUHTWA4OLV","","825.2999999970198","img/land5.png","75","826.1000000014901","2","1","2","1","1,0.7,0.7,0.7,1,0.7,0.7,0.7,1","1,0.7,0.7,0.7,1,0.7,0.7,0.7,1","","",""
"","html-keyboard-response","296","146633","0.0-296.0","3BXQMRHWK0KOXR0YLR50CWKVLOCMU0","AZ8JL3QNIPY4U","3THR0FZ95PF7SK0MYRNAOUHTWA4OLV","","null","<img src=""img/land5.png"" style=""width:200px; border:14px solid green;"">","null","","","","","","","","","",""
"","image-keyboard-response","297","147331","0.0-297.0","3BXQMRHWK0KOXR0YLR50CWKVLOCMU0","AZ8JL3QNIPY4U","3THR0FZ95PF7SK0MYRNAOUHTWA4OLV","","696.7000000029802","img/land6.png","75","697.6000000014901","2","1","3","1","1,0.7,0.7,0.7,1,0.7,0.7,0.7,1","1,0.7,0.7,0.7,1,0.7,0.7,0.7,1","","",""
"","html-keyboard-response","298","147633","0.0-298.0","3BXQMRHWK0KOXR0YLR50CWKVLOCMU0","AZ8JL3QNIPY4U","3THR0FZ95PF7SK0MYRNAOUHTWA4OLV","","null","<img src=""img/land6.png"" style=""width:200px; border:14px solid green;"">","null","","","","","","","","","",""
"","image-keyboard-response","299","147939","0.0-299.0","3BXQMRHWK0KOXR0YLR50CWKVLOCMU0","AZ8JL3QNIPY4U","3THR0FZ95PF7SK0MYRNAOUHTWA4OLV","","305.20000000298023","img/land6.png","75","306.1000000014901","2","1","3","1","1,0.7,0.7,0.7,1,0.7,0.7,0.7,1","1,0.7,0.7,0.7,1,0.7,0.7,0.7,1","","",""
"","html-keyboard-response","300","148241","0.0-300.0","3BXQMRHWK0KOXR0YLR50CWKVLOCMU0","AZ8JL3QNIPY4U","3THR0FZ95PF7SK0MYRNAOUHTWA4OLV","","null","<img src=""img/land6.png"" style=""width:200px; border:14px solid green;"">","null","","","","","","","","","",""
"","image-keyboard-response","301","148923","0.0-301.0","3BXQMRHWK0KOXR0YLR50CWKVLOCMU0","AZ8JL3QNIPY4U","3THR0FZ95PF7SK0MYRNAOUHTWA4OLV","","680.8000000044703","img/land5.png","75","681.5","2","1","2","1","1,0.7,0.7,0.7,1,0.7,0.7,0.7,1","1,0.7,0.7,0.7,1,0.7,0.7,0.7,1","","",""
"","html-keyboard-response","302","149225","0.0-302.0","3BXQMRHWK0KOXR0YLR50CWKVLOCMU0","AZ8JL3QNIPY4U","3THR0FZ95PF7SK0MYRNAOUHTWA4OLV","","null","<img src=""img/land5.png"" style=""width:200px; border:14px solid green;"">","null","","","","","","","","","",""
"","image-keyboard-response","303","149747","0.0-303.0","3BXQMRHWK0KOXR0YLR50CWKVLOCMU0","AZ8JL3QNIPY4U","3THR0FZ95PF7SK0MYRNAOUHTWA4OLV","","520.8000000044703","img/land6.png","75","521.5","2","1","3","1","1,0.7,0.7,0.7,1,0.7,0.7,0.7,1","1,0.7,0.7,0.7,1,0.7,0.7,0.7,1","","",""
"","html-keyboard-response","304","150049","0.0-304.0","3BXQMRHWK0KOXR0YLR50CWKVLOCMU0","AZ8JL3QNIPY4U","3THR0FZ95PF7SK0MYRNAOUHTWA4OLV","","null","<img src=""img/land6.png"" style=""width:200px; border:14px solid green;"">","null","","","","","","","","","",""
"","image-keyboard-response","305","150371","0.0-305.0","3BXQMRHWK0KOXR0YLR50CWKVLOCMU0","AZ8JL3QNIPY4U","3THR0FZ95PF7SK0MYRNAOUHTWA4OLV","","320.80000000447035","img/land6.png","75","321.5","2","0","3","1","1,0.7,0.7,0.7,1,0.7,0.7,0.7,1","1,0.7,0.7,0.7,1,0.7,0.7,0.7,1","","",""
"","html-keyboard-response","306","150673","0.0-306.0","3BXQMRHWK0KOXR0YLR50CWKVLOCMU0","AZ8JL3QNIPY4U","3THR0FZ95PF7SK0MYRNAOUHTWA4OLV","","null","<img src=""img/land6.png"" style=""width:200px;border:14px solid red;"">","null","","","","","","","","","",""
"","image-keyboard-response","307","151363","0.0-307.0","3BXQMRHWK0KOXR0YLR50CWKVLOCMU0","AZ8JL3QNIPY4U","3THR0FZ95PF7SK0MYRNAOUHTWA4OLV","","688.8999999985099","img/land5.png","75","689.6000000014901","2","1","2","1","1,0.7,0.7,0.7,1,0.7,0.7,0.7,1","1,0.7,0.7,0.7,1,0.7,0.7,0.7,1","","",""
"","html-keyboard-response","308","151665","0.0-308.0","3BXQMRHWK0KOXR0YLR50CWKVLOCMU0","AZ8JL3QNIPY4U","3THR0FZ95PF7SK0MYRNAOUHTWA4OLV","","null","<img src=""img/land5.png"" style=""width:200px; border:14px solid green;"">","null","","","","","","","","","",""
"","image-keyboard-response","309","152067","0.0-309.0","3BXQMRHWK0KOXR0YLR50CWKVLOCMU0","AZ8JL3QNIPY4U","3THR0FZ95PF7SK0MYRNAOUHTWA4OLV","","401.3999999985099","img/land6.png","75","402.19999999552965","2","1","3","1","1,0.7,0.7,0.7,1,0.7,0.7,0.7,1","1,0.7,0.7,0.7,1,0.7,0.7,0.7,1","","",""
"","html-keyboard-response","310","152368","0.0-310.0","3BXQMRHWK0KOXR0YLR50CWKVLOCMU0","AZ8JL3QNIPY4U","3THR0FZ95PF7SK0MYRNAOUHTWA4OLV","","null","<img src=""img/land6.png"" style=""width:200px; border:14px solid green;"">","null","","","","","","","","","",""
"","image-keyboard-response","311","152915","0.0-311.0","3BXQMRHWK0KOXR0YLR50CWKVLOCMU0","AZ8JL3QNIPY4U","3THR0FZ95PF7SK0MYRNAOUHTWA4OLV","","546","img/land4.png","74","547.1000000014901","1","1","1","1","1,0.7,0.7,0.7,1,0.7,0.7,0.7,1","1,0.7,0.7,0.7,1,0.7,0.7,0.7,1","","",""
"","html-keyboard-response","312","153217","0.0-312.0","3BXQMRHWK0KOXR0YLR50CWKVLOCMU0","AZ8JL3QNIPY4U","3THR0FZ95PF7SK0MYRNAOUHTWA4OLV","","null","<img src=""img/land4.png"" style=""width:200px; border:14px solid green;"">","null","","","","","","","","","",""
"","image-keyboard-response","313","153715","0.0-313.0","3BXQMRHWK0KOXR0YLR50CWKVLOCMU0","AZ8JL3QNIPY4U","3THR0FZ95PF7SK0MYRNAOUHTWA4OLV","","497.30000000447035","img/land5.png","75","498","2","1","2","1","1,0.7,0.7,0.7,1,0.7,0.7,0.7,1","1,0.7,0.7,0.7,1,0.7,0.7,0.7,1","","",""
"","html-keyboard-response","314","154017","0.0-314.0","3BXQMRHWK0KOXR0YLR50CWKVLOCMU0","AZ8JL3QNIPY4U","3THR0FZ95PF7SK0MYRNAOUHTWA4OLV","","null","<img src=""img/land5.png"" style=""width:200px; border:14px solid green;"">","null","","","","","","","","","",""
"","image-keyboard-response","315","154771","0.0-315.0","3BXQMRHWK0KOXR0YLR50CWKVLOCMU0","AZ8JL3QNIPY4U","3THR0FZ95PF7SK0MYRNAOUHTWA4OLV","","752.7000000029802","img/land4.png","74","753.6000000014901","1","1","1","1","1,0.7,0.7,0.7,1,0.7,0.7,0.7,1","1,0.7,0.7,0.7,1,0.7,0.7,0.7,1","","",""
"","html-keyboard-response","316","155072","0.0-316.0","3BXQMRHWK0KOXR0YLR50CWKVLOCMU0","AZ8JL3QNIPY4U","3THR0FZ95PF7SK0MYRNAOUHTWA4OLV","","null","<img src=""img/land4.png"" style=""width:200px; border:14px solid green;"">","null","","","","","","","","","",""
"","image-keyboard-response","317","155579","0.0-317.0","3BXQMRHWK0KOXR0YLR50CWKVLOCMU0","AZ8JL3QNIPY4U","3THR0FZ95PF7SK0MYRNAOUHTWA4OLV","","505.6000000014901","img/land6.png","75","506.30000000447035","2","1","3","1","1,0.7,0.7,0.7,1,0.7,0.7,0.7,1","1,0.7,0.7,0.7,1,0.7,0.7,0.7,1","","",""
"","html-keyboard-response","318","155881","0.0-318.0","3BXQMRHWK0KOXR0YLR50CWKVLOCMU0","AZ8JL3QNIPY4U","3THR0FZ95PF7SK0MYRNAOUHTWA4OLV","","null","<img src=""img/land6.png"" style=""width:200px; border:14px solid green;"">","null","","","","","","","","","",""
"","image-keyboard-response","319","156195","0.0-319.0","3BXQMRHWK0KOXR0YLR50CWKVLOCMU0","AZ8JL3QNIPY4U","3THR0FZ95PF7SK0MYRNAOUHTWA4OLV","","312.79999999701977","img/land6.png","75","313.5","2","1","3","1","1,0.7,0.7,0.7,1,0.7,0.7,0.7,1","1,0.7,0.7,0.7,1,0.7,0.7,0.7,1","","",""
"","html-keyboard-response","320","156498","0.0-320.0","3BXQMRHWK0KOXR0YLR50CWKVLOCMU0","AZ8JL3QNIPY4U","3THR0FZ95PF7SK0MYRNAOUHTWA4OLV","","null","<img src=""img/land6.png"" style=""width:200px; border:14px solid green;"">","null","","","","","","","","","",""
"","image-keyboard-response","321","156819","0.0-321.0","3BXQMRHWK0KOXR0YLR50CWKVLOCMU0","AZ8JL3QNIPY4U","3THR0FZ95PF7SK0MYRNAOUHTWA4OLV","","320.29999999701977","img/land6.png","75","321.1000000014901","2","0","3","1","1,0.7,0.7,0.7,1,0.7,0.7,0.7,1","1,0.7,0.7,0.7,1,0.7,0.7,0.7,1","","",""
"","html-keyboard-response","322","157120","0.0-322.0","3BXQMRHWK0KOXR0YLR50CWKVLOCMU0","AZ8JL3QNIPY4U","3THR0FZ95PF7SK0MYRNAOUHTWA4OLV","","null","<img src=""img/land6.png"" style=""width:200px;border:14px solid red;"">","null","","","","","","","","","",""
"","image-keyboard-response","323","157507","0.0-323.0","3BXQMRHWK0KOXR0YLR50CWKVLOCMU0","AZ8JL3QNIPY4U","3THR0FZ95PF7SK0MYRNAOUHTWA4OLV","","385.6000000014901","img/land6.png","75","386.30000000447035","2","1","3","1","1,0.7,0.7,0.7,1,0.7,0.7,0.7,1","1,0.7,0.7,0.7,1,0.7,0.7,0.7,1","","",""
"","html-keyboard-response","324","157808","0.0-324.0","3BXQMRHWK0KOXR0YLR50CWKVLOCMU0","AZ8JL3QNIPY4U","3THR0FZ95PF7SK0MYRNAOUHTWA4OLV","","null","<img src=""img/land6.png"" style=""width:200px; border:14px solid green;"">","null","","","","","","","","","",""
"","image-keyboard-response","325","158115","0.0-325.0","3BXQMRHWK0KOXR0YLR50CWKVLOCMU0","AZ8JL3QNIPY4U","3THR0FZ95PF7SK0MYRNAOUHTWA4OLV","","305.6000000014901","img/land6.png","75","306.40000000596046","2","1","3","1","1,0.7,0.7,0.7,1,0.7,0.7,0.7,1","1,0.7,0.7,0.7,1,0.7,0.7,0.7,1","","",""
"","html-keyboard-response","326","158416","0.0-326.0","3BXQMRHWK0KOXR0YLR50CWKVLOCMU0","AZ8JL3QNIPY4U","3THR0FZ95PF7SK0MYRNAOUHTWA4OLV","","null","<img src=""img/land6.png"" style=""width:200px; border:14px solid green;"">","null","","","","","","","","","",""
"","image-keyboard-response","327","158827","0.0-327.0","3BXQMRHWK0KOXR0YLR50CWKVLOCMU0","AZ8JL3QNIPY4U","3THR0FZ95PF7SK0MYRNAOUHTWA4OLV","","409.79999999701977","img/land6.png","75","410.70000000298023","2","1","3","1","1,0.7,0.7,0.7,1,0.7,0.7,0.7,1","1,0.7,0.7,0.7,1,0.7,0.7,0.7,1","","",""
"","html-keyboard-response","328","159128","0.0-328.0","3BXQMRHWK0KOXR0YLR50CWKVLOCMU0","AZ8JL3QNIPY4U","3THR0FZ95PF7SK0MYRNAOUHTWA4OLV","","null","<img src=""img/land6.png"" style=""width:200px; border:14px solid green;"">","null","","","","","","","","","",""
"","image-keyboard-response","329","159475","0.0-329.0","3BXQMRHWK0KOXR0YLR50CWKVLOCMU0","AZ8JL3QNIPY4U","3THR0FZ95PF7SK0MYRNAOUHTWA4OLV","","345.3999999985099","img/land6.png","75","346.20000000298023","2","1","3","1","1,0.7,0.7,0.7,1,0.7,0.7,0.7,1","1,0.7,0.7,0.7,1,0.7,0.7,0.7,1","","",""
"","html-keyboard-response","330","159776","0.0-330.0","3BXQMRHWK0KOXR0YLR50CWKVLOCMU0","AZ8JL3QNIPY4U","3THR0FZ95PF7SK0MYRNAOUHTWA4OLV","","null","<img src=""img/land6.png"" style=""width:200px; border:14px solid green;"">","null","","","","","","","","","",""
"","image-keyboard-response","331","160635","0.0-331.0","3BXQMRHWK0KOXR0YLR50CWKVLOCMU0","AZ8JL3QNIPY4U","3THR0FZ95PF7SK0MYRNAOUHTWA4OLV","","857.6000000014901","img/land5.png","75","858.3000000044703","2","1","2","1","1,0.7,0.7,0.7,1,0.7,0.7,0.7,1","1,0.7,0.7,0.7,1,0.7,0.7,0.7,1","","",""
"","html-keyboard-response","332","160937","0.0-332.0","3BXQMRHWK0KOXR0YLR50CWKVLOCMU0","AZ8JL3QNIPY4U","3THR0FZ95PF7SK0MYRNAOUHTWA4OLV","","null","<img src=""img/land5.png"" style=""width:200px; border:14px solid green;"">","null","","","","","","","","","",""
"","image-keyboard-response","333","161451","0.0-333.0","3BXQMRHWK0KOXR0YLR50CWKVLOCMU0","AZ8JL3QNIPY4U","3THR0FZ95PF7SK0MYRNAOUHTWA4OLV","","513.1999999955297","img/land6.png","75","513.8999999985099","2","1","3","1","1,0.7,0.7,0.7,1,0.7,0.7,0.7,1","1,0.7,0.7,0.7,1,0.7,0.7,0.7,1","","",""
"","html-keyboard-response","334","161752","0.0-334.0","3BXQMRHWK0KOXR0YLR50CWKVLOCMU0","AZ8JL3QNIPY4U","3THR0FZ95PF7SK0MYRNAOUHTWA4OLV","","null","<img src=""img/land6.png"" style=""width:200px; border:14px solid green;"">","null","","","","","","","","","",""
"","image-keyboard-response","335","162395","0.0-335.0","3BXQMRHWK0KOXR0YLR50CWKVLOCMU0","AZ8JL3QNIPY4U","3THR0FZ95PF7SK0MYRNAOUHTWA4OLV","","641.6000000014901","img/land5.png","75","642.5","2","1","2","1","1,0.7,0.7,0.7,1,0.7,0.7,0.7,1","1,0.7,0.7,0.7,1,0.7,0.7,0.7,1","","",""
"","html-keyboard-response","336","162696","0.0-336.0","3BXQMRHWK0KOXR0YLR50CWKVLOCMU0","AZ8JL3QNIPY4U","3THR0FZ95PF7SK0MYRNAOUHTWA4OLV","","null","<img src=""img/land5.png"" style=""width:200px; border:14px solid green;"">","null","","","","","","","","","",""
"","image-keyboard-response","337","163019","0.0-337.0","3BXQMRHWK0KOXR0YLR50CWKVLOCMU0","AZ8JL3QNIPY4U","3THR0FZ95PF7SK0MYRNAOUHTWA4OLV","","321.6000000014901","img/land5.png","75","322.29999999701977","2","1","2","1","1,0.7,0.7,0.7,1,0.7,0.7,0.7,1","1,0.7,0.7,0.7,1,0.7,0.7,0.7,1","","",""
"","html-keyboard-response","338","163321","0.0-338.0","3BXQMRHWK0KOXR0YLR50CWKVLOCMU0","AZ8JL3QNIPY4U","3THR0FZ95PF7SK0MYRNAOUHTWA4OLV","","null","<img src=""img/land5.png"" style=""width:200px; border:14px solid green;"">","null","","","","","","","","","",""
"","instructions","339","166071","0.0-339.0","3BXQMRHWK0KOXR0YLR50CWKVLOCMU0","AZ8JL3QNIPY4U","3THR0FZ95PF7SK0MYRNAOUHTWA4OLV","[{""page_index"":0,""viewing_time"":2749.39999999851}]","2749.6999999955297","","","","","","","","","","","",""
"","survey-text","340","169347","0.0-340.0-0.0","3BXQMRHWK0KOXR0YLR50CWKVLOCMU0","AZ8JL3QNIPY4U","3THR0FZ95PF7SK0MYRNAOUHTWA4OLV","","3273.7999999970198","","","","","","","","","","","{""Q0"":""33""}",""
"","survey-multi-choice","341","171767","0.0-340.0-1.0","3BXQMRHWK0KOXR0YLR50CWKVLOCMU0","AZ8JL3QNIPY4U","3THR0FZ95PF7SK0MYRNAOUHTWA4OLV","","2418.89999999851","","","","","","","","","","","{""gender"":""F""}","[0]"
"","survey-text","342","177151","0.0-341.0","3BXQMRHWK0KOXR0YLR50CWKVLOCMU0","AZ8JL3QNIPY4U","3THR0FZ95PF7SK0MYRNAOUHTWA4OLV","","5382.0999999940395","","","","","","","","","","","{""Q0"":""AZ8JL3QNIPY4U""}",""
