"success","trial_type","trial_index","time_elapsed","internal_node_id","assignmentID","mturkID","hitID","view_history","rt","stimulus","key_press","reactionTime","a","r","s","cond","reward_cond","reward_cond_actual","reward_matrix_idx","responses","question_order"
"true","fullscreen","0","5651","0.0-0.0","3IXEICO793578B0HY689I417CI26TB","AZCGF2D7QIO10","3YO4AH2FPD6XG0OGOBTVFFK58DY0QT","","","","","","","","","","","","","",""
"","instructions","1","13665","0.0-1.0","3IXEICO793578B0HY689I417CI26TB","AZCGF2D7QIO10","3YO4AH2FPD6XG0OGOBTVFFK58DY0QT","[{""page_index"":0,""viewing_time"":1445.300000000745},{""page_index"":1,""viewing_time"":671.9000000003725},{""page_index"":2,""viewing_time"":436.19999999925494},{""page_index"":3,""viewing_time"":1920.0999999996275},{""page_index"":4,""viewing_time"":1476.300000000745},{""page_index"":5,""viewing_time"":998.4000000003725},{""page_index"":6,""viewing_time"":1060.5}]","8011","","","","","","","","","","","",""
"","image-keyboard-response","2","14720","0.0-2.0","3IXEICO793578B0HY689I417CI26TB","AZCGF2D7QIO10","3YO4AH2FPD6XG0OGOBTVFFK58DY0QT","","1053.2000000011176","img/land3.png","75","1054.9000000003725","2","1","3","2","1,0.7,0.7,0.7,1,0.7,0.7,0.7,1","1,0.7,0.7,0.7,1,0.7,0.7,0.7,1","","",""
"","html-keyboard-response","3","15027","0.0-3.0","3IXEICO793578B0HY689I417CI26TB","AZCGF2D7QIO10","3YO4AH2FPD6XG0OGOBTVFFK58DY0QT","","null","<img src=""img/land3.png"" style=""width:200px; border:14px solid green;"">","null","","","","","","","","","",""
"","image-keyboard-response","4","15731","0.0-4.0","3IXEICO793578B0HY689I417CI26TB","AZCGF2D7QIO10","3YO4AH2FPD6XG0OGOBTVFFK58DY0QT","","702.2000000011176","img/land2.png","74","703.5999999996275","1","1","2","2","1,0.7,0.7,0.7,1,0.7,0.7,0.7,1","1,0.7,0.7,0.7,1,0.7,0.7,0.7,1","","",""
"","html-keyboard-response","5","16035","0.0-5.0","3IXEICO793578B0HY689I417CI26TB","AZCGF2D7QIO10","3YO4AH2FPD6XG0OGOBTVFFK58DY0QT","","null","<img src=""img/land2.png"" style=""width:200px; border:14px solid green;"">","null","","","","","","","","","",""
"","image-keyboard-response","6","16403","0.0-6.0","3IXEICO793578B0HY689I417CI26TB","AZCGF2D7QIO10","3YO4AH2FPD6XG0OGOBTVFFK58DY0QT","","366","img/land2.png","74","367.19999999925494","1","1","2","2","1,0.7,0.7,0.7,1,0.7,0.7,0.7,1","1,0.7,0.7,0.7,1,0.7,0.7,0.7,1","","",""
"","html-keyboard-response","7","16724","0.0-7.0","3IXEICO793578B0HY689I417CI26TB","AZCGF2D7QIO10","3YO4AH2FPD6XG0OGOBTVFFK58DY0QT","","null","<img src=""img/land2.png"" style=""width:200px; border:14px solid green;"">","null","","","","","","","","","",""
"","image-keyboard-response","8","16951","0.0-8.0","3IXEICO793578B0HY689I417CI26TB","AZCGF2D7QIO10","3YO4AH2FPD6XG0OGOBTVFFK58DY0QT","","224.90000000037253","img/land2.png","74","226.5","1","1","2","2","1,0.7,0.7,0.7,1,0.7,0.7,0.7,1","1,0.7,0.7,0.7,1,0.7,0.7,0.7,1","","",""
"","html-keyboard-response","9","17265","0.0-9.0","3IXEICO793578B0HY689I417CI26TB","AZCGF2D7QIO10","3YO4AH2FPD6XG0OGOBTVFFK58DY0QT","","null","<img src=""img/land2.png"" style=""width:200px; border:14px solid green;"">","null","","","","","","","","","",""
"","image-keyboard-response","10","17506","0.0-10.0","3IXEICO793578B0HY689I417CI26TB","AZCGF2D7QIO10","3YO4AH2FPD6XG0OGOBTVFFK58DY0QT","","238.80000000074506","img/land2.png","74","241.10000000149012","1","1","2","2","1,0.7,0.7,0.7,1,0.7,0.7,0.7,1","1,0.7,0.7,0.7,1,0.7,0.7,0.7,1","","",""
"","html-keyboard-response","11","17818","0.0-11.0","3IXEICO793578B0HY689I417CI26TB","AZCGF2D7QIO10","3YO4AH2FPD6XG0OGOBTVFFK58DY0QT","","null","<img src=""img/land2.png"" style=""width:200px; border:14px solid green;"">","null","","","","","","","","","",""
"","image-keyboard-response","12","18035","0.0-12.0","3IXEICO793578B0HY689I417CI26TB","AZCGF2D7QIO10","3YO4AH2FPD6XG0OGOBTVFFK58DY0QT","","215","img/land2.png","74","216.19999999925494","1","1","2","2","1,0.7,0.7,0.7,1,0.7,0.7,0.7,1","1,0.7,0.7,0.7,1,0.7,0.7,0.7,1","","",""
"","html-keyboard-response","13","18349","0.0-13.0","3IXEICO793578B0HY689I417CI26TB","AZCGF2D7QIO10","3YO4AH2FPD6XG0OGOBTVFFK58DY0QT","","null","<img src=""img/land2.png"" style=""width:200px; border:14px solid green;"">","null","","","","","","","","","",""
"","image-keyboard-response","14","18790","0.0-14.0","3IXEICO793578B0HY689I417CI26TB","AZCGF2D7QIO10","3YO4AH2FPD6XG0OGOBTVFFK58DY0QT","","439.5","img/land1.png","75","440.8999999985099","2","1","1","2","1,0.7,0.7,0.7,1,0.7,0.7,0.7,1","1,0.7,0.7,0.7,1,0.7,0.7,0.7,1","","",""
"","html-keyboard-response","15","19103","0.0-15.0","3IXEICO793578B0HY689I417CI26TB","AZCGF2D7QIO10","3YO4AH2FPD6XG0OGOBTVFFK58DY0QT","","null","<img src=""img/land1.png"" style=""width:200px; border:14px solid green;"">","null","","","","","","","","","",""
"","image-keyboard-response","16","19591","0.0-16.0","3IXEICO793578B0HY689I417CI26TB","AZCGF2D7QIO10","3YO4AH2FPD6XG0OGOBTVFFK58DY0QT","","486.09999999962747","img/land2.png","74","487.69999999925494","1","0","2","2","1,0.7,0.7,0.7,1,0.7,0.7,0.7,1","1,0.7,0.7,0.7,1,0.7,0.7,0.7,1","","",""
"","html-keyboard-response","17","19903","0.0-17.0","3IXEICO793578B0HY689I417CI26TB","AZCGF2D7QIO10","3YO4AH2FPD6XG0OGOBTVFFK58DY0QT","","null","<img src=""img/land2.png"" style=""width:200px;border:14px solid red;"">","null","","","","","","","","","",""
"","image-keyboard-response","18","20599","0.0-18.0","3IXEICO793578B0HY689I417CI26TB","AZCGF2D7QIO10","3YO4AH2FPD6XG0OGOBTVFFK58DY0QT","","693.4000000003725","img/land1.png","75","695.2999999988824","2","0","1","2","1,0.7,0.7,0.7,1,0.7,0.7,0.7,1","1,0.7,0.7,0.7,1,0.7,0.7,0.7,1","","",""
"","html-keyboard-response","19","20915","0.0-19.0","3IXEICO793578B0HY689I417CI26TB","AZCGF2D7QIO10","3YO4AH2FPD6XG0OGOBTVFFK58DY0QT","","null","<img src=""img/land1.png"" style=""width:200px;border:14px solid red;"">","null","","","","","","","","","",""
"","image-keyboard-response","20","21282","0.0-20.0","3IXEICO793578B0HY689I417CI26TB","AZCGF2D7QIO10","3YO4AH2FPD6XG0OGOBTVFFK58DY0QT","","366.5","img/land2.png","76","367.59999999962747","3","1","2","2","1,0.7,0.7,0.7,1,0.7,0.7,0.7,1","1,0.7,0.7,0.7,1,0.7,0.7,0.7,1","","",""
"","html-keyboard-response","21","21593","0.0-21.0","3IXEICO793578B0HY689I417CI26TB","AZCGF2D7QIO10","3YO4AH2FPD6XG0OGOBTVFFK58DY0QT","","null","<img src=""img/land2.png"" style=""width:200px; border:14px solid green;"">","null","","","","","","","","","",""
"","image-keyboard-response","22","21887","0.0-22.0","3IXEICO793578B0HY689I417CI26TB","AZCGF2D7QIO10","3YO4AH2FPD6XG0OGOBTVFFK58DY0QT","","291.90000000037253","img/land2.png","76","293.40000000037253","3","1","2","2","1,0.7,0.7,0.7,1,0.7,0.7,0.7,1","1,0.7,0.7,0.7,1,0.7,0.7,0.7,1","","",""
"","html-keyboard-response","23","22203","0.0-23.0","3IXEICO793578B0HY689I417CI26TB","AZCGF2D7QIO10","3YO4AH2FPD6XG0OGOBTVFFK58DY0QT","","null","<img src=""img/land2.png"" style=""width:200px; border:14px solid green;"">","null","","","","","","","","","",""
"","image-keyboard-response","24","22441","0.0-24.0","3IXEICO793578B0HY689I417CI26TB","AZCGF2D7QIO10","3YO4AH2FPD6XG0OGOBTVFFK58DY0QT","","235.59999999962747","img/land2.png","76","236.90000000037253","3","1","2","2","1,0.7,0.7,0.7,1,0.7,0.7,0.7,1","1,0.7,0.7,0.7,1,0.7,0.7,0.7,1","","",""
"","html-keyboard-response","25","22755","0.0-25.0","3IXEICO793578B0HY689I417CI26TB","AZCGF2D7QIO10","3YO4AH2FPD6XG0OGOBTVFFK58DY0QT","","null","<img src=""img/land2.png"" style=""width:200px; border:14px solid green;"">","null","","","","","","","","","",""
"","image-keyboard-response","26","23032","0.0-26.0","3IXEICO793578B0HY689I417CI26TB","AZCGF2D7QIO10","3YO4AH2FPD6XG0OGOBTVFFK58DY0QT","","275.5","img/land2.png","76","277.40000000037253","3","1","2","2","1,0.7,0.7,0.7,1,0.7,0.7,0.7,1","1,0.7,0.7,0.7,1,0.7,0.7,0.7,1","","",""
"","html-keyboard-response","27","23335","0.0-27.0","3IXEICO793578B0HY689I417CI26TB","AZCGF2D7QIO10","3YO4AH2FPD6XG0OGOBTVFFK58DY0QT","","null","<img src=""img/land2.png"" style=""width:200px; border:14px solid green;"">","null","","","","","","","","","",""
"","image-keyboard-response","28","23583","0.0-28.0","3IXEICO793578B0HY689I417CI26TB","AZCGF2D7QIO10","3YO4AH2FPD6XG0OGOBTVFFK58DY0QT","","245.89999999850988","img/land2.png","76","247.30000000074506","3","1","2","2","1,0.7,0.7,0.7,1,0.7,0.7,0.7,1","1,0.7,0.7,0.7,1,0.7,0.7,0.7,1","","",""
"","html-keyboard-response","29","23885","0.0-29.0","3IXEICO793578B0HY689I417CI26TB","AZCGF2D7QIO10","3YO4AH2FPD6XG0OGOBTVFFK58DY0QT","","null","<img src=""img/land2.png"" style=""width:200px; border:14px solid green;"">","null","","","","","","","","","",""
"","image-keyboard-response","30","24130","0.0-30.0","3IXEICO793578B0HY689I417CI26TB","AZCGF2D7QIO10","3YO4AH2FPD6XG0OGOBTVFFK58DY0QT","","243.39999999850988","img/land2.png","76","244.90000000037253","3","0","2","2","1,0.7,0.7,0.7,1,0.7,0.7,0.7,1","1,0.7,0.7,0.7,1,0.7,0.7,0.7,1","","",""
"","html-keyboard-response","31","24435","0.0-31.0","3IXEICO793578B0HY689I417CI26TB","AZCGF2D7QIO10","3YO4AH2FPD6XG0OGOBTVFFK58DY0QT","","null","<img src=""img/land2.png"" style=""width:200px;border:14px solid red;"">","null","","","","","","","","","",""
"","image-keyboard-response","32","24965","0.0-32.0","3IXEICO793578B0HY689I417CI26TB","AZCGF2D7QIO10","3YO4AH2FPD6XG0OGOBTVFFK58DY0QT","","528.1999999992549","img/land3.png","74","529.5999999996275","1","1","3","2","1,0.7,0.7,0.7,1,0.7,0.7,0.7,1","1,0.7,0.7,0.7,1,0.7,0.7,0.7,1","","",""
"","html-keyboard-response","33","25282","0.0-33.0","3IXEICO793578B0HY689I417CI26TB","AZCGF2D7QIO10","3YO4AH2FPD6XG0OGOBTVFFK58DY0QT","","null","<img src=""img/land3.png"" style=""width:200px; border:14px solid green;"">","null","","","","","","","","","",""
"","image-keyboard-response","34","26009","0.0-34.0","3IXEICO793578B0HY689I417CI26TB","AZCGF2D7QIO10","3YO4AH2FPD6XG0OGOBTVFFK58DY0QT","","725.3000000007451","img/land2.png","76","726.7000000011176","3","1","2","2","1,0.7,0.7,0.7,1,0.7,0.7,0.7,1","1,0.7,0.7,0.7,1,0.7,0.7,0.7,1","","",""
"","html-keyboard-response","35","26318","0.0-35.0","3IXEICO793578B0HY689I417CI26TB","AZCGF2D7QIO10","3YO4AH2FPD6XG0OGOBTVFFK58DY0QT","","null","<img src=""img/land2.png"" style=""width:200px; border:14px solid green;"">","null","","","","","","","","","",""
"","image-keyboard-response","36","26508","0.0-36.0","3IXEICO793578B0HY689I417CI26TB","AZCGF2D7QIO10","3YO4AH2FPD6XG0OGOBTVFFK58DY0QT","","189","img/land3.png","76","189.5","3","1","3","2","1,0.7,0.7,0.7,1,0.7,0.7,0.7,1","1,0.7,0.7,0.7,1,0.7,0.7,0.7,1","","",""
"","html-keyboard-response","37","26818","0.0-37.0","3IXEICO793578B0HY689I417CI26TB","AZCGF2D7QIO10","3YO4AH2FPD6XG0OGOBTVFFK58DY0QT","","null","<img src=""img/land3.png"" style=""width:200px; border:14px solid green;"">","null","","","","","","","","","",""
"","image-keyboard-response","38","27705","0.0-38.0","3IXEICO793578B0HY689I417CI26TB","AZCGF2D7QIO10","3YO4AH2FPD6XG0OGOBTVFFK58DY0QT","","886.1000000014901","img/land2.png","74","887.1999999992549","1","1","2","2","1,0.7,0.7,0.7,1,0.7,0.7,0.7,1","1,0.7,0.7,0.7,1,0.7,0.7,0.7,1","","",""
"","html-keyboard-response","39","28018","0.0-39.0","3IXEICO793578B0HY689I417CI26TB","AZCGF2D7QIO10","3YO4AH2FPD6XG0OGOBTVFFK58DY0QT","","null","<img src=""img/land2.png"" style=""width:200px; border:14px solid green;"">","null","","","","","","","","","",""
"","image-keyboard-response","40","28560","0.0-40.0","3IXEICO793578B0HY689I417CI26TB","AZCGF2D7QIO10","3YO4AH2FPD6XG0OGOBTVFFK58DY0QT","","541","img/land1.png","75","542","2","0","1","2","1,0.7,0.7,0.7,1,0.7,0.7,0.7,1","1,0.7,0.7,0.7,1,0.7,0.7,0.7,1","","",""
"","html-keyboard-response","41","28864","0.0-41.0","3IXEICO793578B0HY689I417CI26TB","AZCGF2D7QIO10","3YO4AH2FPD6XG0OGOBTVFFK58DY0QT","","null","<img src=""img/land1.png"" style=""width:200px;border:14px solid red;"">","null","","","","","","","","","",""
"","image-keyboard-response","42","29239","0.0-42.0","3IXEICO793578B0HY689I417CI26TB","AZCGF2D7QIO10","3YO4AH2FPD6XG0OGOBTVFFK58DY0QT","","373.3999999985099","img/land1.png","76","374.69999999925494","3","0","1","2","1,0.7,0.7,0.7,1,0.7,0.7,0.7,1","1,0.7,0.7,0.7,1,0.7,0.7,0.7,1","","",""
"","html-keyboard-response","43","29550","0.0-43.0","3IXEICO793578B0HY689I417CI26TB","AZCGF2D7QIO10","3YO4AH2FPD6XG0OGOBTVFFK58DY0QT","","null","<img src=""img/land1.png"" style=""width:200px;border:14px solid red;"">","null","","","","","","","","","",""
"","image-keyboard-response","44","29908","0.0-44.0","3IXEICO793578B0HY689I417CI26TB","AZCGF2D7QIO10","3YO4AH2FPD6XG0OGOBTVFFK58DY0QT","","356.8999999985099","img/land1.png","74","358.40000000037253","1","1","1","2","1,0.7,0.7,0.7,1,0.7,0.7,0.7,1","1,0.7,0.7,0.7,1,0.7,0.7,0.7,1","","",""
"","html-keyboard-response","45","30212","0.0-45.0","3IXEICO793578B0HY689I417CI26TB","AZCGF2D7QIO10","3YO4AH2FPD6XG0OGOBTVFFK58DY0QT","","null","<img src=""img/land1.png"" style=""width:200px; border:14px solid green;"">","null","","","","","","","","","",""
"","image-keyboard-response","46","30766","0.0-46.0","3IXEICO793578B0HY689I417CI26TB","AZCGF2D7QIO10","3YO4AH2FPD6XG0OGOBTVFFK58DY0QT","","553","img/land3.png","74","554.0999999996275","1","0","3","2","1,0.7,0.7,0.7,1,0.7,0.7,0.7,1","1,0.7,0.7,0.7,1,0.7,0.7,0.7,1","","",""
"","html-keyboard-response","47","31068","0.0-47.0","3IXEICO793578B0HY689I417CI26TB","AZCGF2D7QIO10","3YO4AH2FPD6XG0OGOBTVFFK58DY0QT","","null","<img src=""img/land3.png"" style=""width:200px;border:14px solid red;"">","null","","","","","","","","","",""
"","image-keyboard-response","48","31869","0.0-48.0","3IXEICO793578B0HY689I417CI26TB","AZCGF2D7QIO10","3YO4AH2FPD6XG0OGOBTVFFK58DY0QT","","799.5","img/land2.png","74","800.5999999996275","1","1","2","2","1,0.7,0.7,0.7,1,0.7,0.7,0.7,1","1,0.7,0.7,0.7,1,0.7,0.7,0.7,1","","",""
"","html-keyboard-response","49","32171","0.0-49.0","3IXEICO793578B0HY689I417CI26TB","AZCGF2D7QIO10","3YO4AH2FPD6XG0OGOBTVFFK58DY0QT","","null","<img src=""img/land2.png"" style=""width:200px; border:14px solid green;"">","null","","","","","","","","","",""
"","image-keyboard-response","50","32789","0.0-50.0","3IXEICO793578B0HY689I417CI26TB","AZCGF2D7QIO10","3YO4AH2FPD6XG0OGOBTVFFK58DY0QT","","616.2999999988824","img/land1.png","74","617.7000000011176","1","1","1","2","1,0.7,0.7,0.7,1,0.7,0.7,0.7,1","1,0.7,0.7,0.7,1,0.7,0.7,0.7,1","","",""
"","html-keyboard-response","51","33090","0.0-51.0","3IXEICO793578B0HY689I417CI26TB","AZCGF2D7QIO10","3YO4AH2FPD6XG0OGOBTVFFK58DY0QT","","null","<img src=""img/land1.png"" style=""width:200px; border:14px solid green;"">","null","","","","","","","","","",""
"","image-keyboard-response","52","33327","0.0-52.0","3IXEICO793578B0HY689I417CI26TB","AZCGF2D7QIO10","3YO4AH2FPD6XG0OGOBTVFFK58DY0QT","","236","img/land1.png","74","237.2999999988824","1","1","1","2","1,0.7,0.7,0.7,1,0.7,0.7,0.7,1","1,0.7,0.7,0.7,1,0.7,0.7,0.7,1","","",""
"","html-keyboard-response","53","33631","0.0-53.0","3IXEICO793578B0HY689I417CI26TB","AZCGF2D7QIO10","3YO4AH2FPD6XG0OGOBTVFFK58DY0QT","","null","<img src=""img/land1.png"" style=""width:200px; border:14px solid green;"">","null","","","","","","","","","",""
"","image-keyboard-response","54","34297","0.0-54.0","3IXEICO793578B0HY689I417CI26TB","AZCGF2D7QIO10","3YO4AH2FPD6XG0OGOBTVFFK58DY0QT","","663.5","img/land2.png","75","665.3000000007451","2","1","2","2","1,0.7,0.7,0.7,1,0.7,0.7,0.7,1","1,0.7,0.7,0.7,1,0.7,0.7,0.7,1","","",""
"","html-keyboard-response","55","34598","0.0-55.0","3IXEICO793578B0HY689I417CI26TB","AZCGF2D7QIO10","3YO4AH2FPD6XG0OGOBTVFFK58DY0QT","","null","<img src=""img/land2.png"" style=""width:200px; border:14px solid green;"">","null","","","","","","","","","",""
"","image-keyboard-response","56","35356","0.0-56.0","3IXEICO793578B0HY689I417CI26TB","AZCGF2D7QIO10","3YO4AH2FPD6XG0OGOBTVFFK58DY0QT","","756.5","img/land1.png","74","757.7000000011176","1","1","1","2","1,0.7,0.7,0.7,1,0.7,0.7,0.7,1","1,0.7,0.7,0.7,1,0.7,0.7,0.7,1","","",""
"","html-keyboard-response","57","35658","0.0-57.0","3IXEICO793578B0HY689I417CI26TB","AZCGF2D7QIO10","3YO4AH2FPD6XG0OGOBTVFFK58DY0QT","","null","<img src=""img/land1.png"" style=""width:200px; border:14px solid green;"">","null","","","","","","","","","",""
"","image-keyboard-response","58","36268","0.0-58.0","3IXEICO793578B0HY689I417CI26TB","AZCGF2D7QIO10","3YO4AH2FPD6XG0OGOBTVFFK58DY0QT","","608.5999999996275","img/land2.png","74","609.5","1","1","2","2","1,0.7,0.7,0.7,1,0.7,0.7,0.7,1","1,0.7,0.7,0.7,1,0.7,0.7,0.7,1","","",""
"","html-keyboard-response","59","36580","0.0-59.0","3IXEICO793578B0HY689I417CI26TB","AZCGF2D7QIO10","3YO4AH2FPD6XG0OGOBTVFFK58DY0QT","","null","<img src=""img/land2.png"" style=""width:200px; border:14px solid green;"">","null","","","","","","","","","",""
"","image-keyboard-response","60","36777","0.0-60.0","3IXEICO793578B0HY689I417CI26TB","AZCGF2D7QIO10","3YO4AH2FPD6XG0OGOBTVFFK58DY0QT","","195.80000000074506","img/land2.png","74","197","1","1","2","2","1,0.7,0.7,0.7,1,0.7,0.7,0.7,1","1,0.7,0.7,0.7,1,0.7,0.7,0.7,1","","",""
"","html-keyboard-response","61","37080","0.0-61.0","3IXEICO793578B0HY689I417CI26TB","AZCGF2D7QIO10","3YO4AH2FPD6XG0OGOBTVFFK58DY0QT","","null","<img src=""img/land2.png"" style=""width:200px; border:14px solid green;"">","null","","","","","","","","","",""
"","image-keyboard-response","62","37271","0.0-62.0","3IXEICO793578B0HY689I417CI26TB","AZCGF2D7QIO10","3YO4AH2FPD6XG0OGOBTVFFK58DY0QT","","190.19999999925494","img/land1.png","74","190.89999999850988","1","1","1","2","1,0.7,0.7,0.7,1,0.7,0.7,0.7,1","1,0.7,0.7,0.7,1,0.7,0.7,0.7,1","","",""
"","html-keyboard-response","63","37572","0.0-63.0","3IXEICO793578B0HY689I417CI26TB","AZCGF2D7QIO10","3YO4AH2FPD6XG0OGOBTVFFK58DY0QT","","null","<img src=""img/land1.png"" style=""width:200px; border:14px solid green;"">","null","","","","","","","","","",""
"","image-keyboard-response","64","38116","0.0-64.0","3IXEICO793578B0HY689I417CI26TB","AZCGF2D7QIO10","3YO4AH2FPD6XG0OGOBTVFFK58DY0QT","","542.3000000007451","img/land2.png","74","543.4000000003725","1","1","2","2","1,0.7,0.7,0.7,1,0.7,0.7,0.7,1","1,0.7,0.7,0.7,1,0.7,0.7,0.7,1","","",""
"","html-keyboard-response","65","38418","0.0-65.0","3IXEICO793578B0HY689I417CI26TB","AZCGF2D7QIO10","3YO4AH2FPD6XG0OGOBTVFFK58DY0QT","","null","<img src=""img/land2.png"" style=""width:200px; border:14px solid green;"">","null","","","","","","","","","",""
"","image-keyboard-response","66","38678","0.0-66.0","3IXEICO793578B0HY689I417CI26TB","AZCGF2D7QIO10","3YO4AH2FPD6XG0OGOBTVFFK58DY0QT","","257.19999999925494","img/land2.png","74","259.19999999925494","1","0","2","2","1,0.7,0.7,0.7,1,0.7,0.7,0.7,1","1,0.7,0.7,0.7,1,0.7,0.7,0.7,1","","",""
"","html-keyboard-response","67","38980","0.0-67.0","3IXEICO793578B0HY689I417CI26TB","AZCGF2D7QIO10","3YO4AH2FPD6XG0OGOBTVFFK58DY0QT","","null","<img src=""img/land2.png"" style=""width:200px;border:14px solid red;"">","null","","","","","","","","","",""
"","image-keyboard-response","68","39436","0.0-68.0","3IXEICO793578B0HY689I417CI26TB","AZCGF2D7QIO10","3YO4AH2FPD6XG0OGOBTVFFK58DY0QT","","454.90000000037253","img/land3.png","76","455.80000000074506","3","1","3","2","1,0.7,0.7,0.7,1,0.7,0.7,0.7,1","1,0.7,0.7,0.7,1,0.7,0.7,0.7,1","","",""
"","html-keyboard-response","69","39738","0.0-69.0","3IXEICO793578B0HY689I417CI26TB","AZCGF2D7QIO10","3YO4AH2FPD6XG0OGOBTVFFK58DY0QT","","null","<img src=""img/land3.png"" style=""width:200px; border:14px solid green;"">","null","","","","","","","","","",""
"","image-keyboard-response","70","39977","0.0-70.0","3IXEICO793578B0HY689I417CI26TB","AZCGF2D7QIO10","3YO4AH2FPD6XG0OGOBTVFFK58DY0QT","","238","img/land2.png","76","239.09999999962747","3","0","2","2","1,0.7,0.7,0.7,1,0.7,0.7,0.7,1","1,0.7,0.7,0.7,1,0.7,0.7,0.7,1","","",""
"","html-keyboard-response","71","40281","0.0-71.0","3IXEICO793578B0HY689I417CI26TB","AZCGF2D7QIO10","3YO4AH2FPD6XG0OGOBTVFFK58DY0QT","","null","<img src=""img/land2.png"" style=""width:200px;border:14px solid red;"">","null","","","","","","","","","",""
"","image-keyboard-response","72","40592","0.0-72.0","3IXEICO793578B0HY689I417CI26TB","AZCGF2D7QIO10","3YO4AH2FPD6XG0OGOBTVFFK58DY0QT","","310.09999999962747","img/land2.png","75","311.59999999962747","2","1","2","2","1,0.7,0.7,0.7,1,0.7,0.7,0.7,1","1,0.7,0.7,0.7,1,0.7,0.7,0.7,1","","",""
"","html-keyboard-response","73","40894","0.0-73.0","3IXEICO793578B0HY689I417CI26TB","AZCGF2D7QIO10","3YO4AH2FPD6XG0OGOBTVFFK58DY0QT","","null","<img src=""img/land2.png"" style=""width:200px; border:14px solid green;"">","null","","","","","","","","","",""
"","image-keyboard-response","74","41318","0.0-74.0","3IXEICO793578B0HY689I417CI26TB","AZCGF2D7QIO10","3YO4AH2FPD6XG0OGOBTVFFK58DY0QT","","421.90000000037253","img/land2.png","74","423.40000000037253","1","1","2","2","1,0.7,0.7,0.7,1,0.7,0.7,0.7,1","1,0.7,0.7,0.7,1,0.7,0.7,0.7,1","","",""
"","html-keyboard-response","75","41620","0.0-75.0","3IXEICO793578B0HY689I417CI26TB","AZCGF2D7QIO10","3YO4AH2FPD6XG0OGOBTVFFK58DY0QT","","null","<img src=""img/land2.png"" style=""width:200px; border:14px solid green;"">","null","","","","","","","","","",""
"","image-keyboard-response","76","41878","0.0-76.0","3IXEICO793578B0HY689I417CI26TB","AZCGF2D7QIO10","3YO4AH2FPD6XG0OGOBTVFFK58DY0QT","","256.3999999985099","img/land2.png","74","257.7999999988824","1","1","2","2","1,0.7,0.7,0.7,1,0.7,0.7,0.7,1","1,0.7,0.7,0.7,1,0.7,0.7,0.7,1","","",""
"","html-keyboard-response","77","42184","0.0-77.0","3IXEICO793578B0HY689I417CI26TB","AZCGF2D7QIO10","3YO4AH2FPD6XG0OGOBTVFFK58DY0QT","","null","<img src=""img/land2.png"" style=""width:200px; border:14px solid green;"">","null","","","","","","","","","",""
"","image-keyboard-response","78","42430","0.0-78.0","3IXEICO793578B0HY689I417CI26TB","AZCGF2D7QIO10","3YO4AH2FPD6XG0OGOBTVFFK58DY0QT","","244.30000000074506","img/land2.png","74","245.19999999925494","1","1","2","2","1,0.7,0.7,0.7,1,0.7,0.7,0.7,1","1,0.7,0.7,0.7,1,0.7,0.7,0.7,1","","",""
"","html-keyboard-response","79","42732","0.0-79.0","3IXEICO793578B0HY689I417CI26TB","AZCGF2D7QIO10","3YO4AH2FPD6XG0OGOBTVFFK58DY0QT","","null","<img src=""img/land2.png"" style=""width:200px; border:14px solid green;"">","null","","","","","","","","","",""
"","image-keyboard-response","80","42978","0.0-80.0","3IXEICO793578B0HY689I417CI26TB","AZCGF2D7QIO10","3YO4AH2FPD6XG0OGOBTVFFK58DY0QT","","243.60000000149012","img/land2.png","74","245.5","1","1","2","2","1,0.7,0.7,0.7,1,0.7,0.7,0.7,1","1,0.7,0.7,0.7,1,0.7,0.7,0.7,1","","",""
"","html-keyboard-response","81","43280","0.0-81.0","3IXEICO793578B0HY689I417CI26TB","AZCGF2D7QIO10","3YO4AH2FPD6XG0OGOBTVFFK58DY0QT","","null","<img src=""img/land2.png"" style=""width:200px; border:14px solid green;"">","null","","","","","","","","","",""
"","image-keyboard-response","82","43513","0.0-82.0","3IXEICO793578B0HY689I417CI26TB","AZCGF2D7QIO10","3YO4AH2FPD6XG0OGOBTVFFK58DY0QT","","232.59999999962747","img/land2.png","74","233.30000000074506","1","1","2","2","1,0.7,0.7,0.7,1,0.7,0.7,0.7,1","1,0.7,0.7,0.7,1,0.7,0.7,0.7,1","","",""
"","html-keyboard-response","83","43816","0.0-83.0","3IXEICO793578B0HY689I417CI26TB","AZCGF2D7QIO10","3YO4AH2FPD6XG0OGOBTVFFK58DY0QT","","null","<img src=""img/land2.png"" style=""width:200px; border:14px solid green;"">","null","","","","","","","","","",""
"","image-keyboard-response","84","44053","0.0-84.0","3IXEICO793578B0HY689I417CI26TB","AZCGF2D7QIO10","3YO4AH2FPD6XG0OGOBTVFFK58DY0QT","","235.59999999962747","img/land1.png","74","236.89999999850988","1","1","1","2","1,0.7,0.7,0.7,1,0.7,0.7,0.7,1","1,0.7,0.7,0.7,1,0.7,0.7,0.7,1","","",""
"","html-keyboard-response","85","44355","0.0-85.0","3IXEICO793578B0HY689I417CI26TB","AZCGF2D7QIO10","3YO4AH2FPD6XG0OGOBTVFFK58DY0QT","","null","<img src=""img/land1.png"" style=""width:200px; border:14px solid green;"">","null","","","","","","","","","",""
"","image-keyboard-response","86","44603","0.0-86.0","3IXEICO793578B0HY689I417CI26TB","AZCGF2D7QIO10","3YO4AH2FPD6XG0OGOBTVFFK58DY0QT","","246.19999999925494","img/land1.png","74","247.5","1","1","1","2","1,0.7,0.7,0.7,1,0.7,0.7,0.7,1","1,0.7,0.7,0.7,1,0.7,0.7,0.7,1","","",""
"","html-keyboard-response","87","44904","0.0-87.0","3IXEICO793578B0HY689I417CI26TB","AZCGF2D7QIO10","3YO4AH2FPD6XG0OGOBTVFFK58DY0QT","","null","<img src=""img/land1.png"" style=""width:200px; border:14px solid green;"">","null","","","","","","","","","",""
"","image-keyboard-response","88","45422","0.0-88.0","3IXEICO793578B0HY689I417CI26TB","AZCGF2D7QIO10","3YO4AH2FPD6XG0OGOBTVFFK58DY0QT","","516.5","img/land2.png","74","518.1000000014901","1","0","2","2","1,0.7,0.7,0.7,1,0.7,0.7,0.7,1","1,0.7,0.7,0.7,1,0.7,0.7,0.7,1","","",""
"","html-keyboard-response","89","45726","0.0-89.0","3IXEICO793578B0HY689I417CI26TB","AZCGF2D7QIO10","3YO4AH2FPD6XG0OGOBTVFFK58DY0QT","","null","<img src=""img/land2.png"" style=""width:200px;border:14px solid red;"">","null","","","","","","","","","",""
"","image-keyboard-response","90","46144","0.0-90.0","3IXEICO793578B0HY689I417CI26TB","AZCGF2D7QIO10","3YO4AH2FPD6XG0OGOBTVFFK58DY0QT","","416.59999999962747","img/land2.png","75","418","2","1","2","2","1,0.7,0.7,0.7,1,0.7,0.7,0.7,1","1,0.7,0.7,0.7,1,0.7,0.7,0.7,1","","",""
"","html-keyboard-response","91","46446","0.0-91.0","3IXEICO793578B0HY689I417CI26TB","AZCGF2D7QIO10","3YO4AH2FPD6XG0OGOBTVFFK58DY0QT","","null","<img src=""img/land2.png"" style=""width:200px; border:14px solid green;"">","null","","","","","","","","","",""
"","image-keyboard-response","92","46884","0.0-92.0","3IXEICO793578B0HY689I417CI26TB","AZCGF2D7QIO10","3YO4AH2FPD6XG0OGOBTVFFK58DY0QT","","434.90000000037253","img/land3.png","74","437.5","1","1","3","2","1,0.7,0.7,0.7,1,0.7,0.7,0.7,1","1,0.7,0.7,0.7,1,0.7,0.7,0.7,1","","",""
"","html-keyboard-response","93","47187","0.0-93.0","3IXEICO793578B0HY689I417CI26TB","AZCGF2D7QIO10","3YO4AH2FPD6XG0OGOBTVFFK58DY0QT","","null","<img src=""img/land3.png"" style=""width:200px; border:14px solid green;"">","null","","","","","","","","","",""
"","image-keyboard-response","94","47705","0.0-94.0","3IXEICO793578B0HY689I417CI26TB","AZCGF2D7QIO10","3YO4AH2FPD6XG0OGOBTVFFK58DY0QT","","516","img/land2.png","74","517.5","1","0","2","2","1,0.7,0.7,0.7,1,0.7,0.7,0.7,1","1,0.7,0.7,0.7,1,0.7,0.7,0.7,1","","",""
"","html-keyboard-response","95","48007","0.0-95.0","3IXEICO793578B0HY689I417CI26TB","AZCGF2D7QIO10","3YO4AH2FPD6XG0OGOBTVFFK58DY0QT","","null","<img src=""img/land2.png"" style=""width:200px;border:14px solid red;"">","null","","","","","","","","","",""
"","image-keyboard-response","96","48961","0.0-96.0","3IXEICO793578B0HY689I417CI26TB","AZCGF2D7QIO10","3YO4AH2FPD6XG0OGOBTVFFK58DY0QT","","952.9000000003725","img/land2.png","74","953.5","1","0","2","2","1,0.7,0.7,0.7,1,0.7,0.7,0.7,1","1,0.7,0.7,0.7,1,0.7,0.7,0.7,1","","",""
"","html-keyboard-response","97","49263","0.0-97.0","3IXEICO793578B0HY689I417CI26TB","AZCGF2D7QIO10","3YO4AH2FPD6XG0OGOBTVFFK58DY0QT","","null","<img src=""img/land2.png"" style=""width:200px;border:14px solid red;"">","null","","","","","","","","","",""
"","image-keyboard-response","98","49372","0.0-98.0","3IXEICO793578B0HY689I417CI26TB","AZCGF2D7QIO10","3YO4AH2FPD6XG0OGOBTVFFK58DY0QT","","107.89999999850988","img/land2.png","75","109.19999999925494","2","1","2","2","1,0.7,0.7,0.7,1,0.7,0.7,0.7,1","1,0.7,0.7,0.7,1,0.7,0.7,0.7,1","","",""
"","html-keyboard-response","99","49675","0.0-99.0","3IXEICO793578B0HY689I417CI26TB","AZCGF2D7QIO10","3YO4AH2FPD6XG0OGOBTVFFK58DY0QT","","null","<img src=""img/land2.png"" style=""width:200px; border:14px solid green;"">","null","","","","","","","","","",""
"","image-keyboard-response","100","50366","0.0-100.0","3IXEICO793578B0HY689I417CI26TB","AZCGF2D7QIO10","3YO4AH2FPD6XG0OGOBTVFFK58DY0QT","","690.0999999996275","img/land3.png","76","691","3","1","3","2","1,0.7,0.7,0.7,1,0.7,0.7,0.7,1","1,0.7,0.7,0.7,1,0.7,0.7,0.7,1","","",""
"","html-keyboard-response","101","50669","0.0-101.0","3IXEICO793578B0HY689I417CI26TB","AZCGF2D7QIO10","3YO4AH2FPD6XG0OGOBTVFFK58DY0QT","","null","<img src=""img/land3.png"" style=""width:200px; border:14px solid green;"">","null","","","","","","","","","",""
"","image-keyboard-response","102","50950","0.0-102.0","3IXEICO793578B0HY689I417CI26TB","AZCGF2D7QIO10","3YO4AH2FPD6XG0OGOBTVFFK58DY0QT","","279.40000000037253","img/land3.png","76","280.90000000037253","3","1","3","2","1,0.7,0.7,0.7,1,0.7,0.7,0.7,1","1,0.7,0.7,0.7,1,0.7,0.7,0.7,1","","",""
"","html-keyboard-response","103","51253","0.0-103.0","3IXEICO793578B0HY689I417CI26TB","AZCGF2D7QIO10","3YO4AH2FPD6XG0OGOBTVFFK58DY0QT","","null","<img src=""img/land3.png"" style=""width:200px; border:14px solid green;"">","null","","","","","","","","","",""
"","image-keyboard-response","104","51823","0.0-104.0","3IXEICO793578B0HY689I417CI26TB","AZCGF2D7QIO10","3YO4AH2FPD6XG0OGOBTVFFK58DY0QT","","569.2999999988824","img/land2.png","75","570.0999999996275","2","1","2","2","1,0.7,0.7,0.7,1,0.7,0.7,0.7,1","1,0.7,0.7,0.7,1,0.7,0.7,0.7,1","","",""
"","html-keyboard-response","105","52125","0.0-105.0","3IXEICO793578B0HY689I417CI26TB","AZCGF2D7QIO10","3YO4AH2FPD6XG0OGOBTVFFK58DY0QT","","null","<img src=""img/land2.png"" style=""width:200px; border:14px solid green;"">","null","","","","","","","","","",""
"","image-keyboard-response","106","52392","0.0-106.0","3IXEICO793578B0HY689I417CI26TB","AZCGF2D7QIO10","3YO4AH2FPD6XG0OGOBTVFFK58DY0QT","","265.80000000074506","img/land2.png","75","267.5","2","1","2","2","1,0.7,0.7,0.7,1,0.7,0.7,0.7,1","1,0.7,0.7,0.7,1,0.7,0.7,0.7,1","","",""
"","html-keyboard-response","107","52694","0.0-107.0","3IXEICO793578B0HY689I417CI26TB","AZCGF2D7QIO10","3YO4AH2FPD6XG0OGOBTVFFK58DY0QT","","null","<img src=""img/land2.png"" style=""width:200px; border:14px solid green;"">","null","","","","","","","","","",""
"","image-keyboard-response","108","52910","0.0-108.0","3IXEICO793578B0HY689I417CI26TB","AZCGF2D7QIO10","3YO4AH2FPD6XG0OGOBTVFFK58DY0QT","","214","img/land2.png","75","215.30000000074506","2","1","2","2","1,0.7,0.7,0.7,1,0.7,0.7,0.7,1","1,0.7,0.7,0.7,1,0.7,0.7,0.7,1","","",""
"","html-keyboard-response","109","53212","0.0-109.0","3IXEICO793578B0HY689I417CI26TB","AZCGF2D7QIO10","3YO4AH2FPD6XG0OGOBTVFFK58DY0QT","","null","<img src=""img/land2.png"" style=""width:200px; border:14px solid green;"">","null","","","","","","","","","",""
"","image-keyboard-response","110","53400","0.0-110.0","3IXEICO793578B0HY689I417CI26TB","AZCGF2D7QIO10","3YO4AH2FPD6XG0OGOBTVFFK58DY0QT","","185.90000000037253","img/land2.png","75","187.5","2","1","2","2","1,0.7,0.7,0.7,1,0.7,0.7,0.7,1","1,0.7,0.7,0.7,1,0.7,0.7,0.7,1","","",""
"","html-keyboard-response","111","53716","0.0-111.0","3IXEICO793578B0HY689I417CI26TB","AZCGF2D7QIO10","3YO4AH2FPD6XG0OGOBTVFFK58DY0QT","","null","<img src=""img/land2.png"" style=""width:200px; border:14px solid green;"">","null","","","","","","","","","",""
"","image-keyboard-response","112","53830","0.0-112.0","3IXEICO793578B0HY689I417CI26TB","AZCGF2D7QIO10","3YO4AH2FPD6XG0OGOBTVFFK58DY0QT","","112.09999999962747","img/land2.png","75","113.40000000037253","2","1","2","2","1,0.7,0.7,0.7,1,0.7,0.7,0.7,1","1,0.7,0.7,0.7,1,0.7,0.7,0.7,1","","",""
"","html-keyboard-response","113","54131","0.0-113.0","3IXEICO793578B0HY689I417CI26TB","AZCGF2D7QIO10","3YO4AH2FPD6XG0OGOBTVFFK58DY0QT","","null","<img src=""img/land2.png"" style=""width:200px; border:14px solid green;"">","null","","","","","","","","","",""
"","image-keyboard-response","114","54355","0.0-114.0","3IXEICO793578B0HY689I417CI26TB","AZCGF2D7QIO10","3YO4AH2FPD6XG0OGOBTVFFK58DY0QT","","223.40000000037253","img/land2.png","75","224","2","1","2","2","1,0.7,0.7,0.7,1,0.7,0.7,0.7,1","1,0.7,0.7,0.7,1,0.7,0.7,0.7,1","","",""
"","html-keyboard-response","115","54657","0.0-115.0","3IXEICO793578B0HY689I417CI26TB","AZCGF2D7QIO10","3YO4AH2FPD6XG0OGOBTVFFK58DY0QT","","null","<img src=""img/land2.png"" style=""width:200px; border:14px solid green;"">","null","","","","","","","","","",""
"","image-keyboard-response","116","54871","0.0-116.0","3IXEICO793578B0HY689I417CI26TB","AZCGF2D7QIO10","3YO4AH2FPD6XG0OGOBTVFFK58DY0QT","","213.30000000074506","img/land2.png","75","214.2999999988824","2","1","2","2","1,0.7,0.7,0.7,1,0.7,0.7,0.7,1","1,0.7,0.7,0.7,1,0.7,0.7,0.7,1","","",""
"","html-keyboard-response","117","55173","0.0-117.0","3IXEICO793578B0HY689I417CI26TB","AZCGF2D7QIO10","3YO4AH2FPD6XG0OGOBTVFFK58DY0QT","","null","<img src=""img/land2.png"" style=""width:200px; border:14px solid green;"">","null","","","","","","","","","",""
"","image-keyboard-response","118","55368","0.0-118.0","3IXEICO793578B0HY689I417CI26TB","AZCGF2D7QIO10","3YO4AH2FPD6XG0OGOBTVFFK58DY0QT","","193.09999999962747","img/land1.png","75","194.7000000011176","2","0","1","2","1,0.7,0.7,0.7,1,0.7,0.7,0.7,1","1,0.7,0.7,0.7,1,0.7,0.7,0.7,1","","",""
"","html-keyboard-response","119","55670","0.0-119.0","3IXEICO793578B0HY689I417CI26TB","AZCGF2D7QIO10","3YO4AH2FPD6XG0OGOBTVFFK58DY0QT","","null","<img src=""img/land1.png"" style=""width:200px;border:14px solid red;"">","null","","","","","","","","","",""
"","image-keyboard-response","120","55808","0.0-120.0","3IXEICO793578B0HY689I417CI26TB","AZCGF2D7QIO10","3YO4AH2FPD6XG0OGOBTVFFK58DY0QT","","137.30000000074506","img/land2.png","74","138.40000000037253","1","0","2","2","1,0.7,0.7,0.7,1,0.7,0.7,0.7,1","1,0.7,0.7,0.7,1,0.7,0.7,0.7,1","","",""
"","html-keyboard-response","121","56111","0.0-121.0","3IXEICO793578B0HY689I417CI26TB","AZCGF2D7QIO10","3YO4AH2FPD6XG0OGOBTVFFK58DY0QT","","null","<img src=""img/land2.png"" style=""width:200px;border:14px solid red;"">","null","","","","","","","","","",""
"","image-keyboard-response","122","56671","0.0-122.0","3IXEICO793578B0HY689I417CI26TB","AZCGF2D7QIO10","3YO4AH2FPD6XG0OGOBTVFFK58DY0QT","","557.9000000003725","img/land3.png","76","559.5999999996275","3","1","3","2","1,0.7,0.7,0.7,1,0.7,0.7,0.7,1","1,0.7,0.7,0.7,1,0.7,0.7,0.7,1","","",""
"","html-keyboard-response","123","56973","0.0-123.0","3IXEICO793578B0HY689I417CI26TB","AZCGF2D7QIO10","3YO4AH2FPD6XG0OGOBTVFFK58DY0QT","","null","<img src=""img/land3.png"" style=""width:200px; border:14px solid green;"">","null","","","","","","","","","",""
"","image-keyboard-response","124","57415","0.0-124.0","3IXEICO793578B0HY689I417CI26TB","AZCGF2D7QIO10","3YO4AH2FPD6XG0OGOBTVFFK58DY0QT","","440.3999999985099","img/land3.png","76","441.69999999925494","3","1","3","2","1,0.7,0.7,0.7,1,0.7,0.7,0.7,1","1,0.7,0.7,0.7,1,0.7,0.7,0.7,1","","",""
"","html-keyboard-response","125","57717","0.0-125.0","3IXEICO793578B0HY689I417CI26TB","AZCGF2D7QIO10","3YO4AH2FPD6XG0OGOBTVFFK58DY0QT","","null","<img src=""img/land3.png"" style=""width:200px; border:14px solid green;"">","null","","","","","","","","","",""
"","image-keyboard-response","126","58421","0.0-126.0","3IXEICO793578B0HY689I417CI26TB","AZCGF2D7QIO10","3YO4AH2FPD6XG0OGOBTVFFK58DY0QT","","701.8000000007451","img/land2.png","75","703","2","1","2","2","1,0.7,0.7,0.7,1,0.7,0.7,0.7,1","1,0.7,0.7,0.7,1,0.7,0.7,0.7,1","","",""
"","html-keyboard-response","127","58724","0.0-127.0","3IXEICO793578B0HY689I417CI26TB","AZCGF2D7QIO10","3YO4AH2FPD6XG0OGOBTVFFK58DY0QT","","null","<img src=""img/land2.png"" style=""width:200px; border:14px solid green;"">","null","","","","","","","","","",""
"","image-keyboard-response","128","58845","0.0-128.0","3IXEICO793578B0HY689I417CI26TB","AZCGF2D7QIO10","3YO4AH2FPD6XG0OGOBTVFFK58DY0QT","","119.5","img/land2.png","75","120.79999999888241","2","1","2","2","1,0.7,0.7,0.7,1,0.7,0.7,0.7,1","1,0.7,0.7,0.7,1,0.7,0.7,0.7,1","","",""
"","html-keyboard-response","129","59148","0.0-129.0","3IXEICO793578B0HY689I417CI26TB","AZCGF2D7QIO10","3YO4AH2FPD6XG0OGOBTVFFK58DY0QT","","null","<img src=""img/land2.png"" style=""width:200px; border:14px solid green;"">","null","","","","","","","","","",""
"","image-keyboard-response","130","59257","0.0-130.0","3IXEICO793578B0HY689I417CI26TB","AZCGF2D7QIO10","3YO4AH2FPD6XG0OGOBTVFFK58DY0QT","","108.09999999962747","img/land2.png","75","109.20000000111759","2","1","2","2","1,0.7,0.7,0.7,1,0.7,0.7,0.7,1","1,0.7,0.7,0.7,1,0.7,0.7,0.7,1","","",""
"","html-keyboard-response","131","59565","0.0-131.0","3IXEICO793578B0HY689I417CI26TB","AZCGF2D7QIO10","3YO4AH2FPD6XG0OGOBTVFFK58DY0QT","","null","<img src=""img/land2.png"" style=""width:200px; border:14px solid green;"">","null","","","","","","","","","",""
"","image-keyboard-response","132","60026","0.0-132.0","3IXEICO793578B0HY689I417CI26TB","AZCGF2D7QIO10","3YO4AH2FPD6XG0OGOBTVFFK58DY0QT","","459.7000000011176","img/land1.png","74","460.40000000037253","1","1","1","2","1,0.7,0.7,0.7,1,0.7,0.7,0.7,1","1,0.7,0.7,0.7,1,0.7,0.7,0.7,1","","",""
"","html-keyboard-response","133","60328","0.0-133.0","3IXEICO793578B0HY689I417CI26TB","AZCGF2D7QIO10","3YO4AH2FPD6XG0OGOBTVFFK58DY0QT","","null","<img src=""img/land1.png"" style=""width:200px; border:14px solid green;"">","null","","","","","","","","","",""
"","image-keyboard-response","134","60837","0.0-134.0","3IXEICO793578B0HY689I417CI26TB","AZCGF2D7QIO10","3YO4AH2FPD6XG0OGOBTVFFK58DY0QT","","507.09999999962747","img/land2.png","75","508.69999999925494","2","1","2","2","1,0.7,0.7,0.7,1,0.7,0.7,0.7,1","1,0.7,0.7,0.7,1,0.7,0.7,0.7,1","","",""
"","html-keyboard-response","135","61139","0.0-135.0","3IXEICO793578B0HY689I417CI26TB","AZCGF2D7QIO10","3YO4AH2FPD6XG0OGOBTVFFK58DY0QT","","null","<img src=""img/land2.png"" style=""width:200px; border:14px solid green;"">","null","","","","","","","","","",""
"","image-keyboard-response","136","61624","0.0-136.0","3IXEICO793578B0HY689I417CI26TB","AZCGF2D7QIO10","3YO4AH2FPD6XG0OGOBTVFFK58DY0QT","","483.3999999985099","img/land3.png","76","484.59999999962747","3","1","3","2","1,0.7,0.7,0.7,1,0.7,0.7,0.7,1","1,0.7,0.7,0.7,1,0.7,0.7,0.7,1","","",""
"","html-keyboard-response","137","61926","0.0-137.0","3IXEICO793578B0HY689I417CI26TB","AZCGF2D7QIO10","3YO4AH2FPD6XG0OGOBTVFFK58DY0QT","","null","<img src=""img/land3.png"" style=""width:200px; border:14px solid green;"">","null","","","","","","","","","",""
"","image-keyboard-response","138","62540","0.0-138.0","3IXEICO793578B0HY689I417CI26TB","AZCGF2D7QIO10","3YO4AH2FPD6XG0OGOBTVFFK58DY0QT","","612","img/land2.png","74","613.6999999992549","1","0","2","2","1,0.7,0.7,0.7,1,0.7,0.7,0.7,1","1,0.7,0.7,0.7,1,0.7,0.7,0.7,1","","",""
"","html-keyboard-response","139","62842","0.0-139.0","3IXEICO793578B0HY689I417CI26TB","AZCGF2D7QIO10","3YO4AH2FPD6XG0OGOBTVFFK58DY0QT","","null","<img src=""img/land2.png"" style=""width:200px;border:14px solid red;"">","null","","","","","","","","","",""
"","image-keyboard-response","140","62993","0.0-140.0","3IXEICO793578B0HY689I417CI26TB","AZCGF2D7QIO10","3YO4AH2FPD6XG0OGOBTVFFK58DY0QT","","149.80000000074506","img/land2.png","75","150.80000000074506","2","1","2","2","1,0.7,0.7,0.7,1,0.7,0.7,0.7,1","1,0.7,0.7,0.7,1,0.7,0.7,0.7,1","","",""
"","html-keyboard-response","141","63296","0.0-141.0","3IXEICO793578B0HY689I417CI26TB","AZCGF2D7QIO10","3YO4AH2FPD6XG0OGOBTVFFK58DY0QT","","null","<img src=""img/land2.png"" style=""width:200px; border:14px solid green;"">","null","","","","","","","","","",""
"","image-keyboard-response","142","63545","0.0-142.0","3IXEICO793578B0HY689I417CI26TB","AZCGF2D7QIO10","3YO4AH2FPD6XG0OGOBTVFFK58DY0QT","","247","img/land2.png","75","248.5","2","1","2","2","1,0.7,0.7,0.7,1,0.7,0.7,0.7,1","1,0.7,0.7,0.7,1,0.7,0.7,0.7,1","","",""
"","html-keyboard-response","143","63859","0.0-143.0","3IXEICO793578B0HY689I417CI26TB","AZCGF2D7QIO10","3YO4AH2FPD6XG0OGOBTVFFK58DY0QT","","null","<img src=""img/land2.png"" style=""width:200px; border:14px solid green;"">","null","","","","","","","","","",""
"","image-keyboard-response","144","64081","0.0-144.0","3IXEICO793578B0HY689I417CI26TB","AZCGF2D7QIO10","3YO4AH2FPD6XG0OGOBTVFFK58DY0QT","","220.40000000037253","img/land2.png","75","221.7999999988824","2","1","2","2","1,0.7,0.7,0.7,1,0.7,0.7,0.7,1","1,0.7,0.7,0.7,1,0.7,0.7,0.7,1","","",""
"","html-keyboard-response","145","64383","0.0-145.0","3IXEICO793578B0HY689I417CI26TB","AZCGF2D7QIO10","3YO4AH2FPD6XG0OGOBTVFFK58DY0QT","","null","<img src=""img/land2.png"" style=""width:200px; border:14px solid green;"">","null","","","","","","","","","",""
"","image-keyboard-response","146","64595","0.0-146.0","3IXEICO793578B0HY689I417CI26TB","AZCGF2D7QIO10","3YO4AH2FPD6XG0OGOBTVFFK58DY0QT","","209.7999999988824","img/land2.png","75","211.40000000037253","2","1","2","2","1,0.7,0.7,0.7,1,0.7,0.7,0.7,1","1,0.7,0.7,0.7,1,0.7,0.7,0.7,1","","",""
"","html-keyboard-response","147","64896","0.0-147.0","3IXEICO793578B0HY689I417CI26TB","AZCGF2D7QIO10","3YO4AH2FPD6XG0OGOBTVFFK58DY0QT","","null","<img src=""img/land2.png"" style=""width:200px; border:14px solid green;"">","null","","","","","","","","","",""
"","image-keyboard-response","148","65105","0.0-148.0","3IXEICO793578B0HY689I417CI26TB","AZCGF2D7QIO10","3YO4AH2FPD6XG0OGOBTVFFK58DY0QT","","207.80000000074506","img/land2.png","75","208.69999999925494","2","1","2","2","1,0.7,0.7,0.7,1,0.7,0.7,0.7,1","1,0.7,0.7,0.7,1,0.7,0.7,0.7,1","","",""
"","html-keyboard-response","149","65408","0.0-149.0","3IXEICO793578B0HY689I417CI26TB","AZCGF2D7QIO10","3YO4AH2FPD6XG0OGOBTVFFK58DY0QT","","null","<img src=""img/land2.png"" style=""width:200px; border:14px solid green;"">","null","","","","","","","","","",""
"","image-keyboard-response","150","65692","0.0-150.0","3IXEICO793578B0HY689I417CI26TB","AZCGF2D7QIO10","3YO4AH2FPD6XG0OGOBTVFFK58DY0QT","","282.5","img/land2.png","75","283.69999999925494","2","1","2","2","1,0.7,0.7,0.7,1,0.7,0.7,0.7,1","1,0.7,0.7,0.7,1,0.7,0.7,0.7,1","","",""
"","html-keyboard-response","151","65995","0.0-151.0","3IXEICO793578B0HY689I417CI26TB","AZCGF2D7QIO10","3YO4AH2FPD6XG0OGOBTVFFK58DY0QT","","null","<img src=""img/land2.png"" style=""width:200px; border:14px solid green;"">","null","","","","","","","","","",""
"","image-keyboard-response","152","66197","0.0-152.0","3IXEICO793578B0HY689I417CI26TB","AZCGF2D7QIO10","3YO4AH2FPD6XG0OGOBTVFFK58DY0QT","","200.5","img/land2.png","75","201.69999999925494","2","1","2","2","1,0.7,0.7,0.7,1,0.7,0.7,0.7,1","1,0.7,0.7,0.7,1,0.7,0.7,0.7,1","","",""
"","html-keyboard-response","153","66498","0.0-153.0","3IXEICO793578B0HY689I417CI26TB","AZCGF2D7QIO10","3YO4AH2FPD6XG0OGOBTVFFK58DY0QT","","null","<img src=""img/land2.png"" style=""width:200px; border:14px solid green;"">","null","","","","","","","","","",""
"","image-keyboard-response","154","66815","0.0-154.0","3IXEICO793578B0HY689I417CI26TB","AZCGF2D7QIO10","3YO4AH2FPD6XG0OGOBTVFFK58DY0QT","","315.19999999925494","img/land2.png","75","316.40000000037253","2","1","2","2","1,0.7,0.7,0.7,1,0.7,0.7,0.7,1","1,0.7,0.7,0.7,1,0.7,0.7,0.7,1","","",""
"","html-keyboard-response","155","67117","0.0-155.0","3IXEICO793578B0HY689I417CI26TB","AZCGF2D7QIO10","3YO4AH2FPD6XG0OGOBTVFFK58DY0QT","","null","<img src=""img/land2.png"" style=""width:200px; border:14px solid green;"">","null","","","","","","","","","",""
"","image-keyboard-response","156","67746","0.0-156.0","3IXEICO793578B0HY689I417CI26TB","AZCGF2D7QIO10","3YO4AH2FPD6XG0OGOBTVFFK58DY0QT","","627.5999999996275","img/land3.png","76","628.8000000007451","3","1","3","2","1,0.7,0.7,0.7,1,0.7,0.7,0.7,1","1,0.7,0.7,0.7,1,0.7,0.7,0.7,1","","",""
"","html-keyboard-response","157","68049","0.0-157.0","3IXEICO793578B0HY689I417CI26TB","AZCGF2D7QIO10","3YO4AH2FPD6XG0OGOBTVFFK58DY0QT","","null","<img src=""img/land3.png"" style=""width:200px; border:14px solid green;"">","null","","","","","","","","","",""
"","image-keyboard-response","158","68322","0.0-158.0","3IXEICO793578B0HY689I417CI26TB","AZCGF2D7QIO10","3YO4AH2FPD6XG0OGOBTVFFK58DY0QT","","272.2000000011176","img/land3.png","76","273.09999999962747","3","1","3","2","1,0.7,0.7,0.7,1,0.7,0.7,0.7,1","1,0.7,0.7,0.7,1,0.7,0.7,0.7,1","","",""
"","html-keyboard-response","159","68625","0.0-159.0","3IXEICO793578B0HY689I417CI26TB","AZCGF2D7QIO10","3YO4AH2FPD6XG0OGOBTVFFK58DY0QT","","null","<img src=""img/land3.png"" style=""width:200px; border:14px solid green;"">","null","","","","","","","","","",""
"","image-keyboard-response","160","68962","0.0-160.0","3IXEICO793578B0HY689I417CI26TB","AZCGF2D7QIO10","3YO4AH2FPD6XG0OGOBTVFFK58DY0QT","","335.5","img/land3.png","76","336.8999999985099","3","1","3","2","1,0.7,0.7,0.7,1,0.7,0.7,0.7,1","1,0.7,0.7,0.7,1,0.7,0.7,0.7,1","","",""
"","html-keyboard-response","161","69265","0.0-161.0","3IXEICO793578B0HY689I417CI26TB","AZCGF2D7QIO10","3YO4AH2FPD6XG0OGOBTVFFK58DY0QT","","null","<img src=""img/land3.png"" style=""width:200px; border:14px solid green;"">","null","","","","","","","","","",""
"","image-keyboard-response","162","69464","0.0-162.0","3IXEICO793578B0HY689I417CI26TB","AZCGF2D7QIO10","3YO4AH2FPD6XG0OGOBTVFFK58DY0QT","","198","img/land1.png","76","199.2999999988824","3","1","1","2","1,0.7,0.7,0.7,1,0.7,0.7,0.7,1","1,0.7,0.7,0.7,1,0.7,0.7,0.7,1","","",""
"","html-keyboard-response","163","69769","0.0-163.0","3IXEICO793578B0HY689I417CI26TB","AZCGF2D7QIO10","3YO4AH2FPD6XG0OGOBTVFFK58DY0QT","","null","<img src=""img/land1.png"" style=""width:200px; border:14px solid green;"">","null","","","","","","","","","",""
"","image-keyboard-response","164","70298","0.0-164.0","3IXEICO793578B0HY689I417CI26TB","AZCGF2D7QIO10","3YO4AH2FPD6XG0OGOBTVFFK58DY0QT","","527.6999999992549","img/land3.png","76","528.9000000003725","3","1","3","2","1,0.7,0.7,0.7,1,0.7,0.7,0.7,1","1,0.7,0.7,0.7,1,0.7,0.7,0.7,1","","",""
"","html-keyboard-response","165","70600","0.0-165.0","3IXEICO793578B0HY689I417CI26TB","AZCGF2D7QIO10","3YO4AH2FPD6XG0OGOBTVFFK58DY0QT","","null","<img src=""img/land3.png"" style=""width:200px; border:14px solid green;"">","null","","","","","","","","","",""
"","image-keyboard-response","166","71235","0.0-166.0","3IXEICO793578B0HY689I417CI26TB","AZCGF2D7QIO10","3YO4AH2FPD6XG0OGOBTVFFK58DY0QT","","633.5","img/land2.png","75","634.7999999988824","2","1","2","2","1,0.7,0.7,0.7,1,0.7,0.7,0.7,1","1,0.7,0.7,0.7,1,0.7,0.7,0.7,1","","",""
"","html-keyboard-response","167","71538","0.0-167.0","3IXEICO793578B0HY689I417CI26TB","AZCGF2D7QIO10","3YO4AH2FPD6XG0OGOBTVFFK58DY0QT","","null","<img src=""img/land2.png"" style=""width:200px; border:14px solid green;"">","null","","","","","","","","","",""
"","image-keyboard-response","168","71697","0.0-168.0","3IXEICO793578B0HY689I417CI26TB","AZCGF2D7QIO10","3YO4AH2FPD6XG0OGOBTVFFK58DY0QT","","158","img/land1.png","75","159.19999999925494","2","1","1","2","1,0.7,0.7,0.7,1,0.7,0.7,0.7,1","1,0.7,0.7,0.7,1,0.7,0.7,0.7,1","","",""
"","html-keyboard-response","169","72000","0.0-169.0","3IXEICO793578B0HY689I417CI26TB","AZCGF2D7QIO10","3YO4AH2FPD6XG0OGOBTVFFK58DY0QT","","null","<img src=""img/land1.png"" style=""width:200px; border:14px solid green;"">","null","","","","","","","","","",""
"","image-keyboard-response","170","72450","0.0-170.0","3IXEICO793578B0HY689I417CI26TB","AZCGF2D7QIO10","3YO4AH2FPD6XG0OGOBTVFFK58DY0QT","","448.5","img/land3.png","75","450.09999999962747","2","0","3","2","1,0.7,0.7,0.7,1,0.7,0.7,0.7,1","1,0.7,0.7,0.7,1,0.7,0.7,0.7,1","","",""
"","html-keyboard-response","171","72753","0.0-171.0","3IXEICO793578B0HY689I417CI26TB","AZCGF2D7QIO10","3YO4AH2FPD6XG0OGOBTVFFK58DY0QT","","null","<img src=""img/land3.png"" style=""width:200px;border:14px solid red;"">","null","","","","","","","","","",""
"","image-keyboard-response","172","72933","0.0-172.0","3IXEICO793578B0HY689I417CI26TB","AZCGF2D7QIO10","3YO4AH2FPD6XG0OGOBTVFFK58DY0QT","","177.7000000011176","img/land2.png","76","179.90000000037253","3","1","2","2","1,0.7,0.7,0.7,1,0.7,0.7,0.7,1","1,0.7,0.7,0.7,1,0.7,0.7,0.7,1","","",""
"","html-keyboard-response","173","73235","0.0-173.0","3IXEICO793578B0HY689I417CI26TB","AZCGF2D7QIO10","3YO4AH2FPD6XG0OGOBTVFFK58DY0QT","","null","<img src=""img/land2.png"" style=""width:200px; border:14px solid green;"">","null","","","","","","","","","",""
"","image-keyboard-response","174","74042","0.0-174.0","3IXEICO793578B0HY689I417CI26TB","AZCGF2D7QIO10","3YO4AH2FPD6XG0OGOBTVFFK58DY0QT","","805.1000000014901","img/land1.png","74","806.6999999992549","1","1","1","2","1,0.7,0.7,0.7,1,0.7,0.7,0.7,1","1,0.7,0.7,0.7,1,0.7,0.7,0.7,1","","",""
"","html-keyboard-response","175","74345","0.0-175.0","3IXEICO793578B0HY689I417CI26TB","AZCGF2D7QIO10","3YO4AH2FPD6XG0OGOBTVFFK58DY0QT","","null","<img src=""img/land1.png"" style=""width:200px; border:14px solid green;"">","null","","","","","","","","","",""
"","image-keyboard-response","176","74612","0.0-176.0","3IXEICO793578B0HY689I417CI26TB","AZCGF2D7QIO10","3YO4AH2FPD6XG0OGOBTVFFK58DY0QT","","264.8999999985099","img/land1.png","74","266.40000000037253","1","1","1","2","1,0.7,0.7,0.7,1,0.7,0.7,0.7,1","1,0.7,0.7,0.7,1,0.7,0.7,0.7,1","","",""
"","html-keyboard-response","177","74914","0.0-177.0","3IXEICO793578B0HY689I417CI26TB","AZCGF2D7QIO10","3YO4AH2FPD6XG0OGOBTVFFK58DY0QT","","null","<img src=""img/land1.png"" style=""width:200px; border:14px solid green;"">","null","","","","","","","","","",""
"","image-keyboard-response","178","75110","0.0-178.0","3IXEICO793578B0HY689I417CI26TB","AZCGF2D7QIO10","3YO4AH2FPD6XG0OGOBTVFFK58DY0QT","","193.69999999925494","img/land3.png","74","195","1","0","3","2","1,0.7,0.7,0.7,1,0.7,0.7,0.7,1","1,0.7,0.7,0.7,1,0.7,0.7,0.7,1","","",""
"","html-keyboard-response","179","75411","0.0-179.0","3IXEICO793578B0HY689I417CI26TB","AZCGF2D7QIO10","3YO4AH2FPD6XG0OGOBTVFFK58DY0QT","","null","<img src=""img/land3.png"" style=""width:200px;border:14px solid red;"">","null","","","","","","","","","",""
"","image-keyboard-response","180","75739","0.0-180.0","3IXEICO793578B0HY689I417CI26TB","AZCGF2D7QIO10","3YO4AH2FPD6XG0OGOBTVFFK58DY0QT","","326.6000000014901","img/land3.png","76","327.19999999925494","3","1","3","2","1,0.7,0.7,0.7,1,0.7,0.7,0.7,1","1,0.7,0.7,0.7,1,0.7,0.7,0.7,1","","",""
"","html-keyboard-response","181","76040","0.0-181.0","3IXEICO793578B0HY689I417CI26TB","AZCGF2D7QIO10","3YO4AH2FPD6XG0OGOBTVFFK58DY0QT","","null","<img src=""img/land3.png"" style=""width:200px; border:14px solid green;"">","null","","","","","","","","","",""
"","image-keyboard-response","182","76281","0.0-182.0","3IXEICO793578B0HY689I417CI26TB","AZCGF2D7QIO10","3YO4AH2FPD6XG0OGOBTVFFK58DY0QT","","239","img/land2.png","76","240.7000000011176","3","0","2","2","1,0.7,0.7,0.7,1,0.7,0.7,0.7,1","1,0.7,0.7,0.7,1,0.7,0.7,0.7,1","","",""
"","html-keyboard-response","183","76584","0.0-183.0","3IXEICO793578B0HY689I417CI26TB","AZCGF2D7QIO10","3YO4AH2FPD6XG0OGOBTVFFK58DY0QT","","null","<img src=""img/land2.png"" style=""width:200px;border:14px solid red;"">","null","","","","","","","","","",""
"","image-keyboard-response","184","76772","0.0-184.0","3IXEICO793578B0HY689I417CI26TB","AZCGF2D7QIO10","3YO4AH2FPD6XG0OGOBTVFFK58DY0QT","","185.5","img/land3.png","75","186.80000000074506","2","0","3","2","1,0.7,0.7,0.7,1,0.7,0.7,0.7,1","1,0.7,0.7,0.7,1,0.7,0.7,0.7,1","","",""
"","html-keyboard-response","185","77074","0.0-185.0","3IXEICO793578B0HY689I417CI26TB","AZCGF2D7QIO10","3YO4AH2FPD6XG0OGOBTVFFK58DY0QT","","null","<img src=""img/land3.png"" style=""width:200px;border:14px solid red;"">","null","","","","","","","","","",""
"","image-keyboard-response","186","77595","0.0-186.0","3IXEICO793578B0HY689I417CI26TB","AZCGF2D7QIO10","3YO4AH2FPD6XG0OGOBTVFFK58DY0QT","","520.3000000007451","img/land2.png","75","521.2000000011176","2","1","2","2","1,0.7,0.7,0.7,1,0.7,0.7,0.7,1","1,0.7,0.7,0.7,1,0.7,0.7,0.7,1","","",""
"","html-keyboard-response","187","77897","0.0-187.0","3IXEICO793578B0HY689I417CI26TB","AZCGF2D7QIO10","3YO4AH2FPD6XG0OGOBTVFFK58DY0QT","","null","<img src=""img/land2.png"" style=""width:200px; border:14px solid green;"">","null","","","","","","","","","",""
"","image-keyboard-response","188","78518","0.0-188.0","3IXEICO793578B0HY689I417CI26TB","AZCGF2D7QIO10","3YO4AH2FPD6XG0OGOBTVFFK58DY0QT","","619.8000000007451","img/land1.png","74","620.8000000007451","1","1","1","2","1,0.7,0.7,0.7,1,0.7,0.7,0.7,1","1,0.7,0.7,0.7,1,0.7,0.7,0.7,1","","",""
"","html-keyboard-response","189","78820","0.0-189.0","3IXEICO793578B0HY689I417CI26TB","AZCGF2D7QIO10","3YO4AH2FPD6XG0OGOBTVFFK58DY0QT","","null","<img src=""img/land1.png"" style=""width:200px; border:14px solid green;"">","null","","","","","","","","","",""
"","image-keyboard-response","190","78995","0.0-190.0","3IXEICO793578B0HY689I417CI26TB","AZCGF2D7QIO10","3YO4AH2FPD6XG0OGOBTVFFK58DY0QT","","172.40000000037253","img/land2.png","74","173.59999999962747","1","1","2","2","1,0.7,0.7,0.7,1,0.7,0.7,0.7,1","1,0.7,0.7,0.7,1,0.7,0.7,0.7,1","","",""
"","html-keyboard-response","191","79296","0.0-191.0","3IXEICO793578B0HY689I417CI26TB","AZCGF2D7QIO10","3YO4AH2FPD6XG0OGOBTVFFK58DY0QT","","null","<img src=""img/land2.png"" style=""width:200px; border:14px solid green;"">","null","","","","","","","","","",""
"","image-keyboard-response","192","79682","0.0-192.0","3IXEICO793578B0HY689I417CI26TB","AZCGF2D7QIO10","3YO4AH2FPD6XG0OGOBTVFFK58DY0QT","","384.90000000037253","img/land1.png","75","386","2","1","1","2","1,0.7,0.7,0.7,1,0.7,0.7,0.7,1","1,0.7,0.7,0.7,1,0.7,0.7,0.7,1","","",""
"","html-keyboard-response","193","79985","0.0-193.0","3IXEICO793578B0HY689I417CI26TB","AZCGF2D7QIO10","3YO4AH2FPD6XG0OGOBTVFFK58DY0QT","","null","<img src=""img/land1.png"" style=""width:200px; border:14px solid green;"">","null","","","","","","","","","",""
"","image-keyboard-response","194","80564","0.0-194.0","3IXEICO793578B0HY689I417CI26TB","AZCGF2D7QIO10","3YO4AH2FPD6XG0OGOBTVFFK58DY0QT","","577.7000000011176","img/land2.png","75","578.9000000003725","2","1","2","2","1,0.7,0.7,0.7,1,0.7,0.7,0.7,1","1,0.7,0.7,0.7,1,0.7,0.7,0.7,1","","",""
"","html-keyboard-response","195","80866","0.0-195.0","3IXEICO793578B0HY689I417CI26TB","AZCGF2D7QIO10","3YO4AH2FPD6XG0OGOBTVFFK58DY0QT","","null","<img src=""img/land2.png"" style=""width:200px; border:14px solid green;"">","null","","","","","","","","","",""
"","image-keyboard-response","196","80986","0.0-196.0","3IXEICO793578B0HY689I417CI26TB","AZCGF2D7QIO10","3YO4AH2FPD6XG0OGOBTVFFK58DY0QT","","118.79999999888241","img/land1.png","75","119.90000000037253","2","1","1","2","1,0.7,0.7,0.7,1,0.7,0.7,0.7,1","1,0.7,0.7,0.7,1,0.7,0.7,0.7,1","","",""
"","html-keyboard-response","197","81289","0.0-197.0","3IXEICO793578B0HY689I417CI26TB","AZCGF2D7QIO10","3YO4AH2FPD6XG0OGOBTVFFK58DY0QT","","null","<img src=""img/land1.png"" style=""width:200px; border:14px solid green;"">","null","","","","","","","","","",""
"","image-keyboard-response","198","81556","0.0-198.0","3IXEICO793578B0HY689I417CI26TB","AZCGF2D7QIO10","3YO4AH2FPD6XG0OGOBTVFFK58DY0QT","","265.90000000037253","img/land2.png","74","267.19999999925494","1","1","2","2","1,0.7,0.7,0.7,1,0.7,0.7,0.7,1","1,0.7,0.7,0.7,1,0.7,0.7,0.7,1","","",""
"","html-keyboard-response","199","81859","0.0-199.0","3IXEICO793578B0HY689I417CI26TB","AZCGF2D7QIO10","3YO4AH2FPD6XG0OGOBTVFFK58DY0QT","","null","<img src=""img/land2.png"" style=""width:200px; border:14px solid green;"">","null","","","","","","","","","",""
"","image-keyboard-response","200","82070","0.0-200.0","3IXEICO793578B0HY689I417CI26TB","AZCGF2D7QIO10","3YO4AH2FPD6XG0OGOBTVFFK58DY0QT","","208.59999999962747","img/land2.png","75","210.60000000149012","2","1","2","2","1,0.7,0.7,0.7,1,0.7,0.7,0.7,1","1,0.7,0.7,0.7,1,0.7,0.7,0.7,1","","",""
"","html-keyboard-response","201","82373","0.0-201.0","3IXEICO793578B0HY689I417CI26TB","AZCGF2D7QIO10","3YO4AH2FPD6XG0OGOBTVFFK58DY0QT","","null","<img src=""img/land2.png"" style=""width:200px; border:14px solid green;"">","null","","","","","","","","","",""
"","image-keyboard-response","202","82574","0.0-202.0","3IXEICO793578B0HY689I417CI26TB","AZCGF2D7QIO10","3YO4AH2FPD6XG0OGOBTVFFK58DY0QT","","199.69999999925494","img/land2.png","75","201.09999999962747","2","1","2","2","1,0.7,0.7,0.7,1,0.7,0.7,0.7,1","1,0.7,0.7,0.7,1,0.7,0.7,0.7,1","","",""
"","html-keyboard-response","203","82877","0.0-203.0","3IXEICO793578B0HY689I417CI26TB","AZCGF2D7QIO10","3YO4AH2FPD6XG0OGOBTVFFK58DY0QT","","null","<img src=""img/land2.png"" style=""width:200px; border:14px solid green;"">","null","","","","","","","","","",""
"","image-keyboard-response","204","83105","0.0-204.0","3IXEICO793578B0HY689I417CI26TB","AZCGF2D7QIO10","3YO4AH2FPD6XG0OGOBTVFFK58DY0QT","","226","img/land2.png","75","227.60000000149012","2","1","2","2","1,0.7,0.7,0.7,1,0.7,0.7,0.7,1","1,0.7,0.7,0.7,1,0.7,0.7,0.7,1","","",""
"","html-keyboard-response","205","83408","0.0-205.0","3IXEICO793578B0HY689I417CI26TB","AZCGF2D7QIO10","3YO4AH2FPD6XG0OGOBTVFFK58DY0QT","","null","<img src=""img/land2.png"" style=""width:200px; border:14px solid green;"">","null","","","","","","","","","",""
"","image-keyboard-response","206","83925","0.0-206.0","3IXEICO793578B0HY689I417CI26TB","AZCGF2D7QIO10","3YO4AH2FPD6XG0OGOBTVFFK58DY0QT","","516.5","img/land1.png","76","517.3999999985099","3","0","1","2","1,0.7,0.7,0.7,1,0.7,0.7,0.7,1","1,0.7,0.7,0.7,1,0.7,0.7,0.7,1","","",""
"","html-keyboard-response","207","84228","0.0-207.0","3IXEICO793578B0HY689I417CI26TB","AZCGF2D7QIO10","3YO4AH2FPD6XG0OGOBTVFFK58DY0QT","","null","<img src=""img/land1.png"" style=""width:200px;border:14px solid red;"">","null","","","","","","","","","",""
"","image-keyboard-response","208","84836","0.0-208.0","3IXEICO793578B0HY689I417CI26TB","AZCGF2D7QIO10","3YO4AH2FPD6XG0OGOBTVFFK58DY0QT","","605.5","img/land3.png","76","607.5","3","1","3","2","1,0.7,0.7,0.7,1,0.7,0.7,0.7,1","1,0.7,0.7,0.7,1,0.7,0.7,0.7,1","","",""
"","html-keyboard-response","209","85138","0.0-209.0","3IXEICO793578B0HY689I417CI26TB","AZCGF2D7QIO10","3YO4AH2FPD6XG0OGOBTVFFK58DY0QT","","null","<img src=""img/land3.png"" style=""width:200px; border:14px solid green;"">","null","","","","","","","","","",""
"","image-keyboard-response","210","85693","0.0-210.0","3IXEICO793578B0HY689I417CI26TB","AZCGF2D7QIO10","3YO4AH2FPD6XG0OGOBTVFFK58DY0QT","","553","img/land1.png","75","553.7000000011176","2","1","1","2","1,0.7,0.7,0.7,1,0.7,0.7,0.7,1","1,0.7,0.7,0.7,1,0.7,0.7,0.7,1","","",""
"","html-keyboard-response","211","85995","0.0-211.0","3IXEICO793578B0HY689I417CI26TB","AZCGF2D7QIO10","3YO4AH2FPD6XG0OGOBTVFFK58DY0QT","","null","<img src=""img/land1.png"" style=""width:200px; border:14px solid green;"">","null","","","","","","","","","",""
"","image-keyboard-response","212","86112","0.0-212.0","3IXEICO793578B0HY689I417CI26TB","AZCGF2D7QIO10","3YO4AH2FPD6XG0OGOBTVFFK58DY0QT","","116.20000000111759","img/land2.png","75","117.59999999962747","2","1","2","2","1,0.7,0.7,0.7,1,0.7,0.7,0.7,1","1,0.7,0.7,0.7,1,0.7,0.7,0.7,1","","",""
"","html-keyboard-response","213","86422","0.0-213.0","3IXEICO793578B0HY689I417CI26TB","AZCGF2D7QIO10","3YO4AH2FPD6XG0OGOBTVFFK58DY0QT","","null","<img src=""img/land2.png"" style=""width:200px; border:14px solid green;"">","null","","","","","","","","","",""
"","image-keyboard-response","214","86742","0.0-214.0","3IXEICO793578B0HY689I417CI26TB","AZCGF2D7QIO10","3YO4AH2FPD6XG0OGOBTVFFK58DY0QT","","318.40000000037253","img/land2.png","74","319.7999999988824","1","0","2","2","1,0.7,0.7,0.7,1,0.7,0.7,0.7,1","1,0.7,0.7,0.7,1,0.7,0.7,0.7,1","","",""
"","html-keyboard-response","215","87044","0.0-215.0","3IXEICO793578B0HY689I417CI26TB","AZCGF2D7QIO10","3YO4AH2FPD6XG0OGOBTVFFK58DY0QT","","null","<img src=""img/land2.png"" style=""width:200px;border:14px solid red;"">","null","","","","","","","","","",""
"","image-keyboard-response","216","87240","0.0-216.0","3IXEICO793578B0HY689I417CI26TB","AZCGF2D7QIO10","3YO4AH2FPD6XG0OGOBTVFFK58DY0QT","","195","img/land2.png","75","196.2000000011176","2","1","2","2","1,0.7,0.7,0.7,1,0.7,0.7,0.7,1","1,0.7,0.7,0.7,1,0.7,0.7,0.7,1","","",""
"","html-keyboard-response","217","87542","0.0-217.0","3IXEICO793578B0HY689I417CI26TB","AZCGF2D7QIO10","3YO4AH2FPD6XG0OGOBTVFFK58DY0QT","","null","<img src=""img/land2.png"" style=""width:200px; border:14px solid green;"">","null","","","","","","","","","",""
"","image-keyboard-response","218","87690","0.0-218.0","3IXEICO793578B0HY689I417CI26TB","AZCGF2D7QIO10","3YO4AH2FPD6XG0OGOBTVFFK58DY0QT","","147.19999999925494","img/land3.png","75","148.09999999962747","2","1","3","2","1,0.7,0.7,0.7,1,0.7,0.7,0.7,1","1,0.7,0.7,0.7,1,0.7,0.7,0.7,1","","",""
"","html-keyboard-response","219","87992","0.0-219.0","3IXEICO793578B0HY689I417CI26TB","AZCGF2D7QIO10","3YO4AH2FPD6XG0OGOBTVFFK58DY0QT","","null","<img src=""img/land3.png"" style=""width:200px; border:14px solid green;"">","null","","","","","","","","","",""
"","image-keyboard-response","220","88233","0.0-220.0","3IXEICO793578B0HY689I417CI26TB","AZCGF2D7QIO10","3YO4AH2FPD6XG0OGOBTVFFK58DY0QT","","238.7999999988824","img/land3.png","76","240.5","3","1","3","2","1,0.7,0.7,0.7,1,0.7,0.7,0.7,1","1,0.7,0.7,0.7,1,0.7,0.7,0.7,1","","",""
"","html-keyboard-response","221","88535","0.0-221.0","3IXEICO793578B0HY689I417CI26TB","AZCGF2D7QIO10","3YO4AH2FPD6XG0OGOBTVFFK58DY0QT","","null","<img src=""img/land3.png"" style=""width:200px; border:14px solid green;"">","null","","","","","","","","","",""
"","image-keyboard-response","222","88728","0.0-222.0","3IXEICO793578B0HY689I417CI26TB","AZCGF2D7QIO10","3YO4AH2FPD6XG0OGOBTVFFK58DY0QT","","191.10000000149012","img/land3.png","76","192.90000000037253","3","1","3","2","1,0.7,0.7,0.7,1,0.7,0.7,0.7,1","1,0.7,0.7,0.7,1,0.7,0.7,0.7,1","","",""
"","html-keyboard-response","223","89031","0.0-223.0","3IXEICO793578B0HY689I417CI26TB","AZCGF2D7QIO10","3YO4AH2FPD6XG0OGOBTVFFK58DY0QT","","null","<img src=""img/land3.png"" style=""width:200px; border:14px solid green;"">","null","","","","","","","","","",""
"","image-keyboard-response","224","89227","0.0-224.0","3IXEICO793578B0HY689I417CI26TB","AZCGF2D7QIO10","3YO4AH2FPD6XG0OGOBTVFFK58DY0QT","","193.80000000074506","img/land2.png","76","194.90000000037253","3","1","2","2","1,0.7,0.7,0.7,1,0.7,0.7,0.7,1","1,0.7,0.7,0.7,1,0.7,0.7,0.7,1","","",""
"","html-keyboard-response","225","89529","0.0-225.0","3IXEICO793578B0HY689I417CI26TB","AZCGF2D7QIO10","3YO4AH2FPD6XG0OGOBTVFFK58DY0QT","","null","<img src=""img/land2.png"" style=""width:200px; border:14px solid green;"">","null","","","","","","","","","",""
"","image-keyboard-response","226","89777","0.0-226.0","3IXEICO793578B0HY689I417CI26TB","AZCGF2D7QIO10","3YO4AH2FPD6XG0OGOBTVFFK58DY0QT","","245.30000000074506","img/land2.png","75","246.90000000037253","2","1","2","2","1,0.7,0.7,0.7,1,0.7,0.7,0.7,1","1,0.7,0.7,0.7,1,0.7,0.7,0.7,1","","",""
"","html-keyboard-response","227","90078","0.0-227.0","3IXEICO793578B0HY689I417CI26TB","AZCGF2D7QIO10","3YO4AH2FPD6XG0OGOBTVFFK58DY0QT","","null","<img src=""img/land2.png"" style=""width:200px; border:14px solid green;"">","null","","","","","","","","","",""
"","image-keyboard-response","228","90227","0.0-228.0","3IXEICO793578B0HY689I417CI26TB","AZCGF2D7QIO10","3YO4AH2FPD6XG0OGOBTVFFK58DY0QT","","147.30000000074506","img/land2.png","75","148.69999999925494","2","1","2","2","1,0.7,0.7,0.7,1,0.7,0.7,0.7,1","1,0.7,0.7,0.7,1,0.7,0.7,0.7,1","","",""
"","html-keyboard-response","229","90530","0.0-229.0","3IXEICO793578B0HY689I417CI26TB","AZCGF2D7QIO10","3YO4AH2FPD6XG0OGOBTVFFK58DY0QT","","null","<img src=""img/land2.png"" style=""width:200px; border:14px solid green;"">","null","","","","","","","","","",""
"","image-keyboard-response","230","90729","0.0-230.0","3IXEICO793578B0HY689I417CI26TB","AZCGF2D7QIO10","3YO4AH2FPD6XG0OGOBTVFFK58DY0QT","","196.80000000074506","img/land2.png","75","198.30000000074506","2","1","2","2","1,0.7,0.7,0.7,1,0.7,0.7,0.7,1","1,0.7,0.7,0.7,1,0.7,0.7,0.7,1","","",""
"","html-keyboard-response","231","91031","0.0-231.0","3IXEICO793578B0HY689I417CI26TB","AZCGF2D7QIO10","3YO4AH2FPD6XG0OGOBTVFFK58DY0QT","","null","<img src=""img/land2.png"" style=""width:200px; border:14px solid green;"">","null","","","","","","","","","",""
"","image-keyboard-response","232","91163","0.0-232.0","3IXEICO793578B0HY689I417CI26TB","AZCGF2D7QIO10","3YO4AH2FPD6XG0OGOBTVFFK58DY0QT","","129.2000000011176","img/land2.png","75","131.5","2","1","2","2","1,0.7,0.7,0.7,1,0.7,0.7,0.7,1","1,0.7,0.7,0.7,1,0.7,0.7,0.7,1","","",""
"","html-keyboard-response","233","91465","0.0-233.0","3IXEICO793578B0HY689I417CI26TB","AZCGF2D7QIO10","3YO4AH2FPD6XG0OGOBTVFFK58DY0QT","","null","<img src=""img/land2.png"" style=""width:200px; border:14px solid green;"">","null","","","","","","","","","",""
"","image-keyboard-response","234","91629","0.0-234.0","3IXEICO793578B0HY689I417CI26TB","AZCGF2D7QIO10","3YO4AH2FPD6XG0OGOBTVFFK58DY0QT","","162.30000000074506","img/land3.png","75","164.30000000074506","2","1","3","2","1,0.7,0.7,0.7,1,0.7,0.7,0.7,1","1,0.7,0.7,0.7,1,0.7,0.7,0.7,1","","",""
"","html-keyboard-response","235","91932","0.0-235.0","3IXEICO793578B0HY689I417CI26TB","AZCGF2D7QIO10","3YO4AH2FPD6XG0OGOBTVFFK58DY0QT","","null","<img src=""img/land3.png"" style=""width:200px; border:14px solid green;"">","null","","","","","","","","","",""
"","image-keyboard-response","236","92082","0.0-236.0","3IXEICO793578B0HY689I417CI26TB","AZCGF2D7QIO10","3YO4AH2FPD6XG0OGOBTVFFK58DY0QT","","148","img/land2.png","76","149.09999999962747","3","1","2","2","1,0.7,0.7,0.7,1,0.7,0.7,0.7,1","1,0.7,0.7,0.7,1,0.7,0.7,0.7,1","","",""
"","html-keyboard-response","237","92384","0.0-237.0","3IXEICO793578B0HY689I417CI26TB","AZCGF2D7QIO10","3YO4AH2FPD6XG0OGOBTVFFK58DY0QT","","null","<img src=""img/land2.png"" style=""width:200px; border:14px solid green;"">","null","","","","","","","","","",""
"","image-keyboard-response","238","92687","0.0-238.0","3IXEICO793578B0HY689I417CI26TB","AZCGF2D7QIO10","3YO4AH2FPD6XG0OGOBTVFFK58DY0QT","","300.59999999962747","img/land2.png","76","302.09999999962747","3","1","2","2","1,0.7,0.7,0.7,1,0.7,0.7,0.7,1","1,0.7,0.7,0.7,1,0.7,0.7,0.7,1","","",""
"","html-keyboard-response","239","92988","0.0-239.0","3IXEICO793578B0HY689I417CI26TB","AZCGF2D7QIO10","3YO4AH2FPD6XG0OGOBTVFFK58DY0QT","","null","<img src=""img/land2.png"" style=""width:200px; border:14px solid green;"">","null","","","","","","","","","",""
"","image-keyboard-response","240","93088","0.0-240.0","3IXEICO793578B0HY689I417CI26TB","AZCGF2D7QIO10","3YO4AH2FPD6XG0OGOBTVFFK58DY0QT","","99","img/land1.png","75","100.09999999962747","2","1","1","2","1,0.7,0.7,0.7,1,0.7,0.7,0.7,1","1,0.7,0.7,0.7,1,0.7,0.7,0.7,1","","",""
"","html-keyboard-response","241","93391","0.0-241.0","3IXEICO793578B0HY689I417CI26TB","AZCGF2D7QIO10","3YO4AH2FPD6XG0OGOBTVFFK58DY0QT","","null","<img src=""img/land1.png"" style=""width:200px; border:14px solid green;"">","null","","","","","","","","","",""
"","image-keyboard-response","242","94087","0.0-242.0","3IXEICO793578B0HY689I417CI26TB","AZCGF2D7QIO10","3YO4AH2FPD6XG0OGOBTVFFK58DY0QT","","693.9000000003725","img/land2.png","75","695.1999999992549","2","1","2","2","1,0.7,0.7,0.7,1,0.7,0.7,0.7,1","1,0.7,0.7,0.7,1,0.7,0.7,0.7,1","","",""
"","html-keyboard-response","243","94389","0.0-243.0","3IXEICO793578B0HY689I417CI26TB","AZCGF2D7QIO10","3YO4AH2FPD6XG0OGOBTVFFK58DY0QT","","null","<img src=""img/land2.png"" style=""width:200px; border:14px solid green;"">","null","","","","","","","","","",""
"","image-keyboard-response","244","94589","0.0-244.0","3IXEICO793578B0HY689I417CI26TB","AZCGF2D7QIO10","3YO4AH2FPD6XG0OGOBTVFFK58DY0QT","","198.30000000074506","img/land2.png","75","199.40000000037253","2","1","2","2","1,0.7,0.7,0.7,1,0.7,0.7,0.7,1","1,0.7,0.7,0.7,1,0.7,0.7,0.7,1","","",""
"","html-keyboard-response","245","94891","0.0-245.0","3IXEICO793578B0HY689I417CI26TB","AZCGF2D7QIO10","3YO4AH2FPD6XG0OGOBTVFFK58DY0QT","","null","<img src=""img/land2.png"" style=""width:200px; border:14px solid green;"">","null","","","","","","","","","",""
"","image-keyboard-response","246","95072","0.0-246.0","3IXEICO793578B0HY689I417CI26TB","AZCGF2D7QIO10","3YO4AH2FPD6XG0OGOBTVFFK58DY0QT","","180.19999999925494","img/land2.png","75","181.2999999988824","2","1","2","2","1,0.7,0.7,0.7,1,0.7,0.7,0.7,1","1,0.7,0.7,0.7,1,0.7,0.7,0.7,1","","",""
"","html-keyboard-response","247","95375","0.0-247.0","3IXEICO793578B0HY689I417CI26TB","AZCGF2D7QIO10","3YO4AH2FPD6XG0OGOBTVFFK58DY0QT","","null","<img src=""img/land2.png"" style=""width:200px; border:14px solid green;"">","null","","","","","","","","","",""
"","image-keyboard-response","248","95840","0.0-248.0","3IXEICO793578B0HY689I417CI26TB","AZCGF2D7QIO10","3YO4AH2FPD6XG0OGOBTVFFK58DY0QT","","463.69999999925494","img/land1.png","74","465.09999999962747","1","1","1","2","1,0.7,0.7,0.7,1,0.7,0.7,0.7,1","1,0.7,0.7,0.7,1,0.7,0.7,0.7,1","","",""
"","html-keyboard-response","249","96142","0.0-249.0","3IXEICO793578B0HY689I417CI26TB","AZCGF2D7QIO10","3YO4AH2FPD6XG0OGOBTVFFK58DY0QT","","null","<img src=""img/land1.png"" style=""width:200px; border:14px solid green;"">","null","","","","","","","","","",""
"","image-keyboard-response","250","96521","0.0-250.0","3IXEICO793578B0HY689I417CI26TB","AZCGF2D7QIO10","3YO4AH2FPD6XG0OGOBTVFFK58DY0QT","","377.6000000014901","img/land2.png","75","378.7000000011176","2","1","2","2","1,0.7,0.7,0.7,1,0.7,0.7,0.7,1","1,0.7,0.7,0.7,1,0.7,0.7,0.7,1","","",""
"","html-keyboard-response","251","96823","0.0-251.0","3IXEICO793578B0HY689I417CI26TB","AZCGF2D7QIO10","3YO4AH2FPD6XG0OGOBTVFFK58DY0QT","","null","<img src=""img/land2.png"" style=""width:200px; border:14px solid green;"">","null","","","","","","","","","",""
"","image-keyboard-response","252","96936","0.0-252.0","3IXEICO793578B0HY689I417CI26TB","AZCGF2D7QIO10","3YO4AH2FPD6XG0OGOBTVFFK58DY0QT","","110.20000000111759","img/land2.png","75","112.59999999962747","2","1","2","2","1,0.7,0.7,0.7,1,0.7,0.7,0.7,1","1,0.7,0.7,0.7,1,0.7,0.7,0.7,1","","",""
"","html-keyboard-response","253","97239","0.0-253.0","3IXEICO793578B0HY689I417CI26TB","AZCGF2D7QIO10","3YO4AH2FPD6XG0OGOBTVFFK58DY0QT","","null","<img src=""img/land2.png"" style=""width:200px; border:14px solid green;"">","null","","","","","","","","","",""
"","image-keyboard-response","254","97383","0.0-254.0","3IXEICO793578B0HY689I417CI26TB","AZCGF2D7QIO10","3YO4AH2FPD6XG0OGOBTVFFK58DY0QT","","143.09999999962747","img/land2.png","75","143.69999999925494","2","1","2","2","1,0.7,0.7,0.7,1,0.7,0.7,0.7,1","1,0.7,0.7,0.7,1,0.7,0.7,0.7,1","","",""
"","html-keyboard-response","255","97686","0.0-255.0","3IXEICO793578B0HY689I417CI26TB","AZCGF2D7QIO10","3YO4AH2FPD6XG0OGOBTVFFK58DY0QT","","null","<img src=""img/land2.png"" style=""width:200px; border:14px solid green;"">","null","","","","","","","","","",""
"","image-keyboard-response","256","97713","0.0-256.0","3IXEICO793578B0HY689I417CI26TB","AZCGF2D7QIO10","3YO4AH2FPD6XG0OGOBTVFFK58DY0QT","","25.899999998509884","img/land3.png","75","27","2","0","3","2","1,0.7,0.7,0.7,1,0.7,0.7,0.7,1","1,0.7,0.7,0.7,1,0.7,0.7,0.7,1","","",""
"","html-keyboard-response","257","98015","0.0-257.0","3IXEICO793578B0HY689I417CI26TB","AZCGF2D7QIO10","3YO4AH2FPD6XG0OGOBTVFFK58DY0QT","","null","<img src=""img/land3.png"" style=""width:200px;border:14px solid red;"">","null","","","","","","","","","",""
"","image-keyboard-response","258","98897","0.0-258.0","3IXEICO793578B0HY689I417CI26TB","AZCGF2D7QIO10","3YO4AH2FPD6XG0OGOBTVFFK58DY0QT","","880.3000000007451","img/land2.png","75","881.7000000011176","2","1","2","2","1,0.7,0.7,0.7,1,0.7,0.7,0.7,1","1,0.7,0.7,0.7,1,0.7,0.7,0.7,1","","",""
"","html-keyboard-response","259","99199","0.0-259.0","3IXEICO793578B0HY689I417CI26TB","AZCGF2D7QIO10","3YO4AH2FPD6XG0OGOBTVFFK58DY0QT","","null","<img src=""img/land2.png"" style=""width:200px; border:14px solid green;"">","null","","","","","","","","","",""
"","image-keyboard-response","260","99629","0.0-260.0","3IXEICO793578B0HY689I417CI26TB","AZCGF2D7QIO10","3YO4AH2FPD6XG0OGOBTVFFK58DY0QT","","429.2000000011176","img/land1.png","74","430.2000000011176","1","1","1","2","1,0.7,0.7,0.7,1,0.7,0.7,0.7,1","1,0.7,0.7,0.7,1,0.7,0.7,0.7,1","","",""
"","html-keyboard-response","261","99931","0.0-261.0","3IXEICO793578B0HY689I417CI26TB","AZCGF2D7QIO10","3YO4AH2FPD6XG0OGOBTVFFK58DY0QT","","null","<img src=""img/land1.png"" style=""width:200px; border:14px solid green;"">","null","","","","","","","","","",""
"","image-keyboard-response","262","100352","0.0-262.0","3IXEICO793578B0HY689I417CI26TB","AZCGF2D7QIO10","3YO4AH2FPD6XG0OGOBTVFFK58DY0QT","","418.90000000037253","img/land2.png","75","420.19999999925494","2","1","2","2","1,0.7,0.7,0.7,1,0.7,0.7,0.7,1","1,0.7,0.7,0.7,1,0.7,0.7,0.7,1","","",""
"","html-keyboard-response","263","100654","0.0-263.0","3IXEICO793578B0HY689I417CI26TB","AZCGF2D7QIO10","3YO4AH2FPD6XG0OGOBTVFFK58DY0QT","","null","<img src=""img/land2.png"" style=""width:200px; border:14px solid green;"">","null","","","","","","","","","",""
"","image-keyboard-response","264","101012","0.0-264.0","3IXEICO793578B0HY689I417CI26TB","AZCGF2D7QIO10","3YO4AH2FPD6XG0OGOBTVFFK58DY0QT","","355.90000000037253","img/land2.png","75","357.30000000074506","2","1","2","2","1,0.7,0.7,0.7,1,0.7,0.7,0.7,1","1,0.7,0.7,0.7,1,0.7,0.7,0.7,1","","",""
"","html-keyboard-response","265","101315","0.0-265.0","3IXEICO793578B0HY689I417CI26TB","AZCGF2D7QIO10","3YO4AH2FPD6XG0OGOBTVFFK58DY0QT","","null","<img src=""img/land2.png"" style=""width:200px; border:14px solid green;"">","null","","","","","","","","","",""
"","image-keyboard-response","266","101670","0.0-266.0","3IXEICO793578B0HY689I417CI26TB","AZCGF2D7QIO10","3YO4AH2FPD6XG0OGOBTVFFK58DY0QT","","354.40000000037253","img/land1.png","75","355.3999999985099","2","0","1","2","1,0.7,0.7,0.7,1,0.7,0.7,0.7,1","1,0.7,0.7,0.7,1,0.7,0.7,0.7,1","","",""
"","html-keyboard-response","267","101982","0.0-267.0","3IXEICO793578B0HY689I417CI26TB","AZCGF2D7QIO10","3YO4AH2FPD6XG0OGOBTVFFK58DY0QT","","null","<img src=""img/land1.png"" style=""width:200px;border:14px solid red;"">","null","","","","","","","","","",""
"","image-keyboard-response","268","102759","0.0-268.0","3IXEICO793578B0HY689I417CI26TB","AZCGF2D7QIO10","3YO4AH2FPD6XG0OGOBTVFFK58DY0QT","","774.4000000003725","img/land2.png","75","776.2000000011176","2","1","2","2","1,0.7,0.7,0.7,1,0.7,0.7,0.7,1","1,0.7,0.7,0.7,1,0.7,0.7,0.7,1","","",""
"","html-keyboard-response","269","103060","0.0-269.0","3IXEICO793578B0HY689I417CI26TB","AZCGF2D7QIO10","3YO4AH2FPD6XG0OGOBTVFFK58DY0QT","","null","<img src=""img/land2.png"" style=""width:200px; border:14px solid green;"">","null","","","","","","","","","",""
"","image-keyboard-response","270","103635","0.0-270.0","3IXEICO793578B0HY689I417CI26TB","AZCGF2D7QIO10","3YO4AH2FPD6XG0OGOBTVFFK58DY0QT","","573.1999999992549","img/land3.png","76","574.5","3","1","3","2","1,0.7,0.7,0.7,1,0.7,0.7,0.7,1","1,0.7,0.7,0.7,1,0.7,0.7,0.7,1","","",""
"","html-keyboard-response","271","103937","0.0-271.0","3IXEICO793578B0HY689I417CI26TB","AZCGF2D7QIO10","3YO4AH2FPD6XG0OGOBTVFFK58DY0QT","","null","<img src=""img/land3.png"" style=""width:200px; border:14px solid green;"">","null","","","","","","","","","",""
"","image-keyboard-response","272","104574","0.0-272.0","3IXEICO793578B0HY689I417CI26TB","AZCGF2D7QIO10","3YO4AH2FPD6XG0OGOBTVFFK58DY0QT","","635","img/land1.png","74","636.8000000007451","1","1","1","2","1,0.7,0.7,0.7,1,0.7,0.7,0.7,1","1,0.7,0.7,0.7,1,0.7,0.7,0.7,1","","",""
"","html-keyboard-response","273","104876","0.0-273.0","3IXEICO793578B0HY689I417CI26TB","AZCGF2D7QIO10","3YO4AH2FPD6XG0OGOBTVFFK58DY0QT","","null","<img src=""img/land1.png"" style=""width:200px; border:14px solid green;"">","null","","","","","","","","","",""
"","image-keyboard-response","274","105323","0.0-274.0","3IXEICO793578B0HY689I417CI26TB","AZCGF2D7QIO10","3YO4AH2FPD6XG0OGOBTVFFK58DY0QT","","445.1000000014901","img/land3.png","75","446.59999999962747","2","1","3","2","1,0.7,0.7,0.7,1,0.7,0.7,0.7,1","1,0.7,0.7,0.7,1,0.7,0.7,0.7,1","","",""
"","html-keyboard-response","275","105626","0.0-275.0","3IXEICO793578B0HY689I417CI26TB","AZCGF2D7QIO10","3YO4AH2FPD6XG0OGOBTVFFK58DY0QT","","null","<img src=""img/land3.png"" style=""width:200px; border:14px solid green;"">","null","","","","","","","","","",""
"","image-keyboard-response","276","106338","0.0-276.0","3IXEICO793578B0HY689I417CI26TB","AZCGF2D7QIO10","3YO4AH2FPD6XG0OGOBTVFFK58DY0QT","","710.0999999996275","img/land2.png","75","711.4000000003725","2","1","2","2","1,0.7,0.7,0.7,1,0.7,0.7,0.7,1","1,0.7,0.7,0.7,1,0.7,0.7,0.7,1","","",""
"","html-keyboard-response","277","106640","0.0-277.0","3IXEICO793578B0HY689I417CI26TB","AZCGF2D7QIO10","3YO4AH2FPD6XG0OGOBTVFFK58DY0QT","","null","<img src=""img/land2.png"" style=""width:200px; border:14px solid green;"">","null","","","","","","","","","",""
"","image-keyboard-response","278","106923","0.0-278.0","3IXEICO793578B0HY689I417CI26TB","AZCGF2D7QIO10","3YO4AH2FPD6XG0OGOBTVFFK58DY0QT","","281.69999999925494","img/land2.png","75","282.80000000074506","2","1","2","2","1,0.7,0.7,0.7,1,0.7,0.7,0.7,1","1,0.7,0.7,0.7,1,0.7,0.7,0.7,1","","",""
"","html-keyboard-response","279","107225","0.0-279.0","3IXEICO793578B0HY689I417CI26TB","AZCGF2D7QIO10","3YO4AH2FPD6XG0OGOBTVFFK58DY0QT","","null","<img src=""img/land2.png"" style=""width:200px; border:14px solid green;"">","null","","","","","","","","","",""
"","image-keyboard-response","280","107286","0.0-280.0","3IXEICO793578B0HY689I417CI26TB","AZCGF2D7QIO10","3YO4AH2FPD6XG0OGOBTVFFK58DY0QT","","59.29999999888241","img/land1.png","75","60.69999999925494","2","0","1","2","1,0.7,0.7,0.7,1,0.7,0.7,0.7,1","1,0.7,0.7,0.7,1,0.7,0.7,0.7,1","","",""
"","html-keyboard-response","281","107589","0.0-281.0","3IXEICO793578B0HY689I417CI26TB","AZCGF2D7QIO10","3YO4AH2FPD6XG0OGOBTVFFK58DY0QT","","null","<img src=""img/land1.png"" style=""width:200px;border:14px solid red;"">","null","","","","","","","","","",""
"","image-keyboard-response","282","107967","0.0-282.0","3IXEICO793578B0HY689I417CI26TB","AZCGF2D7QIO10","3YO4AH2FPD6XG0OGOBTVFFK58DY0QT","","376.5","img/land1.png","74","377.5","1","1","1","2","1,0.7,0.7,0.7,1,0.7,0.7,0.7,1","1,0.7,0.7,0.7,1,0.7,0.7,0.7,1","","",""
"","html-keyboard-response","283","108268","0.0-283.0","3IXEICO793578B0HY689I417CI26TB","AZCGF2D7QIO10","3YO4AH2FPD6XG0OGOBTVFFK58DY0QT","","null","<img src=""img/land1.png"" style=""width:200px; border:14px solid green;"">","null","","","","","","","","","",""
"","image-keyboard-response","284","108846","0.0-284.0","3IXEICO793578B0HY689I417CI26TB","AZCGF2D7QIO10","3YO4AH2FPD6XG0OGOBTVFFK58DY0QT","","576.7999999988824","img/land2.png","75","577.7999999988824","2","1","2","2","1,0.7,0.7,0.7,1,0.7,0.7,0.7,1","1,0.7,0.7,0.7,1,0.7,0.7,0.7,1","","",""
"","html-keyboard-response","285","109148","0.0-285.0","3IXEICO793578B0HY689I417CI26TB","AZCGF2D7QIO10","3YO4AH2FPD6XG0OGOBTVFFK58DY0QT","","null","<img src=""img/land2.png"" style=""width:200px; border:14px solid green;"">","null","","","","","","","","","",""
"","image-keyboard-response","286","109265","0.0-286.0","3IXEICO793578B0HY689I417CI26TB","AZCGF2D7QIO10","3YO4AH2FPD6XG0OGOBTVFFK58DY0QT","","115","img/land1.png","75","116.20000000111759","2","0","1","2","1,0.7,0.7,0.7,1,0.7,0.7,0.7,1","1,0.7,0.7,0.7,1,0.7,0.7,0.7,1","","",""
"","html-keyboard-response","287","109568","0.0-287.0","3IXEICO793578B0HY689I417CI26TB","AZCGF2D7QIO10","3YO4AH2FPD6XG0OGOBTVFFK58DY0QT","","null","<img src=""img/land1.png"" style=""width:200px;border:14px solid red;"">","null","","","","","","","","","",""
"","image-keyboard-response","288","110092","0.0-288.0","3IXEICO793578B0HY689I417CI26TB","AZCGF2D7QIO10","3YO4AH2FPD6XG0OGOBTVFFK58DY0QT","","522","img/land3.png","76","523.4000000003725","3","1","3","2","1,0.7,0.7,0.7,1,0.7,0.7,0.7,1","1,0.7,0.7,0.7,1,0.7,0.7,0.7,1","","",""
"","html-keyboard-response","289","110394","0.0-289.0","3IXEICO793578B0HY689I417CI26TB","AZCGF2D7QIO10","3YO4AH2FPD6XG0OGOBTVFFK58DY0QT","","null","<img src=""img/land3.png"" style=""width:200px; border:14px solid green;"">","null","","","","","","","","","",""
"","image-keyboard-response","290","110625","0.0-290.0","3IXEICO793578B0HY689I417CI26TB","AZCGF2D7QIO10","3YO4AH2FPD6XG0OGOBTVFFK58DY0QT","","229","img/land3.png","76","230.59999999962747","3","1","3","2","1,0.7,0.7,0.7,1,0.7,0.7,0.7,1","1,0.7,0.7,0.7,1,0.7,0.7,0.7,1","","",""
"","html-keyboard-response","291","110928","0.0-291.0","3IXEICO793578B0HY689I417CI26TB","AZCGF2D7QIO10","3YO4AH2FPD6XG0OGOBTVFFK58DY0QT","","null","<img src=""img/land3.png"" style=""width:200px; border:14px solid green;"">","null","","","","","","","","","",""
"","image-keyboard-response","292","111616","0.0-292.0","3IXEICO793578B0HY689I417CI26TB","AZCGF2D7QIO10","3YO4AH2FPD6XG0OGOBTVFFK58DY0QT","","686.6999999992549","img/land2.png","75","687.9000000003725","2","1","2","2","1,0.7,0.7,0.7,1,0.7,0.7,0.7,1","1,0.7,0.7,0.7,1,0.7,0.7,0.7,1","","",""
"","html-keyboard-response","293","111918","0.0-293.0","3IXEICO793578B0HY689I417CI26TB","AZCGF2D7QIO10","3YO4AH2FPD6XG0OGOBTVFFK58DY0QT","","null","<img src=""img/land2.png"" style=""width:200px; border:14px solid green;"">","null","","","","","","","","","",""
"","image-keyboard-response","294","112056","0.0-294.0","3IXEICO793578B0HY689I417CI26TB","AZCGF2D7QIO10","3YO4AH2FPD6XG0OGOBTVFFK58DY0QT","","137.09999999962747","img/land2.png","75","138.19999999925494","2","1","2","2","1,0.7,0.7,0.7,1,0.7,0.7,0.7,1","1,0.7,0.7,0.7,1,0.7,0.7,0.7,1","","",""
"","html-keyboard-response","295","112358","0.0-295.0","3IXEICO793578B0HY689I417CI26TB","AZCGF2D7QIO10","3YO4AH2FPD6XG0OGOBTVFFK58DY0QT","","null","<img src=""img/land2.png"" style=""width:200px; border:14px solid green;"">","null","","","","","","","","","",""
"","image-keyboard-response","296","112891","0.0-296.0","3IXEICO793578B0HY689I417CI26TB","AZCGF2D7QIO10","3YO4AH2FPD6XG0OGOBTVFFK58DY0QT","","530.0999999996275","img/land3.png","74","532.1999999992549","1","1","3","2","1,0.7,0.7,0.7,1,0.7,0.7,0.7,1","1,0.7,0.7,0.7,1,0.7,0.7,0.7,1","","",""
"","html-keyboard-response","297","113193","0.0-297.0","3IXEICO793578B0HY689I417CI26TB","AZCGF2D7QIO10","3YO4AH2FPD6XG0OGOBTVFFK58DY0QT","","null","<img src=""img/land3.png"" style=""width:200px; border:14px solid green;"">","null","","","","","","","","","",""
"","image-keyboard-response","298","114697","0.0-298.0","3IXEICO793578B0HY689I417CI26TB","AZCGF2D7QIO10","3YO4AH2FPD6XG0OGOBTVFFK58DY0QT","","","img/land2.png","","1502.800000000745","-1","0","2","2","1,0.7,0.7,0.7,1,0.7,0.7,0.7,1","1,0.7,0.7,0.7,1,0.7,0.7,0.7,1","","",""
"","html-keyboard-response","299","114999","0.0-299.0","3IXEICO793578B0HY689I417CI26TB","AZCGF2D7QIO10","3YO4AH2FPD6XG0OGOBTVFFK58DY0QT","","null","<img src=""img/land2.png"" style=""width:200px;border:14px solid red;"">","null","","","","","","","","","",""
"","image-keyboard-response","300","115282","0.0-300.0","3IXEICO793578B0HY689I417CI26TB","AZCGF2D7QIO10","3YO4AH2FPD6XG0OGOBTVFFK58DY0QT","","282.2999999988824","img/land2.png","75","283.09999999962747","2","1","2","2","1,0.7,0.7,0.7,1,0.7,0.7,0.7,1","1,0.7,0.7,0.7,1,0.7,0.7,0.7,1","","",""
"","html-keyboard-response","301","115584","0.0-301.0","3IXEICO793578B0HY689I417CI26TB","AZCGF2D7QIO10","3YO4AH2FPD6XG0OGOBTVFFK58DY0QT","","null","<img src=""img/land2.png"" style=""width:200px; border:14px solid green;"">","null","","","","","","","","","",""
"","html-keyboard-response","302","117470","0.0-302.0","3IXEICO793578B0HY689I417CI26TB","AZCGF2D7QIO10","3YO4AH2FPD6XG0OGOBTVFFK58DY0QT","","","","","","","","","","","","","",""
"","image-keyboard-response","303","118973","0.0-303.0","3IXEICO793578B0HY689I417CI26TB","AZCGF2D7QIO10","3YO4AH2FPD6XG0OGOBTVFFK58DY0QT","","","img/land5.png","","1503","-1","0","2","2","1,0.7,0.7,0.7,1,0.7,0.7,0.7,1","1,0.7,0.7,0.7,1,0.7,0.7,0.7,1","","",""
"","html-keyboard-response","304","119288","0.0-304.0","3IXEICO793578B0HY689I417CI26TB","AZCGF2D7QIO10","3YO4AH2FPD6XG0OGOBTVFFK58DY0QT","","null","<img src=""img/land5.png"" style=""width:200px;border:14px solid red;"">","null","","","","","","","","","",""
"","image-keyboard-response","305","119931","0.0-305.0","3IXEICO793578B0HY689I417CI26TB","AZCGF2D7QIO10","3YO4AH2FPD6XG0OGOBTVFFK58DY0QT","","640","img/land4.png","76","643","3","1","1","2","1,0.7,0.7,0.7,1,0.7,0.7,0.7,1","1,0.7,0.7,0.7,1,0.7,0.7,0.7,1","","",""
"","html-keyboard-response","306","120235","0.0-306.0","3IXEICO793578B0HY689I417CI26TB","AZCGF2D7QIO10","3YO4AH2FPD6XG0OGOBTVFFK58DY0QT","","null","<img src=""img/land4.png"" style=""width:200px; border:14px solid green;"">","null","","","","","","","","","",""
"","image-keyboard-response","307","120569","0.0-307.0","3IXEICO793578B0HY689I417CI26TB","AZCGF2D7QIO10","3YO4AH2FPD6XG0OGOBTVFFK58DY0QT","","331.59999999962747","img/land4.png","76","333.30000000074506","3","1","1","2","1,0.7,0.7,0.7,1,0.7,0.7,0.7,1","1,0.7,0.7,0.7,1,0.7,0.7,0.7,1","","",""
"","html-keyboard-response","308","120871","0.0-308.0","3IXEICO793578B0HY689I417CI26TB","AZCGF2D7QIO10","3YO4AH2FPD6XG0OGOBTVFFK58DY0QT","","null","<img src=""img/land4.png"" style=""width:200px; border:14px solid green;"">","null","","","","","","","","","",""
"","image-keyboard-response","309","121589","0.0-309.0","3IXEICO793578B0HY689I417CI26TB","AZCGF2D7QIO10","3YO4AH2FPD6XG0OGOBTVFFK58DY0QT","","715.5","img/land6.png","74","717.0999999996275","1","1","3","2","1,0.7,0.7,0.7,1,0.7,0.7,0.7,1","1,0.7,0.7,0.7,1,0.7,0.7,0.7,1","","",""
"","html-keyboard-response","310","121892","0.0-310.0","3IXEICO793578B0HY689I417CI26TB","AZCGF2D7QIO10","3YO4AH2FPD6XG0OGOBTVFFK58DY0QT","","null","<img src=""img/land6.png"" style=""width:200px; border:14px solid green;"">","null","","","","","","","","","",""
"","image-keyboard-response","311","122209","0.0-311.0","3IXEICO793578B0HY689I417CI26TB","AZCGF2D7QIO10","3YO4AH2FPD6XG0OGOBTVFFK58DY0QT","","314.59999999962747","img/land6.png","74","316.69999999925494","1","1","3","2","1,0.7,0.7,0.7,1,0.7,0.7,0.7,1","1,0.7,0.7,0.7,1,0.7,0.7,0.7,1","","",""
"","html-keyboard-response","312","122511","0.0-312.0","3IXEICO793578B0HY689I417CI26TB","AZCGF2D7QIO10","3YO4AH2FPD6XG0OGOBTVFFK58DY0QT","","null","<img src=""img/land6.png"" style=""width:200px; border:14px solid green;"">","null","","","","","","","","","",""
"","image-keyboard-response","313","122718","0.0-313.0","3IXEICO793578B0HY689I417CI26TB","AZCGF2D7QIO10","3YO4AH2FPD6XG0OGOBTVFFK58DY0QT","","205.2000000011176","img/land5.png","74","206.5","1","1","2","2","1,0.7,0.7,0.7,1,0.7,0.7,0.7,1","1,0.7,0.7,0.7,1,0.7,0.7,0.7,1","","",""
"","html-keyboard-response","314","123020","0.0-314.0","3IXEICO793578B0HY689I417CI26TB","AZCGF2D7QIO10","3YO4AH2FPD6XG0OGOBTVFFK58DY0QT","","null","<img src=""img/land5.png"" style=""width:200px; border:14px solid green;"">","null","","","","","","","","","",""
"","image-keyboard-response","315","123830","0.0-315.0","3IXEICO793578B0HY689I417CI26TB","AZCGF2D7QIO10","3YO4AH2FPD6XG0OGOBTVFFK58DY0QT","","808.0999999996275","img/land5.png","75","809.9000000003725","2","1","2","2","1,0.7,0.7,0.7,1,0.7,0.7,0.7,1","1,0.7,0.7,0.7,1,0.7,0.7,0.7,1","","",""
"","html-keyboard-response","316","124132","0.0-316.0","3IXEICO793578B0HY689I417CI26TB","AZCGF2D7QIO10","3YO4AH2FPD6XG0OGOBTVFFK58DY0QT","","null","<img src=""img/land5.png"" style=""width:200px; border:14px solid green;"">","null","","","","","","","","","",""
"","image-keyboard-response","317","124533","0.0-317.0","3IXEICO793578B0HY689I417CI26TB","AZCGF2D7QIO10","3YO4AH2FPD6XG0OGOBTVFFK58DY0QT","","398.7000000011176","img/land6.png","76","400.5","3","1","3","2","1,0.7,0.7,0.7,1,0.7,0.7,0.7,1","1,0.7,0.7,0.7,1,0.7,0.7,0.7,1","","",""
"","html-keyboard-response","318","124836","0.0-318.0","3IXEICO793578B0HY689I417CI26TB","AZCGF2D7QIO10","3YO4AH2FPD6XG0OGOBTVFFK58DY0QT","","null","<img src=""img/land6.png"" style=""width:200px; border:14px solid green;"">","null","","","","","","","","","",""
"","image-keyboard-response","319","125031","0.0-319.0","3IXEICO793578B0HY689I417CI26TB","AZCGF2D7QIO10","3YO4AH2FPD6XG0OGOBTVFFK58DY0QT","","193.69999999925494","img/land5.png","76","194.7999999988824","3","1","2","2","1,0.7,0.7,0.7,1,0.7,0.7,0.7,1","1,0.7,0.7,0.7,1,0.7,0.7,0.7,1","","",""
"","html-keyboard-response","320","125348","0.0-320.0","3IXEICO793578B0HY689I417CI26TB","AZCGF2D7QIO10","3YO4AH2FPD6XG0OGOBTVFFK58DY0QT","","null","<img src=""img/land5.png"" style=""width:200px; border:14px solid green;"">","null","","","","","","","","","",""
"","image-keyboard-response","321","126024","0.0-321.0","3IXEICO793578B0HY689I417CI26TB","AZCGF2D7QIO10","3YO4AH2FPD6XG0OGOBTVFFK58DY0QT","","673.5","img/land4.png","75","674.7999999988824","2","1","1","2","1,0.7,0.7,0.7,1,0.7,0.7,0.7,1","1,0.7,0.7,0.7,1,0.7,0.7,0.7,1","","",""
"","html-keyboard-response","322","126327","0.0-322.0","3IXEICO793578B0HY689I417CI26TB","AZCGF2D7QIO10","3YO4AH2FPD6XG0OGOBTVFFK58DY0QT","","null","<img src=""img/land4.png"" style=""width:200px; border:14px solid green;"">","null","","","","","","","","","",""
"","image-keyboard-response","323","126707","0.0-323.0","3IXEICO793578B0HY689I417CI26TB","AZCGF2D7QIO10","3YO4AH2FPD6XG0OGOBTVFFK58DY0QT","","378.59999999962747","img/land4.png","75","379.90000000037253","2","1","1","2","1,0.7,0.7,0.7,1,0.7,0.7,0.7,1","1,0.7,0.7,0.7,1,0.7,0.7,0.7,1","","",""
"","html-keyboard-response","324","127009","0.0-324.0","3IXEICO793578B0HY689I417CI26TB","AZCGF2D7QIO10","3YO4AH2FPD6XG0OGOBTVFFK58DY0QT","","null","<img src=""img/land4.png"" style=""width:200px; border:14px solid green;"">","null","","","","","","","","","",""
"","image-keyboard-response","325","127537","0.0-325.0","3IXEICO793578B0HY689I417CI26TB","AZCGF2D7QIO10","3YO4AH2FPD6XG0OGOBTVFFK58DY0QT","","526.7000000011176","img/land4.png","76","528","3","1","1","2","1,0.7,0.7,0.7,1,0.7,0.7,0.7,1","1,0.7,0.7,0.7,1,0.7,0.7,0.7,1","","",""
"","html-keyboard-response","326","127839","0.0-326.0","3IXEICO793578B0HY689I417CI26TB","AZCGF2D7QIO10","3YO4AH2FPD6XG0OGOBTVFFK58DY0QT","","null","<img src=""img/land4.png"" style=""width:200px; border:14px solid green;"">","null","","","","","","","","","",""
"","image-keyboard-response","327","128352","0.0-327.0","3IXEICO793578B0HY689I417CI26TB","AZCGF2D7QIO10","3YO4AH2FPD6XG0OGOBTVFFK58DY0QT","","511.80000000074506","img/land5.png","74","513","1","1","2","2","1,0.7,0.7,0.7,1,0.7,0.7,0.7,1","1,0.7,0.7,0.7,1,0.7,0.7,0.7,1","","",""
"","html-keyboard-response","328","128655","0.0-328.0","3IXEICO793578B0HY689I417CI26TB","AZCGF2D7QIO10","3YO4AH2FPD6XG0OGOBTVFFK58DY0QT","","null","<img src=""img/land5.png"" style=""width:200px; border:14px solid green;"">","null","","","","","","","","","",""
"","image-keyboard-response","329","129050","0.0-329.0","3IXEICO793578B0HY689I417CI26TB","AZCGF2D7QIO10","3YO4AH2FPD6XG0OGOBTVFFK58DY0QT","","393.2000000011176","img/land5.png","74","394.80000000074506","1","0","2","2","1,0.7,0.7,0.7,1,0.7,0.7,0.7,1","1,0.7,0.7,0.7,1,0.7,0.7,0.7,1","","",""
"","html-keyboard-response","330","129351","0.0-330.0","3IXEICO793578B0HY689I417CI26TB","AZCGF2D7QIO10","3YO4AH2FPD6XG0OGOBTVFFK58DY0QT","","null","<img src=""img/land5.png"" style=""width:200px;border:14px solid red;"">","null","","","","","","","","","",""
"","image-keyboard-response","331","129995","0.0-331.0","3IXEICO793578B0HY689I417CI26TB","AZCGF2D7QIO10","3YO4AH2FPD6XG0OGOBTVFFK58DY0QT","","641.9000000003725","img/land5.png","75","643.2999999988824","2","1","2","2","1,0.7,0.7,0.7,1,0.7,0.7,0.7,1","1,0.7,0.7,0.7,1,0.7,0.7,0.7,1","","",""
"","html-keyboard-response","332","130297","0.0-332.0","3IXEICO793578B0HY689I417CI26TB","AZCGF2D7QIO10","3YO4AH2FPD6XG0OGOBTVFFK58DY0QT","","null","<img src=""img/land5.png"" style=""width:200px; border:14px solid green;"">","null","","","","","","","","","",""
"","image-keyboard-response","333","130965","0.0-333.0","3IXEICO793578B0HY689I417CI26TB","AZCGF2D7QIO10","3YO4AH2FPD6XG0OGOBTVFFK58DY0QT","","666.8999999985099","img/land4.png","75","668","2","1","1","2","1,0.7,0.7,0.7,1,0.7,0.7,0.7,1","1,0.7,0.7,0.7,1,0.7,0.7,0.7,1","","",""
"","html-keyboard-response","334","131268","0.0-334.0","3IXEICO793578B0HY689I417CI26TB","AZCGF2D7QIO10","3YO4AH2FPD6XG0OGOBTVFFK58DY0QT","","null","<img src=""img/land4.png"" style=""width:200px; border:14px solid green;"">","null","","","","","","","","","",""
"","image-keyboard-response","335","131971","0.0-335.0","3IXEICO793578B0HY689I417CI26TB","AZCGF2D7QIO10","3YO4AH2FPD6XG0OGOBTVFFK58DY0QT","","701.5","img/land6.png","75","702.7999999988824","2","0","3","2","1,0.7,0.7,0.7,1,0.7,0.7,0.7,1","1,0.7,0.7,0.7,1,0.7,0.7,0.7,1","","",""
"","html-keyboard-response","336","132275","0.0-336.0","3IXEICO793578B0HY689I417CI26TB","AZCGF2D7QIO10","3YO4AH2FPD6XG0OGOBTVFFK58DY0QT","","null","<img src=""img/land6.png"" style=""width:200px;border:14px solid red;"">","null","","","","","","","","","",""
"","image-keyboard-response","337","132991","0.0-337.0","3IXEICO793578B0HY689I417CI26TB","AZCGF2D7QIO10","3YO4AH2FPD6XG0OGOBTVFFK58DY0QT","","714.2000000011176","img/land4.png","76","716.1999999992549","3","1","1","2","1,0.7,0.7,0.7,1,0.7,0.7,0.7,1","1,0.7,0.7,0.7,1,0.7,0.7,0.7,1","","",""
"","html-keyboard-response","338","133293","0.0-338.0","3IXEICO793578B0HY689I417CI26TB","AZCGF2D7QIO10","3YO4AH2FPD6XG0OGOBTVFFK58DY0QT","","null","<img src=""img/land4.png"" style=""width:200px; border:14px solid green;"">","null","","","","","","","","","",""
"","image-keyboard-response","339","133593","0.0-339.0","3IXEICO793578B0HY689I417CI26TB","AZCGF2D7QIO10","3YO4AH2FPD6XG0OGOBTVFFK58DY0QT","","297.40000000037253","img/land4.png","76","299.69999999925494","3","0","1","2","1,0.7,0.7,0.7,1,0.7,0.7,0.7,1","1,0.7,0.7,0.7,1,0.7,0.7,0.7,1","","",""
"","html-keyboard-response","340","133897","0.0-340.0","3IXEICO793578B0HY689I417CI26TB","AZCGF2D7QIO10","3YO4AH2FPD6XG0OGOBTVFFK58DY0QT","","null","<img src=""img/land4.png"" style=""width:200px;border:14px solid red;"">","null","","","","","","","","","",""
"","image-keyboard-response","341","134420","0.0-341.0","3IXEICO793578B0HY689I417CI26TB","AZCGF2D7QIO10","3YO4AH2FPD6XG0OGOBTVFFK58DY0QT","","522.1000000014901","img/land5.png","75","523.5","2","1","2","2","1,0.7,0.7,0.7,1,0.7,0.7,0.7,1","1,0.7,0.7,0.7,1,0.7,0.7,0.7,1","","",""
"","html-keyboard-response","342","134723","0.0-342.0","3IXEICO793578B0HY689I417CI26TB","AZCGF2D7QIO10","3YO4AH2FPD6XG0OGOBTVFFK58DY0QT","","null","<img src=""img/land5.png"" style=""width:200px; border:14px solid green;"">","null","","","","","","","","","",""
"","image-keyboard-response","343","135563","0.0-343.0","3IXEICO793578B0HY689I417CI26TB","AZCGF2D7QIO10","3YO4AH2FPD6XG0OGOBTVFFK58DY0QT","","837.5","img/land6.png","74","839.3000000007451","1","1","3","2","1,0.7,0.7,0.7,1,0.7,0.7,0.7,1","1,0.7,0.7,0.7,1,0.7,0.7,0.7,1","","",""
"","html-keyboard-response","344","135865","0.0-344.0","3IXEICO793578B0HY689I417CI26TB","AZCGF2D7QIO10","3YO4AH2FPD6XG0OGOBTVFFK58DY0QT","","null","<img src=""img/land6.png"" style=""width:200px; border:14px solid green;"">","null","","","","","","","","","",""
"","image-keyboard-response","345","136601","0.0-345.0","3IXEICO793578B0HY689I417CI26TB","AZCGF2D7QIO10","3YO4AH2FPD6XG0OGOBTVFFK58DY0QT","","734.1000000014901","img/land4.png","76","735.5","3","1","1","2","1,0.7,0.7,0.7,1,0.7,0.7,0.7,1","1,0.7,0.7,0.7,1,0.7,0.7,0.7,1","","",""
"","html-keyboard-response","346","136912","0.0-346.0","3IXEICO793578B0HY689I417CI26TB","AZCGF2D7QIO10","3YO4AH2FPD6XG0OGOBTVFFK58DY0QT","","null","<img src=""img/land4.png"" style=""width:200px; border:14px solid green;"">","null","","","","","","","","","",""
"","image-keyboard-response","347","137649","0.0-347.0","3IXEICO793578B0HY689I417CI26TB","AZCGF2D7QIO10","3YO4AH2FPD6XG0OGOBTVFFK58DY0QT","","735.2999999988824","img/land5.png","75","736.6999999992549","2","1","2","2","1,0.7,0.7,0.7,1,0.7,0.7,0.7,1","1,0.7,0.7,0.7,1,0.7,0.7,0.7,1","","",""
"","html-keyboard-response","348","137950","0.0-348.0","3IXEICO793578B0HY689I417CI26TB","AZCGF2D7QIO10","3YO4AH2FPD6XG0OGOBTVFFK58DY0QT","","null","<img src=""img/land5.png"" style=""width:200px; border:14px solid green;"">","null","","","","","","","","","",""
"","image-keyboard-response","349","138527","0.0-349.0","3IXEICO793578B0HY689I417CI26TB","AZCGF2D7QIO10","3YO4AH2FPD6XG0OGOBTVFFK58DY0QT","","575.2000000011176","img/land4.png","74","576.5","1","1","1","2","1,0.7,0.7,0.7,1,0.7,0.7,0.7,1","1,0.7,0.7,0.7,1,0.7,0.7,0.7,1","","",""
"","html-keyboard-response","350","138830","0.0-350.0","3IXEICO793578B0HY689I417CI26TB","AZCGF2D7QIO10","3YO4AH2FPD6XG0OGOBTVFFK58DY0QT","","null","<img src=""img/land4.png"" style=""width:200px; border:14px solid green;"">","null","","","","","","","","","",""
"","image-keyboard-response","351","139396","0.0-351.0","3IXEICO793578B0HY689I417CI26TB","AZCGF2D7QIO10","3YO4AH2FPD6XG0OGOBTVFFK58DY0QT","","564.0999999996275","img/land6.png","75","565.7000000011176","2","1","3","2","1,0.7,0.7,0.7,1,0.7,0.7,0.7,1","1,0.7,0.7,0.7,1,0.7,0.7,0.7,1","","",""
"","html-keyboard-response","352","139698","0.0-352.0","3IXEICO793578B0HY689I417CI26TB","AZCGF2D7QIO10","3YO4AH2FPD6XG0OGOBTVFFK58DY0QT","","null","<img src=""img/land6.png"" style=""width:200px; border:14px solid green;"">","null","","","","","","","","","",""
"","image-keyboard-response","353","140066","0.0-353.0","3IXEICO793578B0HY689I417CI26TB","AZCGF2D7QIO10","3YO4AH2FPD6XG0OGOBTVFFK58DY0QT","","365.80000000074506","img/land6.png","75","367.09999999962747","2","0","3","2","1,0.7,0.7,0.7,1,0.7,0.7,0.7,1","1,0.7,0.7,0.7,1,0.7,0.7,0.7,1","","",""
"","html-keyboard-response","354","140367","0.0-354.0","3IXEICO793578B0HY689I417CI26TB","AZCGF2D7QIO10","3YO4AH2FPD6XG0OGOBTVFFK58DY0QT","","null","<img src=""img/land6.png"" style=""width:200px;border:14px solid red;"">","null","","","","","","","","","",""
"","image-keyboard-response","355","140604","0.0-355.0","3IXEICO793578B0HY689I417CI26TB","AZCGF2D7QIO10","3YO4AH2FPD6XG0OGOBTVFFK58DY0QT","","234.69999999925494","img/land5.png","76","235.7999999988824","3","1","2","2","1,0.7,0.7,0.7,1,0.7,0.7,0.7,1","1,0.7,0.7,0.7,1,0.7,0.7,0.7,1","","",""
"","html-keyboard-response","356","140906","0.0-356.0","3IXEICO793578B0HY689I417CI26TB","AZCGF2D7QIO10","3YO4AH2FPD6XG0OGOBTVFFK58DY0QT","","null","<img src=""img/land5.png"" style=""width:200px; border:14px solid green;"">","null","","","","","","","","","",""
"","image-keyboard-response","357","141488","0.0-357.0","3IXEICO793578B0HY689I417CI26TB","AZCGF2D7QIO10","3YO4AH2FPD6XG0OGOBTVFFK58DY0QT","","580.4000000003725","img/land5.png","74","581.4000000003725","1","1","2","2","1,0.7,0.7,0.7,1,0.7,0.7,0.7,1","1,0.7,0.7,0.7,1,0.7,0.7,0.7,1","","",""
"","html-keyboard-response","358","141790","0.0-358.0","3IXEICO793578B0HY689I417CI26TB","AZCGF2D7QIO10","3YO4AH2FPD6XG0OGOBTVFFK58DY0QT","","null","<img src=""img/land5.png"" style=""width:200px; border:14px solid green;"">","null","","","","","","","","","",""
"","image-keyboard-response","359","142453","0.0-359.0","3IXEICO793578B0HY689I417CI26TB","AZCGF2D7QIO10","3YO4AH2FPD6XG0OGOBTVFFK58DY0QT","","661.9000000003725","img/land6.png","75","663.4000000003725","2","1","3","2","1,0.7,0.7,0.7,1,0.7,0.7,0.7,1","1,0.7,0.7,0.7,1,0.7,0.7,0.7,1","","",""
"","html-keyboard-response","360","142756","0.0-360.0","3IXEICO793578B0HY689I417CI26TB","AZCGF2D7QIO10","3YO4AH2FPD6XG0OGOBTVFFK58DY0QT","","null","<img src=""img/land6.png"" style=""width:200px; border:14px solid green;"">","null","","","","","","","","","",""
"","image-keyboard-response","361","143537","0.0-361.0","3IXEICO793578B0HY689I417CI26TB","AZCGF2D7QIO10","3YO4AH2FPD6XG0OGOBTVFFK58DY0QT","","779.0999999996275","img/land5.png","76","780.8000000007451","3","0","2","2","1,0.7,0.7,0.7,1,0.7,0.7,0.7,1","1,0.7,0.7,0.7,1,0.7,0.7,0.7,1","","",""
"","html-keyboard-response","362","143839","0.0-362.0","3IXEICO793578B0HY689I417CI26TB","AZCGF2D7QIO10","3YO4AH2FPD6XG0OGOBTVFFK58DY0QT","","null","<img src=""img/land5.png"" style=""width:200px;border:14px solid red;"">","null","","","","","","","","","",""
"","image-keyboard-response","363","144186","0.0-363.0","3IXEICO793578B0HY689I417CI26TB","AZCGF2D7QIO10","3YO4AH2FPD6XG0OGOBTVFFK58DY0QT","","345.59999999962747","img/land6.png","74","347.09999999962747","1","1","3","2","1,0.7,0.7,0.7,1,0.7,0.7,0.7,1","1,0.7,0.7,0.7,1,0.7,0.7,0.7,1","","",""
"","html-keyboard-response","364","144490","0.0-364.0","3IXEICO793578B0HY689I417CI26TB","AZCGF2D7QIO10","3YO4AH2FPD6XG0OGOBTVFFK58DY0QT","","null","<img src=""img/land6.png"" style=""width:200px; border:14px solid green;"">","null","","","","","","","","","",""
