"success","trial_type","trial_index","time_elapsed","internal_node_id","assignmentID","mturkID","hitID","view_history","rt","stimulus","key_press","reactionTime","a","r","s","cond","reward_cond","reward_cond_actual","reward_matrix_idx","responses","question_order"
"true","fullscreen","0","3111","0.0-0.0","3UJ1CZ6IZIBAA7NO4NTEGTRLFV15SC","AZKFSYWVPF6JL","3P520RYKCHSO30HY2QJC6BDLS9Z5UE","","","","","","","","","","","","","",""
"","instructions","1","30037","0.0-1.0","3UJ1CZ6IZIBAA7NO4NTEGTRLFV15SC","AZKFSYWVPF6JL","3P520RYKCHSO30HY2QJC6BDLS9Z5UE","[{""page_index"":0,""viewing_time"":2197.600000023842},{""page_index"":1,""viewing_time"":6741.899999976158},{""page_index"":2,""viewing_time"":3434},{""page_index"":3,""viewing_time"":5154},{""page_index"":4,""viewing_time"":4073.900000035763},{""page_index"":5,""viewing_time"":3032.199999988079},{""page_index"":6,""viewing_time"":2291.899999976158}]","26925.80000001192","","","","","","","","","","","",""
"","image-keyboard-response","2","30728","0.0-2.0","3UJ1CZ6IZIBAA7NO4NTEGTRLFV15SC","AZKFSYWVPF6JL","3P520RYKCHSO30HY2QJC6BDLS9Z5UE","","690","img/land4.png","74","690.8000000119209","1","1","1","1","0.8,0.2,0.2,0.2,0.8,0.2,0.2,0.2,0.8","0.8,0.2,0.2,0.2,0.8,0.2,0.2,0.2,0.8","1","",""
"","html-keyboard-response","3","31030","0.0-3.0","3UJ1CZ6IZIBAA7NO4NTEGTRLFV15SC","AZKFSYWVPF6JL","3P520RYKCHSO30HY2QJC6BDLS9Z5UE","","null","<img src=""img/land4.png"" style=""width:200px; border:14px solid green;"">","null","","","","","","","","","",""
"","image-keyboard-response","4","31608","0.0-4.0","3UJ1CZ6IZIBAA7NO4NTEGTRLFV15SC","AZKFSYWVPF6JL","3P520RYKCHSO30HY2QJC6BDLS9Z5UE","","577.1999999880791","img/land4.png","74","577.6999999880791","1","1","1","1","0.8,0.2,0.2,0.2,0.8,0.2,0.2,0.2,0.8","0.8,0.2,0.2,0.2,0.8,0.2,0.2,0.2,0.8","1","",""
"","html-keyboard-response","5","31909","0.0-5.0","3UJ1CZ6IZIBAA7NO4NTEGTRLFV15SC","AZKFSYWVPF6JL","3P520RYKCHSO30HY2QJC6BDLS9Z5UE","","null","<img src=""img/land4.png"" style=""width:200px; border:14px solid green;"">","null","","","","","","","","","",""
"","image-keyboard-response","6","32712","0.0-6.0","3UJ1CZ6IZIBAA7NO4NTEGTRLFV15SC","AZKFSYWVPF6JL","3P520RYKCHSO30HY2QJC6BDLS9Z5UE","","802.5999999642372","img/land5.png","76","803.3000000119209","3","1","2","1","0.8,0.2,0.2,0.2,0.8,0.2,0.2,0.2,0.8","0.8,0.2,0.2,0.2,0.8,0.2,0.2,0.2,0.8","1","",""
"","html-keyboard-response","7","33013","0.0-7.0","3UJ1CZ6IZIBAA7NO4NTEGTRLFV15SC","AZKFSYWVPF6JL","3P520RYKCHSO30HY2QJC6BDLS9Z5UE","","null","<img src=""img/land5.png"" style=""width:200px; border:14px solid green;"">","null","","","","","","","","","",""
"","image-keyboard-response","8","33368","0.0-8.0","3UJ1CZ6IZIBAA7NO4NTEGTRLFV15SC","AZKFSYWVPF6JL","3P520RYKCHSO30HY2QJC6BDLS9Z5UE","","354.10000002384186","img/land5.png","76","354.5999999642372","3","1","2","1","0.8,0.2,0.2,0.2,0.8,0.2,0.2,0.2,0.8","0.8,0.2,0.2,0.2,0.8,0.2,0.2,0.2,0.8","1","",""
"","html-keyboard-response","9","33670","0.0-9.0","3UJ1CZ6IZIBAA7NO4NTEGTRLFV15SC","AZKFSYWVPF6JL","3P520RYKCHSO30HY2QJC6BDLS9Z5UE","","null","<img src=""img/land5.png"" style=""width:200px; border:14px solid green;"">","null","","","","","","","","","",""
"","image-keyboard-response","10","34560","0.0-10.0","3UJ1CZ6IZIBAA7NO4NTEGTRLFV15SC","AZKFSYWVPF6JL","3P520RYKCHSO30HY2QJC6BDLS9Z5UE","","889.9000000357628","img/land2.png","74","890.5","1","0","3","1","0.8,0.2,0.2,0.2,0.8,0.2,0.2,0.2,0.8","0.8,0.2,0.2,0.2,0.8,0.2,0.2,0.2,0.8","1","",""
"","html-keyboard-response","11","34862","0.0-11.0","3UJ1CZ6IZIBAA7NO4NTEGTRLFV15SC","AZKFSYWVPF6JL","3P520RYKCHSO30HY2QJC6BDLS9Z5UE","","null","<img src=""img/land2.png"" style=""width:200px;border:14px solid red;"">","null","","","","","","","","","",""
"","image-keyboard-response","12","36232","0.0-12.0","3UJ1CZ6IZIBAA7NO4NTEGTRLFV15SC","AZKFSYWVPF6JL","3P520RYKCHSO30HY2QJC6BDLS9Z5UE","","1369.800000011921","img/land4.png","75","1370.300000011921","2","0","1","1","0.8,0.2,0.2,0.2,0.8,0.2,0.2,0.2,0.8","0.8,0.2,0.2,0.2,0.8,0.2,0.2,0.2,0.8","1","",""
"","html-keyboard-response","13","36533","0.0-13.0","3UJ1CZ6IZIBAA7NO4NTEGTRLFV15SC","AZKFSYWVPF6JL","3P520RYKCHSO30HY2QJC6BDLS9Z5UE","","null","<img src=""img/land4.png"" style=""width:200px;border:14px solid red;"">","null","","","","","","","","","",""
"","image-keyboard-response","14","36912","0.0-14.0","3UJ1CZ6IZIBAA7NO4NTEGTRLFV15SC","AZKFSYWVPF6JL","3P520RYKCHSO30HY2QJC6BDLS9Z5UE","","378.19999998807907","img/land4.png","75","378.69999998807907","2","1","1","1","0.8,0.2,0.2,0.2,0.8,0.2,0.2,0.2,0.8","0.8,0.2,0.2,0.2,0.8,0.2,0.2,0.2,0.8","1","",""
"","html-keyboard-response","15","37213","0.0-15.0","3UJ1CZ6IZIBAA7NO4NTEGTRLFV15SC","AZKFSYWVPF6JL","3P520RYKCHSO30HY2QJC6BDLS9Z5UE","","null","<img src=""img/land4.png"" style=""width:200px; border:14px solid green;"">","null","","","","","","","","","",""
"","image-keyboard-response","16","37832","0.0-16.0","3UJ1CZ6IZIBAA7NO4NTEGTRLFV15SC","AZKFSYWVPF6JL","3P520RYKCHSO30HY2QJC6BDLS9Z5UE","","618.1000000238419","img/land4.png","75","618.5","2","0","1","1","0.8,0.2,0.2,0.2,0.8,0.2,0.2,0.2,0.8","0.8,0.2,0.2,0.2,0.8,0.2,0.2,0.2,0.8","1","",""
"","html-keyboard-response","17","38133","0.0-17.0","3UJ1CZ6IZIBAA7NO4NTEGTRLFV15SC","AZKFSYWVPF6JL","3P520RYKCHSO30HY2QJC6BDLS9Z5UE","","null","<img src=""img/land4.png"" style=""width:200px;border:14px solid red;"">","null","","","","","","","","","",""
"","image-keyboard-response","18","39136","0.0-18.0","3UJ1CZ6IZIBAA7NO4NTEGTRLFV15SC","AZKFSYWVPF6JL","3P520RYKCHSO30HY2QJC6BDLS9Z5UE","","1002.4000000357628","img/land5.png","76","1002.8999999761581","3","0","2","1","0.8,0.2,0.2,0.2,0.8,0.2,0.2,0.2,0.8","0.8,0.2,0.2,0.2,0.8,0.2,0.2,0.2,0.8","1","",""
"","html-keyboard-response","19","39438","0.0-19.0","3UJ1CZ6IZIBAA7NO4NTEGTRLFV15SC","AZKFSYWVPF6JL","3P520RYKCHSO30HY2QJC6BDLS9Z5UE","","null","<img src=""img/land5.png"" style=""width:200px;border:14px solid red;"">","null","","","","","","","","","",""
"","image-keyboard-response","20","40552","0.0-20.0","3UJ1CZ6IZIBAA7NO4NTEGTRLFV15SC","AZKFSYWVPF6JL","3P520RYKCHSO30HY2QJC6BDLS9Z5UE","","1113.9000000357628","img/land2.png","74","1114.5","1","0","3","1","0.8,0.2,0.2,0.2,0.8,0.2,0.2,0.2,0.8","0.8,0.2,0.2,0.2,0.8,0.2,0.2,0.2,0.8","1","",""
"","html-keyboard-response","21","40854","0.0-21.0","3UJ1CZ6IZIBAA7NO4NTEGTRLFV15SC","AZKFSYWVPF6JL","3P520RYKCHSO30HY2QJC6BDLS9Z5UE","","null","<img src=""img/land2.png"" style=""width:200px;border:14px solid red;"">","null","","","","","","","","","",""
"","image-keyboard-response","22","41864","0.0-22.0","3UJ1CZ6IZIBAA7NO4NTEGTRLFV15SC","AZKFSYWVPF6JL","3P520RYKCHSO30HY2QJC6BDLS9Z5UE","","1009.8000000119209","img/land5.png","76","1010.3000000119209","3","0","2","1","0.8,0.2,0.2,0.2,0.8,0.2,0.2,0.2,0.8","0.8,0.2,0.2,0.2,0.8,0.2,0.2,0.2,0.8","1","",""
"","html-keyboard-response","23","42166","0.0-23.0","3UJ1CZ6IZIBAA7NO4NTEGTRLFV15SC","AZKFSYWVPF6JL","3P520RYKCHSO30HY2QJC6BDLS9Z5UE","","null","<img src=""img/land5.png"" style=""width:200px;border:14px solid red;"">","null","","","","","","","","","",""
"","image-keyboard-response","24","43232","0.0-24.0","3UJ1CZ6IZIBAA7NO4NTEGTRLFV15SC","AZKFSYWVPF6JL","3P520RYKCHSO30HY2QJC6BDLS9Z5UE","","1065.3999999761581","img/land4.png","75","1065.9000000357628","2","0","1","1","0.8,0.2,0.2,0.2,0.8,0.2,0.2,0.2,0.8","0.8,0.2,0.2,0.2,0.8,0.2,0.2,0.2,0.8","1","",""
"","html-keyboard-response","25","43533","0.0-25.0","3UJ1CZ6IZIBAA7NO4NTEGTRLFV15SC","AZKFSYWVPF6JL","3P520RYKCHSO30HY2QJC6BDLS9Z5UE","","null","<img src=""img/land4.png"" style=""width:200px;border:14px solid red;"">","null","","","","","","","","","",""
"","image-keyboard-response","26","44072","0.0-26.0","3UJ1CZ6IZIBAA7NO4NTEGTRLFV15SC","AZKFSYWVPF6JL","3P520RYKCHSO30HY2QJC6BDLS9Z5UE","","538.4000000357628","img/land4.png","74","539","1","1","1","1","0.8,0.2,0.2,0.2,0.8,0.2,0.2,0.2,0.8","0.8,0.2,0.2,0.2,0.8,0.2,0.2,0.2,0.8","1","",""
"","html-keyboard-response","27","44373","0.0-27.0","3UJ1CZ6IZIBAA7NO4NTEGTRLFV15SC","AZKFSYWVPF6JL","3P520RYKCHSO30HY2QJC6BDLS9Z5UE","","null","<img src=""img/land4.png"" style=""width:200px; border:14px solid green;"">","null","","","","","","","","","",""
"","image-keyboard-response","28","44720","0.0-28.0","3UJ1CZ6IZIBAA7NO4NTEGTRLFV15SC","AZKFSYWVPF6JL","3P520RYKCHSO30HY2QJC6BDLS9Z5UE","","346.10000002384186","img/land4.png","74","346.60000002384186","1","0","1","1","0.8,0.2,0.2,0.2,0.8,0.2,0.2,0.2,0.8","0.8,0.2,0.2,0.2,0.8,0.2,0.2,0.2,0.8","1","",""
"","html-keyboard-response","29","45021","0.0-29.0","3UJ1CZ6IZIBAA7NO4NTEGTRLFV15SC","AZKFSYWVPF6JL","3P520RYKCHSO30HY2QJC6BDLS9Z5UE","","null","<img src=""img/land4.png"" style=""width:200px;border:14px solid red;"">","null","","","","","","","","","",""
"","image-keyboard-response","30","45944","0.0-30.0","3UJ1CZ6IZIBAA7NO4NTEGTRLFV15SC","AZKFSYWVPF6JL","3P520RYKCHSO30HY2QJC6BDLS9Z5UE","","922.1999999880791","img/land2.png","75","922.6999999880791","2","0","3","1","0.8,0.2,0.2,0.2,0.8,0.2,0.2,0.2,0.8","0.8,0.2,0.2,0.2,0.8,0.2,0.2,0.2,0.8","1","",""
"","html-keyboard-response","31","46246","0.0-31.0","3UJ1CZ6IZIBAA7NO4NTEGTRLFV15SC","AZKFSYWVPF6JL","3P520RYKCHSO30HY2QJC6BDLS9Z5UE","","null","<img src=""img/land2.png"" style=""width:200px;border:14px solid red;"">","null","","","","","","","","","",""
"","image-keyboard-response","32","47112","0.0-32.0","3UJ1CZ6IZIBAA7NO4NTEGTRLFV15SC","AZKFSYWVPF6JL","3P520RYKCHSO30HY2QJC6BDLS9Z5UE","","865.5","img/land4.png","74","866.1000000238419","1","1","1","1","0.8,0.2,0.2,0.2,0.8,0.2,0.2,0.2,0.8","0.8,0.2,0.2,0.2,0.8,0.2,0.2,0.2,0.8","1","",""
"","html-keyboard-response","33","47414","0.0-33.0","3UJ1CZ6IZIBAA7NO4NTEGTRLFV15SC","AZKFSYWVPF6JL","3P520RYKCHSO30HY2QJC6BDLS9Z5UE","","null","<img src=""img/land4.png"" style=""width:200px; border:14px solid green;"">","null","","","","","","","","","",""
"","image-keyboard-response","34","48632","0.0-34.0","3UJ1CZ6IZIBAA7NO4NTEGTRLFV15SC","AZKFSYWVPF6JL","3P520RYKCHSO30HY2QJC6BDLS9Z5UE","","1217.8999999761581","img/land5.png","75","1218.300000011921","2","1","2","1","0.8,0.2,0.2,0.2,0.8,0.2,0.2,0.2,0.8","0.8,0.2,0.2,0.2,0.8,0.2,0.2,0.2,0.8","1","",""
"","html-keyboard-response","35","48933","0.0-35.0","3UJ1CZ6IZIBAA7NO4NTEGTRLFV15SC","AZKFSYWVPF6JL","3P520RYKCHSO30HY2QJC6BDLS9Z5UE","","null","<img src=""img/land5.png"" style=""width:200px; border:14px solid green;"">","null","","","","","","","","","",""
"","image-keyboard-response","36","49624","0.0-36.0","3UJ1CZ6IZIBAA7NO4NTEGTRLFV15SC","AZKFSYWVPF6JL","3P520RYKCHSO30HY2QJC6BDLS9Z5UE","","690.5","img/land2.png","76","691","3","1","3","1","0.8,0.2,0.2,0.2,0.8,0.2,0.2,0.2,0.8","0.8,0.2,0.2,0.2,0.8,0.2,0.2,0.2,0.8","1","",""
"","html-keyboard-response","37","49925","0.0-37.0","3UJ1CZ6IZIBAA7NO4NTEGTRLFV15SC","AZKFSYWVPF6JL","3P520RYKCHSO30HY2QJC6BDLS9Z5UE","","null","<img src=""img/land2.png"" style=""width:200px; border:14px solid green;"">","null","","","","","","","","","",""
"","image-keyboard-response","38","50528","0.0-38.0","3UJ1CZ6IZIBAA7NO4NTEGTRLFV15SC","AZKFSYWVPF6JL","3P520RYKCHSO30HY2QJC6BDLS9Z5UE","","602.5999999642372","img/land5.png","75","603","2","0","2","1","0.8,0.2,0.2,0.2,0.8,0.2,0.2,0.2,0.8","0.8,0.2,0.2,0.2,0.8,0.2,0.2,0.2,0.8","1","",""
"","html-keyboard-response","39","50829","0.0-39.0","3UJ1CZ6IZIBAA7NO4NTEGTRLFV15SC","AZKFSYWVPF6JL","3P520RYKCHSO30HY2QJC6BDLS9Z5UE","","null","<img src=""img/land5.png"" style=""width:200px;border:14px solid red;"">","null","","","","","","","","","",""
"","image-keyboard-response","40","51248","0.0-40.0","3UJ1CZ6IZIBAA7NO4NTEGTRLFV15SC","AZKFSYWVPF6JL","3P520RYKCHSO30HY2QJC6BDLS9Z5UE","","418.2999999523163","img/land5.png","75","418.9000000357628","2","1","2","1","0.8,0.2,0.2,0.2,0.8,0.2,0.2,0.2,0.8","0.8,0.2,0.2,0.2,0.8,0.2,0.2,0.2,0.8","1","",""
"","html-keyboard-response","41","51550","0.0-41.0","3UJ1CZ6IZIBAA7NO4NTEGTRLFV15SC","AZKFSYWVPF6JL","3P520RYKCHSO30HY2QJC6BDLS9Z5UE","","null","<img src=""img/land5.png"" style=""width:200px; border:14px solid green;"">","null","","","","","","","","","",""
"","image-keyboard-response","42","52144","0.0-42.0","3UJ1CZ6IZIBAA7NO4NTEGTRLFV15SC","AZKFSYWVPF6JL","3P520RYKCHSO30HY2QJC6BDLS9Z5UE","","594","img/land2.png","76","594.5","3","1","3","1","0.8,0.2,0.2,0.2,0.8,0.2,0.2,0.2,0.8","0.8,0.2,0.2,0.2,0.8,0.2,0.2,0.2,0.8","1","",""
"","html-keyboard-response","43","52460","0.0-43.0","3UJ1CZ6IZIBAA7NO4NTEGTRLFV15SC","AZKFSYWVPF6JL","3P520RYKCHSO30HY2QJC6BDLS9Z5UE","","null","<img src=""img/land2.png"" style=""width:200px; border:14px solid green;"">","null","","","","","","","","","",""
"","image-keyboard-response","44","53136","0.0-44.0","3UJ1CZ6IZIBAA7NO4NTEGTRLFV15SC","AZKFSYWVPF6JL","3P520RYKCHSO30HY2QJC6BDLS9Z5UE","","675.5999999642372","img/land5.png","75","676.1000000238419","2","1","2","1","0.8,0.2,0.2,0.2,0.8,0.2,0.2,0.2,0.8","0.8,0.2,0.2,0.2,0.8,0.2,0.2,0.2,0.8","1","",""
"","html-keyboard-response","45","53438","0.0-45.0","3UJ1CZ6IZIBAA7NO4NTEGTRLFV15SC","AZKFSYWVPF6JL","3P520RYKCHSO30HY2QJC6BDLS9Z5UE","","null","<img src=""img/land5.png"" style=""width:200px; border:14px solid green;"">","null","","","","","","","","","",""
"","image-keyboard-response","46","54392","0.0-46.0","3UJ1CZ6IZIBAA7NO4NTEGTRLFV15SC","AZKFSYWVPF6JL","3P520RYKCHSO30HY2QJC6BDLS9Z5UE","","953.2999999523163","img/land4.png","74","953.9000000357628","1","1","1","1","0.8,0.2,0.2,0.2,0.8,0.2,0.2,0.2,0.8","0.8,0.2,0.2,0.2,0.8,0.2,0.2,0.2,0.8","1","",""
"","html-keyboard-response","47","54693","0.0-47.0","3UJ1CZ6IZIBAA7NO4NTEGTRLFV15SC","AZKFSYWVPF6JL","3P520RYKCHSO30HY2QJC6BDLS9Z5UE","","null","<img src=""img/land4.png"" style=""width:200px; border:14px solid green;"">","null","","","","","","","","","",""
"","image-keyboard-response","48","55112","0.0-48.0","3UJ1CZ6IZIBAA7NO4NTEGTRLFV15SC","AZKFSYWVPF6JL","3P520RYKCHSO30HY2QJC6BDLS9Z5UE","","418.4000000357628","img/land4.png","74","418.7999999523163","1","1","1","1","0.8,0.2,0.2,0.2,0.8,0.2,0.2,0.2,0.8","0.8,0.2,0.2,0.2,0.8,0.2,0.2,0.2,0.8","1","",""
"","html-keyboard-response","49","55413","0.0-49.0","3UJ1CZ6IZIBAA7NO4NTEGTRLFV15SC","AZKFSYWVPF6JL","3P520RYKCHSO30HY2QJC6BDLS9Z5UE","","null","<img src=""img/land4.png"" style=""width:200px; border:14px solid green;"">","null","","","","","","","","","",""
"","image-keyboard-response","50","56096","0.0-50.0","3UJ1CZ6IZIBAA7NO4NTEGTRLFV15SC","AZKFSYWVPF6JL","3P520RYKCHSO30HY2QJC6BDLS9Z5UE","","682.6999999880791","img/land5.png","75","683","2","1","2","1","0.8,0.2,0.2,0.2,0.8,0.2,0.2,0.2,0.8","0.8,0.2,0.2,0.2,0.8,0.2,0.2,0.2,0.8","1","",""
"","html-keyboard-response","51","56397","0.0-51.0","3UJ1CZ6IZIBAA7NO4NTEGTRLFV15SC","AZKFSYWVPF6JL","3P520RYKCHSO30HY2QJC6BDLS9Z5UE","","null","<img src=""img/land5.png"" style=""width:200px; border:14px solid green;"">","null","","","","","","","","","",""
"","image-keyboard-response","52","56720","0.0-52.0","3UJ1CZ6IZIBAA7NO4NTEGTRLFV15SC","AZKFSYWVPF6JL","3P520RYKCHSO30HY2QJC6BDLS9Z5UE","","322.69999998807907","img/land5.png","75","323","2","0","2","1","0.8,0.2,0.2,0.2,0.8,0.2,0.2,0.2,0.8","0.8,0.2,0.2,0.2,0.8,0.2,0.2,0.2,0.8","1","",""
"","html-keyboard-response","53","57021","0.0-53.0","3UJ1CZ6IZIBAA7NO4NTEGTRLFV15SC","AZKFSYWVPF6JL","3P520RYKCHSO30HY2QJC6BDLS9Z5UE","","null","<img src=""img/land5.png"" style=""width:200px;border:14px solid red;"">","null","","","","","","","","","",""
"","image-keyboard-response","54","57992","0.0-54.0","3UJ1CZ6IZIBAA7NO4NTEGTRLFV15SC","AZKFSYWVPF6JL","3P520RYKCHSO30HY2QJC6BDLS9Z5UE","","970.3000000119209","img/land4.png","76","970.8000000119209","3","0","1","1","0.8,0.2,0.2,0.2,0.8,0.2,0.2,0.2,0.8","0.8,0.2,0.2,0.2,0.8,0.2,0.2,0.2,0.8","1","",""
"","html-keyboard-response","55","58293","0.0-55.0","3UJ1CZ6IZIBAA7NO4NTEGTRLFV15SC","AZKFSYWVPF6JL","3P520RYKCHSO30HY2QJC6BDLS9Z5UE","","null","<img src=""img/land4.png"" style=""width:200px;border:14px solid red;"">","null","","","","","","","","","",""
"","image-keyboard-response","56","59464","0.0-56.0","3UJ1CZ6IZIBAA7NO4NTEGTRLFV15SC","AZKFSYWVPF6JL","3P520RYKCHSO30HY2QJC6BDLS9Z5UE","","1170.199999988079","img/land2.png","76","1170.800000011921","3","1","3","1","0.8,0.2,0.2,0.2,0.8,0.2,0.2,0.2,0.8","0.8,0.2,0.2,0.2,0.8,0.2,0.2,0.2,0.8","1","",""
"","html-keyboard-response","57","59766","0.0-57.0","3UJ1CZ6IZIBAA7NO4NTEGTRLFV15SC","AZKFSYWVPF6JL","3P520RYKCHSO30HY2QJC6BDLS9Z5UE","","null","<img src=""img/land2.png"" style=""width:200px; border:14px solid green;"">","null","","","","","","","","","",""
"","image-keyboard-response","58","60793","0.0-58.0","3UJ1CZ6IZIBAA7NO4NTEGTRLFV15SC","AZKFSYWVPF6JL","3P520RYKCHSO30HY2QJC6BDLS9Z5UE","","1025.5999999642372","img/land4.png","74","1026","1","1","1","1","0.8,0.2,0.2,0.2,0.8,0.2,0.2,0.2,0.8","0.8,0.2,0.2,0.2,0.8,0.2,0.2,0.2,0.8","1","",""
"","html-keyboard-response","59","61094","0.0-59.0","3UJ1CZ6IZIBAA7NO4NTEGTRLFV15SC","AZKFSYWVPF6JL","3P520RYKCHSO30HY2QJC6BDLS9Z5UE","","null","<img src=""img/land4.png"" style=""width:200px; border:14px solid green;"">","null","","","","","","","","","",""
"","image-keyboard-response","60","61737","0.0-60.0","3UJ1CZ6IZIBAA7NO4NTEGTRLFV15SC","AZKFSYWVPF6JL","3P520RYKCHSO30HY2QJC6BDLS9Z5UE","","641.9000000357628","img/land5.png","75","642.5","2","1","2","1","0.8,0.2,0.2,0.2,0.8,0.2,0.2,0.2,0.8","0.8,0.2,0.2,0.2,0.8,0.2,0.2,0.2,0.8","1","",""
"","html-keyboard-response","61","62047","0.0-61.0","3UJ1CZ6IZIBAA7NO4NTEGTRLFV15SC","AZKFSYWVPF6JL","3P520RYKCHSO30HY2QJC6BDLS9Z5UE","","null","<img src=""img/land5.png"" style=""width:200px; border:14px solid green;"">","null","","","","","","","","","",""
"","image-keyboard-response","62","63065","0.0-62.0","3UJ1CZ6IZIBAA7NO4NTEGTRLFV15SC","AZKFSYWVPF6JL","3P520RYKCHSO30HY2QJC6BDLS9Z5UE","","1016.6999999880791","img/land2.png","76","1017.1999999880791","3","1","3","1","0.8,0.2,0.2,0.2,0.8,0.2,0.2,0.2,0.8","0.8,0.2,0.2,0.2,0.8,0.2,0.2,0.2,0.8","1","",""
"","html-keyboard-response","63","63366","0.0-63.0","3UJ1CZ6IZIBAA7NO4NTEGTRLFV15SC","AZKFSYWVPF6JL","3P520RYKCHSO30HY2QJC6BDLS9Z5UE","","null","<img src=""img/land2.png"" style=""width:200px; border:14px solid green;"">","null","","","","","","","","","",""
"","image-keyboard-response","64","63952","0.0-64.0","3UJ1CZ6IZIBAA7NO4NTEGTRLFV15SC","AZKFSYWVPF6JL","3P520RYKCHSO30HY2QJC6BDLS9Z5UE","","586.1000000238419","img/land5.png","75","586.5999999642372","2","1","2","1","0.8,0.2,0.2,0.2,0.8,0.2,0.2,0.2,0.8","0.8,0.2,0.2,0.2,0.8,0.2,0.2,0.2,0.8","1","",""
"","html-keyboard-response","65","64254","0.0-65.0","3UJ1CZ6IZIBAA7NO4NTEGTRLFV15SC","AZKFSYWVPF6JL","3P520RYKCHSO30HY2QJC6BDLS9Z5UE","","null","<img src=""img/land5.png"" style=""width:200px; border:14px solid green;"">","null","","","","","","","","","",""
"","image-keyboard-response","66","65297","0.0-66.0","3UJ1CZ6IZIBAA7NO4NTEGTRLFV15SC","AZKFSYWVPF6JL","3P520RYKCHSO30HY2QJC6BDLS9Z5UE","","1041.699999988079","img/land4.png","74","1042.1000000238419","1","1","1","1","0.8,0.2,0.2,0.2,0.8,0.2,0.2,0.2,0.8","0.8,0.2,0.2,0.2,0.8,0.2,0.2,0.2,0.8","1","",""
"","html-keyboard-response","67","65598","0.0-67.0","3UJ1CZ6IZIBAA7NO4NTEGTRLFV15SC","AZKFSYWVPF6JL","3P520RYKCHSO30HY2QJC6BDLS9Z5UE","","null","<img src=""img/land4.png"" style=""width:200px; border:14px solid green;"">","null","","","","","","","","","",""
"","image-keyboard-response","68","66089","0.0-68.0","3UJ1CZ6IZIBAA7NO4NTEGTRLFV15SC","AZKFSYWVPF6JL","3P520RYKCHSO30HY2QJC6BDLS9Z5UE","","490.0999999642372","img/land5.png","75","490.60000002384186","2","1","2","1","0.8,0.2,0.2,0.2,0.8,0.2,0.2,0.2,0.8","0.8,0.2,0.2,0.2,0.8,0.2,0.2,0.2,0.8","1","",""
"","html-keyboard-response","69","66389","0.0-69.0","3UJ1CZ6IZIBAA7NO4NTEGTRLFV15SC","AZKFSYWVPF6JL","3P520RYKCHSO30HY2QJC6BDLS9Z5UE","","null","<img src=""img/land5.png"" style=""width:200px; border:14px solid green;"">","null","","","","","","","","","",""
"","image-keyboard-response","70","66913","0.0-70.0","3UJ1CZ6IZIBAA7NO4NTEGTRLFV15SC","AZKFSYWVPF6JL","3P520RYKCHSO30HY2QJC6BDLS9Z5UE","","522.6999999880791","img/land2.png","76","523.1000000238419","3","1","3","1","0.8,0.2,0.2,0.2,0.8,0.2,0.2,0.2,0.8","0.8,0.2,0.2,0.2,0.8,0.2,0.2,0.2,0.8","1","",""
"","html-keyboard-response","71","67214","0.0-71.0","3UJ1CZ6IZIBAA7NO4NTEGTRLFV15SC","AZKFSYWVPF6JL","3P520RYKCHSO30HY2QJC6BDLS9Z5UE","","null","<img src=""img/land2.png"" style=""width:200px; border:14px solid green;"">","null","","","","","","","","","",""
"","image-keyboard-response","72","67761","0.0-72.0","3UJ1CZ6IZIBAA7NO4NTEGTRLFV15SC","AZKFSYWVPF6JL","3P520RYKCHSO30HY2QJC6BDLS9Z5UE","","546.5","img/land5.png","75","547.1000000238419","2","0","2","1","0.8,0.2,0.2,0.2,0.8,0.2,0.2,0.2,0.8","0.8,0.2,0.2,0.2,0.8,0.2,0.2,0.2,0.8","1","",""
"","html-keyboard-response","73","68062","0.0-73.0","3UJ1CZ6IZIBAA7NO4NTEGTRLFV15SC","AZKFSYWVPF6JL","3P520RYKCHSO30HY2QJC6BDLS9Z5UE","","null","<img src=""img/land5.png"" style=""width:200px;border:14px solid red;"">","null","","","","","","","","","",""
"","image-keyboard-response","74","69169","0.0-74.0","3UJ1CZ6IZIBAA7NO4NTEGTRLFV15SC","AZKFSYWVPF6JL","3P520RYKCHSO30HY2QJC6BDLS9Z5UE","","1106.199999988079","img/land4.png","74","1106.6000000238419","1","1","1","1","0.8,0.2,0.2,0.2,0.8,0.2,0.2,0.2,0.8","0.8,0.2,0.2,0.2,0.8,0.2,0.2,0.2,0.8","1","",""
"","html-keyboard-response","75","69470","0.0-75.0","3UJ1CZ6IZIBAA7NO4NTEGTRLFV15SC","AZKFSYWVPF6JL","3P520RYKCHSO30HY2QJC6BDLS9Z5UE","","null","<img src=""img/land4.png"" style=""width:200px; border:14px solid green;"">","null","","","","","","","","","",""
"","image-keyboard-response","76","70233","0.0-76.0","3UJ1CZ6IZIBAA7NO4NTEGTRLFV15SC","AZKFSYWVPF6JL","3P520RYKCHSO30HY2QJC6BDLS9Z5UE","","762.3999999761581","img/land2.png","76","763","3","1","3","1","0.8,0.2,0.2,0.2,0.8,0.2,0.2,0.2,0.8","0.8,0.2,0.2,0.2,0.8,0.2,0.2,0.2,0.8","1","",""
"","html-keyboard-response","77","70533","0.0-77.0","3UJ1CZ6IZIBAA7NO4NTEGTRLFV15SC","AZKFSYWVPF6JL","3P520RYKCHSO30HY2QJC6BDLS9Z5UE","","null","<img src=""img/land2.png"" style=""width:200px; border:14px solid green;"">","null","","","","","","","","","",""
"","image-keyboard-response","78","71017","0.0-78.0","3UJ1CZ6IZIBAA7NO4NTEGTRLFV15SC","AZKFSYWVPF6JL","3P520RYKCHSO30HY2QJC6BDLS9Z5UE","","482.89999997615814","img/land2.png","76","483.4000000357628","3","1","3","1","0.8,0.2,0.2,0.2,0.8,0.2,0.2,0.2,0.8","0.8,0.2,0.2,0.2,0.8,0.2,0.2,0.2,0.8","1","",""
"","html-keyboard-response","79","71317","0.0-79.0","3UJ1CZ6IZIBAA7NO4NTEGTRLFV15SC","AZKFSYWVPF6JL","3P520RYKCHSO30HY2QJC6BDLS9Z5UE","","null","<img src=""img/land2.png"" style=""width:200px; border:14px solid green;"">","null","","","","","","","","","",""
"","image-keyboard-response","80","71689","0.0-80.0","3UJ1CZ6IZIBAA7NO4NTEGTRLFV15SC","AZKFSYWVPF6JL","3P520RYKCHSO30HY2QJC6BDLS9Z5UE","","370.69999998807907","img/land2.png","76","371.10000002384186","3","0","3","1","0.8,0.2,0.2,0.2,0.8,0.2,0.2,0.2,0.8","0.8,0.2,0.2,0.2,0.8,0.2,0.2,0.2,0.8","1","",""
"","html-keyboard-response","81","71990","0.0-81.0","3UJ1CZ6IZIBAA7NO4NTEGTRLFV15SC","AZKFSYWVPF6JL","3P520RYKCHSO30HY2QJC6BDLS9Z5UE","","null","<img src=""img/land2.png"" style=""width:200px;border:14px solid red;"">","null","","","","","","","","","",""
"","image-keyboard-response","82","72577","0.0-82.0","3UJ1CZ6IZIBAA7NO4NTEGTRLFV15SC","AZKFSYWVPF6JL","3P520RYKCHSO30HY2QJC6BDLS9Z5UE","","585.7999999523163","img/land5.png","75","586.4000000357628","2","1","2","1","0.8,0.2,0.2,0.2,0.8,0.2,0.2,0.2,0.8","0.8,0.2,0.2,0.2,0.8,0.2,0.2,0.2,0.8","1","",""
"","html-keyboard-response","83","72877","0.0-83.0","3UJ1CZ6IZIBAA7NO4NTEGTRLFV15SC","AZKFSYWVPF6JL","3P520RYKCHSO30HY2QJC6BDLS9Z5UE","","null","<img src=""img/land5.png"" style=""width:200px; border:14px solid green;"">","null","","","","","","","","","",""
"","image-keyboard-response","84","73465","0.0-84.0","3UJ1CZ6IZIBAA7NO4NTEGTRLFV15SC","AZKFSYWVPF6JL","3P520RYKCHSO30HY2QJC6BDLS9Z5UE","","586.5999999642372","img/land2.png","76","587.2000000476837","3","1","3","1","0.8,0.2,0.2,0.2,0.8,0.2,0.2,0.2,0.8","0.8,0.2,0.2,0.2,0.8,0.2,0.2,0.2,0.8","1","",""
"","html-keyboard-response","85","73766","0.0-85.0","3UJ1CZ6IZIBAA7NO4NTEGTRLFV15SC","AZKFSYWVPF6JL","3P520RYKCHSO30HY2QJC6BDLS9Z5UE","","null","<img src=""img/land2.png"" style=""width:200px; border:14px solid green;"">","null","","","","","","","","","",""
"","image-keyboard-response","86","74425","0.0-86.0","3UJ1CZ6IZIBAA7NO4NTEGTRLFV15SC","AZKFSYWVPF6JL","3P520RYKCHSO30HY2QJC6BDLS9Z5UE","","657.8999999761581","img/land5.png","75","658.4000000357628","2","1","2","1","0.8,0.2,0.2,0.2,0.8,0.2,0.2,0.2,0.8","0.8,0.2,0.2,0.2,0.8,0.2,0.2,0.2,0.8","1","",""
"","html-keyboard-response","87","74726","0.0-87.0","3UJ1CZ6IZIBAA7NO4NTEGTRLFV15SC","AZKFSYWVPF6JL","3P520RYKCHSO30HY2QJC6BDLS9Z5UE","","null","<img src=""img/land5.png"" style=""width:200px; border:14px solid green;"">","null","","","","","","","","","",""
"","image-keyboard-response","88","75209","0.0-88.0","3UJ1CZ6IZIBAA7NO4NTEGTRLFV15SC","AZKFSYWVPF6JL","3P520RYKCHSO30HY2QJC6BDLS9Z5UE","","481.7999999523163","img/land4.png","76","482.4000000357628","3","0","1","1","0.8,0.2,0.2,0.2,0.8,0.2,0.2,0.2,0.8","0.8,0.2,0.2,0.2,0.8,0.2,0.2,0.2,0.8","1","",""
"","html-keyboard-response","89","75510","0.0-89.0","3UJ1CZ6IZIBAA7NO4NTEGTRLFV15SC","AZKFSYWVPF6JL","3P520RYKCHSO30HY2QJC6BDLS9Z5UE","","null","<img src=""img/land4.png"" style=""width:200px;border:14px solid red;"">","null","","","","","","","","","",""
"","image-keyboard-response","90","75897","0.0-90.0","3UJ1CZ6IZIBAA7NO4NTEGTRLFV15SC","AZKFSYWVPF6JL","3P520RYKCHSO30HY2QJC6BDLS9Z5UE","","385.89999997615814","img/land4.png","74","386.5","1","1","1","1","0.8,0.2,0.2,0.2,0.8,0.2,0.2,0.2,0.8","0.8,0.2,0.2,0.2,0.8,0.2,0.2,0.2,0.8","1","",""
"","html-keyboard-response","91","76198","0.0-91.0","3UJ1CZ6IZIBAA7NO4NTEGTRLFV15SC","AZKFSYWVPF6JL","3P520RYKCHSO30HY2QJC6BDLS9Z5UE","","null","<img src=""img/land4.png"" style=""width:200px; border:14px solid green;"">","null","","","","","","","","","",""
"","image-keyboard-response","92","76537","0.0-92.0","3UJ1CZ6IZIBAA7NO4NTEGTRLFV15SC","AZKFSYWVPF6JL","3P520RYKCHSO30HY2QJC6BDLS9Z5UE","","337.80000001192093","img/land4.png","74","338.30000001192093","1","1","1","1","0.8,0.2,0.2,0.2,0.8,0.2,0.2,0.2,0.8","0.8,0.2,0.2,0.2,0.8,0.2,0.2,0.2,0.8","1","",""
"","html-keyboard-response","93","76838","0.0-93.0","3UJ1CZ6IZIBAA7NO4NTEGTRLFV15SC","AZKFSYWVPF6JL","3P520RYKCHSO30HY2QJC6BDLS9Z5UE","","null","<img src=""img/land4.png"" style=""width:200px; border:14px solid green;"">","null","","","","","","","","","",""
"","image-keyboard-response","94","77161","0.0-94.0","3UJ1CZ6IZIBAA7NO4NTEGTRLFV15SC","AZKFSYWVPF6JL","3P520RYKCHSO30HY2QJC6BDLS9Z5UE","","322.10000002384186","img/land4.png","74","322.5","1","0","1","1","0.8,0.2,0.2,0.2,0.8,0.2,0.2,0.2,0.8","0.8,0.2,0.2,0.2,0.8,0.2,0.2,0.2,0.8","1","",""
"","html-keyboard-response","95","77462","0.0-95.0","3UJ1CZ6IZIBAA7NO4NTEGTRLFV15SC","AZKFSYWVPF6JL","3P520RYKCHSO30HY2QJC6BDLS9Z5UE","","null","<img src=""img/land4.png"" style=""width:200px;border:14px solid red;"">","null","","","","","","","","","",""
"","image-keyboard-response","96","78385","0.0-96.0","3UJ1CZ6IZIBAA7NO4NTEGTRLFV15SC","AZKFSYWVPF6JL","3P520RYKCHSO30HY2QJC6BDLS9Z5UE","","922.3999999761581","img/land5.png","75","922.8000000119209","2","0","2","1","0.8,0.2,0.2,0.2,0.8,0.2,0.2,0.2,0.8","0.8,0.2,0.2,0.2,0.8,0.2,0.2,0.2,0.8","1","",""
"","html-keyboard-response","97","78686","0.0-97.0","3UJ1CZ6IZIBAA7NO4NTEGTRLFV15SC","AZKFSYWVPF6JL","3P520RYKCHSO30HY2QJC6BDLS9Z5UE","","null","<img src=""img/land5.png"" style=""width:200px;border:14px solid red;"">","null","","","","","","","","","",""
"","image-keyboard-response","98","79113","0.0-98.0","3UJ1CZ6IZIBAA7NO4NTEGTRLFV15SC","AZKFSYWVPF6JL","3P520RYKCHSO30HY2QJC6BDLS9Z5UE","","425.89999997615814","img/land5.png","75","426.5","2","0","2","1","0.8,0.2,0.2,0.2,0.8,0.2,0.2,0.2,0.8","0.8,0.2,0.2,0.2,0.8,0.2,0.2,0.2,0.8","1","",""
"","html-keyboard-response","99","79413","0.0-99.0","3UJ1CZ6IZIBAA7NO4NTEGTRLFV15SC","AZKFSYWVPF6JL","3P520RYKCHSO30HY2QJC6BDLS9Z5UE","","null","<img src=""img/land5.png"" style=""width:200px;border:14px solid red;"">","null","","","","","","","","","",""
"","image-keyboard-response","100","80025","0.0-100.0","3UJ1CZ6IZIBAA7NO4NTEGTRLFV15SC","AZKFSYWVPF6JL","3P520RYKCHSO30HY2QJC6BDLS9Z5UE","","610.5999999642372","img/land2.png","76","611.2000000476837","3","1","3","1","0.8,0.2,0.2,0.2,0.8,0.2,0.2,0.2,0.8","0.8,0.2,0.2,0.2,0.8,0.2,0.2,0.2,0.8","1","",""
"","html-keyboard-response","101","80326","0.0-101.0","3UJ1CZ6IZIBAA7NO4NTEGTRLFV15SC","AZKFSYWVPF6JL","3P520RYKCHSO30HY2QJC6BDLS9Z5UE","","null","<img src=""img/land2.png"" style=""width:200px; border:14px solid green;"">","null","","","","","","","","","",""
"","image-keyboard-response","102","80993","0.0-102.0","3UJ1CZ6IZIBAA7NO4NTEGTRLFV15SC","AZKFSYWVPF6JL","3P520RYKCHSO30HY2QJC6BDLS9Z5UE","","666","img/land2.png","76","666.5","3","0","3","1","0.8,0.2,0.2,0.2,0.8,0.2,0.2,0.2,0.8","0.8,0.2,0.2,0.2,0.8,0.2,0.2,0.2,0.8","1","",""
"","html-keyboard-response","103","81294","0.0-103.0","3UJ1CZ6IZIBAA7NO4NTEGTRLFV15SC","AZKFSYWVPF6JL","3P520RYKCHSO30HY2QJC6BDLS9Z5UE","","null","<img src=""img/land2.png"" style=""width:200px;border:14px solid red;"">","null","","","","","","","","","",""
"","image-keyboard-response","104","82145","0.0-104.0","3UJ1CZ6IZIBAA7NO4NTEGTRLFV15SC","AZKFSYWVPF6JL","3P520RYKCHSO30HY2QJC6BDLS9Z5UE","","850.2999999523163","img/land4.png","74","850.8000000119209","1","1","1","1","0.8,0.2,0.2,0.2,0.8,0.2,0.2,0.2,0.8","0.8,0.2,0.2,0.2,0.8,0.2,0.2,0.2,0.8","1","",""
"","html-keyboard-response","105","82446","0.0-105.0","3UJ1CZ6IZIBAA7NO4NTEGTRLFV15SC","AZKFSYWVPF6JL","3P520RYKCHSO30HY2QJC6BDLS9Z5UE","","null","<img src=""img/land4.png"" style=""width:200px; border:14px solid green;"">","null","","","","","","","","","",""
"","image-keyboard-response","106","82913","0.0-106.0","3UJ1CZ6IZIBAA7NO4NTEGTRLFV15SC","AZKFSYWVPF6JL","3P520RYKCHSO30HY2QJC6BDLS9Z5UE","","466","img/land4.png","74","466.5","1","1","1","1","0.8,0.2,0.2,0.2,0.8,0.2,0.2,0.2,0.8","0.8,0.2,0.2,0.2,0.8,0.2,0.2,0.2,0.8","1","",""
"","html-keyboard-response","107","83213","0.0-107.0","3UJ1CZ6IZIBAA7NO4NTEGTRLFV15SC","AZKFSYWVPF6JL","3P520RYKCHSO30HY2QJC6BDLS9Z5UE","","null","<img src=""img/land4.png"" style=""width:200px; border:14px solid green;"">","null","","","","","","","","","",""
"","image-keyboard-response","108","83841","0.0-108.0","3UJ1CZ6IZIBAA7NO4NTEGTRLFV15SC","AZKFSYWVPF6JL","3P520RYKCHSO30HY2QJC6BDLS9Z5UE","","626.6999999880791","img/land5.png","75","627.2000000476837","2","0","2","1","0.8,0.2,0.2,0.2,0.8,0.2,0.2,0.2,0.8","0.8,0.2,0.2,0.2,0.8,0.2,0.2,0.2,0.8","1","",""
"","html-keyboard-response","109","84142","0.0-109.0","3UJ1CZ6IZIBAA7NO4NTEGTRLFV15SC","AZKFSYWVPF6JL","3P520RYKCHSO30HY2QJC6BDLS9Z5UE","","null","<img src=""img/land5.png"" style=""width:200px;border:14px solid red;"">","null","","","","","","","","","",""
"","image-keyboard-response","110","84529","0.0-110.0","3UJ1CZ6IZIBAA7NO4NTEGTRLFV15SC","AZKFSYWVPF6JL","3P520RYKCHSO30HY2QJC6BDLS9Z5UE","","386.19999998807907","img/land5.png","75","386.80000001192093","2","1","2","1","0.8,0.2,0.2,0.2,0.8,0.2,0.2,0.2,0.8","0.8,0.2,0.2,0.2,0.8,0.2,0.2,0.2,0.8","1","",""
"","html-keyboard-response","111","84829","0.0-111.0","3UJ1CZ6IZIBAA7NO4NTEGTRLFV15SC","AZKFSYWVPF6JL","3P520RYKCHSO30HY2QJC6BDLS9Z5UE","","null","<img src=""img/land5.png"" style=""width:200px; border:14px solid green;"">","null","","","","","","","","","",""
"","image-keyboard-response","112","85305","0.0-112.0","3UJ1CZ6IZIBAA7NO4NTEGTRLFV15SC","AZKFSYWVPF6JL","3P520RYKCHSO30HY2QJC6BDLS9Z5UE","","474.89999997615814","img/land2.png","76","475.4000000357628","3","1","3","1","0.8,0.2,0.2,0.2,0.8,0.2,0.2,0.2,0.8","0.8,0.2,0.2,0.2,0.8,0.2,0.2,0.2,0.8","1","",""
"","html-keyboard-response","113","85607","0.0-113.0","3UJ1CZ6IZIBAA7NO4NTEGTRLFV15SC","AZKFSYWVPF6JL","3P520RYKCHSO30HY2QJC6BDLS9Z5UE","","null","<img src=""img/land2.png"" style=""width:200px; border:14px solid green;"">","null","","","","","","","","","",""
"","image-keyboard-response","114","86697","0.0-114.0","3UJ1CZ6IZIBAA7NO4NTEGTRLFV15SC","AZKFSYWVPF6JL","3P520RYKCHSO30HY2QJC6BDLS9Z5UE","","1089.2000000476837","img/land4.png","74","1089.800000011921","1","1","1","1","0.8,0.2,0.2,0.2,0.8,0.2,0.2,0.2,0.8","0.8,0.2,0.2,0.2,0.8,0.2,0.2,0.2,0.8","1","",""
"","html-keyboard-response","115","86998","0.0-115.0","3UJ1CZ6IZIBAA7NO4NTEGTRLFV15SC","AZKFSYWVPF6JL","3P520RYKCHSO30HY2QJC6BDLS9Z5UE","","null","<img src=""img/land4.png"" style=""width:200px; border:14px solid green;"">","null","","","","","","","","","",""
"","image-keyboard-response","116","87593","0.0-116.0","3UJ1CZ6IZIBAA7NO4NTEGTRLFV15SC","AZKFSYWVPF6JL","3P520RYKCHSO30HY2QJC6BDLS9Z5UE","","594.1000000238419","img/land5.png","75","594.6999999880791","2","1","2","1","0.8,0.2,0.2,0.2,0.8,0.2,0.2,0.2,0.8","0.8,0.2,0.2,0.2,0.8,0.2,0.2,0.2,0.8","1","",""
"","html-keyboard-response","117","87894","0.0-117.0","3UJ1CZ6IZIBAA7NO4NTEGTRLFV15SC","AZKFSYWVPF6JL","3P520RYKCHSO30HY2QJC6BDLS9Z5UE","","null","<img src=""img/land5.png"" style=""width:200px; border:14px solid green;"">","null","","","","","","","","","",""
"","image-keyboard-response","118","88921","0.0-118.0","3UJ1CZ6IZIBAA7NO4NTEGTRLFV15SC","AZKFSYWVPF6JL","3P520RYKCHSO30HY2QJC6BDLS9Z5UE","","1025.699999988079","img/land4.png","76","1026.2000000476837","3","1","1","1","0.8,0.2,0.2,0.2,0.8,0.2,0.2,0.2,0.8","0.8,0.2,0.2,0.2,0.8,0.2,0.2,0.2,0.8","1","",""
"","html-keyboard-response","119","89221","0.0-119.0","3UJ1CZ6IZIBAA7NO4NTEGTRLFV15SC","AZKFSYWVPF6JL","3P520RYKCHSO30HY2QJC6BDLS9Z5UE","","null","<img src=""img/land4.png"" style=""width:200px; border:14px solid green;"">","null","","","","","","","","","",""
"","image-keyboard-response","120","89713","0.0-120.0","3UJ1CZ6IZIBAA7NO4NTEGTRLFV15SC","AZKFSYWVPF6JL","3P520RYKCHSO30HY2QJC6BDLS9Z5UE","","490.5","img/land4.png","76","491.10000002384186","3","0","1","1","0.8,0.2,0.2,0.2,0.8,0.2,0.2,0.2,0.8","0.8,0.2,0.2,0.2,0.8,0.2,0.2,0.2,0.8","1","",""
"","html-keyboard-response","121","90013","0.0-121.0","3UJ1CZ6IZIBAA7NO4NTEGTRLFV15SC","AZKFSYWVPF6JL","3P520RYKCHSO30HY2QJC6BDLS9Z5UE","","null","<img src=""img/land4.png"" style=""width:200px;border:14px solid red;"">","null","","","","","","","","","",""
"","image-keyboard-response","122","90705","0.0-122.0","3UJ1CZ6IZIBAA7NO4NTEGTRLFV15SC","AZKFSYWVPF6JL","3P520RYKCHSO30HY2QJC6BDLS9Z5UE","","690.6999999880791","img/land5.png","75","691.2000000476837","2","1","2","1","0.8,0.2,0.2,0.2,0.8,0.2,0.2,0.2,0.8","0.8,0.2,0.2,0.2,0.8,0.2,0.2,0.2,0.8","1","",""
"","html-keyboard-response","123","91006","0.0-123.0","3UJ1CZ6IZIBAA7NO4NTEGTRLFV15SC","AZKFSYWVPF6JL","3P520RYKCHSO30HY2QJC6BDLS9Z5UE","","null","<img src=""img/land5.png"" style=""width:200px; border:14px solid green;"">","null","","","","","","","","","",""
"","image-keyboard-response","124","91769","0.0-124.0","3UJ1CZ6IZIBAA7NO4NTEGTRLFV15SC","AZKFSYWVPF6JL","3P520RYKCHSO30HY2QJC6BDLS9Z5UE","","762","img/land2.png","76","762.5","3","0","3","1","0.8,0.2,0.2,0.2,0.8,0.2,0.2,0.2,0.8","0.8,0.2,0.2,0.2,0.8,0.2,0.2,0.2,0.8","1","",""
"","html-keyboard-response","125","92069","0.0-125.0","3UJ1CZ6IZIBAA7NO4NTEGTRLFV15SC","AZKFSYWVPF6JL","3P520RYKCHSO30HY2QJC6BDLS9Z5UE","","null","<img src=""img/land2.png"" style=""width:200px;border:14px solid red;"">","null","","","","","","","","","",""
"","image-keyboard-response","126","92809","0.0-126.0","3UJ1CZ6IZIBAA7NO4NTEGTRLFV15SC","AZKFSYWVPF6JL","3P520RYKCHSO30HY2QJC6BDLS9Z5UE","","738.8999999761581","img/land4.png","74","739.5","1","1","1","1","0.8,0.2,0.2,0.2,0.8,0.2,0.2,0.2,0.8","0.8,0.2,0.2,0.2,0.8,0.2,0.2,0.2,0.8","1","",""
"","html-keyboard-response","127","93109","0.0-127.0","3UJ1CZ6IZIBAA7NO4NTEGTRLFV15SC","AZKFSYWVPF6JL","3P520RYKCHSO30HY2QJC6BDLS9Z5UE","","null","<img src=""img/land4.png"" style=""width:200px; border:14px solid green;"">","null","","","","","","","","","",""
"","image-keyboard-response","128","93745","0.0-128.0","3UJ1CZ6IZIBAA7NO4NTEGTRLFV15SC","AZKFSYWVPF6JL","3P520RYKCHSO30HY2QJC6BDLS9Z5UE","","634.8999999761581","img/land2.png","76","635.3999999761581","3","1","3","1","0.8,0.2,0.2,0.2,0.8,0.2,0.2,0.2,0.8","0.8,0.2,0.2,0.2,0.8,0.2,0.2,0.2,0.8","1","",""
"","html-keyboard-response","129","94046","0.0-129.0","3UJ1CZ6IZIBAA7NO4NTEGTRLFV15SC","AZKFSYWVPF6JL","3P520RYKCHSO30HY2QJC6BDLS9Z5UE","","null","<img src=""img/land2.png"" style=""width:200px; border:14px solid green;"">","null","","","","","","","","","",""
"","image-keyboard-response","130","94449","0.0-130.0","3UJ1CZ6IZIBAA7NO4NTEGTRLFV15SC","AZKFSYWVPF6JL","3P520RYKCHSO30HY2QJC6BDLS9Z5UE","","402.0999999642372","img/land2.png","76","402.7000000476837","3","1","3","1","0.8,0.2,0.2,0.2,0.8,0.2,0.2,0.2,0.8","0.8,0.2,0.2,0.2,0.8,0.2,0.2,0.2,0.8","1","",""
"","html-keyboard-response","131","94750","0.0-131.0","3UJ1CZ6IZIBAA7NO4NTEGTRLFV15SC","AZKFSYWVPF6JL","3P520RYKCHSO30HY2QJC6BDLS9Z5UE","","null","<img src=""img/land2.png"" style=""width:200px; border:14px solid green;"">","null","","","","","","","","","",""
"","image-keyboard-response","132","95161","0.0-132.0","3UJ1CZ6IZIBAA7NO4NTEGTRLFV15SC","AZKFSYWVPF6JL","3P520RYKCHSO30HY2QJC6BDLS9Z5UE","","410.7000000476837","img/land2.png","76","411.0999999642372","3","1","3","1","0.8,0.2,0.2,0.2,0.8,0.2,0.2,0.2,0.8","0.8,0.2,0.2,0.2,0.8,0.2,0.2,0.2,0.8","1","",""
"","html-keyboard-response","133","95463","0.0-133.0","3UJ1CZ6IZIBAA7NO4NTEGTRLFV15SC","AZKFSYWVPF6JL","3P520RYKCHSO30HY2QJC6BDLS9Z5UE","","null","<img src=""img/land2.png"" style=""width:200px; border:14px solid green;"">","null","","","","","","","","","",""
"","image-keyboard-response","134","95809","0.0-134.0","3UJ1CZ6IZIBAA7NO4NTEGTRLFV15SC","AZKFSYWVPF6JL","3P520RYKCHSO30HY2QJC6BDLS9Z5UE","","345.19999998807907","img/land2.png","76","345.69999998807907","3","1","3","1","0.8,0.2,0.2,0.2,0.8,0.2,0.2,0.2,0.8","0.8,0.2,0.2,0.2,0.8,0.2,0.2,0.2,0.8","1","",""
"","html-keyboard-response","135","96110","0.0-135.0","3UJ1CZ6IZIBAA7NO4NTEGTRLFV15SC","AZKFSYWVPF6JL","3P520RYKCHSO30HY2QJC6BDLS9Z5UE","","null","<img src=""img/land2.png"" style=""width:200px; border:14px solid green;"">","null","","","","","","","","","",""
"","image-keyboard-response","136","96929","0.0-136.0","3UJ1CZ6IZIBAA7NO4NTEGTRLFV15SC","AZKFSYWVPF6JL","3P520RYKCHSO30HY2QJC6BDLS9Z5UE","","818.6000000238419","img/land4.png","74","819","1","1","1","1","0.8,0.2,0.2,0.2,0.8,0.2,0.2,0.2,0.8","0.8,0.2,0.2,0.2,0.8,0.2,0.2,0.2,0.8","1","",""
"","html-keyboard-response","137","97230","0.0-137.0","3UJ1CZ6IZIBAA7NO4NTEGTRLFV15SC","AZKFSYWVPF6JL","3P520RYKCHSO30HY2QJC6BDLS9Z5UE","","null","<img src=""img/land4.png"" style=""width:200px; border:14px solid green;"">","null","","","","","","","","","",""
"","image-keyboard-response","138","97993","0.0-138.0","3UJ1CZ6IZIBAA7NO4NTEGTRLFV15SC","AZKFSYWVPF6JL","3P520RYKCHSO30HY2QJC6BDLS9Z5UE","","762.5","img/land2.png","76","763.0999999642372","3","0","3","1","0.8,0.2,0.2,0.2,0.8,0.2,0.2,0.2,0.8","0.8,0.2,0.2,0.2,0.8,0.2,0.2,0.2,0.8","1","",""
"","html-keyboard-response","139","98294","0.0-139.0","3UJ1CZ6IZIBAA7NO4NTEGTRLFV15SC","AZKFSYWVPF6JL","3P520RYKCHSO30HY2QJC6BDLS9Z5UE","","null","<img src=""img/land2.png"" style=""width:200px;border:14px solid red;"">","null","","","","","","","","","",""
"","image-keyboard-response","140","99041","0.0-140.0","3UJ1CZ6IZIBAA7NO4NTEGTRLFV15SC","AZKFSYWVPF6JL","3P520RYKCHSO30HY2QJC6BDLS9Z5UE","","746.6000000238419","img/land4.png","74","747","1","1","1","1","0.8,0.2,0.2,0.2,0.8,0.2,0.2,0.2,0.8","0.8,0.2,0.2,0.2,0.8,0.2,0.2,0.2,0.8","1","",""
"","html-keyboard-response","141","99342","0.0-141.0","3UJ1CZ6IZIBAA7NO4NTEGTRLFV15SC","AZKFSYWVPF6JL","3P520RYKCHSO30HY2QJC6BDLS9Z5UE","","null","<img src=""img/land4.png"" style=""width:200px; border:14px solid green;"">","null","","","","","","","","","",""
"","image-keyboard-response","142","100121","0.0-142.0","3UJ1CZ6IZIBAA7NO4NTEGTRLFV15SC","AZKFSYWVPF6JL","3P520RYKCHSO30HY2QJC6BDLS9Z5UE","","778.3000000119209","img/land2.png","76","778.8000000119209","3","0","3","1","0.8,0.2,0.2,0.2,0.8,0.2,0.2,0.2,0.8","0.8,0.2,0.2,0.2,0.8,0.2,0.2,0.2,0.8","1","",""
"","html-keyboard-response","143","100422","0.0-143.0","3UJ1CZ6IZIBAA7NO4NTEGTRLFV15SC","AZKFSYWVPF6JL","3P520RYKCHSO30HY2QJC6BDLS9Z5UE","","null","<img src=""img/land2.png"" style=""width:200px;border:14px solid red;"">","null","","","","","","","","","",""
"","image-keyboard-response","144","100929","0.0-144.0","3UJ1CZ6IZIBAA7NO4NTEGTRLFV15SC","AZKFSYWVPF6JL","3P520RYKCHSO30HY2QJC6BDLS9Z5UE","","506.30000001192093","img/land2.png","76","506.7000000476837","3","0","3","1","0.8,0.2,0.2,0.2,0.8,0.2,0.2,0.2,0.8","0.8,0.2,0.2,0.2,0.8,0.2,0.2,0.2,0.8","1","",""
"","html-keyboard-response","145","101230","0.0-145.0","3UJ1CZ6IZIBAA7NO4NTEGTRLFV15SC","AZKFSYWVPF6JL","3P520RYKCHSO30HY2QJC6BDLS9Z5UE","","null","<img src=""img/land2.png"" style=""width:200px;border:14px solid red;"">","null","","","","","","","","","",""
"","image-keyboard-response","146","101905","0.0-146.0","3UJ1CZ6IZIBAA7NO4NTEGTRLFV15SC","AZKFSYWVPF6JL","3P520RYKCHSO30HY2QJC6BDLS9Z5UE","","674.3000000119209","img/land4.png","74","674.7000000476837","1","1","1","1","0.8,0.2,0.2,0.2,0.8,0.2,0.2,0.2,0.8","0.8,0.2,0.2,0.2,0.8,0.2,0.2,0.2,0.8","1","",""
"","html-keyboard-response","147","102206","0.0-147.0","3UJ1CZ6IZIBAA7NO4NTEGTRLFV15SC","AZKFSYWVPF6JL","3P520RYKCHSO30HY2QJC6BDLS9Z5UE","","null","<img src=""img/land4.png"" style=""width:200px; border:14px solid green;"">","null","","","","","","","","","",""
"","image-keyboard-response","148","102673","0.0-148.0","3UJ1CZ6IZIBAA7NO4NTEGTRLFV15SC","AZKFSYWVPF6JL","3P520RYKCHSO30HY2QJC6BDLS9Z5UE","","466.39999997615814","img/land4.png","76","466.80000001192093","3","1","1","1","0.8,0.2,0.2,0.2,0.8,0.2,0.2,0.2,0.8","0.8,0.2,0.2,0.2,0.8,0.2,0.2,0.2,0.8","1","",""
"","html-keyboard-response","149","102974","0.0-149.0","3UJ1CZ6IZIBAA7NO4NTEGTRLFV15SC","AZKFSYWVPF6JL","3P520RYKCHSO30HY2QJC6BDLS9Z5UE","","null","<img src=""img/land4.png"" style=""width:200px; border:14px solid green;"">","null","","","","","","","","","",""
"","image-keyboard-response","150","103633","0.0-150.0","3UJ1CZ6IZIBAA7NO4NTEGTRLFV15SC","AZKFSYWVPF6JL","3P520RYKCHSO30HY2QJC6BDLS9Z5UE","","658","img/land2.png","76","658.5","3","1","3","1","0.8,0.2,0.2,0.2,0.8,0.2,0.2,0.2,0.8","0.8,0.2,0.2,0.2,0.8,0.2,0.2,0.2,0.8","1","",""
"","html-keyboard-response","151","103934","0.0-151.0","3UJ1CZ6IZIBAA7NO4NTEGTRLFV15SC","AZKFSYWVPF6JL","3P520RYKCHSO30HY2QJC6BDLS9Z5UE","","null","<img src=""img/land2.png"" style=""width:200px; border:14px solid green;"">","null","","","","","","","","","",""
"","image-keyboard-response","152","104305","0.0-152.0","3UJ1CZ6IZIBAA7NO4NTEGTRLFV15SC","AZKFSYWVPF6JL","3P520RYKCHSO30HY2QJC6BDLS9Z5UE","","370","img/land2.png","76","370.39999997615814","3","0","3","1","0.8,0.2,0.2,0.2,0.8,0.2,0.2,0.2,0.8","0.8,0.2,0.2,0.2,0.8,0.2,0.2,0.2,0.8","1","",""
"","html-keyboard-response","153","104606","0.0-153.0","3UJ1CZ6IZIBAA7NO4NTEGTRLFV15SC","AZKFSYWVPF6JL","3P520RYKCHSO30HY2QJC6BDLS9Z5UE","","null","<img src=""img/land2.png"" style=""width:200px;border:14px solid red;"">","null","","","","","","","","","",""
"","image-keyboard-response","154","105073","0.0-154.0","3UJ1CZ6IZIBAA7NO4NTEGTRLFV15SC","AZKFSYWVPF6JL","3P520RYKCHSO30HY2QJC6BDLS9Z5UE","","466.30000001192093","img/land4.png","74","466.7000000476837","1","0","1","1","0.8,0.2,0.2,0.2,0.8,0.2,0.2,0.2,0.8","0.8,0.2,0.2,0.2,0.8,0.2,0.2,0.2,0.8","1","",""
"","html-keyboard-response","155","105374","0.0-155.0","3UJ1CZ6IZIBAA7NO4NTEGTRLFV15SC","AZKFSYWVPF6JL","3P520RYKCHSO30HY2QJC6BDLS9Z5UE","","null","<img src=""img/land4.png"" style=""width:200px;border:14px solid red;"">","null","","","","","","","","","",""
"","image-keyboard-response","156","105849","0.0-156.0","3UJ1CZ6IZIBAA7NO4NTEGTRLFV15SC","AZKFSYWVPF6JL","3P520RYKCHSO30HY2QJC6BDLS9Z5UE","","474.39999997615814","img/land5.png","75","475","2","1","2","1","0.8,0.2,0.2,0.2,0.8,0.2,0.2,0.2,0.8","0.8,0.2,0.2,0.2,0.8,0.2,0.2,0.2,0.8","1","",""
"","html-keyboard-response","157","106150","0.0-157.0","3UJ1CZ6IZIBAA7NO4NTEGTRLFV15SC","AZKFSYWVPF6JL","3P520RYKCHSO30HY2QJC6BDLS9Z5UE","","null","<img src=""img/land5.png"" style=""width:200px; border:14px solid green;"">","null","","","","","","","","","",""
"","image-keyboard-response","158","106705","0.0-158.0","3UJ1CZ6IZIBAA7NO4NTEGTRLFV15SC","AZKFSYWVPF6JL","3P520RYKCHSO30HY2QJC6BDLS9Z5UE","","554.1999999880791","img/land5.png","75","554.8000000119209","2","0","2","1","0.8,0.2,0.2,0.2,0.8,0.2,0.2,0.2,0.8","0.8,0.2,0.2,0.2,0.8,0.2,0.2,0.2,0.8","1","",""
"","html-keyboard-response","159","107006","0.0-159.0","3UJ1CZ6IZIBAA7NO4NTEGTRLFV15SC","AZKFSYWVPF6JL","3P520RYKCHSO30HY2QJC6BDLS9Z5UE","","null","<img src=""img/land5.png"" style=""width:200px;border:14px solid red;"">","null","","","","","","","","","",""
"","image-keyboard-response","160","107833","0.0-160.0","3UJ1CZ6IZIBAA7NO4NTEGTRLFV15SC","AZKFSYWVPF6JL","3P520RYKCHSO30HY2QJC6BDLS9Z5UE","","826.8000000119209","img/land2.png","76","827.1999999880791","3","1","3","1","0.8,0.2,0.2,0.2,0.8,0.2,0.2,0.2,0.8","0.8,0.2,0.2,0.2,0.8,0.2,0.2,0.2,0.8","1","",""
"","html-keyboard-response","161","108134","0.0-161.0","3UJ1CZ6IZIBAA7NO4NTEGTRLFV15SC","AZKFSYWVPF6JL","3P520RYKCHSO30HY2QJC6BDLS9Z5UE","","null","<img src=""img/land2.png"" style=""width:200px; border:14px solid green;"">","null","","","","","","","","","",""
"","image-keyboard-response","162","108881","0.0-162.0","3UJ1CZ6IZIBAA7NO4NTEGTRLFV15SC","AZKFSYWVPF6JL","3P520RYKCHSO30HY2QJC6BDLS9Z5UE","","746.4000000357628","img/land5.png","75","746.9000000357628","2","0","2","1","0.8,0.2,0.2,0.2,0.8,0.2,0.2,0.2,0.8","0.8,0.2,0.2,0.2,0.8,0.2,0.2,0.2,0.8","1","",""
"","html-keyboard-response","163","109183","0.0-163.0","3UJ1CZ6IZIBAA7NO4NTEGTRLFV15SC","AZKFSYWVPF6JL","3P520RYKCHSO30HY2QJC6BDLS9Z5UE","","null","<img src=""img/land5.png"" style=""width:200px;border:14px solid red;"">","null","","","","","","","","","",""
"","image-keyboard-response","164","109585","0.0-164.0","3UJ1CZ6IZIBAA7NO4NTEGTRLFV15SC","AZKFSYWVPF6JL","3P520RYKCHSO30HY2QJC6BDLS9Z5UE","","401.5","img/land5.png","75","401.89999997615814","2","1","2","1","0.8,0.2,0.2,0.2,0.8,0.2,0.2,0.2,0.8","0.8,0.2,0.2,0.2,0.8,0.2,0.2,0.2,0.8","1","",""
"","html-keyboard-response","165","109900","0.0-165.0","3UJ1CZ6IZIBAA7NO4NTEGTRLFV15SC","AZKFSYWVPF6JL","3P520RYKCHSO30HY2QJC6BDLS9Z5UE","","null","<img src=""img/land5.png"" style=""width:200px; border:14px solid green;"">","null","","","","","","","","","",""
"","image-keyboard-response","166","110465","0.0-166.0","3UJ1CZ6IZIBAA7NO4NTEGTRLFV15SC","AZKFSYWVPF6JL","3P520RYKCHSO30HY2QJC6BDLS9Z5UE","","564.4000000357628","img/land2.png","76","564.8999999761581","3","1","3","1","0.8,0.2,0.2,0.2,0.8,0.2,0.2,0.2,0.8","0.8,0.2,0.2,0.2,0.8,0.2,0.2,0.2,0.8","1","",""
"","html-keyboard-response","167","110765","0.0-167.0","3UJ1CZ6IZIBAA7NO4NTEGTRLFV15SC","AZKFSYWVPF6JL","3P520RYKCHSO30HY2QJC6BDLS9Z5UE","","null","<img src=""img/land2.png"" style=""width:200px; border:14px solid green;"">","null","","","","","","","","","",""
"","image-keyboard-response","168","111305","0.0-168.0","3UJ1CZ6IZIBAA7NO4NTEGTRLFV15SC","AZKFSYWVPF6JL","3P520RYKCHSO30HY2QJC6BDLS9Z5UE","","538.8000000119209","img/land5.png","75","539.1999999880791","2","0","2","1","0.8,0.2,0.2,0.2,0.8,0.2,0.2,0.2,0.8","0.8,0.2,0.2,0.2,0.8,0.2,0.2,0.2,0.8","1","",""
"","html-keyboard-response","169","111606","0.0-169.0","3UJ1CZ6IZIBAA7NO4NTEGTRLFV15SC","AZKFSYWVPF6JL","3P520RYKCHSO30HY2QJC6BDLS9Z5UE","","null","<img src=""img/land5.png"" style=""width:200px;border:14px solid red;"">","null","","","","","","","","","",""
"","image-keyboard-response","170","111953","0.0-170.0","3UJ1CZ6IZIBAA7NO4NTEGTRLFV15SC","AZKFSYWVPF6JL","3P520RYKCHSO30HY2QJC6BDLS9Z5UE","","346.19999998807907","img/land5.png","75","346.80000001192093","2","1","2","1","0.8,0.2,0.2,0.2,0.8,0.2,0.2,0.2,0.8","0.8,0.2,0.2,0.2,0.8,0.2,0.2,0.2,0.8","1","",""
"","html-keyboard-response","171","112253","0.0-171.0","3UJ1CZ6IZIBAA7NO4NTEGTRLFV15SC","AZKFSYWVPF6JL","3P520RYKCHSO30HY2QJC6BDLS9Z5UE","","null","<img src=""img/land5.png"" style=""width:200px; border:14px solid green;"">","null","","","","","","","","","",""
"","image-keyboard-response","172","112569","0.0-172.0","3UJ1CZ6IZIBAA7NO4NTEGTRLFV15SC","AZKFSYWVPF6JL","3P520RYKCHSO30HY2QJC6BDLS9Z5UE","","314.80000001192093","img/land5.png","75","315.30000001192093","2","1","2","1","0.8,0.2,0.2,0.2,0.8,0.2,0.2,0.2,0.8","0.8,0.2,0.2,0.2,0.8,0.2,0.2,0.2,0.8","1","",""
"","html-keyboard-response","173","112870","0.0-173.0","3UJ1CZ6IZIBAA7NO4NTEGTRLFV15SC","AZKFSYWVPF6JL","3P520RYKCHSO30HY2QJC6BDLS9Z5UE","","null","<img src=""img/land5.png"" style=""width:200px; border:14px solid green;"">","null","","","","","","","","","",""
"","image-keyboard-response","174","113641","0.0-174.0","3UJ1CZ6IZIBAA7NO4NTEGTRLFV15SC","AZKFSYWVPF6JL","3P520RYKCHSO30HY2QJC6BDLS9Z5UE","","770.2000000476837","img/land2.png","76","770.6999999880791","3","0","3","1","0.8,0.2,0.2,0.2,0.8,0.2,0.2,0.2,0.8","0.8,0.2,0.2,0.2,0.8,0.2,0.2,0.2,0.8","1","",""
"","html-keyboard-response","175","113942","0.0-175.0","3UJ1CZ6IZIBAA7NO4NTEGTRLFV15SC","AZKFSYWVPF6JL","3P520RYKCHSO30HY2QJC6BDLS9Z5UE","","null","<img src=""img/land2.png"" style=""width:200px;border:14px solid red;"">","null","","","","","","","","","",""
"","image-keyboard-response","176","114505","0.0-176.0","3UJ1CZ6IZIBAA7NO4NTEGTRLFV15SC","AZKFSYWVPF6JL","3P520RYKCHSO30HY2QJC6BDLS9Z5UE","","561.8999999761581","img/land5.png","75","562.3999999761581","2","1","2","1","0.8,0.2,0.2,0.2,0.8,0.2,0.2,0.2,0.8","0.8,0.2,0.2,0.2,0.8,0.2,0.2,0.2,0.8","1","",""
"","html-keyboard-response","177","114806","0.0-177.0","3UJ1CZ6IZIBAA7NO4NTEGTRLFV15SC","AZKFSYWVPF6JL","3P520RYKCHSO30HY2QJC6BDLS9Z5UE","","null","<img src=""img/land5.png"" style=""width:200px; border:14px solid green;"">","null","","","","","","","","","",""
"","image-keyboard-response","178","115409","0.0-178.0","3UJ1CZ6IZIBAA7NO4NTEGTRLFV15SC","AZKFSYWVPF6JL","3P520RYKCHSO30HY2QJC6BDLS9Z5UE","","601.8000000119209","img/land2.png","76","602.1999999880791","3","1","3","1","0.8,0.2,0.2,0.2,0.8,0.2,0.2,0.2,0.8","0.8,0.2,0.2,0.2,0.8,0.2,0.2,0.2,0.8","1","",""
"","html-keyboard-response","179","115710","0.0-179.0","3UJ1CZ6IZIBAA7NO4NTEGTRLFV15SC","AZKFSYWVPF6JL","3P520RYKCHSO30HY2QJC6BDLS9Z5UE","","null","<img src=""img/land2.png"" style=""width:200px; border:14px solid green;"">","null","","","","","","","","","",""
"","image-keyboard-response","180","116385","0.0-180.0","3UJ1CZ6IZIBAA7NO4NTEGTRLFV15SC","AZKFSYWVPF6JL","3P520RYKCHSO30HY2QJC6BDLS9Z5UE","","674.2000000476837","img/land2.png","76","674.6999999880791","3","1","3","1","0.8,0.2,0.2,0.2,0.8,0.2,0.2,0.2,0.8","0.8,0.2,0.2,0.2,0.8,0.2,0.2,0.2,0.8","1","",""
"","html-keyboard-response","181","116687","0.0-181.0","3UJ1CZ6IZIBAA7NO4NTEGTRLFV15SC","AZKFSYWVPF6JL","3P520RYKCHSO30HY2QJC6BDLS9Z5UE","","null","<img src=""img/land2.png"" style=""width:200px; border:14px solid green;"">","null","","","","","","","","","",""
"","html-keyboard-response","182","120715","0.0-182.0","3UJ1CZ6IZIBAA7NO4NTEGTRLFV15SC","AZKFSYWVPF6JL","3P520RYKCHSO30HY2QJC6BDLS9Z5UE","","","","","","","","","","","","","",""
"","image-keyboard-response","183","121736","0.0-183.0","3UJ1CZ6IZIBAA7NO4NTEGTRLFV15SC","AZKFSYWVPF6JL","3P520RYKCHSO30HY2QJC6BDLS9Z5UE","","1020.3000000119209","img/land1.png","74","1021","1","1","1","2","0.8,0.2,0.2,0.2,0.8,0.2,0.2,0.2,0.8","0.8,0.2,0.2,0.2,0.8,0.2,0.2,0.2,0.8","1","",""
"","html-keyboard-response","184","122037","0.0-184.0","3UJ1CZ6IZIBAA7NO4NTEGTRLFV15SC","AZKFSYWVPF6JL","3P520RYKCHSO30HY2QJC6BDLS9Z5UE","","null","<img src=""img/land1.png"" style=""width:200px; border:14px solid green;"">","null","","","","","","","","","",""
"","image-keyboard-response","185","122488","0.0-185.0","3UJ1CZ6IZIBAA7NO4NTEGTRLFV15SC","AZKFSYWVPF6JL","3P520RYKCHSO30HY2QJC6BDLS9Z5UE","","450.39999997615814","img/land1.png","74","450.80000001192093","1","1","1","2","0.8,0.2,0.2,0.2,0.8,0.2,0.2,0.2,0.8","0.8,0.2,0.2,0.2,0.8,0.2,0.2,0.2,0.8","1","",""
"","html-keyboard-response","186","122789","0.0-186.0","3UJ1CZ6IZIBAA7NO4NTEGTRLFV15SC","AZKFSYWVPF6JL","3P520RYKCHSO30HY2QJC6BDLS9Z5UE","","null","<img src=""img/land1.png"" style=""width:200px; border:14px solid green;"">","null","","","","","","","","","",""
"","image-keyboard-response","187","123384","0.0-187.0","3UJ1CZ6IZIBAA7NO4NTEGTRLFV15SC","AZKFSYWVPF6JL","3P520RYKCHSO30HY2QJC6BDLS9Z5UE","","594.3000000119209","img/land1.png","74","594.6999999880791","1","1","1","2","0.8,0.2,0.2,0.2,0.8,0.2,0.2,0.2,0.8","0.8,0.2,0.2,0.2,0.8,0.2,0.2,0.2,0.8","1","",""
"","html-keyboard-response","188","123686","0.0-188.0","3UJ1CZ6IZIBAA7NO4NTEGTRLFV15SC","AZKFSYWVPF6JL","3P520RYKCHSO30HY2QJC6BDLS9Z5UE","","null","<img src=""img/land1.png"" style=""width:200px; border:14px solid green;"">","null","","","","","","","","","",""
"","image-keyboard-response","189","124376","0.0-189.0","3UJ1CZ6IZIBAA7NO4NTEGTRLFV15SC","AZKFSYWVPF6JL","3P520RYKCHSO30HY2QJC6BDLS9Z5UE","","690","img/land3.png","75","690.5","2","0","2","2","0.8,0.2,0.2,0.2,0.8,0.2,0.2,0.2,0.8","0.8,0.2,0.2,0.2,0.8,0.2,0.2,0.2,0.8","1","",""
"","html-keyboard-response","190","124677","0.0-190.0","3UJ1CZ6IZIBAA7NO4NTEGTRLFV15SC","AZKFSYWVPF6JL","3P520RYKCHSO30HY2QJC6BDLS9Z5UE","","null","<img src=""img/land3.png"" style=""width:200px;border:14px solid red;"">","null","","","","","","","","","",""
"","image-keyboard-response","191","125112","0.0-191.0","3UJ1CZ6IZIBAA7NO4NTEGTRLFV15SC","AZKFSYWVPF6JL","3P520RYKCHSO30HY2QJC6BDLS9Z5UE","","434.4000000357628","img/land3.png","76","434.9000000357628","3","0","2","2","0.8,0.2,0.2,0.2,0.8,0.2,0.2,0.2,0.8","0.8,0.2,0.2,0.2,0.8,0.2,0.2,0.2,0.8","1","",""
"","html-keyboard-response","192","125414","0.0-192.0","3UJ1CZ6IZIBAA7NO4NTEGTRLFV15SC","AZKFSYWVPF6JL","3P520RYKCHSO30HY2QJC6BDLS9Z5UE","","null","<img src=""img/land3.png"" style=""width:200px;border:14px solid red;"">","null","","","","","","","","","",""
"","image-keyboard-response","193","126232","0.0-193.0","3UJ1CZ6IZIBAA7NO4NTEGTRLFV15SC","AZKFSYWVPF6JL","3P520RYKCHSO30HY2QJC6BDLS9Z5UE","","817.1999999880791","img/land1.png","74","817.6000000238419","1","1","1","2","0.8,0.2,0.2,0.2,0.8,0.2,0.2,0.2,0.8","0.8,0.2,0.2,0.2,0.8,0.2,0.2,0.2,0.8","1","",""
"","html-keyboard-response","194","126533","0.0-194.0","3UJ1CZ6IZIBAA7NO4NTEGTRLFV15SC","AZKFSYWVPF6JL","3P520RYKCHSO30HY2QJC6BDLS9Z5UE","","null","<img src=""img/land1.png"" style=""width:200px; border:14px solid green;"">","null","","","","","","","","","",""
"","image-keyboard-response","195","127496","0.0-195.0","3UJ1CZ6IZIBAA7NO4NTEGTRLFV15SC","AZKFSYWVPF6JL","3P520RYKCHSO30HY2QJC6BDLS9Z5UE","","962.6000000238419","img/land6.png","75","963.1999999880791","2","0","3","2","0.8,0.2,0.2,0.2,0.8,0.2,0.2,0.2,0.8","0.8,0.2,0.2,0.2,0.8,0.2,0.2,0.2,0.8","1","",""
"","html-keyboard-response","196","127797","0.0-196.0","3UJ1CZ6IZIBAA7NO4NTEGTRLFV15SC","AZKFSYWVPF6JL","3P520RYKCHSO30HY2QJC6BDLS9Z5UE","","null","<img src=""img/land6.png"" style=""width:200px;border:14px solid red;"">","null","","","","","","","","","",""
"","image-keyboard-response","197","128472","0.0-197.0","3UJ1CZ6IZIBAA7NO4NTEGTRLFV15SC","AZKFSYWVPF6JL","3P520RYKCHSO30HY2QJC6BDLS9Z5UE","","674.5","img/land3.png","74","675.1000000238419","1","0","2","2","0.8,0.2,0.2,0.2,0.8,0.2,0.2,0.2,0.8","0.8,0.2,0.2,0.2,0.8,0.2,0.2,0.2,0.8","1","",""
"","html-keyboard-response","198","128773","0.0-198.0","3UJ1CZ6IZIBAA7NO4NTEGTRLFV15SC","AZKFSYWVPF6JL","3P520RYKCHSO30HY2QJC6BDLS9Z5UE","","null","<img src=""img/land3.png"" style=""width:200px;border:14px solid red;"">","null","","","","","","","","","",""
"","image-keyboard-response","199","129000","0.0-199.0","3UJ1CZ6IZIBAA7NO4NTEGTRLFV15SC","AZKFSYWVPF6JL","3P520RYKCHSO30HY2QJC6BDLS9Z5UE","","226.30000001192093","img/land1.png","74","226.9000000357628","1","1","1","2","0.8,0.2,0.2,0.2,0.8,0.2,0.2,0.2,0.8","0.8,0.2,0.2,0.2,0.8,0.2,0.2,0.2,0.8","1","",""
"","html-keyboard-response","200","129301","0.0-200.0","3UJ1CZ6IZIBAA7NO4NTEGTRLFV15SC","AZKFSYWVPF6JL","3P520RYKCHSO30HY2QJC6BDLS9Z5UE","","null","<img src=""img/land1.png"" style=""width:200px; border:14px solid green;"">","null","","","","","","","","","",""
"","image-keyboard-response","201","130256","0.0-201.0","3UJ1CZ6IZIBAA7NO4NTEGTRLFV15SC","AZKFSYWVPF6JL","3P520RYKCHSO30HY2QJC6BDLS9Z5UE","","954.3999999761581","img/land6.png","75","954.8999999761581","2","0","3","2","0.8,0.2,0.2,0.2,0.8,0.2,0.2,0.2,0.8","0.8,0.2,0.2,0.2,0.8,0.2,0.2,0.2,0.8","1","",""
"","html-keyboard-response","202","130557","0.0-202.0","3UJ1CZ6IZIBAA7NO4NTEGTRLFV15SC","AZKFSYWVPF6JL","3P520RYKCHSO30HY2QJC6BDLS9Z5UE","","null","<img src=""img/land6.png"" style=""width:200px;border:14px solid red;"">","null","","","","","","","","","",""
"","image-keyboard-response","203","131304","0.0-203.0","3UJ1CZ6IZIBAA7NO4NTEGTRLFV15SC","AZKFSYWVPF6JL","3P520RYKCHSO30HY2QJC6BDLS9Z5UE","","746.0999999642372","img/land6.png","76","746.5999999642372","3","1","3","2","0.8,0.2,0.2,0.2,0.8,0.2,0.2,0.2,0.8","0.8,0.2,0.2,0.2,0.8,0.2,0.2,0.2,0.8","1","",""
"","html-keyboard-response","204","131606","0.0-204.0","3UJ1CZ6IZIBAA7NO4NTEGTRLFV15SC","AZKFSYWVPF6JL","3P520RYKCHSO30HY2QJC6BDLS9Z5UE","","null","<img src=""img/land6.png"" style=""width:200px; border:14px solid green;"">","null","","","","","","","","","",""
"","image-keyboard-response","205","132520","0.0-205.0","3UJ1CZ6IZIBAA7NO4NTEGTRLFV15SC","AZKFSYWVPF6JL","3P520RYKCHSO30HY2QJC6BDLS9Z5UE","","913.8000000119209","img/land1.png","74","914.3000000119209","1","1","1","2","0.8,0.2,0.2,0.2,0.8,0.2,0.2,0.2,0.8","0.8,0.2,0.2,0.2,0.8,0.2,0.2,0.2,0.8","1","",""
"","html-keyboard-response","206","132821","0.0-206.0","3UJ1CZ6IZIBAA7NO4NTEGTRLFV15SC","AZKFSYWVPF6JL","3P520RYKCHSO30HY2QJC6BDLS9Z5UE","","null","<img src=""img/land1.png"" style=""width:200px; border:14px solid green;"">","null","","","","","","","","","",""
"","image-keyboard-response","207","133336","0.0-207.0","3UJ1CZ6IZIBAA7NO4NTEGTRLFV15SC","AZKFSYWVPF6JL","3P520RYKCHSO30HY2QJC6BDLS9Z5UE","","514.4000000357628","img/land1.png","74","514.9000000357628","1","1","1","2","0.8,0.2,0.2,0.2,0.8,0.2,0.2,0.2,0.8","0.8,0.2,0.2,0.2,0.8,0.2,0.2,0.2,0.8","1","",""
"","html-keyboard-response","208","133637","0.0-208.0","3UJ1CZ6IZIBAA7NO4NTEGTRLFV15SC","AZKFSYWVPF6JL","3P520RYKCHSO30HY2QJC6BDLS9Z5UE","","null","<img src=""img/land1.png"" style=""width:200px; border:14px solid green;"">","null","","","","","","","","","",""
"","image-keyboard-response","209","133976","0.0-209.0","3UJ1CZ6IZIBAA7NO4NTEGTRLFV15SC","AZKFSYWVPF6JL","3P520RYKCHSO30HY2QJC6BDLS9Z5UE","","338.80000001192093","img/land1.png","74","339.39999997615814","1","1","1","2","0.8,0.2,0.2,0.2,0.8,0.2,0.2,0.2,0.8","0.8,0.2,0.2,0.2,0.8,0.2,0.2,0.2,0.8","1","",""
"","html-keyboard-response","210","134278","0.0-210.0","3UJ1CZ6IZIBAA7NO4NTEGTRLFV15SC","AZKFSYWVPF6JL","3P520RYKCHSO30HY2QJC6BDLS9Z5UE","","null","<img src=""img/land1.png"" style=""width:200px; border:14px solid green;"">","null","","","","","","","","","",""
"","image-keyboard-response","211","134824","0.0-211.0","3UJ1CZ6IZIBAA7NO4NTEGTRLFV15SC","AZKFSYWVPF6JL","3P520RYKCHSO30HY2QJC6BDLS9Z5UE","","545.8000000119209","img/land3.png","75","546.3000000119209","2","1","2","2","0.8,0.2,0.2,0.2,0.8,0.2,0.2,0.2,0.8","0.8,0.2,0.2,0.2,0.8,0.2,0.2,0.2,0.8","1","",""
"","html-keyboard-response","212","135131","0.0-212.0","3UJ1CZ6IZIBAA7NO4NTEGTRLFV15SC","AZKFSYWVPF6JL","3P520RYKCHSO30HY2QJC6BDLS9Z5UE","","null","<img src=""img/land3.png"" style=""width:200px; border:14px solid green;"">","null","","","","","","","","","",""
"","image-keyboard-response","213","135584","0.0-213.0","3UJ1CZ6IZIBAA7NO4NTEGTRLFV15SC","AZKFSYWVPF6JL","3P520RYKCHSO30HY2QJC6BDLS9Z5UE","","452.2000000476837","img/land3.png","75","452.89999997615814","2","1","2","2","0.8,0.2,0.2,0.2,0.8,0.2,0.2,0.2,0.8","0.8,0.2,0.2,0.2,0.8,0.2,0.2,0.2,0.8","1","",""
"","html-keyboard-response","214","135899","0.0-214.0","3UJ1CZ6IZIBAA7NO4NTEGTRLFV15SC","AZKFSYWVPF6JL","3P520RYKCHSO30HY2QJC6BDLS9Z5UE","","null","<img src=""img/land3.png"" style=""width:200px; border:14px solid green;"">","null","","","","","","","","","",""
"","image-keyboard-response","215","136232","0.0-215.0","3UJ1CZ6IZIBAA7NO4NTEGTRLFV15SC","AZKFSYWVPF6JL","3P520RYKCHSO30HY2QJC6BDLS9Z5UE","","332.89999997615814","img/land3.png","75","333.39999997615814","2","1","2","2","0.8,0.2,0.2,0.2,0.8,0.2,0.2,0.2,0.8","0.8,0.2,0.2,0.2,0.8,0.2,0.2,0.2,0.8","1","",""
"","html-keyboard-response","216","136534","0.0-216.0","3UJ1CZ6IZIBAA7NO4NTEGTRLFV15SC","AZKFSYWVPF6JL","3P520RYKCHSO30HY2QJC6BDLS9Z5UE","","null","<img src=""img/land3.png"" style=""width:200px; border:14px solid green;"">","null","","","","","","","","","",""
"","image-keyboard-response","217","137056","0.0-217.0","3UJ1CZ6IZIBAA7NO4NTEGTRLFV15SC","AZKFSYWVPF6JL","3P520RYKCHSO30HY2QJC6BDLS9Z5UE","","521.7000000476837","img/land6.png","76","522.5","3","0","3","2","0.8,0.2,0.2,0.2,0.8,0.2,0.2,0.2,0.8","0.8,0.2,0.2,0.2,0.8,0.2,0.2,0.2,0.8","1","",""
"","html-keyboard-response","218","137358","0.0-218.0","3UJ1CZ6IZIBAA7NO4NTEGTRLFV15SC","AZKFSYWVPF6JL","3P520RYKCHSO30HY2QJC6BDLS9Z5UE","","null","<img src=""img/land6.png"" style=""width:200px;border:14px solid red;"">","null","","","","","","","","","",""
"","image-keyboard-response","219","138096","0.0-219.0","3UJ1CZ6IZIBAA7NO4NTEGTRLFV15SC","AZKFSYWVPF6JL","3P520RYKCHSO30HY2QJC6BDLS9Z5UE","","737.8999999761581","img/land3.png","75","738.4000000357628","2","1","2","2","0.8,0.2,0.2,0.2,0.8,0.2,0.2,0.2,0.8","0.8,0.2,0.2,0.2,0.8,0.2,0.2,0.2,0.8","1","",""
"","html-keyboard-response","220","138397","0.0-220.0","3UJ1CZ6IZIBAA7NO4NTEGTRLFV15SC","AZKFSYWVPF6JL","3P520RYKCHSO30HY2QJC6BDLS9Z5UE","","null","<img src=""img/land3.png"" style=""width:200px; border:14px solid green;"">","null","","","","","","","","","",""
"","image-keyboard-response","221","138888","0.0-221.0","3UJ1CZ6IZIBAA7NO4NTEGTRLFV15SC","AZKFSYWVPF6JL","3P520RYKCHSO30HY2QJC6BDLS9Z5UE","","490.30000001192093","img/land6.png","76","490.69999998807907","3","1","3","2","0.8,0.2,0.2,0.2,0.8,0.2,0.2,0.2,0.8","0.8,0.2,0.2,0.2,0.8,0.2,0.2,0.2,0.8","1","",""
"","html-keyboard-response","222","139198","0.0-222.0","3UJ1CZ6IZIBAA7NO4NTEGTRLFV15SC","AZKFSYWVPF6JL","3P520RYKCHSO30HY2QJC6BDLS9Z5UE","","null","<img src=""img/land6.png"" style=""width:200px; border:14px solid green;"">","null","","","","","","","","","",""
"","image-keyboard-response","223","139928","0.0-223.0","3UJ1CZ6IZIBAA7NO4NTEGTRLFV15SC","AZKFSYWVPF6JL","3P520RYKCHSO30HY2QJC6BDLS9Z5UE","","729.8000000119209","img/land1.png","74","730.3000000119209","1","1","1","2","0.8,0.2,0.2,0.2,0.8,0.2,0.2,0.2,0.8","0.8,0.2,0.2,0.2,0.8,0.2,0.2,0.2,0.8","1","",""
"","html-keyboard-response","224","140229","0.0-224.0","3UJ1CZ6IZIBAA7NO4NTEGTRLFV15SC","AZKFSYWVPF6JL","3P520RYKCHSO30HY2QJC6BDLS9Z5UE","","null","<img src=""img/land1.png"" style=""width:200px; border:14px solid green;"">","null","","","","","","","","","",""
"","image-keyboard-response","225","140680","0.0-225.0","3UJ1CZ6IZIBAA7NO4NTEGTRLFV15SC","AZKFSYWVPF6JL","3P520RYKCHSO30HY2QJC6BDLS9Z5UE","","450.80000001192093","img/land3.png","75","451.39999997615814","2","1","2","2","0.8,0.2,0.2,0.2,0.8,0.2,0.2,0.2,0.8","0.8,0.2,0.2,0.2,0.8,0.2,0.2,0.2,0.8","1","",""
"","html-keyboard-response","226","140982","0.0-226.0","3UJ1CZ6IZIBAA7NO4NTEGTRLFV15SC","AZKFSYWVPF6JL","3P520RYKCHSO30HY2QJC6BDLS9Z5UE","","null","<img src=""img/land3.png"" style=""width:200px; border:14px solid green;"">","null","","","","","","","","","",""
"","image-keyboard-response","227","141496","0.0-227.0","3UJ1CZ6IZIBAA7NO4NTEGTRLFV15SC","AZKFSYWVPF6JL","3P520RYKCHSO30HY2QJC6BDLS9Z5UE","","514","img/land1.png","76","514.3999999761581","3","0","1","2","0.8,0.2,0.2,0.2,0.8,0.2,0.2,0.2,0.8","0.8,0.2,0.2,0.2,0.8,0.2,0.2,0.2,0.8","1","",""
"","html-keyboard-response","228","141798","0.0-228.0","3UJ1CZ6IZIBAA7NO4NTEGTRLFV15SC","AZKFSYWVPF6JL","3P520RYKCHSO30HY2QJC6BDLS9Z5UE","","null","<img src=""img/land1.png"" style=""width:200px;border:14px solid red;"">","null","","","","","","","","","",""
"","image-keyboard-response","229","141912","0.0-229.0","3UJ1CZ6IZIBAA7NO4NTEGTRLFV15SC","AZKFSYWVPF6JL","3P520RYKCHSO30HY2QJC6BDLS9Z5UE","","113.20000004768372","img/land1.png","74","113.80000001192093","1","1","1","2","0.8,0.2,0.2,0.2,0.8,0.2,0.2,0.2,0.8","0.8,0.2,0.2,0.2,0.8,0.2,0.2,0.2,0.8","1","",""
"","html-keyboard-response","230","142213","0.0-230.0","3UJ1CZ6IZIBAA7NO4NTEGTRLFV15SC","AZKFSYWVPF6JL","3P520RYKCHSO30HY2QJC6BDLS9Z5UE","","null","<img src=""img/land1.png"" style=""width:200px; border:14px solid green;"">","null","","","","","","","","","",""
"","image-keyboard-response","231","142584","0.0-231.0","3UJ1CZ6IZIBAA7NO4NTEGTRLFV15SC","AZKFSYWVPF6JL","3P520RYKCHSO30HY2QJC6BDLS9Z5UE","","370.10000002384186","img/land1.png","74","370.60000002384186","1","1","1","2","0.8,0.2,0.2,0.2,0.8,0.2,0.2,0.2,0.8","0.8,0.2,0.2,0.2,0.8,0.2,0.2,0.2,0.8","1","",""
"","html-keyboard-response","232","142886","0.0-232.0","3UJ1CZ6IZIBAA7NO4NTEGTRLFV15SC","AZKFSYWVPF6JL","3P520RYKCHSO30HY2QJC6BDLS9Z5UE","","null","<img src=""img/land1.png"" style=""width:200px; border:14px solid green;"">","null","","","","","","","","","",""
"","image-keyboard-response","233","143784","0.0-233.0","3UJ1CZ6IZIBAA7NO4NTEGTRLFV15SC","AZKFSYWVPF6JL","3P520RYKCHSO30HY2QJC6BDLS9Z5UE","","897.1999999880791","img/land6.png","76","897.7999999523163","3","1","3","2","0.8,0.2,0.2,0.2,0.8,0.2,0.2,0.2,0.8","0.8,0.2,0.2,0.2,0.8,0.2,0.2,0.2,0.8","1","",""
"","html-keyboard-response","234","144086","0.0-234.0","3UJ1CZ6IZIBAA7NO4NTEGTRLFV15SC","AZKFSYWVPF6JL","3P520RYKCHSO30HY2QJC6BDLS9Z5UE","","null","<img src=""img/land6.png"" style=""width:200px; border:14px solid green;"">","null","","","","","","","","","",""
"","image-keyboard-response","235","144696","0.0-235.0","3UJ1CZ6IZIBAA7NO4NTEGTRLFV15SC","AZKFSYWVPF6JL","3P520RYKCHSO30HY2QJC6BDLS9Z5UE","","609.8000000119209","img/land1.png","74","610.3999999761581","1","1","1","2","0.8,0.2,0.2,0.2,0.8,0.2,0.2,0.2,0.8","0.8,0.2,0.2,0.2,0.8,0.2,0.2,0.2,0.8","1","",""
"","html-keyboard-response","236","144997","0.0-236.0","3UJ1CZ6IZIBAA7NO4NTEGTRLFV15SC","AZKFSYWVPF6JL","3P520RYKCHSO30HY2QJC6BDLS9Z5UE","","null","<img src=""img/land1.png"" style=""width:200px; border:14px solid green;"">","null","","","","","","","","","",""
"","image-keyboard-response","237","145736","0.0-237.0","3UJ1CZ6IZIBAA7NO4NTEGTRLFV15SC","AZKFSYWVPF6JL","3P520RYKCHSO30HY2QJC6BDLS9Z5UE","","738.3000000119209","img/land3.png","75","738.7999999523163","2","1","2","2","0.8,0.2,0.2,0.2,0.8,0.2,0.2,0.2,0.8","0.8,0.2,0.2,0.2,0.8,0.2,0.2,0.2,0.8","1","",""
"","html-keyboard-response","238","146038","0.0-238.0","3UJ1CZ6IZIBAA7NO4NTEGTRLFV15SC","AZKFSYWVPF6JL","3P520RYKCHSO30HY2QJC6BDLS9Z5UE","","null","<img src=""img/land3.png"" style=""width:200px; border:14px solid green;"">","null","","","","","","","","","",""
"","image-keyboard-response","239","146632","0.0-239.0","3UJ1CZ6IZIBAA7NO4NTEGTRLFV15SC","AZKFSYWVPF6JL","3P520RYKCHSO30HY2QJC6BDLS9Z5UE","","593.8000000119209","img/land3.png","75","594.3000000119209","2","1","2","2","0.8,0.2,0.2,0.2,0.8,0.2,0.2,0.2,0.8","0.8,0.2,0.2,0.2,0.8,0.2,0.2,0.2,0.8","1","",""
"","html-keyboard-response","240","146934","0.0-240.0","3UJ1CZ6IZIBAA7NO4NTEGTRLFV15SC","AZKFSYWVPF6JL","3P520RYKCHSO30HY2QJC6BDLS9Z5UE","","null","<img src=""img/land3.png"" style=""width:200px; border:14px solid green;"">","null","","","","","","","","","",""
"","image-keyboard-response","241","147872","0.0-241.0","3UJ1CZ6IZIBAA7NO4NTEGTRLFV15SC","AZKFSYWVPF6JL","3P520RYKCHSO30HY2QJC6BDLS9Z5UE","","938","img/land6.png","76","938.5","3","1","3","2","0.8,0.2,0.2,0.2,0.8,0.2,0.2,0.2,0.8","0.8,0.2,0.2,0.2,0.8,0.2,0.2,0.2,0.8","1","",""
"","html-keyboard-response","242","148173","0.0-242.0","3UJ1CZ6IZIBAA7NO4NTEGTRLFV15SC","AZKFSYWVPF6JL","3P520RYKCHSO30HY2QJC6BDLS9Z5UE","","null","<img src=""img/land6.png"" style=""width:200px; border:14px solid green;"">","null","","","","","","","","","",""
"","image-keyboard-response","243","148904","0.0-243.0","3UJ1CZ6IZIBAA7NO4NTEGTRLFV15SC","AZKFSYWVPF6JL","3P520RYKCHSO30HY2QJC6BDLS9Z5UE","","730.5999999642372","img/land1.png","74","731.1999999880791","1","0","1","2","0.8,0.2,0.2,0.2,0.8,0.2,0.2,0.2,0.8","0.8,0.2,0.2,0.2,0.8,0.2,0.2,0.2,0.8","1","",""
"","html-keyboard-response","244","149206","0.0-244.0","3UJ1CZ6IZIBAA7NO4NTEGTRLFV15SC","AZKFSYWVPF6JL","3P520RYKCHSO30HY2QJC6BDLS9Z5UE","","null","<img src=""img/land1.png"" style=""width:200px;border:14px solid red;"">","null","","","","","","","","","",""
"","image-keyboard-response","245","149688","0.0-245.0","3UJ1CZ6IZIBAA7NO4NTEGTRLFV15SC","AZKFSYWVPF6JL","3P520RYKCHSO30HY2QJC6BDLS9Z5UE","","482.0999999642372","img/land1.png","74","482.5999999642372","1","0","1","2","0.8,0.2,0.2,0.2,0.8,0.2,0.2,0.2,0.8","0.8,0.2,0.2,0.2,0.8,0.2,0.2,0.2,0.8","1","",""
"","html-keyboard-response","246","149990","0.0-246.0","3UJ1CZ6IZIBAA7NO4NTEGTRLFV15SC","AZKFSYWVPF6JL","3P520RYKCHSO30HY2QJC6BDLS9Z5UE","","null","<img src=""img/land1.png"" style=""width:200px;border:14px solid red;"">","null","","","","","","","","","",""
"","image-keyboard-response","247","150336","0.0-247.0","3UJ1CZ6IZIBAA7NO4NTEGTRLFV15SC","AZKFSYWVPF6JL","3P520RYKCHSO30HY2QJC6BDLS9Z5UE","","346","img/land1.png","74","346.4000000357628","1","1","1","2","0.8,0.2,0.2,0.2,0.8,0.2,0.2,0.2,0.8","0.8,0.2,0.2,0.2,0.8,0.2,0.2,0.2,0.8","1","",""
"","html-keyboard-response","248","150637","0.0-248.0","3UJ1CZ6IZIBAA7NO4NTEGTRLFV15SC","AZKFSYWVPF6JL","3P520RYKCHSO30HY2QJC6BDLS9Z5UE","","null","<img src=""img/land1.png"" style=""width:200px; border:14px solid green;"">","null","","","","","","","","","",""
"","image-keyboard-response","249","151096","0.0-249.0","3UJ1CZ6IZIBAA7NO4NTEGTRLFV15SC","AZKFSYWVPF6JL","3P520RYKCHSO30HY2QJC6BDLS9Z5UE","","458.30000001192093","img/land1.png","74","458.89999997615814","1","1","1","2","0.8,0.2,0.2,0.2,0.8,0.2,0.2,0.2,0.8","0.8,0.2,0.2,0.2,0.8,0.2,0.2,0.2,0.8","1","",""
"","html-keyboard-response","250","151398","0.0-250.0","3UJ1CZ6IZIBAA7NO4NTEGTRLFV15SC","AZKFSYWVPF6JL","3P520RYKCHSO30HY2QJC6BDLS9Z5UE","","null","<img src=""img/land1.png"" style=""width:200px; border:14px solid green;"">","null","","","","","","","","","",""
"","image-keyboard-response","251","151784","0.0-251.0","3UJ1CZ6IZIBAA7NO4NTEGTRLFV15SC","AZKFSYWVPF6JL","3P520RYKCHSO30HY2QJC6BDLS9Z5UE","","386","img/land1.png","74","386.60000002384186","1","1","1","2","0.8,0.2,0.2,0.2,0.8,0.2,0.2,0.2,0.8","0.8,0.2,0.2,0.2,0.8,0.2,0.2,0.2,0.8","1","",""
"","html-keyboard-response","252","152086","0.0-252.0","3UJ1CZ6IZIBAA7NO4NTEGTRLFV15SC","AZKFSYWVPF6JL","3P520RYKCHSO30HY2QJC6BDLS9Z5UE","","null","<img src=""img/land1.png"" style=""width:200px; border:14px solid green;"">","null","","","","","","","","","",""
"","image-keyboard-response","253","152312","0.0-253.0","3UJ1CZ6IZIBAA7NO4NTEGTRLFV15SC","AZKFSYWVPF6JL","3P520RYKCHSO30HY2QJC6BDLS9Z5UE","","226","img/land6.png","74","226.5","1","0","3","2","0.8,0.2,0.2,0.2,0.8,0.2,0.2,0.2,0.8","0.8,0.2,0.2,0.2,0.8,0.2,0.2,0.2,0.8","1","",""
"","html-keyboard-response","254","152613","0.0-254.0","3UJ1CZ6IZIBAA7NO4NTEGTRLFV15SC","AZKFSYWVPF6JL","3P520RYKCHSO30HY2QJC6BDLS9Z5UE","","null","<img src=""img/land6.png"" style=""width:200px;border:14px solid red;"">","null","","","","","","","","","",""
"","image-keyboard-response","255","153072","0.0-255.0","3UJ1CZ6IZIBAA7NO4NTEGTRLFV15SC","AZKFSYWVPF6JL","3P520RYKCHSO30HY2QJC6BDLS9Z5UE","","458.30000001192093","img/land6.png","76","459","3","0","3","2","0.8,0.2,0.2,0.2,0.8,0.2,0.2,0.2,0.8","0.8,0.2,0.2,0.2,0.8,0.2,0.2,0.2,0.8","1","",""
"","html-keyboard-response","256","153373","0.0-256.0","3UJ1CZ6IZIBAA7NO4NTEGTRLFV15SC","AZKFSYWVPF6JL","3P520RYKCHSO30HY2QJC6BDLS9Z5UE","","null","<img src=""img/land6.png"" style=""width:200px;border:14px solid red;"">","null","","","","","","","","","",""
"","image-keyboard-response","257","154488","0.0-257.0","3UJ1CZ6IZIBAA7NO4NTEGTRLFV15SC","AZKFSYWVPF6JL","3P520RYKCHSO30HY2QJC6BDLS9Z5UE","","1114.699999988079","img/land3.png","75","1115.199999988079","2","1","2","2","0.8,0.2,0.2,0.2,0.8,0.2,0.2,0.2,0.8","0.8,0.2,0.2,0.2,0.8,0.2,0.2,0.2,0.8","1","",""
"","html-keyboard-response","258","154790","0.0-258.0","3UJ1CZ6IZIBAA7NO4NTEGTRLFV15SC","AZKFSYWVPF6JL","3P520RYKCHSO30HY2QJC6BDLS9Z5UE","","null","<img src=""img/land3.png"" style=""width:200px; border:14px solid green;"">","null","","","","","","","","","",""
"","image-keyboard-response","259","155672","0.0-259.0","3UJ1CZ6IZIBAA7NO4NTEGTRLFV15SC","AZKFSYWVPF6JL","3P520RYKCHSO30HY2QJC6BDLS9Z5UE","","882.1999999880791","img/land1.png","74","882.5999999642372","1","1","1","2","0.8,0.2,0.2,0.2,0.8,0.2,0.2,0.2,0.8","0.8,0.2,0.2,0.2,0.8,0.2,0.2,0.2,0.8","1","",""
"","html-keyboard-response","260","155974","0.0-260.0","3UJ1CZ6IZIBAA7NO4NTEGTRLFV15SC","AZKFSYWVPF6JL","3P520RYKCHSO30HY2QJC6BDLS9Z5UE","","null","<img src=""img/land1.png"" style=""width:200px; border:14px solid green;"">","null","","","","","","","","","",""
"","image-keyboard-response","261","156416","0.0-261.0","3UJ1CZ6IZIBAA7NO4NTEGTRLFV15SC","AZKFSYWVPF6JL","3P520RYKCHSO30HY2QJC6BDLS9Z5UE","","441.80000001192093","img/land1.png","74","442.89999997615814","1","1","1","2","0.8,0.2,0.2,0.2,0.8,0.2,0.2,0.2,0.8","0.8,0.2,0.2,0.2,0.8,0.2,0.2,0.2,0.8","1","",""
"","html-keyboard-response","262","156718","0.0-262.0","3UJ1CZ6IZIBAA7NO4NTEGTRLFV15SC","AZKFSYWVPF6JL","3P520RYKCHSO30HY2QJC6BDLS9Z5UE","","null","<img src=""img/land1.png"" style=""width:200px; border:14px solid green;"">","null","","","","","","","","","",""
"","image-keyboard-response","263","157048","0.0-263.0","3UJ1CZ6IZIBAA7NO4NTEGTRLFV15SC","AZKFSYWVPF6JL","3P520RYKCHSO30HY2QJC6BDLS9Z5UE","","329.69999998807907","img/land1.png","74","330.2999999523163","1","1","1","2","0.8,0.2,0.2,0.2,0.8,0.2,0.2,0.2,0.8","0.8,0.2,0.2,0.2,0.8,0.2,0.2,0.2,0.8","1","",""
"","html-keyboard-response","264","157349","0.0-264.0","3UJ1CZ6IZIBAA7NO4NTEGTRLFV15SC","AZKFSYWVPF6JL","3P520RYKCHSO30HY2QJC6BDLS9Z5UE","","null","<img src=""img/land1.png"" style=""width:200px; border:14px solid green;"">","null","","","","","","","","","",""
"","image-keyboard-response","265","158664","0.0-265.0","3UJ1CZ6IZIBAA7NO4NTEGTRLFV15SC","AZKFSYWVPF6JL","3P520RYKCHSO30HY2QJC6BDLS9Z5UE","","1314.5","img/land6.png","76","1314.8999999761581","3","1","3","2","0.8,0.2,0.2,0.2,0.8,0.2,0.2,0.2,0.8","0.8,0.2,0.2,0.2,0.8,0.2,0.2,0.2,0.8","1","",""
"","html-keyboard-response","266","158965","0.0-266.0","3UJ1CZ6IZIBAA7NO4NTEGTRLFV15SC","AZKFSYWVPF6JL","3P520RYKCHSO30HY2QJC6BDLS9Z5UE","","null","<img src=""img/land6.png"" style=""width:200px; border:14px solid green;"">","null","","","","","","","","","",""
"","image-keyboard-response","267","159904","0.0-267.0","3UJ1CZ6IZIBAA7NO4NTEGTRLFV15SC","AZKFSYWVPF6JL","3P520RYKCHSO30HY2QJC6BDLS9Z5UE","","938.0999999642372","img/land1.png","74","938.6999999880791","1","1","1","2","0.8,0.2,0.2,0.2,0.8,0.2,0.2,0.2,0.8","0.8,0.2,0.2,0.2,0.8,0.2,0.2,0.2,0.8","1","",""
"","html-keyboard-response","268","160206","0.0-268.0","3UJ1CZ6IZIBAA7NO4NTEGTRLFV15SC","AZKFSYWVPF6JL","3P520RYKCHSO30HY2QJC6BDLS9Z5UE","","null","<img src=""img/land1.png"" style=""width:200px; border:14px solid green;"">","null","","","","","","","","","",""
"","image-keyboard-response","269","160560","0.0-269.0","3UJ1CZ6IZIBAA7NO4NTEGTRLFV15SC","AZKFSYWVPF6JL","3P520RYKCHSO30HY2QJC6BDLS9Z5UE","","354.0999999642372","img/land1.png","74","354.69999998807907","1","1","1","2","0.8,0.2,0.2,0.2,0.8,0.2,0.2,0.2,0.8","0.8,0.2,0.2,0.2,0.8,0.2,0.2,0.2,0.8","1","",""
"","html-keyboard-response","270","160861","0.0-270.0","3UJ1CZ6IZIBAA7NO4NTEGTRLFV15SC","AZKFSYWVPF6JL","3P520RYKCHSO30HY2QJC6BDLS9Z5UE","","null","<img src=""img/land1.png"" style=""width:200px; border:14px solid green;"">","null","","","","","","","","","",""
"","image-keyboard-response","271","161000","0.0-271.0","3UJ1CZ6IZIBAA7NO4NTEGTRLFV15SC","AZKFSYWVPF6JL","3P520RYKCHSO30HY2QJC6BDLS9Z5UE","","138.19999998807907","img/land6.png","74","138.80000001192093","1","1","3","2","0.8,0.2,0.2,0.2,0.8,0.2,0.2,0.2,0.8","0.8,0.2,0.2,0.2,0.8,0.2,0.2,0.2,0.8","1","",""
"","html-keyboard-response","272","161302","0.0-272.0","3UJ1CZ6IZIBAA7NO4NTEGTRLFV15SC","AZKFSYWVPF6JL","3P520RYKCHSO30HY2QJC6BDLS9Z5UE","","null","<img src=""img/land6.png"" style=""width:200px; border:14px solid green;"">","null","","","","","","","","","",""
"","image-keyboard-response","273","162064","0.0-273.0","3UJ1CZ6IZIBAA7NO4NTEGTRLFV15SC","AZKFSYWVPF6JL","3P520RYKCHSO30HY2QJC6BDLS9Z5UE","","761.9000000357628","img/land1.png","74","762.5","1","1","1","2","0.8,0.2,0.2,0.2,0.8,0.2,0.2,0.2,0.8","0.8,0.2,0.2,0.2,0.8,0.2,0.2,0.2,0.8","1","",""
"","html-keyboard-response","274","162366","0.0-274.0","3UJ1CZ6IZIBAA7NO4NTEGTRLFV15SC","AZKFSYWVPF6JL","3P520RYKCHSO30HY2QJC6BDLS9Z5UE","","null","<img src=""img/land1.png"" style=""width:200px; border:14px solid green;"">","null","","","","","","","","","",""
"","image-keyboard-response","275","163024","0.0-275.0","3UJ1CZ6IZIBAA7NO4NTEGTRLFV15SC","AZKFSYWVPF6JL","3P520RYKCHSO30HY2QJC6BDLS9Z5UE","","657.9000000357628","img/land3.png","75","658.3999999761581","2","1","2","2","0.8,0.2,0.2,0.2,0.8,0.2,0.2,0.2,0.8","0.8,0.2,0.2,0.2,0.8,0.2,0.2,0.2,0.8","1","",""
"","html-keyboard-response","276","163325","0.0-276.0","3UJ1CZ6IZIBAA7NO4NTEGTRLFV15SC","AZKFSYWVPF6JL","3P520RYKCHSO30HY2QJC6BDLS9Z5UE","","null","<img src=""img/land3.png"" style=""width:200px; border:14px solid green;"">","null","","","","","","","","","",""
"","image-keyboard-response","277","164048","0.0-277.0","3UJ1CZ6IZIBAA7NO4NTEGTRLFV15SC","AZKFSYWVPF6JL","3P520RYKCHSO30HY2QJC6BDLS9Z5UE","","722.6000000238419","img/land1.png","74","723","1","1","1","2","0.8,0.2,0.2,0.2,0.8,0.2,0.2,0.2,0.8","0.8,0.2,0.2,0.2,0.8,0.2,0.2,0.2,0.8","1","",""
"","html-keyboard-response","278","164362","0.0-278.0","3UJ1CZ6IZIBAA7NO4NTEGTRLFV15SC","AZKFSYWVPF6JL","3P520RYKCHSO30HY2QJC6BDLS9Z5UE","","null","<img src=""img/land1.png"" style=""width:200px; border:14px solid green;"">","null","","","","","","","","","",""
"","image-keyboard-response","279","164768","0.0-279.0","3UJ1CZ6IZIBAA7NO4NTEGTRLFV15SC","AZKFSYWVPF6JL","3P520RYKCHSO30HY2QJC6BDLS9Z5UE","","406","img/land1.png","74","406.60000002384186","1","1","1","2","0.8,0.2,0.2,0.2,0.8,0.2,0.2,0.2,0.8","0.8,0.2,0.2,0.2,0.8,0.2,0.2,0.2,0.8","1","",""
"","html-keyboard-response","280","165070","0.0-280.0","3UJ1CZ6IZIBAA7NO4NTEGTRLFV15SC","AZKFSYWVPF6JL","3P520RYKCHSO30HY2QJC6BDLS9Z5UE","","null","<img src=""img/land1.png"" style=""width:200px; border:14px solid green;"">","null","","","","","","","","","",""
"","image-keyboard-response","281","165416","0.0-281.0","3UJ1CZ6IZIBAA7NO4NTEGTRLFV15SC","AZKFSYWVPF6JL","3P520RYKCHSO30HY2QJC6BDLS9Z5UE","","345.5","img/land1.png","74","346.10000002384186","1","1","1","2","0.8,0.2,0.2,0.2,0.8,0.2,0.2,0.2,0.8","0.8,0.2,0.2,0.2,0.8,0.2,0.2,0.2,0.8","1","",""
"","html-keyboard-response","282","165717","0.0-282.0","3UJ1CZ6IZIBAA7NO4NTEGTRLFV15SC","AZKFSYWVPF6JL","3P520RYKCHSO30HY2QJC6BDLS9Z5UE","","null","<img src=""img/land1.png"" style=""width:200px; border:14px solid green;"">","null","","","","","","","","","",""
"","image-keyboard-response","283","166520","0.0-283.0","3UJ1CZ6IZIBAA7NO4NTEGTRLFV15SC","AZKFSYWVPF6JL","3P520RYKCHSO30HY2QJC6BDLS9Z5UE","","802.8000000119209","img/land6.png","76","803.1999999880791","3","1","3","2","0.8,0.2,0.2,0.2,0.8,0.2,0.2,0.2,0.8","0.8,0.2,0.2,0.2,0.8,0.2,0.2,0.2,0.8","1","",""
"","html-keyboard-response","284","166821","0.0-284.0","3UJ1CZ6IZIBAA7NO4NTEGTRLFV15SC","AZKFSYWVPF6JL","3P520RYKCHSO30HY2QJC6BDLS9Z5UE","","null","<img src=""img/land6.png"" style=""width:200px; border:14px solid green;"">","null","","","","","","","","","",""
"","image-keyboard-response","285","167664","0.0-285.0","3UJ1CZ6IZIBAA7NO4NTEGTRLFV15SC","AZKFSYWVPF6JL","3P520RYKCHSO30HY2QJC6BDLS9Z5UE","","842.4000000357628","img/land1.png","74","842.7999999523163","1","1","1","2","0.8,0.2,0.2,0.2,0.8,0.2,0.2,0.2,0.8","0.8,0.2,0.2,0.2,0.8,0.2,0.2,0.2,0.8","1","",""
"","html-keyboard-response","286","167966","0.0-286.0","3UJ1CZ6IZIBAA7NO4NTEGTRLFV15SC","AZKFSYWVPF6JL","3P520RYKCHSO30HY2QJC6BDLS9Z5UE","","null","<img src=""img/land1.png"" style=""width:200px; border:14px solid green;"">","null","","","","","","","","","",""
"","image-keyboard-response","287","168320","0.0-287.0","3UJ1CZ6IZIBAA7NO4NTEGTRLFV15SC","AZKFSYWVPF6JL","3P520RYKCHSO30HY2QJC6BDLS9Z5UE","","353.9000000357628","img/land1.png","74","354.39999997615814","1","1","1","2","0.8,0.2,0.2,0.2,0.8,0.2,0.2,0.2,0.8","0.8,0.2,0.2,0.2,0.8,0.2,0.2,0.2,0.8","1","",""
"","html-keyboard-response","288","168621","0.0-288.0","3UJ1CZ6IZIBAA7NO4NTEGTRLFV15SC","AZKFSYWVPF6JL","3P520RYKCHSO30HY2QJC6BDLS9Z5UE","","null","<img src=""img/land1.png"" style=""width:200px; border:14px solid green;"">","null","","","","","","","","","",""
"","image-keyboard-response","289","168952","0.0-289.0","3UJ1CZ6IZIBAA7NO4NTEGTRLFV15SC","AZKFSYWVPF6JL","3P520RYKCHSO30HY2QJC6BDLS9Z5UE","","330.5","img/land1.png","74","331","1","1","1","2","0.8,0.2,0.2,0.2,0.8,0.2,0.2,0.2,0.8","0.8,0.2,0.2,0.2,0.8,0.2,0.2,0.2,0.8","1","",""
"","html-keyboard-response","290","169253","0.0-290.0","3UJ1CZ6IZIBAA7NO4NTEGTRLFV15SC","AZKFSYWVPF6JL","3P520RYKCHSO30HY2QJC6BDLS9Z5UE","","null","<img src=""img/land1.png"" style=""width:200px; border:14px solid green;"">","null","","","","","","","","","",""
"","image-keyboard-response","291","169936","0.0-291.0","3UJ1CZ6IZIBAA7NO4NTEGTRLFV15SC","AZKFSYWVPF6JL","3P520RYKCHSO30HY2QJC6BDLS9Z5UE","","682.8000000119209","img/land3.png","75","683.2999999523163","2","0","2","2","0.8,0.2,0.2,0.2,0.8,0.2,0.2,0.2,0.8","0.8,0.2,0.2,0.2,0.8,0.2,0.2,0.2,0.8","1","",""
"","html-keyboard-response","292","170237","0.0-292.0","3UJ1CZ6IZIBAA7NO4NTEGTRLFV15SC","AZKFSYWVPF6JL","3P520RYKCHSO30HY2QJC6BDLS9Z5UE","","null","<img src=""img/land3.png"" style=""width:200px;border:14px solid red;"">","null","","","","","","","","","",""
"","image-keyboard-response","293","170856","0.0-293.0","3UJ1CZ6IZIBAA7NO4NTEGTRLFV15SC","AZKFSYWVPF6JL","3P520RYKCHSO30HY2QJC6BDLS9Z5UE","","618.3000000119209","img/land1.png","74","618.6999999880791","1","1","1","2","0.8,0.2,0.2,0.2,0.8,0.2,0.2,0.2,0.8","0.8,0.2,0.2,0.2,0.8,0.2,0.2,0.2,0.8","1","",""
"","html-keyboard-response","294","171157","0.0-294.0","3UJ1CZ6IZIBAA7NO4NTEGTRLFV15SC","AZKFSYWVPF6JL","3P520RYKCHSO30HY2QJC6BDLS9Z5UE","","null","<img src=""img/land1.png"" style=""width:200px; border:14px solid green;"">","null","","","","","","","","","",""
"","image-keyboard-response","295","171512","0.0-295.0","3UJ1CZ6IZIBAA7NO4NTEGTRLFV15SC","AZKFSYWVPF6JL","3P520RYKCHSO30HY2QJC6BDLS9Z5UE","","354.30000001192093","img/land1.png","74","354.80000001192093","1","1","1","2","0.8,0.2,0.2,0.2,0.8,0.2,0.2,0.2,0.8","0.8,0.2,0.2,0.2,0.8,0.2,0.2,0.2,0.8","1","",""
"","html-keyboard-response","296","171814","0.0-296.0","3UJ1CZ6IZIBAA7NO4NTEGTRLFV15SC","AZKFSYWVPF6JL","3P520RYKCHSO30HY2QJC6BDLS9Z5UE","","null","<img src=""img/land1.png"" style=""width:200px; border:14px solid green;"">","null","","","","","","","","","",""
"","image-keyboard-response","297","172192","0.0-297.0","3UJ1CZ6IZIBAA7NO4NTEGTRLFV15SC","AZKFSYWVPF6JL","3P520RYKCHSO30HY2QJC6BDLS9Z5UE","","378.0999999642372","img/land1.png","74","378.80000001192093","1","1","1","2","0.8,0.2,0.2,0.2,0.8,0.2,0.2,0.2,0.8","0.8,0.2,0.2,0.2,0.8,0.2,0.2,0.2,0.8","1","",""
"","html-keyboard-response","298","172494","0.0-298.0","3UJ1CZ6IZIBAA7NO4NTEGTRLFV15SC","AZKFSYWVPF6JL","3P520RYKCHSO30HY2QJC6BDLS9Z5UE","","null","<img src=""img/land1.png"" style=""width:200px; border:14px solid green;"">","null","","","","","","","","","",""
"","image-keyboard-response","299","173184","0.0-299.0","3UJ1CZ6IZIBAA7NO4NTEGTRLFV15SC","AZKFSYWVPF6JL","3P520RYKCHSO30HY2QJC6BDLS9Z5UE","","689.8000000119209","img/land6.png","76","690.1999999880791","3","1","3","2","0.8,0.2,0.2,0.2,0.8,0.2,0.2,0.2,0.8","0.8,0.2,0.2,0.2,0.8,0.2,0.2,0.2,0.8","1","",""
"","html-keyboard-response","300","173486","0.0-300.0","3UJ1CZ6IZIBAA7NO4NTEGTRLFV15SC","AZKFSYWVPF6JL","3P520RYKCHSO30HY2QJC6BDLS9Z5UE","","null","<img src=""img/land6.png"" style=""width:200px; border:14px solid green;"">","null","","","","","","","","","",""
"","image-keyboard-response","301","174040","0.0-301.0","3UJ1CZ6IZIBAA7NO4NTEGTRLFV15SC","AZKFSYWVPF6JL","3P520RYKCHSO30HY2QJC6BDLS9Z5UE","","553.3000000119209","img/land6.png","76","553.8000000119209","3","1","3","2","0.8,0.2,0.2,0.2,0.8,0.2,0.2,0.2,0.8","0.8,0.2,0.2,0.2,0.8,0.2,0.2,0.2,0.8","1","",""
"","html-keyboard-response","302","174342","0.0-302.0","3UJ1CZ6IZIBAA7NO4NTEGTRLFV15SC","AZKFSYWVPF6JL","3P520RYKCHSO30HY2QJC6BDLS9Z5UE","","null","<img src=""img/land6.png"" style=""width:200px; border:14px solid green;"">","null","","","","","","","","","",""
"","image-keyboard-response","303","174896","0.0-303.0","3UJ1CZ6IZIBAA7NO4NTEGTRLFV15SC","AZKFSYWVPF6JL","3P520RYKCHSO30HY2QJC6BDLS9Z5UE","","553.1999999880791","img/land1.png","74","553.6999999880791","1","0","1","2","0.8,0.2,0.2,0.2,0.8,0.2,0.2,0.2,0.8","0.8,0.2,0.2,0.2,0.8,0.2,0.2,0.2,0.8","1","",""
"","html-keyboard-response","304","175198","0.0-304.0","3UJ1CZ6IZIBAA7NO4NTEGTRLFV15SC","AZKFSYWVPF6JL","3P520RYKCHSO30HY2QJC6BDLS9Z5UE","","null","<img src=""img/land1.png"" style=""width:200px;border:14px solid red;"">","null","","","","","","","","","",""
"","image-keyboard-response","305","175528","0.0-305.0","3UJ1CZ6IZIBAA7NO4NTEGTRLFV15SC","AZKFSYWVPF6JL","3P520RYKCHSO30HY2QJC6BDLS9Z5UE","","329.30000001192093","img/land1.png","74","329.80000001192093","1","0","1","2","0.8,0.2,0.2,0.2,0.8,0.2,0.2,0.2,0.8","0.8,0.2,0.2,0.2,0.8,0.2,0.2,0.2,0.8","1","",""
"","html-keyboard-response","306","175830","0.0-306.0","3UJ1CZ6IZIBAA7NO4NTEGTRLFV15SC","AZKFSYWVPF6JL","3P520RYKCHSO30HY2QJC6BDLS9Z5UE","","null","<img src=""img/land1.png"" style=""width:200px;border:14px solid red;"">","null","","","","","","","","","",""
"","image-keyboard-response","307","176096","0.0-307.0","3UJ1CZ6IZIBAA7NO4NTEGTRLFV15SC","AZKFSYWVPF6JL","3P520RYKCHSO30HY2QJC6BDLS9Z5UE","","266.2999999523163","img/land6.png","74","266.80000001192093","1","1","3","2","0.8,0.2,0.2,0.2,0.8,0.2,0.2,0.2,0.8","0.8,0.2,0.2,0.2,0.8,0.2,0.2,0.2,0.8","1","",""
"","html-keyboard-response","308","176398","0.0-308.0","3UJ1CZ6IZIBAA7NO4NTEGTRLFV15SC","AZKFSYWVPF6JL","3P520RYKCHSO30HY2QJC6BDLS9Z5UE","","null","<img src=""img/land6.png"" style=""width:200px; border:14px solid green;"">","null","","","","","","","","","",""
"","image-keyboard-response","309","177032","0.0-309.0","3UJ1CZ6IZIBAA7NO4NTEGTRLFV15SC","AZKFSYWVPF6JL","3P520RYKCHSO30HY2QJC6BDLS9Z5UE","","633.8000000119209","img/land1.png","74","634.4000000357628","1","1","1","2","0.8,0.2,0.2,0.2,0.8,0.2,0.2,0.2,0.8","0.8,0.2,0.2,0.2,0.8,0.2,0.2,0.2,0.8","1","",""
"","html-keyboard-response","310","177333","0.0-310.0","3UJ1CZ6IZIBAA7NO4NTEGTRLFV15SC","AZKFSYWVPF6JL","3P520RYKCHSO30HY2QJC6BDLS9Z5UE","","null","<img src=""img/land1.png"" style=""width:200px; border:14px solid green;"">","null","","","","","","","","","",""
"","image-keyboard-response","311","177664","0.0-311.0","3UJ1CZ6IZIBAA7NO4NTEGTRLFV15SC","AZKFSYWVPF6JL","3P520RYKCHSO30HY2QJC6BDLS9Z5UE","","330.89999997615814","img/land1.png","74","331.30000001192093","1","1","1","2","0.8,0.2,0.2,0.2,0.8,0.2,0.2,0.2,0.8","0.8,0.2,0.2,0.2,0.8,0.2,0.2,0.2,0.8","1","",""
"","html-keyboard-response","312","177966","0.0-312.0","3UJ1CZ6IZIBAA7NO4NTEGTRLFV15SC","AZKFSYWVPF6JL","3P520RYKCHSO30HY2QJC6BDLS9Z5UE","","null","<img src=""img/land1.png"" style=""width:200px; border:14px solid green;"">","null","","","","","","","","","",""
"","image-keyboard-response","313","178288","0.0-313.0","3UJ1CZ6IZIBAA7NO4NTEGTRLFV15SC","AZKFSYWVPF6JL","3P520RYKCHSO30HY2QJC6BDLS9Z5UE","","322.19999998807907","img/land1.png","74","322.69999998807907","1","1","1","2","0.8,0.2,0.2,0.2,0.8,0.2,0.2,0.2,0.8","0.8,0.2,0.2,0.2,0.8,0.2,0.2,0.2,0.8","1","",""
"","html-keyboard-response","314","178589","0.0-314.0","3UJ1CZ6IZIBAA7NO4NTEGTRLFV15SC","AZKFSYWVPF6JL","3P520RYKCHSO30HY2QJC6BDLS9Z5UE","","null","<img src=""img/land1.png"" style=""width:200px; border:14px solid green;"">","null","","","","","","","","","",""
"","image-keyboard-response","315","178976","0.0-315.0","3UJ1CZ6IZIBAA7NO4NTEGTRLFV15SC","AZKFSYWVPF6JL","3P520RYKCHSO30HY2QJC6BDLS9Z5UE","","386.5999999642372","img/land1.png","74","387","1","1","1","2","0.8,0.2,0.2,0.2,0.8,0.2,0.2,0.2,0.8","0.8,0.2,0.2,0.2,0.8,0.2,0.2,0.2,0.8","1","",""
"","html-keyboard-response","316","179277","0.0-316.0","3UJ1CZ6IZIBAA7NO4NTEGTRLFV15SC","AZKFSYWVPF6JL","3P520RYKCHSO30HY2QJC6BDLS9Z5UE","","null","<img src=""img/land1.png"" style=""width:200px; border:14px solid green;"">","null","","","","","","","","","",""
"","image-keyboard-response","317","179857","0.0-317.0","3UJ1CZ6IZIBAA7NO4NTEGTRLFV15SC","AZKFSYWVPF6JL","3P520RYKCHSO30HY2QJC6BDLS9Z5UE","","578.5","img/land6.png","76","578.8999999761581","3","0","3","2","0.8,0.2,0.2,0.2,0.8,0.2,0.2,0.2,0.8","0.8,0.2,0.2,0.2,0.8,0.2,0.2,0.2,0.8","1","",""
"","html-keyboard-response","318","180158","0.0-318.0","3UJ1CZ6IZIBAA7NO4NTEGTRLFV15SC","AZKFSYWVPF6JL","3P520RYKCHSO30HY2QJC6BDLS9Z5UE","","null","<img src=""img/land6.png"" style=""width:200px;border:14px solid red;"">","null","","","","","","","","","",""
"","image-keyboard-response","319","180744","0.0-319.0","3UJ1CZ6IZIBAA7NO4NTEGTRLFV15SC","AZKFSYWVPF6JL","3P520RYKCHSO30HY2QJC6BDLS9Z5UE","","586.1999999880791","img/land1.png","74","586.6999999880791","1","1","1","2","0.8,0.2,0.2,0.2,0.8,0.2,0.2,0.2,0.8","0.8,0.2,0.2,0.2,0.8,0.2,0.2,0.2,0.8","1","",""
"","html-keyboard-response","320","181045","0.0-320.0","3UJ1CZ6IZIBAA7NO4NTEGTRLFV15SC","AZKFSYWVPF6JL","3P520RYKCHSO30HY2QJC6BDLS9Z5UE","","null","<img src=""img/land1.png"" style=""width:200px; border:14px solid green;"">","null","","","","","","","","","",""
"","image-keyboard-response","321","181385","0.0-321.0","3UJ1CZ6IZIBAA7NO4NTEGTRLFV15SC","AZKFSYWVPF6JL","3P520RYKCHSO30HY2QJC6BDLS9Z5UE","","338.89999997615814","img/land1.png","74","339.30000001192093","1","1","1","2","0.8,0.2,0.2,0.2,0.8,0.2,0.2,0.2,0.8","0.8,0.2,0.2,0.2,0.8,0.2,0.2,0.2,0.8","1","",""
"","html-keyboard-response","322","181693","0.0-322.0","3UJ1CZ6IZIBAA7NO4NTEGTRLFV15SC","AZKFSYWVPF6JL","3P520RYKCHSO30HY2QJC6BDLS9Z5UE","","null","<img src=""img/land1.png"" style=""width:200px; border:14px solid green;"">","null","","","","","","","","","",""
"","image-keyboard-response","323","182049","0.0-323.0","3UJ1CZ6IZIBAA7NO4NTEGTRLFV15SC","AZKFSYWVPF6JL","3P520RYKCHSO30HY2QJC6BDLS9Z5UE","","354.5999999642372","img/land1.png","74","355","1","1","1","2","0.8,0.2,0.2,0.2,0.8,0.2,0.2,0.2,0.8","0.8,0.2,0.2,0.2,0.8,0.2,0.2,0.2,0.8","1","",""
"","html-keyboard-response","324","182350","0.0-324.0","3UJ1CZ6IZIBAA7NO4NTEGTRLFV15SC","AZKFSYWVPF6JL","3P520RYKCHSO30HY2QJC6BDLS9Z5UE","","null","<img src=""img/land1.png"" style=""width:200px; border:14px solid green;"">","null","","","","","","","","","",""
"","image-keyboard-response","325","182681","0.0-325.0","3UJ1CZ6IZIBAA7NO4NTEGTRLFV15SC","AZKFSYWVPF6JL","3P520RYKCHSO30HY2QJC6BDLS9Z5UE","","329.89999997615814","img/land1.png","74","330.4000000357628","1","1","1","2","0.8,0.2,0.2,0.2,0.8,0.2,0.2,0.2,0.8","0.8,0.2,0.2,0.2,0.8,0.2,0.2,0.2,0.8","1","",""
"","html-keyboard-response","326","182982","0.0-326.0","3UJ1CZ6IZIBAA7NO4NTEGTRLFV15SC","AZKFSYWVPF6JL","3P520RYKCHSO30HY2QJC6BDLS9Z5UE","","null","<img src=""img/land1.png"" style=""width:200px; border:14px solid green;"">","null","","","","","","","","","",""
"","image-keyboard-response","327","183337","0.0-327.0","3UJ1CZ6IZIBAA7NO4NTEGTRLFV15SC","AZKFSYWVPF6JL","3P520RYKCHSO30HY2QJC6BDLS9Z5UE","","354.10000002384186","img/land1.png","74","354.60000002384186","1","0","1","2","0.8,0.2,0.2,0.2,0.8,0.2,0.2,0.2,0.8","0.8,0.2,0.2,0.2,0.8,0.2,0.2,0.2,0.8","1","",""
"","html-keyboard-response","328","183638","0.0-328.0","3UJ1CZ6IZIBAA7NO4NTEGTRLFV15SC","AZKFSYWVPF6JL","3P520RYKCHSO30HY2QJC6BDLS9Z5UE","","null","<img src=""img/land1.png"" style=""width:200px;border:14px solid red;"">","null","","","","","","","","","",""
"","image-keyboard-response","329","184105","0.0-329.0","3UJ1CZ6IZIBAA7NO4NTEGTRLFV15SC","AZKFSYWVPF6JL","3P520RYKCHSO30HY2QJC6BDLS9Z5UE","","465.80000001192093","img/land1.png","74","466.30000001192093","1","1","1","2","0.8,0.2,0.2,0.2,0.8,0.2,0.2,0.2,0.8","0.8,0.2,0.2,0.2,0.8,0.2,0.2,0.2,0.8","1","",""
"","html-keyboard-response","330","184406","0.0-330.0","3UJ1CZ6IZIBAA7NO4NTEGTRLFV15SC","AZKFSYWVPF6JL","3P520RYKCHSO30HY2QJC6BDLS9Z5UE","","null","<img src=""img/land1.png"" style=""width:200px; border:14px solid green;"">","null","","","","","","","","","",""
"","image-keyboard-response","331","185097","0.0-331.0","3UJ1CZ6IZIBAA7NO4NTEGTRLFV15SC","AZKFSYWVPF6JL","3P520RYKCHSO30HY2QJC6BDLS9Z5UE","","689.8000000119209","img/land6.png","76","690.5","3","0","3","2","0.8,0.2,0.2,0.2,0.8,0.2,0.2,0.2,0.8","0.8,0.2,0.2,0.2,0.8,0.2,0.2,0.2,0.8","1","",""
"","html-keyboard-response","332","185398","0.0-332.0","3UJ1CZ6IZIBAA7NO4NTEGTRLFV15SC","AZKFSYWVPF6JL","3P520RYKCHSO30HY2QJC6BDLS9Z5UE","","null","<img src=""img/land6.png"" style=""width:200px;border:14px solid red;"">","null","","","","","","","","","",""
"","image-keyboard-response","333","186017","0.0-333.0","3UJ1CZ6IZIBAA7NO4NTEGTRLFV15SC","AZKFSYWVPF6JL","3P520RYKCHSO30HY2QJC6BDLS9Z5UE","","618.2999999523163","img/land6.png","76","618.6999999880791","3","1","3","2","0.8,0.2,0.2,0.2,0.8,0.2,0.2,0.2,0.8","0.8,0.2,0.2,0.2,0.8,0.2,0.2,0.2,0.8","1","",""
"","html-keyboard-response","334","186318","0.0-334.0","3UJ1CZ6IZIBAA7NO4NTEGTRLFV15SC","AZKFSYWVPF6JL","3P520RYKCHSO30HY2QJC6BDLS9Z5UE","","null","<img src=""img/land6.png"" style=""width:200px; border:14px solid green;"">","null","","","","","","","","","",""
"","image-keyboard-response","335","186729","0.0-335.0","3UJ1CZ6IZIBAA7NO4NTEGTRLFV15SC","AZKFSYWVPF6JL","3P520RYKCHSO30HY2QJC6BDLS9Z5UE","","410","img/land6.png","76","410.39999997615814","3","1","3","2","0.8,0.2,0.2,0.2,0.8,0.2,0.2,0.2,0.8","0.8,0.2,0.2,0.2,0.8,0.2,0.2,0.2,0.8","1","",""
"","html-keyboard-response","336","187029","0.0-336.0","3UJ1CZ6IZIBAA7NO4NTEGTRLFV15SC","AZKFSYWVPF6JL","3P520RYKCHSO30HY2QJC6BDLS9Z5UE","","null","<img src=""img/land6.png"" style=""width:200px; border:14px solid green;"">","null","","","","","","","","","",""
"","image-keyboard-response","337","187753","0.0-337.0","3UJ1CZ6IZIBAA7NO4NTEGTRLFV15SC","AZKFSYWVPF6JL","3P520RYKCHSO30HY2QJC6BDLS9Z5UE","","722.5","img/land1.png","74","723","1","0","1","2","0.8,0.2,0.2,0.2,0.8,0.2,0.2,0.2,0.8","0.8,0.2,0.2,0.2,0.8,0.2,0.2,0.2,0.8","1","",""
"","html-keyboard-response","338","188054","0.0-338.0","3UJ1CZ6IZIBAA7NO4NTEGTRLFV15SC","AZKFSYWVPF6JL","3P520RYKCHSO30HY2QJC6BDLS9Z5UE","","null","<img src=""img/land1.png"" style=""width:200px;border:14px solid red;"">","null","","","","","","","","","",""
"","image-keyboard-response","339","188505","0.0-339.0","3UJ1CZ6IZIBAA7NO4NTEGTRLFV15SC","AZKFSYWVPF6JL","3P520RYKCHSO30HY2QJC6BDLS9Z5UE","","449.89999997615814","img/land1.png","74","450.4000000357628","1","1","1","2","0.8,0.2,0.2,0.2,0.8,0.2,0.2,0.2,0.8","0.8,0.2,0.2,0.2,0.8,0.2,0.2,0.2,0.8","1","",""
"","html-keyboard-response","340","188807","0.0-340.0","3UJ1CZ6IZIBAA7NO4NTEGTRLFV15SC","AZKFSYWVPF6JL","3P520RYKCHSO30HY2QJC6BDLS9Z5UE","","null","<img src=""img/land1.png"" style=""width:200px; border:14px solid green;"">","null","","","","","","","","","",""
"","image-keyboard-response","341","189161","0.0-341.0","3UJ1CZ6IZIBAA7NO4NTEGTRLFV15SC","AZKFSYWVPF6JL","3P520RYKCHSO30HY2QJC6BDLS9Z5UE","","353.2999999523163","img/land1.png","74","353.69999998807907","1","1","1","2","0.8,0.2,0.2,0.2,0.8,0.2,0.2,0.2,0.8","0.8,0.2,0.2,0.2,0.8,0.2,0.2,0.2,0.8","1","",""
"","html-keyboard-response","342","189461","0.0-342.0","3UJ1CZ6IZIBAA7NO4NTEGTRLFV15SC","AZKFSYWVPF6JL","3P520RYKCHSO30HY2QJC6BDLS9Z5UE","","null","<img src=""img/land1.png"" style=""width:200px; border:14px solid green;"">","null","","","","","","","","","",""
"","image-keyboard-response","343","189713","0.0-343.0","3UJ1CZ6IZIBAA7NO4NTEGTRLFV15SC","AZKFSYWVPF6JL","3P520RYKCHSO30HY2QJC6BDLS9Z5UE","","250.5999999642372","img/land6.png","74","251.10000002384186","1","0","3","2","0.8,0.2,0.2,0.2,0.8,0.2,0.2,0.2,0.8","0.8,0.2,0.2,0.2,0.8,0.2,0.2,0.2,0.8","1","",""
"","html-keyboard-response","344","190014","0.0-344.0","3UJ1CZ6IZIBAA7NO4NTEGTRLFV15SC","AZKFSYWVPF6JL","3P520RYKCHSO30HY2QJC6BDLS9Z5UE","","null","<img src=""img/land6.png"" style=""width:200px;border:14px solid red;"">","null","","","","","","","","","",""
"","image-keyboard-response","345","190721","0.0-345.0","3UJ1CZ6IZIBAA7NO4NTEGTRLFV15SC","AZKFSYWVPF6JL","3P520RYKCHSO30HY2QJC6BDLS9Z5UE","","706.2999999523163","img/land3.png","75","706.6999999880791","2","0","2","2","0.8,0.2,0.2,0.2,0.8,0.2,0.2,0.2,0.8","0.8,0.2,0.2,0.2,0.8,0.2,0.2,0.2,0.8","1","",""
"","html-keyboard-response","346","191023","0.0-346.0","3UJ1CZ6IZIBAA7NO4NTEGTRLFV15SC","AZKFSYWVPF6JL","3P520RYKCHSO30HY2QJC6BDLS9Z5UE","","null","<img src=""img/land3.png"" style=""width:200px;border:14px solid red;"">","null","","","","","","","","","",""
"","image-keyboard-response","347","191641","0.0-347.0","3UJ1CZ6IZIBAA7NO4NTEGTRLFV15SC","AZKFSYWVPF6JL","3P520RYKCHSO30HY2QJC6BDLS9Z5UE","","617.3000000119209","img/land6.png","74","617.8999999761581","1","0","3","2","0.8,0.2,0.2,0.2,0.8,0.2,0.2,0.2,0.8","0.8,0.2,0.2,0.2,0.8,0.2,0.2,0.2,0.8","1","",""
"","html-keyboard-response","348","191942","0.0-348.0","3UJ1CZ6IZIBAA7NO4NTEGTRLFV15SC","AZKFSYWVPF6JL","3P520RYKCHSO30HY2QJC6BDLS9Z5UE","","null","<img src=""img/land6.png"" style=""width:200px;border:14px solid red;"">","null","","","","","","","","","",""
"","image-keyboard-response","349","192545","0.0-349.0","3UJ1CZ6IZIBAA7NO4NTEGTRLFV15SC","AZKFSYWVPF6JL","3P520RYKCHSO30HY2QJC6BDLS9Z5UE","","601.8999999761581","img/land1.png","74","602.3999999761581","1","1","1","2","0.8,0.2,0.2,0.2,0.8,0.2,0.2,0.2,0.8","0.8,0.2,0.2,0.2,0.8,0.2,0.2,0.2,0.8","1","",""
"","html-keyboard-response","350","192847","0.0-350.0","3UJ1CZ6IZIBAA7NO4NTEGTRLFV15SC","AZKFSYWVPF6JL","3P520RYKCHSO30HY2QJC6BDLS9Z5UE","","null","<img src=""img/land1.png"" style=""width:200px; border:14px solid green;"">","null","","","","","","","","","",""
"","image-keyboard-response","351","193497","0.0-351.0","3UJ1CZ6IZIBAA7NO4NTEGTRLFV15SC","AZKFSYWVPF6JL","3P520RYKCHSO30HY2QJC6BDLS9Z5UE","","649.3999999761581","img/land6.png","76","649.8999999761581","3","0","3","2","0.8,0.2,0.2,0.2,0.8,0.2,0.2,0.2,0.8","0.8,0.2,0.2,0.2,0.8,0.2,0.2,0.2,0.8","1","",""
"","html-keyboard-response","352","193798","0.0-352.0","3UJ1CZ6IZIBAA7NO4NTEGTRLFV15SC","AZKFSYWVPF6JL","3P520RYKCHSO30HY2QJC6BDLS9Z5UE","","null","<img src=""img/land6.png"" style=""width:200px;border:14px solid red;"">","null","","","","","","","","","",""
"","image-keyboard-response","353","194513","0.0-353.0","3UJ1CZ6IZIBAA7NO4NTEGTRLFV15SC","AZKFSYWVPF6JL","3P520RYKCHSO30HY2QJC6BDLS9Z5UE","","714.2999999523163","img/land1.png","74","714.8000000119209","1","1","1","2","0.8,0.2,0.2,0.2,0.8,0.2,0.2,0.2,0.8","0.8,0.2,0.2,0.2,0.8,0.2,0.2,0.2,0.8","1","",""
"","html-keyboard-response","354","194814","0.0-354.0","3UJ1CZ6IZIBAA7NO4NTEGTRLFV15SC","AZKFSYWVPF6JL","3P520RYKCHSO30HY2QJC6BDLS9Z5UE","","null","<img src=""img/land1.png"" style=""width:200px; border:14px solid green;"">","null","","","","","","","","","",""
"","image-keyboard-response","355","195193","0.0-355.0","3UJ1CZ6IZIBAA7NO4NTEGTRLFV15SC","AZKFSYWVPF6JL","3P520RYKCHSO30HY2QJC6BDLS9Z5UE","","378.19999998807907","img/land1.png","74","378.60000002384186","1","0","1","2","0.8,0.2,0.2,0.2,0.8,0.2,0.2,0.2,0.8","0.8,0.2,0.2,0.2,0.8,0.2,0.2,0.2,0.8","1","",""
