"success","trial_type","trial_index","time_elapsed","internal_node_id","assignmentID","mturkID","hitID","view_history","rt","stimulus","key_press","reactionTime","a","r","s","cond","reward_cond","reward_cond_actual","reward_matrix_idx","warning","responses"
"true","fullscreen","0","2962","0.0-0.0","3MHW492WW1ZOA6PYQHF58IME0QYMVT","A10HW8JXM17XLD","3HUR21WDDUBEMSLDIXZW1FAIHW8YX3","","","","","","","","","","","","","",""
"","instructions","1","50760","0.0-1.0","3MHW492WW1ZOA6PYQHF58IME0QYMVT","A10HW8JXM17XLD","3HUR21WDDUBEMSLDIXZW1FAIHW8YX3","[{""page_index"":0,""viewing_time"":5561},{""page_index"":1,""viewing_time"":2584},{""page_index"":2,""viewing_time"":4535.799999713898},{""page_index"":3,""viewing_time"":12128.300000190735},{""page_index"":4,""viewing_time"":7743.800000190735},{""page_index"":5,""viewing_time"":8247.799999713898},{""page_index"":6,""viewing_time"":6991.900000095367}]","47793.90000009537","","","","","","","","","","","",""
"","image-keyboard-response","2","52513","0.0-2.0","3MHW492WW1ZOA6PYQHF58IME0QYMVT","A10HW8JXM17XLD","3HUR21WDDUBEMSLDIXZW1FAIHW8YX3","","1750.0999999046326","img/food6.png","74","1753.3000001907349","1","0","3","1","1,0.5,0,1,0.5,0,0.5,0,1","1,0.5,0,1,0.5,0,0.5,0,1","1","",""
"","html-keyboard-response","3","52824","0.0-3.0","3MHW492WW1ZOA6PYQHF58IME0QYMVT","A10HW8JXM17XLD","3HUR21WDDUBEMSLDIXZW1FAIHW8YX3","","null","<img src=""img/food6.png"" style=""width:200px;border:14px solid red;"">","null","","","","","","","","","",""
"","image-keyboard-response","4","54655","0.0-4.0","3MHW492WW1ZOA6PYQHF58IME0QYMVT","A10HW8JXM17XLD","3HUR21WDDUBEMSLDIXZW1FAIHW8YX3","","1827.3999996185303","img/food1.png","74","1830","1","1","2","1","1,0.5,0,1,0.5,0,0.5,0,1","1,0.5,0,1,0.5,0,0.5,0,1","1","",""
"","html-keyboard-response","5","54960","0.0-5.0","3MHW492WW1ZOA6PYQHF58IME0QYMVT","A10HW8JXM17XLD","3HUR21WDDUBEMSLDIXZW1FAIHW8YX3","","null","<img src=""img/food1.png"" style=""width:200px; border:14px solid green;"">","null","","","","","","","","","",""
"","image-keyboard-response","6","56895","0.0-6.0","3MHW492WW1ZOA6PYQHF58IME0QYMVT","A10HW8JXM17XLD","3HUR21WDDUBEMSLDIXZW1FAIHW8YX3","","1930.6999998092651","img/food6.png","75","1934","2","0","3","1","1,0.5,0,1,0.5,0,0.5,0,1","1,0.5,0,1,0.5,0,0.5,0,1","1","",""
"","html-keyboard-response","7","57208","0.0-7.0","3MHW492WW1ZOA6PYQHF58IME0QYMVT","A10HW8JXM17XLD","3HUR21WDDUBEMSLDIXZW1FAIHW8YX3","","null","<img src=""img/food6.png"" style=""width:200px;border:14px solid red;"">","null","","","","","","","","","",""
"","image-keyboard-response","8","57975","0.0-8.0","3MHW492WW1ZOA6PYQHF58IME0QYMVT","A10HW8JXM17XLD","3HUR21WDDUBEMSLDIXZW1FAIHW8YX3","","763.7000002861023","img/food1.png","74","766","1","1","2","1","1,0.5,0,1,0.5,0,0.5,0,1","1,0.5,0,1,0.5,0,0.5,0,1","1","",""
"","html-keyboard-response","9","58280","0.0-9.0","3MHW492WW1ZOA6PYQHF58IME0QYMVT","A10HW8JXM17XLD","3HUR21WDDUBEMSLDIXZW1FAIHW8YX3","","null","<img src=""img/food1.png"" style=""width:200px; border:14px solid green;"">","null","","","","","","","","","",""
"","image-keyboard-response","10","58799","0.0-10.0","3MHW492WW1ZOA6PYQHF58IME0QYMVT","A10HW8JXM17XLD","3HUR21WDDUBEMSLDIXZW1FAIHW8YX3","","515.6999998092651","img/food1.png","74","517.9000000953674","1","1","2","1","1,0.5,0,1,0.5,0,0.5,0,1","1,0.5,0,1,0.5,0,0.5,0,1","1","",""
"","html-keyboard-response","11","59104","0.0-11.0","3MHW492WW1ZOA6PYQHF58IME0QYMVT","A10HW8JXM17XLD","3HUR21WDDUBEMSLDIXZW1FAIHW8YX3","","null","<img src=""img/food1.png"" style=""width:200px; border:14px solid green;"">","null","","","","","","","","","",""
"","image-keyboard-response","12","59839","0.0-12.0","3MHW492WW1ZOA6PYQHF58IME0QYMVT","A10HW8JXM17XLD","3HUR21WDDUBEMSLDIXZW1FAIHW8YX3","","732.6000003814697","img/food6.png","75","734.7999997138977","2","0","3","1","1,0.5,0,1,0.5,0,0.5,0,1","1,0.5,0,1,0.5,0,0.5,0,1","1","",""
"","html-keyboard-response","13","60144","0.0-13.0","3MHW492WW1ZOA6PYQHF58IME0QYMVT","A10HW8JXM17XLD","3HUR21WDDUBEMSLDIXZW1FAIHW8YX3","","null","<img src=""img/food6.png"" style=""width:200px;border:14px solid red;"">","null","","","","","","","","","",""
"","image-keyboard-response","14","61270","0.0-14.0","3MHW492WW1ZOA6PYQHF58IME0QYMVT","A10HW8JXM17XLD","3HUR21WDDUBEMSLDIXZW1FAIHW8YX3","","1123.1999998092651","img/food6.png","76","1125.3000001907349","3","1","3","1","1,0.5,0,1,0.5,0,0.5,0,1","1,0.5,0,1,0.5,0,0.5,0,1","1","",""
"","html-keyboard-response","15","61577","0.0-15.0","3MHW492WW1ZOA6PYQHF58IME0QYMVT","A10HW8JXM17XLD","3HUR21WDDUBEMSLDIXZW1FAIHW8YX3","","null","<img src=""img/food6.png"" style=""width:200px; border:14px solid green;"">","null","","","","","","","","","",""
"","image-keyboard-response","16","62383","0.0-16.0","3MHW492WW1ZOA6PYQHF58IME0QYMVT","A10HW8JXM17XLD","3HUR21WDDUBEMSLDIXZW1FAIHW8YX3","","803.2999997138977","img/food6.png","76","805.6999998092651","3","1","3","1","1,0.5,0,1,0.5,0,0.5,0,1","1,0.5,0,1,0.5,0,0.5,0,1","1","",""
"","html-keyboard-response","17","62688","0.0-17.0","3MHW492WW1ZOA6PYQHF58IME0QYMVT","A10HW8JXM17XLD","3HUR21WDDUBEMSLDIXZW1FAIHW8YX3","","null","<img src=""img/food6.png"" style=""width:200px; border:14px solid green;"">","null","","","","","","","","","",""
"","image-keyboard-response","18","63439","0.0-18.0","3MHW492WW1ZOA6PYQHF58IME0QYMVT","A10HW8JXM17XLD","3HUR21WDDUBEMSLDIXZW1FAIHW8YX3","","748.5","img/food5.png","75","751","2","0","1","1","1,0.5,0,1,0.5,0,0.5,0,1","1,0.5,0,1,0.5,0,0.5,0,1","1","",""
"","html-keyboard-response","19","63744","0.0-19.0","3MHW492WW1ZOA6PYQHF58IME0QYMVT","A10HW8JXM17XLD","3HUR21WDDUBEMSLDIXZW1FAIHW8YX3","","null","<img src=""img/food5.png"" style=""width:200px;border:14px solid red;"">","null","","","","","","","","","",""
"","image-keyboard-response","20","64727","0.0-20.0","3MHW492WW1ZOA6PYQHF58IME0QYMVT","A10HW8JXM17XLD","3HUR21WDDUBEMSLDIXZW1FAIHW8YX3","","979.5","img/food1.png","74","982.0999999046326","1","1","2","1","1,0.5,0,1,0.5,0,0.5,0,1","1,0.5,0,1,0.5,0,0.5,0,1","1","",""
"","html-keyboard-response","21","65031","0.0-21.0","3MHW492WW1ZOA6PYQHF58IME0QYMVT","A10HW8JXM17XLD","3HUR21WDDUBEMSLDIXZW1FAIHW8YX3","","null","<img src=""img/food1.png"" style=""width:200px; border:14px solid green;"">","null","","","","","","","","","",""
"","image-keyboard-response","22","65511","0.0-22.0","3MHW492WW1ZOA6PYQHF58IME0QYMVT","A10HW8JXM17XLD","3HUR21WDDUBEMSLDIXZW1FAIHW8YX3","","476.90000009536743","img/food1.png","74","479","1","1","2","1","1,0.5,0,1,0.5,0,0.5,0,1","1,0.5,0,1,0.5,0,0.5,0,1","1","",""
"","html-keyboard-response","23","65816","0.0-23.0","3MHW492WW1ZOA6PYQHF58IME0QYMVT","A10HW8JXM17XLD","3HUR21WDDUBEMSLDIXZW1FAIHW8YX3","","null","<img src=""img/food1.png"" style=""width:200px; border:14px solid green;"">","null","","","","","","","","","",""
"","image-keyboard-response","24","66447","0.0-24.0","3MHW492WW1ZOA6PYQHF58IME0QYMVT","A10HW8JXM17XLD","3HUR21WDDUBEMSLDIXZW1FAIHW8YX3","","628.5","img/food1.png","74","630.9000000953674","1","1","2","1","1,0.5,0,1,0.5,0,0.5,0,1","1,0.5,0,1,0.5,0,0.5,0,1","1","",""
"","html-keyboard-response","25","66752","0.0-25.0","3MHW492WW1ZOA6PYQHF58IME0QYMVT","A10HW8JXM17XLD","3HUR21WDDUBEMSLDIXZW1FAIHW8YX3","","null","<img src=""img/food1.png"" style=""width:200px; border:14px solid green;"">","null","","","","","","","","","",""
"","image-keyboard-response","26","67991","0.0-26.0","3MHW492WW1ZOA6PYQHF58IME0QYMVT","A10HW8JXM17XLD","3HUR21WDDUBEMSLDIXZW1FAIHW8YX3","","1236.1000003814697","img/food6.png","76","1238.1999998092651","3","1","3","1","1,0.5,0,1,0.5,0,0.5,0,1","1,0.5,0,1,0.5,0,0.5,0,1","1","",""
"","html-keyboard-response","27","68296","0.0-27.0","3MHW492WW1ZOA6PYQHF58IME0QYMVT","A10HW8JXM17XLD","3HUR21WDDUBEMSLDIXZW1FAIHW8YX3","","null","<img src=""img/food6.png"" style=""width:200px; border:14px solid green;"">","null","","","","","","","","","",""
"","image-keyboard-response","28","68767","0.0-28.0","3MHW492WW1ZOA6PYQHF58IME0QYMVT","A10HW8JXM17XLD","3HUR21WDDUBEMSLDIXZW1FAIHW8YX3","","468.40000009536743","img/food6.png","76","470.69999980926514","3","1","3","1","1,0.5,0,1,0.5,0,0.5,0,1","1,0.5,0,1,0.5,0,0.5,0,1","1","",""
"","html-keyboard-response","29","69072","0.0-29.0","3MHW492WW1ZOA6PYQHF58IME0QYMVT","A10HW8JXM17XLD","3HUR21WDDUBEMSLDIXZW1FAIHW8YX3","","null","<img src=""img/food6.png"" style=""width:200px; border:14px solid green;"">","null","","","","","","","","","",""
"","image-keyboard-response","30","69927","0.0-30.0","3MHW492WW1ZOA6PYQHF58IME0QYMVT","A10HW8JXM17XLD","3HUR21WDDUBEMSLDIXZW1FAIHW8YX3","","852.2000002861023","img/food1.png","74","854.5999999046326","1","1","2","1","1,0.5,0,1,0.5,0,0.5,0,1","1,0.5,0,1,0.5,0,0.5,0,1","1","",""
"","html-keyboard-response","31","70231","0.0-31.0","3MHW492WW1ZOA6PYQHF58IME0QYMVT","A10HW8JXM17XLD","3HUR21WDDUBEMSLDIXZW1FAIHW8YX3","","null","<img src=""img/food1.png"" style=""width:200px; border:14px solid green;"">","null","","","","","","","","","",""
"","image-keyboard-response","32","71127","0.0-32.0","3MHW492WW1ZOA6PYQHF58IME0QYMVT","A10HW8JXM17XLD","3HUR21WDDUBEMSLDIXZW1FAIHW8YX3","","892.9000000953674","img/food5.png","75","895","2","0","1","1","1,0.5,0,1,0.5,0,0.5,0,1","1,0.5,0,1,0.5,0,0.5,0,1","1","",""
"","html-keyboard-response","33","71431","0.0-33.0","3MHW492WW1ZOA6PYQHF58IME0QYMVT","A10HW8JXM17XLD","3HUR21WDDUBEMSLDIXZW1FAIHW8YX3","","null","<img src=""img/food5.png"" style=""width:200px;border:14px solid red;"">","null","","","","","","","","","",""
"","image-keyboard-response","34","72679","0.0-34.0","3MHW492WW1ZOA6PYQHF58IME0QYMVT","A10HW8JXM17XLD","3HUR21WDDUBEMSLDIXZW1FAIHW8YX3","","1245.4000000953674","img/food6.png","76","1247.2999997138977","3","1","3","1","1,0.5,0,1,0.5,0,0.5,0,1","1,0.5,0,1,0.5,0,0.5,0,1","1","",""
"","html-keyboard-response","35","72984","0.0-35.0","3MHW492WW1ZOA6PYQHF58IME0QYMVT","A10HW8JXM17XLD","3HUR21WDDUBEMSLDIXZW1FAIHW8YX3","","null","<img src=""img/food6.png"" style=""width:200px; border:14px solid green;"">","null","","","","","","","","","",""
"","image-keyboard-response","36","73791","0.0-36.0","3MHW492WW1ZOA6PYQHF58IME0QYMVT","A10HW8JXM17XLD","3HUR21WDDUBEMSLDIXZW1FAIHW8YX3","","804.6999998092651","img/food1.png","74","806.6999998092651","1","1","2","1","1,0.5,0,1,0.5,0,0.5,0,1","1,0.5,0,1,0.5,0,0.5,0,1","1","",""
"","html-keyboard-response","37","74095","0.0-37.0","3MHW492WW1ZOA6PYQHF58IME0QYMVT","A10HW8JXM17XLD","3HUR21WDDUBEMSLDIXZW1FAIHW8YX3","","null","<img src=""img/food1.png"" style=""width:200px; border:14px solid green;"">","null","","","","","","","","","",""
"","image-keyboard-response","38","74679","0.0-38.0","3MHW492WW1ZOA6PYQHF58IME0QYMVT","A10HW8JXM17XLD","3HUR21WDDUBEMSLDIXZW1FAIHW8YX3","","580.5999999046326","img/food1.png","74","583","1","1","2","1","1,0.5,0,1,0.5,0,0.5,0,1","1,0.5,0,1,0.5,0,0.5,0,1","1","",""
"","html-keyboard-response","39","74984","0.0-39.0","3MHW492WW1ZOA6PYQHF58IME0QYMVT","A10HW8JXM17XLD","3HUR21WDDUBEMSLDIXZW1FAIHW8YX3","","null","<img src=""img/food1.png"" style=""width:200px; border:14px solid green;"">","null","","","","","","","","","",""
"","image-keyboard-response","40","75735","0.0-40.0","3MHW492WW1ZOA6PYQHF58IME0QYMVT","A10HW8JXM17XLD","3HUR21WDDUBEMSLDIXZW1FAIHW8YX3","","747.8000001907349","img/food6.png","76","749.8999996185303","3","1","3","1","1,0.5,0,1,0.5,0,0.5,0,1","1,0.5,0,1,0.5,0,0.5,0,1","1","",""
"","html-keyboard-response","41","76039","0.0-41.0","3MHW492WW1ZOA6PYQHF58IME0QYMVT","A10HW8JXM17XLD","3HUR21WDDUBEMSLDIXZW1FAIHW8YX3","","null","<img src=""img/food6.png"" style=""width:200px; border:14px solid green;"">","null","","","","","","","","","",""
"","image-keyboard-response","42","77119","0.0-42.0","3MHW492WW1ZOA6PYQHF58IME0QYMVT","A10HW8JXM17XLD","3HUR21WDDUBEMSLDIXZW1FAIHW8YX3","","1078.0999999046326","img/food5.png","76","1079.4000000953674","3","0","1","1","1,0.5,0,1,0.5,0,0.5,0,1","1,0.5,0,1,0.5,0,0.5,0,1","1","",""
"","html-keyboard-response","43","77424","0.0-43.0","3MHW492WW1ZOA6PYQHF58IME0QYMVT","A10HW8JXM17XLD","3HUR21WDDUBEMSLDIXZW1FAIHW8YX3","","null","<img src=""img/food5.png"" style=""width:200px;border:14px solid red;"">","null","","","","","","","","","",""
"","image-keyboard-response","44","78231","0.0-44.0","3MHW492WW1ZOA6PYQHF58IME0QYMVT","A10HW8JXM17XLD","3HUR21WDDUBEMSLDIXZW1FAIHW8YX3","","804.3000001907349","img/food5.png","74","806.5","1","1","1","1","1,0.5,0,1,0.5,0,0.5,0,1","1,0.5,0,1,0.5,0,0.5,0,1","1","",""
"","html-keyboard-response","45","78535","0.0-45.0","3MHW492WW1ZOA6PYQHF58IME0QYMVT","A10HW8JXM17XLD","3HUR21WDDUBEMSLDIXZW1FAIHW8YX3","","null","<img src=""img/food5.png"" style=""width:200px; border:14px solid green;"">","null","","","","","","","","","",""
"","image-keyboard-response","46","79159","0.0-46.0","3MHW492WW1ZOA6PYQHF58IME0QYMVT","A10HW8JXM17XLD","3HUR21WDDUBEMSLDIXZW1FAIHW8YX3","","621.6999998092651","img/food5.png","74","623.2000002861023","1","1","1","1","1,0.5,0,1,0.5,0,0.5,0,1","1,0.5,0,1,0.5,0,0.5,0,1","1","",""
"","html-keyboard-response","47","79463","0.0-47.0","3MHW492WW1ZOA6PYQHF58IME0QYMVT","A10HW8JXM17XLD","3HUR21WDDUBEMSLDIXZW1FAIHW8YX3","","null","<img src=""img/food5.png"" style=""width:200px; border:14px solid green;"">","null","","","","","","","","","",""
"","image-keyboard-response","48","79887","0.0-48.0","3MHW492WW1ZOA6PYQHF58IME0QYMVT","A10HW8JXM17XLD","3HUR21WDDUBEMSLDIXZW1FAIHW8YX3","","420.80000019073486","img/food5.png","74","422.80000019073486","1","1","1","1","1,0.5,0,1,0.5,0,0.5,0,1","1,0.5,0,1,0.5,0,0.5,0,1","1","",""
"","html-keyboard-response","49","80192","0.0-49.0","3MHW492WW1ZOA6PYQHF58IME0QYMVT","A10HW8JXM17XLD","3HUR21WDDUBEMSLDIXZW1FAIHW8YX3","","null","<img src=""img/food5.png"" style=""width:200px; border:14px solid green;"">","null","","","","","","","","","",""
"","image-keyboard-response","50","80999","0.0-50.0","3MHW492WW1ZOA6PYQHF58IME0QYMVT","A10HW8JXM17XLD","3HUR21WDDUBEMSLDIXZW1FAIHW8YX3","","803.9000000953674","img/food6.png","76","806","3","1","3","1","1,0.5,0,1,0.5,0,0.5,0,1","1,0.5,0,1,0.5,0,0.5,0,1","1","",""
"","html-keyboard-response","51","81304","0.0-51.0","3MHW492WW1ZOA6PYQHF58IME0QYMVT","A10HW8JXM17XLD","3HUR21WDDUBEMSLDIXZW1FAIHW8YX3","","null","<img src=""img/food6.png"" style=""width:200px; border:14px solid green;"">","null","","","","","","","","","",""
"","image-keyboard-response","52","82111","0.0-52.0","3MHW492WW1ZOA6PYQHF58IME0QYMVT","A10HW8JXM17XLD","3HUR21WDDUBEMSLDIXZW1FAIHW8YX3","","804.4000000953674","img/food5.png","74","806.5999999046326","1","1","1","1","1,0.5,0,1,0.5,0,0.5,0,1","1,0.5,0,1,0.5,0,0.5,0,1","1","",""
"","html-keyboard-response","53","82415","0.0-53.0","3MHW492WW1ZOA6PYQHF58IME0QYMVT","A10HW8JXM17XLD","3HUR21WDDUBEMSLDIXZW1FAIHW8YX3","","null","<img src=""img/food5.png"" style=""width:200px; border:14px solid green;"">","null","","","","","","","","","",""
"","image-keyboard-response","54","82959","0.0-54.0","3MHW492WW1ZOA6PYQHF58IME0QYMVT","A10HW8JXM17XLD","3HUR21WDDUBEMSLDIXZW1FAIHW8YX3","","540.9000000953674","img/food5.png","74","542.8000001907349","1","1","1","1","1,0.5,0,1,0.5,0,0.5,0,1","1,0.5,0,1,0.5,0,0.5,0,1","1","",""
"","html-keyboard-response","55","83264","0.0-55.0","3MHW492WW1ZOA6PYQHF58IME0QYMVT","A10HW8JXM17XLD","3HUR21WDDUBEMSLDIXZW1FAIHW8YX3","","null","<img src=""img/food5.png"" style=""width:200px; border:14px solid green;"">","null","","","","","","","","","",""
"","image-keyboard-response","56","84159","0.0-56.0","3MHW492WW1ZOA6PYQHF58IME0QYMVT","A10HW8JXM17XLD","3HUR21WDDUBEMSLDIXZW1FAIHW8YX3","","892.5999999046326","img/food1.png","74","894.9000000953674","1","1","2","1","1,0.5,0,1,0.5,0,0.5,0,1","1,0.5,0,1,0.5,0,0.5,0,1","1","",""
"","html-keyboard-response","57","84463","0.0-57.0","3MHW492WW1ZOA6PYQHF58IME0QYMVT","A10HW8JXM17XLD","3HUR21WDDUBEMSLDIXZW1FAIHW8YX3","","null","<img src=""img/food1.png"" style=""width:200px; border:14px solid green;"">","null","","","","","","","","","",""
"","image-keyboard-response","58","85087","0.0-58.0","3MHW492WW1ZOA6PYQHF58IME0QYMVT","A10HW8JXM17XLD","3HUR21WDDUBEMSLDIXZW1FAIHW8YX3","","620.5","img/food6.png","76","622.5999999046326","3","1","3","1","1,0.5,0,1,0.5,0,0.5,0,1","1,0.5,0,1,0.5,0,0.5,0,1","1","",""
"","html-keyboard-response","59","85392","0.0-59.0","3MHW492WW1ZOA6PYQHF58IME0QYMVT","A10HW8JXM17XLD","3HUR21WDDUBEMSLDIXZW1FAIHW8YX3","","null","<img src=""img/food6.png"" style=""width:200px; border:14px solid green;"">","null","","","","","","","","","",""
"","image-keyboard-response","60","85879","0.0-60.0","3MHW492WW1ZOA6PYQHF58IME0QYMVT","A10HW8JXM17XLD","3HUR21WDDUBEMSLDIXZW1FAIHW8YX3","","484.5","img/food6.png","76","486.80000019073486","3","1","3","1","1,0.5,0,1,0.5,0,0.5,0,1","1,0.5,0,1,0.5,0,0.5,0,1","1","",""
"","html-keyboard-response","61","86184","0.0-61.0","3MHW492WW1ZOA6PYQHF58IME0QYMVT","A10HW8JXM17XLD","3HUR21WDDUBEMSLDIXZW1FAIHW8YX3","","null","<img src=""img/food6.png"" style=""width:200px; border:14px solid green;"">","null","","","","","","","","","",""
"","image-keyboard-response","62","87031","0.0-62.0","3MHW492WW1ZOA6PYQHF58IME0QYMVT","A10HW8JXM17XLD","3HUR21WDDUBEMSLDIXZW1FAIHW8YX3","","844","img/food5.png","74","846.0999999046326","1","1","1","1","1,0.5,0,1,0.5,0,0.5,0,1","1,0.5,0,1,0.5,0,0.5,0,1","1","",""
"","html-keyboard-response","63","87336","0.0-63.0","3MHW492WW1ZOA6PYQHF58IME0QYMVT","A10HW8JXM17XLD","3HUR21WDDUBEMSLDIXZW1FAIHW8YX3","","null","<img src=""img/food5.png"" style=""width:200px; border:14px solid green;"">","null","","","","","","","","","",""
"","image-keyboard-response","64","87791","0.0-64.0","3MHW492WW1ZOA6PYQHF58IME0QYMVT","A10HW8JXM17XLD","3HUR21WDDUBEMSLDIXZW1FAIHW8YX3","","452.30000019073486","img/food5.png","74","454.2999997138977","1","1","1","1","1,0.5,0,1,0.5,0,0.5,0,1","1,0.5,0,1,0.5,0,0.5,0,1","1","",""
"","html-keyboard-response","65","88095","0.0-65.0","3MHW492WW1ZOA6PYQHF58IME0QYMVT","A10HW8JXM17XLD","3HUR21WDDUBEMSLDIXZW1FAIHW8YX3","","null","<img src=""img/food5.png"" style=""width:200px; border:14px solid green;"">","null","","","","","","","","","",""
"","image-keyboard-response","66","89094","0.0-66.0","3MHW492WW1ZOA6PYQHF58IME0QYMVT","A10HW8JXM17XLD","3HUR21WDDUBEMSLDIXZW1FAIHW8YX3","","996.4000000953674","img/food6.png","76","998.0999999046326","3","1","3","1","1,0.5,0,1,0.5,0,0.5,0,1","1,0.5,0,1,0.5,0,0.5,0,1","1","",""
"","html-keyboard-response","67","89400","0.0-67.0","3MHW492WW1ZOA6PYQHF58IME0QYMVT","A10HW8JXM17XLD","3HUR21WDDUBEMSLDIXZW1FAIHW8YX3","","null","<img src=""img/food6.png"" style=""width:200px; border:14px solid green;"">","null","","","","","","","","","",""
"","image-keyboard-response","68","90103","0.0-68.0","3MHW492WW1ZOA6PYQHF58IME0QYMVT","A10HW8JXM17XLD","3HUR21WDDUBEMSLDIXZW1FAIHW8YX3","","699.8000001907349","img/food5.png","74","701.7999997138977","1","1","1","1","1,0.5,0,1,0.5,0,0.5,0,1","1,0.5,0,1,0.5,0,0.5,0,1","1","",""
"","html-keyboard-response","69","90408","0.0-69.0","3MHW492WW1ZOA6PYQHF58IME0QYMVT","A10HW8JXM17XLD","3HUR21WDDUBEMSLDIXZW1FAIHW8YX3","","null","<img src=""img/food5.png"" style=""width:200px; border:14px solid green;"">","null","","","","","","","","","",""
"","image-keyboard-response","70","90983","0.0-70.0","3MHW492WW1ZOA6PYQHF58IME0QYMVT","A10HW8JXM17XLD","3HUR21WDDUBEMSLDIXZW1FAIHW8YX3","","572.0999999046326","img/food6.png","76","574","3","1","3","1","1,0.5,0,1,0.5,0,0.5,0,1","1,0.5,0,1,0.5,0,0.5,0,1","1","",""
"","html-keyboard-response","71","91287","0.0-71.0","3MHW492WW1ZOA6PYQHF58IME0QYMVT","A10HW8JXM17XLD","3HUR21WDDUBEMSLDIXZW1FAIHW8YX3","","null","<img src=""img/food6.png"" style=""width:200px; border:14px solid green;"">","null","","","","","","","","","",""
"","image-keyboard-response","72","91846","0.0-72.0","3MHW492WW1ZOA6PYQHF58IME0QYMVT","A10HW8JXM17XLD","3HUR21WDDUBEMSLDIXZW1FAIHW8YX3","","556.2999997138977","img/food6.png","76","558","3","1","3","1","1,0.5,0,1,0.5,0,0.5,0,1","1,0.5,0,1,0.5,0,0.5,0,1","1","",""
"","html-keyboard-response","73","92152","0.0-73.0","3MHW492WW1ZOA6PYQHF58IME0QYMVT","A10HW8JXM17XLD","3HUR21WDDUBEMSLDIXZW1FAIHW8YX3","","null","<img src=""img/food6.png"" style=""width:200px; border:14px solid green;"">","null","","","","","","","","","",""
"","image-keyboard-response","74","93071","0.0-74.0","3MHW492WW1ZOA6PYQHF58IME0QYMVT","A10HW8JXM17XLD","3HUR21WDDUBEMSLDIXZW1FAIHW8YX3","","916","img/food1.png","74","918","1","1","2","1","1,0.5,0,1,0.5,0,0.5,0,1","1,0.5,0,1,0.5,0,0.5,0,1","1","",""
"","html-keyboard-response","75","93376","0.0-75.0","3MHW492WW1ZOA6PYQHF58IME0QYMVT","A10HW8JXM17XLD","3HUR21WDDUBEMSLDIXZW1FAIHW8YX3","","null","<img src=""img/food1.png"" style=""width:200px; border:14px solid green;"">","null","","","","","","","","","",""
"","image-keyboard-response","76","94039","0.0-76.0","3MHW492WW1ZOA6PYQHF58IME0QYMVT","A10HW8JXM17XLD","3HUR21WDDUBEMSLDIXZW1FAIHW8YX3","","659.5999999046326","img/food6.png","76","662","3","1","3","1","1,0.5,0,1,0.5,0,0.5,0,1","1,0.5,0,1,0.5,0,0.5,0,1","1","",""
"","html-keyboard-response","77","94344","0.0-77.0","3MHW492WW1ZOA6PYQHF58IME0QYMVT","A10HW8JXM17XLD","3HUR21WDDUBEMSLDIXZW1FAIHW8YX3","","null","<img src=""img/food6.png"" style=""width:200px; border:14px solid green;"">","null","","","","","","","","","",""
"","image-keyboard-response","78","94863","0.0-78.0","3MHW492WW1ZOA6PYQHF58IME0QYMVT","A10HW8JXM17XLD","3HUR21WDDUBEMSLDIXZW1FAIHW8YX3","","515.6000003814697","img/food6.png","76","517.9000000953674","3","1","3","1","1,0.5,0,1,0.5,0,0.5,0,1","1,0.5,0,1,0.5,0,0.5,0,1","1","",""
"","html-keyboard-response","79","95168","0.0-79.0","3MHW492WW1ZOA6PYQHF58IME0QYMVT","A10HW8JXM17XLD","3HUR21WDDUBEMSLDIXZW1FAIHW8YX3","","null","<img src=""img/food6.png"" style=""width:200px; border:14px solid green;"">","null","","","","","","","","","",""
"","image-keyboard-response","80","95839","0.0-80.0","3MHW492WW1ZOA6PYQHF58IME0QYMVT","A10HW8JXM17XLD","3HUR21WDDUBEMSLDIXZW1FAIHW8YX3","","668.3000001907349","img/food5.png","74","670.1999998092651","1","1","1","1","1,0.5,0,1,0.5,0,0.5,0,1","1,0.5,0,1,0.5,0,0.5,0,1","1","",""
"","html-keyboard-response","81","96144","0.0-81.0","3MHW492WW1ZOA6PYQHF58IME0QYMVT","A10HW8JXM17XLD","3HUR21WDDUBEMSLDIXZW1FAIHW8YX3","","null","<img src=""img/food5.png"" style=""width:200px; border:14px solid green;"">","null","","","","","","","","","",""
"","image-keyboard-response","82","96671","0.0-82.0","3MHW492WW1ZOA6PYQHF58IME0QYMVT","A10HW8JXM17XLD","3HUR21WDDUBEMSLDIXZW1FAIHW8YX3","","523.8000001907349","img/food6.png","76","526","3","1","3","1","1,0.5,0,1,0.5,0,0.5,0,1","1,0.5,0,1,0.5,0,0.5,0,1","1","",""
"","html-keyboard-response","83","96976","0.0-83.0","3MHW492WW1ZOA6PYQHF58IME0QYMVT","A10HW8JXM17XLD","3HUR21WDDUBEMSLDIXZW1FAIHW8YX3","","null","<img src=""img/food6.png"" style=""width:200px; border:14px solid green;"">","null","","","","","","","","","",""
"","image-keyboard-response","84","97534","0.0-84.0","3MHW492WW1ZOA6PYQHF58IME0QYMVT","A10HW8JXM17XLD","3HUR21WDDUBEMSLDIXZW1FAIHW8YX3","","555.3000001907349","img/food6.png","76","557.3000001907349","3","1","3","1","1,0.5,0,1,0.5,0,0.5,0,1","1,0.5,0,1,0.5,0,0.5,0,1","1","",""
"","html-keyboard-response","85","97840","0.0-85.0","3MHW492WW1ZOA6PYQHF58IME0QYMVT","A10HW8JXM17XLD","3HUR21WDDUBEMSLDIXZW1FAIHW8YX3","","null","<img src=""img/food6.png"" style=""width:200px; border:14px solid green;"">","null","","","","","","","","","",""
"","image-keyboard-response","86","98399","0.0-86.0","3MHW492WW1ZOA6PYQHF58IME0QYMVT","A10HW8JXM17XLD","3HUR21WDDUBEMSLDIXZW1FAIHW8YX3","","556.8999996185303","img/food1.png","74","559","1","1","2","1","1,0.5,0,1,0.5,0,0.5,0,1","1,0.5,0,1,0.5,0,0.5,0,1","1","",""
"","html-keyboard-response","87","98704","0.0-87.0","3MHW492WW1ZOA6PYQHF58IME0QYMVT","A10HW8JXM17XLD","3HUR21WDDUBEMSLDIXZW1FAIHW8YX3","","null","<img src=""img/food1.png"" style=""width:200px; border:14px solid green;"">","null","","","","","","","","","",""
"","image-keyboard-response","88","99199","0.0-88.0","3MHW492WW1ZOA6PYQHF58IME0QYMVT","A10HW8JXM17XLD","3HUR21WDDUBEMSLDIXZW1FAIHW8YX3","","491.7000002861023","img/food6.png","76","493.80000019073486","3","1","3","1","1,0.5,0,1,0.5,0,0.5,0,1","1,0.5,0,1,0.5,0,0.5,0,1","1","",""
"","html-keyboard-response","89","99504","0.0-89.0","3MHW492WW1ZOA6PYQHF58IME0QYMVT","A10HW8JXM17XLD","3HUR21WDDUBEMSLDIXZW1FAIHW8YX3","","null","<img src=""img/food6.png"" style=""width:200px; border:14px solid green;"">","null","","","","","","","","","",""
"","image-keyboard-response","90","100199","0.0-90.0","3MHW492WW1ZOA6PYQHF58IME0QYMVT","A10HW8JXM17XLD","3HUR21WDDUBEMSLDIXZW1FAIHW8YX3","","692.3000001907349","img/food1.png","74","694.5","1","1","2","1","1,0.5,0,1,0.5,0,0.5,0,1","1,0.5,0,1,0.5,0,0.5,0,1","1","",""
"","html-keyboard-response","91","100503","0.0-91.0","3MHW492WW1ZOA6PYQHF58IME0QYMVT","A10HW8JXM17XLD","3HUR21WDDUBEMSLDIXZW1FAIHW8YX3","","null","<img src=""img/food1.png"" style=""width:200px; border:14px solid green;"">","null","","","","","","","","","",""
"","image-keyboard-response","92","101246","0.0-92.0","3MHW492WW1ZOA6PYQHF58IME0QYMVT","A10HW8JXM17XLD","3HUR21WDDUBEMSLDIXZW1FAIHW8YX3","","740","img/food5.png","76","742","3","0","1","1","1,0.5,0,1,0.5,0,0.5,0,1","1,0.5,0,1,0.5,0,0.5,0,1","1","",""
"","html-keyboard-response","93","101551","0.0-93.0","3MHW492WW1ZOA6PYQHF58IME0QYMVT","A10HW8JXM17XLD","3HUR21WDDUBEMSLDIXZW1FAIHW8YX3","","null","<img src=""img/food5.png"" style=""width:200px;border:14px solid red;"">","null","","","","","","","","","",""
"","image-keyboard-response","94","102343","0.0-94.0","3MHW492WW1ZOA6PYQHF58IME0QYMVT","A10HW8JXM17XLD","3HUR21WDDUBEMSLDIXZW1FAIHW8YX3","","788.6000003814697","img/food1.png","74","790.5","1","1","2","1","1,0.5,0,1,0.5,0,0.5,0,1","1,0.5,0,1,0.5,0,0.5,0,1","1","",""
"","html-keyboard-response","95","102648","0.0-95.0","3MHW492WW1ZOA6PYQHF58IME0QYMVT","A10HW8JXM17XLD","3HUR21WDDUBEMSLDIXZW1FAIHW8YX3","","null","<img src=""img/food1.png"" style=""width:200px; border:14px solid green;"">","null","","","","","","","","","",""
"","image-keyboard-response","96","103591","0.0-96.0","3MHW492WW1ZOA6PYQHF58IME0QYMVT","A10HW8JXM17XLD","3HUR21WDDUBEMSLDIXZW1FAIHW8YX3","","940.1000003814697","img/food6.png","76","942.1999998092651","3","1","3","1","1,0.5,0,1,0.5,0,0.5,0,1","1,0.5,0,1,0.5,0,0.5,0,1","1","",""
"","html-keyboard-response","97","103896","0.0-97.0","3MHW492WW1ZOA6PYQHF58IME0QYMVT","A10HW8JXM17XLD","3HUR21WDDUBEMSLDIXZW1FAIHW8YX3","","null","<img src=""img/food6.png"" style=""width:200px; border:14px solid green;"">","null","","","","","","","","","",""
"","image-keyboard-response","98","104559","0.0-98.0","3MHW492WW1ZOA6PYQHF58IME0QYMVT","A10HW8JXM17XLD","3HUR21WDDUBEMSLDIXZW1FAIHW8YX3","","660.8000001907349","img/food1.png","74","662.6999998092651","1","1","2","1","1,0.5,0,1,0.5,0,0.5,0,1","1,0.5,0,1,0.5,0,0.5,0,1","1","",""
"","html-keyboard-response","99","104865","0.0-99.0","3MHW492WW1ZOA6PYQHF58IME0QYMVT","A10HW8JXM17XLD","3HUR21WDDUBEMSLDIXZW1FAIHW8YX3","","null","<img src=""img/food1.png"" style=""width:200px; border:14px solid green;"">","null","","","","","","","","","",""
"","image-keyboard-response","100","105583","0.0-100.0","3MHW492WW1ZOA6PYQHF58IME0QYMVT","A10HW8JXM17XLD","3HUR21WDDUBEMSLDIXZW1FAIHW8YX3","","716","img/food6.png","76","718.2999997138977","3","1","3","1","1,0.5,0,1,0.5,0,0.5,0,1","1,0.5,0,1,0.5,0,0.5,0,1","1","",""
"","html-keyboard-response","101","105888","0.0-101.0","3MHW492WW1ZOA6PYQHF58IME0QYMVT","A10HW8JXM17XLD","3HUR21WDDUBEMSLDIXZW1FAIHW8YX3","","null","<img src=""img/food6.png"" style=""width:200px; border:14px solid green;"">","null","","","","","","","","","",""
"","image-keyboard-response","102","106519","0.0-102.0","3MHW492WW1ZOA6PYQHF58IME0QYMVT","A10HW8JXM17XLD","3HUR21WDDUBEMSLDIXZW1FAIHW8YX3","","628.5","img/food5.png","74","630.5999999046326","1","1","1","1","1,0.5,0,1,0.5,0,0.5,0,1","1,0.5,0,1,0.5,0,0.5,0,1","1","",""
"","html-keyboard-response","103","106824","0.0-103.0","3MHW492WW1ZOA6PYQHF58IME0QYMVT","A10HW8JXM17XLD","3HUR21WDDUBEMSLDIXZW1FAIHW8YX3","","null","<img src=""img/food5.png"" style=""width:200px; border:14px solid green;"">","null","","","","","","","","","",""
"","image-keyboard-response","104","107375","0.0-104.0","3MHW492WW1ZOA6PYQHF58IME0QYMVT","A10HW8JXM17XLD","3HUR21WDDUBEMSLDIXZW1FAIHW8YX3","","548.5","img/food5.png","74","550.5999999046326","1","1","1","1","1,0.5,0,1,0.5,0,0.5,0,1","1,0.5,0,1,0.5,0,0.5,0,1","1","",""
"","html-keyboard-response","105","107680","0.0-105.0","3MHW492WW1ZOA6PYQHF58IME0QYMVT","A10HW8JXM17XLD","3HUR21WDDUBEMSLDIXZW1FAIHW8YX3","","null","<img src=""img/food5.png"" style=""width:200px; border:14px solid green;"">","null","","","","","","","","","",""
"","image-keyboard-response","106","109287","0.0-106.0","3MHW492WW1ZOA6PYQHF58IME0QYMVT","A10HW8JXM17XLD","3HUR21WDDUBEMSLDIXZW1FAIHW8YX3","","1604.5","img/food6.png","76","1606.5999999046326","3","1","3","1","1,0.5,0,1,0.5,0,0.5,0,1","1,0.5,0,1,0.5,0,0.5,0,1","1","",""
"","html-keyboard-response","107","109592","0.0-107.0","3MHW492WW1ZOA6PYQHF58IME0QYMVT","A10HW8JXM17XLD","3HUR21WDDUBEMSLDIXZW1FAIHW8YX3","","null","<img src=""img/food6.png"" style=""width:200px; border:14px solid green;"">","null","","","","","","","","","",""
"","image-keyboard-response","108","110263","0.0-108.0","3MHW492WW1ZOA6PYQHF58IME0QYMVT","A10HW8JXM17XLD","3HUR21WDDUBEMSLDIXZW1FAIHW8YX3","","667.3000001907349","img/food5.png","74","669.9000000953674","1","1","1","1","1,0.5,0,1,0.5,0,0.5,0,1","1,0.5,0,1,0.5,0,0.5,0,1","1","",""
"","html-keyboard-response","109","110568","0.0-109.0","3MHW492WW1ZOA6PYQHF58IME0QYMVT","A10HW8JXM17XLD","3HUR21WDDUBEMSLDIXZW1FAIHW8YX3","","null","<img src=""img/food5.png"" style=""width:200px; border:14px solid green;"">","null","","","","","","","","","",""
"","image-keyboard-response","110","111967","0.0-110.0","3MHW492WW1ZOA6PYQHF58IME0QYMVT","A10HW8JXM17XLD","3HUR21WDDUBEMSLDIXZW1FAIHW8YX3","","1395.9000000953674","img/food1.png","74","1398","1","1","2","1","1,0.5,0,1,0.5,0,0.5,0,1","1,0.5,0,1,0.5,0,0.5,0,1","1","",""
"","html-keyboard-response","111","112272","0.0-111.0","3MHW492WW1ZOA6PYQHF58IME0QYMVT","A10HW8JXM17XLD","3HUR21WDDUBEMSLDIXZW1FAIHW8YX3","","null","<img src=""img/food1.png"" style=""width:200px; border:14px solid green;"">","null","","","","","","","","","",""
"","image-keyboard-response","112","113479","0.0-112.0","3MHW492WW1ZOA6PYQHF58IME0QYMVT","A10HW8JXM17XLD","3HUR21WDDUBEMSLDIXZW1FAIHW8YX3","","1204.5","img/food5.png","74","1206.5999999046326","1","1","1","1","1,0.5,0,1,0.5,0,0.5,0,1","1,0.5,0,1,0.5,0,0.5,0,1","1","",""
"","html-keyboard-response","113","113784","0.0-113.0","3MHW492WW1ZOA6PYQHF58IME0QYMVT","A10HW8JXM17XLD","3HUR21WDDUBEMSLDIXZW1FAIHW8YX3","","null","<img src=""img/food5.png"" style=""width:200px; border:14px solid green;"">","null","","","","","","","","","",""
"","image-keyboard-response","114","114463","0.0-114.0","3MHW492WW1ZOA6PYQHF58IME0QYMVT","A10HW8JXM17XLD","3HUR21WDDUBEMSLDIXZW1FAIHW8YX3","","676.1999998092651","img/food1.png","74","678.5","1","1","2","1","1,0.5,0,1,0.5,0,0.5,0,1","1,0.5,0,1,0.5,0,0.5,0,1","1","",""
"","html-keyboard-response","115","114768","0.0-115.0","3MHW492WW1ZOA6PYQHF58IME0QYMVT","A10HW8JXM17XLD","3HUR21WDDUBEMSLDIXZW1FAIHW8YX3","","null","<img src=""img/food1.png"" style=""width:200px; border:14px solid green;"">","null","","","","","","","","","",""
"","image-keyboard-response","116","115415","0.0-116.0","3MHW492WW1ZOA6PYQHF58IME0QYMVT","A10HW8JXM17XLD","3HUR21WDDUBEMSLDIXZW1FAIHW8YX3","","644.5","img/food5.png","74","646.5999999046326","1","1","1","1","1,0.5,0,1,0.5,0,0.5,0,1","1,0.5,0,1,0.5,0,0.5,0,1","1","",""
"","html-keyboard-response","117","115721","0.0-117.0","3MHW492WW1ZOA6PYQHF58IME0QYMVT","A10HW8JXM17XLD","3HUR21WDDUBEMSLDIXZW1FAIHW8YX3","","null","<img src=""img/food5.png"" style=""width:200px; border:14px solid green;"">","null","","","","","","","","","",""
"","image-keyboard-response","118","116295","0.0-118.0","3MHW492WW1ZOA6PYQHF58IME0QYMVT","A10HW8JXM17XLD","3HUR21WDDUBEMSLDIXZW1FAIHW8YX3","","571.6999998092651","img/food5.png","74","573.7000002861023","1","1","1","1","1,0.5,0,1,0.5,0,0.5,0,1","1,0.5,0,1,0.5,0,0.5,0,1","1","",""
"","html-keyboard-response","119","116600","0.0-119.0","3MHW492WW1ZOA6PYQHF58IME0QYMVT","A10HW8JXM17XLD","3HUR21WDDUBEMSLDIXZW1FAIHW8YX3","","null","<img src=""img/food5.png"" style=""width:200px; border:14px solid green;"">","null","","","","","","","","","",""
"","image-keyboard-response","120","117359","0.0-120.0","3MHW492WW1ZOA6PYQHF58IME0QYMVT","A10HW8JXM17XLD","3HUR21WDDUBEMSLDIXZW1FAIHW8YX3","","755.7999997138977","img/food1.png","74","758.0999999046326","1","1","2","1","1,0.5,0,1,0.5,0,0.5,0,1","1,0.5,0,1,0.5,0,0.5,0,1","1","",""
"","html-keyboard-response","121","117664","0.0-121.0","3MHW492WW1ZOA6PYQHF58IME0QYMVT","A10HW8JXM17XLD","3HUR21WDDUBEMSLDIXZW1FAIHW8YX3","","null","<img src=""img/food1.png"" style=""width:200px; border:14px solid green;"">","null","","","","","","","","","",""
"","image-keyboard-response","122","118367","0.0-122.0","3MHW492WW1ZOA6PYQHF58IME0QYMVT","A10HW8JXM17XLD","3HUR21WDDUBEMSLDIXZW1FAIHW8YX3","","699.8999996185303","img/food6.png","76","701.9000000953674","3","1","3","1","1,0.5,0,1,0.5,0,0.5,0,1","1,0.5,0,1,0.5,0,0.5,0,1","1","",""
"","html-keyboard-response","123","118671","0.0-123.0","3MHW492WW1ZOA6PYQHF58IME0QYMVT","A10HW8JXM17XLD","3HUR21WDDUBEMSLDIXZW1FAIHW8YX3","","null","<img src=""img/food6.png"" style=""width:200px; border:14px solid green;"">","null","","","","","","","","","",""
"","image-keyboard-response","124","119199","0.0-124.0","3MHW492WW1ZOA6PYQHF58IME0QYMVT","A10HW8JXM17XLD","3HUR21WDDUBEMSLDIXZW1FAIHW8YX3","","524.5","img/food6.png","76","526.5999999046326","3","1","3","1","1,0.5,0,1,0.5,0,0.5,0,1","1,0.5,0,1,0.5,0,0.5,0,1","1","",""
"","html-keyboard-response","125","119503","0.0-125.0","3MHW492WW1ZOA6PYQHF58IME0QYMVT","A10HW8JXM17XLD","3HUR21WDDUBEMSLDIXZW1FAIHW8YX3","","null","<img src=""img/food6.png"" style=""width:200px; border:14px solid green;"">","null","","","","","","","","","",""
"","image-keyboard-response","126","119983","0.0-126.0","3MHW492WW1ZOA6PYQHF58IME0QYMVT","A10HW8JXM17XLD","3HUR21WDDUBEMSLDIXZW1FAIHW8YX3","","476.5","img/food6.png","76","478.69999980926514","3","1","3","1","1,0.5,0,1,0.5,0,0.5,0,1","1,0.5,0,1,0.5,0,0.5,0,1","1","",""
"","html-keyboard-response","127","120288","0.0-127.0","3MHW492WW1ZOA6PYQHF58IME0QYMVT","A10HW8JXM17XLD","3HUR21WDDUBEMSLDIXZW1FAIHW8YX3","","null","<img src=""img/food6.png"" style=""width:200px; border:14px solid green;"">","null","","","","","","","","","",""
"","image-keyboard-response","128","120863","0.0-128.0","3MHW492WW1ZOA6PYQHF58IME0QYMVT","A10HW8JXM17XLD","3HUR21WDDUBEMSLDIXZW1FAIHW8YX3","","571.8999996185303","img/food5.png","74","574.0999999046326","1","1","1","1","1,0.5,0,1,0.5,0,0.5,0,1","1,0.5,0,1,0.5,0,0.5,0,1","1","",""
"","html-keyboard-response","129","121168","0.0-129.0","3MHW492WW1ZOA6PYQHF58IME0QYMVT","A10HW8JXM17XLD","3HUR21WDDUBEMSLDIXZW1FAIHW8YX3","","null","<img src=""img/food5.png"" style=""width:200px; border:14px solid green;"">","null","","","","","","","","","",""
"","image-keyboard-response","130","121863","0.0-130.0","3MHW492WW1ZOA6PYQHF58IME0QYMVT","A10HW8JXM17XLD","3HUR21WDDUBEMSLDIXZW1FAIHW8YX3","","692","img/food1.png","74","694.1999998092651","1","1","2","1","1,0.5,0,1,0.5,0,0.5,0,1","1,0.5,0,1,0.5,0,0.5,0,1","1","",""
"","html-keyboard-response","131","122168","0.0-131.0","3MHW492WW1ZOA6PYQHF58IME0QYMVT","A10HW8JXM17XLD","3HUR21WDDUBEMSLDIXZW1FAIHW8YX3","","null","<img src=""img/food1.png"" style=""width:200px; border:14px solid green;"">","null","","","","","","","","","",""
"","image-keyboard-response","132","122678","0.0-132.0","3MHW492WW1ZOA6PYQHF58IME0QYMVT","A10HW8JXM17XLD","3HUR21WDDUBEMSLDIXZW1FAIHW8YX3","","507.69999980926514","img/food1.png","74","509.5","1","1","2","1","1,0.5,0,1,0.5,0,0.5,0,1","1,0.5,0,1,0.5,0,0.5,0,1","1","",""
"","html-keyboard-response","133","122984","0.0-133.0","3MHW492WW1ZOA6PYQHF58IME0QYMVT","A10HW8JXM17XLD","3HUR21WDDUBEMSLDIXZW1FAIHW8YX3","","null","<img src=""img/food1.png"" style=""width:200px; border:14px solid green;"">","null","","","","","","","","","",""
"","image-keyboard-response","134","123671","0.0-134.0","3MHW492WW1ZOA6PYQHF58IME0QYMVT","A10HW8JXM17XLD","3HUR21WDDUBEMSLDIXZW1FAIHW8YX3","","684","img/food5.png","74","686","1","1","1","1","1,0.5,0,1,0.5,0,0.5,0,1","1,0.5,0,1,0.5,0,0.5,0,1","1","",""
"","html-keyboard-response","135","123976","0.0-135.0","3MHW492WW1ZOA6PYQHF58IME0QYMVT","A10HW8JXM17XLD","3HUR21WDDUBEMSLDIXZW1FAIHW8YX3","","null","<img src=""img/food5.png"" style=""width:200px; border:14px solid green;"">","null","","","","","","","","","",""
"","image-keyboard-response","136","124439","0.0-136.0","3MHW492WW1ZOA6PYQHF58IME0QYMVT","A10HW8JXM17XLD","3HUR21WDDUBEMSLDIXZW1FAIHW8YX3","","460.40000009536743","img/food5.png","74","462.5","1","1","1","1","1,0.5,0,1,0.5,0,0.5,0,1","1,0.5,0,1,0.5,0,0.5,0,1","1","",""
"","html-keyboard-response","137","124743","0.0-137.0","3MHW492WW1ZOA6PYQHF58IME0QYMVT","A10HW8JXM17XLD","3HUR21WDDUBEMSLDIXZW1FAIHW8YX3","","null","<img src=""img/food5.png"" style=""width:200px; border:14px solid green;"">","null","","","","","","","","","",""
"","image-keyboard-response","138","125631","0.0-138.0","3MHW492WW1ZOA6PYQHF58IME0QYMVT","A10HW8JXM17XLD","3HUR21WDDUBEMSLDIXZW1FAIHW8YX3","","885.5999999046326","img/food1.png","74","887.2999997138977","1","1","2","1","1,0.5,0,1,0.5,0,0.5,0,1","1,0.5,0,1,0.5,0,0.5,0,1","1","",""
"","html-keyboard-response","139","125936","0.0-139.0","3MHW492WW1ZOA6PYQHF58IME0QYMVT","A10HW8JXM17XLD","3HUR21WDDUBEMSLDIXZW1FAIHW8YX3","","null","<img src=""img/food1.png"" style=""width:200px; border:14px solid green;"">","null","","","","","","","","","",""
"","image-keyboard-response","140","126599","0.0-140.0","3MHW492WW1ZOA6PYQHF58IME0QYMVT","A10HW8JXM17XLD","3HUR21WDDUBEMSLDIXZW1FAIHW8YX3","","660.6999998092651","img/food5.png","74","662.8000001907349","1","1","1","1","1,0.5,0,1,0.5,0,0.5,0,1","1,0.5,0,1,0.5,0,0.5,0,1","1","",""
"","html-keyboard-response","141","126904","0.0-141.0","3MHW492WW1ZOA6PYQHF58IME0QYMVT","A10HW8JXM17XLD","3HUR21WDDUBEMSLDIXZW1FAIHW8YX3","","null","<img src=""img/food5.png"" style=""width:200px; border:14px solid green;"">","null","","","","","","","","","",""
"","image-keyboard-response","142","127414","0.0-142.0","3MHW492WW1ZOA6PYQHF58IME0QYMVT","A10HW8JXM17XLD","3HUR21WDDUBEMSLDIXZW1FAIHW8YX3","","507.09999990463257","img/food1.png","74","508.90000009536743","1","1","2","1","1,0.5,0,1,0.5,0,0.5,0,1","1,0.5,0,1,0.5,0,0.5,0,1","1","",""
"","html-keyboard-response","143","127720","0.0-143.0","3MHW492WW1ZOA6PYQHF58IME0QYMVT","A10HW8JXM17XLD","3HUR21WDDUBEMSLDIXZW1FAIHW8YX3","","null","<img src=""img/food1.png"" style=""width:200px; border:14px solid green;"">","null","","","","","","","","","",""
"","image-keyboard-response","144","128318","0.0-144.0","3MHW492WW1ZOA6PYQHF58IME0QYMVT","A10HW8JXM17XLD","3HUR21WDDUBEMSLDIXZW1FAIHW8YX3","","595.9000000953674","img/food1.png","74","598","1","1","2","1","1,0.5,0,1,0.5,0,0.5,0,1","1,0.5,0,1,0.5,0,0.5,0,1","1","",""
"","html-keyboard-response","145","128623","0.0-145.0","3MHW492WW1ZOA6PYQHF58IME0QYMVT","A10HW8JXM17XLD","3HUR21WDDUBEMSLDIXZW1FAIHW8YX3","","null","<img src=""img/food1.png"" style=""width:200px; border:14px solid green;"">","null","","","","","","","","","",""
"","image-keyboard-response","146","129279","0.0-146.0","3MHW492WW1ZOA6PYQHF58IME0QYMVT","A10HW8JXM17XLD","3HUR21WDDUBEMSLDIXZW1FAIHW8YX3","","652.7000002861023","img/food5.png","74","654.8999996185303","1","1","1","1","1,0.5,0,1,0.5,0,0.5,0,1","1,0.5,0,1,0.5,0,0.5,0,1","1","",""
"","html-keyboard-response","147","129584","0.0-147.0","3MHW492WW1ZOA6PYQHF58IME0QYMVT","A10HW8JXM17XLD","3HUR21WDDUBEMSLDIXZW1FAIHW8YX3","","null","<img src=""img/food5.png"" style=""width:200px; border:14px solid green;"">","null","","","","","","","","","",""
"","image-keyboard-response","148","130038","0.0-148.0","3MHW492WW1ZOA6PYQHF58IME0QYMVT","A10HW8JXM17XLD","3HUR21WDDUBEMSLDIXZW1FAIHW8YX3","","451.69999980926514","img/food5.png","74","453.6000003814697","1","1","1","1","1,0.5,0,1,0.5,0,0.5,0,1","1,0.5,0,1,0.5,0,0.5,0,1","1","",""
"","html-keyboard-response","149","130345","0.0-149.0","3MHW492WW1ZOA6PYQHF58IME0QYMVT","A10HW8JXM17XLD","3HUR21WDDUBEMSLDIXZW1FAIHW8YX3","","null","<img src=""img/food5.png"" style=""width:200px; border:14px solid green;"">","null","","","","","","","","","",""
"","image-keyboard-response","150","130935","0.0-150.0","3MHW492WW1ZOA6PYQHF58IME0QYMVT","A10HW8JXM17XLD","3HUR21WDDUBEMSLDIXZW1FAIHW8YX3","","586.8999996185303","img/food5.png","74","588.9000000953674","1","1","1","1","1,0.5,0,1,0.5,0,0.5,0,1","1,0.5,0,1,0.5,0,0.5,0,1","1","",""
"","html-keyboard-response","151","131240","0.0-151.0","3MHW492WW1ZOA6PYQHF58IME0QYMVT","A10HW8JXM17XLD","3HUR21WDDUBEMSLDIXZW1FAIHW8YX3","","null","<img src=""img/food5.png"" style=""width:200px; border:14px solid green;"">","null","","","","","","","","","",""
"","image-keyboard-response","152","131799","0.0-152.0","3MHW492WW1ZOA6PYQHF58IME0QYMVT","A10HW8JXM17XLD","3HUR21WDDUBEMSLDIXZW1FAIHW8YX3","","555.7999997138977","img/food5.png","74","558","1","1","1","1","1,0.5,0,1,0.5,0,0.5,0,1","1,0.5,0,1,0.5,0,0.5,0,1","1","",""
"","html-keyboard-response","153","132104","0.0-153.0","3MHW492WW1ZOA6PYQHF58IME0QYMVT","A10HW8JXM17XLD","3HUR21WDDUBEMSLDIXZW1FAIHW8YX3","","null","<img src=""img/food5.png"" style=""width:200px; border:14px solid green;"">","null","","","","","","","","","",""
"","image-keyboard-response","154","132831","0.0-154.0","3MHW492WW1ZOA6PYQHF58IME0QYMVT","A10HW8JXM17XLD","3HUR21WDDUBEMSLDIXZW1FAIHW8YX3","","723.5999999046326","img/food1.png","74","725.8000001907349","1","1","2","1","1,0.5,0,1,0.5,0,0.5,0,1","1,0.5,0,1,0.5,0,0.5,0,1","1","",""
"","html-keyboard-response","155","133135","0.0-155.0","3MHW492WW1ZOA6PYQHF58IME0QYMVT","A10HW8JXM17XLD","3HUR21WDDUBEMSLDIXZW1FAIHW8YX3","","null","<img src=""img/food1.png"" style=""width:200px; border:14px solid green;"">","null","","","","","","","","","",""
"","image-keyboard-response","156","133558","0.0-156.0","3MHW492WW1ZOA6PYQHF58IME0QYMVT","A10HW8JXM17XLD","3HUR21WDDUBEMSLDIXZW1FAIHW8YX3","","420.40000009536743","img/food1.png","74","422.5","1","1","2","1","1,0.5,0,1,0.5,0,0.5,0,1","1,0.5,0,1,0.5,0,0.5,0,1","1","",""
"","html-keyboard-response","157","133863","0.0-157.0","3MHW492WW1ZOA6PYQHF58IME0QYMVT","A10HW8JXM17XLD","3HUR21WDDUBEMSLDIXZW1FAIHW8YX3","","null","<img src=""img/food1.png"" style=""width:200px; border:14px solid green;"">","null","","","","","","","","","",""
"","image-keyboard-response","158","134567","0.0-158.0","3MHW492WW1ZOA6PYQHF58IME0QYMVT","A10HW8JXM17XLD","3HUR21WDDUBEMSLDIXZW1FAIHW8YX3","","700.6999998092651","img/food6.png","76","703","3","1","3","1","1,0.5,0,1,0.5,0,0.5,0,1","1,0.5,0,1,0.5,0,0.5,0,1","1","",""
"","html-keyboard-response","159","134872","0.0-159.0","3MHW492WW1ZOA6PYQHF58IME0QYMVT","A10HW8JXM17XLD","3HUR21WDDUBEMSLDIXZW1FAIHW8YX3","","null","<img src=""img/food6.png"" style=""width:200px; border:14px solid green;"">","null","","","","","","","","","",""
"","image-keyboard-response","160","135534","0.0-160.0","3MHW492WW1ZOA6PYQHF58IME0QYMVT","A10HW8JXM17XLD","3HUR21WDDUBEMSLDIXZW1FAIHW8YX3","","659.5","img/food5.png","74","661.8000001907349","1","1","1","1","1,0.5,0,1,0.5,0,0.5,0,1","1,0.5,0,1,0.5,0,0.5,0,1","1","",""
"","html-keyboard-response","161","135840","0.0-161.0","3MHW492WW1ZOA6PYQHF58IME0QYMVT","A10HW8JXM17XLD","3HUR21WDDUBEMSLDIXZW1FAIHW8YX3","","null","<img src=""img/food5.png"" style=""width:200px; border:14px solid green;"">","null","","","","","","","","","",""
"","image-keyboard-response","162","136880","0.0-162.0","3MHW492WW1ZOA6PYQHF58IME0QYMVT","A10HW8JXM17XLD","3HUR21WDDUBEMSLDIXZW1FAIHW8YX3","","1036.5","img/food1.png","74","1038.9000000953674","1","1","2","1","1,0.5,0,1,0.5,0,0.5,0,1","1,0.5,0,1,0.5,0,0.5,0,1","1","",""
"","html-keyboard-response","163","137184","0.0-163.0","3MHW492WW1ZOA6PYQHF58IME0QYMVT","A10HW8JXM17XLD","3HUR21WDDUBEMSLDIXZW1FAIHW8YX3","","null","<img src=""img/food1.png"" style=""width:200px; border:14px solid green;"">","null","","","","","","","","","",""
"","image-keyboard-response","164","137847","0.0-164.0","3MHW492WW1ZOA6PYQHF58IME0QYMVT","A10HW8JXM17XLD","3HUR21WDDUBEMSLDIXZW1FAIHW8YX3","","660.3000001907349","img/food6.png","76","662.4000000953674","3","1","3","1","1,0.5,0,1,0.5,0,0.5,0,1","1,0.5,0,1,0.5,0,0.5,0,1","1","",""
"","html-keyboard-response","165","138152","0.0-165.0","3MHW492WW1ZOA6PYQHF58IME0QYMVT","A10HW8JXM17XLD","3HUR21WDDUBEMSLDIXZW1FAIHW8YX3","","null","<img src=""img/food6.png"" style=""width:200px; border:14px solid green;"">","null","","","","","","","","","",""
"","image-keyboard-response","166","138630","0.0-166.0","3MHW492WW1ZOA6PYQHF58IME0QYMVT","A10HW8JXM17XLD","3HUR21WDDUBEMSLDIXZW1FAIHW8YX3","","475.5","img/food6.png","76","477.7000002861023","3","1","3","1","1,0.5,0,1,0.5,0,0.5,0,1","1,0.5,0,1,0.5,0,0.5,0,1","1","",""
"","html-keyboard-response","167","138937","0.0-167.0","3MHW492WW1ZOA6PYQHF58IME0QYMVT","A10HW8JXM17XLD","3HUR21WDDUBEMSLDIXZW1FAIHW8YX3","","null","<img src=""img/food6.png"" style=""width:200px; border:14px solid green;"">","null","","","","","","","","","",""
"","image-keyboard-response","168","139422","0.0-168.0","3MHW492WW1ZOA6PYQHF58IME0QYMVT","A10HW8JXM17XLD","3HUR21WDDUBEMSLDIXZW1FAIHW8YX3","","483.40000009536743","img/food6.png","76","485.40000009536743","3","1","3","1","1,0.5,0,1,0.5,0,0.5,0,1","1,0.5,0,1,0.5,0,0.5,0,1","1","",""
"","html-keyboard-response","169","139729","0.0-169.0","3MHW492WW1ZOA6PYQHF58IME0QYMVT","A10HW8JXM17XLD","3HUR21WDDUBEMSLDIXZW1FAIHW8YX3","","null","<img src=""img/food6.png"" style=""width:200px; border:14px solid green;"">","null","","","","","","","","","",""
"","image-keyboard-response","170","140318","0.0-170.0","3MHW492WW1ZOA6PYQHF58IME0QYMVT","A10HW8JXM17XLD","3HUR21WDDUBEMSLDIXZW1FAIHW8YX3","","587.0999999046326","img/food1.png","74","589.2000002861023","1","1","2","1","1,0.5,0,1,0.5,0,0.5,0,1","1,0.5,0,1,0.5,0,0.5,0,1","1","",""
"","html-keyboard-response","171","140624","0.0-171.0","3MHW492WW1ZOA6PYQHF58IME0QYMVT","A10HW8JXM17XLD","3HUR21WDDUBEMSLDIXZW1FAIHW8YX3","","null","<img src=""img/food1.png"" style=""width:200px; border:14px solid green;"">","null","","","","","","","","","",""
"","image-keyboard-response","172","141398","0.0-172.0","3MHW492WW1ZOA6PYQHF58IME0QYMVT","A10HW8JXM17XLD","3HUR21WDDUBEMSLDIXZW1FAIHW8YX3","","771.5999999046326","img/food5.png","74","773.7999997138977","1","1","1","1","1,0.5,0,1,0.5,0,0.5,0,1","1,0.5,0,1,0.5,0,0.5,0,1","1","",""
"","html-keyboard-response","173","141704","0.0-173.0","3MHW492WW1ZOA6PYQHF58IME0QYMVT","A10HW8JXM17XLD","3HUR21WDDUBEMSLDIXZW1FAIHW8YX3","","null","<img src=""img/food5.png"" style=""width:200px; border:14px solid green;"">","null","","","","","","","","","",""
"","image-keyboard-response","174","142159","0.0-174.0","3MHW492WW1ZOA6PYQHF58IME0QYMVT","A10HW8JXM17XLD","3HUR21WDDUBEMSLDIXZW1FAIHW8YX3","","452.19999980926514","img/food5.png","74","454.5","1","1","1","1","1,0.5,0,1,0.5,0,0.5,0,1","1,0.5,0,1,0.5,0,0.5,0,1","1","",""
"","html-keyboard-response","175","142464","0.0-175.0","3MHW492WW1ZOA6PYQHF58IME0QYMVT","A10HW8JXM17XLD","3HUR21WDDUBEMSLDIXZW1FAIHW8YX3","","null","<img src=""img/food5.png"" style=""width:200px; border:14px solid green;"">","null","","","","","","","","","",""
"","image-keyboard-response","176","143318","0.0-176.0","3MHW492WW1ZOA6PYQHF58IME0QYMVT","A10HW8JXM17XLD","3HUR21WDDUBEMSLDIXZW1FAIHW8YX3","","851.0999999046326","img/food1.png","74","853.2999997138977","1","1","2","1","1,0.5,0,1,0.5,0,0.5,0,1","1,0.5,0,1,0.5,0,0.5,0,1","1","",""
"","html-keyboard-response","177","143624","0.0-177.0","3MHW492WW1ZOA6PYQHF58IME0QYMVT","A10HW8JXM17XLD","3HUR21WDDUBEMSLDIXZW1FAIHW8YX3","","null","<img src=""img/food1.png"" style=""width:200px; border:14px solid green;"">","null","","","","","","","","","",""
"","image-keyboard-response","178","144070","0.0-178.0","3MHW492WW1ZOA6PYQHF58IME0QYMVT","A10HW8JXM17XLD","3HUR21WDDUBEMSLDIXZW1FAIHW8YX3","","443.90000009536743","img/food1.png","74","446.30000019073486","1","1","2","1","1,0.5,0,1,0.5,0,0.5,0,1","1,0.5,0,1,0.5,0,0.5,0,1","1","",""
"","html-keyboard-response","179","144376","0.0-179.0","3MHW492WW1ZOA6PYQHF58IME0QYMVT","A10HW8JXM17XLD","3HUR21WDDUBEMSLDIXZW1FAIHW8YX3","","null","<img src=""img/food1.png"" style=""width:200px; border:14px solid green;"">","null","","","","","","","","","",""
"","image-keyboard-response","180","144878","0.0-180.0","3MHW492WW1ZOA6PYQHF58IME0QYMVT","A10HW8JXM17XLD","3HUR21WDDUBEMSLDIXZW1FAIHW8YX3","","499.2999997138977","img/food1.png","74","501.7999997138977","1","1","2","1","1,0.5,0,1,0.5,0,0.5,0,1","1,0.5,0,1,0.5,0,0.5,0,1","1","",""
"","html-keyboard-response","181","145184","0.0-181.0","3MHW492WW1ZOA6PYQHF58IME0QYMVT","A10HW8JXM17XLD","3HUR21WDDUBEMSLDIXZW1FAIHW8YX3","","null","<img src=""img/food1.png"" style=""width:200px; border:14px solid green;"">","null","","","","","","","","","",""
"","html-keyboard-response","182","151934","0.0-182.0","3MHW492WW1ZOA6PYQHF58IME0QYMVT","A10HW8JXM17XLD","3HUR21WDDUBEMSLDIXZW1FAIHW8YX3","","","","","","","","","","","","","",""
"","instructions","183","177437","0.0-183.0","3MHW492WW1ZOA6PYQHF58IME0QYMVT","A10HW8JXM17XLD","3HUR21WDDUBEMSLDIXZW1FAIHW8YX3","[{""page_index"":0,""viewing_time"":23966.299999713898},{""page_index"":1,""viewing_time"":1536}]","25502.599999904633","","","","","","","","","","","",""
"","image-keyboard-response","184","178374","0.0-184.0","3MHW492WW1ZOA6PYQHF58IME0QYMVT","A10HW8JXM17XLD","3HUR21WDDUBEMSLDIXZW1FAIHW8YX3","","934.6999998092651","img/food4.png","74","936.8000001907349","1","0","3","2","1,0.5,0,1,0.5,0,0.5,0,1","1,0.5,0,1,0.5,0,0.5,0,1","1","false",""
"","html-keyboard-response","185","178679","0.0-185.0","3MHW492WW1ZOA6PYQHF58IME0QYMVT","A10HW8JXM17XLD","3HUR21WDDUBEMSLDIXZW1FAIHW8YX3","","null","<img src=""img/food4.png"" style=""width:200px;border:14px solid red;"">","null","","","","","","","","","",""
"","image-keyboard-response","186","179486","0.0-187.0","3MHW492WW1ZOA6PYQHF58IME0QYMVT","A10HW8JXM17XLD","3HUR21WDDUBEMSLDIXZW1FAIHW8YX3","","803.4000000953674","img/food2.png","75","805.5999999046326","2","1","1","2","1,0.5,0,1,0.5,0,0.5,0,1","1,0.5,0,1,0.5,0,0.5,0,1","1","false",""
"","html-keyboard-response","187","179792","0.0-188.0","3MHW492WW1ZOA6PYQHF58IME0QYMVT","A10HW8JXM17XLD","3HUR21WDDUBEMSLDIXZW1FAIHW8YX3","","null","<img src=""img/food2.png"" style=""width:200px; border:14px solid green;"">","null","","","","","","","","","",""
"","image-keyboard-response","188","180374","0.0-190.0","3MHW492WW1ZOA6PYQHF58IME0QYMVT","A10HW8JXM17XLD","3HUR21WDDUBEMSLDIXZW1FAIHW8YX3","","578.6999998092651","img/food2.png","75","581.2000002861023","2","0","1","2","1,0.5,0,1,0.5,0,0.5,0,1","1,0.5,0,1,0.5,0,0.5,0,1","1","false",""
"","html-keyboard-response","189","180680","0.0-191.0","3MHW492WW1ZOA6PYQHF58IME0QYMVT","A10HW8JXM17XLD","3HUR21WDDUBEMSLDIXZW1FAIHW8YX3","","null","<img src=""img/food2.png"" style=""width:200px;border:14px solid red;"">","null","","","","","","","","","",""
"","image-keyboard-response","190","181688","0.0-193.0","3MHW492WW1ZOA6PYQHF58IME0QYMVT","A10HW8JXM17XLD","3HUR21WDDUBEMSLDIXZW1FAIHW8YX3","","","img/food4.png","","1007.5999999046326","-1","0","3","2","1,0.5,0,1,0.5,0,0.5,0,1","1,0.5,0,1,0.5,0,0.5,0,1","1","true",""
"","html-keyboard-response","191","181999","0.0-194.0","3MHW492WW1ZOA6PYQHF58IME0QYMVT","A10HW8JXM17XLD","3HUR21WDDUBEMSLDIXZW1FAIHW8YX3","","null","<img src=""img/food4.png"" style=""width:200px;border:14px solid red;"">","null","","","","","","","","","",""
"","html-keyboard-response","192","186229","0.0-195.0-0.0","3MHW492WW1ZOA6PYQHF58IME0QYMVT","A10HW8JXM17XLD","3HUR21WDDUBEMSLDIXZW1FAIHW8YX3","","","","","","","","","","","","","",""
"","image-keyboard-response","193","187022","0.0-196.0","3MHW492WW1ZOA6PYQHF58IME0QYMVT","A10HW8JXM17XLD","3HUR21WDDUBEMSLDIXZW1FAIHW8YX3","","790.8000001907349","img/food4.png","74","792.4000000953674","1","1","3","2","1,0.5,0,1,0.5,0,0.5,0,1","1,0.5,0,1,0.5,0,0.5,0,1","1","false",""
"","html-keyboard-response","194","187327","0.0-197.0","3MHW492WW1ZOA6PYQHF58IME0QYMVT","A10HW8JXM17XLD","3HUR21WDDUBEMSLDIXZW1FAIHW8YX3","","null","<img src=""img/food4.png"" style=""width:200px; border:14px solid green;"">","null","","","","","","","","","",""
"","image-keyboard-response","195","187798","0.0-199.0","3MHW492WW1ZOA6PYQHF58IME0QYMVT","A10HW8JXM17XLD","3HUR21WDDUBEMSLDIXZW1FAIHW8YX3","","467.7000002861023","img/food4.png","74","470","1","1","3","2","1,0.5,0,1,0.5,0,0.5,0,1","1,0.5,0,1,0.5,0,0.5,0,1","1","false",""
"","html-keyboard-response","196","188104","0.0-200.0","3MHW492WW1ZOA6PYQHF58IME0QYMVT","A10HW8JXM17XLD","3HUR21WDDUBEMSLDIXZW1FAIHW8YX3","","null","<img src=""img/food4.png"" style=""width:200px; border:14px solid green;"">","null","","","","","","","","","",""
"","image-keyboard-response","197","188790","0.0-202.0","3MHW492WW1ZOA6PYQHF58IME0QYMVT","A10HW8JXM17XLD","3HUR21WDDUBEMSLDIXZW1FAIHW8YX3","","682.1999998092651","img/food3.png","75","684.6999998092651","2","0","2","2","1,0.5,0,1,0.5,0,0.5,0,1","1,0.5,0,1,0.5,0,0.5,0,1","1","false",""
"","html-keyboard-response","198","189095","0.0-203.0","3MHW492WW1ZOA6PYQHF58IME0QYMVT","A10HW8JXM17XLD","3HUR21WDDUBEMSLDIXZW1FAIHW8YX3","","null","<img src=""img/food3.png"" style=""width:200px;border:14px solid red;"">","null","","","","","","","","","",""
"","image-keyboard-response","199","189646","0.0-205.0","3MHW492WW1ZOA6PYQHF58IME0QYMVT","A10HW8JXM17XLD","3HUR21WDDUBEMSLDIXZW1FAIHW8YX3","","547.7000002861023","img/food3.png","76","549.7999997138977","3","0","2","2","1,0.5,0,1,0.5,0,0.5,0,1","1,0.5,0,1,0.5,0,0.5,0,1","1","false",""
"","html-keyboard-response","200","189952","0.0-206.0","3MHW492WW1ZOA6PYQHF58IME0QYMVT","A10HW8JXM17XLD","3HUR21WDDUBEMSLDIXZW1FAIHW8YX3","","null","<img src=""img/food3.png"" style=""width:200px;border:14px solid red;"">","null","","","","","","","","","",""
"","image-keyboard-response","201","190654","0.0-208.0","3MHW492WW1ZOA6PYQHF58IME0QYMVT","A10HW8JXM17XLD","3HUR21WDDUBEMSLDIXZW1FAIHW8YX3","","699.0999999046326","img/food2.png","74","701.0999999046326","1","1","1","2","1,0.5,0,1,0.5,0,0.5,0,1","1,0.5,0,1,0.5,0,0.5,0,1","1","false",""
"","html-keyboard-response","202","190961","0.0-209.0","3MHW492WW1ZOA6PYQHF58IME0QYMVT","A10HW8JXM17XLD","3HUR21WDDUBEMSLDIXZW1FAIHW8YX3","","null","<img src=""img/food2.png"" style=""width:200px; border:14px solid green;"">","null","","","","","","","","","",""
"","image-keyboard-response","203","191382","0.0-211.0","3MHW492WW1ZOA6PYQHF58IME0QYMVT","A10HW8JXM17XLD","3HUR21WDDUBEMSLDIXZW1FAIHW8YX3","","417.80000019073486","img/food2.png","74","420","1","1","1","2","1,0.5,0,1,0.5,0,0.5,0,1","1,0.5,0,1,0.5,0,0.5,0,1","1","false",""
"","html-keyboard-response","204","191687","0.0-212.0","3MHW492WW1ZOA6PYQHF58IME0QYMVT","A10HW8JXM17XLD","3HUR21WDDUBEMSLDIXZW1FAIHW8YX3","","null","<img src=""img/food2.png"" style=""width:200px; border:14px solid green;"">","null","","","","","","","","","",""
"","image-keyboard-response","205","192414","0.0-214.0","3MHW492WW1ZOA6PYQHF58IME0QYMVT","A10HW8JXM17XLD","3HUR21WDDUBEMSLDIXZW1FAIHW8YX3","","723.5999999046326","img/food3.png","74","725.8000001907349","1","1","2","2","1,0.5,0,1,0.5,0,0.5,0,1","1,0.5,0,1,0.5,0,0.5,0,1","1","false",""
"","html-keyboard-response","206","192721","0.0-215.0","3MHW492WW1ZOA6PYQHF58IME0QYMVT","A10HW8JXM17XLD","3HUR21WDDUBEMSLDIXZW1FAIHW8YX3","","null","<img src=""img/food3.png"" style=""width:200px; border:14px solid green;"">","null","","","","","","","","","",""
"","image-keyboard-response","207","193174","0.0-217.0","3MHW492WW1ZOA6PYQHF58IME0QYMVT","A10HW8JXM17XLD","3HUR21WDDUBEMSLDIXZW1FAIHW8YX3","","450.59999990463257","img/food4.png","74","452.7999997138977","1","1","3","2","1,0.5,0,1,0.5,0,0.5,0,1","1,0.5,0,1,0.5,0,0.5,0,1","1","false",""
"","html-keyboard-response","208","193479","0.0-218.0","3MHW492WW1ZOA6PYQHF58IME0QYMVT","A10HW8JXM17XLD","3HUR21WDDUBEMSLDIXZW1FAIHW8YX3","","null","<img src=""img/food4.png"" style=""width:200px; border:14px solid green;"">","null","","","","","","","","","",""
"","image-keyboard-response","209","193918","0.0-220.0","3MHW492WW1ZOA6PYQHF58IME0QYMVT","A10HW8JXM17XLD","3HUR21WDDUBEMSLDIXZW1FAIHW8YX3","","435.3999996185303","img/food3.png","74","437.5","1","1","2","2","1,0.5,0,1,0.5,0,0.5,0,1","1,0.5,0,1,0.5,0,0.5,0,1","1","false",""
"","html-keyboard-response","210","194224","0.0-221.0","3MHW492WW1ZOA6PYQHF58IME0QYMVT","A10HW8JXM17XLD","3HUR21WDDUBEMSLDIXZW1FAIHW8YX3","","null","<img src=""img/food3.png"" style=""width:200px; border:14px solid green;"">","null","","","","","","","","","",""
"","image-keyboard-response","211","194798","0.0-223.0","3MHW492WW1ZOA6PYQHF58IME0QYMVT","A10HW8JXM17XLD","3HUR21WDDUBEMSLDIXZW1FAIHW8YX3","","570.5","img/food4.png","74","572.4000000953674","1","0","3","2","1,0.5,0,1,0.5,0,0.5,0,1","1,0.5,0,1,0.5,0,0.5,0,1","1","false",""
"","html-keyboard-response","212","195103","0.0-224.0","3MHW492WW1ZOA6PYQHF58IME0QYMVT","A10HW8JXM17XLD","3HUR21WDDUBEMSLDIXZW1FAIHW8YX3","","null","<img src=""img/food4.png"" style=""width:200px;border:14px solid red;"">","null","","","","","","","","","",""
"","image-keyboard-response","213","195862","0.0-226.0","3MHW492WW1ZOA6PYQHF58IME0QYMVT","A10HW8JXM17XLD","3HUR21WDDUBEMSLDIXZW1FAIHW8YX3","","755.5999999046326","img/food3.png","74","757.6000003814697","1","1","2","2","1,0.5,0,1,0.5,0,0.5,0,1","1,0.5,0,1,0.5,0,0.5,0,1","1","false",""
"","html-keyboard-response","214","196168","0.0-227.0","3MHW492WW1ZOA6PYQHF58IME0QYMVT","A10HW8JXM17XLD","3HUR21WDDUBEMSLDIXZW1FAIHW8YX3","","null","<img src=""img/food3.png"" style=""width:200px; border:14px solid green;"">","null","","","","","","","","","",""
"","image-keyboard-response","215","196510","0.0-229.0","3MHW492WW1ZOA6PYQHF58IME0QYMVT","A10HW8JXM17XLD","3HUR21WDDUBEMSLDIXZW1FAIHW8YX3","","339.09999990463257","img/food3.png","74","341.19999980926514","1","1","2","2","1,0.5,0,1,0.5,0,0.5,0,1","1,0.5,0,1,0.5,0,0.5,0,1","1","false",""
"","html-keyboard-response","216","196816","0.0-230.0","3MHW492WW1ZOA6PYQHF58IME0QYMVT","A10HW8JXM17XLD","3HUR21WDDUBEMSLDIXZW1FAIHW8YX3","","null","<img src=""img/food3.png"" style=""width:200px; border:14px solid green;"">","null","","","","","","","","","",""
"","image-keyboard-response","217","197262","0.0-232.0","3MHW492WW1ZOA6PYQHF58IME0QYMVT","A10HW8JXM17XLD","3HUR21WDDUBEMSLDIXZW1FAIHW8YX3","","442.5","img/food3.png","74","444.59999990463257","1","1","2","2","1,0.5,0,1,0.5,0,0.5,0,1","1,0.5,0,1,0.5,0,0.5,0,1","1","false",""
"","html-keyboard-response","218","197568","0.0-233.0","3MHW492WW1ZOA6PYQHF58IME0QYMVT","A10HW8JXM17XLD","3HUR21WDDUBEMSLDIXZW1FAIHW8YX3","","null","<img src=""img/food3.png"" style=""width:200px; border:14px solid green;"">","null","","","","","","","","","",""
"","image-keyboard-response","219","198262","0.0-235.0","3MHW492WW1ZOA6PYQHF58IME0QYMVT","A10HW8JXM17XLD","3HUR21WDDUBEMSLDIXZW1FAIHW8YX3","","690.9000000953674","img/food2.png","74","693.1999998092651","1","1","1","2","1,0.5,0,1,0.5,0,0.5,0,1","1,0.5,0,1,0.5,0,0.5,0,1","1","false",""
"","html-keyboard-response","220","198568","0.0-236.0","3MHW492WW1ZOA6PYQHF58IME0QYMVT","A10HW8JXM17XLD","3HUR21WDDUBEMSLDIXZW1FAIHW8YX3","","null","<img src=""img/food2.png"" style=""width:200px; border:14px solid green;"">","null","","","","","","","","","",""
"","image-keyboard-response","221","199094","0.0-238.0","3MHW492WW1ZOA6PYQHF58IME0QYMVT","A10HW8JXM17XLD","3HUR21WDDUBEMSLDIXZW1FAIHW8YX3","","523","img/food4.png","74","525.0999999046326","1","1","3","2","1,0.5,0,1,0.5,0,0.5,0,1","1,0.5,0,1,0.5,0,0.5,0,1","1","false",""
"","html-keyboard-response","222","199399","0.0-239.0","3MHW492WW1ZOA6PYQHF58IME0QYMVT","A10HW8JXM17XLD","3HUR21WDDUBEMSLDIXZW1FAIHW8YX3","","null","<img src=""img/food4.png"" style=""width:200px; border:14px solid green;"">","null","","","","","","","","","",""
"","image-keyboard-response","223","200014","0.0-241.0","3MHW492WW1ZOA6PYQHF58IME0QYMVT","A10HW8JXM17XLD","3HUR21WDDUBEMSLDIXZW1FAIHW8YX3","","611.6999998092651","img/food3.png","74","613.9000000953674","1","1","2","2","1,0.5,0,1,0.5,0,0.5,0,1","1,0.5,0,1,0.5,0,0.5,0,1","1","false",""
"","html-keyboard-response","224","200320","0.0-242.0","3MHW492WW1ZOA6PYQHF58IME0QYMVT","A10HW8JXM17XLD","3HUR21WDDUBEMSLDIXZW1FAIHW8YX3","","null","<img src=""img/food3.png"" style=""width:200px; border:14px solid green;"">","null","","","","","","","","","",""
"","image-keyboard-response","225","200822","0.0-244.0","3MHW492WW1ZOA6PYQHF58IME0QYMVT","A10HW8JXM17XLD","3HUR21WDDUBEMSLDIXZW1FAIHW8YX3","","498.69999980926514","img/food4.png","74","500.90000009536743","1","1","3","2","1,0.5,0,1,0.5,0,0.5,0,1","1,0.5,0,1,0.5,0,0.5,0,1","1","false",""
"","html-keyboard-response","226","201128","0.0-245.0","3MHW492WW1ZOA6PYQHF58IME0QYMVT","A10HW8JXM17XLD","3HUR21WDDUBEMSLDIXZW1FAIHW8YX3","","null","<img src=""img/food4.png"" style=""width:200px; border:14px solid green;"">","null","","","","","","","","","",""
"","image-keyboard-response","227","201678","0.0-247.0","3MHW492WW1ZOA6PYQHF58IME0QYMVT","A10HW8JXM17XLD","3HUR21WDDUBEMSLDIXZW1FAIHW8YX3","","546.7999997138977","img/food3.png","74","548.9000000953674","1","1","2","2","1,0.5,0,1,0.5,0,0.5,0,1","1,0.5,0,1,0.5,0,0.5,0,1","1","false",""
"","html-keyboard-response","228","201983","0.0-248.0","3MHW492WW1ZOA6PYQHF58IME0QYMVT","A10HW8JXM17XLD","3HUR21WDDUBEMSLDIXZW1FAIHW8YX3","","null","<img src=""img/food3.png"" style=""width:200px; border:14px solid green;"">","null","","","","","","","","","",""
"","image-keyboard-response","229","202878","0.0-250.0","3MHW492WW1ZOA6PYQHF58IME0QYMVT","A10HW8JXM17XLD","3HUR21WDDUBEMSLDIXZW1FAIHW8YX3","","891.5999999046326","img/food2.png","76","893.5","3","0","1","2","1,0.5,0,1,0.5,0,0.5,0,1","1,0.5,0,1,0.5,0,0.5,0,1","1","false",""
"","html-keyboard-response","230","203185","0.0-251.0","3MHW492WW1ZOA6PYQHF58IME0QYMVT","A10HW8JXM17XLD","3HUR21WDDUBEMSLDIXZW1FAIHW8YX3","","null","<img src=""img/food2.png"" style=""width:200px;border:14px solid red;"">","null","","","","","","","","","",""
"","image-keyboard-response","231","203742","0.0-253.0","3MHW492WW1ZOA6PYQHF58IME0QYMVT","A10HW8JXM17XLD","3HUR21WDDUBEMSLDIXZW1FAIHW8YX3","","554.3000001907349","img/food3.png","74","556.5999999046326","1","1","2","2","1,0.5,0,1,0.5,0,0.5,0,1","1,0.5,0,1,0.5,0,0.5,0,1","1","false",""
"","html-keyboard-response","232","204049","0.0-254.0","3MHW492WW1ZOA6PYQHF58IME0QYMVT","A10HW8JXM17XLD","3HUR21WDDUBEMSLDIXZW1FAIHW8YX3","","null","<img src=""img/food3.png"" style=""width:200px; border:14px solid green;"">","null","","","","","","","","","",""
"","image-keyboard-response","233","204510","0.0-256.0","3MHW492WW1ZOA6PYQHF58IME0QYMVT","A10HW8JXM17XLD","3HUR21WDDUBEMSLDIXZW1FAIHW8YX3","","458.5","img/food3.png","74","460.69999980926514","1","1","2","2","1,0.5,0,1,0.5,0,0.5,0,1","1,0.5,0,1,0.5,0,0.5,0,1","1","false",""
"","html-keyboard-response","234","204815","0.0-257.0","3MHW492WW1ZOA6PYQHF58IME0QYMVT","A10HW8JXM17XLD","3HUR21WDDUBEMSLDIXZW1FAIHW8YX3","","null","<img src=""img/food3.png"" style=""width:200px; border:14px solid green;"">","null","","","","","","","","","",""
"","image-keyboard-response","235","205294","0.0-259.0","3MHW492WW1ZOA6PYQHF58IME0QYMVT","A10HW8JXM17XLD","3HUR21WDDUBEMSLDIXZW1FAIHW8YX3","","475.40000009536743","img/food3.png","74","477.59999990463257","1","1","2","2","1,0.5,0,1,0.5,0,0.5,0,1","1,0.5,0,1,0.5,0,0.5,0,1","1","false",""
"","html-keyboard-response","236","205599","0.0-260.0","3MHW492WW1ZOA6PYQHF58IME0QYMVT","A10HW8JXM17XLD","3HUR21WDDUBEMSLDIXZW1FAIHW8YX3","","null","<img src=""img/food3.png"" style=""width:200px; border:14px solid green;"">","null","","","","","","","","","",""
"","image-keyboard-response","237","206334","0.0-262.0","3MHW492WW1ZOA6PYQHF58IME0QYMVT","A10HW8JXM17XLD","3HUR21WDDUBEMSLDIXZW1FAIHW8YX3","","731.4000000953674","img/food4.png","74","733.5999999046326","1","1","3","2","1,0.5,0,1,0.5,0,0.5,0,1","1,0.5,0,1,0.5,0,0.5,0,1","1","false",""
"","html-keyboard-response","238","206641","0.0-263.0","3MHW492WW1ZOA6PYQHF58IME0QYMVT","A10HW8JXM17XLD","3HUR21WDDUBEMSLDIXZW1FAIHW8YX3","","null","<img src=""img/food4.png"" style=""width:200px; border:14px solid green;"">","null","","","","","","","","","",""
"","image-keyboard-response","239","207046","0.0-265.0","3MHW492WW1ZOA6PYQHF58IME0QYMVT","A10HW8JXM17XLD","3HUR21WDDUBEMSLDIXZW1FAIHW8YX3","","402.5","img/food4.png","74","404.59999990463257","1","1","3","2","1,0.5,0,1,0.5,0,0.5,0,1","1,0.5,0,1,0.5,0,0.5,0,1","1","false",""
"","html-keyboard-response","240","207351","0.0-266.0","3MHW492WW1ZOA6PYQHF58IME0QYMVT","A10HW8JXM17XLD","3HUR21WDDUBEMSLDIXZW1FAIHW8YX3","","null","<img src=""img/food4.png"" style=""width:200px; border:14px solid green;"">","null","","","","","","","","","",""
"","image-keyboard-response","241","207758","0.0-268.0","3MHW492WW1ZOA6PYQHF58IME0QYMVT","A10HW8JXM17XLD","3HUR21WDDUBEMSLDIXZW1FAIHW8YX3","","403.30000019073486","img/food4.png","74","405.5","1","1","3","2","1,0.5,0,1,0.5,0,0.5,0,1","1,0.5,0,1,0.5,0,0.5,0,1","1","false",""
"","html-keyboard-response","242","208064","0.0-269.0","3MHW492WW1ZOA6PYQHF58IME0QYMVT","A10HW8JXM17XLD","3HUR21WDDUBEMSLDIXZW1FAIHW8YX3","","null","<img src=""img/food4.png"" style=""width:200px; border:14px solid green;"">","null","","","","","","","","","",""
"","image-keyboard-response","243","208509","0.0-271.0","3MHW492WW1ZOA6PYQHF58IME0QYMVT","A10HW8JXM17XLD","3HUR21WDDUBEMSLDIXZW1FAIHW8YX3","","442.59999990463257","img/food4.png","74","444.59999990463257","1","0","3","2","1,0.5,0,1,0.5,0,0.5,0,1","1,0.5,0,1,0.5,0,0.5,0,1","1","false",""
"","html-keyboard-response","244","208816","0.0-272.0","3MHW492WW1ZOA6PYQHF58IME0QYMVT","A10HW8JXM17XLD","3HUR21WDDUBEMSLDIXZW1FAIHW8YX3","","null","<img src=""img/food4.png"" style=""width:200px;border:14px solid red;"">","null","","","","","","","","","",""
"","image-keyboard-response","245","209382","0.0-274.0","3MHW492WW1ZOA6PYQHF58IME0QYMVT","A10HW8JXM17XLD","3HUR21WDDUBEMSLDIXZW1FAIHW8YX3","","562.7000002861023","img/food2.png","74","564.9000000953674","1","1","1","2","1,0.5,0,1,0.5,0,0.5,0,1","1,0.5,0,1,0.5,0,0.5,0,1","1","false",""
"","html-keyboard-response","246","209688","0.0-275.0","3MHW492WW1ZOA6PYQHF58IME0QYMVT","A10HW8JXM17XLD","3HUR21WDDUBEMSLDIXZW1FAIHW8YX3","","null","<img src=""img/food2.png"" style=""width:200px; border:14px solid green;"">","null","","","","","","","","","",""
"","image-keyboard-response","247","210230","0.0-277.0","3MHW492WW1ZOA6PYQHF58IME0QYMVT","A10HW8JXM17XLD","3HUR21WDDUBEMSLDIXZW1FAIHW8YX3","","538.5","img/food4.png","74","541","1","0","3","2","1,0.5,0,1,0.5,0,0.5,0,1","1,0.5,0,1,0.5,0,0.5,0,1","1","false",""
"","html-keyboard-response","248","210535","0.0-278.0","3MHW492WW1ZOA6PYQHF58IME0QYMVT","A10HW8JXM17XLD","3HUR21WDDUBEMSLDIXZW1FAIHW8YX3","","null","<img src=""img/food4.png"" style=""width:200px;border:14px solid red;"">","null","","","","","","","","","",""
"","image-keyboard-response","249","211166","0.0-280.0","3MHW492WW1ZOA6PYQHF58IME0QYMVT","A10HW8JXM17XLD","3HUR21WDDUBEMSLDIXZW1FAIHW8YX3","","627","img/food3.png","74","629.2000002861023","1","1","2","2","1,0.5,0,1,0.5,0,0.5,0,1","1,0.5,0,1,0.5,0,0.5,0,1","1","false",""
"","html-keyboard-response","250","211472","0.0-281.0","3MHW492WW1ZOA6PYQHF58IME0QYMVT","A10HW8JXM17XLD","3HUR21WDDUBEMSLDIXZW1FAIHW8YX3","","null","<img src=""img/food3.png"" style=""width:200px; border:14px solid green;"">","null","","","","","","","","","",""
"","image-keyboard-response","251","211926","0.0-283.0","3MHW492WW1ZOA6PYQHF58IME0QYMVT","A10HW8JXM17XLD","3HUR21WDDUBEMSLDIXZW1FAIHW8YX3","","450.5","img/food4.png","74","452.69999980926514","1","1","3","2","1,0.5,0,1,0.5,0,0.5,0,1","1,0.5,0,1,0.5,0,0.5,0,1","1","false",""
"","html-keyboard-response","252","212232","0.0-284.0","3MHW492WW1ZOA6PYQHF58IME0QYMVT","A10HW8JXM17XLD","3HUR21WDDUBEMSLDIXZW1FAIHW8YX3","","null","<img src=""img/food4.png"" style=""width:200px; border:14px solid green;"">","null","","","","","","","","","",""
"","image-keyboard-response","253","212694","0.0-286.0","3MHW492WW1ZOA6PYQHF58IME0QYMVT","A10HW8JXM17XLD","3HUR21WDDUBEMSLDIXZW1FAIHW8YX3","","459","img/food2.png","74","461.19999980926514","1","1","1","2","1,0.5,0,1,0.5,0,0.5,0,1","1,0.5,0,1,0.5,0,0.5,0,1","1","false",""
"","html-keyboard-response","254","212999","0.0-287.0","3MHW492WW1ZOA6PYQHF58IME0QYMVT","A10HW8JXM17XLD","3HUR21WDDUBEMSLDIXZW1FAIHW8YX3","","null","<img src=""img/food2.png"" style=""width:200px; border:14px solid green;"">","null","","","","","","","","","",""
"","image-keyboard-response","255","213446","0.0-289.0","3MHW492WW1ZOA6PYQHF58IME0QYMVT","A10HW8JXM17XLD","3HUR21WDDUBEMSLDIXZW1FAIHW8YX3","","443.40000009536743","img/food4.png","74","445.5","1","0","3","2","1,0.5,0,1,0.5,0,0.5,0,1","1,0.5,0,1,0.5,0,0.5,0,1","1","false",""
"","html-keyboard-response","256","213752","0.0-290.0","3MHW492WW1ZOA6PYQHF58IME0QYMVT","A10HW8JXM17XLD","3HUR21WDDUBEMSLDIXZW1FAIHW8YX3","","null","<img src=""img/food4.png"" style=""width:200px;border:14px solid red;"">","null","","","","","","","","","",""
"","image-keyboard-response","257","214381","0.0-292.0","3MHW492WW1ZOA6PYQHF58IME0QYMVT","A10HW8JXM17XLD","3HUR21WDDUBEMSLDIXZW1FAIHW8YX3","","627","img/food2.png","74","629","1","1","1","2","1,0.5,0,1,0.5,0,0.5,0,1","1,0.5,0,1,0.5,0,0.5,0,1","1","false",""
"","html-keyboard-response","258","214688","0.0-293.0","3MHW492WW1ZOA6PYQHF58IME0QYMVT","A10HW8JXM17XLD","3HUR21WDDUBEMSLDIXZW1FAIHW8YX3","","null","<img src=""img/food2.png"" style=""width:200px; border:14px solid green;"">","null","","","","","","","","","",""
"","image-keyboard-response","259","215302","0.0-295.0","3MHW492WW1ZOA6PYQHF58IME0QYMVT","A10HW8JXM17XLD","3HUR21WDDUBEMSLDIXZW1FAIHW8YX3","","610.5","img/food3.png","74","612.8000001907349","1","1","2","2","1,0.5,0,1,0.5,0,0.5,0,1","1,0.5,0,1,0.5,0,0.5,0,1","1","false",""
"","html-keyboard-response","260","215607","0.0-296.0","3MHW492WW1ZOA6PYQHF58IME0QYMVT","A10HW8JXM17XLD","3HUR21WDDUBEMSLDIXZW1FAIHW8YX3","","null","<img src=""img/food3.png"" style=""width:200px; border:14px solid green;"">","null","","","","","","","","","",""
"","image-keyboard-response","261","216014","0.0-298.0","3MHW492WW1ZOA6PYQHF58IME0QYMVT","A10HW8JXM17XLD","3HUR21WDDUBEMSLDIXZW1FAIHW8YX3","","403.5","img/food4.png","74","405.5","1","1","3","2","1,0.5,0,1,0.5,0,0.5,0,1","1,0.5,0,1,0.5,0,0.5,0,1","1","false",""
"","html-keyboard-response","262","216319","0.0-299.0","3MHW492WW1ZOA6PYQHF58IME0QYMVT","A10HW8JXM17XLD","3HUR21WDDUBEMSLDIXZW1FAIHW8YX3","","null","<img src=""img/food4.png"" style=""width:200px; border:14px solid green;"">","null","","","","","","","","","",""
"","image-keyboard-response","263","216678","0.0-301.0","3MHW492WW1ZOA6PYQHF58IME0QYMVT","A10HW8JXM17XLD","3HUR21WDDUBEMSLDIXZW1FAIHW8YX3","","355.40000009536743","img/food2.png","74","357.5","1","1","1","2","1,0.5,0,1,0.5,0,0.5,0,1","1,0.5,0,1,0.5,0,0.5,0,1","1","false",""
"","html-keyboard-response","264","216984","0.0-302.0","3MHW492WW1ZOA6PYQHF58IME0QYMVT","A10HW8JXM17XLD","3HUR21WDDUBEMSLDIXZW1FAIHW8YX3","","null","<img src=""img/food2.png"" style=""width:200px; border:14px solid green;"">","null","","","","","","","","","",""
"","image-keyboard-response","265","217518","0.0-304.0","3MHW492WW1ZOA6PYQHF58IME0QYMVT","A10HW8JXM17XLD","3HUR21WDDUBEMSLDIXZW1FAIHW8YX3","","531.6000003814697","img/food2.png","74","533.5999999046326","1","1","1","2","1,0.5,0,1,0.5,0,0.5,0,1","1,0.5,0,1,0.5,0,0.5,0,1","1","false",""
"","html-keyboard-response","266","217824","0.0-305.0","3MHW492WW1ZOA6PYQHF58IME0QYMVT","A10HW8JXM17XLD","3HUR21WDDUBEMSLDIXZW1FAIHW8YX3","","null","<img src=""img/food2.png"" style=""width:200px; border:14px solid green;"">","null","","","","","","","","","",""
"","image-keyboard-response","267","218421","0.0-307.0","3MHW492WW1ZOA6PYQHF58IME0QYMVT","A10HW8JXM17XLD","3HUR21WDDUBEMSLDIXZW1FAIHW8YX3","","594.3000001907349","img/food3.png","74","596.5","1","1","2","2","1,0.5,0,1,0.5,0,0.5,0,1","1,0.5,0,1,0.5,0,0.5,0,1","1","false",""
"","html-keyboard-response","268","218727","0.0-308.0","3MHW492WW1ZOA6PYQHF58IME0QYMVT","A10HW8JXM17XLD","3HUR21WDDUBEMSLDIXZW1FAIHW8YX3","","null","<img src=""img/food3.png"" style=""width:200px; border:14px solid green;"">","null","","","","","","","","","",""
"","image-keyboard-response","269","219174","0.0-310.0","3MHW492WW1ZOA6PYQHF58IME0QYMVT","A10HW8JXM17XLD","3HUR21WDDUBEMSLDIXZW1FAIHW8YX3","","443.5","img/food2.png","74","445.59999990463257","1","1","1","2","1,0.5,0,1,0.5,0,0.5,0,1","1,0.5,0,1,0.5,0,0.5,0,1","1","false",""
"","html-keyboard-response","270","219479","0.0-311.0","3MHW492WW1ZOA6PYQHF58IME0QYMVT","A10HW8JXM17XLD","3HUR21WDDUBEMSLDIXZW1FAIHW8YX3","","null","<img src=""img/food2.png"" style=""width:200px; border:14px solid green;"">","null","","","","","","","","","",""
"","image-keyboard-response","271","219829","0.0-313.0","3MHW492WW1ZOA6PYQHF58IME0QYMVT","A10HW8JXM17XLD","3HUR21WDDUBEMSLDIXZW1FAIHW8YX3","","347.5","img/food4.png","74","349.5","1","0","3","2","1,0.5,0,1,0.5,0,0.5,0,1","1,0.5,0,1,0.5,0,0.5,0,1","1","false",""
"","html-keyboard-response","272","220135","0.0-314.0","3MHW492WW1ZOA6PYQHF58IME0QYMVT","A10HW8JXM17XLD","3HUR21WDDUBEMSLDIXZW1FAIHW8YX3","","null","<img src=""img/food4.png"" style=""width:200px;border:14px solid red;"">","null","","","","","","","","","",""
"","image-keyboard-response","273","220709","0.0-316.0","3MHW492WW1ZOA6PYQHF58IME0QYMVT","A10HW8JXM17XLD","3HUR21WDDUBEMSLDIXZW1FAIHW8YX3","","571.5","img/food2.png","74","573.5","1","1","1","2","1,0.5,0,1,0.5,0,0.5,0,1","1,0.5,0,1,0.5,0,0.5,0,1","1","false",""
"","html-keyboard-response","274","221016","0.0-317.0","3MHW492WW1ZOA6PYQHF58IME0QYMVT","A10HW8JXM17XLD","3HUR21WDDUBEMSLDIXZW1FAIHW8YX3","","null","<img src=""img/food2.png"" style=""width:200px; border:14px solid green;"">","null","","","","","","","","","",""
"","image-keyboard-response","275","221414","0.0-319.0","3MHW492WW1ZOA6PYQHF58IME0QYMVT","A10HW8JXM17XLD","3HUR21WDDUBEMSLDIXZW1FAIHW8YX3","","394.80000019073486","img/food3.png","74","397","1","1","2","2","1,0.5,0,1,0.5,0,0.5,0,1","1,0.5,0,1,0.5,0,0.5,0,1","1","false",""
"","html-keyboard-response","276","221720","0.0-320.0","3MHW492WW1ZOA6PYQHF58IME0QYMVT","A10HW8JXM17XLD","3HUR21WDDUBEMSLDIXZW1FAIHW8YX3","","null","<img src=""img/food3.png"" style=""width:200px; border:14px solid green;"">","null","","","","","","","","","",""
"","image-keyboard-response","277","222301","0.0-322.0","3MHW492WW1ZOA6PYQHF58IME0QYMVT","A10HW8JXM17XLD","3HUR21WDDUBEMSLDIXZW1FAIHW8YX3","","577.8000001907349","img/food4.png","74","580.2999997138977","1","1","3","2","1,0.5,0,1,0.5,0,0.5,0,1","1,0.5,0,1,0.5,0,0.5,0,1","1","false",""
"","html-keyboard-response","278","222607","0.0-323.0","3MHW492WW1ZOA6PYQHF58IME0QYMVT","A10HW8JXM17XLD","3HUR21WDDUBEMSLDIXZW1FAIHW8YX3","","null","<img src=""img/food4.png"" style=""width:200px; border:14px solid green;"">","null","","","","","","","","","",""
"","image-keyboard-response","279","222853","0.0-325.0","3MHW492WW1ZOA6PYQHF58IME0QYMVT","A10HW8JXM17XLD","3HUR21WDDUBEMSLDIXZW1FAIHW8YX3","","244.5","img/food4.png","74","246.09999990463257","1","1","3","2","1,0.5,0,1,0.5,0,0.5,0,1","1,0.5,0,1,0.5,0,0.5,0,1","1","false",""
"","html-keyboard-response","280","223159","0.0-326.0","3MHW492WW1ZOA6PYQHF58IME0QYMVT","A10HW8JXM17XLD","3HUR21WDDUBEMSLDIXZW1FAIHW8YX3","","null","<img src=""img/food4.png"" style=""width:200px; border:14px solid green;"">","null","","","","","","","","","",""
"","image-keyboard-response","281","223637","0.0-328.0","3MHW492WW1ZOA6PYQHF58IME0QYMVT","A10HW8JXM17XLD","3HUR21WDDUBEMSLDIXZW1FAIHW8YX3","","475.09999990463257","img/food3.png","74","477.30000019073486","1","1","2","2","1,0.5,0,1,0.5,0,0.5,0,1","1,0.5,0,1,0.5,0,0.5,0,1","1","false",""
"","html-keyboard-response","282","223943","0.0-329.0","3MHW492WW1ZOA6PYQHF58IME0QYMVT","A10HW8JXM17XLD","3HUR21WDDUBEMSLDIXZW1FAIHW8YX3","","null","<img src=""img/food3.png"" style=""width:200px; border:14px solid green;"">","null","","","","","","","","","",""
"","image-keyboard-response","283","224365","0.0-331.0","3MHW492WW1ZOA6PYQHF58IME0QYMVT","A10HW8JXM17XLD","3HUR21WDDUBEMSLDIXZW1FAIHW8YX3","","419.59999990463257","img/food3.png","74","421.7000002861023","1","1","2","2","1,0.5,0,1,0.5,0,0.5,0,1","1,0.5,0,1,0.5,0,0.5,0,1","1","false",""
"","html-keyboard-response","284","224673","0.0-332.0","3MHW492WW1ZOA6PYQHF58IME0QYMVT","A10HW8JXM17XLD","3HUR21WDDUBEMSLDIXZW1FAIHW8YX3","","null","<img src=""img/food3.png"" style=""width:200px; border:14px solid green;"">","null","","","","","","","","","",""
"","image-keyboard-response","285","225045","0.0-334.0","3MHW492WW1ZOA6PYQHF58IME0QYMVT","A10HW8JXM17XLD","3HUR21WDDUBEMSLDIXZW1FAIHW8YX3","","369.2999997138977","img/food3.png","74","371.09999990463257","1","1","2","2","1,0.5,0,1,0.5,0,0.5,0,1","1,0.5,0,1,0.5,0,0.5,0,1","1","false",""
"","html-keyboard-response","286","225351","0.0-335.0","3MHW492WW1ZOA6PYQHF58IME0QYMVT","A10HW8JXM17XLD","3HUR21WDDUBEMSLDIXZW1FAIHW8YX3","","null","<img src=""img/food3.png"" style=""width:200px; border:14px solid green;"">","null","","","","","","","","","",""
"","image-keyboard-response","287","225861","0.0-337.0","3MHW492WW1ZOA6PYQHF58IME0QYMVT","A10HW8JXM17XLD","3HUR21WDDUBEMSLDIXZW1FAIHW8YX3","","507.40000009536743","img/food2.png","74","509.2999997138977","1","1","1","2","1,0.5,0,1,0.5,0,0.5,0,1","1,0.5,0,1,0.5,0,0.5,0,1","1","false",""
"","html-keyboard-response","288","226167","0.0-338.0","3MHW492WW1ZOA6PYQHF58IME0QYMVT","A10HW8JXM17XLD","3HUR21WDDUBEMSLDIXZW1FAIHW8YX3","","null","<img src=""img/food2.png"" style=""width:200px; border:14px solid green;"">","null","","","","","","","","","",""
"","image-keyboard-response","289","226550","0.0-340.0","3MHW492WW1ZOA6PYQHF58IME0QYMVT","A10HW8JXM17XLD","3HUR21WDDUBEMSLDIXZW1FAIHW8YX3","","379.09999990463257","img/food3.png","74","381.2000002861023","1","1","2","2","1,0.5,0,1,0.5,0,0.5,0,1","1,0.5,0,1,0.5,0,0.5,0,1","1","false",""
"","html-keyboard-response","290","226856","0.0-341.0","3MHW492WW1ZOA6PYQHF58IME0QYMVT","A10HW8JXM17XLD","3HUR21WDDUBEMSLDIXZW1FAIHW8YX3","","null","<img src=""img/food3.png"" style=""width:200px; border:14px solid green;"">","null","","","","","","","","","",""
"","image-keyboard-response","291","227293","0.0-343.0","3MHW492WW1ZOA6PYQHF58IME0QYMVT","A10HW8JXM17XLD","3HUR21WDDUBEMSLDIXZW1FAIHW8YX3","","434.2000002861023","img/food2.png","74","436.3999996185303","1","1","1","2","1,0.5,0,1,0.5,0,0.5,0,1","1,0.5,0,1,0.5,0,0.5,0,1","1","false",""
"","html-keyboard-response","292","227600","0.0-344.0","3MHW492WW1ZOA6PYQHF58IME0QYMVT","A10HW8JXM17XLD","3HUR21WDDUBEMSLDIXZW1FAIHW8YX3","","null","<img src=""img/food2.png"" style=""width:200px; border:14px solid green;"">","null","","","","","","","","","",""
"","image-keyboard-response","293","227934","0.0-346.0","3MHW492WW1ZOA6PYQHF58IME0QYMVT","A10HW8JXM17XLD","3HUR21WDDUBEMSLDIXZW1FAIHW8YX3","","330.90000009536743","img/food3.png","74","333","1","1","2","2","1,0.5,0,1,0.5,0,0.5,0,1","1,0.5,0,1,0.5,0,0.5,0,1","1","false",""
"","html-keyboard-response","294","228239","0.0-347.0","3MHW492WW1ZOA6PYQHF58IME0QYMVT","A10HW8JXM17XLD","3HUR21WDDUBEMSLDIXZW1FAIHW8YX3","","null","<img src=""img/food3.png"" style=""width:200px; border:14px solid green;"">","null","","","","","","","","","",""
"","image-keyboard-response","295","228590","0.0-349.0","3MHW492WW1ZOA6PYQHF58IME0QYMVT","A10HW8JXM17XLD","3HUR21WDDUBEMSLDIXZW1FAIHW8YX3","","347.40000009536743","img/food3.png","74","349.80000019073486","1","1","2","2","1,0.5,0,1,0.5,0,0.5,0,1","1,0.5,0,1,0.5,0,0.5,0,1","1","false",""
"","html-keyboard-response","296","228895","0.0-350.0","3MHW492WW1ZOA6PYQHF58IME0QYMVT","A10HW8JXM17XLD","3HUR21WDDUBEMSLDIXZW1FAIHW8YX3","","null","<img src=""img/food3.png"" style=""width:200px; border:14px solid green;"">","null","","","","","","","","","",""
"","image-keyboard-response","297","229349","0.0-352.0","3MHW492WW1ZOA6PYQHF58IME0QYMVT","A10HW8JXM17XLD","3HUR21WDDUBEMSLDIXZW1FAIHW8YX3","","451.30000019073486","img/food4.png","74","453.2999997138977","1","0","3","2","1,0.5,0,1,0.5,0,0.5,0,1","1,0.5,0,1,0.5,0,0.5,0,1","1","false",""
"","html-keyboard-response","298","229655","0.0-353.0","3MHW492WW1ZOA6PYQHF58IME0QYMVT","A10HW8JXM17XLD","3HUR21WDDUBEMSLDIXZW1FAIHW8YX3","","null","<img src=""img/food4.png"" style=""width:200px;border:14px solid red;"">","null","","","","","","","","","",""
"","image-keyboard-response","299","230134","0.0-355.0","3MHW492WW1ZOA6PYQHF58IME0QYMVT","A10HW8JXM17XLD","3HUR21WDDUBEMSLDIXZW1FAIHW8YX3","","475","img/food2.png","74","477.2000002861023","1","1","1","2","1,0.5,0,1,0.5,0,0.5,0,1","1,0.5,0,1,0.5,0,0.5,0,1","1","false",""
"","html-keyboard-response","300","230441","0.0-356.0","3MHW492WW1ZOA6PYQHF58IME0QYMVT","A10HW8JXM17XLD","3HUR21WDDUBEMSLDIXZW1FAIHW8YX3","","null","<img src=""img/food2.png"" style=""width:200px; border:14px solid green;"">","null","","","","","","","","","",""
"","image-keyboard-response","301","230693","0.0-358.0","3MHW492WW1ZOA6PYQHF58IME0QYMVT","A10HW8JXM17XLD","3HUR21WDDUBEMSLDIXZW1FAIHW8YX3","","249.80000019073486","img/food2.png","74","251.90000009536743","1","1","1","2","1,0.5,0,1,0.5,0,0.5,0,1","1,0.5,0,1,0.5,0,0.5,0,1","1","false",""
"","html-keyboard-response","302","230999","0.0-359.0","3MHW492WW1ZOA6PYQHF58IME0QYMVT","A10HW8JXM17XLD","3HUR21WDDUBEMSLDIXZW1FAIHW8YX3","","null","<img src=""img/food2.png"" style=""width:200px; border:14px solid green;"">","null","","","","","","","","","",""
"","image-keyboard-response","303","231583","0.0-361.0","3MHW492WW1ZOA6PYQHF58IME0QYMVT","A10HW8JXM17XLD","3HUR21WDDUBEMSLDIXZW1FAIHW8YX3","","580.1999998092651","img/food4.png","74","583.0999999046326","1","0","3","2","1,0.5,0,1,0.5,0,0.5,0,1","1,0.5,0,1,0.5,0,0.5,0,1","1","false",""
"","html-keyboard-response","304","231895","0.0-362.0","3MHW492WW1ZOA6PYQHF58IME0QYMVT","A10HW8JXM17XLD","3HUR21WDDUBEMSLDIXZW1FAIHW8YX3","","null","<img src=""img/food4.png"" style=""width:200px;border:14px solid red;"">","null","","","","","","","","","",""
"","image-keyboard-response","305","232261","0.0-364.0","3MHW492WW1ZOA6PYQHF58IME0QYMVT","A10HW8JXM17XLD","3HUR21WDDUBEMSLDIXZW1FAIHW8YX3","","363","img/food3.png","74","365.2000002861023","1","1","2","2","1,0.5,0,1,0.5,0,0.5,0,1","1,0.5,0,1,0.5,0,0.5,0,1","1","false",""
"","html-keyboard-response","306","232567","0.0-365.0","3MHW492WW1ZOA6PYQHF58IME0QYMVT","A10HW8JXM17XLD","3HUR21WDDUBEMSLDIXZW1FAIHW8YX3","","null","<img src=""img/food3.png"" style=""width:200px; border:14px solid green;"">","null","","","","","","","","","",""
"","image-keyboard-response","307","232869","0.0-367.0","3MHW492WW1ZOA6PYQHF58IME0QYMVT","A10HW8JXM17XLD","3HUR21WDDUBEMSLDIXZW1FAIHW8YX3","","299.2000002861023","img/food2.png","74","301.2999997138977","1","1","1","2","1,0.5,0,1,0.5,0,0.5,0,1","1,0.5,0,1,0.5,0,0.5,0,1","1","false",""
"","html-keyboard-response","308","233176","0.0-368.0","3MHW492WW1ZOA6PYQHF58IME0QYMVT","A10HW8JXM17XLD","3HUR21WDDUBEMSLDIXZW1FAIHW8YX3","","null","<img src=""img/food2.png"" style=""width:200px; border:14px solid green;"">","null","","","","","","","","","",""
"","image-keyboard-response","309","233781","0.0-370.0","3MHW492WW1ZOA6PYQHF58IME0QYMVT","A10HW8JXM17XLD","3HUR21WDDUBEMSLDIXZW1FAIHW8YX3","","603","img/food3.png","74","604.9000000953674","1","1","2","2","1,0.5,0,1,0.5,0,0.5,0,1","1,0.5,0,1,0.5,0,0.5,0,1","1","false",""
"","html-keyboard-response","310","234089","0.0-371.0","3MHW492WW1ZOA6PYQHF58IME0QYMVT","A10HW8JXM17XLD","3HUR21WDDUBEMSLDIXZW1FAIHW8YX3","","null","<img src=""img/food3.png"" style=""width:200px; border:14px solid green;"">","null","","","","","","","","","",""
"","image-keyboard-response","311","234693","0.0-373.0","3MHW492WW1ZOA6PYQHF58IME0QYMVT","A10HW8JXM17XLD","3HUR21WDDUBEMSLDIXZW1FAIHW8YX3","","601.1000003814697","img/food4.png","75","603.5999999046326","2","0","3","2","1,0.5,0,1,0.5,0,0.5,0,1","1,0.5,0,1,0.5,0,0.5,0,1","1","false",""
"","html-keyboard-response","312","234999","0.0-374.0","3MHW492WW1ZOA6PYQHF58IME0QYMVT","A10HW8JXM17XLD","3HUR21WDDUBEMSLDIXZW1FAIHW8YX3","","null","<img src=""img/food4.png"" style=""width:200px;border:14px solid red;"">","null","","","","","","","","","",""
"","image-keyboard-response","313","235341","0.0-376.0","3MHW492WW1ZOA6PYQHF58IME0QYMVT","A10HW8JXM17XLD","3HUR21WDDUBEMSLDIXZW1FAIHW8YX3","","339.1000003814697","img/food2.png","74","341.59999990463257","1","1","1","2","1,0.5,0,1,0.5,0,0.5,0,1","1,0.5,0,1,0.5,0,0.5,0,1","1","false",""
"","html-keyboard-response","314","235648","0.0-377.0","3MHW492WW1ZOA6PYQHF58IME0QYMVT","A10HW8JXM17XLD","3HUR21WDDUBEMSLDIXZW1FAIHW8YX3","","null","<img src=""img/food2.png"" style=""width:200px; border:14px solid green;"">","null","","","","","","","","","",""
"","image-keyboard-response","315","235998","0.0-379.0","3MHW492WW1ZOA6PYQHF58IME0QYMVT","A10HW8JXM17XLD","3HUR21WDDUBEMSLDIXZW1FAIHW8YX3","","347.09999990463257","img/food2.png","74","349.19999980926514","1","1","1","2","1,0.5,0,1,0.5,0,0.5,0,1","1,0.5,0,1,0.5,0,0.5,0,1","1","false",""
"","html-keyboard-response","316","236303","0.0-380.0","3MHW492WW1ZOA6PYQHF58IME0QYMVT","A10HW8JXM17XLD","3HUR21WDDUBEMSLDIXZW1FAIHW8YX3","","null","<img src=""img/food2.png"" style=""width:200px; border:14px solid green;"">","null","","","","","","","","","",""
"","image-keyboard-response","317","236670","0.0-382.0","3MHW492WW1ZOA6PYQHF58IME0QYMVT","A10HW8JXM17XLD","3HUR21WDDUBEMSLDIXZW1FAIHW8YX3","","362.90000009536743","img/food2.png","74","365.3999996185303","1","1","1","2","1,0.5,0,1,0.5,0,0.5,0,1","1,0.5,0,1,0.5,0,0.5,0,1","1","false",""
"","html-keyboard-response","318","236976","0.0-383.0","3MHW492WW1ZOA6PYQHF58IME0QYMVT","A10HW8JXM17XLD","3HUR21WDDUBEMSLDIXZW1FAIHW8YX3","","null","<img src=""img/food2.png"" style=""width:200px; border:14px solid green;"">","null","","","","","","","","","",""
"","image-keyboard-response","319","237654","0.0-385.0","3MHW492WW1ZOA6PYQHF58IME0QYMVT","A10HW8JXM17XLD","3HUR21WDDUBEMSLDIXZW1FAIHW8YX3","","675.2000002861023","img/food3.png","74","677.5","1","1","2","2","1,0.5,0,1,0.5,0,0.5,0,1","1,0.5,0,1,0.5,0,0.5,0,1","1","false",""
"","html-keyboard-response","320","237961","0.0-386.0","3MHW492WW1ZOA6PYQHF58IME0QYMVT","A10HW8JXM17XLD","3HUR21WDDUBEMSLDIXZW1FAIHW8YX3","","null","<img src=""img/food3.png"" style=""width:200px; border:14px solid green;"">","null","","","","","","","","","",""
"","image-keyboard-response","321","238422","0.0-388.0","3MHW492WW1ZOA6PYQHF58IME0QYMVT","A10HW8JXM17XLD","3HUR21WDDUBEMSLDIXZW1FAIHW8YX3","","458.2999997138977","img/food2.png","74","460.69999980926514","1","1","1","2","1,0.5,0,1,0.5,0,0.5,0,1","1,0.5,0,1,0.5,0,0.5,0,1","1","false",""
"","html-keyboard-response","322","238729","0.0-389.0","3MHW492WW1ZOA6PYQHF58IME0QYMVT","A10HW8JXM17XLD","3HUR21WDDUBEMSLDIXZW1FAIHW8YX3","","null","<img src=""img/food2.png"" style=""width:200px; border:14px solid green;"">","null","","","","","","","","","",""
"","image-keyboard-response","323","239333","0.0-391.0","3MHW492WW1ZOA6PYQHF58IME0QYMVT","A10HW8JXM17XLD","3HUR21WDDUBEMSLDIXZW1FAIHW8YX3","","601.1999998092651","img/food3.png","74","603","1","1","2","2","1,0.5,0,1,0.5,0,0.5,0,1","1,0.5,0,1,0.5,0,0.5,0,1","1","false",""
"","html-keyboard-response","324","239640","0.0-392.0","3MHW492WW1ZOA6PYQHF58IME0QYMVT","A10HW8JXM17XLD","3HUR21WDDUBEMSLDIXZW1FAIHW8YX3","","null","<img src=""img/food3.png"" style=""width:200px; border:14px solid green;"">","null","","","","","","","","","",""
"","image-keyboard-response","325","240094","0.0-394.0","3MHW492WW1ZOA6PYQHF58IME0QYMVT","A10HW8JXM17XLD","3HUR21WDDUBEMSLDIXZW1FAIHW8YX3","","451.2000002861023","img/food2.png","74","453.3999996185303","1","1","1","2","1,0.5,0,1,0.5,0,0.5,0,1","1,0.5,0,1,0.5,0,0.5,0,1","1","false",""
"","html-keyboard-response","326","240400","0.0-395.0","3MHW492WW1ZOA6PYQHF58IME0QYMVT","A10HW8JXM17XLD","3HUR21WDDUBEMSLDIXZW1FAIHW8YX3","","null","<img src=""img/food2.png"" style=""width:200px; border:14px solid green;"">","null","","","","","","","","","",""
"","image-keyboard-response","327","240838","0.0-397.0","3MHW492WW1ZOA6PYQHF58IME0QYMVT","A10HW8JXM17XLD","3HUR21WDDUBEMSLDIXZW1FAIHW8YX3","","435.09999990463257","img/food3.png","74","437.09999990463257","1","1","2","2","1,0.5,0,1,0.5,0,0.5,0,1","1,0.5,0,1,0.5,0,0.5,0,1","1","false",""
"","html-keyboard-response","328","241144","0.0-398.0","3MHW492WW1ZOA6PYQHF58IME0QYMVT","A10HW8JXM17XLD","3HUR21WDDUBEMSLDIXZW1FAIHW8YX3","","null","<img src=""img/food3.png"" style=""width:200px; border:14px solid green;"">","null","","","","","","","","","",""
"","image-keyboard-response","329","241606","0.0-400.0","3MHW492WW1ZOA6PYQHF58IME0QYMVT","A10HW8JXM17XLD","3HUR21WDDUBEMSLDIXZW1FAIHW8YX3","","459.09999990463257","img/food2.png","74","461.40000009536743","1","1","1","2","1,0.5,0,1,0.5,0,0.5,0,1","1,0.5,0,1,0.5,0,0.5,0,1","1","false",""
"","html-keyboard-response","330","241912","0.0-401.0","3MHW492WW1ZOA6PYQHF58IME0QYMVT","A10HW8JXM17XLD","3HUR21WDDUBEMSLDIXZW1FAIHW8YX3","","null","<img src=""img/food2.png"" style=""width:200px; border:14px solid green;"">","null","","","","","","","","","",""
"","image-keyboard-response","331","242494","0.0-403.0","3MHW492WW1ZOA6PYQHF58IME0QYMVT","A10HW8JXM17XLD","3HUR21WDDUBEMSLDIXZW1FAIHW8YX3","","578.8000001907349","img/food4.png","74","581","1","0","3","2","1,0.5,0,1,0.5,0,0.5,0,1","1,0.5,0,1,0.5,0,0.5,0,1","1","false",""
"","html-keyboard-response","332","242801","0.0-404.0","3MHW492WW1ZOA6PYQHF58IME0QYMVT","A10HW8JXM17XLD","3HUR21WDDUBEMSLDIXZW1FAIHW8YX3","","null","<img src=""img/food4.png"" style=""width:200px;border:14px solid red;"">","null","","","","","","","","","",""
"","image-keyboard-response","333","243382","0.0-406.0","3MHW492WW1ZOA6PYQHF58IME0QYMVT","A10HW8JXM17XLD","3HUR21WDDUBEMSLDIXZW1FAIHW8YX3","","578.3000001907349","img/food2.png","74","580.5999999046326","1","1","1","2","1,0.5,0,1,0.5,0,0.5,0,1","1,0.5,0,1,0.5,0,0.5,0,1","1","false",""
"","html-keyboard-response","334","243689","0.0-407.0","3MHW492WW1ZOA6PYQHF58IME0QYMVT","A10HW8JXM17XLD","3HUR21WDDUBEMSLDIXZW1FAIHW8YX3","","null","<img src=""img/food2.png"" style=""width:200px; border:14px solid green;"">","null","","","","","","","","","",""
"","image-keyboard-response","335","244118","0.0-409.0","3MHW492WW1ZOA6PYQHF58IME0QYMVT","A10HW8JXM17XLD","3HUR21WDDUBEMSLDIXZW1FAIHW8YX3","","425.40000009536743","img/food2.png","74","427.40000009536743","1","1","1","2","1,0.5,0,1,0.5,0,0.5,0,1","1,0.5,0,1,0.5,0,0.5,0,1","1","false",""
"","html-keyboard-response","336","244424","0.0-410.0","3MHW492WW1ZOA6PYQHF58IME0QYMVT","A10HW8JXM17XLD","3HUR21WDDUBEMSLDIXZW1FAIHW8YX3","","null","<img src=""img/food2.png"" style=""width:200px; border:14px solid green;"">","null","","","","","","","","","",""
"","image-keyboard-response","337","244886","0.0-412.0","3MHW492WW1ZOA6PYQHF58IME0QYMVT","A10HW8JXM17XLD","3HUR21WDDUBEMSLDIXZW1FAIHW8YX3","","459.1000003814697","img/food2.png","74","461.2999997138977","1","1","1","2","1,0.5,0,1,0.5,0,0.5,0,1","1,0.5,0,1,0.5,0,0.5,0,1","1","false",""
"","html-keyboard-response","338","245193","0.0-413.0","3MHW492WW1ZOA6PYQHF58IME0QYMVT","A10HW8JXM17XLD","3HUR21WDDUBEMSLDIXZW1FAIHW8YX3","","null","<img src=""img/food2.png"" style=""width:200px; border:14px solid green;"">","null","","","","","","","","","",""
"","image-keyboard-response","339","245878","0.0-415.0","3MHW492WW1ZOA6PYQHF58IME0QYMVT","A10HW8JXM17XLD","3HUR21WDDUBEMSLDIXZW1FAIHW8YX3","","682","img/food3.png","74","684.0999999046326","1","1","2","2","1,0.5,0,1,0.5,0,0.5,0,1","1,0.5,0,1,0.5,0,0.5,0,1","1","false",""
"","html-keyboard-response","340","246184","0.0-416.0","3MHW492WW1ZOA6PYQHF58IME0QYMVT","A10HW8JXM17XLD","3HUR21WDDUBEMSLDIXZW1FAIHW8YX3","","null","<img src=""img/food3.png"" style=""width:200px; border:14px solid green;"">","null","","","","","","","","","",""
"","image-keyboard-response","341","246830","0.0-418.0","3MHW492WW1ZOA6PYQHF58IME0QYMVT","A10HW8JXM17XLD","3HUR21WDDUBEMSLDIXZW1FAIHW8YX3","","642.5999999046326","img/food4.png","76","644.9000000953674","3","1","3","2","1,0.5,0,1,0.5,0,0.5,0,1","1,0.5,0,1,0.5,0,0.5,0,1","1","false",""
"","html-keyboard-response","342","247136","0.0-419.0","3MHW492WW1ZOA6PYQHF58IME0QYMVT","A10HW8JXM17XLD","3HUR21WDDUBEMSLDIXZW1FAIHW8YX3","","null","<img src=""img/food4.png"" style=""width:200px; border:14px solid green;"">","null","","","","","","","","","",""
"","image-keyboard-response","343","247614","0.0-421.0","3MHW492WW1ZOA6PYQHF58IME0QYMVT","A10HW8JXM17XLD","3HUR21WDDUBEMSLDIXZW1FAIHW8YX3","","474.3999996185303","img/food2.png","74","476.90000009536743","1","1","1","2","1,0.5,0,1,0.5,0,0.5,0,1","1,0.5,0,1,0.5,0,0.5,0,1","1","false",""
"","html-keyboard-response","344","247920","0.0-422.0","3MHW492WW1ZOA6PYQHF58IME0QYMVT","A10HW8JXM17XLD","3HUR21WDDUBEMSLDIXZW1FAIHW8YX3","","null","<img src=""img/food2.png"" style=""width:200px; border:14px solid green;"">","null","","","","","","","","","",""
"","image-keyboard-response","345","248734","0.0-424.0","3MHW492WW1ZOA6PYQHF58IME0QYMVT","A10HW8JXM17XLD","3HUR21WDDUBEMSLDIXZW1FAIHW8YX3","","810.5","img/food4.png","76","812.7999997138977","3","1","3","2","1,0.5,0,1,0.5,0,0.5,0,1","1,0.5,0,1,0.5,0,0.5,0,1","1","false",""
"","html-keyboard-response","346","249040","0.0-425.0","3MHW492WW1ZOA6PYQHF58IME0QYMVT","A10HW8JXM17XLD","3HUR21WDDUBEMSLDIXZW1FAIHW8YX3","","null","<img src=""img/food4.png"" style=""width:200px; border:14px solid green;"">","null","","","","","","","","","",""
"","image-keyboard-response","347","249501","0.0-427.0","3MHW492WW1ZOA6PYQHF58IME0QYMVT","A10HW8JXM17XLD","3HUR21WDDUBEMSLDIXZW1FAIHW8YX3","","458.2000002861023","img/food2.png","74","460.19999980926514","1","1","1","2","1,0.5,0,1,0.5,0,0.5,0,1","1,0.5,0,1,0.5,0,0.5,0,1","1","false",""
"","html-keyboard-response","348","249808","0.0-428.0","3MHW492WW1ZOA6PYQHF58IME0QYMVT","A10HW8JXM17XLD","3HUR21WDDUBEMSLDIXZW1FAIHW8YX3","","null","<img src=""img/food2.png"" style=""width:200px; border:14px solid green;"">","null","","","","","","","","","",""
"","image-keyboard-response","349","250309","0.0-430.0","3MHW492WW1ZOA6PYQHF58IME0QYMVT","A10HW8JXM17XLD","3HUR21WDDUBEMSLDIXZW1FAIHW8YX3","","499.59999990463257","img/food4.png","76","501.2999997138977","3","1","3","2","1,0.5,0,1,0.5,0,0.5,0,1","1,0.5,0,1,0.5,0,0.5,0,1","1","false",""
"","html-keyboard-response","350","250616","0.0-431.0","3MHW492WW1ZOA6PYQHF58IME0QYMVT","A10HW8JXM17XLD","3HUR21WDDUBEMSLDIXZW1FAIHW8YX3","","null","<img src=""img/food4.png"" style=""width:200px; border:14px solid green;"">","null","","","","","","","","","",""
"","image-keyboard-response","351","251133","0.0-433.0","3MHW492WW1ZOA6PYQHF58IME0QYMVT","A10HW8JXM17XLD","3HUR21WDDUBEMSLDIXZW1FAIHW8YX3","","514.5999999046326","img/food4.png","76","516.5999999046326","3","1","3","2","1,0.5,0,1,0.5,0,0.5,0,1","1,0.5,0,1,0.5,0,0.5,0,1","1","false",""
"","html-keyboard-response","352","251440","0.0-434.0","3MHW492WW1ZOA6PYQHF58IME0QYMVT","A10HW8JXM17XLD","3HUR21WDDUBEMSLDIXZW1FAIHW8YX3","","null","<img src=""img/food4.png"" style=""width:200px; border:14px solid green;"">","null","","","","","","","","","",""
"","image-keyboard-response","353","251830","0.0-436.0","3MHW492WW1ZOA6PYQHF58IME0QYMVT","A10HW8JXM17XLD","3HUR21WDDUBEMSLDIXZW1FAIHW8YX3","","386.90000009536743","img/food4.png","76","389.1000003814697","3","1","3","2","1,0.5,0,1,0.5,0,0.5,0,1","1,0.5,0,1,0.5,0,0.5,0,1","1","false",""
"","html-keyboard-response","354","252136","0.0-437.0","3MHW492WW1ZOA6PYQHF58IME0QYMVT","A10HW8JXM17XLD","3HUR21WDDUBEMSLDIXZW1FAIHW8YX3","","null","<img src=""img/food4.png"" style=""width:200px; border:14px solid green;"">","null","","","","","","","","","",""
"","image-keyboard-response","355","252590","0.0-439.0","3MHW492WW1ZOA6PYQHF58IME0QYMVT","A10HW8JXM17XLD","3HUR21WDDUBEMSLDIXZW1FAIHW8YX3","","450.5","img/food4.png","76","453.2000002861023","3","1","3","2","1,0.5,0,1,0.5,0,0.5,0,1","1,0.5,0,1,0.5,0,0.5,0,1","1","false",""
"","html-keyboard-response","356","252896","0.0-440.0","3MHW492WW1ZOA6PYQHF58IME0QYMVT","A10HW8JXM17XLD","3HUR21WDDUBEMSLDIXZW1FAIHW8YX3","","null","<img src=""img/food4.png"" style=""width:200px; border:14px solid green;"">","null","","","","","","","","","",""
"","image-keyboard-response","357","253454","0.0-442.0","3MHW492WW1ZOA6PYQHF58IME0QYMVT","A10HW8JXM17XLD","3HUR21WDDUBEMSLDIXZW1FAIHW8YX3","","554.6999998092651","img/food2.png","74","557.0999999046326","1","1","1","2","1,0.5,0,1,0.5,0,0.5,0,1","1,0.5,0,1,0.5,0,0.5,0,1","1","false",""
"","html-keyboard-response","358","253760","0.0-443.0","3MHW492WW1ZOA6PYQHF58IME0QYMVT","A10HW8JXM17XLD","3HUR21WDDUBEMSLDIXZW1FAIHW8YX3","","null","<img src=""img/food2.png"" style=""width:200px; border:14px solid green;"">","null","","","","","","","","","",""
"","image-keyboard-response","359","254238","0.0-445.0","3MHW492WW1ZOA6PYQHF58IME0QYMVT","A10HW8JXM17XLD","3HUR21WDDUBEMSLDIXZW1FAIHW8YX3","","474.2999997138977","img/food3.png","76","476.80000019073486","3","0","2","2","1,0.5,0,1,0.5,0,0.5,0,1","1,0.5,0,1,0.5,0,0.5,0,1","1","false",""
"","html-keyboard-response","360","254545","0.0-446.0","3MHW492WW1ZOA6PYQHF58IME0QYMVT","A10HW8JXM17XLD","3HUR21WDDUBEMSLDIXZW1FAIHW8YX3","","null","<img src=""img/food3.png"" style=""width:200px;border:14px solid red;"">","null","","","","","","","","","",""
"","image-keyboard-response","361","255118","0.0-448.0","3MHW492WW1ZOA6PYQHF58IME0QYMVT","A10HW8JXM17XLD","3HUR21WDDUBEMSLDIXZW1FAIHW8YX3","","569.3999996185303","img/food4.png","74","571.6999998092651","1","1","3","2","1,0.5,0,1,0.5,0,0.5,0,1","1,0.5,0,1,0.5,0,0.5,0,1","1","false",""
"","html-keyboard-response","362","255424","0.0-449.0","3MHW492WW1ZOA6PYQHF58IME0QYMVT","A10HW8JXM17XLD","3HUR21WDDUBEMSLDIXZW1FAIHW8YX3","","null","<img src=""img/food4.png"" style=""width:200px; border:14px solid green;"">","null","","","","","","","","","",""
"","image-keyboard-response","363","256432","0.0-451.0","3MHW492WW1ZOA6PYQHF58IME0QYMVT","A10HW8JXM17XLD","3HUR21WDDUBEMSLDIXZW1FAIHW8YX3","","","img/food3.png","","1007.5","-1","0","2","2","1,0.5,0,1,0.5,0,0.5,0,1","1,0.5,0,1,0.5,0,0.5,0,1","1","true",""
"","html-keyboard-response","364","256736","0.0-452.0","3MHW492WW1ZOA6PYQHF58IME0QYMVT","A10HW8JXM17XLD","3HUR21WDDUBEMSLDIXZW1FAIHW8YX3","","null","<img src=""img/food3.png"" style=""width:200px;border:14px solid red;"">","null","","","","","","","","","",""
"","html-keyboard-response","365","260741","0.0-453.0-0.0","3MHW492WW1ZOA6PYQHF58IME0QYMVT","A10HW8JXM17XLD","3HUR21WDDUBEMSLDIXZW1FAIHW8YX3","","","","","","","","","","","","","",""
"","instructions","366","264701","0.0-454.0","3MHW492WW1ZOA6PYQHF58IME0QYMVT","A10HW8JXM17XLD","3HUR21WDDUBEMSLDIXZW1FAIHW8YX3","[{""page_index"":0,""viewing_time"":3958.9000000953674}]","3959.2000002861023","","","","","","","","","","","",""
"","survey-text","367","277774","0.0-455.0","3MHW492WW1ZOA6PYQHF58IME0QYMVT","A10HW8JXM17XLD","3HUR21WDDUBEMSLDIXZW1FAIHW8YX3","","13068.5","","","","","","","","","","","","{""Q0"":""A10HW8JXM17XLD""}"
