"success","trial_type","trial_index","time_elapsed","internal_node_id","assignmentID","mturkID","hitID","view_history","rt","stimulus","key_press","reactionTime","chosenAction","reward","responses"
"true","fullscreen","0","9048","0.0-0.0","39RP059MEIF91SRSL0O576S7TICBM6","A10JXOU89D5RXR","39WSF6KUV27TMEQUH506BZR9N6KEO1","","","","","","","",""
"","instructions","1","25707","0.0-1.0","39RP059MEIF91SRSL0O576S7TICBM6","A10JXOU89D5RXR","39WSF6KUV27TMEQUH506BZR9N6KEO1","[{""page_index"":0,""viewing_time"":3081.599999964237},{""page_index"":1,""viewing_time"":869.7000000476837},{""page_index"":2,""viewing_time"":862.0999999642372},{""page_index"":3,""viewing_time"":6401.5},{""page_index"":4,""viewing_time"":1838.1000000238419},{""page_index"":5,""viewing_time"":1670.5999999642372},{""page_index"":6,""viewing_time"":1929.7000000476837}]","16654","","","","","",""
"","image-keyboard-response","2","27726","0.0-2.0","39RP059MEIF91SRSL0O576S7TICBM6","A10JXOU89D5RXR","39WSF6KUV27TMEQUH506BZR9N6KEO1","","2018.699999988079","img/food6.png","75","2019.5999999642372","75","0",""
"","html-keyboard-response","3","28030","0.0-3.0","39RP059MEIF91SRSL0O576S7TICBM6","A10JXOU89D5RXR","39WSF6KUV27TMEQUH506BZR9N6KEO1","","null","<img src=""img/food6.png"" style=""width:200px;border:14px solid red;"">","null","","","",""
"","image-keyboard-response","4","28599","0.0-4.0","39RP059MEIF91SRSL0O576S7TICBM6","A10JXOU89D5RXR","39WSF6KUV27TMEQUH506BZR9N6KEO1","","566.5","img/food6.png","74","568","74","0",""
"","html-keyboard-response","5","28913","0.0-5.0","39RP059MEIF91SRSL0O576S7TICBM6","A10JXOU89D5RXR","39WSF6KUV27TMEQUH506BZR9N6KEO1","","null","<img src=""img/food6.png"" style=""width:200px;border:14px solid red;"">","null","","","",""
"","image-keyboard-response","6","29951","0.0-6.0","39RP059MEIF91SRSL0O576S7TICBM6","A10JXOU89D5RXR","39WSF6KUV27TMEQUH506BZR9N6KEO1","","1036.6000000238419","img/food4.png","74","1037.5999999642372","74","1",""
"","html-keyboard-response","7","30253","0.0-7.0","39RP059MEIF91SRSL0O576S7TICBM6","A10JXOU89D5RXR","39WSF6KUV27TMEQUH506BZR9N6KEO1","","null","<img src=""img/food4.png"" style=""width:200px; border:14px solid green;"">","null","","","",""
"","image-keyboard-response","8","31142","0.0-8.0","39RP059MEIF91SRSL0O576S7TICBM6","A10JXOU89D5RXR","39WSF6KUV27TMEQUH506BZR9N6KEO1","","888.6000000238419","img/food6.png","75","889.4000000357628","75","1",""
"","html-keyboard-response","9","31444","0.0-9.0","39RP059MEIF91SRSL0O576S7TICBM6","A10JXOU89D5RXR","39WSF6KUV27TMEQUH506BZR9N6KEO1","","null","<img src=""img/food6.png"" style=""width:200px; border:14px solid green;"">","null","","","",""
"","image-keyboard-response","10","32271","0.0-10.0","39RP059MEIF91SRSL0O576S7TICBM6","A10JXOU89D5RXR","39WSF6KUV27TMEQUH506BZR9N6KEO1","","825.7000000476837","img/food6.png","75","826.6000000238419","75","0",""
"","html-keyboard-response","11","32574","0.0-11.0","39RP059MEIF91SRSL0O576S7TICBM6","A10JXOU89D5RXR","39WSF6KUV27TMEQUH506BZR9N6KEO1","","null","<img src=""img/food6.png"" style=""width:200px;border:14px solid red;"">","null","","","",""
"","image-keyboard-response","12","33383","0.0-12.0","39RP059MEIF91SRSL0O576S7TICBM6","A10JXOU89D5RXR","39WSF6KUV27TMEQUH506BZR9N6KEO1","","808.4000000357628","img/food2.png","76","809","76","1",""
"","html-keyboard-response","13","33685","0.0-13.0","39RP059MEIF91SRSL0O576S7TICBM6","A10JXOU89D5RXR","39WSF6KUV27TMEQUH506BZR9N6KEO1","","null","<img src=""img/food2.png"" style=""width:200px; border:14px solid green;"">","null","","","",""
"","image-keyboard-response","14","34102","0.0-14.0","39RP059MEIF91SRSL0O576S7TICBM6","A10JXOU89D5RXR","39WSF6KUV27TMEQUH506BZR9N6KEO1","","416.69999998807907","img/food2.png","76","417.69999998807907","76","1",""
"","html-keyboard-response","15","34403","0.0-15.0","39RP059MEIF91SRSL0O576S7TICBM6","A10JXOU89D5RXR","39WSF6KUV27TMEQUH506BZR9N6KEO1","","null","<img src=""img/food2.png"" style=""width:200px; border:14px solid green;"">","null","","","",""
"","image-keyboard-response","16","35390","0.0-16.0","39RP059MEIF91SRSL0O576S7TICBM6","A10JXOU89D5RXR","39WSF6KUV27TMEQUH506BZR9N6KEO1","","985.5","img/food4.png","74","986.3000000119209","74","0",""
"","html-keyboard-response","17","35692","0.0-17.0","39RP059MEIF91SRSL0O576S7TICBM6","A10JXOU89D5RXR","39WSF6KUV27TMEQUH506BZR9N6KEO1","","null","<img src=""img/food4.png"" style=""width:200px;border:14px solid red;"">","null","","","",""
"","image-keyboard-response","18","36326","0.0-18.0","39RP059MEIF91SRSL0O576S7TICBM6","A10JXOU89D5RXR","39WSF6KUV27TMEQUH506BZR9N6KEO1","","632.5","img/food6.png","75","633.3000000119209","75","0",""
"","html-keyboard-response","19","36627","0.0-19.0","39RP059MEIF91SRSL0O576S7TICBM6","A10JXOU89D5RXR","39WSF6KUV27TMEQUH506BZR9N6KEO1","","null","<img src=""img/food6.png"" style=""width:200px;border:14px solid red;"">","null","","","",""
"","image-keyboard-response","20","37598","0.0-20.0","39RP059MEIF91SRSL0O576S7TICBM6","A10JXOU89D5RXR","39WSF6KUV27TMEQUH506BZR9N6KEO1","","969.8000000119209","img/food4.png","75","970.6999999880791","75","0",""
"","html-keyboard-response","21","37900","0.0-21.0","39RP059MEIF91SRSL0O576S7TICBM6","A10JXOU89D5RXR","39WSF6KUV27TMEQUH506BZR9N6KEO1","","null","<img src=""img/food4.png"" style=""width:200px;border:14px solid red;"">","null","","","",""
"","image-keyboard-response","22","38759","0.0-22.0","39RP059MEIF91SRSL0O576S7TICBM6","A10JXOU89D5RXR","39WSF6KUV27TMEQUH506BZR9N6KEO1","","857.5999999642372","img/food2.png","76","858.3000000119209","76","1",""
"","html-keyboard-response","23","39061","0.0-23.0","39RP059MEIF91SRSL0O576S7TICBM6","A10JXOU89D5RXR","39WSF6KUV27TMEQUH506BZR9N6KEO1","","null","<img src=""img/food2.png"" style=""width:200px; border:14px solid green;"">","null","","","",""
"","image-keyboard-response","24","40318","0.0-24.0","39RP059MEIF91SRSL0O576S7TICBM6","A10JXOU89D5RXR","39WSF6KUV27TMEQUH506BZR9N6KEO1","","1255.800000011921","img/food6.png","75","1256.3999999761581","75","0",""
"","html-keyboard-response","25","40620","0.0-25.0","39RP059MEIF91SRSL0O576S7TICBM6","A10JXOU89D5RXR","39WSF6KUV27TMEQUH506BZR9N6KEO1","","null","<img src=""img/food6.png"" style=""width:200px;border:14px solid red;"">","null","","","",""
"","image-keyboard-response","26","41750","0.0-26.0","39RP059MEIF91SRSL0O576S7TICBM6","A10JXOU89D5RXR","39WSF6KUV27TMEQUH506BZR9N6KEO1","","1129.199999988079","img/food4.png","75","1129.9000000357628","75","0",""
"","html-keyboard-response","27","42053","0.0-27.0","39RP059MEIF91SRSL0O576S7TICBM6","A10JXOU89D5RXR","39WSF6KUV27TMEQUH506BZR9N6KEO1","","null","<img src=""img/food4.png"" style=""width:200px;border:14px solid red;"">","null","","","",""
"","image-keyboard-response","28","42759","0.0-28.0","39RP059MEIF91SRSL0O576S7TICBM6","A10JXOU89D5RXR","39WSF6KUV27TMEQUH506BZR9N6KEO1","","704.7000000476837","img/food4.png","75","705.7000000476837","75","0",""
"","html-keyboard-response","29","43061","0.0-29.0","39RP059MEIF91SRSL0O576S7TICBM6","A10JXOU89D5RXR","39WSF6KUV27TMEQUH506BZR9N6KEO1","","null","<img src=""img/food4.png"" style=""width:200px;border:14px solid red;"">","null","","","",""
"","image-keyboard-response","30","43406","0.0-30.0","39RP059MEIF91SRSL0O576S7TICBM6","A10JXOU89D5RXR","39WSF6KUV27TMEQUH506BZR9N6KEO1","","344.69999998807907","img/food4.png","74","345.60000002384186","74","0",""
"","html-keyboard-response","31","43708","0.0-31.0","39RP059MEIF91SRSL0O576S7TICBM6","A10JXOU89D5RXR","39WSF6KUV27TMEQUH506BZR9N6KEO1","","null","<img src=""img/food4.png"" style=""width:200px;border:14px solid red;"">","null","","","",""
"","image-keyboard-response","32","44847","0.0-32.0","39RP059MEIF91SRSL0O576S7TICBM6","A10JXOU89D5RXR","39WSF6KUV27TMEQUH506BZR9N6KEO1","","1137.300000011921","img/food6.png","75","1138.199999988079","75","0",""
"","html-keyboard-response","33","45149","0.0-33.0","39RP059MEIF91SRSL0O576S7TICBM6","A10JXOU89D5RXR","39WSF6KUV27TMEQUH506BZR9N6KEO1","","null","<img src=""img/food6.png"" style=""width:200px;border:14px solid red;"">","null","","","",""
"","image-keyboard-response","34","45478","0.0-34.0","39RP059MEIF91SRSL0O576S7TICBM6","A10JXOU89D5RXR","39WSF6KUV27TMEQUH506BZR9N6KEO1","","327.5","img/food6.png","74","329","74","0",""
"","html-keyboard-response","35","45780","0.0-35.0","39RP059MEIF91SRSL0O576S7TICBM6","A10JXOU89D5RXR","39WSF6KUV27TMEQUH506BZR9N6KEO1","","null","<img src=""img/food6.png"" style=""width:200px;border:14px solid red;"">","null","","","",""
"","image-keyboard-response","36","47078","0.0-36.0","39RP059MEIF91SRSL0O576S7TICBM6","A10JXOU89D5RXR","39WSF6KUV27TMEQUH506BZR9N6KEO1","","1296.800000011921","img/food4.png","74","1297.5999999642372","74","0",""
"","html-keyboard-response","37","47381","0.0-37.0","39RP059MEIF91SRSL0O576S7TICBM6","A10JXOU89D5RXR","39WSF6KUV27TMEQUH506BZR9N6KEO1","","null","<img src=""img/food4.png"" style=""width:200px;border:14px solid red;"">","null","","","",""
"","image-keyboard-response","38","47694","0.0-38.0","39RP059MEIF91SRSL0O576S7TICBM6","A10JXOU89D5RXR","39WSF6KUV27TMEQUH506BZR9N6KEO1","","312.19999998807907","img/food4.png","76","313.4000000357628","76","1",""
"","html-keyboard-response","39","47997","0.0-39.0","39RP059MEIF91SRSL0O576S7TICBM6","A10JXOU89D5RXR","39WSF6KUV27TMEQUH506BZR9N6KEO1","","null","<img src=""img/food4.png"" style=""width:200px; border:14px solid green;"">","null","","","",""
"","image-keyboard-response","40","49406","0.0-40.0","39RP059MEIF91SRSL0O576S7TICBM6","A10JXOU89D5RXR","39WSF6KUV27TMEQUH506BZR9N6KEO1","","1408.699999988079","img/food6.png","75","1409.4000000357628","75","0",""
"","html-keyboard-response","41","49708","0.0-41.0","39RP059MEIF91SRSL0O576S7TICBM6","A10JXOU89D5RXR","39WSF6KUV27TMEQUH506BZR9N6KEO1","","null","<img src=""img/food6.png"" style=""width:200px;border:14px solid red;"">","null","","","",""
"","image-keyboard-response","42","50823","0.0-42.0","39RP059MEIF91SRSL0O576S7TICBM6","A10JXOU89D5RXR","39WSF6KUV27TMEQUH506BZR9N6KEO1","","1113.9000000357628","img/food2.png","76","1114.7000000476837","76","1",""
"","html-keyboard-response","43","51125","0.0-43.0","39RP059MEIF91SRSL0O576S7TICBM6","A10JXOU89D5RXR","39WSF6KUV27TMEQUH506BZR9N6KEO1","","null","<img src=""img/food2.png"" style=""width:200px; border:14px solid green;"">","null","","","",""
"","image-keyboard-response","44","51606","0.0-44.0","39RP059MEIF91SRSL0O576S7TICBM6","A10JXOU89D5RXR","39WSF6KUV27TMEQUH506BZR9N6KEO1","","480.30000001192093","img/food2.png","76","480.9000000357628","76","1",""
"","html-keyboard-response","45","51907","0.0-45.0","39RP059MEIF91SRSL0O576S7TICBM6","A10JXOU89D5RXR","39WSF6KUV27TMEQUH506BZR9N6KEO1","","null","<img src=""img/food2.png"" style=""width:200px; border:14px solid green;"">","null","","","",""
"","image-keyboard-response","46","52543","0.0-46.0","39RP059MEIF91SRSL0O576S7TICBM6","A10JXOU89D5RXR","39WSF6KUV27TMEQUH506BZR9N6KEO1","","634.4000000357628","img/food4.png","76","635.1999999880791","76","0",""
"","html-keyboard-response","47","52845","0.0-47.0","39RP059MEIF91SRSL0O576S7TICBM6","A10JXOU89D5RXR","39WSF6KUV27TMEQUH506BZR9N6KEO1","","null","<img src=""img/food4.png"" style=""width:200px;border:14px solid red;"">","null","","","",""
"","image-keyboard-response","48","53742","0.0-48.0","39RP059MEIF91SRSL0O576S7TICBM6","A10JXOU89D5RXR","39WSF6KUV27TMEQUH506BZR9N6KEO1","","896","img/food6.png","76","897.2000000476837","76","1",""
"","html-keyboard-response","49","54043","0.0-49.0","39RP059MEIF91SRSL0O576S7TICBM6","A10JXOU89D5RXR","39WSF6KUV27TMEQUH506BZR9N6KEO1","","null","<img src=""img/food6.png"" style=""width:200px; border:14px solid green;"">","null","","","",""
"","image-keyboard-response","50","54671","0.0-50.0","39RP059MEIF91SRSL0O576S7TICBM6","A10JXOU89D5RXR","39WSF6KUV27TMEQUH506BZR9N6KEO1","","626.1000000238419","img/food6.png","76","626.6999999880791","76","0",""
"","html-keyboard-response","51","54973","0.0-51.0","39RP059MEIF91SRSL0O576S7TICBM6","A10JXOU89D5RXR","39WSF6KUV27TMEQUH506BZR9N6KEO1","","null","<img src=""img/food6.png"" style=""width:200px;border:14px solid red;"">","null","","","",""
"","image-keyboard-response","52","55806","0.0-52.0","39RP059MEIF91SRSL0O576S7TICBM6","A10JXOU89D5RXR","39WSF6KUV27TMEQUH506BZR9N6KEO1","","831.6000000238419","img/food6.png","75","832.6999999880791","75","1",""
"","html-keyboard-response","53","56108","0.0-53.0","39RP059MEIF91SRSL0O576S7TICBM6","A10JXOU89D5RXR","39WSF6KUV27TMEQUH506BZR9N6KEO1","","null","<img src=""img/food6.png"" style=""width:200px; border:14px solid green;"">","null","","","",""
"","image-keyboard-response","54","56951","0.0-54.0","39RP059MEIF91SRSL0O576S7TICBM6","A10JXOU89D5RXR","39WSF6KUV27TMEQUH506BZR9N6KEO1","","841.7000000476837","img/food2.png","76","842.8999999761581","76","0",""
"","html-keyboard-response","55","57254","0.0-55.0","39RP059MEIF91SRSL0O576S7TICBM6","A10JXOU89D5RXR","39WSF6KUV27TMEQUH506BZR9N6KEO1","","null","<img src=""img/food2.png"" style=""width:200px;border:14px solid red;"">","null","","","",""
"","image-keyboard-response","56","57822","0.0-56.0","39RP059MEIF91SRSL0O576S7TICBM6","A10JXOU89D5RXR","39WSF6KUV27TMEQUH506BZR9N6KEO1","","567.3999999761581","img/food6.png","75","568.1999999880791","75","0",""
"","html-keyboard-response","57","58124","0.0-57.0","39RP059MEIF91SRSL0O576S7TICBM6","A10JXOU89D5RXR","39WSF6KUV27TMEQUH506BZR9N6KEO1","","null","<img src=""img/food6.png"" style=""width:200px;border:14px solid red;"">","null","","","",""
"","image-keyboard-response","58","58598","0.0-58.0","39RP059MEIF91SRSL0O576S7TICBM6","A10JXOU89D5RXR","39WSF6KUV27TMEQUH506BZR9N6KEO1","","472.69999998807907","img/food6.png","75","473.5","75","0",""
"","html-keyboard-response","59","58900","0.0-59.0","39RP059MEIF91SRSL0O576S7TICBM6","A10JXOU89D5RXR","39WSF6KUV27TMEQUH506BZR9N6KEO1","","null","<img src=""img/food6.png"" style=""width:200px;border:14px solid red;"">","null","","","",""
"","image-keyboard-response","60","59695","0.0-60.0","39RP059MEIF91SRSL0O576S7TICBM6","A10JXOU89D5RXR","39WSF6KUV27TMEQUH506BZR9N6KEO1","","794","img/food2.png","76","795","76","1",""
"","html-keyboard-response","61","59996","0.0-61.0","39RP059MEIF91SRSL0O576S7TICBM6","A10JXOU89D5RXR","39WSF6KUV27TMEQUH506BZR9N6KEO1","","null","<img src=""img/food2.png"" style=""width:200px; border:14px solid green;"">","null","","","",""
"","image-keyboard-response","62","60391","0.0-62.0","39RP059MEIF91SRSL0O576S7TICBM6","A10JXOU89D5RXR","39WSF6KUV27TMEQUH506BZR9N6KEO1","","393.7999999523163","img/food2.png","76","394.39999997615814","76","1",""
"","html-keyboard-response","63","60693","0.0-63.0","39RP059MEIF91SRSL0O576S7TICBM6","A10JXOU89D5RXR","39WSF6KUV27TMEQUH506BZR9N6KEO1","","null","<img src=""img/food2.png"" style=""width:200px; border:14px solid green;"">","null","","","",""
"","image-keyboard-response","64","61822","0.0-64.0","39RP059MEIF91SRSL0O576S7TICBM6","A10JXOU89D5RXR","39WSF6KUV27TMEQUH506BZR9N6KEO1","","1128.1000000238419","img/food4.png","75","1128.8999999761581","75","0",""
"","html-keyboard-response","65","62124","0.0-65.0","39RP059MEIF91SRSL0O576S7TICBM6","A10JXOU89D5RXR","39WSF6KUV27TMEQUH506BZR9N6KEO1","","null","<img src=""img/food4.png"" style=""width:200px;border:14px solid red;"">","null","","","",""
"","image-keyboard-response","66","62839","0.0-66.0","39RP059MEIF91SRSL0O576S7TICBM6","A10JXOU89D5RXR","39WSF6KUV27TMEQUH506BZR9N6KEO1","","713.9000000357628","img/food4.png","74","714.8000000119209","74","1",""
"","html-keyboard-response","67","63141","0.0-67.0","39RP059MEIF91SRSL0O576S7TICBM6","A10JXOU89D5RXR","39WSF6KUV27TMEQUH506BZR9N6KEO1","","null","<img src=""img/food4.png"" style=""width:200px; border:14px solid green;"">","null","","","",""
"","image-keyboard-response","68","64174","0.0-68.0","39RP059MEIF91SRSL0O576S7TICBM6","A10JXOU89D5RXR","39WSF6KUV27TMEQUH506BZR9N6KEO1","","1031.5","img/food4.png","74","1032.199999988079","74","0",""
"","html-keyboard-response","69","64476","0.0-69.0","39RP059MEIF91SRSL0O576S7TICBM6","A10JXOU89D5RXR","39WSF6KUV27TMEQUH506BZR9N6KEO1","","null","<img src=""img/food4.png"" style=""width:200px;border:14px solid red;"">","null","","","",""
"","image-keyboard-response","70","65263","0.0-70.0","39RP059MEIF91SRSL0O576S7TICBM6","A10JXOU89D5RXR","39WSF6KUV27TMEQUH506BZR9N6KEO1","","786","img/food2.png","76","787","76","1",""
"","html-keyboard-response","71","65564","0.0-71.0","39RP059MEIF91SRSL0O576S7TICBM6","A10JXOU89D5RXR","39WSF6KUV27TMEQUH506BZR9N6KEO1","","null","<img src=""img/food2.png"" style=""width:200px; border:14px solid green;"">","null","","","",""
"","image-keyboard-response","72","66119","0.0-72.0","39RP059MEIF91SRSL0O576S7TICBM6","A10JXOU89D5RXR","39WSF6KUV27TMEQUH506BZR9N6KEO1","","553.5","img/food4.png","74","554.5999999642372","74","0",""
"","html-keyboard-response","73","66421","0.0-73.0","39RP059MEIF91SRSL0O576S7TICBM6","A10JXOU89D5RXR","39WSF6KUV27TMEQUH506BZR9N6KEO1","","null","<img src=""img/food4.png"" style=""width:200px;border:14px solid red;"">","null","","","",""
"","image-keyboard-response","74","66807","0.0-74.0","39RP059MEIF91SRSL0O576S7TICBM6","A10JXOU89D5RXR","39WSF6KUV27TMEQUH506BZR9N6KEO1","","384.19999998807907","img/food4.png","74","385.10000002384186","74","0",""
"","html-keyboard-response","75","67108","0.0-75.0","39RP059MEIF91SRSL0O576S7TICBM6","A10JXOU89D5RXR","39WSF6KUV27TMEQUH506BZR9N6KEO1","","null","<img src=""img/food4.png"" style=""width:200px;border:14px solid red;"">","null","","","",""
"","image-keyboard-response","76","67591","0.0-76.0","39RP059MEIF91SRSL0O576S7TICBM6","A10JXOU89D5RXR","39WSF6KUV27TMEQUH506BZR9N6KEO1","","481.5","img/food4.png","74","482.5","74","0",""
"","html-keyboard-response","77","67893","0.0-77.0","39RP059MEIF91SRSL0O576S7TICBM6","A10JXOU89D5RXR","39WSF6KUV27TMEQUH506BZR9N6KEO1","","null","<img src=""img/food4.png"" style=""width:200px;border:14px solid red;"">","null","","","",""
"","image-keyboard-response","78","68631","0.0-78.0","39RP059MEIF91SRSL0O576S7TICBM6","A10JXOU89D5RXR","39WSF6KUV27TMEQUH506BZR9N6KEO1","","736.3999999761581","img/food2.png","76","737.5","76","1",""
"","html-keyboard-response","79","68932","0.0-79.0","39RP059MEIF91SRSL0O576S7TICBM6","A10JXOU89D5RXR","39WSF6KUV27TMEQUH506BZR9N6KEO1","","null","<img src=""img/food2.png"" style=""width:200px; border:14px solid green;"">","null","","","",""
"","image-keyboard-response","80","69295","0.0-80.0","39RP059MEIF91SRSL0O576S7TICBM6","A10JXOU89D5RXR","39WSF6KUV27TMEQUH506BZR9N6KEO1","","361.7000000476837","img/food2.png","76","362.5","76","1",""
"","html-keyboard-response","81","69597","0.0-81.0","39RP059MEIF91SRSL0O576S7TICBM6","A10JXOU89D5RXR","39WSF6KUV27TMEQUH506BZR9N6KEO1","","null","<img src=""img/food2.png"" style=""width:200px; border:14px solid green;"">","null","","","",""
"","image-keyboard-response","82","69895","0.0-82.0","39RP059MEIF91SRSL0O576S7TICBM6","A10JXOU89D5RXR","39WSF6KUV27TMEQUH506BZR9N6KEO1","","297.30000001192093","img/food2.png","76","298","76","1",""
"","html-keyboard-response","83","70196","0.0-83.0","39RP059MEIF91SRSL0O576S7TICBM6","A10JXOU89D5RXR","39WSF6KUV27TMEQUH506BZR9N6KEO1","","null","<img src=""img/food2.png"" style=""width:200px; border:14px solid green;"">","null","","","",""
"","image-keyboard-response","84","70479","0.0-84.0","39RP059MEIF91SRSL0O576S7TICBM6","A10JXOU89D5RXR","39WSF6KUV27TMEQUH506BZR9N6KEO1","","281.89999997615814","img/food2.png","76","282.80000001192093","76","1",""
"","html-keyboard-response","85","70781","0.0-85.0","39RP059MEIF91SRSL0O576S7TICBM6","A10JXOU89D5RXR","39WSF6KUV27TMEQUH506BZR9N6KEO1","","null","<img src=""img/food2.png"" style=""width:200px; border:14px solid green;"">","null","","","",""
"","image-keyboard-response","86","71070","0.0-86.0","39RP059MEIF91SRSL0O576S7TICBM6","A10JXOU89D5RXR","39WSF6KUV27TMEQUH506BZR9N6KEO1","","288","img/food2.png","76","288.9000000357628","76","1",""
"","html-keyboard-response","87","71375","0.0-87.0","39RP059MEIF91SRSL0O576S7TICBM6","A10JXOU89D5RXR","39WSF6KUV27TMEQUH506BZR9N6KEO1","","null","<img src=""img/food2.png"" style=""width:200px; border:14px solid green;"">","null","","","",""
"","image-keyboard-response","88","71712","0.0-88.0","39RP059MEIF91SRSL0O576S7TICBM6","A10JXOU89D5RXR","39WSF6KUV27TMEQUH506BZR9N6KEO1","","336.10000002384186","img/food2.png","76","336.89999997615814","76","1",""
"","html-keyboard-response","89","72013","0.0-89.0","39RP059MEIF91SRSL0O576S7TICBM6","A10JXOU89D5RXR","39WSF6KUV27TMEQUH506BZR9N6KEO1","","null","<img src=""img/food2.png"" style=""width:200px; border:14px solid green;"">","null","","","",""
"","image-keyboard-response","90","73168","0.0-90.0","39RP059MEIF91SRSL0O576S7TICBM6","A10JXOU89D5RXR","39WSF6KUV27TMEQUH506BZR9N6KEO1","","1153.800000011921","img/food6.png","74","1154.6000000238419","74","0",""
"","html-keyboard-response","91","73471","0.0-91.0","39RP059MEIF91SRSL0O576S7TICBM6","A10JXOU89D5RXR","39WSF6KUV27TMEQUH506BZR9N6KEO1","","null","<img src=""img/food6.png"" style=""width:200px;border:14px solid red;"">","null","","","",""
"","image-keyboard-response","92","73785","0.0-92.0","39RP059MEIF91SRSL0O576S7TICBM6","A10JXOU89D5RXR","39WSF6KUV27TMEQUH506BZR9N6KEO1","","312.5999999642372","img/food6.png","74","313.69999998807907","74","0",""
"","html-keyboard-response","93","74087","0.0-93.0","39RP059MEIF91SRSL0O576S7TICBM6","A10JXOU89D5RXR","39WSF6KUV27TMEQUH506BZR9N6KEO1","","null","<img src=""img/food6.png"" style=""width:200px;border:14px solid red;"">","null","","","",""
"","image-keyboard-response","94","74336","0.0-94.0","39RP059MEIF91SRSL0O576S7TICBM6","A10JXOU89D5RXR","39WSF6KUV27TMEQUH506BZR9N6KEO1","","248.80000001192093","img/food6.png","74","249.5","74","0",""
"","html-keyboard-response","95","74637","0.0-95.0","39RP059MEIF91SRSL0O576S7TICBM6","A10JXOU89D5RXR","39WSF6KUV27TMEQUH506BZR9N6KEO1","","null","<img src=""img/food6.png"" style=""width:200px;border:14px solid red;"">","null","","","",""
"","image-keyboard-response","96","74905","0.0-96.0","39RP059MEIF91SRSL0O576S7TICBM6","A10JXOU89D5RXR","39WSF6KUV27TMEQUH506BZR9N6KEO1","","266.5","img/food6.png","74","267.5999999642372","74","0",""
"","html-keyboard-response","97","75206","0.0-97.0","39RP059MEIF91SRSL0O576S7TICBM6","A10JXOU89D5RXR","39WSF6KUV27TMEQUH506BZR9N6KEO1","","null","<img src=""img/food6.png"" style=""width:200px;border:14px solid red;"">","null","","","",""
"","image-keyboard-response","98","76089","0.0-98.0","39RP059MEIF91SRSL0O576S7TICBM6","A10JXOU89D5RXR","39WSF6KUV27TMEQUH506BZR9N6KEO1","","881.3999999761581","img/food4.png","74","882.4000000357628","74","0",""
"","html-keyboard-response","99","76390","0.0-99.0","39RP059MEIF91SRSL0O576S7TICBM6","A10JXOU89D5RXR","39WSF6KUV27TMEQUH506BZR9N6KEO1","","null","<img src=""img/food4.png"" style=""width:200px;border:14px solid red;"">","null","","","",""
"","image-keyboard-response","100","77072","0.0-100.0","39RP059MEIF91SRSL0O576S7TICBM6","A10JXOU89D5RXR","39WSF6KUV27TMEQUH506BZR9N6KEO1","","680.6999999880791","img/food2.png","76","681.4000000357628","76","0",""
"","html-keyboard-response","101","77374","0.0-101.0","39RP059MEIF91SRSL0O576S7TICBM6","A10JXOU89D5RXR","39WSF6KUV27TMEQUH506BZR9N6KEO1","","null","<img src=""img/food2.png"" style=""width:200px;border:14px solid red;"">","null","","","",""
"","image-keyboard-response","102","78665","0.0-102.0","39RP059MEIF91SRSL0O576S7TICBM6","A10JXOU89D5RXR","39WSF6KUV27TMEQUH506BZR9N6KEO1","","1290.199999988079","img/food6.png","75","1291","75","1",""
"","html-keyboard-response","103","78967","0.0-103.0","39RP059MEIF91SRSL0O576S7TICBM6","A10JXOU89D5RXR","39WSF6KUV27TMEQUH506BZR9N6KEO1","","null","<img src=""img/food6.png"" style=""width:200px; border:14px solid green;"">","null","","","",""
"","image-keyboard-response","104","79801","0.0-104.0","39RP059MEIF91SRSL0O576S7TICBM6","A10JXOU89D5RXR","39WSF6KUV27TMEQUH506BZR9N6KEO1","","832.7000000476837","img/food4.png","74","833.3999999761581","74","1",""
"","html-keyboard-response","105","80102","0.0-105.0","39RP059MEIF91SRSL0O576S7TICBM6","A10JXOU89D5RXR","39WSF6KUV27TMEQUH506BZR9N6KEO1","","null","<img src=""img/food4.png"" style=""width:200px; border:14px solid green;"">","null","","","",""
"","image-keyboard-response","106","80536","0.0-106.0","39RP059MEIF91SRSL0O576S7TICBM6","A10JXOU89D5RXR","39WSF6KUV27TMEQUH506BZR9N6KEO1","","432.9000000357628","img/food4.png","74","433.80000001192093","74","1",""
"","html-keyboard-response","107","80839","0.0-107.0","39RP059MEIF91SRSL0O576S7TICBM6","A10JXOU89D5RXR","39WSF6KUV27TMEQUH506BZR9N6KEO1","","null","<img src=""img/food4.png"" style=""width:200px; border:14px solid green;"">","null","","","",""
"","image-keyboard-response","108","81720","0.0-108.0","39RP059MEIF91SRSL0O576S7TICBM6","A10JXOU89D5RXR","39WSF6KUV27TMEQUH506BZR9N6KEO1","","879.6000000238419","img/food6.png","75","880.6000000238419","75","1",""
"","html-keyboard-response","109","82021","0.0-109.0","39RP059MEIF91SRSL0O576S7TICBM6","A10JXOU89D5RXR","39WSF6KUV27TMEQUH506BZR9N6KEO1","","null","<img src=""img/food6.png"" style=""width:200px; border:14px solid green;"">","null","","","",""
"","image-keyboard-response","110","82696","0.0-110.0","39RP059MEIF91SRSL0O576S7TICBM6","A10JXOU89D5RXR","39WSF6KUV27TMEQUH506BZR9N6KEO1","","674.1000000238419","img/food2.png","76","675","76","1",""
"","html-keyboard-response","111","82999","0.0-111.0","39RP059MEIF91SRSL0O576S7TICBM6","A10JXOU89D5RXR","39WSF6KUV27TMEQUH506BZR9N6KEO1","","null","<img src=""img/food2.png"" style=""width:200px; border:14px solid green;"">","null","","","",""
"","image-keyboard-response","112","83440","0.0-112.0","39RP059MEIF91SRSL0O576S7TICBM6","A10JXOU89D5RXR","39WSF6KUV27TMEQUH506BZR9N6KEO1","","439.5999999642372","img/food2.png","76","440.60000002384186","76","1",""
"","html-keyboard-response","113","83743","0.0-113.0","39RP059MEIF91SRSL0O576S7TICBM6","A10JXOU89D5RXR","39WSF6KUV27TMEQUH506BZR9N6KEO1","","null","<img src=""img/food2.png"" style=""width:200px; border:14px solid green;"">","null","","","",""
"","image-keyboard-response","114","84480","0.0-114.0","39RP059MEIF91SRSL0O576S7TICBM6","A10JXOU89D5RXR","39WSF6KUV27TMEQUH506BZR9N6KEO1","","736.3000000119209","img/food6.png","75","737.5","75","1",""
"","html-keyboard-response","115","84782","0.0-115.0","39RP059MEIF91SRSL0O576S7TICBM6","A10JXOU89D5RXR","39WSF6KUV27TMEQUH506BZR9N6KEO1","","null","<img src=""img/food6.png"" style=""width:200px; border:14px solid green;"">","null","","","",""
"","image-keyboard-response","116","85177","0.0-116.0","39RP059MEIF91SRSL0O576S7TICBM6","A10JXOU89D5RXR","39WSF6KUV27TMEQUH506BZR9N6KEO1","","393.19999998807907","img/food6.png","75","394","75","0",""
"","html-keyboard-response","117","85479","0.0-117.0","39RP059MEIF91SRSL0O576S7TICBM6","A10JXOU89D5RXR","39WSF6KUV27TMEQUH506BZR9N6KEO1","","null","<img src=""img/food6.png"" style=""width:200px;border:14px solid red;"">","null","","","",""
"","image-keyboard-response","118","86064","0.0-118.0","39RP059MEIF91SRSL0O576S7TICBM6","A10JXOU89D5RXR","39WSF6KUV27TMEQUH506BZR9N6KEO1","","582.5","img/food4.png","74","584.9000000357628","74","1",""
"","html-keyboard-response","119","86365","0.0-119.0","39RP059MEIF91SRSL0O576S7TICBM6","A10JXOU89D5RXR","39WSF6KUV27TMEQUH506BZR9N6KEO1","","null","<img src=""img/food4.png"" style=""width:200px; border:14px solid green;"">","null","","","",""
"","image-keyboard-response","120","87288","0.0-120.0","39RP059MEIF91SRSL0O576S7TICBM6","A10JXOU89D5RXR","39WSF6KUV27TMEQUH506BZR9N6KEO1","","922.6999999880791","img/food6.png","75","923.5","75","0",""
"","html-keyboard-response","121","87590","0.0-121.0","39RP059MEIF91SRSL0O576S7TICBM6","A10JXOU89D5RXR","39WSF6KUV27TMEQUH506BZR9N6KEO1","","null","<img src=""img/food6.png"" style=""width:200px;border:14px solid red;"">","null","","","",""
"","image-keyboard-response","122","88272","0.0-122.0","39RP059MEIF91SRSL0O576S7TICBM6","A10JXOU89D5RXR","39WSF6KUV27TMEQUH506BZR9N6KEO1","","681.3999999761581","img/food2.png","76","682.1000000238419","76","1",""
"","html-keyboard-response","123","88574","0.0-123.0","39RP059MEIF91SRSL0O576S7TICBM6","A10JXOU89D5RXR","39WSF6KUV27TMEQUH506BZR9N6KEO1","","null","<img src=""img/food2.png"" style=""width:200px; border:14px solid green;"">","null","","","",""
"","image-keyboard-response","124","88969","0.0-124.0","39RP059MEIF91SRSL0O576S7TICBM6","A10JXOU89D5RXR","39WSF6KUV27TMEQUH506BZR9N6KEO1","","394.4000000357628","img/food2.png","76","395","76","1",""
"","html-keyboard-response","125","89271","0.0-125.0","39RP059MEIF91SRSL0O576S7TICBM6","A10JXOU89D5RXR","39WSF6KUV27TMEQUH506BZR9N6KEO1","","null","<img src=""img/food2.png"" style=""width:200px; border:14px solid green;"">","null","","","",""
"","image-keyboard-response","126","89600","0.0-126.0","39RP059MEIF91SRSL0O576S7TICBM6","A10JXOU89D5RXR","39WSF6KUV27TMEQUH506BZR9N6KEO1","","327.89999997615814","img/food2.png","76","328.7000000476837","76","1",""
"","html-keyboard-response","127","89903","0.0-127.0","39RP059MEIF91SRSL0O576S7TICBM6","A10JXOU89D5RXR","39WSF6KUV27TMEQUH506BZR9N6KEO1","","null","<img src=""img/food2.png"" style=""width:200px; border:14px solid green;"">","null","","","",""
"","image-keyboard-response","128","90553","0.0-128.0","39RP059MEIF91SRSL0O576S7TICBM6","A10JXOU89D5RXR","39WSF6KUV27TMEQUH506BZR9N6KEO1","","649","img/food4.png","74","649.9000000357628","74","1",""
"","html-keyboard-response","129","90855","0.0-129.0","39RP059MEIF91SRSL0O576S7TICBM6","A10JXOU89D5RXR","39WSF6KUV27TMEQUH506BZR9N6KEO1","","null","<img src=""img/food4.png"" style=""width:200px; border:14px solid green;"">","null","","","",""
"","image-keyboard-response","130","91184","0.0-130.0","39RP059MEIF91SRSL0O576S7TICBM6","A10JXOU89D5RXR","39WSF6KUV27TMEQUH506BZR9N6KEO1","","328.19999998807907","img/food4.png","74","328.9000000357628","74","1",""
"","html-keyboard-response","131","91486","0.0-131.0","39RP059MEIF91SRSL0O576S7TICBM6","A10JXOU89D5RXR","39WSF6KUV27TMEQUH506BZR9N6KEO1","","null","<img src=""img/food4.png"" style=""width:200px; border:14px solid green;"">","null","","","",""
"","image-keyboard-response","132","91824","0.0-132.0","39RP059MEIF91SRSL0O576S7TICBM6","A10JXOU89D5RXR","39WSF6KUV27TMEQUH506BZR9N6KEO1","","336.89999997615814","img/food4.png","74","337.69999998807907","74","1",""
"","html-keyboard-response","133","92125","0.0-133.0","39RP059MEIF91SRSL0O576S7TICBM6","A10JXOU89D5RXR","39WSF6KUV27TMEQUH506BZR9N6KEO1","","null","<img src=""img/food4.png"" style=""width:200px; border:14px solid green;"">","null","","","",""
"","image-keyboard-response","134","92824","0.0-134.0","39RP059MEIF91SRSL0O576S7TICBM6","A10JXOU89D5RXR","39WSF6KUV27TMEQUH506BZR9N6KEO1","","697.7000000476837","img/food6.png","75","698.5","75","1",""
"","html-keyboard-response","135","93126","0.0-135.0","39RP059MEIF91SRSL0O576S7TICBM6","A10JXOU89D5RXR","39WSF6KUV27TMEQUH506BZR9N6KEO1","","null","<img src=""img/food6.png"" style=""width:200px; border:14px solid green;"">","null","","","",""
"","image-keyboard-response","136","93399","0.0-136.0","39RP059MEIF91SRSL0O576S7TICBM6","A10JXOU89D5RXR","39WSF6KUV27TMEQUH506BZR9N6KEO1","","272.30000001192093","img/food2.png","75","273","75","1",""
"","html-keyboard-response","137","93702","0.0-137.0","39RP059MEIF91SRSL0O576S7TICBM6","A10JXOU89D5RXR","39WSF6KUV27TMEQUH506BZR9N6KEO1","","null","<img src=""img/food2.png"" style=""width:200px; border:14px solid green;"">","null","","","",""
"","image-keyboard-response","138","94905","0.0-138.0","39RP059MEIF91SRSL0O576S7TICBM6","A10JXOU89D5RXR","39WSF6KUV27TMEQUH506BZR9N6KEO1","","1201.9000000357628","img/food2.png","76","1202.800000011921","76","0",""
"","html-keyboard-response","139","95207","0.0-139.0","39RP059MEIF91SRSL0O576S7TICBM6","A10JXOU89D5RXR","39WSF6KUV27TMEQUH506BZR9N6KEO1","","null","<img src=""img/food2.png"" style=""width:200px;border:14px solid red;"">","null","","","",""
"","image-keyboard-response","140","95992","0.0-140.0","39RP059MEIF91SRSL0O576S7TICBM6","A10JXOU89D5RXR","39WSF6KUV27TMEQUH506BZR9N6KEO1","","784.1999999880791","img/food4.png","74","785","74","0",""
"","html-keyboard-response","141","96293","0.0-141.0","39RP059MEIF91SRSL0O576S7TICBM6","A10JXOU89D5RXR","39WSF6KUV27TMEQUH506BZR9N6KEO1","","null","<img src=""img/food4.png"" style=""width:200px;border:14px solid red;"">","null","","","",""
"","image-keyboard-response","142","97048","0.0-142.0","39RP059MEIF91SRSL0O576S7TICBM6","A10JXOU89D5RXR","39WSF6KUV27TMEQUH506BZR9N6KEO1","","753.3000000119209","img/food2.png","76","754.0999999642372","76","0",""
"","html-keyboard-response","143","97349","0.0-143.0","39RP059MEIF91SRSL0O576S7TICBM6","A10JXOU89D5RXR","39WSF6KUV27TMEQUH506BZR9N6KEO1","","null","<img src=""img/food2.png"" style=""width:200px;border:14px solid red;"">","null","","","",""
"","image-keyboard-response","144","98064","0.0-144.0","39RP059MEIF91SRSL0O576S7TICBM6","A10JXOU89D5RXR","39WSF6KUV27TMEQUH506BZR9N6KEO1","","714.0999999642372","img/food4.png","74","714.8000000119209","74","1",""
"","html-keyboard-response","145","98366","0.0-145.0","39RP059MEIF91SRSL0O576S7TICBM6","A10JXOU89D5RXR","39WSF6KUV27TMEQUH506BZR9N6KEO1","","null","<img src=""img/food4.png"" style=""width:200px; border:14px solid green;"">","null","","","",""
"","image-keyboard-response","146","98816","0.0-146.0","39RP059MEIF91SRSL0O576S7TICBM6","A10JXOU89D5RXR","39WSF6KUV27TMEQUH506BZR9N6KEO1","","449.5","img/food4.png","74","450.5","74","0",""
"","html-keyboard-response","147","99119","0.0-147.0","39RP059MEIF91SRSL0O576S7TICBM6","A10JXOU89D5RXR","39WSF6KUV27TMEQUH506BZR9N6KEO1","","null","<img src=""img/food4.png"" style=""width:200px;border:14px solid red;"">","null","","","",""
"","image-keyboard-response","148","99464","0.0-148.0","39RP059MEIF91SRSL0O576S7TICBM6","A10JXOU89D5RXR","39WSF6KUV27TMEQUH506BZR9N6KEO1","","344.2000000476837","img/food4.png","74","345","74","0",""
"","html-keyboard-response","149","99767","0.0-149.0","39RP059MEIF91SRSL0O576S7TICBM6","A10JXOU89D5RXR","39WSF6KUV27TMEQUH506BZR9N6KEO1","","null","<img src=""img/food4.png"" style=""width:200px;border:14px solid red;"">","null","","","",""
"","image-keyboard-response","150","100584","0.0-150.0","39RP059MEIF91SRSL0O576S7TICBM6","A10JXOU89D5RXR","39WSF6KUV27TMEQUH506BZR9N6KEO1","","816.5","img/food2.png","76","817.4000000357628","76","1",""
"","html-keyboard-response","151","100886","0.0-151.0","39RP059MEIF91SRSL0O576S7TICBM6","A10JXOU89D5RXR","39WSF6KUV27TMEQUH506BZR9N6KEO1","","null","<img src=""img/food2.png"" style=""width:200px; border:14px solid green;"">","null","","","",""
"","image-keyboard-response","152","101440","0.0-152.0","39RP059MEIF91SRSL0O576S7TICBM6","A10JXOU89D5RXR","39WSF6KUV27TMEQUH506BZR9N6KEO1","","553.1000000238419","img/food6.png","75","553.8000000119209","75","0",""
"","html-keyboard-response","153","101742","0.0-153.0","39RP059MEIF91SRSL0O576S7TICBM6","A10JXOU89D5RXR","39WSF6KUV27TMEQUH506BZR9N6KEO1","","null","<img src=""img/food6.png"" style=""width:200px;border:14px solid red;"">","null","","","",""
"","image-keyboard-response","154","102432","0.0-154.0","39RP059MEIF91SRSL0O576S7TICBM6","A10JXOU89D5RXR","39WSF6KUV27TMEQUH506BZR9N6KEO1","","689.5","img/food2.png","76","690.2000000476837","76","1",""
"","html-keyboard-response","155","102741","0.0-155.0","39RP059MEIF91SRSL0O576S7TICBM6","A10JXOU89D5RXR","39WSF6KUV27TMEQUH506BZR9N6KEO1","","null","<img src=""img/food2.png"" style=""width:200px; border:14px solid green;"">","null","","","",""
"","image-keyboard-response","156","103168","0.0-156.0","39RP059MEIF91SRSL0O576S7TICBM6","A10JXOU89D5RXR","39WSF6KUV27TMEQUH506BZR9N6KEO1","","426.89999997615814","img/food2.png","76","427.60000002384186","76","1",""
"","html-keyboard-response","157","103470","0.0-157.0","39RP059MEIF91SRSL0O576S7TICBM6","A10JXOU89D5RXR","39WSF6KUV27TMEQUH506BZR9N6KEO1","","null","<img src=""img/food2.png"" style=""width:200px; border:14px solid green;"">","null","","","",""
"","image-keyboard-response","158","104129","0.0-158.0","39RP059MEIF91SRSL0O576S7TICBM6","A10JXOU89D5RXR","39WSF6KUV27TMEQUH506BZR9N6KEO1","","656.8000000119209","img/food4.png","74","657.7999999523163","74","0",""
"","html-keyboard-response","159","104431","0.0-159.0","39RP059MEIF91SRSL0O576S7TICBM6","A10JXOU89D5RXR","39WSF6KUV27TMEQUH506BZR9N6KEO1","","null","<img src=""img/food4.png"" style=""width:200px;border:14px solid red;"">","null","","","",""
"","image-keyboard-response","160","105312","0.0-160.0","39RP059MEIF91SRSL0O576S7TICBM6","A10JXOU89D5RXR","39WSF6KUV27TMEQUH506BZR9N6KEO1","","880.3999999761581","img/food6.png","75","881","75","1",""
"","html-keyboard-response","161","105634","0.0-161.0","39RP059MEIF91SRSL0O576S7TICBM6","A10JXOU89D5RXR","39WSF6KUV27TMEQUH506BZR9N6KEO1","","null","<img src=""img/food6.png"" style=""width:200px; border:14px solid green;"">","null","","","",""
"","image-keyboard-response","162","106328","0.0-162.0","39RP059MEIF91SRSL0O576S7TICBM6","A10JXOU89D5RXR","39WSF6KUV27TMEQUH506BZR9N6KEO1","","692.8999999761581","img/food2.png","76","693.6999999880791","76","0",""
"","html-keyboard-response","163","106630","0.0-163.0","39RP059MEIF91SRSL0O576S7TICBM6","A10JXOU89D5RXR","39WSF6KUV27TMEQUH506BZR9N6KEO1","","null","<img src=""img/food2.png"" style=""width:200px;border:14px solid red;"">","null","","","",""
"","image-keyboard-response","164","107409","0.0-164.0","39RP059MEIF91SRSL0O576S7TICBM6","A10JXOU89D5RXR","39WSF6KUV27TMEQUH506BZR9N6KEO1","","777.8000000119209","img/food4.png","74","778.6000000238419","74","1",""
"","html-keyboard-response","165","107711","0.0-165.0","39RP059MEIF91SRSL0O576S7TICBM6","A10JXOU89D5RXR","39WSF6KUV27TMEQUH506BZR9N6KEO1","","null","<img src=""img/food4.png"" style=""width:200px; border:14px solid green;"">","null","","","",""
"","image-keyboard-response","166","108808","0.0-166.0","39RP059MEIF91SRSL0O576S7TICBM6","A10JXOU89D5RXR","39WSF6KUV27TMEQUH506BZR9N6KEO1","","1096.6000000238419","img/food6.png","75","1097.300000011921","75","0",""
"","html-keyboard-response","167","109110","0.0-167.0","39RP059MEIF91SRSL0O576S7TICBM6","A10JXOU89D5RXR","39WSF6KUV27TMEQUH506BZR9N6KEO1","","null","<img src=""img/food6.png"" style=""width:200px;border:14px solid red;"">","null","","","",""
"","image-keyboard-response","168","109879","0.0-168.0","39RP059MEIF91SRSL0O576S7TICBM6","A10JXOU89D5RXR","39WSF6KUV27TMEQUH506BZR9N6KEO1","","768.8999999761581","img/food2.png","76","769.6999999880791","76","1",""
"","html-keyboard-response","169","110182","0.0-169.0","39RP059MEIF91SRSL0O576S7TICBM6","A10JXOU89D5RXR","39WSF6KUV27TMEQUH506BZR9N6KEO1","","null","<img src=""img/food2.png"" style=""width:200px; border:14px solid green;"">","null","","","",""
"","image-keyboard-response","170","110952","0.0-170.0","39RP059MEIF91SRSL0O576S7TICBM6","A10JXOU89D5RXR","39WSF6KUV27TMEQUH506BZR9N6KEO1","","769.3000000119209","img/food4.png","75","770","75","0",""
"","html-keyboard-response","171","111253","0.0-171.0","39RP059MEIF91SRSL0O576S7TICBM6","A10JXOU89D5RXR","39WSF6KUV27TMEQUH506BZR9N6KEO1","","null","<img src=""img/food4.png"" style=""width:200px;border:14px solid red;"">","null","","","",""
"","image-keyboard-response","172","111817","0.0-172.0","39RP059MEIF91SRSL0O576S7TICBM6","A10JXOU89D5RXR","39WSF6KUV27TMEQUH506BZR9N6KEO1","","562.5999999642372","img/food2.png","76","563.3999999761581","76","0",""
"","html-keyboard-response","173","112119","0.0-173.0","39RP059MEIF91SRSL0O576S7TICBM6","A10JXOU89D5RXR","39WSF6KUV27TMEQUH506BZR9N6KEO1","","null","<img src=""img/food2.png"" style=""width:200px;border:14px solid red;"">","null","","","",""
"","image-keyboard-response","174","112952","0.0-174.0","39RP059MEIF91SRSL0O576S7TICBM6","A10JXOU89D5RXR","39WSF6KUV27TMEQUH506BZR9N6KEO1","","832.6999999880791","img/food6.png","75","833.5","75","1",""
"","html-keyboard-response","175","113255","0.0-175.0","39RP059MEIF91SRSL0O576S7TICBM6","A10JXOU89D5RXR","39WSF6KUV27TMEQUH506BZR9N6KEO1","","null","<img src=""img/food6.png"" style=""width:200px; border:14px solid green;"">","null","","","",""
"","image-keyboard-response","176","113880","0.0-176.0","39RP059MEIF91SRSL0O576S7TICBM6","A10JXOU89D5RXR","39WSF6KUV27TMEQUH506BZR9N6KEO1","","623.8000000119209","img/food4.png","74","624.7000000476837","74","0",""
"","html-keyboard-response","177","114182","0.0-177.0","39RP059MEIF91SRSL0O576S7TICBM6","A10JXOU89D5RXR","39WSF6KUV27TMEQUH506BZR9N6KEO1","","null","<img src=""img/food4.png"" style=""width:200px;border:14px solid red;"">","null","","","",""
"","image-keyboard-response","178","115032","0.0-178.0","39RP059MEIF91SRSL0O576S7TICBM6","A10JXOU89D5RXR","39WSF6KUV27TMEQUH506BZR9N6KEO1","","849.1999999880791","img/food6.png","75","850","75","0",""
"","html-keyboard-response","179","115334","0.0-179.0","39RP059MEIF91SRSL0O576S7TICBM6","A10JXOU89D5RXR","39WSF6KUV27TMEQUH506BZR9N6KEO1","","null","<img src=""img/food6.png"" style=""width:200px;border:14px solid red;"">","null","","","",""
"","image-keyboard-response","180","115832","0.0-180.0","39RP059MEIF91SRSL0O576S7TICBM6","A10JXOU89D5RXR","39WSF6KUV27TMEQUH506BZR9N6KEO1","","497.10000002384186","img/food6.png","75","497.7999999523163","75","1",""
"","html-keyboard-response","181","116138","0.0-181.0","39RP059MEIF91SRSL0O576S7TICBM6","A10JXOU89D5RXR","39WSF6KUV27TMEQUH506BZR9N6KEO1","","null","<img src=""img/food6.png"" style=""width:200px; border:14px solid green;"">","null","","","",""
"","html-keyboard-response","182","119690","0.0-182.0","39RP059MEIF91SRSL0O576S7TICBM6","A10JXOU89D5RXR","39WSF6KUV27TMEQUH506BZR9N6KEO1","","","","","","","",""
"","image-keyboard-response","183","121616","0.0-183.0","39RP059MEIF91SRSL0O576S7TICBM6","A10JXOU89D5RXR","39WSF6KUV27TMEQUH506BZR9N6KEO1","","1924.5999999642372","img/food3.png","74","1925.4000000357628","74","0",""
"","html-keyboard-response","184","121917","0.0-184.0","39RP059MEIF91SRSL0O576S7TICBM6","A10JXOU89D5RXR","39WSF6KUV27TMEQUH506BZR9N6KEO1","","null","<img src=""img/food3.png"" style=""width:200px;border:14px solid red;"">","null","","","",""
"","image-keyboard-response","185","123025","0.0-185.0","39RP059MEIF91SRSL0O576S7TICBM6","A10JXOU89D5RXR","39WSF6KUV27TMEQUH506BZR9N6KEO1","","1106.2000000476837","img/food1.png","74","1107","74","1",""
"","html-keyboard-response","186","123326","0.0-186.0","39RP059MEIF91SRSL0O576S7TICBM6","A10JXOU89D5RXR","39WSF6KUV27TMEQUH506BZR9N6KEO1","","null","<img src=""img/food1.png"" style=""width:200px; border:14px solid green;"">","null","","","",""
"","image-keyboard-response","187","124064","0.0-187.0","39RP059MEIF91SRSL0O576S7TICBM6","A10JXOU89D5RXR","39WSF6KUV27TMEQUH506BZR9N6KEO1","","737.0999999642372","img/food3.png","75","737.8999999761581","75","1",""
"","html-keyboard-response","188","124365","0.0-188.0","39RP059MEIF91SRSL0O576S7TICBM6","A10JXOU89D5RXR","39WSF6KUV27TMEQUH506BZR9N6KEO1","","null","<img src=""img/food3.png"" style=""width:200px; border:14px solid green;"">","null","","","",""
"","image-keyboard-response","189","125120","0.0-189.0","39RP059MEIF91SRSL0O576S7TICBM6","A10JXOU89D5RXR","39WSF6KUV27TMEQUH506BZR9N6KEO1","","753.5999999642372","img/food1.png","74","754.5","74","1",""
"","html-keyboard-response","190","125422","0.0-190.0","39RP059MEIF91SRSL0O576S7TICBM6","A10JXOU89D5RXR","39WSF6KUV27TMEQUH506BZR9N6KEO1","","null","<img src=""img/food1.png"" style=""width:200px; border:14px solid green;"">","null","","","",""
"","image-keyboard-response","191","126129","0.0-191.0","39RP059MEIF91SRSL0O576S7TICBM6","A10JXOU89D5RXR","39WSF6KUV27TMEQUH506BZR9N6KEO1","","705.6000000238419","img/food5.png","76","707.0999999642372","76","0",""
"","html-keyboard-response","192","126430","0.0-192.0","39RP059MEIF91SRSL0O576S7TICBM6","A10JXOU89D5RXR","39WSF6KUV27TMEQUH506BZR9N6KEO1","","null","<img src=""img/food5.png"" style=""width:200px;border:14px solid red;"">","null","","","",""
"","image-keyboard-response","193","126912","0.0-193.0","39RP059MEIF91SRSL0O576S7TICBM6","A10JXOU89D5RXR","39WSF6KUV27TMEQUH506BZR9N6KEO1","","481.19999998807907","img/food5.png","76","481.89999997615814","76","0",""
"","html-keyboard-response","194","127214","0.0-194.0","39RP059MEIF91SRSL0O576S7TICBM6","A10JXOU89D5RXR","39WSF6KUV27TMEQUH506BZR9N6KEO1","","null","<img src=""img/food5.png"" style=""width:200px;border:14px solid red;"">","null","","","",""
"","image-keyboard-response","195","127936","0.0-195.0","39RP059MEIF91SRSL0O576S7TICBM6","A10JXOU89D5RXR","39WSF6KUV27TMEQUH506BZR9N6KEO1","","720.6999999880791","img/food1.png","74","721.5999999642372","74","1",""
"","html-keyboard-response","196","128239","0.0-196.0","39RP059MEIF91SRSL0O576S7TICBM6","A10JXOU89D5RXR","39WSF6KUV27TMEQUH506BZR9N6KEO1","","null","<img src=""img/food1.png"" style=""width:200px; border:14px solid green;"">","null","","","",""
"","image-keyboard-response","197","128848","0.0-197.0","39RP059MEIF91SRSL0O576S7TICBM6","A10JXOU89D5RXR","39WSF6KUV27TMEQUH506BZR9N6KEO1","","608.5","img/food3.png","75","609.5","75","1",""
"","html-keyboard-response","198","129150","0.0-198.0","39RP059MEIF91SRSL0O576S7TICBM6","A10JXOU89D5RXR","39WSF6KUV27TMEQUH506BZR9N6KEO1","","null","<img src=""img/food3.png"" style=""width:200px; border:14px solid green;"">","null","","","",""
"","image-keyboard-response","199","129856","0.0-199.0","39RP059MEIF91SRSL0O576S7TICBM6","A10JXOU89D5RXR","39WSF6KUV27TMEQUH506BZR9N6KEO1","","705","img/food5.png","76","705.9000000357628","76","0",""
"","html-keyboard-response","200","130157","0.0-200.0","39RP059MEIF91SRSL0O576S7TICBM6","A10JXOU89D5RXR","39WSF6KUV27TMEQUH506BZR9N6KEO1","","null","<img src=""img/food5.png"" style=""width:200px;border:14px solid red;"">","null","","","",""
"","image-keyboard-response","201","131064","0.0-201.0","39RP059MEIF91SRSL0O576S7TICBM6","A10JXOU89D5RXR","39WSF6KUV27TMEQUH506BZR9N6KEO1","","906.1999999880791","img/food1.png","74","907.0999999642372","74","0",""
"","html-keyboard-response","202","131366","0.0-202.0","39RP059MEIF91SRSL0O576S7TICBM6","A10JXOU89D5RXR","39WSF6KUV27TMEQUH506BZR9N6KEO1","","null","<img src=""img/food1.png"" style=""width:200px;border:14px solid red;"">","null","","","",""
"","image-keyboard-response","203","132067","0.0-203.0","39RP059MEIF91SRSL0O576S7TICBM6","A10JXOU89D5RXR","39WSF6KUV27TMEQUH506BZR9N6KEO1","","697.7000000476837","img/food1.png","75","698.8000000119209","75","0",""
"","html-keyboard-response","204","132369","0.0-204.0","39RP059MEIF91SRSL0O576S7TICBM6","A10JXOU89D5RXR","39WSF6KUV27TMEQUH506BZR9N6KEO1","","null","<img src=""img/food1.png"" style=""width:200px;border:14px solid red;"">","null","","","",""
"","image-keyboard-response","205","133347","0.0-205.0","39RP059MEIF91SRSL0O576S7TICBM6","A10JXOU89D5RXR","39WSF6KUV27TMEQUH506BZR9N6KEO1","","976.6999999880791","img/food3.png","75","977.3999999761581","75","0",""
"","html-keyboard-response","206","133648","0.0-206.0","39RP059MEIF91SRSL0O576S7TICBM6","A10JXOU89D5RXR","39WSF6KUV27TMEQUH506BZR9N6KEO1","","null","<img src=""img/food3.png"" style=""width:200px;border:14px solid red;"">","null","","","",""
"","image-keyboard-response","207","134483","0.0-207.0","39RP059MEIF91SRSL0O576S7TICBM6","A10JXOU89D5RXR","39WSF6KUV27TMEQUH506BZR9N6KEO1","","833.5999999642372","img/food5.png","76","834.3000000119209","76","0",""
"","html-keyboard-response","208","134784","0.0-208.0","39RP059MEIF91SRSL0O576S7TICBM6","A10JXOU89D5RXR","39WSF6KUV27TMEQUH506BZR9N6KEO1","","null","<img src=""img/food5.png"" style=""width:200px;border:14px solid red;"">","null","","","",""
"","image-keyboard-response","209","135418","0.0-209.0","39RP059MEIF91SRSL0O576S7TICBM6","A10JXOU89D5RXR","39WSF6KUV27TMEQUH506BZR9N6KEO1","","632.5","img/food5.png","75","633.8999999761581","75","0",""
"","html-keyboard-response","210","135721","0.0-210.0","39RP059MEIF91SRSL0O576S7TICBM6","A10JXOU89D5RXR","39WSF6KUV27TMEQUH506BZR9N6KEO1","","null","<img src=""img/food5.png"" style=""width:200px;border:14px solid red;"">","null","","","",""
"","image-keyboard-response","211","137612","0.0-211.0","39RP059MEIF91SRSL0O576S7TICBM6","A10JXOU89D5RXR","39WSF6KUV27TMEQUH506BZR9N6KEO1","","1889.7999999523163","img/food3.png","74","1890.8999999761581","74","1",""
"","html-keyboard-response","212","137913","0.0-212.0","39RP059MEIF91SRSL0O576S7TICBM6","A10JXOU89D5RXR","39WSF6KUV27TMEQUH506BZR9N6KEO1","","null","<img src=""img/food3.png"" style=""width:200px; border:14px solid green;"">","null","","","",""
"","image-keyboard-response","213","138347","0.0-213.0","39RP059MEIF91SRSL0O576S7TICBM6","A10JXOU89D5RXR","39WSF6KUV27TMEQUH506BZR9N6KEO1","","432.5","img/food3.png","74","433.19999998807907","74","0",""
"","html-keyboard-response","214","138648","0.0-214.0","39RP059MEIF91SRSL0O576S7TICBM6","A10JXOU89D5RXR","39WSF6KUV27TMEQUH506BZR9N6KEO1","","null","<img src=""img/food3.png"" style=""width:200px;border:14px solid red;"">","null","","","",""
"","image-keyboard-response","215","139643","0.0-215.0","39RP059MEIF91SRSL0O576S7TICBM6","A10JXOU89D5RXR","39WSF6KUV27TMEQUH506BZR9N6KEO1","","993.5","img/food1.png","74","994.1999999880791","74","0",""
"","html-keyboard-response","216","139953","0.0-216.0","39RP059MEIF91SRSL0O576S7TICBM6","A10JXOU89D5RXR","39WSF6KUV27TMEQUH506BZR9N6KEO1","","null","<img src=""img/food1.png"" style=""width:200px;border:14px solid red;"">","null","","","",""
"","image-keyboard-response","217","140283","0.0-217.0","39RP059MEIF91SRSL0O576S7TICBM6","A10JXOU89D5RXR","39WSF6KUV27TMEQUH506BZR9N6KEO1","","328.5","img/food1.png","74","329.19999998807907","74","0",""
"","html-keyboard-response","218","140584","0.0-218.0","39RP059MEIF91SRSL0O576S7TICBM6","A10JXOU89D5RXR","39WSF6KUV27TMEQUH506BZR9N6KEO1","","null","<img src=""img/food1.png"" style=""width:200px;border:14px solid red;"">","null","","","",""
"","image-keyboard-response","219","141587","0.0-219.0","39RP059MEIF91SRSL0O576S7TICBM6","A10JXOU89D5RXR","39WSF6KUV27TMEQUH506BZR9N6KEO1","","1001.6000000238419","img/food3.png","75","1002.3000000119209","75","1",""
"","html-keyboard-response","220","141888","0.0-220.0","39RP059MEIF91SRSL0O576S7TICBM6","A10JXOU89D5RXR","39WSF6KUV27TMEQUH506BZR9N6KEO1","","null","<img src=""img/food3.png"" style=""width:200px; border:14px solid green;"">","null","","","",""
"","image-keyboard-response","221","143195","0.0-221.0","39RP059MEIF91SRSL0O576S7TICBM6","A10JXOU89D5RXR","39WSF6KUV27TMEQUH506BZR9N6KEO1","","1305.6000000238419","img/food5.png","75","1306.5","75","0",""
"","html-keyboard-response","222","143497","0.0-222.0","39RP059MEIF91SRSL0O576S7TICBM6","A10JXOU89D5RXR","39WSF6KUV27TMEQUH506BZR9N6KEO1","","null","<img src=""img/food5.png"" style=""width:200px;border:14px solid red;"">","null","","","",""
"","image-keyboard-response","223","143834","0.0-223.0","39RP059MEIF91SRSL0O576S7TICBM6","A10JXOU89D5RXR","39WSF6KUV27TMEQUH506BZR9N6KEO1","","336.0999999642372","img/food5.png","75","336.89999997615814","75","0",""
"","html-keyboard-response","224","144143","0.0-224.0","39RP059MEIF91SRSL0O576S7TICBM6","A10JXOU89D5RXR","39WSF6KUV27TMEQUH506BZR9N6KEO1","","null","<img src=""img/food5.png"" style=""width:200px;border:14px solid red;"">","null","","","",""
"","image-keyboard-response","225","144555","0.0-225.0","39RP059MEIF91SRSL0O576S7TICBM6","A10JXOU89D5RXR","39WSF6KUV27TMEQUH506BZR9N6KEO1","","410.9000000357628","img/food5.png","75","411.80000001192093","75","1",""
"","html-keyboard-response","226","144856","0.0-226.0","39RP059MEIF91SRSL0O576S7TICBM6","A10JXOU89D5RXR","39WSF6KUV27TMEQUH506BZR9N6KEO1","","null","<img src=""img/food5.png"" style=""width:200px; border:14px solid green;"">","null","","","",""
"","image-keyboard-response","227","145875","0.0-227.0","39RP059MEIF91SRSL0O576S7TICBM6","A10JXOU89D5RXR","39WSF6KUV27TMEQUH506BZR9N6KEO1","","1017.8000000119209","img/food1.png","74","1018.6999999880791","74","1",""
"","html-keyboard-response","228","146177","0.0-228.0","39RP059MEIF91SRSL0O576S7TICBM6","A10JXOU89D5RXR","39WSF6KUV27TMEQUH506BZR9N6KEO1","","null","<img src=""img/food1.png"" style=""width:200px; border:14px solid green;"">","null","","","",""
"","image-keyboard-response","229","146995","0.0-229.0","39RP059MEIF91SRSL0O576S7TICBM6","A10JXOU89D5RXR","39WSF6KUV27TMEQUH506BZR9N6KEO1","","815.9000000357628","img/food3.png","75","816.6999999880791","75","1",""
"","html-keyboard-response","230","147297","0.0-230.0","39RP059MEIF91SRSL0O576S7TICBM6","A10JXOU89D5RXR","39WSF6KUV27TMEQUH506BZR9N6KEO1","","null","<img src=""img/food3.png"" style=""width:200px; border:14px solid green;"">","null","","","",""
"","image-keyboard-response","231","147979","0.0-231.0","39RP059MEIF91SRSL0O576S7TICBM6","A10JXOU89D5RXR","39WSF6KUV27TMEQUH506BZR9N6KEO1","","680.7000000476837","img/food5.png","76","681.5","76","0",""
"","html-keyboard-response","232","148281","0.0-232.0","39RP059MEIF91SRSL0O576S7TICBM6","A10JXOU89D5RXR","39WSF6KUV27TMEQUH506BZR9N6KEO1","","null","<img src=""img/food5.png"" style=""width:200px;border:14px solid red;"">","null","","","",""
"","image-keyboard-response","233","148691","0.0-233.0","39RP059MEIF91SRSL0O576S7TICBM6","A10JXOU89D5RXR","39WSF6KUV27TMEQUH506BZR9N6KEO1","","408.5999999642372","img/food5.png","76","409.5","76","0",""
"","html-keyboard-response","234","148992","0.0-234.0","39RP059MEIF91SRSL0O576S7TICBM6","A10JXOU89D5RXR","39WSF6KUV27TMEQUH506BZR9N6KEO1","","null","<img src=""img/food5.png"" style=""width:200px;border:14px solid red;"">","null","","","",""
"","image-keyboard-response","235","150155","0.0-235.0","39RP059MEIF91SRSL0O576S7TICBM6","A10JXOU89D5RXR","39WSF6KUV27TMEQUH506BZR9N6KEO1","","1162.199999988079","img/food1.png","76","1163.199999988079","76","0",""
"","html-keyboard-response","236","150457","0.0-236.0","39RP059MEIF91SRSL0O576S7TICBM6","A10JXOU89D5RXR","39WSF6KUV27TMEQUH506BZR9N6KEO1","","null","<img src=""img/food1.png"" style=""width:200px;border:14px solid red;"">","null","","","",""
"","image-keyboard-response","237","151274","0.0-237.0","39RP059MEIF91SRSL0O576S7TICBM6","A10JXOU89D5RXR","39WSF6KUV27TMEQUH506BZR9N6KEO1","","816","img/food5.png","76","816.8000000119209","76","0",""
"","html-keyboard-response","238","151576","0.0-238.0","39RP059MEIF91SRSL0O576S7TICBM6","A10JXOU89D5RXR","39WSF6KUV27TMEQUH506BZR9N6KEO1","","null","<img src=""img/food5.png"" style=""width:200px;border:14px solid red;"">","null","","","",""
"","image-keyboard-response","239","152258","0.0-239.0","39RP059MEIF91SRSL0O576S7TICBM6","A10JXOU89D5RXR","39WSF6KUV27TMEQUH506BZR9N6KEO1","","681.7000000476837","img/food5.png","76","682.5","76","0",""
"","html-keyboard-response","240","152560","0.0-240.0","39RP059MEIF91SRSL0O576S7TICBM6","A10JXOU89D5RXR","39WSF6KUV27TMEQUH506BZR9N6KEO1","","null","<img src=""img/food5.png"" style=""width:200px;border:14px solid red;"">","null","","","",""
"","image-keyboard-response","241","153667","0.0-241.0","39RP059MEIF91SRSL0O576S7TICBM6","A10JXOU89D5RXR","39WSF6KUV27TMEQUH506BZR9N6KEO1","","1106","img/food3.png","75","1106.7999999523163","75","1",""
"","html-keyboard-response","242","153968","0.0-242.0","39RP059MEIF91SRSL0O576S7TICBM6","A10JXOU89D5RXR","39WSF6KUV27TMEQUH506BZR9N6KEO1","","null","<img src=""img/food3.png"" style=""width:200px; border:14px solid green;"">","null","","","",""
"","image-keyboard-response","243","154411","0.0-243.0","39RP059MEIF91SRSL0O576S7TICBM6","A10JXOU89D5RXR","39WSF6KUV27TMEQUH506BZR9N6KEO1","","441.80000001192093","img/food3.png","75","442.5","75","1",""
"","html-keyboard-response","244","154713","0.0-244.0","39RP059MEIF91SRSL0O576S7TICBM6","A10JXOU89D5RXR","39WSF6KUV27TMEQUH506BZR9N6KEO1","","null","<img src=""img/food3.png"" style=""width:200px; border:14px solid green;"">","null","","","",""
"","image-keyboard-response","245","155930","0.0-245.0","39RP059MEIF91SRSL0O576S7TICBM6","A10JXOU89D5RXR","39WSF6KUV27TMEQUH506BZR9N6KEO1","","1216.3999999761581","img/food5.png","76","1217.199999988079","76","0",""
"","html-keyboard-response","246","156233","0.0-246.0","39RP059MEIF91SRSL0O576S7TICBM6","A10JXOU89D5RXR","39WSF6KUV27TMEQUH506BZR9N6KEO1","","null","<img src=""img/food5.png"" style=""width:200px;border:14px solid red;"">","null","","","",""
"","image-keyboard-response","247","157282","0.0-247.0","39RP059MEIF91SRSL0O576S7TICBM6","A10JXOU89D5RXR","39WSF6KUV27TMEQUH506BZR9N6KEO1","","1048.7000000476837","img/food1.png","74","1049.5","74","1",""
"","html-keyboard-response","248","157584","0.0-248.0","39RP059MEIF91SRSL0O576S7TICBM6","A10JXOU89D5RXR","39WSF6KUV27TMEQUH506BZR9N6KEO1","","null","<img src=""img/food1.png"" style=""width:200px; border:14px solid green;"">","null","","","",""
"","image-keyboard-response","249","158747","0.0-249.0","39RP059MEIF91SRSL0O576S7TICBM6","A10JXOU89D5RXR","39WSF6KUV27TMEQUH506BZR9N6KEO1","","1162.1000000238419","img/food3.png","75","1163","75","1",""
"","html-keyboard-response","250","159048","0.0-250.0","39RP059MEIF91SRSL0O576S7TICBM6","A10JXOU89D5RXR","39WSF6KUV27TMEQUH506BZR9N6KEO1","","null","<img src=""img/food3.png"" style=""width:200px; border:14px solid green;"">","null","","","",""
"","image-keyboard-response","251","159851","0.0-251.0","39RP059MEIF91SRSL0O576S7TICBM6","A10JXOU89D5RXR","39WSF6KUV27TMEQUH506BZR9N6KEO1","","801.5","img/food5.png","74","802.3999999761581","74","0",""
"","html-keyboard-response","252","160153","0.0-252.0","39RP059MEIF91SRSL0O576S7TICBM6","A10JXOU89D5RXR","39WSF6KUV27TMEQUH506BZR9N6KEO1","","null","<img src=""img/food5.png"" style=""width:200px;border:14px solid red;"">","null","","","",""
"","image-keyboard-response","253","161178","0.0-253.0","39RP059MEIF91SRSL0O576S7TICBM6","A10JXOU89D5RXR","39WSF6KUV27TMEQUH506BZR9N6KEO1","","1024.5999999642372","img/food3.png","75","1025.3999999761581","75","0",""
"","html-keyboard-response","254","161483","0.0-254.0","39RP059MEIF91SRSL0O576S7TICBM6","A10JXOU89D5RXR","39WSF6KUV27TMEQUH506BZR9N6KEO1","","null","<img src=""img/food3.png"" style=""width:200px;border:14px solid red;"">","null","","","",""
"","image-keyboard-response","255","161898","0.0-255.0","39RP059MEIF91SRSL0O576S7TICBM6","A10JXOU89D5RXR","39WSF6KUV27TMEQUH506BZR9N6KEO1","","414.10000002384186","img/food3.png","75","415.30000001192093","75","0",""
"","html-keyboard-response","256","162200","0.0-256.0","39RP059MEIF91SRSL0O576S7TICBM6","A10JXOU89D5RXR","39WSF6KUV27TMEQUH506BZR9N6KEO1","","null","<img src=""img/food3.png"" style=""width:200px;border:14px solid red;"">","null","","","",""
"","image-keyboard-response","257","162995","0.0-257.0","39RP059MEIF91SRSL0O576S7TICBM6","A10JXOU89D5RXR","39WSF6KUV27TMEQUH506BZR9N6KEO1","","794.5","img/food5.png","76","795.2000000476837","76","0",""
"","html-keyboard-response","258","163298","0.0-258.0","39RP059MEIF91SRSL0O576S7TICBM6","A10JXOU89D5RXR","39WSF6KUV27TMEQUH506BZR9N6KEO1","","null","<img src=""img/food5.png"" style=""width:200px;border:14px solid red;"">","null","","","",""
"","image-keyboard-response","259","164043","0.0-259.0","39RP059MEIF91SRSL0O576S7TICBM6","A10JXOU89D5RXR","39WSF6KUV27TMEQUH506BZR9N6KEO1","","744","img/food1.png","74","744.9000000357628","74","1",""
"","html-keyboard-response","260","164344","0.0-260.0","39RP059MEIF91SRSL0O576S7TICBM6","A10JXOU89D5RXR","39WSF6KUV27TMEQUH506BZR9N6KEO1","","null","<img src=""img/food1.png"" style=""width:200px; border:14px solid green;"">","null","","","",""
"","image-keyboard-response","261","164802","0.0-261.0","39RP059MEIF91SRSL0O576S7TICBM6","A10JXOU89D5RXR","39WSF6KUV27TMEQUH506BZR9N6KEO1","","457","img/food1.png","74","457.89999997615814","74","0",""
"","html-keyboard-response","262","165104","0.0-262.0","39RP059MEIF91SRSL0O576S7TICBM6","A10JXOU89D5RXR","39WSF6KUV27TMEQUH506BZR9N6KEO1","","null","<img src=""img/food1.png"" style=""width:200px;border:14px solid red;"">","null","","","",""
"","image-keyboard-response","263","166194","0.0-263.0","39RP059MEIF91SRSL0O576S7TICBM6","A10JXOU89D5RXR","39WSF6KUV27TMEQUH506BZR9N6KEO1","","1089.5999999642372","img/food3.png","75","1090.5","75","1",""
"","html-keyboard-response","264","166497","0.0-264.0","39RP059MEIF91SRSL0O576S7TICBM6","A10JXOU89D5RXR","39WSF6KUV27TMEQUH506BZR9N6KEO1","","null","<img src=""img/food3.png"" style=""width:200px; border:14px solid green;"">","null","","","",""
"","image-keyboard-response","265","167179","0.0-265.0","39RP059MEIF91SRSL0O576S7TICBM6","A10JXOU89D5RXR","39WSF6KUV27TMEQUH506BZR9N6KEO1","","681.3999999761581","img/food1.png","74","682.1999999880791","74","1",""
"","html-keyboard-response","266","167481","0.0-266.0","39RP059MEIF91SRSL0O576S7TICBM6","A10JXOU89D5RXR","39WSF6KUV27TMEQUH506BZR9N6KEO1","","null","<img src=""img/food1.png"" style=""width:200px; border:14px solid green;"">","null","","","",""
"","image-keyboard-response","267","167962","0.0-267.0","39RP059MEIF91SRSL0O576S7TICBM6","A10JXOU89D5RXR","39WSF6KUV27TMEQUH506BZR9N6KEO1","","479.5","img/food1.png","74","480.30000001192093","74","1",""
"","html-keyboard-response","268","168264","0.0-268.0","39RP059MEIF91SRSL0O576S7TICBM6","A10JXOU89D5RXR","39WSF6KUV27TMEQUH506BZR9N6KEO1","","null","<img src=""img/food1.png"" style=""width:200px; border:14px solid green;"">","null","","","",""
"","image-keyboard-response","269","168610","0.0-269.0","39RP059MEIF91SRSL0O576S7TICBM6","A10JXOU89D5RXR","39WSF6KUV27TMEQUH506BZR9N6KEO1","","345.30000001192093","img/food1.png","74","346.19999998807907","74","1",""
"","html-keyboard-response","270","168912","0.0-270.0","39RP059MEIF91SRSL0O576S7TICBM6","A10JXOU89D5RXR","39WSF6KUV27TMEQUH506BZR9N6KEO1","","null","<img src=""img/food1.png"" style=""width:200px; border:14px solid green;"">","null","","","",""
"","image-keyboard-response","271","169259","0.0-271.0","39RP059MEIF91SRSL0O576S7TICBM6","A10JXOU89D5RXR","39WSF6KUV27TMEQUH506BZR9N6KEO1","","346","img/food1.png","74","346.80000001192093","74","1",""
"","html-keyboard-response","272","169562","0.0-272.0","39RP059MEIF91SRSL0O576S7TICBM6","A10JXOU89D5RXR","39WSF6KUV27TMEQUH506BZR9N6KEO1","","null","<img src=""img/food1.png"" style=""width:200px; border:14px solid green;"">","null","","","",""
"","image-keyboard-response","273","169923","0.0-273.0","39RP059MEIF91SRSL0O576S7TICBM6","A10JXOU89D5RXR","39WSF6KUV27TMEQUH506BZR9N6KEO1","","360.80000001192093","img/food1.png","74","361.9000000357628","74","1",""
"","html-keyboard-response","274","170226","0.0-274.0","39RP059MEIF91SRSL0O576S7TICBM6","A10JXOU89D5RXR","39WSF6KUV27TMEQUH506BZR9N6KEO1","","null","<img src=""img/food1.png"" style=""width:200px; border:14px solid green;"">","null","","","",""
"","image-keyboard-response","275","171019","0.0-275.0","39RP059MEIF91SRSL0O576S7TICBM6","A10JXOU89D5RXR","39WSF6KUV27TMEQUH506BZR9N6KEO1","","791.3999999761581","img/food3.png","75","792.6000000238419","75","1",""
"","html-keyboard-response","276","171321","0.0-276.0","39RP059MEIF91SRSL0O576S7TICBM6","A10JXOU89D5RXR","39WSF6KUV27TMEQUH506BZR9N6KEO1","","null","<img src=""img/food3.png"" style=""width:200px; border:14px solid green;"">","null","","","",""
"","image-keyboard-response","277","172012","0.0-277.0","39RP059MEIF91SRSL0O576S7TICBM6","A10JXOU89D5RXR","39WSF6KUV27TMEQUH506BZR9N6KEO1","","690","img/food5.png","76","690.8999999761581","76","0",""
"","html-keyboard-response","278","172314","0.0-278.0","39RP059MEIF91SRSL0O576S7TICBM6","A10JXOU89D5RXR","39WSF6KUV27TMEQUH506BZR9N6KEO1","","null","<img src=""img/food5.png"" style=""width:200px;border:14px solid red;"">","null","","","",""
"","image-keyboard-response","279","172922","0.0-279.0","39RP059MEIF91SRSL0O576S7TICBM6","A10JXOU89D5RXR","39WSF6KUV27TMEQUH506BZR9N6KEO1","","607.0999999642372","img/food3.png","75","607.8999999761581","75","1",""
"","html-keyboard-response","280","173224","0.0-280.0","39RP059MEIF91SRSL0O576S7TICBM6","A10JXOU89D5RXR","39WSF6KUV27TMEQUH506BZR9N6KEO1","","null","<img src=""img/food3.png"" style=""width:200px; border:14px solid green;"">","null","","","",""
"","image-keyboard-response","281","173651","0.0-281.0","39RP059MEIF91SRSL0O576S7TICBM6","A10JXOU89D5RXR","39WSF6KUV27TMEQUH506BZR9N6KEO1","","425.19999998807907","img/food1.png","75","426","75","0",""
"","html-keyboard-response","282","173952","0.0-282.0","39RP059MEIF91SRSL0O576S7TICBM6","A10JXOU89D5RXR","39WSF6KUV27TMEQUH506BZR9N6KEO1","","null","<img src=""img/food1.png"" style=""width:200px;border:14px solid red;"">","null","","","",""
"","image-keyboard-response","283","175131","0.0-283.0","39RP059MEIF91SRSL0O576S7TICBM6","A10JXOU89D5RXR","39WSF6KUV27TMEQUH506BZR9N6KEO1","","1178","img/food5.png","75","1179","75","1",""
"","html-keyboard-response","284","175434","0.0-284.0","39RP059MEIF91SRSL0O576S7TICBM6","A10JXOU89D5RXR","39WSF6KUV27TMEQUH506BZR9N6KEO1","","null","<img src=""img/food5.png"" style=""width:200px; border:14px solid green;"">","null","","","",""
"","image-keyboard-response","285","175795","0.0-285.0","39RP059MEIF91SRSL0O576S7TICBM6","A10JXOU89D5RXR","39WSF6KUV27TMEQUH506BZR9N6KEO1","","360.30000001192093","img/food5.png","75","361.19999998807907","75","1",""
"","html-keyboard-response","286","176097","0.0-286.0","39RP059MEIF91SRSL0O576S7TICBM6","A10JXOU89D5RXR","39WSF6KUV27TMEQUH506BZR9N6KEO1","","null","<img src=""img/food5.png"" style=""width:200px; border:14px solid green;"">","null","","","",""
"","image-keyboard-response","287","177067","0.0-287.0","39RP059MEIF91SRSL0O576S7TICBM6","A10JXOU89D5RXR","39WSF6KUV27TMEQUH506BZR9N6KEO1","","968.5","img/food1.png","74","969.5","74","0",""
"","html-keyboard-response","288","177369","0.0-288.0","39RP059MEIF91SRSL0O576S7TICBM6","A10JXOU89D5RXR","39WSF6KUV27TMEQUH506BZR9N6KEO1","","null","<img src=""img/food1.png"" style=""width:200px;border:14px solid red;"">","null","","","",""
"","image-keyboard-response","289","178683","0.0-289.0","39RP059MEIF91SRSL0O576S7TICBM6","A10JXOU89D5RXR","39WSF6KUV27TMEQUH506BZR9N6KEO1","","1313.1000000238419","img/food3.png","76","1313.800000011921","76","0",""
"","html-keyboard-response","290","178984","0.0-290.0","39RP059MEIF91SRSL0O576S7TICBM6","A10JXOU89D5RXR","39WSF6KUV27TMEQUH506BZR9N6KEO1","","null","<img src=""img/food3.png"" style=""width:200px;border:14px solid red;"">","null","","","",""
"","image-keyboard-response","291","179739","0.0-291.0","39RP059MEIF91SRSL0O576S7TICBM6","A10JXOU89D5RXR","39WSF6KUV27TMEQUH506BZR9N6KEO1","","753.5","img/food1.png","74","754.2999999523163","74","1",""
"","html-keyboard-response","292","180040","0.0-292.0","39RP059MEIF91SRSL0O576S7TICBM6","A10JXOU89D5RXR","39WSF6KUV27TMEQUH506BZR9N6KEO1","","null","<img src=""img/food1.png"" style=""width:200px; border:14px solid green;"">","null","","","",""
"","image-keyboard-response","293","181010","0.0-293.0","39RP059MEIF91SRSL0O576S7TICBM6","A10JXOU89D5RXR","39WSF6KUV27TMEQUH506BZR9N6KEO1","","969.3000000119209","img/food5.png","76","970","76","0",""
"","html-keyboard-response","294","181312","0.0-294.0","39RP059MEIF91SRSL0O576S7TICBM6","A10JXOU89D5RXR","39WSF6KUV27TMEQUH506BZR9N6KEO1","","null","<img src=""img/food5.png"" style=""width:200px;border:14px solid red;"">","null","","","",""
"","image-keyboard-response","295","181786","0.0-295.0","39RP059MEIF91SRSL0O576S7TICBM6","A10JXOU89D5RXR","39WSF6KUV27TMEQUH506BZR9N6KEO1","","473.2000000476837","img/food5.png","75","474.10000002384186","75","0",""
"","html-keyboard-response","296","182089","0.0-296.0","39RP059MEIF91SRSL0O576S7TICBM6","A10JXOU89D5RXR","39WSF6KUV27TMEQUH506BZR9N6KEO1","","null","<img src=""img/food5.png"" style=""width:200px;border:14px solid red;"">","null","","","",""
"","image-keyboard-response","297","182803","0.0-297.0","39RP059MEIF91SRSL0O576S7TICBM6","A10JXOU89D5RXR","39WSF6KUV27TMEQUH506BZR9N6KEO1","","712.8000000119209","img/food1.png","74","713.8000000119209","74","1",""
"","html-keyboard-response","298","183104","0.0-298.0","39RP059MEIF91SRSL0O576S7TICBM6","A10JXOU89D5RXR","39WSF6KUV27TMEQUH506BZR9N6KEO1","","null","<img src=""img/food1.png"" style=""width:200px; border:14px solid green;"">","null","","","",""
"","image-keyboard-response","299","183882","0.0-299.0","39RP059MEIF91SRSL0O576S7TICBM6","A10JXOU89D5RXR","39WSF6KUV27TMEQUH506BZR9N6KEO1","","777","img/food3.png","76","777.7999999523163","76","0",""
"","html-keyboard-response","300","184184","0.0-300.0","39RP059MEIF91SRSL0O576S7TICBM6","A10JXOU89D5RXR","39WSF6KUV27TMEQUH506BZR9N6KEO1","","null","<img src=""img/food3.png"" style=""width:200px;border:14px solid red;"">","null","","","",""
"","image-keyboard-response","301","184867","0.0-301.0","39RP059MEIF91SRSL0O576S7TICBM6","A10JXOU89D5RXR","39WSF6KUV27TMEQUH506BZR9N6KEO1","","681.3999999761581","img/food1.png","74","682.3000000119209","74","0",""
"","html-keyboard-response","302","185168","0.0-302.0","39RP059MEIF91SRSL0O576S7TICBM6","A10JXOU89D5RXR","39WSF6KUV27TMEQUH506BZR9N6KEO1","","null","<img src=""img/food1.png"" style=""width:200px;border:14px solid red;"">","null","","","",""
"","image-keyboard-response","303","186603","0.0-303.0","39RP059MEIF91SRSL0O576S7TICBM6","A10JXOU89D5RXR","39WSF6KUV27TMEQUH506BZR9N6KEO1","","1433.300000011921","img/food3.png","75","1434.300000011921","75","1",""
"","html-keyboard-response","304","186905","0.0-304.0","39RP059MEIF91SRSL0O576S7TICBM6","A10JXOU89D5RXR","39WSF6KUV27TMEQUH506BZR9N6KEO1","","null","<img src=""img/food3.png"" style=""width:200px; border:14px solid green;"">","null","","","",""
"","image-keyboard-response","305","187610","0.0-305.0","39RP059MEIF91SRSL0O576S7TICBM6","A10JXOU89D5RXR","39WSF6KUV27TMEQUH506BZR9N6KEO1","","704","img/food5.png","76","705","76","0",""
"","html-keyboard-response","306","187912","0.0-306.0","39RP059MEIF91SRSL0O576S7TICBM6","A10JXOU89D5RXR","39WSF6KUV27TMEQUH506BZR9N6KEO1","","null","<img src=""img/food5.png"" style=""width:200px;border:14px solid red;"">","null","","","",""
"","image-keyboard-response","307","188923","0.0-307.0","39RP059MEIF91SRSL0O576S7TICBM6","A10JXOU89D5RXR","39WSF6KUV27TMEQUH506BZR9N6KEO1","","1010.1999999880791","img/food3.png","75","1011","75","1",""
"","html-keyboard-response","308","189224","0.0-308.0","39RP059MEIF91SRSL0O576S7TICBM6","A10JXOU89D5RXR","39WSF6KUV27TMEQUH506BZR9N6KEO1","","null","<img src=""img/food3.png"" style=""width:200px; border:14px solid green;"">","null","","","",""
"","image-keyboard-response","309","189602","0.0-309.0","39RP059MEIF91SRSL0O576S7TICBM6","A10JXOU89D5RXR","39WSF6KUV27TMEQUH506BZR9N6KEO1","","377.0999999642372","img/food3.png","75","377.80000001192093","75","1",""
"","html-keyboard-response","310","189904","0.0-310.0","39RP059MEIF91SRSL0O576S7TICBM6","A10JXOU89D5RXR","39WSF6KUV27TMEQUH506BZR9N6KEO1","","null","<img src=""img/food3.png"" style=""width:200px; border:14px solid green;"">","null","","","",""
"","image-keyboard-response","311","190546","0.0-311.0","39RP059MEIF91SRSL0O576S7TICBM6","A10JXOU89D5RXR","39WSF6KUV27TMEQUH506BZR9N6KEO1","","641.1999999880791","img/food1.png","74","642","74","1",""
"","html-keyboard-response","312","190847","0.0-312.0","39RP059MEIF91SRSL0O576S7TICBM6","A10JXOU89D5RXR","39WSF6KUV27TMEQUH506BZR9N6KEO1","","null","<img src=""img/food1.png"" style=""width:200px; border:14px solid green;"">","null","","","",""
"","image-keyboard-response","313","191227","0.0-313.0","39RP059MEIF91SRSL0O576S7TICBM6","A10JXOU89D5RXR","39WSF6KUV27TMEQUH506BZR9N6KEO1","","378.30000001192093","img/food1.png","74","379.19999998807907","74","1",""
"","html-keyboard-response","314","191528","0.0-314.0","39RP059MEIF91SRSL0O576S7TICBM6","A10JXOU89D5RXR","39WSF6KUV27TMEQUH506BZR9N6KEO1","","null","<img src=""img/food1.png"" style=""width:200px; border:14px solid green;"">","null","","","",""
"","image-keyboard-response","315","192308","0.0-315.0","39RP059MEIF91SRSL0O576S7TICBM6","A10JXOU89D5RXR","39WSF6KUV27TMEQUH506BZR9N6KEO1","","777.3999999761581","img/food5.png","76","778.3000000119209","76","0",""
"","html-keyboard-response","316","192610","0.0-316.0","39RP059MEIF91SRSL0O576S7TICBM6","A10JXOU89D5RXR","39WSF6KUV27TMEQUH506BZR9N6KEO1","","null","<img src=""img/food5.png"" style=""width:200px;border:14px solid red;"">","null","","","",""
"","image-keyboard-response","317","193548","0.0-317.0","39RP059MEIF91SRSL0O576S7TICBM6","A10JXOU89D5RXR","39WSF6KUV27TMEQUH506BZR9N6KEO1","","937.1999999880791","img/food3.png","74","938.8000000119209","74","1",""
"","html-keyboard-response","318","193852","0.0-318.0","39RP059MEIF91SRSL0O576S7TICBM6","A10JXOU89D5RXR","39WSF6KUV27TMEQUH506BZR9N6KEO1","","null","<img src=""img/food3.png"" style=""width:200px; border:14px solid green;"">","null","","","",""
"","image-keyboard-response","319","195452","0.0-319.0","39RP059MEIF91SRSL0O576S7TICBM6","A10JXOU89D5RXR","39WSF6KUV27TMEQUH506BZR9N6KEO1","","1598.6000000238419","img/food1.png","74","1599.3999999761581","74","1",""
"","html-keyboard-response","320","195754","0.0-320.0","39RP059MEIF91SRSL0O576S7TICBM6","A10JXOU89D5RXR","39WSF6KUV27TMEQUH506BZR9N6KEO1","","null","<img src=""img/food1.png"" style=""width:200px; border:14px solid green;"">","null","","","",""
"","image-keyboard-response","321","196276","0.0-321.0","39RP059MEIF91SRSL0O576S7TICBM6","A10JXOU89D5RXR","39WSF6KUV27TMEQUH506BZR9N6KEO1","","520.8999999761581","img/food3.png","75","521.8000000119209","75","1",""
"","html-keyboard-response","322","196577","0.0-322.0","39RP059MEIF91SRSL0O576S7TICBM6","A10JXOU89D5RXR","39WSF6KUV27TMEQUH506BZR9N6KEO1","","null","<img src=""img/food3.png"" style=""width:200px; border:14px solid green;"">","null","","","",""
"","image-keyboard-response","323","197235","0.0-323.0","39RP059MEIF91SRSL0O576S7TICBM6","A10JXOU89D5RXR","39WSF6KUV27TMEQUH506BZR9N6KEO1","","657.0999999642372","img/food5.png","76","658.1000000238419","76","0",""
"","html-keyboard-response","324","197537","0.0-324.0","39RP059MEIF91SRSL0O576S7TICBM6","A10JXOU89D5RXR","39WSF6KUV27TMEQUH506BZR9N6KEO1","","null","<img src=""img/food5.png"" style=""width:200px;border:14px solid red;"">","null","","","",""
"","image-keyboard-response","325","198325","0.0-325.0","39RP059MEIF91SRSL0O576S7TICBM6","A10JXOU89D5RXR","39WSF6KUV27TMEQUH506BZR9N6KEO1","","786.3000000119209","img/food5.png","76","787.3000000119209","76","0",""
"","html-keyboard-response","326","198626","0.0-326.0","39RP059MEIF91SRSL0O576S7TICBM6","A10JXOU89D5RXR","39WSF6KUV27TMEQUH506BZR9N6KEO1","","null","<img src=""img/food5.png"" style=""width:200px;border:14px solid red;"">","null","","","",""
"","image-keyboard-response","327","199452","0.0-327.0","39RP059MEIF91SRSL0O576S7TICBM6","A10JXOU89D5RXR","39WSF6KUV27TMEQUH506BZR9N6KEO1","","825.0999999642372","img/food1.png","74","826.0999999642372","74","1",""
"","html-keyboard-response","328","199754","0.0-328.0","39RP059MEIF91SRSL0O576S7TICBM6","A10JXOU89D5RXR","39WSF6KUV27TMEQUH506BZR9N6KEO1","","null","<img src=""img/food1.png"" style=""width:200px; border:14px solid green;"">","null","","","",""
"","image-keyboard-response","329","200388","0.0-329.0","39RP059MEIF91SRSL0O576S7TICBM6","A10JXOU89D5RXR","39WSF6KUV27TMEQUH506BZR9N6KEO1","","632.7000000476837","img/food3.png","75","633.3999999761581","75","1",""
"","html-keyboard-response","330","200690","0.0-330.0","39RP059MEIF91SRSL0O576S7TICBM6","A10JXOU89D5RXR","39WSF6KUV27TMEQUH506BZR9N6KEO1","","null","<img src=""img/food3.png"" style=""width:200px; border:14px solid green;"">","null","","","",""
"","image-keyboard-response","331","202068","0.0-331.0","39RP059MEIF91SRSL0O576S7TICBM6","A10JXOU89D5RXR","39WSF6KUV27TMEQUH506BZR9N6KEO1","","1377.3999999761581","img/food1.png","74","1378.1000000238419","74","1",""
"","html-keyboard-response","332","202370","0.0-332.0","39RP059MEIF91SRSL0O576S7TICBM6","A10JXOU89D5RXR","39WSF6KUV27TMEQUH506BZR9N6KEO1","","null","<img src=""img/food1.png"" style=""width:200px; border:14px solid green;"">","null","","","",""
"","image-keyboard-response","333","203540","0.0-333.0","39RP059MEIF91SRSL0O576S7TICBM6","A10JXOU89D5RXR","39WSF6KUV27TMEQUH506BZR9N6KEO1","","1168.199999988079","img/food5.png","74","1169.199999988079","74","1",""
"","html-keyboard-response","334","203842","0.0-334.0","39RP059MEIF91SRSL0O576S7TICBM6","A10JXOU89D5RXR","39WSF6KUV27TMEQUH506BZR9N6KEO1","","null","<img src=""img/food5.png"" style=""width:200px; border:14px solid green;"">","null","","","",""
"","image-keyboard-response","335","204541","0.0-335.0","39RP059MEIF91SRSL0O576S7TICBM6","A10JXOU89D5RXR","39WSF6KUV27TMEQUH506BZR9N6KEO1","","697.4000000357628","img/food5.png","74","698.5999999642372","74","0",""
"","html-keyboard-response","336","204843","0.0-336.0","39RP059MEIF91SRSL0O576S7TICBM6","A10JXOU89D5RXR","39WSF6KUV27TMEQUH506BZR9N6KEO1","","null","<img src=""img/food5.png"" style=""width:200px;border:14px solid red;"">","null","","","",""
"","image-keyboard-response","337","205708","0.0-337.0","39RP059MEIF91SRSL0O576S7TICBM6","A10JXOU89D5RXR","39WSF6KUV27TMEQUH506BZR9N6KEO1","","863.6999999880791","img/food5.png","74","864.5","74","1",""
"","html-keyboard-response","338","206009","0.0-338.0","39RP059MEIF91SRSL0O576S7TICBM6","A10JXOU89D5RXR","39WSF6KUV27TMEQUH506BZR9N6KEO1","","null","<img src=""img/food5.png"" style=""width:200px; border:14px solid green;"">","null","","","",""
"","image-keyboard-response","339","206948","0.0-339.0","39RP059MEIF91SRSL0O576S7TICBM6","A10JXOU89D5RXR","39WSF6KUV27TMEQUH506BZR9N6KEO1","","937.7999999523163","img/food5.png","74","938.5","74","1",""
"","html-keyboard-response","340","207250","0.0-340.0","39RP059MEIF91SRSL0O576S7TICBM6","A10JXOU89D5RXR","39WSF6KUV27TMEQUH506BZR9N6KEO1","","null","<img src=""img/food5.png"" style=""width:200px; border:14px solid green;"">","null","","","",""
"","image-keyboard-response","341","208796","0.0-341.0","39RP059MEIF91SRSL0O576S7TICBM6","A10JXOU89D5RXR","39WSF6KUV27TMEQUH506BZR9N6KEO1","","1545","img/food3.png","75","1545.800000011921","75","1",""
"","html-keyboard-response","342","209098","0.0-342.0","39RP059MEIF91SRSL0O576S7TICBM6","A10JXOU89D5RXR","39WSF6KUV27TMEQUH506BZR9N6KEO1","","null","<img src=""img/food3.png"" style=""width:200px; border:14px solid green;"">","null","","","",""
"","image-keyboard-response","343","209452","0.0-343.0","39RP059MEIF91SRSL0O576S7TICBM6","A10JXOU89D5RXR","39WSF6KUV27TMEQUH506BZR9N6KEO1","","352.89999997615814","img/food3.png","75","353.69999998807907","75","1",""
"","html-keyboard-response","344","209753","0.0-344.0","39RP059MEIF91SRSL0O576S7TICBM6","A10JXOU89D5RXR","39WSF6KUV27TMEQUH506BZR9N6KEO1","","null","<img src=""img/food3.png"" style=""width:200px; border:14px solid green;"">","null","","","",""
"","image-keyboard-response","345","210124","0.0-345.0","39RP059MEIF91SRSL0O576S7TICBM6","A10JXOU89D5RXR","39WSF6KUV27TMEQUH506BZR9N6KEO1","","369.2000000476837","img/food3.png","75","370.0999999642372","75","1",""
"","html-keyboard-response","346","210425","0.0-346.0","39RP059MEIF91SRSL0O576S7TICBM6","A10JXOU89D5RXR","39WSF6KUV27TMEQUH506BZR9N6KEO1","","null","<img src=""img/food3.png"" style=""width:200px; border:14px solid green;"">","null","","","",""
"","image-keyboard-response","347","211156","0.0-347.0","39RP059MEIF91SRSL0O576S7TICBM6","A10JXOU89D5RXR","39WSF6KUV27TMEQUH506BZR9N6KEO1","","728.8000000119209","img/food1.png","76","729.9000000357628","76","0",""
"","html-keyboard-response","348","211457","0.0-348.0","39RP059MEIF91SRSL0O576S7TICBM6","A10JXOU89D5RXR","39WSF6KUV27TMEQUH506BZR9N6KEO1","","null","<img src=""img/food1.png"" style=""width:200px;border:14px solid red;"">","null","","","",""
"","image-keyboard-response","349","211772","0.0-349.0","39RP059MEIF91SRSL0O576S7TICBM6","A10JXOU89D5RXR","39WSF6KUV27TMEQUH506BZR9N6KEO1","","311.5","img/food5.png","76","312.7000000476837","76","0",""
"","html-keyboard-response","350","212074","0.0-350.0","39RP059MEIF91SRSL0O576S7TICBM6","A10JXOU89D5RXR","39WSF6KUV27TMEQUH506BZR9N6KEO1","","null","<img src=""img/food5.png"" style=""width:200px;border:14px solid red;"">","null","","","",""
"","image-keyboard-response","351","215621","0.0-351.0","39RP059MEIF91SRSL0O576S7TICBM6","A10JXOU89D5RXR","39WSF6KUV27TMEQUH506BZR9N6KEO1","","3546.100000023842","img/food3.png","75","3547","75","1",""
"","html-keyboard-response","352","215923","0.0-352.0","39RP059MEIF91SRSL0O576S7TICBM6","A10JXOU89D5RXR","39WSF6KUV27TMEQUH506BZR9N6KEO1","","null","<img src=""img/food3.png"" style=""width:200px; border:14px solid green;"">","null","","","",""
"","image-keyboard-response","353","217236","0.0-353.0","39RP059MEIF91SRSL0O576S7TICBM6","A10JXOU89D5RXR","39WSF6KUV27TMEQUH506BZR9N6KEO1","","1311.300000011921","img/food5.png","74","1312.2000000476837","74","1",""
"","html-keyboard-response","354","217538","0.0-354.0","39RP059MEIF91SRSL0O576S7TICBM6","A10JXOU89D5RXR","39WSF6KUV27TMEQUH506BZR9N6KEO1","","null","<img src=""img/food5.png"" style=""width:200px; border:14px solid green;"">","null","","","",""
"","image-keyboard-response","355","218372","0.0-355.0","39RP059MEIF91SRSL0O576S7TICBM6","A10JXOU89D5RXR","39WSF6KUV27TMEQUH506BZR9N6KEO1","","832.5999999642372","img/food3.png","75","833.5","75","1",""
"","html-keyboard-response","356","218674","0.0-356.0","39RP059MEIF91SRSL0O576S7TICBM6","A10JXOU89D5RXR","39WSF6KUV27TMEQUH506BZR9N6KEO1","","null","<img src=""img/food3.png"" style=""width:200px; border:14px solid green;"">","null","","","",""
"","image-keyboard-response","357","219436","0.0-357.0","39RP059MEIF91SRSL0O576S7TICBM6","A10JXOU89D5RXR","39WSF6KUV27TMEQUH506BZR9N6KEO1","","761.2999999523163","img/food1.png","76","762.2999999523163","76","1",""
"","html-keyboard-response","358","219738","0.0-358.0","39RP059MEIF91SRSL0O576S7TICBM6","A10JXOU89D5RXR","39WSF6KUV27TMEQUH506BZR9N6KEO1","","null","<img src=""img/food1.png"" style=""width:200px; border:14px solid green;"">","null","","","",""
"","image-keyboard-response","359","222100","0.0-359.0","39RP059MEIF91SRSL0O576S7TICBM6","A10JXOU89D5RXR","39WSF6KUV27TMEQUH506BZR9N6KEO1","","2360.600000023842","img/food3.png","75","2361.400000035763","75","1",""
"","html-keyboard-response","360","222402","0.0-360.0","39RP059MEIF91SRSL0O576S7TICBM6","A10JXOU89D5RXR","39WSF6KUV27TMEQUH506BZR9N6KEO1","","null","<img src=""img/food3.png"" style=""width:200px; border:14px solid green;"">","null","","","",""
"","image-keyboard-response","361","224253","0.0-361.0","39RP059MEIF91SRSL0O576S7TICBM6","A10JXOU89D5RXR","39WSF6KUV27TMEQUH506BZR9N6KEO1","","1850.199999988079","img/food1.png","76","1851.300000011921","76","1",""
"","html-keyboard-response","362","224556","0.0-362.0","39RP059MEIF91SRSL0O576S7TICBM6","A10JXOU89D5RXR","39WSF6KUV27TMEQUH506BZR9N6KEO1","","null","<img src=""img/food1.png"" style=""width:200px; border:14px solid green;"">","null","","","",""
"","instructions","363","228146","0.0-363.0","39RP059MEIF91SRSL0O576S7TICBM6","A10JXOU89D5RXR","39WSF6KUV27TMEQUH506BZR9N6KEO1","[{""page_index"":0,""viewing_time"":3588.699999988079}]","3588.899999976158","","","","","",""
"","survey-text","364","231575","0.0-364.0","39RP059MEIF91SRSL0O576S7TICBM6","A10JXOU89D5RXR","39WSF6KUV27TMEQUH506BZR9N6KEO1","","3426.600000023842","","","","","","{""Q0"":""A10JXOU89D5RXR""}"
