"success","trial_type","trial_index","time_elapsed","internal_node_id","assignmentID","mturkID","hitID","view_history","rt","stimulus","key_press","reactionTime","a","r","s","cond","reward_cond","reward_cond_actual","reward_matrix_idx","warning","responses"
"true","fullscreen","0","5614","0.0-0.0","3YGXWBAF713C77USTWK4WWHPTWKC4K","A11JGMLOFFPV65","3UUIU9GZC5R93N292LT21FRJ9VS5TN","","","","","","","","","","","","","",""
"","instructions","1","49767","0.0-1.0","3YGXWBAF713C77USTWK4WWHPTWKC4K","A11JGMLOFFPV65","3UUIU9GZC5R93N292LT21FRJ9VS5TN","[{""page_index"":0,""viewing_time"":17549.30000001192},{""page_index"":1,""viewing_time"":3361.5999999940395},{""page_index"":2,""viewing_time"":1129.9000000059605},{""page_index"":3,""viewing_time"":13528.59999999404},{""page_index"":4,""viewing_time"":4500.9000000059605},{""page_index"":5,""viewing_time"":1440.199999988079},{""page_index"":6,""viewing_time"":2640}]","44151","","","","","","","","","","","",""
"","image-keyboard-response","2","51787","0.0-2.0","3YGXWBAF713C77USTWK4WWHPTWKC4K","A11JGMLOFFPV65","3UUIU9GZC5R93N292LT21FRJ9VS5TN","","2018.0999999940395","img/food6.png","76","2019.800000011921","3","0","1","1","1,0.5,0,1,0.5,0,0.5,0,1","0,1,0.5,0,1,0.5,1,0.5,0","3","",""
"","html-keyboard-response","3","52091","0.0-3.0","3YGXWBAF713C77USTWK4WWHPTWKC4K","A11JGMLOFFPV65","3UUIU9GZC5R93N292LT21FRJ9VS5TN","","null","<img src=""img/food6.png"" style=""width:200px;border:14px solid red;"">","null","","","","","","","","","",""
"","image-keyboard-response","4","52818","0.0-4.0","3YGXWBAF713C77USTWK4WWHPTWKC4K","A11JGMLOFFPV65","3UUIU9GZC5R93N292LT21FRJ9VS5TN","","726.4000000059605","img/food2.png","74","727.5999999940395","1","1","3","1","1,0.5,0,1,0.5,0,0.5,0,1","0,1,0.5,0,1,0.5,1,0.5,0","3","",""
"","html-keyboard-response","5","53121","0.0-5.0","3YGXWBAF713C77USTWK4WWHPTWKC4K","A11JGMLOFFPV65","3UUIU9GZC5R93N292LT21FRJ9VS5TN","","null","<img src=""img/food2.png"" style=""width:200px; border:14px solid green;"">","null","","","","","","","","","",""
"","image-keyboard-response","6","55035","0.0-6.0","3YGXWBAF713C77USTWK4WWHPTWKC4K","A11JGMLOFFPV65","3UUIU9GZC5R93N292LT21FRJ9VS5TN","","1912.300000011921","img/food2.png","74","1913.4000000059605","1","1","3","1","1,0.5,0,1,0.5,0,0.5,0,1","0,1,0.5,0,1,0.5,1,0.5,0","3","",""
"","html-keyboard-response","7","55338","0.0-7.0","3YGXWBAF713C77USTWK4WWHPTWKC4K","A11JGMLOFFPV65","3UUIU9GZC5R93N292LT21FRJ9VS5TN","","null","<img src=""img/food2.png"" style=""width:200px; border:14px solid green;"">","null","","","","","","","","","",""
"","image-keyboard-response","8","57500","0.0-8.0","3YGXWBAF713C77USTWK4WWHPTWKC4K","A11JGMLOFFPV65","3UUIU9GZC5R93N292LT21FRJ9VS5TN","","2161","img/food4.png","75","2162.0999999940395","2","1","2","1","1,0.5,0,1,0.5,0,0.5,0,1","0,1,0.5,0,1,0.5,1,0.5,0","3","",""
"","html-keyboard-response","9","57803","0.0-9.0","3YGXWBAF713C77USTWK4WWHPTWKC4K","A11JGMLOFFPV65","3UUIU9GZC5R93N292LT21FRJ9VS5TN","","null","<img src=""img/food4.png"" style=""width:200px; border:14px solid green;"">","null","","","","","","","","","",""
"","image-keyboard-response","10","59182","0.0-10.0","3YGXWBAF713C77USTWK4WWHPTWKC4K","A11JGMLOFFPV65","3UUIU9GZC5R93N292LT21FRJ9VS5TN","","1376.5999999940395","img/food2.png","74","1377.5","1","1","3","1","1,0.5,0,1,0.5,0,0.5,0,1","0,1,0.5,0,1,0.5,1,0.5,0","3","",""
"","html-keyboard-response","11","59484","0.0-11.0","3YGXWBAF713C77USTWK4WWHPTWKC4K","A11JGMLOFFPV65","3UUIU9GZC5R93N292LT21FRJ9VS5TN","","null","<img src=""img/food2.png"" style=""width:200px; border:14px solid green;"">","null","","","","","","","","","",""
"","image-keyboard-response","12","63366","0.0-12.0","3YGXWBAF713C77USTWK4WWHPTWKC4K","A11JGMLOFFPV65","3UUIU9GZC5R93N292LT21FRJ9VS5TN","","3881.100000023842","img/food6.png","74","3881.9000000059605","1","0","1","1","1,0.5,0,1,0.5,0,0.5,0,1","0,1,0.5,0,1,0.5,1,0.5,0","3","",""
"","html-keyboard-response","13","63669","0.0-13.0","3YGXWBAF713C77USTWK4WWHPTWKC4K","A11JGMLOFFPV65","3UUIU9GZC5R93N292LT21FRJ9VS5TN","","null","<img src=""img/food6.png"" style=""width:200px;border:14px solid red;"">","null","","","","","","","","","",""
"","image-keyboard-response","14","64516","0.0-14.0","3YGXWBAF713C77USTWK4WWHPTWKC4K","A11JGMLOFFPV65","3UUIU9GZC5R93N292LT21FRJ9VS5TN","","846.0999999940395","img/food6.png","76","847.2000000178814","3","0","1","1","1,0.5,0,1,0.5,0,0.5,0,1","0,1,0.5,0,1,0.5,1,0.5,0","3","",""
"","html-keyboard-response","15","64819","0.0-15.0","3YGXWBAF713C77USTWK4WWHPTWKC4K","A11JGMLOFFPV65","3UUIU9GZC5R93N292LT21FRJ9VS5TN","","null","<img src=""img/food6.png"" style=""width:200px;border:14px solid red;"">","null","","","","","","","","","",""
"","image-keyboard-response","16","66626","0.0-16.0","3YGXWBAF713C77USTWK4WWHPTWKC4K","A11JGMLOFFPV65","3UUIU9GZC5R93N292LT21FRJ9VS5TN","","1806.9000000059605","img/food2.png","74","1807.7999999821186","1","1","3","1","1,0.5,0,1,0.5,0,0.5,0,1","0,1,0.5,0,1,0.5,1,0.5,0","3","",""
"","html-keyboard-response","17","66929","0.0-17.0","3YGXWBAF713C77USTWK4WWHPTWKC4K","A11JGMLOFFPV65","3UUIU9GZC5R93N292LT21FRJ9VS5TN","","null","<img src=""img/food2.png"" style=""width:200px; border:14px solid green;"">","null","","","","","","","","","",""
"","image-keyboard-response","18","69026","0.0-18.0","3YGXWBAF713C77USTWK4WWHPTWKC4K","A11JGMLOFFPV65","3UUIU9GZC5R93N292LT21FRJ9VS5TN","","2095.899999976158","img/food6.png","75","2096.7999999821186","2","1","1","1","1,0.5,0,1,0.5,0,0.5,0,1","0,1,0.5,0,1,0.5,1,0.5,0","3","",""
"","html-keyboard-response","19","69329","0.0-19.0","3YGXWBAF713C77USTWK4WWHPTWKC4K","A11JGMLOFFPV65","3UUIU9GZC5R93N292LT21FRJ9VS5TN","","null","<img src=""img/food6.png"" style=""width:200px; border:14px solid green;"">","null","","","","","","","","","",""
"","image-keyboard-response","20","70676","0.0-20.0","3YGXWBAF713C77USTWK4WWHPTWKC4K","A11JGMLOFFPV65","3UUIU9GZC5R93N292LT21FRJ9VS5TN","","1345.7999999821186","img/food2.png","74","1346.5999999940395","1","1","3","1","1,0.5,0,1,0.5,0,0.5,0,1","0,1,0.5,0,1,0.5,1,0.5,0","3","",""
"","html-keyboard-response","21","70979","0.0-21.0","3YGXWBAF713C77USTWK4WWHPTWKC4K","A11JGMLOFFPV65","3UUIU9GZC5R93N292LT21FRJ9VS5TN","","null","<img src=""img/food2.png"" style=""width:200px; border:14px solid green;"">","null","","","","","","","","","",""
"","image-keyboard-response","22","72596","0.0-22.0","3YGXWBAF713C77USTWK4WWHPTWKC4K","A11JGMLOFFPV65","3UUIU9GZC5R93N292LT21FRJ9VS5TN","","1615.800000011921","img/food6.png","76","1616.9000000059605","3","1","1","1","1,0.5,0,1,0.5,0,0.5,0,1","0,1,0.5,0,1,0.5,1,0.5,0","3","",""
"","html-keyboard-response","23","72898","0.0-23.0","3YGXWBAF713C77USTWK4WWHPTWKC4K","A11JGMLOFFPV65","3UUIU9GZC5R93N292LT21FRJ9VS5TN","","null","<img src=""img/food6.png"" style=""width:200px; border:14px solid green;"">","null","","","","","","","","","",""
"","image-keyboard-response","24","74236","0.0-24.0","3YGXWBAF713C77USTWK4WWHPTWKC4K","A11JGMLOFFPV65","3UUIU9GZC5R93N292LT21FRJ9VS5TN","","1336.800000011921","img/food2.png","74","1337.7999999821186","1","1","3","1","1,0.5,0,1,0.5,0,0.5,0,1","0,1,0.5,0,1,0.5,1,0.5,0","3","",""
"","html-keyboard-response","25","74538","0.0-25.0","3YGXWBAF713C77USTWK4WWHPTWKC4K","A11JGMLOFFPV65","3UUIU9GZC5R93N292LT21FRJ9VS5TN","","null","<img src=""img/food2.png"" style=""width:200px; border:14px solid green;"">","null","","","","","","","","","",""
"","image-keyboard-response","26","76280","0.0-26.0","3YGXWBAF713C77USTWK4WWHPTWKC4K","A11JGMLOFFPV65","3UUIU9GZC5R93N292LT21FRJ9VS5TN","","1740","img/food4.png","75","1741","2","1","2","1","1,0.5,0,1,0.5,0,0.5,0,1","0,1,0.5,0,1,0.5,1,0.5,0","3","",""
"","html-keyboard-response","27","76583","0.0-27.0","3YGXWBAF713C77USTWK4WWHPTWKC4K","A11JGMLOFFPV65","3UUIU9GZC5R93N292LT21FRJ9VS5TN","","null","<img src=""img/food4.png"" style=""width:200px; border:14px solid green;"">","null","","","","","","","","","",""
"","image-keyboard-response","28","78117","0.0-28.0","3YGXWBAF713C77USTWK4WWHPTWKC4K","A11JGMLOFFPV65","3UUIU9GZC5R93N292LT21FRJ9VS5TN","","1532.5","img/food6.png","76","1533.3999999761581","3","0","1","1","1,0.5,0,1,0.5,0,0.5,0,1","0,1,0.5,0,1,0.5,1,0.5,0","3","",""
"","html-keyboard-response","29","78419","0.0-29.0","3YGXWBAF713C77USTWK4WWHPTWKC4K","A11JGMLOFFPV65","3UUIU9GZC5R93N292LT21FRJ9VS5TN","","null","<img src=""img/food6.png"" style=""width:200px;border:14px solid red;"">","null","","","","","","","","","",""
"","image-keyboard-response","30","79281","0.0-30.0","3YGXWBAF713C77USTWK4WWHPTWKC4K","A11JGMLOFFPV65","3UUIU9GZC5R93N292LT21FRJ9VS5TN","","860.4000000059605","img/food2.png","75","861.4000000059605","2","0","3","1","1,0.5,0,1,0.5,0,0.5,0,1","0,1,0.5,0,1,0.5,1,0.5,0","3","",""
"","html-keyboard-response","31","79583","0.0-31.0","3YGXWBAF713C77USTWK4WWHPTWKC4K","A11JGMLOFFPV65","3UUIU9GZC5R93N292LT21FRJ9VS5TN","","null","<img src=""img/food2.png"" style=""width:200px;border:14px solid red;"">","null","","","","","","","","","",""
"","image-keyboard-response","32","80826","0.0-32.0","3YGXWBAF713C77USTWK4WWHPTWKC4K","A11JGMLOFFPV65","3UUIU9GZC5R93N292LT21FRJ9VS5TN","","1241.7000000178814","img/food6.png","76","1242.5999999940395","3","0","1","1","1,0.5,0,1,0.5,0,0.5,0,1","0,1,0.5,0,1,0.5,1,0.5,0","3","",""
"","html-keyboard-response","33","81128","0.0-33.0","3YGXWBAF713C77USTWK4WWHPTWKC4K","A11JGMLOFFPV65","3UUIU9GZC5R93N292LT21FRJ9VS5TN","","null","<img src=""img/food6.png"" style=""width:200px;border:14px solid red;"">","null","","","","","","","","","",""
"","image-keyboard-response","34","82622","0.0-34.0","3YGXWBAF713C77USTWK4WWHPTWKC4K","A11JGMLOFFPV65","3UUIU9GZC5R93N292LT21FRJ9VS5TN","","1492","img/food4.png","75","1493","2","1","2","1","1,0.5,0,1,0.5,0,0.5,0,1","0,1,0.5,0,1,0.5,1,0.5,0","3","",""
"","html-keyboard-response","35","82924","0.0-35.0","3YGXWBAF713C77USTWK4WWHPTWKC4K","A11JGMLOFFPV65","3UUIU9GZC5R93N292LT21FRJ9VS5TN","","null","<img src=""img/food4.png"" style=""width:200px; border:14px solid green;"">","null","","","","","","","","","",""
"","image-keyboard-response","36","84525","0.0-36.0","3YGXWBAF713C77USTWK4WWHPTWKC4K","A11JGMLOFFPV65","3UUIU9GZC5R93N292LT21FRJ9VS5TN","","1600.7000000178814","img/food4.png","75","1601.5999999940395","2","1","2","1","1,0.5,0,1,0.5,0,0.5,0,1","0,1,0.5,0,1,0.5,1,0.5,0","3","",""
"","html-keyboard-response","37","84828","0.0-37.0","3YGXWBAF713C77USTWK4WWHPTWKC4K","A11JGMLOFFPV65","3UUIU9GZC5R93N292LT21FRJ9VS5TN","","null","<img src=""img/food4.png"" style=""width:200px; border:14px solid green;"">","null","","","","","","","","","",""
"","image-keyboard-response","38","86140","0.0-38.0","3YGXWBAF713C77USTWK4WWHPTWKC4K","A11JGMLOFFPV65","3UUIU9GZC5R93N292LT21FRJ9VS5TN","","1311.300000011921","img/food4.png","75","1312","2","1","2","1","1,0.5,0,1,0.5,0,0.5,0,1","0,1,0.5,0,1,0.5,1,0.5,0","3","",""
"","html-keyboard-response","39","86443","0.0-39.0","3YGXWBAF713C77USTWK4WWHPTWKC4K","A11JGMLOFFPV65","3UUIU9GZC5R93N292LT21FRJ9VS5TN","","null","<img src=""img/food4.png"" style=""width:200px; border:14px solid green;"">","null","","","","","","","","","",""
"","image-keyboard-response","40","88471","0.0-40.0","3YGXWBAF713C77USTWK4WWHPTWKC4K","A11JGMLOFFPV65","3UUIU9GZC5R93N292LT21FRJ9VS5TN","","2026.9000000059605","img/food6.png","75","2027.9000000059605","2","1","1","1","1,0.5,0,1,0.5,0,0.5,0,1","0,1,0.5,0,1,0.5,1,0.5,0","3","",""
"","html-keyboard-response","41","88774","0.0-41.0","3YGXWBAF713C77USTWK4WWHPTWKC4K","A11JGMLOFFPV65","3UUIU9GZC5R93N292LT21FRJ9VS5TN","","null","<img src=""img/food6.png"" style=""width:200px; border:14px solid green;"">","null","","","","","","","","","",""
"","image-keyboard-response","42","90856","0.0-42.0","3YGXWBAF713C77USTWK4WWHPTWKC4K","A11JGMLOFFPV65","3UUIU9GZC5R93N292LT21FRJ9VS5TN","","2080.699999988079","img/food4.png","75","2081.7000000178814","2","1","2","1","1,0.5,0,1,0.5,0,0.5,0,1","0,1,0.5,0,1,0.5,1,0.5,0","3","",""
"","html-keyboard-response","43","91158","0.0-43.0","3YGXWBAF713C77USTWK4WWHPTWKC4K","A11JGMLOFFPV65","3UUIU9GZC5R93N292LT21FRJ9VS5TN","","null","<img src=""img/food4.png"" style=""width:200px; border:14px solid green;"">","null","","","","","","","","","",""
"","image-keyboard-response","44","92521","0.0-44.0","3YGXWBAF713C77USTWK4WWHPTWKC4K","A11JGMLOFFPV65","3UUIU9GZC5R93N292LT21FRJ9VS5TN","","1361.699999988079","img/food6.png","75","1362.5","2","1","1","1","1,0.5,0,1,0.5,0,0.5,0,1","0,1,0.5,0,1,0.5,1,0.5,0","3","",""
"","html-keyboard-response","45","92824","0.0-45.0","3YGXWBAF713C77USTWK4WWHPTWKC4K","A11JGMLOFFPV65","3UUIU9GZC5R93N292LT21FRJ9VS5TN","","null","<img src=""img/food6.png"" style=""width:200px; border:14px solid green;"">","null","","","","","","","","","",""
"","image-keyboard-response","46","93946","0.0-46.0","3YGXWBAF713C77USTWK4WWHPTWKC4K","A11JGMLOFFPV65","3UUIU9GZC5R93N292LT21FRJ9VS5TN","","1121.4000000059605","img/food4.png","75","1122.4000000059605","2","1","2","1","1,0.5,0,1,0.5,0,0.5,0,1","0,1,0.5,0,1,0.5,1,0.5,0","3","",""
"","html-keyboard-response","47","94249","0.0-47.0","3YGXWBAF713C77USTWK4WWHPTWKC4K","A11JGMLOFFPV65","3UUIU9GZC5R93N292LT21FRJ9VS5TN","","null","<img src=""img/food4.png"" style=""width:200px; border:14px solid green;"">","null","","","","","","","","","",""
"","image-keyboard-response","48","95345","0.0-48.0","3YGXWBAF713C77USTWK4WWHPTWKC4K","A11JGMLOFFPV65","3UUIU9GZC5R93N292LT21FRJ9VS5TN","","1095.0999999940395","img/food6.png","75","1095.9000000059605","2","1","1","1","1,0.5,0,1,0.5,0,0.5,0,1","0,1,0.5,0,1,0.5,1,0.5,0","3","",""
"","html-keyboard-response","49","95648","0.0-49.0","3YGXWBAF713C77USTWK4WWHPTWKC4K","A11JGMLOFFPV65","3UUIU9GZC5R93N292LT21FRJ9VS5TN","","null","<img src=""img/food6.png"" style=""width:200px; border:14px solid green;"">","null","","","","","","","","","",""
"","image-keyboard-response","50","96425","0.0-50.0","3YGXWBAF713C77USTWK4WWHPTWKC4K","A11JGMLOFFPV65","3UUIU9GZC5R93N292LT21FRJ9VS5TN","","776.2999999821186","img/food2.png","75","777.2000000178814","2","0","3","1","1,0.5,0,1,0.5,0,0.5,0,1","0,1,0.5,0,1,0.5,1,0.5,0","3","",""
"","html-keyboard-response","51","96727","0.0-51.0","3YGXWBAF713C77USTWK4WWHPTWKC4K","A11JGMLOFFPV65","3UUIU9GZC5R93N292LT21FRJ9VS5TN","","null","<img src=""img/food2.png"" style=""width:200px;border:14px solid red;"">","null","","","","","","","","","",""
"","image-keyboard-response","52","97990","0.0-52.0","3YGXWBAF713C77USTWK4WWHPTWKC4K","A11JGMLOFFPV65","3UUIU9GZC5R93N292LT21FRJ9VS5TN","","1261.9000000059605","img/food2.png","74","1262.9000000059605","1","1","3","1","1,0.5,0,1,0.5,0,0.5,0,1","0,1,0.5,0,1,0.5,1,0.5,0","3","",""
"","html-keyboard-response","53","98293","0.0-53.0","3YGXWBAF713C77USTWK4WWHPTWKC4K","A11JGMLOFFPV65","3UUIU9GZC5R93N292LT21FRJ9VS5TN","","null","<img src=""img/food2.png"" style=""width:200px; border:14px solid green;"">","null","","","","","","","","","",""
"","image-keyboard-response","54","99489","0.0-54.0","3YGXWBAF713C77USTWK4WWHPTWKC4K","A11JGMLOFFPV65","3UUIU9GZC5R93N292LT21FRJ9VS5TN","","1194.699999988079","img/food2.png","74","1195.5999999940395","1","1","3","1","1,0.5,0,1,0.5,0,0.5,0,1","0,1,0.5,0,1,0.5,1,0.5,0","3","",""
"","html-keyboard-response","55","99791","0.0-55.0","3YGXWBAF713C77USTWK4WWHPTWKC4K","A11JGMLOFFPV65","3UUIU9GZC5R93N292LT21FRJ9VS5TN","","null","<img src=""img/food2.png"" style=""width:200px; border:14px solid green;"">","null","","","","","","","","","",""
"","image-keyboard-response","56","102155","0.0-56.0","3YGXWBAF713C77USTWK4WWHPTWKC4K","A11JGMLOFFPV65","3UUIU9GZC5R93N292LT21FRJ9VS5TN","","2362.600000023842","img/food6.png","75","2363.4000000059605","2","1","1","1","1,0.5,0,1,0.5,0,0.5,0,1","0,1,0.5,0,1,0.5,1,0.5,0","3","",""
"","html-keyboard-response","57","102457","0.0-57.0","3YGXWBAF713C77USTWK4WWHPTWKC4K","A11JGMLOFFPV65","3UUIU9GZC5R93N292LT21FRJ9VS5TN","","null","<img src=""img/food6.png"" style=""width:200px; border:14px solid green;"">","null","","","","","","","","","",""
"","image-keyboard-response","58","103530","0.0-58.0","3YGXWBAF713C77USTWK4WWHPTWKC4K","A11JGMLOFFPV65","3UUIU9GZC5R93N292LT21FRJ9VS5TN","","1071.7999999821186","img/food4.png","75","1072.5999999940395","2","1","2","1","1,0.5,0,1,0.5,0,0.5,0,1","0,1,0.5,0,1,0.5,1,0.5,0","3","",""
"","html-keyboard-response","59","103833","0.0-59.0","3YGXWBAF713C77USTWK4WWHPTWKC4K","A11JGMLOFFPV65","3UUIU9GZC5R93N292LT21FRJ9VS5TN","","null","<img src=""img/food4.png"" style=""width:200px; border:14px solid green;"">","null","","","","","","","","","",""
"","image-keyboard-response","60","104535","0.0-60.0","3YGXWBAF713C77USTWK4WWHPTWKC4K","A11JGMLOFFPV65","3UUIU9GZC5R93N292LT21FRJ9VS5TN","","701","img/food6.png","75","701.9000000059605","2","1","1","1","1,0.5,0,1,0.5,0,0.5,0,1","0,1,0.5,0,1,0.5,1,0.5,0","3","",""
"","html-keyboard-response","61","104838","0.0-61.0","3YGXWBAF713C77USTWK4WWHPTWKC4K","A11JGMLOFFPV65","3UUIU9GZC5R93N292LT21FRJ9VS5TN","","null","<img src=""img/food6.png"" style=""width:200px; border:14px solid green;"">","null","","","","","","","","","",""
"","image-keyboard-response","62","108101","0.0-62.0","3YGXWBAF713C77USTWK4WWHPTWKC4K","A11JGMLOFFPV65","3UUIU9GZC5R93N292LT21FRJ9VS5TN","","3262.100000023842","img/food4.png","75","3263.0999999940395","2","1","2","1","1,0.5,0,1,0.5,0,0.5,0,1","0,1,0.5,0,1,0.5,1,0.5,0","3","",""
"","html-keyboard-response","63","108404","0.0-63.0","3YGXWBAF713C77USTWK4WWHPTWKC4K","A11JGMLOFFPV65","3UUIU9GZC5R93N292LT21FRJ9VS5TN","","null","<img src=""img/food4.png"" style=""width:200px; border:14px solid green;"">","null","","","","","","","","","",""
"","image-keyboard-response","64","110715","0.0-64.0","3YGXWBAF713C77USTWK4WWHPTWKC4K","A11JGMLOFFPV65","3UUIU9GZC5R93N292LT21FRJ9VS5TN","","2310.5999999940395","img/food4.png","75","2311.4000000059605","2","1","2","1","1,0.5,0,1,0.5,0,0.5,0,1","0,1,0.5,0,1,0.5,1,0.5,0","3","",""
"","html-keyboard-response","65","111018","0.0-65.0","3YGXWBAF713C77USTWK4WWHPTWKC4K","A11JGMLOFFPV65","3UUIU9GZC5R93N292LT21FRJ9VS5TN","","null","<img src=""img/food4.png"" style=""width:200px; border:14px solid green;"">","null","","","","","","","","","",""
"","image-keyboard-response","66","112056","0.0-66.0","3YGXWBAF713C77USTWK4WWHPTWKC4K","A11JGMLOFFPV65","3UUIU9GZC5R93N292LT21FRJ9VS5TN","","1036.9000000059605","img/food6.png","75","1038","2","1","1","1","1,0.5,0,1,0.5,0,0.5,0,1","0,1,0.5,0,1,0.5,1,0.5,0","3","",""
"","html-keyboard-response","67","112358","0.0-67.0","3YGXWBAF713C77USTWK4WWHPTWKC4K","A11JGMLOFFPV65","3UUIU9GZC5R93N292LT21FRJ9VS5TN","","null","<img src=""img/food6.png"" style=""width:200px; border:14px solid green;"">","null","","","","","","","","","",""
"","image-keyboard-response","68","113455","0.0-68.0","3YGXWBAF713C77USTWK4WWHPTWKC4K","A11JGMLOFFPV65","3UUIU9GZC5R93N292LT21FRJ9VS5TN","","1095.8999999761581","img/food4.png","75","1097","2","1","2","1","1,0.5,0,1,0.5,0,0.5,0,1","0,1,0.5,0,1,0.5,1,0.5,0","3","",""
"","html-keyboard-response","69","113758","0.0-69.0","3YGXWBAF713C77USTWK4WWHPTWKC4K","A11JGMLOFFPV65","3UUIU9GZC5R93N292LT21FRJ9VS5TN","","null","<img src=""img/food4.png"" style=""width:200px; border:14px solid green;"">","null","","","","","","","","","",""
"","image-keyboard-response","70","114930","0.0-70.0","3YGXWBAF713C77USTWK4WWHPTWKC4K","A11JGMLOFFPV65","3UUIU9GZC5R93N292LT21FRJ9VS5TN","","1171.0999999940395","img/food2.png","74","1172","1","1","3","1","1,0.5,0,1,0.5,0,0.5,0,1","0,1,0.5,0,1,0.5,1,0.5,0","3","",""
"","html-keyboard-response","71","115232","0.0-71.0","3YGXWBAF713C77USTWK4WWHPTWKC4K","A11JGMLOFFPV65","3UUIU9GZC5R93N292LT21FRJ9VS5TN","","null","<img src=""img/food2.png"" style=""width:200px; border:14px solid green;"">","null","","","","","","","","","",""
"","image-keyboard-response","72","116437","0.0-72.0","3YGXWBAF713C77USTWK4WWHPTWKC4K","A11JGMLOFFPV65","3UUIU9GZC5R93N292LT21FRJ9VS5TN","","1203","img/food4.png","75","1204","2","1","2","1","1,0.5,0,1,0.5,0,0.5,0,1","0,1,0.5,0,1,0.5,1,0.5,0","3","",""
"","html-keyboard-response","73","116739","0.0-73.0","3YGXWBAF713C77USTWK4WWHPTWKC4K","A11JGMLOFFPV65","3UUIU9GZC5R93N292LT21FRJ9VS5TN","","null","<img src=""img/food4.png"" style=""width:200px; border:14px solid green;"">","null","","","","","","","","","",""
"","image-keyboard-response","74","118575","0.0-74.0","3YGXWBAF713C77USTWK4WWHPTWKC4K","A11JGMLOFFPV65","3UUIU9GZC5R93N292LT21FRJ9VS5TN","","1835.5999999940395","img/food2.png","74","1836.5","1","1","3","1","1,0.5,0,1,0.5,0,0.5,0,1","0,1,0.5,0,1,0.5,1,0.5,0","3","",""
"","html-keyboard-response","75","118878","0.0-75.0","3YGXWBAF713C77USTWK4WWHPTWKC4K","A11JGMLOFFPV65","3UUIU9GZC5R93N292LT21FRJ9VS5TN","","null","<img src=""img/food2.png"" style=""width:200px; border:14px solid green;"">","null","","","","","","","","","",""
"","image-keyboard-response","76","119885","0.0-76.0","3YGXWBAF713C77USTWK4WWHPTWKC4K","A11JGMLOFFPV65","3UUIU9GZC5R93N292LT21FRJ9VS5TN","","1005.5","img/food4.png","75","1006.3000000119209","2","1","2","1","1,0.5,0,1,0.5,0,0.5,0,1","0,1,0.5,0,1,0.5,1,0.5,0","3","",""
"","html-keyboard-response","77","120188","0.0-77.0","3YGXWBAF713C77USTWK4WWHPTWKC4K","A11JGMLOFFPV65","3UUIU9GZC5R93N292LT21FRJ9VS5TN","","null","<img src=""img/food4.png"" style=""width:200px; border:14px solid green;"">","null","","","","","","","","","",""
"","image-keyboard-response","78","121115","0.0-78.0","3YGXWBAF713C77USTWK4WWHPTWKC4K","A11JGMLOFFPV65","3UUIU9GZC5R93N292LT21FRJ9VS5TN","","926.7000000178814","img/food4.png","75","927.7000000178814","2","1","2","1","1,0.5,0,1,0.5,0,0.5,0,1","0,1,0.5,0,1,0.5,1,0.5,0","3","",""
"","html-keyboard-response","79","121418","0.0-79.0","3YGXWBAF713C77USTWK4WWHPTWKC4K","A11JGMLOFFPV65","3UUIU9GZC5R93N292LT21FRJ9VS5TN","","null","<img src=""img/food4.png"" style=""width:200px; border:14px solid green;"">","null","","","","","","","","","",""
"","image-keyboard-response","80","122455","0.0-80.0","3YGXWBAF713C77USTWK4WWHPTWKC4K","A11JGMLOFFPV65","3UUIU9GZC5R93N292LT21FRJ9VS5TN","","1036","img/food6.png","75","1036.8999999761581","2","1","1","1","1,0.5,0,1,0.5,0,0.5,0,1","0,1,0.5,0,1,0.5,1,0.5,0","3","",""
"","html-keyboard-response","81","122758","0.0-81.0","3YGXWBAF713C77USTWK4WWHPTWKC4K","A11JGMLOFFPV65","3UUIU9GZC5R93N292LT21FRJ9VS5TN","","null","<img src=""img/food6.png"" style=""width:200px; border:14px solid green;"">","null","","","","","","","","","",""
"","image-keyboard-response","82","123853","0.0-82.0","3YGXWBAF713C77USTWK4WWHPTWKC4K","A11JGMLOFFPV65","3UUIU9GZC5R93N292LT21FRJ9VS5TN","","1094.0999999940395","img/food6.png","75","1095.0999999940395","2","1","1","1","1,0.5,0,1,0.5,0,0.5,0,1","0,1,0.5,0,1,0.5,1,0.5,0","3","",""
"","html-keyboard-response","83","124155","0.0-83.0","3YGXWBAF713C77USTWK4WWHPTWKC4K","A11JGMLOFFPV65","3UUIU9GZC5R93N292LT21FRJ9VS5TN","","null","<img src=""img/food6.png"" style=""width:200px; border:14px solid green;"">","null","","","","","","","","","",""
"","image-keyboard-response","84","125331","0.0-84.0","3YGXWBAF713C77USTWK4WWHPTWKC4K","A11JGMLOFFPV65","3UUIU9GZC5R93N292LT21FRJ9VS5TN","","1174.7000000178814","img/food4.png","75","1175.7999999821186","2","1","2","1","1,0.5,0,1,0.5,0,0.5,0,1","0,1,0.5,0,1,0.5,1,0.5,0","3","",""
"","html-keyboard-response","85","125634","0.0-85.0","3YGXWBAF713C77USTWK4WWHPTWKC4K","A11JGMLOFFPV65","3UUIU9GZC5R93N292LT21FRJ9VS5TN","","null","<img src=""img/food4.png"" style=""width:200px; border:14px solid green;"">","null","","","","","","","","","",""
"","image-keyboard-response","86","126913","0.0-86.0","3YGXWBAF713C77USTWK4WWHPTWKC4K","A11JGMLOFFPV65","3UUIU9GZC5R93N292LT21FRJ9VS5TN","","1278.300000011921","img/food2.png","74","1279.199999988079","1","1","3","1","1,0.5,0,1,0.5,0,0.5,0,1","0,1,0.5,0,1,0.5,1,0.5,0","3","",""
"","html-keyboard-response","87","127215","0.0-87.0","3YGXWBAF713C77USTWK4WWHPTWKC4K","A11JGMLOFFPV65","3UUIU9GZC5R93N292LT21FRJ9VS5TN","","null","<img src=""img/food2.png"" style=""width:200px; border:14px solid green;"">","null","","","","","","","","","",""
"","image-keyboard-response","88","128356","0.0-88.0","3YGXWBAF713C77USTWK4WWHPTWKC4K","A11JGMLOFFPV65","3UUIU9GZC5R93N292LT21FRJ9VS5TN","","1139.0999999940395","img/food6.png","75","1140.0999999940395","2","1","1","1","1,0.5,0,1,0.5,0,0.5,0,1","0,1,0.5,0,1,0.5,1,0.5,0","3","",""
"","html-keyboard-response","89","128658","0.0-89.0","3YGXWBAF713C77USTWK4WWHPTWKC4K","A11JGMLOFFPV65","3UUIU9GZC5R93N292LT21FRJ9VS5TN","","null","<img src=""img/food6.png"" style=""width:200px; border:14px solid green;"">","null","","","","","","","","","",""
"","image-keyboard-response","90","129996","0.0-90.0","3YGXWBAF713C77USTWK4WWHPTWKC4K","A11JGMLOFFPV65","3UUIU9GZC5R93N292LT21FRJ9VS5TN","","1337.300000011921","img/food4.png","75","1338.5","2","1","2","1","1,0.5,0,1,0.5,0,0.5,0,1","0,1,0.5,0,1,0.5,1,0.5,0","3","",""
"","html-keyboard-response","91","130299","0.0-91.0","3YGXWBAF713C77USTWK4WWHPTWKC4K","A11JGMLOFFPV65","3UUIU9GZC5R93N292LT21FRJ9VS5TN","","null","<img src=""img/food4.png"" style=""width:200px; border:14px solid green;"">","null","","","","","","","","","",""
"","image-keyboard-response","92","131455","0.0-92.0","3YGXWBAF713C77USTWK4WWHPTWKC4K","A11JGMLOFFPV65","3UUIU9GZC5R93N292LT21FRJ9VS5TN","","1154.5999999940395","img/food6.png","75","1155.4000000059605","2","1","1","1","1,0.5,0,1,0.5,0,0.5,0,1","0,1,0.5,0,1,0.5,1,0.5,0","3","",""
"","html-keyboard-response","93","131757","0.0-93.0","3YGXWBAF713C77USTWK4WWHPTWKC4K","A11JGMLOFFPV65","3UUIU9GZC5R93N292LT21FRJ9VS5TN","","null","<img src=""img/food6.png"" style=""width:200px; border:14px solid green;"">","null","","","","","","","","","",""
"","image-keyboard-response","94","133505","0.0-94.0","3YGXWBAF713C77USTWK4WWHPTWKC4K","A11JGMLOFFPV65","3UUIU9GZC5R93N292LT21FRJ9VS5TN","","1746.9000000059605","img/food4.png","75","1747.9000000059605","2","1","2","1","1,0.5,0,1,0.5,0,0.5,0,1","0,1,0.5,0,1,0.5,1,0.5,0","3","",""
"","html-keyboard-response","95","133807","0.0-95.0","3YGXWBAF713C77USTWK4WWHPTWKC4K","A11JGMLOFFPV65","3UUIU9GZC5R93N292LT21FRJ9VS5TN","","null","<img src=""img/food4.png"" style=""width:200px; border:14px solid green;"">","null","","","","","","","","","",""
"","image-keyboard-response","96","134941","0.0-96.0","3YGXWBAF713C77USTWK4WWHPTWKC4K","A11JGMLOFFPV65","3UUIU9GZC5R93N292LT21FRJ9VS5TN","","1132.5","img/food6.png","75","1133.5","2","1","1","1","1,0.5,0,1,0.5,0,0.5,0,1","0,1,0.5,0,1,0.5,1,0.5,0","3","",""
"","html-keyboard-response","97","135244","0.0-97.0","3YGXWBAF713C77USTWK4WWHPTWKC4K","A11JGMLOFFPV65","3UUIU9GZC5R93N292LT21FRJ9VS5TN","","null","<img src=""img/food6.png"" style=""width:200px; border:14px solid green;"">","null","","","","","","","","","",""
"","image-keyboard-response","98","136620","0.0-98.0","3YGXWBAF713C77USTWK4WWHPTWKC4K","A11JGMLOFFPV65","3UUIU9GZC5R93N292LT21FRJ9VS5TN","","1375.0999999940395","img/food2.png","74","1376.0999999940395","1","1","3","1","1,0.5,0,1,0.5,0,0.5,0,1","0,1,0.5,0,1,0.5,1,0.5,0","3","",""
"","html-keyboard-response","99","136922","0.0-99.0","3YGXWBAF713C77USTWK4WWHPTWKC4K","A11JGMLOFFPV65","3UUIU9GZC5R93N292LT21FRJ9VS5TN","","null","<img src=""img/food2.png"" style=""width:200px; border:14px solid green;"">","null","","","","","","","","","",""
"","image-keyboard-response","100","138065","0.0-100.0","3YGXWBAF713C77USTWK4WWHPTWKC4K","A11JGMLOFFPV65","3UUIU9GZC5R93N292LT21FRJ9VS5TN","","1142.199999988079","img/food6.png","75","1143","2","1","1","1","1,0.5,0,1,0.5,0,0.5,0,1","0,1,0.5,0,1,0.5,1,0.5,0","3","",""
"","html-keyboard-response","101","138368","0.0-101.0","3YGXWBAF713C77USTWK4WWHPTWKC4K","A11JGMLOFFPV65","3UUIU9GZC5R93N292LT21FRJ9VS5TN","","null","<img src=""img/food6.png"" style=""width:200px; border:14px solid green;"">","null","","","","","","","","","",""
"","image-keyboard-response","102","139545","0.0-102.0","3YGXWBAF713C77USTWK4WWHPTWKC4K","A11JGMLOFFPV65","3UUIU9GZC5R93N292LT21FRJ9VS5TN","","1176.0999999940395","img/food2.png","74","1177.0999999940395","1","1","3","1","1,0.5,0,1,0.5,0,0.5,0,1","0,1,0.5,0,1,0.5,1,0.5,0","3","",""
"","html-keyboard-response","103","139847","0.0-103.0","3YGXWBAF713C77USTWK4WWHPTWKC4K","A11JGMLOFFPV65","3UUIU9GZC5R93N292LT21FRJ9VS5TN","","null","<img src=""img/food2.png"" style=""width:200px; border:14px solid green;"">","null","","","","","","","","","",""
"","image-keyboard-response","104","141441","0.0-104.0","3YGXWBAF713C77USTWK4WWHPTWKC4K","A11JGMLOFFPV65","3UUIU9GZC5R93N292LT21FRJ9VS5TN","","1592.6000000238419","img/food6.png","75","1593.7999999821186","2","1","1","1","1,0.5,0,1,0.5,0,0.5,0,1","0,1,0.5,0,1,0.5,1,0.5,0","3","",""
"","html-keyboard-response","105","141744","0.0-105.0","3YGXWBAF713C77USTWK4WWHPTWKC4K","A11JGMLOFFPV65","3UUIU9GZC5R93N292LT21FRJ9VS5TN","","null","<img src=""img/food6.png"" style=""width:200px; border:14px solid green;"">","null","","","","","","","","","",""
"","image-keyboard-response","106","142920","0.0-106.0","3YGXWBAF713C77USTWK4WWHPTWKC4K","A11JGMLOFFPV65","3UUIU9GZC5R93N292LT21FRJ9VS5TN","","1174.7999999821186","img/food4.png","75","1175.7000000178814","2","1","2","1","1,0.5,0,1,0.5,0,0.5,0,1","0,1,0.5,0,1,0.5,1,0.5,0","3","",""
"","html-keyboard-response","107","143223","0.0-107.0","3YGXWBAF713C77USTWK4WWHPTWKC4K","A11JGMLOFFPV65","3UUIU9GZC5R93N292LT21FRJ9VS5TN","","null","<img src=""img/food4.png"" style=""width:200px; border:14px solid green;"">","null","","","","","","","","","",""
"","image-keyboard-response","108","144254","0.0-108.0","3YGXWBAF713C77USTWK4WWHPTWKC4K","A11JGMLOFFPV65","3UUIU9GZC5R93N292LT21FRJ9VS5TN","","1030.7999999821186","img/food2.png","74","1031.5","1","1","3","1","1,0.5,0,1,0.5,0,0.5,0,1","0,1,0.5,0,1,0.5,1,0.5,0","3","",""
"","html-keyboard-response","109","144557","0.0-109.0","3YGXWBAF713C77USTWK4WWHPTWKC4K","A11JGMLOFFPV65","3UUIU9GZC5R93N292LT21FRJ9VS5TN","","null","<img src=""img/food2.png"" style=""width:200px; border:14px solid green;"">","null","","","","","","","","","",""
"","image-keyboard-response","110","145455","0.0-110.0","3YGXWBAF713C77USTWK4WWHPTWKC4K","A11JGMLOFFPV65","3UUIU9GZC5R93N292LT21FRJ9VS5TN","","896.4000000059605","img/food4.png","75","897.2999999821186","2","1","2","1","1,0.5,0,1,0.5,0,0.5,0,1","0,1,0.5,0,1,0.5,1,0.5,0","3","",""
"","html-keyboard-response","111","145757","0.0-111.0","3YGXWBAF713C77USTWK4WWHPTWKC4K","A11JGMLOFFPV65","3UUIU9GZC5R93N292LT21FRJ9VS5TN","","null","<img src=""img/food4.png"" style=""width:200px; border:14px solid green;"">","null","","","","","","","","","",""
"","image-keyboard-response","112","147800","0.0-112.0","3YGXWBAF713C77USTWK4WWHPTWKC4K","A11JGMLOFFPV65","3UUIU9GZC5R93N292LT21FRJ9VS5TN","","2041.800000011921","img/food2.png","74","2042.699999988079","1","1","3","1","1,0.5,0,1,0.5,0,0.5,0,1","0,1,0.5,0,1,0.5,1,0.5,0","3","",""
"","html-keyboard-response","113","148102","0.0-113.0","3YGXWBAF713C77USTWK4WWHPTWKC4K","A11JGMLOFFPV65","3UUIU9GZC5R93N292LT21FRJ9VS5TN","","null","<img src=""img/food2.png"" style=""width:200px; border:14px solid green;"">","null","","","","","","","","","",""
"","image-keyboard-response","114","149085","0.0-114.0","3YGXWBAF713C77USTWK4WWHPTWKC4K","A11JGMLOFFPV65","3UUIU9GZC5R93N292LT21FRJ9VS5TN","","981.4000000059605","img/food4.png","75","984","2","1","2","1","1,0.5,0,1,0.5,0,0.5,0,1","0,1,0.5,0,1,0.5,1,0.5,0","3","",""
"","html-keyboard-response","115","149389","0.0-115.0","3YGXWBAF713C77USTWK4WWHPTWKC4K","A11JGMLOFFPV65","3UUIU9GZC5R93N292LT21FRJ9VS5TN","","null","<img src=""img/food4.png"" style=""width:200px; border:14px solid green;"">","null","","","","","","","","","",""
"","image-keyboard-response","116","150745","0.0-116.0","3YGXWBAF713C77USTWK4WWHPTWKC4K","A11JGMLOFFPV65","3UUIU9GZC5R93N292LT21FRJ9VS5TN","","1354.7000000178814","img/food4.png","75","1355.5999999940395","2","1","2","1","1,0.5,0,1,0.5,0,0.5,0,1","0,1,0.5,0,1,0.5,1,0.5,0","3","",""
"","html-keyboard-response","117","151047","0.0-117.0","3YGXWBAF713C77USTWK4WWHPTWKC4K","A11JGMLOFFPV65","3UUIU9GZC5R93N292LT21FRJ9VS5TN","","null","<img src=""img/food4.png"" style=""width:200px; border:14px solid green;"">","null","","","","","","","","","",""
"","image-keyboard-response","118","152135","0.0-118.0","3YGXWBAF713C77USTWK4WWHPTWKC4K","A11JGMLOFFPV65","3UUIU9GZC5R93N292LT21FRJ9VS5TN","","1086.5999999940395","img/food4.png","75","1087.6000000238419","2","1","2","1","1,0.5,0,1,0.5,0,0.5,0,1","0,1,0.5,0,1,0.5,1,0.5,0","3","",""
"","html-keyboard-response","119","152438","0.0-119.0","3YGXWBAF713C77USTWK4WWHPTWKC4K","A11JGMLOFFPV65","3UUIU9GZC5R93N292LT21FRJ9VS5TN","","null","<img src=""img/food4.png"" style=""width:200px; border:14px solid green;"">","null","","","","","","","","","",""
"","image-keyboard-response","120","153810","0.0-120.0","3YGXWBAF713C77USTWK4WWHPTWKC4K","A11JGMLOFFPV65","3UUIU9GZC5R93N292LT21FRJ9VS5TN","","1371.199999988079","img/food6.png","75","1372.199999988079","2","1","1","1","1,0.5,0,1,0.5,0,0.5,0,1","0,1,0.5,0,1,0.5,1,0.5,0","3","",""
"","html-keyboard-response","121","154112","0.0-121.0","3YGXWBAF713C77USTWK4WWHPTWKC4K","A11JGMLOFFPV65","3UUIU9GZC5R93N292LT21FRJ9VS5TN","","null","<img src=""img/food6.png"" style=""width:200px; border:14px solid green;"">","null","","","","","","","","","",""
"","image-keyboard-response","122","155224","0.0-122.0","3YGXWBAF713C77USTWK4WWHPTWKC4K","A11JGMLOFFPV65","3UUIU9GZC5R93N292LT21FRJ9VS5TN","","1111.199999988079","img/food2.png","74","1112.0999999940395","1","1","3","1","1,0.5,0,1,0.5,0,0.5,0,1","0,1,0.5,0,1,0.5,1,0.5,0","3","",""
"","html-keyboard-response","123","155527","0.0-123.0","3YGXWBAF713C77USTWK4WWHPTWKC4K","A11JGMLOFFPV65","3UUIU9GZC5R93N292LT21FRJ9VS5TN","","null","<img src=""img/food2.png"" style=""width:200px; border:14px solid green;"">","null","","","","","","","","","",""
"","image-keyboard-response","124","157465","0.0-124.0","3YGXWBAF713C77USTWK4WWHPTWKC4K","A11JGMLOFFPV65","3UUIU9GZC5R93N292LT21FRJ9VS5TN","","1937.300000011921","img/food2.png","74","1938.199999988079","1","1","3","1","1,0.5,0,1,0.5,0,0.5,0,1","0,1,0.5,0,1,0.5,1,0.5,0","3","",""
"","html-keyboard-response","125","157768","0.0-125.0","3YGXWBAF713C77USTWK4WWHPTWKC4K","A11JGMLOFFPV65","3UUIU9GZC5R93N292LT21FRJ9VS5TN","","null","<img src=""img/food2.png"" style=""width:200px; border:14px solid green;"">","null","","","","","","","","","",""
"","image-keyboard-response","126","159205","0.0-126.0","3YGXWBAF713C77USTWK4WWHPTWKC4K","A11JGMLOFFPV65","3UUIU9GZC5R93N292LT21FRJ9VS5TN","","1435.5","img/food4.png","75","1436.5","2","1","2","1","1,0.5,0,1,0.5,0,0.5,0,1","0,1,0.5,0,1,0.5,1,0.5,0","3","",""
"","html-keyboard-response","127","159508","0.0-127.0","3YGXWBAF713C77USTWK4WWHPTWKC4K","A11JGMLOFFPV65","3UUIU9GZC5R93N292LT21FRJ9VS5TN","","null","<img src=""img/food4.png"" style=""width:200px; border:14px solid green;"">","null","","","","","","","","","",""
"","image-keyboard-response","128","160504","0.0-128.0","3YGXWBAF713C77USTWK4WWHPTWKC4K","A11JGMLOFFPV65","3UUIU9GZC5R93N292LT21FRJ9VS5TN","","995.9000000059605","img/food6.png","75","996.7000000178814","2","1","1","1","1,0.5,0,1,0.5,0,0.5,0,1","0,1,0.5,0,1,0.5,1,0.5,0","3","",""
"","html-keyboard-response","129","160807","0.0-129.0","3YGXWBAF713C77USTWK4WWHPTWKC4K","A11JGMLOFFPV65","3UUIU9GZC5R93N292LT21FRJ9VS5TN","","null","<img src=""img/food6.png"" style=""width:200px; border:14px solid green;"">","null","","","","","","","","","",""
"","image-keyboard-response","130","161754","0.0-130.0","3YGXWBAF713C77USTWK4WWHPTWKC4K","A11JGMLOFFPV65","3UUIU9GZC5R93N292LT21FRJ9VS5TN","","946","img/food6.png","75","947.0999999940395","2","1","1","1","1,0.5,0,1,0.5,0,0.5,0,1","0,1,0.5,0,1,0.5,1,0.5,0","3","",""
"","html-keyboard-response","131","162057","0.0-131.0","3YGXWBAF713C77USTWK4WWHPTWKC4K","A11JGMLOFFPV65","3UUIU9GZC5R93N292LT21FRJ9VS5TN","","null","<img src=""img/food6.png"" style=""width:200px; border:14px solid green;"">","null","","","","","","","","","",""
"","image-keyboard-response","132","163465","0.0-132.0","3YGXWBAF713C77USTWK4WWHPTWKC4K","A11JGMLOFFPV65","3UUIU9GZC5R93N292LT21FRJ9VS5TN","","1407.300000011921","img/food4.png","75","1408.2999999821186","2","1","2","1","1,0.5,0,1,0.5,0,0.5,0,1","0,1,0.5,0,1,0.5,1,0.5,0","3","",""
"","html-keyboard-response","133","163767","0.0-133.0","3YGXWBAF713C77USTWK4WWHPTWKC4K","A11JGMLOFFPV65","3UUIU9GZC5R93N292LT21FRJ9VS5TN","","null","<img src=""img/food4.png"" style=""width:200px; border:14px solid green;"">","null","","","","","","","","","",""
"","image-keyboard-response","134","165705","0.0-134.0","3YGXWBAF713C77USTWK4WWHPTWKC4K","A11JGMLOFFPV65","3UUIU9GZC5R93N292LT21FRJ9VS5TN","","1937.2000000178814","img/food6.png","75","1938","2","1","1","1","1,0.5,0,1,0.5,0,0.5,0,1","0,1,0.5,0,1,0.5,1,0.5,0","3","",""
"","html-keyboard-response","135","166007","0.0-135.0","3YGXWBAF713C77USTWK4WWHPTWKC4K","A11JGMLOFFPV65","3UUIU9GZC5R93N292LT21FRJ9VS5TN","","null","<img src=""img/food6.png"" style=""width:200px; border:14px solid green;"">","null","","","","","","","","","",""
"","image-keyboard-response","136","166995","0.0-136.0","3YGXWBAF713C77USTWK4WWHPTWKC4K","A11JGMLOFFPV65","3UUIU9GZC5R93N292LT21FRJ9VS5TN","","986","img/food2.png","74","987","1","1","3","1","1,0.5,0,1,0.5,0,0.5,0,1","0,1,0.5,0,1,0.5,1,0.5,0","3","",""
"","html-keyboard-response","137","167297","0.0-137.0","3YGXWBAF713C77USTWK4WWHPTWKC4K","A11JGMLOFFPV65","3UUIU9GZC5R93N292LT21FRJ9VS5TN","","null","<img src=""img/food2.png"" style=""width:200px; border:14px solid green;"">","null","","","","","","","","","",""
"","image-keyboard-response","138","168346","0.0-138.0","3YGXWBAF713C77USTWK4WWHPTWKC4K","A11JGMLOFFPV65","3UUIU9GZC5R93N292LT21FRJ9VS5TN","","1047.4000000059605","img/food6.png","75","1048.5999999940395","2","1","1","1","1,0.5,0,1,0.5,0,0.5,0,1","0,1,0.5,0,1,0.5,1,0.5,0","3","",""
"","html-keyboard-response","139","168649","0.0-139.0","3YGXWBAF713C77USTWK4WWHPTWKC4K","A11JGMLOFFPV65","3UUIU9GZC5R93N292LT21FRJ9VS5TN","","null","<img src=""img/food6.png"" style=""width:200px; border:14px solid green;"">","null","","","","","","","","","",""
"","image-keyboard-response","140","169650","0.0-140.0","3YGXWBAF713C77USTWK4WWHPTWKC4K","A11JGMLOFFPV65","3UUIU9GZC5R93N292LT21FRJ9VS5TN","","1000.5999999940395","img/food2.png","74","1001.4000000059605","1","1","3","1","1,0.5,0,1,0.5,0,0.5,0,1","0,1,0.5,0,1,0.5,1,0.5,0","3","",""
"","html-keyboard-response","141","169953","0.0-141.0","3YGXWBAF713C77USTWK4WWHPTWKC4K","A11JGMLOFFPV65","3UUIU9GZC5R93N292LT21FRJ9VS5TN","","null","<img src=""img/food2.png"" style=""width:200px; border:14px solid green;"">","null","","","","","","","","","",""
"","image-keyboard-response","142","171084","0.0-142.0","3YGXWBAF713C77USTWK4WWHPTWKC4K","A11JGMLOFFPV65","3UUIU9GZC5R93N292LT21FRJ9VS5TN","","1130.199999988079","img/food6.png","75","1131.0999999940395","2","1","1","1","1,0.5,0,1,0.5,0,0.5,0,1","0,1,0.5,0,1,0.5,1,0.5,0","3","",""
"","html-keyboard-response","143","171387","0.0-143.0","3YGXWBAF713C77USTWK4WWHPTWKC4K","A11JGMLOFFPV65","3UUIU9GZC5R93N292LT21FRJ9VS5TN","","null","<img src=""img/food6.png"" style=""width:200px; border:14px solid green;"">","null","","","","","","","","","",""
"","image-keyboard-response","144","172394","0.0-144.0","3YGXWBAF713C77USTWK4WWHPTWKC4K","A11JGMLOFFPV65","3UUIU9GZC5R93N292LT21FRJ9VS5TN","","1006.5","img/food2.png","74","1007.2999999821186","1","1","3","1","1,0.5,0,1,0.5,0,0.5,0,1","0,1,0.5,0,1,0.5,1,0.5,0","3","",""
"","html-keyboard-response","145","172696","0.0-145.0","3YGXWBAF713C77USTWK4WWHPTWKC4K","A11JGMLOFFPV65","3UUIU9GZC5R93N292LT21FRJ9VS5TN","","null","<img src=""img/food2.png"" style=""width:200px; border:14px solid green;"">","null","","","","","","","","","",""
"","image-keyboard-response","146","173645","0.0-146.0","3YGXWBAF713C77USTWK4WWHPTWKC4K","A11JGMLOFFPV65","3UUIU9GZC5R93N292LT21FRJ9VS5TN","","947.5999999940395","img/food4.png","75","948.5","2","1","2","1","1,0.5,0,1,0.5,0,0.5,0,1","0,1,0.5,0,1,0.5,1,0.5,0","3","",""
"","html-keyboard-response","147","173948","0.0-147.0","3YGXWBAF713C77USTWK4WWHPTWKC4K","A11JGMLOFFPV65","3UUIU9GZC5R93N292LT21FRJ9VS5TN","","null","<img src=""img/food4.png"" style=""width:200px; border:14px solid green;"">","null","","","","","","","","","",""
"","image-keyboard-response","148","174974","0.0-148.0","3YGXWBAF713C77USTWK4WWHPTWKC4K","A11JGMLOFFPV65","3UUIU9GZC5R93N292LT21FRJ9VS5TN","","1025","img/food6.png","75","1026.1000000238419","2","1","1","1","1,0.5,0,1,0.5,0,0.5,0,1","0,1,0.5,0,1,0.5,1,0.5,0","3","",""
"","html-keyboard-response","149","175277","0.0-149.0","3YGXWBAF713C77USTWK4WWHPTWKC4K","A11JGMLOFFPV65","3UUIU9GZC5R93N292LT21FRJ9VS5TN","","null","<img src=""img/food6.png"" style=""width:200px; border:14px solid green;"">","null","","","","","","","","","",""
"","image-keyboard-response","150","176290","0.0-150.0","3YGXWBAF713C77USTWK4WWHPTWKC4K","A11JGMLOFFPV65","3UUIU9GZC5R93N292LT21FRJ9VS5TN","","1011","img/food2.png","74","1011.9000000059605","1","1","3","1","1,0.5,0,1,0.5,0,0.5,0,1","0,1,0.5,0,1,0.5,1,0.5,0","3","",""
"","html-keyboard-response","151","176592","0.0-151.0","3YGXWBAF713C77USTWK4WWHPTWKC4K","A11JGMLOFFPV65","3UUIU9GZC5R93N292LT21FRJ9VS5TN","","null","<img src=""img/food2.png"" style=""width:200px; border:14px solid green;"">","null","","","","","","","","","",""
"","image-keyboard-response","152","177584","0.0-152.0","3YGXWBAF713C77USTWK4WWHPTWKC4K","A11JGMLOFFPV65","3UUIU9GZC5R93N292LT21FRJ9VS5TN","","990.8000000119209","img/food2.png","74","991.8000000119209","1","1","3","1","1,0.5,0,1,0.5,0,0.5,0,1","0,1,0.5,0,1,0.5,1,0.5,0","3","",""
"","html-keyboard-response","153","177887","0.0-153.0","3YGXWBAF713C77USTWK4WWHPTWKC4K","A11JGMLOFFPV65","3UUIU9GZC5R93N292LT21FRJ9VS5TN","","null","<img src=""img/food2.png"" style=""width:200px; border:14px solid green;"">","null","","","","","","","","","",""
"","image-keyboard-response","154","179444","0.0-154.0","3YGXWBAF713C77USTWK4WWHPTWKC4K","A11JGMLOFFPV65","3UUIU9GZC5R93N292LT21FRJ9VS5TN","","1556.9000000059605","img/food4.png","75","1557.5999999940395","2","1","2","1","1,0.5,0,1,0.5,0,0.5,0,1","0,1,0.5,0,1,0.5,1,0.5,0","3","",""
"","html-keyboard-response","155","179747","0.0-155.0","3YGXWBAF713C77USTWK4WWHPTWKC4K","A11JGMLOFFPV65","3UUIU9GZC5R93N292LT21FRJ9VS5TN","","null","<img src=""img/food4.png"" style=""width:200px; border:14px solid green;"">","null","","","","","","","","","",""
"","image-keyboard-response","156","181566","0.0-156.0","3YGXWBAF713C77USTWK4WWHPTWKC4K","A11JGMLOFFPV65","3UUIU9GZC5R93N292LT21FRJ9VS5TN","","1815.800000011921","img/food2.png","74","1816.5999999940395","1","1","3","1","1,0.5,0,1,0.5,0,0.5,0,1","0,1,0.5,0,1,0.5,1,0.5,0","3","",""
"","html-keyboard-response","157","181868","0.0-157.0","3YGXWBAF713C77USTWK4WWHPTWKC4K","A11JGMLOFFPV65","3UUIU9GZC5R93N292LT21FRJ9VS5TN","","null","<img src=""img/food2.png"" style=""width:200px; border:14px solid green;"">","null","","","","","","","","","",""
"","image-keyboard-response","158","184016","0.0-158.0","3YGXWBAF713C77USTWK4WWHPTWKC4K","A11JGMLOFFPV65","3UUIU9GZC5R93N292LT21FRJ9VS5TN","","2146.800000011921","img/food2.png","74","2147.800000011921","1","1","3","1","1,0.5,0,1,0.5,0,0.5,0,1","0,1,0.5,0,1,0.5,1,0.5,0","3","",""
"","html-keyboard-response","159","184318","0.0-159.0","3YGXWBAF713C77USTWK4WWHPTWKC4K","A11JGMLOFFPV65","3UUIU9GZC5R93N292LT21FRJ9VS5TN","","null","<img src=""img/food2.png"" style=""width:200px; border:14px solid green;"">","null","","","","","","","","","",""
"","image-keyboard-response","160","185437","0.0-160.0","3YGXWBAF713C77USTWK4WWHPTWKC4K","A11JGMLOFFPV65","3UUIU9GZC5R93N292LT21FRJ9VS5TN","","1117.2000000178814","img/food6.png","75","1118.0999999940395","2","1","1","1","1,0.5,0,1,0.5,0,0.5,0,1","0,1,0.5,0,1,0.5,1,0.5,0","3","",""
"","html-keyboard-response","161","185740","0.0-161.0","3YGXWBAF713C77USTWK4WWHPTWKC4K","A11JGMLOFFPV65","3UUIU9GZC5R93N292LT21FRJ9VS5TN","","null","<img src=""img/food6.png"" style=""width:200px; border:14px solid green;"">","null","","","","","","","","","",""
"","image-keyboard-response","162","186946","0.0-162.0","3YGXWBAF713C77USTWK4WWHPTWKC4K","A11JGMLOFFPV65","3UUIU9GZC5R93N292LT21FRJ9VS5TN","","1205.5","img/food4.png","75","1206.4000000059605","2","1","2","1","1,0.5,0,1,0.5,0,0.5,0,1","0,1,0.5,0,1,0.5,1,0.5,0","3","",""
"","html-keyboard-response","163","187249","0.0-163.0","3YGXWBAF713C77USTWK4WWHPTWKC4K","A11JGMLOFFPV65","3UUIU9GZC5R93N292LT21FRJ9VS5TN","","null","<img src=""img/food4.png"" style=""width:200px; border:14px solid green;"">","null","","","","","","","","","",""
"","image-keyboard-response","164","188586","0.0-164.0","3YGXWBAF713C77USTWK4WWHPTWKC4K","A11JGMLOFFPV65","3UUIU9GZC5R93N292LT21FRJ9VS5TN","","1335.0999999940395","img/food2.png","74","1336","1","1","3","1","1,0.5,0,1,0.5,0,0.5,0,1","0,1,0.5,0,1,0.5,1,0.5,0","3","",""
"","html-keyboard-response","165","188888","0.0-165.0","3YGXWBAF713C77USTWK4WWHPTWKC4K","A11JGMLOFFPV65","3UUIU9GZC5R93N292LT21FRJ9VS5TN","","null","<img src=""img/food2.png"" style=""width:200px; border:14px solid green;"">","null","","","","","","","","","",""
"","image-keyboard-response","166","190716","0.0-166.0","3YGXWBAF713C77USTWK4WWHPTWKC4K","A11JGMLOFFPV65","3UUIU9GZC5R93N292LT21FRJ9VS5TN","","1826.2000000178814","img/food2.png","74","1827.4000000059605","1","1","3","1","1,0.5,0,1,0.5,0,0.5,0,1","0,1,0.5,0,1,0.5,1,0.5,0","3","",""
"","html-keyboard-response","167","191018","0.0-167.0","3YGXWBAF713C77USTWK4WWHPTWKC4K","A11JGMLOFFPV65","3UUIU9GZC5R93N292LT21FRJ9VS5TN","","null","<img src=""img/food2.png"" style=""width:200px; border:14px solid green;"">","null","","","","","","","","","",""
"","image-keyboard-response","168","192796","0.0-168.0","3YGXWBAF713C77USTWK4WWHPTWKC4K","A11JGMLOFFPV65","3UUIU9GZC5R93N292LT21FRJ9VS5TN","","1776.0999999940395","img/food4.png","75","1777.2000000178814","2","1","2","1","1,0.5,0,1,0.5,0,0.5,0,1","0,1,0.5,0,1,0.5,1,0.5,0","3","",""
"","html-keyboard-response","169","193099","0.0-169.0","3YGXWBAF713C77USTWK4WWHPTWKC4K","A11JGMLOFFPV65","3UUIU9GZC5R93N292LT21FRJ9VS5TN","","null","<img src=""img/food4.png"" style=""width:200px; border:14px solid green;"">","null","","","","","","","","","",""
"","image-keyboard-response","170","194566","0.0-170.0","3YGXWBAF713C77USTWK4WWHPTWKC4K","A11JGMLOFFPV65","3UUIU9GZC5R93N292LT21FRJ9VS5TN","","1466.699999988079","img/food6.png","75","1467.5","2","1","1","1","1,0.5,0,1,0.5,0,0.5,0,1","0,1,0.5,0,1,0.5,1,0.5,0","3","",""
"","html-keyboard-response","171","194869","0.0-171.0","3YGXWBAF713C77USTWK4WWHPTWKC4K","A11JGMLOFFPV65","3UUIU9GZC5R93N292LT21FRJ9VS5TN","","null","<img src=""img/food6.png"" style=""width:200px; border:14px solid green;"">","null","","","","","","","","","",""
"","image-keyboard-response","172","196481","0.0-172.0","3YGXWBAF713C77USTWK4WWHPTWKC4K","A11JGMLOFFPV65","3UUIU9GZC5R93N292LT21FRJ9VS5TN","","1610.699999988079","img/food2.png","74","1611.699999988079","1","1","3","1","1,0.5,0,1,0.5,0,0.5,0,1","0,1,0.5,0,1,0.5,1,0.5,0","3","",""
"","html-keyboard-response","173","196783","0.0-173.0","3YGXWBAF713C77USTWK4WWHPTWKC4K","A11JGMLOFFPV65","3UUIU9GZC5R93N292LT21FRJ9VS5TN","","null","<img src=""img/food2.png"" style=""width:200px; border:14px solid green;"">","null","","","","","","","","","",""
"","image-keyboard-response","174","198726","0.0-174.0","3YGXWBAF713C77USTWK4WWHPTWKC4K","A11JGMLOFFPV65","3UUIU9GZC5R93N292LT21FRJ9VS5TN","","1941.800000011921","img/food4.png","75","1942.7000000178814","2","1","2","1","1,0.5,0,1,0.5,0,0.5,0,1","0,1,0.5,0,1,0.5,1,0.5,0","3","",""
"","html-keyboard-response","175","199029","0.0-175.0","3YGXWBAF713C77USTWK4WWHPTWKC4K","A11JGMLOFFPV65","3UUIU9GZC5R93N292LT21FRJ9VS5TN","","null","<img src=""img/food4.png"" style=""width:200px; border:14px solid green;"">","null","","","","","","","","","",""
"","image-keyboard-response","176","200341","0.0-176.0","3YGXWBAF713C77USTWK4WWHPTWKC4K","A11JGMLOFFPV65","3UUIU9GZC5R93N292LT21FRJ9VS5TN","","1311","img/food4.png","75","1311.7999999821186","2","1","2","1","1,0.5,0,1,0.5,0,0.5,0,1","0,1,0.5,0,1,0.5,1,0.5,0","3","",""
"","html-keyboard-response","177","200643","0.0-177.0","3YGXWBAF713C77USTWK4WWHPTWKC4K","A11JGMLOFFPV65","3UUIU9GZC5R93N292LT21FRJ9VS5TN","","null","<img src=""img/food4.png"" style=""width:200px; border:14px solid green;"">","null","","","","","","","","","",""
"","image-keyboard-response","178","202785","0.0-178.0","3YGXWBAF713C77USTWK4WWHPTWKC4K","A11JGMLOFFPV65","3UUIU9GZC5R93N292LT21FRJ9VS5TN","","2141.199999988079","img/food2.png","74","2142.199999988079","1","1","3","1","1,0.5,0,1,0.5,0,0.5,0,1","0,1,0.5,0,1,0.5,1,0.5,0","3","",""
"","html-keyboard-response","179","203088","0.0-179.0","3YGXWBAF713C77USTWK4WWHPTWKC4K","A11JGMLOFFPV65","3UUIU9GZC5R93N292LT21FRJ9VS5TN","","null","<img src=""img/food2.png"" style=""width:200px; border:14px solid green;"">","null","","","","","","","","","",""
"","image-keyboard-response","180","204767","0.0-180.0","3YGXWBAF713C77USTWK4WWHPTWKC4K","A11JGMLOFFPV65","3UUIU9GZC5R93N292LT21FRJ9VS5TN","","1677.0999999940395","img/food6.png","75","1678.0999999940395","2","1","1","1","1,0.5,0,1,0.5,0,0.5,0,1","0,1,0.5,0,1,0.5,1,0.5,0","3","",""
"","html-keyboard-response","181","205070","0.0-181.0","3YGXWBAF713C77USTWK4WWHPTWKC4K","A11JGMLOFFPV65","3UUIU9GZC5R93N292LT21FRJ9VS5TN","","null","<img src=""img/food6.png"" style=""width:200px; border:14px solid green;"">","null","","","","","","","","","",""
"","html-keyboard-response","182","209101","0.0-182.0","3YGXWBAF713C77USTWK4WWHPTWKC4K","A11JGMLOFFPV65","3UUIU9GZC5R93N292LT21FRJ9VS5TN","","","","","","","","","","","","","",""
"","instructions","183","212786","0.0-183.0","3YGXWBAF713C77USTWK4WWHPTWKC4K","A11JGMLOFFPV65","3UUIU9GZC5R93N292LT21FRJ9VS5TN","[{""page_index"":0,""viewing_time"":1899.2999999821186},{""page_index"":1,""viewing_time"":1784.4000000059605}]","3684.0999999940395","","","","","","","","","","","",""
"","image-keyboard-response","184","213789","0.0-184.0","3YGXWBAF713C77USTWK4WWHPTWKC4K","A11JGMLOFFPV65","3UUIU9GZC5R93N292LT21FRJ9VS5TN","","","img/food5.png","","1002.8999999761581","-1","0","3","2","1,0.5,0,1,0.5,0,0.5,0,1","0.5,0,1,0.5,0,1,0,1,0.5","2","true",""
"","html-keyboard-response","185","214092","0.0-185.0","3YGXWBAF713C77USTWK4WWHPTWKC4K","A11JGMLOFFPV65","3UUIU9GZC5R93N292LT21FRJ9VS5TN","","null","<img src=""img/food5.png"" style=""width:200px;border:14px solid red;"">","null","","","","","","","","","",""
"","html-keyboard-response","186","217865","0.0-186.0-0.0","3YGXWBAF713C77USTWK4WWHPTWKC4K","A11JGMLOFFPV65","3UUIU9GZC5R93N292LT21FRJ9VS5TN","","","","","","","","","","","","","",""
"","image-keyboard-response","187","218867","0.0-187.0","3YGXWBAF713C77USTWK4WWHPTWKC4K","A11JGMLOFFPV65","3UUIU9GZC5R93N292LT21FRJ9VS5TN","","","img/food5.png","","1002.2000000178814","-1","0","3","2","1,0.5,0,1,0.5,0,0.5,0,1","0.5,0,1,0.5,0,1,0,1,0.5","2","true",""
"","html-keyboard-response","188","219170","0.0-188.0","3YGXWBAF713C77USTWK4WWHPTWKC4K","A11JGMLOFFPV65","3UUIU9GZC5R93N292LT21FRJ9VS5TN","","null","<img src=""img/food5.png"" style=""width:200px;border:14px solid red;"">","null","","","","","","","","","",""
"","html-keyboard-response","189","221306","0.0-189.0-0.0","3YGXWBAF713C77USTWK4WWHPTWKC4K","A11JGMLOFFPV65","3UUIU9GZC5R93N292LT21FRJ9VS5TN","","","","","","","","","","","","","",""
"","image-keyboard-response","190","222308","0.0-190.0","3YGXWBAF713C77USTWK4WWHPTWKC4K","A11JGMLOFFPV65","3UUIU9GZC5R93N292LT21FRJ9VS5TN","","","img/food1.png","","1002.4000000059605","-1","0","2","2","1,0.5,0,1,0.5,0,0.5,0,1","0.5,0,1,0.5,0,1,0,1,0.5","2","true",""
"","html-keyboard-response","191","222611","0.0-191.0","3YGXWBAF713C77USTWK4WWHPTWKC4K","A11JGMLOFFPV65","3UUIU9GZC5R93N292LT21FRJ9VS5TN","","null","<img src=""img/food1.png"" style=""width:200px;border:14px solid red;"">","null","","","","","","","","","",""
"","html-keyboard-response","192","224897","0.0-192.0-0.0","3YGXWBAF713C77USTWK4WWHPTWKC4K","A11JGMLOFFPV65","3UUIU9GZC5R93N292LT21FRJ9VS5TN","","","","","","","","","","","","","",""
"","image-keyboard-response","193","225899","0.0-193.0","3YGXWBAF713C77USTWK4WWHPTWKC4K","A11JGMLOFFPV65","3UUIU9GZC5R93N292LT21FRJ9VS5TN","","","img/food1.png","","1002.0999999940395","-1","0","2","2","1,0.5,0,1,0.5,0,0.5,0,1","0.5,0,1,0.5,0,1,0,1,0.5","2","true",""
"","html-keyboard-response","194","226202","0.0-194.0","3YGXWBAF713C77USTWK4WWHPTWKC4K","A11JGMLOFFPV65","3UUIU9GZC5R93N292LT21FRJ9VS5TN","","null","<img src=""img/food1.png"" style=""width:200px;border:14px solid red;"">","null","","","","","","","","","",""
"","html-keyboard-response","195","228095","0.0-195.0-0.0","3YGXWBAF713C77USTWK4WWHPTWKC4K","A11JGMLOFFPV65","3UUIU9GZC5R93N292LT21FRJ9VS5TN","","","","","","","","","","","","","",""
"","image-keyboard-response","196","229098","0.0-196.0","3YGXWBAF713C77USTWK4WWHPTWKC4K","A11JGMLOFFPV65","3UUIU9GZC5R93N292LT21FRJ9VS5TN","","","img/food3.png","","1002.5","-1","0","1","2","1,0.5,0,1,0.5,0,0.5,0,1","0.5,0,1,0.5,0,1,0,1,0.5","2","true",""
"","html-keyboard-response","197","229401","0.0-197.0","3YGXWBAF713C77USTWK4WWHPTWKC4K","A11JGMLOFFPV65","3UUIU9GZC5R93N292LT21FRJ9VS5TN","","null","<img src=""img/food3.png"" style=""width:200px;border:14px solid red;"">","null","","","","","","","","","",""
"","html-keyboard-response","198","231345","0.0-198.0-0.0","3YGXWBAF713C77USTWK4WWHPTWKC4K","A11JGMLOFFPV65","3UUIU9GZC5R93N292LT21FRJ9VS5TN","","","","","","","","","","","","","",""
"","image-keyboard-response","199","232235","0.0-199.0","3YGXWBAF713C77USTWK4WWHPTWKC4K","A11JGMLOFFPV65","3UUIU9GZC5R93N292LT21FRJ9VS5TN","","889","img/food5.png","75","890.0999999940395","2","1","3","2","1,0.5,0,1,0.5,0,0.5,0,1","0.5,0,1,0.5,0,1,0,1,0.5","2","false",""
"","html-keyboard-response","200","232538","0.0-200.0","3YGXWBAF713C77USTWK4WWHPTWKC4K","A11JGMLOFFPV65","3UUIU9GZC5R93N292LT21FRJ9VS5TN","","null","<img src=""img/food5.png"" style=""width:200px; border:14px solid green;"">","null","","","","","","","","","",""
"","image-keyboard-response","201","233541","0.0-202.0","3YGXWBAF713C77USTWK4WWHPTWKC4K","A11JGMLOFFPV65","3UUIU9GZC5R93N292LT21FRJ9VS5TN","","","img/food1.png","","1002.5","-1","0","2","2","1,0.5,0,1,0.5,0,0.5,0,1","0.5,0,1,0.5,0,1,0,1,0.5","2","true",""
"","html-keyboard-response","202","233842","0.0-203.0","3YGXWBAF713C77USTWK4WWHPTWKC4K","A11JGMLOFFPV65","3UUIU9GZC5R93N292LT21FRJ9VS5TN","","null","<img src=""img/food1.png"" style=""width:200px;border:14px solid red;"">","null","","","","","","","","","",""
"","html-keyboard-response","203","235450","0.0-204.0-0.0","3YGXWBAF713C77USTWK4WWHPTWKC4K","A11JGMLOFFPV65","3UUIU9GZC5R93N292LT21FRJ9VS5TN","","","","","","","","","","","","","",""
"","image-keyboard-response","204","236195","0.0-205.0","3YGXWBAF713C77USTWK4WWHPTWKC4K","A11JGMLOFFPV65","3UUIU9GZC5R93N292LT21FRJ9VS5TN","","743.7999999821186","img/food5.png","76","745.1999999880791","3","0","3","2","1,0.5,0,1,0.5,0,0.5,0,1","0.5,0,1,0.5,0,1,0,1,0.5","2","false",""
"","html-keyboard-response","205","236498","0.0-206.0","3YGXWBAF713C77USTWK4WWHPTWKC4K","A11JGMLOFFPV65","3UUIU9GZC5R93N292LT21FRJ9VS5TN","","null","<img src=""img/food5.png"" style=""width:200px;border:14px solid red;"">","null","","","","","","","","","",""
"","image-keyboard-response","206","237500","0.0-208.0","3YGXWBAF713C77USTWK4WWHPTWKC4K","A11JGMLOFFPV65","3UUIU9GZC5R93N292LT21FRJ9VS5TN","","","img/food3.png","","1001.9000000059605","-1","0","1","2","1,0.5,0,1,0.5,0,0.5,0,1","0.5,0,1,0.5,0,1,0,1,0.5","2","true",""
"","html-keyboard-response","207","237802","0.0-209.0","3YGXWBAF713C77USTWK4WWHPTWKC4K","A11JGMLOFFPV65","3UUIU9GZC5R93N292LT21FRJ9VS5TN","","null","<img src=""img/food3.png"" style=""width:200px;border:14px solid red;"">","null","","","","","","","","","",""
"","html-keyboard-response","208","239510","0.0-210.0-0.0","3YGXWBAF713C77USTWK4WWHPTWKC4K","A11JGMLOFFPV65","3UUIU9GZC5R93N292LT21FRJ9VS5TN","","","","","","","","","","","","","",""
"","image-keyboard-response","209","240345","0.0-211.0","3YGXWBAF713C77USTWK4WWHPTWKC4K","A11JGMLOFFPV65","3UUIU9GZC5R93N292LT21FRJ9VS5TN","","833.0999999940395","img/food3.png","74","834.4000000059605","1","1","1","2","1,0.5,0,1,0.5,0,0.5,0,1","0.5,0,1,0.5,0,1,0,1,0.5","2","false",""
"","html-keyboard-response","210","240648","0.0-212.0","3YGXWBAF713C77USTWK4WWHPTWKC4K","A11JGMLOFFPV65","3UUIU9GZC5R93N292LT21FRJ9VS5TN","","null","<img src=""img/food3.png"" style=""width:200px; border:14px solid green;"">","null","","","","","","","","","",""
"","image-keyboard-response","211","241652","0.0-214.0","3YGXWBAF713C77USTWK4WWHPTWKC4K","A11JGMLOFFPV65","3UUIU9GZC5R93N292LT21FRJ9VS5TN","","","img/food5.png","","1002.5","-1","0","3","2","1,0.5,0,1,0.5,0,0.5,0,1","0.5,0,1,0.5,0,1,0,1,0.5","2","true",""
"","html-keyboard-response","212","241955","0.0-215.0","3YGXWBAF713C77USTWK4WWHPTWKC4K","A11JGMLOFFPV65","3UUIU9GZC5R93N292LT21FRJ9VS5TN","","null","<img src=""img/food5.png"" style=""width:200px;border:14px solid red;"">","null","","","","","","","","","",""
"","html-keyboard-response","213","244122","0.0-216.0-0.0","3YGXWBAF713C77USTWK4WWHPTWKC4K","A11JGMLOFFPV65","3UUIU9GZC5R93N292LT21FRJ9VS5TN","","","","","","","","","","","","","",""
"","image-keyboard-response","214","245125","0.0-217.0","3YGXWBAF713C77USTWK4WWHPTWKC4K","A11JGMLOFFPV65","3UUIU9GZC5R93N292LT21FRJ9VS5TN","","","img/food5.png","","1002.8999999761581","-1","0","3","2","1,0.5,0,1,0.5,0,0.5,0,1","0.5,0,1,0.5,0,1,0,1,0.5","2","true",""
"","html-keyboard-response","215","245428","0.0-218.0","3YGXWBAF713C77USTWK4WWHPTWKC4K","A11JGMLOFFPV65","3UUIU9GZC5R93N292LT21FRJ9VS5TN","","null","<img src=""img/food5.png"" style=""width:200px;border:14px solid red;"">","null","","","","","","","","","",""
"","html-keyboard-response","216","246912","0.0-219.0-0.0","3YGXWBAF713C77USTWK4WWHPTWKC4K","A11JGMLOFFPV65","3UUIU9GZC5R93N292LT21FRJ9VS5TN","","","","","","","","","","","","","",""
"","image-keyboard-response","217","247914","0.0-220.0","3YGXWBAF713C77USTWK4WWHPTWKC4K","A11JGMLOFFPV65","3UUIU9GZC5R93N292LT21FRJ9VS5TN","","","img/food1.png","","1002.5","-1","0","2","2","1,0.5,0,1,0.5,0,0.5,0,1","0.5,0,1,0.5,0,1,0,1,0.5","2","true",""
"","html-keyboard-response","218","248217","0.0-221.0","3YGXWBAF713C77USTWK4WWHPTWKC4K","A11JGMLOFFPV65","3UUIU9GZC5R93N292LT21FRJ9VS5TN","","null","<img src=""img/food1.png"" style=""width:200px;border:14px solid red;"">","null","","","","","","","","","",""
"","html-keyboard-response","219","250027","0.0-222.0-0.0","3YGXWBAF713C77USTWK4WWHPTWKC4K","A11JGMLOFFPV65","3UUIU9GZC5R93N292LT21FRJ9VS5TN","","","","","","","","","","","","","",""
"","image-keyboard-response","220","251031","0.0-223.0","3YGXWBAF713C77USTWK4WWHPTWKC4K","A11JGMLOFFPV65","3UUIU9GZC5R93N292LT21FRJ9VS5TN","","","img/food3.png","","1003.0999999940395","-1","0","1","2","1,0.5,0,1,0.5,0,0.5,0,1","0.5,0,1,0.5,0,1,0,1,0.5","2","true",""
"","html-keyboard-response","221","251332","0.0-224.0","3YGXWBAF713C77USTWK4WWHPTWKC4K","A11JGMLOFFPV65","3UUIU9GZC5R93N292LT21FRJ9VS5TN","","null","<img src=""img/food3.png"" style=""width:200px;border:14px solid red;"">","null","","","","","","","","","",""
"","html-keyboard-response","222","255117","0.0-225.0-0.0","3YGXWBAF713C77USTWK4WWHPTWKC4K","A11JGMLOFFPV65","3UUIU9GZC5R93N292LT21FRJ9VS5TN","","","","","","","","","","","","","",""
"","image-keyboard-response","223","256120","0.0-226.0","3YGXWBAF713C77USTWK4WWHPTWKC4K","A11JGMLOFFPV65","3UUIU9GZC5R93N292LT21FRJ9VS5TN","","","img/food5.png","","1002.7999999821186","-1","0","3","2","1,0.5,0,1,0.5,0,0.5,0,1","0.5,0,1,0.5,0,1,0,1,0.5","2","true",""
"","html-keyboard-response","224","256423","0.0-227.0","3YGXWBAF713C77USTWK4WWHPTWKC4K","A11JGMLOFFPV65","3UUIU9GZC5R93N292LT21FRJ9VS5TN","","null","<img src=""img/food5.png"" style=""width:200px;border:14px solid red;"">","null","","","","","","","","","",""
"","html-keyboard-response","225","258177","0.0-228.0-0.0","3YGXWBAF713C77USTWK4WWHPTWKC4K","A11JGMLOFFPV65","3UUIU9GZC5R93N292LT21FRJ9VS5TN","","","","","","","","","","","","","",""
"","image-keyboard-response","226","259067","0.0-229.0","3YGXWBAF713C77USTWK4WWHPTWKC4K","A11JGMLOFFPV65","3UUIU9GZC5R93N292LT21FRJ9VS5TN","","889.1999999880791","img/food3.png","76","890.5","3","1","1","2","1,0.5,0,1,0.5,0,0.5,0,1","0.5,0,1,0.5,0,1,0,1,0.5","2","false",""
"","html-keyboard-response","227","259370","0.0-230.0","3YGXWBAF713C77USTWK4WWHPTWKC4K","A11JGMLOFFPV65","3UUIU9GZC5R93N292LT21FRJ9VS5TN","","null","<img src=""img/food3.png"" style=""width:200px; border:14px solid green;"">","null","","","","","","","","","",""
"","image-keyboard-response","228","260373","0.0-232.0","3YGXWBAF713C77USTWK4WWHPTWKC4K","A11JGMLOFFPV65","3UUIU9GZC5R93N292LT21FRJ9VS5TN","","","img/food3.png","","1002.5","-1","0","1","2","1,0.5,0,1,0.5,0,0.5,0,1","0.5,0,1,0.5,0,1,0,1,0.5","2","true",""
"","html-keyboard-response","229","260675","0.0-233.0","3YGXWBAF713C77USTWK4WWHPTWKC4K","A11JGMLOFFPV65","3UUIU9GZC5R93N292LT21FRJ9VS5TN","","null","<img src=""img/food3.png"" style=""width:200px;border:14px solid red;"">","null","","","","","","","","","",""
"","html-keyboard-response","230","262401","0.0-234.0-0.0","3YGXWBAF713C77USTWK4WWHPTWKC4K","A11JGMLOFFPV65","3UUIU9GZC5R93N292LT21FRJ9VS5TN","","","","","","","","","","","","","",""
"","image-keyboard-response","231","263404","0.0-235.0","3YGXWBAF713C77USTWK4WWHPTWKC4K","A11JGMLOFFPV65","3UUIU9GZC5R93N292LT21FRJ9VS5TN","","","img/food5.png","","1003","-1","0","3","2","1,0.5,0,1,0.5,0,0.5,0,1","0.5,0,1,0.5,0,1,0,1,0.5","2","true",""
"","html-keyboard-response","232","263707","0.0-236.0","3YGXWBAF713C77USTWK4WWHPTWKC4K","A11JGMLOFFPV65","3UUIU9GZC5R93N292LT21FRJ9VS5TN","","null","<img src=""img/food5.png"" style=""width:200px;border:14px solid red;"">","null","","","","","","","","","",""
"","html-keyboard-response","233","265132","0.0-237.0-0.0","3YGXWBAF713C77USTWK4WWHPTWKC4K","A11JGMLOFFPV65","3UUIU9GZC5R93N292LT21FRJ9VS5TN","","","","","","","","","","","","","",""
"","image-keyboard-response","234","266086","0.0-238.0","3YGXWBAF713C77USTWK4WWHPTWKC4K","A11JGMLOFFPV65","3UUIU9GZC5R93N292LT21FRJ9VS5TN","","952.7999999821186","img/food5.png","76","954.1999999880791","3","0","3","2","1,0.5,0,1,0.5,0,0.5,0,1","0.5,0,1,0.5,0,1,0,1,0.5","2","false",""
"","html-keyboard-response","235","266389","0.0-239.0","3YGXWBAF713C77USTWK4WWHPTWKC4K","A11JGMLOFFPV65","3UUIU9GZC5R93N292LT21FRJ9VS5TN","","null","<img src=""img/food5.png"" style=""width:200px;border:14px solid red;"">","null","","","","","","","","","",""
"","image-keyboard-response","236","267391","0.0-241.0","3YGXWBAF713C77USTWK4WWHPTWKC4K","A11JGMLOFFPV65","3UUIU9GZC5R93N292LT21FRJ9VS5TN","","","img/food3.png","","1002.5","-1","0","1","2","1,0.5,0,1,0.5,0,0.5,0,1","0.5,0,1,0.5,0,1,0,1,0.5","2","true",""
"","html-keyboard-response","237","267694","0.0-242.0","3YGXWBAF713C77USTWK4WWHPTWKC4K","A11JGMLOFFPV65","3UUIU9GZC5R93N292LT21FRJ9VS5TN","","null","<img src=""img/food3.png"" style=""width:200px;border:14px solid red;"">","null","","","","","","","","","",""
"","html-keyboard-response","238","270056","0.0-243.0-0.0","3YGXWBAF713C77USTWK4WWHPTWKC4K","A11JGMLOFFPV65","3UUIU9GZC5R93N292LT21FRJ9VS5TN","","","","","","","","","","","","","",""
"","image-keyboard-response","239","270896","0.0-244.0","3YGXWBAF713C77USTWK4WWHPTWKC4K","A11JGMLOFFPV65","3UUIU9GZC5R93N292LT21FRJ9VS5TN","","838.3000000119209","img/food3.png","76","839.6000000238419","3","1","1","2","1,0.5,0,1,0.5,0,0.5,0,1","0.5,0,1,0.5,0,1,0,1,0.5","2","false",""
"","html-keyboard-response","240","271198","0.0-245.0","3YGXWBAF713C77USTWK4WWHPTWKC4K","A11JGMLOFFPV65","3UUIU9GZC5R93N292LT21FRJ9VS5TN","","null","<img src=""img/food3.png"" style=""width:200px; border:14px solid green;"">","null","","","","","","","","","",""
"","image-keyboard-response","241","272201","0.0-247.0","3YGXWBAF713C77USTWK4WWHPTWKC4K","A11JGMLOFFPV65","3UUIU9GZC5R93N292LT21FRJ9VS5TN","","","img/food3.png","","1002.5","-1","0","1","2","1,0.5,0,1,0.5,0,0.5,0,1","0.5,0,1,0.5,0,1,0,1,0.5","2","true",""
"","html-keyboard-response","242","272504","0.0-248.0","3YGXWBAF713C77USTWK4WWHPTWKC4K","A11JGMLOFFPV65","3UUIU9GZC5R93N292LT21FRJ9VS5TN","","null","<img src=""img/food3.png"" style=""width:200px;border:14px solid red;"">","null","","","","","","","","","",""
"","html-keyboard-response","243","274456","0.0-249.0-0.0","3YGXWBAF713C77USTWK4WWHPTWKC4K","A11JGMLOFFPV65","3UUIU9GZC5R93N292LT21FRJ9VS5TN","","","","","","","","","","","","","",""
"","image-keyboard-response","244","275459","0.0-250.0","3YGXWBAF713C77USTWK4WWHPTWKC4K","A11JGMLOFFPV65","3UUIU9GZC5R93N292LT21FRJ9VS5TN","","","img/food5.png","","1002.2000000178814","-1","0","3","2","1,0.5,0,1,0.5,0,0.5,0,1","0.5,0,1,0.5,0,1,0,1,0.5","2","true",""
"","html-keyboard-response","245","275762","0.0-251.0","3YGXWBAF713C77USTWK4WWHPTWKC4K","A11JGMLOFFPV65","3UUIU9GZC5R93N292LT21FRJ9VS5TN","","null","<img src=""img/food5.png"" style=""width:200px;border:14px solid red;"">","null","","","","","","","","","",""
"","html-keyboard-response","246","279911","0.0-252.0-0.0","3YGXWBAF713C77USTWK4WWHPTWKC4K","A11JGMLOFFPV65","3UUIU9GZC5R93N292LT21FRJ9VS5TN","","","","","","","","","","","","","",""
"","image-keyboard-response","247","280914","0.0-253.0","3YGXWBAF713C77USTWK4WWHPTWKC4K","A11JGMLOFFPV65","3UUIU9GZC5R93N292LT21FRJ9VS5TN","","","img/food3.png","","1003.0999999940395","-1","0","1","2","1,0.5,0,1,0.5,0,0.5,0,1","0.5,0,1,0.5,0,1,0,1,0.5","2","true",""
"","html-keyboard-response","248","281217","0.0-254.0","3YGXWBAF713C77USTWK4WWHPTWKC4K","A11JGMLOFFPV65","3UUIU9GZC5R93N292LT21FRJ9VS5TN","","null","<img src=""img/food3.png"" style=""width:200px;border:14px solid red;"">","null","","","","","","","","","",""
"","html-keyboard-response","249","283401","0.0-255.0-0.0","3YGXWBAF713C77USTWK4WWHPTWKC4K","A11JGMLOFFPV65","3UUIU9GZC5R93N292LT21FRJ9VS5TN","","","","","","","","","","","","","",""
"","image-keyboard-response","250","284404","0.0-256.0","3YGXWBAF713C77USTWK4WWHPTWKC4K","A11JGMLOFFPV65","3UUIU9GZC5R93N292LT21FRJ9VS5TN","","","img/food5.png","","1002.1999999880791","-1","0","3","2","1,0.5,0,1,0.5,0,0.5,0,1","0.5,0,1,0.5,0,1,0,1,0.5","2","true",""
"","html-keyboard-response","251","284706","0.0-257.0","3YGXWBAF713C77USTWK4WWHPTWKC4K","A11JGMLOFFPV65","3UUIU9GZC5R93N292LT21FRJ9VS5TN","","null","<img src=""img/food5.png"" style=""width:200px;border:14px solid red;"">","null","","","","","","","","","",""
"","html-keyboard-response","252","285886","0.0-258.0-0.0","3YGXWBAF713C77USTWK4WWHPTWKC4K","A11JGMLOFFPV65","3UUIU9GZC5R93N292LT21FRJ9VS5TN","","","","","","","","","","","","","",""
"","image-keyboard-response","253","286755","0.0-259.0","3YGXWBAF713C77USTWK4WWHPTWKC4K","A11JGMLOFFPV65","3UUIU9GZC5R93N292LT21FRJ9VS5TN","","867.9000000059605","img/food5.png","74","869.1000000238419","1","0","3","2","1,0.5,0,1,0.5,0,0.5,0,1","0.5,0,1,0.5,0,1,0,1,0.5","2","false",""
"","html-keyboard-response","254","287058","0.0-260.0","3YGXWBAF713C77USTWK4WWHPTWKC4K","A11JGMLOFFPV65","3UUIU9GZC5R93N292LT21FRJ9VS5TN","","null","<img src=""img/food5.png"" style=""width:200px;border:14px solid red;"">","null","","","","","","","","","",""
"","image-keyboard-response","255","287826","0.0-262.0","3YGXWBAF713C77USTWK4WWHPTWKC4K","A11JGMLOFFPV65","3UUIU9GZC5R93N292LT21FRJ9VS5TN","","766.5","img/food5.png","75","767.5","2","1","3","2","1,0.5,0,1,0.5,0,0.5,0,1","0.5,0,1,0.5,0,1,0,1,0.5","2","false",""
"","html-keyboard-response","256","288129","0.0-263.0","3YGXWBAF713C77USTWK4WWHPTWKC4K","A11JGMLOFFPV65","3UUIU9GZC5R93N292LT21FRJ9VS5TN","","null","<img src=""img/food5.png"" style=""width:200px; border:14px solid green;"">","null","","","","","","","","","",""
"","image-keyboard-response","257","288971","0.0-265.0","3YGXWBAF713C77USTWK4WWHPTWKC4K","A11JGMLOFFPV65","3UUIU9GZC5R93N292LT21FRJ9VS5TN","","840.5","img/food5.png","75","841.7000000178814","2","1","3","2","1,0.5,0,1,0.5,0,0.5,0,1","0.5,0,1,0.5,0,1,0,1,0.5","2","false",""
"","html-keyboard-response","258","289273","0.0-266.0","3YGXWBAF713C77USTWK4WWHPTWKC4K","A11JGMLOFFPV65","3UUIU9GZC5R93N292LT21FRJ9VS5TN","","null","<img src=""img/food5.png"" style=""width:200px; border:14px solid green;"">","null","","","","","","","","","",""
"","image-keyboard-response","259","290276","0.0-268.0","3YGXWBAF713C77USTWK4WWHPTWKC4K","A11JGMLOFFPV65","3UUIU9GZC5R93N292LT21FRJ9VS5TN","","","img/food3.png","","1002.4000000059605","-1","0","1","2","1,0.5,0,1,0.5,0,0.5,0,1","0.5,0,1,0.5,0,1,0,1,0.5","2","true",""
"","html-keyboard-response","260","290579","0.0-269.0","3YGXWBAF713C77USTWK4WWHPTWKC4K","A11JGMLOFFPV65","3UUIU9GZC5R93N292LT21FRJ9VS5TN","","null","<img src=""img/food3.png"" style=""width:200px;border:14px solid red;"">","null","","","","","","","","","",""
"","html-keyboard-response","261","293005","0.0-270.0-0.0","3YGXWBAF713C77USTWK4WWHPTWKC4K","A11JGMLOFFPV65","3UUIU9GZC5R93N292LT21FRJ9VS5TN","","","","","","","","","","","","","",""
"","image-keyboard-response","262","294008","0.0-271.0","3YGXWBAF713C77USTWK4WWHPTWKC4K","A11JGMLOFFPV65","3UUIU9GZC5R93N292LT21FRJ9VS5TN","","","img/food1.png","","1002.2000000178814","-1","0","2","2","1,0.5,0,1,0.5,0,0.5,0,1","0.5,0,1,0.5,0,1,0,1,0.5","2","true",""
"","html-keyboard-response","263","294311","0.0-272.0","3YGXWBAF713C77USTWK4WWHPTWKC4K","A11JGMLOFFPV65","3UUIU9GZC5R93N292LT21FRJ9VS5TN","","null","<img src=""img/food1.png"" style=""width:200px;border:14px solid red;"">","null","","","","","","","","","",""
"","html-keyboard-response","264","296302","0.0-273.0-0.0","3YGXWBAF713C77USTWK4WWHPTWKC4K","A11JGMLOFFPV65","3UUIU9GZC5R93N292LT21FRJ9VS5TN","","","","","","","","","","","","","",""
"","image-keyboard-response","265","297305","0.0-274.0","3YGXWBAF713C77USTWK4WWHPTWKC4K","A11JGMLOFFPV65","3UUIU9GZC5R93N292LT21FRJ9VS5TN","","","img/food5.png","","1002.9000000059605","-1","0","3","2","1,0.5,0,1,0.5,0,0.5,0,1","0.5,0,1,0.5,0,1,0,1,0.5","2","true",""
"","html-keyboard-response","266","297608","0.0-275.0","3YGXWBAF713C77USTWK4WWHPTWKC4K","A11JGMLOFFPV65","3UUIU9GZC5R93N292LT21FRJ9VS5TN","","null","<img src=""img/food5.png"" style=""width:200px;border:14px solid red;"">","null","","","","","","","","","",""
"","html-keyboard-response","267","299156","0.0-276.0-0.0","3YGXWBAF713C77USTWK4WWHPTWKC4K","A11JGMLOFFPV65","3UUIU9GZC5R93N292LT21FRJ9VS5TN","","","","","","","","","","","","","",""
"","image-keyboard-response","268","299956","0.0-277.0","3YGXWBAF713C77USTWK4WWHPTWKC4K","A11JGMLOFFPV65","3UUIU9GZC5R93N292LT21FRJ9VS5TN","","799.2999999821186","img/food5.png","75","800.5999999940395","2","1","3","2","1,0.5,0,1,0.5,0,0.5,0,1","0.5,0,1,0.5,0,1,0,1,0.5","2","false",""
"","html-keyboard-response","269","300259","0.0-278.0","3YGXWBAF713C77USTWK4WWHPTWKC4K","A11JGMLOFFPV65","3UUIU9GZC5R93N292LT21FRJ9VS5TN","","null","<img src=""img/food5.png"" style=""width:200px; border:14px solid green;"">","null","","","","","","","","","",""
"","image-keyboard-response","270","301262","0.0-280.0","3YGXWBAF713C77USTWK4WWHPTWKC4K","A11JGMLOFFPV65","3UUIU9GZC5R93N292LT21FRJ9VS5TN","","","img/food3.png","","1002.2999999821186","-1","0","1","2","1,0.5,0,1,0.5,0,0.5,0,1","0.5,0,1,0.5,0,1,0,1,0.5","2","true",""
"","html-keyboard-response","271","301565","0.0-281.0","3YGXWBAF713C77USTWK4WWHPTWKC4K","A11JGMLOFFPV65","3UUIU9GZC5R93N292LT21FRJ9VS5TN","","null","<img src=""img/food3.png"" style=""width:200px;border:14px solid red;"">","null","","","","","","","","","",""
"","html-keyboard-response","272","303081","0.0-282.0-0.0","3YGXWBAF713C77USTWK4WWHPTWKC4K","A11JGMLOFFPV65","3UUIU9GZC5R93N292LT21FRJ9VS5TN","","","","","","","","","","","","","",""
"","image-keyboard-response","273","304084","0.0-283.0","3YGXWBAF713C77USTWK4WWHPTWKC4K","A11JGMLOFFPV65","3UUIU9GZC5R93N292LT21FRJ9VS5TN","","","img/food5.png","","1003","-1","0","3","2","1,0.5,0,1,0.5,0,0.5,0,1","0.5,0,1,0.5,0,1,0,1,0.5","2","true",""
"","html-keyboard-response","274","304387","0.0-284.0","3YGXWBAF713C77USTWK4WWHPTWKC4K","A11JGMLOFFPV65","3UUIU9GZC5R93N292LT21FRJ9VS5TN","","null","<img src=""img/food5.png"" style=""width:200px;border:14px solid red;"">","null","","","","","","","","","",""
"","html-keyboard-response","275","305767","0.0-285.0-0.0","3YGXWBAF713C77USTWK4WWHPTWKC4K","A11JGMLOFFPV65","3UUIU9GZC5R93N292LT21FRJ9VS5TN","","","","","","","","","","","","","",""
"","image-keyboard-response","276","306769","0.0-286.0","3YGXWBAF713C77USTWK4WWHPTWKC4K","A11JGMLOFFPV65","3UUIU9GZC5R93N292LT21FRJ9VS5TN","","","img/food1.png","","1002.1999999880791","-1","0","2","2","1,0.5,0,1,0.5,0,0.5,0,1","0.5,0,1,0.5,0,1,0,1,0.5","2","true",""
"","html-keyboard-response","277","307072","0.0-287.0","3YGXWBAF713C77USTWK4WWHPTWKC4K","A11JGMLOFFPV65","3UUIU9GZC5R93N292LT21FRJ9VS5TN","","null","<img src=""img/food1.png"" style=""width:200px;border:14px solid red;"">","null","","","","","","","","","",""
"","html-keyboard-response","278","308647","0.0-288.0-0.0","3YGXWBAF713C77USTWK4WWHPTWKC4K","A11JGMLOFFPV65","3UUIU9GZC5R93N292LT21FRJ9VS5TN","","","","","","","","","","","","","",""
"","image-keyboard-response","279","309650","0.0-289.0","3YGXWBAF713C77USTWK4WWHPTWKC4K","A11JGMLOFFPV65","3UUIU9GZC5R93N292LT21FRJ9VS5TN","","","img/food5.png","","1002.5","-1","0","3","2","1,0.5,0,1,0.5,0,0.5,0,1","0.5,0,1,0.5,0,1,0,1,0.5","2","true",""
"","html-keyboard-response","280","309952","0.0-290.0","3YGXWBAF713C77USTWK4WWHPTWKC4K","A11JGMLOFFPV65","3UUIU9GZC5R93N292LT21FRJ9VS5TN","","null","<img src=""img/food5.png"" style=""width:200px;border:14px solid red;"">","null","","","","","","","","","",""
"","html-keyboard-response","281","311427","0.0-291.0-0.0","3YGXWBAF713C77USTWK4WWHPTWKC4K","A11JGMLOFFPV65","3UUIU9GZC5R93N292LT21FRJ9VS5TN","","","","","","","","","","","","","",""
"","image-keyboard-response","282","312181","0.0-292.0","3YGXWBAF713C77USTWK4WWHPTWKC4K","A11JGMLOFFPV65","3UUIU9GZC5R93N292LT21FRJ9VS5TN","","753.5999999940395","img/food5.png","75","754.7000000178814","2","1","3","2","1,0.5,0,1,0.5,0,0.5,0,1","0.5,0,1,0.5,0,1,0,1,0.5","2","false",""
"","html-keyboard-response","283","312484","0.0-293.0","3YGXWBAF713C77USTWK4WWHPTWKC4K","A11JGMLOFFPV65","3UUIU9GZC5R93N292LT21FRJ9VS5TN","","null","<img src=""img/food5.png"" style=""width:200px; border:14px solid green;"">","null","","","","","","","","","",""
"","image-keyboard-response","284","313486","0.0-295.0","3YGXWBAF713C77USTWK4WWHPTWKC4K","A11JGMLOFFPV65","3UUIU9GZC5R93N292LT21FRJ9VS5TN","","","img/food1.png","","1002.5","-1","0","2","2","1,0.5,0,1,0.5,0,0.5,0,1","0.5,0,1,0.5,0,1,0,1,0.5","2","true",""
"","html-keyboard-response","285","313789","0.0-296.0","3YGXWBAF713C77USTWK4WWHPTWKC4K","A11JGMLOFFPV65","3UUIU9GZC5R93N292LT21FRJ9VS5TN","","null","<img src=""img/food1.png"" style=""width:200px;border:14px solid red;"">","null","","","","","","","","","",""
"","html-keyboard-response","286","315852","0.0-297.0-0.0","3YGXWBAF713C77USTWK4WWHPTWKC4K","A11JGMLOFFPV65","3UUIU9GZC5R93N292LT21FRJ9VS5TN","","","","","","","","","","","","","",""
"","image-keyboard-response","287","316854","0.0-298.0","3YGXWBAF713C77USTWK4WWHPTWKC4K","A11JGMLOFFPV65","3UUIU9GZC5R93N292LT21FRJ9VS5TN","","","img/food1.png","","1002.7000000178814","-1","0","2","2","1,0.5,0,1,0.5,0,0.5,0,1","0.5,0,1,0.5,0,1,0,1,0.5","2","true",""
"","html-keyboard-response","288","317157","0.0-299.0","3YGXWBAF713C77USTWK4WWHPTWKC4K","A11JGMLOFFPV65","3UUIU9GZC5R93N292LT21FRJ9VS5TN","","null","<img src=""img/food1.png"" style=""width:200px;border:14px solid red;"">","null","","","","","","","","","",""
"","html-keyboard-response","289","318632","0.0-300.0-0.0","3YGXWBAF713C77USTWK4WWHPTWKC4K","A11JGMLOFFPV65","3UUIU9GZC5R93N292LT21FRJ9VS5TN","","","","","","","","","","","","","",""
"","image-keyboard-response","290","319481","0.0-301.0","3YGXWBAF713C77USTWK4WWHPTWKC4K","A11JGMLOFFPV65","3UUIU9GZC5R93N292LT21FRJ9VS5TN","","848.5","img/food1.png","76","849.8000000119209","3","1","2","2","1,0.5,0,1,0.5,0,0.5,0,1","0.5,0,1,0.5,0,1,0,1,0.5","2","false",""
"","html-keyboard-response","291","319784","0.0-302.0","3YGXWBAF713C77USTWK4WWHPTWKC4K","A11JGMLOFFPV65","3UUIU9GZC5R93N292LT21FRJ9VS5TN","","null","<img src=""img/food1.png"" style=""width:200px; border:14px solid green;"">","null","","","","","","","","","",""
"","image-keyboard-response","292","320686","0.0-304.0","3YGXWBAF713C77USTWK4WWHPTWKC4K","A11JGMLOFFPV65","3UUIU9GZC5R93N292LT21FRJ9VS5TN","","900.5","img/food1.png","76","901.5","3","1","2","2","1,0.5,0,1,0.5,0,0.5,0,1","0.5,0,1,0.5,0,1,0,1,0.5","2","false",""
"","html-keyboard-response","293","320989","0.0-305.0","3YGXWBAF713C77USTWK4WWHPTWKC4K","A11JGMLOFFPV65","3UUIU9GZC5R93N292LT21FRJ9VS5TN","","null","<img src=""img/food1.png"" style=""width:200px; border:14px solid green;"">","null","","","","","","","","","",""
"","image-keyboard-response","294","321982","0.0-307.0","3YGXWBAF713C77USTWK4WWHPTWKC4K","A11JGMLOFFPV65","3UUIU9GZC5R93N292LT21FRJ9VS5TN","","991.8000000119209","img/food1.png","76","992.6999999880791","3","1","2","2","1,0.5,0,1,0.5,0,0.5,0,1","0.5,0,1,0.5,0,1,0,1,0.5","2","false",""
"","html-keyboard-response","295","322284","0.0-308.0","3YGXWBAF713C77USTWK4WWHPTWKC4K","A11JGMLOFFPV65","3UUIU9GZC5R93N292LT21FRJ9VS5TN","","null","<img src=""img/food1.png"" style=""width:200px; border:14px solid green;"">","null","","","","","","","","","",""
"","image-keyboard-response","296","323287","0.0-310.0","3YGXWBAF713C77USTWK4WWHPTWKC4K","A11JGMLOFFPV65","3UUIU9GZC5R93N292LT21FRJ9VS5TN","","","img/food3.png","","1002.5","-1","0","1","2","1,0.5,0,1,0.5,0,0.5,0,1","0.5,0,1,0.5,0,1,0,1,0.5","2","true",""
"","html-keyboard-response","297","323590","0.0-311.0","3YGXWBAF713C77USTWK4WWHPTWKC4K","A11JGMLOFFPV65","3UUIU9GZC5R93N292LT21FRJ9VS5TN","","null","<img src=""img/food3.png"" style=""width:200px;border:14px solid red;"">","null","","","","","","","","","",""
"","html-keyboard-response","298","325332","0.0-312.0-0.0","3YGXWBAF713C77USTWK4WWHPTWKC4K","A11JGMLOFFPV65","3UUIU9GZC5R93N292LT21FRJ9VS5TN","","","","","","","","","","","","","",""
"","image-keyboard-response","299","326334","0.0-313.0","3YGXWBAF713C77USTWK4WWHPTWKC4K","A11JGMLOFFPV65","3UUIU9GZC5R93N292LT21FRJ9VS5TN","","","img/food5.png","","1002.5","-1","0","3","2","1,0.5,0,1,0.5,0,0.5,0,1","0.5,0,1,0.5,0,1,0,1,0.5","2","true",""
"","html-keyboard-response","300","326637","0.0-314.0","3YGXWBAF713C77USTWK4WWHPTWKC4K","A11JGMLOFFPV65","3UUIU9GZC5R93N292LT21FRJ9VS5TN","","null","<img src=""img/food5.png"" style=""width:200px;border:14px solid red;"">","null","","","","","","","","","",""
"","html-keyboard-response","301","328201","0.0-315.0-0.0","3YGXWBAF713C77USTWK4WWHPTWKC4K","A11JGMLOFFPV65","3UUIU9GZC5R93N292LT21FRJ9VS5TN","","","","","","","","","","","","","",""
"","image-keyboard-response","302","329204","0.0-316.0","3YGXWBAF713C77USTWK4WWHPTWKC4K","A11JGMLOFFPV65","3UUIU9GZC5R93N292LT21FRJ9VS5TN","","","img/food1.png","","1002.9000000059605","-1","0","2","2","1,0.5,0,1,0.5,0,0.5,0,1","0.5,0,1,0.5,0,1,0,1,0.5","2","true",""
"","html-keyboard-response","303","329507","0.0-317.0","3YGXWBAF713C77USTWK4WWHPTWKC4K","A11JGMLOFFPV65","3UUIU9GZC5R93N292LT21FRJ9VS5TN","","null","<img src=""img/food1.png"" style=""width:200px;border:14px solid red;"">","null","","","","","","","","","",""
"","html-keyboard-response","304","330926","0.0-318.0-0.0","3YGXWBAF713C77USTWK4WWHPTWKC4K","A11JGMLOFFPV65","3UUIU9GZC5R93N292LT21FRJ9VS5TN","","","","","","","","","","","","","",""
"","image-keyboard-response","305","331928","0.0-319.0","3YGXWBAF713C77USTWK4WWHPTWKC4K","A11JGMLOFFPV65","3UUIU9GZC5R93N292LT21FRJ9VS5TN","","","img/food3.png","","1002.4000000059605","-1","0","1","2","1,0.5,0,1,0.5,0,0.5,0,1","0.5,0,1,0.5,0,1,0,1,0.5","2","true",""
"","html-keyboard-response","306","332231","0.0-320.0","3YGXWBAF713C77USTWK4WWHPTWKC4K","A11JGMLOFFPV65","3UUIU9GZC5R93N292LT21FRJ9VS5TN","","null","<img src=""img/food3.png"" style=""width:200px;border:14px solid red;"">","null","","","","","","","","","",""
"","html-keyboard-response","307","335016","0.0-321.0-0.0","3YGXWBAF713C77USTWK4WWHPTWKC4K","A11JGMLOFFPV65","3UUIU9GZC5R93N292LT21FRJ9VS5TN","","","","","","","","","","","","","",""
"","image-keyboard-response","308","335961","0.0-322.0","3YGXWBAF713C77USTWK4WWHPTWKC4K","A11JGMLOFFPV65","3UUIU9GZC5R93N292LT21FRJ9VS5TN","","943.5999999940395","img/food1.png","76","945","3","1","2","2","1,0.5,0,1,0.5,0,0.5,0,1","0.5,0,1,0.5,0,1,0,1,0.5","2","false",""
"","html-keyboard-response","309","336264","0.0-323.0","3YGXWBAF713C77USTWK4WWHPTWKC4K","A11JGMLOFFPV65","3UUIU9GZC5R93N292LT21FRJ9VS5TN","","null","<img src=""img/food1.png"" style=""width:200px; border:14px solid green;"">","null","","","","","","","","","",""
"","image-keyboard-response","310","336971","0.0-325.0","3YGXWBAF713C77USTWK4WWHPTWKC4K","A11JGMLOFFPV65","3UUIU9GZC5R93N292LT21FRJ9VS5TN","","705.5","img/food1.png","76","706.4000000059605","3","1","2","2","1,0.5,0,1,0.5,0,0.5,0,1","0.5,0,1,0.5,0,1,0,1,0.5","2","false",""
"","html-keyboard-response","311","337274","0.0-326.0","3YGXWBAF713C77USTWK4WWHPTWKC4K","A11JGMLOFFPV65","3UUIU9GZC5R93N292LT21FRJ9VS5TN","","null","<img src=""img/food1.png"" style=""width:200px; border:14px solid green;"">","null","","","","","","","","","",""
"","image-keyboard-response","312","338066","0.0-328.0","3YGXWBAF713C77USTWK4WWHPTWKC4K","A11JGMLOFFPV65","3UUIU9GZC5R93N292LT21FRJ9VS5TN","","791.1000000238419","img/food1.png","76","792","3","1","2","2","1,0.5,0,1,0.5,0,0.5,0,1","0.5,0,1,0.5,0,1,0,1,0.5","2","false",""
"","html-keyboard-response","313","338368","0.0-329.0","3YGXWBAF713C77USTWK4WWHPTWKC4K","A11JGMLOFFPV65","3UUIU9GZC5R93N292LT21FRJ9VS5TN","","null","<img src=""img/food1.png"" style=""width:200px; border:14px solid green;"">","null","","","","","","","","","",""
"","image-keyboard-response","314","339372","0.0-331.0","3YGXWBAF713C77USTWK4WWHPTWKC4K","A11JGMLOFFPV65","3UUIU9GZC5R93N292LT21FRJ9VS5TN","","","img/food3.png","","1002.5999999940395","-1","0","1","2","1,0.5,0,1,0.5,0,0.5,0,1","0.5,0,1,0.5,0,1,0,1,0.5","2","true",""
"","html-keyboard-response","315","339675","0.0-332.0","3YGXWBAF713C77USTWK4WWHPTWKC4K","A11JGMLOFFPV65","3UUIU9GZC5R93N292LT21FRJ9VS5TN","","null","<img src=""img/food3.png"" style=""width:200px;border:14px solid red;"">","null","","","","","","","","","",""
"","html-keyboard-response","316","340906","0.0-333.0-0.0","3YGXWBAF713C77USTWK4WWHPTWKC4K","A11JGMLOFFPV65","3UUIU9GZC5R93N292LT21FRJ9VS5TN","","","","","","","","","","","","","",""
"","image-keyboard-response","317","341751","0.0-334.0","3YGXWBAF713C77USTWK4WWHPTWKC4K","A11JGMLOFFPV65","3UUIU9GZC5R93N292LT21FRJ9VS5TN","","843.5","img/food3.png","76","844.7999999821186","3","1","1","2","1,0.5,0,1,0.5,0,0.5,0,1","0.5,0,1,0.5,0,1,0,1,0.5","2","false",""
"","html-keyboard-response","318","342054","0.0-335.0","3YGXWBAF713C77USTWK4WWHPTWKC4K","A11JGMLOFFPV65","3UUIU9GZC5R93N292LT21FRJ9VS5TN","","null","<img src=""img/food3.png"" style=""width:200px; border:14px solid green;"">","null","","","","","","","","","",""
"","image-keyboard-response","319","342536","0.0-337.0","3YGXWBAF713C77USTWK4WWHPTWKC4K","A11JGMLOFFPV65","3UUIU9GZC5R93N292LT21FRJ9VS5TN","","480.40000000596046","img/food3.png","76","481.5","3","1","1","2","1,0.5,0,1,0.5,0,0.5,0,1","0.5,0,1,0.5,0,1,0,1,0.5","2","false",""
"","html-keyboard-response","320","342839","0.0-338.0","3YGXWBAF713C77USTWK4WWHPTWKC4K","A11JGMLOFFPV65","3UUIU9GZC5R93N292LT21FRJ9VS5TN","","null","<img src=""img/food3.png"" style=""width:200px; border:14px solid green;"">","null","","","","","","","","","",""
"","image-keyboard-response","321","343316","0.0-340.0","3YGXWBAF713C77USTWK4WWHPTWKC4K","A11JGMLOFFPV65","3UUIU9GZC5R93N292LT21FRJ9VS5TN","","475.80000001192093","img/food1.png","76","476.59999999403954","3","1","2","2","1,0.5,0,1,0.5,0,0.5,0,1","0.5,0,1,0.5,0,1,0,1,0.5","2","false",""
"","html-keyboard-response","322","343618","0.0-341.0","3YGXWBAF713C77USTWK4WWHPTWKC4K","A11JGMLOFFPV65","3UUIU9GZC5R93N292LT21FRJ9VS5TN","","null","<img src=""img/food1.png"" style=""width:200px; border:14px solid green;"">","null","","","","","","","","","",""
"","image-keyboard-response","323","344091","0.0-343.0","3YGXWBAF713C77USTWK4WWHPTWKC4K","A11JGMLOFFPV65","3UUIU9GZC5R93N292LT21FRJ9VS5TN","","471.5","img/food3.png","76","472.5","3","1","1","2","1,0.5,0,1,0.5,0,0.5,0,1","0.5,0,1,0.5,0,1,0,1,0.5","2","false",""
"","html-keyboard-response","324","344394","0.0-344.0","3YGXWBAF713C77USTWK4WWHPTWKC4K","A11JGMLOFFPV65","3UUIU9GZC5R93N292LT21FRJ9VS5TN","","null","<img src=""img/food3.png"" style=""width:200px; border:14px solid green;"">","null","","","","","","","","","",""
"","image-keyboard-response","325","345226","0.0-346.0","3YGXWBAF713C77USTWK4WWHPTWKC4K","A11JGMLOFFPV65","3UUIU9GZC5R93N292LT21FRJ9VS5TN","","830.5999999940395","img/food1.png","76","831.5","3","1","2","2","1,0.5,0,1,0.5,0,0.5,0,1","0.5,0,1,0.5,0,1,0,1,0.5","2","false",""
"","html-keyboard-response","326","345528","0.0-347.0","3YGXWBAF713C77USTWK4WWHPTWKC4K","A11JGMLOFFPV65","3UUIU9GZC5R93N292LT21FRJ9VS5TN","","null","<img src=""img/food1.png"" style=""width:200px; border:14px solid green;"">","null","","","","","","","","","",""
"","image-keyboard-response","327","346346","0.0-349.0","3YGXWBAF713C77USTWK4WWHPTWKC4K","A11JGMLOFFPV65","3UUIU9GZC5R93N292LT21FRJ9VS5TN","","816.3000000119209","img/food3.png","76","817.2000000178814","3","1","1","2","1,0.5,0,1,0.5,0,0.5,0,1","0.5,0,1,0.5,0,1,0,1,0.5","2","false",""
"","html-keyboard-response","328","346648","0.0-350.0","3YGXWBAF713C77USTWK4WWHPTWKC4K","A11JGMLOFFPV65","3UUIU9GZC5R93N292LT21FRJ9VS5TN","","null","<img src=""img/food3.png"" style=""width:200px; border:14px solid green;"">","null","","","","","","","","","",""
"","image-keyboard-response","329","347395","0.0-352.0","3YGXWBAF713C77USTWK4WWHPTWKC4K","A11JGMLOFFPV65","3UUIU9GZC5R93N292LT21FRJ9VS5TN","","746.0999999940395","img/food3.png","76","747.1000000238419","3","1","1","2","1,0.5,0,1,0.5,0,0.5,0,1","0.5,0,1,0.5,0,1,0,1,0.5","2","false",""
"","html-keyboard-response","330","347698","0.0-353.0","3YGXWBAF713C77USTWK4WWHPTWKC4K","A11JGMLOFFPV65","3UUIU9GZC5R93N292LT21FRJ9VS5TN","","null","<img src=""img/food3.png"" style=""width:200px; border:14px solid green;"">","null","","","","","","","","","",""
"","image-keyboard-response","331","348576","0.0-355.0","3YGXWBAF713C77USTWK4WWHPTWKC4K","A11JGMLOFFPV65","3UUIU9GZC5R93N292LT21FRJ9VS5TN","","876.6999999880791","img/food5.png","75","877.5999999940395","2","1","3","2","1,0.5,0,1,0.5,0,0.5,0,1","0.5,0,1,0.5,0,1,0,1,0.5","2","false",""
"","html-keyboard-response","332","348878","0.0-356.0","3YGXWBAF713C77USTWK4WWHPTWKC4K","A11JGMLOFFPV65","3UUIU9GZC5R93N292LT21FRJ9VS5TN","","null","<img src=""img/food5.png"" style=""width:200px; border:14px solid green;"">","null","","","","","","","","","",""
"","image-keyboard-response","333","349830","0.0-358.0","3YGXWBAF713C77USTWK4WWHPTWKC4K","A11JGMLOFFPV65","3UUIU9GZC5R93N292LT21FRJ9VS5TN","","951","img/food1.png","76","951.8000000119209","3","1","2","2","1,0.5,0,1,0.5,0,0.5,0,1","0.5,0,1,0.5,0,1,0,1,0.5","2","false",""
"","html-keyboard-response","334","350133","0.0-359.0","3YGXWBAF713C77USTWK4WWHPTWKC4K","A11JGMLOFFPV65","3UUIU9GZC5R93N292LT21FRJ9VS5TN","","null","<img src=""img/food1.png"" style=""width:200px; border:14px solid green;"">","null","","","","","","","","","",""
"","image-keyboard-response","335","350891","0.0-361.0","3YGXWBAF713C77USTWK4WWHPTWKC4K","A11JGMLOFFPV65","3UUIU9GZC5R93N292LT21FRJ9VS5TN","","756.5999999940395","img/food1.png","76","757.5999999940395","3","1","2","2","1,0.5,0,1,0.5,0,0.5,0,1","0.5,0,1,0.5,0,1,0,1,0.5","2","false",""
"","html-keyboard-response","336","351194","0.0-362.0","3YGXWBAF713C77USTWK4WWHPTWKC4K","A11JGMLOFFPV65","3UUIU9GZC5R93N292LT21FRJ9VS5TN","","null","<img src=""img/food1.png"" style=""width:200px; border:14px solid green;"">","null","","","","","","","","","",""
"","image-keyboard-response","337","352196","0.0-364.0","3YGXWBAF713C77USTWK4WWHPTWKC4K","A11JGMLOFFPV65","3UUIU9GZC5R93N292LT21FRJ9VS5TN","","","img/food5.png","","1002.5999999940395","-1","0","3","2","1,0.5,0,1,0.5,0,0.5,0,1","0.5,0,1,0.5,0,1,0,1,0.5","2","true",""
"","html-keyboard-response","338","352499","0.0-365.0","3YGXWBAF713C77USTWK4WWHPTWKC4K","A11JGMLOFFPV65","3UUIU9GZC5R93N292LT21FRJ9VS5TN","","null","<img src=""img/food5.png"" style=""width:200px;border:14px solid red;"">","null","","","","","","","","","",""
"","html-keyboard-response","339","354030","0.0-366.0-0.0","3YGXWBAF713C77USTWK4WWHPTWKC4K","A11JGMLOFFPV65","3UUIU9GZC5R93N292LT21FRJ9VS5TN","","","","","","","","","","","","","",""
"","image-keyboard-response","340","355033","0.0-367.0","3YGXWBAF713C77USTWK4WWHPTWKC4K","A11JGMLOFFPV65","3UUIU9GZC5R93N292LT21FRJ9VS5TN","","","img/food5.png","","1002.8000000119209","-1","0","3","2","1,0.5,0,1,0.5,0,0.5,0,1","0.5,0,1,0.5,0,1,0,1,0.5","2","true",""
"","html-keyboard-response","341","355335","0.0-368.0","3YGXWBAF713C77USTWK4WWHPTWKC4K","A11JGMLOFFPV65","3UUIU9GZC5R93N292LT21FRJ9VS5TN","","null","<img src=""img/food5.png"" style=""width:200px;border:14px solid red;"">","null","","","","","","","","","",""
"","html-keyboard-response","342","356591","0.0-369.0-0.0","3YGXWBAF713C77USTWK4WWHPTWKC4K","A11JGMLOFFPV65","3UUIU9GZC5R93N292LT21FRJ9VS5TN","","","","","","","","","","","","","",""
"","image-keyboard-response","343","357486","0.0-370.0","3YGXWBAF713C77USTWK4WWHPTWKC4K","A11JGMLOFFPV65","3UUIU9GZC5R93N292LT21FRJ9VS5TN","","893.3999999761581","img/food1.png","76","894.6999999880791","3","1","2","2","1,0.5,0,1,0.5,0,0.5,0,1","0.5,0,1,0.5,0,1,0,1,0.5","2","false",""
"","html-keyboard-response","344","357789","0.0-371.0","3YGXWBAF713C77USTWK4WWHPTWKC4K","A11JGMLOFFPV65","3UUIU9GZC5R93N292LT21FRJ9VS5TN","","null","<img src=""img/food1.png"" style=""width:200px; border:14px solid green;"">","null","","","","","","","","","",""
"","image-keyboard-response","345","358791","0.0-373.0","3YGXWBAF713C77USTWK4WWHPTWKC4K","A11JGMLOFFPV65","3UUIU9GZC5R93N292LT21FRJ9VS5TN","","","img/food3.png","","1002.5999999940395","-1","0","1","2","1,0.5,0,1,0.5,0,0.5,0,1","0.5,0,1,0.5,0,1,0,1,0.5","2","true",""
"","html-keyboard-response","346","359094","0.0-374.0","3YGXWBAF713C77USTWK4WWHPTWKC4K","A11JGMLOFFPV65","3UUIU9GZC5R93N292LT21FRJ9VS5TN","","null","<img src=""img/food3.png"" style=""width:200px;border:14px solid red;"">","null","","","","","","","","","",""
"","html-keyboard-response","347","360505","0.0-375.0-0.0","3YGXWBAF713C77USTWK4WWHPTWKC4K","A11JGMLOFFPV65","3UUIU9GZC5R93N292LT21FRJ9VS5TN","","","","","","","","","","","","","",""
"","image-keyboard-response","348","361507","0.0-376.0","3YGXWBAF713C77USTWK4WWHPTWKC4K","A11JGMLOFFPV65","3UUIU9GZC5R93N292LT21FRJ9VS5TN","","","img/food3.png","","1002.4000000059605","-1","0","1","2","1,0.5,0,1,0.5,0,0.5,0,1","0.5,0,1,0.5,0,1,0,1,0.5","2","true",""
"","html-keyboard-response","349","361812","0.0-377.0","3YGXWBAF713C77USTWK4WWHPTWKC4K","A11JGMLOFFPV65","3UUIU9GZC5R93N292LT21FRJ9VS5TN","","null","<img src=""img/food3.png"" style=""width:200px;border:14px solid red;"">","null","","","","","","","","","",""
"","html-keyboard-response","350","363127","0.0-378.0-0.0","3YGXWBAF713C77USTWK4WWHPTWKC4K","A11JGMLOFFPV65","3UUIU9GZC5R93N292LT21FRJ9VS5TN","","","","","","","","","","","","","",""
"","image-keyboard-response","351","364003","0.0-379.0","3YGXWBAF713C77USTWK4WWHPTWKC4K","A11JGMLOFFPV65","3UUIU9GZC5R93N292LT21FRJ9VS5TN","","873.4000000059605","img/food3.png","76","875","3","1","1","2","1,0.5,0,1,0.5,0,0.5,0,1","0.5,0,1,0.5,0,1,0,1,0.5","2","false",""
"","html-keyboard-response","352","364305","0.0-380.0","3YGXWBAF713C77USTWK4WWHPTWKC4K","A11JGMLOFFPV65","3UUIU9GZC5R93N292LT21FRJ9VS5TN","","null","<img src=""img/food3.png"" style=""width:200px; border:14px solid green;"">","null","","","","","","","","","",""
"","image-keyboard-response","353","365136","0.0-382.0","3YGXWBAF713C77USTWK4WWHPTWKC4K","A11JGMLOFFPV65","3UUIU9GZC5R93N292LT21FRJ9VS5TN","","830","img/food5.png","76","831","3","0","3","2","1,0.5,0,1,0.5,0,0.5,0,1","0.5,0,1,0.5,0,1,0,1,0.5","2","false",""
"","html-keyboard-response","354","365439","0.0-383.0","3YGXWBAF713C77USTWK4WWHPTWKC4K","A11JGMLOFFPV65","3UUIU9GZC5R93N292LT21FRJ9VS5TN","","null","<img src=""img/food5.png"" style=""width:200px;border:14px solid red;"">","null","","","","","","","","","",""
"","image-keyboard-response","355","366441","0.0-385.0","3YGXWBAF713C77USTWK4WWHPTWKC4K","A11JGMLOFFPV65","3UUIU9GZC5R93N292LT21FRJ9VS5TN","","","img/food3.png","","1002.3999999761581","-1","0","1","2","1,0.5,0,1,0.5,0,0.5,0,1","0.5,0,1,0.5,0,1,0,1,0.5","2","true",""
"","html-keyboard-response","356","366744","0.0-386.0","3YGXWBAF713C77USTWK4WWHPTWKC4K","A11JGMLOFFPV65","3UUIU9GZC5R93N292LT21FRJ9VS5TN","","null","<img src=""img/food3.png"" style=""width:200px;border:14px solid red;"">","null","","","","","","","","","",""
"","html-keyboard-response","357","368093","0.0-387.0-0.0","3YGXWBAF713C77USTWK4WWHPTWKC4K","A11JGMLOFFPV65","3UUIU9GZC5R93N292LT21FRJ9VS5TN","","","","","","","","","","","","","",""
"","image-keyboard-response","358","369087","0.0-388.0","3YGXWBAF713C77USTWK4WWHPTWKC4K","A11JGMLOFFPV65","3UUIU9GZC5R93N292LT21FRJ9VS5TN","","992.8000000119209","img/food1.png","76","994","3","1","2","2","1,0.5,0,1,0.5,0,0.5,0,1","0.5,0,1,0.5,0,1,0,1,0.5","2","false",""
"","html-keyboard-response","359","369390","0.0-389.0","3YGXWBAF713C77USTWK4WWHPTWKC4K","A11JGMLOFFPV65","3UUIU9GZC5R93N292LT21FRJ9VS5TN","","null","<img src=""img/food1.png"" style=""width:200px; border:14px solid green;"">","null","","","","","","","","","",""
"","image-keyboard-response","360","370157","0.0-391.0","3YGXWBAF713C77USTWK4WWHPTWKC4K","A11JGMLOFFPV65","3UUIU9GZC5R93N292LT21FRJ9VS5TN","","766.4000000059605","img/food1.png","76","767.1999999880791","3","1","2","2","1,0.5,0,1,0.5,0,0.5,0,1","0.5,0,1,0.5,0,1,0,1,0.5","2","false",""
"","html-keyboard-response","361","370460","0.0-392.0","3YGXWBAF713C77USTWK4WWHPTWKC4K","A11JGMLOFFPV65","3UUIU9GZC5R93N292LT21FRJ9VS5TN","","null","<img src=""img/food1.png"" style=""width:200px; border:14px solid green;"">","null","","","","","","","","","",""
"","image-keyboard-response","362","371222","0.0-394.0","3YGXWBAF713C77USTWK4WWHPTWKC4K","A11JGMLOFFPV65","3UUIU9GZC5R93N292LT21FRJ9VS5TN","","758.5","img/food3.png","76","759.6999999880791","3","1","1","2","1,0.5,0,1,0.5,0,0.5,0,1","0.5,0,1,0.5,0,1,0,1,0.5","2","false",""
"","html-keyboard-response","363","371525","0.0-395.0","3YGXWBAF713C77USTWK4WWHPTWKC4K","A11JGMLOFFPV65","3UUIU9GZC5R93N292LT21FRJ9VS5TN","","null","<img src=""img/food3.png"" style=""width:200px; border:14px solid green;"">","null","","","","","","","","","",""
"","image-keyboard-response","364","372496","0.0-397.0","3YGXWBAF713C77USTWK4WWHPTWKC4K","A11JGMLOFFPV65","3UUIU9GZC5R93N292LT21FRJ9VS5TN","","970.1999999880791","img/food1.png","76","971.0999999940395","3","1","2","2","1,0.5,0,1,0.5,0,0.5,0,1","0.5,0,1,0.5,0,1,0,1,0.5","2","false",""
"","html-keyboard-response","365","372798","0.0-398.0","3YGXWBAF713C77USTWK4WWHPTWKC4K","A11JGMLOFFPV65","3UUIU9GZC5R93N292LT21FRJ9VS5TN","","null","<img src=""img/food1.png"" style=""width:200px; border:14px solid green;"">","null","","","","","","","","","",""
"","image-keyboard-response","366","373687","0.0-400.0","3YGXWBAF713C77USTWK4WWHPTWKC4K","A11JGMLOFFPV65","3UUIU9GZC5R93N292LT21FRJ9VS5TN","","887.1999999880791","img/food5.png","75","888.0999999940395","2","1","3","2","1,0.5,0,1,0.5,0,0.5,0,1","0.5,0,1,0.5,0,1,0,1,0.5","2","false",""
"","html-keyboard-response","367","373989","0.0-401.0","3YGXWBAF713C77USTWK4WWHPTWKC4K","A11JGMLOFFPV65","3UUIU9GZC5R93N292LT21FRJ9VS5TN","","null","<img src=""img/food5.png"" style=""width:200px; border:14px solid green;"">","null","","","","","","","","","",""
"","image-keyboard-response","368","374992","0.0-403.0","3YGXWBAF713C77USTWK4WWHPTWKC4K","A11JGMLOFFPV65","3UUIU9GZC5R93N292LT21FRJ9VS5TN","","","img/food5.png","","1002.1999999880791","-1","0","3","2","1,0.5,0,1,0.5,0,0.5,0,1","0.5,0,1,0.5,0,1,0,1,0.5","2","true",""
"","html-keyboard-response","369","375295","0.0-404.0","3YGXWBAF713C77USTWK4WWHPTWKC4K","A11JGMLOFFPV65","3UUIU9GZC5R93N292LT21FRJ9VS5TN","","null","<img src=""img/food5.png"" style=""width:200px;border:14px solid red;"">","null","","","","","","","","","",""
"","html-keyboard-response","370","376536","0.0-405.0-0.0","3YGXWBAF713C77USTWK4WWHPTWKC4K","A11JGMLOFFPV65","3UUIU9GZC5R93N292LT21FRJ9VS5TN","","","","","","","","","","","","","",""
"","image-keyboard-response","371","377539","0.0-406.0","3YGXWBAF713C77USTWK4WWHPTWKC4K","A11JGMLOFFPV65","3UUIU9GZC5R93N292LT21FRJ9VS5TN","","","img/food3.png","","1002.5","-1","0","1","2","1,0.5,0,1,0.5,0,0.5,0,1","0.5,0,1,0.5,0,1,0,1,0.5","2","true",""
"","html-keyboard-response","372","377842","0.0-407.0","3YGXWBAF713C77USTWK4WWHPTWKC4K","A11JGMLOFFPV65","3UUIU9GZC5R93N292LT21FRJ9VS5TN","","null","<img src=""img/food3.png"" style=""width:200px;border:14px solid red;"">","null","","","","","","","","","",""
"","html-keyboard-response","373","379642","0.0-408.0-0.0","3YGXWBAF713C77USTWK4WWHPTWKC4K","A11JGMLOFFPV65","3UUIU9GZC5R93N292LT21FRJ9VS5TN","","","","","","","","","","","","","",""
"","image-keyboard-response","374","380367","0.0-409.0","3YGXWBAF713C77USTWK4WWHPTWKC4K","A11JGMLOFFPV65","3UUIU9GZC5R93N292LT21FRJ9VS5TN","","723.0999999940395","img/food3.png","76","724.4000000059605","3","1","1","2","1,0.5,0,1,0.5,0,0.5,0,1","0.5,0,1,0.5,0,1,0,1,0.5","2","false",""
"","html-keyboard-response","375","380670","0.0-410.0","3YGXWBAF713C77USTWK4WWHPTWKC4K","A11JGMLOFFPV65","3UUIU9GZC5R93N292LT21FRJ9VS5TN","","null","<img src=""img/food3.png"" style=""width:200px; border:14px solid green;"">","null","","","","","","","","","",""
"","image-keyboard-response","376","381476","0.0-412.0","3YGXWBAF713C77USTWK4WWHPTWKC4K","A11JGMLOFFPV65","3UUIU9GZC5R93N292LT21FRJ9VS5TN","","804.8000000119209","img/food3.png","76","805.7999999821186","3","1","1","2","1,0.5,0,1,0.5,0,0.5,0,1","0.5,0,1,0.5,0,1,0,1,0.5","2","false",""
"","html-keyboard-response","377","381779","0.0-413.0","3YGXWBAF713C77USTWK4WWHPTWKC4K","A11JGMLOFFPV65","3UUIU9GZC5R93N292LT21FRJ9VS5TN","","null","<img src=""img/food3.png"" style=""width:200px; border:14px solid green;"">","null","","","","","","","","","",""
"","image-keyboard-response","378","382666","0.0-415.0","3YGXWBAF713C77USTWK4WWHPTWKC4K","A11JGMLOFFPV65","3UUIU9GZC5R93N292LT21FRJ9VS5TN","","886.0999999940395","img/food5.png","75","887.0999999940395","2","1","3","2","1,0.5,0,1,0.5,0,0.5,0,1","0.5,0,1,0.5,0,1,0,1,0.5","2","false",""
"","html-keyboard-response","379","382969","0.0-416.0","3YGXWBAF713C77USTWK4WWHPTWKC4K","A11JGMLOFFPV65","3UUIU9GZC5R93N292LT21FRJ9VS5TN","","null","<img src=""img/food5.png"" style=""width:200px; border:14px solid green;"">","null","","","","","","","","","",""
"","image-keyboard-response","380","383837","0.0-418.0","3YGXWBAF713C77USTWK4WWHPTWKC4K","A11JGMLOFFPV65","3UUIU9GZC5R93N292LT21FRJ9VS5TN","","865.5999999940395","img/food5.png","75","866.9000000059605","2","1","3","2","1,0.5,0,1,0.5,0,0.5,0,1","0.5,0,1,0.5,0,1,0,1,0.5","2","false",""
"","html-keyboard-response","381","384139","0.0-419.0","3YGXWBAF713C77USTWK4WWHPTWKC4K","A11JGMLOFFPV65","3UUIU9GZC5R93N292LT21FRJ9VS5TN","","null","<img src=""img/food5.png"" style=""width:200px; border:14px solid green;"">","null","","","","","","","","","",""
"","image-keyboard-response","382","384972","0.0-421.0","3YGXWBAF713C77USTWK4WWHPTWKC4K","A11JGMLOFFPV65","3UUIU9GZC5R93N292LT21FRJ9VS5TN","","832.1999999880791","img/food1.png","76","833.2000000178814","3","1","2","2","1,0.5,0,1,0.5,0,0.5,0,1","0.5,0,1,0.5,0,1,0,1,0.5","2","false",""
"","html-keyboard-response","383","385275","0.0-422.0","3YGXWBAF713C77USTWK4WWHPTWKC4K","A11JGMLOFFPV65","3UUIU9GZC5R93N292LT21FRJ9VS5TN","","null","<img src=""img/food1.png"" style=""width:200px; border:14px solid green;"">","null","","","","","","","","","",""
"","image-keyboard-response","384","386106","0.0-424.0","3YGXWBAF713C77USTWK4WWHPTWKC4K","A11JGMLOFFPV65","3UUIU9GZC5R93N292LT21FRJ9VS5TN","","829.4000000059605","img/food1.png","76","830.2999999821186","3","1","2","2","1,0.5,0,1,0.5,0,0.5,0,1","0.5,0,1,0.5,0,1,0,1,0.5","2","false",""
