"success","trial_type","trial_index","time_elapsed","internal_node_id","assignmentID","mturkID","hitID","view_history","rt","stimulus","key_press","reactionTime","a","r","s","cond","reward_cond","reward_cond_actual","reward_matrix_idx","warning","responses"
"true","fullscreen","0","3393","0.0-0.0","388U7OUMF8NZEL1ASSNX9OQYCKV0RK","A11YS0T8MV3Q7C","3FVBZG9CLJ0K37PD5L6161S4HTM0HN","","","","","","","","","","","","","",""
"","instructions","1","18426","0.0-1.0","388U7OUMF8NZEL1ASSNX9OQYCKV0RK","A11YS0T8MV3Q7C","3FVBZG9CLJ0K37PD5L6161S4HTM0HN","[{""page_index"":0,""viewing_time"":3940},{""page_index"":1,""viewing_time"":1128},{""page_index"":2,""viewing_time"":1495},{""page_index"":3,""viewing_time"":2557},{""page_index"":4,""viewing_time"":2904},{""page_index"":5,""viewing_time"":1625},{""page_index"":6,""viewing_time"":1378}]","15027","","","","","","","","","","","",""
"","image-keyboard-response","2","19672","0.0-2.0","388U7OUMF8NZEL1ASSNX9OQYCKV0RK","A11YS0T8MV3Q7C","3FVBZG9CLJ0K37PD5L6161S4HTM0HN","","1243","img/food3.png","75","1244","2","0","1","1","1,0.5,0,1,0.5,0,0.5,0,1","0.5,0,1,0.5,0,1,0,1,0.5","2","",""
"","html-keyboard-response","3","19976","0.0-3.0","388U7OUMF8NZEL1ASSNX9OQYCKV0RK","A11YS0T8MV3Q7C","3FVBZG9CLJ0K37PD5L6161S4HTM0HN","","null","<img src=""img/food3.png"" style=""width:200px;border:14px solid red;"">","null","","","","","","","","","",""
"","image-keyboard-response","4","20214","0.0-4.0","388U7OUMF8NZEL1ASSNX9OQYCKV0RK","A11YS0T8MV3Q7C","3FVBZG9CLJ0K37PD5L6161S4HTM0HN","","235","img/food3.png","76","236","3","1","1","1","1,0.5,0,1,0.5,0,0.5,0,1","0.5,0,1,0.5,0,1,0,1,0.5","2","",""
"","html-keyboard-response","5","20518","0.0-5.0","388U7OUMF8NZEL1ASSNX9OQYCKV0RK","A11YS0T8MV3Q7C","3FVBZG9CLJ0K37PD5L6161S4HTM0HN","","null","<img src=""img/food3.png"" style=""width:200px; border:14px solid green;"">","null","","","","","","","","","",""
"","image-keyboard-response","6","20735","0.0-6.0","388U7OUMF8NZEL1ASSNX9OQYCKV0RK","A11YS0T8MV3Q7C","3FVBZG9CLJ0K37PD5L6161S4HTM0HN","","213","img/food5.png","76","215","3","1","2","1","1,0.5,0,1,0.5,0,0.5,0,1","0.5,0,1,0.5,0,1,0,1,0.5","2","",""
"","html-keyboard-response","7","21041","0.0-7.0","388U7OUMF8NZEL1ASSNX9OQYCKV0RK","A11YS0T8MV3Q7C","3FVBZG9CLJ0K37PD5L6161S4HTM0HN","","null","<img src=""img/food5.png"" style=""width:200px; border:14px solid green;"">","null","","","","","","","","","",""
"","image-keyboard-response","8","21659","0.0-8.0","388U7OUMF8NZEL1ASSNX9OQYCKV0RK","A11YS0T8MV3Q7C","3FVBZG9CLJ0K37PD5L6161S4HTM0HN","","614","img/food2.png","75","616","2","1","3","1","1,0.5,0,1,0.5,0,0.5,0,1","0.5,0,1,0.5,0,1,0,1,0.5","2","",""
"","html-keyboard-response","9","21963","0.0-9.0","388U7OUMF8NZEL1ASSNX9OQYCKV0RK","A11YS0T8MV3Q7C","3FVBZG9CLJ0K37PD5L6161S4HTM0HN","","null","<img src=""img/food2.png"" style=""width:200px; border:14px solid green;"">","null","","","","","","","","","",""
"","image-keyboard-response","10","22440","0.0-10.0","388U7OUMF8NZEL1ASSNX9OQYCKV0RK","A11YS0T8MV3Q7C","3FVBZG9CLJ0K37PD5L6161S4HTM0HN","","473","img/food5.png","75","476","2","0","2","1","1,0.5,0,1,0.5,0,0.5,0,1","0.5,0,1,0.5,0,1,0,1,0.5","2","",""
"","html-keyboard-response","11","22746","0.0-11.0","388U7OUMF8NZEL1ASSNX9OQYCKV0RK","A11YS0T8MV3Q7C","3FVBZG9CLJ0K37PD5L6161S4HTM0HN","","null","<img src=""img/food5.png"" style=""width:200px;border:14px solid red;"">","null","","","","","","","","","",""
"","image-keyboard-response","12","22898","0.0-12.0","388U7OUMF8NZEL1ASSNX9OQYCKV0RK","A11YS0T8MV3Q7C","3FVBZG9CLJ0K37PD5L6161S4HTM0HN","","150","img/food3.png","76","153","3","1","1","1","1,0.5,0,1,0.5,0,0.5,0,1","0.5,0,1,0.5,0,1,0,1,0.5","2","",""
"","html-keyboard-response","13","23204","0.0-13.0","388U7OUMF8NZEL1ASSNX9OQYCKV0RK","A11YS0T8MV3Q7C","3FVBZG9CLJ0K37PD5L6161S4HTM0HN","","null","<img src=""img/food3.png"" style=""width:200px; border:14px solid green;"">","null","","","","","","","","","",""
"","image-keyboard-response","14","23276","0.0-14.0","388U7OUMF8NZEL1ASSNX9OQYCKV0RK","A11YS0T8MV3Q7C","3FVBZG9CLJ0K37PD5L6161S4HTM0HN","","71","img/food2.png","75","72","2","1","3","1","1,0.5,0,1,0.5,0,0.5,0,1","0.5,0,1,0.5,0,1,0,1,0.5","2","",""
"","html-keyboard-response","15","23581","0.0-15.0","388U7OUMF8NZEL1ASSNX9OQYCKV0RK","A11YS0T8MV3Q7C","3FVBZG9CLJ0K37PD5L6161S4HTM0HN","","null","<img src=""img/food2.png"" style=""width:200px; border:14px solid green;"">","null","","","","","","","","","",""
"","image-keyboard-response","16","23682","0.0-16.0","388U7OUMF8NZEL1ASSNX9OQYCKV0RK","A11YS0T8MV3Q7C","3FVBZG9CLJ0K37PD5L6161S4HTM0HN","","100","img/food2.png","75","101","2","1","3","1","1,0.5,0,1,0.5,0,0.5,0,1","0.5,0,1,0.5,0,1,0,1,0.5","2","",""
"","html-keyboard-response","17","23986","0.0-17.0","388U7OUMF8NZEL1ASSNX9OQYCKV0RK","A11YS0T8MV3Q7C","3FVBZG9CLJ0K37PD5L6161S4HTM0HN","","null","<img src=""img/food2.png"" style=""width:200px; border:14px solid green;"">","null","","","","","","","","","",""
"","image-keyboard-response","18","23993","0.0-18.0","388U7OUMF8NZEL1ASSNX9OQYCKV0RK","A11YS0T8MV3Q7C","3FVBZG9CLJ0K37PD5L6161S4HTM0HN","","4","img/food3.png","76","6","3","1","1","1","1,0.5,0,1,0.5,0,0.5,0,1","0.5,0,1,0.5,0,1,0,1,0.5","2","",""
"","html-keyboard-response","19","24299","0.0-19.0","388U7OUMF8NZEL1ASSNX9OQYCKV0RK","A11YS0T8MV3Q7C","3FVBZG9CLJ0K37PD5L6161S4HTM0HN","","null","<img src=""img/food3.png"" style=""width:200px; border:14px solid green;"">","null","","","","","","","","","",""
"","image-keyboard-response","20","24402","0.0-20.0","388U7OUMF8NZEL1ASSNX9OQYCKV0RK","A11YS0T8MV3Q7C","3FVBZG9CLJ0K37PD5L6161S4HTM0HN","","101","img/food3.png","75","103","2","0","1","1","1,0.5,0,1,0.5,0,0.5,0,1","0.5,0,1,0.5,0,1,0,1,0.5","2","",""
"","html-keyboard-response","21","24706","0.0-21.0","388U7OUMF8NZEL1ASSNX9OQYCKV0RK","A11YS0T8MV3Q7C","3FVBZG9CLJ0K37PD5L6161S4HTM0HN","","null","<img src=""img/food3.png"" style=""width:200px;border:14px solid red;"">","null","","","","","","","","","",""
"","image-keyboard-response","22","24742","0.0-22.0","388U7OUMF8NZEL1ASSNX9OQYCKV0RK","A11YS0T8MV3Q7C","3FVBZG9CLJ0K37PD5L6161S4HTM0HN","","34","img/food2.png","76","35","3","1","3","1","1,0.5,0,1,0.5,0,0.5,0,1","0.5,0,1,0.5,0,1,0,1,0.5","2","",""
"","html-keyboard-response","23","25046","0.0-23.0","388U7OUMF8NZEL1ASSNX9OQYCKV0RK","A11YS0T8MV3Q7C","3FVBZG9CLJ0K37PD5L6161S4HTM0HN","","null","<img src=""img/food2.png"" style=""width:200px; border:14px solid green;"">","null","","","","","","","","","",""
"","image-keyboard-response","24","25437","0.0-24.0","388U7OUMF8NZEL1ASSNX9OQYCKV0RK","A11YS0T8MV3Q7C","3FVBZG9CLJ0K37PD5L6161S4HTM0HN","","389","img/food5.png","74","391","1","0","2","1","1,0.5,0,1,0.5,0,0.5,0,1","0.5,0,1,0.5,0,1,0,1,0.5","2","",""
"","html-keyboard-response","25","25741","0.0-25.0","388U7OUMF8NZEL1ASSNX9OQYCKV0RK","A11YS0T8MV3Q7C","3FVBZG9CLJ0K37PD5L6161S4HTM0HN","","null","<img src=""img/food5.png"" style=""width:200px;border:14px solid red;"">","null","","","","","","","","","",""
"","image-keyboard-response","26","25829","0.0-26.0","388U7OUMF8NZEL1ASSNX9OQYCKV0RK","A11YS0T8MV3Q7C","3FVBZG9CLJ0K37PD5L6161S4HTM0HN","","86","img/food3.png","75","87","2","0","1","1","1,0.5,0,1,0.5,0,0.5,0,1","0.5,0,1,0.5,0,1,0,1,0.5","2","",""
"","html-keyboard-response","27","26131","0.0-27.0","388U7OUMF8NZEL1ASSNX9OQYCKV0RK","A11YS0T8MV3Q7C","3FVBZG9CLJ0K37PD5L6161S4HTM0HN","","null","<img src=""img/food3.png"" style=""width:200px;border:14px solid red;"">","null","","","","","","","","","",""
"","image-keyboard-response","28","26247","0.0-28.0","388U7OUMF8NZEL1ASSNX9OQYCKV0RK","A11YS0T8MV3Q7C","3FVBZG9CLJ0K37PD5L6161S4HTM0HN","","114","img/food5.png","75","116","2","0","2","1","1,0.5,0,1,0.5,0,0.5,0,1","0.5,0,1,0.5,0,1,0,1,0.5","2","",""
"","html-keyboard-response","29","26550","0.0-29.0","388U7OUMF8NZEL1ASSNX9OQYCKV0RK","A11YS0T8MV3Q7C","3FVBZG9CLJ0K37PD5L6161S4HTM0HN","","null","<img src=""img/food5.png"" style=""width:200px;border:14px solid red;"">","null","","","","","","","","","",""
"","image-keyboard-response","30","26594","0.0-30.0","388U7OUMF8NZEL1ASSNX9OQYCKV0RK","A11YS0T8MV3Q7C","3FVBZG9CLJ0K37PD5L6161S4HTM0HN","","42","img/food3.png","76","43","3","1","1","1","1,0.5,0,1,0.5,0,0.5,0,1","0.5,0,1,0.5,0,1,0,1,0.5","2","",""
"","html-keyboard-response","31","26897","0.0-31.0","388U7OUMF8NZEL1ASSNX9OQYCKV0RK","A11YS0T8MV3Q7C","3FVBZG9CLJ0K37PD5L6161S4HTM0HN","","null","<img src=""img/food3.png"" style=""width:200px; border:14px solid green;"">","null","","","","","","","","","",""
"","image-keyboard-response","32","27107","0.0-32.0","388U7OUMF8NZEL1ASSNX9OQYCKV0RK","A11YS0T8MV3Q7C","3FVBZG9CLJ0K37PD5L6161S4HTM0HN","","208","img/food3.png","75","209","2","0","1","1","1,0.5,0,1,0.5,0,0.5,0,1","0.5,0,1,0.5,0,1,0,1,0.5","2","",""
"","html-keyboard-response","33","27411","0.0-33.0","388U7OUMF8NZEL1ASSNX9OQYCKV0RK","A11YS0T8MV3Q7C","3FVBZG9CLJ0K37PD5L6161S4HTM0HN","","null","<img src=""img/food3.png"" style=""width:200px;border:14px solid red;"">","null","","","","","","","","","",""
"","image-keyboard-response","34","27690","0.0-34.0","388U7OUMF8NZEL1ASSNX9OQYCKV0RK","A11YS0T8MV3Q7C","3FVBZG9CLJ0K37PD5L6161S4HTM0HN","","278","img/food5.png","76","279","3","1","2","1","1,0.5,0,1,0.5,0,0.5,0,1","0.5,0,1,0.5,0,1,0,1,0.5","2","",""
"","html-keyboard-response","35","27993","0.0-35.0","388U7OUMF8NZEL1ASSNX9OQYCKV0RK","A11YS0T8MV3Q7C","3FVBZG9CLJ0K37PD5L6161S4HTM0HN","","null","<img src=""img/food5.png"" style=""width:200px; border:14px solid green;"">","null","","","","","","","","","",""
"","image-keyboard-response","36","28046","0.0-36.0","388U7OUMF8NZEL1ASSNX9OQYCKV0RK","A11YS0T8MV3Q7C","3FVBZG9CLJ0K37PD5L6161S4HTM0HN","","52","img/food2.png","76","54","3","1","3","1","1,0.5,0,1,0.5,0,0.5,0,1","0.5,0,1,0.5,0,1,0,1,0.5","2","",""
"","html-keyboard-response","37","28351","0.0-37.0","388U7OUMF8NZEL1ASSNX9OQYCKV0RK","A11YS0T8MV3Q7C","3FVBZG9CLJ0K37PD5L6161S4HTM0HN","","null","<img src=""img/food2.png"" style=""width:200px; border:14px solid green;"">","null","","","","","","","","","",""
"","image-keyboard-response","38","28417","0.0-38.0","388U7OUMF8NZEL1ASSNX9OQYCKV0RK","A11YS0T8MV3Q7C","3FVBZG9CLJ0K37PD5L6161S4HTM0HN","","64","img/food2.png","76","66","3","0","3","1","1,0.5,0,1,0.5,0,0.5,0,1","0.5,0,1,0.5,0,1,0,1,0.5","2","",""
"","html-keyboard-response","39","28721","0.0-39.0","388U7OUMF8NZEL1ASSNX9OQYCKV0RK","A11YS0T8MV3Q7C","3FVBZG9CLJ0K37PD5L6161S4HTM0HN","","null","<img src=""img/food2.png"" style=""width:200px;border:14px solid red;"">","null","","","","","","","","","",""
"","image-keyboard-response","40","28865","0.0-40.0","388U7OUMF8NZEL1ASSNX9OQYCKV0RK","A11YS0T8MV3Q7C","3FVBZG9CLJ0K37PD5L6161S4HTM0HN","","142","img/food2.png","75","144","2","1","3","1","1,0.5,0,1,0.5,0,0.5,0,1","0.5,0,1,0.5,0,1,0,1,0.5","2","",""
"","html-keyboard-response","41","29168","0.0-41.0","388U7OUMF8NZEL1ASSNX9OQYCKV0RK","A11YS0T8MV3Q7C","3FVBZG9CLJ0K37PD5L6161S4HTM0HN","","null","<img src=""img/food2.png"" style=""width:200px; border:14px solid green;"">","null","","","","","","","","","",""
"","image-keyboard-response","42","29275","0.0-42.0","388U7OUMF8NZEL1ASSNX9OQYCKV0RK","A11YS0T8MV3Q7C","3FVBZG9CLJ0K37PD5L6161S4HTM0HN","","105","img/food3.png","75","107","2","0","1","1","1,0.5,0,1,0.5,0,0.5,0,1","0.5,0,1,0.5,0,1,0,1,0.5","2","",""
"","html-keyboard-response","43","29578","0.0-43.0","388U7OUMF8NZEL1ASSNX9OQYCKV0RK","A11YS0T8MV3Q7C","3FVBZG9CLJ0K37PD5L6161S4HTM0HN","","null","<img src=""img/food3.png"" style=""width:200px;border:14px solid red;"">","null","","","","","","","","","",""
"","image-keyboard-response","44","29888","0.0-44.0","388U7OUMF8NZEL1ASSNX9OQYCKV0RK","A11YS0T8MV3Q7C","3FVBZG9CLJ0K37PD5L6161S4HTM0HN","","309","img/food3.png","75","310","2","0","1","1","1,0.5,0,1,0.5,0,0.5,0,1","0.5,0,1,0.5,0,1,0,1,0.5","2","",""
"","html-keyboard-response","45","30191","0.0-45.0","388U7OUMF8NZEL1ASSNX9OQYCKV0RK","A11YS0T8MV3Q7C","3FVBZG9CLJ0K37PD5L6161S4HTM0HN","","null","<img src=""img/food3.png"" style=""width:200px;border:14px solid red;"">","null","","","","","","","","","",""
"","image-keyboard-response","46","30465","0.0-46.0","388U7OUMF8NZEL1ASSNX9OQYCKV0RK","A11YS0T8MV3Q7C","3FVBZG9CLJ0K37PD5L6161S4HTM0HN","","271","img/food2.png","76","273","3","0","3","1","1,0.5,0,1,0.5,0,0.5,0,1","0.5,0,1,0.5,0,1,0,1,0.5","2","",""
"","html-keyboard-response","47","30768","0.0-47.0","388U7OUMF8NZEL1ASSNX9OQYCKV0RK","A11YS0T8MV3Q7C","3FVBZG9CLJ0K37PD5L6161S4HTM0HN","","null","<img src=""img/food2.png"" style=""width:200px;border:14px solid red;"">","null","","","","","","","","","",""
"","image-keyboard-response","48","30991","0.0-48.0","388U7OUMF8NZEL1ASSNX9OQYCKV0RK","A11YS0T8MV3Q7C","3FVBZG9CLJ0K37PD5L6161S4HTM0HN","","221","img/food5.png","75","222","2","0","2","1","1,0.5,0,1,0.5,0,0.5,0,1","0.5,0,1,0.5,0,1,0,1,0.5","2","",""
"","html-keyboard-response","49","31298","0.0-49.0","388U7OUMF8NZEL1ASSNX9OQYCKV0RK","A11YS0T8MV3Q7C","3FVBZG9CLJ0K37PD5L6161S4HTM0HN","","null","<img src=""img/food5.png"" style=""width:200px;border:14px solid red;"">","null","","","","","","","","","",""
"","image-keyboard-response","50","31492","0.0-50.0","388U7OUMF8NZEL1ASSNX9OQYCKV0RK","A11YS0T8MV3Q7C","3FVBZG9CLJ0K37PD5L6161S4HTM0HN","","192","img/food2.png","75","193","2","1","3","1","1,0.5,0,1,0.5,0,0.5,0,1","0.5,0,1,0.5,0,1,0,1,0.5","2","",""
"","html-keyboard-response","51","31796","0.0-51.0","388U7OUMF8NZEL1ASSNX9OQYCKV0RK","A11YS0T8MV3Q7C","3FVBZG9CLJ0K37PD5L6161S4HTM0HN","","null","<img src=""img/food2.png"" style=""width:200px; border:14px solid green;"">","null","","","","","","","","","",""
"","image-keyboard-response","52","32032","0.0-52.0","388U7OUMF8NZEL1ASSNX9OQYCKV0RK","A11YS0T8MV3Q7C","3FVBZG9CLJ0K37PD5L6161S4HTM0HN","","235","img/food3.png","75","237","2","0","1","1","1,0.5,0,1,0.5,0,0.5,0,1","0.5,0,1,0.5,0,1,0,1,0.5","2","",""
"","html-keyboard-response","53","32336","0.0-53.0","388U7OUMF8NZEL1ASSNX9OQYCKV0RK","A11YS0T8MV3Q7C","3FVBZG9CLJ0K37PD5L6161S4HTM0HN","","null","<img src=""img/food3.png"" style=""width:200px;border:14px solid red;"">","null","","","","","","","","","",""
"","image-keyboard-response","54","32526","0.0-54.0","388U7OUMF8NZEL1ASSNX9OQYCKV0RK","A11YS0T8MV3Q7C","3FVBZG9CLJ0K37PD5L6161S4HTM0HN","","187","img/food3.png","76","190","3","1","1","1","1,0.5,0,1,0.5,0,0.5,0,1","0.5,0,1,0.5,0,1,0,1,0.5","2","",""
"","html-keyboard-response","55","32828","0.0-55.0","388U7OUMF8NZEL1ASSNX9OQYCKV0RK","A11YS0T8MV3Q7C","3FVBZG9CLJ0K37PD5L6161S4HTM0HN","","null","<img src=""img/food3.png"" style=""width:200px; border:14px solid green;"">","null","","","","","","","","","",""
"","image-keyboard-response","56","33065","0.0-56.0","388U7OUMF8NZEL1ASSNX9OQYCKV0RK","A11YS0T8MV3Q7C","3FVBZG9CLJ0K37PD5L6161S4HTM0HN","","236","img/food5.png","74","237","1","0","2","1","1,0.5,0,1,0.5,0,0.5,0,1","0.5,0,1,0.5,0,1,0,1,0.5","2","",""
"","html-keyboard-response","57","33368","0.0-57.0","388U7OUMF8NZEL1ASSNX9OQYCKV0RK","A11YS0T8MV3Q7C","3FVBZG9CLJ0K37PD5L6161S4HTM0HN","","null","<img src=""img/food5.png"" style=""width:200px;border:14px solid red;"">","null","","","","","","","","","",""
"","image-keyboard-response","58","33550","0.0-58.0","388U7OUMF8NZEL1ASSNX9OQYCKV0RK","A11YS0T8MV3Q7C","3FVBZG9CLJ0K37PD5L6161S4HTM0HN","","179","img/food2.png","74","182","1","0","3","1","1,0.5,0,1,0.5,0,0.5,0,1","0.5,0,1,0.5,0,1,0,1,0.5","2","",""
"","html-keyboard-response","59","33865","0.0-59.0","388U7OUMF8NZEL1ASSNX9OQYCKV0RK","A11YS0T8MV3Q7C","3FVBZG9CLJ0K37PD5L6161S4HTM0HN","","null","<img src=""img/food2.png"" style=""width:200px;border:14px solid red;"">","null","","","","","","","","","",""
"","image-keyboard-response","60","33951","0.0-60.0","388U7OUMF8NZEL1ASSNX9OQYCKV0RK","A11YS0T8MV3Q7C","3FVBZG9CLJ0K37PD5L6161S4HTM0HN","","82","img/food5.png","74","85","1","1","2","1","1,0.5,0,1,0.5,0,0.5,0,1","0.5,0,1,0.5,0,1,0,1,0.5","2","",""
"","html-keyboard-response","61","34260","0.0-61.0","388U7OUMF8NZEL1ASSNX9OQYCKV0RK","A11YS0T8MV3Q7C","3FVBZG9CLJ0K37PD5L6161S4HTM0HN","","null","<img src=""img/food5.png"" style=""width:200px; border:14px solid green;"">","null","","","","","","","","","",""
"","image-keyboard-response","62","34419","0.0-62.0","388U7OUMF8NZEL1ASSNX9OQYCKV0RK","A11YS0T8MV3Q7C","3FVBZG9CLJ0K37PD5L6161S4HTM0HN","","155","img/food2.png","74","156","1","0","3","1","1,0.5,0,1,0.5,0,0.5,0,1","0.5,0,1,0.5,0,1,0,1,0.5","2","",""
"","html-keyboard-response","63","34731","0.0-63.0","388U7OUMF8NZEL1ASSNX9OQYCKV0RK","A11YS0T8MV3Q7C","3FVBZG9CLJ0K37PD5L6161S4HTM0HN","","null","<img src=""img/food2.png"" style=""width:200px;border:14px solid red;"">","null","","","","","","","","","",""
"","image-keyboard-response","64","34862","0.0-64.0","388U7OUMF8NZEL1ASSNX9OQYCKV0RK","A11YS0T8MV3Q7C","3FVBZG9CLJ0K37PD5L6161S4HTM0HN","","129","img/food5.png","74","130","1","1","2","1","1,0.5,0,1,0.5,0,0.5,0,1","0.5,0,1,0.5,0,1,0,1,0.5","2","",""
"","html-keyboard-response","65","35171","0.0-65.0","388U7OUMF8NZEL1ASSNX9OQYCKV0RK","A11YS0T8MV3Q7C","3FVBZG9CLJ0K37PD5L6161S4HTM0HN","","null","<img src=""img/food5.png"" style=""width:200px; border:14px solid green;"">","null","","","","","","","","","",""
"","image-keyboard-response","66","35242","0.0-66.0","388U7OUMF8NZEL1ASSNX9OQYCKV0RK","A11YS0T8MV3Q7C","3FVBZG9CLJ0K37PD5L6161S4HTM0HN","","68","img/food3.png","75","70","2","0","1","1","1,0.5,0,1,0.5,0,0.5,0,1","0.5,0,1,0.5,0,1,0,1,0.5","2","",""
"","html-keyboard-response","67","35550","0.0-67.0","388U7OUMF8NZEL1ASSNX9OQYCKV0RK","A11YS0T8MV3Q7C","3FVBZG9CLJ0K37PD5L6161S4HTM0HN","","null","<img src=""img/food3.png"" style=""width:200px;border:14px solid red;"">","null","","","","","","","","","",""
"","image-keyboard-response","68","35742","0.0-68.0","388U7OUMF8NZEL1ASSNX9OQYCKV0RK","A11YS0T8MV3Q7C","3FVBZG9CLJ0K37PD5L6161S4HTM0HN","","188","img/food3.png","76","189","3","1","1","1","1,0.5,0,1,0.5,0,0.5,0,1","0.5,0,1,0.5,0,1,0,1,0.5","2","",""
"","html-keyboard-response","69","36050","0.0-69.0","388U7OUMF8NZEL1ASSNX9OQYCKV0RK","A11YS0T8MV3Q7C","3FVBZG9CLJ0K37PD5L6161S4HTM0HN","","null","<img src=""img/food3.png"" style=""width:200px; border:14px solid green;"">","null","","","","","","","","","",""
"","image-keyboard-response","70","36171","0.0-70.0","388U7OUMF8NZEL1ASSNX9OQYCKV0RK","A11YS0T8MV3Q7C","3FVBZG9CLJ0K37PD5L6161S4HTM0HN","","119","img/food2.png","76","120","3","0","3","1","1,0.5,0,1,0.5,0,0.5,0,1","0.5,0,1,0.5,0,1,0,1,0.5","2","",""
"","html-keyboard-response","71","36481","0.0-71.0","388U7OUMF8NZEL1ASSNX9OQYCKV0RK","A11YS0T8MV3Q7C","3FVBZG9CLJ0K37PD5L6161S4HTM0HN","","null","<img src=""img/food2.png"" style=""width:200px;border:14px solid red;"">","null","","","","","","","","","",""
"","image-keyboard-response","72","36647","0.0-72.0","388U7OUMF8NZEL1ASSNX9OQYCKV0RK","A11YS0T8MV3Q7C","3FVBZG9CLJ0K37PD5L6161S4HTM0HN","","165","img/food5.png","75","166","2","0","2","1","1,0.5,0,1,0.5,0,0.5,0,1","0.5,0,1,0.5,0,1,0,1,0.5","2","",""
"","html-keyboard-response","73","36951","0.0-73.0","388U7OUMF8NZEL1ASSNX9OQYCKV0RK","A11YS0T8MV3Q7C","3FVBZG9CLJ0K37PD5L6161S4HTM0HN","","null","<img src=""img/food5.png"" style=""width:200px;border:14px solid red;"">","null","","","","","","","","","",""
"","image-keyboard-response","74","37035","0.0-74.0","388U7OUMF8NZEL1ASSNX9OQYCKV0RK","A11YS0T8MV3Q7C","3FVBZG9CLJ0K37PD5L6161S4HTM0HN","","82","img/food3.png","76","84","3","1","1","1","1,0.5,0,1,0.5,0,0.5,0,1","0.5,0,1,0.5,0,1,0,1,0.5","2","",""
"","html-keyboard-response","75","37340","0.0-75.0","388U7OUMF8NZEL1ASSNX9OQYCKV0RK","A11YS0T8MV3Q7C","3FVBZG9CLJ0K37PD5L6161S4HTM0HN","","null","<img src=""img/food3.png"" style=""width:200px; border:14px solid green;"">","null","","","","","","","","","",""
"","image-keyboard-response","76","37468","0.0-76.0","388U7OUMF8NZEL1ASSNX9OQYCKV0RK","A11YS0T8MV3Q7C","3FVBZG9CLJ0K37PD5L6161S4HTM0HN","","125","img/food3.png","75","126","2","0","1","1","1,0.5,0,1,0.5,0,0.5,0,1","0.5,0,1,0.5,0,1,0,1,0.5","2","",""
"","html-keyboard-response","77","37770","0.0-77.0","388U7OUMF8NZEL1ASSNX9OQYCKV0RK","A11YS0T8MV3Q7C","3FVBZG9CLJ0K37PD5L6161S4HTM0HN","","null","<img src=""img/food3.png"" style=""width:200px;border:14px solid red;"">","null","","","","","","","","","",""
"","image-keyboard-response","78","37781","0.0-78.0","388U7OUMF8NZEL1ASSNX9OQYCKV0RK","A11YS0T8MV3Q7C","3FVBZG9CLJ0K37PD5L6161S4HTM0HN","","9","img/food5.png","76","10","3","1","2","1","1,0.5,0,1,0.5,0,0.5,0,1","0.5,0,1,0.5,0,1,0,1,0.5","2","",""
"","html-keyboard-response","79","38091","0.0-79.0","388U7OUMF8NZEL1ASSNX9OQYCKV0RK","A11YS0T8MV3Q7C","3FVBZG9CLJ0K37PD5L6161S4HTM0HN","","null","<img src=""img/food5.png"" style=""width:200px; border:14px solid green;"">","null","","","","","","","","","",""
"","image-keyboard-response","80","38151","0.0-80.0","388U7OUMF8NZEL1ASSNX9OQYCKV0RK","A11YS0T8MV3Q7C","3FVBZG9CLJ0K37PD5L6161S4HTM0HN","","59","img/food2.png","74","60","1","0","3","1","1,0.5,0,1,0.5,0,0.5,0,1","0.5,0,1,0.5,0,1,0,1,0.5","2","",""
"","html-keyboard-response","81","38460","0.0-81.0","388U7OUMF8NZEL1ASSNX9OQYCKV0RK","A11YS0T8MV3Q7C","3FVBZG9CLJ0K37PD5L6161S4HTM0HN","","null","<img src=""img/food2.png"" style=""width:200px;border:14px solid red;"">","null","","","","","","","","","",""
"","image-keyboard-response","82","38582","0.0-82.0","388U7OUMF8NZEL1ASSNX9OQYCKV0RK","A11YS0T8MV3Q7C","3FVBZG9CLJ0K37PD5L6161S4HTM0HN","","119","img/food2.png","74","121","1","0","3","1","1,0.5,0,1,0.5,0,0.5,0,1","0.5,0,1,0.5,0,1,0,1,0.5","2","",""
"","html-keyboard-response","83","38891","0.0-83.0","388U7OUMF8NZEL1ASSNX9OQYCKV0RK","A11YS0T8MV3Q7C","3FVBZG9CLJ0K37PD5L6161S4HTM0HN","","null","<img src=""img/food2.png"" style=""width:200px;border:14px solid red;"">","null","","","","","","","","","",""
"","image-keyboard-response","84","38958","0.0-84.0","388U7OUMF8NZEL1ASSNX9OQYCKV0RK","A11YS0T8MV3Q7C","3FVBZG9CLJ0K37PD5L6161S4HTM0HN","","61","img/food5.png","74","67","1","1","2","1","1,0.5,0,1,0.5,0,0.5,0,1","0.5,0,1,0.5,0,1,0,1,0.5","2","",""
"","html-keyboard-response","85","39261","0.0-85.0","388U7OUMF8NZEL1ASSNX9OQYCKV0RK","A11YS0T8MV3Q7C","3FVBZG9CLJ0K37PD5L6161S4HTM0HN","","null","<img src=""img/food5.png"" style=""width:200px; border:14px solid green;"">","null","","","","","","","","","",""
"","image-keyboard-response","86","39284","0.0-86.0","388U7OUMF8NZEL1ASSNX9OQYCKV0RK","A11YS0T8MV3Q7C","3FVBZG9CLJ0K37PD5L6161S4HTM0HN","","21","img/food5.png","74","23","1","1","2","1","1,0.5,0,1,0.5,0,0.5,0,1","0.5,0,1,0.5,0,1,0,1,0.5","2","",""
"","html-keyboard-response","87","39591","0.0-87.0","388U7OUMF8NZEL1ASSNX9OQYCKV0RK","A11YS0T8MV3Q7C","3FVBZG9CLJ0K37PD5L6161S4HTM0HN","","null","<img src=""img/food5.png"" style=""width:200px; border:14px solid green;"">","null","","","","","","","","","",""
"","image-keyboard-response","88","39625","0.0-88.0","388U7OUMF8NZEL1ASSNX9OQYCKV0RK","A11YS0T8MV3Q7C","3FVBZG9CLJ0K37PD5L6161S4HTM0HN","","33","img/food2.png","74","33","1","0","3","1","1,0.5,0,1,0.5,0,0.5,0,1","0.5,0,1,0.5,0,1,0,1,0.5","2","",""
"","html-keyboard-response","89","39931","0.0-89.0","388U7OUMF8NZEL1ASSNX9OQYCKV0RK","A11YS0T8MV3Q7C","3FVBZG9CLJ0K37PD5L6161S4HTM0HN","","null","<img src=""img/food2.png"" style=""width:200px;border:14px solid red;"">","null","","","","","","","","","",""
"","image-keyboard-response","90","39967","0.0-90.0","388U7OUMF8NZEL1ASSNX9OQYCKV0RK","A11YS0T8MV3Q7C","3FVBZG9CLJ0K37PD5L6161S4HTM0HN","","34","img/food5.png","74","36","1","1","2","1","1,0.5,0,1,0.5,0,0.5,0,1","0.5,0,1,0.5,0,1,0,1,0.5","2","",""
"","html-keyboard-response","91","40270","0.0-91.0","388U7OUMF8NZEL1ASSNX9OQYCKV0RK","A11YS0T8MV3Q7C","3FVBZG9CLJ0K37PD5L6161S4HTM0HN","","null","<img src=""img/food5.png"" style=""width:200px; border:14px solid green;"">","null","","","","","","","","","",""
"","image-keyboard-response","92","40303","0.0-92.0","388U7OUMF8NZEL1ASSNX9OQYCKV0RK","A11YS0T8MV3Q7C","3FVBZG9CLJ0K37PD5L6161S4HTM0HN","","31","img/food5.png","74","33","1","0","2","1","1,0.5,0,1,0.5,0,0.5,0,1","0.5,0,1,0.5,0,1,0,1,0.5","2","",""
"","html-keyboard-response","93","40611","0.0-93.0","388U7OUMF8NZEL1ASSNX9OQYCKV0RK","A11YS0T8MV3Q7C","3FVBZG9CLJ0K37PD5L6161S4HTM0HN","","null","<img src=""img/food5.png"" style=""width:200px;border:14px solid red;"">","null","","","","","","","","","",""
"","image-keyboard-response","94","40616","0.0-94.0","388U7OUMF8NZEL1ASSNX9OQYCKV0RK","A11YS0T8MV3Q7C","3FVBZG9CLJ0K37PD5L6161S4HTM0HN","","3","img/food3.png","74","5","1","1","1","1","1,0.5,0,1,0.5,0,0.5,0,1","0.5,0,1,0.5,0,1,0,1,0.5","2","",""
"","html-keyboard-response","95","40920","0.0-95.0","388U7OUMF8NZEL1ASSNX9OQYCKV0RK","A11YS0T8MV3Q7C","3FVBZG9CLJ0K37PD5L6161S4HTM0HN","","null","<img src=""img/food3.png"" style=""width:200px; border:14px solid green;"">","null","","","","","","","","","",""
"","image-keyboard-response","96","40952","0.0-96.0","388U7OUMF8NZEL1ASSNX9OQYCKV0RK","A11YS0T8MV3Q7C","3FVBZG9CLJ0K37PD5L6161S4HTM0HN","","29","img/food3.png","74","30","1","0","1","1","1,0.5,0,1,0.5,0,0.5,0,1","0.5,0,1,0.5,0,1,0,1,0.5","2","",""
"","html-keyboard-response","97","41261","0.0-97.0","388U7OUMF8NZEL1ASSNX9OQYCKV0RK","A11YS0T8MV3Q7C","3FVBZG9CLJ0K37PD5L6161S4HTM0HN","","null","<img src=""img/food3.png"" style=""width:200px;border:14px solid red;"">","null","","","","","","","","","",""
"","image-keyboard-response","98","41292","0.0-98.0","388U7OUMF8NZEL1ASSNX9OQYCKV0RK","A11YS0T8MV3Q7C","3FVBZG9CLJ0K37PD5L6161S4HTM0HN","","30","img/food3.png","74","31","1","1","1","1","1,0.5,0,1,0.5,0,0.5,0,1","0.5,0,1,0.5,0,1,0,1,0.5","2","",""
"","html-keyboard-response","99","41602","0.0-99.0","388U7OUMF8NZEL1ASSNX9OQYCKV0RK","A11YS0T8MV3Q7C","3FVBZG9CLJ0K37PD5L6161S4HTM0HN","","null","<img src=""img/food3.png"" style=""width:200px; border:14px solid green;"">","null","","","","","","","","","",""
"","image-keyboard-response","100","41617","0.0-100.0","388U7OUMF8NZEL1ASSNX9OQYCKV0RK","A11YS0T8MV3Q7C","3FVBZG9CLJ0K37PD5L6161S4HTM0HN","","13","img/food2.png","74","15","1","0","3","1","1,0.5,0,1,0.5,0,0.5,0,1","0.5,0,1,0.5,0,1,0,1,0.5","2","",""
"","html-keyboard-response","101","41921","0.0-101.0","388U7OUMF8NZEL1ASSNX9OQYCKV0RK","A11YS0T8MV3Q7C","3FVBZG9CLJ0K37PD5L6161S4HTM0HN","","null","<img src=""img/food2.png"" style=""width:200px;border:14px solid red;"">","null","","","","","","","","","",""
"","image-keyboard-response","102","41948","0.0-102.0","388U7OUMF8NZEL1ASSNX9OQYCKV0RK","A11YS0T8MV3Q7C","3FVBZG9CLJ0K37PD5L6161S4HTM0HN","","24","img/food3.png","74","26","1","0","1","1","1,0.5,0,1,0.5,0,0.5,0,1","0.5,0,1,0.5,0,1,0,1,0.5","2","",""
"","html-keyboard-response","103","42251","0.0-103.0","388U7OUMF8NZEL1ASSNX9OQYCKV0RK","A11YS0T8MV3Q7C","3FVBZG9CLJ0K37PD5L6161S4HTM0HN","","null","<img src=""img/food3.png"" style=""width:200px;border:14px solid red;"">","null","","","","","","","","","",""
"","image-keyboard-response","104","42303","0.0-104.0","388U7OUMF8NZEL1ASSNX9OQYCKV0RK","A11YS0T8MV3Q7C","3FVBZG9CLJ0K37PD5L6161S4HTM0HN","","51","img/food5.png","74","53","1","0","2","1","1,0.5,0,1,0.5,0,0.5,0,1","0.5,0,1,0.5,0,1,0,1,0.5","2","",""
"","html-keyboard-response","105","42611","0.0-105.0","388U7OUMF8NZEL1ASSNX9OQYCKV0RK","A11YS0T8MV3Q7C","3FVBZG9CLJ0K37PD5L6161S4HTM0HN","","null","<img src=""img/food5.png"" style=""width:200px;border:14px solid red;"">","null","","","","","","","","","",""
"","image-keyboard-response","106","42643","0.0-106.0","388U7OUMF8NZEL1ASSNX9OQYCKV0RK","A11YS0T8MV3Q7C","3FVBZG9CLJ0K37PD5L6161S4HTM0HN","","30","img/food5.png","74","32","1","0","2","1","1,0.5,0,1,0.5,0,0.5,0,1","0.5,0,1,0.5,0,1,0,1,0.5","2","",""
"","html-keyboard-response","107","42950","0.0-107.0","388U7OUMF8NZEL1ASSNX9OQYCKV0RK","A11YS0T8MV3Q7C","3FVBZG9CLJ0K37PD5L6161S4HTM0HN","","null","<img src=""img/food5.png"" style=""width:200px;border:14px solid red;"">","null","","","","","","","","","",""
"","image-keyboard-response","108","43010","0.0-108.0","388U7OUMF8NZEL1ASSNX9OQYCKV0RK","A11YS0T8MV3Q7C","3FVBZG9CLJ0K37PD5L6161S4HTM0HN","","57","img/food5.png","74","59","1","0","2","1","1,0.5,0,1,0.5,0,0.5,0,1","0.5,0,1,0.5,0,1,0,1,0.5","2","",""
"","html-keyboard-response","109","43320","0.0-109.0","388U7OUMF8NZEL1ASSNX9OQYCKV0RK","A11YS0T8MV3Q7C","3FVBZG9CLJ0K37PD5L6161S4HTM0HN","","null","<img src=""img/food5.png"" style=""width:200px;border:14px solid red;"">","null","","","","","","","","","",""
"","image-keyboard-response","110","43484","0.0-110.0","388U7OUMF8NZEL1ASSNX9OQYCKV0RK","A11YS0T8MV3Q7C","3FVBZG9CLJ0K37PD5L6161S4HTM0HN","","163","img/food2.png","76","163","3","1","3","1","1,0.5,0,1,0.5,0,0.5,0,1","0.5,0,1,0.5,0,1,0,1,0.5","2","",""
"","html-keyboard-response","111","43790","0.0-111.0","388U7OUMF8NZEL1ASSNX9OQYCKV0RK","A11YS0T8MV3Q7C","3FVBZG9CLJ0K37PD5L6161S4HTM0HN","","null","<img src=""img/food2.png"" style=""width:200px; border:14px solid green;"">","null","","","","","","","","","",""
"","image-keyboard-response","112","43928","0.0-112.0","388U7OUMF8NZEL1ASSNX9OQYCKV0RK","A11YS0T8MV3Q7C","3FVBZG9CLJ0K37PD5L6161S4HTM0HN","","136","img/food5.png","74","137","1","0","2","1","1,0.5,0,1,0.5,0,0.5,0,1","0.5,0,1,0.5,0,1,0,1,0.5","2","",""
"","html-keyboard-response","113","44231","0.0-113.0","388U7OUMF8NZEL1ASSNX9OQYCKV0RK","A11YS0T8MV3Q7C","3FVBZG9CLJ0K37PD5L6161S4HTM0HN","","null","<img src=""img/food5.png"" style=""width:200px;border:14px solid red;"">","null","","","","","","","","","",""
"","image-keyboard-response","114","44261","0.0-114.0","388U7OUMF8NZEL1ASSNX9OQYCKV0RK","A11YS0T8MV3Q7C","3FVBZG9CLJ0K37PD5L6161S4HTM0HN","","28","img/food2.png","76","30","3","1","3","1","1,0.5,0,1,0.5,0,0.5,0,1","0.5,0,1,0.5,0,1,0,1,0.5","2","",""
"","html-keyboard-response","115","44571","0.0-115.0","388U7OUMF8NZEL1ASSNX9OQYCKV0RK","A11YS0T8MV3Q7C","3FVBZG9CLJ0K37PD5L6161S4HTM0HN","","null","<img src=""img/food2.png"" style=""width:200px; border:14px solid green;"">","null","","","","","","","","","",""
"","image-keyboard-response","116","44579","0.0-116.0","388U7OUMF8NZEL1ASSNX9OQYCKV0RK","A11YS0T8MV3Q7C","3FVBZG9CLJ0K37PD5L6161S4HTM0HN","","8","img/food2.png","75","9","2","1","3","1","1,0.5,0,1,0.5,0,0.5,0,1","0.5,0,1,0.5,0,1,0,1,0.5","2","",""
"","html-keyboard-response","117","44891","0.0-117.0","388U7OUMF8NZEL1ASSNX9OQYCKV0RK","A11YS0T8MV3Q7C","3FVBZG9CLJ0K37PD5L6161S4HTM0HN","","null","<img src=""img/food2.png"" style=""width:200px; border:14px solid green;"">","null","","","","","","","","","",""
"","image-keyboard-response","118","44913","0.0-118.0","388U7OUMF8NZEL1ASSNX9OQYCKV0RK","A11YS0T8MV3Q7C","3FVBZG9CLJ0K37PD5L6161S4HTM0HN","","20","img/food2.png","76","22","3","1","3","1","1,0.5,0,1,0.5,0,0.5,0,1","0.5,0,1,0.5,0,1,0,1,0.5","2","",""
"","html-keyboard-response","119","45230","0.0-119.0","388U7OUMF8NZEL1ASSNX9OQYCKV0RK","A11YS0T8MV3Q7C","3FVBZG9CLJ0K37PD5L6161S4HTM0HN","","null","<img src=""img/food2.png"" style=""width:200px; border:14px solid green;"">","null","","","","","","","","","",""
"","image-keyboard-response","120","45284","0.0-120.0","388U7OUMF8NZEL1ASSNX9OQYCKV0RK","A11YS0T8MV3Q7C","3FVBZG9CLJ0K37PD5L6161S4HTM0HN","","52","img/food5.png","76","53","3","1","2","1","1,0.5,0,1,0.5,0,0.5,0,1","0.5,0,1,0.5,0,1,0,1,0.5","2","",""
"","html-keyboard-response","121","45591","0.0-121.0","388U7OUMF8NZEL1ASSNX9OQYCKV0RK","A11YS0T8MV3Q7C","3FVBZG9CLJ0K37PD5L6161S4HTM0HN","","null","<img src=""img/food5.png"" style=""width:200px; border:14px solid green;"">","null","","","","","","","","","",""
"","image-keyboard-response","122","45598","0.0-122.0","388U7OUMF8NZEL1ASSNX9OQYCKV0RK","A11YS0T8MV3Q7C","3FVBZG9CLJ0K37PD5L6161S4HTM0HN","","6","img/food5.png","75","8","2","0","2","1","1,0.5,0,1,0.5,0,0.5,0,1","0.5,0,1,0.5,0,1,0,1,0.5","2","",""
"","html-keyboard-response","123","45900","0.0-123.0","388U7OUMF8NZEL1ASSNX9OQYCKV0RK","A11YS0T8MV3Q7C","3FVBZG9CLJ0K37PD5L6161S4HTM0HN","","null","<img src=""img/food5.png"" style=""width:200px;border:14px solid red;"">","null","","","","","","","","","",""
"","image-keyboard-response","124","46042","0.0-124.0","388U7OUMF8NZEL1ASSNX9OQYCKV0RK","A11YS0T8MV3Q7C","3FVBZG9CLJ0K37PD5L6161S4HTM0HN","","139","img/food5.png","76","141","3","1","2","1","1,0.5,0,1,0.5,0,0.5,0,1","0.5,0,1,0.5,0,1,0,1,0.5","2","",""
"","html-keyboard-response","125","46351","0.0-125.0","388U7OUMF8NZEL1ASSNX9OQYCKV0RK","A11YS0T8MV3Q7C","3FVBZG9CLJ0K37PD5L6161S4HTM0HN","","null","<img src=""img/food5.png"" style=""width:200px; border:14px solid green;"">","null","","","","","","","","","",""
"","image-keyboard-response","126","46385","0.0-126.0","388U7OUMF8NZEL1ASSNX9OQYCKV0RK","A11YS0T8MV3Q7C","3FVBZG9CLJ0K37PD5L6161S4HTM0HN","","32","img/food2.png","74","33","1","0","3","1","1,0.5,0,1,0.5,0,0.5,0,1","0.5,0,1,0.5,0,1,0,1,0.5","2","",""
"","html-keyboard-response","127","46690","0.0-127.0","388U7OUMF8NZEL1ASSNX9OQYCKV0RK","A11YS0T8MV3Q7C","3FVBZG9CLJ0K37PD5L6161S4HTM0HN","","null","<img src=""img/food2.png"" style=""width:200px;border:14px solid red;"">","null","","","","","","","","","",""
"","image-keyboard-response","128","46778","0.0-128.0","388U7OUMF8NZEL1ASSNX9OQYCKV0RK","A11YS0T8MV3Q7C","3FVBZG9CLJ0K37PD5L6161S4HTM0HN","","85","img/food2.png","75","87","2","1","3","1","1,0.5,0,1,0.5,0,0.5,0,1","0.5,0,1,0.5,0,1,0,1,0.5","2","",""
"","html-keyboard-response","129","47091","0.0-129.0","388U7OUMF8NZEL1ASSNX9OQYCKV0RK","A11YS0T8MV3Q7C","3FVBZG9CLJ0K37PD5L6161S4HTM0HN","","null","<img src=""img/food2.png"" style=""width:200px; border:14px solid green;"">","null","","","","","","","","","",""
"","image-keyboard-response","130","47317","0.0-130.0","388U7OUMF8NZEL1ASSNX9OQYCKV0RK","A11YS0T8MV3Q7C","3FVBZG9CLJ0K37PD5L6161S4HTM0HN","","225","img/food5.png","74","226","1","0","2","1","1,0.5,0,1,0.5,0,0.5,0,1","0.5,0,1,0.5,0,1,0,1,0.5","2","",""
"","html-keyboard-response","131","47620","0.0-131.0","388U7OUMF8NZEL1ASSNX9OQYCKV0RK","A11YS0T8MV3Q7C","3FVBZG9CLJ0K37PD5L6161S4HTM0HN","","null","<img src=""img/food5.png"" style=""width:200px;border:14px solid red;"">","null","","","","","","","","","",""
"","image-keyboard-response","132","47625","0.0-132.0","388U7OUMF8NZEL1ASSNX9OQYCKV0RK","A11YS0T8MV3Q7C","3FVBZG9CLJ0K37PD5L6161S4HTM0HN","","4","img/food2.png","76","5","3","0","3","1","1,0.5,0,1,0.5,0,0.5,0,1","0.5,0,1,0.5,0,1,0,1,0.5","2","",""
"","html-keyboard-response","133","47930","0.0-133.0","388U7OUMF8NZEL1ASSNX9OQYCKV0RK","A11YS0T8MV3Q7C","3FVBZG9CLJ0K37PD5L6161S4HTM0HN","","null","<img src=""img/food2.png"" style=""width:200px;border:14px solid red;"">","null","","","","","","","","","",""
"","image-keyboard-response","134","48048","0.0-134.0","388U7OUMF8NZEL1ASSNX9OQYCKV0RK","A11YS0T8MV3Q7C","3FVBZG9CLJ0K37PD5L6161S4HTM0HN","","117","img/food2.png","75","118","2","1","3","1","1,0.5,0,1,0.5,0,0.5,0,1","0.5,0,1,0.5,0,1,0,1,0.5","2","",""
"","html-keyboard-response","135","48361","0.0-135.0","388U7OUMF8NZEL1ASSNX9OQYCKV0RK","A11YS0T8MV3Q7C","3FVBZG9CLJ0K37PD5L6161S4HTM0HN","","null","<img src=""img/food2.png"" style=""width:200px; border:14px solid green;"">","null","","","","","","","","","",""
"","image-keyboard-response","136","48379","0.0-136.0","388U7OUMF8NZEL1ASSNX9OQYCKV0RK","A11YS0T8MV3Q7C","3FVBZG9CLJ0K37PD5L6161S4HTM0HN","","16","img/food3.png","75","18","2","0","1","1","1,0.5,0,1,0.5,0,0.5,0,1","0.5,0,1,0.5,0,1,0,1,0.5","2","",""
"","html-keyboard-response","137","48690","0.0-137.0","388U7OUMF8NZEL1ASSNX9OQYCKV0RK","A11YS0T8MV3Q7C","3FVBZG9CLJ0K37PD5L6161S4HTM0HN","","null","<img src=""img/food3.png"" style=""width:200px;border:14px solid red;"">","null","","","","","","","","","",""
"","image-keyboard-response","138","48746","0.0-138.0","388U7OUMF8NZEL1ASSNX9OQYCKV0RK","A11YS0T8MV3Q7C","3FVBZG9CLJ0K37PD5L6161S4HTM0HN","","52","img/food2.png","75","55","2","1","3","1","1,0.5,0,1,0.5,0,0.5,0,1","0.5,0,1,0.5,0,1,0,1,0.5","2","",""
"","html-keyboard-response","139","49051","0.0-139.0","388U7OUMF8NZEL1ASSNX9OQYCKV0RK","A11YS0T8MV3Q7C","3FVBZG9CLJ0K37PD5L6161S4HTM0HN","","null","<img src=""img/food2.png"" style=""width:200px; border:14px solid green;"">","null","","","","","","","","","",""
"","image-keyboard-response","140","49104","0.0-140.0","388U7OUMF8NZEL1ASSNX9OQYCKV0RK","A11YS0T8MV3Q7C","3FVBZG9CLJ0K37PD5L6161S4HTM0HN","","52","img/food3.png","75","54","2","0","1","1","1,0.5,0,1,0.5,0,0.5,0,1","0.5,0,1,0.5,0,1,0,1,0.5","2","",""
"","html-keyboard-response","141","49410","0.0-141.0","388U7OUMF8NZEL1ASSNX9OQYCKV0RK","A11YS0T8MV3Q7C","3FVBZG9CLJ0K37PD5L6161S4HTM0HN","","null","<img src=""img/food3.png"" style=""width:200px;border:14px solid red;"">","null","","","","","","","","","",""
"","image-keyboard-response","142","49459","0.0-142.0","388U7OUMF8NZEL1ASSNX9OQYCKV0RK","A11YS0T8MV3Q7C","3FVBZG9CLJ0K37PD5L6161S4HTM0HN","","47","img/food3.png","75","49","2","0","1","1","1,0.5,0,1,0.5,0,0.5,0,1","0.5,0,1,0.5,0,1,0,1,0.5","2","",""
"","html-keyboard-response","143","49771","0.0-143.0","388U7OUMF8NZEL1ASSNX9OQYCKV0RK","A11YS0T8MV3Q7C","3FVBZG9CLJ0K37PD5L6161S4HTM0HN","","null","<img src=""img/food3.png"" style=""width:200px;border:14px solid red;"">","null","","","","","","","","","",""
"","image-keyboard-response","144","49797","0.0-144.0","388U7OUMF8NZEL1ASSNX9OQYCKV0RK","A11YS0T8MV3Q7C","3FVBZG9CLJ0K37PD5L6161S4HTM0HN","","25","img/food5.png","75","26","2","0","2","1","1,0.5,0,1,0.5,0,0.5,0,1","0.5,0,1,0.5,0,1,0,1,0.5","2","",""
"","html-keyboard-response","145","50100","0.0-145.0","388U7OUMF8NZEL1ASSNX9OQYCKV0RK","A11YS0T8MV3Q7C","3FVBZG9CLJ0K37PD5L6161S4HTM0HN","","null","<img src=""img/food5.png"" style=""width:200px;border:14px solid red;"">","null","","","","","","","","","",""
"","image-keyboard-response","146","50165","0.0-146.0","388U7OUMF8NZEL1ASSNX9OQYCKV0RK","A11YS0T8MV3Q7C","3FVBZG9CLJ0K37PD5L6161S4HTM0HN","","64","img/food3.png","75","64","2","0","1","1","1,0.5,0,1,0.5,0,0.5,0,1","0.5,0,1,0.5,0,1,0,1,0.5","2","",""
"","html-keyboard-response","147","50471","0.0-147.0","388U7OUMF8NZEL1ASSNX9OQYCKV0RK","A11YS0T8MV3Q7C","3FVBZG9CLJ0K37PD5L6161S4HTM0HN","","null","<img src=""img/food3.png"" style=""width:200px;border:14px solid red;"">","null","","","","","","","","","",""
"","image-keyboard-response","148","50547","0.0-148.0","388U7OUMF8NZEL1ASSNX9OQYCKV0RK","A11YS0T8MV3Q7C","3FVBZG9CLJ0K37PD5L6161S4HTM0HN","","75","img/food3.png","76","76","3","1","1","1","1,0.5,0,1,0.5,0,0.5,0,1","0.5,0,1,0.5,0,1,0,1,0.5","2","",""
"","html-keyboard-response","149","50850","0.0-149.0","388U7OUMF8NZEL1ASSNX9OQYCKV0RK","A11YS0T8MV3Q7C","3FVBZG9CLJ0K37PD5L6161S4HTM0HN","","null","<img src=""img/food3.png"" style=""width:200px; border:14px solid green;"">","null","","","","","","","","","",""
"","image-keyboard-response","150","50903","0.0-150.0","388U7OUMF8NZEL1ASSNX9OQYCKV0RK","A11YS0T8MV3Q7C","3FVBZG9CLJ0K37PD5L6161S4HTM0HN","","51","img/food2.png","75","52","2","1","3","1","1,0.5,0,1,0.5,0,0.5,0,1","0.5,0,1,0.5,0,1,0,1,0.5","2","",""
"","html-keyboard-response","151","51211","0.0-151.0","388U7OUMF8NZEL1ASSNX9OQYCKV0RK","A11YS0T8MV3Q7C","3FVBZG9CLJ0K37PD5L6161S4HTM0HN","","null","<img src=""img/food2.png"" style=""width:200px; border:14px solid green;"">","null","","","","","","","","","",""
"","image-keyboard-response","152","51214","0.0-152.0","388U7OUMF8NZEL1ASSNX9OQYCKV0RK","A11YS0T8MV3Q7C","3FVBZG9CLJ0K37PD5L6161S4HTM0HN","","2","img/food3.png","74","3","1","0","1","1","1,0.5,0,1,0.5,0,0.5,0,1","0.5,0,1,0.5,0,1,0,1,0.5","2","",""
"","html-keyboard-response","153","51521","0.0-153.0","388U7OUMF8NZEL1ASSNX9OQYCKV0RK","A11YS0T8MV3Q7C","3FVBZG9CLJ0K37PD5L6161S4HTM0HN","","null","<img src=""img/food3.png"" style=""width:200px;border:14px solid red;"">","null","","","","","","","","","",""
"","image-keyboard-response","154","51604","0.0-154.0","388U7OUMF8NZEL1ASSNX9OQYCKV0RK","A11YS0T8MV3Q7C","3FVBZG9CLJ0K37PD5L6161S4HTM0HN","","79","img/food3.png","74","82","1","1","1","1","1,0.5,0,1,0.5,0,0.5,0,1","0.5,0,1,0.5,0,1,0,1,0.5","2","",""
"","html-keyboard-response","155","51910","0.0-155.0","388U7OUMF8NZEL1ASSNX9OQYCKV0RK","A11YS0T8MV3Q7C","3FVBZG9CLJ0K37PD5L6161S4HTM0HN","","null","<img src=""img/food3.png"" style=""width:200px; border:14px solid green;"">","null","","","","","","","","","",""
"","image-keyboard-response","156","51989","0.0-156.0","388U7OUMF8NZEL1ASSNX9OQYCKV0RK","A11YS0T8MV3Q7C","3FVBZG9CLJ0K37PD5L6161S4HTM0HN","","78","img/food3.png","75","79","2","0","1","1","1,0.5,0,1,0.5,0,0.5,0,1","0.5,0,1,0.5,0,1,0,1,0.5","2","",""
"","html-keyboard-response","157","52291","0.0-157.0","388U7OUMF8NZEL1ASSNX9OQYCKV0RK","A11YS0T8MV3Q7C","3FVBZG9CLJ0K37PD5L6161S4HTM0HN","","null","<img src=""img/food3.png"" style=""width:200px;border:14px solid red;"">","null","","","","","","","","","",""
"","image-keyboard-response","158","52361","0.0-158.0","388U7OUMF8NZEL1ASSNX9OQYCKV0RK","A11YS0T8MV3Q7C","3FVBZG9CLJ0K37PD5L6161S4HTM0HN","","68","img/food5.png","74","70","1","1","2","1","1,0.5,0,1,0.5,0,0.5,0,1","0.5,0,1,0.5,0,1,0,1,0.5","2","",""
"","html-keyboard-response","159","52670","0.0-159.0","388U7OUMF8NZEL1ASSNX9OQYCKV0RK","A11YS0T8MV3Q7C","3FVBZG9CLJ0K37PD5L6161S4HTM0HN","","null","<img src=""img/food5.png"" style=""width:200px; border:14px solid green;"">","null","","","","","","","","","",""
"","image-keyboard-response","160","52689","0.0-160.0","388U7OUMF8NZEL1ASSNX9OQYCKV0RK","A11YS0T8MV3Q7C","3FVBZG9CLJ0K37PD5L6161S4HTM0HN","","17","img/food5.png","75","19","2","0","2","1","1,0.5,0,1,0.5,0,0.5,0,1","0.5,0,1,0.5,0,1,0,1,0.5","2","",""
"","html-keyboard-response","161","53000","0.0-161.0","388U7OUMF8NZEL1ASSNX9OQYCKV0RK","A11YS0T8MV3Q7C","3FVBZG9CLJ0K37PD5L6161S4HTM0HN","","null","<img src=""img/food5.png"" style=""width:200px;border:14px solid red;"">","null","","","","","","","","","",""
"","image-keyboard-response","162","53088","0.0-162.0","388U7OUMF8NZEL1ASSNX9OQYCKV0RK","A11YS0T8MV3Q7C","3FVBZG9CLJ0K37PD5L6161S4HTM0HN","","85","img/food3.png","75","87","2","0","1","1","1,0.5,0,1,0.5,0,0.5,0,1","0.5,0,1,0.5,0,1,0,1,0.5","2","",""
"","html-keyboard-response","163","53391","0.0-163.0","388U7OUMF8NZEL1ASSNX9OQYCKV0RK","A11YS0T8MV3Q7C","3FVBZG9CLJ0K37PD5L6161S4HTM0HN","","null","<img src=""img/food3.png"" style=""width:200px;border:14px solid red;"">","null","","","","","","","","","",""
"","image-keyboard-response","164","53486","0.0-164.0","388U7OUMF8NZEL1ASSNX9OQYCKV0RK","A11YS0T8MV3Q7C","3FVBZG9CLJ0K37PD5L6161S4HTM0HN","","93","img/food2.png","75","96","2","1","3","1","1,0.5,0,1,0.5,0,0.5,0,1","0.5,0,1,0.5,0,1,0,1,0.5","2","",""
"","html-keyboard-response","165","53791","0.0-165.0","388U7OUMF8NZEL1ASSNX9OQYCKV0RK","A11YS0T8MV3Q7C","3FVBZG9CLJ0K37PD5L6161S4HTM0HN","","null","<img src=""img/food2.png"" style=""width:200px; border:14px solid green;"">","null","","","","","","","","","",""
"","image-keyboard-response","166","53820","0.0-166.0","388U7OUMF8NZEL1ASSNX9OQYCKV0RK","A11YS0T8MV3Q7C","3FVBZG9CLJ0K37PD5L6161S4HTM0HN","","29","img/food2.png","74","30","1","0","3","1","1,0.5,0,1,0.5,0,0.5,0,1","0.5,0,1,0.5,0,1,0,1,0.5","2","",""
"","html-keyboard-response","167","54130","0.0-167.0","388U7OUMF8NZEL1ASSNX9OQYCKV0RK","A11YS0T8MV3Q7C","3FVBZG9CLJ0K37PD5L6161S4HTM0HN","","null","<img src=""img/food2.png"" style=""width:200px;border:14px solid red;"">","null","","","","","","","","","",""
"","image-keyboard-response","168","54194","0.0-168.0","388U7OUMF8NZEL1ASSNX9OQYCKV0RK","A11YS0T8MV3Q7C","3FVBZG9CLJ0K37PD5L6161S4HTM0HN","","62","img/food5.png","74","64","1","1","2","1","1,0.5,0,1,0.5,0,0.5,0,1","0.5,0,1,0.5,0,1,0,1,0.5","2","",""
"","html-keyboard-response","169","54500","0.0-169.0","388U7OUMF8NZEL1ASSNX9OQYCKV0RK","A11YS0T8MV3Q7C","3FVBZG9CLJ0K37PD5L6161S4HTM0HN","","null","<img src=""img/food5.png"" style=""width:200px; border:14px solid green;"">","null","","","","","","","","","",""
"","image-keyboard-response","170","54653","0.0-170.0","388U7OUMF8NZEL1ASSNX9OQYCKV0RK","A11YS0T8MV3Q7C","3FVBZG9CLJ0K37PD5L6161S4HTM0HN","","151","img/food5.png","74","152","1","0","2","1","1,0.5,0,1,0.5,0,0.5,0,1","0.5,0,1,0.5,0,1,0,1,0.5","2","",""
"","html-keyboard-response","171","54961","0.0-171.0","388U7OUMF8NZEL1ASSNX9OQYCKV0RK","A11YS0T8MV3Q7C","3FVBZG9CLJ0K37PD5L6161S4HTM0HN","","null","<img src=""img/food5.png"" style=""width:200px;border:14px solid red;"">","null","","","","","","","","","",""
"","image-keyboard-response","172","55001","0.0-172.0","388U7OUMF8NZEL1ASSNX9OQYCKV0RK","A11YS0T8MV3Q7C","3FVBZG9CLJ0K37PD5L6161S4HTM0HN","","38","img/food5.png","74","40","1","0","2","1","1,0.5,0,1,0.5,0,0.5,0,1","0.5,0,1,0.5,0,1,0,1,0.5","2","",""
"","html-keyboard-response","173","55311","0.0-173.0","388U7OUMF8NZEL1ASSNX9OQYCKV0RK","A11YS0T8MV3Q7C","3FVBZG9CLJ0K37PD5L6161S4HTM0HN","","null","<img src=""img/food5.png"" style=""width:200px;border:14px solid red;"">","null","","","","","","","","","",""
"","image-keyboard-response","174","55372","0.0-174.0","388U7OUMF8NZEL1ASSNX9OQYCKV0RK","A11YS0T8MV3Q7C","3FVBZG9CLJ0K37PD5L6161S4HTM0HN","","59","img/food5.png","74","61","1","1","2","1","1,0.5,0,1,0.5,0,0.5,0,1","0.5,0,1,0.5,0,1,0,1,0.5","2","",""
"","html-keyboard-response","175","55681","0.0-175.0","388U7OUMF8NZEL1ASSNX9OQYCKV0RK","A11YS0T8MV3Q7C","3FVBZG9CLJ0K37PD5L6161S4HTM0HN","","null","<img src=""img/food5.png"" style=""width:200px; border:14px solid green;"">","null","","","","","","","","","",""
"","image-keyboard-response","176","55697","0.0-176.0","388U7OUMF8NZEL1ASSNX9OQYCKV0RK","A11YS0T8MV3Q7C","3FVBZG9CLJ0K37PD5L6161S4HTM0HN","","15","img/food3.png","75","15","2","0","1","1","1,0.5,0,1,0.5,0,0.5,0,1","0.5,0,1,0.5,0,1,0,1,0.5","2","",""
"","html-keyboard-response","177","56000","0.0-177.0","388U7OUMF8NZEL1ASSNX9OQYCKV0RK","A11YS0T8MV3Q7C","3FVBZG9CLJ0K37PD5L6161S4HTM0HN","","null","<img src=""img/food3.png"" style=""width:200px;border:14px solid red;"">","null","","","","","","","","","",""
"","image-keyboard-response","178","56117","0.0-178.0","388U7OUMF8NZEL1ASSNX9OQYCKV0RK","A11YS0T8MV3Q7C","3FVBZG9CLJ0K37PD5L6161S4HTM0HN","","117","img/food2.png","74","118","1","0","3","1","1,0.5,0,1,0.5,0,0.5,0,1","0.5,0,1,0.5,0,1,0,1,0.5","2","",""
"","html-keyboard-response","179","56420","0.0-179.0","388U7OUMF8NZEL1ASSNX9OQYCKV0RK","A11YS0T8MV3Q7C","3FVBZG9CLJ0K37PD5L6161S4HTM0HN","","null","<img src=""img/food2.png"" style=""width:200px;border:14px solid red;"">","null","","","","","","","","","",""
"","image-keyboard-response","180","56458","0.0-180.0","388U7OUMF8NZEL1ASSNX9OQYCKV0RK","A11YS0T8MV3Q7C","3FVBZG9CLJ0K37PD5L6161S4HTM0HN","","35","img/food2.png","74","36","1","0","3","1","1,0.5,0,1,0.5,0,0.5,0,1","0.5,0,1,0.5,0,1,0,1,0.5","2","",""
"","html-keyboard-response","181","56760","0.0-181.0","388U7OUMF8NZEL1ASSNX9OQYCKV0RK","A11YS0T8MV3Q7C","3FVBZG9CLJ0K37PD5L6161S4HTM0HN","","null","<img src=""img/food2.png"" style=""width:200px;border:14px solid red;"">","null","","","","","","","","","",""
"","html-keyboard-response","182","58935","0.0-182.0","388U7OUMF8NZEL1ASSNX9OQYCKV0RK","A11YS0T8MV3Q7C","3FVBZG9CLJ0K37PD5L6161S4HTM0HN","","","","","","","","","","","","","",""
"","instructions","183","62913","0.0-183.0","388U7OUMF8NZEL1ASSNX9OQYCKV0RK","A11YS0T8MV3Q7C","3FVBZG9CLJ0K37PD5L6161S4HTM0HN","[{""page_index"":0,""viewing_time"":3256},{""page_index"":1,""viewing_time"":716}]","3972","","","","","","","","","","","",""
"","image-keyboard-response","184","63424","0.0-184.0","388U7OUMF8NZEL1ASSNX9OQYCKV0RK","A11YS0T8MV3Q7C","3FVBZG9CLJ0K37PD5L6161S4HTM0HN","","505","img/food1.png","74","508","1","0","2","2","1,0.5,0,1,0.5,0,0.5,0,1","0.5,0,1,0.5,0,1,0,1,0.5","2","false",""
"","html-keyboard-response","185","63731","0.0-185.0","388U7OUMF8NZEL1ASSNX9OQYCKV0RK","A11YS0T8MV3Q7C","3FVBZG9CLJ0K37PD5L6161S4HTM0HN","","null","<img src=""img/food1.png"" style=""width:200px;border:14px solid red;"">","null","","","","","","","","","",""
"","image-keyboard-response","186","63948","0.0-187.0","388U7OUMF8NZEL1ASSNX9OQYCKV0RK","A11YS0T8MV3Q7C","3FVBZG9CLJ0K37PD5L6161S4HTM0HN","","215","img/food6.png","75","217","2","1","3","2","1,0.5,0,1,0.5,0,0.5,0,1","0.5,0,1,0.5,0,1,0,1,0.5","2","false",""
"","html-keyboard-response","187","64260","0.0-188.0","388U7OUMF8NZEL1ASSNX9OQYCKV0RK","A11YS0T8MV3Q7C","3FVBZG9CLJ0K37PD5L6161S4HTM0HN","","null","<img src=""img/food6.png"" style=""width:200px; border:14px solid green;"">","null","","","","","","","","","",""
"","image-keyboard-response","188","64308","0.0-190.0","388U7OUMF8NZEL1ASSNX9OQYCKV0RK","A11YS0T8MV3Q7C","3FVBZG9CLJ0K37PD5L6161S4HTM0HN","","47","img/food1.png","75","47","2","0","2","2","1,0.5,0,1,0.5,0,0.5,0,1","0.5,0,1,0.5,0,1,0,1,0.5","2","false",""
"","html-keyboard-response","189","64610","0.0-191.0","388U7OUMF8NZEL1ASSNX9OQYCKV0RK","A11YS0T8MV3Q7C","3FVBZG9CLJ0K37PD5L6161S4HTM0HN","","null","<img src=""img/food1.png"" style=""width:200px;border:14px solid red;"">","null","","","","","","","","","",""
"","image-keyboard-response","190","64691","0.0-193.0","388U7OUMF8NZEL1ASSNX9OQYCKV0RK","A11YS0T8MV3Q7C","3FVBZG9CLJ0K37PD5L6161S4HTM0HN","","77","img/food4.png","75","79","2","0","1","2","1,0.5,0,1,0.5,0,0.5,0,1","0.5,0,1,0.5,0,1,0,1,0.5","2","false",""
"","html-keyboard-response","191","65005","0.0-194.0","388U7OUMF8NZEL1ASSNX9OQYCKV0RK","A11YS0T8MV3Q7C","3FVBZG9CLJ0K37PD5L6161S4HTM0HN","","null","<img src=""img/food4.png"" style=""width:200px;border:14px solid red;"">","null","","","","","","","","","",""
"","image-keyboard-response","192","65023","0.0-196.0","388U7OUMF8NZEL1ASSNX9OQYCKV0RK","A11YS0T8MV3Q7C","3FVBZG9CLJ0K37PD5L6161S4HTM0HN","","2","img/food1.png","74","4","1","1","2","2","1,0.5,0,1,0.5,0,0.5,0,1","0.5,0,1,0.5,0,1,0,1,0.5","2","false",""
"","html-keyboard-response","193","65331","0.0-197.0","388U7OUMF8NZEL1ASSNX9OQYCKV0RK","A11YS0T8MV3Q7C","3FVBZG9CLJ0K37PD5L6161S4HTM0HN","","null","<img src=""img/food1.png"" style=""width:200px; border:14px solid green;"">","null","","","","","","","","","",""
"","image-keyboard-response","194","65375","0.0-199.0","388U7OUMF8NZEL1ASSNX9OQYCKV0RK","A11YS0T8MV3Q7C","3FVBZG9CLJ0K37PD5L6161S4HTM0HN","","39","img/food1.png","75","42","2","0","2","2","1,0.5,0,1,0.5,0,0.5,0,1","0.5,0,1,0.5,0,1,0,1,0.5","2","false",""
"","html-keyboard-response","195","65681","0.0-200.0","388U7OUMF8NZEL1ASSNX9OQYCKV0RK","A11YS0T8MV3Q7C","3FVBZG9CLJ0K37PD5L6161S4HTM0HN","","null","<img src=""img/food1.png"" style=""width:200px;border:14px solid red;"">","null","","","","","","","","","",""
"","image-keyboard-response","196","65966","0.0-202.0","388U7OUMF8NZEL1ASSNX9OQYCKV0RK","A11YS0T8MV3Q7C","3FVBZG9CLJ0K37PD5L6161S4HTM0HN","","284","img/food6.png","76","286","3","0","3","2","1,0.5,0,1,0.5,0,0.5,0,1","0.5,0,1,0.5,0,1,0,1,0.5","2","false",""
"","html-keyboard-response","197","66270","0.0-203.0","388U7OUMF8NZEL1ASSNX9OQYCKV0RK","A11YS0T8MV3Q7C","3FVBZG9CLJ0K37PD5L6161S4HTM0HN","","null","<img src=""img/food6.png"" style=""width:200px;border:14px solid red;"">","null","","","","","","","","","",""
"","image-keyboard-response","198","66282","0.0-205.0","388U7OUMF8NZEL1ASSNX9OQYCKV0RK","A11YS0T8MV3Q7C","3FVBZG9CLJ0K37PD5L6161S4HTM0HN","","11","img/food6.png","74","12","1","0","3","2","1,0.5,0,1,0.5,0,0.5,0,1","0.5,0,1,0.5,0,1,0,1,0.5","2","false",""
"","html-keyboard-response","199","66590","0.0-206.0","388U7OUMF8NZEL1ASSNX9OQYCKV0RK","A11YS0T8MV3Q7C","3FVBZG9CLJ0K37PD5L6161S4HTM0HN","","null","<img src=""img/food6.png"" style=""width:200px;border:14px solid red;"">","null","","","","","","","","","",""
"","image-keyboard-response","200","66740","0.0-208.0","388U7OUMF8NZEL1ASSNX9OQYCKV0RK","A11YS0T8MV3Q7C","3FVBZG9CLJ0K37PD5L6161S4HTM0HN","","148","img/food1.png","75","149","2","0","2","2","1,0.5,0,1,0.5,0,0.5,0,1","0.5,0,1,0.5,0,1,0,1,0.5","2","false",""
"","html-keyboard-response","201","67050","0.0-209.0","388U7OUMF8NZEL1ASSNX9OQYCKV0RK","A11YS0T8MV3Q7C","3FVBZG9CLJ0K37PD5L6161S4HTM0HN","","null","<img src=""img/food1.png"" style=""width:200px;border:14px solid red;"">","null","","","","","","","","","",""
"","image-keyboard-response","202","67154","0.0-211.0","388U7OUMF8NZEL1ASSNX9OQYCKV0RK","A11YS0T8MV3Q7C","3FVBZG9CLJ0K37PD5L6161S4HTM0HN","","101","img/food4.png","75","102","2","0","1","2","1,0.5,0,1,0.5,0,0.5,0,1","0.5,0,1,0.5,0,1,0,1,0.5","2","false",""
"","html-keyboard-response","203","67461","0.0-212.0","388U7OUMF8NZEL1ASSNX9OQYCKV0RK","A11YS0T8MV3Q7C","3FVBZG9CLJ0K37PD5L6161S4HTM0HN","","null","<img src=""img/food4.png"" style=""width:200px;border:14px solid red;"">","null","","","","","","","","","",""
"","image-keyboard-response","204","67566","0.0-214.0","388U7OUMF8NZEL1ASSNX9OQYCKV0RK","A11YS0T8MV3Q7C","3FVBZG9CLJ0K37PD5L6161S4HTM0HN","","102","img/food4.png","75","104","2","0","1","2","1,0.5,0,1,0.5,0,0.5,0,1","0.5,0,1,0.5,0,1,0,1,0.5","2","false",""
"","html-keyboard-response","205","67871","0.0-215.0","388U7OUMF8NZEL1ASSNX9OQYCKV0RK","A11YS0T8MV3Q7C","3FVBZG9CLJ0K37PD5L6161S4HTM0HN","","null","<img src=""img/food4.png"" style=""width:200px;border:14px solid red;"">","null","","","","","","","","","",""
"","image-keyboard-response","206","68009","0.0-217.0","388U7OUMF8NZEL1ASSNX9OQYCKV0RK","A11YS0T8MV3Q7C","3FVBZG9CLJ0K37PD5L6161S4HTM0HN","","137","img/food6.png","75","138","2","1","3","2","1,0.5,0,1,0.5,0,0.5,0,1","0.5,0,1,0.5,0,1,0,1,0.5","2","false",""
"","html-keyboard-response","207","68311","0.0-218.0","388U7OUMF8NZEL1ASSNX9OQYCKV0RK","A11YS0T8MV3Q7C","3FVBZG9CLJ0K37PD5L6161S4HTM0HN","","null","<img src=""img/food6.png"" style=""width:200px; border:14px solid green;"">","null","","","","","","","","","",""
"","image-keyboard-response","208","68448","0.0-220.0","388U7OUMF8NZEL1ASSNX9OQYCKV0RK","A11YS0T8MV3Q7C","3FVBZG9CLJ0K37PD5L6161S4HTM0HN","","135","img/food6.png","74","137","1","0","3","2","1,0.5,0,1,0.5,0,0.5,0,1","0.5,0,1,0.5,0,1,0,1,0.5","2","false",""
"","html-keyboard-response","209","68752","0.0-221.0","388U7OUMF8NZEL1ASSNX9OQYCKV0RK","A11YS0T8MV3Q7C","3FVBZG9CLJ0K37PD5L6161S4HTM0HN","","null","<img src=""img/food6.png"" style=""width:200px;border:14px solid red;"">","null","","","","","","","","","",""
"","image-keyboard-response","210","68814","0.0-223.0","388U7OUMF8NZEL1ASSNX9OQYCKV0RK","A11YS0T8MV3Q7C","3FVBZG9CLJ0K37PD5L6161S4HTM0HN","","59","img/food1.png","74","61","1","1","2","2","1,0.5,0,1,0.5,0,0.5,0,1","0.5,0,1,0.5,0,1,0,1,0.5","2","false",""
"","html-keyboard-response","211","69120","0.0-224.0","388U7OUMF8NZEL1ASSNX9OQYCKV0RK","A11YS0T8MV3Q7C","3FVBZG9CLJ0K37PD5L6161S4HTM0HN","","null","<img src=""img/food1.png"" style=""width:200px; border:14px solid green;"">","null","","","","","","","","","",""
"","image-keyboard-response","212","69166","0.0-226.0","388U7OUMF8NZEL1ASSNX9OQYCKV0RK","A11YS0T8MV3Q7C","3FVBZG9CLJ0K37PD5L6161S4HTM0HN","","44","img/food4.png","74","46","1","0","1","2","1,0.5,0,1,0.5,0,0.5,0,1","0.5,0,1,0.5,0,1,0,1,0.5","2","false",""
"","html-keyboard-response","213","69471","0.0-227.0","388U7OUMF8NZEL1ASSNX9OQYCKV0RK","A11YS0T8MV3Q7C","3FVBZG9CLJ0K37PD5L6161S4HTM0HN","","null","<img src=""img/food4.png"" style=""width:200px;border:14px solid red;"">","null","","","","","","","","","",""
"","image-keyboard-response","214","69594","0.0-229.0","388U7OUMF8NZEL1ASSNX9OQYCKV0RK","A11YS0T8MV3Q7C","3FVBZG9CLJ0K37PD5L6161S4HTM0HN","","121","img/food1.png","76","122","3","1","2","2","1,0.5,0,1,0.5,0,0.5,0,1","0.5,0,1,0.5,0,1,0,1,0.5","2","false",""
"","html-keyboard-response","215","69900","0.0-230.0","388U7OUMF8NZEL1ASSNX9OQYCKV0RK","A11YS0T8MV3Q7C","3FVBZG9CLJ0K37PD5L6161S4HTM0HN","","null","<img src=""img/food1.png"" style=""width:200px; border:14px solid green;"">","null","","","","","","","","","",""
"","image-keyboard-response","216","69948","0.0-232.0","388U7OUMF8NZEL1ASSNX9OQYCKV0RK","A11YS0T8MV3Q7C","3FVBZG9CLJ0K37PD5L6161S4HTM0HN","","44","img/food1.png","76","46","3","1","2","2","1,0.5,0,1,0.5,0,0.5,0,1","0.5,0,1,0.5,0,1,0,1,0.5","2","false",""
"","html-keyboard-response","217","70250","0.0-233.0","388U7OUMF8NZEL1ASSNX9OQYCKV0RK","A11YS0T8MV3Q7C","3FVBZG9CLJ0K37PD5L6161S4HTM0HN","","null","<img src=""img/food1.png"" style=""width:200px; border:14px solid green;"">","null","","","","","","","","","",""
"","image-keyboard-response","218","70303","0.0-235.0","388U7OUMF8NZEL1ASSNX9OQYCKV0RK","A11YS0T8MV3Q7C","3FVBZG9CLJ0K37PD5L6161S4HTM0HN","","52","img/food6.png","75","53","2","1","3","2","1,0.5,0,1,0.5,0,0.5,0,1","0.5,0,1,0.5,0,1,0,1,0.5","2","false",""
"","html-keyboard-response","219","70610","0.0-236.0","388U7OUMF8NZEL1ASSNX9OQYCKV0RK","A11YS0T8MV3Q7C","3FVBZG9CLJ0K37PD5L6161S4HTM0HN","","null","<img src=""img/food6.png"" style=""width:200px; border:14px solid green;"">","null","","","","","","","","","",""
"","image-keyboard-response","220","70655","0.0-238.0","388U7OUMF8NZEL1ASSNX9OQYCKV0RK","A11YS0T8MV3Q7C","3FVBZG9CLJ0K37PD5L6161S4HTM0HN","","42","img/food1.png","76","44","3","1","2","2","1,0.5,0,1,0.5,0,0.5,0,1","0.5,0,1,0.5,0,1,0,1,0.5","2","false",""
"","html-keyboard-response","221","70961","0.0-239.0","388U7OUMF8NZEL1ASSNX9OQYCKV0RK","A11YS0T8MV3Q7C","3FVBZG9CLJ0K37PD5L6161S4HTM0HN","","null","<img src=""img/food1.png"" style=""width:200px; border:14px solid green;"">","null","","","","","","","","","",""
"","image-keyboard-response","222","70990","0.0-241.0","388U7OUMF8NZEL1ASSNX9OQYCKV0RK","A11YS0T8MV3Q7C","3FVBZG9CLJ0K37PD5L6161S4HTM0HN","","27","img/food4.png","76","28","3","1","1","2","1,0.5,0,1,0.5,0,0.5,0,1","0.5,0,1,0.5,0,1,0,1,0.5","2","false",""
"","html-keyboard-response","223","71300","0.0-242.0","388U7OUMF8NZEL1ASSNX9OQYCKV0RK","A11YS0T8MV3Q7C","3FVBZG9CLJ0K37PD5L6161S4HTM0HN","","null","<img src=""img/food4.png"" style=""width:200px; border:14px solid green;"">","null","","","","","","","","","",""
"","image-keyboard-response","224","71417","0.0-244.0","388U7OUMF8NZEL1ASSNX9OQYCKV0RK","A11YS0T8MV3Q7C","3FVBZG9CLJ0K37PD5L6161S4HTM0HN","","115","img/food1.png","75","116","2","0","2","2","1,0.5,0,1,0.5,0,0.5,0,1","0.5,0,1,0.5,0,1,0,1,0.5","2","false",""
"","html-keyboard-response","225","71723","0.0-245.0","388U7OUMF8NZEL1ASSNX9OQYCKV0RK","A11YS0T8MV3Q7C","3FVBZG9CLJ0K37PD5L6161S4HTM0HN","","null","<img src=""img/food1.png"" style=""width:200px;border:14px solid red;"">","null","","","","","","","","","",""
"","image-keyboard-response","226","71832","0.0-247.0","388U7OUMF8NZEL1ASSNX9OQYCKV0RK","A11YS0T8MV3Q7C","3FVBZG9CLJ0K37PD5L6161S4HTM0HN","","108","img/food1.png","74","108","1","0","2","2","1,0.5,0,1,0.5,0,0.5,0,1","0.5,0,1,0.5,0,1,0,1,0.5","2","false",""
"","html-keyboard-response","227","72140","0.0-248.0","388U7OUMF8NZEL1ASSNX9OQYCKV0RK","A11YS0T8MV3Q7C","3FVBZG9CLJ0K37PD5L6161S4HTM0HN","","null","<img src=""img/food1.png"" style=""width:200px;border:14px solid red;"">","null","","","","","","","","","",""
"","image-keyboard-response","228","72196","0.0-250.0","388U7OUMF8NZEL1ASSNX9OQYCKV0RK","A11YS0T8MV3Q7C","3FVBZG9CLJ0K37PD5L6161S4HTM0HN","","55","img/food1.png","74","56","1","0","2","2","1,0.5,0,1,0.5,0,0.5,0,1","0.5,0,1,0.5,0,1,0,1,0.5","2","false",""
"","html-keyboard-response","229","72500","0.0-251.0","388U7OUMF8NZEL1ASSNX9OQYCKV0RK","A11YS0T8MV3Q7C","3FVBZG9CLJ0K37PD5L6161S4HTM0HN","","null","<img src=""img/food1.png"" style=""width:200px;border:14px solid red;"">","null","","","","","","","","","",""
"","image-keyboard-response","230","72563","0.0-253.0","388U7OUMF8NZEL1ASSNX9OQYCKV0RK","A11YS0T8MV3Q7C","3FVBZG9CLJ0K37PD5L6161S4HTM0HN","","60","img/food4.png","74","62","1","0","1","2","1,0.5,0,1,0.5,0,0.5,0,1","0.5,0,1,0.5,0,1,0,1,0.5","2","false",""
"","html-keyboard-response","231","72871","0.0-254.0","388U7OUMF8NZEL1ASSNX9OQYCKV0RK","A11YS0T8MV3Q7C","3FVBZG9CLJ0K37PD5L6161S4HTM0HN","","null","<img src=""img/food4.png"" style=""width:200px;border:14px solid red;"">","null","","","","","","","","","",""
"","image-keyboard-response","232","72967","0.0-256.0","388U7OUMF8NZEL1ASSNX9OQYCKV0RK","A11YS0T8MV3Q7C","3FVBZG9CLJ0K37PD5L6161S4HTM0HN","","95","img/food4.png","76","96","3","1","1","2","1,0.5,0,1,0.5,0,0.5,0,1","0.5,0,1,0.5,0,1,0,1,0.5","2","false",""
"","html-keyboard-response","233","73285","0.0-257.0","388U7OUMF8NZEL1ASSNX9OQYCKV0RK","A11YS0T8MV3Q7C","3FVBZG9CLJ0K37PD5L6161S4HTM0HN","","null","<img src=""img/food4.png"" style=""width:200px; border:14px solid green;"">","null","","","","","","","","","",""
"","image-keyboard-response","234","73368","0.0-259.0","388U7OUMF8NZEL1ASSNX9OQYCKV0RK","A11YS0T8MV3Q7C","3FVBZG9CLJ0K37PD5L6161S4HTM0HN","","80","img/food6.png","76","82","3","0","3","2","1,0.5,0,1,0.5,0,0.5,0,1","0.5,0,1,0.5,0,1,0,1,0.5","2","false",""
"","html-keyboard-response","235","73672","0.0-260.0","388U7OUMF8NZEL1ASSNX9OQYCKV0RK","A11YS0T8MV3Q7C","3FVBZG9CLJ0K37PD5L6161S4HTM0HN","","null","<img src=""img/food6.png"" style=""width:200px;border:14px solid red;"">","null","","","","","","","","","",""
"","image-keyboard-response","236","73698","0.0-262.0","388U7OUMF8NZEL1ASSNX9OQYCKV0RK","A11YS0T8MV3Q7C","3FVBZG9CLJ0K37PD5L6161S4HTM0HN","","24","img/food6.png","74","24","1","0","3","2","1,0.5,0,1,0.5,0,0.5,0,1","0.5,0,1,0.5,0,1,0,1,0.5","2","false",""
"","html-keyboard-response","237","74001","0.0-263.0","388U7OUMF8NZEL1ASSNX9OQYCKV0RK","A11YS0T8MV3Q7C","3FVBZG9CLJ0K37PD5L6161S4HTM0HN","","null","<img src=""img/food6.png"" style=""width:200px;border:14px solid red;"">","null","","","","","","","","","",""
"","image-keyboard-response","238","74053","0.0-265.0","388U7OUMF8NZEL1ASSNX9OQYCKV0RK","A11YS0T8MV3Q7C","3FVBZG9CLJ0K37PD5L6161S4HTM0HN","","50","img/food4.png","75","52","2","0","1","2","1,0.5,0,1,0.5,0,0.5,0,1","0.5,0,1,0.5,0,1,0,1,0.5","2","false",""
"","html-keyboard-response","239","74360","0.0-266.0","388U7OUMF8NZEL1ASSNX9OQYCKV0RK","A11YS0T8MV3Q7C","3FVBZG9CLJ0K37PD5L6161S4HTM0HN","","null","<img src=""img/food4.png"" style=""width:200px;border:14px solid red;"">","null","","","","","","","","","",""
"","image-keyboard-response","240","74429","0.0-268.0","388U7OUMF8NZEL1ASSNX9OQYCKV0RK","A11YS0T8MV3Q7C","3FVBZG9CLJ0K37PD5L6161S4HTM0HN","","65","img/food6.png","75","67","2","1","3","2","1,0.5,0,1,0.5,0,0.5,0,1","0.5,0,1,0.5,0,1,0,1,0.5","2","false",""
"","html-keyboard-response","241","74740","0.0-269.0","388U7OUMF8NZEL1ASSNX9OQYCKV0RK","A11YS0T8MV3Q7C","3FVBZG9CLJ0K37PD5L6161S4HTM0HN","","null","<img src=""img/food6.png"" style=""width:200px; border:14px solid green;"">","null","","","","","","","","","",""
"","image-keyboard-response","242","74892","0.0-271.0","388U7OUMF8NZEL1ASSNX9OQYCKV0RK","A11YS0T8MV3Q7C","3FVBZG9CLJ0K37PD5L6161S4HTM0HN","","150","img/food6.png","76","151","3","0","3","2","1,0.5,0,1,0.5,0,0.5,0,1","0.5,0,1,0.5,0,1,0,1,0.5","2","false",""
"","html-keyboard-response","243","75201","0.0-272.0","388U7OUMF8NZEL1ASSNX9OQYCKV0RK","A11YS0T8MV3Q7C","3FVBZG9CLJ0K37PD5L6161S4HTM0HN","","null","<img src=""img/food6.png"" style=""width:200px;border:14px solid red;"">","null","","","","","","","","","",""
"","image-keyboard-response","244","75268","0.0-274.0","388U7OUMF8NZEL1ASSNX9OQYCKV0RK","A11YS0T8MV3Q7C","3FVBZG9CLJ0K37PD5L6161S4HTM0HN","","65","img/food1.png","75","66","2","0","2","2","1,0.5,0,1,0.5,0,0.5,0,1","0.5,0,1,0.5,0,1,0,1,0.5","2","false",""
"","html-keyboard-response","245","75581","0.0-275.0","388U7OUMF8NZEL1ASSNX9OQYCKV0RK","A11YS0T8MV3Q7C","3FVBZG9CLJ0K37PD5L6161S4HTM0HN","","null","<img src=""img/food1.png"" style=""width:200px;border:14px solid red;"">","null","","","","","","","","","",""
"","image-keyboard-response","246","75650","0.0-277.0","388U7OUMF8NZEL1ASSNX9OQYCKV0RK","A11YS0T8MV3Q7C","3FVBZG9CLJ0K37PD5L6161S4HTM0HN","","68","img/food1.png","75","69","2","0","2","2","1,0.5,0,1,0.5,0,0.5,0,1","0.5,0,1,0.5,0,1,0,1,0.5","2","false",""
"","html-keyboard-response","247","75960","0.0-278.0","388U7OUMF8NZEL1ASSNX9OQYCKV0RK","A11YS0T8MV3Q7C","3FVBZG9CLJ0K37PD5L6161S4HTM0HN","","null","<img src=""img/food1.png"" style=""width:200px;border:14px solid red;"">","null","","","","","","","","","",""
"","image-keyboard-response","248","76024","0.0-280.0","388U7OUMF8NZEL1ASSNX9OQYCKV0RK","A11YS0T8MV3Q7C","3FVBZG9CLJ0K37PD5L6161S4HTM0HN","","60","img/food6.png","76","63","3","1","3","2","1,0.5,0,1,0.5,0,0.5,0,1","0.5,0,1,0.5,0,1,0,1,0.5","2","false",""
"","html-keyboard-response","249","76330","0.0-281.0","388U7OUMF8NZEL1ASSNX9OQYCKV0RK","A11YS0T8MV3Q7C","3FVBZG9CLJ0K37PD5L6161S4HTM0HN","","null","<img src=""img/food6.png"" style=""width:200px; border:14px solid green;"">","null","","","","","","","","","",""
"","image-keyboard-response","250","76441","0.0-283.0","388U7OUMF8NZEL1ASSNX9OQYCKV0RK","A11YS0T8MV3Q7C","3FVBZG9CLJ0K37PD5L6161S4HTM0HN","","108","img/food1.png","74","110","1","1","2","2","1,0.5,0,1,0.5,0,0.5,0,1","0.5,0,1,0.5,0,1,0,1,0.5","2","false",""
"","html-keyboard-response","251","76750","0.0-284.0","388U7OUMF8NZEL1ASSNX9OQYCKV0RK","A11YS0T8MV3Q7C","3FVBZG9CLJ0K37PD5L6161S4HTM0HN","","null","<img src=""img/food1.png"" style=""width:200px; border:14px solid green;"">","null","","","","","","","","","",""
"","image-keyboard-response","252","76777","0.0-286.0","388U7OUMF8NZEL1ASSNX9OQYCKV0RK","A11YS0T8MV3Q7C","3FVBZG9CLJ0K37PD5L6161S4HTM0HN","","23","img/food6.png","76","25","3","0","3","2","1,0.5,0,1,0.5,0,0.5,0,1","0.5,0,1,0.5,0,1,0,1,0.5","2","false",""
"","html-keyboard-response","253","77081","0.0-287.0","388U7OUMF8NZEL1ASSNX9OQYCKV0RK","A11YS0T8MV3Q7C","3FVBZG9CLJ0K37PD5L6161S4HTM0HN","","null","<img src=""img/food6.png"" style=""width:200px;border:14px solid red;"">","null","","","","","","","","","",""
"","image-keyboard-response","254","77223","0.0-289.0","388U7OUMF8NZEL1ASSNX9OQYCKV0RK","A11YS0T8MV3Q7C","3FVBZG9CLJ0K37PD5L6161S4HTM0HN","","140","img/food4.png","75","142","2","0","1","2","1,0.5,0,1,0.5,0,0.5,0,1","0.5,0,1,0.5,0,1,0,1,0.5","2","false",""
"","html-keyboard-response","255","77531","0.0-290.0","388U7OUMF8NZEL1ASSNX9OQYCKV0RK","A11YS0T8MV3Q7C","3FVBZG9CLJ0K37PD5L6161S4HTM0HN","","null","<img src=""img/food4.png"" style=""width:200px;border:14px solid red;"">","null","","","","","","","","","",""
"","image-keyboard-response","256","77572","0.0-292.0","388U7OUMF8NZEL1ASSNX9OQYCKV0RK","A11YS0T8MV3Q7C","3FVBZG9CLJ0K37PD5L6161S4HTM0HN","","39","img/food1.png","74","41","1","1","2","2","1,0.5,0,1,0.5,0,0.5,0,1","0.5,0,1,0.5,0,1,0,1,0.5","2","false",""
"","html-keyboard-response","257","77880","0.0-293.0","388U7OUMF8NZEL1ASSNX9OQYCKV0RK","A11YS0T8MV3Q7C","3FVBZG9CLJ0K37PD5L6161S4HTM0HN","","null","<img src=""img/food1.png"" style=""width:200px; border:14px solid green;"">","null","","","","","","","","","",""
"","image-keyboard-response","258","78046","0.0-295.0","388U7OUMF8NZEL1ASSNX9OQYCKV0RK","A11YS0T8MV3Q7C","3FVBZG9CLJ0K37PD5L6161S4HTM0HN","","164","img/food1.png","75","165","2","0","2","2","1,0.5,0,1,0.5,0,0.5,0,1","0.5,0,1,0.5,0,1,0,1,0.5","2","false",""
"","html-keyboard-response","259","78350","0.0-296.0","388U7OUMF8NZEL1ASSNX9OQYCKV0RK","A11YS0T8MV3Q7C","3FVBZG9CLJ0K37PD5L6161S4HTM0HN","","null","<img src=""img/food1.png"" style=""width:200px;border:14px solid red;"">","null","","","","","","","","","",""
"","image-keyboard-response","260","78493","0.0-298.0","388U7OUMF8NZEL1ASSNX9OQYCKV0RK","A11YS0T8MV3Q7C","3FVBZG9CLJ0K37PD5L6161S4HTM0HN","","142","img/food6.png","75","143","2","1","3","2","1,0.5,0,1,0.5,0,0.5,0,1","0.5,0,1,0.5,0,1,0,1,0.5","2","false",""
"","html-keyboard-response","261","78805","0.0-299.0","388U7OUMF8NZEL1ASSNX9OQYCKV0RK","A11YS0T8MV3Q7C","3FVBZG9CLJ0K37PD5L6161S4HTM0HN","","null","<img src=""img/food6.png"" style=""width:200px; border:14px solid green;"">","null","","","","","","","","","",""
"","image-keyboard-response","262","78814","0.0-301.0","388U7OUMF8NZEL1ASSNX9OQYCKV0RK","A11YS0T8MV3Q7C","3FVBZG9CLJ0K37PD5L6161S4HTM0HN","","6","img/food4.png","75","8","2","0","1","2","1,0.5,0,1,0.5,0,0.5,0,1","0.5,0,1,0.5,0,1,0,1,0.5","2","false",""
"","html-keyboard-response","263","79122","0.0-302.0","388U7OUMF8NZEL1ASSNX9OQYCKV0RK","A11YS0T8MV3Q7C","3FVBZG9CLJ0K37PD5L6161S4HTM0HN","","null","<img src=""img/food4.png"" style=""width:200px;border:14px solid red;"">","null","","","","","","","","","",""
"","image-keyboard-response","264","79276","0.0-304.0","388U7OUMF8NZEL1ASSNX9OQYCKV0RK","A11YS0T8MV3Q7C","3FVBZG9CLJ0K37PD5L6161S4HTM0HN","","152","img/food6.png","75","154","2","1","3","2","1,0.5,0,1,0.5,0,0.5,0,1","0.5,0,1,0.5,0,1,0,1,0.5","2","false",""
"","html-keyboard-response","265","79580","0.0-305.0","388U7OUMF8NZEL1ASSNX9OQYCKV0RK","A11YS0T8MV3Q7C","3FVBZG9CLJ0K37PD5L6161S4HTM0HN","","null","<img src=""img/food6.png"" style=""width:200px; border:14px solid green;"">","null","","","","","","","","","",""
"","image-keyboard-response","266","79587","0.0-307.0","388U7OUMF8NZEL1ASSNX9OQYCKV0RK","A11YS0T8MV3Q7C","3FVBZG9CLJ0K37PD5L6161S4HTM0HN","","5","img/food4.png","76","7","3","1","1","2","1,0.5,0,1,0.5,0,0.5,0,1","0.5,0,1,0.5,0,1,0,1,0.5","2","false",""
"","html-keyboard-response","267","79890","0.0-308.0","388U7OUMF8NZEL1ASSNX9OQYCKV0RK","A11YS0T8MV3Q7C","3FVBZG9CLJ0K37PD5L6161S4HTM0HN","","null","<img src=""img/food4.png"" style=""width:200px; border:14px solid green;"">","null","","","","","","","","","",""
"","image-keyboard-response","268","80051","0.0-310.0","388U7OUMF8NZEL1ASSNX9OQYCKV0RK","A11YS0T8MV3Q7C","3FVBZG9CLJ0K37PD5L6161S4HTM0HN","","159","img/food6.png","74","160","1","0","3","2","1,0.5,0,1,0.5,0,0.5,0,1","0.5,0,1,0.5,0,1,0,1,0.5","2","false",""
"","html-keyboard-response","269","80361","0.0-311.0","388U7OUMF8NZEL1ASSNX9OQYCKV0RK","A11YS0T8MV3Q7C","3FVBZG9CLJ0K37PD5L6161S4HTM0HN","","null","<img src=""img/food6.png"" style=""width:200px;border:14px solid red;"">","null","","","","","","","","","",""
"","image-keyboard-response","270","80648","0.0-313.0","388U7OUMF8NZEL1ASSNX9OQYCKV0RK","A11YS0T8MV3Q7C","3FVBZG9CLJ0K37PD5L6161S4HTM0HN","","285","img/food6.png","76","287","3","1","3","2","1,0.5,0,1,0.5,0,0.5,0,1","0.5,0,1,0.5,0,1,0,1,0.5","2","false",""
"","html-keyboard-response","271","80950","0.0-314.0","388U7OUMF8NZEL1ASSNX9OQYCKV0RK","A11YS0T8MV3Q7C","3FVBZG9CLJ0K37PD5L6161S4HTM0HN","","null","<img src=""img/food6.png"" style=""width:200px; border:14px solid green;"">","null","","","","","","","","","",""
"","image-keyboard-response","272","80973","0.0-316.0","388U7OUMF8NZEL1ASSNX9OQYCKV0RK","A11YS0T8MV3Q7C","3FVBZG9CLJ0K37PD5L6161S4HTM0HN","","21","img/food6.png","75","22","2","1","3","2","1,0.5,0,1,0.5,0,0.5,0,1","0.5,0,1,0.5,0,1,0,1,0.5","2","false",""
"","html-keyboard-response","273","81281","0.0-317.0","388U7OUMF8NZEL1ASSNX9OQYCKV0RK","A11YS0T8MV3Q7C","3FVBZG9CLJ0K37PD5L6161S4HTM0HN","","null","<img src=""img/food6.png"" style=""width:200px; border:14px solid green;"">","null","","","","","","","","","",""
"","image-keyboard-response","274","81319","0.0-319.0","388U7OUMF8NZEL1ASSNX9OQYCKV0RK","A11YS0T8MV3Q7C","3FVBZG9CLJ0K37PD5L6161S4HTM0HN","","36","img/food6.png","75","37","2","1","3","2","1,0.5,0,1,0.5,0,0.5,0,1","0.5,0,1,0.5,0,1,0,1,0.5","2","false",""
"","html-keyboard-response","275","81630","0.0-320.0","388U7OUMF8NZEL1ASSNX9OQYCKV0RK","A11YS0T8MV3Q7C","3FVBZG9CLJ0K37PD5L6161S4HTM0HN","","null","<img src=""img/food6.png"" style=""width:200px; border:14px solid green;"">","null","","","","","","","","","",""
"","image-keyboard-response","276","81664","0.0-322.0","388U7OUMF8NZEL1ASSNX9OQYCKV0RK","A11YS0T8MV3Q7C","3FVBZG9CLJ0K37PD5L6161S4HTM0HN","","31","img/food6.png","74","33","1","0","3","2","1,0.5,0,1,0.5,0,0.5,0,1","0.5,0,1,0.5,0,1,0,1,0.5","2","false",""
"","html-keyboard-response","277","81971","0.0-323.0","388U7OUMF8NZEL1ASSNX9OQYCKV0RK","A11YS0T8MV3Q7C","3FVBZG9CLJ0K37PD5L6161S4HTM0HN","","null","<img src=""img/food6.png"" style=""width:200px;border:14px solid red;"">","null","","","","","","","","","",""
"","image-keyboard-response","278","81983","0.0-325.0","388U7OUMF8NZEL1ASSNX9OQYCKV0RK","A11YS0T8MV3Q7C","3FVBZG9CLJ0K37PD5L6161S4HTM0HN","","10","img/food6.png","76","11","3","1","3","2","1,0.5,0,1,0.5,0,0.5,0,1","0.5,0,1,0.5,0,1,0,1,0.5","2","false",""
"","html-keyboard-response","279","82291","0.0-326.0","388U7OUMF8NZEL1ASSNX9OQYCKV0RK","A11YS0T8MV3Q7C","3FVBZG9CLJ0K37PD5L6161S4HTM0HN","","null","<img src=""img/food6.png"" style=""width:200px; border:14px solid green;"">","null","","","","","","","","","",""
"","image-keyboard-response","280","82425","0.0-328.0","388U7OUMF8NZEL1ASSNX9OQYCKV0RK","A11YS0T8MV3Q7C","3FVBZG9CLJ0K37PD5L6161S4HTM0HN","","132","img/food4.png","75","134","2","0","1","2","1,0.5,0,1,0.5,0,0.5,0,1","0.5,0,1,0.5,0,1,0,1,0.5","2","false",""
"","html-keyboard-response","281","82731","0.0-329.0","388U7OUMF8NZEL1ASSNX9OQYCKV0RK","A11YS0T8MV3Q7C","3FVBZG9CLJ0K37PD5L6161S4HTM0HN","","null","<img src=""img/food4.png"" style=""width:200px;border:14px solid red;"">","null","","","","","","","","","",""
"","image-keyboard-response","282","82852","0.0-331.0","388U7OUMF8NZEL1ASSNX9OQYCKV0RK","A11YS0T8MV3Q7C","3FVBZG9CLJ0K37PD5L6161S4HTM0HN","","119","img/food1.png","75","121","2","0","2","2","1,0.5,0,1,0.5,0,0.5,0,1","0.5,0,1,0.5,0,1,0,1,0.5","2","false",""
"","html-keyboard-response","283","83161","0.0-332.0","388U7OUMF8NZEL1ASSNX9OQYCKV0RK","A11YS0T8MV3Q7C","3FVBZG9CLJ0K37PD5L6161S4HTM0HN","","null","<img src=""img/food1.png"" style=""width:200px;border:14px solid red;"">","null","","","","","","","","","",""
"","image-keyboard-response","284","83194","0.0-334.0","388U7OUMF8NZEL1ASSNX9OQYCKV0RK","A11YS0T8MV3Q7C","3FVBZG9CLJ0K37PD5L6161S4HTM0HN","","32","img/food1.png","74","33","1","0","2","2","1,0.5,0,1,0.5,0,0.5,0,1","0.5,0,1,0.5,0,1,0,1,0.5","2","false",""
"","html-keyboard-response","285","83501","0.0-335.0","388U7OUMF8NZEL1ASSNX9OQYCKV0RK","A11YS0T8MV3Q7C","3FVBZG9CLJ0K37PD5L6161S4HTM0HN","","null","<img src=""img/food1.png"" style=""width:200px;border:14px solid red;"">","null","","","","","","","","","",""
"","image-keyboard-response","286","83561","0.0-337.0","388U7OUMF8NZEL1ASSNX9OQYCKV0RK","A11YS0T8MV3Q7C","3FVBZG9CLJ0K37PD5L6161S4HTM0HN","","58","img/food4.png","75","60","2","0","1","2","1,0.5,0,1,0.5,0,0.5,0,1","0.5,0,1,0.5,0,1,0,1,0.5","2","false",""
"","html-keyboard-response","287","83870","0.0-338.0","388U7OUMF8NZEL1ASSNX9OQYCKV0RK","A11YS0T8MV3Q7C","3FVBZG9CLJ0K37PD5L6161S4HTM0HN","","null","<img src=""img/food4.png"" style=""width:200px;border:14px solid red;"">","null","","","","","","","","","",""
"","image-keyboard-response","288","83915","0.0-340.0","388U7OUMF8NZEL1ASSNX9OQYCKV0RK","A11YS0T8MV3Q7C","3FVBZG9CLJ0K37PD5L6161S4HTM0HN","","43","img/food1.png","74","45","1","0","2","2","1,0.5,0,1,0.5,0,0.5,0,1","0.5,0,1,0.5,0,1,0,1,0.5","2","false",""
"","html-keyboard-response","289","84221","0.0-341.0","388U7OUMF8NZEL1ASSNX9OQYCKV0RK","A11YS0T8MV3Q7C","3FVBZG9CLJ0K37PD5L6161S4HTM0HN","","null","<img src=""img/food1.png"" style=""width:200px;border:14px solid red;"">","null","","","","","","","","","",""
"","image-keyboard-response","290","84633","0.0-343.0","388U7OUMF8NZEL1ASSNX9OQYCKV0RK","A11YS0T8MV3Q7C","3FVBZG9CLJ0K37PD5L6161S4HTM0HN","","408","img/food4.png","76","410","3","1","1","2","1,0.5,0,1,0.5,0,0.5,0,1","0.5,0,1,0.5,0,1,0,1,0.5","2","false",""
"","html-keyboard-response","291","84940","0.0-344.0","388U7OUMF8NZEL1ASSNX9OQYCKV0RK","A11YS0T8MV3Q7C","3FVBZG9CLJ0K37PD5L6161S4HTM0HN","","null","<img src=""img/food4.png"" style=""width:200px; border:14px solid green;"">","null","","","","","","","","","",""
"","image-keyboard-response","292","84976","0.0-346.0","388U7OUMF8NZEL1ASSNX9OQYCKV0RK","A11YS0T8MV3Q7C","3FVBZG9CLJ0K37PD5L6161S4HTM0HN","","36","img/food4.png","74","37","1","1","1","2","1,0.5,0,1,0.5,0,0.5,0,1","0.5,0,1,0.5,0,1,0,1,0.5","2","false",""
"","html-keyboard-response","293","85289","0.0-347.0","388U7OUMF8NZEL1ASSNX9OQYCKV0RK","A11YS0T8MV3Q7C","3FVBZG9CLJ0K37PD5L6161S4HTM0HN","","null","<img src=""img/food4.png"" style=""width:200px; border:14px solid green;"">","null","","","","","","","","","",""
"","image-keyboard-response","294","85303","0.0-349.0","388U7OUMF8NZEL1ASSNX9OQYCKV0RK","A11YS0T8MV3Q7C","3FVBZG9CLJ0K37PD5L6161S4HTM0HN","","12","img/food4.png","75","14","2","0","1","2","1,0.5,0,1,0.5,0,0.5,0,1","0.5,0,1,0.5,0,1,0,1,0.5","2","false",""
"","html-keyboard-response","295","85611","0.0-350.0","388U7OUMF8NZEL1ASSNX9OQYCKV0RK","A11YS0T8MV3Q7C","3FVBZG9CLJ0K37PD5L6161S4HTM0HN","","null","<img src=""img/food4.png"" style=""width:200px;border:14px solid red;"">","null","","","","","","","","","",""
"","image-keyboard-response","296","85671","0.0-352.0","388U7OUMF8NZEL1ASSNX9OQYCKV0RK","A11YS0T8MV3Q7C","3FVBZG9CLJ0K37PD5L6161S4HTM0HN","","59","img/food1.png","74","60","1","0","2","2","1,0.5,0,1,0.5,0,0.5,0,1","0.5,0,1,0.5,0,1,0,1,0.5","2","false",""
"","html-keyboard-response","297","85982","0.0-353.0","388U7OUMF8NZEL1ASSNX9OQYCKV0RK","A11YS0T8MV3Q7C","3FVBZG9CLJ0K37PD5L6161S4HTM0HN","","null","<img src=""img/food1.png"" style=""width:200px;border:14px solid red;"">","null","","","","","","","","","",""
"","image-keyboard-response","298","86045","0.0-355.0","388U7OUMF8NZEL1ASSNX9OQYCKV0RK","A11YS0T8MV3Q7C","3FVBZG9CLJ0K37PD5L6161S4HTM0HN","","61","img/food1.png","75","63","2","0","2","2","1,0.5,0,1,0.5,0,0.5,0,1","0.5,0,1,0.5,0,1,0,1,0.5","2","false",""
"","html-keyboard-response","299","86351","0.0-356.0","388U7OUMF8NZEL1ASSNX9OQYCKV0RK","A11YS0T8MV3Q7C","3FVBZG9CLJ0K37PD5L6161S4HTM0HN","","null","<img src=""img/food1.png"" style=""width:200px;border:14px solid red;"">","null","","","","","","","","","",""
"","image-keyboard-response","300","86464","0.0-358.0","388U7OUMF8NZEL1ASSNX9OQYCKV0RK","A11YS0T8MV3Q7C","3FVBZG9CLJ0K37PD5L6161S4HTM0HN","","111","img/food6.png","76","112","3","0","3","2","1,0.5,0,1,0.5,0,0.5,0,1","0.5,0,1,0.5,0,1,0,1,0.5","2","false",""
"","html-keyboard-response","301","86771","0.0-359.0","388U7OUMF8NZEL1ASSNX9OQYCKV0RK","A11YS0T8MV3Q7C","3FVBZG9CLJ0K37PD5L6161S4HTM0HN","","null","<img src=""img/food6.png"" style=""width:200px;border:14px solid red;"">","null","","","","","","","","","",""
"","image-keyboard-response","302","86798","0.0-361.0","388U7OUMF8NZEL1ASSNX9OQYCKV0RK","A11YS0T8MV3Q7C","3FVBZG9CLJ0K37PD5L6161S4HTM0HN","","24","img/food6.png","75","26","2","1","3","2","1,0.5,0,1,0.5,0,0.5,0,1","0.5,0,1,0.5,0,1,0,1,0.5","2","false",""
"","html-keyboard-response","303","87110","0.0-362.0","388U7OUMF8NZEL1ASSNX9OQYCKV0RK","A11YS0T8MV3Q7C","3FVBZG9CLJ0K37PD5L6161S4HTM0HN","","null","<img src=""img/food6.png"" style=""width:200px; border:14px solid green;"">","null","","","","","","","","","",""
"","image-keyboard-response","304","87161","0.0-364.0","388U7OUMF8NZEL1ASSNX9OQYCKV0RK","A11YS0T8MV3Q7C","3FVBZG9CLJ0K37PD5L6161S4HTM0HN","","48","img/food6.png","75","50","2","1","3","2","1,0.5,0,1,0.5,0,0.5,0,1","0.5,0,1,0.5,0,1,0,1,0.5","2","false",""
"","html-keyboard-response","305","87470","0.0-365.0","388U7OUMF8NZEL1ASSNX9OQYCKV0RK","A11YS0T8MV3Q7C","3FVBZG9CLJ0K37PD5L6161S4HTM0HN","","null","<img src=""img/food6.png"" style=""width:200px; border:14px solid green;"">","null","","","","","","","","","",""
"","image-keyboard-response","306","87480","0.0-367.0","388U7OUMF8NZEL1ASSNX9OQYCKV0RK","A11YS0T8MV3Q7C","3FVBZG9CLJ0K37PD5L6161S4HTM0HN","","7","img/food4.png","74","9","1","0","1","2","1,0.5,0,1,0.5,0,0.5,0,1","0.5,0,1,0.5,0,1,0,1,0.5","2","false",""
"","html-keyboard-response","307","87791","0.0-368.0","388U7OUMF8NZEL1ASSNX9OQYCKV0RK","A11YS0T8MV3Q7C","3FVBZG9CLJ0K37PD5L6161S4HTM0HN","","null","<img src=""img/food4.png"" style=""width:200px;border:14px solid red;"">","null","","","","","","","","","",""
"","image-keyboard-response","308","87996","0.0-370.0","388U7OUMF8NZEL1ASSNX9OQYCKV0RK","A11YS0T8MV3Q7C","3FVBZG9CLJ0K37PD5L6161S4HTM0HN","","205","img/food1.png","75","206","2","0","2","2","1,0.5,0,1,0.5,0,0.5,0,1","0.5,0,1,0.5,0,1,0,1,0.5","2","false",""
"","html-keyboard-response","309","88300","0.0-371.0","388U7OUMF8NZEL1ASSNX9OQYCKV0RK","A11YS0T8MV3Q7C","3FVBZG9CLJ0K37PD5L6161S4HTM0HN","","null","<img src=""img/food1.png"" style=""width:200px;border:14px solid red;"">","null","","","","","","","","","",""
"","image-keyboard-response","310","88392","0.0-373.0","388U7OUMF8NZEL1ASSNX9OQYCKV0RK","A11YS0T8MV3Q7C","3FVBZG9CLJ0K37PD5L6161S4HTM0HN","","87","img/food4.png","74","90","1","1","1","2","1,0.5,0,1,0.5,0,0.5,0,1","0.5,0,1,0.5,0,1,0,1,0.5","2","false",""
"","html-keyboard-response","311","88701","0.0-374.0","388U7OUMF8NZEL1ASSNX9OQYCKV0RK","A11YS0T8MV3Q7C","3FVBZG9CLJ0K37PD5L6161S4HTM0HN","","null","<img src=""img/food4.png"" style=""width:200px; border:14px solid green;"">","null","","","","","","","","","",""
"","image-keyboard-response","312","88714","0.0-376.0","388U7OUMF8NZEL1ASSNX9OQYCKV0RK","A11YS0T8MV3Q7C","3FVBZG9CLJ0K37PD5L6161S4HTM0HN","","12","img/food1.png","75","13","2","0","2","2","1,0.5,0,1,0.5,0,0.5,0,1","0.5,0,1,0.5,0,1,0,1,0.5","2","false",""
"","html-keyboard-response","313","89027","0.0-377.0","388U7OUMF8NZEL1ASSNX9OQYCKV0RK","A11YS0T8MV3Q7C","3FVBZG9CLJ0K37PD5L6161S4HTM0HN","","null","<img src=""img/food1.png"" style=""width:200px;border:14px solid red;"">","null","","","","","","","","","",""
"","image-keyboard-response","314","89062","0.0-379.0","388U7OUMF8NZEL1ASSNX9OQYCKV0RK","A11YS0T8MV3Q7C","3FVBZG9CLJ0K37PD5L6161S4HTM0HN","","33","img/food4.png","75","35","2","0","1","2","1,0.5,0,1,0.5,0,0.5,0,1","0.5,0,1,0.5,0,1,0,1,0.5","2","false",""
"","html-keyboard-response","315","89371","0.0-380.0","388U7OUMF8NZEL1ASSNX9OQYCKV0RK","A11YS0T8MV3Q7C","3FVBZG9CLJ0K37PD5L6161S4HTM0HN","","null","<img src=""img/food4.png"" style=""width:200px;border:14px solid red;"">","null","","","","","","","","","",""
"","image-keyboard-response","316","89497","0.0-382.0","388U7OUMF8NZEL1ASSNX9OQYCKV0RK","A11YS0T8MV3Q7C","3FVBZG9CLJ0K37PD5L6161S4HTM0HN","","124","img/food4.png","75","126","2","0","1","2","1,0.5,0,1,0.5,0,0.5,0,1","0.5,0,1,0.5,0,1,0,1,0.5","2","false",""
"","html-keyboard-response","317","89800","0.0-383.0","388U7OUMF8NZEL1ASSNX9OQYCKV0RK","A11YS0T8MV3Q7C","3FVBZG9CLJ0K37PD5L6161S4HTM0HN","","null","<img src=""img/food4.png"" style=""width:200px;border:14px solid red;"">","null","","","","","","","","","",""
"","image-keyboard-response","318","89948","0.0-385.0","388U7OUMF8NZEL1ASSNX9OQYCKV0RK","A11YS0T8MV3Q7C","3FVBZG9CLJ0K37PD5L6161S4HTM0HN","","147","img/food1.png","76","148","3","1","2","2","1,0.5,0,1,0.5,0,0.5,0,1","0.5,0,1,0.5,0,1,0,1,0.5","2","false",""
"","html-keyboard-response","319","90261","0.0-386.0","388U7OUMF8NZEL1ASSNX9OQYCKV0RK","A11YS0T8MV3Q7C","3FVBZG9CLJ0K37PD5L6161S4HTM0HN","","null","<img src=""img/food1.png"" style=""width:200px; border:14px solid green;"">","null","","","","","","","","","",""
"","image-keyboard-response","320","90413","0.0-388.0","388U7OUMF8NZEL1ASSNX9OQYCKV0RK","A11YS0T8MV3Q7C","3FVBZG9CLJ0K37PD5L6161S4HTM0HN","","149","img/food4.png","76","151","3","1","1","2","1,0.5,0,1,0.5,0,0.5,0,1","0.5,0,1,0.5,0,1,0,1,0.5","2","false",""
"","html-keyboard-response","321","90721","0.0-389.0","388U7OUMF8NZEL1ASSNX9OQYCKV0RK","A11YS0T8MV3Q7C","3FVBZG9CLJ0K37PD5L6161S4HTM0HN","","null","<img src=""img/food4.png"" style=""width:200px; border:14px solid green;"">","null","","","","","","","","","",""
"","image-keyboard-response","322","90917","0.0-391.0","388U7OUMF8NZEL1ASSNX9OQYCKV0RK","A11YS0T8MV3Q7C","3FVBZG9CLJ0K37PD5L6161S4HTM0HN","","193","img/food6.png","75","194","2","1","3","2","1,0.5,0,1,0.5,0,0.5,0,1","0.5,0,1,0.5,0,1,0,1,0.5","2","false",""
"","html-keyboard-response","323","91220","0.0-392.0","388U7OUMF8NZEL1ASSNX9OQYCKV0RK","A11YS0T8MV3Q7C","3FVBZG9CLJ0K37PD5L6161S4HTM0HN","","null","<img src=""img/food6.png"" style=""width:200px; border:14px solid green;"">","null","","","","","","","","","",""
"","image-keyboard-response","324","91483","0.0-394.0","388U7OUMF8NZEL1ASSNX9OQYCKV0RK","A11YS0T8MV3Q7C","3FVBZG9CLJ0K37PD5L6161S4HTM0HN","","260","img/food4.png","75","261","2","0","1","2","1,0.5,0,1,0.5,0,0.5,0,1","0.5,0,1,0.5,0,1,0,1,0.5","2","false",""
"","html-keyboard-response","325","91791","0.0-395.0","388U7OUMF8NZEL1ASSNX9OQYCKV0RK","A11YS0T8MV3Q7C","3FVBZG9CLJ0K37PD5L6161S4HTM0HN","","null","<img src=""img/food4.png"" style=""width:200px;border:14px solid red;"">","null","","","","","","","","","",""
"","image-keyboard-response","326","92009","0.0-397.0","388U7OUMF8NZEL1ASSNX9OQYCKV0RK","A11YS0T8MV3Q7C","3FVBZG9CLJ0K37PD5L6161S4HTM0HN","","216","img/food6.png","76","218","3","0","3","2","1,0.5,0,1,0.5,0,0.5,0,1","0.5,0,1,0.5,0,1,0,1,0.5","2","false",""
"","html-keyboard-response","327","92321","0.0-398.0","388U7OUMF8NZEL1ASSNX9OQYCKV0RK","A11YS0T8MV3Q7C","3FVBZG9CLJ0K37PD5L6161S4HTM0HN","","null","<img src=""img/food6.png"" style=""width:200px;border:14px solid red;"">","null","","","","","","","","","",""
"","image-keyboard-response","328","92413","0.0-400.0","388U7OUMF8NZEL1ASSNX9OQYCKV0RK","A11YS0T8MV3Q7C","3FVBZG9CLJ0K37PD5L6161S4HTM0HN","","91","img/food4.png","76","91","3","1","1","2","1,0.5,0,1,0.5,0,0.5,0,1","0.5,0,1,0.5,0,1,0,1,0.5","2","false",""
"","html-keyboard-response","329","92720","0.0-401.0","388U7OUMF8NZEL1ASSNX9OQYCKV0RK","A11YS0T8MV3Q7C","3FVBZG9CLJ0K37PD5L6161S4HTM0HN","","null","<img src=""img/food4.png"" style=""width:200px; border:14px solid green;"">","null","","","","","","","","","",""
"","image-keyboard-response","330","92888","0.0-403.0","388U7OUMF8NZEL1ASSNX9OQYCKV0RK","A11YS0T8MV3Q7C","3FVBZG9CLJ0K37PD5L6161S4HTM0HN","","165","img/food4.png","76","166","3","1","1","2","1,0.5,0,1,0.5,0,0.5,0,1","0.5,0,1,0.5,0,1,0,1,0.5","2","false",""
"","html-keyboard-response","331","93201","0.0-404.0","388U7OUMF8NZEL1ASSNX9OQYCKV0RK","A11YS0T8MV3Q7C","3FVBZG9CLJ0K37PD5L6161S4HTM0HN","","null","<img src=""img/food4.png"" style=""width:200px; border:14px solid green;"">","null","","","","","","","","","",""
"","image-keyboard-response","332","93398","0.0-406.0","388U7OUMF8NZEL1ASSNX9OQYCKV0RK","A11YS0T8MV3Q7C","3FVBZG9CLJ0K37PD5L6161S4HTM0HN","","195","img/food4.png","75","196","2","0","1","2","1,0.5,0,1,0.5,0,0.5,0,1","0.5,0,1,0.5,0,1,0,1,0.5","2","false",""
"","html-keyboard-response","333","93703","0.0-407.0","388U7OUMF8NZEL1ASSNX9OQYCKV0RK","A11YS0T8MV3Q7C","3FVBZG9CLJ0K37PD5L6161S4HTM0HN","","null","<img src=""img/food4.png"" style=""width:200px;border:14px solid red;"">","null","","","","","","","","","",""
"","image-keyboard-response","334","93709","0.0-409.0","388U7OUMF8NZEL1ASSNX9OQYCKV0RK","A11YS0T8MV3Q7C","3FVBZG9CLJ0K37PD5L6161S4HTM0HN","","4","img/food4.png","74","5","1","0","1","2","1,0.5,0,1,0.5,0,0.5,0,1","0.5,0,1,0.5,0,1,0,1,0.5","2","false",""
"","html-keyboard-response","335","94010","0.0-410.0","388U7OUMF8NZEL1ASSNX9OQYCKV0RK","A11YS0T8MV3Q7C","3FVBZG9CLJ0K37PD5L6161S4HTM0HN","","null","<img src=""img/food4.png"" style=""width:200px;border:14px solid red;"">","null","","","","","","","","","",""
"","image-keyboard-response","336","94183","0.0-412.0","388U7OUMF8NZEL1ASSNX9OQYCKV0RK","A11YS0T8MV3Q7C","3FVBZG9CLJ0K37PD5L6161S4HTM0HN","","170","img/food6.png","76","171","3","1","3","2","1,0.5,0,1,0.5,0,0.5,0,1","0.5,0,1,0.5,0,1,0,1,0.5","2","false",""
"","html-keyboard-response","337","94490","0.0-413.0","388U7OUMF8NZEL1ASSNX9OQYCKV0RK","A11YS0T8MV3Q7C","3FVBZG9CLJ0K37PD5L6161S4HTM0HN","","null","<img src=""img/food6.png"" style=""width:200px; border:14px solid green;"">","null","","","","","","","","","",""
"","image-keyboard-response","338","94571","0.0-415.0","388U7OUMF8NZEL1ASSNX9OQYCKV0RK","A11YS0T8MV3Q7C","3FVBZG9CLJ0K37PD5L6161S4HTM0HN","","76","img/food1.png","74","78","1","0","2","2","1,0.5,0,1,0.5,0,0.5,0,1","0.5,0,1,0.5,0,1,0,1,0.5","2","false",""
"","html-keyboard-response","339","94881","0.0-416.0","388U7OUMF8NZEL1ASSNX9OQYCKV0RK","A11YS0T8MV3Q7C","3FVBZG9CLJ0K37PD5L6161S4HTM0HN","","null","<img src=""img/food1.png"" style=""width:200px;border:14px solid red;"">","null","","","","","","","","","",""
"","image-keyboard-response","340","95088","0.0-418.0","388U7OUMF8NZEL1ASSNX9OQYCKV0RK","A11YS0T8MV3Q7C","3FVBZG9CLJ0K37PD5L6161S4HTM0HN","","206","img/food6.png","75","207","2","1","3","2","1,0.5,0,1,0.5,0,0.5,0,1","0.5,0,1,0.5,0,1,0,1,0.5","2","false",""
"","html-keyboard-response","341","95391","0.0-419.0","388U7OUMF8NZEL1ASSNX9OQYCKV0RK","A11YS0T8MV3Q7C","3FVBZG9CLJ0K37PD5L6161S4HTM0HN","","null","<img src=""img/food6.png"" style=""width:200px; border:14px solid green;"">","null","","","","","","","","","",""
"","image-keyboard-response","342","95416","0.0-421.0","388U7OUMF8NZEL1ASSNX9OQYCKV0RK","A11YS0T8MV3Q7C","3FVBZG9CLJ0K37PD5L6161S4HTM0HN","","23","img/food6.png","74","24","1","0","3","2","1,0.5,0,1,0.5,0,0.5,0,1","0.5,0,1,0.5,0,1,0,1,0.5","2","false",""
"","html-keyboard-response","343","95720","0.0-422.0","388U7OUMF8NZEL1ASSNX9OQYCKV0RK","A11YS0T8MV3Q7C","3FVBZG9CLJ0K37PD5L6161S4HTM0HN","","null","<img src=""img/food6.png"" style=""width:200px;border:14px solid red;"">","null","","","","","","","","","",""
"","image-keyboard-response","344","95748","0.0-424.0","388U7OUMF8NZEL1ASSNX9OQYCKV0RK","A11YS0T8MV3Q7C","3FVBZG9CLJ0K37PD5L6161S4HTM0HN","","26","img/food4.png","75","27","2","0","1","2","1,0.5,0,1,0.5,0,0.5,0,1","0.5,0,1,0.5,0,1,0,1,0.5","2","false",""
"","html-keyboard-response","345","96060","0.0-425.0","388U7OUMF8NZEL1ASSNX9OQYCKV0RK","A11YS0T8MV3Q7C","3FVBZG9CLJ0K37PD5L6161S4HTM0HN","","null","<img src=""img/food4.png"" style=""width:200px;border:14px solid red;"">","null","","","","","","","","","",""
"","image-keyboard-response","346","96361","0.0-427.0","388U7OUMF8NZEL1ASSNX9OQYCKV0RK","A11YS0T8MV3Q7C","3FVBZG9CLJ0K37PD5L6161S4HTM0HN","","298","img/food4.png","74","300","1","1","1","2","1,0.5,0,1,0.5,0,0.5,0,1","0.5,0,1,0.5,0,1,0,1,0.5","2","false",""
"","html-keyboard-response","347","96670","0.0-428.0","388U7OUMF8NZEL1ASSNX9OQYCKV0RK","A11YS0T8MV3Q7C","3FVBZG9CLJ0K37PD5L6161S4HTM0HN","","null","<img src=""img/food4.png"" style=""width:200px; border:14px solid green;"">","null","","","","","","","","","",""
"","image-keyboard-response","348","96850","0.0-430.0","388U7OUMF8NZEL1ASSNX9OQYCKV0RK","A11YS0T8MV3Q7C","3FVBZG9CLJ0K37PD5L6161S4HTM0HN","","178","img/food1.png","76","179","3","1","2","2","1,0.5,0,1,0.5,0,0.5,0,1","0.5,0,1,0.5,0,1,0,1,0.5","2","false",""
"","html-keyboard-response","349","97160","0.0-431.0","388U7OUMF8NZEL1ASSNX9OQYCKV0RK","A11YS0T8MV3Q7C","3FVBZG9CLJ0K37PD5L6161S4HTM0HN","","null","<img src=""img/food1.png"" style=""width:200px; border:14px solid green;"">","null","","","","","","","","","",""
"","image-keyboard-response","350","97345","0.0-433.0","388U7OUMF8NZEL1ASSNX9OQYCKV0RK","A11YS0T8MV3Q7C","3FVBZG9CLJ0K37PD5L6161S4HTM0HN","","182","img/food6.png","75","184","2","1","3","2","1,0.5,0,1,0.5,0,0.5,0,1","0.5,0,1,0.5,0,1,0,1,0.5","2","false",""
"","html-keyboard-response","351","97651","0.0-434.0","388U7OUMF8NZEL1ASSNX9OQYCKV0RK","A11YS0T8MV3Q7C","3FVBZG9CLJ0K37PD5L6161S4HTM0HN","","null","<img src=""img/food6.png"" style=""width:200px; border:14px solid green;"">","null","","","","","","","","","",""
"","image-keyboard-response","352","98005","0.0-436.0","388U7OUMF8NZEL1ASSNX9OQYCKV0RK","A11YS0T8MV3Q7C","3FVBZG9CLJ0K37PD5L6161S4HTM0HN","","351","img/food1.png","75","353","2","0","2","2","1,0.5,0,1,0.5,0,0.5,0,1","0.5,0,1,0.5,0,1,0,1,0.5","2","false",""
"","html-keyboard-response","353","98310","0.0-437.0","388U7OUMF8NZEL1ASSNX9OQYCKV0RK","A11YS0T8MV3Q7C","3FVBZG9CLJ0K37PD5L6161S4HTM0HN","","null","<img src=""img/food1.png"" style=""width:200px;border:14px solid red;"">","null","","","","","","","","","",""
"","image-keyboard-response","354","98441","0.0-439.0","388U7OUMF8NZEL1ASSNX9OQYCKV0RK","A11YS0T8MV3Q7C","3FVBZG9CLJ0K37PD5L6161S4HTM0HN","","129","img/food1.png","76","130","3","1","2","2","1,0.5,0,1,0.5,0,0.5,0,1","0.5,0,1,0.5,0,1,0,1,0.5","2","false",""
"","html-keyboard-response","355","98751","0.0-440.0","388U7OUMF8NZEL1ASSNX9OQYCKV0RK","A11YS0T8MV3Q7C","3FVBZG9CLJ0K37PD5L6161S4HTM0HN","","null","<img src=""img/food1.png"" style=""width:200px; border:14px solid green;"">","null","","","","","","","","","",""
"","image-keyboard-response","356","98845","0.0-442.0","388U7OUMF8NZEL1ASSNX9OQYCKV0RK","A11YS0T8MV3Q7C","3FVBZG9CLJ0K37PD5L6161S4HTM0HN","","92","img/food1.png","76","94","3","1","2","2","1,0.5,0,1,0.5,0,0.5,0,1","0.5,0,1,0.5,0,1,0,1,0.5","2","false",""
"","html-keyboard-response","357","99150","0.0-443.0","388U7OUMF8NZEL1ASSNX9OQYCKV0RK","A11YS0T8MV3Q7C","3FVBZG9CLJ0K37PD5L6161S4HTM0HN","","null","<img src=""img/food1.png"" style=""width:200px; border:14px solid green;"">","null","","","","","","","","","",""
"","image-keyboard-response","358","99207","0.0-445.0","388U7OUMF8NZEL1ASSNX9OQYCKV0RK","A11YS0T8MV3Q7C","3FVBZG9CLJ0K37PD5L6161S4HTM0HN","","54","img/food4.png","75","58","2","0","1","2","1,0.5,0,1,0.5,0,0.5,0,1","0.5,0,1,0.5,0,1,0,1,0.5","2","false",""
"","html-keyboard-response","359","99520","0.0-446.0","388U7OUMF8NZEL1ASSNX9OQYCKV0RK","A11YS0T8MV3Q7C","3FVBZG9CLJ0K37PD5L6161S4HTM0HN","","null","<img src=""img/food4.png"" style=""width:200px;border:14px solid red;"">","null","","","","","","","","","",""
"","image-keyboard-response","360","99626","0.0-448.0","388U7OUMF8NZEL1ASSNX9OQYCKV0RK","A11YS0T8MV3Q7C","3FVBZG9CLJ0K37PD5L6161S4HTM0HN","","103","img/food6.png","74","104","1","0","3","2","1,0.5,0,1,0.5,0,0.5,0,1","0.5,0,1,0.5,0,1,0,1,0.5","2","false",""
"","html-keyboard-response","361","99930","0.0-449.0","388U7OUMF8NZEL1ASSNX9OQYCKV0RK","A11YS0T8MV3Q7C","3FVBZG9CLJ0K37PD5L6161S4HTM0HN","","null","<img src=""img/food6.png"" style=""width:200px;border:14px solid red;"">","null","","","","","","","","","",""
"","image-keyboard-response","362","99990","0.0-451.0","388U7OUMF8NZEL1ASSNX9OQYCKV0RK","A11YS0T8MV3Q7C","3FVBZG9CLJ0K37PD5L6161S4HTM0HN","","58","img/food4.png","76","60","3","1","1","2","1,0.5,0,1,0.5,0,0.5,0,1","0.5,0,1,0.5,0,1,0,1,0.5","2","false",""
"","html-keyboard-response","363","100301","0.0-452.0","388U7OUMF8NZEL1ASSNX9OQYCKV0RK","A11YS0T8MV3Q7C","3FVBZG9CLJ0K37PD5L6161S4HTM0HN","","null","<img src=""img/food4.png"" style=""width:200px; border:14px solid green;"">","null","","","","","","","","","",""
"","instructions","364","102364","0.0-454.0","388U7OUMF8NZEL1ASSNX9OQYCKV0RK","A11YS0T8MV3Q7C","3FVBZG9CLJ0K37PD5L6161S4HTM0HN","[{""page_index"":0,""viewing_time"":2061}]","2061","","","","","","","","","","","",""
"","survey-text","365","105068","0.0-455.0","388U7OUMF8NZEL1ASSNX9OQYCKV0RK","A11YS0T8MV3Q7C","3FVBZG9CLJ0K37PD5L6161S4HTM0HN","","2693","","","","","","","","","","","","{""Q0"":""A11YS0T8MV3Q7C""}"
