"success","trial_type","trial_index","time_elapsed","internal_node_id","assignmentID","mturkID","hitID","view_history","rt","stimulus","key_press","reactionTime","a","r","warning","s","cond","reward_cond","reward_cond_actual","reward_matrix_idx","responses"
"true","fullscreen","0","1982","0.0-0.0","","","","","","","","","","","","","","","","",""
"","instructions","1","48812","0.0-1.0","","","","[{""page_index"":0,""viewing_time"":33431.39999999851},{""page_index"":1,""viewing_time"":1932.6000000014901},{""page_index"":2,""viewing_time"":1732.6000000014901},{""page_index"":3,""viewing_time"":1943.3999999985099},{""page_index"":4,""viewing_time"":1782.3000000044703},{""page_index"":5,""viewing_time"":4709.29999999702},{""page_index"":6,""viewing_time"":1294.8999999985099}]","46826.89999999851","","","","","","","","","","","",""
"","instructions","2","62931","0.0-2.0","","","","[{""page_index"":0,""viewing_time"":12963.30000000447},{""page_index"":1,""viewing_time"":1154.6999999955297}]","14118.30000000447","","","","","","","","","","","",""
"","image-keyboard-response","3","63484","0.0-3.0","","","","","548.8000000044703","img/food1.png","74","551.2000000029802","1","1","false","1","2","1,0.7,0,1,0.7,0,0.7,0,1","1,0.7,0,1,0.7,0,0.7,0,1","1",""
"","html-keyboard-response","4","63793","0.0-4.0","","","","","null","<img src=""img/food1.png"" style=""width:200px; border:14px solid green;"">","null","","","","","","","","","",""
"","image-keyboard-response","5","64143","0.0-6.0","","","","","346.6000000014901","img/food1.png","74","348.5","1","1","false","1","2","1,0.7,0,1,0.7,0,0.7,0,1","1,0.7,0,1,0.7,0,0.7,0,1","1",""
"","html-keyboard-response","6","64453","0.0-7.0","","","","","null","<img src=""img/food1.png"" style=""width:200px; border:14px solid green;"">","null","","","","","","","","","",""
"","image-keyboard-response","7","64913","0.0-9.0","","","","","456.79999999701977","img/food4.png","75","458.20000000298023","2","1","false","2","2","1,0.7,0,1,0.7,0,0.7,0,1","1,0.7,0,1,0.7,0,0.7,0,1","1",""
"","html-keyboard-response","8","65222","0.0-10.0","","","","","null","<img src=""img/food4.png"" style=""width:200px; border:14px solid green;"">","null","","","","","","","","","",""
"","image-keyboard-response","9","65710","0.0-12.0","","","","","486.29999999701977","img/food1.png","74","487.70000000298023","1","1","false","1","2","1,0.7,0,1,0.7,0,0.7,0,1","1,0.7,0,1,0.7,0,0.7,0,1","1",""
"","html-keyboard-response","10","66013","0.0-13.0","","","","","null","<img src=""img/food1.png"" style=""width:200px; border:14px solid green;"">","null","","","","","","","","","",""
"","image-keyboard-response","11","66640","0.0-15.0","","","","","625","img/food5.png","76","627","3","1","false","3","2","1,0.7,0,1,0.7,0,0.7,0,1","1,0.7,0,1,0.7,0,0.7,0,1","1",""
"","html-keyboard-response","12","66950","0.0-16.0","","","","","null","<img src=""img/food5.png"" style=""width:200px; border:14px solid green;"">","null","","","","","","","","","",""
"","image-keyboard-response","13","67577","0.0-18.0","","","","","625.2999999970198","img/food4.png","75","626.6999999955297","2","0","false","2","2","1,0.7,0,1,0.7,0,0.7,0,1","1,0.7,0,1,0.7,0,0.7,0,1","1",""
"","html-keyboard-response","14","67886","0.0-19.0","","","","","null","<img src=""img/food4.png"" style=""width:200px;border:14px solid red;"">","null","","","","","","","","","",""
"","image-keyboard-response","15","68187","0.0-21.0","","","","","299.3999999985099","img/food4.png","75","301.19999999552965","2","0","false","2","2","1,0.7,0,1,0.7,0,0.7,0,1","1,0.7,0,1,0.7,0,0.7,0,1","1",""
"","html-keyboard-response","16","68493","0.0-22.0","","","","","null","<img src=""img/food4.png"" style=""width:200px;border:14px solid red;"">","null","","","","","","","","","",""
"","image-keyboard-response","17","68763","0.0-24.0","","","","","267.80000000447035","img/food4.png","75","269.5","2","1","false","2","2","1,0.7,0,1,0.7,0,0.7,0,1","1,0.7,0,1,0.7,0,0.7,0,1","1",""
"","html-keyboard-response","18","69069","0.0-25.0","","","","","null","<img src=""img/food4.png"" style=""width:200px; border:14px solid green;"">","null","","","","","","","","","",""
"","image-keyboard-response","19","69781","0.0-27.0","","","","","710.2999999970198","img/food1.png","75","711.5","2","1","false","1","2","1,0.7,0,1,0.7,0,0.7,0,1","1,0.7,0,1,0.7,0,0.7,0,1","1",""
"","html-keyboard-response","20","70086","0.0-28.0","","","","","null","<img src=""img/food1.png"" style=""width:200px; border:14px solid green;"">","null","","","","","","","","","",""
"","image-keyboard-response","21","70546","0.0-30.0","","","","","456","img/food4.png","75","459.80000000447035","2","0","false","2","2","1,0.7,0,1,0.7,0,0.7,0,1","1,0.7,0,1,0.7,0,0.7,0,1","1",""
"","html-keyboard-response","22","70853","0.0-31.0","","","","","null","<img src=""img/food4.png"" style=""width:200px;border:14px solid red;"">","null","","","","","","","","","",""
"","image-keyboard-response","23","71384","0.0-33.0","","","","","528.3999999985099","img/food5.png","75","529.8999999985099","2","0","false","3","2","1,0.7,0,1,0.7,0,0.7,0,1","1,0.7,0,1,0.7,0,0.7,0,1","1",""
"","html-keyboard-response","24","71693","0.0-34.0","","","","","null","<img src=""img/food5.png"" style=""width:200px;border:14px solid red;"">","null","","","","","","","","","",""
"","image-keyboard-response","25","72488","0.0-36.0","","","","","792.2999999970198","img/food1.png","74","794.1999999955297","1","1","false","1","2","1,0.7,0,1,0.7,0,0.7,0,1","1,0.7,0,1,0.7,0,0.7,0,1","1",""
"","html-keyboard-response","26","72798","0.0-37.0","","","","","null","<img src=""img/food1.png"" style=""width:200px; border:14px solid green;"">","null","","","","","","","","","",""
"","image-keyboard-response","27","73129","0.0-39.0","","","","","328.8999999985099","img/food1.png","74","330.40000000596046","1","1","false","1","2","1,0.7,0,1,0.7,0,0.7,0,1","1,0.7,0,1,0.7,0,0.7,0,1","1",""
"","html-keyboard-response","28","73437","0.0-40.0","","","","","null","<img src=""img/food1.png"" style=""width:200px; border:14px solid green;"">","null","","","","","","","","","",""
"","image-keyboard-response","29","73906","0.0-42.0","","","","","467.19999999552965","img/food5.png","74","468.6000000014901","1","1","false","3","2","1,0.7,0,1,0.7,0,0.7,0,1","1,0.7,0,1,0.7,0,0.7,0,1","1",""
"","html-keyboard-response","30","74213","0.0-43.0","","","","","null","<img src=""img/food5.png"" style=""width:200px; border:14px solid green;"">","null","","","","","","","","","",""
"","image-keyboard-response","31","74805","0.0-45.0","","","","","589.3000000044703","img/food4.png","74","591.1000000014901","1","1","false","2","2","1,0.7,0,1,0.7,0,0.7,0,1","1,0.7,0,1,0.7,0,0.7,0,1","1",""
"","html-keyboard-response","32","75110","0.0-46.0","","","","","null","<img src=""img/food4.png"" style=""width:200px; border:14px solid green;"">","null","","","","","","","","","",""
"","image-keyboard-response","33","75511","0.0-48.0","","","","","399.3999999985099","img/food5.png","74","401.20000000298023","1","0","false","3","2","1,0.7,0,1,0.7,0,0.7,0,1","1,0.7,0,1,0.7,0,0.7,0,1","1",""
"","html-keyboard-response","34","75814","0.0-49.0","","","","","null","<img src=""img/food5.png"" style=""width:200px;border:14px solid red;"">","null","","","","","","","","","",""
"","image-keyboard-response","35","76237","0.0-51.0","","","","","420.5","img/food5.png","74","422","1","0","false","3","2","1,0.7,0,1,0.7,0,0.7,0,1","1,0.7,0,1,0.7,0,0.7,0,1","1",""
"","html-keyboard-response","36","76541","0.0-52.0","","","","","null","<img src=""img/food5.png"" style=""width:200px;border:14px solid red;"">","null","","","","","","","","","",""
"","image-keyboard-response","37","77179","0.0-54.0","","","","","636.3000000044703","img/food4.png","74","638","1","1","false","2","2","1,0.7,0,1,0.7,0,0.7,0,1","1,0.7,0,1,0.7,0,0.7,0,1","1",""
"","html-keyboard-response","38","77486","0.0-55.0","","","","","null","<img src=""img/food4.png"" style=""width:200px; border:14px solid green;"">","null","","","","","","","","","",""
"","image-keyboard-response","39","78078","0.0-57.0","","","","","590.1999999955297","img/food1.png","74","591.6000000014901","1","1","false","1","2","1,0.7,0,1,0.7,0,0.7,0,1","1,0.7,0,1,0.7,0,0.7,0,1","1",""
"","html-keyboard-response","40","78381","0.0-58.0","","","","","null","<img src=""img/food1.png"" style=""width:200px; border:14px solid green;"">","null","","","","","","","","","",""
"","image-keyboard-response","41","78954","0.0-60.0","","","","","570.5","img/food4.png","74","571.8000000044703","1","1","false","2","2","1,0.7,0,1,0.7,0,0.7,0,1","1,0.7,0,1,0.7,0,0.7,0,1","1",""
"","html-keyboard-response","42","79261","0.0-61.0","","","","","null","<img src=""img/food4.png"" style=""width:200px; border:14px solid green;"">","null","","","","","","","","","",""
"","image-keyboard-response","43","79966","0.0-63.0","","","","","703.3000000044703","img/food5.png","74","704.3999999985099","1","0","false","3","2","1,0.7,0,1,0.7,0,0.7,0,1","1,0.7,0,1,0.7,0,0.7,0,1","1",""
"","html-keyboard-response","44","80269","0.0-64.0","","","","","null","<img src=""img/food5.png"" style=""width:200px;border:14px solid red;"">","null","","","","","","","","","",""
"","image-keyboard-response","45","80852","0.0-66.0","","","","","581","img/food1.png","74","582.2000000029802","1","1","false","1","2","1,0.7,0,1,0.7,0,0.7,0,1","1,0.7,0,1,0.7,0,0.7,0,1","1",""
"","html-keyboard-response","46","81157","0.0-67.0","","","","","null","<img src=""img/food1.png"" style=""width:200px; border:14px solid green;"">","null","","","","","","","","","",""
"","image-keyboard-response","47","81542","0.0-69.0","","","","","381.79999999701977","img/food4.png","74","383.6000000014901","1","1","false","2","2","1,0.7,0,1,0.7,0,0.7,0,1","1,0.7,0,1,0.7,0,0.7,0,1","1",""
"","html-keyboard-response","48","81846","0.0-70.0","","","","","null","<img src=""img/food4.png"" style=""width:200px; border:14px solid green;"">","null","","","","","","","","","",""
"","image-keyboard-response","49","82450","0.0-72.0","","","","","602.0999999940395","img/food1.png","74","603.8000000044703","1","1","false","1","2","1,0.7,0,1,0.7,0,0.7,0,1","1,0.7,0,1,0.7,0,0.7,0,1","1",""
"","html-keyboard-response","50","82758","0.0-73.0","","","","","null","<img src=""img/food1.png"" style=""width:200px; border:14px solid green;"">","null","","","","","","","","","",""
"","image-keyboard-response","51","83360","0.0-75.0","","","","","600.2000000029802","img/food5.png","76","601.5","3","1","false","3","2","1,0.7,0,1,0.7,0,0.7,0,1","1,0.7,0,1,0.7,0,0.7,0,1","1",""
"","html-keyboard-response","52","83669","0.0-76.0","","","","","null","<img src=""img/food5.png"" style=""width:200px; border:14px solid green;"">","null","","","","","","","","","",""
"","image-keyboard-response","53","84335","0.0-78.0","","","","","663.9000000059605","img/food1.png","74","665.3000000044703","1","1","false","1","2","1,0.7,0,1,0.7,0,0.7,0,1","1,0.7,0,1,0.7,0,0.7,0,1","1",""
"","html-keyboard-response","54","84646","0.0-79.0","","","","","null","<img src=""img/food1.png"" style=""width:200px; border:14px solid green;"">","null","","","","","","","","","",""
"","image-keyboard-response","55","84984","0.0-81.0","","","","","336.30000000447035","img/food1.png","74","337.70000000298023","1","1","false","1","2","1,0.7,0,1,0.7,0,0.7,0,1","1,0.7,0,1,0.7,0,0.7,0,1","1",""
"","html-keyboard-response","56","85293","0.0-82.0","","","","","null","<img src=""img/food1.png"" style=""width:200px; border:14px solid green;"">","null","","","","","","","","","",""
"","image-keyboard-response","57","85747","0.0-84.0","","","","","451.20000000298023","img/food5.png","76","452.6000000014901","3","1","false","3","2","1,0.7,0,1,0.7,0,0.7,0,1","1,0.7,0,1,0.7,0,0.7,0,1","1",""
"","html-keyboard-response","58","86053","0.0-85.0","","","","","null","<img src=""img/food5.png"" style=""width:200px; border:14px solid green;"">","null","","","","","","","","","",""
"","image-keyboard-response","59","86379","0.0-87.0","","","","","322.3999999985099","img/food5.png","76","324.1000000014901","3","1","false","3","2","1,0.7,0,1,0.7,0,0.7,0,1","1,0.7,0,1,0.7,0,0.7,0,1","1",""
"","html-keyboard-response","60","86685","0.0-88.0","","","","","null","<img src=""img/food5.png"" style=""width:200px; border:14px solid green;"">","null","","","","","","","","","",""
"","image-keyboard-response","61","86863","0.0-90.0","","","","","176.19999999552965","img/food4.png","76","177.5","3","0","false","2","2","1,0.7,0,1,0.7,0,0.7,0,1","1,0.7,0,1,0.7,0,0.7,0,1","1",""
"","html-keyboard-response","62","87174","0.0-91.0","","","","","null","<img src=""img/food4.png"" style=""width:200px;border:14px solid red;"">","null","","","","","","","","","",""
"","image-keyboard-response","63","87522","0.0-93.0","","","","","345.69999999552965","img/food4.png","75","347.30000000447035","2","1","false","2","2","1,0.7,0,1,0.7,0,0.7,0,1","1,0.7,0,1,0.7,0,0.7,0,1","1",""
"","html-keyboard-response","64","87830","0.0-94.0","","","","","null","<img src=""img/food4.png"" style=""width:200px; border:14px solid green;"">","null","","","","","","","","","",""
"","image-keyboard-response","65","88311","0.0-96.0","","","","","474.1000000014901","img/food4.png","74","475.30000000447035","1","1","false","2","2","1,0.7,0,1,0.7,0,0.7,0,1","1,0.7,0,1,0.7,0,0.7,0,1","1",""
"","html-keyboard-response","66","88614","0.0-97.0","","","","","null","<img src=""img/food4.png"" style=""width:200px; border:14px solid green;"">","null","","","","","","","","","",""
"","image-keyboard-response","67","89376","0.0-99.0","","","","","759.9000000059605","img/food5.png","76","761.3999999985099","3","1","false","3","2","1,0.7,0,1,0.7,0,0.7,0,1","1,0.7,0,1,0.7,0,0.7,0,1","1",""
"","html-keyboard-response","68","89685","0.0-100.0","","","","","null","<img src=""img/food5.png"" style=""width:200px; border:14px solid green;"">","null","","","","","","","","","",""
"","image-keyboard-response","69","90391","0.0-102.0","","","","","704.1999999955297","img/food4.png","74","705.5999999940395","1","1","false","2","2","1,0.7,0,1,0.7,0,0.7,0,1","1,0.7,0,1,0.7,0,0.7,0,1","1",""
"","html-keyboard-response","70","90694","0.0-103.0","","","","","null","<img src=""img/food4.png"" style=""width:200px; border:14px solid green;"">","null","","","","","","","","","",""
"","image-keyboard-response","71","91054","0.0-105.0","","","","","358","img/food4.png","74","359.59999999403954","1","1","false","2","2","1,0.7,0,1,0.7,0,0.7,0,1","1,0.7,0,1,0.7,0,0.7,0,1","1",""
"","html-keyboard-response","72","91357","0.0-106.0","","","","","null","<img src=""img/food4.png"" style=""width:200px; border:14px solid green;"">","null","","","","","","","","","",""
"","image-keyboard-response","73","91636","0.0-108.0","","","","","276.70000000298023","img/food4.png","74","278.20000000298023","1","1","false","2","2","1,0.7,0,1,0.7,0,0.7,0,1","1,0.7,0,1,0.7,0,0.7,0,1","1",""
"","html-keyboard-response","74","91942","0.0-109.0","","","","","null","<img src=""img/food4.png"" style=""width:200px; border:14px solid green;"">","null","","","","","","","","","",""
"","image-keyboard-response","75","92460","0.0-111.0","","","","","515.3999999985099","img/food5.png","76","516.9000000059605","3","1","false","3","2","1,0.7,0,1,0.7,0,0.7,0,1","1,0.7,0,1,0.7,0,0.7,0,1","1",""
"","html-keyboard-response","76","92765","0.0-112.0","","","","","null","<img src=""img/food5.png"" style=""width:200px; border:14px solid green;"">","null","","","","","","","","","",""
"","image-keyboard-response","77","93278","0.0-114.0","","","","","510.29999999701977","img/food1.png","74","512.0999999940395","1","1","false","1","2","1,0.7,0,1,0.7,0,0.7,0,1","1,0.7,0,1,0.7,0,0.7,0,1","1",""
"","html-keyboard-response","78","93582","0.0-115.0","","","","","null","<img src=""img/food1.png"" style=""width:200px; border:14px solid green;"">","null","","","","","","","","","",""
"","image-keyboard-response","79","93898","0.0-117.0","","","","","313","img/food1.png","74","315.5","1","1","false","1","2","1,0.7,0,1,0.7,0,0.7,0,1","1,0.7,0,1,0.7,0,0.7,0,1","1",""
"","html-keyboard-response","80","94205","0.0-118.0","","","","","null","<img src=""img/food1.png"" style=""width:200px; border:14px solid green;"">","null","","","","","","","","","",""
"","image-keyboard-response","81","94655","0.0-120.0","","","","","447.29999999701977","img/food5.png","76","449.1000000014901","3","1","false","3","2","1,0.7,0,1,0.7,0,0.7,0,1","1,0.7,0,1,0.7,0,0.7,0,1","1",""
"","html-keyboard-response","82","94958","0.0-121.0","","","","","null","<img src=""img/food5.png"" style=""width:200px; border:14px solid green;"">","null","","","","","","","","","",""
"","image-keyboard-response","83","95207","0.0-123.0","","","","","247.89999999850988","img/food5.png","76","249.29999999701977","3","1","false","3","2","1,0.7,0,1,0.7,0,0.7,0,1","1,0.7,0,1,0.7,0,0.7,0,1","1",""
"","html-keyboard-response","84","95517","0.0-124.0","","","","","null","<img src=""img/food5.png"" style=""width:200px; border:14px solid green;"">","null","","","","","","","","","",""
"","image-keyboard-response","85","95877","0.0-126.0","","","","","357.6000000014901","img/food1.png","74","359.1000000014901","1","1","false","1","2","1,0.7,0,1,0.7,0,0.7,0,1","1,0.7,0,1,0.7,0,0.7,0,1","1",""
"","html-keyboard-response","86","96181","0.0-127.0","","","","","null","<img src=""img/food1.png"" style=""width:200px; border:14px solid green;"">","null","","","","","","","","","",""
"","image-keyboard-response","87","96585","0.0-129.0","","","","","402.19999999552965","img/food4.png","74","403.6000000014901","1","1","false","2","2","1,0.7,0,1,0.7,0,0.7,0,1","1,0.7,0,1,0.7,0,0.7,0,1","1",""
"","html-keyboard-response","88","96893","0.0-130.0","","","","","null","<img src=""img/food4.png"" style=""width:200px; border:14px solid green;"">","null","","","","","","","","","",""
"","image-keyboard-response","89","97336","0.0-132.0","","","","","440.8999999985099","img/food5.png","76","442.6000000014901","3","1","false","3","2","1,0.7,0,1,0.7,0,0.7,0,1","1,0.7,0,1,0.7,0,0.7,0,1","1",""
"","html-keyboard-response","90","97646","0.0-133.0","","","","","null","<img src=""img/food5.png"" style=""width:200px; border:14px solid green;"">","null","","","","","","","","","",""
"","image-keyboard-response","91","98081","0.0-135.0","","","","","433.20000000298023","img/food4.png","76","434.5","3","0","false","2","2","1,0.7,0,1,0.7,0,0.7,0,1","1,0.7,0,1,0.7,0,0.7,0,1","1",""
"","html-keyboard-response","92","98390","0.0-136.0","","","","","null","<img src=""img/food4.png"" style=""width:200px;border:14px solid red;"">","null","","","","","","","","","",""
"","image-keyboard-response","93","98608","0.0-138.0","","","","","216.10000000149012","img/food1.png","75","217.70000000298023","2","1","false","1","2","1,0.7,0,1,0.7,0,0.7,0,1","1,0.7,0,1,0.7,0,0.7,0,1","1",""
"","html-keyboard-response","94","98917","0.0-139.0","","","","","null","<img src=""img/food1.png"" style=""width:200px; border:14px solid green;"">","null","","","","","","","","","",""
"","image-keyboard-response","95","99926","0.0-141.0","","","","","","img/food5.png","","1007.6000000014901","-1","0","true","3","2","1,0.7,0,1,0.7,0,0.7,0,1","1,0.7,0,1,0.7,0,0.7,0,1","1",""
"","html-keyboard-response","96","100230","0.0-142.0","","","","","null","<img src=""img/food5.png"" style=""width:200px;border:14px solid red;"">","null","","","","","","","","","",""
"","html-keyboard-response","97","102073","0.0-143.0-0.0","","","","","","","","","","","","","","","","",""
"","image-keyboard-response","98","102466","0.0-144.0","","","","","390.69999999552965","img/food4.png","74","392.79999999701977","1","1","false","2","2","1,0.7,0,1,0.7,0,0.7,0,1","1,0.7,0,1,0.7,0,0.7,0,1","1",""
"","html-keyboard-response","99","102773","0.0-145.0","","","","","null","<img src=""img/food4.png"" style=""width:200px; border:14px solid green;"">","null","","","","","","","","","",""
"","image-keyboard-response","100","103192","0.0-147.0","","","","","415.8999999985099","img/food5.png","75","417.70000000298023","2","0","false","3","2","1,0.7,0,1,0.7,0,0.7,0,1","1,0.7,0,1,0.7,0,0.7,0,1","1",""
"","html-keyboard-response","101","103501","0.0-148.0","","","","","null","<img src=""img/food5.png"" style=""width:200px;border:14px solid red;"">","null","","","","","","","","","",""
"","image-keyboard-response","102","103967","0.0-150.0","","","","","463.59999999403954","img/food5.png","76","465.1000000014901","3","1","false","3","2","1,0.7,0,1,0.7,0,0.7,0,1","1,0.7,0,1,0.7,0,0.7,0,1","1",""
"","html-keyboard-response","103","104269","0.0-151.0","","","","","null","<img src=""img/food5.png"" style=""width:200px; border:14px solid green;"">","null","","","","","","","","","",""
"","image-keyboard-response","104","104815","0.0-153.0","","","","","542.7999999970198","img/food1.png","74","544.5","1","1","false","1","2","1,0.7,0,1,0.7,0,0.7,0,1","1,0.7,0,1,0.7,0,0.7,0,1","1",""
"","html-keyboard-response","105","105117","0.0-154.0","","","","","null","<img src=""img/food1.png"" style=""width:200px; border:14px solid green;"">","null","","","","","","","","","",""
"","image-keyboard-response","106","105813","0.0-156.0","","","","","694.1000000014901","img/food5.png","76","695.5","3","1","false","3","2","1,0.7,0,1,0.7,0,0.7,0,1","1,0.7,0,1,0.7,0,0.7,0,1","1",""
"","html-keyboard-response","107","106118","0.0-157.0","","","","","null","<img src=""img/food5.png"" style=""width:200px; border:14px solid green;"">","null","","","","","","","","","",""
"","image-keyboard-response","108","106613","0.0-159.0","","","","","492.29999999701977","img/food1.png","74","494.1000000014901","1","1","false","1","2","1,0.7,0,1,0.7,0,0.7,0,1","1,0.7,0,1,0.7,0,0.7,0,1","1",""
"","html-keyboard-response","109","106918","0.0-160.0","","","","","null","<img src=""img/food1.png"" style=""width:200px; border:14px solid green;"">","null","","","","","","","","","",""
"","image-keyboard-response","110","107258","0.0-162.0","","","","","337.79999999701977","img/food1.png","74","339.6000000014901","1","1","false","1","2","1,0.7,0,1,0.7,0,0.7,0,1","1,0.7,0,1,0.7,0,0.7,0,1","1",""
"","html-keyboard-response","111","107565","0.0-163.0","","","","","null","<img src=""img/food1.png"" style=""width:200px; border:14px solid green;"">","null","","","","","","","","","",""
"","image-keyboard-response","112","107866","0.0-165.0","","","","","298.3999999985099","img/food1.png","74","300","1","1","false","1","2","1,0.7,0,1,0.7,0,0.7,0,1","1,0.7,0,1,0.7,0,0.7,0,1","1",""
"","html-keyboard-response","113","108173","0.0-166.0","","","","","null","<img src=""img/food1.png"" style=""width:200px; border:14px solid green;"">","null","","","","","","","","","",""
"","image-keyboard-response","114","108514","0.0-168.0","","","","","338.1000000014901","img/food1.png","74","339.69999999552965","1","1","false","1","2","1,0.7,0,1,0.7,0,0.7,0,1","1,0.7,0,1,0.7,0,0.7,0,1","1",""
"","html-keyboard-response","115","108822","0.0-169.0","","","","","null","<img src=""img/food1.png"" style=""width:200px; border:14px solid green;"">","null","","","","","","","","","",""
"","image-keyboard-response","116","109138","0.0-171.0","","","","","314.5","img/food1.png","74","316","1","1","false","1","2","1,0.7,0,1,0.7,0,0.7,0,1","1,0.7,0,1,0.7,0,0.7,0,1","1",""
"","html-keyboard-response","117","109446","0.0-172.0","","","","","null","<img src=""img/food1.png"" style=""width:200px; border:14px solid green;"">","null","","","","","","","","","",""
"","image-keyboard-response","118","109759","0.0-174.0","","","","","310.8999999985099","img/food1.png","74","312.5","1","1","false","1","2","1,0.7,0,1,0.7,0,0.7,0,1","1,0.7,0,1,0.7,0,0.7,0,1","1",""
"","html-keyboard-response","119","110070","0.0-175.0","","","","","null","<img src=""img/food1.png"" style=""width:200px; border:14px solid green;"">","null","","","","","","","","","",""
"","image-keyboard-response","120","110408","0.0-177.0","","","","","336","img/food1.png","74","337.5","1","1","false","1","2","1,0.7,0,1,0.7,0,0.7,0,1","1,0.7,0,1,0.7,0,0.7,0,1","1",""
"","html-keyboard-response","121","110717","0.0-178.0","","","","","null","<img src=""img/food1.png"" style=""width:200px; border:14px solid green;"">","null","","","","","","","","","",""
"","image-keyboard-response","122","111290","0.0-180.0","","","","","571.1999999955297","img/food5.png","76","572.7000000029802","3","1","false","3","2","1,0.7,0,1,0.7,0,0.7,0,1","1,0.7,0,1,0.7,0,0.7,0,1","1",""
"","html-keyboard-response","123","111598","0.0-181.0","","","","","null","<img src=""img/food5.png"" style=""width:200px; border:14px solid green;"">","null","","","","","","","","","",""
"","image-keyboard-response","124","112046","0.0-183.0","","","","","443.5","img/food1.png","74","446","1","1","false","1","2","1,0.7,0,1,0.7,0,0.7,0,1","1,0.7,0,1,0.7,0,0.7,0,1","1",""
"","html-keyboard-response","125","112349","0.0-184.0","","","","","null","<img src=""img/food1.png"" style=""width:200px; border:14px solid green;"">","null","","","","","","","","","",""
"","image-keyboard-response","126","112881","0.0-186.0","","","","","530.1000000014901","img/food4.png","75","531.3999999985099","2","0","false","2","2","1,0.7,0,1,0.7,0,0.7,0,1","1,0.7,0,1,0.7,0,0.7,0,1","1",""
"","html-keyboard-response","127","113190","0.0-187.0","","","","","null","<img src=""img/food4.png"" style=""width:200px;border:14px solid red;"">","null","","","","","","","","","",""
"","image-keyboard-response","128","113727","0.0-189.0","","","","","535.7000000029802","img/food5.png","76","536.8999999985099","3","1","false","3","2","1,0.7,0,1,0.7,0,0.7,0,1","1,0.7,0,1,0.7,0,0.7,0,1","1",""
"","html-keyboard-response","129","114029","0.0-190.0","","","","","null","<img src=""img/food5.png"" style=""width:200px; border:14px solid green;"">","null","","","","","","","","","",""
"","image-keyboard-response","130","114603","0.0-192.0","","","","","572.2000000029802","img/food4.png","74","573.3999999985099","1","1","false","2","2","1,0.7,0,1,0.7,0,0.7,0,1","1,0.7,0,1,0.7,0,0.7,0,1","1",""
"","html-keyboard-response","131","114909","0.0-193.0","","","","","null","<img src=""img/food4.png"" style=""width:200px; border:14px solid green;"">","null","","","","","","","","","",""
"","image-keyboard-response","132","115618","0.0-195.0","","","","","706.6000000014901","img/food5.png","76","708.3000000044703","3","1","false","3","2","1,0.7,0,1,0.7,0,0.7,0,1","1,0.7,0,1,0.7,0,0.7,0,1","1",""
"","html-keyboard-response","133","115925","0.0-196.0","","","","","null","<img src=""img/food5.png"" style=""width:200px; border:14px solid green;"">","null","","","","","","","","","",""
"","image-keyboard-response","134","116374","0.0-198.0","","","","","446.6000000014901","img/food4.png","74","448.30000000447035","1","1","false","2","2","1,0.7,0,1,0.7,0,0.7,0,1","1,0.7,0,1,0.7,0,0.7,0,1","1",""
"","html-keyboard-response","135","116677","0.0-199.0","","","","","null","<img src=""img/food4.png"" style=""width:200px; border:14px solid green;"">","null","","","","","","","","","",""
"","image-keyboard-response","136","117113","0.0-201.0","","","","","433.69999999552965","img/food4.png","74","435.1000000014901","1","1","false","2","2","1,0.7,0,1,0.7,0,0.7,0,1","1,0.7,0,1,0.7,0,0.7,0,1","1",""
"","html-keyboard-response","137","117421","0.0-202.0","","","","","null","<img src=""img/food4.png"" style=""width:200px; border:14px solid green;"">","null","","","","","","","","","",""
"","image-keyboard-response","138","117784","0.0-204.0","","","","","360.5","img/food5.png","76","362.09999999403954","3","1","false","3","2","1,0.7,0,1,0.7,0,0.7,0,1","1,0.7,0,1,0.7,0,0.7,0,1","1",""
"","html-keyboard-response","139","118093","0.0-205.0","","","","","null","<img src=""img/food5.png"" style=""width:200px; border:14px solid green;"">","null","","","","","","","","","",""
"","image-keyboard-response","140","118363","0.0-207.0","","","","","267.20000000298023","img/food5.png","76","269","3","1","false","3","2","1,0.7,0,1,0.7,0,0.7,0,1","1,0.7,0,1,0.7,0,0.7,0,1","1",""
"","html-keyboard-response","141","118670","0.0-208.0","","","","","null","<img src=""img/food5.png"" style=""width:200px; border:14px solid green;"">","null","","","","","","","","","",""
"","image-keyboard-response","142","119019","0.0-210.0","","","","","347.19999999552965","img/food1.png","74","348.3999999985099","1","1","false","1","2","1,0.7,0,1,0.7,0,0.7,0,1","1,0.7,0,1,0.7,0,0.7,0,1","1",""
"","html-keyboard-response","143","119325","0.0-211.0","","","","","null","<img src=""img/food1.png"" style=""width:200px; border:14px solid green;"">","null","","","","","","","","","",""
"","image-keyboard-response","144","119534","0.0-213.0","","","","","207.19999999552965","img/food4.png","74","208.5","1","1","false","2","2","1,0.7,0,1,0.7,0,0.7,0,1","1,0.7,0,1,0.7,0,0.7,0,1","1",""
"","html-keyboard-response","145","119837","0.0-214.0","","","","","null","<img src=""img/food4.png"" style=""width:200px; border:14px solid green;"">","null","","","","","","","","","",""
"","image-keyboard-response","146","120181","0.0-216.0","","","","","341.8999999985099","img/food1.png","74","343.29999999701977","1","1","false","1","2","1,0.7,0,1,0.7,0,0.7,0,1","1,0.7,0,1,0.7,0,0.7,0,1","1",""
"","html-keyboard-response","147","120486","0.0-217.0","","","","","null","<img src=""img/food1.png"" style=""width:200px; border:14px solid green;"">","null","","","","","","","","","",""
"","image-keyboard-response","148","120912","0.0-219.0","","","","","424.09999999403954","img/food5.png","76","425.80000000447035","3","1","false","3","2","1,0.7,0,1,0.7,0,0.7,0,1","1,0.7,0,1,0.7,0,0.7,0,1","1",""
"","html-keyboard-response","149","121222","0.0-220.0","","","","","null","<img src=""img/food5.png"" style=""width:200px; border:14px solid green;"">","null","","","","","","","","","",""
"","image-keyboard-response","150","121555","0.0-222.0","","","","","331","img/food4.png","74","332.79999999701977","1","1","false","2","2","1,0.7,0,1,0.7,0,0.7,0,1","1,0.7,0,1,0.7,0,0.7,0,1","1",""
"","html-keyboard-response","151","121862","0.0-223.0","","","","","null","<img src=""img/food4.png"" style=""width:200px; border:14px solid green;"">","null","","","","","","","","","",""
"","image-keyboard-response","152","122181","0.0-225.0","","","","","315.90000000596046","img/food4.png","74","317.8999999985099","1","1","false","2","2","1,0.7,0,1,0.7,0,0.7,0,1","1,0.7,0,1,0.7,0,0.7,0,1","1",""
"","html-keyboard-response","153","122485","0.0-226.0","","","","","null","<img src=""img/food4.png"" style=""width:200px; border:14px solid green;"">","null","","","","","","","","","",""
"","image-keyboard-response","154","122734","0.0-228.0","","","","","246.40000000596046","img/food4.png","74","248.10000000149012","1","1","false","2","2","1,0.7,0,1,0.7,0,0.7,0,1","1,0.7,0,1,0.7,0,0.7,0,1","1",""
"","html-keyboard-response","155","123037","0.0-229.0","","","","","null","<img src=""img/food4.png"" style=""width:200px; border:14px solid green;"">","null","","","","","","","","","",""
"","image-keyboard-response","156","123186","0.0-231.0","","","","","146.20000000298023","img/food5.png","74","147.60000000149012","1","1","false","3","2","1,0.7,0,1,0.7,0,0.7,0,1","1,0.7,0,1,0.7,0,0.7,0,1","1",""
"","html-keyboard-response","157","123495","0.0-232.0","","","","","null","<img src=""img/food5.png"" style=""width:200px; border:14px solid green;"">","null","","","","","","","","","",""
"","image-keyboard-response","158","123898","0.0-234.0","","","","","399.8999999985099","img/food1.png","74","401.5","1","1","false","1","2","1,0.7,0,1,0.7,0,0.7,0,1","1,0.7,0,1,0.7,0,0.7,0,1","1",""
"","html-keyboard-response","159","124206","0.0-235.0","","","","","null","<img src=""img/food1.png"" style=""width:200px; border:14px solid green;"">","null","","","","","","","","","",""
"","image-keyboard-response","160","124576","0.0-237.0","","","","","368.30000000447035","img/food4.png","74","370.09999999403954","1","1","false","2","2","1,0.7,0,1,0.7,0,0.7,0,1","1,0.7,0,1,0.7,0,0.7,0,1","1",""
"","html-keyboard-response","161","124886","0.0-238.0","","","","","null","<img src=""img/food4.png"" style=""width:200px; border:14px solid green;"">","null","","","","","","","","","",""
"","image-keyboard-response","162","125263","0.0-240.0","","","","","374.8999999985099","img/food5.png","76","376.6000000014901","3","1","false","3","2","1,0.7,0,1,0.7,0,0.7,0,1","1,0.7,0,1,0.7,0,0.7,0,1","1",""
"","html-keyboard-response","163","125565","0.0-241.0","","","","","null","<img src=""img/food5.png"" style=""width:200px; border:14px solid green;"">","null","","","","","","","","","",""
"","image-keyboard-response","164","125759","0.0-243.0","","","","","191.80000000447035","img/food4.png","76","193.5","3","0","false","2","2","1,0.7,0,1,0.7,0,0.7,0,1","1,0.7,0,1,0.7,0,0.7,0,1","1",""
"","html-keyboard-response","165","126062","0.0-244.0","","","","","null","<img src=""img/food4.png"" style=""width:200px;border:14px solid red;"">","null","","","","","","","","","",""
"","image-keyboard-response","166","126251","0.0-246.0","","","","","187","img/food4.png","74","188.60000000149012","1","1","false","2","2","1,0.7,0,1,0.7,0,0.7,0,1","1,0.7,0,1,0.7,0,0.7,0,1","1",""
"","html-keyboard-response","167","126557","0.0-247.0","","","","","null","<img src=""img/food4.png"" style=""width:200px; border:14px solid green;"">","null","","","","","","","","","",""
"","image-keyboard-response","168","126679","0.0-249.0","","","","","119.39999999850988","img/food5.png","74","121.10000000149012","1","1","false","3","2","1,0.7,0,1,0.7,0,0.7,0,1","1,0.7,0,1,0.7,0,0.7,0,1","1",""
"","html-keyboard-response","169","126982","0.0-250.0","","","","","null","<img src=""img/food5.png"" style=""width:200px; border:14px solid green;"">","null","","","","","","","","","",""
"","image-keyboard-response","170","127134","0.0-252.0","","","","","149.20000000298023","img/food1.png","76","150.89999999850988","3","0","false","1","2","1,0.7,0,1,0.7,0,0.7,0,1","1,0.7,0,1,0.7,0,0.7,0,1","1",""
"","html-keyboard-response","171","127437","0.0-253.0","","","","","null","<img src=""img/food1.png"" style=""width:200px;border:14px solid red;"">","null","","","","","","","","","",""
"","image-keyboard-response","172","128127","0.0-255.0","","","","","688.1999999955297","img/food5.png","76","690.2000000029802","3","1","false","3","2","1,0.7,0,1,0.7,0,0.7,0,1","1,0.7,0,1,0.7,0,0.7,0,1","1",""
"","html-keyboard-response","173","128438","0.0-256.0","","","","","null","<img src=""img/food5.png"" style=""width:200px; border:14px solid green;"">","null","","","","","","","","","",""
"","image-keyboard-response","174","128770","0.0-258.0","","","","","330.69999999552965","img/food5.png","76","331.90000000596046","3","1","false","3","2","1,0.7,0,1,0.7,0,0.7,0,1","1,0.7,0,1,0.7,0,0.7,0,1","1",""
"","html-keyboard-response","175","129077","0.0-259.0","","","","","null","<img src=""img/food5.png"" style=""width:200px; border:14px solid green;"">","null","","","","","","","","","",""
"","image-keyboard-response","176","129436","0.0-261.0","","","","","356.69999999552965","img/food1.png","74","358.19999999552965","1","1","false","1","2","1,0.7,0,1,0.7,0,0.7,0,1","1,0.7,0,1,0.7,0,0.7,0,1","1",""
"","html-keyboard-response","177","129742","0.0-262.0","","","","","null","<img src=""img/food1.png"" style=""width:200px; border:14px solid green;"">","null","","","","","","","","","",""
"","image-keyboard-response","178","130108","0.0-264.0","","","","","364.5","img/food5.png","76","365.8999999985099","3","1","false","3","2","1,0.7,0,1,0.7,0,0.7,0,1","1,0.7,0,1,0.7,0,0.7,0,1","1",""
"","html-keyboard-response","179","130414","0.0-265.0","","","","","null","<img src=""img/food5.png"" style=""width:200px; border:14px solid green;"">","null","","","","","","","","","",""
"","image-keyboard-response","180","130753","0.0-267.0","","","","","337.5","img/food4.png","74","338.79999999701977","1","1","false","2","2","1,0.7,0,1,0.7,0,0.7,0,1","1,0.7,0,1,0.7,0,0.7,0,1","1",""
"","html-keyboard-response","181","131061","0.0-268.0","","","","","null","<img src=""img/food4.png"" style=""width:200px; border:14px solid green;"">","null","","","","","","","","","",""
"","image-keyboard-response","182","131490","0.0-270.0","","","","","426.6000000014901","img/food1.png","74","428.19999999552965","1","1","false","1","2","1,0.7,0,1,0.7,0,0.7,0,1","1,0.7,0,1,0.7,0,0.7,0,1","1",""
"","html-keyboard-response","183","131798","0.0-271.0","","","","","null","<img src=""img/food1.png"" style=""width:200px; border:14px solid green;"">","null","","","","","","","","","",""
"","instructions","184","135828","0.0-273.0","","","","[{""page_index"":0,""viewing_time"":3189},{""page_index"":1,""viewing_time"":840.5}]","4029.6999999955297","","","","","","","","","","","",""
"","image-keyboard-response","185","136840","0.0-274.0","","","","","1009.2999999970198","img/food6.png","74","1010.8999999985099","1","1","","3","1","1,0.7,0,1,0.7,0,0.7,0,1","0,1,0.7,0,1,0.7,1,0.7,0","3",""
"","html-keyboard-response","186","137149","0.0-275.0","","","","","null","<img src=""img/food6.png"" style=""width:200px; border:14px solid green;"">","null","","","","","","","","","",""
"","image-keyboard-response","187","137905","0.0-276.0","","","","","753.6000000014901","img/food2.png","74","755.1000000014901","1","0","","1","1","1,0.7,0,1,0.7,0,0.7,0,1","0,1,0.7,0,1,0.7,1,0.7,0","3",""
"","html-keyboard-response","188","138214","0.0-277.0","","","","","null","<img src=""img/food2.png"" style=""width:200px;border:14px solid red;"">","null","","","","","","","","","",""
"","image-keyboard-response","189","138917","0.0-278.0","","","","","701.1000000014901","img/food6.png","74","702.8999999985099","1","1","","3","1","1,0.7,0,1,0.7,0,0.7,0,1","0,1,0.7,0,1,0.7,1,0.7,0","3",""
"","html-keyboard-response","190","139222","0.0-279.0","","","","","null","<img src=""img/food6.png"" style=""width:200px; border:14px solid green;"">","null","","","","","","","","","",""
"","image-keyboard-response","191","140119","0.0-280.0","","","","","895","img/food2.png","75","896.7999999970198","2","1","","1","1","1,0.7,0,1,0.7,0,0.7,0,1","0,1,0.7,0,1,0.7,1,0.7,0","3",""
"","html-keyboard-response","192","140422","0.0-281.0","","","","","null","<img src=""img/food2.png"" style=""width:200px; border:14px solid green;"">","null","","","","","","","","","",""
"","image-keyboard-response","193","141369","0.0-282.0","","","","","945.5","img/food3.png","75","946.8999999985099","2","1","","2","1","1,0.7,0,1,0.7,0,0.7,0,1","0,1,0.7,0,1,0.7,1,0.7,0","3",""
"","html-keyboard-response","194","141678","0.0-283.0","","","","","null","<img src=""img/food3.png"" style=""width:200px; border:14px solid green;"">","null","","","","","","","","","",""
"","image-keyboard-response","195","142559","0.0-284.0","","","","","879.8999999985099","img/food2.png","74","881.3999999985099","1","0","","1","1","1,0.7,0,1,0.7,0,0.7,0,1","0,1,0.7,0,1,0.7,1,0.7,0","3",""
"","html-keyboard-response","196","142869","0.0-285.0","","","","","null","<img src=""img/food2.png"" style=""width:200px;border:14px solid red;"">","null","","","","","","","","","",""
"","image-keyboard-response","197","143229","0.0-286.0","","","","","358.3999999985099","img/food2.png","75","359.69999999552965","2","1","","1","1","1,0.7,0,1,0.7,0,0.7,0,1","0,1,0.7,0,1,0.7,1,0.7,0","3",""
"","html-keyboard-response","198","143534","0.0-287.0","","","","","null","<img src=""img/food2.png"" style=""width:200px; border:14px solid green;"">","null","","","","","","","","","",""
"","image-keyboard-response","199","144195","0.0-288.0","","","","","660","img/food6.png","74","661.2000000029802","1","1","","3","1","1,0.7,0,1,0.7,0,0.7,0,1","0,1,0.7,0,1,0.7,1,0.7,0","3",""
"","html-keyboard-response","200","144501","0.0-289.0","","","","","null","<img src=""img/food6.png"" style=""width:200px; border:14px solid green;"">","null","","","","","","","","","",""
"","image-keyboard-response","201","144998","0.0-290.0","","","","","495.1000000014901","img/food6.png","74","496.5","1","1","","3","1","1,0.7,0,1,0.7,0,0.7,0,1","0,1,0.7,0,1,0.7,1,0.7,0","3",""
"","html-keyboard-response","202","145302","0.0-291.0","","","","","null","<img src=""img/food6.png"" style=""width:200px; border:14px solid green;"">","null","","","","","","","","","",""
"","image-keyboard-response","203","146344","0.0-292.0","","","","","1040.8000000044703","img/food3.png","76","1042.1000000014901","3","1","","2","1","1,0.7,0,1,0.7,0,0.7,0,1","0,1,0.7,0,1,0.7,1,0.7,0","3",""
"","html-keyboard-response","204","146653","0.0-293.0","","","","","null","<img src=""img/food3.png"" style=""width:200px; border:14px solid green;"">","null","","","","","","","","","",""
"","image-keyboard-response","205","147240","0.0-294.0","","","","","585.0999999940395","img/food6.png","74","586.5","1","1","","3","1","1,0.7,0,1,0.7,0,0.7,0,1","0,1,0.7,0,1,0.7,1,0.7,0","3",""
"","html-keyboard-response","206","147552","0.0-295.0","","","","","null","<img src=""img/food6.png"" style=""width:200px; border:14px solid green;"">","null","","","","","","","","","",""
"","image-keyboard-response","207","148015","0.0-296.0","","","","","460.70000000298023","img/food3.png","76","462.6000000014901","3","0","","2","1","1,0.7,0,1,0.7,0,0.7,0,1","0,1,0.7,0,1,0.7,1,0.7,0","3",""
"","html-keyboard-response","208","148326","0.0-297.0","","","","","null","<img src=""img/food3.png"" style=""width:200px;border:14px solid red;"">","null","","","","","","","","","",""
"","image-keyboard-response","209","148691","0.0-298.0","","","","","363","img/food2.png","74","364.5","1","0","","1","1","1,0.7,0,1,0.7,0,0.7,0,1","0,1,0.7,0,1,0.7,1,0.7,0","3",""
"","html-keyboard-response","210","148998","0.0-299.0","","","","","null","<img src=""img/food2.png"" style=""width:200px;border:14px solid red;"">","null","","","","","","","","","",""
"","image-keyboard-response","211","149896","0.0-300.0","","","","","895.7999999970198","img/food3.png","76","897.4000000059605","3","1","","2","1","1,0.7,0,1,0.7,0,0.7,0,1","0,1,0.7,0,1,0.7,1,0.7,0","3",""
"","html-keyboard-response","212","150205","0.0-301.0","","","","","null","<img src=""img/food3.png"" style=""width:200px; border:14px solid green;"">","null","","","","","","","","","",""
"","image-keyboard-response","213","151277","0.0-302.0","","","","","1069.8999999985099","img/food6.png","74","1071.3000000044703","1","1","","3","1","1,0.7,0,1,0.7,0,0.7,0,1","0,1,0.7,0,1,0.7,1,0.7,0","3",""
"","html-keyboard-response","214","151581","0.0-303.0","","","","","null","<img src=""img/food6.png"" style=""width:200px; border:14px solid green;"">","null","","","","","","","","","",""
"","image-keyboard-response","215","152576","0.0-304.0","","","","","993.1000000014901","img/food3.png","75","994.2999999970198","2","1","","2","1","1,0.7,0,1,0.7,0,0.7,0,1","0,1,0.7,0,1,0.7,1,0.7,0","3",""
"","html-keyboard-response","216","152885","0.0-305.0","","","","","null","<img src=""img/food3.png"" style=""width:200px; border:14px solid green;"">","null","","","","","","","","","",""
"","image-keyboard-response","217","153476","0.0-306.0","","","","","589.1999999955297","img/food2.png","75","590.7999999970198","2","1","","1","1","1,0.7,0,1,0.7,0,0.7,0,1","0,1,0.7,0,1,0.7,1,0.7,0","3",""
"","html-keyboard-response","218","153782","0.0-307.0","","","","","null","<img src=""img/food2.png"" style=""width:200px; border:14px solid green;"">","null","","","","","","","","","",""
"","image-keyboard-response","219","154109","0.0-308.0","","","","","326.09999999403954","img/food2.png","75","327.80000000447035","2","1","","1","1","1,0.7,0,1,0.7,0,0.7,0,1","0,1,0.7,0,1,0.7,1,0.7,0","3",""
"","html-keyboard-response","220","154414","0.0-309.0","","","","","null","<img src=""img/food2.png"" style=""width:200px; border:14px solid green;"">","null","","","","","","","","","",""
"","image-keyboard-response","221","154727","0.0-310.0","","","","","311.8999999985099","img/food2.png","75","313.1000000014901","2","1","","1","1","1,0.7,0,1,0.7,0,0.7,0,1","0,1,0.7,0,1,0.7,1,0.7,0","3",""
"","html-keyboard-response","222","155029","0.0-311.0","","","","","null","<img src=""img/food2.png"" style=""width:200px; border:14px solid green;"">","null","","","","","","","","","",""
"","image-keyboard-response","223","155294","0.0-312.0","","","","","262.79999999701977","img/food2.png","75","264.29999999701977","2","1","","1","1","1,0.7,0,1,0.7,0,0.7,0,1","0,1,0.7,0,1,0.7,1,0.7,0","3",""
"","html-keyboard-response","224","155597","0.0-313.0","","","","","null","<img src=""img/food2.png"" style=""width:200px; border:14px solid green;"">","null","","","","","","","","","",""
"","image-keyboard-response","225","156068","0.0-314.0","","","","","468.79999999701977","img/food6.png","74","472.19999999552965","1","1","","3","1","1,0.7,0,1,0.7,0,0.7,0,1","0,1,0.7,0,1,0.7,1,0.7,0","3",""
"","html-keyboard-response","226","156374","0.0-315.0","","","","","null","<img src=""img/food6.png"" style=""width:200px; border:14px solid green;"">","null","","","","","","","","","",""
"","image-keyboard-response","227","156709","0.0-316.0","","","","","333.5","img/food6.png","74","335.20000000298023","1","1","","3","1","1,0.7,0,1,0.7,0,0.7,0,1","0,1,0.7,0,1,0.7,1,0.7,0","3",""
"","html-keyboard-response","228","157014","0.0-317.0","","","","","null","<img src=""img/food6.png"" style=""width:200px; border:14px solid green;"">","null","","","","","","","","","",""
"","image-keyboard-response","229","157490","0.0-318.0","","","","","474.79999999701977","img/food2.png","75","476.5","2","1","","1","1","1,0.7,0,1,0.7,0,0.7,0,1","0,1,0.7,0,1,0.7,1,0.7,0","3",""
"","html-keyboard-response","230","157798","0.0-319.0","","","","","null","<img src=""img/food2.png"" style=""width:200px; border:14px solid green;"">","null","","","","","","","","","",""
"","image-keyboard-response","231","158354","0.0-320.0","","","","","554.2999999970198","img/food3.png","75","555.6999999955297","2","1","","2","1","1,0.7,0,1,0.7,0,0.7,0,1","0,1,0.7,0,1,0.7,1,0.7,0","3",""
"","html-keyboard-response","232","158661","0.0-321.0","","","","","null","<img src=""img/food3.png"" style=""width:200px; border:14px solid green;"">","null","","","","","","","","","",""
"","image-keyboard-response","233","159317","0.0-322.0","","","","","652.7999999970198","img/food2.png","75","654.4000000059605","2","1","","1","1","1,0.7,0,1,0.7,0,0.7,0,1","0,1,0.7,0,1,0.7,1,0.7,0","3",""
"","html-keyboard-response","234","159621","0.0-323.0","","","","","null","<img src=""img/food2.png"" style=""width:200px; border:14px solid green;"">","null","","","","","","","","","",""
"","image-keyboard-response","235","159958","0.0-324.0","","","","","334.6000000014901","img/food3.png","75","336.29999999701977","2","1","","2","1","1,0.7,0,1,0.7,0,0.7,0,1","0,1,0.7,0,1,0.7,1,0.7,0","3",""
"","html-keyboard-response","236","160262","0.0-325.0","","","","","null","<img src=""img/food3.png"" style=""width:200px; border:14px solid green;"">","null","","","","","","","","","",""
"","image-keyboard-response","237","160631","0.0-326.0","","","","","367.40000000596046","img/food2.png","75","369","2","1","","1","1","1,0.7,0,1,0.7,0,0.7,0,1","0,1,0.7,0,1,0.7,1,0.7,0","3",""
"","html-keyboard-response","238","160933","0.0-327.0","","","","","null","<img src=""img/food2.png"" style=""width:200px; border:14px solid green;"">","null","","","","","","","","","",""
"","image-keyboard-response","239","161298","0.0-328.0","","","","","362.40000000596046","img/food6.png","75","364.29999999701977","2","1","","3","1","1,0.7,0,1,0.7,0,0.7,0,1","0,1,0.7,0,1,0.7,1,0.7,0","3",""
"","html-keyboard-response","240","161606","0.0-329.0","","","","","null","<img src=""img/food6.png"" style=""width:200px; border:14px solid green;"">","null","","","","","","","","","",""
"","image-keyboard-response","241","162619","0.0-330.0","","","","","1010.8999999985099","img/food3.png","75","1012.3999999985099","2","1","","2","1","1,0.7,0,1,0.7,0,0.7,0,1","0,1,0.7,0,1,0.7,1,0.7,0","3",""
"","html-keyboard-response","242","162926","0.0-331.0","","","","","null","<img src=""img/food3.png"" style=""width:200px; border:14px solid green;"">","null","","","","","","","","","",""
"","image-keyboard-response","243","163242","0.0-332.0","","","","","314.80000000447035","img/food3.png","75","316.3999999985099","2","1","","2","1","1,0.7,0,1,0.7,0,0.7,0,1","0,1,0.7,0,1,0.7,1,0.7,0","3",""
"","html-keyboard-response","244","163549","0.0-333.0","","","","","null","<img src=""img/food3.png"" style=""width:200px; border:14px solid green;"">","null","","","","","","","","","",""
"","image-keyboard-response","245","163909","0.0-334.0","","","","","357.70000000298023","img/food6.png","74","359.29999999701977","1","1","","3","1","1,0.7,0,1,0.7,0,0.7,0,1","0,1,0.7,0,1,0.7,1,0.7,0","3",""
"","html-keyboard-response","246","164214","0.0-335.0","","","","","null","<img src=""img/food6.png"" style=""width:200px; border:14px solid green;"">","null","","","","","","","","","",""
"","image-keyboard-response","247","164460","0.0-336.0","","","","","244.69999999552965","img/food6.png","74","246.60000000149012","1","1","","3","1","1,0.7,0,1,0.7,0,0.7,0,1","0,1,0.7,0,1,0.7,1,0.7,0","3",""
"","html-keyboard-response","248","164765","0.0-337.0","","","","","null","<img src=""img/food6.png"" style=""width:200px; border:14px solid green;"">","null","","","","","","","","","",""
"","image-keyboard-response","249","165220","0.0-338.0","","","","","453.19999999552965","img/food2.png","75","454.79999999701977","2","1","","1","1","1,0.7,0,1,0.7,0,0.7,0,1","0,1,0.7,0,1,0.7,1,0.7,0","3",""
"","html-keyboard-response","250","165526","0.0-339.0","","","","","null","<img src=""img/food2.png"" style=""width:200px; border:14px solid green;"">","null","","","","","","","","","",""
"","image-keyboard-response","251","165883","0.0-340.0","","","","","355.40000000596046","img/food6.png","75","357","2","0","","3","1","1,0.7,0,1,0.7,0,0.7,0,1","0,1,0.7,0,1,0.7,1,0.7,0","3",""
"","html-keyboard-response","252","166189","0.0-341.0","","","","","null","<img src=""img/food6.png"" style=""width:200px;border:14px solid red;"">","null","","","","","","","","","",""
"","image-keyboard-response","253","166609","0.0-342.0","","","","","418","img/food3.png","75","419.70000000298023","2","1","","2","1","1,0.7,0,1,0.7,0,0.7,0,1","0,1,0.7,0,1,0.7,1,0.7,0","3",""
"","html-keyboard-response","254","166917","0.0-343.0","","","","","null","<img src=""img/food3.png"" style=""width:200px; border:14px solid green;"">","null","","","","","","","","","",""
"","image-keyboard-response","255","167114","0.0-344.0","","","","","194.30000000447035","img/food2.png","75","196","2","1","","1","1","1,0.7,0,1,0.7,0,0.7,0,1","0,1,0.7,0,1,0.7,1,0.7,0","3",""
"","html-keyboard-response","256","167421","0.0-345.0","","","","","null","<img src=""img/food2.png"" style=""width:200px; border:14px solid green;"">","null","","","","","","","","","",""
"","image-keyboard-response","257","167801","0.0-346.0","","","","","377.79999999701977","img/food3.png","75","379.09999999403954","2","1","","2","1","1,0.7,0,1,0.7,0,0.7,0,1","0,1,0.7,0,1,0.7,1,0.7,0","3",""
"","html-keyboard-response","258","168109","0.0-347.0","","","","","null","<img src=""img/food3.png"" style=""width:200px; border:14px solid green;"">","null","","","","","","","","","",""
"","image-keyboard-response","259","168442","0.0-348.0","","","","","330.3999999985099","img/food2.png","75","332","2","1","","1","1","1,0.7,0,1,0.7,0,0.7,0,1","0,1,0.7,0,1,0.7,1,0.7,0","3",""
"","html-keyboard-response","260","168750","0.0-349.0","","","","","null","<img src=""img/food2.png"" style=""width:200px; border:14px solid green;"">","null","","","","","","","","","",""
"","image-keyboard-response","261","169134","0.0-350.0","","","","","382.20000000298023","img/food2.png","75","383.79999999701977","2","1","","1","1","1,0.7,0,1,0.7,0,0.7,0,1","0,1,0.7,0,1,0.7,1,0.7,0","3",""
"","html-keyboard-response","262","169437","0.0-351.0","","","","","null","<img src=""img/food2.png"" style=""width:200px; border:14px solid green;"">","null","","","","","","","","","",""
"","image-keyboard-response","263","169824","0.0-352.0","","","","","385.1000000014901","img/food3.png","75","386.3999999985099","2","1","","2","1","1,0.7,0,1,0.7,0,0.7,0,1","0,1,0.7,0,1,0.7,1,0.7,0","3",""
"","html-keyboard-response","264","170133","0.0-353.0","","","","","null","<img src=""img/food3.png"" style=""width:200px; border:14px solid green;"">","null","","","","","","","","","",""
"","image-keyboard-response","265","170432","0.0-354.0","","","","","296.79999999701977","img/food3.png","75","298.70000000298023","2","1","","2","1","1,0.7,0,1,0.7,0,0.7,0,1","0,1,0.7,0,1,0.7,1,0.7,0","3",""
"","html-keyboard-response","266","170741","0.0-355.0","","","","","null","<img src=""img/food3.png"" style=""width:200px; border:14px solid green;"">","null","","","","","","","","","",""
"","image-keyboard-response","267","171259","0.0-356.0","","","","","515.5","img/food6.png","75","517.0999999940395","2","1","","3","1","1,0.7,0,1,0.7,0,0.7,0,1","0,1,0.7,0,1,0.7,1,0.7,0","3",""
"","html-keyboard-response","268","171565","0.0-357.0","","","","","null","<img src=""img/food6.png"" style=""width:200px; border:14px solid green;"">","null","","","","","","","","","",""
"","image-keyboard-response","269","171912","0.0-358.0","","","","","344.8999999985099","img/food6.png","75","346.5","2","1","","3","1","1,0.7,0,1,0.7,0,0.7,0,1","0,1,0.7,0,1,0.7,1,0.7,0","3",""
"","html-keyboard-response","270","172221","0.0-359.0","","","","","null","<img src=""img/food6.png"" style=""width:200px; border:14px solid green;"">","null","","","","","","","","","",""
"","image-keyboard-response","271","172539","0.0-360.0","","","","","315.8999999985099","img/food6.png","75","317.6000000014901","2","1","","3","1","1,0.7,0,1,0.7,0,0.7,0,1","0,1,0.7,0,1,0.7,1,0.7,0","3",""
"","html-keyboard-response","272","172845","0.0-361.0","","","","","null","<img src=""img/food6.png"" style=""width:200px; border:14px solid green;"">","null","","","","","","","","","",""
"","image-keyboard-response","273","173276","0.0-362.0","","","","","429.3999999985099","img/food2.png","75","431","2","1","","1","1","1,0.7,0,1,0.7,0,0.7,0,1","0,1,0.7,0,1,0.7,1,0.7,0","3",""
"","html-keyboard-response","274","173582","0.0-363.0","","","","","null","<img src=""img/food2.png"" style=""width:200px; border:14px solid green;"">","null","","","","","","","","","",""
"","image-keyboard-response","275","173878","0.0-364.0","","","","","294.20000000298023","img/food2.png","75","295.69999999552965","2","1","","1","1","1,0.7,0,1,0.7,0,0.7,0,1","0,1,0.7,0,1,0.7,1,0.7,0","3",""
"","html-keyboard-response","276","174181","0.0-365.0","","","","","null","<img src=""img/food2.png"" style=""width:200px; border:14px solid green;"">","null","","","","","","","","","",""
"","image-keyboard-response","277","174515","0.0-366.0","","","","","332","img/food2.png","75","333.5","2","1","","1","1","1,0.7,0,1,0.7,0,0.7,0,1","0,1,0.7,0,1,0.7,1,0.7,0","3",""
"","html-keyboard-response","278","174822","0.0-367.0","","","","","null","<img src=""img/food2.png"" style=""width:200px; border:14px solid green;"">","null","","","","","","","","","",""
"","image-keyboard-response","279","175161","0.0-368.0","","","","","336.8999999985099","img/food6.png","75","338.5","2","1","","3","1","1,0.7,0,1,0.7,0,0.7,0,1","0,1,0.7,0,1,0.7,1,0.7,0","3",""
"","html-keyboard-response","280","175469","0.0-369.0","","","","","null","<img src=""img/food6.png"" style=""width:200px; border:14px solid green;"">","null","","","","","","","","","",""
"","image-keyboard-response","281","175767","0.0-370.0","","","","","295.3999999985099","img/food3.png","75","297.1000000014901","2","1","","2","1","1,0.7,0,1,0.7,0,0.7,0,1","0,1,0.7,0,1,0.7,1,0.7,0","3",""
"","html-keyboard-response","282","176071","0.0-371.0","","","","","null","<img src=""img/food3.png"" style=""width:200px; border:14px solid green;"">","null","","","","","","","","","",""
"","image-keyboard-response","283","176332","0.0-372.0","","","","","259.19999999552965","img/food3.png","75","260.8999999985099","2","1","","2","1","1,0.7,0,1,0.7,0,0.7,0,1","0,1,0.7,0,1,0.7,1,0.7,0","3",""
"","html-keyboard-response","284","176637","0.0-373.0","","","","","null","<img src=""img/food3.png"" style=""width:200px; border:14px solid green;"">","null","","","","","","","","","",""
"","image-keyboard-response","285","176915","0.0-374.0","","","","","276.3999999985099","img/food3.png","75","277.69999999552965","2","1","","2","1","1,0.7,0,1,0.7,0,0.7,0,1","0,1,0.7,0,1,0.7,1,0.7,0","3",""
"","html-keyboard-response","286","177222","0.0-375.0","","","","","null","<img src=""img/food3.png"" style=""width:200px; border:14px solid green;"">","null","","","","","","","","","",""
"","image-keyboard-response","287","177564","0.0-376.0","","","","","339.5","img/food3.png","75","342.20000000298023","2","1","","2","1","1,0.7,0,1,0.7,0,0.7,0,1","0,1,0.7,0,1,0.7,1,0.7,0","3",""
"","html-keyboard-response","288","177870","0.0-377.0","","","","","null","<img src=""img/food3.png"" style=""width:200px; border:14px solid green;"">","null","","","","","","","","","",""
"","image-keyboard-response","289","178214","0.0-378.0","","","","","342.69999999552965","img/food6.png","75","344.70000000298023","2","0","","3","1","1,0.7,0,1,0.7,0,0.7,0,1","0,1,0.7,0,1,0.7,1,0.7,0","3",""
"","html-keyboard-response","290","178517","0.0-379.0","","","","","null","<img src=""img/food6.png"" style=""width:200px;border:14px solid red;"">","null","","","","","","","","","",""
"","image-keyboard-response","291","178848","0.0-380.0","","","","","329.19999999552965","img/food6.png","75","330.5","2","1","","3","1","1,0.7,0,1,0.7,0,0.7,0,1","0,1,0.7,0,1,0.7,1,0.7,0","3",""
"","html-keyboard-response","292","179158","0.0-381.0","","","","","null","<img src=""img/food6.png"" style=""width:200px; border:14px solid green;"">","null","","","","","","","","","",""
"","image-keyboard-response","293","179493","0.0-382.0","","","","","333.59999999403954","img/food3.png","75","335.1000000014901","2","1","","2","1","1,0.7,0,1,0.7,0,0.7,0,1","0,1,0.7,0,1,0.7,1,0.7,0","3",""
"","html-keyboard-response","294","179797","0.0-383.0","","","","","null","<img src=""img/food3.png"" style=""width:200px; border:14px solid green;"">","null","","","","","","","","","",""
"","image-keyboard-response","295","180034","0.0-384.0","","","","","234.29999999701977","img/food2.png","75","235.90000000596046","2","1","","1","1","1,0.7,0,1,0.7,0,0.7,0,1","0,1,0.7,0,1,0.7,1,0.7,0","3",""
"","html-keyboard-response","296","180341","0.0-385.0","","","","","null","<img src=""img/food2.png"" style=""width:200px; border:14px solid green;"">","null","","","","","","","","","",""
"","image-keyboard-response","297","180600","0.0-386.0","","","","","257.30000000447035","img/food6.png","75","258.79999999701977","2","1","","3","1","1,0.7,0,1,0.7,0,0.7,0,1","0,1,0.7,0,1,0.7,1,0.7,0","3",""
"","html-keyboard-response","298","180909","0.0-387.0","","","","","null","<img src=""img/food6.png"" style=""width:200px; border:14px solid green;"">","null","","","","","","","","","",""
"","image-keyboard-response","299","181172","0.0-388.0","","","","","260.6000000014901","img/food6.png","75","262.20000000298023","2","1","","3","1","1,0.7,0,1,0.7,0,0.7,0,1","0,1,0.7,0,1,0.7,1,0.7,0","3",""
"","html-keyboard-response","300","181478","0.0-389.0","","","","","null","<img src=""img/food6.png"" style=""width:200px; border:14px solid green;"">","null","","","","","","","","","",""
"","image-keyboard-response","301","181724","0.0-390.0","","","","","243.80000000447035","img/food3.png","75","245.70000000298023","2","1","","2","1","1,0.7,0,1,0.7,0,0.7,0,1","0,1,0.7,0,1,0.7,1,0.7,0","3",""
"","html-keyboard-response","302","182030","0.0-391.0","","","","","null","<img src=""img/food3.png"" style=""width:200px; border:14px solid green;"">","null","","","","","","","","","",""
"","image-keyboard-response","303","182257","0.0-392.0","","","","","224.20000000298023","img/food3.png","75","226.70000000298023","2","1","","2","1","1,0.7,0,1,0.7,0,0.7,0,1","0,1,0.7,0,1,0.7,1,0.7,0","3",""
"","html-keyboard-response","304","182566","0.0-393.0","","","","","null","<img src=""img/food3.png"" style=""width:200px; border:14px solid green;"">","null","","","","","","","","","",""
"","image-keyboard-response","305","182832","0.0-394.0","","","","","263.1000000014901","img/food2.png","75","265.20000000298023","2","1","","1","1","1,0.7,0,1,0.7,0,0.7,0,1","0,1,0.7,0,1,0.7,1,0.7,0","3",""
"","html-keyboard-response","306","183142","0.0-395.0","","","","","null","<img src=""img/food2.png"" style=""width:200px; border:14px solid green;"">","null","","","","","","","","","",""
"","image-keyboard-response","307","183388","0.0-396.0","","","","","244","img/food3.png","75","245.60000000149012","2","1","","2","1","1,0.7,0,1,0.7,0,0.7,0,1","0,1,0.7,0,1,0.7,1,0.7,0","3",""
"","html-keyboard-response","308","183694","0.0-397.0","","","","","null","<img src=""img/food3.png"" style=""width:200px; border:14px solid green;"">","null","","","","","","","","","",""
"","image-keyboard-response","309","183960","0.0-398.0","","","","","264.3999999985099","img/food2.png","75","265.69999999552965","2","1","","1","1","1,0.7,0,1,0.7,0,0.7,0,1","0,1,0.7,0,1,0.7,1,0.7,0","3",""
"","html-keyboard-response","310","184269","0.0-399.0","","","","","null","<img src=""img/food2.png"" style=""width:200px; border:14px solid green;"">","null","","","","","","","","","",""
"","image-keyboard-response","311","184519","0.0-400.0","","","","","248","img/food2.png","75","249.60000000149012","2","1","","1","1","1,0.7,0,1,0.7,0,0.7,0,1","0,1,0.7,0,1,0.7,1,0.7,0","3",""
"","html-keyboard-response","312","184829","0.0-401.0","","","","","null","<img src=""img/food2.png"" style=""width:200px; border:14px solid green;"">","null","","","","","","","","","",""
"","image-keyboard-response","313","185085","0.0-402.0","","","","","254.79999999701977","img/food3.png","75","256.1000000014901","2","1","","2","1","1,0.7,0,1,0.7,0,0.7,0,1","0,1,0.7,0,1,0.7,1,0.7,0","3",""
"","html-keyboard-response","314","185390","0.0-403.0","","","","","null","<img src=""img/food3.png"" style=""width:200px; border:14px solid green;"">","null","","","","","","","","","",""
"","image-keyboard-response","315","185620","0.0-404.0","","","","","229.29999999701977","img/food6.png","75","230.5","2","0","","3","1","1,0.7,0,1,0.7,0,0.7,0,1","0,1,0.7,0,1,0.7,1,0.7,0","3",""
"","html-keyboard-response","316","185926","0.0-405.0","","","","","null","<img src=""img/food6.png"" style=""width:200px;border:14px solid red;"">","null","","","","","","","","","",""
"","image-keyboard-response","317","186311","0.0-406.0","","","","","383.3999999985099","img/food2.png","75","385.1000000014901","2","1","","1","1","1,0.7,0,1,0.7,0,0.7,0,1","0,1,0.7,0,1,0.7,1,0.7,0","3",""
"","html-keyboard-response","318","186614","0.0-407.0","","","","","null","<img src=""img/food2.png"" style=""width:200px; border:14px solid green;"">","null","","","","","","","","","",""
"","image-keyboard-response","319","186828","0.0-408.0","","","","","212.39999999850988","img/food3.png","75","214.19999999552965","2","1","","2","1","1,0.7,0,1,0.7,0,0.7,0,1","0,1,0.7,0,1,0.7,1,0.7,0","3",""
"","html-keyboard-response","320","187133","0.0-409.0","","","","","null","<img src=""img/food3.png"" style=""width:200px; border:14px solid green;"">","null","","","","","","","","","",""
"","image-keyboard-response","321","187357","0.0-410.0","","","","","222.5","img/food3.png","75","223.89999999850988","2","1","","2","1","1,0.7,0,1,0.7,0,0.7,0,1","0,1,0.7,0,1,0.7,1,0.7,0","3",""
"","html-keyboard-response","322","187662","0.0-411.0","","","","","null","<img src=""img/food3.png"" style=""width:200px; border:14px solid green;"">","null","","","","","","","","","",""
"","image-keyboard-response","323","187888","0.0-412.0","","","","","224.10000000149012","img/food2.png","75","225.70000000298023","2","1","","1","1","1,0.7,0,1,0.7,0,0.7,0,1","0,1,0.7,0,1,0.7,1,0.7,0","3",""
"","html-keyboard-response","324","188198","0.0-413.0","","","","","null","<img src=""img/food2.png"" style=""width:200px; border:14px solid green;"">","null","","","","","","","","","",""
"","image-keyboard-response","325","188434","0.0-414.0","","","","","233.5","img/food6.png","75","235.19999999552965","2","0","","3","1","1,0.7,0,1,0.7,0,0.7,0,1","0,1,0.7,0,1,0.7,1,0.7,0","3",""
"","html-keyboard-response","326","188742","0.0-415.0","","","","","null","<img src=""img/food6.png"" style=""width:200px;border:14px solid red;"">","null","","","","","","","","","",""
"","image-keyboard-response","327","189061","0.0-416.0","","","","","316.6000000014901","img/food6.png","75","318.19999999552965","2","1","","3","1","1,0.7,0,1,0.7,0,0.7,0,1","0,1,0.7,0,1,0.7,1,0.7,0","3",""
"","html-keyboard-response","328","189365","0.0-417.0","","","","","null","<img src=""img/food6.png"" style=""width:200px; border:14px solid green;"">","null","","","","","","","","","",""
"","image-keyboard-response","329","189778","0.0-418.0","","","","","411.5","img/food2.png","75","413.20000000298023","2","1","","1","1","1,0.7,0,1,0.7,0,0.7,0,1","0,1,0.7,0,1,0.7,1,0.7,0","3",""
"","html-keyboard-response","330","190086","0.0-419.0","","","","","null","<img src=""img/food2.png"" style=""width:200px; border:14px solid green;"">","null","","","","","","","","","",""
"","image-keyboard-response","331","190223","0.0-420.0","","","","","135.19999999552965","img/food6.png","75","136.79999999701977","2","1","","3","1","1,0.7,0,1,0.7,0,0.7,0,1","0,1,0.7,0,1,0.7,1,0.7,0","3",""
"","html-keyboard-response","332","190534","0.0-421.0","","","","","null","<img src=""img/food6.png"" style=""width:200px; border:14px solid green;"">","null","","","","","","","","","",""
"","image-keyboard-response","333","190732","0.0-422.0","","","","","196.29999999701977","img/food2.png","75","197.89999999850988","2","1","","1","1","1,0.7,0,1,0.7,0,0.7,0,1","0,1,0.7,0,1,0.7,1,0.7,0","3",""
"","html-keyboard-response","334","191037","0.0-423.0","","","","","null","<img src=""img/food2.png"" style=""width:200px; border:14px solid green;"">","null","","","","","","","","","",""
"","image-keyboard-response","335","191236","0.0-424.0","","","","","197.60000000149012","img/food6.png","75","198.79999999701977","2","1","","3","1","1,0.7,0,1,0.7,0,0.7,0,1","0,1,0.7,0,1,0.7,1,0.7,0","3",""
"","html-keyboard-response","336","191542","0.0-425.0","","","","","null","<img src=""img/food6.png"" style=""width:200px; border:14px solid green;"">","null","","","","","","","","","",""
"","image-keyboard-response","337","191738","0.0-426.0","","","","","194.60000000149012","img/food3.png","75","196","2","1","","2","1","1,0.7,0,1,0.7,0,0.7,0,1","0,1,0.7,0,1,0.7,1,0.7,0","3",""
"","html-keyboard-response","338","192045","0.0-427.0","","","","","null","<img src=""img/food3.png"" style=""width:200px; border:14px solid green;"">","null","","","","","","","","","",""
"","image-keyboard-response","339","192235","0.0-428.0","","","","","187.79999999701977","img/food3.png","75","189.30000000447035","2","1","","2","1","1,0.7,0,1,0.7,0,0.7,0,1","0,1,0.7,0,1,0.7,1,0.7,0","3",""
"","html-keyboard-response","340","192542","0.0-429.0","","","","","null","<img src=""img/food3.png"" style=""width:200px; border:14px solid green;"">","null","","","","","","","","","",""
"","image-keyboard-response","341","192878","0.0-430.0","","","","","334.5","img/food6.png","75","336.1000000014901","2","0","","3","1","1,0.7,0,1,0.7,0,0.7,0,1","0,1,0.7,0,1,0.7,1,0.7,0","3",""
"","html-keyboard-response","342","193181","0.0-431.0","","","","","null","<img src=""img/food6.png"" style=""width:200px;border:14px solid red;"">","null","","","","","","","","","",""
"","image-keyboard-response","343","193458","0.0-432.0","","","","","275.5","img/food2.png","75","276.70000000298023","2","1","","1","1","1,0.7,0,1,0.7,0,0.7,0,1","0,1,0.7,0,1,0.7,1,0.7,0","3",""
"","html-keyboard-response","344","193766","0.0-433.0","","","","","null","<img src=""img/food2.png"" style=""width:200px; border:14px solid green;"">","null","","","","","","","","","",""
"","image-keyboard-response","345","193928","0.0-434.0","","","","","160.79999999701977","img/food3.png","75","162.5","2","1","","2","1","1,0.7,0,1,0.7,0,0.7,0,1","0,1,0.7,0,1,0.7,1,0.7,0","3",""
"","html-keyboard-response","346","194237","0.0-435.0","","","","","null","<img src=""img/food3.png"" style=""width:200px; border:14px solid green;"">","null","","","","","","","","","",""
"","image-keyboard-response","347","194390","0.0-436.0","","","","","151.39999999850988","img/food6.png","75","153","2","1","","3","1","1,0.7,0,1,0.7,0,0.7,0,1","0,1,0.7,0,1,0.7,1,0.7,0","3",""
"","html-keyboard-response","348","194694","0.0-437.0","","","","","null","<img src=""img/food6.png"" style=""width:200px; border:14px solid green;"">","null","","","","","","","","","",""
"","image-keyboard-response","349","194892","0.0-438.0","","","","","196.5","img/food3.png","75","198.10000000149012","2","1","","2","1","1,0.7,0,1,0.7,0,0.7,0,1","0,1,0.7,0,1,0.7,1,0.7,0","3",""
"","html-keyboard-response","350","195197","0.0-439.0","","","","","null","<img src=""img/food3.png"" style=""width:200px; border:14px solid green;"">","null","","","","","","","","","",""
"","image-keyboard-response","351","195406","0.0-440.0","","","","","206.79999999701977","img/food6.png","75","208.39999999850988","2","1","","3","1","1,0.7,0,1,0.7,0,0.7,0,1","0,1,0.7,0,1,0.7,1,0.7,0","3",""
"","html-keyboard-response","352","195709","0.0-441.0","","","","","null","<img src=""img/food6.png"" style=""width:200px; border:14px solid green;"">","null","","","","","","","","","",""
"","image-keyboard-response","353","195915","0.0-442.0","","","","","203.60000000149012","img/food3.png","75","205.5","2","1","","2","1","1,0.7,0,1,0.7,0,0.7,0,1","0,1,0.7,0,1,0.7,1,0.7,0","3",""
"","html-keyboard-response","354","196222","0.0-443.0","","","","","null","<img src=""img/food3.png"" style=""width:200px; border:14px solid green;"">","null","","","","","","","","","",""
"","image-keyboard-response","355","196419","0.0-444.0","","","","","195.60000000149012","img/food6.png","75","197.29999999701977","2","1","","3","1","1,0.7,0,1,0.7,0,0.7,0,1","0,1,0.7,0,1,0.7,1,0.7,0","3",""
"","html-keyboard-response","356","196725","0.0-445.0","","","","","null","<img src=""img/food6.png"" style=""width:200px; border:14px solid green;"">","null","","","","","","","","","",""
"","image-keyboard-response","357","196939","0.0-446.0","","","","","212.5","img/food6.png","75","214","2","0","","3","1","1,0.7,0,1,0.7,0,0.7,0,1","0,1,0.7,0,1,0.7,1,0.7,0","3",""
"","html-keyboard-response","358","197245","0.0-447.0","","","","","null","<img src=""img/food6.png"" style=""width:200px;border:14px solid red;"">","null","","","","","","","","","",""
"","image-keyboard-response","359","197533","0.0-448.0","","","","","286.6000000014901","img/food2.png","75","287.8999999985099","2","1","","1","1","1,0.7,0,1,0.7,0,0.7,0,1","0,1,0.7,0,1,0.7,1,0.7,0","3",""
"","html-keyboard-response","360","197838","0.0-449.0","","","","","null","<img src=""img/food2.png"" style=""width:200px; border:14px solid green;"">","null","","","","","","","","","",""
"","image-keyboard-response","361","198000","0.0-450.0","","","","","160.5","img/food3.png","75","162.89999999850988","2","1","","2","1","1,0.7,0,1,0.7,0,0.7,0,1","0,1,0.7,0,1,0.7,1,0.7,0","3",""
"","html-keyboard-response","362","198311","0.0-451.0","","","","","null","<img src=""img/food3.png"" style=""width:200px; border:14px solid green;"">","null","","","","","","","","","",""
"","image-keyboard-response","363","198508","0.0-452.0","","","","","195.20000000298023","img/food2.png","75","197","2","1","","1","1","1,0.7,0,1,0.7,0,0.7,0,1","0,1,0.7,0,1,0.7,1,0.7,0","3",""
"","html-keyboard-response","364","198813","0.0-453.0","","","","","null","<img src=""img/food2.png"" style=""width:200px; border:14px solid green;"">","null","","","","","","","","","",""
"","html-keyboard-response","365","201320","0.0-454.0","","","","","","","","","","","","","","","","",""
"","instructions","366","203325","0.0-455.0","","","","[{""page_index"":0,""viewing_time"":2003.4000000059605}]","2003.7000000029802","","","","","","","","","","","",""
"","survey-text","367","209426","0.0-456.0","","","","","6095.5","","","","","","","","","","","","{""Q0"":""A12FTSX85NQ8N9""}"
