"success","trial_type","trial_index","time_elapsed","internal_node_id","assignmentID","mturkID","hitID","view_history","rt","stimulus","key_press","reactionTime","a","r","warning","s","cond","reward_cond","reward_cond_actual","reward_matrix_idx","responses"
"true","fullscreen","0","3709","0.0-0.0","3NL0RFNU0G9UQ56GL912KFUXY33K4B","A12J4IRF5Z06BT","3MXX6RQ9EVRTFC527Z18RDK8KW6P4R","","","","","","","","","","","","","",""
"","instructions","1","60576","0.0-1.0","3NL0RFNU0G9UQ56GL912KFUXY33K4B","A12J4IRF5Z06BT","3MXX6RQ9EVRTFC527Z18RDK8KW6P4R","[{""page_index"":0,""viewing_time"":4657.5},{""page_index"":1,""viewing_time"":4850.200000047684},{""page_index"":2,""viewing_time"":15710.799999952316},{""page_index"":3,""viewing_time"":6733.300000190735},{""page_index"":4,""viewing_time"":4625.799999952316},{""page_index"":5,""viewing_time"":14771.099999904633},{""page_index"":6,""viewing_time"":5517.600000143051}]","56866.60000014305","","","","","","","","","","","",""
"","instructions","2","144341","0.0-2.0","3NL0RFNU0G9UQ56GL912KFUXY33K4B","A12J4IRF5Z06BT","3MXX6RQ9EVRTFC527Z18RDK8KW6P4R","[{""page_index"":0,""viewing_time"":47376.59999990463},{""page_index"":1,""viewing_time"":36387}]","83763.79999995232","","","","","","","","","","","",""
"","image-keyboard-response","3","144874","0.0-3.0","3NL0RFNU0G9UQ56GL912KFUXY33K4B","A12J4IRF5Z06BT","3MXX6RQ9EVRTFC527Z18RDK8KW6P4R","","532.4000000953674","img/food2.png","74","533.1999998092651","1","0","false","1","2","1,0.5,0,1,0.5,0,0.5,0,1","0,1,0.5,0,1,0.5,1,0.5,0","3",""
"","html-keyboard-response","4","145175","0.0-4.0","3NL0RFNU0G9UQ56GL912KFUXY33K4B","A12J4IRF5Z06BT","3MXX6RQ9EVRTFC527Z18RDK8KW6P4R","","null","<img src=""img/food2.png"" style=""width:200px;border:14px solid red;"">","null","","","","","","","","","",""
"","image-keyboard-response","5","145641","0.0-6.0","3NL0RFNU0G9UQ56GL912KFUXY33K4B","A12J4IRF5Z06BT","3MXX6RQ9EVRTFC527Z18RDK8KW6P4R","","465","img/food6.png","75","465.5","2","0","false","3","2","1,0.5,0,1,0.5,0,0.5,0,1","0,1,0.5,0,1,0.5,1,0.5,0","3",""
"","html-keyboard-response","6","145943","0.0-7.0","3NL0RFNU0G9UQ56GL912KFUXY33K4B","A12J4IRF5Z06BT","3MXX6RQ9EVRTFC527Z18RDK8KW6P4R","","null","<img src=""img/food6.png"" style=""width:200px;border:14px solid red;"">","null","","","","","","","","","",""
"","image-keyboard-response","7","146481","0.0-9.0","3NL0RFNU0G9UQ56GL912KFUXY33K4B","A12J4IRF5Z06BT","3MXX6RQ9EVRTFC527Z18RDK8KW6P4R","","537.5999999046326","img/food5.png","76","538.0999999046326","3","1","false","2","2","1,0.5,0,1,0.5,0,0.5,0,1","0,1,0.5,0,1,0.5,1,0.5,0","3",""
"","html-keyboard-response","8","146782","0.0-10.0","3NL0RFNU0G9UQ56GL912KFUXY33K4B","A12J4IRF5Z06BT","3MXX6RQ9EVRTFC527Z18RDK8KW6P4R","","null","<img src=""img/food5.png"" style=""width:200px; border:14px solid green;"">","null","","","","","","","","","",""
"","image-keyboard-response","9","147161","0.0-12.0","3NL0RFNU0G9UQ56GL912KFUXY33K4B","A12J4IRF5Z06BT","3MXX6RQ9EVRTFC527Z18RDK8KW6P4R","","378","img/food2.png","76","378.60000014305115","3","1","false","1","2","1,0.5,0,1,0.5,0,0.5,0,1","0,1,0.5,0,1,0.5,1,0.5,0","3",""
"","html-keyboard-response","10","147463","0.0-13.0","3NL0RFNU0G9UQ56GL912KFUXY33K4B","A12J4IRF5Z06BT","3MXX6RQ9EVRTFC527Z18RDK8KW6P4R","","null","<img src=""img/food2.png"" style=""width:200px; border:14px solid green;"">","null","","","","","","","","","",""
"","image-keyboard-response","11","147913","0.0-15.0","3NL0RFNU0G9UQ56GL912KFUXY33K4B","A12J4IRF5Z06BT","3MXX6RQ9EVRTFC527Z18RDK8KW6P4R","","449.59999990463257","img/food6.png","76","450.10000014305115","3","0","false","3","2","1,0.5,0,1,0.5,0,0.5,0,1","0,1,0.5,0,1,0.5,1,0.5,0","3",""
"","html-keyboard-response","12","148214","0.0-16.0","3NL0RFNU0G9UQ56GL912KFUXY33K4B","A12J4IRF5Z06BT","3MXX6RQ9EVRTFC527Z18RDK8KW6P4R","","null","<img src=""img/food6.png"" style=""width:200px;border:14px solid red;"">","null","","","","","","","","","",""
"","image-keyboard-response","13","148713","0.0-18.0","3NL0RFNU0G9UQ56GL912KFUXY33K4B","A12J4IRF5Z06BT","3MXX6RQ9EVRTFC527Z18RDK8KW6P4R","","498.2000000476837","img/food5.png","76","498.7000000476837","3","0","false","2","2","1,0.5,0,1,0.5,0,0.5,0,1","0,1,0.5,0,1,0.5,1,0.5,0","3",""
"","html-keyboard-response","14","149014","0.0-19.0","3NL0RFNU0G9UQ56GL912KFUXY33K4B","A12J4IRF5Z06BT","3MXX6RQ9EVRTFC527Z18RDK8KW6P4R","","null","<img src=""img/food5.png"" style=""width:200px;border:14px solid red;"">","null","","","","","","","","","",""
"","image-keyboard-response","15","149609","0.0-21.0","3NL0RFNU0G9UQ56GL912KFUXY33K4B","A12J4IRF5Z06BT","3MXX6RQ9EVRTFC527Z18RDK8KW6P4R","","594.5","img/food6.png","76","595","3","0","false","3","2","1,0.5,0,1,0.5,0,0.5,0,1","0,1,0.5,0,1,0.5,1,0.5,0","3",""
"","html-keyboard-response","16","149911","0.0-22.0","3NL0RFNU0G9UQ56GL912KFUXY33K4B","A12J4IRF5Z06BT","3MXX6RQ9EVRTFC527Z18RDK8KW6P4R","","null","<img src=""img/food6.png"" style=""width:200px;border:14px solid red;"">","null","","","","","","","","","",""
"","image-keyboard-response","17","150481","0.0-24.0","3NL0RFNU0G9UQ56GL912KFUXY33K4B","A12J4IRF5Z06BT","3MXX6RQ9EVRTFC527Z18RDK8KW6P4R","","569.7000000476837","img/food5.png","74","570.0999999046326","1","0","false","2","2","1,0.5,0,1,0.5,0,0.5,0,1","0,1,0.5,0,1,0.5,1,0.5,0","3",""
"","html-keyboard-response","18","150783","0.0-25.0","3NL0RFNU0G9UQ56GL912KFUXY33K4B","A12J4IRF5Z06BT","3MXX6RQ9EVRTFC527Z18RDK8KW6P4R","","null","<img src=""img/food5.png"" style=""width:200px;border:14px solid red;"">","null","","","","","","","","","",""
"","image-keyboard-response","19","151649","0.0-27.0","3NL0RFNU0G9UQ56GL912KFUXY33K4B","A12J4IRF5Z06BT","3MXX6RQ9EVRTFC527Z18RDK8KW6P4R","","865.2000000476837","img/food6.png","75","865.7000000476837","2","1","false","3","2","1,0.5,0,1,0.5,0,0.5,0,1","0,1,0.5,0,1,0.5,1,0.5,0","3",""
"","html-keyboard-response","20","151951","0.0-28.0","3NL0RFNU0G9UQ56GL912KFUXY33K4B","A12J4IRF5Z06BT","3MXX6RQ9EVRTFC527Z18RDK8KW6P4R","","null","<img src=""img/food6.png"" style=""width:200px; border:14px solid green;"">","null","","","","","","","","","",""
"","image-keyboard-response","21","152409","0.0-30.0","3NL0RFNU0G9UQ56GL912KFUXY33K4B","A12J4IRF5Z06BT","3MXX6RQ9EVRTFC527Z18RDK8KW6P4R","","457.90000009536743","img/food6.png","75","458.2999999523163","2","1","false","3","2","1,0.5,0,1,0.5,0,0.5,0,1","0,1,0.5,0,1,0.5,1,0.5,0","3",""
"","html-keyboard-response","22","152711","0.0-31.0","3NL0RFNU0G9UQ56GL912KFUXY33K4B","A12J4IRF5Z06BT","3MXX6RQ9EVRTFC527Z18RDK8KW6P4R","","null","<img src=""img/food6.png"" style=""width:200px; border:14px solid green;"">","null","","","","","","","","","",""
"","image-keyboard-response","23","153393","0.0-33.0","3NL0RFNU0G9UQ56GL912KFUXY33K4B","A12J4IRF5Z06BT","3MXX6RQ9EVRTFC527Z18RDK8KW6P4R","","681.3999998569489","img/food2.png","76","681.8999998569489","3","0","false","1","2","1,0.5,0,1,0.5,0,0.5,0,1","0,1,0.5,0,1,0.5,1,0.5,0","3",""
"","html-keyboard-response","24","153695","0.0-34.0","3NL0RFNU0G9UQ56GL912KFUXY33K4B","A12J4IRF5Z06BT","3MXX6RQ9EVRTFC527Z18RDK8KW6P4R","","null","<img src=""img/food2.png"" style=""width:200px;border:14px solid red;"">","null","","","","","","","","","",""
"","image-keyboard-response","25","154097","0.0-36.0","3NL0RFNU0G9UQ56GL912KFUXY33K4B","A12J4IRF5Z06BT","3MXX6RQ9EVRTFC527Z18RDK8KW6P4R","","401.5","img/food2.png","76","402","3","1","false","1","2","1,0.5,0,1,0.5,0,0.5,0,1","0,1,0.5,0,1,0.5,1,0.5,0","3",""
"","html-keyboard-response","26","154398","0.0-37.0","3NL0RFNU0G9UQ56GL912KFUXY33K4B","A12J4IRF5Z06BT","3MXX6RQ9EVRTFC527Z18RDK8KW6P4R","","null","<img src=""img/food2.png"" style=""width:200px; border:14px solid green;"">","null","","","","","","","","","",""
"","image-keyboard-response","27","155161","0.0-39.0","3NL0RFNU0G9UQ56GL912KFUXY33K4B","A12J4IRF5Z06BT","3MXX6RQ9EVRTFC527Z18RDK8KW6P4R","","762.6000001430511","img/food5.png","74","763.0999999046326","1","0","false","2","2","1,0.5,0,1,0.5,0,0.5,0,1","0,1,0.5,0,1,0.5,1,0.5,0","3",""
"","html-keyboard-response","28","155463","0.0-40.0","3NL0RFNU0G9UQ56GL912KFUXY33K4B","A12J4IRF5Z06BT","3MXX6RQ9EVRTFC527Z18RDK8KW6P4R","","null","<img src=""img/food5.png"" style=""width:200px;border:14px solid red;"">","null","","","","","","","","","",""
"","image-keyboard-response","29","156025","0.0-42.0","3NL0RFNU0G9UQ56GL912KFUXY33K4B","A12J4IRF5Z06BT","3MXX6RQ9EVRTFC527Z18RDK8KW6P4R","","561.5999999046326","img/food2.png","76","562.0999999046326","3","0","false","1","2","1,0.5,0,1,0.5,0,0.5,0,1","0,1,0.5,0,1,0.5,1,0.5,0","3",""
"","html-keyboard-response","30","156327","0.0-43.0","3NL0RFNU0G9UQ56GL912KFUXY33K4B","A12J4IRF5Z06BT","3MXX6RQ9EVRTFC527Z18RDK8KW6P4R","","null","<img src=""img/food2.png"" style=""width:200px;border:14px solid red;"">","null","","","","","","","","","",""
"","image-keyboard-response","31","156905","0.0-45.0","3NL0RFNU0G9UQ56GL912KFUXY33K4B","A12J4IRF5Z06BT","3MXX6RQ9EVRTFC527Z18RDK8KW6P4R","","577.6999998092651","img/food6.png","75","578.4000000953674","2","1","false","3","2","1,0.5,0,1,0.5,0,0.5,0,1","0,1,0.5,0,1,0.5,1,0.5,0","3",""
"","html-keyboard-response","32","157206","0.0-46.0","3NL0RFNU0G9UQ56GL912KFUXY33K4B","A12J4IRF5Z06BT","3MXX6RQ9EVRTFC527Z18RDK8KW6P4R","","null","<img src=""img/food6.png"" style=""width:200px; border:14px solid green;"">","null","","","","","","","","","",""
"","image-keyboard-response","33","157761","0.0-48.0","3NL0RFNU0G9UQ56GL912KFUXY33K4B","A12J4IRF5Z06BT","3MXX6RQ9EVRTFC527Z18RDK8KW6P4R","","554.3999998569489","img/food5.png","76","554.8999998569489","3","0","false","2","2","1,0.5,0,1,0.5,0,0.5,0,1","0,1,0.5,0,1,0.5,1,0.5,0","3",""
"","html-keyboard-response","34","158063","0.0-49.0","3NL0RFNU0G9UQ56GL912KFUXY33K4B","A12J4IRF5Z06BT","3MXX6RQ9EVRTFC527Z18RDK8KW6P4R","","null","<img src=""img/food5.png"" style=""width:200px;border:14px solid red;"">","null","","","","","","","","","",""
"","image-keyboard-response","35","158457","0.0-51.0","3NL0RFNU0G9UQ56GL912KFUXY33K4B","A12J4IRF5Z06BT","3MXX6RQ9EVRTFC527Z18RDK8KW6P4R","","393.39999985694885","img/food6.png","76","393.7999999523163","3","0","false","3","2","1,0.5,0,1,0.5,0,0.5,0,1","0,1,0.5,0,1,0.5,1,0.5,0","3",""
"","html-keyboard-response","36","158758","0.0-52.0","3NL0RFNU0G9UQ56GL912KFUXY33K4B","A12J4IRF5Z06BT","3MXX6RQ9EVRTFC527Z18RDK8KW6P4R","","null","<img src=""img/food6.png"" style=""width:200px;border:14px solid red;"">","null","","","","","","","","","",""
"","image-keyboard-response","37","159129","0.0-54.0","3NL0RFNU0G9UQ56GL912KFUXY33K4B","A12J4IRF5Z06BT","3MXX6RQ9EVRTFC527Z18RDK8KW6P4R","","370.09999990463257","img/food6.png","75","370.7000000476837","2","0","false","3","2","1,0.5,0,1,0.5,0,0.5,0,1","0,1,0.5,0,1,0.5,1,0.5,0","3",""
"","html-keyboard-response","38","159431","0.0-55.0","3NL0RFNU0G9UQ56GL912KFUXY33K4B","A12J4IRF5Z06BT","3MXX6RQ9EVRTFC527Z18RDK8KW6P4R","","null","<img src=""img/food6.png"" style=""width:200px;border:14px solid red;"">","null","","","","","","","","","",""
"","image-keyboard-response","39","160105","0.0-57.0","3NL0RFNU0G9UQ56GL912KFUXY33K4B","A12J4IRF5Z06BT","3MXX6RQ9EVRTFC527Z18RDK8KW6P4R","","673.8999998569489","img/food2.png","74","674.3999998569489","1","0","false","1","2","1,0.5,0,1,0.5,0,0.5,0,1","0,1,0.5,0,1,0.5,1,0.5,0","3",""
"","html-keyboard-response","40","160407","0.0-58.0","3NL0RFNU0G9UQ56GL912KFUXY33K4B","A12J4IRF5Z06BT","3MXX6RQ9EVRTFC527Z18RDK8KW6P4R","","null","<img src=""img/food2.png"" style=""width:200px;border:14px solid red;"">","null","","","","","","","","","",""
"","image-keyboard-response","41","160793","0.0-60.0","3NL0RFNU0G9UQ56GL912KFUXY33K4B","A12J4IRF5Z06BT","3MXX6RQ9EVRTFC527Z18RDK8KW6P4R","","385.7999999523163","img/food2.png","74","386.2999999523163","1","0","false","1","2","1,0.5,0,1,0.5,0,0.5,0,1","0,1,0.5,0,1,0.5,1,0.5,0","3",""
"","html-keyboard-response","42","161095","0.0-61.0","3NL0RFNU0G9UQ56GL912KFUXY33K4B","A12J4IRF5Z06BT","3MXX6RQ9EVRTFC527Z18RDK8KW6P4R","","null","<img src=""img/food2.png"" style=""width:200px;border:14px solid red;"">","null","","","","","","","","","",""
"","image-keyboard-response","43","162096","0.0-63.0","3NL0RFNU0G9UQ56GL912KFUXY33K4B","A12J4IRF5Z06BT","3MXX6RQ9EVRTFC527Z18RDK8KW6P4R","","","img/food5.png","","1000.7999999523163","-1","0","true","2","2","1,0.5,0,1,0.5,0,0.5,0,1","0,1,0.5,0,1,0.5,1,0.5,0","3",""
"","html-keyboard-response","44","162397","0.0-64.0","3NL0RFNU0G9UQ56GL912KFUXY33K4B","A12J4IRF5Z06BT","3MXX6RQ9EVRTFC527Z18RDK8KW6P4R","","null","<img src=""img/food5.png"" style=""width:200px;border:14px solid red;"">","null","","","","","","","","","",""
"","html-keyboard-response","45","168563","0.0-65.0-0.0","3NL0RFNU0G9UQ56GL912KFUXY33K4B","A12J4IRF5Z06BT","3MXX6RQ9EVRTFC527Z18RDK8KW6P4R","","","","","","","","","","","","","",""
"","image-keyboard-response","46","168857","0.0-66.0","3NL0RFNU0G9UQ56GL912KFUXY33K4B","A12J4IRF5Z06BT","3MXX6RQ9EVRTFC527Z18RDK8KW6P4R","","293.2999999523163","img/food2.png","75","293.80000019073486","2","1","false","1","2","1,0.5,0,1,0.5,0,0.5,0,1","0,1,0.5,0,1,0.5,1,0.5,0","3",""
"","html-keyboard-response","47","169158","0.0-67.0","3NL0RFNU0G9UQ56GL912KFUXY33K4B","A12J4IRF5Z06BT","3MXX6RQ9EVRTFC527Z18RDK8KW6P4R","","null","<img src=""img/food2.png"" style=""width:200px; border:14px solid green;"">","null","","","","","","","","","",""
"","image-keyboard-response","48","169393","0.0-69.0","3NL0RFNU0G9UQ56GL912KFUXY33K4B","A12J4IRF5Z06BT","3MXX6RQ9EVRTFC527Z18RDK8KW6P4R","","234.29999995231628","img/food6.png","75","234.70000004768372","2","1","false","3","2","1,0.5,0,1,0.5,0,0.5,0,1","0,1,0.5,0,1,0.5,1,0.5,0","3",""
"","html-keyboard-response","49","169694","0.0-70.0","3NL0RFNU0G9UQ56GL912KFUXY33K4B","A12J4IRF5Z06BT","3MXX6RQ9EVRTFC527Z18RDK8KW6P4R","","null","<img src=""img/food6.png"" style=""width:200px; border:14px solid green;"">","null","","","","","","","","","",""
"","image-keyboard-response","50","169961","0.0-72.0","3NL0RFNU0G9UQ56GL912KFUXY33K4B","A12J4IRF5Z06BT","3MXX6RQ9EVRTFC527Z18RDK8KW6P4R","","266.09999990463257","img/food2.png","75","266.59999990463257","2","1","false","1","2","1,0.5,0,1,0.5,0,0.5,0,1","0,1,0.5,0,1,0.5,1,0.5,0","3",""
"","html-keyboard-response","51","170263","0.0-73.0","3NL0RFNU0G9UQ56GL912KFUXY33K4B","A12J4IRF5Z06BT","3MXX6RQ9EVRTFC527Z18RDK8KW6P4R","","null","<img src=""img/food2.png"" style=""width:200px; border:14px solid green;"">","null","","","","","","","","","",""
"","image-keyboard-response","52","170505","0.0-75.0","3NL0RFNU0G9UQ56GL912KFUXY33K4B","A12J4IRF5Z06BT","3MXX6RQ9EVRTFC527Z18RDK8KW6P4R","","241.79999995231628","img/food6.png","75","242.29999995231628","2","1","false","3","2","1,0.5,0,1,0.5,0,0.5,0,1","0,1,0.5,0,1,0.5,1,0.5,0","3",""
"","html-keyboard-response","53","170806","0.0-76.0","3NL0RFNU0G9UQ56GL912KFUXY33K4B","A12J4IRF5Z06BT","3MXX6RQ9EVRTFC527Z18RDK8KW6P4R","","null","<img src=""img/food6.png"" style=""width:200px; border:14px solid green;"">","null","","","","","","","","","",""
"","image-keyboard-response","54","171041","0.0-78.0","3NL0RFNU0G9UQ56GL912KFUXY33K4B","A12J4IRF5Z06BT","3MXX6RQ9EVRTFC527Z18RDK8KW6P4R","","234.09999990463257","img/food6.png","75","234.59999990463257","2","0","false","3","2","1,0.5,0,1,0.5,0,0.5,0,1","0,1,0.5,0,1,0.5,1,0.5,0","3",""
"","html-keyboard-response","55","171343","0.0-79.0","3NL0RFNU0G9UQ56GL912KFUXY33K4B","A12J4IRF5Z06BT","3MXX6RQ9EVRTFC527Z18RDK8KW6P4R","","null","<img src=""img/food6.png"" style=""width:200px;border:14px solid red;"">","null","","","","","","","","","",""
"","image-keyboard-response","56","171561","0.0-81.0","3NL0RFNU0G9UQ56GL912KFUXY33K4B","A12J4IRF5Z06BT","3MXX6RQ9EVRTFC527Z18RDK8KW6P4R","","218.09999990463257","img/food6.png","75","218.5","2","1","false","3","2","1,0.5,0,1,0.5,0,0.5,0,1","0,1,0.5,0,1,0.5,1,0.5,0","3",""
"","html-keyboard-response","57","171863","0.0-82.0","3NL0RFNU0G9UQ56GL912KFUXY33K4B","A12J4IRF5Z06BT","3MXX6RQ9EVRTFC527Z18RDK8KW6P4R","","null","<img src=""img/food6.png"" style=""width:200px; border:14px solid green;"">","null","","","","","","","","","",""
"","image-keyboard-response","58","172097","0.0-84.0","3NL0RFNU0G9UQ56GL912KFUXY33K4B","A12J4IRF5Z06BT","3MXX6RQ9EVRTFC527Z18RDK8KW6P4R","","233.70000004768372","img/food5.png","75","234.20000004768372","2","1","false","2","2","1,0.5,0,1,0.5,0,0.5,0,1","0,1,0.5,0,1,0.5,1,0.5,0","3",""
"","html-keyboard-response","59","172399","0.0-85.0","3NL0RFNU0G9UQ56GL912KFUXY33K4B","A12J4IRF5Z06BT","3MXX6RQ9EVRTFC527Z18RDK8KW6P4R","","null","<img src=""img/food5.png"" style=""width:200px; border:14px solid green;"">","null","","","","","","","","","",""
"","image-keyboard-response","60","172625","0.0-87.0","3NL0RFNU0G9UQ56GL912KFUXY33K4B","A12J4IRF5Z06BT","3MXX6RQ9EVRTFC527Z18RDK8KW6P4R","","226","img/food5.png","75","226.40000009536743","2","1","false","2","2","1,0.5,0,1,0.5,0,0.5,0,1","0,1,0.5,0,1,0.5,1,0.5,0","3",""
"","html-keyboard-response","61","172927","0.0-88.0","3NL0RFNU0G9UQ56GL912KFUXY33K4B","A12J4IRF5Z06BT","3MXX6RQ9EVRTFC527Z18RDK8KW6P4R","","null","<img src=""img/food5.png"" style=""width:200px; border:14px solid green;"">","null","","","","","","","","","",""
"","image-keyboard-response","62","173153","0.0-90.0","3NL0RFNU0G9UQ56GL912KFUXY33K4B","A12J4IRF5Z06BT","3MXX6RQ9EVRTFC527Z18RDK8KW6P4R","","225.90000009536743","img/food2.png","75","226.5","2","1","false","1","2","1,0.5,0,1,0.5,0,0.5,0,1","0,1,0.5,0,1,0.5,1,0.5,0","3",""
"","html-keyboard-response","63","173455","0.0-91.0","3NL0RFNU0G9UQ56GL912KFUXY33K4B","A12J4IRF5Z06BT","3MXX6RQ9EVRTFC527Z18RDK8KW6P4R","","null","<img src=""img/food2.png"" style=""width:200px; border:14px solid green;"">","null","","","","","","","","","",""
"","image-keyboard-response","64","173689","0.0-93.0","3NL0RFNU0G9UQ56GL912KFUXY33K4B","A12J4IRF5Z06BT","3MXX6RQ9EVRTFC527Z18RDK8KW6P4R","","234.09999990463257","img/food6.png","75","234.70000004768372","2","0","false","3","2","1,0.5,0,1,0.5,0,0.5,0,1","0,1,0.5,0,1,0.5,1,0.5,0","3",""
"","html-keyboard-response","65","173990","0.0-94.0","3NL0RFNU0G9UQ56GL912KFUXY33K4B","A12J4IRF5Z06BT","3MXX6RQ9EVRTFC527Z18RDK8KW6P4R","","null","<img src=""img/food6.png"" style=""width:200px;border:14px solid red;"">","null","","","","","","","","","",""
"","image-keyboard-response","66","174217","0.0-96.0","3NL0RFNU0G9UQ56GL912KFUXY33K4B","A12J4IRF5Z06BT","3MXX6RQ9EVRTFC527Z18RDK8KW6P4R","","226.29999995231628","img/food5.png","75","226.60000014305115","2","1","false","2","2","1,0.5,0,1,0.5,0,0.5,0,1","0,1,0.5,0,1,0.5,1,0.5,0","3",""
"","html-keyboard-response","67","174519","0.0-97.0","3NL0RFNU0G9UQ56GL912KFUXY33K4B","A12J4IRF5Z06BT","3MXX6RQ9EVRTFC527Z18RDK8KW6P4R","","null","<img src=""img/food5.png"" style=""width:200px; border:14px solid green;"">","null","","","","","","","","","",""
"","image-keyboard-response","68","174745","0.0-99.0","3NL0RFNU0G9UQ56GL912KFUXY33K4B","A12J4IRF5Z06BT","3MXX6RQ9EVRTFC527Z18RDK8KW6P4R","","225.90000009536743","img/food2.png","75","226.5","2","1","false","1","2","1,0.5,0,1,0.5,0,0.5,0,1","0,1,0.5,0,1,0.5,1,0.5,0","3",""
"","html-keyboard-response","69","175047","0.0-100.0","3NL0RFNU0G9UQ56GL912KFUXY33K4B","A12J4IRF5Z06BT","3MXX6RQ9EVRTFC527Z18RDK8KW6P4R","","null","<img src=""img/food2.png"" style=""width:200px; border:14px solid green;"">","null","","","","","","","","","",""
"","image-keyboard-response","70","175257","0.0-102.0","3NL0RFNU0G9UQ56GL912KFUXY33K4B","A12J4IRF5Z06BT","3MXX6RQ9EVRTFC527Z18RDK8KW6P4R","","209.19999980926514","img/food5.png","75","209.79999995231628","2","1","false","2","2","1,0.5,0,1,0.5,0,0.5,0,1","0,1,0.5,0,1,0.5,1,0.5,0","3",""
"","html-keyboard-response","71","175559","0.0-103.0","3NL0RFNU0G9UQ56GL912KFUXY33K4B","A12J4IRF5Z06BT","3MXX6RQ9EVRTFC527Z18RDK8KW6P4R","","null","<img src=""img/food5.png"" style=""width:200px; border:14px solid green;"">","null","","","","","","","","","",""
"","image-keyboard-response","72","175793","0.0-105.0","3NL0RFNU0G9UQ56GL912KFUXY33K4B","A12J4IRF5Z06BT","3MXX6RQ9EVRTFC527Z18RDK8KW6P4R","","233.19999980926514","img/food5.png","75","233.60000014305115","2","1","false","2","2","1,0.5,0,1,0.5,0,0.5,0,1","0,1,0.5,0,1,0.5,1,0.5,0","3",""
"","html-keyboard-response","73","176094","0.0-106.0","3NL0RFNU0G9UQ56GL912KFUXY33K4B","A12J4IRF5Z06BT","3MXX6RQ9EVRTFC527Z18RDK8KW6P4R","","null","<img src=""img/food5.png"" style=""width:200px; border:14px solid green;"">","null","","","","","","","","","",""
"","image-keyboard-response","74","176289","0.0-108.0","3NL0RFNU0G9UQ56GL912KFUXY33K4B","A12J4IRF5Z06BT","3MXX6RQ9EVRTFC527Z18RDK8KW6P4R","","194.09999990463257","img/food2.png","75","194.70000004768372","2","1","false","1","2","1,0.5,0,1,0.5,0,0.5,0,1","0,1,0.5,0,1,0.5,1,0.5,0","3",""
"","html-keyboard-response","75","176591","0.0-109.0","3NL0RFNU0G9UQ56GL912KFUXY33K4B","A12J4IRF5Z06BT","3MXX6RQ9EVRTFC527Z18RDK8KW6P4R","","null","<img src=""img/food2.png"" style=""width:200px; border:14px solid green;"">","null","","","","","","","","","",""
"","image-keyboard-response","76","176793","0.0-111.0","3NL0RFNU0G9UQ56GL912KFUXY33K4B","A12J4IRF5Z06BT","3MXX6RQ9EVRTFC527Z18RDK8KW6P4R","","201.39999985694885","img/food2.png","75","202","2","1","false","1","2","1,0.5,0,1,0.5,0,0.5,0,1","0,1,0.5,0,1,0.5,1,0.5,0","3",""
"","html-keyboard-response","77","177094","0.0-112.0","3NL0RFNU0G9UQ56GL912KFUXY33K4B","A12J4IRF5Z06BT","3MXX6RQ9EVRTFC527Z18RDK8KW6P4R","","null","<img src=""img/food2.png"" style=""width:200px; border:14px solid green;"">","null","","","","","","","","","",""
"","image-keyboard-response","78","177265","0.0-114.0","3NL0RFNU0G9UQ56GL912KFUXY33K4B","A12J4IRF5Z06BT","3MXX6RQ9EVRTFC527Z18RDK8KW6P4R","","170.20000004768372","img/food5.png","75","170.70000004768372","2","1","false","2","2","1,0.5,0,1,0.5,0,0.5,0,1","0,1,0.5,0,1,0.5,1,0.5,0","3",""
"","html-keyboard-response","79","177566","0.0-115.0","3NL0RFNU0G9UQ56GL912KFUXY33K4B","A12J4IRF5Z06BT","3MXX6RQ9EVRTFC527Z18RDK8KW6P4R","","null","<img src=""img/food5.png"" style=""width:200px; border:14px solid green;"">","null","","","","","","","","","",""
"","image-keyboard-response","80","177745","0.0-117.0","3NL0RFNU0G9UQ56GL912KFUXY33K4B","A12J4IRF5Z06BT","3MXX6RQ9EVRTFC527Z18RDK8KW6P4R","","178.19999980926514","img/food6.png","75","178.70000004768372","2","1","false","3","2","1,0.5,0,1,0.5,0,0.5,0,1","0,1,0.5,0,1,0.5,1,0.5,0","3",""
"","html-keyboard-response","81","178047","0.0-118.0","3NL0RFNU0G9UQ56GL912KFUXY33K4B","A12J4IRF5Z06BT","3MXX6RQ9EVRTFC527Z18RDK8KW6P4R","","null","<img src=""img/food6.png"" style=""width:200px; border:14px solid green;"">","null","","","","","","","","","",""
"","image-keyboard-response","82","178233","0.0-120.0","3NL0RFNU0G9UQ56GL912KFUXY33K4B","A12J4IRF5Z06BT","3MXX6RQ9EVRTFC527Z18RDK8KW6P4R","","185.39999985694885","img/food2.png","75","185.79999995231628","2","1","false","1","2","1,0.5,0,1,0.5,0,0.5,0,1","0,1,0.5,0,1,0.5,1,0.5,0","3",""
"","html-keyboard-response","83","178534","0.0-121.0","3NL0RFNU0G9UQ56GL912KFUXY33K4B","A12J4IRF5Z06BT","3MXX6RQ9EVRTFC527Z18RDK8KW6P4R","","null","<img src=""img/food2.png"" style=""width:200px; border:14px solid green;"">","null","","","","","","","","","",""
"","image-keyboard-response","84","178705","0.0-123.0","3NL0RFNU0G9UQ56GL912KFUXY33K4B","A12J4IRF5Z06BT","3MXX6RQ9EVRTFC527Z18RDK8KW6P4R","","170.70000004768372","img/food2.png","75","171.09999990463257","2","1","false","1","2","1,0.5,0,1,0.5,0,0.5,0,1","0,1,0.5,0,1,0.5,1,0.5,0","3",""
"","html-keyboard-response","85","179007","0.0-124.0","3NL0RFNU0G9UQ56GL912KFUXY33K4B","A12J4IRF5Z06BT","3MXX6RQ9EVRTFC527Z18RDK8KW6P4R","","null","<img src=""img/food2.png"" style=""width:200px; border:14px solid green;"">","null","","","","","","","","","",""
"","image-keyboard-response","86","179177","0.0-126.0","3NL0RFNU0G9UQ56GL912KFUXY33K4B","A12J4IRF5Z06BT","3MXX6RQ9EVRTFC527Z18RDK8KW6P4R","","169.29999995231628","img/food6.png","75","169.89999985694885","2","0","false","3","2","1,0.5,0,1,0.5,0,0.5,0,1","0,1,0.5,0,1,0.5,1,0.5,0","3",""
"","html-keyboard-response","87","179479","0.0-127.0","3NL0RFNU0G9UQ56GL912KFUXY33K4B","A12J4IRF5Z06BT","3MXX6RQ9EVRTFC527Z18RDK8KW6P4R","","null","<img src=""img/food6.png"" style=""width:200px;border:14px solid red;"">","null","","","","","","","","","",""
"","image-keyboard-response","88","179641","0.0-129.0","3NL0RFNU0G9UQ56GL912KFUXY33K4B","A12J4IRF5Z06BT","3MXX6RQ9EVRTFC527Z18RDK8KW6P4R","","161.90000009536743","img/food6.png","75","162.40000009536743","2","0","false","3","2","1,0.5,0,1,0.5,0,0.5,0,1","0,1,0.5,0,1,0.5,1,0.5,0","3",""
"","html-keyboard-response","89","179942","0.0-130.0","3NL0RFNU0G9UQ56GL912KFUXY33K4B","A12J4IRF5Z06BT","3MXX6RQ9EVRTFC527Z18RDK8KW6P4R","","null","<img src=""img/food6.png"" style=""width:200px;border:14px solid red;"">","null","","","","","","","","","",""
"","image-keyboard-response","90","180121","0.0-132.0","3NL0RFNU0G9UQ56GL912KFUXY33K4B","A12J4IRF5Z06BT","3MXX6RQ9EVRTFC527Z18RDK8KW6P4R","","178.39999985694885","img/food5.png","75","179","2","1","false","2","2","1,0.5,0,1,0.5,0,0.5,0,1","0,1,0.5,0,1,0.5,1,0.5,0","3",""
"","html-keyboard-response","91","180422","0.0-133.0","3NL0RFNU0G9UQ56GL912KFUXY33K4B","A12J4IRF5Z06BT","3MXX6RQ9EVRTFC527Z18RDK8KW6P4R","","null","<img src=""img/food5.png"" style=""width:200px; border:14px solid green;"">","null","","","","","","","","","",""
"","image-keyboard-response","92","180601","0.0-135.0","3NL0RFNU0G9UQ56GL912KFUXY33K4B","A12J4IRF5Z06BT","3MXX6RQ9EVRTFC527Z18RDK8KW6P4R","","178.5","img/food6.png","75","178.79999995231628","2","0","false","3","2","1,0.5,0,1,0.5,0,0.5,0,1","0,1,0.5,0,1,0.5,1,0.5,0","3",""
"","html-keyboard-response","93","180903","0.0-136.0","3NL0RFNU0G9UQ56GL912KFUXY33K4B","A12J4IRF5Z06BT","3MXX6RQ9EVRTFC527Z18RDK8KW6P4R","","null","<img src=""img/food6.png"" style=""width:200px;border:14px solid red;"">","null","","","","","","","","","",""
"","image-keyboard-response","94","181073","0.0-138.0","3NL0RFNU0G9UQ56GL912KFUXY33K4B","A12J4IRF5Z06BT","3MXX6RQ9EVRTFC527Z18RDK8KW6P4R","","170","img/food5.png","75","170.5","2","1","false","2","2","1,0.5,0,1,0.5,0,0.5,0,1","0,1,0.5,0,1,0.5,1,0.5,0","3",""
"","html-keyboard-response","95","181375","0.0-139.0","3NL0RFNU0G9UQ56GL912KFUXY33K4B","A12J4IRF5Z06BT","3MXX6RQ9EVRTFC527Z18RDK8KW6P4R","","null","<img src=""img/food5.png"" style=""width:200px; border:14px solid green;"">","null","","","","","","","","","",""
"","image-keyboard-response","96","181561","0.0-141.0","3NL0RFNU0G9UQ56GL912KFUXY33K4B","A12J4IRF5Z06BT","3MXX6RQ9EVRTFC527Z18RDK8KW6P4R","","186","img/food5.png","75","186.39999985694885","2","1","false","2","2","1,0.5,0,1,0.5,0,0.5,0,1","0,1,0.5,0,1,0.5,1,0.5,0","3",""
"","html-keyboard-response","97","181862","0.0-142.0","3NL0RFNU0G9UQ56GL912KFUXY33K4B","A12J4IRF5Z06BT","3MXX6RQ9EVRTFC527Z18RDK8KW6P4R","","null","<img src=""img/food5.png"" style=""width:200px; border:14px solid green;"">","null","","","","","","","","","",""
"","image-keyboard-response","98","182049","0.0-144.0","3NL0RFNU0G9UQ56GL912KFUXY33K4B","A12J4IRF5Z06BT","3MXX6RQ9EVRTFC527Z18RDK8KW6P4R","","186.39999985694885","img/food2.png","75","186.89999985694885","2","1","false","1","2","1,0.5,0,1,0.5,0,0.5,0,1","0,1,0.5,0,1,0.5,1,0.5,0","3",""
"","html-keyboard-response","99","182351","0.0-145.0","3NL0RFNU0G9UQ56GL912KFUXY33K4B","A12J4IRF5Z06BT","3MXX6RQ9EVRTFC527Z18RDK8KW6P4R","","null","<img src=""img/food2.png"" style=""width:200px; border:14px solid green;"">","null","","","","","","","","","",""
"","image-keyboard-response","100","182529","0.0-147.0","3NL0RFNU0G9UQ56GL912KFUXY33K4B","A12J4IRF5Z06BT","3MXX6RQ9EVRTFC527Z18RDK8KW6P4R","","177.79999995231628","img/food6.png","75","178.29999995231628","2","1","false","3","2","1,0.5,0,1,0.5,0,0.5,0,1","0,1,0.5,0,1,0.5,1,0.5,0","3",""
"","html-keyboard-response","101","182831","0.0-148.0","3NL0RFNU0G9UQ56GL912KFUXY33K4B","A12J4IRF5Z06BT","3MXX6RQ9EVRTFC527Z18RDK8KW6P4R","","null","<img src=""img/food6.png"" style=""width:200px; border:14px solid green;"">","null","","","","","","","","","",""
"","image-keyboard-response","102","182961","0.0-150.0","3NL0RFNU0G9UQ56GL912KFUXY33K4B","A12J4IRF5Z06BT","3MXX6RQ9EVRTFC527Z18RDK8KW6P4R","","129.69999980926514","img/food2.png","76","130.29999995231628","3","0","false","1","2","1,0.5,0,1,0.5,0,0.5,0,1","0,1,0.5,0,1,0.5,1,0.5,0","3",""
"","html-keyboard-response","103","183263","0.0-151.0","3NL0RFNU0G9UQ56GL912KFUXY33K4B","A12J4IRF5Z06BT","3MXX6RQ9EVRTFC527Z18RDK8KW6P4R","","null","<img src=""img/food2.png"" style=""width:200px;border:14px solid red;"">","null","","","","","","","","","",""
"","image-keyboard-response","104","183377","0.0-153.0","3NL0RFNU0G9UQ56GL912KFUXY33K4B","A12J4IRF5Z06BT","3MXX6RQ9EVRTFC527Z18RDK8KW6P4R","","113.89999985694885","img/food2.png","75","114.39999985694885","2","1","false","1","2","1,0.5,0,1,0.5,0,0.5,0,1","0,1,0.5,0,1,0.5,1,0.5,0","3",""
"","html-keyboard-response","105","183678","0.0-154.0","3NL0RFNU0G9UQ56GL912KFUXY33K4B","A12J4IRF5Z06BT","3MXX6RQ9EVRTFC527Z18RDK8KW6P4R","","null","<img src=""img/food2.png"" style=""width:200px; border:14px solid green;"">","null","","","","","","","","","",""
"","image-keyboard-response","106","183897","0.0-156.0","3NL0RFNU0G9UQ56GL912KFUXY33K4B","A12J4IRF5Z06BT","3MXX6RQ9EVRTFC527Z18RDK8KW6P4R","","218.5","img/food5.png","75","219.09999990463257","2","1","false","2","2","1,0.5,0,1,0.5,0,0.5,0,1","0,1,0.5,0,1,0.5,1,0.5,0","3",""
"","html-keyboard-response","107","184198","0.0-157.0","3NL0RFNU0G9UQ56GL912KFUXY33K4B","A12J4IRF5Z06BT","3MXX6RQ9EVRTFC527Z18RDK8KW6P4R","","null","<img src=""img/food5.png"" style=""width:200px; border:14px solid green;"">","null","","","","","","","","","",""
"","image-keyboard-response","108","184361","0.0-159.0","3NL0RFNU0G9UQ56GL912KFUXY33K4B","A12J4IRF5Z06BT","3MXX6RQ9EVRTFC527Z18RDK8KW6P4R","","162.29999995231628","img/food2.png","75","162.70000004768372","2","1","false","1","2","1,0.5,0,1,0.5,0,0.5,0,1","0,1,0.5,0,1,0.5,1,0.5,0","3",""
"","html-keyboard-response","109","184663","0.0-160.0","3NL0RFNU0G9UQ56GL912KFUXY33K4B","A12J4IRF5Z06BT","3MXX6RQ9EVRTFC527Z18RDK8KW6P4R","","null","<img src=""img/food2.png"" style=""width:200px; border:14px solid green;"">","null","","","","","","","","","",""
"","image-keyboard-response","110","184825","0.0-162.0","3NL0RFNU0G9UQ56GL912KFUXY33K4B","A12J4IRF5Z06BT","3MXX6RQ9EVRTFC527Z18RDK8KW6P4R","","161.89999985694885","img/food6.png","75","162.40000009536743","2","1","false","3","2","1,0.5,0,1,0.5,0,0.5,0,1","0,1,0.5,0,1,0.5,1,0.5,0","3",""
"","html-keyboard-response","111","185126","0.0-163.0","3NL0RFNU0G9UQ56GL912KFUXY33K4B","A12J4IRF5Z06BT","3MXX6RQ9EVRTFC527Z18RDK8KW6P4R","","null","<img src=""img/food6.png"" style=""width:200px; border:14px solid green;"">","null","","","","","","","","","",""
"","image-keyboard-response","112","185297","0.0-165.0","3NL0RFNU0G9UQ56GL912KFUXY33K4B","A12J4IRF5Z06BT","3MXX6RQ9EVRTFC527Z18RDK8KW6P4R","","170.19999980926514","img/food5.png","75","170.70000004768372","2","1","false","2","2","1,0.5,0,1,0.5,0,0.5,0,1","0,1,0.5,0,1,0.5,1,0.5,0","3",""
"","html-keyboard-response","113","185599","0.0-166.0","3NL0RFNU0G9UQ56GL912KFUXY33K4B","A12J4IRF5Z06BT","3MXX6RQ9EVRTFC527Z18RDK8KW6P4R","","null","<img src=""img/food5.png"" style=""width:200px; border:14px solid green;"">","null","","","","","","","","","",""
"","image-keyboard-response","114","185777","0.0-168.0","3NL0RFNU0G9UQ56GL912KFUXY33K4B","A12J4IRF5Z06BT","3MXX6RQ9EVRTFC527Z18RDK8KW6P4R","","177.40000009536743","img/food6.png","75","177.80000019073486","2","0","false","3","2","1,0.5,0,1,0.5,0,0.5,0,1","0,1,0.5,0,1,0.5,1,0.5,0","3",""
"","html-keyboard-response","115","186079","0.0-169.0","3NL0RFNU0G9UQ56GL912KFUXY33K4B","A12J4IRF5Z06BT","3MXX6RQ9EVRTFC527Z18RDK8KW6P4R","","null","<img src=""img/food6.png"" style=""width:200px;border:14px solid red;"">","null","","","","","","","","","",""
"","image-keyboard-response","116","186265","0.0-171.0","3NL0RFNU0G9UQ56GL912KFUXY33K4B","A12J4IRF5Z06BT","3MXX6RQ9EVRTFC527Z18RDK8KW6P4R","","185.70000004768372","img/food5.png","75","186.30000019073486","2","1","false","2","2","1,0.5,0,1,0.5,0,0.5,0,1","0,1,0.5,0,1,0.5,1,0.5,0","3",""
"","html-keyboard-response","117","186566","0.0-172.0","3NL0RFNU0G9UQ56GL912KFUXY33K4B","A12J4IRF5Z06BT","3MXX6RQ9EVRTFC527Z18RDK8KW6P4R","","null","<img src=""img/food5.png"" style=""width:200px; border:14px solid green;"">","null","","","","","","","","","",""
"","image-keyboard-response","118","186721","0.0-174.0","3NL0RFNU0G9UQ56GL912KFUXY33K4B","A12J4IRF5Z06BT","3MXX6RQ9EVRTFC527Z18RDK8KW6P4R","","154.29999995231628","img/food6.png","75","154.79999995231628","2","0","false","3","2","1,0.5,0,1,0.5,0,0.5,0,1","0,1,0.5,0,1,0.5,1,0.5,0","3",""
"","html-keyboard-response","119","187022","0.0-175.0","3NL0RFNU0G9UQ56GL912KFUXY33K4B","A12J4IRF5Z06BT","3MXX6RQ9EVRTFC527Z18RDK8KW6P4R","","null","<img src=""img/food6.png"" style=""width:200px;border:14px solid red;"">","null","","","","","","","","","",""
"","image-keyboard-response","120","187209","0.0-177.0","3NL0RFNU0G9UQ56GL912KFUXY33K4B","A12J4IRF5Z06BT","3MXX6RQ9EVRTFC527Z18RDK8KW6P4R","","186.5","img/food5.png","75","186.90000009536743","2","1","false","2","2","1,0.5,0,1,0.5,0,0.5,0,1","0,1,0.5,0,1,0.5,1,0.5,0","3",""
"","html-keyboard-response","121","187511","0.0-178.0","3NL0RFNU0G9UQ56GL912KFUXY33K4B","A12J4IRF5Z06BT","3MXX6RQ9EVRTFC527Z18RDK8KW6P4R","","null","<img src=""img/food5.png"" style=""width:200px; border:14px solid green;"">","null","","","","","","","","","",""
"","image-keyboard-response","122","187657","0.0-180.0","3NL0RFNU0G9UQ56GL912KFUXY33K4B","A12J4IRF5Z06BT","3MXX6RQ9EVRTFC527Z18RDK8KW6P4R","","146","img/food5.png","75","146.90000009536743","2","1","false","2","2","1,0.5,0,1,0.5,0,0.5,0,1","0,1,0.5,0,1,0.5,1,0.5,0","3",""
"","html-keyboard-response","123","187959","0.0-181.0","3NL0RFNU0G9UQ56GL912KFUXY33K4B","A12J4IRF5Z06BT","3MXX6RQ9EVRTFC527Z18RDK8KW6P4R","","null","<img src=""img/food5.png"" style=""width:200px; border:14px solid green;"">","null","","","","","","","","","",""
"","image-keyboard-response","124","188089","0.0-183.0","3NL0RFNU0G9UQ56GL912KFUXY33K4B","A12J4IRF5Z06BT","3MXX6RQ9EVRTFC527Z18RDK8KW6P4R","","130","img/food6.png","75","130.5","2","1","false","3","2","1,0.5,0,1,0.5,0,0.5,0,1","0,1,0.5,0,1,0.5,1,0.5,0","3",""
"","html-keyboard-response","125","188391","0.0-184.0","3NL0RFNU0G9UQ56GL912KFUXY33K4B","A12J4IRF5Z06BT","3MXX6RQ9EVRTFC527Z18RDK8KW6P4R","","null","<img src=""img/food6.png"" style=""width:200px; border:14px solid green;"">","null","","","","","","","","","",""
"","image-keyboard-response","126","188537","0.0-186.0","3NL0RFNU0G9UQ56GL912KFUXY33K4B","A12J4IRF5Z06BT","3MXX6RQ9EVRTFC527Z18RDK8KW6P4R","","146","img/food5.png","75","146.5","2","1","false","2","2","1,0.5,0,1,0.5,0,0.5,0,1","0,1,0.5,0,1,0.5,1,0.5,0","3",""
"","html-keyboard-response","127","188838","0.0-187.0","3NL0RFNU0G9UQ56GL912KFUXY33K4B","A12J4IRF5Z06BT","3MXX6RQ9EVRTFC527Z18RDK8KW6P4R","","null","<img src=""img/food5.png"" style=""width:200px; border:14px solid green;"">","null","","","","","","","","","",""
"","image-keyboard-response","128","188961","0.0-189.0","3NL0RFNU0G9UQ56GL912KFUXY33K4B","A12J4IRF5Z06BT","3MXX6RQ9EVRTFC527Z18RDK8KW6P4R","","122.59999990463257","img/food6.png","75","123","2","1","false","3","2","1,0.5,0,1,0.5,0,0.5,0,1","0,1,0.5,0,1,0.5,1,0.5,0","3",""
"","html-keyboard-response","129","189262","0.0-190.0","3NL0RFNU0G9UQ56GL912KFUXY33K4B","A12J4IRF5Z06BT","3MXX6RQ9EVRTFC527Z18RDK8KW6P4R","","null","<img src=""img/food6.png"" style=""width:200px; border:14px solid green;"">","null","","","","","","","","","",""
"","image-keyboard-response","130","189433","0.0-192.0","3NL0RFNU0G9UQ56GL912KFUXY33K4B","A12J4IRF5Z06BT","3MXX6RQ9EVRTFC527Z18RDK8KW6P4R","","170.29999995231628","img/food5.png","75","170.79999995231628","2","1","false","2","2","1,0.5,0,1,0.5,0,0.5,0,1","0,1,0.5,0,1,0.5,1,0.5,0","3",""
"","html-keyboard-response","131","189735","0.0-193.0","3NL0RFNU0G9UQ56GL912KFUXY33K4B","A12J4IRF5Z06BT","3MXX6RQ9EVRTFC527Z18RDK8KW6P4R","","null","<img src=""img/food5.png"" style=""width:200px; border:14px solid green;"">","null","","","","","","","","","",""
"","image-keyboard-response","132","189865","0.0-195.0","3NL0RFNU0G9UQ56GL912KFUXY33K4B","A12J4IRF5Z06BT","3MXX6RQ9EVRTFC527Z18RDK8KW6P4R","","129.5","img/food5.png","75","130.20000004768372","2","1","false","2","2","1,0.5,0,1,0.5,0,0.5,0,1","0,1,0.5,0,1,0.5,1,0.5,0","3",""
"","html-keyboard-response","133","190166","0.0-196.0","3NL0RFNU0G9UQ56GL912KFUXY33K4B","A12J4IRF5Z06BT","3MXX6RQ9EVRTFC527Z18RDK8KW6P4R","","null","<img src=""img/food5.png"" style=""width:200px; border:14px solid green;"">","null","","","","","","","","","",""
"","image-keyboard-response","134","190313","0.0-198.0","3NL0RFNU0G9UQ56GL912KFUXY33K4B","A12J4IRF5Z06BT","3MXX6RQ9EVRTFC527Z18RDK8KW6P4R","","146.39999985694885","img/food2.png","75","146.89999985694885","2","1","false","1","2","1,0.5,0,1,0.5,0,0.5,0,1","0,1,0.5,0,1,0.5,1,0.5,0","3",""
"","html-keyboard-response","135","190614","0.0-199.0","3NL0RFNU0G9UQ56GL912KFUXY33K4B","A12J4IRF5Z06BT","3MXX6RQ9EVRTFC527Z18RDK8KW6P4R","","null","<img src=""img/food2.png"" style=""width:200px; border:14px solid green;"">","null","","","","","","","","","",""
"","image-keyboard-response","136","190793","0.0-201.0","3NL0RFNU0G9UQ56GL912KFUXY33K4B","A12J4IRF5Z06BT","3MXX6RQ9EVRTFC527Z18RDK8KW6P4R","","178.70000004768372","img/food5.png","75","179.10000014305115","2","1","false","2","2","1,0.5,0,1,0.5,0,0.5,0,1","0,1,0.5,0,1,0.5,1,0.5,0","3",""
"","html-keyboard-response","137","191094","0.0-202.0","3NL0RFNU0G9UQ56GL912KFUXY33K4B","A12J4IRF5Z06BT","3MXX6RQ9EVRTFC527Z18RDK8KW6P4R","","null","<img src=""img/food5.png"" style=""width:200px; border:14px solid green;"">","null","","","","","","","","","",""
"","image-keyboard-response","138","191217","0.0-204.0","3NL0RFNU0G9UQ56GL912KFUXY33K4B","A12J4IRF5Z06BT","3MXX6RQ9EVRTFC527Z18RDK8KW6P4R","","122.29999995231628","img/food5.png","75","122.80000019073486","2","1","false","2","2","1,0.5,0,1,0.5,0,0.5,0,1","0,1,0.5,0,1,0.5,1,0.5,0","3",""
"","html-keyboard-response","139","191518","0.0-205.0","3NL0RFNU0G9UQ56GL912KFUXY33K4B","A12J4IRF5Z06BT","3MXX6RQ9EVRTFC527Z18RDK8KW6P4R","","null","<img src=""img/food5.png"" style=""width:200px; border:14px solid green;"">","null","","","","","","","","","",""
"","image-keyboard-response","140","191649","0.0-207.0","3NL0RFNU0G9UQ56GL912KFUXY33K4B","A12J4IRF5Z06BT","3MXX6RQ9EVRTFC527Z18RDK8KW6P4R","","130.29999995231628","img/food5.png","75","130.80000019073486","2","1","false","2","2","1,0.5,0,1,0.5,0,0.5,0,1","0,1,0.5,0,1,0.5,1,0.5,0","3",""
"","html-keyboard-response","141","191951","0.0-208.0","3NL0RFNU0G9UQ56GL912KFUXY33K4B","A12J4IRF5Z06BT","3MXX6RQ9EVRTFC527Z18RDK8KW6P4R","","null","<img src=""img/food5.png"" style=""width:200px; border:14px solid green;"">","null","","","","","","","","","",""
"","image-keyboard-response","142","192097","0.0-210.0","3NL0RFNU0G9UQ56GL912KFUXY33K4B","A12J4IRF5Z06BT","3MXX6RQ9EVRTFC527Z18RDK8KW6P4R","","146.10000014305115","img/food2.png","75","146.60000014305115","2","1","false","1","2","1,0.5,0,1,0.5,0,0.5,0,1","0,1,0.5,0,1,0.5,1,0.5,0","3",""
"","html-keyboard-response","143","192398","0.0-211.0","3NL0RFNU0G9UQ56GL912KFUXY33K4B","A12J4IRF5Z06BT","3MXX6RQ9EVRTFC527Z18RDK8KW6P4R","","null","<img src=""img/food2.png"" style=""width:200px; border:14px solid green;"">","null","","","","","","","","","",""
"","image-keyboard-response","144","192537","0.0-213.0","3NL0RFNU0G9UQ56GL912KFUXY33K4B","A12J4IRF5Z06BT","3MXX6RQ9EVRTFC527Z18RDK8KW6P4R","","138.5","img/food6.png","75","138.79999995231628","2","0","false","3","2","1,0.5,0,1,0.5,0,0.5,0,1","0,1,0.5,0,1,0.5,1,0.5,0","3",""
"","html-keyboard-response","145","192838","0.0-214.0","3NL0RFNU0G9UQ56GL912KFUXY33K4B","A12J4IRF5Z06BT","3MXX6RQ9EVRTFC527Z18RDK8KW6P4R","","null","<img src=""img/food6.png"" style=""width:200px;border:14px solid red;"">","null","","","","","","","","","",""
"","image-keyboard-response","146","192969","0.0-216.0","3NL0RFNU0G9UQ56GL912KFUXY33K4B","A12J4IRF5Z06BT","3MXX6RQ9EVRTFC527Z18RDK8KW6P4R","","130.39999985694885","img/food2.png","75","130.79999995231628","2","1","false","1","2","1,0.5,0,1,0.5,0,0.5,0,1","0,1,0.5,0,1,0.5,1,0.5,0","3",""
"","html-keyboard-response","147","193271","0.0-217.0","3NL0RFNU0G9UQ56GL912KFUXY33K4B","A12J4IRF5Z06BT","3MXX6RQ9EVRTFC527Z18RDK8KW6P4R","","null","<img src=""img/food2.png"" style=""width:200px; border:14px solid green;"">","null","","","","","","","","","",""
"","image-keyboard-response","148","193409","0.0-219.0","3NL0RFNU0G9UQ56GL912KFUXY33K4B","A12J4IRF5Z06BT","3MXX6RQ9EVRTFC527Z18RDK8KW6P4R","","137.60000014305115","img/food6.png","75","138","2","1","false","3","2","1,0.5,0,1,0.5,0,0.5,0,1","0,1,0.5,0,1,0.5,1,0.5,0","3",""
"","html-keyboard-response","149","193711","0.0-220.0","3NL0RFNU0G9UQ56GL912KFUXY33K4B","A12J4IRF5Z06BT","3MXX6RQ9EVRTFC527Z18RDK8KW6P4R","","null","<img src=""img/food6.png"" style=""width:200px; border:14px solid green;"">","null","","","","","","","","","",""
"","image-keyboard-response","150","193849","0.0-222.0","3NL0RFNU0G9UQ56GL912KFUXY33K4B","A12J4IRF5Z06BT","3MXX6RQ9EVRTFC527Z18RDK8KW6P4R","","137.89999985694885","img/food2.png","75","138.39999985694885","2","1","false","1","2","1,0.5,0,1,0.5,0,0.5,0,1","0,1,0.5,0,1,0.5,1,0.5,0","3",""
"","html-keyboard-response","151","194151","0.0-223.0","3NL0RFNU0G9UQ56GL912KFUXY33K4B","A12J4IRF5Z06BT","3MXX6RQ9EVRTFC527Z18RDK8KW6P4R","","null","<img src=""img/food2.png"" style=""width:200px; border:14px solid green;"">","null","","","","","","","","","",""
"","image-keyboard-response","152","194273","0.0-225.0","3NL0RFNU0G9UQ56GL912KFUXY33K4B","A12J4IRF5Z06BT","3MXX6RQ9EVRTFC527Z18RDK8KW6P4R","","121.59999990463257","img/food2.png","75","122","2","1","false","1","2","1,0.5,0,1,0.5,0,0.5,0,1","0,1,0.5,0,1,0.5,1,0.5,0","3",""
"","html-keyboard-response","153","194575","0.0-226.0","3NL0RFNU0G9UQ56GL912KFUXY33K4B","A12J4IRF5Z06BT","3MXX6RQ9EVRTFC527Z18RDK8KW6P4R","","null","<img src=""img/food2.png"" style=""width:200px; border:14px solid green;"">","null","","","","","","","","","",""
"","image-keyboard-response","154","194721","0.0-228.0","3NL0RFNU0G9UQ56GL912KFUXY33K4B","A12J4IRF5Z06BT","3MXX6RQ9EVRTFC527Z18RDK8KW6P4R","","145.69999980926514","img/food6.png","75","146.30000019073486","2","1","false","3","2","1,0.5,0,1,0.5,0,0.5,0,1","0,1,0.5,0,1,0.5,1,0.5,0","3",""
"","html-keyboard-response","155","195023","0.0-229.0","3NL0RFNU0G9UQ56GL912KFUXY33K4B","A12J4IRF5Z06BT","3MXX6RQ9EVRTFC527Z18RDK8KW6P4R","","null","<img src=""img/food6.png"" style=""width:200px; border:14px solid green;"">","null","","","","","","","","","",""
"","image-keyboard-response","156","195145","0.0-231.0","3NL0RFNU0G9UQ56GL912KFUXY33K4B","A12J4IRF5Z06BT","3MXX6RQ9EVRTFC527Z18RDK8KW6P4R","","121.90000009536743","img/food2.png","75","122.20000004768372","2","1","false","1","2","1,0.5,0,1,0.5,0,0.5,0,1","0,1,0.5,0,1,0.5,1,0.5,0","3",""
"","html-keyboard-response","157","195447","0.0-232.0","3NL0RFNU0G9UQ56GL912KFUXY33K4B","A12J4IRF5Z06BT","3MXX6RQ9EVRTFC527Z18RDK8KW6P4R","","null","<img src=""img/food2.png"" style=""width:200px; border:14px solid green;"">","null","","","","","","","","","",""
"","image-keyboard-response","158","195585","0.0-234.0","3NL0RFNU0G9UQ56GL912KFUXY33K4B","A12J4IRF5Z06BT","3MXX6RQ9EVRTFC527Z18RDK8KW6P4R","","137.79999995231628","img/food6.png","75","138.29999995231628","2","0","false","3","2","1,0.5,0,1,0.5,0,0.5,0,1","0,1,0.5,0,1,0.5,1,0.5,0","3",""
"","html-keyboard-response","159","195886","0.0-235.0","3NL0RFNU0G9UQ56GL912KFUXY33K4B","A12J4IRF5Z06BT","3MXX6RQ9EVRTFC527Z18RDK8KW6P4R","","null","<img src=""img/food6.png"" style=""width:200px;border:14px solid red;"">","null","","","","","","","","","",""
"","image-keyboard-response","160","196018","0.0-237.0","3NL0RFNU0G9UQ56GL912KFUXY33K4B","A12J4IRF5Z06BT","3MXX6RQ9EVRTFC527Z18RDK8KW6P4R","","130.70000004768372","img/food5.png","75","131.29999995231628","2","1","false","2","2","1,0.5,0,1,0.5,0,0.5,0,1","0,1,0.5,0,1,0.5,1,0.5,0","3",""
"","html-keyboard-response","161","196318","0.0-238.0","3NL0RFNU0G9UQ56GL912KFUXY33K4B","A12J4IRF5Z06BT","3MXX6RQ9EVRTFC527Z18RDK8KW6P4R","","null","<img src=""img/food5.png"" style=""width:200px; border:14px solid green;"">","null","","","","","","","","","",""
"","image-keyboard-response","162","196481","0.0-240.0","3NL0RFNU0G9UQ56GL912KFUXY33K4B","A12J4IRF5Z06BT","3MXX6RQ9EVRTFC527Z18RDK8KW6P4R","","162.29999995231628","img/food6.png","75","162.80000019073486","2","0","false","3","2","1,0.5,0,1,0.5,0,0.5,0,1","0,1,0.5,0,1,0.5,1,0.5,0","3",""
"","html-keyboard-response","163","196783","0.0-241.0","3NL0RFNU0G9UQ56GL912KFUXY33K4B","A12J4IRF5Z06BT","3MXX6RQ9EVRTFC527Z18RDK8KW6P4R","","null","<img src=""img/food6.png"" style=""width:200px;border:14px solid red;"">","null","","","","","","","","","",""
"","image-keyboard-response","164","196921","0.0-243.0","3NL0RFNU0G9UQ56GL912KFUXY33K4B","A12J4IRF5Z06BT","3MXX6RQ9EVRTFC527Z18RDK8KW6P4R","","137.60000014305115","img/food2.png","75","138.10000014305115","2","1","false","1","2","1,0.5,0,1,0.5,0,0.5,0,1","0,1,0.5,0,1,0.5,1,0.5,0","3",""
"","html-keyboard-response","165","197222","0.0-244.0","3NL0RFNU0G9UQ56GL912KFUXY33K4B","A12J4IRF5Z06BT","3MXX6RQ9EVRTFC527Z18RDK8KW6P4R","","null","<img src=""img/food2.png"" style=""width:200px; border:14px solid green;"">","null","","","","","","","","","",""
"","image-keyboard-response","166","197369","0.0-246.0","3NL0RFNU0G9UQ56GL912KFUXY33K4B","A12J4IRF5Z06BT","3MXX6RQ9EVRTFC527Z18RDK8KW6P4R","","146.10000014305115","img/food5.png","75","146.5","2","1","false","2","2","1,0.5,0,1,0.5,0,0.5,0,1","0,1,0.5,0,1,0.5,1,0.5,0","3",""
"","html-keyboard-response","167","197670","0.0-247.0","3NL0RFNU0G9UQ56GL912KFUXY33K4B","A12J4IRF5Z06BT","3MXX6RQ9EVRTFC527Z18RDK8KW6P4R","","null","<img src=""img/food5.png"" style=""width:200px; border:14px solid green;"">","null","","","","","","","","","",""
"","image-keyboard-response","168","197817","0.0-249.0","3NL0RFNU0G9UQ56GL912KFUXY33K4B","A12J4IRF5Z06BT","3MXX6RQ9EVRTFC527Z18RDK8KW6P4R","","146","img/food5.png","75","146.40000009536743","2","1","false","2","2","1,0.5,0,1,0.5,0,0.5,0,1","0,1,0.5,0,1,0.5,1,0.5,0","3",""
"","html-keyboard-response","169","198118","0.0-250.0","3NL0RFNU0G9UQ56GL912KFUXY33K4B","A12J4IRF5Z06BT","3MXX6RQ9EVRTFC527Z18RDK8KW6P4R","","null","<img src=""img/food5.png"" style=""width:200px; border:14px solid green;"">","null","","","","","","","","","",""
"","image-keyboard-response","170","198265","0.0-252.0","3NL0RFNU0G9UQ56GL912KFUXY33K4B","A12J4IRF5Z06BT","3MXX6RQ9EVRTFC527Z18RDK8KW6P4R","","146.40000009536743","img/food6.png","75","146.90000009536743","2","0","false","3","2","1,0.5,0,1,0.5,0,0.5,0,1","0,1,0.5,0,1,0.5,1,0.5,0","3",""
"","html-keyboard-response","171","198566","0.0-253.0","3NL0RFNU0G9UQ56GL912KFUXY33K4B","A12J4IRF5Z06BT","3MXX6RQ9EVRTFC527Z18RDK8KW6P4R","","null","<img src=""img/food6.png"" style=""width:200px;border:14px solid red;"">","null","","","","","","","","","",""
"","image-keyboard-response","172","198697","0.0-255.0","3NL0RFNU0G9UQ56GL912KFUXY33K4B","A12J4IRF5Z06BT","3MXX6RQ9EVRTFC527Z18RDK8KW6P4R","","130.19999980926514","img/food2.png","75","130.80000019073486","2","1","false","1","2","1,0.5,0,1,0.5,0,0.5,0,1","0,1,0.5,0,1,0.5,1,0.5,0","3",""
"","html-keyboard-response","173","198998","0.0-256.0","3NL0RFNU0G9UQ56GL912KFUXY33K4B","A12J4IRF5Z06BT","3MXX6RQ9EVRTFC527Z18RDK8KW6P4R","","null","<img src=""img/food2.png"" style=""width:200px; border:14px solid green;"">","null","","","","","","","","","",""
"","image-keyboard-response","174","199161","0.0-258.0","3NL0RFNU0G9UQ56GL912KFUXY33K4B","A12J4IRF5Z06BT","3MXX6RQ9EVRTFC527Z18RDK8KW6P4R","","162.5","img/food2.png","75","163","2","1","false","1","2","1,0.5,0,1,0.5,0,0.5,0,1","0,1,0.5,0,1,0.5,1,0.5,0","3",""
"","html-keyboard-response","175","199463","0.0-259.0","3NL0RFNU0G9UQ56GL912KFUXY33K4B","A12J4IRF5Z06BT","3MXX6RQ9EVRTFC527Z18RDK8KW6P4R","","null","<img src=""img/food2.png"" style=""width:200px; border:14px solid green;"">","null","","","","","","","","","",""
"","image-keyboard-response","176","199617","0.0-261.0","3NL0RFNU0G9UQ56GL912KFUXY33K4B","A12J4IRF5Z06BT","3MXX6RQ9EVRTFC527Z18RDK8KW6P4R","","153.5","img/food6.png","75","154","2","0","false","3","2","1,0.5,0,1,0.5,0,0.5,0,1","0,1,0.5,0,1,0.5,1,0.5,0","3",""
"","html-keyboard-response","177","199919","0.0-262.0","3NL0RFNU0G9UQ56GL912KFUXY33K4B","A12J4IRF5Z06BT","3MXX6RQ9EVRTFC527Z18RDK8KW6P4R","","null","<img src=""img/food6.png"" style=""width:200px;border:14px solid red;"">","null","","","","","","","","","",""
"","image-keyboard-response","178","200049","0.0-264.0","3NL0RFNU0G9UQ56GL912KFUXY33K4B","A12J4IRF5Z06BT","3MXX6RQ9EVRTFC527Z18RDK8KW6P4R","","129.89999985694885","img/food5.png","75","130.39999985694885","2","1","false","2","2","1,0.5,0,1,0.5,0,0.5,0,1","0,1,0.5,0,1,0.5,1,0.5,0","3",""
"","html-keyboard-response","179","200350","0.0-265.0","3NL0RFNU0G9UQ56GL912KFUXY33K4B","A12J4IRF5Z06BT","3MXX6RQ9EVRTFC527Z18RDK8KW6P4R","","null","<img src=""img/food5.png"" style=""width:200px; border:14px solid green;"">","null","","","","","","","","","",""
"","image-keyboard-response","180","200521","0.0-267.0","3NL0RFNU0G9UQ56GL912KFUXY33K4B","A12J4IRF5Z06BT","3MXX6RQ9EVRTFC527Z18RDK8KW6P4R","","170.40000009536743","img/food2.png","75","170.80000019073486","2","1","false","1","2","1,0.5,0,1,0.5,0,0.5,0,1","0,1,0.5,0,1,0.5,1,0.5,0","3",""
"","html-keyboard-response","181","200823","0.0-268.0","3NL0RFNU0G9UQ56GL912KFUXY33K4B","A12J4IRF5Z06BT","3MXX6RQ9EVRTFC527Z18RDK8KW6P4R","","null","<img src=""img/food2.png"" style=""width:200px; border:14px solid green;"">","null","","","","","","","","","",""
"","image-keyboard-response","182","200953","0.0-270.0","3NL0RFNU0G9UQ56GL912KFUXY33K4B","A12J4IRF5Z06BT","3MXX6RQ9EVRTFC527Z18RDK8KW6P4R","","129.59999990463257","img/food2.png","75","130.20000004768372","2","1","false","1","2","1,0.5,0,1,0.5,0,0.5,0,1","0,1,0.5,0,1,0.5,1,0.5,0","3",""
"","html-keyboard-response","183","201254","0.0-271.0","3NL0RFNU0G9UQ56GL912KFUXY33K4B","A12J4IRF5Z06BT","3MXX6RQ9EVRTFC527Z18RDK8KW6P4R","","null","<img src=""img/food2.png"" style=""width:200px; border:14px solid green;"">","null","","","","","","","","","",""
"","instructions","184","207985","0.0-273.0","3NL0RFNU0G9UQ56GL912KFUXY33K4B","A12J4IRF5Z06BT","3MXX6RQ9EVRTFC527Z18RDK8KW6P4R","[{""page_index"":0,""viewing_time"":5316.5},{""page_index"":1,""viewing_time"":1413.7999999523163}]","6730.5","","","","","","","","","","","",""
"","image-keyboard-response","185","208697","0.0-274.0","3NL0RFNU0G9UQ56GL912KFUXY33K4B","A12J4IRF5Z06BT","3MXX6RQ9EVRTFC527Z18RDK8KW6P4R","","711.2999999523163","img/food3.png","75","711.9000000953674","2","1","","2","1","1,0.5,0,1,0.5,0,0.5,0,1","1,0.5,0,1,0.5,0,0.5,0,1","1",""
"","html-keyboard-response","186","208999","0.0-275.0","3NL0RFNU0G9UQ56GL912KFUXY33K4B","A12J4IRF5Z06BT","3MXX6RQ9EVRTFC527Z18RDK8KW6P4R","","null","<img src=""img/food3.png"" style=""width:200px; border:14px solid green;"">","null","","","","","","","","","",""
"","image-keyboard-response","187","209929","0.0-276.0","3NL0RFNU0G9UQ56GL912KFUXY33K4B","A12J4IRF5Z06BT","3MXX6RQ9EVRTFC527Z18RDK8KW6P4R","","930.2000000476837","img/food4.png","76","930.5","3","1","","3","1","1,0.5,0,1,0.5,0,0.5,0,1","1,0.5,0,1,0.5,0,0.5,0,1","1",""
"","html-keyboard-response","188","210231","0.0-277.0","3NL0RFNU0G9UQ56GL912KFUXY33K4B","A12J4IRF5Z06BT","3MXX6RQ9EVRTFC527Z18RDK8KW6P4R","","null","<img src=""img/food4.png"" style=""width:200px; border:14px solid green;"">","null","","","","","","","","","",""
"","image-keyboard-response","189","210961","0.0-278.0","3NL0RFNU0G9UQ56GL912KFUXY33K4B","A12J4IRF5Z06BT","3MXX6RQ9EVRTFC527Z18RDK8KW6P4R","","729.5999999046326","img/food3.png","75","730.2000000476837","2","1","","2","1","1,0.5,0,1,0.5,0,0.5,0,1","1,0.5,0,1,0.5,0,0.5,0,1","1",""
"","html-keyboard-response","190","211262","0.0-279.0","3NL0RFNU0G9UQ56GL912KFUXY33K4B","A12J4IRF5Z06BT","3MXX6RQ9EVRTFC527Z18RDK8KW6P4R","","null","<img src=""img/food3.png"" style=""width:200px; border:14px solid green;"">","null","","","","","","","","","",""
"","image-keyboard-response","191","211849","0.0-280.0","3NL0RFNU0G9UQ56GL912KFUXY33K4B","A12J4IRF5Z06BT","3MXX6RQ9EVRTFC527Z18RDK8KW6P4R","","586.1999998092651","img/food3.png","75","586.8000001907349","2","1","","2","1","1,0.5,0,1,0.5,0,0.5,0,1","1,0.5,0,1,0.5,0,0.5,0,1","1",""
"","html-keyboard-response","192","212150","0.0-281.0","3NL0RFNU0G9UQ56GL912KFUXY33K4B","A12J4IRF5Z06BT","3MXX6RQ9EVRTFC527Z18RDK8KW6P4R","","null","<img src=""img/food3.png"" style=""width:200px; border:14px solid green;"">","null","","","","","","","","","",""
"","image-keyboard-response","193","212585","0.0-282.0","3NL0RFNU0G9UQ56GL912KFUXY33K4B","A12J4IRF5Z06BT","3MXX6RQ9EVRTFC527Z18RDK8KW6P4R","","434.40000009536743","img/food3.png","75","434.90000009536743","2","1","","2","1","1,0.5,0,1,0.5,0,0.5,0,1","1,0.5,0,1,0.5,0,0.5,0,1","1",""
"","html-keyboard-response","194","212886","0.0-283.0","3NL0RFNU0G9UQ56GL912KFUXY33K4B","A12J4IRF5Z06BT","3MXX6RQ9EVRTFC527Z18RDK8KW6P4R","","null","<img src=""img/food3.png"" style=""width:200px; border:14px solid green;"">","null","","","","","","","","","",""
"","image-keyboard-response","195","213401","0.0-284.0","3NL0RFNU0G9UQ56GL912KFUXY33K4B","A12J4IRF5Z06BT","3MXX6RQ9EVRTFC527Z18RDK8KW6P4R","","514.4000000953674","img/food4.png","76","514.8000001907349","3","1","","3","1","1,0.5,0,1,0.5,0,0.5,0,1","1,0.5,0,1,0.5,0,0.5,0,1","1",""
"","html-keyboard-response","196","213703","0.0-285.0","3NL0RFNU0G9UQ56GL912KFUXY33K4B","A12J4IRF5Z06BT","3MXX6RQ9EVRTFC527Z18RDK8KW6P4R","","null","<img src=""img/food4.png"" style=""width:200px; border:14px solid green;"">","null","","","","","","","","","",""
"","image-keyboard-response","197","214057","0.0-286.0","3NL0RFNU0G9UQ56GL912KFUXY33K4B","A12J4IRF5Z06BT","3MXX6RQ9EVRTFC527Z18RDK8KW6P4R","","354.10000014305115","img/food4.png","76","354.60000014305115","3","1","","3","1","1,0.5,0,1,0.5,0,0.5,0,1","1,0.5,0,1,0.5,0,0.5,0,1","1",""
"","html-keyboard-response","198","214358","0.0-287.0","3NL0RFNU0G9UQ56GL912KFUXY33K4B","A12J4IRF5Z06BT","3MXX6RQ9EVRTFC527Z18RDK8KW6P4R","","null","<img src=""img/food4.png"" style=""width:200px; border:14px solid green;"">","null","","","","","","","","","",""
"","image-keyboard-response","199","215089","0.0-288.0","3NL0RFNU0G9UQ56GL912KFUXY33K4B","A12J4IRF5Z06BT","3MXX6RQ9EVRTFC527Z18RDK8KW6P4R","","730.6999998092651","img/food1.png","74","731.2000000476837","1","1","","1","1","1,0.5,0,1,0.5,0,0.5,0,1","1,0.5,0,1,0.5,0,0.5,0,1","1",""
"","html-keyboard-response","200","215391","0.0-289.0","3NL0RFNU0G9UQ56GL912KFUXY33K4B","A12J4IRF5Z06BT","3MXX6RQ9EVRTFC527Z18RDK8KW6P4R","","null","<img src=""img/food1.png"" style=""width:200px; border:14px solid green;"">","null","","","","","","","","","",""
"","image-keyboard-response","201","216161","0.0-290.0","3NL0RFNU0G9UQ56GL912KFUXY33K4B","A12J4IRF5Z06BT","3MXX6RQ9EVRTFC527Z18RDK8KW6P4R","","769.7000000476837","img/food4.png","76","770.2000000476837","3","1","","3","1","1,0.5,0,1,0.5,0,0.5,0,1","1,0.5,0,1,0.5,0,0.5,0,1","1",""
"","html-keyboard-response","202","216463","0.0-291.0","3NL0RFNU0G9UQ56GL912KFUXY33K4B","A12J4IRF5Z06BT","3MXX6RQ9EVRTFC527Z18RDK8KW6P4R","","null","<img src=""img/food4.png"" style=""width:200px; border:14px solid green;"">","null","","","","","","","","","",""
"","image-keyboard-response","203","217321","0.0-292.0","3NL0RFNU0G9UQ56GL912KFUXY33K4B","A12J4IRF5Z06BT","3MXX6RQ9EVRTFC527Z18RDK8KW6P4R","","857.7999999523163","img/food1.png","74","858.4000000953674","1","1","","1","1","1,0.5,0,1,0.5,0,0.5,0,1","1,0.5,0,1,0.5,0,0.5,0,1","1",""
"","html-keyboard-response","204","217623","0.0-293.0","3NL0RFNU0G9UQ56GL912KFUXY33K4B","A12J4IRF5Z06BT","3MXX6RQ9EVRTFC527Z18RDK8KW6P4R","","null","<img src=""img/food1.png"" style=""width:200px; border:14px solid green;"">","null","","","","","","","","","",""
"","image-keyboard-response","205","218001","0.0-294.0","3NL0RFNU0G9UQ56GL912KFUXY33K4B","A12J4IRF5Z06BT","3MXX6RQ9EVRTFC527Z18RDK8KW6P4R","","377.5","img/food1.png","74","377.89999985694885","1","1","","1","1","1,0.5,0,1,0.5,0,0.5,0,1","1,0.5,0,1,0.5,0,0.5,0,1","1",""
"","html-keyboard-response","206","218302","0.0-295.0","3NL0RFNU0G9UQ56GL912KFUXY33K4B","A12J4IRF5Z06BT","3MXX6RQ9EVRTFC527Z18RDK8KW6P4R","","null","<img src=""img/food1.png"" style=""width:200px; border:14px solid green;"">","null","","","","","","","","","",""
"","image-keyboard-response","207","218961","0.0-296.0","3NL0RFNU0G9UQ56GL912KFUXY33K4B","A12J4IRF5Z06BT","3MXX6RQ9EVRTFC527Z18RDK8KW6P4R","","658.6999998092651","img/food4.png","76","659.3000001907349","3","1","","3","1","1,0.5,0,1,0.5,0,0.5,0,1","1,0.5,0,1,0.5,0,0.5,0,1","1",""
"","html-keyboard-response","208","219263","0.0-297.0","3NL0RFNU0G9UQ56GL912KFUXY33K4B","A12J4IRF5Z06BT","3MXX6RQ9EVRTFC527Z18RDK8KW6P4R","","null","<img src=""img/food4.png"" style=""width:200px; border:14px solid green;"">","null","","","","","","","","","",""
"","image-keyboard-response","209","220050","0.0-298.0","3NL0RFNU0G9UQ56GL912KFUXY33K4B","A12J4IRF5Z06BT","3MXX6RQ9EVRTFC527Z18RDK8KW6P4R","","786.3999998569489","img/food3.png","75","787","2","0","","2","1","1,0.5,0,1,0.5,0,0.5,0,1","1,0.5,0,1,0.5,0,0.5,0,1","1",""
"","html-keyboard-response","210","220350","0.0-299.0","3NL0RFNU0G9UQ56GL912KFUXY33K4B","A12J4IRF5Z06BT","3MXX6RQ9EVRTFC527Z18RDK8KW6P4R","","null","<img src=""img/food3.png"" style=""width:200px;border:14px solid red;"">","null","","","","","","","","","",""
"","image-keyboard-response","211","221153","0.0-300.0","3NL0RFNU0G9UQ56GL912KFUXY33K4B","A12J4IRF5Z06BT","3MXX6RQ9EVRTFC527Z18RDK8KW6P4R","","802.4000000953674","img/food1.png","74","802.9000000953674","1","1","","1","1","1,0.5,0,1,0.5,0,0.5,0,1","1,0.5,0,1,0.5,0,0.5,0,1","1",""
"","html-keyboard-response","212","221455","0.0-301.0","3NL0RFNU0G9UQ56GL912KFUXY33K4B","A12J4IRF5Z06BT","3MXX6RQ9EVRTFC527Z18RDK8KW6P4R","","null","<img src=""img/food1.png"" style=""width:200px; border:14px solid green;"">","null","","","","","","","","","",""
"","image-keyboard-response","213","221937","0.0-302.0","3NL0RFNU0G9UQ56GL912KFUXY33K4B","A12J4IRF5Z06BT","3MXX6RQ9EVRTFC527Z18RDK8KW6P4R","","481.59999990463257","img/food3.png","75","482.2000000476837","2","0","","2","1","1,0.5,0,1,0.5,0,0.5,0,1","1,0.5,0,1,0.5,0,0.5,0,1","1",""
"","html-keyboard-response","214","222239","0.0-303.0","3NL0RFNU0G9UQ56GL912KFUXY33K4B","A12J4IRF5Z06BT","3MXX6RQ9EVRTFC527Z18RDK8KW6P4R","","null","<img src=""img/food3.png"" style=""width:200px;border:14px solid red;"">","null","","","","","","","","","",""
"","image-keyboard-response","215","223097","0.0-304.0","3NL0RFNU0G9UQ56GL912KFUXY33K4B","A12J4IRF5Z06BT","3MXX6RQ9EVRTFC527Z18RDK8KW6P4R","","858.0999999046326","img/food4.png","76","858.6000001430511","3","1","","3","1","1,0.5,0,1,0.5,0,0.5,0,1","1,0.5,0,1,0.5,0,0.5,0,1","1",""
"","html-keyboard-response","216","223399","0.0-305.0","3NL0RFNU0G9UQ56GL912KFUXY33K4B","A12J4IRF5Z06BT","3MXX6RQ9EVRTFC527Z18RDK8KW6P4R","","null","<img src=""img/food4.png"" style=""width:200px; border:14px solid green;"">","null","","","","","","","","","",""
"","image-keyboard-response","217","224057","0.0-306.0","3NL0RFNU0G9UQ56GL912KFUXY33K4B","A12J4IRF5Z06BT","3MXX6RQ9EVRTFC527Z18RDK8KW6P4R","","657.6000001430511","img/food1.png","74","658.2000000476837","1","1","","1","1","1,0.5,0,1,0.5,0,0.5,0,1","1,0.5,0,1,0.5,0,0.5,0,1","1",""
"","html-keyboard-response","218","224358","0.0-307.0","3NL0RFNU0G9UQ56GL912KFUXY33K4B","A12J4IRF5Z06BT","3MXX6RQ9EVRTFC527Z18RDK8KW6P4R","","null","<img src=""img/food1.png"" style=""width:200px; border:14px solid green;"">","null","","","","","","","","","",""
"","image-keyboard-response","219","224865","0.0-308.0","3NL0RFNU0G9UQ56GL912KFUXY33K4B","A12J4IRF5Z06BT","3MXX6RQ9EVRTFC527Z18RDK8KW6P4R","","506.7999999523163","img/food3.png","74","507.2000000476837","1","1","","2","1","1,0.5,0,1,0.5,0,0.5,0,1","1,0.5,0,1,0.5,0,0.5,0,1","1",""
"","html-keyboard-response","220","225166","0.0-309.0","3NL0RFNU0G9UQ56GL912KFUXY33K4B","A12J4IRF5Z06BT","3MXX6RQ9EVRTFC527Z18RDK8KW6P4R","","null","<img src=""img/food3.png"" style=""width:200px; border:14px solid green;"">","null","","","","","","","","","",""
"","image-keyboard-response","221","226121","0.0-310.0","3NL0RFNU0G9UQ56GL912KFUXY33K4B","A12J4IRF5Z06BT","3MXX6RQ9EVRTFC527Z18RDK8KW6P4R","","954.7000000476837","img/food4.png","76","955.2000000476837","3","1","","3","1","1,0.5,0,1,0.5,0,0.5,0,1","1,0.5,0,1,0.5,0,0.5,0,1","1",""
"","html-keyboard-response","222","226422","0.0-311.0","3NL0RFNU0G9UQ56GL912KFUXY33K4B","A12J4IRF5Z06BT","3MXX6RQ9EVRTFC527Z18RDK8KW6P4R","","null","<img src=""img/food4.png"" style=""width:200px; border:14px solid green;"">","null","","","","","","","","","",""
"","image-keyboard-response","223","226857","0.0-312.0","3NL0RFNU0G9UQ56GL912KFUXY33K4B","A12J4IRF5Z06BT","3MXX6RQ9EVRTFC527Z18RDK8KW6P4R","","434.59999990463257","img/food1.png","74","435.09999990463257","1","1","","1","1","1,0.5,0,1,0.5,0,0.5,0,1","1,0.5,0,1,0.5,0,0.5,0,1","1",""
"","html-keyboard-response","224","227159","0.0-313.0","3NL0RFNU0G9UQ56GL912KFUXY33K4B","A12J4IRF5Z06BT","3MXX6RQ9EVRTFC527Z18RDK8KW6P4R","","null","<img src=""img/food1.png"" style=""width:200px; border:14px solid green;"">","null","","","","","","","","","",""
"","image-keyboard-response","225","227945","0.0-314.0","3NL0RFNU0G9UQ56GL912KFUXY33K4B","A12J4IRF5Z06BT","3MXX6RQ9EVRTFC527Z18RDK8KW6P4R","","785.7000000476837","img/food3.png","74","786.2000000476837","1","1","","2","1","1,0.5,0,1,0.5,0,0.5,0,1","1,0.5,0,1,0.5,0,0.5,0,1","1",""
"","html-keyboard-response","226","228246","0.0-315.0","3NL0RFNU0G9UQ56GL912KFUXY33K4B","A12J4IRF5Z06BT","3MXX6RQ9EVRTFC527Z18RDK8KW6P4R","","null","<img src=""img/food3.png"" style=""width:200px; border:14px solid green;"">","null","","","","","","","","","",""
"","image-keyboard-response","227","228681","0.0-316.0","3NL0RFNU0G9UQ56GL912KFUXY33K4B","A12J4IRF5Z06BT","3MXX6RQ9EVRTFC527Z18RDK8KW6P4R","","434.2999999523163","img/food3.png","74","434.7999999523163","1","1","","2","1","1,0.5,0,1,0.5,0,0.5,0,1","1,0.5,0,1,0.5,0,0.5,0,1","1",""
"","html-keyboard-response","228","228982","0.0-317.0","3NL0RFNU0G9UQ56GL912KFUXY33K4B","A12J4IRF5Z06BT","3MXX6RQ9EVRTFC527Z18RDK8KW6P4R","","null","<img src=""img/food3.png"" style=""width:200px; border:14px solid green;"">","null","","","","","","","","","",""
"","image-keyboard-response","229","229529","0.0-318.0","3NL0RFNU0G9UQ56GL912KFUXY33K4B","A12J4IRF5Z06BT","3MXX6RQ9EVRTFC527Z18RDK8KW6P4R","","546.5999999046326","img/food1.png","74","547.2000000476837","1","1","","1","1","1,0.5,0,1,0.5,0,0.5,0,1","1,0.5,0,1,0.5,0,0.5,0,1","1",""
"","html-keyboard-response","230","229830","0.0-319.0","3NL0RFNU0G9UQ56GL912KFUXY33K4B","A12J4IRF5Z06BT","3MXX6RQ9EVRTFC527Z18RDK8KW6P4R","","null","<img src=""img/food1.png"" style=""width:200px; border:14px solid green;"">","null","","","","","","","","","",""
"","image-keyboard-response","231","230329","0.0-320.0","3NL0RFNU0G9UQ56GL912KFUXY33K4B","A12J4IRF5Z06BT","3MXX6RQ9EVRTFC527Z18RDK8KW6P4R","","499","img/food4.png","74","499.2999999523163","1","1","","3","1","1,0.5,0,1,0.5,0,0.5,0,1","1,0.5,0,1,0.5,0,0.5,0,1","1",""
"","html-keyboard-response","232","230631","0.0-321.0","3NL0RFNU0G9UQ56GL912KFUXY33K4B","A12J4IRF5Z06BT","3MXX6RQ9EVRTFC527Z18RDK8KW6P4R","","null","<img src=""img/food4.png"" style=""width:200px; border:14px solid green;"">","null","","","","","","","","","",""
"","image-keyboard-response","233","231033","0.0-322.0","3NL0RFNU0G9UQ56GL912KFUXY33K4B","A12J4IRF5Z06BT","3MXX6RQ9EVRTFC527Z18RDK8KW6P4R","","401.90000009536743","img/food4.png","74","402.40000009536743","1","0","","3","1","1,0.5,0,1,0.5,0,0.5,0,1","1,0.5,0,1,0.5,0,0.5,0,1","1",""
"","html-keyboard-response","234","231335","0.0-323.0","3NL0RFNU0G9UQ56GL912KFUXY33K4B","A12J4IRF5Z06BT","3MXX6RQ9EVRTFC527Z18RDK8KW6P4R","","null","<img src=""img/food4.png"" style=""width:200px;border:14px solid red;"">","null","","","","","","","","","",""
"","image-keyboard-response","235","231873","0.0-324.0","3NL0RFNU0G9UQ56GL912KFUXY33K4B","A12J4IRF5Z06BT","3MXX6RQ9EVRTFC527Z18RDK8KW6P4R","","537.5","img/food1.png","74","538.0999999046326","1","1","","1","1","1,0.5,0,1,0.5,0,0.5,0,1","1,0.5,0,1,0.5,0,0.5,0,1","1",""
"","html-keyboard-response","236","232175","0.0-325.0","3NL0RFNU0G9UQ56GL912KFUXY33K4B","A12J4IRF5Z06BT","3MXX6RQ9EVRTFC527Z18RDK8KW6P4R","","null","<img src=""img/food1.png"" style=""width:200px; border:14px solid green;"">","null","","","","","","","","","",""
"","image-keyboard-response","237","232513","0.0-326.0","3NL0RFNU0G9UQ56GL912KFUXY33K4B","A12J4IRF5Z06BT","3MXX6RQ9EVRTFC527Z18RDK8KW6P4R","","337.59999990463257","img/food1.png","74","338.2000000476837","1","1","","1","1","1,0.5,0,1,0.5,0,0.5,0,1","1,0.5,0,1,0.5,0,0.5,0,1","1",""
"","html-keyboard-response","238","232815","0.0-327.0","3NL0RFNU0G9UQ56GL912KFUXY33K4B","A12J4IRF5Z06BT","3MXX6RQ9EVRTFC527Z18RDK8KW6P4R","","null","<img src=""img/food1.png"" style=""width:200px; border:14px solid green;"">","null","","","","","","","","","",""
"","image-keyboard-response","239","233161","0.0-328.0","3NL0RFNU0G9UQ56GL912KFUXY33K4B","A12J4IRF5Z06BT","3MXX6RQ9EVRTFC527Z18RDK8KW6P4R","","345.7000000476837","img/food3.png","74","346.09999990463257","1","1","","2","1","1,0.5,0,1,0.5,0,0.5,0,1","1,0.5,0,1,0.5,0,0.5,0,1","1",""
"","html-keyboard-response","240","233463","0.0-329.0","3NL0RFNU0G9UQ56GL912KFUXY33K4B","A12J4IRF5Z06BT","3MXX6RQ9EVRTFC527Z18RDK8KW6P4R","","null","<img src=""img/food3.png"" style=""width:200px; border:14px solid green;"">","null","","","","","","","","","",""
"","image-keyboard-response","241","233785","0.0-330.0","3NL0RFNU0G9UQ56GL912KFUXY33K4B","A12J4IRF5Z06BT","3MXX6RQ9EVRTFC527Z18RDK8KW6P4R","","321.5","img/food3.png","74","322","1","1","","2","1","1,0.5,0,1,0.5,0,0.5,0,1","1,0.5,0,1,0.5,0,0.5,0,1","1",""
"","html-keyboard-response","242","234087","0.0-331.0","3NL0RFNU0G9UQ56GL912KFUXY33K4B","A12J4IRF5Z06BT","3MXX6RQ9EVRTFC527Z18RDK8KW6P4R","","null","<img src=""img/food3.png"" style=""width:200px; border:14px solid green;"">","null","","","","","","","","","",""
"","image-keyboard-response","243","234449","0.0-332.0","3NL0RFNU0G9UQ56GL912KFUXY33K4B","A12J4IRF5Z06BT","3MXX6RQ9EVRTFC527Z18RDK8KW6P4R","","361.7999999523163","img/food3.png","74","362.2999999523163","1","1","","2","1","1,0.5,0,1,0.5,0,0.5,0,1","1,0.5,0,1,0.5,0,0.5,0,1","1",""
"","html-keyboard-response","244","234751","0.0-333.0","3NL0RFNU0G9UQ56GL912KFUXY33K4B","A12J4IRF5Z06BT","3MXX6RQ9EVRTFC527Z18RDK8KW6P4R","","null","<img src=""img/food3.png"" style=""width:200px; border:14px solid green;"">","null","","","","","","","","","",""
"","image-keyboard-response","245","235049","0.0-334.0","3NL0RFNU0G9UQ56GL912KFUXY33K4B","A12J4IRF5Z06BT","3MXX6RQ9EVRTFC527Z18RDK8KW6P4R","","297.7000000476837","img/food3.png","74","298.10000014305115","1","1","","2","1","1,0.5,0,1,0.5,0,0.5,0,1","1,0.5,0,1,0.5,0,0.5,0,1","1",""
"","html-keyboard-response","246","235350","0.0-335.0","3NL0RFNU0G9UQ56GL912KFUXY33K4B","A12J4IRF5Z06BT","3MXX6RQ9EVRTFC527Z18RDK8KW6P4R","","null","<img src=""img/food3.png"" style=""width:200px; border:14px solid green;"">","null","","","","","","","","","",""
"","image-keyboard-response","247","235897","0.0-336.0","3NL0RFNU0G9UQ56GL912KFUXY33K4B","A12J4IRF5Z06BT","3MXX6RQ9EVRTFC527Z18RDK8KW6P4R","","546.2999999523163","img/food1.png","74","546.8000001907349","1","1","","1","1","1,0.5,0,1,0.5,0,0.5,0,1","1,0.5,0,1,0.5,0,0.5,0,1","1",""
"","html-keyboard-response","248","236198","0.0-337.0","3NL0RFNU0G9UQ56GL912KFUXY33K4B","A12J4IRF5Z06BT","3MXX6RQ9EVRTFC527Z18RDK8KW6P4R","","null","<img src=""img/food1.png"" style=""width:200px; border:14px solid green;"">","null","","","","","","","","","",""
"","image-keyboard-response","249","236521","0.0-338.0","3NL0RFNU0G9UQ56GL912KFUXY33K4B","A12J4IRF5Z06BT","3MXX6RQ9EVRTFC527Z18RDK8KW6P4R","","322.5","img/food1.png","74","322.90000009536743","1","1","","1","1","1,0.5,0,1,0.5,0,0.5,0,1","1,0.5,0,1,0.5,0,0.5,0,1","1",""
"","html-keyboard-response","250","236823","0.0-339.0","3NL0RFNU0G9UQ56GL912KFUXY33K4B","A12J4IRF5Z06BT","3MXX6RQ9EVRTFC527Z18RDK8KW6P4R","","null","<img src=""img/food1.png"" style=""width:200px; border:14px solid green;"">","null","","","","","","","","","",""
"","image-keyboard-response","251","237137","0.0-340.0","3NL0RFNU0G9UQ56GL912KFUXY33K4B","A12J4IRF5Z06BT","3MXX6RQ9EVRTFC527Z18RDK8KW6P4R","","313.7000000476837","img/food1.png","74","314.2000000476837","1","1","","1","1","1,0.5,0,1,0.5,0,0.5,0,1","1,0.5,0,1,0.5,0,0.5,0,1","1",""
"","html-keyboard-response","252","237438","0.0-341.0","3NL0RFNU0G9UQ56GL912KFUXY33K4B","A12J4IRF5Z06BT","3MXX6RQ9EVRTFC527Z18RDK8KW6P4R","","null","<img src=""img/food1.png"" style=""width:200px; border:14px solid green;"">","null","","","","","","","","","",""
"","image-keyboard-response","253","237913","0.0-342.0","3NL0RFNU0G9UQ56GL912KFUXY33K4B","A12J4IRF5Z06BT","3MXX6RQ9EVRTFC527Z18RDK8KW6P4R","","474.39999985694885","img/food4.png","76","474.7999999523163","3","1","","3","1","1,0.5,0,1,0.5,0,0.5,0,1","1,0.5,0,1,0.5,0,0.5,0,1","1",""
"","html-keyboard-response","254","238214","0.0-343.0","3NL0RFNU0G9UQ56GL912KFUXY33K4B","A12J4IRF5Z06BT","3MXX6RQ9EVRTFC527Z18RDK8KW6P4R","","null","<img src=""img/food4.png"" style=""width:200px; border:14px solid green;"">","null","","","","","","","","","",""
"","image-keyboard-response","255","238753","0.0-344.0","3NL0RFNU0G9UQ56GL912KFUXY33K4B","A12J4IRF5Z06BT","3MXX6RQ9EVRTFC527Z18RDK8KW6P4R","","538.5999999046326","img/food1.png","74","539.2000000476837","1","1","","1","1","1,0.5,0,1,0.5,0,0.5,0,1","1,0.5,0,1,0.5,0,0.5,0,1","1",""
"","html-keyboard-response","256","239055","0.0-345.0","3NL0RFNU0G9UQ56GL912KFUXY33K4B","A12J4IRF5Z06BT","3MXX6RQ9EVRTFC527Z18RDK8KW6P4R","","null","<img src=""img/food1.png"" style=""width:200px; border:14px solid green;"">","null","","","","","","","","","",""
"","image-keyboard-response","257","239705","0.0-346.0","3NL0RFNU0G9UQ56GL912KFUXY33K4B","A12J4IRF5Z06BT","3MXX6RQ9EVRTFC527Z18RDK8KW6P4R","","649.8999998569489","img/food4.png","76","650.2999999523163","3","1","","3","1","1,0.5,0,1,0.5,0,0.5,0,1","1,0.5,0,1,0.5,0,0.5,0,1","1",""
"","html-keyboard-response","258","240007","0.0-347.0","3NL0RFNU0G9UQ56GL912KFUXY33K4B","A12J4IRF5Z06BT","3MXX6RQ9EVRTFC527Z18RDK8KW6P4R","","null","<img src=""img/food4.png"" style=""width:200px; border:14px solid green;"">","null","","","","","","","","","",""
"","image-keyboard-response","259","240537","0.0-348.0","3NL0RFNU0G9UQ56GL912KFUXY33K4B","A12J4IRF5Z06BT","3MXX6RQ9EVRTFC527Z18RDK8KW6P4R","","530","img/food1.png","74","530.5","1","1","","1","1","1,0.5,0,1,0.5,0,0.5,0,1","1,0.5,0,1,0.5,0,0.5,0,1","1",""
"","html-keyboard-response","260","240839","0.0-349.0","3NL0RFNU0G9UQ56GL912KFUXY33K4B","A12J4IRF5Z06BT","3MXX6RQ9EVRTFC527Z18RDK8KW6P4R","","null","<img src=""img/food1.png"" style=""width:200px; border:14px solid green;"">","null","","","","","","","","","",""
"","image-keyboard-response","261","241617","0.0-350.0","3NL0RFNU0G9UQ56GL912KFUXY33K4B","A12J4IRF5Z06BT","3MXX6RQ9EVRTFC527Z18RDK8KW6P4R","","777.5999999046326","img/food4.png","76","778.2999999523163","3","1","","3","1","1,0.5,0,1,0.5,0,0.5,0,1","1,0.5,0,1,0.5,0,0.5,0,1","1",""
"","html-keyboard-response","262","241919","0.0-351.0","3NL0RFNU0G9UQ56GL912KFUXY33K4B","A12J4IRF5Z06BT","3MXX6RQ9EVRTFC527Z18RDK8KW6P4R","","null","<img src=""img/food4.png"" style=""width:200px; border:14px solid green;"">","null","","","","","","","","","",""
"","image-keyboard-response","263","242273","0.0-352.0","3NL0RFNU0G9UQ56GL912KFUXY33K4B","A12J4IRF5Z06BT","3MXX6RQ9EVRTFC527Z18RDK8KW6P4R","","353.59999990463257","img/food4.png","76","354.2000000476837","3","1","","3","1","1,0.5,0,1,0.5,0,0.5,0,1","1,0.5,0,1,0.5,0,0.5,0,1","1",""
"","html-keyboard-response","264","242575","0.0-353.0","3NL0RFNU0G9UQ56GL912KFUXY33K4B","A12J4IRF5Z06BT","3MXX6RQ9EVRTFC527Z18RDK8KW6P4R","","null","<img src=""img/food4.png"" style=""width:200px; border:14px solid green;"">","null","","","","","","","","","",""
"","image-keyboard-response","265","243049","0.0-354.0","3NL0RFNU0G9UQ56GL912KFUXY33K4B","A12J4IRF5Z06BT","3MXX6RQ9EVRTFC527Z18RDK8KW6P4R","","473.5","img/food3.png","74","474.2000000476837","1","1","","2","1","1,0.5,0,1,0.5,0,0.5,0,1","1,0.5,0,1,0.5,0,0.5,0,1","1",""
"","html-keyboard-response","266","243351","0.0-355.0","3NL0RFNU0G9UQ56GL912KFUXY33K4B","A12J4IRF5Z06BT","3MXX6RQ9EVRTFC527Z18RDK8KW6P4R","","null","<img src=""img/food3.png"" style=""width:200px; border:14px solid green;"">","null","","","","","","","","","",""
"","image-keyboard-response","267","243729","0.0-356.0","3NL0RFNU0G9UQ56GL912KFUXY33K4B","A12J4IRF5Z06BT","3MXX6RQ9EVRTFC527Z18RDK8KW6P4R","","377.90000009536743","img/food4.png","74","378.40000009536743","1","0","","3","1","1,0.5,0,1,0.5,0,0.5,0,1","1,0.5,0,1,0.5,0,0.5,0,1","1",""
"","html-keyboard-response","268","244031","0.0-357.0","3NL0RFNU0G9UQ56GL912KFUXY33K4B","A12J4IRF5Z06BT","3MXX6RQ9EVRTFC527Z18RDK8KW6P4R","","null","<img src=""img/food4.png"" style=""width:200px;border:14px solid red;"">","null","","","","","","","","","",""
"","image-keyboard-response","269","244665","0.0-358.0","3NL0RFNU0G9UQ56GL912KFUXY33K4B","A12J4IRF5Z06BT","3MXX6RQ9EVRTFC527Z18RDK8KW6P4R","","634.1000001430511","img/food1.png","74","634.6000001430511","1","1","","1","1","1,0.5,0,1,0.5,0,0.5,0,1","1,0.5,0,1,0.5,0,0.5,0,1","1",""
"","html-keyboard-response","270","244967","0.0-359.0","3NL0RFNU0G9UQ56GL912KFUXY33K4B","A12J4IRF5Z06BT","3MXX6RQ9EVRTFC527Z18RDK8KW6P4R","","null","<img src=""img/food1.png"" style=""width:200px; border:14px solid green;"">","null","","","","","","","","","",""
"","image-keyboard-response","271","245353","0.0-360.0","3NL0RFNU0G9UQ56GL912KFUXY33K4B","A12J4IRF5Z06BT","3MXX6RQ9EVRTFC527Z18RDK8KW6P4R","","385.59999990463257","img/food1.png","74","386.09999990463257","1","1","","1","1","1,0.5,0,1,0.5,0,0.5,0,1","1,0.5,0,1,0.5,0,0.5,0,1","1",""
"","html-keyboard-response","272","245655","0.0-361.0","3NL0RFNU0G9UQ56GL912KFUXY33K4B","A12J4IRF5Z06BT","3MXX6RQ9EVRTFC527Z18RDK8KW6P4R","","null","<img src=""img/food1.png"" style=""width:200px; border:14px solid green;"">","null","","","","","","","","","",""
"","image-keyboard-response","273","246057","0.0-362.0","3NL0RFNU0G9UQ56GL912KFUXY33K4B","A12J4IRF5Z06BT","3MXX6RQ9EVRTFC527Z18RDK8KW6P4R","","401.7999999523163","img/food4.png","76","402.30000019073486","3","1","","3","1","1,0.5,0,1,0.5,0,0.5,0,1","1,0.5,0,1,0.5,0,0.5,0,1","1",""
"","html-keyboard-response","274","246359","0.0-363.0","3NL0RFNU0G9UQ56GL912KFUXY33K4B","A12J4IRF5Z06BT","3MXX6RQ9EVRTFC527Z18RDK8KW6P4R","","null","<img src=""img/food4.png"" style=""width:200px; border:14px solid green;"">","null","","","","","","","","","",""
"","image-keyboard-response","275","246905","0.0-364.0","3NL0RFNU0G9UQ56GL912KFUXY33K4B","A12J4IRF5Z06BT","3MXX6RQ9EVRTFC527Z18RDK8KW6P4R","","546.1000001430511","img/food3.png","74","546.6000001430511","1","1","","2","1","1,0.5,0,1,0.5,0,0.5,0,1","1,0.5,0,1,0.5,0,0.5,0,1","1",""
"","html-keyboard-response","276","247207","0.0-365.0","3NL0RFNU0G9UQ56GL912KFUXY33K4B","A12J4IRF5Z06BT","3MXX6RQ9EVRTFC527Z18RDK8KW6P4R","","null","<img src=""img/food3.png"" style=""width:200px; border:14px solid green;"">","null","","","","","","","","","",""
"","image-keyboard-response","277","247865","0.0-366.0","3NL0RFNU0G9UQ56GL912KFUXY33K4B","A12J4IRF5Z06BT","3MXX6RQ9EVRTFC527Z18RDK8KW6P4R","","657.6000001430511","img/food4.png","76","658","3","1","","3","1","1,0.5,0,1,0.5,0,0.5,0,1","1,0.5,0,1,0.5,0,0.5,0,1","1",""
"","html-keyboard-response","278","248166","0.0-367.0","3NL0RFNU0G9UQ56GL912KFUXY33K4B","A12J4IRF5Z06BT","3MXX6RQ9EVRTFC527Z18RDK8KW6P4R","","null","<img src=""img/food4.png"" style=""width:200px; border:14px solid green;"">","null","","","","","","","","","",""
"","image-keyboard-response","279","248569","0.0-368.0","3NL0RFNU0G9UQ56GL912KFUXY33K4B","A12J4IRF5Z06BT","3MXX6RQ9EVRTFC527Z18RDK8KW6P4R","","402.2999999523163","img/food4.png","76","402.7999999523163","3","1","","3","1","1,0.5,0,1,0.5,0,0.5,0,1","1,0.5,0,1,0.5,0,0.5,0,1","1",""
"","html-keyboard-response","280","248870","0.0-369.0","3NL0RFNU0G9UQ56GL912KFUXY33K4B","A12J4IRF5Z06BT","3MXX6RQ9EVRTFC527Z18RDK8KW6P4R","","null","<img src=""img/food4.png"" style=""width:200px; border:14px solid green;"">","null","","","","","","","","","",""
"","image-keyboard-response","281","249289","0.0-370.0","3NL0RFNU0G9UQ56GL912KFUXY33K4B","A12J4IRF5Z06BT","3MXX6RQ9EVRTFC527Z18RDK8KW6P4R","","418.7000000476837","img/food4.png","76","419.2000000476837","3","1","","3","1","1,0.5,0,1,0.5,0,0.5,0,1","1,0.5,0,1,0.5,0,0.5,0,1","1",""
"","html-keyboard-response","282","249591","0.0-371.0","3NL0RFNU0G9UQ56GL912KFUXY33K4B","A12J4IRF5Z06BT","3MXX6RQ9EVRTFC527Z18RDK8KW6P4R","","null","<img src=""img/food4.png"" style=""width:200px; border:14px solid green;"">","null","","","","","","","","","",""
"","image-keyboard-response","283","250369","0.0-372.0","3NL0RFNU0G9UQ56GL912KFUXY33K4B","A12J4IRF5Z06BT","3MXX6RQ9EVRTFC527Z18RDK8KW6P4R","","777.8999998569489","img/food3.png","74","778.5","1","1","","2","1","1,0.5,0,1,0.5,0,0.5,0,1","1,0.5,0,1,0.5,0,0.5,0,1","1",""
"","html-keyboard-response","284","250670","0.0-373.0","3NL0RFNU0G9UQ56GL912KFUXY33K4B","A12J4IRF5Z06BT","3MXX6RQ9EVRTFC527Z18RDK8KW6P4R","","null","<img src=""img/food3.png"" style=""width:200px; border:14px solid green;"">","null","","","","","","","","","",""
"","image-keyboard-response","285","251241","0.0-374.0","3NL0RFNU0G9UQ56GL912KFUXY33K4B","A12J4IRF5Z06BT","3MXX6RQ9EVRTFC527Z18RDK8KW6P4R","","570.3999998569489","img/food4.png","76","570.7999999523163","3","1","","3","1","1,0.5,0,1,0.5,0,0.5,0,1","1,0.5,0,1,0.5,0,0.5,0,1","1",""
"","html-keyboard-response","286","251543","0.0-375.0","3NL0RFNU0G9UQ56GL912KFUXY33K4B","A12J4IRF5Z06BT","3MXX6RQ9EVRTFC527Z18RDK8KW6P4R","","null","<img src=""img/food4.png"" style=""width:200px; border:14px solid green;"">","null","","","","","","","","","",""
"","image-keyboard-response","287","251945","0.0-376.0","3NL0RFNU0G9UQ56GL912KFUXY33K4B","A12J4IRF5Z06BT","3MXX6RQ9EVRTFC527Z18RDK8KW6P4R","","401.89999985694885","img/food4.png","76","402.40000009536743","3","1","","3","1","1,0.5,0,1,0.5,0,0.5,0,1","1,0.5,0,1,0.5,0,0.5,0,1","1",""
"","html-keyboard-response","288","252247","0.0-377.0","3NL0RFNU0G9UQ56GL912KFUXY33K4B","A12J4IRF5Z06BT","3MXX6RQ9EVRTFC527Z18RDK8KW6P4R","","null","<img src=""img/food4.png"" style=""width:200px; border:14px solid green;"">","null","","","","","","","","","",""
"","image-keyboard-response","289","252953","0.0-378.0","3NL0RFNU0G9UQ56GL912KFUXY33K4B","A12J4IRF5Z06BT","3MXX6RQ9EVRTFC527Z18RDK8KW6P4R","","706","img/food3.png","74","706.5999999046326","1","1","","2","1","1,0.5,0,1,0.5,0,0.5,0,1","1,0.5,0,1,0.5,0,0.5,0,1","1",""
"","html-keyboard-response","290","253255","0.0-379.0","3NL0RFNU0G9UQ56GL912KFUXY33K4B","A12J4IRF5Z06BT","3MXX6RQ9EVRTFC527Z18RDK8KW6P4R","","null","<img src=""img/food3.png"" style=""width:200px; border:14px solid green;"">","null","","","","","","","","","",""
"","image-keyboard-response","291","253761","0.0-380.0","3NL0RFNU0G9UQ56GL912KFUXY33K4B","A12J4IRF5Z06BT","3MXX6RQ9EVRTFC527Z18RDK8KW6P4R","","505.7999999523163","img/food4.png","76","506.40000009536743","3","1","","3","1","1,0.5,0,1,0.5,0,0.5,0,1","1,0.5,0,1,0.5,0,0.5,0,1","1",""
"","html-keyboard-response","292","254062","0.0-381.0","3NL0RFNU0G9UQ56GL912KFUXY33K4B","A12J4IRF5Z06BT","3MXX6RQ9EVRTFC527Z18RDK8KW6P4R","","null","<img src=""img/food4.png"" style=""width:200px; border:14px solid green;"">","null","","","","","","","","","",""
"","image-keyboard-response","293","254674","0.0-382.0","3NL0RFNU0G9UQ56GL912KFUXY33K4B","A12J4IRF5Z06BT","3MXX6RQ9EVRTFC527Z18RDK8KW6P4R","","610.7999999523163","img/food3.png","74","611.2000000476837","1","1","","2","1","1,0.5,0,1,0.5,0,0.5,0,1","1,0.5,0,1,0.5,0,0.5,0,1","1",""
"","html-keyboard-response","294","254975","0.0-383.0","3NL0RFNU0G9UQ56GL912KFUXY33K4B","A12J4IRF5Z06BT","3MXX6RQ9EVRTFC527Z18RDK8KW6P4R","","null","<img src=""img/food3.png"" style=""width:200px; border:14px solid green;"">","null","","","","","","","","","",""
"","image-keyboard-response","295","255457","0.0-384.0","3NL0RFNU0G9UQ56GL912KFUXY33K4B","A12J4IRF5Z06BT","3MXX6RQ9EVRTFC527Z18RDK8KW6P4R","","482.09999990463257","img/food1.png","74","482.59999990463257","1","1","","1","1","1,0.5,0,1,0.5,0,0.5,0,1","1,0.5,0,1,0.5,0,0.5,0,1","1",""
"","html-keyboard-response","296","255758","0.0-385.0","3NL0RFNU0G9UQ56GL912KFUXY33K4B","A12J4IRF5Z06BT","3MXX6RQ9EVRTFC527Z18RDK8KW6P4R","","null","<img src=""img/food1.png"" style=""width:200px; border:14px solid green;"">","null","","","","","","","","","",""
"","image-keyboard-response","297","256505","0.0-386.0","3NL0RFNU0G9UQ56GL912KFUXY33K4B","A12J4IRF5Z06BT","3MXX6RQ9EVRTFC527Z18RDK8KW6P4R","","746.7000000476837","img/food4.png","76","747.1000001430511","3","1","","3","1","1,0.5,0,1,0.5,0,0.5,0,1","1,0.5,0,1,0.5,0,0.5,0,1","1",""
"","html-keyboard-response","298","256806","0.0-387.0","3NL0RFNU0G9UQ56GL912KFUXY33K4B","A12J4IRF5Z06BT","3MXX6RQ9EVRTFC527Z18RDK8KW6P4R","","null","<img src=""img/food4.png"" style=""width:200px; border:14px solid green;"">","null","","","","","","","","","",""
"","image-keyboard-response","299","257313","0.0-388.0","3NL0RFNU0G9UQ56GL912KFUXY33K4B","A12J4IRF5Z06BT","3MXX6RQ9EVRTFC527Z18RDK8KW6P4R","","506.2999999523163","img/food1.png","74","506.7999999523163","1","1","","1","1","1,0.5,0,1,0.5,0,0.5,0,1","1,0.5,0,1,0.5,0,0.5,0,1","1",""
"","html-keyboard-response","300","257615","0.0-389.0","3NL0RFNU0G9UQ56GL912KFUXY33K4B","A12J4IRF5Z06BT","3MXX6RQ9EVRTFC527Z18RDK8KW6P4R","","null","<img src=""img/food1.png"" style=""width:200px; border:14px solid green;"">","null","","","","","","","","","",""
"","image-keyboard-response","301","258073","0.0-390.0","3NL0RFNU0G9UQ56GL912KFUXY33K4B","A12J4IRF5Z06BT","3MXX6RQ9EVRTFC527Z18RDK8KW6P4R","","458.2999999523163","img/food1.png","74","458.7999999523163","1","1","","1","1","1,0.5,0,1,0.5,0,0.5,0,1","1,0.5,0,1,0.5,0,0.5,0,1","1",""
"","html-keyboard-response","302","258374","0.0-391.0","3NL0RFNU0G9UQ56GL912KFUXY33K4B","A12J4IRF5Z06BT","3MXX6RQ9EVRTFC527Z18RDK8KW6P4R","","null","<img src=""img/food1.png"" style=""width:200px; border:14px solid green;"">","null","","","","","","","","","",""
"","image-keyboard-response","303","259153","0.0-392.0","3NL0RFNU0G9UQ56GL912KFUXY33K4B","A12J4IRF5Z06BT","3MXX6RQ9EVRTFC527Z18RDK8KW6P4R","","778.2999999523163","img/food3.png","74","778.8000001907349","1","1","","2","1","1,0.5,0,1,0.5,0,0.5,0,1","1,0.5,0,1,0.5,0,0.5,0,1","1",""
"","html-keyboard-response","304","259454","0.0-393.0","3NL0RFNU0G9UQ56GL912KFUXY33K4B","A12J4IRF5Z06BT","3MXX6RQ9EVRTFC527Z18RDK8KW6P4R","","null","<img src=""img/food3.png"" style=""width:200px; border:14px solid green;"">","null","","","","","","","","","",""
"","image-keyboard-response","305","259833","0.0-394.0","3NL0RFNU0G9UQ56GL912KFUXY33K4B","A12J4IRF5Z06BT","3MXX6RQ9EVRTFC527Z18RDK8KW6P4R","","378.19999980926514","img/food3.png","74","378.7999999523163","1","1","","2","1","1,0.5,0,1,0.5,0,0.5,0,1","1,0.5,0,1,0.5,0,0.5,0,1","1",""
"","html-keyboard-response","306","260134","0.0-395.0","3NL0RFNU0G9UQ56GL912KFUXY33K4B","A12J4IRF5Z06BT","3MXX6RQ9EVRTFC527Z18RDK8KW6P4R","","null","<img src=""img/food3.png"" style=""width:200px; border:14px solid green;"">","null","","","","","","","","","",""
"","image-keyboard-response","307","260505","0.0-396.0","3NL0RFNU0G9UQ56GL912KFUXY33K4B","A12J4IRF5Z06BT","3MXX6RQ9EVRTFC527Z18RDK8KW6P4R","","370.40000009536743","img/food3.png","74","370.89999985694885","1","1","","2","1","1,0.5,0,1,0.5,0,0.5,0,1","1,0.5,0,1,0.5,0,0.5,0,1","1",""
"","html-keyboard-response","308","260807","0.0-397.0","3NL0RFNU0G9UQ56GL912KFUXY33K4B","A12J4IRF5Z06BT","3MXX6RQ9EVRTFC527Z18RDK8KW6P4R","","null","<img src=""img/food3.png"" style=""width:200px; border:14px solid green;"">","null","","","","","","","","","",""
"","image-keyboard-response","309","261258","0.0-398.0","3NL0RFNU0G9UQ56GL912KFUXY33K4B","A12J4IRF5Z06BT","3MXX6RQ9EVRTFC527Z18RDK8KW6P4R","","450.2000000476837","img/food1.png","74","450.7999999523163","1","1","","1","1","1,0.5,0,1,0.5,0,0.5,0,1","1,0.5,0,1,0.5,0,0.5,0,1","1",""
"","html-keyboard-response","310","261558","0.0-399.0","3NL0RFNU0G9UQ56GL912KFUXY33K4B","A12J4IRF5Z06BT","3MXX6RQ9EVRTFC527Z18RDK8KW6P4R","","null","<img src=""img/food1.png"" style=""width:200px; border:14px solid green;"">","null","","","","","","","","","",""
"","image-keyboard-response","311","261905","0.0-400.0","3NL0RFNU0G9UQ56GL912KFUXY33K4B","A12J4IRF5Z06BT","3MXX6RQ9EVRTFC527Z18RDK8KW6P4R","","346.2999999523163","img/food1.png","74","346.90000009536743","1","1","","1","1","1,0.5,0,1,0.5,0,0.5,0,1","1,0.5,0,1,0.5,0,0.5,0,1","1",""
"","html-keyboard-response","312","262207","0.0-401.0","3NL0RFNU0G9UQ56GL912KFUXY33K4B","A12J4IRF5Z06BT","3MXX6RQ9EVRTFC527Z18RDK8KW6P4R","","null","<img src=""img/food1.png"" style=""width:200px; border:14px solid green;"">","null","","","","","","","","","",""
"","image-keyboard-response","313","262793","0.0-402.0","3NL0RFNU0G9UQ56GL912KFUXY33K4B","A12J4IRF5Z06BT","3MXX6RQ9EVRTFC527Z18RDK8KW6P4R","","586.2000000476837","img/food3.png","74","586.7000000476837","1","1","","2","1","1,0.5,0,1,0.5,0,0.5,0,1","1,0.5,0,1,0.5,0,0.5,0,1","1",""
"","html-keyboard-response","314","263095","0.0-403.0","3NL0RFNU0G9UQ56GL912KFUXY33K4B","A12J4IRF5Z06BT","3MXX6RQ9EVRTFC527Z18RDK8KW6P4R","","null","<img src=""img/food3.png"" style=""width:200px; border:14px solid green;"">","null","","","","","","","","","",""
"","image-keyboard-response","315","263489","0.0-404.0","3NL0RFNU0G9UQ56GL912KFUXY33K4B","A12J4IRF5Z06BT","3MXX6RQ9EVRTFC527Z18RDK8KW6P4R","","394.10000014305115","img/food1.png","74","394.60000014305115","1","1","","1","1","1,0.5,0,1,0.5,0,0.5,0,1","1,0.5,0,1,0.5,0,0.5,0,1","1",""
"","html-keyboard-response","316","263791","0.0-405.0","3NL0RFNU0G9UQ56GL912KFUXY33K4B","A12J4IRF5Z06BT","3MXX6RQ9EVRTFC527Z18RDK8KW6P4R","","null","<img src=""img/food1.png"" style=""width:200px; border:14px solid green;"">","null","","","","","","","","","",""
"","image-keyboard-response","317","264249","0.0-406.0","3NL0RFNU0G9UQ56GL912KFUXY33K4B","A12J4IRF5Z06BT","3MXX6RQ9EVRTFC527Z18RDK8KW6P4R","","457.19999980926514","img/food4.png","76","457.80000019073486","3","1","","3","1","1,0.5,0,1,0.5,0,0.5,0,1","1,0.5,0,1,0.5,0,0.5,0,1","1",""
"","html-keyboard-response","318","264551","0.0-407.0","3NL0RFNU0G9UQ56GL912KFUXY33K4B","A12J4IRF5Z06BT","3MXX6RQ9EVRTFC527Z18RDK8KW6P4R","","null","<img src=""img/food4.png"" style=""width:200px; border:14px solid green;"">","null","","","","","","","","","",""
"","image-keyboard-response","319","265097","0.0-408.0","3NL0RFNU0G9UQ56GL912KFUXY33K4B","A12J4IRF5Z06BT","3MXX6RQ9EVRTFC527Z18RDK8KW6P4R","","545.7999999523163","img/food1.png","74","546.4000000953674","1","1","","1","1","1,0.5,0,1,0.5,0,0.5,0,1","1,0.5,0,1,0.5,0,0.5,0,1","1",""
"","html-keyboard-response","320","265399","0.0-409.0","3NL0RFNU0G9UQ56GL912KFUXY33K4B","A12J4IRF5Z06BT","3MXX6RQ9EVRTFC527Z18RDK8KW6P4R","","null","<img src=""img/food1.png"" style=""width:200px; border:14px solid green;"">","null","","","","","","","","","",""
"","image-keyboard-response","321","266073","0.0-410.0","3NL0RFNU0G9UQ56GL912KFUXY33K4B","A12J4IRF5Z06BT","3MXX6RQ9EVRTFC527Z18RDK8KW6P4R","","673.9000000953674","img/food4.png","76","674.4000000953674","3","1","","3","1","1,0.5,0,1,0.5,0,0.5,0,1","1,0.5,0,1,0.5,0,0.5,0,1","1",""
"","html-keyboard-response","322","266374","0.0-411.0","3NL0RFNU0G9UQ56GL912KFUXY33K4B","A12J4IRF5Z06BT","3MXX6RQ9EVRTFC527Z18RDK8KW6P4R","","null","<img src=""img/food4.png"" style=""width:200px; border:14px solid green;"">","null","","","","","","","","","",""
"","image-keyboard-response","323","266961","0.0-412.0","3NL0RFNU0G9UQ56GL912KFUXY33K4B","A12J4IRF5Z06BT","3MXX6RQ9EVRTFC527Z18RDK8KW6P4R","","586.7000000476837","img/food1.png","74","587.2999999523163","1","1","","1","1","1,0.5,0,1,0.5,0,0.5,0,1","1,0.5,0,1,0.5,0,0.5,0,1","1",""
"","html-keyboard-response","324","267263","0.0-413.0","3NL0RFNU0G9UQ56GL912KFUXY33K4B","A12J4IRF5Z06BT","3MXX6RQ9EVRTFC527Z18RDK8KW6P4R","","null","<img src=""img/food1.png"" style=""width:200px; border:14px solid green;"">","null","","","","","","","","","",""
"","image-keyboard-response","325","267913","0.0-414.0","3NL0RFNU0G9UQ56GL912KFUXY33K4B","A12J4IRF5Z06BT","3MXX6RQ9EVRTFC527Z18RDK8KW6P4R","","649.4000000953674","img/food3.png","74","650.0999999046326","1","1","","2","1","1,0.5,0,1,0.5,0,0.5,0,1","1,0.5,0,1,0.5,0,0.5,0,1","1",""
"","html-keyboard-response","326","268215","0.0-415.0","3NL0RFNU0G9UQ56GL912KFUXY33K4B","A12J4IRF5Z06BT","3MXX6RQ9EVRTFC527Z18RDK8KW6P4R","","null","<img src=""img/food3.png"" style=""width:200px; border:14px solid green;"">","null","","","","","","","","","",""
"","image-keyboard-response","327","268570","0.0-416.0","3NL0RFNU0G9UQ56GL912KFUXY33K4B","A12J4IRF5Z06BT","3MXX6RQ9EVRTFC527Z18RDK8KW6P4R","","353.80000019073486","img/food3.png","74","354.2999999523163","1","1","","2","1","1,0.5,0,1,0.5,0,0.5,0,1","1,0.5,0,1,0.5,0,0.5,0,1","1",""
"","html-keyboard-response","328","268871","0.0-417.0","3NL0RFNU0G9UQ56GL912KFUXY33K4B","A12J4IRF5Z06BT","3MXX6RQ9EVRTFC527Z18RDK8KW6P4R","","null","<img src=""img/food3.png"" style=""width:200px; border:14px solid green;"">","null","","","","","","","","","",""
"","image-keyboard-response","329","269361","0.0-418.0","3NL0RFNU0G9UQ56GL912KFUXY33K4B","A12J4IRF5Z06BT","3MXX6RQ9EVRTFC527Z18RDK8KW6P4R","","490.10000014305115","img/food4.png","76","490.7000000476837","3","1","","3","1","1,0.5,0,1,0.5,0,0.5,0,1","1,0.5,0,1,0.5,0,0.5,0,1","1",""
"","html-keyboard-response","330","269663","0.0-419.0","3NL0RFNU0G9UQ56GL912KFUXY33K4B","A12J4IRF5Z06BT","3MXX6RQ9EVRTFC527Z18RDK8KW6P4R","","null","<img src=""img/food4.png"" style=""width:200px; border:14px solid green;"">","null","","","","","","","","","",""
"","image-keyboard-response","331","270025","0.0-420.0","3NL0RFNU0G9UQ56GL912KFUXY33K4B","A12J4IRF5Z06BT","3MXX6RQ9EVRTFC527Z18RDK8KW6P4R","","361.90000009536743","img/food4.png","76","362.40000009536743","3","1","","3","1","1,0.5,0,1,0.5,0,0.5,0,1","1,0.5,0,1,0.5,0,0.5,0,1","1",""
"","html-keyboard-response","332","270327","0.0-421.0","3NL0RFNU0G9UQ56GL912KFUXY33K4B","A12J4IRF5Z06BT","3MXX6RQ9EVRTFC527Z18RDK8KW6P4R","","null","<img src=""img/food4.png"" style=""width:200px; border:14px solid green;"">","null","","","","","","","","","",""
"","image-keyboard-response","333","270753","0.0-422.0","3NL0RFNU0G9UQ56GL912KFUXY33K4B","A12J4IRF5Z06BT","3MXX6RQ9EVRTFC527Z18RDK8KW6P4R","","425.7999999523163","img/food4.png","76","426.2999999523163","3","1","","3","1","1,0.5,0,1,0.5,0,0.5,0,1","1,0.5,0,1,0.5,0,0.5,0,1","1",""
"","html-keyboard-response","334","271055","0.0-423.0","3NL0RFNU0G9UQ56GL912KFUXY33K4B","A12J4IRF5Z06BT","3MXX6RQ9EVRTFC527Z18RDK8KW6P4R","","null","<img src=""img/food4.png"" style=""width:200px; border:14px solid green;"">","null","","","","","","","","","",""
"","image-keyboard-response","335","271546","0.0-424.0","3NL0RFNU0G9UQ56GL912KFUXY33K4B","A12J4IRF5Z06BT","3MXX6RQ9EVRTFC527Z18RDK8KW6P4R","","489.90000009536743","img/food4.png","76","490.5","3","1","","3","1","1,0.5,0,1,0.5,0,0.5,0,1","1,0.5,0,1,0.5,0,0.5,0,1","1",""
"","html-keyboard-response","336","271847","0.0-425.0","3NL0RFNU0G9UQ56GL912KFUXY33K4B","A12J4IRF5Z06BT","3MXX6RQ9EVRTFC527Z18RDK8KW6P4R","","null","<img src=""img/food4.png"" style=""width:200px; border:14px solid green;"">","null","","","","","","","","","",""
"","image-keyboard-response","337","272233","0.0-426.0","3NL0RFNU0G9UQ56GL912KFUXY33K4B","A12J4IRF5Z06BT","3MXX6RQ9EVRTFC527Z18RDK8KW6P4R","","386.10000014305115","img/food4.png","76","386.7000000476837","3","1","","3","1","1,0.5,0,1,0.5,0,0.5,0,1","1,0.5,0,1,0.5,0,0.5,0,1","1",""
"","html-keyboard-response","338","272535","0.0-427.0","3NL0RFNU0G9UQ56GL912KFUXY33K4B","A12J4IRF5Z06BT","3MXX6RQ9EVRTFC527Z18RDK8KW6P4R","","null","<img src=""img/food4.png"" style=""width:200px; border:14px solid green;"">","null","","","","","","","","","",""
"","image-keyboard-response","339","273018","0.0-428.0","3NL0RFNU0G9UQ56GL912KFUXY33K4B","A12J4IRF5Z06BT","3MXX6RQ9EVRTFC527Z18RDK8KW6P4R","","481.7000000476837","img/food3.png","74","482.2999999523163","1","1","","2","1","1,0.5,0,1,0.5,0,0.5,0,1","1,0.5,0,1,0.5,0,0.5,0,1","1",""
"","html-keyboard-response","340","273318","0.0-429.0","3NL0RFNU0G9UQ56GL912KFUXY33K4B","A12J4IRF5Z06BT","3MXX6RQ9EVRTFC527Z18RDK8KW6P4R","","null","<img src=""img/food3.png"" style=""width:200px; border:14px solid green;"">","null","","","","","","","","","",""
"","image-keyboard-response","341","273993","0.0-430.0","3NL0RFNU0G9UQ56GL912KFUXY33K4B","A12J4IRF5Z06BT","3MXX6RQ9EVRTFC527Z18RDK8KW6P4R","","674.2999999523163","img/food4.png","76","674.9000000953674","3","1","","3","1","1,0.5,0,1,0.5,0,0.5,0,1","1,0.5,0,1,0.5,0,0.5,0,1","1",""
"","html-keyboard-response","342","274295","0.0-431.0","3NL0RFNU0G9UQ56GL912KFUXY33K4B","A12J4IRF5Z06BT","3MXX6RQ9EVRTFC527Z18RDK8KW6P4R","","null","<img src=""img/food4.png"" style=""width:200px; border:14px solid green;"">","null","","","","","","","","","",""
"","image-keyboard-response","343","274841","0.0-432.0","3NL0RFNU0G9UQ56GL912KFUXY33K4B","A12J4IRF5Z06BT","3MXX6RQ9EVRTFC527Z18RDK8KW6P4R","","545.6000001430511","img/food1.png","74","546.1000001430511","1","1","","1","1","1,0.5,0,1,0.5,0,0.5,0,1","1,0.5,0,1,0.5,0,0.5,0,1","1",""
"","html-keyboard-response","344","275143","0.0-433.0","3NL0RFNU0G9UQ56GL912KFUXY33K4B","A12J4IRF5Z06BT","3MXX6RQ9EVRTFC527Z18RDK8KW6P4R","","null","<img src=""img/food1.png"" style=""width:200px; border:14px solid green;"">","null","","","","","","","","","",""
"","image-keyboard-response","345","275489","0.0-434.0","3NL0RFNU0G9UQ56GL912KFUXY33K4B","A12J4IRF5Z06BT","3MXX6RQ9EVRTFC527Z18RDK8KW6P4R","","345.7000000476837","img/food1.png","74","346.2000000476837","1","1","","1","1","1,0.5,0,1,0.5,0,0.5,0,1","1,0.5,0,1,0.5,0,0.5,0,1","1",""
"","html-keyboard-response","346","275790","0.0-435.0","3NL0RFNU0G9UQ56GL912KFUXY33K4B","A12J4IRF5Z06BT","3MXX6RQ9EVRTFC527Z18RDK8KW6P4R","","null","<img src=""img/food1.png"" style=""width:200px; border:14px solid green;"">","null","","","","","","","","","",""
"","image-keyboard-response","347","276273","0.0-436.0","3NL0RFNU0G9UQ56GL912KFUXY33K4B","A12J4IRF5Z06BT","3MXX6RQ9EVRTFC527Z18RDK8KW6P4R","","482.60000014305115","img/food3.png","76","483.10000014305115","3","0","","2","1","1,0.5,0,1,0.5,0,0.5,0,1","1,0.5,0,1,0.5,0,0.5,0,1","1",""
"","html-keyboard-response","348","276574","0.0-437.0","3NL0RFNU0G9UQ56GL912KFUXY33K4B","A12J4IRF5Z06BT","3MXX6RQ9EVRTFC527Z18RDK8KW6P4R","","null","<img src=""img/food3.png"" style=""width:200px;border:14px solid red;"">","null","","","","","","","","","",""
"","image-keyboard-response","349","277225","0.0-438.0","3NL0RFNU0G9UQ56GL912KFUXY33K4B","A12J4IRF5Z06BT","3MXX6RQ9EVRTFC527Z18RDK8KW6P4R","","650.5","img/food1.png","74","651","1","1","","1","1","1,0.5,0,1,0.5,0,0.5,0,1","1,0.5,0,1,0.5,0,0.5,0,1","1",""
"","html-keyboard-response","350","277526","0.0-439.0","3NL0RFNU0G9UQ56GL912KFUXY33K4B","A12J4IRF5Z06BT","3MXX6RQ9EVRTFC527Z18RDK8KW6P4R","","null","<img src=""img/food1.png"" style=""width:200px; border:14px solid green;"">","null","","","","","","","","","",""
"","image-keyboard-response","351","277993","0.0-440.0","3NL0RFNU0G9UQ56GL912KFUXY33K4B","A12J4IRF5Z06BT","3MXX6RQ9EVRTFC527Z18RDK8KW6P4R","","466.39999985694885","img/food3.png","74","467.2000000476837","1","1","","2","1","1,0.5,0,1,0.5,0,0.5,0,1","1,0.5,0,1,0.5,0,0.5,0,1","1",""
"","html-keyboard-response","352","278294","0.0-441.0","3NL0RFNU0G9UQ56GL912KFUXY33K4B","A12J4IRF5Z06BT","3MXX6RQ9EVRTFC527Z18RDK8KW6P4R","","null","<img src=""img/food3.png"" style=""width:200px; border:14px solid green;"">","null","","","","","","","","","",""
"","image-keyboard-response","353","278633","0.0-442.0","3NL0RFNU0G9UQ56GL912KFUXY33K4B","A12J4IRF5Z06BT","3MXX6RQ9EVRTFC527Z18RDK8KW6P4R","","338.40000009536743","img/food3.png","74","338.90000009536743","1","1","","2","1","1,0.5,0,1,0.5,0,0.5,0,1","1,0.5,0,1,0.5,0,0.5,0,1","1",""
"","html-keyboard-response","354","278935","0.0-443.0","3NL0RFNU0G9UQ56GL912KFUXY33K4B","A12J4IRF5Z06BT","3MXX6RQ9EVRTFC527Z18RDK8KW6P4R","","null","<img src=""img/food3.png"" style=""width:200px; border:14px solid green;"">","null","","","","","","","","","",""
"","image-keyboard-response","355","279249","0.0-444.0","3NL0RFNU0G9UQ56GL912KFUXY33K4B","A12J4IRF5Z06BT","3MXX6RQ9EVRTFC527Z18RDK8KW6P4R","","313.7000000476837","img/food3.png","74","314.30000019073486","1","1","","2","1","1,0.5,0,1,0.5,0,0.5,0,1","1,0.5,0,1,0.5,0,0.5,0,1","1",""
"","html-keyboard-response","356","279551","0.0-445.0","3NL0RFNU0G9UQ56GL912KFUXY33K4B","A12J4IRF5Z06BT","3MXX6RQ9EVRTFC527Z18RDK8KW6P4R","","null","<img src=""img/food3.png"" style=""width:200px; border:14px solid green;"">","null","","","","","","","","","",""
"","image-keyboard-response","357","280041","0.0-446.0","3NL0RFNU0G9UQ56GL912KFUXY33K4B","A12J4IRF5Z06BT","3MXX6RQ9EVRTFC527Z18RDK8KW6P4R","","489.90000009536743","img/food1.png","74","490.40000009536743","1","1","","1","1","1,0.5,0,1,0.5,0,0.5,0,1","1,0.5,0,1,0.5,0,0.5,0,1","1",""
"","html-keyboard-response","358","280342","0.0-447.0","3NL0RFNU0G9UQ56GL912KFUXY33K4B","A12J4IRF5Z06BT","3MXX6RQ9EVRTFC527Z18RDK8KW6P4R","","null","<img src=""img/food1.png"" style=""width:200px; border:14px solid green;"">","null","","","","","","","","","",""
"","image-keyboard-response","359","280657","0.0-448.0","3NL0RFNU0G9UQ56GL912KFUXY33K4B","A12J4IRF5Z06BT","3MXX6RQ9EVRTFC527Z18RDK8KW6P4R","","314.5","img/food1.png","74","315.09999990463257","1","1","","1","1","1,0.5,0,1,0.5,0,0.5,0,1","1,0.5,0,1,0.5,0,0.5,0,1","1",""
"","html-keyboard-response","360","280958","0.0-449.0","3NL0RFNU0G9UQ56GL912KFUXY33K4B","A12J4IRF5Z06BT","3MXX6RQ9EVRTFC527Z18RDK8KW6P4R","","null","<img src=""img/food1.png"" style=""width:200px; border:14px solid green;"">","null","","","","","","","","","",""
"","image-keyboard-response","361","281393","0.0-450.0","3NL0RFNU0G9UQ56GL912KFUXY33K4B","A12J4IRF5Z06BT","3MXX6RQ9EVRTFC527Z18RDK8KW6P4R","","434.2999999523163","img/food3.png","74","434.80000019073486","1","1","","2","1","1,0.5,0,1,0.5,0,0.5,0,1","1,0.5,0,1,0.5,0,0.5,0,1","1",""
"","html-keyboard-response","362","281695","0.0-451.0","3NL0RFNU0G9UQ56GL912KFUXY33K4B","A12J4IRF5Z06BT","3MXX6RQ9EVRTFC527Z18RDK8KW6P4R","","null","<img src=""img/food3.png"" style=""width:200px; border:14px solid green;"">","null","","","","","","","","","",""
"","image-keyboard-response","363","282106","0.0-452.0","3NL0RFNU0G9UQ56GL912KFUXY33K4B","A12J4IRF5Z06BT","3MXX6RQ9EVRTFC527Z18RDK8KW6P4R","","410.10000014305115","img/food1.png","74","410.59999990463257","1","1","","1","1","1,0.5,0,1,0.5,0,0.5,0,1","1,0.5,0,1,0.5,0,0.5,0,1","1",""
"","html-keyboard-response","364","282406","0.0-453.0","3NL0RFNU0G9UQ56GL912KFUXY33K4B","A12J4IRF5Z06BT","3MXX6RQ9EVRTFC527Z18RDK8KW6P4R","","null","<img src=""img/food1.png"" style=""width:200px; border:14px solid green;"">","null","","","","","","","","","",""
"","html-keyboard-response","365","295052","0.0-454.0","3NL0RFNU0G9UQ56GL912KFUXY33K4B","A12J4IRF5Z06BT","3MXX6RQ9EVRTFC527Z18RDK8KW6P4R","","","","","","","","","","","","","",""
"","instructions","366","301488","0.0-455.0","3NL0RFNU0G9UQ56GL912KFUXY33K4B","A12J4IRF5Z06BT","3MXX6RQ9EVRTFC527Z18RDK8KW6P4R","[{""page_index"":0,""viewing_time"":6435.400000095367}]","6435.5","","","","","","","","","","","",""
"","survey-text","367","311863","0.0-456.0","3NL0RFNU0G9UQ56GL912KFUXY33K4B","A12J4IRF5Z06BT","3MXX6RQ9EVRTFC527Z18RDK8KW6P4R","","10373.400000095367","","","","","","","","","","","","{""Q0"":""A12J4IRF5Z06BT""}"
