"success","trial_type","trial_index","time_elapsed","internal_node_id","assignmentID","mturkID","hitID","view_history","rt","stimulus","key_press","reactionTime","a","r","s","cond","reward_cond","reward_cond_actual","reward_matrix_idx","warning","responses"
"true","fullscreen","0","7033","0.0-0.0","39K0FND3AI14IIM0FMO9CV81FD2AMF","A12Q4BP1S02YWS","3JUDR1D0D6D4CARU3YX9Y3DK5DJ2QK","","","","","","","","","","","","","",""
"","instructions","1","24882","0.0-1.0","39K0FND3AI14IIM0FMO9CV81FD2AMF","A12Q4BP1S02YWS","3JUDR1D0D6D4CARU3YX9Y3DK5DJ2QK","[{""page_index"":0,""viewing_time"":2547},{""page_index"":1,""viewing_time"":1704},{""page_index"":2,""viewing_time"":1956},{""page_index"":3,""viewing_time"":6645},{""page_index"":4,""viewing_time"":2039},{""page_index"":5,""viewing_time"":1531},{""page_index"":6,""viewing_time"":1415}]","17839","","","","","","","","","","","",""
"","image-keyboard-response","2","26420","0.0-2.0","39K0FND3AI14IIM0FMO9CV81FD2AMF","A12Q4BP1S02YWS","3JUDR1D0D6D4CARU3YX9Y3DK5DJ2QK","","1528","img/food2.png","74","1536","1","0","1","1","1,0.5,0,1,0.5,0,0.5,0,1","0,1,0.5,0,1,0.5,1,0.5,0","3","",""
"","html-keyboard-response","3","26725","0.0-3.0","39K0FND3AI14IIM0FMO9CV81FD2AMF","A12Q4BP1S02YWS","3JUDR1D0D6D4CARU3YX9Y3DK5DJ2QK","","null","<img src=""img/food2.png"" style=""width:200px;border:14px solid red;"">","null","","","","","","","","","",""
"","image-keyboard-response","4","27368","0.0-4.0","39K0FND3AI14IIM0FMO9CV81FD2AMF","A12Q4BP1S02YWS","3JUDR1D0D6D4CARU3YX9Y3DK5DJ2QK","","640","img/food2.png","75","641","2","1","1","1","1,0.5,0,1,0.5,0,0.5,0,1","0,1,0.5,0,1,0.5,1,0.5,0","3","",""
"","html-keyboard-response","5","27673","0.0-5.0","39K0FND3AI14IIM0FMO9CV81FD2AMF","A12Q4BP1S02YWS","3JUDR1D0D6D4CARU3YX9Y3DK5DJ2QK","","null","<img src=""img/food2.png"" style=""width:200px; border:14px solid green;"">","null","","","","","","","","","",""
"","image-keyboard-response","6","28489","0.0-6.0","39K0FND3AI14IIM0FMO9CV81FD2AMF","A12Q4BP1S02YWS","3JUDR1D0D6D4CARU3YX9Y3DK5DJ2QK","","811","img/food2.png","75","816","2","1","1","1","1,0.5,0,1,0.5,0,0.5,0,1","0,1,0.5,0,1,0.5,1,0.5,0","3","",""
"","html-keyboard-response","7","28792","0.0-7.0","39K0FND3AI14IIM0FMO9CV81FD2AMF","A12Q4BP1S02YWS","3JUDR1D0D6D4CARU3YX9Y3DK5DJ2QK","","null","<img src=""img/food2.png"" style=""width:200px; border:14px solid green;"">","null","","","","","","","","","",""
"","image-keyboard-response","8","30431","0.0-8.0","39K0FND3AI14IIM0FMO9CV81FD2AMF","A12Q4BP1S02YWS","3JUDR1D0D6D4CARU3YX9Y3DK5DJ2QK","","1634","img/food4.png","74","1637","1","0","2","1","1,0.5,0,1,0.5,0,0.5,0,1","0,1,0.5,0,1,0.5,1,0.5,0","3","",""
"","html-keyboard-response","9","30744","0.0-9.0","39K0FND3AI14IIM0FMO9CV81FD2AMF","A12Q4BP1S02YWS","3JUDR1D0D6D4CARU3YX9Y3DK5DJ2QK","","null","<img src=""img/food4.png"" style=""width:200px;border:14px solid red;"">","null","","","","","","","","","",""
"","image-keyboard-response","10","31447","0.0-10.0","39K0FND3AI14IIM0FMO9CV81FD2AMF","A12Q4BP1S02YWS","3JUDR1D0D6D4CARU3YX9Y3DK5DJ2QK","","697","img/food4.png","76","701","3","1","2","1","1,0.5,0,1,0.5,0,0.5,0,1","0,1,0.5,0,1,0.5,1,0.5,0","3","",""
"","html-keyboard-response","11","31787","0.0-11.0","39K0FND3AI14IIM0FMO9CV81FD2AMF","A12Q4BP1S02YWS","3JUDR1D0D6D4CARU3YX9Y3DK5DJ2QK","","null","<img src=""img/food4.png"" style=""width:200px; border:14px solid green;"">","null","","","","","","","","","",""
"","image-keyboard-response","12","33038","0.0-12.0","39K0FND3AI14IIM0FMO9CV81FD2AMF","A12Q4BP1S02YWS","3JUDR1D0D6D4CARU3YX9Y3DK5DJ2QK","","1249","img/food4.png","76","1251","3","1","2","1","1,0.5,0,1,0.5,0,0.5,0,1","0,1,0.5,0,1,0.5,1,0.5,0","3","",""
"","html-keyboard-response","13","33341","0.0-13.0","39K0FND3AI14IIM0FMO9CV81FD2AMF","A12Q4BP1S02YWS","3JUDR1D0D6D4CARU3YX9Y3DK5DJ2QK","","null","<img src=""img/food4.png"" style=""width:200px; border:14px solid green;"">","null","","","","","","","","","",""
"","image-keyboard-response","14","34333","0.0-14.0","39K0FND3AI14IIM0FMO9CV81FD2AMF","A12Q4BP1S02YWS","3JUDR1D0D6D4CARU3YX9Y3DK5DJ2QK","","989","img/food2.png","75","992","2","1","1","1","1,0.5,0,1,0.5,0,0.5,0,1","0,1,0.5,0,1,0.5,1,0.5,0","3","",""
"","html-keyboard-response","15","34635","0.0-15.0","39K0FND3AI14IIM0FMO9CV81FD2AMF","A12Q4BP1S02YWS","3JUDR1D0D6D4CARU3YX9Y3DK5DJ2QK","","null","<img src=""img/food2.png"" style=""width:200px; border:14px solid green;"">","null","","","","","","","","","",""
"","image-keyboard-response","16","35572","0.0-16.0","39K0FND3AI14IIM0FMO9CV81FD2AMF","A12Q4BP1S02YWS","3JUDR1D0D6D4CARU3YX9Y3DK5DJ2QK","","932","img/food4.png","76","936","3","0","2","1","1,0.5,0,1,0.5,0,0.5,0,1","0,1,0.5,0,1,0.5,1,0.5,0","3","",""
"","html-keyboard-response","17","35873","0.0-17.0","39K0FND3AI14IIM0FMO9CV81FD2AMF","A12Q4BP1S02YWS","3JUDR1D0D6D4CARU3YX9Y3DK5DJ2QK","","null","<img src=""img/food4.png"" style=""width:200px;border:14px solid red;"">","null","","","","","","","","","",""
"","image-keyboard-response","18","36269","0.0-18.0","39K0FND3AI14IIM0FMO9CV81FD2AMF","A12Q4BP1S02YWS","3JUDR1D0D6D4CARU3YX9Y3DK5DJ2QK","","392","img/food2.png","76","395","3","1","1","1","1,0.5,0,1,0.5,0,0.5,0,1","0,1,0.5,0,1,0.5,1,0.5,0","3","",""
"","html-keyboard-response","19","36572","0.0-19.0","39K0FND3AI14IIM0FMO9CV81FD2AMF","A12Q4BP1S02YWS","3JUDR1D0D6D4CARU3YX9Y3DK5DJ2QK","","null","<img src=""img/food2.png"" style=""width:200px; border:14px solid green;"">","null","","","","","","","","","",""
"","image-keyboard-response","20","37865","0.0-20.0","39K0FND3AI14IIM0FMO9CV81FD2AMF","A12Q4BP1S02YWS","3JUDR1D0D6D4CARU3YX9Y3DK5DJ2QK","","1290","img/food3.png","74","1292","1","1","3","1","1,0.5,0,1,0.5,0,0.5,0,1","0,1,0.5,0,1,0.5,1,0.5,0","3","",""
"","html-keyboard-response","21","38170","0.0-21.0","39K0FND3AI14IIM0FMO9CV81FD2AMF","A12Q4BP1S02YWS","3JUDR1D0D6D4CARU3YX9Y3DK5DJ2QK","","null","<img src=""img/food3.png"" style=""width:200px; border:14px solid green;"">","null","","","","","","","","","",""
"","image-keyboard-response","22","39542","0.0-22.0","39K0FND3AI14IIM0FMO9CV81FD2AMF","A12Q4BP1S02YWS","3JUDR1D0D6D4CARU3YX9Y3DK5DJ2QK","","1365","img/food2.png","75","1370","2","1","1","1","1,0.5,0,1,0.5,0,0.5,0,1","0,1,0.5,0,1,0.5,1,0.5,0","3","",""
"","html-keyboard-response","23","39847","0.0-23.0","39K0FND3AI14IIM0FMO9CV81FD2AMF","A12Q4BP1S02YWS","3JUDR1D0D6D4CARU3YX9Y3DK5DJ2QK","","null","<img src=""img/food2.png"" style=""width:200px; border:14px solid green;"">","null","","","","","","","","","",""
"","image-keyboard-response","24","40741","0.0-24.0","39K0FND3AI14IIM0FMO9CV81FD2AMF","A12Q4BP1S02YWS","3JUDR1D0D6D4CARU3YX9Y3DK5DJ2QK","","892","img/food3.png","76","893","3","0","3","1","1,0.5,0,1,0.5,0,0.5,0,1","0,1,0.5,0,1,0.5,1,0.5,0","3","",""
"","html-keyboard-response","25","41044","0.0-25.0","39K0FND3AI14IIM0FMO9CV81FD2AMF","A12Q4BP1S02YWS","3JUDR1D0D6D4CARU3YX9Y3DK5DJ2QK","","null","<img src=""img/food3.png"" style=""width:200px;border:14px solid red;"">","null","","","","","","","","","",""
"","image-keyboard-response","26","41443","0.0-26.0","39K0FND3AI14IIM0FMO9CV81FD2AMF","A12Q4BP1S02YWS","3JUDR1D0D6D4CARU3YX9Y3DK5DJ2QK","","398","img/food3.png","75","398","2","1","3","1","1,0.5,0,1,0.5,0,0.5,0,1","0,1,0.5,0,1,0.5,1,0.5,0","3","",""
"","html-keyboard-response","27","41745","0.0-27.0","39K0FND3AI14IIM0FMO9CV81FD2AMF","A12Q4BP1S02YWS","3JUDR1D0D6D4CARU3YX9Y3DK5DJ2QK","","null","<img src=""img/food3.png"" style=""width:200px; border:14px solid green;"">","null","","","","","","","","","",""
"","image-keyboard-response","28","43491","0.0-28.0","39K0FND3AI14IIM0FMO9CV81FD2AMF","A12Q4BP1S02YWS","3JUDR1D0D6D4CARU3YX9Y3DK5DJ2QK","","1741","img/food2.png","74","1744","1","0","1","1","1,0.5,0,1,0.5,0,0.5,0,1","0,1,0.5,0,1,0.5,1,0.5,0","3","",""
"","html-keyboard-response","29","43801","0.0-29.0","39K0FND3AI14IIM0FMO9CV81FD2AMF","A12Q4BP1S02YWS","3JUDR1D0D6D4CARU3YX9Y3DK5DJ2QK","","null","<img src=""img/food2.png"" style=""width:200px;border:14px solid red;"">","null","","","","","","","","","",""
"","image-keyboard-response","30","44219","0.0-30.0","39K0FND3AI14IIM0FMO9CV81FD2AMF","A12Q4BP1S02YWS","3JUDR1D0D6D4CARU3YX9Y3DK5DJ2QK","","414","img/food3.png","75","416","2","0","3","1","1,0.5,0,1,0.5,0,0.5,0,1","0,1,0.5,0,1,0.5,1,0.5,0","3","",""
"","html-keyboard-response","31","44522","0.0-31.0","39K0FND3AI14IIM0FMO9CV81FD2AMF","A12Q4BP1S02YWS","3JUDR1D0D6D4CARU3YX9Y3DK5DJ2QK","","null","<img src=""img/food3.png"" style=""width:200px;border:14px solid red;"">","null","","","","","","","","","",""
"","image-keyboard-response","32","45021","0.0-32.0","39K0FND3AI14IIM0FMO9CV81FD2AMF","A12Q4BP1S02YWS","3JUDR1D0D6D4CARU3YX9Y3DK5DJ2QK","","497","img/food4.png","76","498","3","0","2","1","1,0.5,0,1,0.5,0,0.5,0,1","0,1,0.5,0,1,0.5,1,0.5,0","3","",""
"","html-keyboard-response","33","45324","0.0-33.0","39K0FND3AI14IIM0FMO9CV81FD2AMF","A12Q4BP1S02YWS","3JUDR1D0D6D4CARU3YX9Y3DK5DJ2QK","","null","<img src=""img/food4.png"" style=""width:200px;border:14px solid red;"">","null","","","","","","","","","",""
"","image-keyboard-response","34","46073","0.0-34.0","39K0FND3AI14IIM0FMO9CV81FD2AMF","A12Q4BP1S02YWS","3JUDR1D0D6D4CARU3YX9Y3DK5DJ2QK","","744","img/food2.png","74","747","1","0","1","1","1,0.5,0,1,0.5,0,0.5,0,1","0,1,0.5,0,1,0.5,1,0.5,0","3","",""
"","html-keyboard-response","35","46376","0.0-35.0","39K0FND3AI14IIM0FMO9CV81FD2AMF","A12Q4BP1S02YWS","3JUDR1D0D6D4CARU3YX9Y3DK5DJ2QK","","null","<img src=""img/food2.png"" style=""width:200px;border:14px solid red;"">","null","","","","","","","","","",""
"","image-keyboard-response","36","47333","0.0-36.0","39K0FND3AI14IIM0FMO9CV81FD2AMF","A12Q4BP1S02YWS","3JUDR1D0D6D4CARU3YX9Y3DK5DJ2QK","","953","img/food2.png","75","956","2","1","1","1","1,0.5,0,1,0.5,0,0.5,0,1","0,1,0.5,0,1,0.5,1,0.5,0","3","",""
"","html-keyboard-response","37","47636","0.0-37.0","39K0FND3AI14IIM0FMO9CV81FD2AMF","A12Q4BP1S02YWS","3JUDR1D0D6D4CARU3YX9Y3DK5DJ2QK","","null","<img src=""img/food2.png"" style=""width:200px; border:14px solid green;"">","null","","","","","","","","","",""
"","image-keyboard-response","38","48788","0.0-38.0","39K0FND3AI14IIM0FMO9CV81FD2AMF","A12Q4BP1S02YWS","3JUDR1D0D6D4CARU3YX9Y3DK5DJ2QK","","1150","img/food4.png","74","1152","1","0","2","1","1,0.5,0,1,0.5,0,0.5,0,1","0,1,0.5,0,1,0.5,1,0.5,0","3","",""
"","html-keyboard-response","39","49091","0.0-39.0","39K0FND3AI14IIM0FMO9CV81FD2AMF","A12Q4BP1S02YWS","3JUDR1D0D6D4CARU3YX9Y3DK5DJ2QK","","null","<img src=""img/food4.png"" style=""width:200px;border:14px solid red;"">","null","","","","","","","","","",""
"","image-keyboard-response","40","49700","0.0-40.0","39K0FND3AI14IIM0FMO9CV81FD2AMF","A12Q4BP1S02YWS","3JUDR1D0D6D4CARU3YX9Y3DK5DJ2QK","","607","img/food2.png","76","608","3","0","1","1","1,0.5,0,1,0.5,0,0.5,0,1","0,1,0.5,0,1,0.5,1,0.5,0","3","",""
"","html-keyboard-response","41","50047","0.0-41.0","39K0FND3AI14IIM0FMO9CV81FD2AMF","A12Q4BP1S02YWS","3JUDR1D0D6D4CARU3YX9Y3DK5DJ2QK","","null","<img src=""img/food2.png"" style=""width:200px;border:14px solid red;"">","null","","","","","","","","","",""
"","image-keyboard-response","42","50497","0.0-42.0","39K0FND3AI14IIM0FMO9CV81FD2AMF","A12Q4BP1S02YWS","3JUDR1D0D6D4CARU3YX9Y3DK5DJ2QK","","449","img/food2.png","75","450","2","1","1","1","1,0.5,0,1,0.5,0,0.5,0,1","0,1,0.5,0,1,0.5,1,0.5,0","3","",""
"","html-keyboard-response","43","50800","0.0-43.0","39K0FND3AI14IIM0FMO9CV81FD2AMF","A12Q4BP1S02YWS","3JUDR1D0D6D4CARU3YX9Y3DK5DJ2QK","","null","<img src=""img/food2.png"" style=""width:200px; border:14px solid green;"">","null","","","","","","","","","",""
"","image-keyboard-response","44","52463","0.0-44.0","39K0FND3AI14IIM0FMO9CV81FD2AMF","A12Q4BP1S02YWS","3JUDR1D0D6D4CARU3YX9Y3DK5DJ2QK","","1660","img/food3.png","74","1662","1","1","3","1","1,0.5,0,1,0.5,0,0.5,0,1","0,1,0.5,0,1,0.5,1,0.5,0","3","",""
"","html-keyboard-response","45","52765","0.0-45.0","39K0FND3AI14IIM0FMO9CV81FD2AMF","A12Q4BP1S02YWS","3JUDR1D0D6D4CARU3YX9Y3DK5DJ2QK","","null","<img src=""img/food3.png"" style=""width:200px; border:14px solid green;"">","null","","","","","","","","","",""
"","image-keyboard-response","46","54770","0.0-46.0","39K0FND3AI14IIM0FMO9CV81FD2AMF","A12Q4BP1S02YWS","3JUDR1D0D6D4CARU3YX9Y3DK5DJ2QK","","","img/food3.png","","2004","-1","0","3","1","1,0.5,0,1,0.5,0,0.5,0,1","0,1,0.5,0,1,0.5,1,0.5,0","3","",""
"","html-keyboard-response","47","55077","0.0-47.0","39K0FND3AI14IIM0FMO9CV81FD2AMF","A12Q4BP1S02YWS","3JUDR1D0D6D4CARU3YX9Y3DK5DJ2QK","","null","<img src=""img/food3.png"" style=""width:200px;border:14px solid red;"">","null","","","","","","","","","",""
"","image-keyboard-response","48","55840","0.0-48.0","39K0FND3AI14IIM0FMO9CV81FD2AMF","A12Q4BP1S02YWS","3JUDR1D0D6D4CARU3YX9Y3DK5DJ2QK","","759","img/food2.png","75","763","2","1","1","1","1,0.5,0,1,0.5,0,0.5,0,1","0,1,0.5,0,1,0.5,1,0.5,0","3","",""
"","html-keyboard-response","49","56149","0.0-49.0","39K0FND3AI14IIM0FMO9CV81FD2AMF","A12Q4BP1S02YWS","3JUDR1D0D6D4CARU3YX9Y3DK5DJ2QK","","null","<img src=""img/food2.png"" style=""width:200px; border:14px solid green;"">","null","","","","","","","","","",""
"","image-keyboard-response","50","57710","0.0-50.0","39K0FND3AI14IIM0FMO9CV81FD2AMF","A12Q4BP1S02YWS","3JUDR1D0D6D4CARU3YX9Y3DK5DJ2QK","","1552","img/food4.png","74","1556","1","0","2","1","1,0.5,0,1,0.5,0,0.5,0,1","0,1,0.5,0,1,0.5,1,0.5,0","3","",""
"","html-keyboard-response","51","58015","0.0-51.0","39K0FND3AI14IIM0FMO9CV81FD2AMF","A12Q4BP1S02YWS","3JUDR1D0D6D4CARU3YX9Y3DK5DJ2QK","","null","<img src=""img/food4.png"" style=""width:200px;border:14px solid red;"">","null","","","","","","","","","",""
"","image-keyboard-response","52","58497","0.0-52.0","39K0FND3AI14IIM0FMO9CV81FD2AMF","A12Q4BP1S02YWS","3JUDR1D0D6D4CARU3YX9Y3DK5DJ2QK","","481","img/food4.png","76","482","3","0","2","1","1,0.5,0,1,0.5,0,0.5,0,1","0,1,0.5,0,1,0.5,1,0.5,0","3","",""
"","html-keyboard-response","53","58802","0.0-53.0","39K0FND3AI14IIM0FMO9CV81FD2AMF","A12Q4BP1S02YWS","3JUDR1D0D6D4CARU3YX9Y3DK5DJ2QK","","null","<img src=""img/food4.png"" style=""width:200px;border:14px solid red;"">","null","","","","","","","","","",""
"","image-keyboard-response","54","59358","0.0-54.0","39K0FND3AI14IIM0FMO9CV81FD2AMF","A12Q4BP1S02YWS","3JUDR1D0D6D4CARU3YX9Y3DK5DJ2QK","","552","img/food2.png","75","554","2","1","1","1","1,0.5,0,1,0.5,0,0.5,0,1","0,1,0.5,0,1,0.5,1,0.5,0","3","",""
"","html-keyboard-response","55","59661","0.0-55.0","39K0FND3AI14IIM0FMO9CV81FD2AMF","A12Q4BP1S02YWS","3JUDR1D0D6D4CARU3YX9Y3DK5DJ2QK","","null","<img src=""img/food2.png"" style=""width:200px; border:14px solid green;"">","null","","","","","","","","","",""
"","image-keyboard-response","56","60521","0.0-56.0","39K0FND3AI14IIM0FMO9CV81FD2AMF","A12Q4BP1S02YWS","3JUDR1D0D6D4CARU3YX9Y3DK5DJ2QK","","857","img/food2.png","74","859","1","0","1","1","1,0.5,0,1,0.5,0,0.5,0,1","0,1,0.5,0,1,0.5,1,0.5,0","3","",""
"","html-keyboard-response","57","60823","0.0-57.0","39K0FND3AI14IIM0FMO9CV81FD2AMF","A12Q4BP1S02YWS","3JUDR1D0D6D4CARU3YX9Y3DK5DJ2QK","","null","<img src=""img/food2.png"" style=""width:200px;border:14px solid red;"">","null","","","","","","","","","",""
"","image-keyboard-response","58","61357","0.0-58.0","39K0FND3AI14IIM0FMO9CV81FD2AMF","A12Q4BP1S02YWS","3JUDR1D0D6D4CARU3YX9Y3DK5DJ2QK","","532","img/food3.png","75","534","2","0","3","1","1,0.5,0,1,0.5,0,0.5,0,1","0,1,0.5,0,1,0.5,1,0.5,0","3","",""
"","html-keyboard-response","59","61663","0.0-59.0","39K0FND3AI14IIM0FMO9CV81FD2AMF","A12Q4BP1S02YWS","3JUDR1D0D6D4CARU3YX9Y3DK5DJ2QK","","null","<img src=""img/food3.png"" style=""width:200px;border:14px solid red;"">","null","","","","","","","","","",""
"","image-keyboard-response","60","62050","0.0-60.0","39K0FND3AI14IIM0FMO9CV81FD2AMF","A12Q4BP1S02YWS","3JUDR1D0D6D4CARU3YX9Y3DK5DJ2QK","","384","img/food2.png","74","385","1","0","1","1","1,0.5,0,1,0.5,0,0.5,0,1","0,1,0.5,0,1,0.5,1,0.5,0","3","",""
"","html-keyboard-response","61","62353","0.0-61.0","39K0FND3AI14IIM0FMO9CV81FD2AMF","A12Q4BP1S02YWS","3JUDR1D0D6D4CARU3YX9Y3DK5DJ2QK","","null","<img src=""img/food2.png"" style=""width:200px;border:14px solid red;"">","null","","","","","","","","","",""
"","image-keyboard-response","62","63638","0.0-62.0","39K0FND3AI14IIM0FMO9CV81FD2AMF","A12Q4BP1S02YWS","3JUDR1D0D6D4CARU3YX9Y3DK5DJ2QK","","1282","img/food4.png","75","1284","2","1","2","1","1,0.5,0,1,0.5,0,0.5,0,1","0,1,0.5,0,1,0.5,1,0.5,0","3","",""
"","html-keyboard-response","63","63996","0.0-63.0","39K0FND3AI14IIM0FMO9CV81FD2AMF","A12Q4BP1S02YWS","3JUDR1D0D6D4CARU3YX9Y3DK5DJ2QK","","null","<img src=""img/food4.png"" style=""width:200px; border:14px solid green;"">","null","","","","","","","","","",""
"","image-keyboard-response","64","64180","0.0-64.0","39K0FND3AI14IIM0FMO9CV81FD2AMF","A12Q4BP1S02YWS","3JUDR1D0D6D4CARU3YX9Y3DK5DJ2QK","","182","img/food3.png","74","184","1","1","3","1","1,0.5,0,1,0.5,0,0.5,0,1","0,1,0.5,0,1,0.5,1,0.5,0","3","",""
"","html-keyboard-response","65","64483","0.0-65.0","39K0FND3AI14IIM0FMO9CV81FD2AMF","A12Q4BP1S02YWS","3JUDR1D0D6D4CARU3YX9Y3DK5DJ2QK","","null","<img src=""img/food3.png"" style=""width:200px; border:14px solid green;"">","null","","","","","","","","","",""
"","image-keyboard-response","66","66197","0.0-66.0","39K0FND3AI14IIM0FMO9CV81FD2AMF","A12Q4BP1S02YWS","3JUDR1D0D6D4CARU3YX9Y3DK5DJ2QK","","1712","img/food4.png","76","1715","3","1","2","1","1,0.5,0,1,0.5,0,0.5,0,1","0,1,0.5,0,1,0.5,1,0.5,0","3","",""
"","html-keyboard-response","67","66502","0.0-67.0","39K0FND3AI14IIM0FMO9CV81FD2AMF","A12Q4BP1S02YWS","3JUDR1D0D6D4CARU3YX9Y3DK5DJ2QK","","null","<img src=""img/food4.png"" style=""width:200px; border:14px solid green;"">","null","","","","","","","","","",""
"","image-keyboard-response","68","66660","0.0-68.0","39K0FND3AI14IIM0FMO9CV81FD2AMF","A12Q4BP1S02YWS","3JUDR1D0D6D4CARU3YX9Y3DK5DJ2QK","","156","img/food3.png","75","158","2","1","3","1","1,0.5,0,1,0.5,0,0.5,0,1","0,1,0.5,0,1,0.5,1,0.5,0","3","",""
"","html-keyboard-response","69","66961","0.0-69.0","39K0FND3AI14IIM0FMO9CV81FD2AMF","A12Q4BP1S02YWS","3JUDR1D0D6D4CARU3YX9Y3DK5DJ2QK","","null","<img src=""img/food3.png"" style=""width:200px; border:14px solid green;"">","null","","","","","","","","","",""
"","image-keyboard-response","70","68439","0.0-70.0","39K0FND3AI14IIM0FMO9CV81FD2AMF","A12Q4BP1S02YWS","3JUDR1D0D6D4CARU3YX9Y3DK5DJ2QK","","1475","img/food4.png","74","1477","1","0","2","1","1,0.5,0,1,0.5,0,0.5,0,1","0,1,0.5,0,1,0.5,1,0.5,0","3","",""
"","html-keyboard-response","71","68742","0.0-71.0","39K0FND3AI14IIM0FMO9CV81FD2AMF","A12Q4BP1S02YWS","3JUDR1D0D6D4CARU3YX9Y3DK5DJ2QK","","null","<img src=""img/food4.png"" style=""width:200px;border:14px solid red;"">","null","","","","","","","","","",""
"","image-keyboard-response","72","68807","0.0-72.0","39K0FND3AI14IIM0FMO9CV81FD2AMF","A12Q4BP1S02YWS","3JUDR1D0D6D4CARU3YX9Y3DK5DJ2QK","","62","img/food4.png","75","64","2","1","2","1","1,0.5,0,1,0.5,0,0.5,0,1","0,1,0.5,0,1,0.5,1,0.5,0","3","",""
"","html-keyboard-response","73","69111","0.0-73.0","39K0FND3AI14IIM0FMO9CV81FD2AMF","A12Q4BP1S02YWS","3JUDR1D0D6D4CARU3YX9Y3DK5DJ2QK","","null","<img src=""img/food4.png"" style=""width:200px; border:14px solid green;"">","null","","","","","","","","","",""
"","image-keyboard-response","74","69991","0.0-74.0","39K0FND3AI14IIM0FMO9CV81FD2AMF","A12Q4BP1S02YWS","3JUDR1D0D6D4CARU3YX9Y3DK5DJ2QK","","878","img/food2.png","76","879","3","1","1","1","1,0.5,0,1,0.5,0,0.5,0,1","0,1,0.5,0,1,0.5,1,0.5,0","3","",""
"","html-keyboard-response","75","70292","0.0-75.0","39K0FND3AI14IIM0FMO9CV81FD2AMF","A12Q4BP1S02YWS","3JUDR1D0D6D4CARU3YX9Y3DK5DJ2QK","","null","<img src=""img/food2.png"" style=""width:200px; border:14px solid green;"">","null","","","","","","","","","",""
"","image-keyboard-response","76","71887","0.0-76.0","39K0FND3AI14IIM0FMO9CV81FD2AMF","A12Q4BP1S02YWS","3JUDR1D0D6D4CARU3YX9Y3DK5DJ2QK","","1591","img/food2.png","76","1594","3","0","1","1","1,0.5,0,1,0.5,0,0.5,0,1","0,1,0.5,0,1,0.5,1,0.5,0","3","",""
"","html-keyboard-response","77","72189","0.0-77.0","39K0FND3AI14IIM0FMO9CV81FD2AMF","A12Q4BP1S02YWS","3JUDR1D0D6D4CARU3YX9Y3DK5DJ2QK","","null","<img src=""img/food2.png"" style=""width:200px;border:14px solid red;"">","null","","","","","","","","","",""
"","image-keyboard-response","78","73073","0.0-78.0","39K0FND3AI14IIM0FMO9CV81FD2AMF","A12Q4BP1S02YWS","3JUDR1D0D6D4CARU3YX9Y3DK5DJ2QK","","880","img/food2.png","74","883","1","0","1","1","1,0.5,0,1,0.5,0,0.5,0,1","0,1,0.5,0,1,0.5,1,0.5,0","3","",""
"","html-keyboard-response","79","73376","0.0-79.0","39K0FND3AI14IIM0FMO9CV81FD2AMF","A12Q4BP1S02YWS","3JUDR1D0D6D4CARU3YX9Y3DK5DJ2QK","","null","<img src=""img/food2.png"" style=""width:200px;border:14px solid red;"">","null","","","","","","","","","",""
"","image-keyboard-response","80","74180","0.0-80.0","39K0FND3AI14IIM0FMO9CV81FD2AMF","A12Q4BP1S02YWS","3JUDR1D0D6D4CARU3YX9Y3DK5DJ2QK","","802","img/food4.png","75","804","2","1","2","1","1,0.5,0,1,0.5,0,0.5,0,1","0,1,0.5,0,1,0.5,1,0.5,0","3","",""
"","html-keyboard-response","81","74482","0.0-81.0","39K0FND3AI14IIM0FMO9CV81FD2AMF","A12Q4BP1S02YWS","3JUDR1D0D6D4CARU3YX9Y3DK5DJ2QK","","null","<img src=""img/food4.png"" style=""width:200px; border:14px solid green;"">","null","","","","","","","","","",""
"","image-keyboard-response","82","75212","0.0-82.0","39K0FND3AI14IIM0FMO9CV81FD2AMF","A12Q4BP1S02YWS","3JUDR1D0D6D4CARU3YX9Y3DK5DJ2QK","","727","img/food2.png","74","730","1","0","1","1","1,0.5,0,1,0.5,0,0.5,0,1","0,1,0.5,0,1,0.5,1,0.5,0","3","",""
"","html-keyboard-response","83","75515","0.0-83.0","39K0FND3AI14IIM0FMO9CV81FD2AMF","A12Q4BP1S02YWS","3JUDR1D0D6D4CARU3YX9Y3DK5DJ2QK","","null","<img src=""img/food2.png"" style=""width:200px;border:14px solid red;"">","null","","","","","","","","","",""
"","image-keyboard-response","84","76365","0.0-84.0","39K0FND3AI14IIM0FMO9CV81FD2AMF","A12Q4BP1S02YWS","3JUDR1D0D6D4CARU3YX9Y3DK5DJ2QK","","847","img/food2.png","76","849","3","0","1","1","1,0.5,0,1,0.5,0,0.5,0,1","0,1,0.5,0,1,0.5,1,0.5,0","3","",""
"","html-keyboard-response","85","76667","0.0-85.0","39K0FND3AI14IIM0FMO9CV81FD2AMF","A12Q4BP1S02YWS","3JUDR1D0D6D4CARU3YX9Y3DK5DJ2QK","","null","<img src=""img/food2.png"" style=""width:200px;border:14px solid red;"">","null","","","","","","","","","",""
"","image-keyboard-response","86","78189","0.0-86.0","39K0FND3AI14IIM0FMO9CV81FD2AMF","A12Q4BP1S02YWS","3JUDR1D0D6D4CARU3YX9Y3DK5DJ2QK","","1516","img/food4.png","74","1518","1","0","2","1","1,0.5,0,1,0.5,0,0.5,0,1","0,1,0.5,0,1,0.5,1,0.5,0","3","",""
"","html-keyboard-response","87","78492","0.0-87.0","39K0FND3AI14IIM0FMO9CV81FD2AMF","A12Q4BP1S02YWS","3JUDR1D0D6D4CARU3YX9Y3DK5DJ2QK","","null","<img src=""img/food4.png"" style=""width:200px;border:14px solid red;"">","null","","","","","","","","","",""
"","image-keyboard-response","88","78970","0.0-88.0","39K0FND3AI14IIM0FMO9CV81FD2AMF","A12Q4BP1S02YWS","3JUDR1D0D6D4CARU3YX9Y3DK5DJ2QK","","476","img/food4.png","76","478","3","1","2","1","1,0.5,0,1,0.5,0,0.5,0,1","0,1,0.5,0,1,0.5,1,0.5,0","3","",""
"","html-keyboard-response","89","79273","0.0-89.0","39K0FND3AI14IIM0FMO9CV81FD2AMF","A12Q4BP1S02YWS","3JUDR1D0D6D4CARU3YX9Y3DK5DJ2QK","","null","<img src=""img/food4.png"" style=""width:200px; border:14px solid green;"">","null","","","","","","","","","",""
"","image-keyboard-response","90","80044","0.0-90.0","39K0FND3AI14IIM0FMO9CV81FD2AMF","A12Q4BP1S02YWS","3JUDR1D0D6D4CARU3YX9Y3DK5DJ2QK","","768","img/food3.png","75","770","2","1","3","1","1,0.5,0,1,0.5,0,0.5,0,1","0,1,0.5,0,1,0.5,1,0.5,0","3","",""
"","html-keyboard-response","91","80348","0.0-91.0","39K0FND3AI14IIM0FMO9CV81FD2AMF","A12Q4BP1S02YWS","3JUDR1D0D6D4CARU3YX9Y3DK5DJ2QK","","null","<img src=""img/food3.png"" style=""width:200px; border:14px solid green;"">","null","","","","","","","","","",""
"","image-keyboard-response","92","81498","0.0-92.0","39K0FND3AI14IIM0FMO9CV81FD2AMF","A12Q4BP1S02YWS","3JUDR1D0D6D4CARU3YX9Y3DK5DJ2QK","","1147","img/food3.png","75","1149","2","1","3","1","1,0.5,0,1,0.5,0,0.5,0,1","0,1,0.5,0,1,0.5,1,0.5,0","3","",""
"","html-keyboard-response","93","81803","0.0-93.0","39K0FND3AI14IIM0FMO9CV81FD2AMF","A12Q4BP1S02YWS","3JUDR1D0D6D4CARU3YX9Y3DK5DJ2QK","","null","<img src=""img/food3.png"" style=""width:200px; border:14px solid green;"">","null","","","","","","","","","",""
"","image-keyboard-response","94","83427","0.0-94.0","39K0FND3AI14IIM0FMO9CV81FD2AMF","A12Q4BP1S02YWS","3JUDR1D0D6D4CARU3YX9Y3DK5DJ2QK","","1620","img/food4.png","74","1623","1","0","2","1","1,0.5,0,1,0.5,0,0.5,0,1","0,1,0.5,0,1,0.5,1,0.5,0","3","",""
"","html-keyboard-response","95","83728","0.0-95.0","39K0FND3AI14IIM0FMO9CV81FD2AMF","A12Q4BP1S02YWS","3JUDR1D0D6D4CARU3YX9Y3DK5DJ2QK","","null","<img src=""img/food4.png"" style=""width:200px;border:14px solid red;"">","null","","","","","","","","","",""
"","image-keyboard-response","96","84460","0.0-96.0","39K0FND3AI14IIM0FMO9CV81FD2AMF","A12Q4BP1S02YWS","3JUDR1D0D6D4CARU3YX9Y3DK5DJ2QK","","729","img/food4.png","76","731","3","1","2","1","1,0.5,0,1,0.5,0,0.5,0,1","0,1,0.5,0,1,0.5,1,0.5,0","3","",""
"","html-keyboard-response","97","84765","0.0-97.0","39K0FND3AI14IIM0FMO9CV81FD2AMF","A12Q4BP1S02YWS","3JUDR1D0D6D4CARU3YX9Y3DK5DJ2QK","","null","<img src=""img/food4.png"" style=""width:200px; border:14px solid green;"">","null","","","","","","","","","",""
"","image-keyboard-response","98","86104","0.0-98.0","39K0FND3AI14IIM0FMO9CV81FD2AMF","A12Q4BP1S02YWS","3JUDR1D0D6D4CARU3YX9Y3DK5DJ2QK","","1336","img/food3.png","75","1338","2","1","3","1","1,0.5,0,1,0.5,0,0.5,0,1","0,1,0.5,0,1,0.5,1,0.5,0","3","",""
"","html-keyboard-response","99","86409","0.0-99.0","39K0FND3AI14IIM0FMO9CV81FD2AMF","A12Q4BP1S02YWS","3JUDR1D0D6D4CARU3YX9Y3DK5DJ2QK","","null","<img src=""img/food3.png"" style=""width:200px; border:14px solid green;"">","null","","","","","","","","","",""
"","image-keyboard-response","100","87386","0.0-100.0","39K0FND3AI14IIM0FMO9CV81FD2AMF","A12Q4BP1S02YWS","3JUDR1D0D6D4CARU3YX9Y3DK5DJ2QK","","958","img/food4.png","74","974","1","0","2","1","1,0.5,0,1,0.5,0,0.5,0,1","0,1,0.5,0,1,0.5,1,0.5,0","3","",""
"","html-keyboard-response","101","87731","0.0-101.0","39K0FND3AI14IIM0FMO9CV81FD2AMF","A12Q4BP1S02YWS","3JUDR1D0D6D4CARU3YX9Y3DK5DJ2QK","","null","<img src=""img/food4.png"" style=""width:200px;border:14px solid red;"">","null","","","","","","","","","",""
"","image-keyboard-response","102","88176","0.0-102.0","39K0FND3AI14IIM0FMO9CV81FD2AMF","A12Q4BP1S02YWS","3JUDR1D0D6D4CARU3YX9Y3DK5DJ2QK","","443","img/food4.png","75","444","2","1","2","1","1,0.5,0,1,0.5,0,0.5,0,1","0,1,0.5,0,1,0.5,1,0.5,0","3","",""
"","html-keyboard-response","103","88478","0.0-103.0","39K0FND3AI14IIM0FMO9CV81FD2AMF","A12Q4BP1S02YWS","3JUDR1D0D6D4CARU3YX9Y3DK5DJ2QK","","null","<img src=""img/food4.png"" style=""width:200px; border:14px solid green;"">","null","","","","","","","","","",""
"","image-keyboard-response","104","89198","0.0-104.0","39K0FND3AI14IIM0FMO9CV81FD2AMF","A12Q4BP1S02YWS","3JUDR1D0D6D4CARU3YX9Y3DK5DJ2QK","","717","img/food2.png","76","719","3","0","1","1","1,0.5,0,1,0.5,0,0.5,0,1","0,1,0.5,0,1,0.5,1,0.5,0","3","",""
"","html-keyboard-response","105","89504","0.0-105.0","39K0FND3AI14IIM0FMO9CV81FD2AMF","A12Q4BP1S02YWS","3JUDR1D0D6D4CARU3YX9Y3DK5DJ2QK","","null","<img src=""img/food2.png"" style=""width:200px;border:14px solid red;"">","null","","","","","","","","","",""
"","image-keyboard-response","106","89794","0.0-106.0","39K0FND3AI14IIM0FMO9CV81FD2AMF","A12Q4BP1S02YWS","3JUDR1D0D6D4CARU3YX9Y3DK5DJ2QK","","282","img/food2.png","75","287","2","1","1","1","1,0.5,0,1,0.5,0,0.5,0,1","0,1,0.5,0,1,0.5,1,0.5,0","3","",""
"","html-keyboard-response","107","90127","0.0-107.0","39K0FND3AI14IIM0FMO9CV81FD2AMF","A12Q4BP1S02YWS","3JUDR1D0D6D4CARU3YX9Y3DK5DJ2QK","","null","<img src=""img/food2.png"" style=""width:200px; border:14px solid green;"">","null","","","","","","","","","",""
"","image-keyboard-response","108","90899","0.0-108.0","39K0FND3AI14IIM0FMO9CV81FD2AMF","A12Q4BP1S02YWS","3JUDR1D0D6D4CARU3YX9Y3DK5DJ2QK","","768","img/food3.png","74","771","1","1","3","1","1,0.5,0,1,0.5,0,0.5,0,1","0,1,0.5,0,1,0.5,1,0.5,0","3","",""
"","html-keyboard-response","109","91201","0.0-109.0","39K0FND3AI14IIM0FMO9CV81FD2AMF","A12Q4BP1S02YWS","3JUDR1D0D6D4CARU3YX9Y3DK5DJ2QK","","null","<img src=""img/food3.png"" style=""width:200px; border:14px solid green;"">","null","","","","","","","","","",""
"","image-keyboard-response","110","92389","0.0-110.0","39K0FND3AI14IIM0FMO9CV81FD2AMF","A12Q4BP1S02YWS","3JUDR1D0D6D4CARU3YX9Y3DK5DJ2QK","","1186","img/food3.png","74","1188","1","1","3","1","1,0.5,0,1,0.5,0,0.5,0,1","0,1,0.5,0,1,0.5,1,0.5,0","3","",""
"","html-keyboard-response","111","92740","0.0-111.0","39K0FND3AI14IIM0FMO9CV81FD2AMF","A12Q4BP1S02YWS","3JUDR1D0D6D4CARU3YX9Y3DK5DJ2QK","","null","<img src=""img/food3.png"" style=""width:200px; border:14px solid green;"">","null","","","","","","","","","",""
"","image-keyboard-response","112","93910","0.0-112.0","39K0FND3AI14IIM0FMO9CV81FD2AMF","A12Q4BP1S02YWS","3JUDR1D0D6D4CARU3YX9Y3DK5DJ2QK","","1168","img/food3.png","74","1170","1","1","3","1","1,0.5,0,1,0.5,0,0.5,0,1","0,1,0.5,0,1,0.5,1,0.5,0","3","",""
"","html-keyboard-response","113","94213","0.0-113.0","39K0FND3AI14IIM0FMO9CV81FD2AMF","A12Q4BP1S02YWS","3JUDR1D0D6D4CARU3YX9Y3DK5DJ2QK","","null","<img src=""img/food3.png"" style=""width:200px; border:14px solid green;"">","null","","","","","","","","","",""
"","image-keyboard-response","114","95172","0.0-114.0","39K0FND3AI14IIM0FMO9CV81FD2AMF","A12Q4BP1S02YWS","3JUDR1D0D6D4CARU3YX9Y3DK5DJ2QK","","956","img/food4.png","75","958","2","1","2","1","1,0.5,0,1,0.5,0,0.5,0,1","0,1,0.5,0,1,0.5,1,0.5,0","3","",""
"","html-keyboard-response","115","95478","0.0-115.0","39K0FND3AI14IIM0FMO9CV81FD2AMF","A12Q4BP1S02YWS","3JUDR1D0D6D4CARU3YX9Y3DK5DJ2QK","","null","<img src=""img/food4.png"" style=""width:200px; border:14px solid green;"">","null","","","","","","","","","",""
"","image-keyboard-response","116","96438","0.0-116.0","39K0FND3AI14IIM0FMO9CV81FD2AMF","A12Q4BP1S02YWS","3JUDR1D0D6D4CARU3YX9Y3DK5DJ2QK","","959","img/food3.png","75","959","2","0","3","1","1,0.5,0,1,0.5,0,0.5,0,1","0,1,0.5,0,1,0.5,1,0.5,0","3","",""
"","html-keyboard-response","117","96744","0.0-117.0","39K0FND3AI14IIM0FMO9CV81FD2AMF","A12Q4BP1S02YWS","3JUDR1D0D6D4CARU3YX9Y3DK5DJ2QK","","null","<img src=""img/food3.png"" style=""width:200px;border:14px solid red;"">","null","","","","","","","","","",""
"","image-keyboard-response","118","96970","0.0-118.0","39K0FND3AI14IIM0FMO9CV81FD2AMF","A12Q4BP1S02YWS","3JUDR1D0D6D4CARU3YX9Y3DK5DJ2QK","","225","img/food2.png","74","227","1","0","1","1","1,0.5,0,1,0.5,0,0.5,0,1","0,1,0.5,0,1,0.5,1,0.5,0","3","",""
"","html-keyboard-response","119","97272","0.0-119.0","39K0FND3AI14IIM0FMO9CV81FD2AMF","A12Q4BP1S02YWS","3JUDR1D0D6D4CARU3YX9Y3DK5DJ2QK","","null","<img src=""img/food2.png"" style=""width:200px;border:14px solid red;"">","null","","","","","","","","","",""
"","image-keyboard-response","120","97799","0.0-120.0","39K0FND3AI14IIM0FMO9CV81FD2AMF","A12Q4BP1S02YWS","3JUDR1D0D6D4CARU3YX9Y3DK5DJ2QK","","524","img/food3.png","76","527","3","0","3","1","1,0.5,0,1,0.5,0,0.5,0,1","0,1,0.5,0,1,0.5,1,0.5,0","3","",""
"","html-keyboard-response","121","98109","0.0-121.0","39K0FND3AI14IIM0FMO9CV81FD2AMF","A12Q4BP1S02YWS","3JUDR1D0D6D4CARU3YX9Y3DK5DJ2QK","","null","<img src=""img/food3.png"" style=""width:200px;border:14px solid red;"">","null","","","","","","","","","",""
"","image-keyboard-response","122","98455","0.0-122.0","39K0FND3AI14IIM0FMO9CV81FD2AMF","A12Q4BP1S02YWS","3JUDR1D0D6D4CARU3YX9Y3DK5DJ2QK","","339","img/food2.png","75","344","2","1","1","1","1,0.5,0,1,0.5,0,0.5,0,1","0,1,0.5,0,1,0.5,1,0.5,0","3","",""
"","html-keyboard-response","123","98761","0.0-123.0","39K0FND3AI14IIM0FMO9CV81FD2AMF","A12Q4BP1S02YWS","3JUDR1D0D6D4CARU3YX9Y3DK5DJ2QK","","null","<img src=""img/food2.png"" style=""width:200px; border:14px solid green;"">","null","","","","","","","","","",""
"","image-keyboard-response","124","99475","0.0-124.0","39K0FND3AI14IIM0FMO9CV81FD2AMF","A12Q4BP1S02YWS","3JUDR1D0D6D4CARU3YX9Y3DK5DJ2QK","","712","img/food4.png","74","713","1","0","2","1","1,0.5,0,1,0.5,0,0.5,0,1","0,1,0.5,0,1,0.5,1,0.5,0","3","",""
"","html-keyboard-response","125","99778","0.0-125.0","39K0FND3AI14IIM0FMO9CV81FD2AMF","A12Q4BP1S02YWS","3JUDR1D0D6D4CARU3YX9Y3DK5DJ2QK","","null","<img src=""img/food4.png"" style=""width:200px;border:14px solid red;"">","null","","","","","","","","","",""
"","image-keyboard-response","126","100113","0.0-126.0","39K0FND3AI14IIM0FMO9CV81FD2AMF","A12Q4BP1S02YWS","3JUDR1D0D6D4CARU3YX9Y3DK5DJ2QK","","331","img/food2.png","76","333","3","1","1","1","1,0.5,0,1,0.5,0,0.5,0,1","0,1,0.5,0,1,0.5,1,0.5,0","3","",""
"","html-keyboard-response","127","100415","0.0-127.0","39K0FND3AI14IIM0FMO9CV81FD2AMF","A12Q4BP1S02YWS","3JUDR1D0D6D4CARU3YX9Y3DK5DJ2QK","","null","<img src=""img/food2.png"" style=""width:200px; border:14px solid green;"">","null","","","","","","","","","",""
"","image-keyboard-response","128","101311","0.0-128.0","39K0FND3AI14IIM0FMO9CV81FD2AMF","A12Q4BP1S02YWS","3JUDR1D0D6D4CARU3YX9Y3DK5DJ2QK","","890","img/food3.png","75","894","2","0","3","1","1,0.5,0,1,0.5,0,0.5,0,1","0,1,0.5,0,1,0.5,1,0.5,0","3","",""
"","html-keyboard-response","129","101615","0.0-129.0","39K0FND3AI14IIM0FMO9CV81FD2AMF","A12Q4BP1S02YWS","3JUDR1D0D6D4CARU3YX9Y3DK5DJ2QK","","null","<img src=""img/food3.png"" style=""width:200px;border:14px solid red;"">","null","","","","","","","","","",""
"","image-keyboard-response","130","102115","0.0-130.0","39K0FND3AI14IIM0FMO9CV81FD2AMF","A12Q4BP1S02YWS","3JUDR1D0D6D4CARU3YX9Y3DK5DJ2QK","","495","img/food4.png","75","500","2","1","2","1","1,0.5,0,1,0.5,0,0.5,0,1","0,1,0.5,0,1,0.5,1,0.5,0","3","",""
"","html-keyboard-response","131","102416","0.0-131.0","39K0FND3AI14IIM0FMO9CV81FD2AMF","A12Q4BP1S02YWS","3JUDR1D0D6D4CARU3YX9Y3DK5DJ2QK","","null","<img src=""img/food4.png"" style=""width:200px; border:14px solid green;"">","null","","","","","","","","","",""
"","image-keyboard-response","132","103766","0.0-132.0","39K0FND3AI14IIM0FMO9CV81FD2AMF","A12Q4BP1S02YWS","3JUDR1D0D6D4CARU3YX9Y3DK5DJ2QK","","1348","img/food2.png","75","1349","2","1","1","1","1,0.5,0,1,0.5,0,0.5,0,1","0,1,0.5,0,1,0.5,1,0.5,0","3","",""
"","html-keyboard-response","133","104074","0.0-133.0","39K0FND3AI14IIM0FMO9CV81FD2AMF","A12Q4BP1S02YWS","3JUDR1D0D6D4CARU3YX9Y3DK5DJ2QK","","null","<img src=""img/food2.png"" style=""width:200px; border:14px solid green;"">","null","","","","","","","","","",""
"","image-keyboard-response","134","105177","0.0-134.0","39K0FND3AI14IIM0FMO9CV81FD2AMF","A12Q4BP1S02YWS","3JUDR1D0D6D4CARU3YX9Y3DK5DJ2QK","","1098","img/food4.png","75","1101","2","1","2","1","1,0.5,0,1,0.5,0,0.5,0,1","0,1,0.5,0,1,0.5,1,0.5,0","3","",""
"","html-keyboard-response","135","105480","0.0-135.0","39K0FND3AI14IIM0FMO9CV81FD2AMF","A12Q4BP1S02YWS","3JUDR1D0D6D4CARU3YX9Y3DK5DJ2QK","","null","<img src=""img/food4.png"" style=""width:200px; border:14px solid green;"">","null","","","","","","","","","",""
"","image-keyboard-response","136","106830","0.0-136.0","39K0FND3AI14IIM0FMO9CV81FD2AMF","A12Q4BP1S02YWS","3JUDR1D0D6D4CARU3YX9Y3DK5DJ2QK","","1348","img/food3.png","74","1350","1","1","3","1","1,0.5,0,1,0.5,0,0.5,0,1","0,1,0.5,0,1,0.5,1,0.5,0","3","",""
"","html-keyboard-response","137","107152","0.0-137.0","39K0FND3AI14IIM0FMO9CV81FD2AMF","A12Q4BP1S02YWS","3JUDR1D0D6D4CARU3YX9Y3DK5DJ2QK","","null","<img src=""img/food3.png"" style=""width:200px; border:14px solid green;"">","null","","","","","","","","","",""
"","image-keyboard-response","138","108383","0.0-138.0","39K0FND3AI14IIM0FMO9CV81FD2AMF","A12Q4BP1S02YWS","3JUDR1D0D6D4CARU3YX9Y3DK5DJ2QK","","1229","img/food4.png","76","1231","3","1","2","1","1,0.5,0,1,0.5,0,0.5,0,1","0,1,0.5,0,1,0.5,1,0.5,0","3","",""
"","html-keyboard-response","139","108689","0.0-139.0","39K0FND3AI14IIM0FMO9CV81FD2AMF","A12Q4BP1S02YWS","3JUDR1D0D6D4CARU3YX9Y3DK5DJ2QK","","null","<img src=""img/food4.png"" style=""width:200px; border:14px solid green;"">","null","","","","","","","","","",""
"","image-keyboard-response","140","109752","0.0-140.0","39K0FND3AI14IIM0FMO9CV81FD2AMF","A12Q4BP1S02YWS","3JUDR1D0D6D4CARU3YX9Y3DK5DJ2QK","","1057","img/food3.png","75","1061","2","1","3","1","1,0.5,0,1,0.5,0,0.5,0,1","0,1,0.5,0,1,0.5,1,0.5,0","3","",""
"","html-keyboard-response","141","110056","0.0-141.0","39K0FND3AI14IIM0FMO9CV81FD2AMF","A12Q4BP1S02YWS","3JUDR1D0D6D4CARU3YX9Y3DK5DJ2QK","","null","<img src=""img/food3.png"" style=""width:200px; border:14px solid green;"">","null","","","","","","","","","",""
"","image-keyboard-response","142","110925","0.0-142.0","39K0FND3AI14IIM0FMO9CV81FD2AMF","A12Q4BP1S02YWS","3JUDR1D0D6D4CARU3YX9Y3DK5DJ2QK","","866","img/food4.png","74","868","1","0","2","1","1,0.5,0,1,0.5,0,0.5,0,1","0,1,0.5,0,1,0.5,1,0.5,0","3","",""
"","html-keyboard-response","143","111227","0.0-143.0","39K0FND3AI14IIM0FMO9CV81FD2AMF","A12Q4BP1S02YWS","3JUDR1D0D6D4CARU3YX9Y3DK5DJ2QK","","null","<img src=""img/food4.png"" style=""width:200px;border:14px solid red;"">","null","","","","","","","","","",""
"","image-keyboard-response","144","112524","0.0-144.0","39K0FND3AI14IIM0FMO9CV81FD2AMF","A12Q4BP1S02YWS","3JUDR1D0D6D4CARU3YX9Y3DK5DJ2QK","","1295","img/food2.png","75","1296","2","1","1","1","1,0.5,0,1,0.5,0,0.5,0,1","0,1,0.5,0,1,0.5,1,0.5,0","3","",""
"","html-keyboard-response","145","112825","0.0-145.0","39K0FND3AI14IIM0FMO9CV81FD2AMF","A12Q4BP1S02YWS","3JUDR1D0D6D4CARU3YX9Y3DK5DJ2QK","","null","<img src=""img/food2.png"" style=""width:200px; border:14px solid green;"">","null","","","","","","","","","",""
"","image-keyboard-response","146","114133","0.0-146.0","39K0FND3AI14IIM0FMO9CV81FD2AMF","A12Q4BP1S02YWS","3JUDR1D0D6D4CARU3YX9Y3DK5DJ2QK","","1305","img/food2.png","75","1308","2","1","1","1","1,0.5,0,1,0.5,0,0.5,0,1","0,1,0.5,0,1,0.5,1,0.5,0","3","",""
"","html-keyboard-response","147","114437","0.0-147.0","39K0FND3AI14IIM0FMO9CV81FD2AMF","A12Q4BP1S02YWS","3JUDR1D0D6D4CARU3YX9Y3DK5DJ2QK","","null","<img src=""img/food2.png"" style=""width:200px; border:14px solid green;"">","null","","","","","","","","","",""
"","image-keyboard-response","148","115216","0.0-148.0","39K0FND3AI14IIM0FMO9CV81FD2AMF","A12Q4BP1S02YWS","3JUDR1D0D6D4CARU3YX9Y3DK5DJ2QK","","775","img/food2.png","75","778","2","1","1","1","1,0.5,0,1,0.5,0,0.5,0,1","0,1,0.5,0,1,0.5,1,0.5,0","3","",""
"","html-keyboard-response","149","115519","0.0-149.0","39K0FND3AI14IIM0FMO9CV81FD2AMF","A12Q4BP1S02YWS","3JUDR1D0D6D4CARU3YX9Y3DK5DJ2QK","","null","<img src=""img/food2.png"" style=""width:200px; border:14px solid green;"">","null","","","","","","","","","",""
"","image-keyboard-response","150","117248","0.0-150.0","39K0FND3AI14IIM0FMO9CV81FD2AMF","A12Q4BP1S02YWS","3JUDR1D0D6D4CARU3YX9Y3DK5DJ2QK","","1725","img/food4.png","76","1728","3","0","2","1","1,0.5,0,1,0.5,0,0.5,0,1","0,1,0.5,0,1,0.5,1,0.5,0","3","",""
"","html-keyboard-response","151","117557","0.0-151.0","39K0FND3AI14IIM0FMO9CV81FD2AMF","A12Q4BP1S02YWS","3JUDR1D0D6D4CARU3YX9Y3DK5DJ2QK","","null","<img src=""img/food4.png"" style=""width:200px;border:14px solid red;"">","null","","","","","","","","","",""
"","image-keyboard-response","152","118207","0.0-152.0","39K0FND3AI14IIM0FMO9CV81FD2AMF","A12Q4BP1S02YWS","3JUDR1D0D6D4CARU3YX9Y3DK5DJ2QK","","648","img/food3.png","74","651","1","1","3","1","1,0.5,0,1,0.5,0,0.5,0,1","0,1,0.5,0,1,0.5,1,0.5,0","3","",""
"","html-keyboard-response","153","118510","0.0-153.0","39K0FND3AI14IIM0FMO9CV81FD2AMF","A12Q4BP1S02YWS","3JUDR1D0D6D4CARU3YX9Y3DK5DJ2QK","","null","<img src=""img/food3.png"" style=""width:200px; border:14px solid green;"">","null","","","","","","","","","",""
"","image-keyboard-response","154","119512","0.0-154.0","39K0FND3AI14IIM0FMO9CV81FD2AMF","A12Q4BP1S02YWS","3JUDR1D0D6D4CARU3YX9Y3DK5DJ2QK","","1001","img/food3.png","74","1001","1","1","3","1","1,0.5,0,1,0.5,0,0.5,0,1","0,1,0.5,0,1,0.5,1,0.5,0","3","",""
"","html-keyboard-response","155","119814","0.0-155.0","39K0FND3AI14IIM0FMO9CV81FD2AMF","A12Q4BP1S02YWS","3JUDR1D0D6D4CARU3YX9Y3DK5DJ2QK","","null","<img src=""img/food3.png"" style=""width:200px; border:14px solid green;"">","null","","","","","","","","","",""
"","image-keyboard-response","156","120543","0.0-156.0","39K0FND3AI14IIM0FMO9CV81FD2AMF","A12Q4BP1S02YWS","3JUDR1D0D6D4CARU3YX9Y3DK5DJ2QK","","728","img/food3.png","74","729","1","1","3","1","1,0.5,0,1,0.5,0,0.5,0,1","0,1,0.5,0,1,0.5,1,0.5,0","3","",""
"","html-keyboard-response","157","120844","0.0-157.0","39K0FND3AI14IIM0FMO9CV81FD2AMF","A12Q4BP1S02YWS","3JUDR1D0D6D4CARU3YX9Y3DK5DJ2QK","","null","<img src=""img/food3.png"" style=""width:200px; border:14px solid green;"">","null","","","","","","","","","",""
"","image-keyboard-response","158","121627","0.0-158.0","39K0FND3AI14IIM0FMO9CV81FD2AMF","A12Q4BP1S02YWS","3JUDR1D0D6D4CARU3YX9Y3DK5DJ2QK","","778","img/food3.png","74","779","1","1","3","1","1,0.5,0,1,0.5,0,0.5,0,1","0,1,0.5,0,1,0.5,1,0.5,0","3","",""
"","html-keyboard-response","159","121930","0.0-159.0","39K0FND3AI14IIM0FMO9CV81FD2AMF","A12Q4BP1S02YWS","3JUDR1D0D6D4CARU3YX9Y3DK5DJ2QK","","null","<img src=""img/food3.png"" style=""width:200px; border:14px solid green;"">","null","","","","","","","","","",""
"","image-keyboard-response","160","122949","0.0-160.0","39K0FND3AI14IIM0FMO9CV81FD2AMF","A12Q4BP1S02YWS","3JUDR1D0D6D4CARU3YX9Y3DK5DJ2QK","","1017","img/food2.png","75","1019","2","1","1","1","1,0.5,0,1,0.5,0,0.5,0,1","0,1,0.5,0,1,0.5,1,0.5,0","3","",""
"","html-keyboard-response","161","123255","0.0-161.0","39K0FND3AI14IIM0FMO9CV81FD2AMF","A12Q4BP1S02YWS","3JUDR1D0D6D4CARU3YX9Y3DK5DJ2QK","","null","<img src=""img/food2.png"" style=""width:200px; border:14px solid green;"">","null","","","","","","","","","",""
"","image-keyboard-response","162","123818","0.0-162.0","39K0FND3AI14IIM0FMO9CV81FD2AMF","A12Q4BP1S02YWS","3JUDR1D0D6D4CARU3YX9Y3DK5DJ2QK","","560","img/food3.png","75","562","2","1","3","1","1,0.5,0,1,0.5,0,0.5,0,1","0,1,0.5,0,1,0.5,1,0.5,0","3","",""
"","html-keyboard-response","163","124120","0.0-163.0","39K0FND3AI14IIM0FMO9CV81FD2AMF","A12Q4BP1S02YWS","3JUDR1D0D6D4CARU3YX9Y3DK5DJ2QK","","null","<img src=""img/food3.png"" style=""width:200px; border:14px solid green;"">","null","","","","","","","","","",""
"","image-keyboard-response","164","125591","0.0-164.0","39K0FND3AI14IIM0FMO9CV81FD2AMF","A12Q4BP1S02YWS","3JUDR1D0D6D4CARU3YX9Y3DK5DJ2QK","","1467","img/food3.png","75","1470","2","0","3","1","1,0.5,0,1,0.5,0,0.5,0,1","0,1,0.5,0,1,0.5,1,0.5,0","3","",""
"","html-keyboard-response","165","125894","0.0-165.0","39K0FND3AI14IIM0FMO9CV81FD2AMF","A12Q4BP1S02YWS","3JUDR1D0D6D4CARU3YX9Y3DK5DJ2QK","","null","<img src=""img/food3.png"" style=""width:200px;border:14px solid red;"">","null","","","","","","","","","",""
"","image-keyboard-response","166","126665","0.0-166.0","39K0FND3AI14IIM0FMO9CV81FD2AMF","A12Q4BP1S02YWS","3JUDR1D0D6D4CARU3YX9Y3DK5DJ2QK","","768","img/food3.png","74","769","1","1","3","1","1,0.5,0,1,0.5,0,0.5,0,1","0,1,0.5,0,1,0.5,1,0.5,0","3","",""
"","html-keyboard-response","167","126967","0.0-167.0","39K0FND3AI14IIM0FMO9CV81FD2AMF","A12Q4BP1S02YWS","3JUDR1D0D6D4CARU3YX9Y3DK5DJ2QK","","null","<img src=""img/food3.png"" style=""width:200px; border:14px solid green;"">","null","","","","","","","","","",""
"","image-keyboard-response","168","127456","0.0-168.0","39K0FND3AI14IIM0FMO9CV81FD2AMF","A12Q4BP1S02YWS","3JUDR1D0D6D4CARU3YX9Y3DK5DJ2QK","","486","img/food3.png","74","488","1","1","3","1","1,0.5,0,1,0.5,0,0.5,0,1","0,1,0.5,0,1,0.5,1,0.5,0","3","",""
"","html-keyboard-response","169","127758","0.0-169.0","39K0FND3AI14IIM0FMO9CV81FD2AMF","A12Q4BP1S02YWS","3JUDR1D0D6D4CARU3YX9Y3DK5DJ2QK","","null","<img src=""img/food3.png"" style=""width:200px; border:14px solid green;"">","null","","","","","","","","","",""
"","image-keyboard-response","170","128809","0.0-170.0","39K0FND3AI14IIM0FMO9CV81FD2AMF","A12Q4BP1S02YWS","3JUDR1D0D6D4CARU3YX9Y3DK5DJ2QK","","1048","img/food4.png","75","1050","2","1","2","1","1,0.5,0,1,0.5,0,0.5,0,1","0,1,0.5,0,1,0.5,1,0.5,0","3","",""
"","html-keyboard-response","171","129110","0.0-171.0","39K0FND3AI14IIM0FMO9CV81FD2AMF","A12Q4BP1S02YWS","3JUDR1D0D6D4CARU3YX9Y3DK5DJ2QK","","null","<img src=""img/food4.png"" style=""width:200px; border:14px solid green;"">","null","","","","","","","","","",""
"","image-keyboard-response","172","129827","0.0-172.0","39K0FND3AI14IIM0FMO9CV81FD2AMF","A12Q4BP1S02YWS","3JUDR1D0D6D4CARU3YX9Y3DK5DJ2QK","","716","img/food4.png","75","716","2","1","2","1","1,0.5,0,1,0.5,0,0.5,0,1","0,1,0.5,0,1,0.5,1,0.5,0","3","",""
"","html-keyboard-response","173","130152","0.0-173.0","39K0FND3AI14IIM0FMO9CV81FD2AMF","A12Q4BP1S02YWS","3JUDR1D0D6D4CARU3YX9Y3DK5DJ2QK","","null","<img src=""img/food4.png"" style=""width:200px; border:14px solid green;"">","null","","","","","","","","","",""
"","image-keyboard-response","174","130802","0.0-174.0","39K0FND3AI14IIM0FMO9CV81FD2AMF","A12Q4BP1S02YWS","3JUDR1D0D6D4CARU3YX9Y3DK5DJ2QK","","649","img/food4.png","75","650","2","1","2","1","1,0.5,0,1,0.5,0,0.5,0,1","0,1,0.5,0,1,0.5,1,0.5,0","3","",""
"","html-keyboard-response","175","131116","0.0-175.0","39K0FND3AI14IIM0FMO9CV81FD2AMF","A12Q4BP1S02YWS","3JUDR1D0D6D4CARU3YX9Y3DK5DJ2QK","","null","<img src=""img/food4.png"" style=""width:200px; border:14px solid green;"">","null","","","","","","","","","",""
"","image-keyboard-response","176","132345","0.0-176.0","39K0FND3AI14IIM0FMO9CV81FD2AMF","A12Q4BP1S02YWS","3JUDR1D0D6D4CARU3YX9Y3DK5DJ2QK","","1228","img/food3.png","74","1230","1","1","3","1","1,0.5,0,1,0.5,0,0.5,0,1","0,1,0.5,0,1,0.5,1,0.5,0","3","",""
"","html-keyboard-response","177","132648","0.0-177.0","39K0FND3AI14IIM0FMO9CV81FD2AMF","A12Q4BP1S02YWS","3JUDR1D0D6D4CARU3YX9Y3DK5DJ2QK","","null","<img src=""img/food3.png"" style=""width:200px; border:14px solid green;"">","null","","","","","","","","","",""
"","image-keyboard-response","178","133264","0.0-178.0","39K0FND3AI14IIM0FMO9CV81FD2AMF","A12Q4BP1S02YWS","3JUDR1D0D6D4CARU3YX9Y3DK5DJ2QK","","613","img/food3.png","74","615","1","1","3","1","1,0.5,0,1,0.5,0,0.5,0,1","0,1,0.5,0,1,0.5,1,0.5,0","3","",""
"","html-keyboard-response","179","133567","0.0-179.0","39K0FND3AI14IIM0FMO9CV81FD2AMF","A12Q4BP1S02YWS","3JUDR1D0D6D4CARU3YX9Y3DK5DJ2QK","","null","<img src=""img/food3.png"" style=""width:200px; border:14px solid green;"">","null","","","","","","","","","",""
"","image-keyboard-response","180","134610","0.0-180.0","39K0FND3AI14IIM0FMO9CV81FD2AMF","A12Q4BP1S02YWS","3JUDR1D0D6D4CARU3YX9Y3DK5DJ2QK","","1042","img/food4.png","75","1043","2","1","2","1","1,0.5,0,1,0.5,0,0.5,0,1","0,1,0.5,0,1,0.5,1,0.5,0","3","",""
"","html-keyboard-response","181","134914","0.0-181.0","39K0FND3AI14IIM0FMO9CV81FD2AMF","A12Q4BP1S02YWS","3JUDR1D0D6D4CARU3YX9Y3DK5DJ2QK","","null","<img src=""img/food4.png"" style=""width:200px; border:14px solid green;"">","null","","","","","","","","","",""
"","html-keyboard-response","182","138053","0.0-182.0","39K0FND3AI14IIM0FMO9CV81FD2AMF","A12Q4BP1S02YWS","3JUDR1D0D6D4CARU3YX9Y3DK5DJ2QK","","","","","","","","","","","","","",""
"","instructions","183","143972","0.0-183.0","39K0FND3AI14IIM0FMO9CV81FD2AMF","A12Q4BP1S02YWS","3JUDR1D0D6D4CARU3YX9Y3DK5DJ2QK","[{""page_index"":0,""viewing_time"":3153},{""page_index"":1,""viewing_time"":2762}]","5916","","","","","","","","","","","",""
"","image-keyboard-response","184","144977","0.0-184.0","39K0FND3AI14IIM0FMO9CV81FD2AMF","A12Q4BP1S02YWS","3JUDR1D0D6D4CARU3YX9Y3DK5DJ2QK","","","img/food1.png","","1003","-1","0","2","2","1,0.5,0,1,0.5,0,0.5,0,1","0.5,0,1,0.5,0,1,0,1,0.5","2","true",""
"","html-keyboard-response","185","145284","0.0-185.0","39K0FND3AI14IIM0FMO9CV81FD2AMF","A12Q4BP1S02YWS","3JUDR1D0D6D4CARU3YX9Y3DK5DJ2QK","","null","<img src=""img/food1.png"" style=""width:200px;border:14px solid red;"">","null","","","","","","","","","",""
"","html-keyboard-response","186","148781","0.0-186.0-0.0","39K0FND3AI14IIM0FMO9CV81FD2AMF","A12Q4BP1S02YWS","3JUDR1D0D6D4CARU3YX9Y3DK5DJ2QK","","","","","","","","","","","","","",""
"","image-keyboard-response","187","149790","0.0-187.0","39K0FND3AI14IIM0FMO9CV81FD2AMF","A12Q4BP1S02YWS","3JUDR1D0D6D4CARU3YX9Y3DK5DJ2QK","","","img/food6.png","","1008","-1","0","1","2","1,0.5,0,1,0.5,0,0.5,0,1","0.5,0,1,0.5,0,1,0,1,0.5","2","true",""
"","html-keyboard-response","188","150094","0.0-188.0","39K0FND3AI14IIM0FMO9CV81FD2AMF","A12Q4BP1S02YWS","3JUDR1D0D6D4CARU3YX9Y3DK5DJ2QK","","null","<img src=""img/food6.png"" style=""width:200px;border:14px solid red;"">","null","","","","","","","","","",""
"","html-keyboard-response","189","152679","0.0-189.0-0.0","39K0FND3AI14IIM0FMO9CV81FD2AMF","A12Q4BP1S02YWS","3JUDR1D0D6D4CARU3YX9Y3DK5DJ2QK","","","","","","","","","","","","","",""
"","image-keyboard-response","190","153583","0.0-190.0","39K0FND3AI14IIM0FMO9CV81FD2AMF","A12Q4BP1S02YWS","3JUDR1D0D6D4CARU3YX9Y3DK5DJ2QK","","899","img/food5.png","75","903","2","1","3","2","1,0.5,0,1,0.5,0,0.5,0,1","0.5,0,1,0.5,0,1,0,1,0.5","2","false",""
"","html-keyboard-response","191","153890","0.0-191.0","39K0FND3AI14IIM0FMO9CV81FD2AMF","A12Q4BP1S02YWS","3JUDR1D0D6D4CARU3YX9Y3DK5DJ2QK","","null","<img src=""img/food5.png"" style=""width:200px; border:14px solid green;"">","null","","","","","","","","","",""
"","image-keyboard-response","192","154898","0.0-193.0","39K0FND3AI14IIM0FMO9CV81FD2AMF","A12Q4BP1S02YWS","3JUDR1D0D6D4CARU3YX9Y3DK5DJ2QK","","","img/food1.png","","1003","-1","0","2","2","1,0.5,0,1,0.5,0,0.5,0,1","0.5,0,1,0.5,0,1,0,1,0.5","2","true",""
"","html-keyboard-response","193","155200","0.0-194.0","39K0FND3AI14IIM0FMO9CV81FD2AMF","A12Q4BP1S02YWS","3JUDR1D0D6D4CARU3YX9Y3DK5DJ2QK","","null","<img src=""img/food1.png"" style=""width:200px;border:14px solid red;"">","null","","","","","","","","","",""
"","html-keyboard-response","194","157774","0.0-195.0-0.0","39K0FND3AI14IIM0FMO9CV81FD2AMF","A12Q4BP1S02YWS","3JUDR1D0D6D4CARU3YX9Y3DK5DJ2QK","","","","","","","","","","","","","",""
"","image-keyboard-response","195","158779","0.0-196.0","39K0FND3AI14IIM0FMO9CV81FD2AMF","A12Q4BP1S02YWS","3JUDR1D0D6D4CARU3YX9Y3DK5DJ2QK","","","img/food1.png","","1004","-1","0","2","2","1,0.5,0,1,0.5,0,0.5,0,1","0.5,0,1,0.5,0,1,0,1,0.5","2","true",""
"","html-keyboard-response","196","159083","0.0-197.0","39K0FND3AI14IIM0FMO9CV81FD2AMF","A12Q4BP1S02YWS","3JUDR1D0D6D4CARU3YX9Y3DK5DJ2QK","","null","<img src=""img/food1.png"" style=""width:200px;border:14px solid red;"">","null","","","","","","","","","",""
"","html-keyboard-response","197","160605","0.0-198.0-0.0","39K0FND3AI14IIM0FMO9CV81FD2AMF","A12Q4BP1S02YWS","3JUDR1D0D6D4CARU3YX9Y3DK5DJ2QK","","","","","","","","","","","","","",""
"","image-keyboard-response","198","161611","0.0-199.0","39K0FND3AI14IIM0FMO9CV81FD2AMF","A12Q4BP1S02YWS","3JUDR1D0D6D4CARU3YX9Y3DK5DJ2QK","","","img/food1.png","","1004","-1","0","2","2","1,0.5,0,1,0.5,0,0.5,0,1","0.5,0,1,0.5,0,1,0,1,0.5","2","true",""
"","html-keyboard-response","199","161915","0.0-200.0","39K0FND3AI14IIM0FMO9CV81FD2AMF","A12Q4BP1S02YWS","3JUDR1D0D6D4CARU3YX9Y3DK5DJ2QK","","null","<img src=""img/food1.png"" style=""width:200px;border:14px solid red;"">","null","","","","","","","","","",""
"","html-keyboard-response","200","163353","0.0-201.0-0.0","39K0FND3AI14IIM0FMO9CV81FD2AMF","A12Q4BP1S02YWS","3JUDR1D0D6D4CARU3YX9Y3DK5DJ2QK","","","","","","","","","","","","","",""
"","image-keyboard-response","201","164032","0.0-202.0","39K0FND3AI14IIM0FMO9CV81FD2AMF","A12Q4BP1S02YWS","3JUDR1D0D6D4CARU3YX9Y3DK5DJ2QK","","677","img/food6.png","75","679","2","0","1","2","1,0.5,0,1,0.5,0,0.5,0,1","0.5,0,1,0.5,0,1,0,1,0.5","2","false",""
"","html-keyboard-response","202","164335","0.0-203.0","39K0FND3AI14IIM0FMO9CV81FD2AMF","A12Q4BP1S02YWS","3JUDR1D0D6D4CARU3YX9Y3DK5DJ2QK","","null","<img src=""img/food6.png"" style=""width:200px;border:14px solid red;"">","null","","","","","","","","","",""
"","image-keyboard-response","203","165099","0.0-205.0","39K0FND3AI14IIM0FMO9CV81FD2AMF","A12Q4BP1S02YWS","3JUDR1D0D6D4CARU3YX9Y3DK5DJ2QK","","759","img/food5.png","76","763","3","1","3","2","1,0.5,0,1,0.5,0,0.5,0,1","0.5,0,1,0.5,0,1,0,1,0.5","2","false",""
"","html-keyboard-response","204","165402","0.0-206.0","39K0FND3AI14IIM0FMO9CV81FD2AMF","A12Q4BP1S02YWS","3JUDR1D0D6D4CARU3YX9Y3DK5DJ2QK","","null","<img src=""img/food5.png"" style=""width:200px; border:14px solid green;"">","null","","","","","","","","","",""
"","image-keyboard-response","205","166406","0.0-208.0","39K0FND3AI14IIM0FMO9CV81FD2AMF","A12Q4BP1S02YWS","3JUDR1D0D6D4CARU3YX9Y3DK5DJ2QK","","","img/food1.png","","1002","-1","0","2","2","1,0.5,0,1,0.5,0,0.5,0,1","0.5,0,1,0.5,0,1,0,1,0.5","2","true",""
"","html-keyboard-response","206","166728","0.0-209.0","39K0FND3AI14IIM0FMO9CV81FD2AMF","A12Q4BP1S02YWS","3JUDR1D0D6D4CARU3YX9Y3DK5DJ2QK","","null","<img src=""img/food1.png"" style=""width:200px;border:14px solid red;"">","null","","","","","","","","","",""
"","html-keyboard-response","207","169861","0.0-210.0-0.0","39K0FND3AI14IIM0FMO9CV81FD2AMF","A12Q4BP1S02YWS","3JUDR1D0D6D4CARU3YX9Y3DK5DJ2QK","","","","","","","","","","","","","",""
"","image-keyboard-response","208","170802","0.0-211.0","39K0FND3AI14IIM0FMO9CV81FD2AMF","A12Q4BP1S02YWS","3JUDR1D0D6D4CARU3YX9Y3DK5DJ2QK","","936","img/food6.png","75","938","2","0","1","2","1,0.5,0,1,0.5,0,0.5,0,1","0.5,0,1,0.5,0,1,0,1,0.5","2","false",""
"","html-keyboard-response","209","171107","0.0-212.0","39K0FND3AI14IIM0FMO9CV81FD2AMF","A12Q4BP1S02YWS","3JUDR1D0D6D4CARU3YX9Y3DK5DJ2QK","","null","<img src=""img/food6.png"" style=""width:200px;border:14px solid red;"">","null","","","","","","","","","",""
"","image-keyboard-response","210","171609","0.0-214.0","39K0FND3AI14IIM0FMO9CV81FD2AMF","A12Q4BP1S02YWS","3JUDR1D0D6D4CARU3YX9Y3DK5DJ2QK","","499","img/food6.png","76","500","3","1","1","2","1,0.5,0,1,0.5,0,0.5,0,1","0.5,0,1,0.5,0,1,0,1,0.5","2","false",""
"","html-keyboard-response","211","171912","0.0-215.0","39K0FND3AI14IIM0FMO9CV81FD2AMF","A12Q4BP1S02YWS","3JUDR1D0D6D4CARU3YX9Y3DK5DJ2QK","","null","<img src=""img/food6.png"" style=""width:200px; border:14px solid green;"">","null","","","","","","","","","",""
"","image-keyboard-response","212","172663","0.0-217.0","39K0FND3AI14IIM0FMO9CV81FD2AMF","A12Q4BP1S02YWS","3JUDR1D0D6D4CARU3YX9Y3DK5DJ2QK","","746","img/food5.png","74","749","1","0","3","2","1,0.5,0,1,0.5,0,0.5,0,1","0.5,0,1,0.5,0,1,0,1,0.5","2","false",""
"","html-keyboard-response","213","172968","0.0-218.0","39K0FND3AI14IIM0FMO9CV81FD2AMF","A12Q4BP1S02YWS","3JUDR1D0D6D4CARU3YX9Y3DK5DJ2QK","","null","<img src=""img/food5.png"" style=""width:200px;border:14px solid red;"">","null","","","","","","","","","",""
"","image-keyboard-response","214","173586","0.0-220.0","39K0FND3AI14IIM0FMO9CV81FD2AMF","A12Q4BP1S02YWS","3JUDR1D0D6D4CARU3YX9Y3DK5DJ2QK","","614","img/food1.png","75","616","2","0","2","2","1,0.5,0,1,0.5,0,0.5,0,1","0.5,0,1,0.5,0,1,0,1,0.5","2","false",""
"","html-keyboard-response","215","173890","0.0-221.0","39K0FND3AI14IIM0FMO9CV81FD2AMF","A12Q4BP1S02YWS","3JUDR1D0D6D4CARU3YX9Y3DK5DJ2QK","","null","<img src=""img/food1.png"" style=""width:200px;border:14px solid red;"">","null","","","","","","","","","",""
"","image-keyboard-response","216","174495","0.0-223.0","39K0FND3AI14IIM0FMO9CV81FD2AMF","A12Q4BP1S02YWS","3JUDR1D0D6D4CARU3YX9Y3DK5DJ2QK","","599","img/food1.png","76","603","3","1","2","2","1,0.5,0,1,0.5,0,0.5,0,1","0.5,0,1,0.5,0,1,0,1,0.5","2","false",""
"","html-keyboard-response","217","174797","0.0-224.0","39K0FND3AI14IIM0FMO9CV81FD2AMF","A12Q4BP1S02YWS","3JUDR1D0D6D4CARU3YX9Y3DK5DJ2QK","","null","<img src=""img/food1.png"" style=""width:200px; border:14px solid green;"">","null","","","","","","","","","",""
"","image-keyboard-response","218","175744","0.0-226.0","39K0FND3AI14IIM0FMO9CV81FD2AMF","A12Q4BP1S02YWS","3JUDR1D0D6D4CARU3YX9Y3DK5DJ2QK","","944","img/food1.png","76","946","3","1","2","2","1,0.5,0,1,0.5,0,0.5,0,1","0.5,0,1,0.5,0,1,0,1,0.5","2","false",""
"","html-keyboard-response","219","176046","0.0-227.0","39K0FND3AI14IIM0FMO9CV81FD2AMF","A12Q4BP1S02YWS","3JUDR1D0D6D4CARU3YX9Y3DK5DJ2QK","","null","<img src=""img/food1.png"" style=""width:200px; border:14px solid green;"">","null","","","","","","","","","",""
"","image-keyboard-response","220","177051","0.0-229.0","39K0FND3AI14IIM0FMO9CV81FD2AMF","A12Q4BP1S02YWS","3JUDR1D0D6D4CARU3YX9Y3DK5DJ2QK","","","img/food5.png","","1003","-1","0","3","2","1,0.5,0,1,0.5,0,0.5,0,1","0.5,0,1,0.5,0,1,0,1,0.5","2","true",""
"","html-keyboard-response","221","177354","0.0-230.0","39K0FND3AI14IIM0FMO9CV81FD2AMF","A12Q4BP1S02YWS","3JUDR1D0D6D4CARU3YX9Y3DK5DJ2QK","","null","<img src=""img/food5.png"" style=""width:200px;border:14px solid red;"">","null","","","","","","","","","",""
"","html-keyboard-response","222","178934","0.0-231.0-0.0","39K0FND3AI14IIM0FMO9CV81FD2AMF","A12Q4BP1S02YWS","3JUDR1D0D6D4CARU3YX9Y3DK5DJ2QK","","","","","","","","","","","","","",""
"","image-keyboard-response","223","179937","0.0-232.0","39K0FND3AI14IIM0FMO9CV81FD2AMF","A12Q4BP1S02YWS","3JUDR1D0D6D4CARU3YX9Y3DK5DJ2QK","","","img/food6.png","","1003","-1","0","1","2","1,0.5,0,1,0.5,0,0.5,0,1","0.5,0,1,0.5,0,1,0,1,0.5","2","true",""
"","html-keyboard-response","224","180240","0.0-233.0","39K0FND3AI14IIM0FMO9CV81FD2AMF","A12Q4BP1S02YWS","3JUDR1D0D6D4CARU3YX9Y3DK5DJ2QK","","null","<img src=""img/food6.png"" style=""width:200px;border:14px solid red;"">","null","","","","","","","","","",""
"","html-keyboard-response","225","182037","0.0-234.0-0.0","39K0FND3AI14IIM0FMO9CV81FD2AMF","A12Q4BP1S02YWS","3JUDR1D0D6D4CARU3YX9Y3DK5DJ2QK","","","","","","","","","","","","","",""
"","image-keyboard-response","226","182568","0.0-235.0","39K0FND3AI14IIM0FMO9CV81FD2AMF","A12Q4BP1S02YWS","3JUDR1D0D6D4CARU3YX9Y3DK5DJ2QK","","526","img/food6.png","75","529","2","0","1","2","1,0.5,0,1,0.5,0,0.5,0,1","0.5,0,1,0.5,0,1,0,1,0.5","2","false",""
"","html-keyboard-response","227","182871","0.0-236.0","39K0FND3AI14IIM0FMO9CV81FD2AMF","A12Q4BP1S02YWS","3JUDR1D0D6D4CARU3YX9Y3DK5DJ2QK","","null","<img src=""img/food6.png"" style=""width:200px;border:14px solid red;"">","null","","","","","","","","","",""
"","image-keyboard-response","228","183335","0.0-238.0","39K0FND3AI14IIM0FMO9CV81FD2AMF","A12Q4BP1S02YWS","3JUDR1D0D6D4CARU3YX9Y3DK5DJ2QK","","461","img/food5.png","74","463","1","0","3","2","1,0.5,0,1,0.5,0,0.5,0,1","0.5,0,1,0.5,0,1,0,1,0.5","2","false",""
"","html-keyboard-response","229","183637","0.0-239.0","39K0FND3AI14IIM0FMO9CV81FD2AMF","A12Q4BP1S02YWS","3JUDR1D0D6D4CARU3YX9Y3DK5DJ2QK","","null","<img src=""img/food5.png"" style=""width:200px;border:14px solid red;"">","null","","","","","","","","","",""
"","image-keyboard-response","230","183980","0.0-241.0","39K0FND3AI14IIM0FMO9CV81FD2AMF","A12Q4BP1S02YWS","3JUDR1D0D6D4CARU3YX9Y3DK5DJ2QK","","338","img/food6.png","76","340","3","1","1","2","1,0.5,0,1,0.5,0,0.5,0,1","0.5,0,1,0.5,0,1,0,1,0.5","2","false",""
"","html-keyboard-response","231","184283","0.0-242.0","39K0FND3AI14IIM0FMO9CV81FD2AMF","A12Q4BP1S02YWS","3JUDR1D0D6D4CARU3YX9Y3DK5DJ2QK","","null","<img src=""img/food6.png"" style=""width:200px; border:14px solid green;"">","null","","","","","","","","","",""
"","image-keyboard-response","232","185065","0.0-244.0","39K0FND3AI14IIM0FMO9CV81FD2AMF","A12Q4BP1S02YWS","3JUDR1D0D6D4CARU3YX9Y3DK5DJ2QK","","778","img/food1.png","75","780","2","0","2","2","1,0.5,0,1,0.5,0,0.5,0,1","0.5,0,1,0.5,0,1,0,1,0.5","2","false",""
"","html-keyboard-response","233","185368","0.0-245.0","39K0FND3AI14IIM0FMO9CV81FD2AMF","A12Q4BP1S02YWS","3JUDR1D0D6D4CARU3YX9Y3DK5DJ2QK","","null","<img src=""img/food1.png"" style=""width:200px;border:14px solid red;"">","null","","","","","","","","","",""
"","image-keyboard-response","234","185674","0.0-247.0","39K0FND3AI14IIM0FMO9CV81FD2AMF","A12Q4BP1S02YWS","3JUDR1D0D6D4CARU3YX9Y3DK5DJ2QK","","301","img/food1.png","74","304","1","0","2","2","1,0.5,0,1,0.5,0,0.5,0,1","0.5,0,1,0.5,0,1,0,1,0.5","2","false",""
"","html-keyboard-response","235","185986","0.0-248.0","39K0FND3AI14IIM0FMO9CV81FD2AMF","A12Q4BP1S02YWS","3JUDR1D0D6D4CARU3YX9Y3DK5DJ2QK","","null","<img src=""img/food1.png"" style=""width:200px;border:14px solid red;"">","null","","","","","","","","","",""
"","image-keyboard-response","236","186649","0.0-250.0","39K0FND3AI14IIM0FMO9CV81FD2AMF","A12Q4BP1S02YWS","3JUDR1D0D6D4CARU3YX9Y3DK5DJ2QK","","661","img/food5.png","74","662","1","0","3","2","1,0.5,0,1,0.5,0,0.5,0,1","0.5,0,1,0.5,0,1,0,1,0.5","2","false",""
"","html-keyboard-response","237","186951","0.0-251.0","39K0FND3AI14IIM0FMO9CV81FD2AMF","A12Q4BP1S02YWS","3JUDR1D0D6D4CARU3YX9Y3DK5DJ2QK","","null","<img src=""img/food5.png"" style=""width:200px;border:14px solid red;"">","null","","","","","","","","","",""
"","image-keyboard-response","238","187140","0.0-253.0","39K0FND3AI14IIM0FMO9CV81FD2AMF","A12Q4BP1S02YWS","3JUDR1D0D6D4CARU3YX9Y3DK5DJ2QK","","186","img/food6.png","75","187","2","0","1","2","1,0.5,0,1,0.5,0,0.5,0,1","0.5,0,1,0.5,0,1,0,1,0.5","2","false",""
"","html-keyboard-response","239","187442","0.0-254.0","39K0FND3AI14IIM0FMO9CV81FD2AMF","A12Q4BP1S02YWS","3JUDR1D0D6D4CARU3YX9Y3DK5DJ2QK","","null","<img src=""img/food6.png"" style=""width:200px;border:14px solid red;"">","null","","","","","","","","","",""
"","image-keyboard-response","240","187940","0.0-256.0","39K0FND3AI14IIM0FMO9CV81FD2AMF","A12Q4BP1S02YWS","3JUDR1D0D6D4CARU3YX9Y3DK5DJ2QK","","496","img/food1.png","76","498","3","1","2","2","1,0.5,0,1,0.5,0,0.5,0,1","0.5,0,1,0.5,0,1,0,1,0.5","2","false",""
"","html-keyboard-response","241","188241","0.0-257.0","39K0FND3AI14IIM0FMO9CV81FD2AMF","A12Q4BP1S02YWS","3JUDR1D0D6D4CARU3YX9Y3DK5DJ2QK","","null","<img src=""img/food1.png"" style=""width:200px; border:14px solid green;"">","null","","","","","","","","","",""
"","image-keyboard-response","242","188913","0.0-259.0","39K0FND3AI14IIM0FMO9CV81FD2AMF","A12Q4BP1S02YWS","3JUDR1D0D6D4CARU3YX9Y3DK5DJ2QK","","669","img/food1.png","75","671","2","0","2","2","1,0.5,0,1,0.5,0,0.5,0,1","0.5,0,1,0.5,0,1,0,1,0.5","2","false",""
"","html-keyboard-response","243","189215","0.0-260.0","39K0FND3AI14IIM0FMO9CV81FD2AMF","A12Q4BP1S02YWS","3JUDR1D0D6D4CARU3YX9Y3DK5DJ2QK","","null","<img src=""img/food1.png"" style=""width:200px;border:14px solid red;"">","null","","","","","","","","","",""
"","image-keyboard-response","244","189781","0.0-262.0","39K0FND3AI14IIM0FMO9CV81FD2AMF","A12Q4BP1S02YWS","3JUDR1D0D6D4CARU3YX9Y3DK5DJ2QK","","563","img/food1.png","76","565","3","1","2","2","1,0.5,0,1,0.5,0,0.5,0,1","0.5,0,1,0.5,0,1,0,1,0.5","2","false",""
"","html-keyboard-response","245","190085","0.0-263.0","39K0FND3AI14IIM0FMO9CV81FD2AMF","A12Q4BP1S02YWS","3JUDR1D0D6D4CARU3YX9Y3DK5DJ2QK","","null","<img src=""img/food1.png"" style=""width:200px; border:14px solid green;"">","null","","","","","","","","","",""
"","image-keyboard-response","246","191090","0.0-265.0","39K0FND3AI14IIM0FMO9CV81FD2AMF","A12Q4BP1S02YWS","3JUDR1D0D6D4CARU3YX9Y3DK5DJ2QK","","999","img/food5.png","75","1004","2","1","3","2","1,0.5,0,1,0.5,0,0.5,0,1","0.5,0,1,0.5,0,1,0,1,0.5","2","false",""
"","html-keyboard-response","247","191393","0.0-266.0","39K0FND3AI14IIM0FMO9CV81FD2AMF","A12Q4BP1S02YWS","3JUDR1D0D6D4CARU3YX9Y3DK5DJ2QK","","null","<img src=""img/food5.png"" style=""width:200px; border:14px solid green;"">","null","","","","","","","","","",""
"","image-keyboard-response","248","192397","0.0-268.0","39K0FND3AI14IIM0FMO9CV81FD2AMF","A12Q4BP1S02YWS","3JUDR1D0D6D4CARU3YX9Y3DK5DJ2QK","","","img/food6.png","","1002","-1","0","1","2","1,0.5,0,1,0.5,0,0.5,0,1","0.5,0,1,0.5,0,1,0,1,0.5","2","true",""
"","html-keyboard-response","249","192699","0.0-269.0","39K0FND3AI14IIM0FMO9CV81FD2AMF","A12Q4BP1S02YWS","3JUDR1D0D6D4CARU3YX9Y3DK5DJ2QK","","null","<img src=""img/food6.png"" style=""width:200px;border:14px solid red;"">","null","","","","","","","","","",""
"","html-keyboard-response","250","194130","0.0-270.0-0.0","39K0FND3AI14IIM0FMO9CV81FD2AMF","A12Q4BP1S02YWS","3JUDR1D0D6D4CARU3YX9Y3DK5DJ2QK","","","","","","","","","","","","","",""
"","image-keyboard-response","251","195133","0.0-271.0","39K0FND3AI14IIM0FMO9CV81FD2AMF","A12Q4BP1S02YWS","3JUDR1D0D6D4CARU3YX9Y3DK5DJ2QK","","","img/food5.png","","1002","-1","0","3","2","1,0.5,0,1,0.5,0,0.5,0,1","0.5,0,1,0.5,0,1,0,1,0.5","2","true",""
"","html-keyboard-response","252","195436","0.0-272.0","39K0FND3AI14IIM0FMO9CV81FD2AMF","A12Q4BP1S02YWS","3JUDR1D0D6D4CARU3YX9Y3DK5DJ2QK","","null","<img src=""img/food5.png"" style=""width:200px;border:14px solid red;"">","null","","","","","","","","","",""
"","html-keyboard-response","253","198228","0.0-273.0-0.0","39K0FND3AI14IIM0FMO9CV81FD2AMF","A12Q4BP1S02YWS","3JUDR1D0D6D4CARU3YX9Y3DK5DJ2QK","","","","","","","","","","","","","",""
"","image-keyboard-response","254","198986","0.0-274.0","39K0FND3AI14IIM0FMO9CV81FD2AMF","A12Q4BP1S02YWS","3JUDR1D0D6D4CARU3YX9Y3DK5DJ2QK","","753","img/food5.png","74","758","1","0","3","2","1,0.5,0,1,0.5,0,0.5,0,1","0.5,0,1,0.5,0,1,0,1,0.5","2","false",""
"","html-keyboard-response","255","199290","0.0-275.0","39K0FND3AI14IIM0FMO9CV81FD2AMF","A12Q4BP1S02YWS","3JUDR1D0D6D4CARU3YX9Y3DK5DJ2QK","","null","<img src=""img/food5.png"" style=""width:200px;border:14px solid red;"">","null","","","","","","","","","",""
"","image-keyboard-response","256","199745","0.0-277.0","39K0FND3AI14IIM0FMO9CV81FD2AMF","A12Q4BP1S02YWS","3JUDR1D0D6D4CARU3YX9Y3DK5DJ2QK","","450","img/food5.png","75","453","2","1","3","2","1,0.5,0,1,0.5,0,0.5,0,1","0.5,0,1,0.5,0,1,0,1,0.5","2","false",""
"","html-keyboard-response","257","200047","0.0-278.0","39K0FND3AI14IIM0FMO9CV81FD2AMF","A12Q4BP1S02YWS","3JUDR1D0D6D4CARU3YX9Y3DK5DJ2QK","","null","<img src=""img/food5.png"" style=""width:200px; border:14px solid green;"">","null","","","","","","","","","",""
"","image-keyboard-response","258","200491","0.0-280.0","39K0FND3AI14IIM0FMO9CV81FD2AMF","A12Q4BP1S02YWS","3JUDR1D0D6D4CARU3YX9Y3DK5DJ2QK","","439","img/food5.png","76","441","3","0","3","2","1,0.5,0,1,0.5,0,0.5,0,1","0.5,0,1,0.5,0,1,0,1,0.5","2","false",""
"","html-keyboard-response","259","200795","0.0-281.0","39K0FND3AI14IIM0FMO9CV81FD2AMF","A12Q4BP1S02YWS","3JUDR1D0D6D4CARU3YX9Y3DK5DJ2QK","","null","<img src=""img/food5.png"" style=""width:200px;border:14px solid red;"">","null","","","","","","","","","",""
"","image-keyboard-response","260","201253","0.0-283.0","39K0FND3AI14IIM0FMO9CV81FD2AMF","A12Q4BP1S02YWS","3JUDR1D0D6D4CARU3YX9Y3DK5DJ2QK","","455","img/food6.png","75","457","2","0","1","2","1,0.5,0,1,0.5,0,0.5,0,1","0.5,0,1,0.5,0,1,0,1,0.5","2","false",""
"","html-keyboard-response","261","201575","0.0-284.0","39K0FND3AI14IIM0FMO9CV81FD2AMF","A12Q4BP1S02YWS","3JUDR1D0D6D4CARU3YX9Y3DK5DJ2QK","","null","<img src=""img/food6.png"" style=""width:200px;border:14px solid red;"">","null","","","","","","","","","",""
"","image-keyboard-response","262","202318","0.0-286.0","39K0FND3AI14IIM0FMO9CV81FD2AMF","A12Q4BP1S02YWS","3JUDR1D0D6D4CARU3YX9Y3DK5DJ2QK","","740","img/food6.png","74","742","1","0","1","2","1,0.5,0,1,0.5,0,0.5,0,1","0.5,0,1,0.5,0,1,0,1,0.5","2","false",""
"","html-keyboard-response","263","202620","0.0-287.0","39K0FND3AI14IIM0FMO9CV81FD2AMF","A12Q4BP1S02YWS","3JUDR1D0D6D4CARU3YX9Y3DK5DJ2QK","","null","<img src=""img/food6.png"" style=""width:200px;border:14px solid red;"">","null","","","","","","","","","",""
"","image-keyboard-response","264","203038","0.0-289.0","39K0FND3AI14IIM0FMO9CV81FD2AMF","A12Q4BP1S02YWS","3JUDR1D0D6D4CARU3YX9Y3DK5DJ2QK","","416","img/food5.png","75","418","2","1","3","2","1,0.5,0,1,0.5,0,0.5,0,1","0.5,0,1,0.5,0,1,0,1,0.5","2","false",""
"","html-keyboard-response","265","203343","0.0-290.0","39K0FND3AI14IIM0FMO9CV81FD2AMF","A12Q4BP1S02YWS","3JUDR1D0D6D4CARU3YX9Y3DK5DJ2QK","","null","<img src=""img/food5.png"" style=""width:200px; border:14px solid green;"">","null","","","","","","","","","",""
"","image-keyboard-response","266","204349","0.0-292.0","39K0FND3AI14IIM0FMO9CV81FD2AMF","A12Q4BP1S02YWS","3JUDR1D0D6D4CARU3YX9Y3DK5DJ2QK","","","img/food6.png","","1003","-1","0","1","2","1,0.5,0,1,0.5,0,0.5,0,1","0.5,0,1,0.5,0,1,0,1,0.5","2","true",""
"","html-keyboard-response","267","204656","0.0-293.0","39K0FND3AI14IIM0FMO9CV81FD2AMF","A12Q4BP1S02YWS","3JUDR1D0D6D4CARU3YX9Y3DK5DJ2QK","","null","<img src=""img/food6.png"" style=""width:200px;border:14px solid red;"">","null","","","","","","","","","",""
"","html-keyboard-response","268","206075","0.0-294.0-0.0","39K0FND3AI14IIM0FMO9CV81FD2AMF","A12Q4BP1S02YWS","3JUDR1D0D6D4CARU3YX9Y3DK5DJ2QK","","","","","","","","","","","","","",""
"","image-keyboard-response","269","206934","0.0-295.0","39K0FND3AI14IIM0FMO9CV81FD2AMF","A12Q4BP1S02YWS","3JUDR1D0D6D4CARU3YX9Y3DK5DJ2QK","","853","img/food1.png","74","857","1","1","2","2","1,0.5,0,1,0.5,0,0.5,0,1","0.5,0,1,0.5,0,1,0,1,0.5","2","false",""
"","html-keyboard-response","270","207237","0.0-296.0","39K0FND3AI14IIM0FMO9CV81FD2AMF","A12Q4BP1S02YWS","3JUDR1D0D6D4CARU3YX9Y3DK5DJ2QK","","null","<img src=""img/food1.png"" style=""width:200px; border:14px solid green;"">","null","","","","","","","","","",""
"","image-keyboard-response","271","207699","0.0-298.0","39K0FND3AI14IIM0FMO9CV81FD2AMF","A12Q4BP1S02YWS","3JUDR1D0D6D4CARU3YX9Y3DK5DJ2QK","","459","img/food5.png","75","461","2","1","3","2","1,0.5,0,1,0.5,0,0.5,0,1","0.5,0,1,0.5,0,1,0,1,0.5","2","false",""
"","html-keyboard-response","272","208003","0.0-299.0","39K0FND3AI14IIM0FMO9CV81FD2AMF","A12Q4BP1S02YWS","3JUDR1D0D6D4CARU3YX9Y3DK5DJ2QK","","null","<img src=""img/food5.png"" style=""width:200px; border:14px solid green;"">","null","","","","","","","","","",""
"","image-keyboard-response","273","208958","0.0-301.0","39K0FND3AI14IIM0FMO9CV81FD2AMF","A12Q4BP1S02YWS","3JUDR1D0D6D4CARU3YX9Y3DK5DJ2QK","","953","img/food6.png","74","955","1","1","1","2","1,0.5,0,1,0.5,0,0.5,0,1","0.5,0,1,0.5,0,1,0,1,0.5","2","false",""
"","html-keyboard-response","274","209262","0.0-302.0","39K0FND3AI14IIM0FMO9CV81FD2AMF","A12Q4BP1S02YWS","3JUDR1D0D6D4CARU3YX9Y3DK5DJ2QK","","null","<img src=""img/food6.png"" style=""width:200px; border:14px solid green;"">","null","","","","","","","","","",""
"","image-keyboard-response","275","210057","0.0-304.0","39K0FND3AI14IIM0FMO9CV81FD2AMF","A12Q4BP1S02YWS","3JUDR1D0D6D4CARU3YX9Y3DK5DJ2QK","","792","img/food1.png","75","795","2","0","2","2","1,0.5,0,1,0.5,0,0.5,0,1","0.5,0,1,0.5,0,1,0,1,0.5","2","false",""
"","html-keyboard-response","276","210362","0.0-305.0","39K0FND3AI14IIM0FMO9CV81FD2AMF","A12Q4BP1S02YWS","3JUDR1D0D6D4CARU3YX9Y3DK5DJ2QK","","null","<img src=""img/food1.png"" style=""width:200px;border:14px solid red;"">","null","","","","","","","","","",""
"","image-keyboard-response","277","211366","0.0-307.0","39K0FND3AI14IIM0FMO9CV81FD2AMF","A12Q4BP1S02YWS","3JUDR1D0D6D4CARU3YX9Y3DK5DJ2QK","","","img/food5.png","","1002","-1","0","3","2","1,0.5,0,1,0.5,0,0.5,0,1","0.5,0,1,0.5,0,1,0,1,0.5","2","true",""
"","html-keyboard-response","278","211676","0.0-308.0","39K0FND3AI14IIM0FMO9CV81FD2AMF","A12Q4BP1S02YWS","3JUDR1D0D6D4CARU3YX9Y3DK5DJ2QK","","null","<img src=""img/food5.png"" style=""width:200px;border:14px solid red;"">","null","","","","","","","","","",""
"","html-keyboard-response","279","213232","0.0-309.0-0.0","39K0FND3AI14IIM0FMO9CV81FD2AMF","A12Q4BP1S02YWS","3JUDR1D0D6D4CARU3YX9Y3DK5DJ2QK","","","","","","","","","","","","","",""
"","image-keyboard-response","280","213822","0.0-310.0","39K0FND3AI14IIM0FMO9CV81FD2AMF","A12Q4BP1S02YWS","3JUDR1D0D6D4CARU3YX9Y3DK5DJ2QK","","586","img/food5.png","75","589","2","1","3","2","1,0.5,0,1,0.5,0,0.5,0,1","0.5,0,1,0.5,0,1,0,1,0.5","2","false",""
"","html-keyboard-response","281","214124","0.0-311.0","39K0FND3AI14IIM0FMO9CV81FD2AMF","A12Q4BP1S02YWS","3JUDR1D0D6D4CARU3YX9Y3DK5DJ2QK","","null","<img src=""img/food5.png"" style=""width:200px; border:14px solid green;"">","null","","","","","","","","","",""
"","image-keyboard-response","282","214401","0.0-313.0","39K0FND3AI14IIM0FMO9CV81FD2AMF","A12Q4BP1S02YWS","3JUDR1D0D6D4CARU3YX9Y3DK5DJ2QK","","274","img/food5.png","74","275","1","0","3","2","1,0.5,0,1,0.5,0,0.5,0,1","0.5,0,1,0.5,0,1,0,1,0.5","2","false",""
"","html-keyboard-response","283","214740","0.0-314.0","39K0FND3AI14IIM0FMO9CV81FD2AMF","A12Q4BP1S02YWS","3JUDR1D0D6D4CARU3YX9Y3DK5DJ2QK","","null","<img src=""img/food5.png"" style=""width:200px;border:14px solid red;"">","null","","","","","","","","","",""
"","image-keyboard-response","284","215175","0.0-316.0","39K0FND3AI14IIM0FMO9CV81FD2AMF","A12Q4BP1S02YWS","3JUDR1D0D6D4CARU3YX9Y3DK5DJ2QK","","422","img/food6.png","76","424","3","1","1","2","1,0.5,0,1,0.5,0,0.5,0,1","0.5,0,1,0.5,0,1,0,1,0.5","2","false",""
"","html-keyboard-response","285","215479","0.0-317.0","39K0FND3AI14IIM0FMO9CV81FD2AMF","A12Q4BP1S02YWS","3JUDR1D0D6D4CARU3YX9Y3DK5DJ2QK","","null","<img src=""img/food6.png"" style=""width:200px; border:14px solid green;"">","null","","","","","","","","","",""
"","image-keyboard-response","286","215677","0.0-319.0","39K0FND3AI14IIM0FMO9CV81FD2AMF","A12Q4BP1S02YWS","3JUDR1D0D6D4CARU3YX9Y3DK5DJ2QK","","194","img/food5.png","75","196","2","1","3","2","1,0.5,0,1,0.5,0,0.5,0,1","0.5,0,1,0.5,0,1,0,1,0.5","2","false",""
"","html-keyboard-response","287","215981","0.0-320.0","39K0FND3AI14IIM0FMO9CV81FD2AMF","A12Q4BP1S02YWS","3JUDR1D0D6D4CARU3YX9Y3DK5DJ2QK","","null","<img src=""img/food5.png"" style=""width:200px; border:14px solid green;"">","null","","","","","","","","","",""
"","image-keyboard-response","288","216358","0.0-322.0","39K0FND3AI14IIM0FMO9CV81FD2AMF","A12Q4BP1S02YWS","3JUDR1D0D6D4CARU3YX9Y3DK5DJ2QK","","374","img/food5.png","74","375","1","0","3","2","1,0.5,0,1,0.5,0,0.5,0,1","0.5,0,1,0.5,0,1,0,1,0.5","2","false",""
"","html-keyboard-response","289","216661","0.0-323.0","39K0FND3AI14IIM0FMO9CV81FD2AMF","A12Q4BP1S02YWS","3JUDR1D0D6D4CARU3YX9Y3DK5DJ2QK","","null","<img src=""img/food5.png"" style=""width:200px;border:14px solid red;"">","null","","","","","","","","","",""
"","image-keyboard-response","290","217074","0.0-325.0","39K0FND3AI14IIM0FMO9CV81FD2AMF","A12Q4BP1S02YWS","3JUDR1D0D6D4CARU3YX9Y3DK5DJ2QK","","410","img/food6.png","75","412","2","0","1","2","1,0.5,0,1,0.5,0,0.5,0,1","0.5,0,1,0.5,0,1,0,1,0.5","2","false",""
"","html-keyboard-response","291","217377","0.0-326.0","39K0FND3AI14IIM0FMO9CV81FD2AMF","A12Q4BP1S02YWS","3JUDR1D0D6D4CARU3YX9Y3DK5DJ2QK","","null","<img src=""img/food6.png"" style=""width:200px;border:14px solid red;"">","null","","","","","","","","","",""
"","image-keyboard-response","292","217845","0.0-328.0","39K0FND3AI14IIM0FMO9CV81FD2AMF","A12Q4BP1S02YWS","3JUDR1D0D6D4CARU3YX9Y3DK5DJ2QK","","464","img/food6.png","76","468","3","1","1","2","1,0.5,0,1,0.5,0,0.5,0,1","0.5,0,1,0.5,0,1,0,1,0.5","2","false",""
"","html-keyboard-response","293","218162","0.0-329.0","39K0FND3AI14IIM0FMO9CV81FD2AMF","A12Q4BP1S02YWS","3JUDR1D0D6D4CARU3YX9Y3DK5DJ2QK","","null","<img src=""img/food6.png"" style=""width:200px; border:14px solid green;"">","null","","","","","","","","","",""
"","image-keyboard-response","294","218513","0.0-331.0","39K0FND3AI14IIM0FMO9CV81FD2AMF","A12Q4BP1S02YWS","3JUDR1D0D6D4CARU3YX9Y3DK5DJ2QK","","345","img/food6.png","75","347","2","0","1","2","1,0.5,0,1,0.5,0,0.5,0,1","0.5,0,1,0.5,0,1,0,1,0.5","2","false",""
"","html-keyboard-response","295","218814","0.0-332.0","39K0FND3AI14IIM0FMO9CV81FD2AMF","A12Q4BP1S02YWS","3JUDR1D0D6D4CARU3YX9Y3DK5DJ2QK","","null","<img src=""img/food6.png"" style=""width:200px;border:14px solid red;"">","null","","","","","","","","","",""
"","image-keyboard-response","296","219387","0.0-334.0","39K0FND3AI14IIM0FMO9CV81FD2AMF","A12Q4BP1S02YWS","3JUDR1D0D6D4CARU3YX9Y3DK5DJ2QK","","569","img/food6.png","76","571","3","1","1","2","1,0.5,0,1,0.5,0,0.5,0,1","0.5,0,1,0.5,0,1,0,1,0.5","2","false",""
"","html-keyboard-response","297","219690","0.0-335.0","39K0FND3AI14IIM0FMO9CV81FD2AMF","A12Q4BP1S02YWS","3JUDR1D0D6D4CARU3YX9Y3DK5DJ2QK","","null","<img src=""img/food6.png"" style=""width:200px; border:14px solid green;"">","null","","","","","","","","","",""
"","image-keyboard-response","298","220696","0.0-337.0","39K0FND3AI14IIM0FMO9CV81FD2AMF","A12Q4BP1S02YWS","3JUDR1D0D6D4CARU3YX9Y3DK5DJ2QK","","","img/food5.png","","1004","-1","0","3","2","1,0.5,0,1,0.5,0,0.5,0,1","0.5,0,1,0.5,0,1,0,1,0.5","2","true",""
"","html-keyboard-response","299","220997","0.0-338.0","39K0FND3AI14IIM0FMO9CV81FD2AMF","A12Q4BP1S02YWS","3JUDR1D0D6D4CARU3YX9Y3DK5DJ2QK","","null","<img src=""img/food5.png"" style=""width:200px;border:14px solid red;"">","null","","","","","","","","","",""
"","html-keyboard-response","300","223481","0.0-339.0-0.0","39K0FND3AI14IIM0FMO9CV81FD2AMF","A12Q4BP1S02YWS","3JUDR1D0D6D4CARU3YX9Y3DK5DJ2QK","","","","","","","","","","","","","",""
"","image-keyboard-response","301","224106","0.0-340.0","39K0FND3AI14IIM0FMO9CV81FD2AMF","A12Q4BP1S02YWS","3JUDR1D0D6D4CARU3YX9Y3DK5DJ2QK","","622","img/food6.png","74","625","1","0","1","2","1,0.5,0,1,0.5,0,0.5,0,1","0.5,0,1,0.5,0,1,0,1,0.5","2","false",""
"","html-keyboard-response","302","224408","0.0-341.0","39K0FND3AI14IIM0FMO9CV81FD2AMF","A12Q4BP1S02YWS","3JUDR1D0D6D4CARU3YX9Y3DK5DJ2QK","","null","<img src=""img/food6.png"" style=""width:200px;border:14px solid red;"">","null","","","","","","","","","",""
"","image-keyboard-response","303","224624","0.0-343.0","39K0FND3AI14IIM0FMO9CV81FD2AMF","A12Q4BP1S02YWS","3JUDR1D0D6D4CARU3YX9Y3DK5DJ2QK","","212","img/food1.png","75","214","2","0","2","2","1,0.5,0,1,0.5,0,0.5,0,1","0.5,0,1,0.5,0,1,0,1,0.5","2","false",""
"","html-keyboard-response","304","225005","0.0-344.0","39K0FND3AI14IIM0FMO9CV81FD2AMF","A12Q4BP1S02YWS","3JUDR1D0D6D4CARU3YX9Y3DK5DJ2QK","","null","<img src=""img/food1.png"" style=""width:200px;border:14px solid red;"">","null","","","","","","","","","",""
"","image-keyboard-response","305","225277","0.0-346.0","39K0FND3AI14IIM0FMO9CV81FD2AMF","A12Q4BP1S02YWS","3JUDR1D0D6D4CARU3YX9Y3DK5DJ2QK","","270","img/food1.png","76","271","3","1","2","2","1,0.5,0,1,0.5,0,0.5,0,1","0.5,0,1,0.5,0,1,0,1,0.5","2","false",""
"","html-keyboard-response","306","225580","0.0-347.0","39K0FND3AI14IIM0FMO9CV81FD2AMF","A12Q4BP1S02YWS","3JUDR1D0D6D4CARU3YX9Y3DK5DJ2QK","","null","<img src=""img/food1.png"" style=""width:200px; border:14px solid green;"">","null","","","","","","","","","",""
"","image-keyboard-response","307","225998","0.0-349.0","39K0FND3AI14IIM0FMO9CV81FD2AMF","A12Q4BP1S02YWS","3JUDR1D0D6D4CARU3YX9Y3DK5DJ2QK","","416","img/food6.png","75","417","2","0","1","2","1,0.5,0,1,0.5,0,0.5,0,1","0.5,0,1,0.5,0,1,0,1,0.5","2","false",""
"","html-keyboard-response","308","226301","0.0-350.0","39K0FND3AI14IIM0FMO9CV81FD2AMF","A12Q4BP1S02YWS","3JUDR1D0D6D4CARU3YX9Y3DK5DJ2QK","","null","<img src=""img/food6.png"" style=""width:200px;border:14px solid red;"">","null","","","","","","","","","",""
"","image-keyboard-response","309","226668","0.0-352.0","39K0FND3AI14IIM0FMO9CV81FD2AMF","A12Q4BP1S02YWS","3JUDR1D0D6D4CARU3YX9Y3DK5DJ2QK","","365","img/food6.png","74","366","1","1","1","2","1,0.5,0,1,0.5,0,0.5,0,1","0.5,0,1,0.5,0,1,0,1,0.5","2","false",""
"","html-keyboard-response","310","226977","0.0-353.0","39K0FND3AI14IIM0FMO9CV81FD2AMF","A12Q4BP1S02YWS","3JUDR1D0D6D4CARU3YX9Y3DK5DJ2QK","","null","<img src=""img/food6.png"" style=""width:200px; border:14px solid green;"">","null","","","","","","","","","",""
"","image-keyboard-response","311","227274","0.0-355.0","39K0FND3AI14IIM0FMO9CV81FD2AMF","A12Q4BP1S02YWS","3JUDR1D0D6D4CARU3YX9Y3DK5DJ2QK","","293","img/food6.png","75","296","2","0","1","2","1,0.5,0,1,0.5,0,0.5,0,1","0.5,0,1,0.5,0,1,0,1,0.5","2","false",""
"","html-keyboard-response","312","227578","0.0-356.0","39K0FND3AI14IIM0FMO9CV81FD2AMF","A12Q4BP1S02YWS","3JUDR1D0D6D4CARU3YX9Y3DK5DJ2QK","","null","<img src=""img/food6.png"" style=""width:200px;border:14px solid red;"">","null","","","","","","","","","",""
"","image-keyboard-response","313","228139","0.0-358.0","39K0FND3AI14IIM0FMO9CV81FD2AMF","A12Q4BP1S02YWS","3JUDR1D0D6D4CARU3YX9Y3DK5DJ2QK","","559","img/food6.png","76","560","3","1","1","2","1,0.5,0,1,0.5,0,0.5,0,1","0.5,0,1,0.5,0,1,0,1,0.5","2","false",""
"","html-keyboard-response","314","228445","0.0-359.0","39K0FND3AI14IIM0FMO9CV81FD2AMF","A12Q4BP1S02YWS","3JUDR1D0D6D4CARU3YX9Y3DK5DJ2QK","","null","<img src=""img/food6.png"" style=""width:200px; border:14px solid green;"">","null","","","","","","","","","",""
"","image-keyboard-response","315","228609","0.0-361.0","39K0FND3AI14IIM0FMO9CV81FD2AMF","A12Q4BP1S02YWS","3JUDR1D0D6D4CARU3YX9Y3DK5DJ2QK","","161","img/food5.png","74","163","1","0","3","2","1,0.5,0,1,0.5,0,0.5,0,1","0.5,0,1,0.5,0,1,0,1,0.5","2","false",""
"","html-keyboard-response","316","228914","0.0-362.0","39K0FND3AI14IIM0FMO9CV81FD2AMF","A12Q4BP1S02YWS","3JUDR1D0D6D4CARU3YX9Y3DK5DJ2QK","","null","<img src=""img/food5.png"" style=""width:200px;border:14px solid red;"">","null","","","","","","","","","",""
"","image-keyboard-response","317","229315","0.0-364.0","39K0FND3AI14IIM0FMO9CV81FD2AMF","A12Q4BP1S02YWS","3JUDR1D0D6D4CARU3YX9Y3DK5DJ2QK","","396","img/food5.png","75","398","2","1","3","2","1,0.5,0,1,0.5,0,0.5,0,1","0.5,0,1,0.5,0,1,0,1,0.5","2","false",""
"","html-keyboard-response","318","229626","0.0-365.0","39K0FND3AI14IIM0FMO9CV81FD2AMF","A12Q4BP1S02YWS","3JUDR1D0D6D4CARU3YX9Y3DK5DJ2QK","","null","<img src=""img/food5.png"" style=""width:200px; border:14px solid green;"">","null","","","","","","","","","",""
"","image-keyboard-response","319","229972","0.0-367.0","39K0FND3AI14IIM0FMO9CV81FD2AMF","A12Q4BP1S02YWS","3JUDR1D0D6D4CARU3YX9Y3DK5DJ2QK","","341","img/food5.png","76","344","3","1","3","2","1,0.5,0,1,0.5,0,0.5,0,1","0.5,0,1,0.5,0,1,0,1,0.5","2","false",""
"","html-keyboard-response","320","230276","0.0-368.0","39K0FND3AI14IIM0FMO9CV81FD2AMF","A12Q4BP1S02YWS","3JUDR1D0D6D4CARU3YX9Y3DK5DJ2QK","","null","<img src=""img/food5.png"" style=""width:200px; border:14px solid green;"">","null","","","","","","","","","",""
"","image-keyboard-response","321","231303","0.0-370.0","39K0FND3AI14IIM0FMO9CV81FD2AMF","A12Q4BP1S02YWS","3JUDR1D0D6D4CARU3YX9Y3DK5DJ2QK","","","img/food5.png","","1024","-1","0","3","2","1,0.5,0,1,0.5,0,0.5,0,1","0.5,0,1,0.5,0,1,0,1,0.5","2","true",""
"","html-keyboard-response","322","231605","0.0-371.0","39K0FND3AI14IIM0FMO9CV81FD2AMF","A12Q4BP1S02YWS","3JUDR1D0D6D4CARU3YX9Y3DK5DJ2QK","","null","<img src=""img/food5.png"" style=""width:200px;border:14px solid red;"">","null","","","","","","","","","",""
"","html-keyboard-response","323","233093","0.0-372.0-0.0","39K0FND3AI14IIM0FMO9CV81FD2AMF","A12Q4BP1S02YWS","3JUDR1D0D6D4CARU3YX9Y3DK5DJ2QK","","","","","","","","","","","","","",""
"","image-keyboard-response","324","233689","0.0-373.0","39K0FND3AI14IIM0FMO9CV81FD2AMF","A12Q4BP1S02YWS","3JUDR1D0D6D4CARU3YX9Y3DK5DJ2QK","","593","img/food5.png","74","595","1","0","3","2","1,0.5,0,1,0.5,0,0.5,0,1","0.5,0,1,0.5,0,1,0,1,0.5","2","false",""
"","html-keyboard-response","325","233992","0.0-374.0","39K0FND3AI14IIM0FMO9CV81FD2AMF","A12Q4BP1S02YWS","3JUDR1D0D6D4CARU3YX9Y3DK5DJ2QK","","null","<img src=""img/food5.png"" style=""width:200px;border:14px solid red;"">","null","","","","","","","","","",""
"","image-keyboard-response","326","234646","0.0-376.0","39K0FND3AI14IIM0FMO9CV81FD2AMF","A12Q4BP1S02YWS","3JUDR1D0D6D4CARU3YX9Y3DK5DJ2QK","","651","img/food6.png","75","653","2","0","1","2","1,0.5,0,1,0.5,0,0.5,0,1","0.5,0,1,0.5,0,1,0,1,0.5","2","false",""
"","html-keyboard-response","327","234950","0.0-377.0","39K0FND3AI14IIM0FMO9CV81FD2AMF","A12Q4BP1S02YWS","3JUDR1D0D6D4CARU3YX9Y3DK5DJ2QK","","null","<img src=""img/food6.png"" style=""width:200px;border:14px solid red;"">","null","","","","","","","","","",""
"","image-keyboard-response","328","235582","0.0-379.0","39K0FND3AI14IIM0FMO9CV81FD2AMF","A12Q4BP1S02YWS","3JUDR1D0D6D4CARU3YX9Y3DK5DJ2QK","","628","img/food1.png","76","630","3","1","2","2","1,0.5,0,1,0.5,0,0.5,0,1","0.5,0,1,0.5,0,1,0,1,0.5","2","false",""
"","html-keyboard-response","329","235885","0.0-380.0","39K0FND3AI14IIM0FMO9CV81FD2AMF","A12Q4BP1S02YWS","3JUDR1D0D6D4CARU3YX9Y3DK5DJ2QK","","null","<img src=""img/food1.png"" style=""width:200px; border:14px solid green;"">","null","","","","","","","","","",""
"","image-keyboard-response","330","236298","0.0-382.0","39K0FND3AI14IIM0FMO9CV81FD2AMF","A12Q4BP1S02YWS","3JUDR1D0D6D4CARU3YX9Y3DK5DJ2QK","","408","img/food5.png","75","410","2","1","3","2","1,0.5,0,1,0.5,0,0.5,0,1","0.5,0,1,0.5,0,1,0,1,0.5","2","false",""
"","html-keyboard-response","331","236601","0.0-383.0","39K0FND3AI14IIM0FMO9CV81FD2AMF","A12Q4BP1S02YWS","3JUDR1D0D6D4CARU3YX9Y3DK5DJ2QK","","null","<img src=""img/food5.png"" style=""width:200px; border:14px solid green;"">","null","","","","","","","","","",""
"","image-keyboard-response","332","236901","0.0-385.0","39K0FND3AI14IIM0FMO9CV81FD2AMF","A12Q4BP1S02YWS","3JUDR1D0D6D4CARU3YX9Y3DK5DJ2QK","","296","img/food1.png","74","298","1","0","2","2","1,0.5,0,1,0.5,0,0.5,0,1","0.5,0,1,0.5,0,1,0,1,0.5","2","false",""
"","html-keyboard-response","333","237204","0.0-386.0","39K0FND3AI14IIM0FMO9CV81FD2AMF","A12Q4BP1S02YWS","3JUDR1D0D6D4CARU3YX9Y3DK5DJ2QK","","null","<img src=""img/food1.png"" style=""width:200px;border:14px solid red;"">","null","","","","","","","","","",""
"","image-keyboard-response","334","237574","0.0-388.0","39K0FND3AI14IIM0FMO9CV81FD2AMF","A12Q4BP1S02YWS","3JUDR1D0D6D4CARU3YX9Y3DK5DJ2QK","","367","img/food6.png","75","369","2","0","1","2","1,0.5,0,1,0.5,0,0.5,0,1","0.5,0,1,0.5,0,1,0,1,0.5","2","false",""
"","html-keyboard-response","335","237877","0.0-389.0","39K0FND3AI14IIM0FMO9CV81FD2AMF","A12Q4BP1S02YWS","3JUDR1D0D6D4CARU3YX9Y3DK5DJ2QK","","null","<img src=""img/food6.png"" style=""width:200px;border:14px solid red;"">","null","","","","","","","","","",""
"","image-keyboard-response","336","238287","0.0-391.0","39K0FND3AI14IIM0FMO9CV81FD2AMF","A12Q4BP1S02YWS","3JUDR1D0D6D4CARU3YX9Y3DK5DJ2QK","","405","img/food1.png","76","408","3","1","2","2","1,0.5,0,1,0.5,0,0.5,0,1","0.5,0,1,0.5,0,1,0,1,0.5","2","false",""
"","html-keyboard-response","337","238593","0.0-392.0","39K0FND3AI14IIM0FMO9CV81FD2AMF","A12Q4BP1S02YWS","3JUDR1D0D6D4CARU3YX9Y3DK5DJ2QK","","null","<img src=""img/food1.png"" style=""width:200px; border:14px solid green;"">","null","","","","","","","","","",""
"","image-keyboard-response","338","239354","0.0-394.0","39K0FND3AI14IIM0FMO9CV81FD2AMF","A12Q4BP1S02YWS","3JUDR1D0D6D4CARU3YX9Y3DK5DJ2QK","","756","img/food5.png","75","760","2","1","3","2","1,0.5,0,1,0.5,0,0.5,0,1","0.5,0,1,0.5,0,1,0,1,0.5","2","false",""
"","html-keyboard-response","339","239658","0.0-395.0","39K0FND3AI14IIM0FMO9CV81FD2AMF","A12Q4BP1S02YWS","3JUDR1D0D6D4CARU3YX9Y3DK5DJ2QK","","null","<img src=""img/food5.png"" style=""width:200px; border:14px solid green;"">","null","","","","","","","","","",""
"","image-keyboard-response","340","240476","0.0-397.0","39K0FND3AI14IIM0FMO9CV81FD2AMF","A12Q4BP1S02YWS","3JUDR1D0D6D4CARU3YX9Y3DK5DJ2QK","","817","img/food5.png","75","817","2","1","3","2","1,0.5,0,1,0.5,0,0.5,0,1","0.5,0,1,0.5,0,1,0,1,0.5","2","false",""
"","html-keyboard-response","341","240784","0.0-398.0","39K0FND3AI14IIM0FMO9CV81FD2AMF","A12Q4BP1S02YWS","3JUDR1D0D6D4CARU3YX9Y3DK5DJ2QK","","null","<img src=""img/food5.png"" style=""width:200px; border:14px solid green;"">","null","","","","","","","","","",""
"","image-keyboard-response","342","241327","0.0-400.0","39K0FND3AI14IIM0FMO9CV81FD2AMF","A12Q4BP1S02YWS","3JUDR1D0D6D4CARU3YX9Y3DK5DJ2QK","","538","img/food1.png","76","541","3","1","2","2","1,0.5,0,1,0.5,0,0.5,0,1","0.5,0,1,0.5,0,1,0,1,0.5","2","false",""
"","html-keyboard-response","343","241630","0.0-401.0","39K0FND3AI14IIM0FMO9CV81FD2AMF","A12Q4BP1S02YWS","3JUDR1D0D6D4CARU3YX9Y3DK5DJ2QK","","null","<img src=""img/food1.png"" style=""width:200px; border:14px solid green;"">","null","","","","","","","","","",""
"","image-keyboard-response","344","242324","0.0-403.0","39K0FND3AI14IIM0FMO9CV81FD2AMF","A12Q4BP1S02YWS","3JUDR1D0D6D4CARU3YX9Y3DK5DJ2QK","","692","img/food5.png","75","693","2","1","3","2","1,0.5,0,1,0.5,0,0.5,0,1","0.5,0,1,0.5,0,1,0,1,0.5","2","false",""
"","html-keyboard-response","345","242627","0.0-404.0","39K0FND3AI14IIM0FMO9CV81FD2AMF","A12Q4BP1S02YWS","3JUDR1D0D6D4CARU3YX9Y3DK5DJ2QK","","null","<img src=""img/food5.png"" style=""width:200px; border:14px solid green;"">","null","","","","","","","","","",""
"","image-keyboard-response","346","243131","0.0-406.0","39K0FND3AI14IIM0FMO9CV81FD2AMF","A12Q4BP1S02YWS","3JUDR1D0D6D4CARU3YX9Y3DK5DJ2QK","","500","img/food1.png","76","502","3","1","2","2","1,0.5,0,1,0.5,0,0.5,0,1","0.5,0,1,0.5,0,1,0,1,0.5","2","false",""
"","html-keyboard-response","347","243434","0.0-407.0","39K0FND3AI14IIM0FMO9CV81FD2AMF","A12Q4BP1S02YWS","3JUDR1D0D6D4CARU3YX9Y3DK5DJ2QK","","null","<img src=""img/food1.png"" style=""width:200px; border:14px solid green;"">","null","","","","","","","","","",""
"","image-keyboard-response","348","244082","0.0-409.0","39K0FND3AI14IIM0FMO9CV81FD2AMF","A12Q4BP1S02YWS","3JUDR1D0D6D4CARU3YX9Y3DK5DJ2QK","","645","img/food1.png","75","646","2","0","2","2","1,0.5,0,1,0.5,0,0.5,0,1","0.5,0,1,0.5,0,1,0,1,0.5","2","false",""
"","html-keyboard-response","349","244384","0.0-410.0","39K0FND3AI14IIM0FMO9CV81FD2AMF","A12Q4BP1S02YWS","3JUDR1D0D6D4CARU3YX9Y3DK5DJ2QK","","null","<img src=""img/food1.png"" style=""width:200px;border:14px solid red;"">","null","","","","","","","","","",""
"","image-keyboard-response","350","244887","0.0-412.0","39K0FND3AI14IIM0FMO9CV81FD2AMF","A12Q4BP1S02YWS","3JUDR1D0D6D4CARU3YX9Y3DK5DJ2QK","","500","img/food1.png","76","501","3","1","2","2","1,0.5,0,1,0.5,0,0.5,0,1","0.5,0,1,0.5,0,1,0,1,0.5","2","false",""
"","html-keyboard-response","351","245190","0.0-413.0","39K0FND3AI14IIM0FMO9CV81FD2AMF","A12Q4BP1S02YWS","3JUDR1D0D6D4CARU3YX9Y3DK5DJ2QK","","null","<img src=""img/food1.png"" style=""width:200px; border:14px solid green;"">","null","","","","","","","","","",""
"","image-keyboard-response","352","245924","0.0-415.0","39K0FND3AI14IIM0FMO9CV81FD2AMF","A12Q4BP1S02YWS","3JUDR1D0D6D4CARU3YX9Y3DK5DJ2QK","","732","img/food1.png","76","734","3","1","2","2","1,0.5,0,1,0.5,0,0.5,0,1","0.5,0,1,0.5,0,1,0,1,0.5","2","false",""
"","html-keyboard-response","353","246229","0.0-416.0","39K0FND3AI14IIM0FMO9CV81FD2AMF","A12Q4BP1S02YWS","3JUDR1D0D6D4CARU3YX9Y3DK5DJ2QK","","null","<img src=""img/food1.png"" style=""width:200px; border:14px solid green;"">","null","","","","","","","","","",""
"","image-keyboard-response","354","246913","0.0-418.0","39K0FND3AI14IIM0FMO9CV81FD2AMF","A12Q4BP1S02YWS","3JUDR1D0D6D4CARU3YX9Y3DK5DJ2QK","","680","img/food1.png","76","682","3","1","2","2","1,0.5,0,1,0.5,0,0.5,0,1","0.5,0,1,0.5,0,1,0,1,0.5","2","false",""
"","html-keyboard-response","355","247216","0.0-419.0","39K0FND3AI14IIM0FMO9CV81FD2AMF","A12Q4BP1S02YWS","3JUDR1D0D6D4CARU3YX9Y3DK5DJ2QK","","null","<img src=""img/food1.png"" style=""width:200px; border:14px solid green;"">","null","","","","","","","","","",""
"","image-keyboard-response","356","248221","0.0-421.0","39K0FND3AI14IIM0FMO9CV81FD2AMF","A12Q4BP1S02YWS","3JUDR1D0D6D4CARU3YX9Y3DK5DJ2QK","","","img/food6.png","","1004","-1","0","1","2","1,0.5,0,1,0.5,0,0.5,0,1","0.5,0,1,0.5,0,1,0,1,0.5","2","true",""
"","html-keyboard-response","357","248525","0.0-422.0","39K0FND3AI14IIM0FMO9CV81FD2AMF","A12Q4BP1S02YWS","3JUDR1D0D6D4CARU3YX9Y3DK5DJ2QK","","null","<img src=""img/food6.png"" style=""width:200px;border:14px solid red;"">","null","","","","","","","","","",""
"","html-keyboard-response","358","250033","0.0-423.0-0.0","39K0FND3AI14IIM0FMO9CV81FD2AMF","A12Q4BP1S02YWS","3JUDR1D0D6D4CARU3YX9Y3DK5DJ2QK","","","","","","","","","","","","","",""
"","image-keyboard-response","359","251044","0.0-424.0","39K0FND3AI14IIM0FMO9CV81FD2AMF","A12Q4BP1S02YWS","3JUDR1D0D6D4CARU3YX9Y3DK5DJ2QK","","","img/food5.png","","1009","-1","0","3","2","1,0.5,0,1,0.5,0,0.5,0,1","0.5,0,1,0.5,0,1,0,1,0.5","2","true",""
"","html-keyboard-response","360","251350","0.0-425.0","39K0FND3AI14IIM0FMO9CV81FD2AMF","A12Q4BP1S02YWS","3JUDR1D0D6D4CARU3YX9Y3DK5DJ2QK","","null","<img src=""img/food5.png"" style=""width:200px;border:14px solid red;"">","null","","","","","","","","","",""
"","html-keyboard-response","361","253832","0.0-426.0-0.0","39K0FND3AI14IIM0FMO9CV81FD2AMF","A12Q4BP1S02YWS","3JUDR1D0D6D4CARU3YX9Y3DK5DJ2QK","","","","","","","","","","","","","",""
"","image-keyboard-response","362","254388","0.0-427.0","39K0FND3AI14IIM0FMO9CV81FD2AMF","A12Q4BP1S02YWS","3JUDR1D0D6D4CARU3YX9Y3DK5DJ2QK","","549","img/food5.png","75","554","2","1","3","2","1,0.5,0,1,0.5,0,0.5,0,1","0.5,0,1,0.5,0,1,0,1,0.5","2","false",""
"","html-keyboard-response","363","254691","0.0-428.0","39K0FND3AI14IIM0FMO9CV81FD2AMF","A12Q4BP1S02YWS","3JUDR1D0D6D4CARU3YX9Y3DK5DJ2QK","","null","<img src=""img/food5.png"" style=""width:200px; border:14px solid green;"">","null","","","","","","","","","",""
"","image-keyboard-response","364","255231","0.0-430.0","39K0FND3AI14IIM0FMO9CV81FD2AMF","A12Q4BP1S02YWS","3JUDR1D0D6D4CARU3YX9Y3DK5DJ2QK","","538","img/food1.png","76","540","3","1","2","2","1,0.5,0,1,0.5,0,0.5,0,1","0.5,0,1,0.5,0,1,0,1,0.5","2","false",""
"","html-keyboard-response","365","255535","0.0-431.0","39K0FND3AI14IIM0FMO9CV81FD2AMF","A12Q4BP1S02YWS","3JUDR1D0D6D4CARU3YX9Y3DK5DJ2QK","","null","<img src=""img/food1.png"" style=""width:200px; border:14px solid green;"">","null","","","","","","","","","",""
"","image-keyboard-response","366","256028","0.0-433.0","39K0FND3AI14IIM0FMO9CV81FD2AMF","A12Q4BP1S02YWS","3JUDR1D0D6D4CARU3YX9Y3DK5DJ2QK","","490","img/food1.png","75","491","2","0","2","2","1,0.5,0,1,0.5,0,0.5,0,1","0.5,0,1,0.5,0,1,0,1,0.5","2","false",""
"","html-keyboard-response","367","256332","0.0-434.0","39K0FND3AI14IIM0FMO9CV81FD2AMF","A12Q4BP1S02YWS","3JUDR1D0D6D4CARU3YX9Y3DK5DJ2QK","","null","<img src=""img/food1.png"" style=""width:200px;border:14px solid red;"">","null","","","","","","","","","",""
"","image-keyboard-response","368","256864","0.0-436.0","39K0FND3AI14IIM0FMO9CV81FD2AMF","A12Q4BP1S02YWS","3JUDR1D0D6D4CARU3YX9Y3DK5DJ2QK","","529","img/food6.png","76","530","3","1","1","2","1,0.5,0,1,0.5,0,0.5,0,1","0.5,0,1,0.5,0,1,0,1,0.5","2","false",""
"","html-keyboard-response","369","257166","0.0-437.0","39K0FND3AI14IIM0FMO9CV81FD2AMF","A12Q4BP1S02YWS","3JUDR1D0D6D4CARU3YX9Y3DK5DJ2QK","","null","<img src=""img/food6.png"" style=""width:200px; border:14px solid green;"">","null","","","","","","","","","",""
"","image-keyboard-response","370","258194","0.0-439.0","39K0FND3AI14IIM0FMO9CV81FD2AMF","A12Q4BP1S02YWS","3JUDR1D0D6D4CARU3YX9Y3DK5DJ2QK","","","img/food1.png","","1028","-1","0","2","2","1,0.5,0,1,0.5,0,0.5,0,1","0.5,0,1,0.5,0,1,0,1,0.5","2","true",""
"","html-keyboard-response","371","258499","0.0-440.0","39K0FND3AI14IIM0FMO9CV81FD2AMF","A12Q4BP1S02YWS","3JUDR1D0D6D4CARU3YX9Y3DK5DJ2QK","","null","<img src=""img/food1.png"" style=""width:200px;border:14px solid red;"">","null","","","","","","","","","",""
"","html-keyboard-response","372","259864","0.0-441.0-0.0","39K0FND3AI14IIM0FMO9CV81FD2AMF","A12Q4BP1S02YWS","3JUDR1D0D6D4CARU3YX9Y3DK5DJ2QK","","","","","","","","","","","","","",""
"","image-keyboard-response","373","260762","0.0-442.0","39K0FND3AI14IIM0FMO9CV81FD2AMF","A12Q4BP1S02YWS","3JUDR1D0D6D4CARU3YX9Y3DK5DJ2QK","","892","img/food6.png","76","896","3","1","1","2","1,0.5,0,1,0.5,0,0.5,0,1","0.5,0,1,0.5,0,1,0,1,0.5","2","false",""
"","html-keyboard-response","374","261067","0.0-443.0","39K0FND3AI14IIM0FMO9CV81FD2AMF","A12Q4BP1S02YWS","3JUDR1D0D6D4CARU3YX9Y3DK5DJ2QK","","null","<img src=""img/food6.png"" style=""width:200px; border:14px solid green;"">","null","","","","","","","","","",""
"","image-keyboard-response","375","261771","0.0-445.0","39K0FND3AI14IIM0FMO9CV81FD2AMF","A12Q4BP1S02YWS","3JUDR1D0D6D4CARU3YX9Y3DK5DJ2QK","","701","img/food6.png","76","702","3","1","1","2","1,0.5,0,1,0.5,0,0.5,0,1","0.5,0,1,0.5,0,1,0,1,0.5","2","false",""
"","html-keyboard-response","376","262080","0.0-446.0","39K0FND3AI14IIM0FMO9CV81FD2AMF","A12Q4BP1S02YWS","3JUDR1D0D6D4CARU3YX9Y3DK5DJ2QK","","null","<img src=""img/food6.png"" style=""width:200px; border:14px solid green;"">","null","","","","","","","","","",""
"","image-keyboard-response","377","262672","0.0-448.0","39K0FND3AI14IIM0FMO9CV81FD2AMF","A12Q4BP1S02YWS","3JUDR1D0D6D4CARU3YX9Y3DK5DJ2QK","","589","img/food6.png","76","591","3","1","1","2","1,0.5,0,1,0.5,0,0.5,0,1","0.5,0,1,0.5,0,1,0,1,0.5","2","false",""
"","html-keyboard-response","378","262974","0.0-449.0","39K0FND3AI14IIM0FMO9CV81FD2AMF","A12Q4BP1S02YWS","3JUDR1D0D6D4CARU3YX9Y3DK5DJ2QK","","null","<img src=""img/food6.png"" style=""width:200px; border:14px solid green;"">","null","","","","","","","","","",""
"","image-keyboard-response","379","263885","0.0-451.0","39K0FND3AI14IIM0FMO9CV81FD2AMF","A12Q4BP1S02YWS","3JUDR1D0D6D4CARU3YX9Y3DK5DJ2QK","","906","img/food1.png","76","910","3","1","2","2","1,0.5,0,1,0.5,0,0.5,0,1","0.5,0,1,0.5,0,1,0,1,0.5","2","false",""
"","html-keyboard-response","380","264189","0.0-452.0","39K0FND3AI14IIM0FMO9CV81FD2AMF","A12Q4BP1S02YWS","3JUDR1D0D6D4CARU3YX9Y3DK5DJ2QK","","null","<img src=""img/food1.png"" style=""width:200px; border:14px solid green;"">","null","","","","","","","","","",""
"","instructions","381","266919","0.0-454.0","39K0FND3AI14IIM0FMO9CV81FD2AMF","A12Q4BP1S02YWS","3JUDR1D0D6D4CARU3YX9Y3DK5DJ2QK","[{""page_index"":0,""viewing_time"":2728}]","2729","","","","","","","","","","","",""
"","survey-text","382","273673","0.0-455.0","39K0FND3AI14IIM0FMO9CV81FD2AMF","A12Q4BP1S02YWS","3JUDR1D0D6D4CARU3YX9Y3DK5DJ2QK","","6735","","","","","","","","","","","","{""Q0"":""A12Q4BP1S02YWS""}"
