"success","trial_type","trial_index","time_elapsed","internal_node_id","assignmentID","mturkID","hitID","view_history","rt","stimulus","key_press","reactionTime","a","r","s","cond","reward_cond","reward_cond_actual","reward_matrix_idx","warning","responses"
"true","fullscreen","0","51978","0.0-0.0","3IJXV6UZ1Y5ALGIQWIC3FSQUYF1RIX","A132GRVDGXPJGY","3WRBLBQ2GRU63BU2LFOJL1G32T90GO","","","","","","","","","","","","","",""
"","instructions","1","96470","0.0-1.0","3IJXV6UZ1Y5ALGIQWIC3FSQUYF1RIX","A132GRVDGXPJGY","3WRBLBQ2GRU63BU2LFOJL1G32T90GO","[{""page_index"":0,""viewing_time"":6108.800000011921},{""page_index"":1,""viewing_time"":2919.5999999940395},{""page_index"":2,""viewing_time"":5333.79999999702},{""page_index"":3,""viewing_time"":15783.70000000298},{""page_index"":4,""viewing_time"":3000.0999999940395},{""page_index"":5,""viewing_time"":2804.1000000089407},{""page_index"":6,""viewing_time"":8536.39999999106}]","44487.40000000596","","","","","","","","","","","",""
"","image-keyboard-response","2","97825","0.0-2.0","3IJXV6UZ1Y5ALGIQWIC3FSQUYF1RIX","A132GRVDGXPJGY","3WRBLBQ2GRU63BU2LFOJL1G32T90GO","","1354","img/food4.png","74","1355.1000000089407","1","1","2","1","1,0.5,0,1,0.5,0,0.5,0,1","1,0.5,0,1,0.5,0,0.5,0,1","1","",""
"","html-keyboard-response","3","98127","0.0-3.0","3IJXV6UZ1Y5ALGIQWIC3FSQUYF1RIX","A132GRVDGXPJGY","3WRBLBQ2GRU63BU2LFOJL1G32T90GO","","null","<img src=""img/food4.png"" style=""width:200px; border:14px solid green;"">","null","","","","","","","","","",""
"","image-keyboard-response","4","99332","0.0-4.0","3IJXV6UZ1Y5ALGIQWIC3FSQUYF1RIX","A132GRVDGXPJGY","3WRBLBQ2GRU63BU2LFOJL1G32T90GO","","1202.2999999970198","img/food1.png","75","1204.2000000029802","2","0","3","1","1,0.5,0,1,0.5,0,0.5,0,1","1,0.5,0,1,0.5,0,0.5,0,1","1","",""
"","html-keyboard-response","5","99636","0.0-5.0","3IJXV6UZ1Y5ALGIQWIC3FSQUYF1RIX","A132GRVDGXPJGY","3WRBLBQ2GRU63BU2LFOJL1G32T90GO","","null","<img src=""img/food1.png"" style=""width:200px;border:14px solid red;"">","null","","","","","","","","","",""
"","image-keyboard-response","6","101517","0.0-6.0","3IJXV6UZ1Y5ALGIQWIC3FSQUYF1RIX","A132GRVDGXPJGY","3WRBLBQ2GRU63BU2LFOJL1G32T90GO","","1877.2000000029802","img/food2.png","75","1879.6000000089407","2","1","1","1","1,0.5,0,1,0.5,0,0.5,0,1","1,0.5,0,1,0.5,0,0.5,0,1","1","",""
"","html-keyboard-response","7","101821","0.0-7.0","3IJXV6UZ1Y5ALGIQWIC3FSQUYF1RIX","A132GRVDGXPJGY","3WRBLBQ2GRU63BU2LFOJL1G32T90GO","","null","<img src=""img/food2.png"" style=""width:200px; border:14px solid green;"">","null","","","","","","","","","",""
"","image-keyboard-response","8","103397","0.0-8.0","3IJXV6UZ1Y5ALGIQWIC3FSQUYF1RIX","A132GRVDGXPJGY","3WRBLBQ2GRU63BU2LFOJL1G32T90GO","","1573.2999999970198","img/food1.png","76","1575.5","3","1","3","1","1,0.5,0,1,0.5,0,0.5,0,1","1,0.5,0,1,0.5,0,0.5,0,1","1","",""
"","html-keyboard-response","9","103701","0.0-9.0","3IJXV6UZ1Y5ALGIQWIC3FSQUYF1RIX","A132GRVDGXPJGY","3WRBLBQ2GRU63BU2LFOJL1G32T90GO","","null","<img src=""img/food1.png"" style=""width:200px; border:14px solid green;"">","null","","","","","","","","","",""
"","image-keyboard-response","10","104710","0.0-10.0","3IJXV6UZ1Y5ALGIQWIC3FSQUYF1RIX","A132GRVDGXPJGY","3WRBLBQ2GRU63BU2LFOJL1G32T90GO","","1006.3000000119209","img/food4.png","74","1008.6000000089407","1","1","2","1","1,0.5,0,1,0.5,0,0.5,0,1","1,0.5,0,1,0.5,0,0.5,0,1","1","",""
"","html-keyboard-response","11","105015","0.0-11.0","3IJXV6UZ1Y5ALGIQWIC3FSQUYF1RIX","A132GRVDGXPJGY","3WRBLBQ2GRU63BU2LFOJL1G32T90GO","","null","<img src=""img/food4.png"" style=""width:200px; border:14px solid green;"">","null","","","","","","","","","",""
"","image-keyboard-response","12","105949","0.0-12.0","3IJXV6UZ1Y5ALGIQWIC3FSQUYF1RIX","A132GRVDGXPJGY","3WRBLBQ2GRU63BU2LFOJL1G32T90GO","","932.6000000089407","img/food2.png","75","934.1000000089407","2","0","1","1","1,0.5,0,1,0.5,0,0.5,0,1","1,0.5,0,1,0.5,0,0.5,0,1","1","",""
"","html-keyboard-response","13","106251","0.0-13.0","3IJXV6UZ1Y5ALGIQWIC3FSQUYF1RIX","A132GRVDGXPJGY","3WRBLBQ2GRU63BU2LFOJL1G32T90GO","","null","<img src=""img/food2.png"" style=""width:200px;border:14px solid red;"">","null","","","","","","","","","",""
"","image-keyboard-response","14","107908","0.0-14.0","3IJXV6UZ1Y5ALGIQWIC3FSQUYF1RIX","A132GRVDGXPJGY","3WRBLBQ2GRU63BU2LFOJL1G32T90GO","","1654.0999999940395","img/food2.png","75","1655.5999999940395","2","0","1","1","1,0.5,0,1,0.5,0,0.5,0,1","1,0.5,0,1,0.5,0,0.5,0,1","1","",""
"","html-keyboard-response","15","108210","0.0-15.0","3IJXV6UZ1Y5ALGIQWIC3FSQUYF1RIX","A132GRVDGXPJGY","3WRBLBQ2GRU63BU2LFOJL1G32T90GO","","null","<img src=""img/food2.png"" style=""width:200px;border:14px solid red;"">","null","","","","","","","","","",""
"","image-keyboard-response","16","109364","0.0-16.0","3IJXV6UZ1Y5ALGIQWIC3FSQUYF1RIX","A132GRVDGXPJGY","3WRBLBQ2GRU63BU2LFOJL1G32T90GO","","1151.5999999940395","img/food1.png","76","1153.2000000029802","3","1","3","1","1,0.5,0,1,0.5,0,0.5,0,1","1,0.5,0,1,0.5,0,0.5,0,1","1","",""
"","html-keyboard-response","17","109665","0.0-17.0","3IJXV6UZ1Y5ALGIQWIC3FSQUYF1RIX","A132GRVDGXPJGY","3WRBLBQ2GRU63BU2LFOJL1G32T90GO","","null","<img src=""img/food1.png"" style=""width:200px; border:14px solid green;"">","null","","","","","","","","","",""
"","image-keyboard-response","18","110592","0.0-18.0","3IJXV6UZ1Y5ALGIQWIC3FSQUYF1RIX","A132GRVDGXPJGY","3WRBLBQ2GRU63BU2LFOJL1G32T90GO","","923.7999999970198","img/food2.png","75","925.8000000119209","2","0","1","1","1,0.5,0,1,0.5,0,0.5,0,1","1,0.5,0,1,0.5,0,0.5,0,1","1","",""
"","html-keyboard-response","19","110895","0.0-19.0","3IJXV6UZ1Y5ALGIQWIC3FSQUYF1RIX","A132GRVDGXPJGY","3WRBLBQ2GRU63BU2LFOJL1G32T90GO","","null","<img src=""img/food2.png"" style=""width:200px;border:14px solid red;"">","null","","","","","","","","","",""
"","image-keyboard-response","20","112087","0.0-20.0","3IJXV6UZ1Y5ALGIQWIC3FSQUYF1RIX","A132GRVDGXPJGY","3WRBLBQ2GRU63BU2LFOJL1G32T90GO","","1189.199999988079","img/food1.png","76","1191.4000000059605","3","1","3","1","1,0.5,0,1,0.5,0,0.5,0,1","1,0.5,0,1,0.5,0,0.5,0,1","1","",""
"","html-keyboard-response","21","112405","0.0-21.0","3IJXV6UZ1Y5ALGIQWIC3FSQUYF1RIX","A132GRVDGXPJGY","3WRBLBQ2GRU63BU2LFOJL1G32T90GO","","null","<img src=""img/food1.png"" style=""width:200px; border:14px solid green;"">","null","","","","","","","","","",""
"","image-keyboard-response","22","113065","0.0-22.0","3IJXV6UZ1Y5ALGIQWIC3FSQUYF1RIX","A132GRVDGXPJGY","3WRBLBQ2GRU63BU2LFOJL1G32T90GO","","658.9000000059605","img/food4.png","74","659.9000000059605","1","1","2","1","1,0.5,0,1,0.5,0,0.5,0,1","1,0.5,0,1,0.5,0,0.5,0,1","1","",""
"","html-keyboard-response","23","113369","0.0-23.0","3IJXV6UZ1Y5ALGIQWIC3FSQUYF1RIX","A132GRVDGXPJGY","3WRBLBQ2GRU63BU2LFOJL1G32T90GO","","null","<img src=""img/food4.png"" style=""width:200px; border:14px solid green;"">","null","","","","","","","","","",""
"","image-keyboard-response","24","114943","0.0-24.0","3IJXV6UZ1Y5ALGIQWIC3FSQUYF1RIX","A132GRVDGXPJGY","3WRBLBQ2GRU63BU2LFOJL1G32T90GO","","1572","img/food4.png","74","1574.1000000089407","1","1","2","1","1,0.5,0,1,0.5,0,0.5,0,1","1,0.5,0,1,0.5,0,0.5,0,1","1","",""
"","html-keyboard-response","25","115246","0.0-25.0","3IJXV6UZ1Y5ALGIQWIC3FSQUYF1RIX","A132GRVDGXPJGY","3WRBLBQ2GRU63BU2LFOJL1G32T90GO","","null","<img src=""img/food4.png"" style=""width:200px; border:14px solid green;"">","null","","","","","","","","","",""
"","image-keyboard-response","26","116568","0.0-26.0","3IJXV6UZ1Y5ALGIQWIC3FSQUYF1RIX","A132GRVDGXPJGY","3WRBLBQ2GRU63BU2LFOJL1G32T90GO","","1319.2999999970198","img/food1.png","76","1321.3999999910593","3","1","3","1","1,0.5,0,1,0.5,0,0.5,0,1","1,0.5,0,1,0.5,0,0.5,0,1","1","",""
"","html-keyboard-response","27","116873","0.0-27.0","3IJXV6UZ1Y5ALGIQWIC3FSQUYF1RIX","A132GRVDGXPJGY","3WRBLBQ2GRU63BU2LFOJL1G32T90GO","","null","<img src=""img/food1.png"" style=""width:200px; border:14px solid green;"">","null","","","","","","","","","",""
"","image-keyboard-response","28","118436","0.0-28.0","3IJXV6UZ1Y5ALGIQWIC3FSQUYF1RIX","A132GRVDGXPJGY","3WRBLBQ2GRU63BU2LFOJL1G32T90GO","","1561.6000000089407","img/food2.png","75","1563","2","1","1","1","1,0.5,0,1,0.5,0,0.5,0,1","1,0.5,0,1,0.5,0,0.5,0,1","1","",""
"","html-keyboard-response","29","118738","0.0-29.0","3IJXV6UZ1Y5ALGIQWIC3FSQUYF1RIX","A132GRVDGXPJGY","3WRBLBQ2GRU63BU2LFOJL1G32T90GO","","null","<img src=""img/food2.png"" style=""width:200px; border:14px solid green;"">","null","","","","","","","","","",""
"","image-keyboard-response","30","119666","0.0-30.0","3IJXV6UZ1Y5ALGIQWIC3FSQUYF1RIX","A132GRVDGXPJGY","3WRBLBQ2GRU63BU2LFOJL1G32T90GO","","925.0999999940395","img/food4.png","74","927.0999999940395","1","1","2","1","1,0.5,0,1,0.5,0,0.5,0,1","1,0.5,0,1,0.5,0,0.5,0,1","1","",""
"","html-keyboard-response","31","119969","0.0-31.0","3IJXV6UZ1Y5ALGIQWIC3FSQUYF1RIX","A132GRVDGXPJGY","3WRBLBQ2GRU63BU2LFOJL1G32T90GO","","null","<img src=""img/food4.png"" style=""width:200px; border:14px solid green;"">","null","","","","","","","","","",""
"","image-keyboard-response","32","121289","0.0-32.0","3IJXV6UZ1Y5ALGIQWIC3FSQUYF1RIX","A132GRVDGXPJGY","3WRBLBQ2GRU63BU2LFOJL1G32T90GO","","1317.6000000089407","img/food2.png","75","1319.7000000029802","2","1","1","1","1,0.5,0,1,0.5,0,0.5,0,1","1,0.5,0,1,0.5,0,0.5,0,1","1","",""
"","html-keyboard-response","33","121592","0.0-33.0","3IJXV6UZ1Y5ALGIQWIC3FSQUYF1RIX","A132GRVDGXPJGY","3WRBLBQ2GRU63BU2LFOJL1G32T90GO","","null","<img src=""img/food2.png"" style=""width:200px; border:14px solid green;"">","null","","","","","","","","","",""
"","image-keyboard-response","34","122423","0.0-34.0","3IJXV6UZ1Y5ALGIQWIC3FSQUYF1RIX","A132GRVDGXPJGY","3WRBLBQ2GRU63BU2LFOJL1G32T90GO","","829","img/food4.png","74","830.2999999970198","1","1","2","1","1,0.5,0,1,0.5,0,0.5,0,1","1,0.5,0,1,0.5,0,0.5,0,1","1","",""
"","html-keyboard-response","35","122725","0.0-35.0","3IJXV6UZ1Y5ALGIQWIC3FSQUYF1RIX","A132GRVDGXPJGY","3WRBLBQ2GRU63BU2LFOJL1G32T90GO","","null","<img src=""img/food4.png"" style=""width:200px; border:14px solid green;"">","null","","","","","","","","","",""
"","image-keyboard-response","36","123434","0.0-36.0","3IJXV6UZ1Y5ALGIQWIC3FSQUYF1RIX","A132GRVDGXPJGY","3WRBLBQ2GRU63BU2LFOJL1G32T90GO","","705.9000000059605","img/food2.png","75","707.7000000029802","2","0","1","1","1,0.5,0,1,0.5,0,0.5,0,1","1,0.5,0,1,0.5,0,0.5,0,1","1","",""
"","html-keyboard-response","37","123737","0.0-37.0","3IJXV6UZ1Y5ALGIQWIC3FSQUYF1RIX","A132GRVDGXPJGY","3WRBLBQ2GRU63BU2LFOJL1G32T90GO","","null","<img src=""img/food2.png"" style=""width:200px;border:14px solid red;"">","null","","","","","","","","","",""
"","image-keyboard-response","38","124435","0.0-38.0","3IJXV6UZ1Y5ALGIQWIC3FSQUYF1RIX","A132GRVDGXPJGY","3WRBLBQ2GRU63BU2LFOJL1G32T90GO","","696.2000000029802","img/food2.png","75","697.5999999940395","2","1","1","1","1,0.5,0,1,0.5,0,0.5,0,1","1,0.5,0,1,0.5,0,0.5,0,1","1","",""
"","html-keyboard-response","39","124737","0.0-39.0","3IJXV6UZ1Y5ALGIQWIC3FSQUYF1RIX","A132GRVDGXPJGY","3WRBLBQ2GRU63BU2LFOJL1G32T90GO","","null","<img src=""img/food2.png"" style=""width:200px; border:14px solid green;"">","null","","","","","","","","","",""
"","image-keyboard-response","40","125846","0.0-40.0","3IJXV6UZ1Y5ALGIQWIC3FSQUYF1RIX","A132GRVDGXPJGY","3WRBLBQ2GRU63BU2LFOJL1G32T90GO","","1106.5","img/food4.png","74","1108.5","1","1","2","1","1,0.5,0,1,0.5,0,0.5,0,1","1,0.5,0,1,0.5,0,0.5,0,1","1","",""
"","html-keyboard-response","41","126149","0.0-41.0","3IJXV6UZ1Y5ALGIQWIC3FSQUYF1RIX","A132GRVDGXPJGY","3WRBLBQ2GRU63BU2LFOJL1G32T90GO","","null","<img src=""img/food4.png"" style=""width:200px; border:14px solid green;"">","null","","","","","","","","","",""
"","image-keyboard-response","42","127136","0.0-42.0","3IJXV6UZ1Y5ALGIQWIC3FSQUYF1RIX","A132GRVDGXPJGY","3WRBLBQ2GRU63BU2LFOJL1G32T90GO","","983.8000000119209","img/food4.png","74","985.7000000029802","1","1","2","1","1,0.5,0,1,0.5,0,0.5,0,1","1,0.5,0,1,0.5,0,0.5,0,1","1","",""
"","html-keyboard-response","43","127439","0.0-43.0","3IJXV6UZ1Y5ALGIQWIC3FSQUYF1RIX","A132GRVDGXPJGY","3WRBLBQ2GRU63BU2LFOJL1G32T90GO","","null","<img src=""img/food4.png"" style=""width:200px; border:14px solid green;"">","null","","","","","","","","","",""
"","image-keyboard-response","44","128115","0.0-44.0","3IJXV6UZ1Y5ALGIQWIC3FSQUYF1RIX","A132GRVDGXPJGY","3WRBLBQ2GRU63BU2LFOJL1G32T90GO","","674.9000000059605","img/food4.png","74","675.8999999910593","1","1","2","1","1,0.5,0,1,0.5,0,0.5,0,1","1,0.5,0,1,0.5,0,0.5,0,1","1","",""
"","html-keyboard-response","45","128419","0.0-45.0","3IJXV6UZ1Y5ALGIQWIC3FSQUYF1RIX","A132GRVDGXPJGY","3WRBLBQ2GRU63BU2LFOJL1G32T90GO","","null","<img src=""img/food4.png"" style=""width:200px; border:14px solid green;"">","null","","","","","","","","","",""
"","image-keyboard-response","46","128810","0.0-46.0","3IJXV6UZ1Y5ALGIQWIC3FSQUYF1RIX","A132GRVDGXPJGY","3WRBLBQ2GRU63BU2LFOJL1G32T90GO","","389.20000000298023","img/food4.png","74","390.79999999701977","1","1","2","1","1,0.5,0,1,0.5,0,0.5,0,1","1,0.5,0,1,0.5,0,0.5,0,1","1","",""
"","html-keyboard-response","47","129113","0.0-47.0","3IJXV6UZ1Y5ALGIQWIC3FSQUYF1RIX","A132GRVDGXPJGY","3WRBLBQ2GRU63BU2LFOJL1G32T90GO","","null","<img src=""img/food4.png"" style=""width:200px; border:14px solid green;"">","null","","","","","","","","","",""
"","image-keyboard-response","48","130322","0.0-48.0","3IJXV6UZ1Y5ALGIQWIC3FSQUYF1RIX","A132GRVDGXPJGY","3WRBLBQ2GRU63BU2LFOJL1G32T90GO","","1206.5","img/food2.png","75","1208.5","2","0","1","1","1,0.5,0,1,0.5,0,0.5,0,1","1,0.5,0,1,0.5,0,0.5,0,1","1","",""
"","html-keyboard-response","49","130626","0.0-49.0","3IJXV6UZ1Y5ALGIQWIC3FSQUYF1RIX","A132GRVDGXPJGY","3WRBLBQ2GRU63BU2LFOJL1G32T90GO","","null","<img src=""img/food2.png"" style=""width:200px;border:14px solid red;"">","null","","","","","","","","","",""
"","image-keyboard-response","50","131542","0.0-50.0","3IJXV6UZ1Y5ALGIQWIC3FSQUYF1RIX","A132GRVDGXPJGY","3WRBLBQ2GRU63BU2LFOJL1G32T90GO","","912.6999999880791","img/food2.png","76","914.6000000089407","3","0","1","1","1,0.5,0,1,0.5,0,0.5,0,1","1,0.5,0,1,0.5,0,0.5,0,1","1","",""
"","html-keyboard-response","51","131845","0.0-51.0","3IJXV6UZ1Y5ALGIQWIC3FSQUYF1RIX","A132GRVDGXPJGY","3WRBLBQ2GRU63BU2LFOJL1G32T90GO","","null","<img src=""img/food2.png"" style=""width:200px;border:14px solid red;"">","null","","","","","","","","","",""
"","image-keyboard-response","52","133101","0.0-52.0","3IJXV6UZ1Y5ALGIQWIC3FSQUYF1RIX","A132GRVDGXPJGY","3WRBLBQ2GRU63BU2LFOJL1G32T90GO","","1253.2999999970198","img/food4.png","74","1258.5","1","1","2","1","1,0.5,0,1,0.5,0,0.5,0,1","1,0.5,0,1,0.5,0,0.5,0,1","1","",""
"","html-keyboard-response","53","133406","0.0-53.0","3IJXV6UZ1Y5ALGIQWIC3FSQUYF1RIX","A132GRVDGXPJGY","3WRBLBQ2GRU63BU2LFOJL1G32T90GO","","null","<img src=""img/food4.png"" style=""width:200px; border:14px solid green;"">","null","","","","","","","","","",""
"","image-keyboard-response","54","134637","0.0-54.0","3IJXV6UZ1Y5ALGIQWIC3FSQUYF1RIX","A132GRVDGXPJGY","3WRBLBQ2GRU63BU2LFOJL1G32T90GO","","1229.5","img/food4.png","74","1230.4000000059605","1","1","2","1","1,0.5,0,1,0.5,0,0.5,0,1","1,0.5,0,1,0.5,0,0.5,0,1","1","",""
"","html-keyboard-response","55","134940","0.0-55.0","3IJXV6UZ1Y5ALGIQWIC3FSQUYF1RIX","A132GRVDGXPJGY","3WRBLBQ2GRU63BU2LFOJL1G32T90GO","","null","<img src=""img/food4.png"" style=""width:200px; border:14px solid green;"">","null","","","","","","","","","",""
"","image-keyboard-response","56","135533","0.0-56.0","3IJXV6UZ1Y5ALGIQWIC3FSQUYF1RIX","A132GRVDGXPJGY","3WRBLBQ2GRU63BU2LFOJL1G32T90GO","","590.5999999940395","img/food4.png","74","592.5999999940395","1","1","2","1","1,0.5,0,1,0.5,0,0.5,0,1","1,0.5,0,1,0.5,0,0.5,0,1","1","",""
"","html-keyboard-response","57","135836","0.0-57.0","3IJXV6UZ1Y5ALGIQWIC3FSQUYF1RIX","A132GRVDGXPJGY","3WRBLBQ2GRU63BU2LFOJL1G32T90GO","","null","<img src=""img/food4.png"" style=""width:200px; border:14px solid green;"">","null","","","","","","","","","",""
"","image-keyboard-response","58","136770","0.0-58.0","3IJXV6UZ1Y5ALGIQWIC3FSQUYF1RIX","A132GRVDGXPJGY","3WRBLBQ2GRU63BU2LFOJL1G32T90GO","","931.2999999970198","img/food1.png","76","933.1000000089407","3","1","3","1","1,0.5,0,1,0.5,0,0.5,0,1","1,0.5,0,1,0.5,0,0.5,0,1","1","",""
"","html-keyboard-response","59","137073","0.0-59.0","3IJXV6UZ1Y5ALGIQWIC3FSQUYF1RIX","A132GRVDGXPJGY","3WRBLBQ2GRU63BU2LFOJL1G32T90GO","","null","<img src=""img/food1.png"" style=""width:200px; border:14px solid green;"">","null","","","","","","","","","",""
"","image-keyboard-response","60","137781","0.0-60.0","3IJXV6UZ1Y5ALGIQWIC3FSQUYF1RIX","A132GRVDGXPJGY","3WRBLBQ2GRU63BU2LFOJL1G32T90GO","","705.5","img/food1.png","76","707.3999999910593","3","1","3","1","1,0.5,0,1,0.5,0,0.5,0,1","1,0.5,0,1,0.5,0,0.5,0,1","1","",""
"","html-keyboard-response","61","138084","0.0-61.0","3IJXV6UZ1Y5ALGIQWIC3FSQUYF1RIX","A132GRVDGXPJGY","3WRBLBQ2GRU63BU2LFOJL1G32T90GO","","null","<img src=""img/food1.png"" style=""width:200px; border:14px solid green;"">","null","","","","","","","","","",""
"","image-keyboard-response","62","139297","0.0-62.0","3IJXV6UZ1Y5ALGIQWIC3FSQUYF1RIX","A132GRVDGXPJGY","3WRBLBQ2GRU63BU2LFOJL1G32T90GO","","1211","img/food2.png","74","1212.3999999910593","1","1","1","1","1,0.5,0,1,0.5,0,0.5,0,1","1,0.5,0,1,0.5,0,0.5,0,1","1","",""
"","html-keyboard-response","63","139599","0.0-63.0","3IJXV6UZ1Y5ALGIQWIC3FSQUYF1RIX","A132GRVDGXPJGY","3WRBLBQ2GRU63BU2LFOJL1G32T90GO","","null","<img src=""img/food2.png"" style=""width:200px; border:14px solid green;"">","null","","","","","","","","","",""
"","image-keyboard-response","64","140737","0.0-64.0","3IJXV6UZ1Y5ALGIQWIC3FSQUYF1RIX","A132GRVDGXPJGY","3WRBLBQ2GRU63BU2LFOJL1G32T90GO","","1137.7000000029802","img/food1.png","76","1138.699999988079","3","1","3","1","1,0.5,0,1,0.5,0,0.5,0,1","1,0.5,0,1,0.5,0,0.5,0,1","1","",""
"","html-keyboard-response","65","141041","0.0-65.0","3IJXV6UZ1Y5ALGIQWIC3FSQUYF1RIX","A132GRVDGXPJGY","3WRBLBQ2GRU63BU2LFOJL1G32T90GO","","null","<img src=""img/food1.png"" style=""width:200px; border:14px solid green;"">","null","","","","","","","","","",""
"","image-keyboard-response","66","141981","0.0-66.0","3IJXV6UZ1Y5ALGIQWIC3FSQUYF1RIX","A132GRVDGXPJGY","3WRBLBQ2GRU63BU2LFOJL1G32T90GO","","937.2999999970198","img/food1.png","76","938.9000000059605","3","1","3","1","1,0.5,0,1,0.5,0,0.5,0,1","1,0.5,0,1,0.5,0,0.5,0,1","1","",""
"","html-keyboard-response","67","142283","0.0-67.0","3IJXV6UZ1Y5ALGIQWIC3FSQUYF1RIX","A132GRVDGXPJGY","3WRBLBQ2GRU63BU2LFOJL1G32T90GO","","null","<img src=""img/food1.png"" style=""width:200px; border:14px solid green;"">","null","","","","","","","","","",""
"","image-keyboard-response","68","142789","0.0-68.0","3IJXV6UZ1Y5ALGIQWIC3FSQUYF1RIX","A132GRVDGXPJGY","3WRBLBQ2GRU63BU2LFOJL1G32T90GO","","505.70000000298023","img/food1.png","76","506.5","3","1","3","1","1,0.5,0,1,0.5,0,0.5,0,1","1,0.5,0,1,0.5,0,0.5,0,1","1","",""
"","html-keyboard-response","69","143093","0.0-69.0","3IJXV6UZ1Y5ALGIQWIC3FSQUYF1RIX","A132GRVDGXPJGY","3WRBLBQ2GRU63BU2LFOJL1G32T90GO","","null","<img src=""img/food1.png"" style=""width:200px; border:14px solid green;"">","null","","","","","","","","","",""
"","image-keyboard-response","70","143896","0.0-70.0","3IJXV6UZ1Y5ALGIQWIC3FSQUYF1RIX","A132GRVDGXPJGY","3WRBLBQ2GRU63BU2LFOJL1G32T90GO","","801.2000000029802","img/food4.png","74","803.0999999940395","1","1","2","1","1,0.5,0,1,0.5,0,0.5,0,1","1,0.5,0,1,0.5,0,0.5,0,1","1","",""
"","html-keyboard-response","71","144200","0.0-71.0","3IJXV6UZ1Y5ALGIQWIC3FSQUYF1RIX","A132GRVDGXPJGY","3WRBLBQ2GRU63BU2LFOJL1G32T90GO","","null","<img src=""img/food4.png"" style=""width:200px; border:14px solid green;"">","null","","","","","","","","","",""
"","image-keyboard-response","72","144985","0.0-72.0","3IJXV6UZ1Y5ALGIQWIC3FSQUYF1RIX","A132GRVDGXPJGY","3WRBLBQ2GRU63BU2LFOJL1G32T90GO","","782.5","img/food2.png","74","784.5","1","1","1","1","1,0.5,0,1,0.5,0,0.5,0,1","1,0.5,0,1,0.5,0,0.5,0,1","1","",""
"","html-keyboard-response","73","145288","0.0-73.0","3IJXV6UZ1Y5ALGIQWIC3FSQUYF1RIX","A132GRVDGXPJGY","3WRBLBQ2GRU63BU2LFOJL1G32T90GO","","null","<img src=""img/food2.png"" style=""width:200px; border:14px solid green;"">","null","","","","","","","","","",""
"","image-keyboard-response","74","146240","0.0-74.0","3IJXV6UZ1Y5ALGIQWIC3FSQUYF1RIX","A132GRVDGXPJGY","3WRBLBQ2GRU63BU2LFOJL1G32T90GO","","949.0999999940395","img/food1.png","76","951","3","1","3","1","1,0.5,0,1,0.5,0,0.5,0,1","1,0.5,0,1,0.5,0,0.5,0,1","1","",""
"","html-keyboard-response","75","146543","0.0-75.0","3IJXV6UZ1Y5ALGIQWIC3FSQUYF1RIX","A132GRVDGXPJGY","3WRBLBQ2GRU63BU2LFOJL1G32T90GO","","null","<img src=""img/food1.png"" style=""width:200px; border:14px solid green;"">","null","","","","","","","","","",""
"","image-keyboard-response","76","147180","0.0-76.0","3IJXV6UZ1Y5ALGIQWIC3FSQUYF1RIX","A132GRVDGXPJGY","3WRBLBQ2GRU63BU2LFOJL1G32T90GO","","634.7000000029802","img/food1.png","76","636.7000000029802","3","1","3","1","1,0.5,0,1,0.5,0,0.5,0,1","1,0.5,0,1,0.5,0,0.5,0,1","1","",""
"","html-keyboard-response","77","147484","0.0-77.0","3IJXV6UZ1Y5ALGIQWIC3FSQUYF1RIX","A132GRVDGXPJGY","3WRBLBQ2GRU63BU2LFOJL1G32T90GO","","null","<img src=""img/food1.png"" style=""width:200px; border:14px solid green;"">","null","","","","","","","","","",""
"","image-keyboard-response","78","148255","0.0-78.0","3IJXV6UZ1Y5ALGIQWIC3FSQUYF1RIX","A132GRVDGXPJGY","3WRBLBQ2GRU63BU2LFOJL1G32T90GO","","769.0999999940395","img/food4.png","74","771","1","1","2","1","1,0.5,0,1,0.5,0,0.5,0,1","1,0.5,0,1,0.5,0,0.5,0,1","1","",""
"","html-keyboard-response","79","148559","0.0-79.0","3IJXV6UZ1Y5ALGIQWIC3FSQUYF1RIX","A132GRVDGXPJGY","3WRBLBQ2GRU63BU2LFOJL1G32T90GO","","null","<img src=""img/food4.png"" style=""width:200px; border:14px solid green;"">","null","","","","","","","","","",""
"","image-keyboard-response","80","149496","0.0-80.0","3IJXV6UZ1Y5ALGIQWIC3FSQUYF1RIX","A132GRVDGXPJGY","3WRBLBQ2GRU63BU2LFOJL1G32T90GO","","934.2999999970198","img/food1.png","76","935.7999999970198","3","1","3","1","1,0.5,0,1,0.5,0,0.5,0,1","1,0.5,0,1,0.5,0,0.5,0,1","1","",""
"","html-keyboard-response","81","149798","0.0-81.0","3IJXV6UZ1Y5ALGIQWIC3FSQUYF1RIX","A132GRVDGXPJGY","3WRBLBQ2GRU63BU2LFOJL1G32T90GO","","null","<img src=""img/food1.png"" style=""width:200px; border:14px solid green;"">","null","","","","","","","","","",""
"","image-keyboard-response","82","150381","0.0-82.0","3IJXV6UZ1Y5ALGIQWIC3FSQUYF1RIX","A132GRVDGXPJGY","3WRBLBQ2GRU63BU2LFOJL1G32T90GO","","580.2999999970198","img/food1.png","76","582.1000000089407","3","1","3","1","1,0.5,0,1,0.5,0,0.5,0,1","1,0.5,0,1,0.5,0,0.5,0,1","1","",""
"","html-keyboard-response","83","150684","0.0-83.0","3IJXV6UZ1Y5ALGIQWIC3FSQUYF1RIX","A132GRVDGXPJGY","3WRBLBQ2GRU63BU2LFOJL1G32T90GO","","null","<img src=""img/food1.png"" style=""width:200px; border:14px solid green;"">","null","","","","","","","","","",""
"","image-keyboard-response","84","151332","0.0-84.0","3IJXV6UZ1Y5ALGIQWIC3FSQUYF1RIX","A132GRVDGXPJGY","3WRBLBQ2GRU63BU2LFOJL1G32T90GO","","644.7999999970198","img/food4.png","74","646.7000000029802","1","1","2","1","1,0.5,0,1,0.5,0,0.5,0,1","1,0.5,0,1,0.5,0,0.5,0,1","1","",""
"","html-keyboard-response","85","151635","0.0-85.0","3IJXV6UZ1Y5ALGIQWIC3FSQUYF1RIX","A132GRVDGXPJGY","3WRBLBQ2GRU63BU2LFOJL1G32T90GO","","null","<img src=""img/food4.png"" style=""width:200px; border:14px solid green;"">","null","","","","","","","","","",""
"","image-keyboard-response","86","152839","0.0-86.0","3IJXV6UZ1Y5ALGIQWIC3FSQUYF1RIX","A132GRVDGXPJGY","3WRBLBQ2GRU63BU2LFOJL1G32T90GO","","1204.0999999940395","img/food1.png","76","1204.5999999940395","3","1","3","1","1,0.5,0,1,0.5,0,0.5,0,1","1,0.5,0,1,0.5,0,0.5,0,1","1","",""
"","html-keyboard-response","87","153141","0.0-87.0","3IJXV6UZ1Y5ALGIQWIC3FSQUYF1RIX","A132GRVDGXPJGY","3WRBLBQ2GRU63BU2LFOJL1G32T90GO","","null","<img src=""img/food1.png"" style=""width:200px; border:14px solid green;"">","null","","","","","","","","","",""
"","image-keyboard-response","88","154063","0.0-88.0","3IJXV6UZ1Y5ALGIQWIC3FSQUYF1RIX","A132GRVDGXPJGY","3WRBLBQ2GRU63BU2LFOJL1G32T90GO","","919.0999999940395","img/food2.png","74","921.2000000029802","1","1","1","1","1,0.5,0,1,0.5,0,0.5,0,1","1,0.5,0,1,0.5,0,0.5,0,1","1","",""
"","html-keyboard-response","89","154365","0.0-89.0","3IJXV6UZ1Y5ALGIQWIC3FSQUYF1RIX","A132GRVDGXPJGY","3WRBLBQ2GRU63BU2LFOJL1G32T90GO","","null","<img src=""img/food2.png"" style=""width:200px; border:14px solid green;"">","null","","","","","","","","","",""
"","image-keyboard-response","90","155220","0.0-90.0","3IJXV6UZ1Y5ALGIQWIC3FSQUYF1RIX","A132GRVDGXPJGY","3WRBLBQ2GRU63BU2LFOJL1G32T90GO","","853.1999999880791","img/food4.png","74","854.1000000089407","1","1","2","1","1,0.5,0,1,0.5,0,0.5,0,1","1,0.5,0,1,0.5,0,0.5,0,1","1","",""
"","html-keyboard-response","91","155523","0.0-91.0","3IJXV6UZ1Y5ALGIQWIC3FSQUYF1RIX","A132GRVDGXPJGY","3WRBLBQ2GRU63BU2LFOJL1G32T90GO","","null","<img src=""img/food4.png"" style=""width:200px; border:14px solid green;"">","null","","","","","","","","","",""
"","image-keyboard-response","92","156146","0.0-92.0","3IJXV6UZ1Y5ALGIQWIC3FSQUYF1RIX","A132GRVDGXPJGY","3WRBLBQ2GRU63BU2LFOJL1G32T90GO","","620.7999999970198","img/food4.png","74","622.5999999940395","1","1","2","1","1,0.5,0,1,0.5,0,0.5,0,1","1,0.5,0,1,0.5,0,0.5,0,1","1","",""
"","html-keyboard-response","93","156450","0.0-93.0","3IJXV6UZ1Y5ALGIQWIC3FSQUYF1RIX","A132GRVDGXPJGY","3WRBLBQ2GRU63BU2LFOJL1G32T90GO","","null","<img src=""img/food4.png"" style=""width:200px; border:14px solid green;"">","null","","","","","","","","","",""
"","image-keyboard-response","94","156827","0.0-94.0","3IJXV6UZ1Y5ALGIQWIC3FSQUYF1RIX","A132GRVDGXPJGY","3WRBLBQ2GRU63BU2LFOJL1G32T90GO","","375.29999999701977","img/food4.png","74","377.29999999701977","1","1","2","1","1,0.5,0,1,0.5,0,0.5,0,1","1,0.5,0,1,0.5,0,0.5,0,1","1","",""
"","html-keyboard-response","95","157132","0.0-95.0","3IJXV6UZ1Y5ALGIQWIC3FSQUYF1RIX","A132GRVDGXPJGY","3WRBLBQ2GRU63BU2LFOJL1G32T90GO","","null","<img src=""img/food4.png"" style=""width:200px; border:14px solid green;"">","null","","","","","","","","","",""
"","image-keyboard-response","96","158031","0.0-96.0","3IJXV6UZ1Y5ALGIQWIC3FSQUYF1RIX","A132GRVDGXPJGY","3WRBLBQ2GRU63BU2LFOJL1G32T90GO","","896.3000000119209","img/food2.png","74","898.2999999970198","1","1","1","1","1,0.5,0,1,0.5,0,0.5,0,1","1,0.5,0,1,0.5,0,0.5,0,1","1","",""
"","html-keyboard-response","97","158335","0.0-97.0","3IJXV6UZ1Y5ALGIQWIC3FSQUYF1RIX","A132GRVDGXPJGY","3WRBLBQ2GRU63BU2LFOJL1G32T90GO","","null","<img src=""img/food2.png"" style=""width:200px; border:14px solid green;"">","null","","","","","","","","","",""
"","image-keyboard-response","98","159136","0.0-98.0","3IJXV6UZ1Y5ALGIQWIC3FSQUYF1RIX","A132GRVDGXPJGY","3WRBLBQ2GRU63BU2LFOJL1G32T90GO","","798","img/food4.png","74","799.8999999910593","1","1","2","1","1,0.5,0,1,0.5,0,0.5,0,1","1,0.5,0,1,0.5,0,0.5,0,1","1","",""
"","html-keyboard-response","99","159440","0.0-99.0","3IJXV6UZ1Y5ALGIQWIC3FSQUYF1RIX","A132GRVDGXPJGY","3WRBLBQ2GRU63BU2LFOJL1G32T90GO","","null","<img src=""img/food4.png"" style=""width:200px; border:14px solid green;"">","null","","","","","","","","","",""
"","image-keyboard-response","100","161362","0.0-100.0","3IJXV6UZ1Y5ALGIQWIC3FSQUYF1RIX","A132GRVDGXPJGY","3WRBLBQ2GRU63BU2LFOJL1G32T90GO","","1919.4000000059605","img/food2.png","74","1921","1","1","1","1","1,0.5,0,1,0.5,0,0.5,0,1","1,0.5,0,1,0.5,0,0.5,0,1","1","",""
"","html-keyboard-response","101","161664","0.0-101.0","3IJXV6UZ1Y5ALGIQWIC3FSQUYF1RIX","A132GRVDGXPJGY","3WRBLBQ2GRU63BU2LFOJL1G32T90GO","","null","<img src=""img/food2.png"" style=""width:200px; border:14px solid green;"">","null","","","","","","","","","",""
"","image-keyboard-response","102","162947","0.0-102.0","3IJXV6UZ1Y5ALGIQWIC3FSQUYF1RIX","A132GRVDGXPJGY","3WRBLBQ2GRU63BU2LFOJL1G32T90GO","","1280.7000000029802","img/food1.png","76","1282.2999999970198","3","1","3","1","1,0.5,0,1,0.5,0,0.5,0,1","1,0.5,0,1,0.5,0,0.5,0,1","1","",""
"","html-keyboard-response","103","163250","0.0-103.0","3IJXV6UZ1Y5ALGIQWIC3FSQUYF1RIX","A132GRVDGXPJGY","3WRBLBQ2GRU63BU2LFOJL1G32T90GO","","null","<img src=""img/food1.png"" style=""width:200px; border:14px solid green;"">","null","","","","","","","","","",""
"","image-keyboard-response","104","164115","0.0-104.0","3IJXV6UZ1Y5ALGIQWIC3FSQUYF1RIX","A132GRVDGXPJGY","3WRBLBQ2GRU63BU2LFOJL1G32T90GO","","862.4000000059605","img/food4.png","74","864.2999999970198","1","1","2","1","1,0.5,0,1,0.5,0,0.5,0,1","1,0.5,0,1,0.5,0,0.5,0,1","1","",""
"","html-keyboard-response","105","164418","0.0-105.0","3IJXV6UZ1Y5ALGIQWIC3FSQUYF1RIX","A132GRVDGXPJGY","3WRBLBQ2GRU63BU2LFOJL1G32T90GO","","null","<img src=""img/food4.png"" style=""width:200px; border:14px solid green;"">","null","","","","","","","","","",""
"","image-keyboard-response","106","165865","0.0-106.0","3IJXV6UZ1Y5ALGIQWIC3FSQUYF1RIX","A132GRVDGXPJGY","3WRBLBQ2GRU63BU2LFOJL1G32T90GO","","1444.2000000029802","img/food1.png","76","1446.2000000029802","3","1","3","1","1,0.5,0,1,0.5,0,0.5,0,1","1,0.5,0,1,0.5,0,0.5,0,1","1","",""
"","html-keyboard-response","107","166168","0.0-107.0","3IJXV6UZ1Y5ALGIQWIC3FSQUYF1RIX","A132GRVDGXPJGY","3WRBLBQ2GRU63BU2LFOJL1G32T90GO","","null","<img src=""img/food1.png"" style=""width:200px; border:14px solid green;"">","null","","","","","","","","","",""
"","image-keyboard-response","108","167621","0.0-108.0","3IJXV6UZ1Y5ALGIQWIC3FSQUYF1RIX","A132GRVDGXPJGY","3WRBLBQ2GRU63BU2LFOJL1G32T90GO","","1451.1000000089407","img/food4.png","74","1452.2999999970198","1","1","2","1","1,0.5,0,1,0.5,0,0.5,0,1","1,0.5,0,1,0.5,0,0.5,0,1","1","",""
"","html-keyboard-response","109","167922","0.0-109.0","3IJXV6UZ1Y5ALGIQWIC3FSQUYF1RIX","A132GRVDGXPJGY","3WRBLBQ2GRU63BU2LFOJL1G32T90GO","","null","<img src=""img/food4.png"" style=""width:200px; border:14px solid green;"">","null","","","","","","","","","",""
"","image-keyboard-response","110","168899","0.0-110.0","3IJXV6UZ1Y5ALGIQWIC3FSQUYF1RIX","A132GRVDGXPJGY","3WRBLBQ2GRU63BU2LFOJL1G32T90GO","","974.4000000059605","img/food2.png","74","976.3000000119209","1","1","1","1","1,0.5,0,1,0.5,0,0.5,0,1","1,0.5,0,1,0.5,0,0.5,0,1","1","",""
"","html-keyboard-response","111","169202","0.0-111.0","3IJXV6UZ1Y5ALGIQWIC3FSQUYF1RIX","A132GRVDGXPJGY","3WRBLBQ2GRU63BU2LFOJL1G32T90GO","","null","<img src=""img/food2.png"" style=""width:200px; border:14px solid green;"">","null","","","","","","","","","",""
"","image-keyboard-response","112","169876","0.0-112.0","3IJXV6UZ1Y5ALGIQWIC3FSQUYF1RIX","A132GRVDGXPJGY","3WRBLBQ2GRU63BU2LFOJL1G32T90GO","","671.0999999940395","img/food4.png","74","673.1000000089407","1","1","2","1","1,0.5,0,1,0.5,0,0.5,0,1","1,0.5,0,1,0.5,0,0.5,0,1","1","",""
"","html-keyboard-response","113","170179","0.0-113.0","3IJXV6UZ1Y5ALGIQWIC3FSQUYF1RIX","A132GRVDGXPJGY","3WRBLBQ2GRU63BU2LFOJL1G32T90GO","","null","<img src=""img/food4.png"" style=""width:200px; border:14px solid green;"">","null","","","","","","","","","",""
"","image-keyboard-response","114","171008","0.0-114.0","3IJXV6UZ1Y5ALGIQWIC3FSQUYF1RIX","A132GRVDGXPJGY","3WRBLBQ2GRU63BU2LFOJL1G32T90GO","","827.8999999910593","img/food1.png","76","828.8000000119209","3","1","3","1","1,0.5,0,1,0.5,0,0.5,0,1","1,0.5,0,1,0.5,0,0.5,0,1","1","",""
"","html-keyboard-response","115","171311","0.0-115.0","3IJXV6UZ1Y5ALGIQWIC3FSQUYF1RIX","A132GRVDGXPJGY","3WRBLBQ2GRU63BU2LFOJL1G32T90GO","","null","<img src=""img/food1.png"" style=""width:200px; border:14px solid green;"">","null","","","","","","","","","",""
"","image-keyboard-response","116","171832","0.0-116.0","3IJXV6UZ1Y5ALGIQWIC3FSQUYF1RIX","A132GRVDGXPJGY","3WRBLBQ2GRU63BU2LFOJL1G32T90GO","","516.7999999970198","img/food1.png","76","517.7000000029802","3","1","3","1","1,0.5,0,1,0.5,0,0.5,0,1","1,0.5,0,1,0.5,0,0.5,0,1","1","",""
"","html-keyboard-response","117","172135","0.0-117.0","3IJXV6UZ1Y5ALGIQWIC3FSQUYF1RIX","A132GRVDGXPJGY","3WRBLBQ2GRU63BU2LFOJL1G32T90GO","","null","<img src=""img/food1.png"" style=""width:200px; border:14px solid green;"">","null","","","","","","","","","",""
"","image-keyboard-response","118","173061","0.0-118.0","3IJXV6UZ1Y5ALGIQWIC3FSQUYF1RIX","A132GRVDGXPJGY","3WRBLBQ2GRU63BU2LFOJL1G32T90GO","","923","img/food4.png","74","925.0999999940395","1","1","2","1","1,0.5,0,1,0.5,0,0.5,0,1","1,0.5,0,1,0.5,0,0.5,0,1","1","",""
"","html-keyboard-response","119","173365","0.0-119.0","3IJXV6UZ1Y5ALGIQWIC3FSQUYF1RIX","A132GRVDGXPJGY","3WRBLBQ2GRU63BU2LFOJL1G32T90GO","","null","<img src=""img/food4.png"" style=""width:200px; border:14px solid green;"">","null","","","","","","","","","",""
"","image-keyboard-response","120","174211","0.0-120.0","3IJXV6UZ1Y5ALGIQWIC3FSQUYF1RIX","A132GRVDGXPJGY","3WRBLBQ2GRU63BU2LFOJL1G32T90GO","","842.7999999970198","img/food2.png","74","844.5999999940395","1","1","1","1","1,0.5,0,1,0.5,0,0.5,0,1","1,0.5,0,1,0.5,0,0.5,0,1","1","",""
"","html-keyboard-response","121","174514","0.0-121.0","3IJXV6UZ1Y5ALGIQWIC3FSQUYF1RIX","A132GRVDGXPJGY","3WRBLBQ2GRU63BU2LFOJL1G32T90GO","","null","<img src=""img/food2.png"" style=""width:200px; border:14px solid green;"">","null","","","","","","","","","",""
"","image-keyboard-response","122","175015","0.0-122.0","3IJXV6UZ1Y5ALGIQWIC3FSQUYF1RIX","A132GRVDGXPJGY","3WRBLBQ2GRU63BU2LFOJL1G32T90GO","","498.6000000089407","img/food2.png","74","500.3999999910593","1","1","1","1","1,0.5,0,1,0.5,0,0.5,0,1","1,0.5,0,1,0.5,0,0.5,0,1","1","",""
"","html-keyboard-response","123","175318","0.0-123.0","3IJXV6UZ1Y5ALGIQWIC3FSQUYF1RIX","A132GRVDGXPJGY","3WRBLBQ2GRU63BU2LFOJL1G32T90GO","","null","<img src=""img/food2.png"" style=""width:200px; border:14px solid green;"">","null","","","","","","","","","",""
"","image-keyboard-response","124","176085","0.0-124.0","3IJXV6UZ1Y5ALGIQWIC3FSQUYF1RIX","A132GRVDGXPJGY","3WRBLBQ2GRU63BU2LFOJL1G32T90GO","","764.2000000029802","img/food4.png","74","765.9000000059605","1","1","2","1","1,0.5,0,1,0.5,0,0.5,0,1","1,0.5,0,1,0.5,0,0.5,0,1","1","",""
"","html-keyboard-response","125","176396","0.0-125.0","3IJXV6UZ1Y5ALGIQWIC3FSQUYF1RIX","A132GRVDGXPJGY","3WRBLBQ2GRU63BU2LFOJL1G32T90GO","","null","<img src=""img/food4.png"" style=""width:200px; border:14px solid green;"">","null","","","","","","","","","",""
"","image-keyboard-response","126","178216","0.0-126.0","3IJXV6UZ1Y5ALGIQWIC3FSQUYF1RIX","A132GRVDGXPJGY","3WRBLBQ2GRU63BU2LFOJL1G32T90GO","","1816.7999999970198","img/food1.png","76","1818.6000000089407","3","1","3","1","1,0.5,0,1,0.5,0,0.5,0,1","1,0.5,0,1,0.5,0,0.5,0,1","1","",""
"","html-keyboard-response","127","178519","0.0-127.0","3IJXV6UZ1Y5ALGIQWIC3FSQUYF1RIX","A132GRVDGXPJGY","3WRBLBQ2GRU63BU2LFOJL1G32T90GO","","null","<img src=""img/food1.png"" style=""width:200px; border:14px solid green;"">","null","","","","","","","","","",""
"","image-keyboard-response","128","179255","0.0-128.0","3IJXV6UZ1Y5ALGIQWIC3FSQUYF1RIX","A132GRVDGXPJGY","3WRBLBQ2GRU63BU2LFOJL1G32T90GO","","733.3000000119209","img/food2.png","74","735.3000000119209","1","1","1","1","1,0.5,0,1,0.5,0,0.5,0,1","1,0.5,0,1,0.5,0,0.5,0,1","1","",""
"","html-keyboard-response","129","179559","0.0-129.0","3IJXV6UZ1Y5ALGIQWIC3FSQUYF1RIX","A132GRVDGXPJGY","3WRBLBQ2GRU63BU2LFOJL1G32T90GO","","null","<img src=""img/food2.png"" style=""width:200px; border:14px solid green;"">","null","","","","","","","","","",""
"","image-keyboard-response","130","180475","0.0-130.0","3IJXV6UZ1Y5ALGIQWIC3FSQUYF1RIX","A132GRVDGXPJGY","3WRBLBQ2GRU63BU2LFOJL1G32T90GO","","913.5999999940395","img/food4.png","74","915.2999999970198","1","1","2","1","1,0.5,0,1,0.5,0,0.5,0,1","1,0.5,0,1,0.5,0,0.5,0,1","1","",""
"","html-keyboard-response","131","180781","0.0-131.0","3IJXV6UZ1Y5ALGIQWIC3FSQUYF1RIX","A132GRVDGXPJGY","3WRBLBQ2GRU63BU2LFOJL1G32T90GO","","null","<img src=""img/food4.png"" style=""width:200px; border:14px solid green;"">","null","","","","","","","","","",""
"","image-keyboard-response","132","181587","0.0-132.0","3IJXV6UZ1Y5ALGIQWIC3FSQUYF1RIX","A132GRVDGXPJGY","3WRBLBQ2GRU63BU2LFOJL1G32T90GO","","804.1999999880791","img/food1.png","76","805.5","3","1","3","1","1,0.5,0,1,0.5,0,0.5,0,1","1,0.5,0,1,0.5,0,0.5,0,1","1","",""
"","html-keyboard-response","133","181890","0.0-133.0","3IJXV6UZ1Y5ALGIQWIC3FSQUYF1RIX","A132GRVDGXPJGY","3WRBLBQ2GRU63BU2LFOJL1G32T90GO","","null","<img src=""img/food1.png"" style=""width:200px; border:14px solid green;"">","null","","","","","","","","","",""
"","image-keyboard-response","134","182329","0.0-134.0","3IJXV6UZ1Y5ALGIQWIC3FSQUYF1RIX","A132GRVDGXPJGY","3WRBLBQ2GRU63BU2LFOJL1G32T90GO","","437.1000000089407","img/food1.png","76","438.69999998807907","3","1","3","1","1,0.5,0,1,0.5,0,0.5,0,1","1,0.5,0,1,0.5,0,0.5,0,1","1","",""
"","html-keyboard-response","135","182631","0.0-135.0","3IJXV6UZ1Y5ALGIQWIC3FSQUYF1RIX","A132GRVDGXPJGY","3WRBLBQ2GRU63BU2LFOJL1G32T90GO","","null","<img src=""img/food1.png"" style=""width:200px; border:14px solid green;"">","null","","","","","","","","","",""
"","image-keyboard-response","136","183472","0.0-136.0","3IJXV6UZ1Y5ALGIQWIC3FSQUYF1RIX","A132GRVDGXPJGY","3WRBLBQ2GRU63BU2LFOJL1G32T90GO","","839.7000000029802","img/food1.png","76","840.7999999970198","3","1","3","1","1,0.5,0,1,0.5,0,0.5,0,1","1,0.5,0,1,0.5,0,0.5,0,1","1","",""
"","html-keyboard-response","137","183775","0.0-137.0","3IJXV6UZ1Y5ALGIQWIC3FSQUYF1RIX","A132GRVDGXPJGY","3WRBLBQ2GRU63BU2LFOJL1G32T90GO","","null","<img src=""img/food1.png"" style=""width:200px; border:14px solid green;"">","null","","","","","","","","","",""
"","image-keyboard-response","138","184409","0.0-138.0","3IJXV6UZ1Y5ALGIQWIC3FSQUYF1RIX","A132GRVDGXPJGY","3WRBLBQ2GRU63BU2LFOJL1G32T90GO","","632.9000000059605","img/food4.png","74","633.6999999880791","1","1","2","1","1,0.5,0,1,0.5,0,0.5,0,1","1,0.5,0,1,0.5,0,0.5,0,1","1","",""
"","html-keyboard-response","139","184713","0.0-139.0","3IJXV6UZ1Y5ALGIQWIC3FSQUYF1RIX","A132GRVDGXPJGY","3WRBLBQ2GRU63BU2LFOJL1G32T90GO","","null","<img src=""img/food4.png"" style=""width:200px; border:14px solid green;"">","null","","","","","","","","","",""
"","image-keyboard-response","140","185438","0.0-140.0","3IJXV6UZ1Y5ALGIQWIC3FSQUYF1RIX","A132GRVDGXPJGY","3WRBLBQ2GRU63BU2LFOJL1G32T90GO","","721.8999999910593","img/food1.png","76","723.7000000029802","3","1","3","1","1,0.5,0,1,0.5,0,0.5,0,1","1,0.5,0,1,0.5,0,0.5,0,1","1","",""
"","html-keyboard-response","141","185742","0.0-141.0","3IJXV6UZ1Y5ALGIQWIC3FSQUYF1RIX","A132GRVDGXPJGY","3WRBLBQ2GRU63BU2LFOJL1G32T90GO","","null","<img src=""img/food1.png"" style=""width:200px; border:14px solid green;"">","null","","","","","","","","","",""
"","image-keyboard-response","142","186689","0.0-142.0","3IJXV6UZ1Y5ALGIQWIC3FSQUYF1RIX","A132GRVDGXPJGY","3WRBLBQ2GRU63BU2LFOJL1G32T90GO","","944.5","img/food2.png","74","946.5","1","1","1","1","1,0.5,0,1,0.5,0,0.5,0,1","1,0.5,0,1,0.5,0,0.5,0,1","1","",""
"","html-keyboard-response","143","186993","0.0-143.0","3IJXV6UZ1Y5ALGIQWIC3FSQUYF1RIX","A132GRVDGXPJGY","3WRBLBQ2GRU63BU2LFOJL1G32T90GO","","null","<img src=""img/food2.png"" style=""width:200px; border:14px solid green;"">","null","","","","","","","","","",""
"","image-keyboard-response","144","187507","0.0-144.0","3IJXV6UZ1Y5ALGIQWIC3FSQUYF1RIX","A132GRVDGXPJGY","3WRBLBQ2GRU63BU2LFOJL1G32T90GO","","511.59999999403954","img/food2.png","74","513.5999999940395","1","1","1","1","1,0.5,0,1,0.5,0,0.5,0,1","1,0.5,0,1,0.5,0,0.5,0,1","1","",""
"","html-keyboard-response","145","187810","0.0-145.0","3IJXV6UZ1Y5ALGIQWIC3FSQUYF1RIX","A132GRVDGXPJGY","3WRBLBQ2GRU63BU2LFOJL1G32T90GO","","null","<img src=""img/food2.png"" style=""width:200px; border:14px solid green;"">","null","","","","","","","","","",""
"","image-keyboard-response","146","188150","0.0-146.0","3IJXV6UZ1Y5ALGIQWIC3FSQUYF1RIX","A132GRVDGXPJGY","3WRBLBQ2GRU63BU2LFOJL1G32T90GO","","336.8999999910593","img/food2.png","74","338.79999999701977","1","1","1","1","1,0.5,0,1,0.5,0,0.5,0,1","1,0.5,0,1,0.5,0,0.5,0,1","1","",""
"","html-keyboard-response","147","188453","0.0-147.0","3IJXV6UZ1Y5ALGIQWIC3FSQUYF1RIX","A132GRVDGXPJGY","3WRBLBQ2GRU63BU2LFOJL1G32T90GO","","null","<img src=""img/food2.png"" style=""width:200px; border:14px solid green;"">","null","","","","","","","","","",""
"","image-keyboard-response","148","189399","0.0-148.0","3IJXV6UZ1Y5ALGIQWIC3FSQUYF1RIX","A132GRVDGXPJGY","3WRBLBQ2GRU63BU2LFOJL1G32T90GO","","943.4000000059605","img/food1.png","76","945.3999999910593","3","1","3","1","1,0.5,0,1,0.5,0,0.5,0,1","1,0.5,0,1,0.5,0,0.5,0,1","1","",""
"","html-keyboard-response","149","189703","0.0-149.0","3IJXV6UZ1Y5ALGIQWIC3FSQUYF1RIX","A132GRVDGXPJGY","3WRBLBQ2GRU63BU2LFOJL1G32T90GO","","null","<img src=""img/food1.png"" style=""width:200px; border:14px solid green;"">","null","","","","","","","","","",""
"","image-keyboard-response","150","190055","0.0-150.0","3IJXV6UZ1Y5ALGIQWIC3FSQUYF1RIX","A132GRVDGXPJGY","3WRBLBQ2GRU63BU2LFOJL1G32T90GO","","350.1000000089407","img/food1.png","76","352.09999999403954","3","1","3","1","1,0.5,0,1,0.5,0,0.5,0,1","1,0.5,0,1,0.5,0,0.5,0,1","1","",""
"","html-keyboard-response","151","190358","0.0-151.0","3IJXV6UZ1Y5ALGIQWIC3FSQUYF1RIX","A132GRVDGXPJGY","3WRBLBQ2GRU63BU2LFOJL1G32T90GO","","null","<img src=""img/food1.png"" style=""width:200px; border:14px solid green;"">","null","","","","","","","","","",""
"","image-keyboard-response","152","191010","0.0-152.0","3IJXV6UZ1Y5ALGIQWIC3FSQUYF1RIX","A132GRVDGXPJGY","3WRBLBQ2GRU63BU2LFOJL1G32T90GO","","648.5999999940395","img/food4.png","74","650.5","1","1","2","1","1,0.5,0,1,0.5,0,0.5,0,1","1,0.5,0,1,0.5,0,0.5,0,1","1","",""
"","html-keyboard-response","153","191313","0.0-153.0","3IJXV6UZ1Y5ALGIQWIC3FSQUYF1RIX","A132GRVDGXPJGY","3WRBLBQ2GRU63BU2LFOJL1G32T90GO","","null","<img src=""img/food4.png"" style=""width:200px; border:14px solid green;"">","null","","","","","","","","","",""
"","image-keyboard-response","154","191649","0.0-154.0","3IJXV6UZ1Y5ALGIQWIC3FSQUYF1RIX","A132GRVDGXPJGY","3WRBLBQ2GRU63BU2LFOJL1G32T90GO","","334.20000000298023","img/food2.png","74","336.09999999403954","1","1","1","1","1,0.5,0,1,0.5,0,0.5,0,1","1,0.5,0,1,0.5,0,0.5,0,1","1","",""
"","html-keyboard-response","155","191953","0.0-155.0","3IJXV6UZ1Y5ALGIQWIC3FSQUYF1RIX","A132GRVDGXPJGY","3WRBLBQ2GRU63BU2LFOJL1G32T90GO","","null","<img src=""img/food2.png"" style=""width:200px; border:14px solid green;"">","null","","","","","","","","","",""
"","image-keyboard-response","156","192396","0.0-156.0","3IJXV6UZ1Y5ALGIQWIC3FSQUYF1RIX","A132GRVDGXPJGY","3WRBLBQ2GRU63BU2LFOJL1G32T90GO","","441.70000000298023","img/food1.png","74","443.20000000298023","1","0","3","1","1,0.5,0,1,0.5,0,0.5,0,1","1,0.5,0,1,0.5,0,0.5,0,1","1","",""
"","html-keyboard-response","157","192699","0.0-157.0","3IJXV6UZ1Y5ALGIQWIC3FSQUYF1RIX","A132GRVDGXPJGY","3WRBLBQ2GRU63BU2LFOJL1G32T90GO","","null","<img src=""img/food1.png"" style=""width:200px;border:14px solid red;"">","null","","","","","","","","","",""
"","image-keyboard-response","158","192918","0.0-158.0","3IJXV6UZ1Y5ALGIQWIC3FSQUYF1RIX","A132GRVDGXPJGY","3WRBLBQ2GRU63BU2LFOJL1G32T90GO","","216.59999999403954","img/food2.png","76","218.3999999910593","3","0","1","1","1,0.5,0,1,0.5,0,0.5,0,1","1,0.5,0,1,0.5,0,0.5,0,1","1","",""
"","html-keyboard-response","159","193222","0.0-159.0","3IJXV6UZ1Y5ALGIQWIC3FSQUYF1RIX","A132GRVDGXPJGY","3WRBLBQ2GRU63BU2LFOJL1G32T90GO","","null","<img src=""img/food2.png"" style=""width:200px;border:14px solid red;"">","null","","","","","","","","","",""
"","image-keyboard-response","160","194741","0.0-160.0","3IJXV6UZ1Y5ALGIQWIC3FSQUYF1RIX","A132GRVDGXPJGY","3WRBLBQ2GRU63BU2LFOJL1G32T90GO","","1516.7000000029802","img/food1.png","76","1518.7999999970198","3","1","3","1","1,0.5,0,1,0.5,0,0.5,0,1","1,0.5,0,1,0.5,0,0.5,0,1","1","",""
"","html-keyboard-response","161","195045","0.0-161.0","3IJXV6UZ1Y5ALGIQWIC3FSQUYF1RIX","A132GRVDGXPJGY","3WRBLBQ2GRU63BU2LFOJL1G32T90GO","","null","<img src=""img/food1.png"" style=""width:200px; border:14px solid green;"">","null","","","","","","","","","",""
"","image-keyboard-response","162","195694","0.0-162.0","3IJXV6UZ1Y5ALGIQWIC3FSQUYF1RIX","A132GRVDGXPJGY","3WRBLBQ2GRU63BU2LFOJL1G32T90GO","","646.9000000059605","img/food4.png","74","648.9000000059605","1","1","2","1","1,0.5,0,1,0.5,0,0.5,0,1","1,0.5,0,1,0.5,0,0.5,0,1","1","",""
"","html-keyboard-response","163","195998","0.0-163.0","3IJXV6UZ1Y5ALGIQWIC3FSQUYF1RIX","A132GRVDGXPJGY","3WRBLBQ2GRU63BU2LFOJL1G32T90GO","","null","<img src=""img/food4.png"" style=""width:200px; border:14px solid green;"">","null","","","","","","","","","",""
"","image-keyboard-response","164","196510","0.0-164.0","3IJXV6UZ1Y5ALGIQWIC3FSQUYF1RIX","A132GRVDGXPJGY","3WRBLBQ2GRU63BU2LFOJL1G32T90GO","","509.5","img/food2.png","74","511.5","1","1","1","1","1,0.5,0,1,0.5,0,0.5,0,1","1,0.5,0,1,0.5,0,0.5,0,1","1","",""
"","html-keyboard-response","165","196813","0.0-165.0","3IJXV6UZ1Y5ALGIQWIC3FSQUYF1RIX","A132GRVDGXPJGY","3WRBLBQ2GRU63BU2LFOJL1G32T90GO","","null","<img src=""img/food2.png"" style=""width:200px; border:14px solid green;"">","null","","","","","","","","","",""
"","image-keyboard-response","166","197232","0.0-166.0","3IJXV6UZ1Y5ALGIQWIC3FSQUYF1RIX","A132GRVDGXPJGY","3WRBLBQ2GRU63BU2LFOJL1G32T90GO","","416.79999999701977","img/food2.png","74","418.19999998807907","1","1","1","1","1,0.5,0,1,0.5,0,0.5,0,1","1,0.5,0,1,0.5,0,0.5,0,1","1","",""
"","html-keyboard-response","167","197534","0.0-167.0","3IJXV6UZ1Y5ALGIQWIC3FSQUYF1RIX","A132GRVDGXPJGY","3WRBLBQ2GRU63BU2LFOJL1G32T90GO","","null","<img src=""img/food2.png"" style=""width:200px; border:14px solid green;"">","null","","","","","","","","","",""
"","image-keyboard-response","168","198293","0.0-168.0","3IJXV6UZ1Y5ALGIQWIC3FSQUYF1RIX","A132GRVDGXPJGY","3WRBLBQ2GRU63BU2LFOJL1G32T90GO","","757","img/food1.png","76","758.9000000059605","3","1","3","1","1,0.5,0,1,0.5,0,0.5,0,1","1,0.5,0,1,0.5,0,0.5,0,1","1","",""
"","html-keyboard-response","169","198596","0.0-169.0","3IJXV6UZ1Y5ALGIQWIC3FSQUYF1RIX","A132GRVDGXPJGY","3WRBLBQ2GRU63BU2LFOJL1G32T90GO","","null","<img src=""img/food1.png"" style=""width:200px; border:14px solid green;"">","null","","","","","","","","","",""
"","image-keyboard-response","170","199414","0.0-170.0","3IJXV6UZ1Y5ALGIQWIC3FSQUYF1RIX","A132GRVDGXPJGY","3WRBLBQ2GRU63BU2LFOJL1G32T90GO","","816.1000000089407","img/food2.png","74","818","1","1","1","1","1,0.5,0,1,0.5,0,0.5,0,1","1,0.5,0,1,0.5,0,0.5,0,1","1","",""
"","html-keyboard-response","171","199717","0.0-171.0","3IJXV6UZ1Y5ALGIQWIC3FSQUYF1RIX","A132GRVDGXPJGY","3WRBLBQ2GRU63BU2LFOJL1G32T90GO","","null","<img src=""img/food2.png"" style=""width:200px; border:14px solid green;"">","null","","","","","","","","","",""
"","image-keyboard-response","172","200348","0.0-172.0","3IJXV6UZ1Y5ALGIQWIC3FSQUYF1RIX","A132GRVDGXPJGY","3WRBLBQ2GRU63BU2LFOJL1G32T90GO","","627.7000000029802","img/food4.png","74","629.5999999940395","1","1","2","1","1,0.5,0,1,0.5,0,0.5,0,1","1,0.5,0,1,0.5,0,0.5,0,1","1","",""
"","html-keyboard-response","173","200651","0.0-173.0","3IJXV6UZ1Y5ALGIQWIC3FSQUYF1RIX","A132GRVDGXPJGY","3WRBLBQ2GRU63BU2LFOJL1G32T90GO","","null","<img src=""img/food4.png"" style=""width:200px; border:14px solid green;"">","null","","","","","","","","","",""
"","image-keyboard-response","174","201331","0.0-174.0","3IJXV6UZ1Y5ALGIQWIC3FSQUYF1RIX","A132GRVDGXPJGY","3WRBLBQ2GRU63BU2LFOJL1G32T90GO","","677.7000000029802","img/food2.png","74","679.5","1","1","1","1","1,0.5,0,1,0.5,0,0.5,0,1","1,0.5,0,1,0.5,0,0.5,0,1","1","",""
"","html-keyboard-response","175","201636","0.0-175.0","3IJXV6UZ1Y5ALGIQWIC3FSQUYF1RIX","A132GRVDGXPJGY","3WRBLBQ2GRU63BU2LFOJL1G32T90GO","","null","<img src=""img/food2.png"" style=""width:200px; border:14px solid green;"">","null","","","","","","","","","",""
"","image-keyboard-response","176","202541","0.0-176.0","3IJXV6UZ1Y5ALGIQWIC3FSQUYF1RIX","A132GRVDGXPJGY","3WRBLBQ2GRU63BU2LFOJL1G32T90GO","","903.2000000029802","img/food1.png","76","904.7000000029802","3","1","3","1","1,0.5,0,1,0.5,0,0.5,0,1","1,0.5,0,1,0.5,0,0.5,0,1","1","",""
"","html-keyboard-response","177","202843","0.0-177.0","3IJXV6UZ1Y5ALGIQWIC3FSQUYF1RIX","A132GRVDGXPJGY","3WRBLBQ2GRU63BU2LFOJL1G32T90GO","","null","<img src=""img/food1.png"" style=""width:200px; border:14px solid green;"">","null","","","","","","","","","",""
"","image-keyboard-response","178","203568","0.0-178.0","3IJXV6UZ1Y5ALGIQWIC3FSQUYF1RIX","A132GRVDGXPJGY","3WRBLBQ2GRU63BU2LFOJL1G32T90GO","","723.2000000029802","img/food2.png","74","724.7000000029802","1","1","1","1","1,0.5,0,1,0.5,0,0.5,0,1","1,0.5,0,1,0.5,0,0.5,0,1","1","",""
"","html-keyboard-response","179","203870","0.0-179.0","3IJXV6UZ1Y5ALGIQWIC3FSQUYF1RIX","A132GRVDGXPJGY","3WRBLBQ2GRU63BU2LFOJL1G32T90GO","","null","<img src=""img/food2.png"" style=""width:200px; border:14px solid green;"">","null","","","","","","","","","",""
"","image-keyboard-response","180","204390","0.0-180.0","3IJXV6UZ1Y5ALGIQWIC3FSQUYF1RIX","A132GRVDGXPJGY","3WRBLBQ2GRU63BU2LFOJL1G32T90GO","","517.2999999970198","img/food2.png","74","519.2000000029802","1","1","1","1","1,0.5,0,1,0.5,0,0.5,0,1","1,0.5,0,1,0.5,0,0.5,0,1","1","",""
"","html-keyboard-response","181","204694","0.0-181.0","3IJXV6UZ1Y5ALGIQWIC3FSQUYF1RIX","A132GRVDGXPJGY","3WRBLBQ2GRU63BU2LFOJL1G32T90GO","","null","<img src=""img/food2.png"" style=""width:200px; border:14px solid green;"">","null","","","","","","","","","",""
"","html-keyboard-response","182","223736","0.0-182.0","3IJXV6UZ1Y5ALGIQWIC3FSQUYF1RIX","A132GRVDGXPJGY","3WRBLBQ2GRU63BU2LFOJL1G32T90GO","","","","","","","","","","","","","",""
"","instructions","183","246007","0.0-183.0","3IJXV6UZ1Y5ALGIQWIC3FSQUYF1RIX","A132GRVDGXPJGY","3WRBLBQ2GRU63BU2LFOJL1G32T90GO","[{""page_index"":0,""viewing_time"":18529.79999999702},{""page_index"":1,""viewing_time"":3739.2999999970198}]","22269.29999999702","","","","","","","","","","","",""
"","image-keyboard-response","184","246641","0.0-184.0","3IJXV6UZ1Y5ALGIQWIC3FSQUYF1RIX","A132GRVDGXPJGY","3WRBLBQ2GRU63BU2LFOJL1G32T90GO","","632.7000000029802","img/food5.png","74","634.8999999910593","1","1","3","2","1,0.5,0,1,0.5,0,0.5,0,1","0,1,0.5,0,1,0.5,1,0.5,0","3","false",""
"","html-keyboard-response","185","246945","0.0-185.0","3IJXV6UZ1Y5ALGIQWIC3FSQUYF1RIX","A132GRVDGXPJGY","3WRBLBQ2GRU63BU2LFOJL1G32T90GO","","null","<img src=""img/food5.png"" style=""width:200px; border:14px solid green;"">","null","","","","","","","","","",""
"","image-keyboard-response","186","247623","0.0-187.0","3IJXV6UZ1Y5ALGIQWIC3FSQUYF1RIX","A132GRVDGXPJGY","3WRBLBQ2GRU63BU2LFOJL1G32T90GO","","673.5","img/food6.png","74","675.5","1","0","2","2","1,0.5,0,1,0.5,0,0.5,0,1","0,1,0.5,0,1,0.5,1,0.5,0","3","false",""
"","html-keyboard-response","187","247926","0.0-188.0","3IJXV6UZ1Y5ALGIQWIC3FSQUYF1RIX","A132GRVDGXPJGY","3WRBLBQ2GRU63BU2LFOJL1G32T90GO","","null","<img src=""img/food6.png"" style=""width:200px;border:14px solid red;"">","null","","","","","","","","","",""
"","image-keyboard-response","188","248263","0.0-190.0","3IJXV6UZ1Y5ALGIQWIC3FSQUYF1RIX","A132GRVDGXPJGY","3WRBLBQ2GRU63BU2LFOJL1G32T90GO","","335.6000000089407","img/food6.png","75","336.70000000298023","2","1","2","2","1,0.5,0,1,0.5,0,0.5,0,1","0,1,0.5,0,1,0.5,1,0.5,0","3","false",""
"","html-keyboard-response","189","248566","0.0-191.0","3IJXV6UZ1Y5ALGIQWIC3FSQUYF1RIX","A132GRVDGXPJGY","3WRBLBQ2GRU63BU2LFOJL1G32T90GO","","null","<img src=""img/food6.png"" style=""width:200px; border:14px solid green;"">","null","","","","","","","","","",""
"","image-keyboard-response","190","249381","0.0-193.0","3IJXV6UZ1Y5ALGIQWIC3FSQUYF1RIX","A132GRVDGXPJGY","3WRBLBQ2GRU63BU2LFOJL1G32T90GO","","812.2999999970198","img/food6.png","76","814.3999999910593","3","1","2","2","1,0.5,0,1,0.5,0,0.5,0,1","0,1,0.5,0,1,0.5,1,0.5,0","3","false",""
"","html-keyboard-response","191","249685","0.0-194.0","3IJXV6UZ1Y5ALGIQWIC3FSQUYF1RIX","A132GRVDGXPJGY","3WRBLBQ2GRU63BU2LFOJL1G32T90GO","","null","<img src=""img/food6.png"" style=""width:200px; border:14px solid green;"">","null","","","","","","","","","",""
"","image-keyboard-response","192","250122","0.0-196.0","3IJXV6UZ1Y5ALGIQWIC3FSQUYF1RIX","A132GRVDGXPJGY","3WRBLBQ2GRU63BU2LFOJL1G32T90GO","","434.29999999701977","img/food6.png","75","436","2","1","2","2","1,0.5,0,1,0.5,0,0.5,0,1","0,1,0.5,0,1,0.5,1,0.5,0","3","false",""
"","html-keyboard-response","193","250424","0.0-197.0","3IJXV6UZ1Y5ALGIQWIC3FSQUYF1RIX","A132GRVDGXPJGY","3WRBLBQ2GRU63BU2LFOJL1G32T90GO","","null","<img src=""img/food6.png"" style=""width:200px; border:14px solid green;"">","null","","","","","","","","","",""
"","image-keyboard-response","194","250693","0.0-199.0","3IJXV6UZ1Y5ALGIQWIC3FSQUYF1RIX","A132GRVDGXPJGY","3WRBLBQ2GRU63BU2LFOJL1G32T90GO","","268.1000000089407","img/food3.png","75","269.1000000089407","2","1","1","2","1,0.5,0,1,0.5,0,0.5,0,1","0,1,0.5,0,1,0.5,1,0.5,0","3","false",""
"","html-keyboard-response","195","251011","0.0-200.0","3IJXV6UZ1Y5ALGIQWIC3FSQUYF1RIX","A132GRVDGXPJGY","3WRBLBQ2GRU63BU2LFOJL1G32T90GO","","null","<img src=""img/food3.png"" style=""width:200px; border:14px solid green;"">","null","","","","","","","","","",""
"","image-keyboard-response","196","251591","0.0-202.0","3IJXV6UZ1Y5ALGIQWIC3FSQUYF1RIX","A132GRVDGXPJGY","3WRBLBQ2GRU63BU2LFOJL1G32T90GO","","579","img/food3.png","76","579.7000000029802","3","0","1","2","1,0.5,0,1,0.5,0,0.5,0,1","0,1,0.5,0,1,0.5,1,0.5,0","3","false",""
"","html-keyboard-response","197","251893","0.0-203.0","3IJXV6UZ1Y5ALGIQWIC3FSQUYF1RIX","A132GRVDGXPJGY","3WRBLBQ2GRU63BU2LFOJL1G32T90GO","","null","<img src=""img/food3.png"" style=""width:200px;border:14px solid red;"">","null","","","","","","","","","",""
"","image-keyboard-response","198","252284","0.0-205.0","3IJXV6UZ1Y5ALGIQWIC3FSQUYF1RIX","A132GRVDGXPJGY","3WRBLBQ2GRU63BU2LFOJL1G32T90GO","","387.29999999701977","img/food3.png","76","389.3999999910593","3","1","1","2","1,0.5,0,1,0.5,0,0.5,0,1","0,1,0.5,0,1,0.5,1,0.5,0","3","false",""
"","html-keyboard-response","199","252587","0.0-206.0","3IJXV6UZ1Y5ALGIQWIC3FSQUYF1RIX","A132GRVDGXPJGY","3WRBLBQ2GRU63BU2LFOJL1G32T90GO","","null","<img src=""img/food3.png"" style=""width:200px; border:14px solid green;"">","null","","","","","","","","","",""
"","image-keyboard-response","200","252692","0.0-208.0","3IJXV6UZ1Y5ALGIQWIC3FSQUYF1RIX","A132GRVDGXPJGY","3WRBLBQ2GRU63BU2LFOJL1G32T90GO","","101.79999999701977","img/food5.png","74","103.80000001192093","1","1","3","2","1,0.5,0,1,0.5,0,0.5,0,1","0,1,0.5,0,1,0.5,1,0.5,0","3","false",""
"","html-keyboard-response","201","252995","0.0-209.0","3IJXV6UZ1Y5ALGIQWIC3FSQUYF1RIX","A132GRVDGXPJGY","3WRBLBQ2GRU63BU2LFOJL1G32T90GO","","null","<img src=""img/food5.png"" style=""width:200px; border:14px solid green;"">","null","","","","","","","","","",""
"","image-keyboard-response","202","253727","0.0-211.0","3IJXV6UZ1Y5ALGIQWIC3FSQUYF1RIX","A132GRVDGXPJGY","3WRBLBQ2GRU63BU2LFOJL1G32T90GO","","730.5","img/food6.png","74","731.7999999970198","1","0","2","2","1,0.5,0,1,0.5,0,0.5,0,1","0,1,0.5,0,1,0.5,1,0.5,0","3","false",""
"","html-keyboard-response","203","254030","0.0-212.0","3IJXV6UZ1Y5ALGIQWIC3FSQUYF1RIX","A132GRVDGXPJGY","3WRBLBQ2GRU63BU2LFOJL1G32T90GO","","null","<img src=""img/food6.png"" style=""width:200px;border:14px solid red;"">","null","","","","","","","","","",""
"","image-keyboard-response","204","254221","0.0-214.0","3IJXV6UZ1Y5ALGIQWIC3FSQUYF1RIX","A132GRVDGXPJGY","3WRBLBQ2GRU63BU2LFOJL1G32T90GO","","189.30000001192093","img/food3.png","74","190.70000000298023","1","0","1","2","1,0.5,0,1,0.5,0,0.5,0,1","0,1,0.5,0,1,0.5,1,0.5,0","3","false",""
"","html-keyboard-response","205","254524","0.0-215.0","3IJXV6UZ1Y5ALGIQWIC3FSQUYF1RIX","A132GRVDGXPJGY","3WRBLBQ2GRU63BU2LFOJL1G32T90GO","","null","<img src=""img/food3.png"" style=""width:200px;border:14px solid red;"">","null","","","","","","","","","",""
"","image-keyboard-response","206","254881","0.0-217.0","3IJXV6UZ1Y5ALGIQWIC3FSQUYF1RIX","A132GRVDGXPJGY","3WRBLBQ2GRU63BU2LFOJL1G32T90GO","","353.5","img/food6.png","75","355.3999999910593","2","1","2","2","1,0.5,0,1,0.5,0,0.5,0,1","0,1,0.5,0,1,0.5,1,0.5,0","3","false",""
"","html-keyboard-response","207","255192","0.0-218.0","3IJXV6UZ1Y5ALGIQWIC3FSQUYF1RIX","A132GRVDGXPJGY","3WRBLBQ2GRU63BU2LFOJL1G32T90GO","","null","<img src=""img/food6.png"" style=""width:200px; border:14px solid green;"">","null","","","","","","","","","",""
"","image-keyboard-response","208","255856","0.0-220.0","3IJXV6UZ1Y5ALGIQWIC3FSQUYF1RIX","A132GRVDGXPJGY","3WRBLBQ2GRU63BU2LFOJL1G32T90GO","","661.2000000029802","img/food6.png","76","663.1999999880791","3","1","2","2","1,0.5,0,1,0.5,0,0.5,0,1","0,1,0.5,0,1,0.5,1,0.5,0","3","false",""
"","html-keyboard-response","209","256161","0.0-221.0","3IJXV6UZ1Y5ALGIQWIC3FSQUYF1RIX","A132GRVDGXPJGY","3WRBLBQ2GRU63BU2LFOJL1G32T90GO","","null","<img src=""img/food6.png"" style=""width:200px; border:14px solid green;"">","null","","","","","","","","","",""
"","image-keyboard-response","210","256470","0.0-223.0","3IJXV6UZ1Y5ALGIQWIC3FSQUYF1RIX","A132GRVDGXPJGY","3WRBLBQ2GRU63BU2LFOJL1G32T90GO","","306.20000000298023","img/food5.png","76","308.20000000298023","3","0","3","2","1,0.5,0,1,0.5,0,0.5,0,1","0,1,0.5,0,1,0.5,1,0.5,0","3","false",""
"","html-keyboard-response","211","256775","0.0-224.0","3IJXV6UZ1Y5ALGIQWIC3FSQUYF1RIX","A132GRVDGXPJGY","3WRBLBQ2GRU63BU2LFOJL1G32T90GO","","null","<img src=""img/food5.png"" style=""width:200px;border:14px solid red;"">","null","","","","","","","","","",""
"","image-keyboard-response","212","257252","0.0-226.0","3IJXV6UZ1Y5ALGIQWIC3FSQUYF1RIX","A132GRVDGXPJGY","3WRBLBQ2GRU63BU2LFOJL1G32T90GO","","474.70000000298023","img/food3.png","74","476.70000000298023","1","0","1","2","1,0.5,0,1,0.5,0,0.5,0,1","0,1,0.5,0,1,0.5,1,0.5,0","3","false",""
"","html-keyboard-response","213","257556","0.0-227.0","3IJXV6UZ1Y5ALGIQWIC3FSQUYF1RIX","A132GRVDGXPJGY","3WRBLBQ2GRU63BU2LFOJL1G32T90GO","","null","<img src=""img/food3.png"" style=""width:200px;border:14px solid red;"">","null","","","","","","","","","",""
"","image-keyboard-response","214","257890","0.0-229.0","3IJXV6UZ1Y5ALGIQWIC3FSQUYF1RIX","A132GRVDGXPJGY","3WRBLBQ2GRU63BU2LFOJL1G32T90GO","","330.5","img/food3.png","74","332.6000000089407","1","0","1","2","1,0.5,0,1,0.5,0,0.5,0,1","0,1,0.5,0,1,0.5,1,0.5,0","3","false",""
"","html-keyboard-response","215","258193","0.0-230.0","3IJXV6UZ1Y5ALGIQWIC3FSQUYF1RIX","A132GRVDGXPJGY","3WRBLBQ2GRU63BU2LFOJL1G32T90GO","","null","<img src=""img/food3.png"" style=""width:200px;border:14px solid red;"">","null","","","","","","","","","",""
"","image-keyboard-response","216","258398","0.0-232.0","3IJXV6UZ1Y5ALGIQWIC3FSQUYF1RIX","A132GRVDGXPJGY","3WRBLBQ2GRU63BU2LFOJL1G32T90GO","","202.09999999403954","img/food3.png","75","204.09999999403954","2","1","1","2","1,0.5,0,1,0.5,0,0.5,0,1","0,1,0.5,0,1,0.5,1,0.5,0","3","false",""
"","html-keyboard-response","217","258701","0.0-233.0","3IJXV6UZ1Y5ALGIQWIC3FSQUYF1RIX","A132GRVDGXPJGY","3WRBLBQ2GRU63BU2LFOJL1G32T90GO","","null","<img src=""img/food3.png"" style=""width:200px; border:14px solid green;"">","null","","","","","","","","","",""
"","image-keyboard-response","218","259027","0.0-235.0","3IJXV6UZ1Y5ALGIQWIC3FSQUYF1RIX","A132GRVDGXPJGY","3WRBLBQ2GRU63BU2LFOJL1G32T90GO","","323.29999999701977","img/food3.png","76","324.59999999403954","3","1","1","2","1,0.5,0,1,0.5,0,0.5,0,1","0,1,0.5,0,1,0.5,1,0.5,0","3","false",""
"","html-keyboard-response","219","259329","0.0-236.0","3IJXV6UZ1Y5ALGIQWIC3FSQUYF1RIX","A132GRVDGXPJGY","3WRBLBQ2GRU63BU2LFOJL1G32T90GO","","null","<img src=""img/food3.png"" style=""width:200px; border:14px solid green;"">","null","","","","","","","","","",""
"","image-keyboard-response","220","260082","0.0-238.0","3IJXV6UZ1Y5ALGIQWIC3FSQUYF1RIX","A132GRVDGXPJGY","3WRBLBQ2GRU63BU2LFOJL1G32T90GO","","750","img/food5.png","76","752.1000000089407","3","0","3","2","1,0.5,0,1,0.5,0,0.5,0,1","0,1,0.5,0,1,0.5,1,0.5,0","3","false",""
"","html-keyboard-response","221","260386","0.0-239.0","3IJXV6UZ1Y5ALGIQWIC3FSQUYF1RIX","A132GRVDGXPJGY","3WRBLBQ2GRU63BU2LFOJL1G32T90GO","","null","<img src=""img/food5.png"" style=""width:200px;border:14px solid red;"">","null","","","","","","","","","",""
"","image-keyboard-response","222","260977","0.0-241.0","3IJXV6UZ1Y5ALGIQWIC3FSQUYF1RIX","A132GRVDGXPJGY","3WRBLBQ2GRU63BU2LFOJL1G32T90GO","","588.5999999940395","img/food6.png","74","590.4000000059605","1","0","2","2","1,0.5,0,1,0.5,0,0.5,0,1","0,1,0.5,0,1,0.5,1,0.5,0","3","false",""
"","html-keyboard-response","223","261281","0.0-242.0","3IJXV6UZ1Y5ALGIQWIC3FSQUYF1RIX","A132GRVDGXPJGY","3WRBLBQ2GRU63BU2LFOJL1G32T90GO","","null","<img src=""img/food6.png"" style=""width:200px;border:14px solid red;"">","null","","","","","","","","","",""
"","image-keyboard-response","224","261784","0.0-244.0","3IJXV6UZ1Y5ALGIQWIC3FSQUYF1RIX","A132GRVDGXPJGY","3WRBLBQ2GRU63BU2LFOJL1G32T90GO","","500.70000000298023","img/food6.png","74","502.20000000298023","1","0","2","2","1,0.5,0,1,0.5,0,0.5,0,1","0,1,0.5,0,1,0.5,1,0.5,0","3","false",""
"","html-keyboard-response","225","262085","0.0-245.0","3IJXV6UZ1Y5ALGIQWIC3FSQUYF1RIX","A132GRVDGXPJGY","3WRBLBQ2GRU63BU2LFOJL1G32T90GO","","null","<img src=""img/food6.png"" style=""width:200px;border:14px solid red;"">","null","","","","","","","","","",""
"","image-keyboard-response","226","262247","0.0-247.0","3IJXV6UZ1Y5ALGIQWIC3FSQUYF1RIX","A132GRVDGXPJGY","3WRBLBQ2GRU63BU2LFOJL1G32T90GO","","158.09999999403954","img/food3.png","75","160.29999999701977","2","1","1","2","1,0.5,0,1,0.5,0,0.5,0,1","0,1,0.5,0,1,0.5,1,0.5,0","3","false",""
"","html-keyboard-response","227","262550","0.0-248.0","3IJXV6UZ1Y5ALGIQWIC3FSQUYF1RIX","A132GRVDGXPJGY","3WRBLBQ2GRU63BU2LFOJL1G32T90GO","","null","<img src=""img/food3.png"" style=""width:200px; border:14px solid green;"">","null","","","","","","","","","",""
"","image-keyboard-response","228","263045","0.0-250.0","3IJXV6UZ1Y5ALGIQWIC3FSQUYF1RIX","A132GRVDGXPJGY","3WRBLBQ2GRU63BU2LFOJL1G32T90GO","","491.20000000298023","img/food6.png","75","493.29999999701977","2","1","2","2","1,0.5,0,1,0.5,0,0.5,0,1","0,1,0.5,0,1,0.5,1,0.5,0","3","false",""
"","html-keyboard-response","229","263348","0.0-251.0","3IJXV6UZ1Y5ALGIQWIC3FSQUYF1RIX","A132GRVDGXPJGY","3WRBLBQ2GRU63BU2LFOJL1G32T90GO","","null","<img src=""img/food6.png"" style=""width:200px; border:14px solid green;"">","null","","","","","","","","","",""
"","image-keyboard-response","230","263857","0.0-253.0","3IJXV6UZ1Y5ALGIQWIC3FSQUYF1RIX","A132GRVDGXPJGY","3WRBLBQ2GRU63BU2LFOJL1G32T90GO","","506.09999999403954","img/food5.png","76","508.20000000298023","3","0","3","2","1,0.5,0,1,0.5,0,0.5,0,1","0,1,0.5,0,1,0.5,1,0.5,0","3","false",""
"","html-keyboard-response","231","264161","0.0-254.0","3IJXV6UZ1Y5ALGIQWIC3FSQUYF1RIX","A132GRVDGXPJGY","3WRBLBQ2GRU63BU2LFOJL1G32T90GO","","null","<img src=""img/food5.png"" style=""width:200px;border:14px solid red;"">","null","","","","","","","","","",""
"","image-keyboard-response","232","264782","0.0-256.0","3IJXV6UZ1Y5ALGIQWIC3FSQUYF1RIX","A132GRVDGXPJGY","3WRBLBQ2GRU63BU2LFOJL1G32T90GO","","618.2999999970198","img/food3.png","76","620.2000000029802","3","1","1","2","1,0.5,0,1,0.5,0,0.5,0,1","0,1,0.5,0,1,0.5,1,0.5,0","3","false",""
"","html-keyboard-response","233","265085","0.0-257.0","3IJXV6UZ1Y5ALGIQWIC3FSQUYF1RIX","A132GRVDGXPJGY","3WRBLBQ2GRU63BU2LFOJL1G32T90GO","","null","<img src=""img/food3.png"" style=""width:200px; border:14px solid green;"">","null","","","","","","","","","",""
"","image-keyboard-response","234","265397","0.0-259.0","3IJXV6UZ1Y5ALGIQWIC3FSQUYF1RIX","A132GRVDGXPJGY","3WRBLBQ2GRU63BU2LFOJL1G32T90GO","","309","img/food3.png","76","310.69999998807907","3","0","1","2","1,0.5,0,1,0.5,0,0.5,0,1","0,1,0.5,0,1,0.5,1,0.5,0","3","false",""
"","html-keyboard-response","235","265699","0.0-260.0","3IJXV6UZ1Y5ALGIQWIC3FSQUYF1RIX","A132GRVDGXPJGY","3WRBLBQ2GRU63BU2LFOJL1G32T90GO","","null","<img src=""img/food3.png"" style=""width:200px;border:14px solid red;"">","null","","","","","","","","","",""
"","image-keyboard-response","236","266014","0.0-262.0","3IJXV6UZ1Y5ALGIQWIC3FSQUYF1RIX","A132GRVDGXPJGY","3WRBLBQ2GRU63BU2LFOJL1G32T90GO","","312.19999998807907","img/food5.png","76","314.5","3","0","3","2","1,0.5,0,1,0.5,0,0.5,0,1","0,1,0.5,0,1,0.5,1,0.5,0","3","false",""
"","html-keyboard-response","237","266317","0.0-263.0","3IJXV6UZ1Y5ALGIQWIC3FSQUYF1RIX","A132GRVDGXPJGY","3WRBLBQ2GRU63BU2LFOJL1G32T90GO","","null","<img src=""img/food5.png"" style=""width:200px;border:14px solid red;"">","null","","","","","","","","","",""
"","image-keyboard-response","238","266367","0.0-265.0","3IJXV6UZ1Y5ALGIQWIC3FSQUYF1RIX","A132GRVDGXPJGY","3WRBLBQ2GRU63BU2LFOJL1G32T90GO","","46.5","img/food5.png","74","48.19999998807907","1","1","3","2","1,0.5,0,1,0.5,0,0.5,0,1","0,1,0.5,0,1,0.5,1,0.5,0","3","false",""
"","html-keyboard-response","239","266669","0.0-266.0","3IJXV6UZ1Y5ALGIQWIC3FSQUYF1RIX","A132GRVDGXPJGY","3WRBLBQ2GRU63BU2LFOJL1G32T90GO","","null","<img src=""img/food5.png"" style=""width:200px; border:14px solid green;"">","null","","","","","","","","","",""
"","image-keyboard-response","240","267038","0.0-268.0","3IJXV6UZ1Y5ALGIQWIC3FSQUYF1RIX","A132GRVDGXPJGY","3WRBLBQ2GRU63BU2LFOJL1G32T90GO","","365.40000000596046","img/food5.png","74","367.6000000089407","1","1","3","2","1,0.5,0,1,0.5,0,0.5,0,1","0,1,0.5,0,1,0.5,1,0.5,0","3","false",""
"","html-keyboard-response","241","267342","0.0-269.0","3IJXV6UZ1Y5ALGIQWIC3FSQUYF1RIX","A132GRVDGXPJGY","3WRBLBQ2GRU63BU2LFOJL1G32T90GO","","null","<img src=""img/food5.png"" style=""width:200px; border:14px solid green;"">","null","","","","","","","","","",""
"","image-keyboard-response","242","267906","0.0-271.0","3IJXV6UZ1Y5ALGIQWIC3FSQUYF1RIX","A132GRVDGXPJGY","3WRBLBQ2GRU63BU2LFOJL1G32T90GO","","561.7999999970198","img/food3.png","74","563.7999999970198","1","0","1","2","1,0.5,0,1,0.5,0,0.5,0,1","0,1,0.5,0,1,0.5,1,0.5,0","3","false",""
"","html-keyboard-response","243","268217","0.0-272.0","3IJXV6UZ1Y5ALGIQWIC3FSQUYF1RIX","A132GRVDGXPJGY","3WRBLBQ2GRU63BU2LFOJL1G32T90GO","","null","<img src=""img/food3.png"" style=""width:200px;border:14px solid red;"">","null","","","","","","","","","",""
"","image-keyboard-response","244","268308","0.0-274.0","3IJXV6UZ1Y5ALGIQWIC3FSQUYF1RIX","A132GRVDGXPJGY","3WRBLBQ2GRU63BU2LFOJL1G32T90GO","","88.40000000596046","img/food5.png","75","90.59999999403954","2","0","3","2","1,0.5,0,1,0.5,0,0.5,0,1","0,1,0.5,0,1,0.5,1,0.5,0","3","false",""
"","html-keyboard-response","245","268612","0.0-275.0","3IJXV6UZ1Y5ALGIQWIC3FSQUYF1RIX","A132GRVDGXPJGY","3WRBLBQ2GRU63BU2LFOJL1G32T90GO","","null","<img src=""img/food5.png"" style=""width:200px;border:14px solid red;"">","null","","","","","","","","","",""
"","image-keyboard-response","246","269032","0.0-277.0","3IJXV6UZ1Y5ALGIQWIC3FSQUYF1RIX","A132GRVDGXPJGY","3WRBLBQ2GRU63BU2LFOJL1G32T90GO","","419.20000000298023","img/food5.png","74","419.79999999701977","1","1","3","2","1,0.5,0,1,0.5,0,0.5,0,1","0,1,0.5,0,1,0.5,1,0.5,0","3","false",""
"","html-keyboard-response","247","269334","0.0-278.0","3IJXV6UZ1Y5ALGIQWIC3FSQUYF1RIX","A132GRVDGXPJGY","3WRBLBQ2GRU63BU2LFOJL1G32T90GO","","null","<img src=""img/food5.png"" style=""width:200px; border:14px solid green;"">","null","","","","","","","","","",""
"","image-keyboard-response","248","270048","0.0-280.0","3IJXV6UZ1Y5ALGIQWIC3FSQUYF1RIX","A132GRVDGXPJGY","3WRBLBQ2GRU63BU2LFOJL1G32T90GO","","710.3000000119209","img/food3.png","74","712.0999999940395","1","0","1","2","1,0.5,0,1,0.5,0,0.5,0,1","0,1,0.5,0,1,0.5,1,0.5,0","3","false",""
"","html-keyboard-response","249","270350","0.0-281.0","3IJXV6UZ1Y5ALGIQWIC3FSQUYF1RIX","A132GRVDGXPJGY","3WRBLBQ2GRU63BU2LFOJL1G32T90GO","","null","<img src=""img/food3.png"" style=""width:200px;border:14px solid red;"">","null","","","","","","","","","",""
"","image-keyboard-response","250","270645","0.0-283.0","3IJXV6UZ1Y5ALGIQWIC3FSQUYF1RIX","A132GRVDGXPJGY","3WRBLBQ2GRU63BU2LFOJL1G32T90GO","","291.1000000089407","img/food6.png","76","293.29999999701977","3","1","2","2","1,0.5,0,1,0.5,0,0.5,0,1","0,1,0.5,0,1,0.5,1,0.5,0","3","false",""
"","html-keyboard-response","251","270948","0.0-284.0","3IJXV6UZ1Y5ALGIQWIC3FSQUYF1RIX","A132GRVDGXPJGY","3WRBLBQ2GRU63BU2LFOJL1G32T90GO","","null","<img src=""img/food6.png"" style=""width:200px; border:14px solid green;"">","null","","","","","","","","","",""
"","image-keyboard-response","252","271698","0.0-286.0","3IJXV6UZ1Y5ALGIQWIC3FSQUYF1RIX","A132GRVDGXPJGY","3WRBLBQ2GRU63BU2LFOJL1G32T90GO","","746.3999999910593","img/food5.png","76","748.5","3","0","3","2","1,0.5,0,1,0.5,0,0.5,0,1","0,1,0.5,0,1,0.5,1,0.5,0","3","false",""
"","html-keyboard-response","253","272001","0.0-287.0","3IJXV6UZ1Y5ALGIQWIC3FSQUYF1RIX","A132GRVDGXPJGY","3WRBLBQ2GRU63BU2LFOJL1G32T90GO","","null","<img src=""img/food5.png"" style=""width:200px;border:14px solid red;"">","null","","","","","","","","","",""
"","image-keyboard-response","254","273003","0.0-289.0","3IJXV6UZ1Y5ALGIQWIC3FSQUYF1RIX","A132GRVDGXPJGY","3WRBLBQ2GRU63BU2LFOJL1G32T90GO","","","img/food3.png","","1001.8000000119209","-1","0","1","2","1,0.5,0,1,0.5,0,0.5,0,1","0,1,0.5,0,1,0.5,1,0.5,0","3","true",""
"","html-keyboard-response","255","273310","0.0-290.0","3IJXV6UZ1Y5ALGIQWIC3FSQUYF1RIX","A132GRVDGXPJGY","3WRBLBQ2GRU63BU2LFOJL1G32T90GO","","null","<img src=""img/food3.png"" style=""width:200px;border:14px solid red;"">","null","","","","","","","","","",""
"","html-keyboard-response","256","283886","0.0-291.0-0.0","3IJXV6UZ1Y5ALGIQWIC3FSQUYF1RIX","A132GRVDGXPJGY","3WRBLBQ2GRU63BU2LFOJL1G32T90GO","","","","","","","","","","","","","",""
"","image-keyboard-response","257","284888","0.0-292.0","3IJXV6UZ1Y5ALGIQWIC3FSQUYF1RIX","A132GRVDGXPJGY","3WRBLBQ2GRU63BU2LFOJL1G32T90GO","","","img/food3.png","","1002.1000000089407","-1","0","1","2","1,0.5,0,1,0.5,0,0.5,0,1","0,1,0.5,0,1,0.5,1,0.5,0","3","true",""
"","html-keyboard-response","258","285192","0.0-293.0","3IJXV6UZ1Y5ALGIQWIC3FSQUYF1RIX","A132GRVDGXPJGY","3WRBLBQ2GRU63BU2LFOJL1G32T90GO","","null","<img src=""img/food3.png"" style=""width:200px;border:14px solid red;"">","null","","","","","","","","","",""
"","html-keyboard-response","259","288596","0.0-294.0-0.0","3IJXV6UZ1Y5ALGIQWIC3FSQUYF1RIX","A132GRVDGXPJGY","3WRBLBQ2GRU63BU2LFOJL1G32T90GO","","","","","","","","","","","","","",""
"","image-keyboard-response","260","288873","0.0-295.0","3IJXV6UZ1Y5ALGIQWIC3FSQUYF1RIX","A132GRVDGXPJGY","3WRBLBQ2GRU63BU2LFOJL1G32T90GO","","275.20000000298023","img/food5.png","74","276.70000000298023","1","1","3","2","1,0.5,0,1,0.5,0,0.5,0,1","0,1,0.5,0,1,0.5,1,0.5,0","3","false",""
"","html-keyboard-response","261","289176","0.0-296.0","3IJXV6UZ1Y5ALGIQWIC3FSQUYF1RIX","A132GRVDGXPJGY","3WRBLBQ2GRU63BU2LFOJL1G32T90GO","","null","<img src=""img/food5.png"" style=""width:200px; border:14px solid green;"">","null","","","","","","","","","",""
"","image-keyboard-response","262","289334","0.0-298.0","3IJXV6UZ1Y5ALGIQWIC3FSQUYF1RIX","A132GRVDGXPJGY","3WRBLBQ2GRU63BU2LFOJL1G32T90GO","","157.70000000298023","img/food6.png","75","160.5","2","1","2","2","1,0.5,0,1,0.5,0,0.5,0,1","0,1,0.5,0,1,0.5,1,0.5,0","3","false",""
"","html-keyboard-response","263","289640","0.0-299.0","3IJXV6UZ1Y5ALGIQWIC3FSQUYF1RIX","A132GRVDGXPJGY","3WRBLBQ2GRU63BU2LFOJL1G32T90GO","","null","<img src=""img/food6.png"" style=""width:200px; border:14px solid green;"">","null","","","","","","","","","",""
"","image-keyboard-response","264","289733","0.0-301.0","3IJXV6UZ1Y5ALGIQWIC3FSQUYF1RIX","A132GRVDGXPJGY","3WRBLBQ2GRU63BU2LFOJL1G32T90GO","","89.20000000298023","img/food5.png","76","91.20000000298023","3","0","3","2","1,0.5,0,1,0.5,0,0.5,0,1","0,1,0.5,0,1,0.5,1,0.5,0","3","false",""
"","html-keyboard-response","265","290036","0.0-302.0","3IJXV6UZ1Y5ALGIQWIC3FSQUYF1RIX","A132GRVDGXPJGY","3WRBLBQ2GRU63BU2LFOJL1G32T90GO","","null","<img src=""img/food5.png"" style=""width:200px;border:14px solid red;"">","null","","","","","","","","","",""
"","image-keyboard-response","266","290052","0.0-304.0","3IJXV6UZ1Y5ALGIQWIC3FSQUYF1RIX","A132GRVDGXPJGY","3WRBLBQ2GRU63BU2LFOJL1G32T90GO","","13.599999994039536","img/food5.png","76","15","3","0","3","2","1,0.5,0,1,0.5,0,0.5,0,1","0,1,0.5,0,1,0.5,1,0.5,0","3","false",""
"","html-keyboard-response","267","290354","0.0-305.0","3IJXV6UZ1Y5ALGIQWIC3FSQUYF1RIX","A132GRVDGXPJGY","3WRBLBQ2GRU63BU2LFOJL1G32T90GO","","null","<img src=""img/food5.png"" style=""width:200px;border:14px solid red;"">","null","","","","","","","","","",""
"","image-keyboard-response","268","290396","0.0-307.0","3IJXV6UZ1Y5ALGIQWIC3FSQUYF1RIX","A132GRVDGXPJGY","3WRBLBQ2GRU63BU2LFOJL1G32T90GO","","40.20000000298023","img/food6.png","74","41.70000000298023","1","0","2","2","1,0.5,0,1,0.5,0,0.5,0,1","0,1,0.5,0,1,0.5,1,0.5,0","3","false",""
"","html-keyboard-response","269","290699","0.0-308.0","3IJXV6UZ1Y5ALGIQWIC3FSQUYF1RIX","A132GRVDGXPJGY","3WRBLBQ2GRU63BU2LFOJL1G32T90GO","","null","<img src=""img/food6.png"" style=""width:200px;border:14px solid red;"">","null","","","","","","","","","",""
"","image-keyboard-response","270","291104","0.0-310.0","3IJXV6UZ1Y5ALGIQWIC3FSQUYF1RIX","A132GRVDGXPJGY","3WRBLBQ2GRU63BU2LFOJL1G32T90GO","","401.5","img/food6.png","76","403.70000000298023","3","0","2","2","1,0.5,0,1,0.5,0,0.5,0,1","0,1,0.5,0,1,0.5,1,0.5,0","3","false",""
"","html-keyboard-response","271","291407","0.0-311.0","3IJXV6UZ1Y5ALGIQWIC3FSQUYF1RIX","A132GRVDGXPJGY","3WRBLBQ2GRU63BU2LFOJL1G32T90GO","","null","<img src=""img/food6.png"" style=""width:200px;border:14px solid red;"">","null","","","","","","","","","",""
"","image-keyboard-response","272","291508","0.0-313.0","3IJXV6UZ1Y5ALGIQWIC3FSQUYF1RIX","A132GRVDGXPJGY","3WRBLBQ2GRU63BU2LFOJL1G32T90GO","","98.09999999403954","img/food6.png","76","100.09999999403954","3","0","2","2","1,0.5,0,1,0.5,0,0.5,0,1","0,1,0.5,0,1,0.5,1,0.5,0","3","false",""
"","html-keyboard-response","273","291811","0.0-314.0","3IJXV6UZ1Y5ALGIQWIC3FSQUYF1RIX","A132GRVDGXPJGY","3WRBLBQ2GRU63BU2LFOJL1G32T90GO","","null","<img src=""img/food6.png"" style=""width:200px;border:14px solid red;"">","null","","","","","","","","","",""
"","image-keyboard-response","274","291987","0.0-316.0","3IJXV6UZ1Y5ALGIQWIC3FSQUYF1RIX","A132GRVDGXPJGY","3WRBLBQ2GRU63BU2LFOJL1G32T90GO","","174.09999999403954","img/food5.png","75","175.59999999403954","2","1","3","2","1,0.5,0,1,0.5,0,0.5,0,1","0,1,0.5,0,1,0.5,1,0.5,0","3","false",""
"","html-keyboard-response","275","292295","0.0-317.0","3IJXV6UZ1Y5ALGIQWIC3FSQUYF1RIX","A132GRVDGXPJGY","3WRBLBQ2GRU63BU2LFOJL1G32T90GO","","null","<img src=""img/food5.png"" style=""width:200px; border:14px solid green;"">","null","","","","","","","","","",""
"","image-keyboard-response","276","292626","0.0-319.0","3IJXV6UZ1Y5ALGIQWIC3FSQUYF1RIX","A132GRVDGXPJGY","3WRBLBQ2GRU63BU2LFOJL1G32T90GO","","329.70000000298023","img/food6.png","75","330.29999999701977","2","1","2","2","1,0.5,0,1,0.5,0,0.5,0,1","0,1,0.5,0,1,0.5,1,0.5,0","3","false",""
"","html-keyboard-response","277","292933","0.0-320.0","3IJXV6UZ1Y5ALGIQWIC3FSQUYF1RIX","A132GRVDGXPJGY","3WRBLBQ2GRU63BU2LFOJL1G32T90GO","","null","<img src=""img/food6.png"" style=""width:200px; border:14px solid green;"">","null","","","","","","","","","",""
"","image-keyboard-response","278","292993","0.0-322.0","3IJXV6UZ1Y5ALGIQWIC3FSQUYF1RIX","A132GRVDGXPJGY","3WRBLBQ2GRU63BU2LFOJL1G32T90GO","","59","img/food3.png","75","59.8999999910593","2","1","1","2","1,0.5,0,1,0.5,0,0.5,0,1","0,1,0.5,0,1,0.5,1,0.5,0","3","false",""
"","html-keyboard-response","279","293296","0.0-323.0","3IJXV6UZ1Y5ALGIQWIC3FSQUYF1RIX","A132GRVDGXPJGY","3WRBLBQ2GRU63BU2LFOJL1G32T90GO","","null","<img src=""img/food3.png"" style=""width:200px; border:14px solid green;"">","null","","","","","","","","","",""
"","image-keyboard-response","280","293504","0.0-325.0","3IJXV6UZ1Y5ALGIQWIC3FSQUYF1RIX","A132GRVDGXPJGY","3WRBLBQ2GRU63BU2LFOJL1G32T90GO","","205.6000000089407","img/food6.png","74","207.69999998807907","1","0","2","2","1,0.5,0,1,0.5,0,0.5,0,1","0,1,0.5,0,1,0.5,1,0.5,0","3","false",""
"","html-keyboard-response","281","293808","0.0-326.0","3IJXV6UZ1Y5ALGIQWIC3FSQUYF1RIX","A132GRVDGXPJGY","3WRBLBQ2GRU63BU2LFOJL1G32T90GO","","null","<img src=""img/food6.png"" style=""width:200px;border:14px solid red;"">","null","","","","","","","","","",""
"","image-keyboard-response","282","293812","0.0-328.0","3IJXV6UZ1Y5ALGIQWIC3FSQUYF1RIX","A132GRVDGXPJGY","3WRBLBQ2GRU63BU2LFOJL1G32T90GO","","1.300000011920929","img/food3.png","74","3.2000000029802322","1","0","1","2","1,0.5,0,1,0.5,0,0.5,0,1","0,1,0.5,0,1,0.5,1,0.5,0","3","false",""
"","html-keyboard-response","283","294114","0.0-329.0","3IJXV6UZ1Y5ALGIQWIC3FSQUYF1RIX","A132GRVDGXPJGY","3WRBLBQ2GRU63BU2LFOJL1G32T90GO","","null","<img src=""img/food3.png"" style=""width:200px;border:14px solid red;"">","null","","","","","","","","","",""
"","image-keyboard-response","284","294327","0.0-331.0","3IJXV6UZ1Y5ALGIQWIC3FSQUYF1RIX","A132GRVDGXPJGY","3WRBLBQ2GRU63BU2LFOJL1G32T90GO","","209.09999999403954","img/food3.png","76","211.40000000596046","3","0","1","2","1,0.5,0,1,0.5,0,0.5,0,1","0,1,0.5,0,1,0.5,1,0.5,0","3","false",""
"","html-keyboard-response","285","294630","0.0-332.0","3IJXV6UZ1Y5ALGIQWIC3FSQUYF1RIX","A132GRVDGXPJGY","3WRBLBQ2GRU63BU2LFOJL1G32T90GO","","null","<img src=""img/food3.png"" style=""width:200px;border:14px solid red;"">","null","","","","","","","","","",""
"","image-keyboard-response","286","294648","0.0-334.0","3IJXV6UZ1Y5ALGIQWIC3FSQUYF1RIX","A132GRVDGXPJGY","3WRBLBQ2GRU63BU2LFOJL1G32T90GO","","15.399999991059303","img/food3.png","76","17","3","1","1","2","1,0.5,0,1,0.5,0,0.5,0,1","0,1,0.5,0,1,0.5,1,0.5,0","3","false",""
"","html-keyboard-response","287","294950","0.0-335.0","3IJXV6UZ1Y5ALGIQWIC3FSQUYF1RIX","A132GRVDGXPJGY","3WRBLBQ2GRU63BU2LFOJL1G32T90GO","","null","<img src=""img/food3.png"" style=""width:200px; border:14px solid green;"">","null","","","","","","","","","",""
"","image-keyboard-response","288","295327","0.0-337.0","3IJXV6UZ1Y5ALGIQWIC3FSQUYF1RIX","A132GRVDGXPJGY","3WRBLBQ2GRU63BU2LFOJL1G32T90GO","","375.20000000298023","img/food5.png","74","376.6000000089407","1","1","3","2","1,0.5,0,1,0.5,0,0.5,0,1","0,1,0.5,0,1,0.5,1,0.5,0","3","false",""
"","html-keyboard-response","289","295635","0.0-338.0","3IJXV6UZ1Y5ALGIQWIC3FSQUYF1RIX","A132GRVDGXPJGY","3WRBLBQ2GRU63BU2LFOJL1G32T90GO","","null","<img src=""img/food5.png"" style=""width:200px; border:14px solid green;"">","null","","","","","","","","","",""
"","image-keyboard-response","290","295963","0.0-340.0","3IJXV6UZ1Y5ALGIQWIC3FSQUYF1RIX","A132GRVDGXPJGY","3WRBLBQ2GRU63BU2LFOJL1G32T90GO","","326","img/food6.png","75","328","2","1","2","2","1,0.5,0,1,0.5,0,0.5,0,1","0,1,0.5,0,1,0.5,1,0.5,0","3","false",""
"","html-keyboard-response","291","296267","0.0-341.0","3IJXV6UZ1Y5ALGIQWIC3FSQUYF1RIX","A132GRVDGXPJGY","3WRBLBQ2GRU63BU2LFOJL1G32T90GO","","null","<img src=""img/food6.png"" style=""width:200px; border:14px solid green;"">","null","","","","","","","","","",""
"","image-keyboard-response","292","296572","0.0-343.0","3IJXV6UZ1Y5ALGIQWIC3FSQUYF1RIX","A132GRVDGXPJGY","3WRBLBQ2GRU63BU2LFOJL1G32T90GO","","302.09999999403954","img/food5.png","74","304.30000001192093","1","1","3","2","1,0.5,0,1,0.5,0,0.5,0,1","0,1,0.5,0,1,0.5,1,0.5,0","3","false",""
"","html-keyboard-response","293","296875","0.0-344.0","3IJXV6UZ1Y5ALGIQWIC3FSQUYF1RIX","A132GRVDGXPJGY","3WRBLBQ2GRU63BU2LFOJL1G32T90GO","","null","<img src=""img/food5.png"" style=""width:200px; border:14px solid green;"">","null","","","","","","","","","",""
"","image-keyboard-response","294","297063","0.0-346.0","3IJXV6UZ1Y5ALGIQWIC3FSQUYF1RIX","A132GRVDGXPJGY","3WRBLBQ2GRU63BU2LFOJL1G32T90GO","","184.69999998807907","img/food6.png","74","186.5","1","0","2","2","1,0.5,0,1,0.5,0,0.5,0,1","0,1,0.5,0,1,0.5,1,0.5,0","3","false",""
"","html-keyboard-response","295","297366","0.0-347.0","3IJXV6UZ1Y5ALGIQWIC3FSQUYF1RIX","A132GRVDGXPJGY","3WRBLBQ2GRU63BU2LFOJL1G32T90GO","","null","<img src=""img/food6.png"" style=""width:200px;border:14px solid red;"">","null","","","","","","","","","",""
"","image-keyboard-response","296","297734","0.0-349.0","3IJXV6UZ1Y5ALGIQWIC3FSQUYF1RIX","A132GRVDGXPJGY","3WRBLBQ2GRU63BU2LFOJL1G32T90GO","","365.79999999701977","img/food5.png","74","368","1","1","3","2","1,0.5,0,1,0.5,0,0.5,0,1","0,1,0.5,0,1,0.5,1,0.5,0","3","false",""
"","html-keyboard-response","297","298038","0.0-350.0","3IJXV6UZ1Y5ALGIQWIC3FSQUYF1RIX","A132GRVDGXPJGY","3WRBLBQ2GRU63BU2LFOJL1G32T90GO","","null","<img src=""img/food5.png"" style=""width:200px; border:14px solid green;"">","null","","","","","","","","","",""
"","image-keyboard-response","298","298143","0.0-352.0","3IJXV6UZ1Y5ALGIQWIC3FSQUYF1RIX","A132GRVDGXPJGY","3WRBLBQ2GRU63BU2LFOJL1G32T90GO","","102","img/food3.png","76","104.09999999403954","3","0","1","2","1,0.5,0,1,0.5,0,0.5,0,1","0,1,0.5,0,1,0.5,1,0.5,0","3","false",""
"","html-keyboard-response","299","298455","0.0-353.0","3IJXV6UZ1Y5ALGIQWIC3FSQUYF1RIX","A132GRVDGXPJGY","3WRBLBQ2GRU63BU2LFOJL1G32T90GO","","null","<img src=""img/food3.png"" style=""width:200px;border:14px solid red;"">","null","","","","","","","","","",""
"","image-keyboard-response","300","298569","0.0-355.0","3IJXV6UZ1Y5ALGIQWIC3FSQUYF1RIX","A132GRVDGXPJGY","3WRBLBQ2GRU63BU2LFOJL1G32T90GO","","111.09999999403954","img/food6.png","76","113.29999999701977","3","1","2","2","1,0.5,0,1,0.5,0,0.5,0,1","0,1,0.5,0,1,0.5,1,0.5,0","3","false",""
"","html-keyboard-response","301","298872","0.0-356.0","3IJXV6UZ1Y5ALGIQWIC3FSQUYF1RIX","A132GRVDGXPJGY","3WRBLBQ2GRU63BU2LFOJL1G32T90GO","","null","<img src=""img/food6.png"" style=""width:200px; border:14px solid green;"">","null","","","","","","","","","",""
"","image-keyboard-response","302","299166","0.0-358.0","3IJXV6UZ1Y5ALGIQWIC3FSQUYF1RIX","A132GRVDGXPJGY","3WRBLBQ2GRU63BU2LFOJL1G32T90GO","","291.69999998807907","img/food3.png","74","293.20000000298023","1","0","1","2","1,0.5,0,1,0.5,0,0.5,0,1","0,1,0.5,0,1,0.5,1,0.5,0","3","false",""
"","html-keyboard-response","303","299469","0.0-359.0","3IJXV6UZ1Y5ALGIQWIC3FSQUYF1RIX","A132GRVDGXPJGY","3WRBLBQ2GRU63BU2LFOJL1G32T90GO","","null","<img src=""img/food3.png"" style=""width:200px;border:14px solid red;"">","null","","","","","","","","","",""
"","image-keyboard-response","304","299675","0.0-361.0","3IJXV6UZ1Y5ALGIQWIC3FSQUYF1RIX","A132GRVDGXPJGY","3WRBLBQ2GRU63BU2LFOJL1G32T90GO","","203","img/food5.png","76","205","3","0","3","2","1,0.5,0,1,0.5,0,0.5,0,1","0,1,0.5,0,1,0.5,1,0.5,0","3","false",""
"","html-keyboard-response","305","299978","0.0-362.0","3IJXV6UZ1Y5ALGIQWIC3FSQUYF1RIX","A132GRVDGXPJGY","3WRBLBQ2GRU63BU2LFOJL1G32T90GO","","null","<img src=""img/food5.png"" style=""width:200px;border:14px solid red;"">","null","","","","","","","","","",""
"","image-keyboard-response","306","300046","0.0-364.0","3IJXV6UZ1Y5ALGIQWIC3FSQUYF1RIX","A132GRVDGXPJGY","3WRBLBQ2GRU63BU2LFOJL1G32T90GO","","65.90000000596046","img/food5.png","76","67.40000000596046","3","0","3","2","1,0.5,0,1,0.5,0,0.5,0,1","0,1,0.5,0,1,0.5,1,0.5,0","3","false",""
"","html-keyboard-response","307","300347","0.0-365.0","3IJXV6UZ1Y5ALGIQWIC3FSQUYF1RIX","A132GRVDGXPJGY","3WRBLBQ2GRU63BU2LFOJL1G32T90GO","","null","<img src=""img/food5.png"" style=""width:200px;border:14px solid red;"">","null","","","","","","","","","",""
"","image-keyboard-response","308","300718","0.0-367.0","3IJXV6UZ1Y5ALGIQWIC3FSQUYF1RIX","A132GRVDGXPJGY","3WRBLBQ2GRU63BU2LFOJL1G32T90GO","","368","img/food5.png","74","370.30000001192093","1","1","3","2","1,0.5,0,1,0.5,0,0.5,0,1","0,1,0.5,0,1,0.5,1,0.5,0","3","false",""
"","html-keyboard-response","309","301023","0.0-368.0","3IJXV6UZ1Y5ALGIQWIC3FSQUYF1RIX","A132GRVDGXPJGY","3WRBLBQ2GRU63BU2LFOJL1G32T90GO","","null","<img src=""img/food5.png"" style=""width:200px; border:14px solid green;"">","null","","","","","","","","","",""
"","image-keyboard-response","310","301337","0.0-370.0","3IJXV6UZ1Y5ALGIQWIC3FSQUYF1RIX","A132GRVDGXPJGY","3WRBLBQ2GRU63BU2LFOJL1G32T90GO","","311","img/food6.png","74","313.1000000089407","1","0","2","2","1,0.5,0,1,0.5,0,0.5,0,1","0,1,0.5,0,1,0.5,1,0.5,0","3","false",""
"","html-keyboard-response","311","301640","0.0-371.0","3IJXV6UZ1Y5ALGIQWIC3FSQUYF1RIX","A132GRVDGXPJGY","3WRBLBQ2GRU63BU2LFOJL1G32T90GO","","null","<img src=""img/food6.png"" style=""width:200px;border:14px solid red;"">","null","","","","","","","","","",""
"","image-keyboard-response","312","301775","0.0-373.0","3IJXV6UZ1Y5ALGIQWIC3FSQUYF1RIX","A132GRVDGXPJGY","3WRBLBQ2GRU63BU2LFOJL1G32T90GO","","132.40000000596046","img/food6.png","75","134.5","2","1","2","2","1,0.5,0,1,0.5,0,0.5,0,1","0,1,0.5,0,1,0.5,1,0.5,0","3","false",""
"","html-keyboard-response","313","302078","0.0-374.0","3IJXV6UZ1Y5ALGIQWIC3FSQUYF1RIX","A132GRVDGXPJGY","3WRBLBQ2GRU63BU2LFOJL1G32T90GO","","null","<img src=""img/food6.png"" style=""width:200px; border:14px solid green;"">","null","","","","","","","","","",""
"","image-keyboard-response","314","302369","0.0-376.0","3IJXV6UZ1Y5ALGIQWIC3FSQUYF1RIX","A132GRVDGXPJGY","3WRBLBQ2GRU63BU2LFOJL1G32T90GO","","288.69999998807907","img/food6.png","76","290.09999999403954","3","1","2","2","1,0.5,0,1,0.5,0,0.5,0,1","0,1,0.5,0,1,0.5,1,0.5,0","3","false",""
"","html-keyboard-response","315","302672","0.0-377.0","3IJXV6UZ1Y5ALGIQWIC3FSQUYF1RIX","A132GRVDGXPJGY","3WRBLBQ2GRU63BU2LFOJL1G32T90GO","","null","<img src=""img/food6.png"" style=""width:200px; border:14px solid green;"">","null","","","","","","","","","",""
"","image-keyboard-response","316","302871","0.0-379.0","3IJXV6UZ1Y5ALGIQWIC3FSQUYF1RIX","A132GRVDGXPJGY","3WRBLBQ2GRU63BU2LFOJL1G32T90GO","","196.29999999701977","img/food6.png","76","198.29999999701977","3","1","2","2","1,0.5,0,1,0.5,0,0.5,0,1","0,1,0.5,0,1,0.5,1,0.5,0","3","false",""
"","html-keyboard-response","317","303175","0.0-380.0","3IJXV6UZ1Y5ALGIQWIC3FSQUYF1RIX","A132GRVDGXPJGY","3WRBLBQ2GRU63BU2LFOJL1G32T90GO","","null","<img src=""img/food6.png"" style=""width:200px; border:14px solid green;"">","null","","","","","","","","","",""
"","image-keyboard-response","318","303450","0.0-382.0","3IJXV6UZ1Y5ALGIQWIC3FSQUYF1RIX","A132GRVDGXPJGY","3WRBLBQ2GRU63BU2LFOJL1G32T90GO","","272.29999999701977","img/food6.png","75","274.29999999701977","2","1","2","2","1,0.5,0,1,0.5,0,0.5,0,1","0,1,0.5,0,1,0.5,1,0.5,0","3","false",""
"","html-keyboard-response","319","303754","0.0-383.0","3IJXV6UZ1Y5ALGIQWIC3FSQUYF1RIX","A132GRVDGXPJGY","3WRBLBQ2GRU63BU2LFOJL1G32T90GO","","null","<img src=""img/food6.png"" style=""width:200px; border:14px solid green;"">","null","","","","","","","","","",""
"","image-keyboard-response","320","304033","0.0-385.0","3IJXV6UZ1Y5ALGIQWIC3FSQUYF1RIX","A132GRVDGXPJGY","3WRBLBQ2GRU63BU2LFOJL1G32T90GO","","275.69999998807907","img/food5.png","75","277.80000001192093","2","1","3","2","1,0.5,0,1,0.5,0,0.5,0,1","0,1,0.5,0,1,0.5,1,0.5,0","3","false",""
"","html-keyboard-response","321","304336","0.0-386.0","3IJXV6UZ1Y5ALGIQWIC3FSQUYF1RIX","A132GRVDGXPJGY","3WRBLBQ2GRU63BU2LFOJL1G32T90GO","","null","<img src=""img/food5.png"" style=""width:200px; border:14px solid green;"">","null","","","","","","","","","",""
"","image-keyboard-response","322","304591","0.0-388.0","3IJXV6UZ1Y5ALGIQWIC3FSQUYF1RIX","A132GRVDGXPJGY","3WRBLBQ2GRU63BU2LFOJL1G32T90GO","","252.59999999403954","img/food6.png","75","253.90000000596046","2","1","2","2","1,0.5,0,1,0.5,0,0.5,0,1","0,1,0.5,0,1,0.5,1,0.5,0","3","false",""
"","html-keyboard-response","323","304893","0.0-389.0","3IJXV6UZ1Y5ALGIQWIC3FSQUYF1RIX","A132GRVDGXPJGY","3WRBLBQ2GRU63BU2LFOJL1G32T90GO","","null","<img src=""img/food6.png"" style=""width:200px; border:14px solid green;"">","null","","","","","","","","","",""
"","image-keyboard-response","324","305087","0.0-391.0","3IJXV6UZ1Y5ALGIQWIC3FSQUYF1RIX","A132GRVDGXPJGY","3WRBLBQ2GRU63BU2LFOJL1G32T90GO","","191","img/food6.png","74","193","1","0","2","2","1,0.5,0,1,0.5,0,0.5,0,1","0,1,0.5,0,1,0.5,1,0.5,0","3","false",""
"","html-keyboard-response","325","305390","0.0-392.0","3IJXV6UZ1Y5ALGIQWIC3FSQUYF1RIX","A132GRVDGXPJGY","3WRBLBQ2GRU63BU2LFOJL1G32T90GO","","null","<img src=""img/food6.png"" style=""width:200px;border:14px solid red;"">","null","","","","","","","","","",""
"","image-keyboard-response","326","305392","0.0-394.0","3IJXV6UZ1Y5ALGIQWIC3FSQUYF1RIX","A132GRVDGXPJGY","3WRBLBQ2GRU63BU2LFOJL1G32T90GO","","1.2000000029802322","img/food3.png","74","1.7000000029802322","1","0","1","2","1,0.5,0,1,0.5,0,0.5,0,1","0,1,0.5,0,1,0.5,1,0.5,0","3","false",""
"","html-keyboard-response","327","305694","0.0-395.0","3IJXV6UZ1Y5ALGIQWIC3FSQUYF1RIX","A132GRVDGXPJGY","3WRBLBQ2GRU63BU2LFOJL1G32T90GO","","null","<img src=""img/food3.png"" style=""width:200px;border:14px solid red;"">","null","","","","","","","","","",""
"","image-keyboard-response","328","305739","0.0-397.0","3IJXV6UZ1Y5ALGIQWIC3FSQUYF1RIX","A132GRVDGXPJGY","3WRBLBQ2GRU63BU2LFOJL1G32T90GO","","42.599999994039536","img/food3.png","75","44","2","1","1","2","1,0.5,0,1,0.5,0,0.5,0,1","0,1,0.5,0,1,0.5,1,0.5,0","3","false",""
"","html-keyboard-response","329","306042","0.0-398.0","3IJXV6UZ1Y5ALGIQWIC3FSQUYF1RIX","A132GRVDGXPJGY","3WRBLBQ2GRU63BU2LFOJL1G32T90GO","","null","<img src=""img/food3.png"" style=""width:200px; border:14px solid green;"">","null","","","","","","","","","",""
"","image-keyboard-response","330","306073","0.0-400.0","3IJXV6UZ1Y5ALGIQWIC3FSQUYF1RIX","A132GRVDGXPJGY","3WRBLBQ2GRU63BU2LFOJL1G32T90GO","","28.200000002980232","img/food5.png","75","29.900000005960464","2","1","3","2","1,0.5,0,1,0.5,0,0.5,0,1","0,1,0.5,0,1,0.5,1,0.5,0","3","false",""
"","html-keyboard-response","331","306374","0.0-401.0","3IJXV6UZ1Y5ALGIQWIC3FSQUYF1RIX","A132GRVDGXPJGY","3WRBLBQ2GRU63BU2LFOJL1G32T90GO","","null","<img src=""img/food5.png"" style=""width:200px; border:14px solid green;"">","null","","","","","","","","","",""
"","image-keyboard-response","332","306550","0.0-403.0","3IJXV6UZ1Y5ALGIQWIC3FSQUYF1RIX","A132GRVDGXPJGY","3WRBLBQ2GRU63BU2LFOJL1G32T90GO","","172.6000000089407","img/food3.png","76","174.90000000596046","3","1","1","2","1,0.5,0,1,0.5,0,0.5,0,1","0,1,0.5,0,1,0.5,1,0.5,0","3","false",""
"","html-keyboard-response","333","306854","0.0-404.0","3IJXV6UZ1Y5ALGIQWIC3FSQUYF1RIX","A132GRVDGXPJGY","3WRBLBQ2GRU63BU2LFOJL1G32T90GO","","null","<img src=""img/food3.png"" style=""width:200px; border:14px solid green;"">","null","","","","","","","","","",""
"","image-keyboard-response","334","307035","0.0-406.0","3IJXV6UZ1Y5ALGIQWIC3FSQUYF1RIX","A132GRVDGXPJGY","3WRBLBQ2GRU63BU2LFOJL1G32T90GO","","177.8999999910593","img/food5.png","76","180.09999999403954","3","0","3","2","1,0.5,0,1,0.5,0,0.5,0,1","0,1,0.5,0,1,0.5,1,0.5,0","3","false",""
"","html-keyboard-response","335","307338","0.0-407.0","3IJXV6UZ1Y5ALGIQWIC3FSQUYF1RIX","A132GRVDGXPJGY","3WRBLBQ2GRU63BU2LFOJL1G32T90GO","","null","<img src=""img/food5.png"" style=""width:200px;border:14px solid red;"">","null","","","","","","","","","",""
"","image-keyboard-response","336","307344","0.0-409.0","3IJXV6UZ1Y5ALGIQWIC3FSQUYF1RIX","A132GRVDGXPJGY","3WRBLBQ2GRU63BU2LFOJL1G32T90GO","","2.7999999970197678","img/food5.png","76","4.4000000059604645","3","0","3","2","1,0.5,0,1,0.5,0,0.5,0,1","0,1,0.5,0,1,0.5,1,0.5,0","3","false",""
"","html-keyboard-response","337","307646","0.0-410.0","3IJXV6UZ1Y5ALGIQWIC3FSQUYF1RIX","A132GRVDGXPJGY","3WRBLBQ2GRU63BU2LFOJL1G32T90GO","","null","<img src=""img/food5.png"" style=""width:200px;border:14px solid red;"">","null","","","","","","","","","",""
"","image-keyboard-response","338","307661","0.0-412.0","3IJXV6UZ1Y5ALGIQWIC3FSQUYF1RIX","A132GRVDGXPJGY","3WRBLBQ2GRU63BU2LFOJL1G32T90GO","","13.099999994039536","img/food6.png","76","14.600000008940697","3","0","2","2","1,0.5,0,1,0.5,0,0.5,0,1","0,1,0.5,0,1,0.5,1,0.5,0","3","false",""
"","html-keyboard-response","339","307964","0.0-413.0","3IJXV6UZ1Y5ALGIQWIC3FSQUYF1RIX","A132GRVDGXPJGY","3WRBLBQ2GRU63BU2LFOJL1G32T90GO","","null","<img src=""img/food6.png"" style=""width:200px;border:14px solid red;"">","null","","","","","","","","","",""
"","image-keyboard-response","340","308169","0.0-415.0","3IJXV6UZ1Y5ALGIQWIC3FSQUYF1RIX","A132GRVDGXPJGY","3WRBLBQ2GRU63BU2LFOJL1G32T90GO","","201.20000000298023","img/food6.png","74","203.29999999701977","1","0","2","2","1,0.5,0,1,0.5,0,0.5,0,1","0,1,0.5,0,1,0.5,1,0.5,0","3","false",""
"","html-keyboard-response","341","308472","0.0-416.0","3IJXV6UZ1Y5ALGIQWIC3FSQUYF1RIX","A132GRVDGXPJGY","3WRBLBQ2GRU63BU2LFOJL1G32T90GO","","null","<img src=""img/food6.png"" style=""width:200px;border:14px solid red;"">","null","","","","","","","","","",""
"","image-keyboard-response","342","308500","0.0-418.0","3IJXV6UZ1Y5ALGIQWIC3FSQUYF1RIX","A132GRVDGXPJGY","3WRBLBQ2GRU63BU2LFOJL1G32T90GO","","24.900000005960464","img/food5.png","74","26.5","1","1","3","2","1,0.5,0,1,0.5,0,0.5,0,1","0,1,0.5,0,1,0.5,1,0.5,0","3","false",""
"","html-keyboard-response","343","308809","0.0-419.0","3IJXV6UZ1Y5ALGIQWIC3FSQUYF1RIX","A132GRVDGXPJGY","3WRBLBQ2GRU63BU2LFOJL1G32T90GO","","null","<img src=""img/food5.png"" style=""width:200px; border:14px solid green;"">","null","","","","","","","","","",""
"","image-keyboard-response","344","309097","0.0-421.0","3IJXV6UZ1Y5ALGIQWIC3FSQUYF1RIX","A132GRVDGXPJGY","3WRBLBQ2GRU63BU2LFOJL1G32T90GO","","285.40000000596046","img/food3.png","74","287.59999999403954","1","0","1","2","1,0.5,0,1,0.5,0,0.5,0,1","0,1,0.5,0,1,0.5,1,0.5,0","3","false",""
"","html-keyboard-response","345","309401","0.0-422.0","3IJXV6UZ1Y5ALGIQWIC3FSQUYF1RIX","A132GRVDGXPJGY","3WRBLBQ2GRU63BU2LFOJL1G32T90GO","","null","<img src=""img/food3.png"" style=""width:200px;border:14px solid red;"">","null","","","","","","","","","",""
"","image-keyboard-response","346","309715","0.0-424.0","3IJXV6UZ1Y5ALGIQWIC3FSQUYF1RIX","A132GRVDGXPJGY","3WRBLBQ2GRU63BU2LFOJL1G32T90GO","","311.20000000298023","img/food3.png","75","313.29999999701977","2","1","1","2","1,0.5,0,1,0.5,0,0.5,0,1","0,1,0.5,0,1,0.5,1,0.5,0","3","false",""
"","html-keyboard-response","347","310019","0.0-425.0","3IJXV6UZ1Y5ALGIQWIC3FSQUYF1RIX","A132GRVDGXPJGY","3WRBLBQ2GRU63BU2LFOJL1G32T90GO","","null","<img src=""img/food3.png"" style=""width:200px; border:14px solid green;"">","null","","","","","","","","","",""
"","image-keyboard-response","348","310038","0.0-427.0","3IJXV6UZ1Y5ALGIQWIC3FSQUYF1RIX","A132GRVDGXPJGY","3WRBLBQ2GRU63BU2LFOJL1G32T90GO","","16.400000005960464","img/food5.png","75","18","2","0","3","2","1,0.5,0,1,0.5,0,0.5,0,1","0,1,0.5,0,1,0.5,1,0.5,0","3","false",""
"","html-keyboard-response","349","310339","0.0-428.0","3IJXV6UZ1Y5ALGIQWIC3FSQUYF1RIX","A132GRVDGXPJGY","3WRBLBQ2GRU63BU2LFOJL1G32T90GO","","null","<img src=""img/food5.png"" style=""width:200px;border:14px solid red;"">","null","","","","","","","","","",""
"","image-keyboard-response","350","310592","0.0-430.0","3IJXV6UZ1Y5ALGIQWIC3FSQUYF1RIX","A132GRVDGXPJGY","3WRBLBQ2GRU63BU2LFOJL1G32T90GO","","250.80000001192093","img/food3.png","76","252.29999999701977","3","0","1","2","1,0.5,0,1,0.5,0,0.5,0,1","0,1,0.5,0,1,0.5,1,0.5,0","3","false",""
"","html-keyboard-response","351","310895","0.0-431.0","3IJXV6UZ1Y5ALGIQWIC3FSQUYF1RIX","A132GRVDGXPJGY","3WRBLBQ2GRU63BU2LFOJL1G32T90GO","","null","<img src=""img/food3.png"" style=""width:200px;border:14px solid red;"">","null","","","","","","","","","",""
"","image-keyboard-response","352","310924","0.0-433.0","3IJXV6UZ1Y5ALGIQWIC3FSQUYF1RIX","A132GRVDGXPJGY","3WRBLBQ2GRU63BU2LFOJL1G32T90GO","","26.600000008940697","img/food5.png","76","28.099999994039536","3","0","3","2","1,0.5,0,1,0.5,0,0.5,0,1","0,1,0.5,0,1,0.5,1,0.5,0","3","false",""
"","html-keyboard-response","353","311226","0.0-434.0","3IJXV6UZ1Y5ALGIQWIC3FSQUYF1RIX","A132GRVDGXPJGY","3WRBLBQ2GRU63BU2LFOJL1G32T90GO","","null","<img src=""img/food5.png"" style=""width:200px;border:14px solid red;"">","null","","","","","","","","","",""
"","image-keyboard-response","354","311241","0.0-436.0","3IJXV6UZ1Y5ALGIQWIC3FSQUYF1RIX","A132GRVDGXPJGY","3WRBLBQ2GRU63BU2LFOJL1G32T90GO","","12.300000011920929","img/food6.png","75","13.899999991059303","2","1","2","2","1,0.5,0,1,0.5,0,0.5,0,1","0,1,0.5,0,1,0.5,1,0.5,0","3","false",""
"","html-keyboard-response","355","311544","0.0-437.0","3IJXV6UZ1Y5ALGIQWIC3FSQUYF1RIX","A132GRVDGXPJGY","3WRBLBQ2GRU63BU2LFOJL1G32T90GO","","null","<img src=""img/food6.png"" style=""width:200px; border:14px solid green;"">","null","","","","","","","","","",""
"","image-keyboard-response","356","311796","0.0-439.0","3IJXV6UZ1Y5ALGIQWIC3FSQUYF1RIX","A132GRVDGXPJGY","3WRBLBQ2GRU63BU2LFOJL1G32T90GO","","249.40000000596046","img/food3.png","75","251.30000001192093","2","1","1","2","1,0.5,0,1,0.5,0,0.5,0,1","0,1,0.5,0,1,0.5,1,0.5,0","3","false",""
"","html-keyboard-response","357","312099","0.0-440.0","3IJXV6UZ1Y5ALGIQWIC3FSQUYF1RIX","A132GRVDGXPJGY","3WRBLBQ2GRU63BU2LFOJL1G32T90GO","","null","<img src=""img/food3.png"" style=""width:200px; border:14px solid green;"">","null","","","","","","","","","",""
"","image-keyboard-response","358","312127","0.0-442.0","3IJXV6UZ1Y5ALGIQWIC3FSQUYF1RIX","A132GRVDGXPJGY","3WRBLBQ2GRU63BU2LFOJL1G32T90GO","","25.5","img/food5.png","75","26.899999991059303","2","1","3","2","1,0.5,0,1,0.5,0,0.5,0,1","0,1,0.5,0,1,0.5,1,0.5,0","3","false",""
"","html-keyboard-response","359","312428","0.0-443.0","3IJXV6UZ1Y5ALGIQWIC3FSQUYF1RIX","A132GRVDGXPJGY","3WRBLBQ2GRU63BU2LFOJL1G32T90GO","","null","<img src=""img/food5.png"" style=""width:200px; border:14px solid green;"">","null","","","","","","","","","",""
"","image-keyboard-response","360","312615","0.0-445.0","3IJXV6UZ1Y5ALGIQWIC3FSQUYF1RIX","A132GRVDGXPJGY","3WRBLBQ2GRU63BU2LFOJL1G32T90GO","","183.6000000089407","img/food3.png","75","185.29999999701977","2","1","1","2","1,0.5,0,1,0.5,0,0.5,0,1","0,1,0.5,0,1,0.5,1,0.5,0","3","false",""
"","html-keyboard-response","361","312917","0.0-446.0","3IJXV6UZ1Y5ALGIQWIC3FSQUYF1RIX","A132GRVDGXPJGY","3WRBLBQ2GRU63BU2LFOJL1G32T90GO","","null","<img src=""img/food3.png"" style=""width:200px; border:14px solid green;"">","null","","","","","","","","","",""
"","image-keyboard-response","362","312927","0.0-448.0","3IJXV6UZ1Y5ALGIQWIC3FSQUYF1RIX","A132GRVDGXPJGY","3WRBLBQ2GRU63BU2LFOJL1G32T90GO","","7.299999997019768","img/food3.png","74","8.899999991059303","1","0","1","2","1,0.5,0,1,0.5,0,0.5,0,1","0,1,0.5,0,1,0.5,1,0.5,0","3","false",""
"","html-keyboard-response","363","313229","0.0-449.0","3IJXV6UZ1Y5ALGIQWIC3FSQUYF1RIX","A132GRVDGXPJGY","3WRBLBQ2GRU63BU2LFOJL1G32T90GO","","null","<img src=""img/food3.png"" style=""width:200px;border:14px solid red;"">","null","","","","","","","","","",""
"","image-keyboard-response","364","313248","0.0-451.0","3IJXV6UZ1Y5ALGIQWIC3FSQUYF1RIX","A132GRVDGXPJGY","3WRBLBQ2GRU63BU2LFOJL1G32T90GO","","16.80000001192093","img/food5.png","74","18.399999991059303","1","1","3","2","1,0.5,0,1,0.5,0,0.5,0,1","0,1,0.5,0,1,0.5,1,0.5,0","3","false",""
"","html-keyboard-response","365","313553","0.0-452.0","3IJXV6UZ1Y5ALGIQWIC3FSQUYF1RIX","A132GRVDGXPJGY","3WRBLBQ2GRU63BU2LFOJL1G32T90GO","","null","<img src=""img/food5.png"" style=""width:200px; border:14px solid green;"">","null","","","","","","","","","",""
"","instructions","366","321711","0.0-454.0","3IJXV6UZ1Y5ALGIQWIC3FSQUYF1RIX","A132GRVDGXPJGY","3WRBLBQ2GRU63BU2LFOJL1G32T90GO","[{""page_index"":0,""viewing_time"":8156.70000000298}]","8156.79999999702","","","","","","","","","","","",""
"","survey-text","367","329604","0.0-455.0","3IJXV6UZ1Y5ALGIQWIC3FSQUYF1RIX","A132GRVDGXPJGY","3WRBLBQ2GRU63BU2LFOJL1G32T90GO","","7890.5999999940395","","","","","","","","","","","","{""Q0"":""A132GRVDGXPJGY""}"
