"success","trial_type","trial_index","time_elapsed","internal_node_id","assignmentID","mturkID","hitID","view_history","rt","stimulus","key_press","reactionTime","a","r","s","reward_cond","warning","responses"
"true","fullscreen","0","2876","0.0-0.0","3ERMJ6L4DZEMZGO28JCP246BCVG7MJ","A13MAWPV4T44I2","3T5ZXGO9DEAUILU6S56NLENRQJRQZJ","","","","","","","","","","",""
"","instructions","1","17794","0.0-1.0","3ERMJ6L4DZEMZGO28JCP246BCVG7MJ","A13MAWPV4T44I2","3T5ZXGO9DEAUILU6S56NLENRQJRQZJ","[{""page_index"":0,""viewing_time"":1435.3000001907349},{""page_index"":1,""viewing_time"":1336.8999998569489},{""page_index"":2,""viewing_time"":913.6000001430511},{""page_index"":3,""viewing_time"":1669.2999999523163},{""page_index"":4,""viewing_time"":5344.700000047684},{""page_index"":5,""viewing_time"":2887.699999809265},{""page_index"":6,""viewing_time"":1328.1000001430511}]","14916.5","","","","","","","","",""
"","image-keyboard-response","2","20674","0.0-2.0","3ERMJ6L4DZEMZGO28JCP246BCVG7MJ","A13MAWPV4T44I2","3T5ZXGO9DEAUILU6S56NLENRQJRQZJ","","2878.2999999523163","img/food1.png","74","2880.2000000476837","1","1","2","1,0.5,0,1,0.5,0,0.5,0,1","",""
"","html-keyboard-response","3","20979","0.0-3.0","3ERMJ6L4DZEMZGO28JCP246BCVG7MJ","A13MAWPV4T44I2","3T5ZXGO9DEAUILU6S56NLENRQJRQZJ","","null","<img src=""img/food1.png"" style=""width:200px; border:14px solid green;"">","null","","","","","","",""
"","image-keyboard-response","4","21930","0.0-4.0","3ERMJ6L4DZEMZGO28JCP246BCVG7MJ","A13MAWPV4T44I2","3T5ZXGO9DEAUILU6S56NLENRQJRQZJ","","949.2999999523163","img/food1.png","74","950.7999999523163","1","1","2","1,0.5,0,1,0.5,0,0.5,0,1","",""
"","html-keyboard-response","5","22234","0.0-5.0","3ERMJ6L4DZEMZGO28JCP246BCVG7MJ","A13MAWPV4T44I2","3T5ZXGO9DEAUILU6S56NLENRQJRQZJ","","null","<img src=""img/food1.png"" style=""width:200px; border:14px solid green;"">","null","","","","","","",""
"","image-keyboard-response","6","23000","0.0-6.0","3ERMJ6L4DZEMZGO28JCP246BCVG7MJ","A13MAWPV4T44I2","3T5ZXGO9DEAUILU6S56NLENRQJRQZJ","","765.2999999523163","img/food1.png","74","766.4000000953674","1","1","2","1,0.5,0,1,0.5,0,0.5,0,1","",""
"","html-keyboard-response","7","23303","0.0-7.0","3ERMJ6L4DZEMZGO28JCP246BCVG7MJ","A13MAWPV4T44I2","3T5ZXGO9DEAUILU6S56NLENRQJRQZJ","","null","<img src=""img/food1.png"" style=""width:200px; border:14px solid green;"">","null","","","","","","",""
"","image-keyboard-response","8","24850","0.0-8.0","3ERMJ6L4DZEMZGO28JCP246BCVG7MJ","A13MAWPV4T44I2","3T5ZXGO9DEAUILU6S56NLENRQJRQZJ","","1545.2000000476837","img/food3.png","76","1546.9000000953674","3","0","1","1,0.5,0,1,0.5,0,0.5,0,1","",""
"","html-keyboard-response","9","25153","0.0-9.0","3ERMJ6L4DZEMZGO28JCP246BCVG7MJ","A13MAWPV4T44I2","3T5ZXGO9DEAUILU6S56NLENRQJRQZJ","","null","<img src=""img/food3.png"" style=""width:200px;border:14px solid red;"">","null","","","","","","",""
"","image-keyboard-response","10","26329","0.0-10.0","3ERMJ6L4DZEMZGO28JCP246BCVG7MJ","A13MAWPV4T44I2","3T5ZXGO9DEAUILU6S56NLENRQJRQZJ","","1174.7999999523163","img/food3.png","75","1176.4000000953674","2","0","1","1,0.5,0,1,0.5,0,0.5,0,1","",""
"","html-keyboard-response","11","26633","0.0-11.0","3ERMJ6L4DZEMZGO28JCP246BCVG7MJ","A13MAWPV4T44I2","3T5ZXGO9DEAUILU6S56NLENRQJRQZJ","","null","<img src=""img/food3.png"" style=""width:200px;border:14px solid red;"">","null","","","","","","",""
"","image-keyboard-response","12","27929","0.0-12.0","3ERMJ6L4DZEMZGO28JCP246BCVG7MJ","A13MAWPV4T44I2","3T5ZXGO9DEAUILU6S56NLENRQJRQZJ","","1294.0999999046326","img/food1.png","74","1295.9000000953674","1","1","2","1,0.5,0,1,0.5,0,0.5,0,1","",""
"","html-keyboard-response","13","28232","0.0-13.0","3ERMJ6L4DZEMZGO28JCP246BCVG7MJ","A13MAWPV4T44I2","3T5ZXGO9DEAUILU6S56NLENRQJRQZJ","","null","<img src=""img/food1.png"" style=""width:200px; border:14px solid green;"">","null","","","","","","",""
"","image-keyboard-response","14","28969","0.0-14.0","3ERMJ6L4DZEMZGO28JCP246BCVG7MJ","A13MAWPV4T44I2","3T5ZXGO9DEAUILU6S56NLENRQJRQZJ","","736","img/food1.png","74","737.1000001430511","1","1","2","1,0.5,0,1,0.5,0,0.5,0,1","",""
"","html-keyboard-response","15","29272","0.0-15.0","3ERMJ6L4DZEMZGO28JCP246BCVG7MJ","A13MAWPV4T44I2","3T5ZXGO9DEAUILU6S56NLENRQJRQZJ","","null","<img src=""img/food1.png"" style=""width:200px; border:14px solid green;"">","null","","","","","","",""
"","image-keyboard-response","16","31417","0.0-16.0","3ERMJ6L4DZEMZGO28JCP246BCVG7MJ","A13MAWPV4T44I2","3T5ZXGO9DEAUILU6S56NLENRQJRQZJ","","2143.9000000953674","img/food5.png","75","2145.0999999046326","2","0","3","1,0.5,0,1,0.5,0,0.5,0,1","",""
"","html-keyboard-response","17","31720","0.0-17.0","3ERMJ6L4DZEMZGO28JCP246BCVG7MJ","A13MAWPV4T44I2","3T5ZXGO9DEAUILU6S56NLENRQJRQZJ","","null","<img src=""img/food5.png"" style=""width:200px;border:14px solid red;"">","null","","","","","","",""
"","image-keyboard-response","18","32570","0.0-18.0","3ERMJ6L4DZEMZGO28JCP246BCVG7MJ","A13MAWPV4T44I2","3T5ZXGO9DEAUILU6S56NLENRQJRQZJ","","848.7999999523163","img/food5.png","76","850.2000000476837","3","1","3","1,0.5,0,1,0.5,0,0.5,0,1","",""
"","html-keyboard-response","19","32874","0.0-19.0","3ERMJ6L4DZEMZGO28JCP246BCVG7MJ","A13MAWPV4T44I2","3T5ZXGO9DEAUILU6S56NLENRQJRQZJ","","null","<img src=""img/food5.png"" style=""width:200px; border:14px solid green;"">","null","","","","","","",""
"","image-keyboard-response","20","35105","0.0-20.0","3ERMJ6L4DZEMZGO28JCP246BCVG7MJ","A13MAWPV4T44I2","3T5ZXGO9DEAUILU6S56NLENRQJRQZJ","","2230","img/food3.png","74","2231.2999999523163","1","1","1","1,0.5,0,1,0.5,0,0.5,0,1","",""
"","html-keyboard-response","21","35408","0.0-21.0","3ERMJ6L4DZEMZGO28JCP246BCVG7MJ","A13MAWPV4T44I2","3T5ZXGO9DEAUILU6S56NLENRQJRQZJ","","null","<img src=""img/food3.png"" style=""width:200px; border:14px solid green;"">","null","","","","","","",""
"","image-keyboard-response","22","36201","0.0-22.0","3ERMJ6L4DZEMZGO28JCP246BCVG7MJ","A13MAWPV4T44I2","3T5ZXGO9DEAUILU6S56NLENRQJRQZJ","","790.7000000476837","img/food3.png","74","792.2999999523163","1","1","1","1,0.5,0,1,0.5,0,0.5,0,1","",""
"","html-keyboard-response","23","36504","0.0-23.0","3ERMJ6L4DZEMZGO28JCP246BCVG7MJ","A13MAWPV4T44I2","3T5ZXGO9DEAUILU6S56NLENRQJRQZJ","","null","<img src=""img/food3.png"" style=""width:200px; border:14px solid green;"">","null","","","","","","",""
"","image-keyboard-response","24","37673","0.0-24.0","3ERMJ6L4DZEMZGO28JCP246BCVG7MJ","A13MAWPV4T44I2","3T5ZXGO9DEAUILU6S56NLENRQJRQZJ","","1168.2000000476837","img/food5.png","76","1169.5","3","1","3","1,0.5,0,1,0.5,0,0.5,0,1","",""
"","html-keyboard-response","25","37976","0.0-25.0","3ERMJ6L4DZEMZGO28JCP246BCVG7MJ","A13MAWPV4T44I2","3T5ZXGO9DEAUILU6S56NLENRQJRQZJ","","null","<img src=""img/food5.png"" style=""width:200px; border:14px solid green;"">","null","","","","","","",""
"","image-keyboard-response","26","39017","0.0-26.0","3ERMJ6L4DZEMZGO28JCP246BCVG7MJ","A13MAWPV4T44I2","3T5ZXGO9DEAUILU6S56NLENRQJRQZJ","","1040.2000000476837","img/food1.png","74","1040.9000000953674","1","1","2","1,0.5,0,1,0.5,0,0.5,0,1","",""
"","html-keyboard-response","27","39319","0.0-27.0","3ERMJ6L4DZEMZGO28JCP246BCVG7MJ","A13MAWPV4T44I2","3T5ZXGO9DEAUILU6S56NLENRQJRQZJ","","null","<img src=""img/food1.png"" style=""width:200px; border:14px solid green;"">","null","","","","","","",""
"","image-keyboard-response","28","40313","0.0-28.0","3ERMJ6L4DZEMZGO28JCP246BCVG7MJ","A13MAWPV4T44I2","3T5ZXGO9DEAUILU6S56NLENRQJRQZJ","","992","img/food3.png","76","993.5999999046326","3","0","1","1,0.5,0,1,0.5,0,0.5,0,1","",""
"","html-keyboard-response","29","40615","0.0-29.0","3ERMJ6L4DZEMZGO28JCP246BCVG7MJ","A13MAWPV4T44I2","3T5ZXGO9DEAUILU6S56NLENRQJRQZJ","","null","<img src=""img/food3.png"" style=""width:200px;border:14px solid red;"">","null","","","","","","",""
"","image-keyboard-response","30","42346","0.0-30.0","3ERMJ6L4DZEMZGO28JCP246BCVG7MJ","A13MAWPV4T44I2","3T5ZXGO9DEAUILU6S56NLENRQJRQZJ","","1729.2999999523163","img/food5.png","76","1730.2999999523163","3","1","3","1,0.5,0,1,0.5,0,0.5,0,1","",""
"","html-keyboard-response","31","42648","0.0-31.0","3ERMJ6L4DZEMZGO28JCP246BCVG7MJ","A13MAWPV4T44I2","3T5ZXGO9DEAUILU6S56NLENRQJRQZJ","","null","<img src=""img/food5.png"" style=""width:200px; border:14px solid green;"">","null","","","","","","",""
"","image-keyboard-response","32","43738","0.0-32.0","3ERMJ6L4DZEMZGO28JCP246BCVG7MJ","A13MAWPV4T44I2","3T5ZXGO9DEAUILU6S56NLENRQJRQZJ","","1088.7999999523163","img/food3.png","74","1090","1","1","1","1,0.5,0,1,0.5,0,0.5,0,1","",""
"","html-keyboard-response","33","44041","0.0-33.0","3ERMJ6L4DZEMZGO28JCP246BCVG7MJ","A13MAWPV4T44I2","3T5ZXGO9DEAUILU6S56NLENRQJRQZJ","","null","<img src=""img/food3.png"" style=""width:200px; border:14px solid green;"">","null","","","","","","",""
"","image-keyboard-response","34","45249","0.0-34.0","3ERMJ6L4DZEMZGO28JCP246BCVG7MJ","A13MAWPV4T44I2","3T5ZXGO9DEAUILU6S56NLENRQJRQZJ","","1207.1000001430511","img/food3.png","74","1208.2999999523163","1","1","1","1,0.5,0,1,0.5,0,0.5,0,1","",""
"","html-keyboard-response","35","45552","0.0-35.0","3ERMJ6L4DZEMZGO28JCP246BCVG7MJ","A13MAWPV4T44I2","3T5ZXGO9DEAUILU6S56NLENRQJRQZJ","","null","<img src=""img/food3.png"" style=""width:200px; border:14px solid green;"">","null","","","","","","",""
"","image-keyboard-response","36","46635","0.0-36.0","3ERMJ6L4DZEMZGO28JCP246BCVG7MJ","A13MAWPV4T44I2","3T5ZXGO9DEAUILU6S56NLENRQJRQZJ","","1081.1999998092651","img/food5.png","76","1082.6999998092651","3","1","3","1,0.5,0,1,0.5,0,0.5,0,1","",""
"","html-keyboard-response","37","46939","0.0-37.0","3ERMJ6L4DZEMZGO28JCP246BCVG7MJ","A13MAWPV4T44I2","3T5ZXGO9DEAUILU6S56NLENRQJRQZJ","","null","<img src=""img/food5.png"" style=""width:200px; border:14px solid green;"">","null","","","","","","",""
"","image-keyboard-response","38","47986","0.0-38.0","3ERMJ6L4DZEMZGO28JCP246BCVG7MJ","A13MAWPV4T44I2","3T5ZXGO9DEAUILU6S56NLENRQJRQZJ","","1044.9000000953674","img/food1.png","74","1046.2000000476837","1","1","2","1,0.5,0,1,0.5,0,0.5,0,1","",""
"","html-keyboard-response","39","48288","0.0-39.0","3ERMJ6L4DZEMZGO28JCP246BCVG7MJ","A13MAWPV4T44I2","3T5ZXGO9DEAUILU6S56NLENRQJRQZJ","","null","<img src=""img/food1.png"" style=""width:200px; border:14px solid green;"">","null","","","","","","",""
"","image-keyboard-response","40","49130","0.0-40.0","3ERMJ6L4DZEMZGO28JCP246BCVG7MJ","A13MAWPV4T44I2","3T5ZXGO9DEAUILU6S56NLENRQJRQZJ","","840.5","img/food3.png","74","841.6999998092651","1","1","1","1,0.5,0,1,0.5,0,0.5,0,1","",""
"","html-keyboard-response","41","49432","0.0-41.0","3ERMJ6L4DZEMZGO28JCP246BCVG7MJ","A13MAWPV4T44I2","3T5ZXGO9DEAUILU6S56NLENRQJRQZJ","","null","<img src=""img/food3.png"" style=""width:200px; border:14px solid green;"">","null","","","","","","",""
"","image-keyboard-response","42","50362","0.0-42.0","3ERMJ6L4DZEMZGO28JCP246BCVG7MJ","A13MAWPV4T44I2","3T5ZXGO9DEAUILU6S56NLENRQJRQZJ","","928.5","img/food3.png","74","929.8000001907349","1","1","1","1,0.5,0,1,0.5,0,0.5,0,1","",""
"","html-keyboard-response","43","50665","0.0-43.0","3ERMJ6L4DZEMZGO28JCP246BCVG7MJ","A13MAWPV4T44I2","3T5ZXGO9DEAUILU6S56NLENRQJRQZJ","","null","<img src=""img/food3.png"" style=""width:200px; border:14px solid green;"">","null","","","","","","",""
"","image-keyboard-response","44","51737","0.0-44.0","3ERMJ6L4DZEMZGO28JCP246BCVG7MJ","A13MAWPV4T44I2","3T5ZXGO9DEAUILU6S56NLENRQJRQZJ","","1071.0999999046326","img/food1.png","74","1072.2000000476837","1","1","2","1,0.5,0,1,0.5,0,0.5,0,1","",""
"","html-keyboard-response","45","52040","0.0-45.0","3ERMJ6L4DZEMZGO28JCP246BCVG7MJ","A13MAWPV4T44I2","3T5ZXGO9DEAUILU6S56NLENRQJRQZJ","","null","<img src=""img/food1.png"" style=""width:200px; border:14px solid green;"">","null","","","","","","",""
"","image-keyboard-response","46","52906","0.0-46.0","3ERMJ6L4DZEMZGO28JCP246BCVG7MJ","A13MAWPV4T44I2","3T5ZXGO9DEAUILU6S56NLENRQJRQZJ","","865","img/food3.png","74","866.1000001430511","1","1","1","1,0.5,0,1,0.5,0,0.5,0,1","",""
"","html-keyboard-response","47","53209","0.0-47.0","3ERMJ6L4DZEMZGO28JCP246BCVG7MJ","A13MAWPV4T44I2","3T5ZXGO9DEAUILU6S56NLENRQJRQZJ","","null","<img src=""img/food3.png"" style=""width:200px; border:14px solid green;"">","null","","","","","","",""
"","image-keyboard-response","48","54034","0.0-48.0","3ERMJ6L4DZEMZGO28JCP246BCVG7MJ","A13MAWPV4T44I2","3T5ZXGO9DEAUILU6S56NLENRQJRQZJ","","823.8000001907349","img/food1.png","74","824.5","1","1","2","1,0.5,0,1,0.5,0,0.5,0,1","",""
"","html-keyboard-response","49","54337","0.0-49.0","3ERMJ6L4DZEMZGO28JCP246BCVG7MJ","A13MAWPV4T44I2","3T5ZXGO9DEAUILU6S56NLENRQJRQZJ","","null","<img src=""img/food1.png"" style=""width:200px; border:14px solid green;"">","null","","","","","","",""
"","image-keyboard-response","50","55234","0.0-50.0","3ERMJ6L4DZEMZGO28JCP246BCVG7MJ","A13MAWPV4T44I2","3T5ZXGO9DEAUILU6S56NLENRQJRQZJ","","895.7999999523163","img/food3.png","74","896.7000000476837","1","1","1","1,0.5,0,1,0.5,0,0.5,0,1","",""
"","html-keyboard-response","51","55537","0.0-51.0","3ERMJ6L4DZEMZGO28JCP246BCVG7MJ","A13MAWPV4T44I2","3T5ZXGO9DEAUILU6S56NLENRQJRQZJ","","null","<img src=""img/food3.png"" style=""width:200px; border:14px solid green;"">","null","","","","","","",""
"","image-keyboard-response","52","56610","0.0-52.0","3ERMJ6L4DZEMZGO28JCP246BCVG7MJ","A13MAWPV4T44I2","3T5ZXGO9DEAUILU6S56NLENRQJRQZJ","","1072","img/food5.png","76","1073.2999999523163","3","1","3","1,0.5,0,1,0.5,0,0.5,0,1","",""
"","html-keyboard-response","53","56913","0.0-53.0","3ERMJ6L4DZEMZGO28JCP246BCVG7MJ","A13MAWPV4T44I2","3T5ZXGO9DEAUILU6S56NLENRQJRQZJ","","null","<img src=""img/food5.png"" style=""width:200px; border:14px solid green;"">","null","","","","","","",""
"","image-keyboard-response","54","57810","0.0-54.0","3ERMJ6L4DZEMZGO28JCP246BCVG7MJ","A13MAWPV4T44I2","3T5ZXGO9DEAUILU6S56NLENRQJRQZJ","","895.2999999523163","img/food5.png","76","896.5","3","1","3","1,0.5,0,1,0.5,0,0.5,0,1","",""
"","html-keyboard-response","55","58113","0.0-55.0","3ERMJ6L4DZEMZGO28JCP246BCVG7MJ","A13MAWPV4T44I2","3T5ZXGO9DEAUILU6S56NLENRQJRQZJ","","null","<img src=""img/food5.png"" style=""width:200px; border:14px solid green;"">","null","","","","","","",""
"","image-keyboard-response","56","59082","0.0-56.0","3ERMJ6L4DZEMZGO28JCP246BCVG7MJ","A13MAWPV4T44I2","3T5ZXGO9DEAUILU6S56NLENRQJRQZJ","","968.2000000476837","img/food3.png","74","969.4000000953674","1","1","1","1,0.5,0,1,0.5,0,0.5,0,1","",""
"","html-keyboard-response","57","59385","0.0-57.0","3ERMJ6L4DZEMZGO28JCP246BCVG7MJ","A13MAWPV4T44I2","3T5ZXGO9DEAUILU6S56NLENRQJRQZJ","","null","<img src=""img/food3.png"" style=""width:200px; border:14px solid green;"">","null","","","","","","",""
"","image-keyboard-response","58","60218","0.0-58.0","3ERMJ6L4DZEMZGO28JCP246BCVG7MJ","A13MAWPV4T44I2","3T5ZXGO9DEAUILU6S56NLENRQJRQZJ","","831.6999998092651","img/food5.png","74","832.7000000476837","1","0","3","1,0.5,0,1,0.5,0,0.5,0,1","",""
"","html-keyboard-response","59","60521","0.0-59.0","3ERMJ6L4DZEMZGO28JCP246BCVG7MJ","A13MAWPV4T44I2","3T5ZXGO9DEAUILU6S56NLENRQJRQZJ","","null","<img src=""img/food5.png"" style=""width:200px;border:14px solid red;"">","null","","","","","","",""
"","image-keyboard-response","60","60610","0.0-60.0","3ERMJ6L4DZEMZGO28JCP246BCVG7MJ","A13MAWPV4T44I2","3T5ZXGO9DEAUILU6S56NLENRQJRQZJ","","87.40000009536743","img/food5.png","76","88.80000019073486","3","1","3","1,0.5,0,1,0.5,0,0.5,0,1","",""
"","html-keyboard-response","61","60913","0.0-61.0","3ERMJ6L4DZEMZGO28JCP246BCVG7MJ","A13MAWPV4T44I2","3T5ZXGO9DEAUILU6S56NLENRQJRQZJ","","null","<img src=""img/food5.png"" style=""width:200px; border:14px solid green;"">","null","","","","","","",""
"","image-keyboard-response","62","61793","0.0-62.0","3ERMJ6L4DZEMZGO28JCP246BCVG7MJ","A13MAWPV4T44I2","3T5ZXGO9DEAUILU6S56NLENRQJRQZJ","","878.8999998569489","img/food5.png","76","880.0999999046326","3","1","3","1,0.5,0,1,0.5,0,0.5,0,1","",""
"","html-keyboard-response","63","62095","0.0-63.0","3ERMJ6L4DZEMZGO28JCP246BCVG7MJ","A13MAWPV4T44I2","3T5ZXGO9DEAUILU6S56NLENRQJRQZJ","","null","<img src=""img/food5.png"" style=""width:200px; border:14px solid green;"">","null","","","","","","",""
"","image-keyboard-response","64","62873","0.0-64.0","3ERMJ6L4DZEMZGO28JCP246BCVG7MJ","A13MAWPV4T44I2","3T5ZXGO9DEAUILU6S56NLENRQJRQZJ","","776.7000000476837","img/food5.png","76","777.6999998092651","3","1","3","1,0.5,0,1,0.5,0,0.5,0,1","",""
"","html-keyboard-response","65","63176","0.0-65.0","3ERMJ6L4DZEMZGO28JCP246BCVG7MJ","A13MAWPV4T44I2","3T5ZXGO9DEAUILU6S56NLENRQJRQZJ","","null","<img src=""img/food5.png"" style=""width:200px; border:14px solid green;"">","null","","","","","","",""
"","image-keyboard-response","66","63953","0.0-66.0","3ERMJ6L4DZEMZGO28JCP246BCVG7MJ","A13MAWPV4T44I2","3T5ZXGO9DEAUILU6S56NLENRQJRQZJ","","776.2000000476837","img/food5.png","76","777.1000001430511","3","1","3","1,0.5,0,1,0.5,0,0.5,0,1","",""
"","html-keyboard-response","67","64256","0.0-67.0","3ERMJ6L4DZEMZGO28JCP246BCVG7MJ","A13MAWPV4T44I2","3T5ZXGO9DEAUILU6S56NLENRQJRQZJ","","null","<img src=""img/food5.png"" style=""width:200px; border:14px solid green;"">","null","","","","","","",""
"","image-keyboard-response","68","65154","0.0-68.0","3ERMJ6L4DZEMZGO28JCP246BCVG7MJ","A13MAWPV4T44I2","3T5ZXGO9DEAUILU6S56NLENRQJRQZJ","","896.7999999523163","img/food3.png","74","897.7000000476837","1","1","1","1,0.5,0,1,0.5,0,0.5,0,1","",""
"","html-keyboard-response","69","65456","0.0-69.0","3ERMJ6L4DZEMZGO28JCP246BCVG7MJ","A13MAWPV4T44I2","3T5ZXGO9DEAUILU6S56NLENRQJRQZJ","","null","<img src=""img/food3.png"" style=""width:200px; border:14px solid green;"">","null","","","","","","",""
"","image-keyboard-response","70","66234","0.0-70.0","3ERMJ6L4DZEMZGO28JCP246BCVG7MJ","A13MAWPV4T44I2","3T5ZXGO9DEAUILU6S56NLENRQJRQZJ","","776.2999999523163","img/food3.png","74","777.3999998569489","1","1","1","1,0.5,0,1,0.5,0,0.5,0,1","",""
"","html-keyboard-response","71","66536","0.0-71.0","3ERMJ6L4DZEMZGO28JCP246BCVG7MJ","A13MAWPV4T44I2","3T5ZXGO9DEAUILU6S56NLENRQJRQZJ","","null","<img src=""img/food3.png"" style=""width:200px; border:14px solid green;"">","null","","","","","","",""
"","image-keyboard-response","72","67564","0.0-72.0","3ERMJ6L4DZEMZGO28JCP246BCVG7MJ","A13MAWPV4T44I2","3T5ZXGO9DEAUILU6S56NLENRQJRQZJ","","1026.0999999046326","img/food5.png","76","1027.0999999046326","3","1","3","1,0.5,0,1,0.5,0,0.5,0,1","",""
"","html-keyboard-response","73","67867","0.0-73.0","3ERMJ6L4DZEMZGO28JCP246BCVG7MJ","A13MAWPV4T44I2","3T5ZXGO9DEAUILU6S56NLENRQJRQZJ","","null","<img src=""img/food5.png"" style=""width:200px; border:14px solid green;"">","null","","","","","","",""
"","image-keyboard-response","74","68970","0.0-74.0","3ERMJ6L4DZEMZGO28JCP246BCVG7MJ","A13MAWPV4T44I2","3T5ZXGO9DEAUILU6S56NLENRQJRQZJ","","1102.4000000953674","img/food1.png","74","1103.4000000953674","1","1","2","1,0.5,0,1,0.5,0,0.5,0,1","",""
"","html-keyboard-response","75","69273","0.0-75.0","3ERMJ6L4DZEMZGO28JCP246BCVG7MJ","A13MAWPV4T44I2","3T5ZXGO9DEAUILU6S56NLENRQJRQZJ","","null","<img src=""img/food1.png"" style=""width:200px; border:14px solid green;"">","null","","","","","","",""
"","image-keyboard-response","76","70266","0.0-76.0","3ERMJ6L4DZEMZGO28JCP246BCVG7MJ","A13MAWPV4T44I2","3T5ZXGO9DEAUILU6S56NLENRQJRQZJ","","991.6000001430511","img/food3.png","74","992.5","1","1","1","1,0.5,0,1,0.5,0,0.5,0,1","",""
"","html-keyboard-response","77","70568","0.0-77.0","3ERMJ6L4DZEMZGO28JCP246BCVG7MJ","A13MAWPV4T44I2","3T5ZXGO9DEAUILU6S56NLENRQJRQZJ","","null","<img src=""img/food3.png"" style=""width:200px; border:14px solid green;"">","null","","","","","","",""
"","image-keyboard-response","78","71394","0.0-78.0","3ERMJ6L4DZEMZGO28JCP246BCVG7MJ","A13MAWPV4T44I2","3T5ZXGO9DEAUILU6S56NLENRQJRQZJ","","824.7999999523163","img/food1.png","74","825.6000001430511","1","1","2","1,0.5,0,1,0.5,0,0.5,0,1","",""
"","html-keyboard-response","79","71696","0.0-79.0","3ERMJ6L4DZEMZGO28JCP246BCVG7MJ","A13MAWPV4T44I2","3T5ZXGO9DEAUILU6S56NLENRQJRQZJ","","null","<img src=""img/food1.png"" style=""width:200px; border:14px solid green;"">","null","","","","","","",""
"","image-keyboard-response","80","72554","0.0-80.0","3ERMJ6L4DZEMZGO28JCP246BCVG7MJ","A13MAWPV4T44I2","3T5ZXGO9DEAUILU6S56NLENRQJRQZJ","","856.2999999523163","img/food3.png","74","857.5","1","1","1","1,0.5,0,1,0.5,0,0.5,0,1","",""
"","html-keyboard-response","81","72857","0.0-81.0","3ERMJ6L4DZEMZGO28JCP246BCVG7MJ","A13MAWPV4T44I2","3T5ZXGO9DEAUILU6S56NLENRQJRQZJ","","null","<img src=""img/food3.png"" style=""width:200px; border:14px solid green;"">","null","","","","","","",""
"","image-keyboard-response","82","73706","0.0-82.0","3ERMJ6L4DZEMZGO28JCP246BCVG7MJ","A13MAWPV4T44I2","3T5ZXGO9DEAUILU6S56NLENRQJRQZJ","","847.9000000953674","img/food1.png","74","849.2000000476837","1","1","2","1,0.5,0,1,0.5,0,0.5,0,1","",""
"","html-keyboard-response","83","74010","0.0-83.0","3ERMJ6L4DZEMZGO28JCP246BCVG7MJ","A13MAWPV4T44I2","3T5ZXGO9DEAUILU6S56NLENRQJRQZJ","","null","<img src=""img/food1.png"" style=""width:200px; border:14px solid green;"">","null","","","","","","",""
"","image-keyboard-response","84","75018","0.0-84.0","3ERMJ6L4DZEMZGO28JCP246BCVG7MJ","A13MAWPV4T44I2","3T5ZXGO9DEAUILU6S56NLENRQJRQZJ","","1007.2000000476837","img/food1.png","74","1008","1","1","2","1,0.5,0,1,0.5,0,0.5,0,1","",""
"","html-keyboard-response","85","75320","0.0-85.0","3ERMJ6L4DZEMZGO28JCP246BCVG7MJ","A13MAWPV4T44I2","3T5ZXGO9DEAUILU6S56NLENRQJRQZJ","","null","<img src=""img/food1.png"" style=""width:200px; border:14px solid green;"">","null","","","","","","",""
"","image-keyboard-response","86","76290","0.0-86.0","3ERMJ6L4DZEMZGO28JCP246BCVG7MJ","A13MAWPV4T44I2","3T5ZXGO9DEAUILU6S56NLENRQJRQZJ","","969","img/food3.png","74","969.8000001907349","1","1","1","1,0.5,0,1,0.5,0,0.5,0,1","",""
"","html-keyboard-response","87","76593","0.0-87.0","3ERMJ6L4DZEMZGO28JCP246BCVG7MJ","A13MAWPV4T44I2","3T5ZXGO9DEAUILU6S56NLENRQJRQZJ","","null","<img src=""img/food3.png"" style=""width:200px; border:14px solid green;"">","null","","","","","","",""
"","image-keyboard-response","88","77403","0.0-88.0","3ERMJ6L4DZEMZGO28JCP246BCVG7MJ","A13MAWPV4T44I2","3T5ZXGO9DEAUILU6S56NLENRQJRQZJ","","808.5","img/food1.png","74","810.3999998569489","1","1","2","1,0.5,0,1,0.5,0,0.5,0,1","",""
"","html-keyboard-response","89","77708","0.0-89.0","3ERMJ6L4DZEMZGO28JCP246BCVG7MJ","A13MAWPV4T44I2","3T5ZXGO9DEAUILU6S56NLENRQJRQZJ","","null","<img src=""img/food1.png"" style=""width:200px; border:14px solid green;"">","null","","","","","","",""
"","image-keyboard-response","90","78522","0.0-90.0","3ERMJ6L4DZEMZGO28JCP246BCVG7MJ","A13MAWPV4T44I2","3T5ZXGO9DEAUILU6S56NLENRQJRQZJ","","813.1000001430511","img/food1.png","74","814.2999999523163","1","1","2","1,0.5,0,1,0.5,0,0.5,0,1","",""
"","html-keyboard-response","91","78826","0.0-91.0","3ERMJ6L4DZEMZGO28JCP246BCVG7MJ","A13MAWPV4T44I2","3T5ZXGO9DEAUILU6S56NLENRQJRQZJ","","null","<img src=""img/food1.png"" style=""width:200px; border:14px solid green;"">","null","","","","","","",""
"","image-keyboard-response","92","79801","0.0-92.0","3ERMJ6L4DZEMZGO28JCP246BCVG7MJ","A13MAWPV4T44I2","3T5ZXGO9DEAUILU6S56NLENRQJRQZJ","","973.7000000476837","img/food3.png","74","975.2999999523163","1","1","1","1,0.5,0,1,0.5,0,0.5,0,1","",""
"","html-keyboard-response","93","80104","0.0-93.0","3ERMJ6L4DZEMZGO28JCP246BCVG7MJ","A13MAWPV4T44I2","3T5ZXGO9DEAUILU6S56NLENRQJRQZJ","","null","<img src=""img/food3.png"" style=""width:200px; border:14px solid green;"">","null","","","","","","",""
"","image-keyboard-response","94","80987","0.0-94.0","3ERMJ6L4DZEMZGO28JCP246BCVG7MJ","A13MAWPV4T44I2","3T5ZXGO9DEAUILU6S56NLENRQJRQZJ","","881.5","img/food1.png","74","882.6000001430511","1","1","2","1,0.5,0,1,0.5,0,0.5,0,1","",""
"","html-keyboard-response","95","81289","0.0-95.0","3ERMJ6L4DZEMZGO28JCP246BCVG7MJ","A13MAWPV4T44I2","3T5ZXGO9DEAUILU6S56NLENRQJRQZJ","","null","<img src=""img/food1.png"" style=""width:200px; border:14px solid green;"">","null","","","","","","",""
"","image-keyboard-response","96","82187","0.0-96.0","3ERMJ6L4DZEMZGO28JCP246BCVG7MJ","A13MAWPV4T44I2","3T5ZXGO9DEAUILU6S56NLENRQJRQZJ","","896.5999999046326","img/food3.png","74","898.0999999046326","1","1","1","1,0.5,0,1,0.5,0,0.5,0,1","",""
"","html-keyboard-response","97","82490","0.0-97.0","3ERMJ6L4DZEMZGO28JCP246BCVG7MJ","A13MAWPV4T44I2","3T5ZXGO9DEAUILU6S56NLENRQJRQZJ","","null","<img src=""img/food3.png"" style=""width:200px; border:14px solid green;"">","null","","","","","","",""
"","image-keyboard-response","98","83330","0.0-98.0","3ERMJ6L4DZEMZGO28JCP246BCVG7MJ","A13MAWPV4T44I2","3T5ZXGO9DEAUILU6S56NLENRQJRQZJ","","838","img/food3.png","74","839.1000001430511","1","1","1","1,0.5,0,1,0.5,0,0.5,0,1","",""
"","html-keyboard-response","99","83632","0.0-99.0","3ERMJ6L4DZEMZGO28JCP246BCVG7MJ","A13MAWPV4T44I2","3T5ZXGO9DEAUILU6S56NLENRQJRQZJ","","null","<img src=""img/food3.png"" style=""width:200px; border:14px solid green;"">","null","","","","","","",""
"","image-keyboard-response","100","84594","0.0-100.0","3ERMJ6L4DZEMZGO28JCP246BCVG7MJ","A13MAWPV4T44I2","3T5ZXGO9DEAUILU6S56NLENRQJRQZJ","","960.2000000476837","img/food5.png","76","960.9000000953674","3","1","3","1,0.5,0,1,0.5,0,0.5,0,1","",""
"","html-keyboard-response","101","84896","0.0-101.0","3ERMJ6L4DZEMZGO28JCP246BCVG7MJ","A13MAWPV4T44I2","3T5ZXGO9DEAUILU6S56NLENRQJRQZJ","","null","<img src=""img/food5.png"" style=""width:200px; border:14px solid green;"">","null","","","","","","",""
"","image-keyboard-response","102","85762","0.0-102.0","3ERMJ6L4DZEMZGO28JCP246BCVG7MJ","A13MAWPV4T44I2","3T5ZXGO9DEAUILU6S56NLENRQJRQZJ","","864.7000000476837","img/food1.png","74","865.5999999046326","1","1","2","1,0.5,0,1,0.5,0,0.5,0,1","",""
"","html-keyboard-response","103","86064","0.0-103.0","3ERMJ6L4DZEMZGO28JCP246BCVG7MJ","A13MAWPV4T44I2","3T5ZXGO9DEAUILU6S56NLENRQJRQZJ","","null","<img src=""img/food1.png"" style=""width:200px; border:14px solid green;"">","null","","","","","","",""
"","image-keyboard-response","104","86875","0.0-104.0","3ERMJ6L4DZEMZGO28JCP246BCVG7MJ","A13MAWPV4T44I2","3T5ZXGO9DEAUILU6S56NLENRQJRQZJ","","810.2000000476837","img/food3.png","74","811.1000001430511","1","1","1","1,0.5,0,1,0.5,0,0.5,0,1","",""
"","html-keyboard-response","105","87178","0.0-105.0","3ERMJ6L4DZEMZGO28JCP246BCVG7MJ","A13MAWPV4T44I2","3T5ZXGO9DEAUILU6S56NLENRQJRQZJ","","null","<img src=""img/food3.png"" style=""width:200px; border:14px solid green;"">","null","","","","","","",""
"","image-keyboard-response","106","87873","0.0-106.0","3ERMJ6L4DZEMZGO28JCP246BCVG7MJ","A13MAWPV4T44I2","3T5ZXGO9DEAUILU6S56NLENRQJRQZJ","","694.0999999046326","img/food1.png","74","695.2999999523163","1","1","2","1,0.5,0,1,0.5,0,0.5,0,1","",""
"","html-keyboard-response","107","88175","0.0-107.0","3ERMJ6L4DZEMZGO28JCP246BCVG7MJ","A13MAWPV4T44I2","3T5ZXGO9DEAUILU6S56NLENRQJRQZJ","","null","<img src=""img/food1.png"" style=""width:200px; border:14px solid green;"">","null","","","","","","",""
"","image-keyboard-response","108","88954","0.0-108.0","3ERMJ6L4DZEMZGO28JCP246BCVG7MJ","A13MAWPV4T44I2","3T5ZXGO9DEAUILU6S56NLENRQJRQZJ","","777.6999998092651","img/food1.png","74","778.5","1","1","2","1,0.5,0,1,0.5,0,0.5,0,1","",""
"","html-keyboard-response","109","89257","0.0-109.0","3ERMJ6L4DZEMZGO28JCP246BCVG7MJ","A13MAWPV4T44I2","3T5ZXGO9DEAUILU6S56NLENRQJRQZJ","","null","<img src=""img/food1.png"" style=""width:200px; border:14px solid green;"">","null","","","","","","",""
"","image-keyboard-response","110","90067","0.0-110.0","3ERMJ6L4DZEMZGO28JCP246BCVG7MJ","A13MAWPV4T44I2","3T5ZXGO9DEAUILU6S56NLENRQJRQZJ","","808.3000001907349","img/food1.png","74","809.7000000476837","1","1","2","1,0.5,0,1,0.5,0,0.5,0,1","",""
"","html-keyboard-response","111","90371","0.0-111.0","3ERMJ6L4DZEMZGO28JCP246BCVG7MJ","A13MAWPV4T44I2","3T5ZXGO9DEAUILU6S56NLENRQJRQZJ","","null","<img src=""img/food1.png"" style=""width:200px; border:14px solid green;"">","null","","","","","","",""
"","image-keyboard-response","112","91547","0.0-112.0","3ERMJ6L4DZEMZGO28JCP246BCVG7MJ","A13MAWPV4T44I2","3T5ZXGO9DEAUILU6S56NLENRQJRQZJ","","1174","img/food3.png","74","1175.6999998092651","1","1","1","1,0.5,0,1,0.5,0,0.5,0,1","",""
"","html-keyboard-response","113","91850","0.0-113.0","3ERMJ6L4DZEMZGO28JCP246BCVG7MJ","A13MAWPV4T44I2","3T5ZXGO9DEAUILU6S56NLENRQJRQZJ","","null","<img src=""img/food3.png"" style=""width:200px; border:14px solid green;"">","null","","","","","","",""
"","image-keyboard-response","114","92666","0.0-114.0","3ERMJ6L4DZEMZGO28JCP246BCVG7MJ","A13MAWPV4T44I2","3T5ZXGO9DEAUILU6S56NLENRQJRQZJ","","815.5","img/food1.png","74","816.7000000476837","1","1","2","1,0.5,0,1,0.5,0,0.5,0,1","",""
"","html-keyboard-response","115","92970","0.0-115.0","3ERMJ6L4DZEMZGO28JCP246BCVG7MJ","A13MAWPV4T44I2","3T5ZXGO9DEAUILU6S56NLENRQJRQZJ","","null","<img src=""img/food1.png"" style=""width:200px; border:14px solid green;"">","null","","","","","","",""
"","image-keyboard-response","116","94034","0.0-116.0","3ERMJ6L4DZEMZGO28JCP246BCVG7MJ","A13MAWPV4T44I2","3T5ZXGO9DEAUILU6S56NLENRQJRQZJ","","1063","img/food5.png","76","1064.2000000476837","3","1","3","1,0.5,0,1,0.5,0,0.5,0,1","",""
"","html-keyboard-response","117","94337","0.0-117.0","3ERMJ6L4DZEMZGO28JCP246BCVG7MJ","A13MAWPV4T44I2","3T5ZXGO9DEAUILU6S56NLENRQJRQZJ","","null","<img src=""img/food5.png"" style=""width:200px; border:14px solid green;"">","null","","","","","","",""
"","image-keyboard-response","118","95218","0.0-118.0","3ERMJ6L4DZEMZGO28JCP246BCVG7MJ","A13MAWPV4T44I2","3T5ZXGO9DEAUILU6S56NLENRQJRQZJ","","879.5","img/food1.png","74","880.7000000476837","1","1","2","1,0.5,0,1,0.5,0,0.5,0,1","",""
"","html-keyboard-response","119","95521","0.0-119.0","3ERMJ6L4DZEMZGO28JCP246BCVG7MJ","A13MAWPV4T44I2","3T5ZXGO9DEAUILU6S56NLENRQJRQZJ","","null","<img src=""img/food1.png"" style=""width:200px; border:14px solid green;"">","null","","","","","","",""
"","image-keyboard-response","120","96282","0.0-120.0","3ERMJ6L4DZEMZGO28JCP246BCVG7MJ","A13MAWPV4T44I2","3T5ZXGO9DEAUILU6S56NLENRQJRQZJ","","760","img/food3.png","74","761","1","1","1","1,0.5,0,1,0.5,0,0.5,0,1","",""
"","html-keyboard-response","121","96584","0.0-121.0","3ERMJ6L4DZEMZGO28JCP246BCVG7MJ","A13MAWPV4T44I2","3T5ZXGO9DEAUILU6S56NLENRQJRQZJ","","null","<img src=""img/food3.png"" style=""width:200px; border:14px solid green;"">","null","","","","","","",""
"","image-keyboard-response","122","97363","0.0-122.0","3ERMJ6L4DZEMZGO28JCP246BCVG7MJ","A13MAWPV4T44I2","3T5ZXGO9DEAUILU6S56NLENRQJRQZJ","","777.2999999523163","img/food1.png","74","778.3000001907349","1","1","2","1,0.5,0,1,0.5,0,0.5,0,1","",""
"","html-keyboard-response","123","97665","0.0-123.0","3ERMJ6L4DZEMZGO28JCP246BCVG7MJ","A13MAWPV4T44I2","3T5ZXGO9DEAUILU6S56NLENRQJRQZJ","","null","<img src=""img/food1.png"" style=""width:200px; border:14px solid green;"">","null","","","","","","",""
"","image-keyboard-response","124","98690","0.0-124.0","3ERMJ6L4DZEMZGO28JCP246BCVG7MJ","A13MAWPV4T44I2","3T5ZXGO9DEAUILU6S56NLENRQJRQZJ","","1023.7000000476837","img/food5.png","76","1024.7000000476837","3","1","3","1,0.5,0,1,0.5,0,0.5,0,1","",""
"","html-keyboard-response","125","98993","0.0-125.0","3ERMJ6L4DZEMZGO28JCP246BCVG7MJ","A13MAWPV4T44I2","3T5ZXGO9DEAUILU6S56NLENRQJRQZJ","","null","<img src=""img/food5.png"" style=""width:200px; border:14px solid green;"">","null","","","","","","",""
"","image-keyboard-response","126","99850","0.0-126.0","3ERMJ6L4DZEMZGO28JCP246BCVG7MJ","A13MAWPV4T44I2","3T5ZXGO9DEAUILU6S56NLENRQJRQZJ","","856.4000000953674","img/food3.png","74","857.5999999046326","1","1","1","1,0.5,0,1,0.5,0,0.5,0,1","",""
"","html-keyboard-response","127","100153","0.0-127.0","3ERMJ6L4DZEMZGO28JCP246BCVG7MJ","A13MAWPV4T44I2","3T5ZXGO9DEAUILU6S56NLENRQJRQZJ","","null","<img src=""img/food3.png"" style=""width:200px; border:14px solid green;"">","null","","","","","","",""
"","image-keyboard-response","128","100939","0.0-128.0","3ERMJ6L4DZEMZGO28JCP246BCVG7MJ","A13MAWPV4T44I2","3T5ZXGO9DEAUILU6S56NLENRQJRQZJ","","784.5999999046326","img/food1.png","74","785.8999998569489","1","1","2","1,0.5,0,1,0.5,0,0.5,0,1","",""
"","html-keyboard-response","129","101242","0.0-129.0","3ERMJ6L4DZEMZGO28JCP246BCVG7MJ","A13MAWPV4T44I2","3T5ZXGO9DEAUILU6S56NLENRQJRQZJ","","null","<img src=""img/food1.png"" style=""width:200px; border:14px solid green;"">","null","","","","","","",""
"","image-keyboard-response","130","102026","0.0-130.0","3ERMJ6L4DZEMZGO28JCP246BCVG7MJ","A13MAWPV4T44I2","3T5ZXGO9DEAUILU6S56NLENRQJRQZJ","","783.0999999046326","img/food5.png","74","784","1","0","3","1,0.5,0,1,0.5,0,0.5,0,1","",""
"","html-keyboard-response","131","102330","0.0-131.0","3ERMJ6L4DZEMZGO28JCP246BCVG7MJ","A13MAWPV4T44I2","3T5ZXGO9DEAUILU6S56NLENRQJRQZJ","","null","<img src=""img/food5.png"" style=""width:200px;border:14px solid red;"">","null","","","","","","",""
"","image-keyboard-response","132","102412","0.0-132.0","3ERMJ6L4DZEMZGO28JCP246BCVG7MJ","A13MAWPV4T44I2","3T5ZXGO9DEAUILU6S56NLENRQJRQZJ","","80.29999995231628","img/food1.png","76","81.40000009536743","3","0","2","1,0.5,0,1,0.5,0,0.5,0,1","",""
"","html-keyboard-response","133","102715","0.0-133.0","3ERMJ6L4DZEMZGO28JCP246BCVG7MJ","A13MAWPV4T44I2","3T5ZXGO9DEAUILU6S56NLENRQJRQZJ","","null","<img src=""img/food1.png"" style=""width:200px;border:14px solid red;"">","null","","","","","","",""
"","image-keyboard-response","134","104203","0.0-134.0","3ERMJ6L4DZEMZGO28JCP246BCVG7MJ","A13MAWPV4T44I2","3T5ZXGO9DEAUILU6S56NLENRQJRQZJ","","1485.9000000953674","img/food5.png","76","1487.5","3","1","3","1,0.5,0,1,0.5,0,0.5,0,1","",""
"","html-keyboard-response","135","104506","0.0-135.0","3ERMJ6L4DZEMZGO28JCP246BCVG7MJ","A13MAWPV4T44I2","3T5ZXGO9DEAUILU6S56NLENRQJRQZJ","","null","<img src=""img/food5.png"" style=""width:200px; border:14px solid green;"">","null","","","","","","",""
"","image-keyboard-response","136","105323","0.0-136.0","3ERMJ6L4DZEMZGO28JCP246BCVG7MJ","A13MAWPV4T44I2","3T5ZXGO9DEAUILU6S56NLENRQJRQZJ","","815.0999999046326","img/food5.png","76","817","3","1","3","1,0.5,0,1,0.5,0,0.5,0,1","",""
"","html-keyboard-response","137","105626","0.0-137.0","3ERMJ6L4DZEMZGO28JCP246BCVG7MJ","A13MAWPV4T44I2","3T5ZXGO9DEAUILU6S56NLENRQJRQZJ","","null","<img src=""img/food5.png"" style=""width:200px; border:14px solid green;"">","null","","","","","","",""
"","image-keyboard-response","138","106467","0.0-138.0","3ERMJ6L4DZEMZGO28JCP246BCVG7MJ","A13MAWPV4T44I2","3T5ZXGO9DEAUILU6S56NLENRQJRQZJ","","839.1000001430511","img/food1.png","74","840.2000000476837","1","1","2","1,0.5,0,1,0.5,0,0.5,0,1","",""
"","html-keyboard-response","139","106769","0.0-139.0","3ERMJ6L4DZEMZGO28JCP246BCVG7MJ","A13MAWPV4T44I2","3T5ZXGO9DEAUILU6S56NLENRQJRQZJ","","null","<img src=""img/food1.png"" style=""width:200px; border:14px solid green;"">","null","","","","","","",""
"","image-keyboard-response","140","107547","0.0-140.0","3ERMJ6L4DZEMZGO28JCP246BCVG7MJ","A13MAWPV4T44I2","3T5ZXGO9DEAUILU6S56NLENRQJRQZJ","","776.6000001430511","img/food3.png","74","777.7000000476837","1","1","1","1,0.5,0,1,0.5,0,0.5,0,1","",""
"","html-keyboard-response","141","107850","0.0-141.0","3ERMJ6L4DZEMZGO28JCP246BCVG7MJ","A13MAWPV4T44I2","3T5ZXGO9DEAUILU6S56NLENRQJRQZJ","","null","<img src=""img/food3.png"" style=""width:200px; border:14px solid green;"">","null","","","","","","",""
"","image-keyboard-response","142","108963","0.0-142.0","3ERMJ6L4DZEMZGO28JCP246BCVG7MJ","A13MAWPV4T44I2","3T5ZXGO9DEAUILU6S56NLENRQJRQZJ","","1111.7999999523163","img/food5.png","76","1112.7999999523163","3","1","3","1,0.5,0,1,0.5,0,0.5,0,1","",""
"","html-keyboard-response","143","109266","0.0-143.0","3ERMJ6L4DZEMZGO28JCP246BCVG7MJ","A13MAWPV4T44I2","3T5ZXGO9DEAUILU6S56NLENRQJRQZJ","","null","<img src=""img/food5.png"" style=""width:200px; border:14px solid green;"">","null","","","","","","",""
"","image-keyboard-response","144","110123","0.0-144.0","3ERMJ6L4DZEMZGO28JCP246BCVG7MJ","A13MAWPV4T44I2","3T5ZXGO9DEAUILU6S56NLENRQJRQZJ","","855.2999999523163","img/food3.png","74","856.6999998092651","1","1","1","1,0.5,0,1,0.5,0,0.5,0,1","",""
"","html-keyboard-response","145","110425","0.0-145.0","3ERMJ6L4DZEMZGO28JCP246BCVG7MJ","A13MAWPV4T44I2","3T5ZXGO9DEAUILU6S56NLENRQJRQZJ","","null","<img src=""img/food3.png"" style=""width:200px; border:14px solid green;"">","null","","","","","","",""
"","image-keyboard-response","146","111923","0.0-146.0","3ERMJ6L4DZEMZGO28JCP246BCVG7MJ","A13MAWPV4T44I2","3T5ZXGO9DEAUILU6S56NLENRQJRQZJ","","1496.9000000953674","img/food5.png","74","1498","1","1","3","1,0.5,0,1,0.5,0,0.5,0,1","",""
"","html-keyboard-response","147","112225","0.0-147.0","3ERMJ6L4DZEMZGO28JCP246BCVG7MJ","A13MAWPV4T44I2","3T5ZXGO9DEAUILU6S56NLENRQJRQZJ","","null","<img src=""img/food5.png"" style=""width:200px; border:14px solid green;"">","null","","","","","","",""
"","image-keyboard-response","148","114219","0.0-148.0","3ERMJ6L4DZEMZGO28JCP246BCVG7MJ","A13MAWPV4T44I2","3T5ZXGO9DEAUILU6S56NLENRQJRQZJ","","1992.5999999046326","img/food5.png","76","1993.5999999046326","3","1","3","1,0.5,0,1,0.5,0,0.5,0,1","",""
"","html-keyboard-response","149","114523","0.0-149.0","3ERMJ6L4DZEMZGO28JCP246BCVG7MJ","A13MAWPV4T44I2","3T5ZXGO9DEAUILU6S56NLENRQJRQZJ","","null","<img src=""img/food5.png"" style=""width:200px; border:14px solid green;"">","null","","","","","","",""
"","image-keyboard-response","150","115435","0.0-150.0","3ERMJ6L4DZEMZGO28JCP246BCVG7MJ","A13MAWPV4T44I2","3T5ZXGO9DEAUILU6S56NLENRQJRQZJ","","910.3999998569489","img/food1.png","74","911.5","1","1","2","1,0.5,0,1,0.5,0,0.5,0,1","",""
"","html-keyboard-response","151","115736","0.0-151.0","3ERMJ6L4DZEMZGO28JCP246BCVG7MJ","A13MAWPV4T44I2","3T5ZXGO9DEAUILU6S56NLENRQJRQZJ","","null","<img src=""img/food1.png"" style=""width:200px; border:14px solid green;"">","null","","","","","","",""
"","image-keyboard-response","152","116803","0.0-152.0","3ERMJ6L4DZEMZGO28JCP246BCVG7MJ","A13MAWPV4T44I2","3T5ZXGO9DEAUILU6S56NLENRQJRQZJ","","1066","img/food5.png","76","1066.7999999523163","3","1","3","1,0.5,0,1,0.5,0,0.5,0,1","",""
"","html-keyboard-response","153","117106","0.0-153.0","3ERMJ6L4DZEMZGO28JCP246BCVG7MJ","A13MAWPV4T44I2","3T5ZXGO9DEAUILU6S56NLENRQJRQZJ","","null","<img src=""img/food5.png"" style=""width:200px; border:14px solid green;"">","null","","","","","","",""
"","image-keyboard-response","154","117957","0.0-154.0","3ERMJ6L4DZEMZGO28JCP246BCVG7MJ","A13MAWPV4T44I2","3T5ZXGO9DEAUILU6S56NLENRQJRQZJ","","849.5","img/food5.png","76","850.9000000953674","3","1","3","1,0.5,0,1,0.5,0,0.5,0,1","",""
"","html-keyboard-response","155","118260","0.0-155.0","3ERMJ6L4DZEMZGO28JCP246BCVG7MJ","A13MAWPV4T44I2","3T5ZXGO9DEAUILU6S56NLENRQJRQZJ","","null","<img src=""img/food5.png"" style=""width:200px; border:14px solid green;"">","null","","","","","","",""
"","image-keyboard-response","156","119147","0.0-156.0","3ERMJ6L4DZEMZGO28JCP246BCVG7MJ","A13MAWPV4T44I2","3T5ZXGO9DEAUILU6S56NLENRQJRQZJ","","885.2999999523163","img/food3.png","74","886.4000000953674","1","1","1","1,0.5,0,1,0.5,0,0.5,0,1","",""
"","html-keyboard-response","157","119450","0.0-157.0","3ERMJ6L4DZEMZGO28JCP246BCVG7MJ","A13MAWPV4T44I2","3T5ZXGO9DEAUILU6S56NLENRQJRQZJ","","null","<img src=""img/food3.png"" style=""width:200px; border:14px solid green;"">","null","","","","","","",""
"","image-keyboard-response","158","120202","0.0-158.0","3ERMJ6L4DZEMZGO28JCP246BCVG7MJ","A13MAWPV4T44I2","3T5ZXGO9DEAUILU6S56NLENRQJRQZJ","","751.6999998092651","img/food3.png","74","752.5999999046326","1","1","1","1,0.5,0,1,0.5,0,0.5,0,1","",""
"","html-keyboard-response","159","120506","0.0-159.0","3ERMJ6L4DZEMZGO28JCP246BCVG7MJ","A13MAWPV4T44I2","3T5ZXGO9DEAUILU6S56NLENRQJRQZJ","","null","<img src=""img/food3.png"" style=""width:200px; border:14px solid green;"">","null","","","","","","",""
"","image-keyboard-response","160","121202","0.0-160.0","3ERMJ6L4DZEMZGO28JCP246BCVG7MJ","A13MAWPV4T44I2","3T5ZXGO9DEAUILU6S56NLENRQJRQZJ","","694.2999999523163","img/food1.png","74","695.7000000476837","1","1","2","1,0.5,0,1,0.5,0,0.5,0,1","",""
"","html-keyboard-response","161","121505","0.0-161.0","3ERMJ6L4DZEMZGO28JCP246BCVG7MJ","A13MAWPV4T44I2","3T5ZXGO9DEAUILU6S56NLENRQJRQZJ","","null","<img src=""img/food1.png"" style=""width:200px; border:14px solid green;"">","null","","","","","","",""
"","image-keyboard-response","162","122259","0.0-162.0","3ERMJ6L4DZEMZGO28JCP246BCVG7MJ","A13MAWPV4T44I2","3T5ZXGO9DEAUILU6S56NLENRQJRQZJ","","752.4000000953674","img/food1.png","74","753.6000001430511","1","1","2","1,0.5,0,1,0.5,0,0.5,0,1","",""
"","html-keyboard-response","163","122562","0.0-163.0","3ERMJ6L4DZEMZGO28JCP246BCVG7MJ","A13MAWPV4T44I2","3T5ZXGO9DEAUILU6S56NLENRQJRQZJ","","null","<img src=""img/food1.png"" style=""width:200px; border:14px solid green;"">","null","","","","","","",""
"","image-keyboard-response","164","123492","0.0-164.0","3ERMJ6L4DZEMZGO28JCP246BCVG7MJ","A13MAWPV4T44I2","3T5ZXGO9DEAUILU6S56NLENRQJRQZJ","","928.3999998569489","img/food5.png","76","929.9000000953674","3","1","3","1,0.5,0,1,0.5,0,0.5,0,1","",""
"","html-keyboard-response","165","123796","0.0-165.0","3ERMJ6L4DZEMZGO28JCP246BCVG7MJ","A13MAWPV4T44I2","3T5ZXGO9DEAUILU6S56NLENRQJRQZJ","","null","<img src=""img/food5.png"" style=""width:200px; border:14px solid green;"">","null","","","","","","",""
"","image-keyboard-response","166","124683","0.0-166.0","3ERMJ6L4DZEMZGO28JCP246BCVG7MJ","A13MAWPV4T44I2","3T5ZXGO9DEAUILU6S56NLENRQJRQZJ","","885.2000000476837","img/food5.png","76","886.2999999523163","3","1","3","1,0.5,0,1,0.5,0,0.5,0,1","",""
"","html-keyboard-response","167","124986","0.0-167.0","3ERMJ6L4DZEMZGO28JCP246BCVG7MJ","A13MAWPV4T44I2","3T5ZXGO9DEAUILU6S56NLENRQJRQZJ","","null","<img src=""img/food5.png"" style=""width:200px; border:14px solid green;"">","null","","","","","","",""
"","image-keyboard-response","168","125899","0.0-168.0","3ERMJ6L4DZEMZGO28JCP246BCVG7MJ","A13MAWPV4T44I2","3T5ZXGO9DEAUILU6S56NLENRQJRQZJ","","911.2000000476837","img/food3.png","74","912.5","1","1","1","1,0.5,0,1,0.5,0,0.5,0,1","",""
"","html-keyboard-response","169","126202","0.0-169.0","3ERMJ6L4DZEMZGO28JCP246BCVG7MJ","A13MAWPV4T44I2","3T5ZXGO9DEAUILU6S56NLENRQJRQZJ","","null","<img src=""img/food3.png"" style=""width:200px; border:14px solid green;"">","null","","","","","","",""
"","image-keyboard-response","170","126994","0.0-170.0","3ERMJ6L4DZEMZGO28JCP246BCVG7MJ","A13MAWPV4T44I2","3T5ZXGO9DEAUILU6S56NLENRQJRQZJ","","792","img/food1.png","74","792.7999999523163","1","1","2","1,0.5,0,1,0.5,0,0.5,0,1","",""
"","html-keyboard-response","171","127297","0.0-171.0","3ERMJ6L4DZEMZGO28JCP246BCVG7MJ","A13MAWPV4T44I2","3T5ZXGO9DEAUILU6S56NLENRQJRQZJ","","null","<img src=""img/food1.png"" style=""width:200px; border:14px solid green;"">","null","","","","","","",""
"","image-keyboard-response","172","128267","0.0-172.0","3ERMJ6L4DZEMZGO28JCP246BCVG7MJ","A13MAWPV4T44I2","3T5ZXGO9DEAUILU6S56NLENRQJRQZJ","","968.0999999046326","img/food5.png","76","969.2999999523163","3","1","3","1,0.5,0,1,0.5,0,0.5,0,1","",""
"","html-keyboard-response","173","128570","0.0-173.0","3ERMJ6L4DZEMZGO28JCP246BCVG7MJ","A13MAWPV4T44I2","3T5ZXGO9DEAUILU6S56NLENRQJRQZJ","","null","<img src=""img/food5.png"" style=""width:200px; border:14px solid green;"">","null","","","","","","",""
"","image-keyboard-response","174","129307","0.0-174.0","3ERMJ6L4DZEMZGO28JCP246BCVG7MJ","A13MAWPV4T44I2","3T5ZXGO9DEAUILU6S56NLENRQJRQZJ","","735.5","img/food5.png","76","736.6000001430511","3","1","3","1,0.5,0,1,0.5,0,0.5,0,1","",""
"","html-keyboard-response","175","129610","0.0-175.0","3ERMJ6L4DZEMZGO28JCP246BCVG7MJ","A13MAWPV4T44I2","3T5ZXGO9DEAUILU6S56NLENRQJRQZJ","","null","<img src=""img/food5.png"" style=""width:200px; border:14px solid green;"">","null","","","","","","",""
"","image-keyboard-response","176","130347","0.0-176.0","3ERMJ6L4DZEMZGO28JCP246BCVG7MJ","A13MAWPV4T44I2","3T5ZXGO9DEAUILU6S56NLENRQJRQZJ","","736.2000000476837","img/food5.png","76","737.2999999523163","3","1","3","1,0.5,0,1,0.5,0,0.5,0,1","",""
"","html-keyboard-response","177","130650","0.0-177.0","3ERMJ6L4DZEMZGO28JCP246BCVG7MJ","A13MAWPV4T44I2","3T5ZXGO9DEAUILU6S56NLENRQJRQZJ","","null","<img src=""img/food5.png"" style=""width:200px; border:14px solid green;"">","null","","","","","","",""
"","image-keyboard-response","178","131580","0.0-178.0","3ERMJ6L4DZEMZGO28JCP246BCVG7MJ","A13MAWPV4T44I2","3T5ZXGO9DEAUILU6S56NLENRQJRQZJ","","928.1000001430511","img/food3.png","74","929.5","1","1","1","1,0.5,0,1,0.5,0,0.5,0,1","",""
"","html-keyboard-response","179","131883","0.0-179.0","3ERMJ6L4DZEMZGO28JCP246BCVG7MJ","A13MAWPV4T44I2","3T5ZXGO9DEAUILU6S56NLENRQJRQZJ","","null","<img src=""img/food3.png"" style=""width:200px; border:14px solid green;"">","null","","","","","","",""
"","image-keyboard-response","180","132668","0.0-180.0","3ERMJ6L4DZEMZGO28JCP246BCVG7MJ","A13MAWPV4T44I2","3T5ZXGO9DEAUILU6S56NLENRQJRQZJ","","784.0999999046326","img/food5.png","74","785.2999999523163","1","1","3","1,0.5,0,1,0.5,0,0.5,0,1","",""
"","html-keyboard-response","181","132971","0.0-181.0","3ERMJ6L4DZEMZGO28JCP246BCVG7MJ","A13MAWPV4T44I2","3T5ZXGO9DEAUILU6S56NLENRQJRQZJ","","null","<img src=""img/food5.png"" style=""width:200px; border:14px solid green;"">","null","","","","","","",""
"","html-keyboard-response","182","136131","0.0-182.0","3ERMJ6L4DZEMZGO28JCP246BCVG7MJ","A13MAWPV4T44I2","3T5ZXGO9DEAUILU6S56NLENRQJRQZJ","","","","","","","","","","",""
"","instructions","183","139099","0.0-183.0","3ERMJ6L4DZEMZGO28JCP246BCVG7MJ","A13MAWPV4T44I2","3T5ZXGO9DEAUILU6S56NLENRQJRQZJ","[{""page_index"":0,""viewing_time"":1615.2000000476837},{""page_index"":1,""viewing_time"":1351.5}]","2967","","","","","","","","",""
"","image-keyboard-response","184","140102","0.0-184.0","3ERMJ6L4DZEMZGO28JCP246BCVG7MJ","A13MAWPV4T44I2","3T5ZXGO9DEAUILU6S56NLENRQJRQZJ","","","img/food6.png","","1003.5999999046326","-1","0","1","1,0.5,0,1,0.5,0,0.5,0,1","true",""
"","html-keyboard-response","185","140406","0.0-185.0","3ERMJ6L4DZEMZGO28JCP246BCVG7MJ","A13MAWPV4T44I2","3T5ZXGO9DEAUILU6S56NLENRQJRQZJ","","null","<img src=""img/food6.png"" style=""width:200px;border:14px solid red;"">","null","","","","","","",""
"","html-keyboard-response","186","141916","0.0-186.0-0.0","3ERMJ6L4DZEMZGO28JCP246BCVG7MJ","A13MAWPV4T44I2","3T5ZXGO9DEAUILU6S56NLENRQJRQZJ","","","","","","","","","","",""
"","image-keyboard-response","187","142918","0.0-187.0","3ERMJ6L4DZEMZGO28JCP246BCVG7MJ","A13MAWPV4T44I2","3T5ZXGO9DEAUILU6S56NLENRQJRQZJ","","","img/food6.png","","1002.1000001430511","-1","0","1","1,0.5,0,1,0.5,0,0.5,0,1","true",""
"","html-keyboard-response","188","143221","0.0-188.0","3ERMJ6L4DZEMZGO28JCP246BCVG7MJ","A13MAWPV4T44I2","3T5ZXGO9DEAUILU6S56NLENRQJRQZJ","","null","<img src=""img/food6.png"" style=""width:200px;border:14px solid red;"">","null","","","","","","",""
"","html-keyboard-response","189","145107","0.0-189.0-0.0","3ERMJ6L4DZEMZGO28JCP246BCVG7MJ","A13MAWPV4T44I2","3T5ZXGO9DEAUILU6S56NLENRQJRQZJ","","","","","","","","","","",""
"","image-keyboard-response","190","145763","0.0-190.0","3ERMJ6L4DZEMZGO28JCP246BCVG7MJ","A13MAWPV4T44I2","3T5ZXGO9DEAUILU6S56NLENRQJRQZJ","","654.0999999046326","img/food2.png","74","655.5","1","0","3","1,0.5,0,1,0.5,0,0.5,0,1","false",""
"","html-keyboard-response","191","146065","0.0-191.0","3ERMJ6L4DZEMZGO28JCP246BCVG7MJ","A13MAWPV4T44I2","3T5ZXGO9DEAUILU6S56NLENRQJRQZJ","","null","<img src=""img/food2.png"" style=""width:200px;border:14px solid red;"">","null","","","","","","",""
"","image-keyboard-response","192","147068","0.0-193.0","3ERMJ6L4DZEMZGO28JCP246BCVG7MJ","A13MAWPV4T44I2","3T5ZXGO9DEAUILU6S56NLENRQJRQZJ","","","img/food2.png","","1002.4000000953674","-1","0","3","1,0.5,0,1,0.5,0,0.5,0,1","true",""
"","html-keyboard-response","193","147371","0.0-194.0","3ERMJ6L4DZEMZGO28JCP246BCVG7MJ","A13MAWPV4T44I2","3T5ZXGO9DEAUILU6S56NLENRQJRQZJ","","null","<img src=""img/food2.png"" style=""width:200px;border:14px solid red;"">","null","","","","","","",""
"","html-keyboard-response","194","149852","0.0-195.0-0.0","3ERMJ6L4DZEMZGO28JCP246BCVG7MJ","A13MAWPV4T44I2","3T5ZXGO9DEAUILU6S56NLENRQJRQZJ","","","","","","","","","","",""
"","image-keyboard-response","195","150683","0.0-196.0","3ERMJ6L4DZEMZGO28JCP246BCVG7MJ","A13MAWPV4T44I2","3T5ZXGO9DEAUILU6S56NLENRQJRQZJ","","829.2999999523163","img/food2.png","75","831.1999998092651","2","0","3","1,0.5,0,1,0.5,0,0.5,0,1","false",""
"","html-keyboard-response","196","150986","0.0-197.0","3ERMJ6L4DZEMZGO28JCP246BCVG7MJ","A13MAWPV4T44I2","3T5ZXGO9DEAUILU6S56NLENRQJRQZJ","","null","<img src=""img/food2.png"" style=""width:200px;border:14px solid red;"">","null","","","","","","",""
"","image-keyboard-response","197","151701","0.0-199.0","3ERMJ6L4DZEMZGO28JCP246BCVG7MJ","A13MAWPV4T44I2","3T5ZXGO9DEAUILU6S56NLENRQJRQZJ","","713.5999999046326","img/food4.png","76","714.6999998092651","3","0","2","1,0.5,0,1,0.5,0,0.5,0,1","false",""
"","html-keyboard-response","198","152004","0.0-200.0","3ERMJ6L4DZEMZGO28JCP246BCVG7MJ","A13MAWPV4T44I2","3T5ZXGO9DEAUILU6S56NLENRQJRQZJ","","null","<img src=""img/food4.png"" style=""width:200px;border:14px solid red;"">","null","","","","","","",""
"","image-keyboard-response","199","152532","0.0-202.0","3ERMJ6L4DZEMZGO28JCP246BCVG7MJ","A13MAWPV4T44I2","3T5ZXGO9DEAUILU6S56NLENRQJRQZJ","","525.7999999523163","img/food6.png","74","527.2000000476837","1","1","1","1,0.5,0,1,0.5,0,0.5,0,1","false",""
"","html-keyboard-response","200","152835","0.0-203.0","3ERMJ6L4DZEMZGO28JCP246BCVG7MJ","A13MAWPV4T44I2","3T5ZXGO9DEAUILU6S56NLENRQJRQZJ","","null","<img src=""img/food6.png"" style=""width:200px; border:14px solid green;"">","null","","","","","","",""
"","image-keyboard-response","201","153839","0.0-205.0","3ERMJ6L4DZEMZGO28JCP246BCVG7MJ","A13MAWPV4T44I2","3T5ZXGO9DEAUILU6S56NLENRQJRQZJ","","","img/food2.png","","1003.5999999046326","-1","0","3","1,0.5,0,1,0.5,0,0.5,0,1","true",""
"","html-keyboard-response","202","154142","0.0-206.0","3ERMJ6L4DZEMZGO28JCP246BCVG7MJ","A13MAWPV4T44I2","3T5ZXGO9DEAUILU6S56NLENRQJRQZJ","","null","<img src=""img/food2.png"" style=""width:200px;border:14px solid red;"">","null","","","","","","",""
"","html-keyboard-response","203","155268","0.0-207.0-0.0","3ERMJ6L4DZEMZGO28JCP246BCVG7MJ","A13MAWPV4T44I2","3T5ZXGO9DEAUILU6S56NLENRQJRQZJ","","","","","","","","","","",""
"","image-keyboard-response","204","156272","0.0-208.0","3ERMJ6L4DZEMZGO28JCP246BCVG7MJ","A13MAWPV4T44I2","3T5ZXGO9DEAUILU6S56NLENRQJRQZJ","","","img/food6.png","","1003.5999999046326","-1","0","1","1,0.5,0,1,0.5,0,0.5,0,1","true",""
"","html-keyboard-response","205","156575","0.0-209.0","3ERMJ6L4DZEMZGO28JCP246BCVG7MJ","A13MAWPV4T44I2","3T5ZXGO9DEAUILU6S56NLENRQJRQZJ","","null","<img src=""img/food6.png"" style=""width:200px;border:14px solid red;"">","null","","","","","","",""
"","html-keyboard-response","206","157691","0.0-210.0-0.0","3ERMJ6L4DZEMZGO28JCP246BCVG7MJ","A13MAWPV4T44I2","3T5ZXGO9DEAUILU6S56NLENRQJRQZJ","","","","","","","","","","",""
"","image-keyboard-response","207","158275","0.0-211.0","3ERMJ6L4DZEMZGO28JCP246BCVG7MJ","A13MAWPV4T44I2","3T5ZXGO9DEAUILU6S56NLENRQJRQZJ","","582.1000001430511","img/food6.png","75","583.4000000953674","2","0","1","1,0.5,0,1,0.5,0,0.5,0,1","false",""
"","html-keyboard-response","208","158578","0.0-212.0","3ERMJ6L4DZEMZGO28JCP246BCVG7MJ","A13MAWPV4T44I2","3T5ZXGO9DEAUILU6S56NLENRQJRQZJ","","null","<img src=""img/food6.png"" style=""width:200px;border:14px solid red;"">","null","","","","","","",""
"","image-keyboard-response","209","159115","0.0-214.0","3ERMJ6L4DZEMZGO28JCP246BCVG7MJ","A13MAWPV4T44I2","3T5ZXGO9DEAUILU6S56NLENRQJRQZJ","","535.6000001430511","img/food6.png","76","536.7000000476837","3","0","1","1,0.5,0,1,0.5,0,0.5,0,1","false",""
"","html-keyboard-response","210","159417","0.0-215.0","3ERMJ6L4DZEMZGO28JCP246BCVG7MJ","A13MAWPV4T44I2","3T5ZXGO9DEAUILU6S56NLENRQJRQZJ","","null","<img src=""img/food6.png"" style=""width:200px;border:14px solid red;"">","null","","","","","","",""
"","image-keyboard-response","211","159940","0.0-217.0","3ERMJ6L4DZEMZGO28JCP246BCVG7MJ","A13MAWPV4T44I2","3T5ZXGO9DEAUILU6S56NLENRQJRQZJ","","520.7999999523163","img/food6.png","74","521.7999999523163","1","1","1","1,0.5,0,1,0.5,0,0.5,0,1","false",""
"","html-keyboard-response","212","160243","0.0-218.0","3ERMJ6L4DZEMZGO28JCP246BCVG7MJ","A13MAWPV4T44I2","3T5ZXGO9DEAUILU6S56NLENRQJRQZJ","","null","<img src=""img/food6.png"" style=""width:200px; border:14px solid green;"">","null","","","","","","",""
"","image-keyboard-response","213","161036","0.0-220.0","3ERMJ6L4DZEMZGO28JCP246BCVG7MJ","A13MAWPV4T44I2","3T5ZXGO9DEAUILU6S56NLENRQJRQZJ","","791.7000000476837","img/food6.png","74","792.5","1","1","1","1,0.5,0,1,0.5,0,0.5,0,1","false",""
"","html-keyboard-response","214","161339","0.0-221.0","3ERMJ6L4DZEMZGO28JCP246BCVG7MJ","A13MAWPV4T44I2","3T5ZXGO9DEAUILU6S56NLENRQJRQZJ","","null","<img src=""img/food6.png"" style=""width:200px; border:14px solid green;"">","null","","","","","","",""
"","image-keyboard-response","215","162341","0.0-223.0","3ERMJ6L4DZEMZGO28JCP246BCVG7MJ","A13MAWPV4T44I2","3T5ZXGO9DEAUILU6S56NLENRQJRQZJ","","","img/food2.png","","1002.5","-1","0","3","1,0.5,0,1,0.5,0,0.5,0,1","true",""
"","html-keyboard-response","216","162646","0.0-224.0","3ERMJ6L4DZEMZGO28JCP246BCVG7MJ","A13MAWPV4T44I2","3T5ZXGO9DEAUILU6S56NLENRQJRQZJ","","null","<img src=""img/food2.png"" style=""width:200px;border:14px solid red;"">","null","","","","","","",""
"","html-keyboard-response","217","163788","0.0-225.0-0.0","3ERMJ6L4DZEMZGO28JCP246BCVG7MJ","A13MAWPV4T44I2","3T5ZXGO9DEAUILU6S56NLENRQJRQZJ","","","","","","","","","","",""
"","image-keyboard-response","218","164558","0.0-226.0","3ERMJ6L4DZEMZGO28JCP246BCVG7MJ","A13MAWPV4T44I2","3T5ZXGO9DEAUILU6S56NLENRQJRQZJ","","767.8999998569489","img/food2.png","75","769.5","2","0","3","1,0.5,0,1,0.5,0,0.5,0,1","false",""
"","html-keyboard-response","219","164861","0.0-227.0","3ERMJ6L4DZEMZGO28JCP246BCVG7MJ","A13MAWPV4T44I2","3T5ZXGO9DEAUILU6S56NLENRQJRQZJ","","null","<img src=""img/food2.png"" style=""width:200px;border:14px solid red;"">","null","","","","","","",""
"","image-keyboard-response","220","165469","0.0-229.0","3ERMJ6L4DZEMZGO28JCP246BCVG7MJ","A13MAWPV4T44I2","3T5ZXGO9DEAUILU6S56NLENRQJRQZJ","","606.5","img/food4.png","76","607.8000001907349","3","0","2","1,0.5,0,1,0.5,0,0.5,0,1","false",""
"","html-keyboard-response","221","165771","0.0-230.0","3ERMJ6L4DZEMZGO28JCP246BCVG7MJ","A13MAWPV4T44I2","3T5ZXGO9DEAUILU6S56NLENRQJRQZJ","","null","<img src=""img/food4.png"" style=""width:200px;border:14px solid red;"">","null","","","","","","",""
"","image-keyboard-response","222","166774","0.0-232.0","3ERMJ6L4DZEMZGO28JCP246BCVG7MJ","A13MAWPV4T44I2","3T5ZXGO9DEAUILU6S56NLENRQJRQZJ","","","img/food6.png","","1002.5","-1","0","1","1,0.5,0,1,0.5,0,0.5,0,1","true",""
"","html-keyboard-response","223","167077","0.0-233.0","3ERMJ6L4DZEMZGO28JCP246BCVG7MJ","A13MAWPV4T44I2","3T5ZXGO9DEAUILU6S56NLENRQJRQZJ","","null","<img src=""img/food6.png"" style=""width:200px;border:14px solid red;"">","null","","","","","","",""
"","html-keyboard-response","224","168085","0.0-234.0-0.0","3ERMJ6L4DZEMZGO28JCP246BCVG7MJ","A13MAWPV4T44I2","3T5ZXGO9DEAUILU6S56NLENRQJRQZJ","","","","","","","","","","",""
"","image-keyboard-response","225","169087","0.0-235.0","3ERMJ6L4DZEMZGO28JCP246BCVG7MJ","A13MAWPV4T44I2","3T5ZXGO9DEAUILU6S56NLENRQJRQZJ","","","img/food4.png","","1002.5","-1","0","2","1,0.5,0,1,0.5,0,0.5,0,1","true",""
"","html-keyboard-response","226","169390","0.0-236.0","3ERMJ6L4DZEMZGO28JCP246BCVG7MJ","A13MAWPV4T44I2","3T5ZXGO9DEAUILU6S56NLENRQJRQZJ","","null","<img src=""img/food4.png"" style=""width:200px;border:14px solid red;"">","null","","","","","","",""
"","html-keyboard-response","227","170461","0.0-237.0-0.0","3ERMJ6L4DZEMZGO28JCP246BCVG7MJ","A13MAWPV4T44I2","3T5ZXGO9DEAUILU6S56NLENRQJRQZJ","","","","","","","","","","",""
"","image-keyboard-response","228","171269","0.0-238.0","3ERMJ6L4DZEMZGO28JCP246BCVG7MJ","A13MAWPV4T44I2","3T5ZXGO9DEAUILU6S56NLENRQJRQZJ","","805.5","img/food4.png","76","807.2999999523163","3","0","2","1,0.5,0,1,0.5,0,0.5,0,1","false",""
"","html-keyboard-response","229","171572","0.0-239.0","3ERMJ6L4DZEMZGO28JCP246BCVG7MJ","A13MAWPV4T44I2","3T5ZXGO9DEAUILU6S56NLENRQJRQZJ","","null","<img src=""img/food4.png"" style=""width:200px;border:14px solid red;"">","null","","","","","","",""
"","image-keyboard-response","230","172485","0.0-241.0","3ERMJ6L4DZEMZGO28JCP246BCVG7MJ","A13MAWPV4T44I2","3T5ZXGO9DEAUILU6S56NLENRQJRQZJ","","911","img/food6.png","74","913.6999998092651","1","1","1","1,0.5,0,1,0.5,0,0.5,0,1","false",""
"","html-keyboard-response","231","172789","0.0-242.0","3ERMJ6L4DZEMZGO28JCP246BCVG7MJ","A13MAWPV4T44I2","3T5ZXGO9DEAUILU6S56NLENRQJRQZJ","","null","<img src=""img/food6.png"" style=""width:200px; border:14px solid green;"">","null","","","","","","",""
"","image-keyboard-response","232","173589","0.0-244.0","3ERMJ6L4DZEMZGO28JCP246BCVG7MJ","A13MAWPV4T44I2","3T5ZXGO9DEAUILU6S56NLENRQJRQZJ","","798.5","img/food6.png","74","799.7000000476837","1","1","1","1,0.5,0,1,0.5,0,0.5,0,1","false",""
"","html-keyboard-response","233","173893","0.0-245.0","3ERMJ6L4DZEMZGO28JCP246BCVG7MJ","A13MAWPV4T44I2","3T5ZXGO9DEAUILU6S56NLENRQJRQZJ","","null","<img src=""img/food6.png"" style=""width:200px; border:14px solid green;"">","null","","","","","","",""
"","image-keyboard-response","234","174877","0.0-247.0","3ERMJ6L4DZEMZGO28JCP246BCVG7MJ","A13MAWPV4T44I2","3T5ZXGO9DEAUILU6S56NLENRQJRQZJ","","982.6000001430511","img/food2.png","75","983.8999998569489","2","0","3","1,0.5,0,1,0.5,0,0.5,0,1","false",""
"","html-keyboard-response","235","175180","0.0-248.0","3ERMJ6L4DZEMZGO28JCP246BCVG7MJ","A13MAWPV4T44I2","3T5ZXGO9DEAUILU6S56NLENRQJRQZJ","","null","<img src=""img/food2.png"" style=""width:200px;border:14px solid red;"">","null","","","","","","",""
"","image-keyboard-response","236","175973","0.0-250.0","3ERMJ6L4DZEMZGO28JCP246BCVG7MJ","A13MAWPV4T44I2","3T5ZXGO9DEAUILU6S56NLENRQJRQZJ","","791.5","img/food6.png","74","792.5","1","1","1","1,0.5,0,1,0.5,0,0.5,0,1","false",""
"","html-keyboard-response","237","176276","0.0-251.0","3ERMJ6L4DZEMZGO28JCP246BCVG7MJ","A13MAWPV4T44I2","3T5ZXGO9DEAUILU6S56NLENRQJRQZJ","","null","<img src=""img/food6.png"" style=""width:200px; border:14px solid green;"">","null","","","","","","",""
"","image-keyboard-response","238","176670","0.0-253.0","3ERMJ6L4DZEMZGO28JCP246BCVG7MJ","A13MAWPV4T44I2","3T5ZXGO9DEAUILU6S56NLENRQJRQZJ","","392.80000019073486","img/food4.png","74","393.90000009536743","1","1","2","1,0.5,0,1,0.5,0,0.5,0,1","false",""
"","html-keyboard-response","239","176974","0.0-254.0","3ERMJ6L4DZEMZGO28JCP246BCVG7MJ","A13MAWPV4T44I2","3T5ZXGO9DEAUILU6S56NLENRQJRQZJ","","null","<img src=""img/food4.png"" style=""width:200px; border:14px solid green;"">","null","","","","","","",""
"","image-keyboard-response","240","177748","0.0-256.0","3ERMJ6L4DZEMZGO28JCP246BCVG7MJ","A13MAWPV4T44I2","3T5ZXGO9DEAUILU6S56NLENRQJRQZJ","","773","img/food4.png","74","774.1999998092651","1","1","2","1,0.5,0,1,0.5,0,0.5,0,1","false",""
"","html-keyboard-response","241","178052","0.0-257.0","3ERMJ6L4DZEMZGO28JCP246BCVG7MJ","A13MAWPV4T44I2","3T5ZXGO9DEAUILU6S56NLENRQJRQZJ","","null","<img src=""img/food4.png"" style=""width:200px; border:14px solid green;"">","null","","","","","","",""
"","image-keyboard-response","242","178741","0.0-259.0","3ERMJ6L4DZEMZGO28JCP246BCVG7MJ","A13MAWPV4T44I2","3T5ZXGO9DEAUILU6S56NLENRQJRQZJ","","687.6000001430511","img/food4.png","74","689.0999999046326","1","1","2","1,0.5,0,1,0.5,0,0.5,0,1","false",""
"","html-keyboard-response","243","179044","0.0-260.0","3ERMJ6L4DZEMZGO28JCP246BCVG7MJ","A13MAWPV4T44I2","3T5ZXGO9DEAUILU6S56NLENRQJRQZJ","","null","<img src=""img/food4.png"" style=""width:200px; border:14px solid green;"">","null","","","","","","",""
"","image-keyboard-response","244","179469","0.0-262.0","3ERMJ6L4DZEMZGO28JCP246BCVG7MJ","A13MAWPV4T44I2","3T5ZXGO9DEAUILU6S56NLENRQJRQZJ","","423.5","img/food6.png","74","424.90000009536743","1","1","1","1,0.5,0,1,0.5,0,0.5,0,1","false",""
"","html-keyboard-response","245","179773","0.0-263.0","3ERMJ6L4DZEMZGO28JCP246BCVG7MJ","A13MAWPV4T44I2","3T5ZXGO9DEAUILU6S56NLENRQJRQZJ","","null","<img src=""img/food6.png"" style=""width:200px; border:14px solid green;"">","null","","","","","","",""
"","image-keyboard-response","246","180189","0.0-265.0","3ERMJ6L4DZEMZGO28JCP246BCVG7MJ","A13MAWPV4T44I2","3T5ZXGO9DEAUILU6S56NLENRQJRQZJ","","413.60000014305115","img/food2.png","74","415.60000014305115","1","0","3","1,0.5,0,1,0.5,0,0.5,0,1","false",""
"","html-keyboard-response","247","180493","0.0-266.0","3ERMJ6L4DZEMZGO28JCP246BCVG7MJ","A13MAWPV4T44I2","3T5ZXGO9DEAUILU6S56NLENRQJRQZJ","","null","<img src=""img/food2.png"" style=""width:200px;border:14px solid red;"">","null","","","","","","",""
"","image-keyboard-response","248","181165","0.0-268.0","3ERMJ6L4DZEMZGO28JCP246BCVG7MJ","A13MAWPV4T44I2","3T5ZXGO9DEAUILU6S56NLENRQJRQZJ","","670.0999999046326","img/food6.png","76","671.1999998092651","3","0","1","1,0.5,0,1,0.5,0,0.5,0,1","false",""
"","html-keyboard-response","249","181468","0.0-269.0","3ERMJ6L4DZEMZGO28JCP246BCVG7MJ","A13MAWPV4T44I2","3T5ZXGO9DEAUILU6S56NLENRQJRQZJ","","null","<img src=""img/food6.png"" style=""width:200px;border:14px solid red;"">","null","","","","","","",""
"","image-keyboard-response","250","181580","0.0-271.0","3ERMJ6L4DZEMZGO28JCP246BCVG7MJ","A13MAWPV4T44I2","3T5ZXGO9DEAUILU6S56NLENRQJRQZJ","","110.80000019073486","img/food6.png","74","112.5","1","1","1","1,0.5,0,1,0.5,0,0.5,0,1","false",""
"","html-keyboard-response","251","181883","0.0-272.0","3ERMJ6L4DZEMZGO28JCP246BCVG7MJ","A13MAWPV4T44I2","3T5ZXGO9DEAUILU6S56NLENRQJRQZJ","","null","<img src=""img/food6.png"" style=""width:200px; border:14px solid green;"">","null","","","","","","",""
"","image-keyboard-response","252","182590","0.0-274.0","3ERMJ6L4DZEMZGO28JCP246BCVG7MJ","A13MAWPV4T44I2","3T5ZXGO9DEAUILU6S56NLENRQJRQZJ","","705","img/food2.png","74","706","1","0","3","1,0.5,0,1,0.5,0,0.5,0,1","false",""
"","html-keyboard-response","253","182893","0.0-275.0","3ERMJ6L4DZEMZGO28JCP246BCVG7MJ","A13MAWPV4T44I2","3T5ZXGO9DEAUILU6S56NLENRQJRQZJ","","null","<img src=""img/food2.png"" style=""width:200px;border:14px solid red;"">","null","","","","","","",""
"","image-keyboard-response","254","183789","0.0-277.0","3ERMJ6L4DZEMZGO28JCP246BCVG7MJ","A13MAWPV4T44I2","3T5ZXGO9DEAUILU6S56NLENRQJRQZJ","","894.2000000476837","img/food4.png","74","895.4000000953674","1","1","2","1,0.5,0,1,0.5,0,0.5,0,1","false",""
"","html-keyboard-response","255","184092","0.0-278.0","3ERMJ6L4DZEMZGO28JCP246BCVG7MJ","A13MAWPV4T44I2","3T5ZXGO9DEAUILU6S56NLENRQJRQZJ","","null","<img src=""img/food4.png"" style=""width:200px; border:14px solid green;"">","null","","","","","","",""
"","image-keyboard-response","256","184908","0.0-280.0","3ERMJ6L4DZEMZGO28JCP246BCVG7MJ","A13MAWPV4T44I2","3T5ZXGO9DEAUILU6S56NLENRQJRQZJ","","814.9000000953674","img/food2.png","74","815.9000000953674","1","1","3","1,0.5,0,1,0.5,0,0.5,0,1","false",""
"","html-keyboard-response","257","185210","0.0-281.0","3ERMJ6L4DZEMZGO28JCP246BCVG7MJ","A13MAWPV4T44I2","3T5ZXGO9DEAUILU6S56NLENRQJRQZJ","","null","<img src=""img/food2.png"" style=""width:200px; border:14px solid green;"">","null","","","","","","",""
"","image-keyboard-response","258","186085","0.0-283.0","3ERMJ6L4DZEMZGO28JCP246BCVG7MJ","A13MAWPV4T44I2","3T5ZXGO9DEAUILU6S56NLENRQJRQZJ","","873.1000001430511","img/food6.png","74","874.0999999046326","1","1","1","1,0.5,0,1,0.5,0,0.5,0,1","false",""
"","html-keyboard-response","259","186386","0.0-284.0","3ERMJ6L4DZEMZGO28JCP246BCVG7MJ","A13MAWPV4T44I2","3T5ZXGO9DEAUILU6S56NLENRQJRQZJ","","null","<img src=""img/food6.png"" style=""width:200px; border:14px solid green;"">","null","","","","","","",""
"","image-keyboard-response","260","187324","0.0-286.0","3ERMJ6L4DZEMZGO28JCP246BCVG7MJ","A13MAWPV4T44I2","3T5ZXGO9DEAUILU6S56NLENRQJRQZJ","","936.5","img/food2.png","74","937.7000000476837","1","0","3","1,0.5,0,1,0.5,0,0.5,0,1","false",""
"","html-keyboard-response","261","187627","0.0-287.0","3ERMJ6L4DZEMZGO28JCP246BCVG7MJ","A13MAWPV4T44I2","3T5ZXGO9DEAUILU6S56NLENRQJRQZJ","","null","<img src=""img/food2.png"" style=""width:200px;border:14px solid red;"">","null","","","","","","",""
"","image-keyboard-response","262","188437","0.0-289.0","3ERMJ6L4DZEMZGO28JCP246BCVG7MJ","A13MAWPV4T44I2","3T5ZXGO9DEAUILU6S56NLENRQJRQZJ","","808.5","img/food6.png","74","809.7999999523163","1","1","1","1,0.5,0,1,0.5,0,0.5,0,1","false",""
"","html-keyboard-response","263","188740","0.0-290.0","3ERMJ6L4DZEMZGO28JCP246BCVG7MJ","A13MAWPV4T44I2","3T5ZXGO9DEAUILU6S56NLENRQJRQZJ","","null","<img src=""img/food6.png"" style=""width:200px; border:14px solid green;"">","null","","","","","","",""
"","image-keyboard-response","264","189469","0.0-292.0","3ERMJ6L4DZEMZGO28JCP246BCVG7MJ","A13MAWPV4T44I2","3T5ZXGO9DEAUILU6S56NLENRQJRQZJ","","726.3000001907349","img/food6.png","74","728.5","1","1","1","1,0.5,0,1,0.5,0,0.5,0,1","false",""
"","html-keyboard-response","265","189772","0.0-293.0","3ERMJ6L4DZEMZGO28JCP246BCVG7MJ","A13MAWPV4T44I2","3T5ZXGO9DEAUILU6S56NLENRQJRQZJ","","null","<img src=""img/food6.png"" style=""width:200px; border:14px solid green;"">","null","","","","","","",""
"","image-keyboard-response","266","190774","0.0-295.0","3ERMJ6L4DZEMZGO28JCP246BCVG7MJ","A13MAWPV4T44I2","3T5ZXGO9DEAUILU6S56NLENRQJRQZJ","","","img/food4.png","","1002.0999999046326","-1","0","2","1,0.5,0,1,0.5,0,0.5,0,1","true",""
"","html-keyboard-response","267","191077","0.0-296.0","3ERMJ6L4DZEMZGO28JCP246BCVG7MJ","A13MAWPV4T44I2","3T5ZXGO9DEAUILU6S56NLENRQJRQZJ","","null","<img src=""img/food4.png"" style=""width:200px;border:14px solid red;"">","null","","","","","","",""
"","html-keyboard-response","268","193005","0.0-297.0-0.0","3ERMJ6L4DZEMZGO28JCP246BCVG7MJ","A13MAWPV4T44I2","3T5ZXGO9DEAUILU6S56NLENRQJRQZJ","","","","","","","","","","",""
"","image-keyboard-response","269","194008","0.0-298.0","3ERMJ6L4DZEMZGO28JCP246BCVG7MJ","A13MAWPV4T44I2","3T5ZXGO9DEAUILU6S56NLENRQJRQZJ","","","img/food4.png","","1003.1000001430511","-1","0","2","1,0.5,0,1,0.5,0,0.5,0,1","true",""
"","html-keyboard-response","270","194311","0.0-299.0","3ERMJ6L4DZEMZGO28JCP246BCVG7MJ","A13MAWPV4T44I2","3T5ZXGO9DEAUILU6S56NLENRQJRQZJ","","null","<img src=""img/food4.png"" style=""width:200px;border:14px solid red;"">","null","","","","","","",""
"","html-keyboard-response","271","195558","0.0-300.0-0.0","3ERMJ6L4DZEMZGO28JCP246BCVG7MJ","A13MAWPV4T44I2","3T5ZXGO9DEAUILU6S56NLENRQJRQZJ","","","","","","","","","","",""
"","image-keyboard-response","272","196561","0.0-301.0","3ERMJ6L4DZEMZGO28JCP246BCVG7MJ","A13MAWPV4T44I2","3T5ZXGO9DEAUILU6S56NLENRQJRQZJ","","","img/food4.png","","1002.6999998092651","-1","0","2","1,0.5,0,1,0.5,0,0.5,0,1","true",""
"","html-keyboard-response","273","196863","0.0-302.0","3ERMJ6L4DZEMZGO28JCP246BCVG7MJ","A13MAWPV4T44I2","3T5ZXGO9DEAUILU6S56NLENRQJRQZJ","","null","<img src=""img/food4.png"" style=""width:200px;border:14px solid red;"">","null","","","","","","",""
"","html-keyboard-response","274","197972","0.0-303.0-0.0","3ERMJ6L4DZEMZGO28JCP246BCVG7MJ","A13MAWPV4T44I2","3T5ZXGO9DEAUILU6S56NLENRQJRQZJ","","","","","","","","","","",""
"","image-keyboard-response","275","198837","0.0-304.0","3ERMJ6L4DZEMZGO28JCP246BCVG7MJ","A13MAWPV4T44I2","3T5ZXGO9DEAUILU6S56NLENRQJRQZJ","","863.2000000476837","img/food4.png","75","864.5","2","0","2","1,0.5,0,1,0.5,0,0.5,0,1","false",""
"","html-keyboard-response","276","199140","0.0-305.0","3ERMJ6L4DZEMZGO28JCP246BCVG7MJ","A13MAWPV4T44I2","3T5ZXGO9DEAUILU6S56NLENRQJRQZJ","","null","<img src=""img/food4.png"" style=""width:200px;border:14px solid red;"">","null","","","","","","",""
"","image-keyboard-response","277","199964","0.0-307.0","3ERMJ6L4DZEMZGO28JCP246BCVG7MJ","A13MAWPV4T44I2","3T5ZXGO9DEAUILU6S56NLENRQJRQZJ","","823.3999998569489","img/food4.png","76","824.2000000476837","3","0","2","1,0.5,0,1,0.5,0,0.5,0,1","false",""
"","html-keyboard-response","278","200267","0.0-308.0","3ERMJ6L4DZEMZGO28JCP246BCVG7MJ","A13MAWPV4T44I2","3T5ZXGO9DEAUILU6S56NLENRQJRQZJ","","null","<img src=""img/food4.png"" style=""width:200px;border:14px solid red;"">","null","","","","","","",""
"","image-keyboard-response","279","200916","0.0-310.0","3ERMJ6L4DZEMZGO28JCP246BCVG7MJ","A13MAWPV4T44I2","3T5ZXGO9DEAUILU6S56NLENRQJRQZJ","","647.8999998569489","img/food2.png","74","648.9000000953674","1","0","3","1,0.5,0,1,0.5,0,0.5,0,1","false",""
"","html-keyboard-response","280","201219","0.0-311.0","3ERMJ6L4DZEMZGO28JCP246BCVG7MJ","A13MAWPV4T44I2","3T5ZXGO9DEAUILU6S56NLENRQJRQZJ","","null","<img src=""img/food2.png"" style=""width:200px;border:14px solid red;"">","null","","","","","","",""
"","image-keyboard-response","281","202196","0.0-313.0","3ERMJ6L4DZEMZGO28JCP246BCVG7MJ","A13MAWPV4T44I2","3T5ZXGO9DEAUILU6S56NLENRQJRQZJ","","975.2999999523163","img/food6.png","74","976.5","1","1","1","1,0.5,0,1,0.5,0,0.5,0,1","false",""
"","html-keyboard-response","282","202498","0.0-314.0","3ERMJ6L4DZEMZGO28JCP246BCVG7MJ","A13MAWPV4T44I2","3T5ZXGO9DEAUILU6S56NLENRQJRQZJ","","null","<img src=""img/food6.png"" style=""width:200px; border:14px solid green;"">","null","","","","","","",""
"","image-keyboard-response","283","203500","0.0-316.0","3ERMJ6L4DZEMZGO28JCP246BCVG7MJ","A13MAWPV4T44I2","3T5ZXGO9DEAUILU6S56NLENRQJRQZJ","","","img/food2.png","","1002.5","-1","0","3","1,0.5,0,1,0.5,0,0.5,0,1","true",""
"","html-keyboard-response","284","203803","0.0-317.0","3ERMJ6L4DZEMZGO28JCP246BCVG7MJ","A13MAWPV4T44I2","3T5ZXGO9DEAUILU6S56NLENRQJRQZJ","","null","<img src=""img/food2.png"" style=""width:200px;border:14px solid red;"">","null","","","","","","",""
"","html-keyboard-response","285","204909","0.0-318.0-0.0","3ERMJ6L4DZEMZGO28JCP246BCVG7MJ","A13MAWPV4T44I2","3T5ZXGO9DEAUILU6S56NLENRQJRQZJ","","","","","","","","","","",""
"","image-keyboard-response","286","205912","0.0-319.0","3ERMJ6L4DZEMZGO28JCP246BCVG7MJ","A13MAWPV4T44I2","3T5ZXGO9DEAUILU6S56NLENRQJRQZJ","","","img/food2.png","","1003.7000000476837","-1","0","3","1,0.5,0,1,0.5,0,0.5,0,1","true",""
"","html-keyboard-response","287","206216","0.0-320.0","3ERMJ6L4DZEMZGO28JCP246BCVG7MJ","A13MAWPV4T44I2","3T5ZXGO9DEAUILU6S56NLENRQJRQZJ","","null","<img src=""img/food2.png"" style=""width:200px;border:14px solid red;"">","null","","","","","","",""
"","html-keyboard-response","288","207757","0.0-321.0-0.0","3ERMJ6L4DZEMZGO28JCP246BCVG7MJ","A13MAWPV4T44I2","3T5ZXGO9DEAUILU6S56NLENRQJRQZJ","","","","","","","","","","",""
"","image-keyboard-response","289","208760","0.0-322.0","3ERMJ6L4DZEMZGO28JCP246BCVG7MJ","A13MAWPV4T44I2","3T5ZXGO9DEAUILU6S56NLENRQJRQZJ","","","img/food4.png","","1003.1999998092651","-1","0","2","1,0.5,0,1,0.5,0,0.5,0,1","true",""
"","html-keyboard-response","290","209063","0.0-323.0","3ERMJ6L4DZEMZGO28JCP246BCVG7MJ","A13MAWPV4T44I2","3T5ZXGO9DEAUILU6S56NLENRQJRQZJ","","null","<img src=""img/food4.png"" style=""width:200px;border:14px solid red;"">","null","","","","","","",""
"","html-keyboard-response","291","210038","0.0-324.0-0.0","3ERMJ6L4DZEMZGO28JCP246BCVG7MJ","A13MAWPV4T44I2","3T5ZXGO9DEAUILU6S56NLENRQJRQZJ","","","","","","","","","","",""
"","image-keyboard-response","292","210853","0.0-325.0","3ERMJ6L4DZEMZGO28JCP246BCVG7MJ","A13MAWPV4T44I2","3T5ZXGO9DEAUILU6S56NLENRQJRQZJ","","813.6000001430511","img/food4.png","74","815.3999998569489","1","1","2","1,0.5,0,1,0.5,0,0.5,0,1","false",""
"","html-keyboard-response","293","211156","0.0-326.0","3ERMJ6L4DZEMZGO28JCP246BCVG7MJ","A13MAWPV4T44I2","3T5ZXGO9DEAUILU6S56NLENRQJRQZJ","","null","<img src=""img/food4.png"" style=""width:200px; border:14px solid green;"">","null","","","","","","",""
"","image-keyboard-response","294","211981","0.0-328.0","3ERMJ6L4DZEMZGO28JCP246BCVG7MJ","A13MAWPV4T44I2","3T5ZXGO9DEAUILU6S56NLENRQJRQZJ","","822.4000000953674","img/food6.png","74","824.1000001430511","1","1","1","1,0.5,0,1,0.5,0,0.5,0,1","false",""
"","html-keyboard-response","295","212284","0.0-329.0","3ERMJ6L4DZEMZGO28JCP246BCVG7MJ","A13MAWPV4T44I2","3T5ZXGO9DEAUILU6S56NLENRQJRQZJ","","null","<img src=""img/food6.png"" style=""width:200px; border:14px solid green;"">","null","","","","","","",""
"","image-keyboard-response","296","212997","0.0-331.0","3ERMJ6L4DZEMZGO28JCP246BCVG7MJ","A13MAWPV4T44I2","3T5ZXGO9DEAUILU6S56NLENRQJRQZJ","","711.4000000953674","img/food6.png","74","712.6999998092651","1","1","1","1,0.5,0,1,0.5,0,0.5,0,1","false",""
"","html-keyboard-response","297","213298","0.0-332.0","3ERMJ6L4DZEMZGO28JCP246BCVG7MJ","A13MAWPV4T44I2","3T5ZXGO9DEAUILU6S56NLENRQJRQZJ","","null","<img src=""img/food6.png"" style=""width:200px; border:14px solid green;"">","null","","","","","","",""
"","image-keyboard-response","298","214021","0.0-334.0","3ERMJ6L4DZEMZGO28JCP246BCVG7MJ","A13MAWPV4T44I2","3T5ZXGO9DEAUILU6S56NLENRQJRQZJ","","721.5","img/food6.png","74","722.7999999523163","1","1","1","1,0.5,0,1,0.5,0,0.5,0,1","false",""
"","html-keyboard-response","299","214325","0.0-335.0","3ERMJ6L4DZEMZGO28JCP246BCVG7MJ","A13MAWPV4T44I2","3T5ZXGO9DEAUILU6S56NLENRQJRQZJ","","null","<img src=""img/food6.png"" style=""width:200px; border:14px solid green;"">","null","","","","","","",""
"","image-keyboard-response","300","215205","0.0-337.0","3ERMJ6L4DZEMZGO28JCP246BCVG7MJ","A13MAWPV4T44I2","3T5ZXGO9DEAUILU6S56NLENRQJRQZJ","","878.5","img/food4.png","74","879.8000001907349","1","1","2","1,0.5,0,1,0.5,0,0.5,0,1","false",""
"","html-keyboard-response","301","215508","0.0-338.0","3ERMJ6L4DZEMZGO28JCP246BCVG7MJ","A13MAWPV4T44I2","3T5ZXGO9DEAUILU6S56NLENRQJRQZJ","","null","<img src=""img/food4.png"" style=""width:200px; border:14px solid green;"">","null","","","","","","",""
"","image-keyboard-response","302","216512","0.0-340.0","3ERMJ6L4DZEMZGO28JCP246BCVG7MJ","A13MAWPV4T44I2","3T5ZXGO9DEAUILU6S56NLENRQJRQZJ","","","img/food2.png","","1003.2999999523163","-1","0","3","1,0.5,0,1,0.5,0,0.5,0,1","true",""
"","html-keyboard-response","303","216814","0.0-341.0","3ERMJ6L4DZEMZGO28JCP246BCVG7MJ","A13MAWPV4T44I2","3T5ZXGO9DEAUILU6S56NLENRQJRQZJ","","null","<img src=""img/food2.png"" style=""width:200px;border:14px solid red;"">","null","","","","","","",""
"","html-keyboard-response","304","217838","0.0-342.0-0.0","3ERMJ6L4DZEMZGO28JCP246BCVG7MJ","A13MAWPV4T44I2","3T5ZXGO9DEAUILU6S56NLENRQJRQZJ","","","","","","","","","","",""
"","image-keyboard-response","305","218685","0.0-343.0","3ERMJ6L4DZEMZGO28JCP246BCVG7MJ","A13MAWPV4T44I2","3T5ZXGO9DEAUILU6S56NLENRQJRQZJ","","844.2000000476837","img/food2.png","74","846.2999999523163","1","1","3","1,0.5,0,1,0.5,0,0.5,0,1","false",""
"","html-keyboard-response","306","218988","0.0-344.0","3ERMJ6L4DZEMZGO28JCP246BCVG7MJ","A13MAWPV4T44I2","3T5ZXGO9DEAUILU6S56NLENRQJRQZJ","","null","<img src=""img/food2.png"" style=""width:200px; border:14px solid green;"">","null","","","","","","",""
"","image-keyboard-response","307","219629","0.0-346.0","3ERMJ6L4DZEMZGO28JCP246BCVG7MJ","A13MAWPV4T44I2","3T5ZXGO9DEAUILU6S56NLENRQJRQZJ","","639.9000000953674","img/food4.png","74","641.3999998569489","1","1","2","1,0.5,0,1,0.5,0,0.5,0,1","false",""
"","html-keyboard-response","308","219932","0.0-347.0","3ERMJ6L4DZEMZGO28JCP246BCVG7MJ","A13MAWPV4T44I2","3T5ZXGO9DEAUILU6S56NLENRQJRQZJ","","null","<img src=""img/food4.png"" style=""width:200px; border:14px solid green;"">","null","","","","","","",""
"","image-keyboard-response","309","220333","0.0-349.0","3ERMJ6L4DZEMZGO28JCP246BCVG7MJ","A13MAWPV4T44I2","3T5ZXGO9DEAUILU6S56NLENRQJRQZJ","","398.89999985694885","img/food4.png","74","400.09999990463257","1","1","2","1,0.5,0,1,0.5,0,0.5,0,1","false",""
"","html-keyboard-response","310","220635","0.0-350.0","3ERMJ6L4DZEMZGO28JCP246BCVG7MJ","A13MAWPV4T44I2","3T5ZXGO9DEAUILU6S56NLENRQJRQZJ","","null","<img src=""img/food4.png"" style=""width:200px; border:14px solid green;"">","null","","","","","","",""
"","image-keyboard-response","311","221141","0.0-352.0","3ERMJ6L4DZEMZGO28JCP246BCVG7MJ","A13MAWPV4T44I2","3T5ZXGO9DEAUILU6S56NLENRQJRQZJ","","504.5","img/food6.png","74","505.40000009536743","1","1","1","1,0.5,0,1,0.5,0,0.5,0,1","false",""
"","html-keyboard-response","312","221444","0.0-353.0","3ERMJ6L4DZEMZGO28JCP246BCVG7MJ","A13MAWPV4T44I2","3T5ZXGO9DEAUILU6S56NLENRQJRQZJ","","null","<img src=""img/food6.png"" style=""width:200px; border:14px solid green;"">","null","","","","","","",""
"","image-keyboard-response","313","221836","0.0-355.0","3ERMJ6L4DZEMZGO28JCP246BCVG7MJ","A13MAWPV4T44I2","3T5ZXGO9DEAUILU6S56NLENRQJRQZJ","","390.60000014305115","img/food2.png","74","392","1","0","3","1,0.5,0,1,0.5,0,0.5,0,1","false",""
"","html-keyboard-response","314","222139","0.0-356.0","3ERMJ6L4DZEMZGO28JCP246BCVG7MJ","A13MAWPV4T44I2","3T5ZXGO9DEAUILU6S56NLENRQJRQZJ","","null","<img src=""img/food2.png"" style=""width:200px;border:14px solid red;"">","null","","","","","","",""
"","image-keyboard-response","315","222526","0.0-358.0","3ERMJ6L4DZEMZGO28JCP246BCVG7MJ","A13MAWPV4T44I2","3T5ZXGO9DEAUILU6S56NLENRQJRQZJ","","385.7000000476837","img/food4.png","74","386.7999999523163","1","1","2","1,0.5,0,1,0.5,0,0.5,0,1","false",""
"","html-keyboard-response","316","222830","0.0-359.0","3ERMJ6L4DZEMZGO28JCP246BCVG7MJ","A13MAWPV4T44I2","3T5ZXGO9DEAUILU6S56NLENRQJRQZJ","","null","<img src=""img/food4.png"" style=""width:200px; border:14px solid green;"">","null","","","","","","",""
"","image-keyboard-response","317","223198","0.0-361.0","3ERMJ6L4DZEMZGO28JCP246BCVG7MJ","A13MAWPV4T44I2","3T5ZXGO9DEAUILU6S56NLENRQJRQZJ","","366.7999999523163","img/food6.png","74","367.7999999523163","1","1","1","1,0.5,0,1,0.5,0,0.5,0,1","false",""
"","html-keyboard-response","318","223500","0.0-362.0","3ERMJ6L4DZEMZGO28JCP246BCVG7MJ","A13MAWPV4T44I2","3T5ZXGO9DEAUILU6S56NLENRQJRQZJ","","null","<img src=""img/food6.png"" style=""width:200px; border:14px solid green;"">","null","","","","","","",""
"","image-keyboard-response","319","223903","0.0-364.0","3ERMJ6L4DZEMZGO28JCP246BCVG7MJ","A13MAWPV4T44I2","3T5ZXGO9DEAUILU6S56NLENRQJRQZJ","","401.7999999523163","img/food4.png","74","402.90000009536743","1","1","2","1,0.5,0,1,0.5,0,0.5,0,1","false",""
"","html-keyboard-response","320","224206","0.0-365.0","3ERMJ6L4DZEMZGO28JCP246BCVG7MJ","A13MAWPV4T44I2","3T5ZXGO9DEAUILU6S56NLENRQJRQZJ","","null","<img src=""img/food4.png"" style=""width:200px; border:14px solid green;"">","null","","","","","","",""
"","image-keyboard-response","321","224598","0.0-367.0","3ERMJ6L4DZEMZGO28JCP246BCVG7MJ","A13MAWPV4T44I2","3T5ZXGO9DEAUILU6S56NLENRQJRQZJ","","390.5","img/food2.png","74","391.39999985694885","1","1","3","1,0.5,0,1,0.5,0,0.5,0,1","false",""
"","html-keyboard-response","322","224901","0.0-368.0","3ERMJ6L4DZEMZGO28JCP246BCVG7MJ","A13MAWPV4T44I2","3T5ZXGO9DEAUILU6S56NLENRQJRQZJ","","null","<img src=""img/food2.png"" style=""width:200px; border:14px solid green;"">","null","","","","","","",""
"","image-keyboard-response","323","225270","0.0-370.0","3ERMJ6L4DZEMZGO28JCP246BCVG7MJ","A13MAWPV4T44I2","3T5ZXGO9DEAUILU6S56NLENRQJRQZJ","","368","img/food2.png","74","369.2000000476837","1","1","3","1,0.5,0,1,0.5,0,0.5,0,1","false",""
"","html-keyboard-response","324","225574","0.0-371.0","3ERMJ6L4DZEMZGO28JCP246BCVG7MJ","A13MAWPV4T44I2","3T5ZXGO9DEAUILU6S56NLENRQJRQZJ","","null","<img src=""img/food2.png"" style=""width:200px; border:14px solid green;"">","null","","","","","","",""
"","image-keyboard-response","325","225926","0.0-373.0","3ERMJ6L4DZEMZGO28JCP246BCVG7MJ","A13MAWPV4T44I2","3T5ZXGO9DEAUILU6S56NLENRQJRQZJ","","349.69999980926514","img/food4.png","74","351.2000000476837","1","1","2","1,0.5,0,1,0.5,0,0.5,0,1","false",""
"","html-keyboard-response","326","226229","0.0-374.0","3ERMJ6L4DZEMZGO28JCP246BCVG7MJ","A13MAWPV4T44I2","3T5ZXGO9DEAUILU6S56NLENRQJRQZJ","","null","<img src=""img/food4.png"" style=""width:200px; border:14px solid green;"">","null","","","","","","",""
"","image-keyboard-response","327","226518","0.0-376.0","3ERMJ6L4DZEMZGO28JCP246BCVG7MJ","A13MAWPV4T44I2","3T5ZXGO9DEAUILU6S56NLENRQJRQZJ","","286.69999980926514","img/food4.png","74","288.60000014305115","1","1","2","1,0.5,0,1,0.5,0,0.5,0,1","false",""
"","html-keyboard-response","328","226821","0.0-377.0","3ERMJ6L4DZEMZGO28JCP246BCVG7MJ","A13MAWPV4T44I2","3T5ZXGO9DEAUILU6S56NLENRQJRQZJ","","null","<img src=""img/food4.png"" style=""width:200px; border:14px solid green;"">","null","","","","","","",""
"","image-keyboard-response","329","227182","0.0-379.0","3ERMJ6L4DZEMZGO28JCP246BCVG7MJ","A13MAWPV4T44I2","3T5ZXGO9DEAUILU6S56NLENRQJRQZJ","","359.39999985694885","img/food4.png","74","360.09999990463257","1","1","2","1,0.5,0,1,0.5,0,0.5,0,1","false",""
"","html-keyboard-response","330","227484","0.0-380.0","3ERMJ6L4DZEMZGO28JCP246BCVG7MJ","A13MAWPV4T44I2","3T5ZXGO9DEAUILU6S56NLENRQJRQZJ","","null","<img src=""img/food4.png"" style=""width:200px; border:14px solid green;"">","null","","","","","","",""
"","image-keyboard-response","331","227806","0.0-382.0","3ERMJ6L4DZEMZGO28JCP246BCVG7MJ","A13MAWPV4T44I2","3T5ZXGO9DEAUILU6S56NLENRQJRQZJ","","319.90000009536743","img/food2.png","74","321","1","0","3","1,0.5,0,1,0.5,0,0.5,0,1","false",""
"","html-keyboard-response","332","228108","0.0-383.0","3ERMJ6L4DZEMZGO28JCP246BCVG7MJ","A13MAWPV4T44I2","3T5ZXGO9DEAUILU6S56NLENRQJRQZJ","","null","<img src=""img/food2.png"" style=""width:200px;border:14px solid red;"">","null","","","","","","",""
"","image-keyboard-response","333","228382","0.0-385.0","3ERMJ6L4DZEMZGO28JCP246BCVG7MJ","A13MAWPV4T44I2","3T5ZXGO9DEAUILU6S56NLENRQJRQZJ","","272.90000009536743","img/food6.png","74","273.90000009536743","1","1","1","1,0.5,0,1,0.5,0,0.5,0,1","false",""
"","html-keyboard-response","334","228685","0.0-386.0","3ERMJ6L4DZEMZGO28JCP246BCVG7MJ","A13MAWPV4T44I2","3T5ZXGO9DEAUILU6S56NLENRQJRQZJ","","null","<img src=""img/food6.png"" style=""width:200px; border:14px solid green;"">","null","","","","","","",""
"","image-keyboard-response","335","228998","0.0-388.0","3ERMJ6L4DZEMZGO28JCP246BCVG7MJ","A13MAWPV4T44I2","3T5ZXGO9DEAUILU6S56NLENRQJRQZJ","","310.60000014305115","img/food4.png","74","312.09999990463257","1","1","2","1,0.5,0,1,0.5,0,0.5,0,1","false",""
"","html-keyboard-response","336","229300","0.0-389.0","3ERMJ6L4DZEMZGO28JCP246BCVG7MJ","A13MAWPV4T44I2","3T5ZXGO9DEAUILU6S56NLENRQJRQZJ","","null","<img src=""img/food4.png"" style=""width:200px; border:14px solid green;"">","null","","","","","","",""
"","image-keyboard-response","337","229527","0.0-391.0","3ERMJ6L4DZEMZGO28JCP246BCVG7MJ","A13MAWPV4T44I2","3T5ZXGO9DEAUILU6S56NLENRQJRQZJ","","225.20000004768372","img/food4.png","74","226.20000004768372","1","1","2","1,0.5,0,1,0.5,0,0.5,0,1","false",""
"","html-keyboard-response","338","229829","0.0-392.0","3ERMJ6L4DZEMZGO28JCP246BCVG7MJ","A13MAWPV4T44I2","3T5ZXGO9DEAUILU6S56NLENRQJRQZJ","","null","<img src=""img/food4.png"" style=""width:200px; border:14px solid green;"">","null","","","","","","",""
"","image-keyboard-response","339","230069","0.0-394.0","3ERMJ6L4DZEMZGO28JCP246BCVG7MJ","A13MAWPV4T44I2","3T5ZXGO9DEAUILU6S56NLENRQJRQZJ","","238.79999995231628","img/food6.png","74","239.90000009536743","1","1","1","1,0.5,0,1,0.5,0,0.5,0,1","false",""
"","html-keyboard-response","340","230372","0.0-395.0","3ERMJ6L4DZEMZGO28JCP246BCVG7MJ","A13MAWPV4T44I2","3T5ZXGO9DEAUILU6S56NLENRQJRQZJ","","null","<img src=""img/food6.png"" style=""width:200px; border:14px solid green;"">","null","","","","","","",""
"","image-keyboard-response","341","230670","0.0-397.0","3ERMJ6L4DZEMZGO28JCP246BCVG7MJ","A13MAWPV4T44I2","3T5ZXGO9DEAUILU6S56NLENRQJRQZJ","","296.5","img/food2.png","74","297.5","1","1","3","1,0.5,0,1,0.5,0,0.5,0,1","false",""
"","html-keyboard-response","342","230972","0.0-398.0","3ERMJ6L4DZEMZGO28JCP246BCVG7MJ","A13MAWPV4T44I2","3T5ZXGO9DEAUILU6S56NLENRQJRQZJ","","null","<img src=""img/food2.png"" style=""width:200px; border:14px solid green;"">","null","","","","","","",""
"","image-keyboard-response","343","231182","0.0-400.0","3ERMJ6L4DZEMZGO28JCP246BCVG7MJ","A13MAWPV4T44I2","3T5ZXGO9DEAUILU6S56NLENRQJRQZJ","","208.70000004768372","img/food4.png","74","209.5","1","1","2","1,0.5,0,1,0.5,0,0.5,0,1","false",""
"","html-keyboard-response","344","231484","0.0-401.0","3ERMJ6L4DZEMZGO28JCP246BCVG7MJ","A13MAWPV4T44I2","3T5ZXGO9DEAUILU6S56NLENRQJRQZJ","","null","<img src=""img/food4.png"" style=""width:200px; border:14px solid green;"">","null","","","","","","",""
"","image-keyboard-response","345","231766","0.0-403.0","3ERMJ6L4DZEMZGO28JCP246BCVG7MJ","A13MAWPV4T44I2","3T5ZXGO9DEAUILU6S56NLENRQJRQZJ","","280.40000009536743","img/food2.png","74","281.59999990463257","1","0","3","1,0.5,0,1,0.5,0,0.5,0,1","false",""
"","html-keyboard-response","346","232069","0.0-404.0","3ERMJ6L4DZEMZGO28JCP246BCVG7MJ","A13MAWPV4T44I2","3T5ZXGO9DEAUILU6S56NLENRQJRQZJ","","null","<img src=""img/food2.png"" style=""width:200px;border:14px solid red;"">","null","","","","","","",""
"","image-keyboard-response","347","232302","0.0-406.0","3ERMJ6L4DZEMZGO28JCP246BCVG7MJ","A13MAWPV4T44I2","3T5ZXGO9DEAUILU6S56NLENRQJRQZJ","","231.90000009536743","img/food2.png","74","232.90000009536743","1","1","3","1,0.5,0,1,0.5,0,0.5,0,1","false",""
"","html-keyboard-response","348","232605","0.0-407.0","3ERMJ6L4DZEMZGO28JCP246BCVG7MJ","A13MAWPV4T44I2","3T5ZXGO9DEAUILU6S56NLENRQJRQZJ","","null","<img src=""img/food2.png"" style=""width:200px; border:14px solid green;"">","null","","","","","","",""
"","image-keyboard-response","349","232808","0.0-409.0","3ERMJ6L4DZEMZGO28JCP246BCVG7MJ","A13MAWPV4T44I2","3T5ZXGO9DEAUILU6S56NLENRQJRQZJ","","201.40000009536743","img/food2.png","74","202.79999995231628","1","0","3","1,0.5,0,1,0.5,0,0.5,0,1","false",""
"","html-keyboard-response","350","233111","0.0-410.0","3ERMJ6L4DZEMZGO28JCP246BCVG7MJ","A13MAWPV4T44I2","3T5ZXGO9DEAUILU6S56NLENRQJRQZJ","","null","<img src=""img/food2.png"" style=""width:200px;border:14px solid red;"">","null","","","","","","",""
"","image-keyboard-response","351","233310","0.0-412.0","3ERMJ6L4DZEMZGO28JCP246BCVG7MJ","A13MAWPV4T44I2","3T5ZXGO9DEAUILU6S56NLENRQJRQZJ","","197.19999980926514","img/food6.png","74","198.40000009536743","1","1","1","1,0.5,0,1,0.5,0,0.5,0,1","false",""
"","html-keyboard-response","352","233613","0.0-413.0","3ERMJ6L4DZEMZGO28JCP246BCVG7MJ","A13MAWPV4T44I2","3T5ZXGO9DEAUILU6S56NLENRQJRQZJ","","null","<img src=""img/food6.png"" style=""width:200px; border:14px solid green;"">","null","","","","","","",""
"","image-keyboard-response","353","233959","0.0-415.0","3ERMJ6L4DZEMZGO28JCP246BCVG7MJ","A13MAWPV4T44I2","3T5ZXGO9DEAUILU6S56NLENRQJRQZJ","","343.90000009536743","img/food6.png","74","345.09999990463257","1","1","1","1,0.5,0,1,0.5,0,0.5,0,1","false",""
"","html-keyboard-response","354","234261","0.0-416.0","3ERMJ6L4DZEMZGO28JCP246BCVG7MJ","A13MAWPV4T44I2","3T5ZXGO9DEAUILU6S56NLENRQJRQZJ","","null","<img src=""img/food6.png"" style=""width:200px; border:14px solid green;"">","null","","","","","","",""
"","image-keyboard-response","355","234464","0.0-418.0","3ERMJ6L4DZEMZGO28JCP246BCVG7MJ","A13MAWPV4T44I2","3T5ZXGO9DEAUILU6S56NLENRQJRQZJ","","201.40000009536743","img/food4.png","74","202.5","1","1","2","1,0.5,0,1,0.5,0,0.5,0,1","false",""
"","html-keyboard-response","356","234767","0.0-419.0","3ERMJ6L4DZEMZGO28JCP246BCVG7MJ","A13MAWPV4T44I2","3T5ZXGO9DEAUILU6S56NLENRQJRQZJ","","null","<img src=""img/food4.png"" style=""width:200px; border:14px solid green;"">","null","","","","","","",""
"","image-keyboard-response","357","234983","0.0-421.0","3ERMJ6L4DZEMZGO28JCP246BCVG7MJ","A13MAWPV4T44I2","3T5ZXGO9DEAUILU6S56NLENRQJRQZJ","","213.59999990463257","img/food2.png","74","215.29999995231628","1","1","3","1,0.5,0,1,0.5,0,0.5,0,1","false",""
"","html-keyboard-response","358","235285","0.0-422.0","3ERMJ6L4DZEMZGO28JCP246BCVG7MJ","A13MAWPV4T44I2","3T5ZXGO9DEAUILU6S56NLENRQJRQZJ","","null","<img src=""img/food2.png"" style=""width:200px; border:14px solid green;"">","null","","","","","","",""
"","image-keyboard-response","359","235462","0.0-424.0","3ERMJ6L4DZEMZGO28JCP246BCVG7MJ","A13MAWPV4T44I2","3T5ZXGO9DEAUILU6S56NLENRQJRQZJ","","175.70000004768372","img/food2.png","74","177.10000014305115","1","0","3","1,0.5,0,1,0.5,0,0.5,0,1","false",""
"","html-keyboard-response","360","235764","0.0-425.0","3ERMJ6L4DZEMZGO28JCP246BCVG7MJ","A13MAWPV4T44I2","3T5ZXGO9DEAUILU6S56NLENRQJRQZJ","","null","<img src=""img/food2.png"" style=""width:200px;border:14px solid red;"">","null","","","","","","",""
"","image-keyboard-response","361","235982","0.0-427.0","3ERMJ6L4DZEMZGO28JCP246BCVG7MJ","A13MAWPV4T44I2","3T5ZXGO9DEAUILU6S56NLENRQJRQZJ","","216.59999990463257","img/food6.png","74","217.70000004768372","1","1","1","1,0.5,0,1,0.5,0,0.5,0,1","false",""
"","html-keyboard-response","362","236285","0.0-428.0","3ERMJ6L4DZEMZGO28JCP246BCVG7MJ","A13MAWPV4T44I2","3T5ZXGO9DEAUILU6S56NLENRQJRQZJ","","null","<img src=""img/food6.png"" style=""width:200px; border:14px solid green;"">","null","","","","","","",""
"","image-keyboard-response","363","236567","0.0-430.0","3ERMJ6L4DZEMZGO28JCP246BCVG7MJ","A13MAWPV4T44I2","3T5ZXGO9DEAUILU6S56NLENRQJRQZJ","","279.40000009536743","img/food2.png","74","280.90000009536743","1","0","3","1,0.5,0,1,0.5,0,0.5,0,1","false",""
"","html-keyboard-response","364","236870","0.0-431.0","3ERMJ6L4DZEMZGO28JCP246BCVG7MJ","A13MAWPV4T44I2","3T5ZXGO9DEAUILU6S56NLENRQJRQZJ","","null","<img src=""img/food2.png"" style=""width:200px;border:14px solid red;"">","null","","","","","","",""
"","image-keyboard-response","365","237053","0.0-433.0","3ERMJ6L4DZEMZGO28JCP246BCVG7MJ","A13MAWPV4T44I2","3T5ZXGO9DEAUILU6S56NLENRQJRQZJ","","181.90000009536743","img/food2.png","74","182.79999995231628","1","0","3","1,0.5,0,1,0.5,0,0.5,0,1","false",""
"","html-keyboard-response","366","237356","0.0-434.0","3ERMJ6L4DZEMZGO28JCP246BCVG7MJ","A13MAWPV4T44I2","3T5ZXGO9DEAUILU6S56NLENRQJRQZJ","","null","<img src=""img/food2.png"" style=""width:200px;border:14px solid red;"">","null","","","","","","",""
"","image-keyboard-response","367","237479","0.0-436.0","3ERMJ6L4DZEMZGO28JCP246BCVG7MJ","A13MAWPV4T44I2","3T5ZXGO9DEAUILU6S56NLENRQJRQZJ","","121.09999990463257","img/food4.png","74","122.5","1","1","2","1,0.5,0,1,0.5,0,0.5,0,1","false",""
"","html-keyboard-response","368","237782","0.0-437.0","3ERMJ6L4DZEMZGO28JCP246BCVG7MJ","A13MAWPV4T44I2","3T5ZXGO9DEAUILU6S56NLENRQJRQZJ","","null","<img src=""img/food4.png"" style=""width:200px; border:14px solid green;"">","null","","","","","","",""
"","image-keyboard-response","369","237990","0.0-439.0","3ERMJ6L4DZEMZGO28JCP246BCVG7MJ","A13MAWPV4T44I2","3T5ZXGO9DEAUILU6S56NLENRQJRQZJ","","206.89999985694885","img/food6.png","74","207.90000009536743","1","1","1","1,0.5,0,1,0.5,0,0.5,0,1","false",""
"","html-keyboard-response","370","238293","0.0-440.0","3ERMJ6L4DZEMZGO28JCP246BCVG7MJ","A13MAWPV4T44I2","3T5ZXGO9DEAUILU6S56NLENRQJRQZJ","","null","<img src=""img/food6.png"" style=""width:200px; border:14px solid green;"">","null","","","","","","",""
"","image-keyboard-response","371","238502","0.0-442.0","3ERMJ6L4DZEMZGO28JCP246BCVG7MJ","A13MAWPV4T44I2","3T5ZXGO9DEAUILU6S56NLENRQJRQZJ","","208","img/food4.png","74","209.19999980926514","1","1","2","1,0.5,0,1,0.5,0,0.5,0,1","false",""
"","html-keyboard-response","372","238805","0.0-443.0","3ERMJ6L4DZEMZGO28JCP246BCVG7MJ","A13MAWPV4T44I2","3T5ZXGO9DEAUILU6S56NLENRQJRQZJ","","null","<img src=""img/food4.png"" style=""width:200px; border:14px solid green;"">","null","","","","","","",""
"","image-keyboard-response","373","238927","0.0-445.0","3ERMJ6L4DZEMZGO28JCP246BCVG7MJ","A13MAWPV4T44I2","3T5ZXGO9DEAUILU6S56NLENRQJRQZJ","","119.89999985694885","img/food2.png","74","121.59999990463257","1","1","3","1,0.5,0,1,0.5,0,0.5,0,1","false",""
"","html-keyboard-response","374","239229","0.0-446.0","3ERMJ6L4DZEMZGO28JCP246BCVG7MJ","A13MAWPV4T44I2","3T5ZXGO9DEAUILU6S56NLENRQJRQZJ","","null","<img src=""img/food2.png"" style=""width:200px; border:14px solid green;"">","null","","","","","","",""
"","image-keyboard-response","375","239349","0.0-448.0","3ERMJ6L4DZEMZGO28JCP246BCVG7MJ","A13MAWPV4T44I2","3T5ZXGO9DEAUILU6S56NLENRQJRQZJ","","118.5","img/food2.png","74","119.40000009536743","1","0","3","1,0.5,0,1,0.5,0,0.5,0,1","false",""
"","html-keyboard-response","376","239652","0.0-449.0","3ERMJ6L4DZEMZGO28JCP246BCVG7MJ","A13MAWPV4T44I2","3T5ZXGO9DEAUILU6S56NLENRQJRQZJ","","null","<img src=""img/food2.png"" style=""width:200px;border:14px solid red;"">","null","","","","","","",""
"","image-keyboard-response","377","239847","0.0-451.0","3ERMJ6L4DZEMZGO28JCP246BCVG7MJ","A13MAWPV4T44I2","3T5ZXGO9DEAUILU6S56NLENRQJRQZJ","","192.90000009536743","img/food4.png","74","194.29999995231628","1","1","2","1,0.5,0,1,0.5,0,0.5,0,1","false",""
"","html-keyboard-response","378","240150","0.0-452.0","3ERMJ6L4DZEMZGO28JCP246BCVG7MJ","A13MAWPV4T44I2","3T5ZXGO9DEAUILU6S56NLENRQJRQZJ","","null","<img src=""img/food4.png"" style=""width:200px; border:14px solid green;"">","null","","","","","","",""
"","instructions","379","243351","0.0-454.0","3ERMJ6L4DZEMZGO28JCP246BCVG7MJ","A13MAWPV4T44I2","3T5ZXGO9DEAUILU6S56NLENRQJRQZJ","[{""page_index"":0,""viewing_time"":3199.4000000953674}]","3199.7999999523163","","","","","","","","",""
"","survey-text","380","247072","0.0-455.0","3ERMJ6L4DZEMZGO28JCP246BCVG7MJ","A13MAWPV4T44I2","3T5ZXGO9DEAUILU6S56NLENRQJRQZJ","","3717.9000000953674","","","","","","","","","{""Q0"":""A13MAWPV4T44I2""}"
