"success","trial_type","trial_index","time_elapsed","internal_node_id","assignmentID","mturkID","hitID","view_history","rt","stimulus","key_press","reactionTime","a","r","warning","s","cond","reward_cond","reward_cond_actual","reward_matrix_idx","responses"
"true","fullscreen","0","3823","0.0-0.0","3GNCZX450J9A3LJD72G1TZ2WKOJAPT","A13TYYTK5MARJ1","3RBI0I35XEP26UEZY8S8UZLEA1IY3E","","","","","","","","","","","","","",""
"","instructions","1","37786","0.0-1.0","3GNCZX450J9A3LJD72G1TZ2WKOJAPT","A13TYYTK5MARJ1","3RBI0I35XEP26UEZY8S8UZLEA1IY3E","[{""page_index"":0,""viewing_time"":3113.800000011921},{""page_index"":1,""viewing_time"":1647.0999999940395},{""page_index"":2,""viewing_time"":2936.0999999940395},{""page_index"":3,""viewing_time"":5360},{""page_index"":4,""viewing_time"":1320.0999999940395},{""page_index"":5,""viewing_time"":5311.800000011921},{""page_index"":6,""viewing_time"":14272.300000011921}]","33961.30000001192","","","","","","","","","","","",""
"","instructions","2","55241","0.0-2.0","3GNCZX450J9A3LJD72G1TZ2WKOJAPT","A13TYYTK5MARJ1","3RBI0I35XEP26UEZY8S8UZLEA1IY3E","[{""page_index"":0,""viewing_time"":14566.800000011921},{""page_index"":1,""viewing_time"":2888}]","17454.80000001192","","","","","","","","","","","",""
"","image-keyboard-response","3","55689","0.0-3.0","3GNCZX450J9A3LJD72G1TZ2WKOJAPT","A13TYYTK5MARJ1","3RBI0I35XEP26UEZY8S8UZLEA1IY3E","","447.09999999403954","img/food4.png","74","448","1","1","false","1","2","1,0.5,0,1,0.5,0,0.5,0,1","1,0.5,0,1,0.5,0,0.5,0,1","1",""
"","html-keyboard-response","4","55991","0.0-4.0","3GNCZX450J9A3LJD72G1TZ2WKOJAPT","A13TYYTK5MARJ1","3RBI0I35XEP26UEZY8S8UZLEA1IY3E","","null","<img src=""img/food4.png"" style=""width:200px; border:14px solid green;"">","null","","","","","","","","","",""
"","image-keyboard-response","5","56361","0.0-6.0","3GNCZX450J9A3LJD72G1TZ2WKOJAPT","A13TYYTK5MARJ1","3RBI0I35XEP26UEZY8S8UZLEA1IY3E","","369.40000000596046","img/food4.png","74","370","1","1","false","1","2","1,0.5,0,1,0.5,0,0.5,0,1","1,0.5,0,1,0.5,0,0.5,0,1","1",""
"","html-keyboard-response","6","56663","0.0-7.0","3GNCZX450J9A3LJD72G1TZ2WKOJAPT","A13TYYTK5MARJ1","3RBI0I35XEP26UEZY8S8UZLEA1IY3E","","null","<img src=""img/food4.png"" style=""width:200px; border:14px solid green;"">","null","","","","","","","","","",""
"","image-keyboard-response","7","57257","0.0-9.0","3GNCZX450J9A3LJD72G1TZ2WKOJAPT","A13TYYTK5MARJ1","3RBI0I35XEP26UEZY8S8UZLEA1IY3E","","593.4000000059605","img/food2.png","75","594.0999999940395","2","0","false","3","2","1,0.5,0,1,0.5,0,0.5,0,1","1,0.5,0,1,0.5,0,0.5,0,1","1",""
"","html-keyboard-response","8","57559","0.0-10.0","3GNCZX450J9A3LJD72G1TZ2WKOJAPT","A13TYYTK5MARJ1","3RBI0I35XEP26UEZY8S8UZLEA1IY3E","","null","<img src=""img/food2.png"" style=""width:200px;border:14px solid red;"">","null","","","","","","","","","",""
"","image-keyboard-response","9","57953","0.0-12.0","3GNCZX450J9A3LJD72G1TZ2WKOJAPT","A13TYYTK5MARJ1","3RBI0I35XEP26UEZY8S8UZLEA1IY3E","","393.59999999403954","img/food2.png","76","394.40000000596046","3","1","false","3","2","1,0.5,0,1,0.5,0,0.5,0,1","1,0.5,0,1,0.5,0,0.5,0,1","1",""
"","html-keyboard-response","10","58255","0.0-13.0","3GNCZX450J9A3LJD72G1TZ2WKOJAPT","A13TYYTK5MARJ1","3RBI0I35XEP26UEZY8S8UZLEA1IY3E","","null","<img src=""img/food2.png"" style=""width:200px; border:14px solid green;"">","null","","","","","","","","","",""
"","image-keyboard-response","11","58641","0.0-15.0","3GNCZX450J9A3LJD72G1TZ2WKOJAPT","A13TYYTK5MARJ1","3RBI0I35XEP26UEZY8S8UZLEA1IY3E","","385.30000001192093","img/food2.png","76","386","3","1","false","3","2","1,0.5,0,1,0.5,0,0.5,0,1","1,0.5,0,1,0.5,0,0.5,0,1","1",""
"","html-keyboard-response","12","58943","0.0-16.0","3GNCZX450J9A3LJD72G1TZ2WKOJAPT","A13TYYTK5MARJ1","3RBI0I35XEP26UEZY8S8UZLEA1IY3E","","null","<img src=""img/food2.png"" style=""width:200px; border:14px solid green;"">","null","","","","","","","","","",""
"","image-keyboard-response","13","59602","0.0-18.0","3GNCZX450J9A3LJD72G1TZ2WKOJAPT","A13TYYTK5MARJ1","3RBI0I35XEP26UEZY8S8UZLEA1IY3E","","657.8999999761581","img/food5.png","75","658.4000000059605","2","0","false","2","2","1,0.5,0,1,0.5,0,0.5,0,1","1,0.5,0,1,0.5,0,0.5,0,1","1",""
"","html-keyboard-response","14","59903","0.0-19.0","3GNCZX450J9A3LJD72G1TZ2WKOJAPT","A13TYYTK5MARJ1","3RBI0I35XEP26UEZY8S8UZLEA1IY3E","","null","<img src=""img/food5.png"" style=""width:200px;border:14px solid red;"">","null","","","","","","","","","",""
"","image-keyboard-response","15","60498","0.0-21.0","3GNCZX450J9A3LJD72G1TZ2WKOJAPT","A13TYYTK5MARJ1","3RBI0I35XEP26UEZY8S8UZLEA1IY3E","","593.5","img/food4.png","76","594.1999999880791","3","0","false","1","2","1,0.5,0,1,0.5,0,0.5,0,1","1,0.5,0,1,0.5,0,0.5,0,1","1",""
"","html-keyboard-response","16","60799","0.0-22.0","3GNCZX450J9A3LJD72G1TZ2WKOJAPT","A13TYYTK5MARJ1","3RBI0I35XEP26UEZY8S8UZLEA1IY3E","","null","<img src=""img/food4.png"" style=""width:200px;border:14px solid red;"">","null","","","","","","","","","",""
"","image-keyboard-response","17","61298","0.0-24.0","3GNCZX450J9A3LJD72G1TZ2WKOJAPT","A13TYYTK5MARJ1","3RBI0I35XEP26UEZY8S8UZLEA1IY3E","","497.7999999821186","img/food5.png","75","498.40000000596046","2","0","false","2","2","1,0.5,0,1,0.5,0,0.5,0,1","1,0.5,0,1,0.5,0,0.5,0,1","1",""
"","html-keyboard-response","18","61599","0.0-25.0","3GNCZX450J9A3LJD72G1TZ2WKOJAPT","A13TYYTK5MARJ1","3RBI0I35XEP26UEZY8S8UZLEA1IY3E","","null","<img src=""img/food5.png"" style=""width:200px;border:14px solid red;"">","null","","","","","","","","","",""
"","image-keyboard-response","19","62266","0.0-27.0","3GNCZX450J9A3LJD72G1TZ2WKOJAPT","A13TYYTK5MARJ1","3RBI0I35XEP26UEZY8S8UZLEA1IY3E","","666","img/food5.png","76","666.5999999940395","3","0","false","2","2","1,0.5,0,1,0.5,0,0.5,0,1","1,0.5,0,1,0.5,0,0.5,0,1","1",""
"","html-keyboard-response","20","62566","0.0-28.0","3GNCZX450J9A3LJD72G1TZ2WKOJAPT","A13TYYTK5MARJ1","3RBI0I35XEP26UEZY8S8UZLEA1IY3E","","null","<img src=""img/food5.png"" style=""width:200px;border:14px solid red;"">","null","","","","","","","","","",""
"","image-keyboard-response","21","63458","0.0-30.0","3GNCZX450J9A3LJD72G1TZ2WKOJAPT","A13TYYTK5MARJ1","3RBI0I35XEP26UEZY8S8UZLEA1IY3E","","890.2000000178814","img/food2.png","76","890.8999999761581","3","1","false","3","2","1,0.5,0,1,0.5,0,0.5,0,1","1,0.5,0,1,0.5,0,0.5,0,1","1",""
"","html-keyboard-response","22","63759","0.0-31.0","3GNCZX450J9A3LJD72G1TZ2WKOJAPT","A13TYYTK5MARJ1","3RBI0I35XEP26UEZY8S8UZLEA1IY3E","","null","<img src=""img/food2.png"" style=""width:200px; border:14px solid green;"">","null","","","","","","","","","",""
"","image-keyboard-response","23","64626","0.0-33.0","3GNCZX450J9A3LJD72G1TZ2WKOJAPT","A13TYYTK5MARJ1","3RBI0I35XEP26UEZY8S8UZLEA1IY3E","","865.7000000178814","img/food5.png","75","866.2999999821186","2","0","false","2","2","1,0.5,0,1,0.5,0,0.5,0,1","1,0.5,0,1,0.5,0,0.5,0,1","1",""
"","html-keyboard-response","24","64927","0.0-34.0","3GNCZX450J9A3LJD72G1TZ2WKOJAPT","A13TYYTK5MARJ1","3RBI0I35XEP26UEZY8S8UZLEA1IY3E","","null","<img src=""img/food5.png"" style=""width:200px;border:14px solid red;"">","null","","","","","","","","","",""
"","image-keyboard-response","25","65928","0.0-36.0","3GNCZX450J9A3LJD72G1TZ2WKOJAPT","A13TYYTK5MARJ1","3RBI0I35XEP26UEZY8S8UZLEA1IY3E","","","img/food4.png","","1001.2000000178814","-1","0","true","1","2","1,0.5,0,1,0.5,0,0.5,0,1","1,0.5,0,1,0.5,0,0.5,0,1","1",""
"","html-keyboard-response","26","66230","0.0-37.0","3GNCZX450J9A3LJD72G1TZ2WKOJAPT","A13TYYTK5MARJ1","3RBI0I35XEP26UEZY8S8UZLEA1IY3E","","null","<img src=""img/food4.png"" style=""width:200px;border:14px solid red;"">","null","","","","","","","","","",""
"","html-keyboard-response","27","70703","0.0-38.0-0.0","3GNCZX450J9A3LJD72G1TZ2WKOJAPT","A13TYYTK5MARJ1","3RBI0I35XEP26UEZY8S8UZLEA1IY3E","","","","","","","","","","","","","",""
"","image-keyboard-response","28","71322","0.0-39.0","3GNCZX450J9A3LJD72G1TZ2WKOJAPT","A13TYYTK5MARJ1","3RBI0I35XEP26UEZY8S8UZLEA1IY3E","","617.6999999880791","img/food2.png","74","618.4000000059605","1","1","false","3","2","1,0.5,0,1,0.5,0,0.5,0,1","1,0.5,0,1,0.5,0,0.5,0,1","1",""
"","html-keyboard-response","29","71623","0.0-40.0","3GNCZX450J9A3LJD72G1TZ2WKOJAPT","A13TYYTK5MARJ1","3RBI0I35XEP26UEZY8S8UZLEA1IY3E","","null","<img src=""img/food2.png"" style=""width:200px; border:14px solid green;"">","null","","","","","","","","","",""
"","image-keyboard-response","30","72178","0.0-42.0","3GNCZX450J9A3LJD72G1TZ2WKOJAPT","A13TYYTK5MARJ1","3RBI0I35XEP26UEZY8S8UZLEA1IY3E","","553.4000000059605","img/food4.png","75","554.0999999940395","2","0","false","1","2","1,0.5,0,1,0.5,0,0.5,0,1","1,0.5,0,1,0.5,0,0.5,0,1","1",""
"","html-keyboard-response","31","72479","0.0-43.0","3GNCZX450J9A3LJD72G1TZ2WKOJAPT","A13TYYTK5MARJ1","3RBI0I35XEP26UEZY8S8UZLEA1IY3E","","null","<img src=""img/food4.png"" style=""width:200px;border:14px solid red;"">","null","","","","","","","","","",""
"","image-keyboard-response","32","72818","0.0-45.0","3GNCZX450J9A3LJD72G1TZ2WKOJAPT","A13TYYTK5MARJ1","3RBI0I35XEP26UEZY8S8UZLEA1IY3E","","338.10000002384186","img/food4.png","74","338.69999998807907","1","1","false","1","2","1,0.5,0,1,0.5,0,0.5,0,1","1,0.5,0,1,0.5,0,0.5,0,1","1",""
"","html-keyboard-response","33","73120","0.0-46.0","3GNCZX450J9A3LJD72G1TZ2WKOJAPT","A13TYYTK5MARJ1","3RBI0I35XEP26UEZY8S8UZLEA1IY3E","","null","<img src=""img/food4.png"" style=""width:200px; border:14px solid green;"">","null","","","","","","","","","",""
"","image-keyboard-response","34","73610","0.0-48.0","3GNCZX450J9A3LJD72G1TZ2WKOJAPT","A13TYYTK5MARJ1","3RBI0I35XEP26UEZY8S8UZLEA1IY3E","","488.7000000178814","img/food5.png","74","489.2999999821186","1","1","false","2","2","1,0.5,0,1,0.5,0,0.5,0,1","1,0.5,0,1,0.5,0,0.5,0,1","1",""
"","html-keyboard-response","35","73911","0.0-49.0","3GNCZX450J9A3LJD72G1TZ2WKOJAPT","A13TYYTK5MARJ1","3RBI0I35XEP26UEZY8S8UZLEA1IY3E","","null","<img src=""img/food5.png"" style=""width:200px; border:14px solid green;"">","null","","","","","","","","","",""
"","image-keyboard-response","36","74145","0.0-51.0","3GNCZX450J9A3LJD72G1TZ2WKOJAPT","A13TYYTK5MARJ1","3RBI0I35XEP26UEZY8S8UZLEA1IY3E","","233.7000000178814","img/food2.png","74","234.09999999403954","1","0","false","3","2","1,0.5,0,1,0.5,0,0.5,0,1","1,0.5,0,1,0.5,0,0.5,0,1","1",""
"","html-keyboard-response","37","74447","0.0-52.0","3GNCZX450J9A3LJD72G1TZ2WKOJAPT","A13TYYTK5MARJ1","3RBI0I35XEP26UEZY8S8UZLEA1IY3E","","null","<img src=""img/food2.png"" style=""width:200px;border:14px solid red;"">","null","","","","","","","","","",""
"","image-keyboard-response","38","74698","0.0-54.0","3GNCZX450J9A3LJD72G1TZ2WKOJAPT","A13TYYTK5MARJ1","3RBI0I35XEP26UEZY8S8UZLEA1IY3E","","250.10000002384186","img/food4.png","74","250.7999999821186","1","1","false","1","2","1,0.5,0,1,0.5,0,0.5,0,1","1,0.5,0,1,0.5,0,0.5,0,1","1",""
"","html-keyboard-response","39","74999","0.0-55.0","3GNCZX450J9A3LJD72G1TZ2WKOJAPT","A13TYYTK5MARJ1","3RBI0I35XEP26UEZY8S8UZLEA1IY3E","","null","<img src=""img/food4.png"" style=""width:200px; border:14px solid green;"">","null","","","","","","","","","",""
"","image-keyboard-response","40","75138","0.0-57.0","3GNCZX450J9A3LJD72G1TZ2WKOJAPT","A13TYYTK5MARJ1","3RBI0I35XEP26UEZY8S8UZLEA1IY3E","","137.59999999403954","img/food5.png","74","138.2999999821186","1","1","false","2","2","1,0.5,0,1,0.5,0,0.5,0,1","1,0.5,0,1,0.5,0,0.5,0,1","1",""
"","html-keyboard-response","41","75438","0.0-58.0","3GNCZX450J9A3LJD72G1TZ2WKOJAPT","A13TYYTK5MARJ1","3RBI0I35XEP26UEZY8S8UZLEA1IY3E","","null","<img src=""img/food5.png"" style=""width:200px; border:14px solid green;"">","null","","","","","","","","","",""
"","image-keyboard-response","42","75594","0.0-60.0","3GNCZX450J9A3LJD72G1TZ2WKOJAPT","A13TYYTK5MARJ1","3RBI0I35XEP26UEZY8S8UZLEA1IY3E","","154.2000000178814","img/food2.png","74","154.7999999821186","1","0","false","3","2","1,0.5,0,1,0.5,0,0.5,0,1","1,0.5,0,1,0.5,0,0.5,0,1","1",""
"","html-keyboard-response","43","75895","0.0-61.0","3GNCZX450J9A3LJD72G1TZ2WKOJAPT","A13TYYTK5MARJ1","3RBI0I35XEP26UEZY8S8UZLEA1IY3E","","null","<img src=""img/food2.png"" style=""width:200px;border:14px solid red;"">","null","","","","","","","","","",""
"","image-keyboard-response","44","76002","0.0-63.0","3GNCZX450J9A3LJD72G1TZ2WKOJAPT","A13TYYTK5MARJ1","3RBI0I35XEP26UEZY8S8UZLEA1IY3E","","105.5","img/food4.png","74","106.19999998807907","1","1","false","1","2","1,0.5,0,1,0.5,0,0.5,0,1","1,0.5,0,1,0.5,0,0.5,0,1","1",""
"","html-keyboard-response","45","76303","0.0-64.0","3GNCZX450J9A3LJD72G1TZ2WKOJAPT","A13TYYTK5MARJ1","3RBI0I35XEP26UEZY8S8UZLEA1IY3E","","null","<img src=""img/food4.png"" style=""width:200px; border:14px solid green;"">","null","","","","","","","","","",""
"","image-keyboard-response","46","76410","0.0-66.0","3GNCZX450J9A3LJD72G1TZ2WKOJAPT","A13TYYTK5MARJ1","3RBI0I35XEP26UEZY8S8UZLEA1IY3E","","106","img/food5.png","74","106.59999999403954","1","1","false","2","2","1,0.5,0,1,0.5,0,0.5,0,1","1,0.5,0,1,0.5,0,0.5,0,1","1",""
"","html-keyboard-response","47","76710","0.0-67.0","3GNCZX450J9A3LJD72G1TZ2WKOJAPT","A13TYYTK5MARJ1","3RBI0I35XEP26UEZY8S8UZLEA1IY3E","","null","<img src=""img/food5.png"" style=""width:200px; border:14px solid green;"">","null","","","","","","","","","",""
"","image-keyboard-response","48","76898","0.0-69.0","3GNCZX450J9A3LJD72G1TZ2WKOJAPT","A13TYYTK5MARJ1","3RBI0I35XEP26UEZY8S8UZLEA1IY3E","","186.2000000178814","img/food2.png","74","187","1","1","false","3","2","1,0.5,0,1,0.5,0,0.5,0,1","1,0.5,0,1,0.5,0,0.5,0,1","1",""
"","html-keyboard-response","49","77199","0.0-70.0","3GNCZX450J9A3LJD72G1TZ2WKOJAPT","A13TYYTK5MARJ1","3RBI0I35XEP26UEZY8S8UZLEA1IY3E","","null","<img src=""img/food2.png"" style=""width:200px; border:14px solid green;"">","null","","","","","","","","","",""
"","image-keyboard-response","50","77369","0.0-72.0","3GNCZX450J9A3LJD72G1TZ2WKOJAPT","A13TYYTK5MARJ1","3RBI0I35XEP26UEZY8S8UZLEA1IY3E","","169.5","img/food5.png","74","170.09999999403954","1","1","false","2","2","1,0.5,0,1,0.5,0,0.5,0,1","1,0.5,0,1,0.5,0,0.5,0,1","1",""
"","html-keyboard-response","51","77671","0.0-73.0","3GNCZX450J9A3LJD72G1TZ2WKOJAPT","A13TYYTK5MARJ1","3RBI0I35XEP26UEZY8S8UZLEA1IY3E","","null","<img src=""img/food5.png"" style=""width:200px; border:14px solid green;"">","null","","","","","","","","","",""
"","image-keyboard-response","52","77785","0.0-75.0","3GNCZX450J9A3LJD72G1TZ2WKOJAPT","A13TYYTK5MARJ1","3RBI0I35XEP26UEZY8S8UZLEA1IY3E","","114","img/food2.png","74","114.5","1","1","false","3","2","1,0.5,0,1,0.5,0,0.5,0,1","1,0.5,0,1,0.5,0,0.5,0,1","1",""
"","html-keyboard-response","53","78087","0.0-76.0","3GNCZX450J9A3LJD72G1TZ2WKOJAPT","A13TYYTK5MARJ1","3RBI0I35XEP26UEZY8S8UZLEA1IY3E","","null","<img src=""img/food2.png"" style=""width:200px; border:14px solid green;"">","null","","","","","","","","","",""
"","image-keyboard-response","54","78226","0.0-78.0","3GNCZX450J9A3LJD72G1TZ2WKOJAPT","A13TYYTK5MARJ1","3RBI0I35XEP26UEZY8S8UZLEA1IY3E","","138.10000002384186","img/food5.png","74","138.7999999821186","1","1","false","2","2","1,0.5,0,1,0.5,0,0.5,0,1","1,0.5,0,1,0.5,0,0.5,0,1","1",""
"","html-keyboard-response","55","78527","0.0-79.0","3GNCZX450J9A3LJD72G1TZ2WKOJAPT","A13TYYTK5MARJ1","3RBI0I35XEP26UEZY8S8UZLEA1IY3E","","null","<img src=""img/food5.png"" style=""width:200px; border:14px solid green;"">","null","","","","","","","","","",""
"","image-keyboard-response","56","78618","0.0-81.0","3GNCZX450J9A3LJD72G1TZ2WKOJAPT","A13TYYTK5MARJ1","3RBI0I35XEP26UEZY8S8UZLEA1IY3E","","89.40000000596046","img/food5.png","74","90.09999999403954","1","1","false","2","2","1,0.5,0,1,0.5,0,0.5,0,1","1,0.5,0,1,0.5,0,0.5,0,1","1",""
"","html-keyboard-response","57","78919","0.0-82.0","3GNCZX450J9A3LJD72G1TZ2WKOJAPT","A13TYYTK5MARJ1","3RBI0I35XEP26UEZY8S8UZLEA1IY3E","","null","<img src=""img/food5.png"" style=""width:200px; border:14px solid green;"">","null","","","","","","","","","",""
"","image-keyboard-response","58","79042","0.0-84.0","3GNCZX450J9A3LJD72G1TZ2WKOJAPT","A13TYYTK5MARJ1","3RBI0I35XEP26UEZY8S8UZLEA1IY3E","","121.60000002384186","img/food5.png","74","122.2999999821186","1","1","false","2","2","1,0.5,0,1,0.5,0,0.5,0,1","1,0.5,0,1,0.5,0,0.5,0,1","1",""
"","html-keyboard-response","59","79343","0.0-85.0","3GNCZX450J9A3LJD72G1TZ2WKOJAPT","A13TYYTK5MARJ1","3RBI0I35XEP26UEZY8S8UZLEA1IY3E","","null","<img src=""img/food5.png"" style=""width:200px; border:14px solid green;"">","null","","","","","","","","","",""
"","image-keyboard-response","60","79417","0.0-87.0","3GNCZX450J9A3LJD72G1TZ2WKOJAPT","A13TYYTK5MARJ1","3RBI0I35XEP26UEZY8S8UZLEA1IY3E","","73.60000002384186","img/food4.png","74","74.2999999821186","1","1","false","1","2","1,0.5,0,1,0.5,0,0.5,0,1","1,0.5,0,1,0.5,0,0.5,0,1","1",""
"","html-keyboard-response","61","79719","0.0-88.0","3GNCZX450J9A3LJD72G1TZ2WKOJAPT","A13TYYTK5MARJ1","3RBI0I35XEP26UEZY8S8UZLEA1IY3E","","null","<img src=""img/food4.png"" style=""width:200px; border:14px solid green;"">","null","","","","","","","","","",""
"","image-keyboard-response","62","79802","0.0-90.0","3GNCZX450J9A3LJD72G1TZ2WKOJAPT","A13TYYTK5MARJ1","3RBI0I35XEP26UEZY8S8UZLEA1IY3E","","82","img/food2.png","74","82.5","1","1","false","3","2","1,0.5,0,1,0.5,0,0.5,0,1","1,0.5,0,1,0.5,0,0.5,0,1","1",""
"","html-keyboard-response","63","80103","0.0-91.0","3GNCZX450J9A3LJD72G1TZ2WKOJAPT","A13TYYTK5MARJ1","3RBI0I35XEP26UEZY8S8UZLEA1IY3E","","null","<img src=""img/food2.png"" style=""width:200px; border:14px solid green;"">","null","","","","","","","","","",""
"","image-keyboard-response","64","80161","0.0-93.0","3GNCZX450J9A3LJD72G1TZ2WKOJAPT","A13TYYTK5MARJ1","3RBI0I35XEP26UEZY8S8UZLEA1IY3E","","57.400000005960464","img/food2.png","74","58","1","0","false","3","2","1,0.5,0,1,0.5,0,0.5,0,1","1,0.5,0,1,0.5,0,0.5,0,1","1",""
"","html-keyboard-response","65","80463","0.0-94.0","3GNCZX450J9A3LJD72G1TZ2WKOJAPT","A13TYYTK5MARJ1","3RBI0I35XEP26UEZY8S8UZLEA1IY3E","","null","<img src=""img/food2.png"" style=""width:200px;border:14px solid red;"">","null","","","","","","","","","",""
"","image-keyboard-response","66","80570","0.0-96.0","3GNCZX450J9A3LJD72G1TZ2WKOJAPT","A13TYYTK5MARJ1","3RBI0I35XEP26UEZY8S8UZLEA1IY3E","","105.5","img/food4.png","74","106.19999998807907","1","1","false","1","2","1,0.5,0,1,0.5,0,0.5,0,1","1,0.5,0,1,0.5,0,0.5,0,1","1",""
"","html-keyboard-response","67","80871","0.0-97.0","3GNCZX450J9A3LJD72G1TZ2WKOJAPT","A13TYYTK5MARJ1","3RBI0I35XEP26UEZY8S8UZLEA1IY3E","","null","<img src=""img/food4.png"" style=""width:200px; border:14px solid green;"">","null","","","","","","","","","",""
"","image-keyboard-response","68","80929","0.0-99.0","3GNCZX450J9A3LJD72G1TZ2WKOJAPT","A13TYYTK5MARJ1","3RBI0I35XEP26UEZY8S8UZLEA1IY3E","","57.70000001788139","img/food2.png","74","58.19999998807907","1","1","false","3","2","1,0.5,0,1,0.5,0,0.5,0,1","1,0.5,0,1,0.5,0,0.5,0,1","1",""
"","html-keyboard-response","69","81231","0.0-100.0","3GNCZX450J9A3LJD72G1TZ2WKOJAPT","A13TYYTK5MARJ1","3RBI0I35XEP26UEZY8S8UZLEA1IY3E","","null","<img src=""img/food2.png"" style=""width:200px; border:14px solid green;"">","null","","","","","","","","","",""
"","image-keyboard-response","70","81290","0.0-102.0","3GNCZX450J9A3LJD72G1TZ2WKOJAPT","A13TYYTK5MARJ1","3RBI0I35XEP26UEZY8S8UZLEA1IY3E","","57.900000005960464","img/food2.png","74","58.599999994039536","1","1","false","3","2","1,0.5,0,1,0.5,0,0.5,0,1","1,0.5,0,1,0.5,0,0.5,0,1","1",""
"","html-keyboard-response","71","81591","0.0-103.0","3GNCZX450J9A3LJD72G1TZ2WKOJAPT","A13TYYTK5MARJ1","3RBI0I35XEP26UEZY8S8UZLEA1IY3E","","null","<img src=""img/food2.png"" style=""width:200px; border:14px solid green;"">","null","","","","","","","","","",""
"","image-keyboard-response","72","81698","0.0-105.0","3GNCZX450J9A3LJD72G1TZ2WKOJAPT","A13TYYTK5MARJ1","3RBI0I35XEP26UEZY8S8UZLEA1IY3E","","105.69999998807907","img/food5.png","74","106.40000000596046","1","1","false","2","2","1,0.5,0,1,0.5,0,0.5,0,1","1,0.5,0,1,0.5,0,0.5,0,1","1",""
"","html-keyboard-response","73","81999","0.0-106.0","3GNCZX450J9A3LJD72G1TZ2WKOJAPT","A13TYYTK5MARJ1","3RBI0I35XEP26UEZY8S8UZLEA1IY3E","","null","<img src=""img/food5.png"" style=""width:200px; border:14px solid green;"">","null","","","","","","","","","",""
"","image-keyboard-response","74","82041","0.0-108.0","3GNCZX450J9A3LJD72G1TZ2WKOJAPT","A13TYYTK5MARJ1","3RBI0I35XEP26UEZY8S8UZLEA1IY3E","","41.60000002384186","img/food5.png","74","42.099999994039536","1","1","false","2","2","1,0.5,0,1,0.5,0,0.5,0,1","1,0.5,0,1,0.5,0,0.5,0,1","1",""
"","html-keyboard-response","75","82344","0.0-109.0","3GNCZX450J9A3LJD72G1TZ2WKOJAPT","A13TYYTK5MARJ1","3RBI0I35XEP26UEZY8S8UZLEA1IY3E","","null","<img src=""img/food5.png"" style=""width:200px; border:14px solid green;"">","null","","","","","","","","","",""
"","image-keyboard-response","76","82434","0.0-111.0","3GNCZX450J9A3LJD72G1TZ2WKOJAPT","A13TYYTK5MARJ1","3RBI0I35XEP26UEZY8S8UZLEA1IY3E","","89.2000000178814","img/food5.png","74","89.69999998807907","1","1","false","2","2","1,0.5,0,1,0.5,0,0.5,0,1","1,0.5,0,1,0.5,0,0.5,0,1","1",""
"","html-keyboard-response","77","82735","0.0-112.0","3GNCZX450J9A3LJD72G1TZ2WKOJAPT","A13TYYTK5MARJ1","3RBI0I35XEP26UEZY8S8UZLEA1IY3E","","null","<img src=""img/food5.png"" style=""width:200px; border:14px solid green;"">","null","","","","","","","","","",""
"","image-keyboard-response","78","82793","0.0-114.0","3GNCZX450J9A3LJD72G1TZ2WKOJAPT","A13TYYTK5MARJ1","3RBI0I35XEP26UEZY8S8UZLEA1IY3E","","57.60000002384186","img/food2.png","74","58.400000005960464","1","1","false","3","2","1,0.5,0,1,0.5,0,0.5,0,1","1,0.5,0,1,0.5,0,0.5,0,1","1",""
"","html-keyboard-response","79","83095","0.0-115.0","3GNCZX450J9A3LJD72G1TZ2WKOJAPT","A13TYYTK5MARJ1","3RBI0I35XEP26UEZY8S8UZLEA1IY3E","","null","<img src=""img/food2.png"" style=""width:200px; border:14px solid green;"">","null","","","","","","","","","",""
"","image-keyboard-response","80","83233","0.0-117.0","3GNCZX450J9A3LJD72G1TZ2WKOJAPT","A13TYYTK5MARJ1","3RBI0I35XEP26UEZY8S8UZLEA1IY3E","","137.30000001192093","img/food5.png","74","137.90000000596046","1","1","false","2","2","1,0.5,0,1,0.5,0,0.5,0,1","1,0.5,0,1,0.5,0,0.5,0,1","1",""
"","html-keyboard-response","81","83535","0.0-118.0","3GNCZX450J9A3LJD72G1TZ2WKOJAPT","A13TYYTK5MARJ1","3RBI0I35XEP26UEZY8S8UZLEA1IY3E","","null","<img src=""img/food5.png"" style=""width:200px; border:14px solid green;"">","null","","","","","","","","","",""
"","image-keyboard-response","82","83578","0.0-120.0","3GNCZX450J9A3LJD72G1TZ2WKOJAPT","A13TYYTK5MARJ1","3RBI0I35XEP26UEZY8S8UZLEA1IY3E","","42","img/food2.png","74","42.400000005960464","1","1","false","3","2","1,0.5,0,1,0.5,0,0.5,0,1","1,0.5,0,1,0.5,0,0.5,0,1","1",""
"","html-keyboard-response","83","83879","0.0-121.0","3GNCZX450J9A3LJD72G1TZ2WKOJAPT","A13TYYTK5MARJ1","3RBI0I35XEP26UEZY8S8UZLEA1IY3E","","null","<img src=""img/food2.png"" style=""width:200px; border:14px solid green;"">","null","","","","","","","","","",""
"","image-keyboard-response","84","83938","0.0-123.0","3GNCZX450J9A3LJD72G1TZ2WKOJAPT","A13TYYTK5MARJ1","3RBI0I35XEP26UEZY8S8UZLEA1IY3E","","57.60000002384186","img/food2.png","74","58.29999998211861","1","0","false","3","2","1,0.5,0,1,0.5,0,0.5,0,1","1,0.5,0,1,0.5,0,0.5,0,1","1",""
"","html-keyboard-response","85","84239","0.0-124.0","3GNCZX450J9A3LJD72G1TZ2WKOJAPT","A13TYYTK5MARJ1","3RBI0I35XEP26UEZY8S8UZLEA1IY3E","","null","<img src=""img/food2.png"" style=""width:200px;border:14px solid red;"">","null","","","","","","","","","",""
"","image-keyboard-response","86","84274","0.0-126.0","3GNCZX450J9A3LJD72G1TZ2WKOJAPT","A13TYYTK5MARJ1","3RBI0I35XEP26UEZY8S8UZLEA1IY3E","","33.80000001192093","img/food5.png","74","34.39999997615814","1","1","false","2","2","1,0.5,0,1,0.5,0,0.5,0,1","1,0.5,0,1,0.5,0,0.5,0,1","1",""
"","html-keyboard-response","87","84576","0.0-127.0","3GNCZX450J9A3LJD72G1TZ2WKOJAPT","A13TYYTK5MARJ1","3RBI0I35XEP26UEZY8S8UZLEA1IY3E","","null","<img src=""img/food5.png"" style=""width:200px; border:14px solid green;"">","null","","","","","","","","","",""
"","image-keyboard-response","88","84641","0.0-129.0","3GNCZX450J9A3LJD72G1TZ2WKOJAPT","A13TYYTK5MARJ1","3RBI0I35XEP26UEZY8S8UZLEA1IY3E","","64.90000000596046","img/food5.png","74","65.5","1","1","false","2","2","1,0.5,0,1,0.5,0,0.5,0,1","1,0.5,0,1,0.5,0,0.5,0,1","1",""
"","html-keyboard-response","89","84943","0.0-130.0","3GNCZX450J9A3LJD72G1TZ2WKOJAPT","A13TYYTK5MARJ1","3RBI0I35XEP26UEZY8S8UZLEA1IY3E","","null","<img src=""img/food5.png"" style=""width:200px; border:14px solid green;"">","null","","","","","","","","","",""
"","image-keyboard-response","90","84946","0.0-132.0","3GNCZX450J9A3LJD72G1TZ2WKOJAPT","A13TYYTK5MARJ1","3RBI0I35XEP26UEZY8S8UZLEA1IY3E","","1.5999999940395355","img/food2.png","74","2.100000023841858","1","0","false","3","2","1,0.5,0,1,0.5,0,0.5,0,1","1,0.5,0,1,0.5,0,0.5,0,1","1",""
"","html-keyboard-response","91","85247","0.0-133.0","3GNCZX450J9A3LJD72G1TZ2WKOJAPT","A13TYYTK5MARJ1","3RBI0I35XEP26UEZY8S8UZLEA1IY3E","","null","<img src=""img/food2.png"" style=""width:200px;border:14px solid red;"">","null","","","","","","","","","",""
"","image-keyboard-response","92","85306","0.0-135.0","3GNCZX450J9A3LJD72G1TZ2WKOJAPT","A13TYYTK5MARJ1","3RBI0I35XEP26UEZY8S8UZLEA1IY3E","","57.900000005960464","img/food5.png","74","58.599999994039536","1","1","false","2","2","1,0.5,0,1,0.5,0,0.5,0,1","1,0.5,0,1,0.5,0,0.5,0,1","1",""
"","html-keyboard-response","93","85607","0.0-136.0","3GNCZX450J9A3LJD72G1TZ2WKOJAPT","A13TYYTK5MARJ1","3RBI0I35XEP26UEZY8S8UZLEA1IY3E","","null","<img src=""img/food5.png"" style=""width:200px; border:14px solid green;"">","null","","","","","","","","","",""
"","image-keyboard-response","94","85674","0.0-138.0","3GNCZX450J9A3LJD72G1TZ2WKOJAPT","A13TYYTK5MARJ1","3RBI0I35XEP26UEZY8S8UZLEA1IY3E","","65.7000000178814","img/food4.png","74","66.2999999821186","1","1","false","1","2","1,0.5,0,1,0.5,0,0.5,0,1","1,0.5,0,1,0.5,0,0.5,0,1","1",""
"","html-keyboard-response","95","85975","0.0-139.0","3GNCZX450J9A3LJD72G1TZ2WKOJAPT","A13TYYTK5MARJ1","3RBI0I35XEP26UEZY8S8UZLEA1IY3E","","null","<img src=""img/food4.png"" style=""width:200px; border:14px solid green;"">","null","","","","","","","","","",""
"","image-keyboard-response","96","86065","0.0-141.0","3GNCZX450J9A3LJD72G1TZ2WKOJAPT","A13TYYTK5MARJ1","3RBI0I35XEP26UEZY8S8UZLEA1IY3E","","89.2999999821186","img/food2.png","74","90","1","0","false","3","2","1,0.5,0,1,0.5,0,0.5,0,1","1,0.5,0,1,0.5,0,0.5,0,1","1",""
"","html-keyboard-response","97","86367","0.0-142.0","3GNCZX450J9A3LJD72G1TZ2WKOJAPT","A13TYYTK5MARJ1","3RBI0I35XEP26UEZY8S8UZLEA1IY3E","","null","<img src=""img/food2.png"" style=""width:200px;border:14px solid red;"">","null","","","","","","","","","",""
"","image-keyboard-response","98","86458","0.0-144.0","3GNCZX450J9A3LJD72G1TZ2WKOJAPT","A13TYYTK5MARJ1","3RBI0I35XEP26UEZY8S8UZLEA1IY3E","","90","img/food5.png","74","90.5","1","1","false","2","2","1,0.5,0,1,0.5,0,0.5,0,1","1,0.5,0,1,0.5,0,0.5,0,1","1",""
"","html-keyboard-response","99","86759","0.0-145.0","3GNCZX450J9A3LJD72G1TZ2WKOJAPT","A13TYYTK5MARJ1","3RBI0I35XEP26UEZY8S8UZLEA1IY3E","","null","<img src=""img/food5.png"" style=""width:200px; border:14px solid green;"">","null","","","","","","","","","",""
"","image-keyboard-response","100","86866","0.0-147.0","3GNCZX450J9A3LJD72G1TZ2WKOJAPT","A13TYYTK5MARJ1","3RBI0I35XEP26UEZY8S8UZLEA1IY3E","","105.59999999403954","img/food4.png","74","106.09999999403954","1","1","false","1","2","1,0.5,0,1,0.5,0,0.5,0,1","1,0.5,0,1,0.5,0,0.5,0,1","1",""
"","html-keyboard-response","101","87167","0.0-148.0","3GNCZX450J9A3LJD72G1TZ2WKOJAPT","A13TYYTK5MARJ1","3RBI0I35XEP26UEZY8S8UZLEA1IY3E","","null","<img src=""img/food4.png"" style=""width:200px; border:14px solid green;"">","null","","","","","","","","","",""
"","image-keyboard-response","102","87329","0.0-150.0","3GNCZX450J9A3LJD72G1TZ2WKOJAPT","A13TYYTK5MARJ1","3RBI0I35XEP26UEZY8S8UZLEA1IY3E","","161.7000000178814","img/food5.png","74","162.30000001192093","1","1","false","2","2","1,0.5,0,1,0.5,0,0.5,0,1","1,0.5,0,1,0.5,0,0.5,0,1","1",""
"","html-keyboard-response","103","87631","0.0-151.0","3GNCZX450J9A3LJD72G1TZ2WKOJAPT","A13TYYTK5MARJ1","3RBI0I35XEP26UEZY8S8UZLEA1IY3E","","null","<img src=""img/food5.png"" style=""width:200px; border:14px solid green;"">","null","","","","","","","","","",""
"","image-keyboard-response","104","87722","0.0-153.0","3GNCZX450J9A3LJD72G1TZ2WKOJAPT","A13TYYTK5MARJ1","3RBI0I35XEP26UEZY8S8UZLEA1IY3E","","89.90000000596046","img/food2.png","74","90.5","1","1","false","3","2","1,0.5,0,1,0.5,0,0.5,0,1","1,0.5,0,1,0.5,0,0.5,0,1","1",""
"","html-keyboard-response","105","88023","0.0-154.0","3GNCZX450J9A3LJD72G1TZ2WKOJAPT","A13TYYTK5MARJ1","3RBI0I35XEP26UEZY8S8UZLEA1IY3E","","null","<img src=""img/food2.png"" style=""width:200px; border:14px solid green;"">","null","","","","","","","","","",""
"","image-keyboard-response","106","88306","0.0-156.0","3GNCZX450J9A3LJD72G1TZ2WKOJAPT","A13TYYTK5MARJ1","3RBI0I35XEP26UEZY8S8UZLEA1IY3E","","281.30000001192093","img/food2.png","74","281.7999999821186","1","0","false","3","2","1,0.5,0,1,0.5,0,0.5,0,1","1,0.5,0,1,0.5,0,0.5,0,1","1",""
"","html-keyboard-response","107","88606","0.0-157.0","3GNCZX450J9A3LJD72G1TZ2WKOJAPT","A13TYYTK5MARJ1","3RBI0I35XEP26UEZY8S8UZLEA1IY3E","","null","<img src=""img/food2.png"" style=""width:200px;border:14px solid red;"">","null","","","","","","","","","",""
"","image-keyboard-response","108","88650","0.0-159.0","3GNCZX450J9A3LJD72G1TZ2WKOJAPT","A13TYYTK5MARJ1","3RBI0I35XEP26UEZY8S8UZLEA1IY3E","","42.30000001192093","img/food4.png","74","42.89999997615814","1","1","false","1","2","1,0.5,0,1,0.5,0,0.5,0,1","1,0.5,0,1,0.5,0,0.5,0,1","1",""
"","html-keyboard-response","109","88951","0.0-160.0","3GNCZX450J9A3LJD72G1TZ2WKOJAPT","A13TYYTK5MARJ1","3RBI0I35XEP26UEZY8S8UZLEA1IY3E","","null","<img src=""img/food4.png"" style=""width:200px; border:14px solid green;"">","null","","","","","","","","","",""
"","image-keyboard-response","110","89074","0.0-162.0","3GNCZX450J9A3LJD72G1TZ2WKOJAPT","A13TYYTK5MARJ1","3RBI0I35XEP26UEZY8S8UZLEA1IY3E","","121.5","img/food2.png","74","122.2999999821186","1","1","false","3","2","1,0.5,0,1,0.5,0,0.5,0,1","1,0.5,0,1,0.5,0,0.5,0,1","1",""
"","html-keyboard-response","111","89374","0.0-163.0","3GNCZX450J9A3LJD72G1TZ2WKOJAPT","A13TYYTK5MARJ1","3RBI0I35XEP26UEZY8S8UZLEA1IY3E","","null","<img src=""img/food2.png"" style=""width:200px; border:14px solid green;"">","null","","","","","","","","","",""
"","image-keyboard-response","112","89506","0.0-165.0","3GNCZX450J9A3LJD72G1TZ2WKOJAPT","A13TYYTK5MARJ1","3RBI0I35XEP26UEZY8S8UZLEA1IY3E","","130.10000002384186","img/food2.png","74","130.7999999821186","1","1","false","3","2","1,0.5,0,1,0.5,0,0.5,0,1","1,0.5,0,1,0.5,0,0.5,0,1","1",""
"","html-keyboard-response","113","89807","0.0-166.0","3GNCZX450J9A3LJD72G1TZ2WKOJAPT","A13TYYTK5MARJ1","3RBI0I35XEP26UEZY8S8UZLEA1IY3E","","null","<img src=""img/food2.png"" style=""width:200px; border:14px solid green;"">","null","","","","","","","","","",""
"","image-keyboard-response","114","89865","0.0-168.0","3GNCZX450J9A3LJD72G1TZ2WKOJAPT","A13TYYTK5MARJ1","3RBI0I35XEP26UEZY8S8UZLEA1IY3E","","57.5","img/food2.png","74","58.19999998807907","1","0","false","3","2","1,0.5,0,1,0.5,0,0.5,0,1","1,0.5,0,1,0.5,0,0.5,0,1","1",""
"","html-keyboard-response","115","90168","0.0-169.0","3GNCZX450J9A3LJD72G1TZ2WKOJAPT","A13TYYTK5MARJ1","3RBI0I35XEP26UEZY8S8UZLEA1IY3E","","null","<img src=""img/food2.png"" style=""width:200px;border:14px solid red;"">","null","","","","","","","","","",""
"","image-keyboard-response","116","90345","0.0-171.0","3GNCZX450J9A3LJD72G1TZ2WKOJAPT","A13TYYTK5MARJ1","3RBI0I35XEP26UEZY8S8UZLEA1IY3E","","176.5","img/food2.png","74","177","1","0","false","3","2","1,0.5,0,1,0.5,0,0.5,0,1","1,0.5,0,1,0.5,0,0.5,0,1","1",""
"","html-keyboard-response","117","90647","0.0-172.0","3GNCZX450J9A3LJD72G1TZ2WKOJAPT","A13TYYTK5MARJ1","3RBI0I35XEP26UEZY8S8UZLEA1IY3E","","null","<img src=""img/food2.png"" style=""width:200px;border:14px solid red;"">","null","","","","","","","","","",""
"","image-keyboard-response","118","90722","0.0-174.0","3GNCZX450J9A3LJD72G1TZ2WKOJAPT","A13TYYTK5MARJ1","3RBI0I35XEP26UEZY8S8UZLEA1IY3E","","74.10000002384186","img/food2.png","74","74.7999999821186","1","0","false","3","2","1,0.5,0,1,0.5,0,0.5,0,1","1,0.5,0,1,0.5,0,0.5,0,1","1",""
"","html-keyboard-response","119","91023","0.0-175.0","3GNCZX450J9A3LJD72G1TZ2WKOJAPT","A13TYYTK5MARJ1","3RBI0I35XEP26UEZY8S8UZLEA1IY3E","","null","<img src=""img/food2.png"" style=""width:200px;border:14px solid red;"">","null","","","","","","","","","",""
"","image-keyboard-response","120","91521","0.0-177.0","3GNCZX450J9A3LJD72G1TZ2WKOJAPT","A13TYYTK5MARJ1","3RBI0I35XEP26UEZY8S8UZLEA1IY3E","","497.2999999821186","img/food5.png","74","498","1","1","false","2","2","1,0.5,0,1,0.5,0,0.5,0,1","1,0.5,0,1,0.5,0,0.5,0,1","1",""
"","html-keyboard-response","121","91823","0.0-178.0","3GNCZX450J9A3LJD72G1TZ2WKOJAPT","A13TYYTK5MARJ1","3RBI0I35XEP26UEZY8S8UZLEA1IY3E","","null","<img src=""img/food5.png"" style=""width:200px; border:14px solid green;"">","null","","","","","","","","","",""
"","image-keyboard-response","122","91954","0.0-180.0","3GNCZX450J9A3LJD72G1TZ2WKOJAPT","A13TYYTK5MARJ1","3RBI0I35XEP26UEZY8S8UZLEA1IY3E","","129.40000000596046","img/food4.png","74","130.2000000178814","1","1","false","1","2","1,0.5,0,1,0.5,0,0.5,0,1","1,0.5,0,1,0.5,0,0.5,0,1","1",""
"","html-keyboard-response","123","92255","0.0-181.0","3GNCZX450J9A3LJD72G1TZ2WKOJAPT","A13TYYTK5MARJ1","3RBI0I35XEP26UEZY8S8UZLEA1IY3E","","null","<img src=""img/food4.png"" style=""width:200px; border:14px solid green;"">","null","","","","","","","","","",""
"","image-keyboard-response","124","92553","0.0-183.0","3GNCZX450J9A3LJD72G1TZ2WKOJAPT","A13TYYTK5MARJ1","3RBI0I35XEP26UEZY8S8UZLEA1IY3E","","297.59999999403954","img/food4.png","74","298.40000000596046","1","1","false","1","2","1,0.5,0,1,0.5,0,0.5,0,1","1,0.5,0,1,0.5,0,0.5,0,1","1",""
"","html-keyboard-response","125","92855","0.0-184.0","3GNCZX450J9A3LJD72G1TZ2WKOJAPT","A13TYYTK5MARJ1","3RBI0I35XEP26UEZY8S8UZLEA1IY3E","","null","<img src=""img/food4.png"" style=""width:200px; border:14px solid green;"">","null","","","","","","","","","",""
"","image-keyboard-response","126","93017","0.0-186.0","3GNCZX450J9A3LJD72G1TZ2WKOJAPT","A13TYYTK5MARJ1","3RBI0I35XEP26UEZY8S8UZLEA1IY3E","","162","img/food5.png","74","162.5","1","1","false","2","2","1,0.5,0,1,0.5,0,0.5,0,1","1,0.5,0,1,0.5,0,0.5,0,1","1",""
"","html-keyboard-response","127","93319","0.0-187.0","3GNCZX450J9A3LJD72G1TZ2WKOJAPT","A13TYYTK5MARJ1","3RBI0I35XEP26UEZY8S8UZLEA1IY3E","","null","<img src=""img/food5.png"" style=""width:200px; border:14px solid green;"">","null","","","","","","","","","",""
"","image-keyboard-response","128","93634","0.0-189.0","3GNCZX450J9A3LJD72G1TZ2WKOJAPT","A13TYYTK5MARJ1","3RBI0I35XEP26UEZY8S8UZLEA1IY3E","","314.10000002384186","img/food5.png","74","314.69999998807907","1","1","false","2","2","1,0.5,0,1,0.5,0,0.5,0,1","1,0.5,0,1,0.5,0,0.5,0,1","1",""
"","html-keyboard-response","129","93935","0.0-190.0","3GNCZX450J9A3LJD72G1TZ2WKOJAPT","A13TYYTK5MARJ1","3RBI0I35XEP26UEZY8S8UZLEA1IY3E","","null","<img src=""img/food5.png"" style=""width:200px; border:14px solid green;"">","null","","","","","","","","","",""
"","image-keyboard-response","130","94345","0.0-192.0","3GNCZX450J9A3LJD72G1TZ2WKOJAPT","A13TYYTK5MARJ1","3RBI0I35XEP26UEZY8S8UZLEA1IY3E","","409.30000001192093","img/food4.png","74","409.90000000596046","1","1","false","1","2","1,0.5,0,1,0.5,0,0.5,0,1","1,0.5,0,1,0.5,0,0.5,0,1","1",""
"","html-keyboard-response","131","94647","0.0-193.0","3GNCZX450J9A3LJD72G1TZ2WKOJAPT","A13TYYTK5MARJ1","3RBI0I35XEP26UEZY8S8UZLEA1IY3E","","null","<img src=""img/food4.png"" style=""width:200px; border:14px solid green;"">","null","","","","","","","","","",""
"","image-keyboard-response","132","95050","0.0-195.0","3GNCZX450J9A3LJD72G1TZ2WKOJAPT","A13TYYTK5MARJ1","3RBI0I35XEP26UEZY8S8UZLEA1IY3E","","402.10000002384186","img/food5.png","74","402.69999998807907","1","1","false","2","2","1,0.5,0,1,0.5,0,0.5,0,1","1,0.5,0,1,0.5,0,0.5,0,1","1",""
"","html-keyboard-response","133","95352","0.0-196.0","3GNCZX450J9A3LJD72G1TZ2WKOJAPT","A13TYYTK5MARJ1","3RBI0I35XEP26UEZY8S8UZLEA1IY3E","","null","<img src=""img/food5.png"" style=""width:200px; border:14px solid green;"">","null","","","","","","","","","",""
"","image-keyboard-response","134","95650","0.0-198.0","3GNCZX450J9A3LJD72G1TZ2WKOJAPT","A13TYYTK5MARJ1","3RBI0I35XEP26UEZY8S8UZLEA1IY3E","","297","img/food5.png","74","297.59999999403954","1","1","false","2","2","1,0.5,0,1,0.5,0,0.5,0,1","1,0.5,0,1,0.5,0,0.5,0,1","1",""
"","html-keyboard-response","135","95955","0.0-199.0","3GNCZX450J9A3LJD72G1TZ2WKOJAPT","A13TYYTK5MARJ1","3RBI0I35XEP26UEZY8S8UZLEA1IY3E","","null","<img src=""img/food5.png"" style=""width:200px; border:14px solid green;"">","null","","","","","","","","","",""
"","image-keyboard-response","136","96330","0.0-201.0","3GNCZX450J9A3LJD72G1TZ2WKOJAPT","A13TYYTK5MARJ1","3RBI0I35XEP26UEZY8S8UZLEA1IY3E","","373.7000000178814","img/food4.png","74","374.30000001192093","1","1","false","1","2","1,0.5,0,1,0.5,0,0.5,0,1","1,0.5,0,1,0.5,0,0.5,0,1","1",""
"","html-keyboard-response","137","96639","0.0-202.0","3GNCZX450J9A3LJD72G1TZ2WKOJAPT","A13TYYTK5MARJ1","3RBI0I35XEP26UEZY8S8UZLEA1IY3E","","null","<img src=""img/food4.png"" style=""width:200px; border:14px solid green;"">","null","","","","","","","","","",""
"","image-keyboard-response","138","96953","0.0-204.0","3GNCZX450J9A3LJD72G1TZ2WKOJAPT","A13TYYTK5MARJ1","3RBI0I35XEP26UEZY8S8UZLEA1IY3E","","313.30000001192093","img/food4.png","74","314","1","1","false","1","2","1,0.5,0,1,0.5,0,0.5,0,1","1,0.5,0,1,0.5,0,0.5,0,1","1",""
"","html-keyboard-response","139","97255","0.0-205.0","3GNCZX450J9A3LJD72G1TZ2WKOJAPT","A13TYYTK5MARJ1","3RBI0I35XEP26UEZY8S8UZLEA1IY3E","","null","<img src=""img/food4.png"" style=""width:200px; border:14px solid green;"">","null","","","","","","","","","",""
"","image-keyboard-response","140","97673","0.0-207.0","3GNCZX450J9A3LJD72G1TZ2WKOJAPT","A13TYYTK5MARJ1","3RBI0I35XEP26UEZY8S8UZLEA1IY3E","","417.40000000596046","img/food5.png","74","417.90000000596046","1","1","false","2","2","1,0.5,0,1,0.5,0,0.5,0,1","1,0.5,0,1,0.5,0,0.5,0,1","1",""
"","html-keyboard-response","141","97975","0.0-208.0","3GNCZX450J9A3LJD72G1TZ2WKOJAPT","A13TYYTK5MARJ1","3RBI0I35XEP26UEZY8S8UZLEA1IY3E","","null","<img src=""img/food5.png"" style=""width:200px; border:14px solid green;"">","null","","","","","","","","","",""
"","image-keyboard-response","142","98306","0.0-210.0","3GNCZX450J9A3LJD72G1TZ2WKOJAPT","A13TYYTK5MARJ1","3RBI0I35XEP26UEZY8S8UZLEA1IY3E","","329.30000001192093","img/food2.png","74","329.90000000596046","1","1","false","3","2","1,0.5,0,1,0.5,0,0.5,0,1","1,0.5,0,1,0.5,0,0.5,0,1","1",""
"","html-keyboard-response","143","98607","0.0-211.0","3GNCZX450J9A3LJD72G1TZ2WKOJAPT","A13TYYTK5MARJ1","3RBI0I35XEP26UEZY8S8UZLEA1IY3E","","null","<img src=""img/food2.png"" style=""width:200px; border:14px solid green;"">","null","","","","","","","","","",""
"","image-keyboard-response","144","98882","0.0-213.0","3GNCZX450J9A3LJD72G1TZ2WKOJAPT","A13TYYTK5MARJ1","3RBI0I35XEP26UEZY8S8UZLEA1IY3E","","273.80000001192093","img/food4.png","74","274.40000000596046","1","1","false","1","2","1,0.5,0,1,0.5,0,0.5,0,1","1,0.5,0,1,0.5,0,0.5,0,1","1",""
"","html-keyboard-response","145","99183","0.0-214.0","3GNCZX450J9A3LJD72G1TZ2WKOJAPT","A13TYYTK5MARJ1","3RBI0I35XEP26UEZY8S8UZLEA1IY3E","","null","<img src=""img/food4.png"" style=""width:200px; border:14px solid green;"">","null","","","","","","","","","",""
"","image-keyboard-response","146","99353","0.0-216.0","3GNCZX450J9A3LJD72G1TZ2WKOJAPT","A13TYYTK5MARJ1","3RBI0I35XEP26UEZY8S8UZLEA1IY3E","","169.7999999821186","img/food4.png","74","170.5","1","1","false","1","2","1,0.5,0,1,0.5,0,0.5,0,1","1,0.5,0,1,0.5,0,0.5,0,1","1",""
"","html-keyboard-response","147","99654","0.0-217.0","3GNCZX450J9A3LJD72G1TZ2WKOJAPT","A13TYYTK5MARJ1","3RBI0I35XEP26UEZY8S8UZLEA1IY3E","","null","<img src=""img/food4.png"" style=""width:200px; border:14px solid green;"">","null","","","","","","","","","",""
"","image-keyboard-response","148","100074","0.0-219.0","3GNCZX450J9A3LJD72G1TZ2WKOJAPT","A13TYYTK5MARJ1","3RBI0I35XEP26UEZY8S8UZLEA1IY3E","","418.2000000178814","img/food2.png","74","418.90000000596046","1","0","false","3","2","1,0.5,0,1,0.5,0,0.5,0,1","1,0.5,0,1,0.5,0,0.5,0,1","1",""
"","html-keyboard-response","149","100375","0.0-220.0","3GNCZX450J9A3LJD72G1TZ2WKOJAPT","A13TYYTK5MARJ1","3RBI0I35XEP26UEZY8S8UZLEA1IY3E","","null","<img src=""img/food2.png"" style=""width:200px;border:14px solid red;"">","null","","","","","","","","","",""
"","image-keyboard-response","150","100642","0.0-222.0","3GNCZX450J9A3LJD72G1TZ2WKOJAPT","A13TYYTK5MARJ1","3RBI0I35XEP26UEZY8S8UZLEA1IY3E","","266","img/food5.png","74","266.69999998807907","1","1","false","2","2","1,0.5,0,1,0.5,0,0.5,0,1","1,0.5,0,1,0.5,0,0.5,0,1","1",""
"","html-keyboard-response","151","100943","0.0-223.0","3GNCZX450J9A3LJD72G1TZ2WKOJAPT","A13TYYTK5MARJ1","3RBI0I35XEP26UEZY8S8UZLEA1IY3E","","null","<img src=""img/food5.png"" style=""width:200px; border:14px solid green;"">","null","","","","","","","","","",""
"","image-keyboard-response","152","101058","0.0-225.0","3GNCZX450J9A3LJD72G1TZ2WKOJAPT","A13TYYTK5MARJ1","3RBI0I35XEP26UEZY8S8UZLEA1IY3E","","113.5","img/food4.png","74","114.09999999403954","1","1","false","1","2","1,0.5,0,1,0.5,0,0.5,0,1","1,0.5,0,1,0.5,0,0.5,0,1","1",""
"","html-keyboard-response","153","101359","0.0-226.0","3GNCZX450J9A3LJD72G1TZ2WKOJAPT","A13TYYTK5MARJ1","3RBI0I35XEP26UEZY8S8UZLEA1IY3E","","null","<img src=""img/food4.png"" style=""width:200px; border:14px solid green;"">","null","","","","","","","","","",""
"","image-keyboard-response","154","101801","0.0-228.0","3GNCZX450J9A3LJD72G1TZ2WKOJAPT","A13TYYTK5MARJ1","3RBI0I35XEP26UEZY8S8UZLEA1IY3E","","441.80000001192093","img/food2.png","76","442.5","3","1","false","3","2","1,0.5,0,1,0.5,0,0.5,0,1","1,0.5,0,1,0.5,0,0.5,0,1","1",""
"","html-keyboard-response","155","102103","0.0-229.0","3GNCZX450J9A3LJD72G1TZ2WKOJAPT","A13TYYTK5MARJ1","3RBI0I35XEP26UEZY8S8UZLEA1IY3E","","null","<img src=""img/food2.png"" style=""width:200px; border:14px solid green;"">","null","","","","","","","","","",""
"","image-keyboard-response","156","102506","0.0-231.0","3GNCZX450J9A3LJD72G1TZ2WKOJAPT","A13TYYTK5MARJ1","3RBI0I35XEP26UEZY8S8UZLEA1IY3E","","401.80000001192093","img/food5.png","74","402.2000000178814","1","1","false","2","2","1,0.5,0,1,0.5,0,0.5,0,1","1,0.5,0,1,0.5,0,0.5,0,1","1",""
"","html-keyboard-response","157","102808","0.0-232.0","3GNCZX450J9A3LJD72G1TZ2WKOJAPT","A13TYYTK5MARJ1","3RBI0I35XEP26UEZY8S8UZLEA1IY3E","","null","<img src=""img/food5.png"" style=""width:200px; border:14px solid green;"">","null","","","","","","","","","",""
"","image-keyboard-response","158","103065","0.0-234.0","3GNCZX450J9A3LJD72G1TZ2WKOJAPT","A13TYYTK5MARJ1","3RBI0I35XEP26UEZY8S8UZLEA1IY3E","","256.89999997615814","img/food4.png","74","257.59999999403954","1","1","false","1","2","1,0.5,0,1,0.5,0,0.5,0,1","1,0.5,0,1,0.5,0,0.5,0,1","1",""
"","html-keyboard-response","159","103366","0.0-235.0","3GNCZX450J9A3LJD72G1TZ2WKOJAPT","A13TYYTK5MARJ1","3RBI0I35XEP26UEZY8S8UZLEA1IY3E","","null","<img src=""img/food4.png"" style=""width:200px; border:14px solid green;"">","null","","","","","","","","","",""
"","image-keyboard-response","160","103689","0.0-237.0","3GNCZX450J9A3LJD72G1TZ2WKOJAPT","A13TYYTK5MARJ1","3RBI0I35XEP26UEZY8S8UZLEA1IY3E","","322.40000000596046","img/food4.png","74","323","1","1","false","1","2","1,0.5,0,1,0.5,0,0.5,0,1","1,0.5,0,1,0.5,0,0.5,0,1","1",""
"","html-keyboard-response","161","103991","0.0-238.0","3GNCZX450J9A3LJD72G1TZ2WKOJAPT","A13TYYTK5MARJ1","3RBI0I35XEP26UEZY8S8UZLEA1IY3E","","null","<img src=""img/food4.png"" style=""width:200px; border:14px solid green;"">","null","","","","","","","","","",""
"","image-keyboard-response","162","104305","0.0-240.0","3GNCZX450J9A3LJD72G1TZ2WKOJAPT","A13TYYTK5MARJ1","3RBI0I35XEP26UEZY8S8UZLEA1IY3E","","313.2999999821186","img/food4.png","74","313.80000001192093","1","1","false","1","2","1,0.5,0,1,0.5,0,0.5,0,1","1,0.5,0,1,0.5,0,0.5,0,1","1",""
"","html-keyboard-response","163","104607","0.0-241.0","3GNCZX450J9A3LJD72G1TZ2WKOJAPT","A13TYYTK5MARJ1","3RBI0I35XEP26UEZY8S8UZLEA1IY3E","","null","<img src=""img/food4.png"" style=""width:200px; border:14px solid green;"">","null","","","","","","","","","",""
"","image-keyboard-response","164","104914","0.0-243.0","3GNCZX450J9A3LJD72G1TZ2WKOJAPT","A13TYYTK5MARJ1","3RBI0I35XEP26UEZY8S8UZLEA1IY3E","","306","img/food4.png","74","307.19999998807907","1","1","false","1","2","1,0.5,0,1,0.5,0,0.5,0,1","1,0.5,0,1,0.5,0,0.5,0,1","1",""
"","html-keyboard-response","165","105216","0.0-244.0","3GNCZX450J9A3LJD72G1TZ2WKOJAPT","A13TYYTK5MARJ1","3RBI0I35XEP26UEZY8S8UZLEA1IY3E","","null","<img src=""img/food4.png"" style=""width:200px; border:14px solid green;"">","null","","","","","","","","","",""
"","image-keyboard-response","166","105498","0.0-246.0","3GNCZX450J9A3LJD72G1TZ2WKOJAPT","A13TYYTK5MARJ1","3RBI0I35XEP26UEZY8S8UZLEA1IY3E","","280.5","img/food4.png","74","281.09999999403954","1","1","false","1","2","1,0.5,0,1,0.5,0,0.5,0,1","1,0.5,0,1,0.5,0,0.5,0,1","1",""
"","html-keyboard-response","167","105799","0.0-247.0","3GNCZX450J9A3LJD72G1TZ2WKOJAPT","A13TYYTK5MARJ1","3RBI0I35XEP26UEZY8S8UZLEA1IY3E","","null","<img src=""img/food4.png"" style=""width:200px; border:14px solid green;"">","null","","","","","","","","","",""
"","image-keyboard-response","168","106089","0.0-249.0","3GNCZX450J9A3LJD72G1TZ2WKOJAPT","A13TYYTK5MARJ1","3RBI0I35XEP26UEZY8S8UZLEA1IY3E","","289.5","img/food4.png","74","290","1","1","false","1","2","1,0.5,0,1,0.5,0,0.5,0,1","1,0.5,0,1,0.5,0,0.5,0,1","1",""
"","html-keyboard-response","169","106390","0.0-250.0","3GNCZX450J9A3LJD72G1TZ2WKOJAPT","A13TYYTK5MARJ1","3RBI0I35XEP26UEZY8S8UZLEA1IY3E","","null","<img src=""img/food4.png"" style=""width:200px; border:14px solid green;"">","null","","","","","","","","","",""
"","image-keyboard-response","170","106665","0.0-252.0","3GNCZX450J9A3LJD72G1TZ2WKOJAPT","A13TYYTK5MARJ1","3RBI0I35XEP26UEZY8S8UZLEA1IY3E","","274.40000000596046","img/food4.png","74","274.90000000596046","1","1","false","1","2","1,0.5,0,1,0.5,0,0.5,0,1","1,0.5,0,1,0.5,0,0.5,0,1","1",""
"","html-keyboard-response","171","106967","0.0-253.0","3GNCZX450J9A3LJD72G1TZ2WKOJAPT","A13TYYTK5MARJ1","3RBI0I35XEP26UEZY8S8UZLEA1IY3E","","null","<img src=""img/food4.png"" style=""width:200px; border:14px solid green;"">","null","","","","","","","","","",""
"","image-keyboard-response","172","107266","0.0-255.0","3GNCZX450J9A3LJD72G1TZ2WKOJAPT","A13TYYTK5MARJ1","3RBI0I35XEP26UEZY8S8UZLEA1IY3E","","297.60000002384186","img/food4.png","74","298.2999999821186","1","1","false","1","2","1,0.5,0,1,0.5,0,0.5,0,1","1,0.5,0,1,0.5,0,0.5,0,1","1",""
"","html-keyboard-response","173","107567","0.0-256.0","3GNCZX450J9A3LJD72G1TZ2WKOJAPT","A13TYYTK5MARJ1","3RBI0I35XEP26UEZY8S8UZLEA1IY3E","","null","<img src=""img/food4.png"" style=""width:200px; border:14px solid green;"">","null","","","","","","","","","",""
"","image-keyboard-response","174","107801","0.0-258.0","3GNCZX450J9A3LJD72G1TZ2WKOJAPT","A13TYYTK5MARJ1","3RBI0I35XEP26UEZY8S8UZLEA1IY3E","","233.39999997615814","img/food2.png","74","234.09999999403954","1","1","false","3","2","1,0.5,0,1,0.5,0,0.5,0,1","1,0.5,0,1,0.5,0,0.5,0,1","1",""
"","html-keyboard-response","175","108103","0.0-259.0","3GNCZX450J9A3LJD72G1TZ2WKOJAPT","A13TYYTK5MARJ1","3RBI0I35XEP26UEZY8S8UZLEA1IY3E","","null","<img src=""img/food2.png"" style=""width:200px; border:14px solid green;"">","null","","","","","","","","","",""
"","image-keyboard-response","176","108369","0.0-261.0","3GNCZX450J9A3LJD72G1TZ2WKOJAPT","A13TYYTK5MARJ1","3RBI0I35XEP26UEZY8S8UZLEA1IY3E","","265.2999999821186","img/food5.png","74","266","1","1","false","2","2","1,0.5,0,1,0.5,0,0.5,0,1","1,0.5,0,1,0.5,0,0.5,0,1","1",""
"","html-keyboard-response","177","108671","0.0-262.0","3GNCZX450J9A3LJD72G1TZ2WKOJAPT","A13TYYTK5MARJ1","3RBI0I35XEP26UEZY8S8UZLEA1IY3E","","null","<img src=""img/food5.png"" style=""width:200px; border:14px solid green;"">","null","","","","","","","","","",""
"","image-keyboard-response","178","108889","0.0-264.0","3GNCZX450J9A3LJD72G1TZ2WKOJAPT","A13TYYTK5MARJ1","3RBI0I35XEP26UEZY8S8UZLEA1IY3E","","217.89999997615814","img/food2.png","74","218.5","1","0","false","3","2","1,0.5,0,1,0.5,0,0.5,0,1","1,0.5,0,1,0.5,0,0.5,0,1","1",""
"","html-keyboard-response","179","109190","0.0-265.0","3GNCZX450J9A3LJD72G1TZ2WKOJAPT","A13TYYTK5MARJ1","3RBI0I35XEP26UEZY8S8UZLEA1IY3E","","null","<img src=""img/food2.png"" style=""width:200px;border:14px solid red;"">","null","","","","","","","","","",""
"","image-keyboard-response","180","109457","0.0-267.0","3GNCZX450J9A3LJD72G1TZ2WKOJAPT","A13TYYTK5MARJ1","3RBI0I35XEP26UEZY8S8UZLEA1IY3E","","266.39999997615814","img/food5.png","74","267.09999999403954","1","1","false","2","2","1,0.5,0,1,0.5,0,0.5,0,1","1,0.5,0,1,0.5,0,0.5,0,1","1",""
"","html-keyboard-response","181","109760","0.0-268.0","3GNCZX450J9A3LJD72G1TZ2WKOJAPT","A13TYYTK5MARJ1","3RBI0I35XEP26UEZY8S8UZLEA1IY3E","","null","<img src=""img/food5.png"" style=""width:200px; border:14px solid green;"">","null","","","","","","","","","",""
"","image-keyboard-response","182","109929","0.0-270.0","3GNCZX450J9A3LJD72G1TZ2WKOJAPT","A13TYYTK5MARJ1","3RBI0I35XEP26UEZY8S8UZLEA1IY3E","","168.89999997615814","img/food4.png","74","169.5","1","1","false","1","2","1,0.5,0,1,0.5,0,0.5,0,1","1,0.5,0,1,0.5,0,0.5,0,1","1",""
"","html-keyboard-response","183","110231","0.0-271.0","3GNCZX450J9A3LJD72G1TZ2WKOJAPT","A13TYYTK5MARJ1","3RBI0I35XEP26UEZY8S8UZLEA1IY3E","","null","<img src=""img/food4.png"" style=""width:200px; border:14px solid green;"">","null","","","","","","","","","",""
"","instructions","184","121865","0.0-273.0","3GNCZX450J9A3LJD72G1TZ2WKOJAPT","A13TYYTK5MARJ1","3RBI0I35XEP26UEZY8S8UZLEA1IY3E","[{""page_index"":0,""viewing_time"":10665.59999999404},{""page_index"":1,""viewing_time"":968.2000000178814}]","11633.90000000596","","","","","","","","","","","",""
"","image-keyboard-response","185","122521","0.0-274.0","3GNCZX450J9A3LJD72G1TZ2WKOJAPT","A13TYYTK5MARJ1","3RBI0I35XEP26UEZY8S8UZLEA1IY3E","","654.9000000059605","img/food1.png","74","655.6999999880791","1","1","","1","1","1,0.5,0,1,0.5,0,0.5,0,1","0.5,0,1,0.5,0,1,0,1,0.5","2",""
"","html-keyboard-response","186","122823","0.0-275.0","3GNCZX450J9A3LJD72G1TZ2WKOJAPT","A13TYYTK5MARJ1","3RBI0I35XEP26UEZY8S8UZLEA1IY3E","","null","<img src=""img/food1.png"" style=""width:200px; border:14px solid green;"">","null","","","","","","","","","",""
"","image-keyboard-response","187","123545","0.0-276.0","3GNCZX450J9A3LJD72G1TZ2WKOJAPT","A13TYYTK5MARJ1","3RBI0I35XEP26UEZY8S8UZLEA1IY3E","","721.0999999940395","img/food3.png","75","721.8000000119209","2","0","","2","1","1,0.5,0,1,0.5,0,0.5,0,1","0.5,0,1,0.5,0,1,0,1,0.5","2",""
"","html-keyboard-response","188","123846","0.0-277.0","3GNCZX450J9A3LJD72G1TZ2WKOJAPT","A13TYYTK5MARJ1","3RBI0I35XEP26UEZY8S8UZLEA1IY3E","","null","<img src=""img/food3.png"" style=""width:200px;border:14px solid red;"">","null","","","","","","","","","",""
"","image-keyboard-response","189","125385","0.0-278.0","3GNCZX450J9A3LJD72G1TZ2WKOJAPT","A13TYYTK5MARJ1","3RBI0I35XEP26UEZY8S8UZLEA1IY3E","","1537.7999999821186","img/food6.png","75","1538.5999999940395","2","1","","3","1","1,0.5,0,1,0.5,0,0.5,0,1","0.5,0,1,0.5,0,1,0,1,0.5","2",""
"","html-keyboard-response","190","125686","0.0-279.0","3GNCZX450J9A3LJD72G1TZ2WKOJAPT","A13TYYTK5MARJ1","3RBI0I35XEP26UEZY8S8UZLEA1IY3E","","null","<img src=""img/food6.png"" style=""width:200px; border:14px solid green;"">","null","","","","","","","","","",""
"","image-keyboard-response","191","126657","0.0-280.0","3GNCZX450J9A3LJD72G1TZ2WKOJAPT","A13TYYTK5MARJ1","3RBI0I35XEP26UEZY8S8UZLEA1IY3E","","969.7999999821186","img/food3.png","76","970.4000000059605","3","1","","2","1","1,0.5,0,1,0.5,0,0.5,0,1","0.5,0,1,0.5,0,1,0,1,0.5","2",""
"","html-keyboard-response","192","126958","0.0-281.0","3GNCZX450J9A3LJD72G1TZ2WKOJAPT","A13TYYTK5MARJ1","3RBI0I35XEP26UEZY8S8UZLEA1IY3E","","null","<img src=""img/food3.png"" style=""width:200px; border:14px solid green;"">","null","","","","","","","","","",""
"","image-keyboard-response","193","127705","0.0-282.0","3GNCZX450J9A3LJD72G1TZ2WKOJAPT","A13TYYTK5MARJ1","3RBI0I35XEP26UEZY8S8UZLEA1IY3E","","745.9000000059605","img/food1.png","74","746.5","1","0","","1","1","1,0.5,0,1,0.5,0,0.5,0,1","0.5,0,1,0.5,0,1,0,1,0.5","2",""
"","html-keyboard-response","194","128006","0.0-283.0","3GNCZX450J9A3LJD72G1TZ2WKOJAPT","A13TYYTK5MARJ1","3RBI0I35XEP26UEZY8S8UZLEA1IY3E","","null","<img src=""img/food1.png"" style=""width:200px;border:14px solid red;"">","null","","","","","","","","","",""
"","image-keyboard-response","195","128569","0.0-284.0","3GNCZX450J9A3LJD72G1TZ2WKOJAPT","A13TYYTK5MARJ1","3RBI0I35XEP26UEZY8S8UZLEA1IY3E","","562","img/food1.png","74","562.6999999880791","1","0","","1","1","1,0.5,0,1,0.5,0,0.5,0,1","0.5,0,1,0.5,0,1,0,1,0.5","2",""
"","html-keyboard-response","196","128870","0.0-285.0","3GNCZX450J9A3LJD72G1TZ2WKOJAPT","A13TYYTK5MARJ1","3RBI0I35XEP26UEZY8S8UZLEA1IY3E","","null","<img src=""img/food1.png"" style=""width:200px;border:14px solid red;"">","null","","","","","","","","","",""
"","image-keyboard-response","197","129561","0.0-286.0","3GNCZX450J9A3LJD72G1TZ2WKOJAPT","A13TYYTK5MARJ1","3RBI0I35XEP26UEZY8S8UZLEA1IY3E","","689.9000000059605","img/food1.png","75","690.5999999940395","2","0","","1","1","1,0.5,0,1,0.5,0,0.5,0,1","0.5,0,1,0.5,0,1,0,1,0.5","2",""
"","html-keyboard-response","198","129863","0.0-287.0","3GNCZX450J9A3LJD72G1TZ2WKOJAPT","A13TYYTK5MARJ1","3RBI0I35XEP26UEZY8S8UZLEA1IY3E","","null","<img src=""img/food1.png"" style=""width:200px;border:14px solid red;"">","null","","","","","","","","","",""
"","image-keyboard-response","199","131089","0.0-288.0","3GNCZX450J9A3LJD72G1TZ2WKOJAPT","A13TYYTK5MARJ1","3RBI0I35XEP26UEZY8S8UZLEA1IY3E","","1225.2000000178814","img/food3.png","76","1225.8999999761581","3","1","","2","1","1,0.5,0,1,0.5,0,0.5,0,1","0.5,0,1,0.5,0,1,0,1,0.5","2",""
"","html-keyboard-response","200","131391","0.0-289.0","3GNCZX450J9A3LJD72G1TZ2WKOJAPT","A13TYYTK5MARJ1","3RBI0I35XEP26UEZY8S8UZLEA1IY3E","","null","<img src=""img/food3.png"" style=""width:200px; border:14px solid green;"">","null","","","","","","","","","",""
"","image-keyboard-response","201","131753","0.0-290.0","3GNCZX450J9A3LJD72G1TZ2WKOJAPT","A13TYYTK5MARJ1","3RBI0I35XEP26UEZY8S8UZLEA1IY3E","","361.09999999403954","img/food3.png","76","361.80000001192093","3","1","","2","1","1,0.5,0,1,0.5,0,0.5,0,1","0.5,0,1,0.5,0,1,0,1,0.5","2",""
"","html-keyboard-response","202","132054","0.0-291.0","3GNCZX450J9A3LJD72G1TZ2WKOJAPT","A13TYYTK5MARJ1","3RBI0I35XEP26UEZY8S8UZLEA1IY3E","","null","<img src=""img/food3.png"" style=""width:200px; border:14px solid green;"">","null","","","","","","","","","",""
"","image-keyboard-response","203","133673","0.0-292.0","3GNCZX450J9A3LJD72G1TZ2WKOJAPT","A13TYYTK5MARJ1","3RBI0I35XEP26UEZY8S8UZLEA1IY3E","","1618.0999999940395","img/food6.png","76","1618.5999999940395","3","0","","3","1","1,0.5,0,1,0.5,0,0.5,0,1","0.5,0,1,0.5,0,1,0,1,0.5","2",""
"","html-keyboard-response","204","133974","0.0-293.0","3GNCZX450J9A3LJD72G1TZ2WKOJAPT","A13TYYTK5MARJ1","3RBI0I35XEP26UEZY8S8UZLEA1IY3E","","null","<img src=""img/food6.png"" style=""width:200px;border:14px solid red;"">","null","","","","","","","","","",""
"","image-keyboard-response","205","134753","0.0-294.0","3GNCZX450J9A3LJD72G1TZ2WKOJAPT","A13TYYTK5MARJ1","3RBI0I35XEP26UEZY8S8UZLEA1IY3E","","778.3000000119209","img/food1.png","76","778.8000000119209","3","1","","1","1","1,0.5,0,1,0.5,0,0.5,0,1","0.5,0,1,0.5,0,1,0,1,0.5","2",""
"","html-keyboard-response","206","135055","0.0-295.0","3GNCZX450J9A3LJD72G1TZ2WKOJAPT","A13TYYTK5MARJ1","3RBI0I35XEP26UEZY8S8UZLEA1IY3E","","null","<img src=""img/food1.png"" style=""width:200px; border:14px solid green;"">","null","","","","","","","","","",""
"","image-keyboard-response","207","135921","0.0-296.0","3GNCZX450J9A3LJD72G1TZ2WKOJAPT","A13TYYTK5MARJ1","3RBI0I35XEP26UEZY8S8UZLEA1IY3E","","865.5","img/food1.png","76","866.1999999880791","3","1","","1","1","1,0.5,0,1,0.5,0,0.5,0,1","0.5,0,1,0.5,0,1,0,1,0.5","2",""
"","html-keyboard-response","208","136222","0.0-297.0","3GNCZX450J9A3LJD72G1TZ2WKOJAPT","A13TYYTK5MARJ1","3RBI0I35XEP26UEZY8S8UZLEA1IY3E","","null","<img src=""img/food1.png"" style=""width:200px; border:14px solid green;"">","null","","","","","","","","","",""
"","image-keyboard-response","209","136809","0.0-298.0","3GNCZX450J9A3LJD72G1TZ2WKOJAPT","A13TYYTK5MARJ1","3RBI0I35XEP26UEZY8S8UZLEA1IY3E","","585.7999999821186","img/food1.png","76","586.4000000059605","3","1","","1","1","1,0.5,0,1,0.5,0,0.5,0,1","0.5,0,1,0.5,0,1,0,1,0.5","2",""
"","html-keyboard-response","210","137111","0.0-299.0","3GNCZX450J9A3LJD72G1TZ2WKOJAPT","A13TYYTK5MARJ1","3RBI0I35XEP26UEZY8S8UZLEA1IY3E","","null","<img src=""img/food1.png"" style=""width:200px; border:14px solid green;"">","null","","","","","","","","","",""
"","image-keyboard-response","211","137633","0.0-300.0","3GNCZX450J9A3LJD72G1TZ2WKOJAPT","A13TYYTK5MARJ1","3RBI0I35XEP26UEZY8S8UZLEA1IY3E","","521.6999999880791","img/food3.png","76","522.4000000059605","3","1","","2","1","1,0.5,0,1,0.5,0,0.5,0,1","0.5,0,1,0.5,0,1,0,1,0.5","2",""
"","html-keyboard-response","212","137934","0.0-301.0","3GNCZX450J9A3LJD72G1TZ2WKOJAPT","A13TYYTK5MARJ1","3RBI0I35XEP26UEZY8S8UZLEA1IY3E","","null","<img src=""img/food3.png"" style=""width:200px; border:14px solid green;"">","null","","","","","","","","","",""
"","image-keyboard-response","213","138721","0.0-302.0","3GNCZX450J9A3LJD72G1TZ2WKOJAPT","A13TYYTK5MARJ1","3RBI0I35XEP26UEZY8S8UZLEA1IY3E","","786.5","img/food6.png","76","787.1999999880791","3","0","","3","1","1,0.5,0,1,0.5,0,0.5,0,1","0.5,0,1,0.5,0,1,0,1,0.5","2",""
"","html-keyboard-response","214","139023","0.0-303.0","3GNCZX450J9A3LJD72G1TZ2WKOJAPT","A13TYYTK5MARJ1","3RBI0I35XEP26UEZY8S8UZLEA1IY3E","","null","<img src=""img/food6.png"" style=""width:200px;border:14px solid red;"">","null","","","","","","","","","",""
"","image-keyboard-response","215","139753","0.0-304.0","3GNCZX450J9A3LJD72G1TZ2WKOJAPT","A13TYYTK5MARJ1","3RBI0I35XEP26UEZY8S8UZLEA1IY3E","","729.2999999821186","img/food3.png","76","730","3","1","","2","1","1,0.5,0,1,0.5,0,0.5,0,1","0.5,0,1,0.5,0,1,0,1,0.5","2",""
"","html-keyboard-response","216","140055","0.0-305.0","3GNCZX450J9A3LJD72G1TZ2WKOJAPT","A13TYYTK5MARJ1","3RBI0I35XEP26UEZY8S8UZLEA1IY3E","","null","<img src=""img/food3.png"" style=""width:200px; border:14px solid green;"">","null","","","","","","","","","",""
"","image-keyboard-response","217","140737","0.0-306.0","3GNCZX450J9A3LJD72G1TZ2WKOJAPT","A13TYYTK5MARJ1","3RBI0I35XEP26UEZY8S8UZLEA1IY3E","","681.5999999940395","img/food6.png","74","682.4000000059605","1","0","","3","1","1,0.5,0,1,0.5,0,0.5,0,1","0.5,0,1,0.5,0,1,0,1,0.5","2",""
"","html-keyboard-response","218","141039","0.0-307.0","3GNCZX450J9A3LJD72G1TZ2WKOJAPT","A13TYYTK5MARJ1","3RBI0I35XEP26UEZY8S8UZLEA1IY3E","","null","<img src=""img/food6.png"" style=""width:200px;border:14px solid red;"">","null","","","","","","","","","",""
"","image-keyboard-response","219","141833","0.0-308.0","3GNCZX450J9A3LJD72G1TZ2WKOJAPT","A13TYYTK5MARJ1","3RBI0I35XEP26UEZY8S8UZLEA1IY3E","","794","img/food6.png","75","794.5","2","1","","3","1","1,0.5,0,1,0.5,0,0.5,0,1","0.5,0,1,0.5,0,1,0,1,0.5","2",""
"","html-keyboard-response","220","142135","0.0-309.0","3GNCZX450J9A3LJD72G1TZ2WKOJAPT","A13TYYTK5MARJ1","3RBI0I35XEP26UEZY8S8UZLEA1IY3E","","null","<img src=""img/food6.png"" style=""width:200px; border:14px solid green;"">","null","","","","","","","","","",""
"","image-keyboard-response","221","142833","0.0-310.0","3GNCZX450J9A3LJD72G1TZ2WKOJAPT","A13TYYTK5MARJ1","3RBI0I35XEP26UEZY8S8UZLEA1IY3E","","697.2000000178814","img/food6.png","75","697.9000000059605","2","1","","3","1","1,0.5,0,1,0.5,0,0.5,0,1","0.5,0,1,0.5,0,1,0,1,0.5","2",""
"","html-keyboard-response","222","143134","0.0-311.0","3GNCZX450J9A3LJD72G1TZ2WKOJAPT","A13TYYTK5MARJ1","3RBI0I35XEP26UEZY8S8UZLEA1IY3E","","null","<img src=""img/food6.png"" style=""width:200px; border:14px solid green;"">","null","","","","","","","","","",""
"","image-keyboard-response","223","143793","0.0-312.0","3GNCZX450J9A3LJD72G1TZ2WKOJAPT","A13TYYTK5MARJ1","3RBI0I35XEP26UEZY8S8UZLEA1IY3E","","658.2999999821186","img/food1.png","76","659","3","1","","1","1","1,0.5,0,1,0.5,0,0.5,0,1","0.5,0,1,0.5,0,1,0,1,0.5","2",""
"","html-keyboard-response","224","144094","0.0-313.0","3GNCZX450J9A3LJD72G1TZ2WKOJAPT","A13TYYTK5MARJ1","3RBI0I35XEP26UEZY8S8UZLEA1IY3E","","null","<img src=""img/food1.png"" style=""width:200px; border:14px solid green;"">","null","","","","","","","","","",""
"","image-keyboard-response","225","144521","0.0-314.0","3GNCZX450J9A3LJD72G1TZ2WKOJAPT","A13TYYTK5MARJ1","3RBI0I35XEP26UEZY8S8UZLEA1IY3E","","426.2999999821186","img/food3.png","76","426.80000001192093","3","1","","2","1","1,0.5,0,1,0.5,0,0.5,0,1","0.5,0,1,0.5,0,1,0,1,0.5","2",""
"","html-keyboard-response","226","144822","0.0-315.0","3GNCZX450J9A3LJD72G1TZ2WKOJAPT","A13TYYTK5MARJ1","3RBI0I35XEP26UEZY8S8UZLEA1IY3E","","null","<img src=""img/food3.png"" style=""width:200px; border:14px solid green;"">","null","","","","","","","","","",""
"","image-keyboard-response","227","145449","0.0-316.0","3GNCZX450J9A3LJD72G1TZ2WKOJAPT","A13TYYTK5MARJ1","3RBI0I35XEP26UEZY8S8UZLEA1IY3E","","625.5999999940395","img/food3.png","76","626.2000000178814","3","1","","2","1","1,0.5,0,1,0.5,0,0.5,0,1","0.5,0,1,0.5,0,1,0,1,0.5","2",""
"","html-keyboard-response","228","145751","0.0-317.0","3GNCZX450J9A3LJD72G1TZ2WKOJAPT","A13TYYTK5MARJ1","3RBI0I35XEP26UEZY8S8UZLEA1IY3E","","null","<img src=""img/food3.png"" style=""width:200px; border:14px solid green;"">","null","","","","","","","","","",""
"","image-keyboard-response","229","147081","0.0-318.0","3GNCZX450J9A3LJD72G1TZ2WKOJAPT","A13TYYTK5MARJ1","3RBI0I35XEP26UEZY8S8UZLEA1IY3E","","1328.8999999761581","img/food1.png","76","1329.5","3","1","","1","1","1,0.5,0,1,0.5,0,0.5,0,1","0.5,0,1,0.5,0,1,0,1,0.5","2",""
"","html-keyboard-response","230","147383","0.0-319.0","3GNCZX450J9A3LJD72G1TZ2WKOJAPT","A13TYYTK5MARJ1","3RBI0I35XEP26UEZY8S8UZLEA1IY3E","","null","<img src=""img/food1.png"" style=""width:200px; border:14px solid green;"">","null","","","","","","","","","",""
"","image-keyboard-response","231","147729","0.0-320.0","3GNCZX450J9A3LJD72G1TZ2WKOJAPT","A13TYYTK5MARJ1","3RBI0I35XEP26UEZY8S8UZLEA1IY3E","","345","img/food1.png","76","345.7000000178814","3","1","","1","1","1,0.5,0,1,0.5,0,0.5,0,1","0.5,0,1,0.5,0,1,0,1,0.5","2",""
"","html-keyboard-response","232","148030","0.0-321.0","3GNCZX450J9A3LJD72G1TZ2WKOJAPT","A13TYYTK5MARJ1","3RBI0I35XEP26UEZY8S8UZLEA1IY3E","","null","<img src=""img/food1.png"" style=""width:200px; border:14px solid green;"">","null","","","","","","","","","",""
"","image-keyboard-response","233","148585","0.0-322.0","3GNCZX450J9A3LJD72G1TZ2WKOJAPT","A13TYYTK5MARJ1","3RBI0I35XEP26UEZY8S8UZLEA1IY3E","","553.7999999821186","img/food6.png","75","554.5999999940395","2","1","","3","1","1,0.5,0,1,0.5,0,0.5,0,1","0.5,0,1,0.5,0,1,0,1,0.5","2",""
"","html-keyboard-response","234","148886","0.0-323.0","3GNCZX450J9A3LJD72G1TZ2WKOJAPT","A13TYYTK5MARJ1","3RBI0I35XEP26UEZY8S8UZLEA1IY3E","","null","<img src=""img/food6.png"" style=""width:200px; border:14px solid green;"">","null","","","","","","","","","",""
"","image-keyboard-response","235","149369","0.0-324.0","3GNCZX450J9A3LJD72G1TZ2WKOJAPT","A13TYYTK5MARJ1","3RBI0I35XEP26UEZY8S8UZLEA1IY3E","","482","img/food3.png","76","482.59999999403954","3","1","","2","1","1,0.5,0,1,0.5,0,0.5,0,1","0.5,0,1,0.5,0,1,0,1,0.5","2",""
"","html-keyboard-response","236","149672","0.0-325.0","3GNCZX450J9A3LJD72G1TZ2WKOJAPT","A13TYYTK5MARJ1","3RBI0I35XEP26UEZY8S8UZLEA1IY3E","","null","<img src=""img/food3.png"" style=""width:200px; border:14px solid green;"">","null","","","","","","","","","",""
"","image-keyboard-response","237","150377","0.0-326.0","3GNCZX450J9A3LJD72G1TZ2WKOJAPT","A13TYYTK5MARJ1","3RBI0I35XEP26UEZY8S8UZLEA1IY3E","","704.5","img/food6.png","75","705.1999999880791","2","1","","3","1","1,0.5,0,1,0.5,0,0.5,0,1","0.5,0,1,0.5,0,1,0,1,0.5","2",""
"","html-keyboard-response","238","150679","0.0-327.0","3GNCZX450J9A3LJD72G1TZ2WKOJAPT","A13TYYTK5MARJ1","3RBI0I35XEP26UEZY8S8UZLEA1IY3E","","null","<img src=""img/food6.png"" style=""width:200px; border:14px solid green;"">","null","","","","","","","","","",""
"","image-keyboard-response","239","151361","0.0-328.0","3GNCZX450J9A3LJD72G1TZ2WKOJAPT","A13TYYTK5MARJ1","3RBI0I35XEP26UEZY8S8UZLEA1IY3E","","680.8999999761581","img/food3.png","76","681.5","3","1","","2","1","1,0.5,0,1,0.5,0,0.5,0,1","0.5,0,1,0.5,0,1,0,1,0.5","2",""
"","html-keyboard-response","240","151663","0.0-329.0","3GNCZX450J9A3LJD72G1TZ2WKOJAPT","A13TYYTK5MARJ1","3RBI0I35XEP26UEZY8S8UZLEA1IY3E","","null","<img src=""img/food3.png"" style=""width:200px; border:14px solid green;"">","null","","","","","","","","","",""
"","image-keyboard-response","241","151993","0.0-330.0","3GNCZX450J9A3LJD72G1TZ2WKOJAPT","A13TYYTK5MARJ1","3RBI0I35XEP26UEZY8S8UZLEA1IY3E","","329.5","img/food3.png","76","330.09999999403954","3","1","","2","1","1,0.5,0,1,0.5,0,0.5,0,1","0.5,0,1,0.5,0,1,0,1,0.5","2",""
"","html-keyboard-response","242","152294","0.0-331.0","3GNCZX450J9A3LJD72G1TZ2WKOJAPT","A13TYYTK5MARJ1","3RBI0I35XEP26UEZY8S8UZLEA1IY3E","","null","<img src=""img/food3.png"" style=""width:200px; border:14px solid green;"">","null","","","","","","","","","",""
"","image-keyboard-response","243","152641","0.0-332.0","3GNCZX450J9A3LJD72G1TZ2WKOJAPT","A13TYYTK5MARJ1","3RBI0I35XEP26UEZY8S8UZLEA1IY3E","","345.90000000596046","img/food3.png","76","346.40000000596046","3","1","","2","1","1,0.5,0,1,0.5,0,0.5,0,1","0.5,0,1,0.5,0,1,0,1,0.5","2",""
"","html-keyboard-response","244","152942","0.0-333.0","3GNCZX450J9A3LJD72G1TZ2WKOJAPT","A13TYYTK5MARJ1","3RBI0I35XEP26UEZY8S8UZLEA1IY3E","","null","<img src=""img/food3.png"" style=""width:200px; border:14px solid green;"">","null","","","","","","","","","",""
"","image-keyboard-response","245","153465","0.0-334.0","3GNCZX450J9A3LJD72G1TZ2WKOJAPT","A13TYYTK5MARJ1","3RBI0I35XEP26UEZY8S8UZLEA1IY3E","","521.5999999940395","img/food1.png","76","522.2000000178814","3","1","","1","1","1,0.5,0,1,0.5,0,0.5,0,1","0.5,0,1,0.5,0,1,0,1,0.5","2",""
"","html-keyboard-response","246","153767","0.0-335.0","3GNCZX450J9A3LJD72G1TZ2WKOJAPT","A13TYYTK5MARJ1","3RBI0I35XEP26UEZY8S8UZLEA1IY3E","","null","<img src=""img/food1.png"" style=""width:200px; border:14px solid green;"">","null","","","","","","","","","",""
"","image-keyboard-response","247","154217","0.0-336.0","3GNCZX450J9A3LJD72G1TZ2WKOJAPT","A13TYYTK5MARJ1","3RBI0I35XEP26UEZY8S8UZLEA1IY3E","","449.69999998807907","img/food3.png","76","450.2000000178814","3","1","","2","1","1,0.5,0,1,0.5,0,0.5,0,1","0.5,0,1,0.5,0,1,0,1,0.5","2",""
"","html-keyboard-response","248","154518","0.0-337.0","3GNCZX450J9A3LJD72G1TZ2WKOJAPT","A13TYYTK5MARJ1","3RBI0I35XEP26UEZY8S8UZLEA1IY3E","","null","<img src=""img/food3.png"" style=""width:200px; border:14px solid green;"">","null","","","","","","","","","",""
"","image-keyboard-response","249","154977","0.0-338.0","3GNCZX450J9A3LJD72G1TZ2WKOJAPT","A13TYYTK5MARJ1","3RBI0I35XEP26UEZY8S8UZLEA1IY3E","","457.5","img/food6.png","75","458.30000001192093","2","1","","3","1","1,0.5,0,1,0.5,0,0.5,0,1","0.5,0,1,0.5,0,1,0,1,0.5","2",""
"","html-keyboard-response","250","155279","0.0-339.0","3GNCZX450J9A3LJD72G1TZ2WKOJAPT","A13TYYTK5MARJ1","3RBI0I35XEP26UEZY8S8UZLEA1IY3E","","null","<img src=""img/food6.png"" style=""width:200px; border:14px solid green;"">","null","","","","","","","","","",""
"","image-keyboard-response","251","155689","0.0-340.0","3GNCZX450J9A3LJD72G1TZ2WKOJAPT","A13TYYTK5MARJ1","3RBI0I35XEP26UEZY8S8UZLEA1IY3E","","409.19999998807907","img/food6.png","75","410","2","1","","3","1","1,0.5,0,1,0.5,0,0.5,0,1","0.5,0,1,0.5,0,1,0,1,0.5","2",""
"","html-keyboard-response","252","155991","0.0-341.0","3GNCZX450J9A3LJD72G1TZ2WKOJAPT","A13TYYTK5MARJ1","3RBI0I35XEP26UEZY8S8UZLEA1IY3E","","null","<img src=""img/food6.png"" style=""width:200px; border:14px solid green;"">","null","","","","","","","","","",""
"","image-keyboard-response","253","156401","0.0-342.0","3GNCZX450J9A3LJD72G1TZ2WKOJAPT","A13TYYTK5MARJ1","3RBI0I35XEP26UEZY8S8UZLEA1IY3E","","408.59999999403954","img/food3.png","76","409.2000000178814","3","1","","2","1","1,0.5,0,1,0.5,0,0.5,0,1","0.5,0,1,0.5,0,1,0,1,0.5","2",""
"","html-keyboard-response","254","156703","0.0-343.0","3GNCZX450J9A3LJD72G1TZ2WKOJAPT","A13TYYTK5MARJ1","3RBI0I35XEP26UEZY8S8UZLEA1IY3E","","null","<img src=""img/food3.png"" style=""width:200px; border:14px solid green;"">","null","","","","","","","","","",""
"","image-keyboard-response","255","157153","0.0-344.0","3GNCZX450J9A3LJD72G1TZ2WKOJAPT","A13TYYTK5MARJ1","3RBI0I35XEP26UEZY8S8UZLEA1IY3E","","449.19999998807907","img/food1.png","76","449.80000001192093","3","1","","1","1","1,0.5,0,1,0.5,0,0.5,0,1","0.5,0,1,0.5,0,1,0,1,0.5","2",""
"","html-keyboard-response","256","157454","0.0-345.0","3GNCZX450J9A3LJD72G1TZ2WKOJAPT","A13TYYTK5MARJ1","3RBI0I35XEP26UEZY8S8UZLEA1IY3E","","null","<img src=""img/food1.png"" style=""width:200px; border:14px solid green;"">","null","","","","","","","","","",""
"","image-keyboard-response","257","157825","0.0-346.0","3GNCZX450J9A3LJD72G1TZ2WKOJAPT","A13TYYTK5MARJ1","3RBI0I35XEP26UEZY8S8UZLEA1IY3E","","369.69999998807907","img/food1.png","76","370.30000001192093","3","1","","1","1","1,0.5,0,1,0.5,0,0.5,0,1","0.5,0,1,0.5,0,1,0,1,0.5","2",""
"","html-keyboard-response","258","158127","0.0-347.0","3GNCZX450J9A3LJD72G1TZ2WKOJAPT","A13TYYTK5MARJ1","3RBI0I35XEP26UEZY8S8UZLEA1IY3E","","null","<img src=""img/food1.png"" style=""width:200px; border:14px solid green;"">","null","","","","","","","","","",""
"","image-keyboard-response","259","158609","0.0-348.0","3GNCZX450J9A3LJD72G1TZ2WKOJAPT","A13TYYTK5MARJ1","3RBI0I35XEP26UEZY8S8UZLEA1IY3E","","481.2999999821186","img/food6.png","75","481.80000001192093","2","1","","3","1","1,0.5,0,1,0.5,0,0.5,0,1","0.5,0,1,0.5,0,1,0,1,0.5","2",""
"","html-keyboard-response","260","158911","0.0-349.0","3GNCZX450J9A3LJD72G1TZ2WKOJAPT","A13TYYTK5MARJ1","3RBI0I35XEP26UEZY8S8UZLEA1IY3E","","null","<img src=""img/food6.png"" style=""width:200px; border:14px solid green;"">","null","","","","","","","","","",""
"","image-keyboard-response","261","159729","0.0-350.0","3GNCZX450J9A3LJD72G1TZ2WKOJAPT","A13TYYTK5MARJ1","3RBI0I35XEP26UEZY8S8UZLEA1IY3E","","817.0999999940395","img/food1.png","76","817.9000000059605","3","1","","1","1","1,0.5,0,1,0.5,0,0.5,0,1","0.5,0,1,0.5,0,1,0,1,0.5","2",""
"","html-keyboard-response","262","160030","0.0-351.0","3GNCZX450J9A3LJD72G1TZ2WKOJAPT","A13TYYTK5MARJ1","3RBI0I35XEP26UEZY8S8UZLEA1IY3E","","null","<img src=""img/food1.png"" style=""width:200px; border:14px solid green;"">","null","","","","","","","","","",""
"","image-keyboard-response","263","160441","0.0-352.0","3GNCZX450J9A3LJD72G1TZ2WKOJAPT","A13TYYTK5MARJ1","3RBI0I35XEP26UEZY8S8UZLEA1IY3E","","409.90000000596046","img/food3.png","76","411","3","1","","2","1","1,0.5,0,1,0.5,0,0.5,0,1","0.5,0,1,0.5,0,1,0,1,0.5","2",""
"","html-keyboard-response","264","160743","0.0-353.0","3GNCZX450J9A3LJD72G1TZ2WKOJAPT","A13TYYTK5MARJ1","3RBI0I35XEP26UEZY8S8UZLEA1IY3E","","null","<img src=""img/food3.png"" style=""width:200px; border:14px solid green;"">","null","","","","","","","","","",""
"","image-keyboard-response","265","161401","0.0-354.0","3GNCZX450J9A3LJD72G1TZ2WKOJAPT","A13TYYTK5MARJ1","3RBI0I35XEP26UEZY8S8UZLEA1IY3E","","657.5","img/food1.png","76","658.0999999940395","3","1","","1","1","1,0.5,0,1,0.5,0,0.5,0,1","0.5,0,1,0.5,0,1,0,1,0.5","2",""
"","html-keyboard-response","266","161702","0.0-355.0","3GNCZX450J9A3LJD72G1TZ2WKOJAPT","A13TYYTK5MARJ1","3RBI0I35XEP26UEZY8S8UZLEA1IY3E","","null","<img src=""img/food1.png"" style=""width:200px; border:14px solid green;"">","null","","","","","","","","","",""
"","image-keyboard-response","267","162353","0.0-356.0","3GNCZX450J9A3LJD72G1TZ2WKOJAPT","A13TYYTK5MARJ1","3RBI0I35XEP26UEZY8S8UZLEA1IY3E","","650","img/food6.png","75","650.5","2","1","","3","1","1,0.5,0,1,0.5,0,0.5,0,1","0.5,0,1,0.5,0,1,0,1,0.5","2",""
"","html-keyboard-response","268","162655","0.0-357.0","3GNCZX450J9A3LJD72G1TZ2WKOJAPT","A13TYYTK5MARJ1","3RBI0I35XEP26UEZY8S8UZLEA1IY3E","","null","<img src=""img/food6.png"" style=""width:200px; border:14px solid green;"">","null","","","","","","","","","",""
"","image-keyboard-response","269","163073","0.0-358.0","3GNCZX450J9A3LJD72G1TZ2WKOJAPT","A13TYYTK5MARJ1","3RBI0I35XEP26UEZY8S8UZLEA1IY3E","","417.09999999403954","img/food6.png","75","417.7000000178814","2","1","","3","1","1,0.5,0,1,0.5,0,0.5,0,1","0.5,0,1,0.5,0,1,0,1,0.5","2",""
"","html-keyboard-response","270","163375","0.0-359.0","3GNCZX450J9A3LJD72G1TZ2WKOJAPT","A13TYYTK5MARJ1","3RBI0I35XEP26UEZY8S8UZLEA1IY3E","","null","<img src=""img/food6.png"" style=""width:200px; border:14px solid green;"">","null","","","","","","","","","",""
"","image-keyboard-response","271","163953","0.0-360.0","3GNCZX450J9A3LJD72G1TZ2WKOJAPT","A13TYYTK5MARJ1","3RBI0I35XEP26UEZY8S8UZLEA1IY3E","","577","img/food3.png","76","577.7000000178814","3","1","","2","1","1,0.5,0,1,0.5,0,0.5,0,1","0.5,0,1,0.5,0,1,0,1,0.5","2",""
"","html-keyboard-response","272","164255","0.0-361.0","3GNCZX450J9A3LJD72G1TZ2WKOJAPT","A13TYYTK5MARJ1","3RBI0I35XEP26UEZY8S8UZLEA1IY3E","","null","<img src=""img/food3.png"" style=""width:200px; border:14px solid green;"">","null","","","","","","","","","",""
"","image-keyboard-response","273","164593","0.0-362.0","3GNCZX450J9A3LJD72G1TZ2WKOJAPT","A13TYYTK5MARJ1","3RBI0I35XEP26UEZY8S8UZLEA1IY3E","","337.09999999403954","img/food3.png","76","337.69999998807907","3","1","","2","1","1,0.5,0,1,0.5,0,0.5,0,1","0.5,0,1,0.5,0,1,0,1,0.5","2",""
"","html-keyboard-response","274","164894","0.0-363.0","3GNCZX450J9A3LJD72G1TZ2WKOJAPT","A13TYYTK5MARJ1","3RBI0I35XEP26UEZY8S8UZLEA1IY3E","","null","<img src=""img/food3.png"" style=""width:200px; border:14px solid green;"">","null","","","","","","","","","",""
"","image-keyboard-response","275","165257","0.0-364.0","3GNCZX450J9A3LJD72G1TZ2WKOJAPT","A13TYYTK5MARJ1","3RBI0I35XEP26UEZY8S8UZLEA1IY3E","","362","img/food3.png","76","362.7000000178814","3","1","","2","1","1,0.5,0,1,0.5,0,0.5,0,1","0.5,0,1,0.5,0,1,0,1,0.5","2",""
"","html-keyboard-response","276","165558","0.0-365.0","3GNCZX450J9A3LJD72G1TZ2WKOJAPT","A13TYYTK5MARJ1","3RBI0I35XEP26UEZY8S8UZLEA1IY3E","","null","<img src=""img/food3.png"" style=""width:200px; border:14px solid green;"">","null","","","","","","","","","",""
"","image-keyboard-response","277","166097","0.0-366.0","3GNCZX450J9A3LJD72G1TZ2WKOJAPT","A13TYYTK5MARJ1","3RBI0I35XEP26UEZY8S8UZLEA1IY3E","","537.5999999940395","img/food1.png","76","538.3000000119209","3","1","","1","1","1,0.5,0,1,0.5,0,0.5,0,1","0.5,0,1,0.5,0,1,0,1,0.5","2",""
"","html-keyboard-response","278","166399","0.0-367.0","3GNCZX450J9A3LJD72G1TZ2WKOJAPT","A13TYYTK5MARJ1","3RBI0I35XEP26UEZY8S8UZLEA1IY3E","","null","<img src=""img/food1.png"" style=""width:200px; border:14px solid green;"">","null","","","","","","","","","",""
"","image-keyboard-response","279","166753","0.0-368.0","3GNCZX450J9A3LJD72G1TZ2WKOJAPT","A13TYYTK5MARJ1","3RBI0I35XEP26UEZY8S8UZLEA1IY3E","","352.69999998807907","img/food1.png","76","353.30000001192093","3","1","","1","1","1,0.5,0,1,0.5,0,0.5,0,1","0.5,0,1,0.5,0,1,0,1,0.5","2",""
"","html-keyboard-response","280","167054","0.0-369.0","3GNCZX450J9A3LJD72G1TZ2WKOJAPT","A13TYYTK5MARJ1","3RBI0I35XEP26UEZY8S8UZLEA1IY3E","","null","<img src=""img/food1.png"" style=""width:200px; border:14px solid green;"">","null","","","","","","","","","",""
"","image-keyboard-response","281","167361","0.0-370.0","3GNCZX450J9A3LJD72G1TZ2WKOJAPT","A13TYYTK5MARJ1","3RBI0I35XEP26UEZY8S8UZLEA1IY3E","","305.5","img/food1.png","76","306.30000001192093","3","1","","1","1","1,0.5,0,1,0.5,0,0.5,0,1","0.5,0,1,0.5,0,1,0,1,0.5","2",""
"","html-keyboard-response","282","167663","0.0-371.0","3GNCZX450J9A3LJD72G1TZ2WKOJAPT","A13TYYTK5MARJ1","3RBI0I35XEP26UEZY8S8UZLEA1IY3E","","null","<img src=""img/food1.png"" style=""width:200px; border:14px solid green;"">","null","","","","","","","","","",""
"","image-keyboard-response","283","168105","0.0-372.0","3GNCZX450J9A3LJD72G1TZ2WKOJAPT","A13TYYTK5MARJ1","3RBI0I35XEP26UEZY8S8UZLEA1IY3E","","441.40000000596046","img/food1.png","76","441.90000000596046","3","1","","1","1","1,0.5,0,1,0.5,0,0.5,0,1","0.5,0,1,0.5,0,1,0,1,0.5","2",""
"","html-keyboard-response","284","168406","0.0-373.0","3GNCZX450J9A3LJD72G1TZ2WKOJAPT","A13TYYTK5MARJ1","3RBI0I35XEP26UEZY8S8UZLEA1IY3E","","null","<img src=""img/food1.png"" style=""width:200px; border:14px solid green;"">","null","","","","","","","","","",""
"","image-keyboard-response","285","168745","0.0-374.0","3GNCZX450J9A3LJD72G1TZ2WKOJAPT","A13TYYTK5MARJ1","3RBI0I35XEP26UEZY8S8UZLEA1IY3E","","338","img/food1.png","76","338.5","3","1","","1","1","1,0.5,0,1,0.5,0,0.5,0,1","0.5,0,1,0.5,0,1,0,1,0.5","2",""
"","html-keyboard-response","286","169046","0.0-375.0","3GNCZX450J9A3LJD72G1TZ2WKOJAPT","A13TYYTK5MARJ1","3RBI0I35XEP26UEZY8S8UZLEA1IY3E","","null","<img src=""img/food1.png"" style=""width:200px; border:14px solid green;"">","null","","","","","","","","","",""
"","image-keyboard-response","287","169537","0.0-376.0","3GNCZX450J9A3LJD72G1TZ2WKOJAPT","A13TYYTK5MARJ1","3RBI0I35XEP26UEZY8S8UZLEA1IY3E","","490.09999999403954","img/food6.png","75","490.7000000178814","2","1","","3","1","1,0.5,0,1,0.5,0,0.5,0,1","0.5,0,1,0.5,0,1,0,1,0.5","2",""
"","html-keyboard-response","288","169838","0.0-377.0","3GNCZX450J9A3LJD72G1TZ2WKOJAPT","A13TYYTK5MARJ1","3RBI0I35XEP26UEZY8S8UZLEA1IY3E","","null","<img src=""img/food6.png"" style=""width:200px; border:14px solid green;"">","null","","","","","","","","","",""
"","image-keyboard-response","289","170529","0.0-378.0","3GNCZX450J9A3LJD72G1TZ2WKOJAPT","A13TYYTK5MARJ1","3RBI0I35XEP26UEZY8S8UZLEA1IY3E","","690.2999999821186","img/food1.png","76","690.9000000059605","3","1","","1","1","1,0.5,0,1,0.5,0,0.5,0,1","0.5,0,1,0.5,0,1,0,1,0.5","2",""
"","html-keyboard-response","290","170830","0.0-379.0","3GNCZX450J9A3LJD72G1TZ2WKOJAPT","A13TYYTK5MARJ1","3RBI0I35XEP26UEZY8S8UZLEA1IY3E","","null","<img src=""img/food1.png"" style=""width:200px; border:14px solid green;"">","null","","","","","","","","","",""
"","image-keyboard-response","291","171457","0.0-380.0","3GNCZX450J9A3LJD72G1TZ2WKOJAPT","A13TYYTK5MARJ1","3RBI0I35XEP26UEZY8S8UZLEA1IY3E","","626.0999999940395","img/food6.png","75","626.8000000119209","2","1","","3","1","1,0.5,0,1,0.5,0,0.5,0,1","0.5,0,1,0.5,0,1,0,1,0.5","2",""
"","html-keyboard-response","292","171759","0.0-381.0","3GNCZX450J9A3LJD72G1TZ2WKOJAPT","A13TYYTK5MARJ1","3RBI0I35XEP26UEZY8S8UZLEA1IY3E","","null","<img src=""img/food6.png"" style=""width:200px; border:14px solid green;"">","null","","","","","","","","","",""
"","image-keyboard-response","293","172265","0.0-382.0","3GNCZX450J9A3LJD72G1TZ2WKOJAPT","A13TYYTK5MARJ1","3RBI0I35XEP26UEZY8S8UZLEA1IY3E","","504.69999998807907","img/food6.png","75","505.30000001192093","2","1","","3","1","1,0.5,0,1,0.5,0,0.5,0,1","0.5,0,1,0.5,0,1,0,1,0.5","2",""
"","html-keyboard-response","294","172566","0.0-383.0","3GNCZX450J9A3LJD72G1TZ2WKOJAPT","A13TYYTK5MARJ1","3RBI0I35XEP26UEZY8S8UZLEA1IY3E","","null","<img src=""img/food6.png"" style=""width:200px; border:14px solid green;"">","null","","","","","","","","","",""
"","image-keyboard-response","295","172953","0.0-384.0","3GNCZX450J9A3LJD72G1TZ2WKOJAPT","A13TYYTK5MARJ1","3RBI0I35XEP26UEZY8S8UZLEA1IY3E","","386.09999999403954","img/food6.png","75","386.69999998807907","2","1","","3","1","1,0.5,0,1,0.5,0,0.5,0,1","0.5,0,1,0.5,0,1,0,1,0.5","2",""
"","html-keyboard-response","296","173254","0.0-385.0","3GNCZX450J9A3LJD72G1TZ2WKOJAPT","A13TYYTK5MARJ1","3RBI0I35XEP26UEZY8S8UZLEA1IY3E","","null","<img src=""img/food6.png"" style=""width:200px; border:14px solid green;"">","null","","","","","","","","","",""
"","image-keyboard-response","297","173809","0.0-386.0","3GNCZX450J9A3LJD72G1TZ2WKOJAPT","A13TYYTK5MARJ1","3RBI0I35XEP26UEZY8S8UZLEA1IY3E","","553.7999999821186","img/food3.png","76","554.5","3","1","","2","1","1,0.5,0,1,0.5,0,0.5,0,1","0.5,0,1,0.5,0,1,0,1,0.5","2",""
"","html-keyboard-response","298","174118","0.0-387.0","3GNCZX450J9A3LJD72G1TZ2WKOJAPT","A13TYYTK5MARJ1","3RBI0I35XEP26UEZY8S8UZLEA1IY3E","","null","<img src=""img/food3.png"" style=""width:200px; border:14px solid green;"">","null","","","","","","","","","",""
"","image-keyboard-response","299","174801","0.0-388.0","3GNCZX450J9A3LJD72G1TZ2WKOJAPT","A13TYYTK5MARJ1","3RBI0I35XEP26UEZY8S8UZLEA1IY3E","","681.5999999940395","img/food6.png","75","682.3000000119209","2","1","","3","1","1,0.5,0,1,0.5,0,0.5,0,1","0.5,0,1,0.5,0,1,0,1,0.5","2",""
"","html-keyboard-response","300","175102","0.0-389.0","3GNCZX450J9A3LJD72G1TZ2WKOJAPT","A13TYYTK5MARJ1","3RBI0I35XEP26UEZY8S8UZLEA1IY3E","","null","<img src=""img/food6.png"" style=""width:200px; border:14px solid green;"">","null","","","","","","","","","",""
"","image-keyboard-response","301","175745","0.0-390.0","3GNCZX450J9A3LJD72G1TZ2WKOJAPT","A13TYYTK5MARJ1","3RBI0I35XEP26UEZY8S8UZLEA1IY3E","","641.9000000059605","img/food3.png","76","642.5999999940395","3","1","","2","1","1,0.5,0,1,0.5,0,0.5,0,1","0.5,0,1,0.5,0,1,0,1,0.5","2",""
"","html-keyboard-response","302","176047","0.0-391.0","3GNCZX450J9A3LJD72G1TZ2WKOJAPT","A13TYYTK5MARJ1","3RBI0I35XEP26UEZY8S8UZLEA1IY3E","","null","<img src=""img/food3.png"" style=""width:200px; border:14px solid green;"">","null","","","","","","","","","",""
"","image-keyboard-response","303","176393","0.0-392.0","3GNCZX450J9A3LJD72G1TZ2WKOJAPT","A13TYYTK5MARJ1","3RBI0I35XEP26UEZY8S8UZLEA1IY3E","","344.90000000596046","img/food3.png","76","345.5","3","1","","2","1","1,0.5,0,1,0.5,0,0.5,0,1","0.5,0,1,0.5,0,1,0,1,0.5","2",""
"","html-keyboard-response","304","176694","0.0-393.0","3GNCZX450J9A3LJD72G1TZ2WKOJAPT","A13TYYTK5MARJ1","3RBI0I35XEP26UEZY8S8UZLEA1IY3E","","null","<img src=""img/food3.png"" style=""width:200px; border:14px solid green;"">","null","","","","","","","","","",""
"","image-keyboard-response","305","177505","0.0-394.0","3GNCZX450J9A3LJD72G1TZ2WKOJAPT","A13TYYTK5MARJ1","3RBI0I35XEP26UEZY8S8UZLEA1IY3E","","809.9000000059605","img/food6.png","75","810.5999999940395","2","1","","3","1","1,0.5,0,1,0.5,0,0.5,0,1","0.5,0,1,0.5,0,1,0,1,0.5","2",""
"","html-keyboard-response","306","177806","0.0-395.0","3GNCZX450J9A3LJD72G1TZ2WKOJAPT","A13TYYTK5MARJ1","3RBI0I35XEP26UEZY8S8UZLEA1IY3E","","null","<img src=""img/food6.png"" style=""width:200px; border:14px solid green;"">","null","","","","","","","","","",""
"","image-keyboard-response","307","178145","0.0-396.0","3GNCZX450J9A3LJD72G1TZ2WKOJAPT","A13TYYTK5MARJ1","3RBI0I35XEP26UEZY8S8UZLEA1IY3E","","338.09999999403954","img/food6.png","75","338.5","2","1","","3","1","1,0.5,0,1,0.5,0,0.5,0,1","0.5,0,1,0.5,0,1,0,1,0.5","2",""
"","html-keyboard-response","308","178445","0.0-397.0","3GNCZX450J9A3LJD72G1TZ2WKOJAPT","A13TYYTK5MARJ1","3RBI0I35XEP26UEZY8S8UZLEA1IY3E","","null","<img src=""img/food6.png"" style=""width:200px; border:14px solid green;"">","null","","","","","","","","","",""
"","image-keyboard-response","309","179201","0.0-398.0","3GNCZX450J9A3LJD72G1TZ2WKOJAPT","A13TYYTK5MARJ1","3RBI0I35XEP26UEZY8S8UZLEA1IY3E","","754.5","img/food1.png","76","755.2000000178814","3","1","","1","1","1,0.5,0,1,0.5,0,0.5,0,1","0.5,0,1,0.5,0,1,0,1,0.5","2",""
"","html-keyboard-response","310","179503","0.0-399.0","3GNCZX450J9A3LJD72G1TZ2WKOJAPT","A13TYYTK5MARJ1","3RBI0I35XEP26UEZY8S8UZLEA1IY3E","","null","<img src=""img/food1.png"" style=""width:200px; border:14px solid green;"">","null","","","","","","","","","",""
"","image-keyboard-response","311","180089","0.0-400.0","3GNCZX450J9A3LJD72G1TZ2WKOJAPT","A13TYYTK5MARJ1","3RBI0I35XEP26UEZY8S8UZLEA1IY3E","","585","img/food6.png","75","585.7000000178814","2","1","","3","1","1,0.5,0,1,0.5,0,0.5,0,1","0.5,0,1,0.5,0,1,0,1,0.5","2",""
"","html-keyboard-response","312","180390","0.0-401.0","3GNCZX450J9A3LJD72G1TZ2WKOJAPT","A13TYYTK5MARJ1","3RBI0I35XEP26UEZY8S8UZLEA1IY3E","","null","<img src=""img/food6.png"" style=""width:200px; border:14px solid green;"">","null","","","","","","","","","",""
"","image-keyboard-response","313","180905","0.0-402.0","3GNCZX450J9A3LJD72G1TZ2WKOJAPT","A13TYYTK5MARJ1","3RBI0I35XEP26UEZY8S8UZLEA1IY3E","","514.4000000059605","img/food1.png","76","515","3","1","","1","1","1,0.5,0,1,0.5,0,0.5,0,1","0.5,0,1,0.5,0,1,0,1,0.5","2",""
"","html-keyboard-response","314","181206","0.0-403.0","3GNCZX450J9A3LJD72G1TZ2WKOJAPT","A13TYYTK5MARJ1","3RBI0I35XEP26UEZY8S8UZLEA1IY3E","","null","<img src=""img/food1.png"" style=""width:200px; border:14px solid green;"">","null","","","","","","","","","",""
"","image-keyboard-response","315","181897","0.0-404.0","3GNCZX450J9A3LJD72G1TZ2WKOJAPT","A13TYYTK5MARJ1","3RBI0I35XEP26UEZY8S8UZLEA1IY3E","","689.6999999880791","img/food6.png","75","690.5","2","1","","3","1","1,0.5,0,1,0.5,0,0.5,0,1","0.5,0,1,0.5,0,1,0,1,0.5","2",""
"","html-keyboard-response","316","182199","0.0-405.0","3GNCZX450J9A3LJD72G1TZ2WKOJAPT","A13TYYTK5MARJ1","3RBI0I35XEP26UEZY8S8UZLEA1IY3E","","null","<img src=""img/food6.png"" style=""width:200px; border:14px solid green;"">","null","","","","","","","","","",""
"","image-keyboard-response","317","182633","0.0-406.0","3GNCZX450J9A3LJD72G1TZ2WKOJAPT","A13TYYTK5MARJ1","3RBI0I35XEP26UEZY8S8UZLEA1IY3E","","433.2999999821186","img/food6.png","75","433.90000000596046","2","1","","3","1","1,0.5,0,1,0.5,0,0.5,0,1","0.5,0,1,0.5,0,1,0,1,0.5","2",""
"","html-keyboard-response","318","182934","0.0-407.0","3GNCZX450J9A3LJD72G1TZ2WKOJAPT","A13TYYTK5MARJ1","3RBI0I35XEP26UEZY8S8UZLEA1IY3E","","null","<img src=""img/food6.png"" style=""width:200px; border:14px solid green;"">","null","","","","","","","","","",""
"","image-keyboard-response","319","183441","0.0-408.0","3GNCZX450J9A3LJD72G1TZ2WKOJAPT","A13TYYTK5MARJ1","3RBI0I35XEP26UEZY8S8UZLEA1IY3E","","506.5","img/food1.png","76","507","3","1","","1","1","1,0.5,0,1,0.5,0,0.5,0,1","0.5,0,1,0.5,0,1,0,1,0.5","2",""
"","html-keyboard-response","320","183742","0.0-409.0","3GNCZX450J9A3LJD72G1TZ2WKOJAPT","A13TYYTK5MARJ1","3RBI0I35XEP26UEZY8S8UZLEA1IY3E","","null","<img src=""img/food1.png"" style=""width:200px; border:14px solid green;"">","null","","","","","","","","","",""
"","image-keyboard-response","321","184137","0.0-410.0","3GNCZX450J9A3LJD72G1TZ2WKOJAPT","A13TYYTK5MARJ1","3RBI0I35XEP26UEZY8S8UZLEA1IY3E","","393.80000001192093","img/food3.png","76","394.5","3","1","","2","1","1,0.5,0,1,0.5,0,0.5,0,1","0.5,0,1,0.5,0,1,0,1,0.5","2",""
"","html-keyboard-response","322","184439","0.0-411.0","3GNCZX450J9A3LJD72G1TZ2WKOJAPT","A13TYYTK5MARJ1","3RBI0I35XEP26UEZY8S8UZLEA1IY3E","","null","<img src=""img/food3.png"" style=""width:200px; border:14px solid green;"">","null","","","","","","","","","",""
"","image-keyboard-response","323","185201","0.0-412.0","3GNCZX450J9A3LJD72G1TZ2WKOJAPT","A13TYYTK5MARJ1","3RBI0I35XEP26UEZY8S8UZLEA1IY3E","","761.7999999821186","img/food1.png","75","762.4000000059605","2","0","","1","1","1,0.5,0,1,0.5,0,0.5,0,1","0.5,0,1,0.5,0,1,0,1,0.5","2",""
"","html-keyboard-response","324","185503","0.0-413.0","3GNCZX450J9A3LJD72G1TZ2WKOJAPT","A13TYYTK5MARJ1","3RBI0I35XEP26UEZY8S8UZLEA1IY3E","","null","<img src=""img/food1.png"" style=""width:200px;border:14px solid red;"">","null","","","","","","","","","",""
"","image-keyboard-response","325","186097","0.0-414.0","3GNCZX450J9A3LJD72G1TZ2WKOJAPT","A13TYYTK5MARJ1","3RBI0I35XEP26UEZY8S8UZLEA1IY3E","","593.4000000059605","img/food1.png","76","594.2000000178814","3","1","","1","1","1,0.5,0,1,0.5,0,0.5,0,1","0.5,0,1,0.5,0,1,0,1,0.5","2",""
"","html-keyboard-response","326","186399","0.0-415.0","3GNCZX450J9A3LJD72G1TZ2WKOJAPT","A13TYYTK5MARJ1","3RBI0I35XEP26UEZY8S8UZLEA1IY3E","","null","<img src=""img/food1.png"" style=""width:200px; border:14px solid green;"">","null","","","","","","","","","",""
"","image-keyboard-response","327","186841","0.0-416.0","3GNCZX450J9A3LJD72G1TZ2WKOJAPT","A13TYYTK5MARJ1","3RBI0I35XEP26UEZY8S8UZLEA1IY3E","","441.7999999821186","img/food3.png","76","442.5","3","1","","2","1","1,0.5,0,1,0.5,0,0.5,0,1","0.5,0,1,0.5,0,1,0,1,0.5","2",""
"","html-keyboard-response","328","187142","0.0-417.0","3GNCZX450J9A3LJD72G1TZ2WKOJAPT","A13TYYTK5MARJ1","3RBI0I35XEP26UEZY8S8UZLEA1IY3E","","null","<img src=""img/food3.png"" style=""width:200px; border:14px solid green;"">","null","","","","","","","","","",""
"","image-keyboard-response","329","187721","0.0-418.0","3GNCZX450J9A3LJD72G1TZ2WKOJAPT","A13TYYTK5MARJ1","3RBI0I35XEP26UEZY8S8UZLEA1IY3E","","578.0999999940395","img/food1.png","76","578.7000000178814","3","1","","1","1","1,0.5,0,1,0.5,0,0.5,0,1","0.5,0,1,0.5,0,1,0,1,0.5","2",""
"","html-keyboard-response","330","188023","0.0-419.0","3GNCZX450J9A3LJD72G1TZ2WKOJAPT","A13TYYTK5MARJ1","3RBI0I35XEP26UEZY8S8UZLEA1IY3E","","null","<img src=""img/food1.png"" style=""width:200px; border:14px solid green;"">","null","","","","","","","","","",""
"","image-keyboard-response","331","188441","0.0-420.0","3GNCZX450J9A3LJD72G1TZ2WKOJAPT","A13TYYTK5MARJ1","3RBI0I35XEP26UEZY8S8UZLEA1IY3E","","417.30000001192093","img/food3.png","76","418","3","1","","2","1","1,0.5,0,1,0.5,0,0.5,0,1","0.5,0,1,0.5,0,1,0,1,0.5","2",""
"","html-keyboard-response","332","188742","0.0-421.0","3GNCZX450J9A3LJD72G1TZ2WKOJAPT","A13TYYTK5MARJ1","3RBI0I35XEP26UEZY8S8UZLEA1IY3E","","null","<img src=""img/food3.png"" style=""width:200px; border:14px solid green;"">","null","","","","","","","","","",""
"","image-keyboard-response","333","189201","0.0-422.0","3GNCZX450J9A3LJD72G1TZ2WKOJAPT","A13TYYTK5MARJ1","3RBI0I35XEP26UEZY8S8UZLEA1IY3E","","458.40000000596046","img/food6.png","75","459.09999999403954","2","1","","3","1","1,0.5,0,1,0.5,0,0.5,0,1","0.5,0,1,0.5,0,1,0,1,0.5","2",""
"","html-keyboard-response","334","189503","0.0-423.0","3GNCZX450J9A3LJD72G1TZ2WKOJAPT","A13TYYTK5MARJ1","3RBI0I35XEP26UEZY8S8UZLEA1IY3E","","null","<img src=""img/food6.png"" style=""width:200px; border:14px solid green;"">","null","","","","","","","","","",""
"","image-keyboard-response","335","189945","0.0-424.0","3GNCZX450J9A3LJD72G1TZ2WKOJAPT","A13TYYTK5MARJ1","3RBI0I35XEP26UEZY8S8UZLEA1IY3E","","441.2999999821186","img/food3.png","76","442","3","1","","2","1","1,0.5,0,1,0.5,0,0.5,0,1","0.5,0,1,0.5,0,1,0,1,0.5","2",""
"","html-keyboard-response","336","190246","0.0-425.0","3GNCZX450J9A3LJD72G1TZ2WKOJAPT","A13TYYTK5MARJ1","3RBI0I35XEP26UEZY8S8UZLEA1IY3E","","null","<img src=""img/food3.png"" style=""width:200px; border:14px solid green;"">","null","","","","","","","","","",""
"","image-keyboard-response","337","190633","0.0-426.0","3GNCZX450J9A3LJD72G1TZ2WKOJAPT","A13TYYTK5MARJ1","3RBI0I35XEP26UEZY8S8UZLEA1IY3E","","385.90000000596046","img/food1.png","76","386.60000002384186","3","1","","1","1","1,0.5,0,1,0.5,0,0.5,0,1","0.5,0,1,0.5,0,1,0,1,0.5","2",""
"","html-keyboard-response","338","190935","0.0-427.0","3GNCZX450J9A3LJD72G1TZ2WKOJAPT","A13TYYTK5MARJ1","3RBI0I35XEP26UEZY8S8UZLEA1IY3E","","null","<img src=""img/food1.png"" style=""width:200px; border:14px solid green;"">","null","","","","","","","","","",""
"","image-keyboard-response","339","191321","0.0-428.0","3GNCZX450J9A3LJD72G1TZ2WKOJAPT","A13TYYTK5MARJ1","3RBI0I35XEP26UEZY8S8UZLEA1IY3E","","385.69999998807907","img/food1.png","76","386.30000001192093","3","1","","1","1","1,0.5,0,1,0.5,0,0.5,0,1","0.5,0,1,0.5,0,1,0,1,0.5","2",""
"","html-keyboard-response","340","191623","0.0-429.0","3GNCZX450J9A3LJD72G1TZ2WKOJAPT","A13TYYTK5MARJ1","3RBI0I35XEP26UEZY8S8UZLEA1IY3E","","null","<img src=""img/food1.png"" style=""width:200px; border:14px solid green;"">","null","","","","","","","","","",""
"","image-keyboard-response","341","192361","0.0-430.0","3GNCZX450J9A3LJD72G1TZ2WKOJAPT","A13TYYTK5MARJ1","3RBI0I35XEP26UEZY8S8UZLEA1IY3E","","736.9000000059605","img/food6.png","75","737.5","2","1","","3","1","1,0.5,0,1,0.5,0,0.5,0,1","0.5,0,1,0.5,0,1,0,1,0.5","2",""
"","html-keyboard-response","342","192663","0.0-431.0","3GNCZX450J9A3LJD72G1TZ2WKOJAPT","A13TYYTK5MARJ1","3RBI0I35XEP26UEZY8S8UZLEA1IY3E","","null","<img src=""img/food6.png"" style=""width:200px; border:14px solid green;"">","null","","","","","","","","","",""
"","image-keyboard-response","343","193153","0.0-432.0","3GNCZX450J9A3LJD72G1TZ2WKOJAPT","A13TYYTK5MARJ1","3RBI0I35XEP26UEZY8S8UZLEA1IY3E","","489.5","img/food6.png","75","490.09999999403954","2","1","","3","1","1,0.5,0,1,0.5,0,0.5,0,1","0.5,0,1,0.5,0,1,0,1,0.5","2",""
"","html-keyboard-response","344","193454","0.0-433.0","3GNCZX450J9A3LJD72G1TZ2WKOJAPT","A13TYYTK5MARJ1","3RBI0I35XEP26UEZY8S8UZLEA1IY3E","","null","<img src=""img/food6.png"" style=""width:200px; border:14px solid green;"">","null","","","","","","","","","",""
"","image-keyboard-response","345","193905","0.0-434.0","3GNCZX450J9A3LJD72G1TZ2WKOJAPT","A13TYYTK5MARJ1","3RBI0I35XEP26UEZY8S8UZLEA1IY3E","","450.60000002384186","img/food3.png","76","451.2999999821186","3","1","","2","1","1,0.5,0,1,0.5,0,0.5,0,1","0.5,0,1,0.5,0,1,0,1,0.5","2",""
"","html-keyboard-response","346","194207","0.0-435.0","3GNCZX450J9A3LJD72G1TZ2WKOJAPT","A13TYYTK5MARJ1","3RBI0I35XEP26UEZY8S8UZLEA1IY3E","","null","<img src=""img/food3.png"" style=""width:200px; border:14px solid green;"">","null","","","","","","","","","",""
"","image-keyboard-response","347","194513","0.0-436.0","3GNCZX450J9A3LJD72G1TZ2WKOJAPT","A13TYYTK5MARJ1","3RBI0I35XEP26UEZY8S8UZLEA1IY3E","","305.30000001192093","img/food3.png","76","306","3","1","","2","1","1,0.5,0,1,0.5,0,0.5,0,1","0.5,0,1,0.5,0,1,0,1,0.5","2",""
"","html-keyboard-response","348","194815","0.0-437.0","3GNCZX450J9A3LJD72G1TZ2WKOJAPT","A13TYYTK5MARJ1","3RBI0I35XEP26UEZY8S8UZLEA1IY3E","","null","<img src=""img/food3.png"" style=""width:200px; border:14px solid green;"">","null","","","","","","","","","",""
"","image-keyboard-response","349","195577","0.0-438.0","3GNCZX450J9A3LJD72G1TZ2WKOJAPT","A13TYYTK5MARJ1","3RBI0I35XEP26UEZY8S8UZLEA1IY3E","","761.5999999940395","img/food1.png","75","762.2000000178814","2","0","","1","1","1,0.5,0,1,0.5,0,0.5,0,1","0.5,0,1,0.5,0,1,0,1,0.5","2",""
"","html-keyboard-response","350","195879","0.0-439.0","3GNCZX450J9A3LJD72G1TZ2WKOJAPT","A13TYYTK5MARJ1","3RBI0I35XEP26UEZY8S8UZLEA1IY3E","","null","<img src=""img/food1.png"" style=""width:200px;border:14px solid red;"">","null","","","","","","","","","",""
"","image-keyboard-response","351","196425","0.0-440.0","3GNCZX450J9A3LJD72G1TZ2WKOJAPT","A13TYYTK5MARJ1","3RBI0I35XEP26UEZY8S8UZLEA1IY3E","","545.0999999940395","img/food3.png","76","545.8000000119209","3","1","","2","1","1,0.5,0,1,0.5,0,0.5,0,1","0.5,0,1,0.5,0,1,0,1,0.5","2",""
"","html-keyboard-response","352","196726","0.0-441.0","3GNCZX450J9A3LJD72G1TZ2WKOJAPT","A13TYYTK5MARJ1","3RBI0I35XEP26UEZY8S8UZLEA1IY3E","","null","<img src=""img/food3.png"" style=""width:200px; border:14px solid green;"">","null","","","","","","","","","",""
"","image-keyboard-response","353","197089","0.0-442.0","3GNCZX450J9A3LJD72G1TZ2WKOJAPT","A13TYYTK5MARJ1","3RBI0I35XEP26UEZY8S8UZLEA1IY3E","","362","img/food3.png","76","362.60000002384186","3","1","","2","1","1,0.5,0,1,0.5,0,0.5,0,1","0.5,0,1,0.5,0,1,0,1,0.5","2",""
"","html-keyboard-response","354","197392","0.0-443.0","3GNCZX450J9A3LJD72G1TZ2WKOJAPT","A13TYYTK5MARJ1","3RBI0I35XEP26UEZY8S8UZLEA1IY3E","","null","<img src=""img/food3.png"" style=""width:200px; border:14px solid green;"">","null","","","","","","","","","",""
"","image-keyboard-response","355","197713","0.0-444.0","3GNCZX450J9A3LJD72G1TZ2WKOJAPT","A13TYYTK5MARJ1","3RBI0I35XEP26UEZY8S8UZLEA1IY3E","","320.30000001192093","img/food3.png","76","321.09999999403954","3","1","","2","1","1,0.5,0,1,0.5,0,0.5,0,1","0.5,0,1,0.5,0,1,0,1,0.5","2",""
"","html-keyboard-response","356","198014","0.0-445.0","3GNCZX450J9A3LJD72G1TZ2WKOJAPT","A13TYYTK5MARJ1","3RBI0I35XEP26UEZY8S8UZLEA1IY3E","","null","<img src=""img/food3.png"" style=""width:200px; border:14px solid green;"">","null","","","","","","","","","",""
"","image-keyboard-response","357","198809","0.0-446.0","3GNCZX450J9A3LJD72G1TZ2WKOJAPT","A13TYYTK5MARJ1","3RBI0I35XEP26UEZY8S8UZLEA1IY3E","","794.3000000119209","img/food6.png","75","794.7999999821186","2","1","","3","1","1,0.5,0,1,0.5,0,0.5,0,1","0.5,0,1,0.5,0,1,0,1,0.5","2",""
"","html-keyboard-response","358","199110","0.0-447.0","3GNCZX450J9A3LJD72G1TZ2WKOJAPT","A13TYYTK5MARJ1","3RBI0I35XEP26UEZY8S8UZLEA1IY3E","","null","<img src=""img/food6.png"" style=""width:200px; border:14px solid green;"">","null","","","","","","","","","",""
"","image-keyboard-response","359","199489","0.0-448.0","3GNCZX450J9A3LJD72G1TZ2WKOJAPT","A13TYYTK5MARJ1","3RBI0I35XEP26UEZY8S8UZLEA1IY3E","","377.90000000596046","img/food6.png","75","378.60000002384186","2","1","","3","1","1,0.5,0,1,0.5,0,0.5,0,1","0.5,0,1,0.5,0,1,0,1,0.5","2",""
"","html-keyboard-response","360","199792","0.0-449.0","3GNCZX450J9A3LJD72G1TZ2WKOJAPT","A13TYYTK5MARJ1","3RBI0I35XEP26UEZY8S8UZLEA1IY3E","","null","<img src=""img/food6.png"" style=""width:200px; border:14px solid green;"">","null","","","","","","","","","",""
"","image-keyboard-response","361","200121","0.0-450.0","3GNCZX450J9A3LJD72G1TZ2WKOJAPT","A13TYYTK5MARJ1","3RBI0I35XEP26UEZY8S8UZLEA1IY3E","","328.80000001192093","img/food6.png","75","329.40000000596046","2","1","","3","1","1,0.5,0,1,0.5,0,0.5,0,1","0.5,0,1,0.5,0,1,0,1,0.5","2",""
"","html-keyboard-response","362","200423","0.0-451.0","3GNCZX450J9A3LJD72G1TZ2WKOJAPT","A13TYYTK5MARJ1","3RBI0I35XEP26UEZY8S8UZLEA1IY3E","","null","<img src=""img/food6.png"" style=""width:200px; border:14px solid green;"">","null","","","","","","","","","",""
"","image-keyboard-response","363","200721","0.0-452.0","3GNCZX450J9A3LJD72G1TZ2WKOJAPT","A13TYYTK5MARJ1","3RBI0I35XEP26UEZY8S8UZLEA1IY3E","","297.5","img/food6.png","75","298.10000002384186","2","1","","3","1","1,0.5,0,1,0.5,0,0.5,0,1","0.5,0,1,0.5,0,1,0,1,0.5","2",""
"","html-keyboard-response","364","201023","0.0-453.0","3GNCZX450J9A3LJD72G1TZ2WKOJAPT","A13TYYTK5MARJ1","3RBI0I35XEP26UEZY8S8UZLEA1IY3E","","null","<img src=""img/food6.png"" style=""width:200px; border:14px solid green;"">","null","","","","","","","","","",""
"","html-keyboard-response","365","204081","0.0-454.0","3GNCZX450J9A3LJD72G1TZ2WKOJAPT","A13TYYTK5MARJ1","3RBI0I35XEP26UEZY8S8UZLEA1IY3E","","","","","","","","","","","","","",""
"","instructions","366","205546","0.0-455.0","3GNCZX450J9A3LJD72G1TZ2WKOJAPT","A13TYYTK5MARJ1","3RBI0I35XEP26UEZY8S8UZLEA1IY3E","[{""page_index"":0,""viewing_time"":1464.300000011921}]","1464.4000000059605","","","","","","","","","","","",""
"","survey-text","367","211976","0.0-456.0","3GNCZX450J9A3LJD72G1TZ2WKOJAPT","A13TYYTK5MARJ1","3RBI0I35XEP26UEZY8S8UZLEA1IY3E","","6426.4000000059605","","","","","","","","","","","","{""Q0"":""A13TYYTK5MARJ1""}"
