"success","trial_type","trial_index","time_elapsed","internal_node_id","assignmentID","mturkID","hitID","view_history","rt","stimulus","key_press","reactionTime","a","r","s","cond","reward_cond","reward_cond_actual","reward_matrix_idx","warning","responses"
"true","fullscreen","0","2786","0.0-0.0","","","","","","","","","","","","","","","","",""
"","instructions","1","9340","0.0-1.0","","","","[{""page_index"":0,""viewing_time"":1455.2999999970198},{""page_index"":1,""viewing_time"":631.7000000029802},{""page_index"":2,""viewing_time"":447.59999999403954},{""page_index"":3,""viewing_time"":991.7000000029802},{""page_index"":4,""viewing_time"":1288.2000000029802},{""page_index"":5,""viewing_time"":1008.0999999940395},{""page_index"":6,""viewing_time"":728.2000000029802}]","6551.29999999702","","","","","","","","","","","",""
"","image-keyboard-response","2","10881","0.0-2.0","","","","","1538.0999999940395","img/food1.png","76","1539.8999999910593","3","1","2","1","1,0.7,0,1,0.7,0,0.7,0,1","0,1,0.7,0,1,0.7,1,0.7,0","3","",""
"","html-keyboard-response","3","11184","0.0-3.0","","","","","null","<img src=""img/food1.png"" style=""width:200px; border:14px solid green;"">","null","","","","","","","","","",""
"","image-keyboard-response","4","11852","0.0-4.0","","","","","666.7999999970198","img/food3.png","75","668","2","1","1","1","1,0.7,0,1,0.7,0,0.7,0,1","0,1,0.7,0,1,0.7,1,0.7,0","3","",""
"","html-keyboard-response","5","12155","0.0-5.0","","","","","null","<img src=""img/food3.png"" style=""width:200px; border:14px solid green;"">","null","","","","","","","","","",""
"","image-keyboard-response","6","12248","0.0-6.0","","","","","90.79999999701977","img/food3.png","74","91.69999998807907","1","0","1","1","1,0.7,0,1,0.7,0,0.7,0,1","0,1,0.7,0,1,0.7,1,0.7,0","3","",""
"","html-keyboard-response","7","12554","0.0-7.0","","","","","null","<img src=""img/food3.png"" style=""width:200px;border:14px solid red;"">","null","","","","","","","","","",""
"","image-keyboard-response","8","13319","0.0-8.0","","","","","763.5","img/food3.png","75","764.8000000119209","2","1","1","1","1,0.7,0,1,0.7,0,0.7,0,1","0,1,0.7,0,1,0.7,1,0.7,0","3","",""
"","html-keyboard-response","9","13622","0.0-9.0","","","","","null","<img src=""img/food3.png"" style=""width:200px; border:14px solid green;"">","null","","","","","","","","","",""
"","image-keyboard-response","10","13836","0.0-10.0","","","","","211.20000000298023","img/food1.png","75","212.90000000596046","2","1","2","1","1,0.7,0,1,0.7,0,0.7,0,1","0,1,0.7,0,1,0.7,1,0.7,0","3","",""
"","html-keyboard-response","11","14145","0.0-11.0","","","","","null","<img src=""img/food1.png"" style=""width:200px; border:14px solid green;"">","null","","","","","","","","","",""
"","image-keyboard-response","12","14410","0.0-12.0","","","","","264.5","img/food1.png","75","265.19999998807907","2","1","2","1","1,0.7,0,1,0.7,0,0.7,0,1","0,1,0.7,0,1,0.7,1,0.7,0","3","",""
"","html-keyboard-response","13","14715","0.0-13.0","","","","","null","<img src=""img/food1.png"" style=""width:200px; border:14px solid green;"">","null","","","","","","","","","",""
"","image-keyboard-response","14","14841","0.0-14.0","","","","","124.79999999701977","img/food1.png","75","125.8999999910593","2","1","2","1","1,0.7,0,1,0.7,0,0.7,0,1","0,1,0.7,0,1,0.7,1,0.7,0","3","",""
"","html-keyboard-response","15","15145","0.0-15.0","","","","","null","<img src=""img/food1.png"" style=""width:200px; border:14px solid green;"">","null","","","","","","","","","",""
"","image-keyboard-response","16","15188","0.0-16.0","","","","","42","img/food3.png","75","42.5","2","1","1","1","1,0.7,0,1,0.7,0,0.7,0,1","0,1,0.7,0,1,0.7,1,0.7,0","3","",""
"","html-keyboard-response","17","15496","0.0-17.0","","","","","null","<img src=""img/food3.png"" style=""width:200px; border:14px solid green;"">","null","","","","","","","","","",""
"","image-keyboard-response","18","15561","0.0-18.0","","","","","64.20000000298023","img/food3.png","75","64.90000000596046","2","1","1","1","1,0.7,0,1,0.7,0,0.7,0,1","0,1,0.7,0,1,0.7,1,0.7,0","3","",""
"","html-keyboard-response","19","15864","0.0-19.0","","","","","null","<img src=""img/food3.png"" style=""width:200px; border:14px solid green;"">","null","","","","","","","","","",""
"","image-keyboard-response","20","15882","0.0-20.0","","","","","16.200000002980232","img/food1.png","75","17.100000008940697","2","1","2","1","1,0.7,0,1,0.7,0,0.7,0,1","0,1,0.7,0,1,0.7,1,0.7,0","3","",""
"","html-keyboard-response","21","16185","0.0-21.0","","","","","null","<img src=""img/food1.png"" style=""width:200px; border:14px solid green;"">","null","","","","","","","","","",""
"","image-keyboard-response","22","16252","0.0-22.0","","","","","66.30000001192093","img/food3.png","75","67","2","1","1","1","1,0.7,0,1,0.7,0,0.7,0,1","0,1,0.7,0,1,0.7,1,0.7,0","3","",""
"","html-keyboard-response","23","16555","0.0-23.0","","","","","null","<img src=""img/food3.png"" style=""width:200px; border:14px solid green;"">","null","","","","","","","","","",""
"","image-keyboard-response","24","16657","0.0-24.0","","","","","100.29999999701977","img/food1.png","75","102","2","1","2","1","1,0.7,0,1,0.7,0,0.7,0,1","0,1,0.7,0,1,0.7,1,0.7,0","3","",""
"","html-keyboard-response","25","16965","0.0-25.0","","","","","null","<img src=""img/food1.png"" style=""width:200px; border:14px solid green;"">","null","","","","","","","","","",""
"","image-keyboard-response","26","17070","0.0-26.0","","","","","103.79999999701977","img/food1.png","75","104.29999999701977","2","1","2","1","1,0.7,0,1,0.7,0,0.7,0,1","0,1,0.7,0,1,0.7,1,0.7,0","3","",""
"","html-keyboard-response","27","17374","0.0-27.0","","","","","null","<img src=""img/food1.png"" style=""width:200px; border:14px solid green;"">","null","","","","","","","","","",""
"","image-keyboard-response","28","17418","0.0-28.0","","","","","43.29999999701977","img/food3.png","75","43.8999999910593","2","1","1","1","1,0.7,0,1,0.7,0,0.7,0,1","0,1,0.7,0,1,0.7,1,0.7,0","3","",""
"","html-keyboard-response","29","17719","0.0-29.0","","","","","null","<img src=""img/food3.png"" style=""width:200px; border:14px solid green;"">","null","","","","","","","","","",""
"","image-keyboard-response","30","17855","0.0-30.0","","","","","135.1000000089407","img/food1.png","75","135.79999999701977","2","1","2","1","1,0.7,0,1,0.7,0,0.7,0,1","0,1,0.7,0,1,0.7,1,0.7,0","3","",""
"","html-keyboard-response","31","18163","0.0-31.0","","","","","null","<img src=""img/food1.png"" style=""width:200px; border:14px solid green;"">","null","","","","","","","","","",""
"","image-keyboard-response","32","18174","0.0-32.0","","","","","9.799999997019768","img/food4.png","75","10.399999991059303","2","1","3","1","1,0.7,0,1,0.7,0,0.7,0,1","0,1,0.7,0,1,0.7,1,0.7,0","3","",""
"","html-keyboard-response","33","18475","0.0-33.0","","","","","null","<img src=""img/food4.png"" style=""width:200px; border:14px solid green;"">","null","","","","","","","","","",""
"","image-keyboard-response","34","18635","0.0-34.0","","","","","158.80000001192093","img/food4.png","75","159.5","2","0","3","1","1,0.7,0,1,0.7,0,0.7,0,1","0,1,0.7,0,1,0.7,1,0.7,0","3","",""
"","html-keyboard-response","35","18937","0.0-35.0","","","","","null","<img src=""img/food4.png"" style=""width:200px;border:14px solid red;"">","null","","","","","","","","","",""
"","image-keyboard-response","36","19122","0.0-36.0","","","","","183.79999999701977","img/food1.png","75","184.40000000596046","2","1","2","1","1,0.7,0,1,0.7,0,0.7,0,1","0,1,0.7,0,1,0.7,1,0.7,0","3","",""
"","html-keyboard-response","37","19425","0.0-37.0","","","","","null","<img src=""img/food1.png"" style=""width:200px; border:14px solid green;"">","null","","","","","","","","","",""
"","image-keyboard-response","38","19620","0.0-38.0","","","","","193.79999999701977","img/food4.png","75","194.40000000596046","2","1","3","1","1,0.7,0,1,0.7,0,0.7,0,1","0,1,0.7,0,1,0.7,1,0.7,0","3","",""
"","html-keyboard-response","39","19925","0.0-39.0","","","","","null","<img src=""img/food4.png"" style=""width:200px; border:14px solid green;"">","null","","","","","","","","","",""
"","image-keyboard-response","40","20150","0.0-40.0","","","","","223.40000000596046","img/food3.png","75","224.09999999403954","2","1","1","1","1,0.7,0,1,0.7,0,0.7,0,1","0,1,0.7,0,1,0.7,1,0.7,0","3","",""
"","html-keyboard-response","41","20454","0.0-41.0","","","","","null","<img src=""img/food3.png"" style=""width:200px; border:14px solid green;"">","null","","","","","","","","","",""
"","image-keyboard-response","42","20615","0.0-42.0","","","","","160.19999998807907","img/food1.png","75","160.90000000596046","2","1","2","1","1,0.7,0,1,0.7,0,0.7,0,1","0,1,0.7,0,1,0.7,1,0.7,0","3","",""
"","html-keyboard-response","43","20918","0.0-43.0","","","","","null","<img src=""img/food1.png"" style=""width:200px; border:14px solid green;"">","null","","","","","","","","","",""
"","image-keyboard-response","44","21077","0.0-44.0","","","","","157.70000000298023","img/food3.png","75","158.3999999910593","2","1","1","1","1,0.7,0,1,0.7,0,0.7,0,1","0,1,0.7,0,1,0.7,1,0.7,0","3","",""
"","html-keyboard-response","45","21385","0.0-45.0","","","","","null","<img src=""img/food3.png"" style=""width:200px; border:14px solid green;"">","null","","","","","","","","","",""
"","image-keyboard-response","46","21578","0.0-46.0","","","","","191.5","img/food4.png","75","192.20000000298023","2","1","3","1","1,0.7,0,1,0.7,0,0.7,0,1","0,1,0.7,0,1,0.7,1,0.7,0","3","",""
"","html-keyboard-response","47","21885","0.0-47.0","","","","","null","<img src=""img/food4.png"" style=""width:200px; border:14px solid green;"">","null","","","","","","","","","",""
"","image-keyboard-response","48","22114","0.0-48.0","","","","","227.20000000298023","img/food4.png","75","227.90000000596046","2","0","3","1","1,0.7,0,1,0.7,0,0.7,0,1","0,1,0.7,0,1,0.7,1,0.7,0","3","",""
"","html-keyboard-response","49","22422","0.0-49.0","","","","","null","<img src=""img/food4.png"" style=""width:200px;border:14px solid red;"">","null","","","","","","","","","",""
"","image-keyboard-response","50","22559","0.0-50.0","","","","","136.30000001192093","img/food4.png","75","137.1000000089407","2","1","3","1","1,0.7,0,1,0.7,0,0.7,0,1","0,1,0.7,0,1,0.7,1,0.7,0","3","",""
"","html-keyboard-response","51","22865","0.0-51.0","","","","","null","<img src=""img/food4.png"" style=""width:200px; border:14px solid green;"">","null","","","","","","","","","",""
"","image-keyboard-response","52","23016","0.0-52.0","","","","","150.09999999403954","img/food1.png","75","150.70000000298023","2","1","2","1","1,0.7,0,1,0.7,0,0.7,0,1","0,1,0.7,0,1,0.7,1,0.7,0","3","",""
"","html-keyboard-response","53","23325","0.0-53.0","","","","","null","<img src=""img/food1.png"" style=""width:200px; border:14px solid green;"">","null","","","","","","","","","",""
"","image-keyboard-response","54","23718","0.0-54.0","","","","","391.5","img/food4.png","75","392.5","2","0","3","1","1,0.7,0,1,0.7,0,0.7,0,1","0,1,0.7,0,1,0.7,1,0.7,0","3","",""
"","html-keyboard-response","55","24022","0.0-55.0","","","","","null","<img src=""img/food4.png"" style=""width:200px;border:14px solid red;"">","null","","","","","","","","","",""
"","image-keyboard-response","56","24178","0.0-56.0","","","","","155.20000000298023","img/food4.png","75","156","2","1","3","1","1,0.7,0,1,0.7,0,0.7,0,1","0,1,0.7,0,1,0.7,1,0.7,0","3","",""
"","html-keyboard-response","57","24483","0.0-57.0","","","","","null","<img src=""img/food4.png"" style=""width:200px; border:14px solid green;"">","null","","","","","","","","","",""
"","image-keyboard-response","58","24611","0.0-58.0","","","","","126.69999998807907","img/food1.png","75","127.30000001192093","2","1","2","1","1,0.7,0,1,0.7,0,0.7,0,1","0,1,0.7,0,1,0.7,1,0.7,0","3","",""
"","html-keyboard-response","59","24915","0.0-59.0","","","","","null","<img src=""img/food1.png"" style=""width:200px; border:14px solid green;"">","null","","","","","","","","","",""
"","image-keyboard-response","60","25114","0.0-60.0","","","","","198.30000001192093","img/food1.png","75","199.09999999403954","2","1","2","1","1,0.7,0,1,0.7,0,0.7,0,1","0,1,0.7,0,1,0.7,1,0.7,0","3","",""
"","html-keyboard-response","61","25424","0.0-61.0","","","","","null","<img src=""img/food1.png"" style=""width:200px; border:14px solid green;"">","null","","","","","","","","","",""
"","image-keyboard-response","62","25589","0.0-62.0","","","","","164.59999999403954","img/food3.png","75","165.59999999403954","2","1","1","1","1,0.7,0,1,0.7,0,0.7,0,1","0,1,0.7,0,1,0.7,1,0.7,0","3","",""
"","html-keyboard-response","63","25896","0.0-63.0","","","","","null","<img src=""img/food3.png"" style=""width:200px; border:14px solid green;"">","null","","","","","","","","","",""
"","image-keyboard-response","64","26495","0.0-64.0","","","","","598.7000000029802","img/food3.png","75","599.5","2","1","1","1","1,0.7,0,1,0.7,0,0.7,0,1","0,1,0.7,0,1,0.7,1,0.7,0","3","",""
"","html-keyboard-response","65","26804","0.0-65.0","","","","","null","<img src=""img/food3.png"" style=""width:200px; border:14px solid green;"">","null","","","","","","","","","",""
"","image-keyboard-response","66","26894","0.0-66.0","","","","","88.90000000596046","img/food3.png","75","89.70000000298023","2","1","1","1","1,0.7,0,1,0.7,0,0.7,0,1","0,1,0.7,0,1,0.7,1,0.7,0","3","",""
"","html-keyboard-response","67","27195","0.0-67.0","","","","","null","<img src=""img/food3.png"" style=""width:200px; border:14px solid green;"">","null","","","","","","","","","",""
"","image-keyboard-response","68","27254","0.0-68.0","","","","","57.29999999701977","img/food3.png","75","58.1000000089407","2","1","1","1","1,0.7,0,1,0.7,0,0.7,0,1","0,1,0.7,0,1,0.7,1,0.7,0","3","",""
"","html-keyboard-response","69","27563","0.0-69.0","","","","","null","<img src=""img/food3.png"" style=""width:200px; border:14px solid green;"">","null","","","","","","","","","",""
"","image-keyboard-response","70","27653","0.0-70.0","","","","","88.70000000298023","img/food1.png","75","89.3999999910593","2","1","2","1","1,0.7,0,1,0.7,0,0.7,0,1","0,1,0.7,0,1,0.7,1,0.7,0","3","",""
"","html-keyboard-response","71","27955","0.0-71.0","","","","","null","<img src=""img/food1.png"" style=""width:200px; border:14px solid green;"">","null","","","","","","","","","",""
"","image-keyboard-response","72","28157","0.0-72.0","","","","","200.6000000089407","img/food1.png","75","201.40000000596046","2","1","2","1","1,0.7,0,1,0.7,0,0.7,0,1","0,1,0.7,0,1,0.7,1,0.7,0","3","",""
"","html-keyboard-response","73","28463","0.0-73.0","","","","","null","<img src=""img/food1.png"" style=""width:200px; border:14px solid green;"">","null","","","","","","","","","",""
"","image-keyboard-response","74","28522","0.0-74.0","","","","","57.1000000089407","img/food3.png","75","57.900000005960464","2","1","1","1","1,0.7,0,1,0.7,0,0.7,0,1","0,1,0.7,0,1,0.7,1,0.7,0","3","",""
"","html-keyboard-response","75","28825","0.0-75.0","","","","","null","<img src=""img/food3.png"" style=""width:200px; border:14px solid green;"">","null","","","","","","","","","",""
"","image-keyboard-response","76","29006","0.0-76.0","","","","","180.40000000596046","img/food3.png","75","181","2","1","1","1","1,0.7,0,1,0.7,0,0.7,0,1","0,1,0.7,0,1,0.7,1,0.7,0","3","",""
"","html-keyboard-response","77","29315","0.0-77.0","","","","","null","<img src=""img/food3.png"" style=""width:200px; border:14px solid green;"">","null","","","","","","","","","",""
"","image-keyboard-response","78","29432","0.0-78.0","","","","","116.20000000298023","img/food3.png","75","116.90000000596046","2","1","1","1","1,0.7,0,1,0.7,0,0.7,0,1","0,1,0.7,0,1,0.7,1,0.7,0","3","",""
"","html-keyboard-response","79","29735","0.0-79.0","","","","","null","<img src=""img/food3.png"" style=""width:200px; border:14px solid green;"">","null","","","","","","","","","",""
"","image-keyboard-response","80","29820","0.0-80.0","","","","","84.40000000596046","img/food4.png","75","85.09999999403954","2","1","3","1","1,0.7,0,1,0.7,0,0.7,0,1","0,1,0.7,0,1,0.7,1,0.7,0","3","",""
"","html-keyboard-response","81","30122","0.0-81.0","","","","","null","<img src=""img/food4.png"" style=""width:200px; border:14px solid green;"">","null","","","","","","","","","",""
"","image-keyboard-response","82","30223","0.0-82.0","","","","","100.1000000089407","img/food4.png","75","100.90000000596046","2","0","3","1","1,0.7,0,1,0.7,0,0.7,0,1","0,1,0.7,0,1,0.7,1,0.7,0","3","",""
"","html-keyboard-response","83","30525","0.0-83.0","","","","","null","<img src=""img/food4.png"" style=""width:200px;border:14px solid red;"">","null","","","","","","","","","",""
"","image-keyboard-response","84","30646","0.0-84.0","","","","","119.5","img/food1.png","75","120.1000000089407","2","1","2","1","1,0.7,0,1,0.7,0,0.7,0,1","0,1,0.7,0,1,0.7,1,0.7,0","3","",""
"","html-keyboard-response","85","30947","0.0-85.0","","","","","null","<img src=""img/food1.png"" style=""width:200px; border:14px solid green;"">","null","","","","","","","","","",""
"","image-keyboard-response","86","31126","0.0-86.0","","","","","177.29999999701977","img/food3.png","75","178.20000000298023","2","1","1","1","1,0.7,0,1,0.7,0,0.7,0,1","0,1,0.7,0,1,0.7,1,0.7,0","3","",""
"","html-keyboard-response","87","31429","0.0-87.0","","","","","null","<img src=""img/food3.png"" style=""width:200px; border:14px solid green;"">","null","","","","","","","","","",""
"","image-keyboard-response","88","31564","0.0-88.0","","","","","133.80000001192093","img/food1.png","75","134.70000000298023","2","1","2","1","1,0.7,0,1,0.7,0,0.7,0,1","0,1,0.7,0,1,0.7,1,0.7,0","3","",""
"","html-keyboard-response","89","31866","0.0-89.0","","","","","null","<img src=""img/food1.png"" style=""width:200px; border:14px solid green;"">","null","","","","","","","","","",""
"","image-keyboard-response","90","31976","0.0-90.0","","","","","109.29999999701977","img/food4.png","75","110","2","1","3","1","1,0.7,0,1,0.7,0,0.7,0,1","0,1,0.7,0,1,0.7,1,0.7,0","3","",""
"","html-keyboard-response","91","32277","0.0-91.0","","","","","null","<img src=""img/food4.png"" style=""width:200px; border:14px solid green;"">","null","","","","","","","","","",""
"","image-keyboard-response","92","32456","0.0-92.0","","","","","178.1000000089407","img/food4.png","75","178.79999999701977","2","1","3","1","1,0.7,0,1,0.7,0,0.7,0,1","0,1,0.7,0,1,0.7,1,0.7,0","3","",""
"","html-keyboard-response","93","32757","0.0-93.0","","","","","null","<img src=""img/food4.png"" style=""width:200px; border:14px solid green;"">","null","","","","","","","","","",""
"","image-keyboard-response","94","32758","0.0-94.0","","","","","0","img/food1.png","75","0.7999999970197678","2","1","2","1","1,0.7,0,1,0.7,0,0.7,0,1","0,1,0.7,0,1,0.7,1,0.7,0","3","",""
"","html-keyboard-response","95","33060","0.0-95.0","","","","","null","<img src=""img/food1.png"" style=""width:200px; border:14px solid green;"">","null","","","","","","","","","",""
"","image-keyboard-response","96","33211","0.0-96.0","","","","","149.5","img/food3.png","75","150.5","2","1","1","1","1,0.7,0,1,0.7,0,0.7,0,1","0,1,0.7,0,1,0.7,1,0.7,0","3","",""
"","html-keyboard-response","97","33514","0.0-97.0","","","","","null","<img src=""img/food3.png"" style=""width:200px; border:14px solid green;"">","null","","","","","","","","","",""
"","image-keyboard-response","98","33744","0.0-98.0","","","","","228.70000000298023","img/food1.png","75","229.69999998807907","2","1","2","1","1,0.7,0,1,0.7,0,0.7,0,1","0,1,0.7,0,1,0.7,1,0.7,0","3","",""
"","html-keyboard-response","99","34046","0.0-99.0","","","","","null","<img src=""img/food1.png"" style=""width:200px; border:14px solid green;"">","null","","","","","","","","","",""
"","image-keyboard-response","100","34234","0.0-100.0","","","","","186.40000000596046","img/food1.png","75","187.1000000089407","2","1","2","1","1,0.7,0,1,0.7,0,0.7,0,1","0,1,0.7,0,1,0.7,1,0.7,0","3","",""
"","html-keyboard-response","101","34535","0.0-101.0","","","","","null","<img src=""img/food1.png"" style=""width:200px; border:14px solid green;"">","null","","","","","","","","","",""
"","image-keyboard-response","102","34641","0.0-102.0","","","","","105","img/food4.png","75","105.70000000298023","2","1","3","1","1,0.7,0,1,0.7,0,0.7,0,1","0,1,0.7,0,1,0.7,1,0.7,0","3","",""
"","html-keyboard-response","103","34944","0.0-103.0","","","","","null","<img src=""img/food4.png"" style=""width:200px; border:14px solid green;"">","null","","","","","","","","","",""
"","image-keyboard-response","104","35017","0.0-104.0","","","","","72.20000000298023","img/food3.png","75","72.90000000596046","2","1","1","1","1,0.7,0,1,0.7,0,0.7,0,1","0,1,0.7,0,1,0.7,1,0.7,0","3","",""
"","html-keyboard-response","105","35320","0.0-105.0","","","","","null","<img src=""img/food3.png"" style=""width:200px; border:14px solid green;"">","null","","","","","","","","","",""
"","image-keyboard-response","106","35383","0.0-106.0","","","","","62.400000005960464","img/food1.png","75","63.1000000089407","2","1","2","1","1,0.7,0,1,0.7,0,0.7,0,1","0,1,0.7,0,1,0.7,1,0.7,0","3","",""
"","html-keyboard-response","107","35685","0.0-107.0","","","","","null","<img src=""img/food1.png"" style=""width:200px; border:14px solid green;"">","null","","","","","","","","","",""
"","image-keyboard-response","108","35844","0.0-108.0","","","","","158","img/food4.png","75","158.79999999701977","2","0","3","1","1,0.7,0,1,0.7,0,0.7,0,1","0,1,0.7,0,1,0.7,1,0.7,0","3","",""
"","html-keyboard-response","109","36146","0.0-109.0","","","","","null","<img src=""img/food4.png"" style=""width:200px;border:14px solid red;"">","null","","","","","","","","","",""
"","image-keyboard-response","110","36305","0.0-110.0","","","","","158.3999999910593","img/food1.png","75","159.1000000089407","2","1","2","1","1,0.7,0,1,0.7,0,0.7,0,1","0,1,0.7,0,1,0.7,1,0.7,0","3","",""
"","html-keyboard-response","111","36608","0.0-111.0","","","","","null","<img src=""img/food1.png"" style=""width:200px; border:14px solid green;"">","null","","","","","","","","","",""
"","image-keyboard-response","112","36773","0.0-112.0","","","","","164.20000000298023","img/food3.png","75","165","2","1","1","1","1,0.7,0,1,0.7,0,0.7,0,1","0,1,0.7,0,1,0.7,1,0.7,0","3","",""
"","html-keyboard-response","113","37076","0.0-113.0","","","","","null","<img src=""img/food3.png"" style=""width:200px; border:14px solid green;"">","null","","","","","","","","","",""
"","image-keyboard-response","114","37258","0.0-114.0","","","","","181.79999999701977","img/food3.png","75","182.5","2","1","1","1","1,0.7,0,1,0.7,0,0.7,0,1","0,1,0.7,0,1,0.7,1,0.7,0","3","",""
"","html-keyboard-response","115","37565","0.0-115.0","","","","","null","<img src=""img/food3.png"" style=""width:200px; border:14px solid green;"">","null","","","","","","","","","",""
"","image-keyboard-response","116","37725","0.0-116.0","","","","","159.19999998807907","img/food4.png","75","160.1000000089407","2","1","3","1","1,0.7,0,1,0.7,0,0.7,0,1","0,1,0.7,0,1,0.7,1,0.7,0","3","",""
"","html-keyboard-response","117","38028","0.0-117.0","","","","","null","<img src=""img/food4.png"" style=""width:200px; border:14px solid green;"">","null","","","","","","","","","",""
"","image-keyboard-response","118","38193","0.0-118.0","","","","","164.79999999701977","img/food4.png","75","165.5","2","1","3","1","1,0.7,0,1,0.7,0,0.7,0,1","0,1,0.7,0,1,0.7,1,0.7,0","3","",""
"","html-keyboard-response","119","38496","0.0-119.0","","","","","null","<img src=""img/food4.png"" style=""width:200px; border:14px solid green;"">","null","","","","","","","","","",""
"","image-keyboard-response","120","38512","0.0-120.0","","","","","15.200000002980232","img/food3.png","75","16.099999994039536","2","1","1","1","1,0.7,0,1,0.7,0,0.7,0,1","0,1,0.7,0,1,0.7,1,0.7,0","3","",""
"","html-keyboard-response","121","38815","0.0-121.0","","","","","null","<img src=""img/food3.png"" style=""width:200px; border:14px solid green;"">","null","","","","","","","","","",""
"","image-keyboard-response","122","38829","0.0-122.0","","","","","13.5","img/food1.png","75","14.399999991059303","2","1","2","1","1,0.7,0,1,0.7,0,0.7,0,1","0,1,0.7,0,1,0.7,1,0.7,0","3","",""
"","html-keyboard-response","123","39131","0.0-123.0","","","","","null","<img src=""img/food1.png"" style=""width:200px; border:14px solid green;"">","null","","","","","","","","","",""
"","image-keyboard-response","124","39270","0.0-124.0","","","","","138.1000000089407","img/food1.png","75","138.70000000298023","2","1","2","1","1,0.7,0,1,0.7,0,0.7,0,1","0,1,0.7,0,1,0.7,1,0.7,0","3","",""
"","html-keyboard-response","125","39576","0.0-125.0","","","","","null","<img src=""img/food1.png"" style=""width:200px; border:14px solid green;"">","null","","","","","","","","","",""
"","image-keyboard-response","126","39691","0.0-126.0","","","","","114.29999999701977","img/food1.png","75","115","2","1","2","1","1,0.7,0,1,0.7,0,0.7,0,1","0,1,0.7,0,1,0.7,1,0.7,0","3","",""
"","html-keyboard-response","127","39997","0.0-127.0","","","","","null","<img src=""img/food1.png"" style=""width:200px; border:14px solid green;"">","null","","","","","","","","","",""
"","image-keyboard-response","128","40197","0.0-128.0","","","","","198.3999999910593","img/food4.png","75","199.29999999701977","2","1","3","1","1,0.7,0,1,0.7,0,0.7,0,1","0,1,0.7,0,1,0.7,1,0.7,0","3","",""
"","html-keyboard-response","129","40505","0.0-129.0","","","","","null","<img src=""img/food4.png"" style=""width:200px; border:14px solid green;"">","null","","","","","","","","","",""
"","image-keyboard-response","130","40954","0.0-130.0","","","","","447.20000000298023","img/food4.png","75","448.20000000298023","2","1","3","1","1,0.7,0,1,0.7,0,0.7,0,1","0,1,0.7,0,1,0.7,1,0.7,0","3","",""
"","html-keyboard-response","131","41256","0.0-131.0","","","","","null","<img src=""img/food4.png"" style=""width:200px; border:14px solid green;"">","null","","","","","","","","","",""
"","image-keyboard-response","132","41342","0.0-132.0","","","","","85.40000000596046","img/food1.png","75","86.20000000298023","2","1","2","1","1,0.7,0,1,0.7,0,0.7,0,1","0,1,0.7,0,1,0.7,1,0.7,0","3","",""
"","html-keyboard-response","133","41644","0.0-133.0","","","","","null","<img src=""img/food1.png"" style=""width:200px; border:14px solid green;"">","null","","","","","","","","","",""
"","image-keyboard-response","134","42010","0.0-134.0","","","","","364.40000000596046","img/food3.png","75","365.20000000298023","2","1","1","1","1,0.7,0,1,0.7,0,0.7,0,1","0,1,0.7,0,1,0.7,1,0.7,0","3","",""
"","html-keyboard-response","135","42312","0.0-135.0","","","","","null","<img src=""img/food3.png"" style=""width:200px; border:14px solid green;"">","null","","","","","","","","","",""
"","image-keyboard-response","136","42367","0.0-136.0","","","","","53.3999999910593","img/food4.png","75","54.29999999701977","2","1","3","1","1,0.7,0,1,0.7,0,0.7,0,1","0,1,0.7,0,1,0.7,1,0.7,0","3","",""
"","html-keyboard-response","137","42669","0.0-137.0","","","","","null","<img src=""img/food4.png"" style=""width:200px; border:14px solid green;"">","null","","","","","","","","","",""
"","image-keyboard-response","138","42715","0.0-138.0","","","","","44.599999994039536","img/food4.png","75","45.900000005960464","2","1","3","1","1,0.7,0,1,0.7,0,0.7,0,1","0,1,0.7,0,1,0.7,1,0.7,0","3","",""
"","html-keyboard-response","139","43017","0.0-139.0","","","","","null","<img src=""img/food4.png"" style=""width:200px; border:14px solid green;"">","null","","","","","","","","","",""
"","image-keyboard-response","140","43116","0.0-140.0","","","","","98.29999999701977","img/food3.png","75","99.09999999403954","2","1","1","1","1,0.7,0,1,0.7,0,0.7,0,1","0,1,0.7,0,1,0.7,1,0.7,0","3","",""
"","html-keyboard-response","141","43420","0.0-141.0","","","","","null","<img src=""img/food3.png"" style=""width:200px; border:14px solid green;"">","null","","","","","","","","","",""
"","image-keyboard-response","142","43462","0.0-142.0","","","","","40.6000000089407","img/food4.png","75","41.599999994039536","2","1","3","1","1,0.7,0,1,0.7,0,0.7,0,1","0,1,0.7,0,1,0.7,1,0.7,0","3","",""
"","html-keyboard-response","143","43767","0.0-143.0","","","","","null","<img src=""img/food4.png"" style=""width:200px; border:14px solid green;"">","null","","","","","","","","","",""
"","image-keyboard-response","144","43853","0.0-144.0","","","","","84.40000000596046","img/food3.png","75","85.69999998807907","2","1","1","1","1,0.7,0,1,0.7,0,0.7,0,1","0,1,0.7,0,1,0.7,1,0.7,0","3","",""
"","html-keyboard-response","145","44155","0.0-145.0","","","","","null","<img src=""img/food3.png"" style=""width:200px; border:14px solid green;"">","null","","","","","","","","","",""
"","image-keyboard-response","146","44293","0.0-146.0","","","","","136.70000000298023","img/food4.png","75","137.5","2","1","3","1","1,0.7,0,1,0.7,0,0.7,0,1","0,1,0.7,0,1,0.7,1,0.7,0","3","",""
"","html-keyboard-response","147","44595","0.0-147.0","","","","","null","<img src=""img/food4.png"" style=""width:200px; border:14px solid green;"">","null","","","","","","","","","",""
"","image-keyboard-response","148","44674","0.0-148.0","","","","","77.20000000298023","img/food4.png","75","78.20000000298023","2","0","3","1","1,0.7,0,1,0.7,0,0.7,0,1","0,1,0.7,0,1,0.7,1,0.7,0","3","",""
"","html-keyboard-response","149","44976","0.0-149.0","","","","","null","<img src=""img/food4.png"" style=""width:200px;border:14px solid red;"">","null","","","","","","","","","",""
"","image-keyboard-response","150","45115","0.0-150.0","","","","","137.69999998807907","img/food4.png","75","138.40000000596046","2","1","3","1","1,0.7,0,1,0.7,0,0.7,0,1","0,1,0.7,0,1,0.7,1,0.7,0","3","",""
"","html-keyboard-response","151","45417","0.0-151.0","","","","","null","<img src=""img/food4.png"" style=""width:200px; border:14px solid green;"">","null","","","","","","","","","",""
"","image-keyboard-response","152","45534","0.0-152.0","","","","","115.40000000596046","img/food4.png","75","116.1000000089407","2","1","3","1","1,0.7,0,1,0.7,0,0.7,0,1","0,1,0.7,0,1,0.7,1,0.7,0","3","",""
"","html-keyboard-response","153","45836","0.0-153.0","","","","","null","<img src=""img/food4.png"" style=""width:200px; border:14px solid green;"">","null","","","","","","","","","",""
"","image-keyboard-response","154","45907","0.0-154.0","","","","","70","img/food4.png","75","70.90000000596046","2","0","3","1","1,0.7,0,1,0.7,0,0.7,0,1","0,1,0.7,0,1,0.7,1,0.7,0","3","",""
"","html-keyboard-response","155","46216","0.0-155.0","","","","","null","<img src=""img/food4.png"" style=""width:200px;border:14px solid red;"">","null","","","","","","","","","",""
"","image-keyboard-response","156","46230","0.0-156.0","","","","","12.100000008940697","img/food3.png","75","12.900000005960464","2","1","1","1","1,0.7,0,1,0.7,0,0.7,0,1","0,1,0.7,0,1,0.7,1,0.7,0","3","",""
"","html-keyboard-response","157","46532","0.0-157.0","","","","","null","<img src=""img/food3.png"" style=""width:200px; border:14px solid green;"">","null","","","","","","","","","",""
"","image-keyboard-response","158","46806","0.0-158.0","","","","","272.20000000298023","img/food1.png","75","273.1000000089407","2","1","2","1","1,0.7,0,1,0.7,0,0.7,0,1","0,1,0.7,0,1,0.7,1,0.7,0","3","",""
"","html-keyboard-response","159","47117","0.0-159.0","","","","","null","<img src=""img/food1.png"" style=""width:200px; border:14px solid green;"">","null","","","","","","","","","",""
"","image-keyboard-response","160","47268","0.0-160.0","","","","","150.20000000298023","img/food3.png","75","151.19999998807907","2","1","1","1","1,0.7,0,1,0.7,0,0.7,0,1","0,1,0.7,0,1,0.7,1,0.7,0","3","",""
"","html-keyboard-response","161","47570","0.0-161.0","","","","","null","<img src=""img/food3.png"" style=""width:200px; border:14px solid green;"">","null","","","","","","","","","",""
"","image-keyboard-response","162","47687","0.0-162.0","","","","","115.3999999910593","img/food3.png","75","116.29999999701977","2","1","1","1","1,0.7,0,1,0.7,0,0.7,0,1","0,1,0.7,0,1,0.7,1,0.7,0","3","",""
"","html-keyboard-response","163","47989","0.0-163.0","","","","","null","<img src=""img/food3.png"" style=""width:200px; border:14px solid green;"">","null","","","","","","","","","",""
"","image-keyboard-response","164","49558","0.0-164.0","","","","","1568.3999999910593","img/food4.png","75","1569.300000011921","2","1","3","1","1,0.7,0,1,0.7,0,0.7,0,1","0,1,0.7,0,1,0.7,1,0.7,0","3","",""
"","html-keyboard-response","165","49861","0.0-165.0","","","","","null","<img src=""img/food4.png"" style=""width:200px; border:14px solid green;"">","null","","","","","","","","","",""
"","image-keyboard-response","166","50055","0.0-166.0","","","","","192.90000000596046","img/food4.png","75","193.70000000298023","2","1","3","1","1,0.7,0,1,0.7,0,0.7,0,1","0,1,0.7,0,1,0.7,1,0.7,0","3","",""
"","html-keyboard-response","167","50357","0.0-167.0","","","","","null","<img src=""img/food4.png"" style=""width:200px; border:14px solid green;"">","null","","","","","","","","","",""
"","image-keyboard-response","168","50443","0.0-168.0","","","","","85.3999999910593","img/food1.png","75","86.09999999403954","2","1","2","1","1,0.7,0,1,0.7,0,0.7,0,1","0,1,0.7,0,1,0.7,1,0.7,0","3","",""
"","html-keyboard-response","169","50746","0.0-169.0","","","","","null","<img src=""img/food1.png"" style=""width:200px; border:14px solid green;"">","null","","","","","","","","","",""
"","image-keyboard-response","170","50860","0.0-170.0","","","","","113.80000001192093","img/food4.png","75","114.29999999701977","2","1","3","1","1,0.7,0,1,0.7,0,0.7,0,1","0,1,0.7,0,1,0.7,1,0.7,0","3","",""
"","html-keyboard-response","171","51163","0.0-171.0","","","","","null","<img src=""img/food4.png"" style=""width:200px; border:14px solid green;"">","null","","","","","","","","","",""
"","image-keyboard-response","172","51235","0.0-172.0","","","","","71.1000000089407","img/food3.png","75","72.40000000596046","2","1","1","1","1,0.7,0,1,0.7,0,0.7,0,1","0,1,0.7,0,1,0.7,1,0.7,0","3","",""
"","html-keyboard-response","173","51537","0.0-173.0","","","","","null","<img src=""img/food3.png"" style=""width:200px; border:14px solid green;"">","null","","","","","","","","","",""
"","image-keyboard-response","174","51643","0.0-174.0","","","","","105.79999999701977","img/food3.png","75","106.59999999403954","2","1","1","1","1,0.7,0,1,0.7,0,0.7,0,1","0,1,0.7,0,1,0.7,1,0.7,0","3","",""
"","html-keyboard-response","175","51945","0.0-175.0","","","","","null","<img src=""img/food3.png"" style=""width:200px; border:14px solid green;"">","null","","","","","","","","","",""
"","image-keyboard-response","176","52015","0.0-176.0","","","","","69.19999998807907","img/food4.png","75","70","2","0","3","1","1,0.7,0,1,0.7,0,0.7,0,1","0,1,0.7,0,1,0.7,1,0.7,0","3","",""
"","html-keyboard-response","177","52317","0.0-177.0","","","","","null","<img src=""img/food4.png"" style=""width:200px;border:14px solid red;"">","null","","","","","","","","","",""
"","image-keyboard-response","178","52520","0.0-178.0","","","","","201.80000001192093","img/food1.png","75","202.70000000298023","2","1","2","1","1,0.7,0,1,0.7,0,0.7,0,1","0,1,0.7,0,1,0.7,1,0.7,0","3","",""
"","html-keyboard-response","179","52821","0.0-179.0","","","","","null","<img src=""img/food1.png"" style=""width:200px; border:14px solid green;"">","null","","","","","","","","","",""
"","image-keyboard-response","180","52901","0.0-180.0","","","","","79","img/food1.png","75","79.90000000596046","2","1","2","1","1,0.7,0,1,0.7,0,0.7,0,1","0,1,0.7,0,1,0.7,1,0.7,0","3","",""
"","html-keyboard-response","181","53202","0.0-181.0","","","","","null","<img src=""img/food1.png"" style=""width:200px; border:14px solid green;"">","null","","","","","","","","","",""
"","html-keyboard-response","182","60508","0.0-182.0","","","","","","","","","","","","","","","","",""
"","instructions","183","62751","0.0-183.0","","","","[{""page_index"":0,""viewing_time"":981.9000000059605},{""page_index"":1,""viewing_time"":1258.2999999970198}]","2242","","","","","","","","","","","",""
"","image-keyboard-response","184","63232","0.0-184.0","","","","","475.69999998807907","img/food2.png","75","479.90000000596046","2","0","2","2","1,0.7,0,1,0.7,0,0.7,0,1","1,0.7,0,1,0.7,0,0.7,0,1","1","false",""
"","html-keyboard-response","185","63534","0.0-185.0","","","","","null","<img src=""img/food2.png"" style=""width:200px;border:14px solid red;"">","null","","","","","","","","","",""
"","image-keyboard-response","186","63849","0.0-187.0","","","","","312.69999998807907","img/food2.png","76","313.59999999403954","3","0","2","2","1,0.7,0,1,0.7,0,0.7,0,1","1,0.7,0,1,0.7,0,0.7,0,1","1","false",""
"","html-keyboard-response","187","64151","0.0-188.0","","","","","null","<img src=""img/food2.png"" style=""width:200px;border:14px solid red;"">","null","","","","","","","","","",""
"","image-keyboard-response","188","64295","0.0-190.0","","","","","141.5","img/food6.png","74","142.29999999701977","1","1","3","2","1,0.7,0,1,0.7,0,0.7,0,1","1,0.7,0,1,0.7,0,0.7,0,1","1","false",""
"","html-keyboard-response","189","64596","0.0-191.0","","","","","null","<img src=""img/food6.png"" style=""width:200px; border:14px solid green;"">","null","","","","","","","","","",""
"","image-keyboard-response","190","64718","0.0-193.0","","","","","120.20000000298023","img/food6.png","74","120.8999999910593","1","1","3","2","1,0.7,0,1,0.7,0,0.7,0,1","1,0.7,0,1,0.7,0,0.7,0,1","1","false",""
"","html-keyboard-response","191","65020","0.0-194.0","","","","","null","<img src=""img/food6.png"" style=""width:200px; border:14px solid green;"">","null","","","","","","","","","",""
"","image-keyboard-response","192","65119","0.0-196.0","","","","","98.29999999701977","img/food6.png","74","99.09999999403954","1","1","3","2","1,0.7,0,1,0.7,0,0.7,0,1","1,0.7,0,1,0.7,0,0.7,0,1","1","false",""
"","html-keyboard-response","193","65422","0.0-197.0","","","","","null","<img src=""img/food6.png"" style=""width:200px; border:14px solid green;"">","null","","","","","","","","","",""
"","image-keyboard-response","194","65514","0.0-199.0","","","","","91.29999999701977","img/food2.png","74","92","1","1","2","2","1,0.7,0,1,0.7,0,0.7,0,1","1,0.7,0,1,0.7,0,0.7,0,1","1","false",""
"","html-keyboard-response","195","65816","0.0-200.0","","","","","null","<img src=""img/food2.png"" style=""width:200px; border:14px solid green;"">","null","","","","","","","","","",""
"","image-keyboard-response","196","65914","0.0-202.0","","","","","97.20000000298023","img/food5.png","74","97.90000000596046","1","1","1","2","1,0.7,0,1,0.7,0,0.7,0,1","1,0.7,0,1,0.7,0,0.7,0,1","1","false",""
"","html-keyboard-response","197","66215","0.0-203.0","","","","","null","<img src=""img/food5.png"" style=""width:200px; border:14px solid green;"">","null","","","","","","","","","",""
"","image-keyboard-response","198","66357","0.0-205.0","","","","","140.90000000596046","img/food6.png","74","141.69999998807907","1","0","3","2","1,0.7,0,1,0.7,0,0.7,0,1","1,0.7,0,1,0.7,0,0.7,0,1","1","false",""
"","html-keyboard-response","199","66660","0.0-206.0","","","","","null","<img src=""img/food6.png"" style=""width:200px;border:14px solid red;"">","null","","","","","","","","","",""
"","image-keyboard-response","200","66691","0.0-208.0","","","","","29.200000002980232","img/food5.png","74","30.299999997019768","1","1","1","2","1,0.7,0,1,0.7,0,0.7,0,1","1,0.7,0,1,0.7,0,0.7,0,1","1","false",""
"","html-keyboard-response","201","66992","0.0-209.0","","","","","null","<img src=""img/food5.png"" style=""width:200px; border:14px solid green;"">","null","","","","","","","","","",""
"","image-keyboard-response","202","67237","0.0-211.0","","","","","243.90000000596046","img/food2.png","74","244.6000000089407","1","1","2","2","1,0.7,0,1,0.7,0,0.7,0,1","1,0.7,0,1,0.7,0,0.7,0,1","1","false",""
"","html-keyboard-response","203","67546","0.0-212.0","","","","","null","<img src=""img/food2.png"" style=""width:200px; border:14px solid green;"">","null","","","","","","","","","",""
"","image-keyboard-response","204","67694","0.0-214.0","","","","","146.5","img/food6.png","74","147.3999999910593","1","1","3","2","1,0.7,0,1,0.7,0,0.7,0,1","1,0.7,0,1,0.7,0,0.7,0,1","1","false",""
"","html-keyboard-response","205","67997","0.0-215.0","","","","","null","<img src=""img/food6.png"" style=""width:200px; border:14px solid green;"">","null","","","","","","","","","",""
"","image-keyboard-response","206","68367","0.0-217.0","","","","","368.70000000298023","img/food5.png","74","369.6000000089407","1","1","1","2","1,0.7,0,1,0.7,0,0.7,0,1","1,0.7,0,1,0.7,0,0.7,0,1","1","false",""
"","html-keyboard-response","207","68669","0.0-218.0","","","","","null","<img src=""img/food5.png"" style=""width:200px; border:14px solid green;"">","null","","","","","","","","","",""
"","image-keyboard-response","208","68797","0.0-220.0","","","","","126.40000000596046","img/food2.png","74","127.20000000298023","1","1","2","2","1,0.7,0,1,0.7,0,0.7,0,1","1,0.7,0,1,0.7,0,0.7,0,1","1","false",""
"","html-keyboard-response","209","69098","0.0-221.0","","","","","null","<img src=""img/food2.png"" style=""width:200px; border:14px solid green;"">","null","","","","","","","","","",""
"","image-keyboard-response","210","69216","0.0-223.0","","","","","116.40000000596046","img/food6.png","74","117.5","1","1","3","2","1,0.7,0,1,0.7,0,0.7,0,1","1,0.7,0,1,0.7,0,0.7,0,1","1","false",""
"","html-keyboard-response","211","69519","0.0-224.0","","","","","null","<img src=""img/food6.png"" style=""width:200px; border:14px solid green;"">","null","","","","","","","","","",""
"","image-keyboard-response","212","69709","0.0-226.0","","","","","188.3999999910593","img/food5.png","74","189.30000001192093","1","1","1","2","1,0.7,0,1,0.7,0,0.7,0,1","1,0.7,0,1,0.7,0,0.7,0,1","1","false",""
"","html-keyboard-response","213","70011","0.0-227.0","","","","","null","<img src=""img/food5.png"" style=""width:200px; border:14px solid green;"">","null","","","","","","","","","",""
"","image-keyboard-response","214","70020","0.0-229.0","","","","","7.100000008940697","img/food2.png","74","8.599999994039536","1","1","2","2","1,0.7,0,1,0.7,0,0.7,0,1","1,0.7,0,1,0.7,0,0.7,0,1","1","false",""
"","html-keyboard-response","215","70323","0.0-230.0","","","","","null","<img src=""img/food2.png"" style=""width:200px; border:14px solid green;"">","null","","","","","","","","","",""
"","image-keyboard-response","216","70517","0.0-232.0","","","","","193.19999998807907","img/food2.png","74","193.79999999701977","1","1","2","2","1,0.7,0,1,0.7,0,0.7,0,1","1,0.7,0,1,0.7,0,0.7,0,1","1","false",""
"","html-keyboard-response","217","70819","0.0-233.0","","","","","null","<img src=""img/food2.png"" style=""width:200px; border:14px solid green;"">","null","","","","","","","","","",""
"","image-keyboard-response","218","70978","0.0-235.0","","","","","157.90000000596046","img/food6.png","74","158.79999999701977","1","1","3","2","1,0.7,0,1,0.7,0,0.7,0,1","1,0.7,0,1,0.7,0,0.7,0,1","1","false",""
"","html-keyboard-response","219","71280","0.0-236.0","","","","","null","<img src=""img/food6.png"" style=""width:200px; border:14px solid green;"">","null","","","","","","","","","",""
"","image-keyboard-response","220","71523","0.0-238.0","","","","","242.09999999403954","img/food2.png","74","243","1","1","2","2","1,0.7,0,1,0.7,0,0.7,0,1","1,0.7,0,1,0.7,0,0.7,0,1","1","false",""
"","html-keyboard-response","221","71826","0.0-239.0","","","","","null","<img src=""img/food2.png"" style=""width:200px; border:14px solid green;"">","null","","","","","","","","","",""
"","image-keyboard-response","222","72567","0.0-241.0","","","","","739.4000000059605","img/food2.png","74","740.0999999940395","1","1","2","2","1,0.7,0,1,0.7,0,0.7,0,1","1,0.7,0,1,0.7,0,0.7,0,1","1","false",""
"","html-keyboard-response","223","72869","0.0-242.0","","","","","null","<img src=""img/food2.png"" style=""width:200px; border:14px solid green;"">","null","","","","","","","","","",""
"","image-keyboard-response","224","73029","0.0-244.0","","","","","159.09999999403954","img/food6.png","74","159.70000000298023","1","1","3","2","1,0.7,0,1,0.7,0,0.7,0,1","1,0.7,0,1,0.7,0,0.7,0,1","1","false",""
"","html-keyboard-response","225","73331","0.0-245.0","","","","","null","<img src=""img/food6.png"" style=""width:200px; border:14px solid green;"">","null","","","","","","","","","",""
"","image-keyboard-response","226","73565","0.0-247.0","","","","","232.5","img/food6.png","74","233.29999999701977","1","1","3","2","1,0.7,0,1,0.7,0,0.7,0,1","1,0.7,0,1,0.7,0,0.7,0,1","1","false",""
"","html-keyboard-response","227","73866","0.0-248.0","","","","","null","<img src=""img/food6.png"" style=""width:200px; border:14px solid green;"">","null","","","","","","","","","",""
"","image-keyboard-response","228","74106","0.0-250.0","","","","","238.8999999910593","img/food2.png","74","239.6000000089407","1","1","2","2","1,0.7,0,1,0.7,0,0.7,0,1","1,0.7,0,1,0.7,0,0.7,0,1","1","false",""
"","html-keyboard-response","229","74408","0.0-251.0","","","","","null","<img src=""img/food2.png"" style=""width:200px; border:14px solid green;"">","null","","","","","","","","","",""
"","image-keyboard-response","230","74550","0.0-253.0","","","","","141.40000000596046","img/food2.png","74","142.19999998807907","1","1","2","2","1,0.7,0,1,0.7,0,0.7,0,1","1,0.7,0,1,0.7,0,0.7,0,1","1","false",""
"","html-keyboard-response","231","74852","0.0-254.0","","","","","null","<img src=""img/food2.png"" style=""width:200px; border:14px solid green;"">","null","","","","","","","","","",""
"","image-keyboard-response","232","75003","0.0-256.0","","","","","150","img/food2.png","74","150.80000001192093","1","1","2","2","1,0.7,0,1,0.7,0,0.7,0,1","1,0.7,0,1,0.7,0,0.7,0,1","1","false",""
"","html-keyboard-response","233","75305","0.0-257.0","","","","","null","<img src=""img/food2.png"" style=""width:200px; border:14px solid green;"">","null","","","","","","","","","",""
"","image-keyboard-response","234","75614","0.0-259.0","","","","","308.40000000596046","img/food5.png","74","309.20000000298023","1","1","1","2","1,0.7,0,1,0.7,0,0.7,0,1","1,0.7,0,1,0.7,0,0.7,0,1","1","false",""
"","html-keyboard-response","235","75916","0.0-260.0","","","","","null","<img src=""img/food5.png"" style=""width:200px; border:14px solid green;"">","null","","","","","","","","","",""
"","image-keyboard-response","236","76138","0.0-262.0","","","","","220.70000000298023","img/food2.png","74","221.29999999701977","1","1","2","2","1,0.7,0,1,0.7,0,0.7,0,1","1,0.7,0,1,0.7,0,0.7,0,1","1","false",""
"","html-keyboard-response","237","76439","0.0-263.0","","","","","null","<img src=""img/food2.png"" style=""width:200px; border:14px solid green;"">","null","","","","","","","","","",""
"","image-keyboard-response","238","76566","0.0-265.0","","","","","125.40000000596046","img/food2.png","74","126.20000000298023","1","1","2","2","1,0.7,0,1,0.7,0,0.7,0,1","1,0.7,0,1,0.7,0,0.7,0,1","1","false",""
"","html-keyboard-response","239","76867","0.0-266.0","","","","","null","<img src=""img/food2.png"" style=""width:200px; border:14px solid green;"">","null","","","","","","","","","",""
"","image-keyboard-response","240","76995","0.0-268.0","","","","","126.69999998807907","img/food2.png","74","127.40000000596046","1","1","2","2","1,0.7,0,1,0.7,0,0.7,0,1","1,0.7,0,1,0.7,0,0.7,0,1","1","false",""
"","html-keyboard-response","241","77297","0.0-269.0","","","","","null","<img src=""img/food2.png"" style=""width:200px; border:14px solid green;"">","null","","","","","","","","","",""
"","image-keyboard-response","242","77378","0.0-271.0","","","","","80.5","img/food6.png","74","81.1000000089407","1","0","3","2","1,0.7,0,1,0.7,0,0.7,0,1","1,0.7,0,1,0.7,0,0.7,0,1","1","false",""
"","html-keyboard-response","243","77687","0.0-272.0","","","","","null","<img src=""img/food6.png"" style=""width:200px;border:14px solid red;"">","null","","","","","","","","","",""
"","image-keyboard-response","244","78281","0.0-274.0","","","","","593.2000000029802","img/food2.png","74","594","1","1","2","2","1,0.7,0,1,0.7,0,0.7,0,1","1,0.7,0,1,0.7,0,0.7,0,1","1","false",""
"","html-keyboard-response","245","78583","0.0-275.0","","","","","null","<img src=""img/food2.png"" style=""width:200px; border:14px solid green;"">","null","","","","","","","","","",""
"","image-keyboard-response","246","78784","0.0-277.0","","","","","200.59999999403954","img/food5.png","74","201.6000000089407","1","1","1","2","1,0.7,0,1,0.7,0,0.7,0,1","1,0.7,0,1,0.7,0,0.7,0,1","1","false",""
"","html-keyboard-response","247","79087","0.0-278.0","","","","","null","<img src=""img/food5.png"" style=""width:200px; border:14px solid green;"">","null","","","","","","","","","",""
"","image-keyboard-response","248","79271","0.0-280.0","","","","","183.20000000298023","img/food5.png","74","184.09999999403954","1","1","1","2","1,0.7,0,1,0.7,0,0.7,0,1","1,0.7,0,1,0.7,0,0.7,0,1","1","false",""
"","html-keyboard-response","249","79574","0.0-281.0","","","","","null","<img src=""img/food5.png"" style=""width:200px; border:14px solid green;"">","null","","","","","","","","","",""
"","image-keyboard-response","250","80004","0.0-283.0","","","","","429.5","img/food2.png","74","430.30000001192093","1","1","2","2","1,0.7,0,1,0.7,0,0.7,0,1","1,0.7,0,1,0.7,0,0.7,0,1","1","false",""
"","html-keyboard-response","251","80307","0.0-284.0","","","","","null","<img src=""img/food2.png"" style=""width:200px; border:14px solid green;"">","null","","","","","","","","","",""
"","image-keyboard-response","252","80343","0.0-286.0","","","","","35.1000000089407","img/food2.png","74","36","1","1","2","2","1,0.7,0,1,0.7,0,0.7,0,1","1,0.7,0,1,0.7,0,0.7,0,1","1","false",""
"","html-keyboard-response","253","80647","0.0-287.0","","","","","null","<img src=""img/food2.png"" style=""width:200px; border:14px solid green;"">","null","","","","","","","","","",""
"","image-keyboard-response","254","80840","0.0-289.0","","","","","190.59999999403954","img/food6.png","74","192.5","1","1","3","2","1,0.7,0,1,0.7,0,0.7,0,1","1,0.7,0,1,0.7,0,0.7,0,1","1","false",""
"","html-keyboard-response","255","81141","0.0-290.0","","","","","null","<img src=""img/food6.png"" style=""width:200px; border:14px solid green;"">","null","","","","","","","","","",""
"","image-keyboard-response","256","81458","0.0-292.0","","","","","315.79999999701977","img/food5.png","74","316.59999999403954","1","1","1","2","1,0.7,0,1,0.7,0,0.7,0,1","1,0.7,0,1,0.7,0,0.7,0,1","1","false",""
"","html-keyboard-response","257","81761","0.0-293.0","","","","","null","<img src=""img/food5.png"" style=""width:200px; border:14px solid green;"">","null","","","","","","","","","",""
"","image-keyboard-response","258","81972","0.0-295.0","","","","","210.19999998807907","img/food2.png","74","210.80000001192093","1","1","2","2","1,0.7,0,1,0.7,0,0.7,0,1","1,0.7,0,1,0.7,0,0.7,0,1","1","false",""
"","html-keyboard-response","259","82274","0.0-296.0","","","","","null","<img src=""img/food2.png"" style=""width:200px; border:14px solid green;"">","null","","","","","","","","","",""
"","image-keyboard-response","260","82415","0.0-298.0","","","","","139.79999999701977","img/food5.png","74","140.70000000298023","1","1","1","2","1,0.7,0,1,0.7,0,0.7,0,1","1,0.7,0,1,0.7,0,0.7,0,1","1","false",""
"","html-keyboard-response","261","82717","0.0-299.0","","","","","null","<img src=""img/food5.png"" style=""width:200px; border:14px solid green;"">","null","","","","","","","","","",""
"","image-keyboard-response","262","82768","0.0-301.0","","","","","49.8999999910593","img/food5.png","74","50.6000000089407","1","1","1","2","1,0.7,0,1,0.7,0,0.7,0,1","1,0.7,0,1,0.7,0,0.7,0,1","1","false",""
"","html-keyboard-response","263","83070","0.0-302.0","","","","","null","<img src=""img/food5.png"" style=""width:200px; border:14px solid green;"">","null","","","","","","","","","",""
"","image-keyboard-response","264","83151","0.0-304.0","","","","","80.70000000298023","img/food6.png","74","81.5","1","1","3","2","1,0.7,0,1,0.7,0,0.7,0,1","1,0.7,0,1,0.7,0,0.7,0,1","1","false",""
"","html-keyboard-response","265","83453","0.0-305.0","","","","","null","<img src=""img/food6.png"" style=""width:200px; border:14px solid green;"">","null","","","","","","","","","",""
"","image-keyboard-response","266","83574","0.0-307.0","","","","","120.79999999701977","img/food5.png","74","121.5","1","1","1","2","1,0.7,0,1,0.7,0,0.7,0,1","1,0.7,0,1,0.7,0,0.7,0,1","1","false",""
"","html-keyboard-response","267","83876","0.0-308.0","","","","","null","<img src=""img/food5.png"" style=""width:200px; border:14px solid green;"">","null","","","","","","","","","",""
"","image-keyboard-response","268","83895","0.0-310.0","","","","","17.299999997019768","img/food6.png","74","17.900000005960464","1","1","3","2","1,0.7,0,1,0.7,0,0.7,0,1","1,0.7,0,1,0.7,0,0.7,0,1","1","false",""
"","html-keyboard-response","269","84196","0.0-311.0","","","","","null","<img src=""img/food6.png"" style=""width:200px; border:14px solid green;"">","null","","","","","","","","","",""
"","image-keyboard-response","270","84304","0.0-313.0","","","","","106.90000000596046","img/food5.png","74","107.90000000596046","1","1","1","2","1,0.7,0,1,0.7,0,0.7,0,1","1,0.7,0,1,0.7,0,0.7,0,1","1","false",""
"","html-keyboard-response","271","84607","0.0-314.0","","","","","null","<img src=""img/food5.png"" style=""width:200px; border:14px solid green;"">","null","","","","","","","","","",""
"","image-keyboard-response","272","84761","0.0-316.0","","","","","152.6000000089407","img/food5.png","74","153.5","1","1","1","2","1,0.7,0,1,0.7,0,0.7,0,1","1,0.7,0,1,0.7,0,0.7,0,1","1","false",""
"","html-keyboard-response","273","85063","0.0-317.0","","","","","null","<img src=""img/food5.png"" style=""width:200px; border:14px solid green;"">","null","","","","","","","","","",""
"","image-keyboard-response","274","85288","0.0-319.0","","","","","224.29999999701977","img/food5.png","74","224.90000000596046","1","1","1","2","1,0.7,0,1,0.7,0,0.7,0,1","1,0.7,0,1,0.7,0,0.7,0,1","1","false",""
"","html-keyboard-response","275","85590","0.0-320.0","","","","","null","<img src=""img/food5.png"" style=""width:200px; border:14px solid green;"">","null","","","","","","","","","",""
"","image-keyboard-response","276","85830","0.0-322.0","","","","","238.79999999701977","img/food5.png","74","239.5","1","1","1","2","1,0.7,0,1,0.7,0,0.7,0,1","1,0.7,0,1,0.7,0,0.7,0,1","1","false",""
"","html-keyboard-response","277","86131","0.0-323.0","","","","","null","<img src=""img/food5.png"" style=""width:200px; border:14px solid green;"">","null","","","","","","","","","",""
"","image-keyboard-response","278","86229","0.0-325.0","","","","","96.8999999910593","img/food2.png","74","97.6000000089407","1","1","2","2","1,0.7,0,1,0.7,0,0.7,0,1","1,0.7,0,1,0.7,0,0.7,0,1","1","false",""
"","html-keyboard-response","279","86531","0.0-326.0","","","","","null","<img src=""img/food2.png"" style=""width:200px; border:14px solid green;"">","null","","","","","","","","","",""
"","image-keyboard-response","280","86636","0.0-328.0","","","","","104.40000000596046","img/food6.png","74","105","1","1","3","2","1,0.7,0,1,0.7,0,0.7,0,1","1,0.7,0,1,0.7,0,0.7,0,1","1","false",""
"","html-keyboard-response","281","86938","0.0-329.0","","","","","null","<img src=""img/food6.png"" style=""width:200px; border:14px solid green;"">","null","","","","","","","","","",""
"","image-keyboard-response","282","87097","0.0-331.0","","","","","158.59999999403954","img/food5.png","74","159.3999999910593","1","1","1","2","1,0.7,0,1,0.7,0,0.7,0,1","1,0.7,0,1,0.7,0,0.7,0,1","1","false",""
"","html-keyboard-response","283","87400","0.0-332.0","","","","","null","<img src=""img/food5.png"" style=""width:200px; border:14px solid green;"">","null","","","","","","","","","",""
"","image-keyboard-response","284","87413","0.0-334.0","","","","","12.400000005960464","img/food2.png","74","13.299999997019768","1","1","2","2","1,0.7,0,1,0.7,0,0.7,0,1","1,0.7,0,1,0.7,0,0.7,0,1","1","false",""
"","html-keyboard-response","285","87717","0.0-335.0","","","","","null","<img src=""img/food2.png"" style=""width:200px; border:14px solid green;"">","null","","","","","","","","","",""
"","image-keyboard-response","286","87883","0.0-337.0","","","","","164.6000000089407","img/food6.png","74","165.3999999910593","1","0","3","2","1,0.7,0,1,0.7,0,0.7,0,1","1,0.7,0,1,0.7,0,0.7,0,1","1","false",""
"","html-keyboard-response","287","88186","0.0-338.0","","","","","null","<img src=""img/food6.png"" style=""width:200px;border:14px solid red;"">","null","","","","","","","","","",""
"","image-keyboard-response","288","88189","0.0-340.0","","","","","2.2000000029802322","img/food2.png","74","2.9000000059604645","1","1","2","2","1,0.7,0,1,0.7,0,0.7,0,1","1,0.7,0,1,0.7,0,0.7,0,1","1","false",""
"","html-keyboard-response","289","88492","0.0-341.0","","","","","null","<img src=""img/food2.png"" style=""width:200px; border:14px solid green;"">","null","","","","","","","","","",""
"","image-keyboard-response","290","88865","0.0-343.0","","","","","372.09999999403954","img/food6.png","74","372.90000000596046","1","0","3","2","1,0.7,0,1,0.7,0,0.7,0,1","1,0.7,0,1,0.7,0,0.7,0,1","1","false",""
"","html-keyboard-response","291","89166","0.0-344.0","","","","","null","<img src=""img/food6.png"" style=""width:200px;border:14px solid red;"">","null","","","","","","","","","",""
"","image-keyboard-response","292","89199","0.0-346.0","","","","","31.700000002980232","img/food5.png","74","32.3999999910593","1","1","1","2","1,0.7,0,1,0.7,0,0.7,0,1","1,0.7,0,1,0.7,0,0.7,0,1","1","false",""
"","html-keyboard-response","293","89501","0.0-347.0","","","","","null","<img src=""img/food5.png"" style=""width:200px; border:14px solid green;"">","null","","","","","","","","","",""
"","image-keyboard-response","294","89773","0.0-349.0","","","","","271.1000000089407","img/food6.png","74","271.8999999910593","1","0","3","2","1,0.7,0,1,0.7,0,0.7,0,1","1,0.7,0,1,0.7,0,0.7,0,1","1","false",""
"","html-keyboard-response","295","90075","0.0-350.0","","","","","null","<img src=""img/food6.png"" style=""width:200px;border:14px solid red;"">","null","","","","","","","","","",""
"","image-keyboard-response","296","90584","0.0-352.0","","","","","508.30000001192093","img/food6.png","74","509.59999999403954","1","1","3","2","1,0.7,0,1,0.7,0,0.7,0,1","1,0.7,0,1,0.7,0,0.7,0,1","1","false",""
"","html-keyboard-response","297","90887","0.0-353.0","","","","","null","<img src=""img/food6.png"" style=""width:200px; border:14px solid green;"">","null","","","","","","","","","",""
"","image-keyboard-response","298","91120","0.0-355.0","","","","","231.29999999701977","img/food2.png","74","232.09999999403954","1","1","2","2","1,0.7,0,1,0.7,0,0.7,0,1","1,0.7,0,1,0.7,0,0.7,0,1","1","false",""
"","html-keyboard-response","299","91426","0.0-356.0","","","","","null","<img src=""img/food2.png"" style=""width:200px; border:14px solid green;"">","null","","","","","","","","","",""
"","image-keyboard-response","300","91475","0.0-358.0","","","","","47.099999994039536","img/food6.png","74","48.29999999701977","1","0","3","2","1,0.7,0,1,0.7,0,0.7,0,1","1,0.7,0,1,0.7,0,0.7,0,1","1","false",""
"","html-keyboard-response","301","91776","0.0-359.0","","","","","null","<img src=""img/food6.png"" style=""width:200px;border:14px solid red;"">","null","","","","","","","","","",""
"","image-keyboard-response","302","91866","0.0-361.0","","","","","88.40000000596046","img/food5.png","74","89.20000000298023","1","1","1","2","1,0.7,0,1,0.7,0,0.7,0,1","1,0.7,0,1,0.7,0,0.7,0,1","1","false",""
"","html-keyboard-response","303","92167","0.0-362.0","","","","","null","<img src=""img/food5.png"" style=""width:200px; border:14px solid green;"">","null","","","","","","","","","",""
"","image-keyboard-response","304","92277","0.0-364.0","","","","","108.6000000089407","img/food5.png","74","109.5","1","1","1","2","1,0.7,0,1,0.7,0,0.7,0,1","1,0.7,0,1,0.7,0,0.7,0,1","1","false",""
"","html-keyboard-response","305","92578","0.0-365.0","","","","","null","<img src=""img/food5.png"" style=""width:200px; border:14px solid green;"">","null","","","","","","","","","",""
"","image-keyboard-response","306","92674","0.0-367.0","","","","","94.20000000298023","img/food5.png","74","95","1","1","1","2","1,0.7,0,1,0.7,0,0.7,0,1","1,0.7,0,1,0.7,0,0.7,0,1","1","false",""
"","html-keyboard-response","307","92975","0.0-368.0","","","","","null","<img src=""img/food5.png"" style=""width:200px; border:14px solid green;"">","null","","","","","","","","","",""
"","image-keyboard-response","308","93143","0.0-370.0","","","","","166.5","img/food5.png","74","167.1000000089407","1","1","1","2","1,0.7,0,1,0.7,0,0.7,0,1","1,0.7,0,1,0.7,0,0.7,0,1","1","false",""
"","html-keyboard-response","309","93444","0.0-371.0","","","","","null","<img src=""img/food5.png"" style=""width:200px; border:14px solid green;"">","null","","","","","","","","","",""
"","image-keyboard-response","310","93579","0.0-373.0","","","","","133.20000000298023","img/food5.png","74","133.90000000596046","1","1","1","2","1,0.7,0,1,0.7,0,0.7,0,1","1,0.7,0,1,0.7,0,0.7,0,1","1","false",""
"","html-keyboard-response","311","93880","0.0-374.0","","","","","null","<img src=""img/food5.png"" style=""width:200px; border:14px solid green;"">","null","","","","","","","","","",""
"","image-keyboard-response","312","94192","0.0-376.0","","","","","311.29999999701977","img/food5.png","74","312.09999999403954","1","1","1","2","1,0.7,0,1,0.7,0,0.7,0,1","1,0.7,0,1,0.7,0,0.7,0,1","1","false",""
"","html-keyboard-response","313","94494","0.0-377.0","","","","","null","<img src=""img/food5.png"" style=""width:200px; border:14px solid green;"">","null","","","","","","","","","",""
"","image-keyboard-response","314","94839","0.0-379.0","","","","","342.79999999701977","img/food6.png","74","343.70000000298023","1","1","3","2","1,0.7,0,1,0.7,0,0.7,0,1","1,0.7,0,1,0.7,0,0.7,0,1","1","false",""
"","html-keyboard-response","315","95147","0.0-380.0","","","","","null","<img src=""img/food6.png"" style=""width:200px; border:14px solid green;"">","null","","","","","","","","","",""
"","image-keyboard-response","316","95152","0.0-382.0","","","","","4.5","img/food2.png","74","5.200000002980232","1","1","2","2","1,0.7,0,1,0.7,0,0.7,0,1","1,0.7,0,1,0.7,0,0.7,0,1","1","false",""
"","html-keyboard-response","317","95454","0.0-383.0","","","","","null","<img src=""img/food2.png"" style=""width:200px; border:14px solid green;"">","null","","","","","","","","","",""
"","image-keyboard-response","318","95565","0.0-385.0","","","","","109.59999999403954","img/food6.png","74","110.3999999910593","1","0","3","2","1,0.7,0,1,0.7,0,0.7,0,1","1,0.7,0,1,0.7,0,0.7,0,1","1","false",""
"","html-keyboard-response","319","95866","0.0-386.0","","","","","null","<img src=""img/food6.png"" style=""width:200px;border:14px solid red;"">","null","","","","","","","","","",""
"","image-keyboard-response","320","96079","0.0-388.0","","","","","211.5","img/food5.png","74","215.70000000298023","1","1","1","2","1,0.7,0,1,0.7,0,0.7,0,1","1,0.7,0,1,0.7,0,0.7,0,1","1","false",""
"","html-keyboard-response","321","96385","0.0-389.0","","","","","null","<img src=""img/food5.png"" style=""width:200px; border:14px solid green;"">","null","","","","","","","","","",""
"","image-keyboard-response","322","96526","0.0-391.0","","","","","139.79999999701977","img/food2.png","74","140.6000000089407","1","1","2","2","1,0.7,0,1,0.7,0,0.7,0,1","1,0.7,0,1,0.7,0,0.7,0,1","1","false",""
"","html-keyboard-response","323","96828","0.0-392.0","","","","","null","<img src=""img/food2.png"" style=""width:200px; border:14px solid green;"">","null","","","","","","","","","",""
"","image-keyboard-response","324","97050","0.0-394.0","","","","","220.79999999701977","img/food2.png","74","221.70000000298023","1","1","2","2","1,0.7,0,1,0.7,0,0.7,0,1","1,0.7,0,1,0.7,0,0.7,0,1","1","false",""
"","html-keyboard-response","325","97356","0.0-395.0","","","","","null","<img src=""img/food2.png"" style=""width:200px; border:14px solid green;"">","null","","","","","","","","","",""
"","image-keyboard-response","326","97542","0.0-397.0","","","","","184.09999999403954","img/food2.png","74","185","1","1","2","2","1,0.7,0,1,0.7,0,0.7,0,1","1,0.7,0,1,0.7,0,0.7,0,1","1","false",""
"","html-keyboard-response","327","97844","0.0-398.0","","","","","null","<img src=""img/food2.png"" style=""width:200px; border:14px solid green;"">","null","","","","","","","","","",""
"","image-keyboard-response","328","97880","0.0-400.0","","","","","34.599999994039536","img/food6.png","74","35.3999999910593","1","1","3","2","1,0.7,0,1,0.7,0,0.7,0,1","1,0.7,0,1,0.7,0,0.7,0,1","1","false",""
"","html-keyboard-response","329","98182","0.0-401.0","","","","","null","<img src=""img/food6.png"" style=""width:200px; border:14px solid green;"">","null","","","","","","","","","",""
"","image-keyboard-response","330","98386","0.0-403.0","","","","","202.90000000596046","img/food5.png","74","203.6000000089407","1","1","1","2","1,0.7,0,1,0.7,0,0.7,0,1","1,0.7,0,1,0.7,0,0.7,0,1","1","false",""
"","html-keyboard-response","331","98688","0.0-404.0","","","","","null","<img src=""img/food5.png"" style=""width:200px; border:14px solid green;"">","null","","","","","","","","","",""
"","image-keyboard-response","332","98747","0.0-406.0","","","","","57.900000005960464","img/food5.png","74","58.599999994039536","1","1","1","2","1,0.7,0,1,0.7,0,0.7,0,1","1,0.7,0,1,0.7,0,0.7,0,1","1","false",""
"","html-keyboard-response","333","99048","0.0-407.0","","","","","null","<img src=""img/food5.png"" style=""width:200px; border:14px solid green;"">","null","","","","","","","","","",""
"","image-keyboard-response","334","99159","0.0-409.0","","","","","109.90000000596046","img/food5.png","74","110.40000000596046","1","1","1","2","1,0.7,0,1,0.7,0,0.7,0,1","1,0.7,0,1,0.7,0,0.7,0,1","1","false",""
"","html-keyboard-response","335","99460","0.0-410.0","","","","","null","<img src=""img/food5.png"" style=""width:200px; border:14px solid green;"">","null","","","","","","","","","",""
"","image-keyboard-response","336","99625","0.0-412.0","","","","","164.09999999403954","img/food2.png","74","164.90000000596046","1","1","2","2","1,0.7,0,1,0.7,0,0.7,0,1","1,0.7,0,1,0.7,0,0.7,0,1","1","false",""
"","html-keyboard-response","337","99926","0.0-413.0","","","","","null","<img src=""img/food2.png"" style=""width:200px; border:14px solid green;"">","null","","","","","","","","","",""
"","image-keyboard-response","338","100131","0.0-415.0","","","","","203.5","img/food2.png","74","204.20000000298023","1","1","2","2","1,0.7,0,1,0.7,0,0.7,0,1","1,0.7,0,1,0.7,0,0.7,0,1","1","false",""
"","html-keyboard-response","339","100432","0.0-416.0","","","","","null","<img src=""img/food2.png"" style=""width:200px; border:14px solid green;"">","null","","","","","","","","","",""
"","image-keyboard-response","340","100556","0.0-418.0","","","","","122.59999999403954","img/food5.png","74","123.69999998807907","1","1","1","2","1,0.7,0,1,0.7,0,0.7,0,1","1,0.7,0,1,0.7,0,0.7,0,1","1","false",""
"","html-keyboard-response","341","100858","0.0-419.0","","","","","null","<img src=""img/food5.png"" style=""width:200px; border:14px solid green;"">","null","","","","","","","","","",""
"","image-keyboard-response","342","100873","0.0-421.0","","","","","11.799999997019768","img/food2.png","74","13","1","1","2","2","1,0.7,0,1,0.7,0,0.7,0,1","1,0.7,0,1,0.7,0,0.7,0,1","1","false",""
"","html-keyboard-response","343","101174","0.0-422.0","","","","","null","<img src=""img/food2.png"" style=""width:200px; border:14px solid green;"">","null","","","","","","","","","",""
"","image-keyboard-response","344","101383","0.0-424.0","","","","","207.1000000089407","img/food6.png","74","208.40000000596046","1","1","3","2","1,0.7,0,1,0.7,0,0.7,0,1","1,0.7,0,1,0.7,0,0.7,0,1","1","false",""
"","html-keyboard-response","345","101686","0.0-425.0","","","","","null","<img src=""img/food6.png"" style=""width:200px; border:14px solid green;"">","null","","","","","","","","","",""
"","image-keyboard-response","346","101823","0.0-427.0","","","","","136.5","img/food6.png","74","137.09999999403954","1","1","3","2","1,0.7,0,1,0.7,0,0.7,0,1","1,0.7,0,1,0.7,0,0.7,0,1","1","false",""
"","html-keyboard-response","347","102125","0.0-428.0","","","","","null","<img src=""img/food6.png"" style=""width:200px; border:14px solid green;"">","null","","","","","","","","","",""
"","image-keyboard-response","348","102328","0.0-430.0","","","","","202.1000000089407","img/food5.png","74","202.79999999701977","1","1","1","2","1,0.7,0,1,0.7,0,0.7,0,1","1,0.7,0,1,0.7,0,0.7,0,1","1","false",""
"","html-keyboard-response","349","102630","0.0-431.0","","","","","null","<img src=""img/food5.png"" style=""width:200px; border:14px solid green;"">","null","","","","","","","","","",""
"","image-keyboard-response","350","102805","0.0-433.0","","","","","173.79999999701977","img/food6.png","74","175","1","0","3","2","1,0.7,0,1,0.7,0,0.7,0,1","1,0.7,0,1,0.7,0,0.7,0,1","1","false",""
"","html-keyboard-response","351","103117","0.0-434.0","","","","","null","<img src=""img/food6.png"" style=""width:200px;border:14px solid red;"">","null","","","","","","","","","",""
"","image-keyboard-response","352","103122","0.0-436.0","","","","","4.200000002980232","img/food5.png","74","5.299999997019768","1","1","1","2","1,0.7,0,1,0.7,0,0.7,0,1","1,0.7,0,1,0.7,0,0.7,0,1","1","false",""
"","html-keyboard-response","353","103425","0.0-437.0","","","","","null","<img src=""img/food5.png"" style=""width:200px; border:14px solid green;"">","null","","","","","","","","","",""
"","image-keyboard-response","354","103628","0.0-439.0","","","","","202.29999999701977","img/food6.png","74","203","1","0","3","2","1,0.7,0,1,0.7,0,0.7,0,1","1,0.7,0,1,0.7,0,0.7,0,1","1","false",""
"","html-keyboard-response","355","103930","0.0-440.0","","","","","null","<img src=""img/food6.png"" style=""width:200px;border:14px solid red;"">","null","","","","","","","","","",""
"","image-keyboard-response","356","104169","0.0-442.0","","","","","238.29999999701977","img/food6.png","74","239.1000000089407","1","1","3","2","1,0.7,0,1,0.7,0,0.7,0,1","1,0.7,0,1,0.7,0,0.7,0,1","1","false",""
"","html-keyboard-response","357","104471","0.0-443.0","","","","","null","<img src=""img/food6.png"" style=""width:200px; border:14px solid green;"">","null","","","","","","","","","",""
"","image-keyboard-response","358","104630","0.0-445.0","","","","","158.09999999403954","img/food6.png","74","159","1","0","3","2","1,0.7,0,1,0.7,0,0.7,0,1","1,0.7,0,1,0.7,0,0.7,0,1","1","false",""
"","html-keyboard-response","359","104932","0.0-446.0","","","","","null","<img src=""img/food6.png"" style=""width:200px;border:14px solid red;"">","null","","","","","","","","","",""
"","image-keyboard-response","360","104962","0.0-448.0","","","","","29.099999994039536","img/food6.png","74","29.900000005960464","1","0","3","2","1,0.7,0,1,0.7,0,0.7,0,1","1,0.7,0,1,0.7,0,0.7,0,1","1","false",""
"","html-keyboard-response","361","105265","0.0-449.0","","","","","null","<img src=""img/food6.png"" style=""width:200px;border:14px solid red;"">","null","","","","","","","","","",""
"","image-keyboard-response","362","105398","0.0-451.0","","","","","132.20000000298023","img/food6.png","74","132.79999999701977","1","1","3","2","1,0.7,0,1,0.7,0,0.7,0,1","1,0.7,0,1,0.7,0,0.7,0,1","1","false",""
"","html-keyboard-response","363","105707","0.0-452.0","","","","","null","<img src=""img/food6.png"" style=""width:200px; border:14px solid green;"">","null","","","","","","","","","",""
"","instructions","364","108979","0.0-454.0","","","","[{""page_index"":0,""viewing_time"":3270.1000000089407}]","3270.2999999970198","","","","","","","","","","","",""
"","survey-text","365","111669","0.0-455.0","","","","","2686","","","","","","","","","","","","{""Q0"":""A14KDNZSWDFIE7""}"
