"success","trial_type","trial_index","time_elapsed","internal_node_id","assignmentID","mturkID","hitID","view_history","rt","stimulus","key_press","reactionTime","a","r","warning","s","cond","reward_cond","reward_cond_actual","reward_matrix_idx","responses"
"true","fullscreen","0","14504","0.0-0.0","3B4YI393VAIBG9LZGJ6M941DT8GSSU","A14LOABUGAITBM","3JUDR1D0D6D4CARU3YX9Y3DK5DJ2QK","","","","","","","","","","","","","",""
"","instructions","1","47395","0.0-1.0","3B4YI393VAIBG9LZGJ6M941DT8GSSU","A14LOABUGAITBM","3JUDR1D0D6D4CARU3YX9Y3DK5DJ2QK","[{""page_index"":0,""viewing_time"":3105.1999999955297},{""page_index"":1,""viewing_time"":319.80000000447035},{""page_index"":2,""viewing_time"":686.7999999970198},{""page_index"":3,""viewing_time"":4272.10000000149},{""page_index"":4,""viewing_time"":1368.3999999985099},{""page_index"":5,""viewing_time"":21871.39999999851},{""page_index"":6,""viewing_time"":1264.3000000044703}]","32889","","","","","","","","","","","",""
"","instructions","2","57074","0.0-2.0","3B4YI393VAIBG9LZGJ6M941DT8GSSU","A14LOABUGAITBM","3JUDR1D0D6D4CARU3YX9Y3DK5DJ2QK","[{""page_index"":0,""viewing_time"":7668.79999999702},{""page_index"":1,""viewing_time"":2007.8000000044703}]","9677","","","","","","","","","","","",""
"","image-keyboard-response","3","58078","0.0-3.0","3B4YI393VAIBG9LZGJ6M941DT8GSSU","A14LOABUGAITBM","3JUDR1D0D6D4CARU3YX9Y3DK5DJ2QK","","","img/food2.png","","1003.8999999985099","-1","0","true","2","2","1,0.5,0,1,0.5,0,0.5,0,1","0.5,0,1,0.5,0,1,0,1,0.5","2",""
"","html-keyboard-response","4","58383","0.0-4.0","3B4YI393VAIBG9LZGJ6M941DT8GSSU","A14LOABUGAITBM","3JUDR1D0D6D4CARU3YX9Y3DK5DJ2QK","","null","<img src=""img/food2.png"" style=""width:200px;border:14px solid red;"">","null","","","","","","","","","",""
"","html-keyboard-response","5","60931","0.0-5.0-0.0","3B4YI393VAIBG9LZGJ6M941DT8GSSU","A14LOABUGAITBM","3JUDR1D0D6D4CARU3YX9Y3DK5DJ2QK","","","","","","","","","","","","","",""
"","image-keyboard-response","6","61809","0.0-6.0","3B4YI393VAIBG9LZGJ6M941DT8GSSU","A14LOABUGAITBM","3JUDR1D0D6D4CARU3YX9Y3DK5DJ2QK","","874.3999999985099","img/food3.png","76","877.6999999955297","3","0","false","3","2","1,0.5,0,1,0.5,0,0.5,0,1","0.5,0,1,0.5,0,1,0,1,0.5","2",""
"","html-keyboard-response","7","62111","0.0-7.0","3B4YI393VAIBG9LZGJ6M941DT8GSSU","A14LOABUGAITBM","3JUDR1D0D6D4CARU3YX9Y3DK5DJ2QK","","null","<img src=""img/food3.png"" style=""width:200px;border:14px solid red;"">","null","","","","","","","","","",""
"","image-keyboard-response","8","63088","0.0-9.0","3B4YI393VAIBG9LZGJ6M941DT8GSSU","A14LOABUGAITBM","3JUDR1D0D6D4CARU3YX9Y3DK5DJ2QK","","974.7999999970198","img/food1.png","74","976.1999999955297","1","0","false","1","2","1,0.5,0,1,0.5,0,0.5,0,1","0.5,0,1,0.5,0,1,0,1,0.5","2",""
"","html-keyboard-response","9","63391","0.0-10.0","3B4YI393VAIBG9LZGJ6M941DT8GSSU","A14LOABUGAITBM","3JUDR1D0D6D4CARU3YX9Y3DK5DJ2QK","","null","<img src=""img/food1.png"" style=""width:200px;border:14px solid red;"">","null","","","","","","","","","",""
"","image-keyboard-response","10","64104","0.0-12.0","3B4YI393VAIBG9LZGJ6M941DT8GSSU","A14LOABUGAITBM","3JUDR1D0D6D4CARU3YX9Y3DK5DJ2QK","","710.8999999985099","img/food2.png","75","712.2999999970198","2","0","false","2","2","1,0.5,0,1,0.5,0,0.5,0,1","0.5,0,1,0.5,0,1,0,1,0.5","2",""
"","html-keyboard-response","11","64407","0.0-13.0","3B4YI393VAIBG9LZGJ6M941DT8GSSU","A14LOABUGAITBM","3JUDR1D0D6D4CARU3YX9Y3DK5DJ2QK","","null","<img src=""img/food2.png"" style=""width:200px;border:14px solid red;"">","null","","","","","","","","","",""
"","image-keyboard-response","12","65208","0.0-15.0","3B4YI393VAIBG9LZGJ6M941DT8GSSU","A14LOABUGAITBM","3JUDR1D0D6D4CARU3YX9Y3DK5DJ2QK","","798.6000000014901","img/food1.png","74","800.1999999955297","1","0","false","1","2","1,0.5,0,1,0.5,0,0.5,0,1","0.5,0,1,0.5,0,1,0,1,0.5","2",""
"","html-keyboard-response","13","65510","0.0-16.0","3B4YI393VAIBG9LZGJ6M941DT8GSSU","A14LOABUGAITBM","3JUDR1D0D6D4CARU3YX9Y3DK5DJ2QK","","null","<img src=""img/food1.png"" style=""width:200px;border:14px solid red;"">","null","","","","","","","","","",""
"","image-keyboard-response","14","66249","0.0-18.0","3B4YI393VAIBG9LZGJ6M941DT8GSSU","A14LOABUGAITBM","3JUDR1D0D6D4CARU3YX9Y3DK5DJ2QK","","737.5","img/food3.png","76","739.3999999985099","3","0","false","3","2","1,0.5,0,1,0.5,0,0.5,0,1","0.5,0,1,0.5,0,1,0,1,0.5","2",""
"","html-keyboard-response","15","66553","0.0-19.0","3B4YI393VAIBG9LZGJ6M941DT8GSSU","A14LOABUGAITBM","3JUDR1D0D6D4CARU3YX9Y3DK5DJ2QK","","null","<img src=""img/food3.png"" style=""width:200px;border:14px solid red;"">","null","","","","","","","","","",""
"","image-keyboard-response","16","67240","0.0-21.0","3B4YI393VAIBG9LZGJ6M941DT8GSSU","A14LOABUGAITBM","3JUDR1D0D6D4CARU3YX9Y3DK5DJ2QK","","684.3999999985099","img/food2.png","75","685.8999999985099","2","0","false","2","2","1,0.5,0,1,0.5,0,0.5,0,1","0.5,0,1,0.5,0,1,0,1,0.5","2",""
"","html-keyboard-response","17","67542","0.0-22.0","3B4YI393VAIBG9LZGJ6M941DT8GSSU","A14LOABUGAITBM","3JUDR1D0D6D4CARU3YX9Y3DK5DJ2QK","","null","<img src=""img/food2.png"" style=""width:200px;border:14px solid red;"">","null","","","","","","","","","",""
"","image-keyboard-response","18","68296","0.0-24.0","3B4YI393VAIBG9LZGJ6M941DT8GSSU","A14LOABUGAITBM","3JUDR1D0D6D4CARU3YX9Y3DK5DJ2QK","","751.6999999955297","img/food2.png","75","753.0999999940395","2","0","false","2","2","1,0.5,0,1,0.5,0,0.5,0,1","0.5,0,1,0.5,0,1,0,1,0.5","2",""
"","html-keyboard-response","19","68599","0.0-25.0","3B4YI393VAIBG9LZGJ6M941DT8GSSU","A14LOABUGAITBM","3JUDR1D0D6D4CARU3YX9Y3DK5DJ2QK","","null","<img src=""img/food2.png"" style=""width:200px;border:14px solid red;"">","null","","","","","","","","","",""
"","image-keyboard-response","20","69457","0.0-27.0","3B4YI393VAIBG9LZGJ6M941DT8GSSU","A14LOABUGAITBM","3JUDR1D0D6D4CARU3YX9Y3DK5DJ2QK","","855.5","img/food3.png","76","857.1999999955297","3","1","false","3","2","1,0.5,0,1,0.5,0,0.5,0,1","0.5,0,1,0.5,0,1,0,1,0.5","2",""
"","html-keyboard-response","21","69761","0.0-28.0","3B4YI393VAIBG9LZGJ6M941DT8GSSU","A14LOABUGAITBM","3JUDR1D0D6D4CARU3YX9Y3DK5DJ2QK","","null","<img src=""img/food3.png"" style=""width:200px; border:14px solid green;"">","null","","","","","","","","","",""
"","image-keyboard-response","22","70400","0.0-30.0","3B4YI393VAIBG9LZGJ6M941DT8GSSU","A14LOABUGAITBM","3JUDR1D0D6D4CARU3YX9Y3DK5DJ2QK","","637.9000000059605","img/food3.png","76","639.3999999985099","3","0","false","3","2","1,0.5,0,1,0.5,0,0.5,0,1","0.5,0,1,0.5,0,1,0,1,0.5","2",""
"","html-keyboard-response","23","70704","0.0-31.0","3B4YI393VAIBG9LZGJ6M941DT8GSSU","A14LOABUGAITBM","3JUDR1D0D6D4CARU3YX9Y3DK5DJ2QK","","null","<img src=""img/food3.png"" style=""width:200px;border:14px solid red;"">","null","","","","","","","","","",""
"","image-keyboard-response","24","71537","0.0-33.0","3B4YI393VAIBG9LZGJ6M941DT8GSSU","A14LOABUGAITBM","3JUDR1D0D6D4CARU3YX9Y3DK5DJ2QK","","831.2999999970198","img/food1.png","74","832.7000000029802","1","0","false","1","2","1,0.5,0,1,0.5,0,0.5,0,1","0.5,0,1,0.5,0,1,0,1,0.5","2",""
"","html-keyboard-response","25","71839","0.0-34.0","3B4YI393VAIBG9LZGJ6M941DT8GSSU","A14LOABUGAITBM","3JUDR1D0D6D4CARU3YX9Y3DK5DJ2QK","","null","<img src=""img/food1.png"" style=""width:200px;border:14px solid red;"">","null","","","","","","","","","",""
"","image-keyboard-response","26","72842","0.0-36.0","3B4YI393VAIBG9LZGJ6M941DT8GSSU","A14LOABUGAITBM","3JUDR1D0D6D4CARU3YX9Y3DK5DJ2QK","","","img/food1.png","","1002.2999999970198","-1","0","true","1","2","1,0.5,0,1,0.5,0,0.5,0,1","0.5,0,1,0.5,0,1,0,1,0.5","2",""
"","html-keyboard-response","27","73145","0.0-37.0","3B4YI393VAIBG9LZGJ6M941DT8GSSU","A14LOABUGAITBM","3JUDR1D0D6D4CARU3YX9Y3DK5DJ2QK","","null","<img src=""img/food1.png"" style=""width:200px;border:14px solid red;"">","null","","","","","","","","","",""
"","html-keyboard-response","28","77610","0.0-38.0-0.0","3B4YI393VAIBG9LZGJ6M941DT8GSSU","A14LOABUGAITBM","3JUDR1D0D6D4CARU3YX9Y3DK5DJ2QK","","","","","","","","","","","","","",""
"","image-keyboard-response","29","78264","0.0-39.0","3B4YI393VAIBG9LZGJ6M941DT8GSSU","A14LOABUGAITBM","3JUDR1D0D6D4CARU3YX9Y3DK5DJ2QK","","651.6000000014901","img/food1.png","75","653.7000000029802","2","0","false","1","2","1,0.5,0,1,0.5,0,0.5,0,1","0.5,0,1,0.5,0,1,0,1,0.5","2",""
"","html-keyboard-response","30","78567","0.0-40.0","3B4YI393VAIBG9LZGJ6M941DT8GSSU","A14LOABUGAITBM","3JUDR1D0D6D4CARU3YX9Y3DK5DJ2QK","","null","<img src=""img/food1.png"" style=""width:200px;border:14px solid red;"">","null","","","","","","","","","",""
"","image-keyboard-response","31","79208","0.0-42.0","3B4YI393VAIBG9LZGJ6M941DT8GSSU","A14LOABUGAITBM","3JUDR1D0D6D4CARU3YX9Y3DK5DJ2QK","","638.3999999985099","img/food2.png","75","640","2","0","false","2","2","1,0.5,0,1,0.5,0,0.5,0,1","0.5,0,1,0.5,0,1,0,1,0.5","2",""
"","html-keyboard-response","32","79511","0.0-43.0","3B4YI393VAIBG9LZGJ6M941DT8GSSU","A14LOABUGAITBM","3JUDR1D0D6D4CARU3YX9Y3DK5DJ2QK","","null","<img src=""img/food2.png"" style=""width:200px;border:14px solid red;"">","null","","","","","","","","","",""
"","image-keyboard-response","33","79985","0.0-45.0","3B4YI393VAIBG9LZGJ6M941DT8GSSU","A14LOABUGAITBM","3JUDR1D0D6D4CARU3YX9Y3DK5DJ2QK","","471.3999999985099","img/food2.png","75","472.8999999985099","2","0","false","2","2","1,0.5,0,1,0.5,0,0.5,0,1","0.5,0,1,0.5,0,1,0,1,0.5","2",""
"","html-keyboard-response","34","80287","0.0-46.0","3B4YI393VAIBG9LZGJ6M941DT8GSSU","A14LOABUGAITBM","3JUDR1D0D6D4CARU3YX9Y3DK5DJ2QK","","null","<img src=""img/food2.png"" style=""width:200px;border:14px solid red;"">","null","","","","","","","","","",""
"","image-keyboard-response","35","80960","0.0-48.0","3B4YI393VAIBG9LZGJ6M941DT8GSSU","A14LOABUGAITBM","3JUDR1D0D6D4CARU3YX9Y3DK5DJ2QK","","671.2000000029802","img/food3.png","76","672.3999999985099","3","0","false","3","2","1,0.5,0,1,0.5,0,0.5,0,1","0.5,0,1,0.5,0,1,0,1,0.5","2",""
"","html-keyboard-response","36","81262","0.0-49.0","3B4YI393VAIBG9LZGJ6M941DT8GSSU","A14LOABUGAITBM","3JUDR1D0D6D4CARU3YX9Y3DK5DJ2QK","","null","<img src=""img/food3.png"" style=""width:200px;border:14px solid red;"">","null","","","","","","","","","",""
"","image-keyboard-response","37","81888","0.0-51.0","3B4YI393VAIBG9LZGJ6M941DT8GSSU","A14LOABUGAITBM","3JUDR1D0D6D4CARU3YX9Y3DK5DJ2QK","","624.1999999955297","img/food1.png","74","625.6000000014901","1","1","false","1","2","1,0.5,0,1,0.5,0,0.5,0,1","0.5,0,1,0.5,0,1,0,1,0.5","2",""
"","html-keyboard-response","38","82192","0.0-52.0","3B4YI393VAIBG9LZGJ6M941DT8GSSU","A14LOABUGAITBM","3JUDR1D0D6D4CARU3YX9Y3DK5DJ2QK","","null","<img src=""img/food1.png"" style=""width:200px; border:14px solid green;"">","null","","","","","","","","","",""
"","image-keyboard-response","39","82912","0.0-54.0","3B4YI393VAIBG9LZGJ6M941DT8GSSU","A14LOABUGAITBM","3JUDR1D0D6D4CARU3YX9Y3DK5DJ2QK","","718","img/food1.png","74","719.5","1","1","false","1","2","1,0.5,0,1,0.5,0,0.5,0,1","0.5,0,1,0.5,0,1,0,1,0.5","2",""
"","html-keyboard-response","40","83214","0.0-55.0","3B4YI393VAIBG9LZGJ6M941DT8GSSU","A14LOABUGAITBM","3JUDR1D0D6D4CARU3YX9Y3DK5DJ2QK","","null","<img src=""img/food1.png"" style=""width:200px; border:14px solid green;"">","null","","","","","","","","","",""
"","image-keyboard-response","41","83736","0.0-57.0","3B4YI393VAIBG9LZGJ6M941DT8GSSU","A14LOABUGAITBM","3JUDR1D0D6D4CARU3YX9Y3DK5DJ2QK","","519.5","img/food3.png","75","521","2","1","false","3","2","1,0.5,0,1,0.5,0,0.5,0,1","0.5,0,1,0.5,0,1,0,1,0.5","2",""
"","html-keyboard-response","42","84038","0.0-58.0","3B4YI393VAIBG9LZGJ6M941DT8GSSU","A14LOABUGAITBM","3JUDR1D0D6D4CARU3YX9Y3DK5DJ2QK","","null","<img src=""img/food3.png"" style=""width:200px; border:14px solid green;"">","null","","","","","","","","","",""
"","image-keyboard-response","43","84593","0.0-60.0","3B4YI393VAIBG9LZGJ6M941DT8GSSU","A14LOABUGAITBM","3JUDR1D0D6D4CARU3YX9Y3DK5DJ2QK","","552.7999999970198","img/food1.png","76","554.1000000014901","3","1","false","1","2","1,0.5,0,1,0.5,0,0.5,0,1","0.5,0,1,0.5,0,1,0,1,0.5","2",""
"","html-keyboard-response","44","84896","0.0-61.0","3B4YI393VAIBG9LZGJ6M941DT8GSSU","A14LOABUGAITBM","3JUDR1D0D6D4CARU3YX9Y3DK5DJ2QK","","null","<img src=""img/food1.png"" style=""width:200px; border:14px solid green;"">","null","","","","","","","","","",""
"","image-keyboard-response","45","85392","0.0-63.0","3B4YI393VAIBG9LZGJ6M941DT8GSSU","A14LOABUGAITBM","3JUDR1D0D6D4CARU3YX9Y3DK5DJ2QK","","493.40000000596046","img/food2.png","76","495.30000000447035","3","1","false","2","2","1,0.5,0,1,0.5,0,0.5,0,1","0.5,0,1,0.5,0,1,0,1,0.5","2",""
"","html-keyboard-response","46","85695","0.0-64.0","3B4YI393VAIBG9LZGJ6M941DT8GSSU","A14LOABUGAITBM","3JUDR1D0D6D4CARU3YX9Y3DK5DJ2QK","","null","<img src=""img/food2.png"" style=""width:200px; border:14px solid green;"">","null","","","","","","","","","",""
"","image-keyboard-response","47","86136","0.0-66.0","3B4YI393VAIBG9LZGJ6M941DT8GSSU","A14LOABUGAITBM","3JUDR1D0D6D4CARU3YX9Y3DK5DJ2QK","","439.3999999985099","img/food2.png","75","440.6000000014901","2","0","false","2","2","1,0.5,0,1,0.5,0,0.5,0,1","0.5,0,1,0.5,0,1,0,1,0.5","2",""
"","html-keyboard-response","48","86439","0.0-67.0","3B4YI393VAIBG9LZGJ6M941DT8GSSU","A14LOABUGAITBM","3JUDR1D0D6D4CARU3YX9Y3DK5DJ2QK","","null","<img src=""img/food2.png"" style=""width:200px;border:14px solid red;"">","null","","","","","","","","","",""
"","image-keyboard-response","49","87008","0.0-69.0","3B4YI393VAIBG9LZGJ6M941DT8GSSU","A14LOABUGAITBM","3JUDR1D0D6D4CARU3YX9Y3DK5DJ2QK","","567.2999999970198","img/food3.png","75","568.2999999970198","2","1","false","3","2","1,0.5,0,1,0.5,0,0.5,0,1","0.5,0,1,0.5,0,1,0,1,0.5","2",""
"","html-keyboard-response","50","87310","0.0-70.0","3B4YI393VAIBG9LZGJ6M941DT8GSSU","A14LOABUGAITBM","3JUDR1D0D6D4CARU3YX9Y3DK5DJ2QK","","null","<img src=""img/food3.png"" style=""width:200px; border:14px solid green;"">","null","","","","","","","","","",""
"","image-keyboard-response","51","87961","0.0-72.0","3B4YI393VAIBG9LZGJ6M941DT8GSSU","A14LOABUGAITBM","3JUDR1D0D6D4CARU3YX9Y3DK5DJ2QK","","648.6000000014901","img/food2.png","76","650.6999999955297","3","1","false","2","2","1,0.5,0,1,0.5,0,0.5,0,1","0.5,0,1,0.5,0,1,0,1,0.5","2",""
"","html-keyboard-response","52","88266","0.0-73.0","3B4YI393VAIBG9LZGJ6M941DT8GSSU","A14LOABUGAITBM","3JUDR1D0D6D4CARU3YX9Y3DK5DJ2QK","","null","<img src=""img/food2.png"" style=""width:200px; border:14px solid green;"">","null","","","","","","","","","",""
"","image-keyboard-response","53","88776","0.0-75.0","3B4YI393VAIBG9LZGJ6M941DT8GSSU","A14LOABUGAITBM","3JUDR1D0D6D4CARU3YX9Y3DK5DJ2QK","","508.19999999552965","img/food3.png","76","509.6000000014901","3","1","false","3","2","1,0.5,0,1,0.5,0,0.5,0,1","0.5,0,1,0.5,0,1,0,1,0.5","2",""
"","html-keyboard-response","54","89078","0.0-76.0","3B4YI393VAIBG9LZGJ6M941DT8GSSU","A14LOABUGAITBM","3JUDR1D0D6D4CARU3YX9Y3DK5DJ2QK","","null","<img src=""img/food3.png"" style=""width:200px; border:14px solid green;"">","null","","","","","","","","","",""
"","image-keyboard-response","55","89648","0.0-78.0","3B4YI393VAIBG9LZGJ6M941DT8GSSU","A14LOABUGAITBM","3JUDR1D0D6D4CARU3YX9Y3DK5DJ2QK","","568.5","img/food2.png","75","569.6000000014901","2","0","false","2","2","1,0.5,0,1,0.5,0,0.5,0,1","0.5,0,1,0.5,0,1,0,1,0.5","2",""
"","html-keyboard-response","56","89951","0.0-79.0","3B4YI393VAIBG9LZGJ6M941DT8GSSU","A14LOABUGAITBM","3JUDR1D0D6D4CARU3YX9Y3DK5DJ2QK","","null","<img src=""img/food2.png"" style=""width:200px;border:14px solid red;"">","null","","","","","","","","","",""
"","image-keyboard-response","57","90336","0.0-81.0","3B4YI393VAIBG9LZGJ6M941DT8GSSU","A14LOABUGAITBM","3JUDR1D0D6D4CARU3YX9Y3DK5DJ2QK","","382.6000000014901","img/food1.png","76","384.20000000298023","3","1","false","1","2","1,0.5,0,1,0.5,0,0.5,0,1","0.5,0,1,0.5,0,1,0,1,0.5","2",""
"","html-keyboard-response","58","90638","0.0-82.0","3B4YI393VAIBG9LZGJ6M941DT8GSSU","A14LOABUGAITBM","3JUDR1D0D6D4CARU3YX9Y3DK5DJ2QK","","null","<img src=""img/food1.png"" style=""width:200px; border:14px solid green;"">","null","","","","","","","","","",""
"","image-keyboard-response","59","91224","0.0-84.0","3B4YI393VAIBG9LZGJ6M941DT8GSSU","A14LOABUGAITBM","3JUDR1D0D6D4CARU3YX9Y3DK5DJ2QK","","583.6999999955297","img/food1.png","74","585.0999999940395","1","0","false","1","2","1,0.5,0,1,0.5,0,0.5,0,1","0.5,0,1,0.5,0,1,0,1,0.5","2",""
"","html-keyboard-response","60","91526","0.0-85.0","3B4YI393VAIBG9LZGJ6M941DT8GSSU","A14LOABUGAITBM","3JUDR1D0D6D4CARU3YX9Y3DK5DJ2QK","","null","<img src=""img/food1.png"" style=""width:200px;border:14px solid red;"">","null","","","","","","","","","",""
"","image-keyboard-response","61","92112","0.0-87.0","3B4YI393VAIBG9LZGJ6M941DT8GSSU","A14LOABUGAITBM","3JUDR1D0D6D4CARU3YX9Y3DK5DJ2QK","","584","img/food3.png","75","585.5","2","1","false","3","2","1,0.5,0,1,0.5,0,0.5,0,1","0.5,0,1,0.5,0,1,0,1,0.5","2",""
"","html-keyboard-response","62","92414","0.0-88.0","3B4YI393VAIBG9LZGJ6M941DT8GSSU","A14LOABUGAITBM","3JUDR1D0D6D4CARU3YX9Y3DK5DJ2QK","","null","<img src=""img/food3.png"" style=""width:200px; border:14px solid green;"">","null","","","","","","","","","",""
"","image-keyboard-response","63","92512","0.0-90.0","3B4YI393VAIBG9LZGJ6M941DT8GSSU","A14LOABUGAITBM","3JUDR1D0D6D4CARU3YX9Y3DK5DJ2QK","","96.39999999850988","img/food2.png","76","97.79999999701977","3","1","false","2","2","1,0.5,0,1,0.5,0,0.5,0,1","0.5,0,1,0.5,0,1,0,1,0.5","2",""
"","html-keyboard-response","64","92814","0.0-91.0","3B4YI393VAIBG9LZGJ6M941DT8GSSU","A14LOABUGAITBM","3JUDR1D0D6D4CARU3YX9Y3DK5DJ2QK","","null","<img src=""img/food2.png"" style=""width:200px; border:14px solid green;"">","null","","","","","","","","","",""
"","image-keyboard-response","65","93320","0.0-93.0","3B4YI393VAIBG9LZGJ6M941DT8GSSU","A14LOABUGAITBM","3JUDR1D0D6D4CARU3YX9Y3DK5DJ2QK","","505.20000000298023","img/food1.png","75","506.5","2","0","false","1","2","1,0.5,0,1,0.5,0,0.5,0,1","0.5,0,1,0.5,0,1,0,1,0.5","2",""
"","html-keyboard-response","66","93624","0.0-94.0","3B4YI393VAIBG9LZGJ6M941DT8GSSU","A14LOABUGAITBM","3JUDR1D0D6D4CARU3YX9Y3DK5DJ2QK","","null","<img src=""img/food1.png"" style=""width:200px;border:14px solid red;"">","null","","","","","","","","","",""
"","image-keyboard-response","67","93633","0.0-96.0","3B4YI393VAIBG9LZGJ6M941DT8GSSU","A14LOABUGAITBM","3JUDR1D0D6D4CARU3YX9Y3DK5DJ2QK","","6.199999995529652","img/food1.png","75","8.200000002980232","2","0","false","1","2","1,0.5,0,1,0.5,0,0.5,0,1","0.5,0,1,0.5,0,1,0,1,0.5","2",""
"","html-keyboard-response","68","93937","0.0-97.0","3B4YI393VAIBG9LZGJ6M941DT8GSSU","A14LOABUGAITBM","3JUDR1D0D6D4CARU3YX9Y3DK5DJ2QK","","null","<img src=""img/food1.png"" style=""width:200px;border:14px solid red;"">","null","","","","","","","","","",""
"","image-keyboard-response","69","93983","0.0-99.0","3B4YI393VAIBG9LZGJ6M941DT8GSSU","A14LOABUGAITBM","3JUDR1D0D6D4CARU3YX9Y3DK5DJ2QK","","45.20000000298023","img/food1.png","75","46.5","2","0","false","1","2","1,0.5,0,1,0.5,0,0.5,0,1","0.5,0,1,0.5,0,1,0,1,0.5","2",""
"","html-keyboard-response","70","94287","0.0-100.0","3B4YI393VAIBG9LZGJ6M941DT8GSSU","A14LOABUGAITBM","3JUDR1D0D6D4CARU3YX9Y3DK5DJ2QK","","null","<img src=""img/food1.png"" style=""width:200px;border:14px solid red;"">","null","","","","","","","","","",""
"","image-keyboard-response","71","94513","0.0-102.0","3B4YI393VAIBG9LZGJ6M941DT8GSSU","A14LOABUGAITBM","3JUDR1D0D6D4CARU3YX9Y3DK5DJ2QK","","224.39999999850988","img/food2.png","74","226","1","0","false","2","2","1,0.5,0,1,0.5,0,0.5,0,1","0.5,0,1,0.5,0,1,0,1,0.5","2",""
"","html-keyboard-response","72","94817","0.0-103.0","3B4YI393VAIBG9LZGJ6M941DT8GSSU","A14LOABUGAITBM","3JUDR1D0D6D4CARU3YX9Y3DK5DJ2QK","","null","<img src=""img/food2.png"" style=""width:200px;border:14px solid red;"">","null","","","","","","","","","",""
"","image-keyboard-response","73","95160","0.0-105.0","3B4YI393VAIBG9LZGJ6M941DT8GSSU","A14LOABUGAITBM","3JUDR1D0D6D4CARU3YX9Y3DK5DJ2QK","","341.5","img/food3.png","75","342.79999999701977","2","1","false","3","2","1,0.5,0,1,0.5,0,0.5,0,1","0.5,0,1,0.5,0,1,0,1,0.5","2",""
"","html-keyboard-response","74","95463","0.0-106.0","3B4YI393VAIBG9LZGJ6M941DT8GSSU","A14LOABUGAITBM","3JUDR1D0D6D4CARU3YX9Y3DK5DJ2QK","","null","<img src=""img/food3.png"" style=""width:200px; border:14px solid green;"">","null","","","","","","","","","",""
"","image-keyboard-response","75","95696","0.0-108.0","3B4YI393VAIBG9LZGJ6M941DT8GSSU","A14LOABUGAITBM","3JUDR1D0D6D4CARU3YX9Y3DK5DJ2QK","","230.5","img/food1.png","76","231.59999999403954","3","1","false","1","2","1,0.5,0,1,0.5,0,0.5,0,1","0.5,0,1,0.5,0,1,0,1,0.5","2",""
"","html-keyboard-response","76","95997","0.0-109.0","3B4YI393VAIBG9LZGJ6M941DT8GSSU","A14LOABUGAITBM","3JUDR1D0D6D4CARU3YX9Y3DK5DJ2QK","","null","<img src=""img/food1.png"" style=""width:200px; border:14px solid green;"">","null","","","","","","","","","",""
"","image-keyboard-response","77","96048","0.0-111.0","3B4YI393VAIBG9LZGJ6M941DT8GSSU","A14LOABUGAITBM","3JUDR1D0D6D4CARU3YX9Y3DK5DJ2QK","","49.400000005960464","img/food2.png","76","50.399999998509884","3","1","false","2","2","1,0.5,0,1,0.5,0,0.5,0,1","0.5,0,1,0.5,0,1,0,1,0.5","2",""
"","html-keyboard-response","78","96351","0.0-112.0","3B4YI393VAIBG9LZGJ6M941DT8GSSU","A14LOABUGAITBM","3JUDR1D0D6D4CARU3YX9Y3DK5DJ2QK","","null","<img src=""img/food2.png"" style=""width:200px; border:14px solid green;"">","null","","","","","","","","","",""
"","image-keyboard-response","79","96848","0.0-114.0","3B4YI393VAIBG9LZGJ6M941DT8GSSU","A14LOABUGAITBM","3JUDR1D0D6D4CARU3YX9Y3DK5DJ2QK","","495.59999999403954","img/food3.png","75","497","2","1","false","3","2","1,0.5,0,1,0.5,0,0.5,0,1","0.5,0,1,0.5,0,1,0,1,0.5","2",""
"","html-keyboard-response","80","97152","0.0-115.0","3B4YI393VAIBG9LZGJ6M941DT8GSSU","A14LOABUGAITBM","3JUDR1D0D6D4CARU3YX9Y3DK5DJ2QK","","null","<img src=""img/food3.png"" style=""width:200px; border:14px solid green;"">","null","","","","","","","","","",""
"","image-keyboard-response","81","97336","0.0-117.0","3B4YI393VAIBG9LZGJ6M941DT8GSSU","A14LOABUGAITBM","3JUDR1D0D6D4CARU3YX9Y3DK5DJ2QK","","181.60000000149012","img/food1.png","75","183.29999999701977","2","0","false","1","2","1,0.5,0,1,0.5,0,0.5,0,1","0.5,0,1,0.5,0,1,0,1,0.5","2",""
"","html-keyboard-response","82","97640","0.0-118.0","3B4YI393VAIBG9LZGJ6M941DT8GSSU","A14LOABUGAITBM","3JUDR1D0D6D4CARU3YX9Y3DK5DJ2QK","","null","<img src=""img/food1.png"" style=""width:200px;border:14px solid red;"">","null","","","","","","","","","",""
"","image-keyboard-response","83","97831","0.0-120.0","3B4YI393VAIBG9LZGJ6M941DT8GSSU","A14LOABUGAITBM","3JUDR1D0D6D4CARU3YX9Y3DK5DJ2QK","","188.89999999850988","img/food3.png","76","190.60000000149012","3","1","false","3","2","1,0.5,0,1,0.5,0,0.5,0,1","0.5,0,1,0.5,0,1,0,1,0.5","2",""
"","html-keyboard-response","84","98134","0.0-121.0","3B4YI393VAIBG9LZGJ6M941DT8GSSU","A14LOABUGAITBM","3JUDR1D0D6D4CARU3YX9Y3DK5DJ2QK","","null","<img src=""img/food3.png"" style=""width:200px; border:14px solid green;"">","null","","","","","","","","","",""
"","image-keyboard-response","85","98280","0.0-123.0","3B4YI393VAIBG9LZGJ6M941DT8GSSU","A14LOABUGAITBM","3JUDR1D0D6D4CARU3YX9Y3DK5DJ2QK","","144.80000000447035","img/food1.png","74","146","1","0","false","1","2","1,0.5,0,1,0.5,0,0.5,0,1","0.5,0,1,0.5,0,1,0,1,0.5","2",""
"","html-keyboard-response","86","98582","0.0-124.0","3B4YI393VAIBG9LZGJ6M941DT8GSSU","A14LOABUGAITBM","3JUDR1D0D6D4CARU3YX9Y3DK5DJ2QK","","null","<img src=""img/food1.png"" style=""width:200px;border:14px solid red;"">","null","","","","","","","","","",""
"","image-keyboard-response","87","98768","0.0-126.0","3B4YI393VAIBG9LZGJ6M941DT8GSSU","A14LOABUGAITBM","3JUDR1D0D6D4CARU3YX9Y3DK5DJ2QK","","184.40000000596046","img/food1.png","76","185.79999999701977","3","1","false","1","2","1,0.5,0,1,0.5,0,0.5,0,1","0.5,0,1,0.5,0,1,0,1,0.5","2",""
"","html-keyboard-response","88","99071","0.0-127.0","3B4YI393VAIBG9LZGJ6M941DT8GSSU","A14LOABUGAITBM","3JUDR1D0D6D4CARU3YX9Y3DK5DJ2QK","","null","<img src=""img/food1.png"" style=""width:200px; border:14px solid green;"">","null","","","","","","","","","",""
"","image-keyboard-response","89","99184","0.0-129.0","3B4YI393VAIBG9LZGJ6M941DT8GSSU","A14LOABUGAITBM","3JUDR1D0D6D4CARU3YX9Y3DK5DJ2QK","","111.89999999850988","img/food2.png","74","113.10000000149012","1","1","false","2","2","1,0.5,0,1,0.5,0,0.5,0,1","0.5,0,1,0.5,0,1,0,1,0.5","2",""
"","html-keyboard-response","90","99486","0.0-130.0","3B4YI393VAIBG9LZGJ6M941DT8GSSU","A14LOABUGAITBM","3JUDR1D0D6D4CARU3YX9Y3DK5DJ2QK","","null","<img src=""img/food2.png"" style=""width:200px; border:14px solid green;"">","null","","","","","","","","","",""
"","image-keyboard-response","91","99640","0.0-132.0","3B4YI393VAIBG9LZGJ6M941DT8GSSU","A14LOABUGAITBM","3JUDR1D0D6D4CARU3YX9Y3DK5DJ2QK","","150.79999999701977","img/food3.png","74","152.39999999850988","1","0","false","3","2","1,0.5,0,1,0.5,0,0.5,0,1","0.5,0,1,0.5,0,1,0,1,0.5","2",""
"","html-keyboard-response","92","99942","0.0-133.0","3B4YI393VAIBG9LZGJ6M941DT8GSSU","A14LOABUGAITBM","3JUDR1D0D6D4CARU3YX9Y3DK5DJ2QK","","null","<img src=""img/food3.png"" style=""width:200px;border:14px solid red;"">","null","","","","","","","","","",""
"","image-keyboard-response","93","100071","0.0-135.0","3B4YI393VAIBG9LZGJ6M941DT8GSSU","A14LOABUGAITBM","3JUDR1D0D6D4CARU3YX9Y3DK5DJ2QK","","127.30000000447035","img/food1.png","75","128.5","2","0","false","1","2","1,0.5,0,1,0.5,0,0.5,0,1","0.5,0,1,0.5,0,1,0,1,0.5","2",""
"","html-keyboard-response","94","100375","0.0-136.0","3B4YI393VAIBG9LZGJ6M941DT8GSSU","A14LOABUGAITBM","3JUDR1D0D6D4CARU3YX9Y3DK5DJ2QK","","null","<img src=""img/food1.png"" style=""width:200px;border:14px solid red;"">","null","","","","","","","","","",""
"","image-keyboard-response","95","101377","0.0-138.0","3B4YI393VAIBG9LZGJ6M941DT8GSSU","A14LOABUGAITBM","3JUDR1D0D6D4CARU3YX9Y3DK5DJ2QK","","","img/food1.png","","1002.2999999970198","-1","0","true","1","2","1,0.5,0,1,0.5,0,0.5,0,1","0.5,0,1,0.5,0,1,0,1,0.5","2",""
"","html-keyboard-response","96","101680","0.0-139.0","3B4YI393VAIBG9LZGJ6M941DT8GSSU","A14LOABUGAITBM","3JUDR1D0D6D4CARU3YX9Y3DK5DJ2QK","","null","<img src=""img/food1.png"" style=""width:200px;border:14px solid red;"">","null","","","","","","","","","",""
"","html-keyboard-response","97","102666","0.0-140.0-0.0","3B4YI393VAIBG9LZGJ6M941DT8GSSU","A14LOABUGAITBM","3JUDR1D0D6D4CARU3YX9Y3DK5DJ2QK","","","","","","","","","","","","","",""
"","image-keyboard-response","98","103288","0.0-141.0","3B4YI393VAIBG9LZGJ6M941DT8GSSU","A14LOABUGAITBM","3JUDR1D0D6D4CARU3YX9Y3DK5DJ2QK","","620.2999999970198","img/food2.png","75","622.3999999985099","2","0","false","2","2","1,0.5,0,1,0.5,0,0.5,0,1","0.5,0,1,0.5,0,1,0,1,0.5","2",""
"","html-keyboard-response","99","103593","0.0-142.0","3B4YI393VAIBG9LZGJ6M941DT8GSSU","A14LOABUGAITBM","3JUDR1D0D6D4CARU3YX9Y3DK5DJ2QK","","null","<img src=""img/food2.png"" style=""width:200px;border:14px solid red;"">","null","","","","","","","","","",""
"","image-keyboard-response","100","104121","0.0-144.0","3B4YI393VAIBG9LZGJ6M941DT8GSSU","A14LOABUGAITBM","3JUDR1D0D6D4CARU3YX9Y3DK5DJ2QK","","525.6000000014901","img/food1.png","75","527.1999999955297","2","0","false","1","2","1,0.5,0,1,0.5,0,0.5,0,1","0.5,0,1,0.5,0,1,0,1,0.5","2",""
"","html-keyboard-response","101","104426","0.0-145.0","3B4YI393VAIBG9LZGJ6M941DT8GSSU","A14LOABUGAITBM","3JUDR1D0D6D4CARU3YX9Y3DK5DJ2QK","","null","<img src=""img/food1.png"" style=""width:200px;border:14px solid red;"">","null","","","","","","","","","",""
"","image-keyboard-response","102","104688","0.0-147.0","3B4YI393VAIBG9LZGJ6M941DT8GSSU","A14LOABUGAITBM","3JUDR1D0D6D4CARU3YX9Y3DK5DJ2QK","","260","img/food2.png","74","261.29999999701977","1","0","false","2","2","1,0.5,0,1,0.5,0,0.5,0,1","0.5,0,1,0.5,0,1,0,1,0.5","2",""
"","html-keyboard-response","103","104990","0.0-148.0","3B4YI393VAIBG9LZGJ6M941DT8GSSU","A14LOABUGAITBM","3JUDR1D0D6D4CARU3YX9Y3DK5DJ2QK","","null","<img src=""img/food2.png"" style=""width:200px;border:14px solid red;"">","null","","","","","","","","","",""
"","image-keyboard-response","104","105016","0.0-150.0","3B4YI393VAIBG9LZGJ6M941DT8GSSU","A14LOABUGAITBM","3JUDR1D0D6D4CARU3YX9Y3DK5DJ2QK","","24.399999998509884","img/food3.png","74","25.599999994039536","1","0","false","3","2","1,0.5,0,1,0.5,0,0.5,0,1","0.5,0,1,0.5,0,1,0,1,0.5","2",""
"","html-keyboard-response","105","105319","0.0-151.0","3B4YI393VAIBG9LZGJ6M941DT8GSSU","A14LOABUGAITBM","3JUDR1D0D6D4CARU3YX9Y3DK5DJ2QK","","null","<img src=""img/food3.png"" style=""width:200px;border:14px solid red;"">","null","","","","","","","","","",""
"","image-keyboard-response","106","105352","0.0-153.0","3B4YI393VAIBG9LZGJ6M941DT8GSSU","A14LOABUGAITBM","3JUDR1D0D6D4CARU3YX9Y3DK5DJ2QK","","31.5","img/food2.png","74","32.79999999701977","1","0","false","2","2","1,0.5,0,1,0.5,0,0.5,0,1","0.5,0,1,0.5,0,1,0,1,0.5","2",""
"","html-keyboard-response","107","105654","0.0-154.0","3B4YI393VAIBG9LZGJ6M941DT8GSSU","A14LOABUGAITBM","3JUDR1D0D6D4CARU3YX9Y3DK5DJ2QK","","null","<img src=""img/food2.png"" style=""width:200px;border:14px solid red;"">","null","","","","","","","","","",""
"","image-keyboard-response","108","105792","0.0-156.0","3B4YI393VAIBG9LZGJ6M941DT8GSSU","A14LOABUGAITBM","3JUDR1D0D6D4CARU3YX9Y3DK5DJ2QK","","135.39999999850988","img/food1.png","76","136.79999999701977","3","1","false","1","2","1,0.5,0,1,0.5,0,0.5,0,1","0.5,0,1,0.5,0,1,0,1,0.5","2",""
"","html-keyboard-response","109","106093","0.0-157.0","3B4YI393VAIBG9LZGJ6M941DT8GSSU","A14LOABUGAITBM","3JUDR1D0D6D4CARU3YX9Y3DK5DJ2QK","","null","<img src=""img/food1.png"" style=""width:200px; border:14px solid green;"">","null","","","","","","","","","",""
"","image-keyboard-response","110","106352","0.0-159.0","3B4YI393VAIBG9LZGJ6M941DT8GSSU","A14LOABUGAITBM","3JUDR1D0D6D4CARU3YX9Y3DK5DJ2QK","","257.1000000014901","img/food3.png","75","258.5","2","1","false","3","2","1,0.5,0,1,0.5,0,0.5,0,1","0.5,0,1,0.5,0,1,0,1,0.5","2",""
"","html-keyboard-response","111","106654","0.0-160.0","3B4YI393VAIBG9LZGJ6M941DT8GSSU","A14LOABUGAITBM","3JUDR1D0D6D4CARU3YX9Y3DK5DJ2QK","","null","<img src=""img/food3.png"" style=""width:200px; border:14px solid green;"">","null","","","","","","","","","",""
"","image-keyboard-response","112","106656","0.0-162.0","3B4YI393VAIBG9LZGJ6M941DT8GSSU","A14LOABUGAITBM","3JUDR1D0D6D4CARU3YX9Y3DK5DJ2QK","","0.30000000447034836","img/food3.png","76","1.5","3","0","false","3","2","1,0.5,0,1,0.5,0,0.5,0,1","0.5,0,1,0.5,0,1,0,1,0.5","2",""
"","html-keyboard-response","113","106959","0.0-163.0","3B4YI393VAIBG9LZGJ6M941DT8GSSU","A14LOABUGAITBM","3JUDR1D0D6D4CARU3YX9Y3DK5DJ2QK","","null","<img src=""img/food3.png"" style=""width:200px;border:14px solid red;"">","null","","","","","","","","","",""
"","image-keyboard-response","114","107048","0.0-165.0","3B4YI393VAIBG9LZGJ6M941DT8GSSU","A14LOABUGAITBM","3JUDR1D0D6D4CARU3YX9Y3DK5DJ2QK","","87","img/food1.png","74","88.20000000298023","1","1","false","1","2","1,0.5,0,1,0.5,0,0.5,0,1","0.5,0,1,0.5,0,1,0,1,0.5","2",""
"","html-keyboard-response","115","107350","0.0-166.0","3B4YI393VAIBG9LZGJ6M941DT8GSSU","A14LOABUGAITBM","3JUDR1D0D6D4CARU3YX9Y3DK5DJ2QK","","null","<img src=""img/food1.png"" style=""width:200px; border:14px solid green;"">","null","","","","","","","","","",""
"","image-keyboard-response","116","107377","0.0-168.0","3B4YI393VAIBG9LZGJ6M941DT8GSSU","A14LOABUGAITBM","3JUDR1D0D6D4CARU3YX9Y3DK5DJ2QK","","24.5","img/food3.png","75","26.400000005960464","2","1","false","3","2","1,0.5,0,1,0.5,0,0.5,0,1","0.5,0,1,0.5,0,1,0,1,0.5","2",""
"","html-keyboard-response","117","107680","0.0-169.0","3B4YI393VAIBG9LZGJ6M941DT8GSSU","A14LOABUGAITBM","3JUDR1D0D6D4CARU3YX9Y3DK5DJ2QK","","null","<img src=""img/food3.png"" style=""width:200px; border:14px solid green;"">","null","","","","","","","","","",""
"","image-keyboard-response","118","107704","0.0-171.0","3B4YI393VAIBG9LZGJ6M941DT8GSSU","A14LOABUGAITBM","3JUDR1D0D6D4CARU3YX9Y3DK5DJ2QK","","21.899999998509884","img/food1.png","74","23.100000001490116","1","0","false","1","2","1,0.5,0,1,0.5,0,0.5,0,1","0.5,0,1,0.5,0,1,0,1,0.5","2",""
"","html-keyboard-response","119","108007","0.0-172.0","3B4YI393VAIBG9LZGJ6M941DT8GSSU","A14LOABUGAITBM","3JUDR1D0D6D4CARU3YX9Y3DK5DJ2QK","","null","<img src=""img/food1.png"" style=""width:200px;border:14px solid red;"">","null","","","","","","","","","",""
"","image-keyboard-response","120","108032","0.0-174.0","3B4YI393VAIBG9LZGJ6M941DT8GSSU","A14LOABUGAITBM","3JUDR1D0D6D4CARU3YX9Y3DK5DJ2QK","","21.600000001490116","img/food1.png","74","23.5","1","1","false","1","2","1,0.5,0,1,0.5,0,0.5,0,1","0.5,0,1,0.5,0,1,0,1,0.5","2",""
"","html-keyboard-response","121","108334","0.0-175.0","3B4YI393VAIBG9LZGJ6M941DT8GSSU","A14LOABUGAITBM","3JUDR1D0D6D4CARU3YX9Y3DK5DJ2QK","","null","<img src=""img/food1.png"" style=""width:200px; border:14px solid green;"">","null","","","","","","","","","",""
"","image-keyboard-response","122","108346","0.0-177.0","3B4YI393VAIBG9LZGJ6M941DT8GSSU","A14LOABUGAITBM","3JUDR1D0D6D4CARU3YX9Y3DK5DJ2QK","","9.799999997019768","img/food1.png","74","11.200000002980232","1","1","false","1","2","1,0.5,0,1,0.5,0,0.5,0,1","0.5,0,1,0.5,0,1,0,1,0.5","2",""
"","html-keyboard-response","123","108648","0.0-178.0","3B4YI393VAIBG9LZGJ6M941DT8GSSU","A14LOABUGAITBM","3JUDR1D0D6D4CARU3YX9Y3DK5DJ2QK","","null","<img src=""img/food1.png"" style=""width:200px; border:14px solid green;"">","null","","","","","","","","","",""
"","image-keyboard-response","124","108672","0.0-180.0","3B4YI393VAIBG9LZGJ6M941DT8GSSU","A14LOABUGAITBM","3JUDR1D0D6D4CARU3YX9Y3DK5DJ2QK","","21.799999997019768","img/food2.png","74","23","1","0","false","2","2","1,0.5,0,1,0.5,0,0.5,0,1","0.5,0,1,0.5,0,1,0,1,0.5","2",""
"","html-keyboard-response","125","108974","0.0-181.0","3B4YI393VAIBG9LZGJ6M941DT8GSSU","A14LOABUGAITBM","3JUDR1D0D6D4CARU3YX9Y3DK5DJ2QK","","null","<img src=""img/food2.png"" style=""width:200px;border:14px solid red;"">","null","","","","","","","","","",""
"","image-keyboard-response","126","109008","0.0-183.0","3B4YI393VAIBG9LZGJ6M941DT8GSSU","A14LOABUGAITBM","3JUDR1D0D6D4CARU3YX9Y3DK5DJ2QK","","32.29999999701977","img/food2.png","74","33.599999994039536","1","0","false","2","2","1,0.5,0,1,0.5,0,0.5,0,1","0.5,0,1,0.5,0,1,0,1,0.5","2",""
"","html-keyboard-response","127","109310","0.0-184.0","3B4YI393VAIBG9LZGJ6M941DT8GSSU","A14LOABUGAITBM","3JUDR1D0D6D4CARU3YX9Y3DK5DJ2QK","","null","<img src=""img/food2.png"" style=""width:200px;border:14px solid red;"">","null","","","","","","","","","",""
"","image-keyboard-response","128","109344","0.0-186.0","3B4YI393VAIBG9LZGJ6M941DT8GSSU","A14LOABUGAITBM","3JUDR1D0D6D4CARU3YX9Y3DK5DJ2QK","","29.69999999552965","img/food3.png","74","30.80000000447035","1","0","false","3","2","1,0.5,0,1,0.5,0,0.5,0,1","0.5,0,1,0.5,0,1,0,1,0.5","2",""
"","html-keyboard-response","129","109648","0.0-187.0","3B4YI393VAIBG9LZGJ6M941DT8GSSU","A14LOABUGAITBM","3JUDR1D0D6D4CARU3YX9Y3DK5DJ2QK","","null","<img src=""img/food3.png"" style=""width:200px;border:14px solid red;"">","null","","","","","","","","","",""
"","image-keyboard-response","130","109673","0.0-189.0","3B4YI393VAIBG9LZGJ6M941DT8GSSU","A14LOABUGAITBM","3JUDR1D0D6D4CARU3YX9Y3DK5DJ2QK","","23.799999997019768","img/food3.png","74","25.100000001490116","1","0","false","3","2","1,0.5,0,1,0.5,0,0.5,0,1","0.5,0,1,0.5,0,1,0,1,0.5","2",""
"","html-keyboard-response","131","109975","0.0-190.0","3B4YI393VAIBG9LZGJ6M941DT8GSSU","A14LOABUGAITBM","3JUDR1D0D6D4CARU3YX9Y3DK5DJ2QK","","null","<img src=""img/food3.png"" style=""width:200px;border:14px solid red;"">","null","","","","","","","","","",""
"","image-keyboard-response","132","110024","0.0-192.0","3B4YI393VAIBG9LZGJ6M941DT8GSSU","A14LOABUGAITBM","3JUDR1D0D6D4CARU3YX9Y3DK5DJ2QK","","47.899999998509884","img/food2.png","74","48.899999998509884","1","0","false","2","2","1,0.5,0,1,0.5,0,0.5,0,1","0.5,0,1,0.5,0,1,0,1,0.5","2",""
"","html-keyboard-response","133","110327","0.0-193.0","3B4YI393VAIBG9LZGJ6M941DT8GSSU","A14LOABUGAITBM","3JUDR1D0D6D4CARU3YX9Y3DK5DJ2QK","","null","<img src=""img/food2.png"" style=""width:200px;border:14px solid red;"">","null","","","","","","","","","",""
"","image-keyboard-response","134","110360","0.0-195.0","3B4YI393VAIBG9LZGJ6M941DT8GSSU","A14LOABUGAITBM","3JUDR1D0D6D4CARU3YX9Y3DK5DJ2QK","","30.600000001490116","img/food2.png","74","32.600000001490116","1","0","false","2","2","1,0.5,0,1,0.5,0,0.5,0,1","0.5,0,1,0.5,0,1,0,1,0.5","2",""
"","html-keyboard-response","135","110664","0.0-196.0","3B4YI393VAIBG9LZGJ6M941DT8GSSU","A14LOABUGAITBM","3JUDR1D0D6D4CARU3YX9Y3DK5DJ2QK","","null","<img src=""img/food2.png"" style=""width:200px;border:14px solid red;"">","null","","","","","","","","","",""
"","image-keyboard-response","136","110713","0.0-198.0","3B4YI393VAIBG9LZGJ6M941DT8GSSU","A14LOABUGAITBM","3JUDR1D0D6D4CARU3YX9Y3DK5DJ2QK","","47.399999998509884","img/food1.png","76","48.69999999552965","3","1","false","1","2","1,0.5,0,1,0.5,0,0.5,0,1","0.5,0,1,0.5,0,1,0,1,0.5","2",""
"","html-keyboard-response","137","111017","0.0-199.0","3B4YI393VAIBG9LZGJ6M941DT8GSSU","A14LOABUGAITBM","3JUDR1D0D6D4CARU3YX9Y3DK5DJ2QK","","null","<img src=""img/food1.png"" style=""width:200px; border:14px solid green;"">","null","","","","","","","","","",""
"","image-keyboard-response","138","111039","0.0-201.0","3B4YI393VAIBG9LZGJ6M941DT8GSSU","A14LOABUGAITBM","3JUDR1D0D6D4CARU3YX9Y3DK5DJ2QK","","21.200000002980232","img/food1.png","76","22.30000000447035","3","1","false","1","2","1,0.5,0,1,0.5,0,0.5,0,1","0.5,0,1,0.5,0,1,0,1,0.5","2",""
"","html-keyboard-response","139","111341","0.0-202.0","3B4YI393VAIBG9LZGJ6M941DT8GSSU","A14LOABUGAITBM","3JUDR1D0D6D4CARU3YX9Y3DK5DJ2QK","","null","<img src=""img/food1.png"" style=""width:200px; border:14px solid green;"">","null","","","","","","","","","",""
"","image-keyboard-response","140","111393","0.0-204.0","3B4YI393VAIBG9LZGJ6M941DT8GSSU","A14LOABUGAITBM","3JUDR1D0D6D4CARU3YX9Y3DK5DJ2QK","","49.600000001490116","img/food3.png","75","51.20000000298023","2","1","false","3","2","1,0.5,0,1,0.5,0,0.5,0,1","0.5,0,1,0.5,0,1,0,1,0.5","2",""
"","html-keyboard-response","141","111696","0.0-205.0","3B4YI393VAIBG9LZGJ6M941DT8GSSU","A14LOABUGAITBM","3JUDR1D0D6D4CARU3YX9Y3DK5DJ2QK","","null","<img src=""img/food3.png"" style=""width:200px; border:14px solid green;"">","null","","","","","","","","","",""
"","image-keyboard-response","142","111792","0.0-207.0","3B4YI393VAIBG9LZGJ6M941DT8GSSU","A14LOABUGAITBM","3JUDR1D0D6D4CARU3YX9Y3DK5DJ2QK","","94.79999999701977","img/food3.png","75","96.5","2","1","false","3","2","1,0.5,0,1,0.5,0,0.5,0,1","0.5,0,1,0.5,0,1,0,1,0.5","2",""
"","html-keyboard-response","143","112095","0.0-208.0","3B4YI393VAIBG9LZGJ6M941DT8GSSU","A14LOABUGAITBM","3JUDR1D0D6D4CARU3YX9Y3DK5DJ2QK","","null","<img src=""img/food3.png"" style=""width:200px; border:14px solid green;"">","null","","","","","","","","","",""
"","image-keyboard-response","144","112096","0.0-210.0","3B4YI393VAIBG9LZGJ6M941DT8GSSU","A14LOABUGAITBM","3JUDR1D0D6D4CARU3YX9Y3DK5DJ2QK","","0.29999999701976776","img/food3.png","76","1.4000000059604645","3","1","false","3","2","1,0.5,0,1,0.5,0,0.5,0,1","0.5,0,1,0.5,0,1,0,1,0.5","2",""
"","html-keyboard-response","145","112398","0.0-211.0","3B4YI393VAIBG9LZGJ6M941DT8GSSU","A14LOABUGAITBM","3JUDR1D0D6D4CARU3YX9Y3DK5DJ2QK","","null","<img src=""img/food3.png"" style=""width:200px; border:14px solid green;"">","null","","","","","","","","","",""
"","image-keyboard-response","146","112417","0.0-213.0","3B4YI393VAIBG9LZGJ6M941DT8GSSU","A14LOABUGAITBM","3JUDR1D0D6D4CARU3YX9Y3DK5DJ2QK","","16.299999997019768","img/food2.png","76","17.899999998509884","3","1","false","2","2","1,0.5,0,1,0.5,0,0.5,0,1","0.5,0,1,0.5,0,1,0,1,0.5","2",""
"","html-keyboard-response","147","112721","0.0-214.0","3B4YI393VAIBG9LZGJ6M941DT8GSSU","A14LOABUGAITBM","3JUDR1D0D6D4CARU3YX9Y3DK5DJ2QK","","null","<img src=""img/food2.png"" style=""width:200px; border:14px solid green;"">","null","","","","","","","","","",""
"","image-keyboard-response","148","113008","0.0-216.0","3B4YI393VAIBG9LZGJ6M941DT8GSSU","A14LOABUGAITBM","3JUDR1D0D6D4CARU3YX9Y3DK5DJ2QK","","284.8999999985099","img/food3.png","74","286.19999999552965","1","0","false","3","2","1,0.5,0,1,0.5,0,0.5,0,1","0.5,0,1,0.5,0,1,0,1,0.5","2",""
"","html-keyboard-response","149","113309","0.0-217.0","3B4YI393VAIBG9LZGJ6M941DT8GSSU","A14LOABUGAITBM","3JUDR1D0D6D4CARU3YX9Y3DK5DJ2QK","","null","<img src=""img/food3.png"" style=""width:200px;border:14px solid red;"">","null","","","","","","","","","",""
"","image-keyboard-response","150","113416","0.0-219.0","3B4YI393VAIBG9LZGJ6M941DT8GSSU","A14LOABUGAITBM","3JUDR1D0D6D4CARU3YX9Y3DK5DJ2QK","","104.5","img/food3.png","75","106.39999999850988","2","1","false","3","2","1,0.5,0,1,0.5,0,0.5,0,1","0.5,0,1,0.5,0,1,0,1,0.5","2",""
"","html-keyboard-response","151","113723","0.0-220.0","3B4YI393VAIBG9LZGJ6M941DT8GSSU","A14LOABUGAITBM","3JUDR1D0D6D4CARU3YX9Y3DK5DJ2QK","","null","<img src=""img/food3.png"" style=""width:200px; border:14px solid green;"">","null","","","","","","","","","",""
"","image-keyboard-response","152","113752","0.0-222.0","3B4YI393VAIBG9LZGJ6M941DT8GSSU","A14LOABUGAITBM","3JUDR1D0D6D4CARU3YX9Y3DK5DJ2QK","","27.299999997019768","img/food3.png","75","28.5","2","1","false","3","2","1,0.5,0,1,0.5,0,0.5,0,1","0.5,0,1,0.5,0,1,0,1,0.5","2",""
"","html-keyboard-response","153","114054","0.0-223.0","3B4YI393VAIBG9LZGJ6M941DT8GSSU","A14LOABUGAITBM","3JUDR1D0D6D4CARU3YX9Y3DK5DJ2QK","","null","<img src=""img/food3.png"" style=""width:200px; border:14px solid green;"">","null","","","","","","","","","",""
"","image-keyboard-response","154","114200","0.0-225.0","3B4YI393VAIBG9LZGJ6M941DT8GSSU","A14LOABUGAITBM","3JUDR1D0D6D4CARU3YX9Y3DK5DJ2QK","","144.10000000149012","img/food2.png","76","145.5","3","1","false","2","2","1,0.5,0,1,0.5,0,0.5,0,1","0.5,0,1,0.5,0,1,0,1,0.5","2",""
"","html-keyboard-response","155","114502","0.0-226.0","3B4YI393VAIBG9LZGJ6M941DT8GSSU","A14LOABUGAITBM","3JUDR1D0D6D4CARU3YX9Y3DK5DJ2QK","","null","<img src=""img/food2.png"" style=""width:200px; border:14px solid green;"">","null","","","","","","","","","",""
"","image-keyboard-response","156","114537","0.0-228.0","3B4YI393VAIBG9LZGJ6M941DT8GSSU","A14LOABUGAITBM","3JUDR1D0D6D4CARU3YX9Y3DK5DJ2QK","","32.600000001490116","img/food3.png","76","34.399999998509884","3","1","false","3","2","1,0.5,0,1,0.5,0,0.5,0,1","0.5,0,1,0.5,0,1,0,1,0.5","2",""
"","html-keyboard-response","157","114841","0.0-229.0","3B4YI393VAIBG9LZGJ6M941DT8GSSU","A14LOABUGAITBM","3JUDR1D0D6D4CARU3YX9Y3DK5DJ2QK","","null","<img src=""img/food3.png"" style=""width:200px; border:14px solid green;"">","null","","","","","","","","","",""
"","image-keyboard-response","158","115032","0.0-231.0","3B4YI393VAIBG9LZGJ6M941DT8GSSU","A14LOABUGAITBM","3JUDR1D0D6D4CARU3YX9Y3DK5DJ2QK","","189","img/food2.png","75","190.40000000596046","2","0","false","2","2","1,0.5,0,1,0.5,0,0.5,0,1","0.5,0,1,0.5,0,1,0,1,0.5","2",""
"","html-keyboard-response","159","115334","0.0-232.0","3B4YI393VAIBG9LZGJ6M941DT8GSSU","A14LOABUGAITBM","3JUDR1D0D6D4CARU3YX9Y3DK5DJ2QK","","null","<img src=""img/food2.png"" style=""width:200px;border:14px solid red;"">","null","","","","","","","","","",""
"","image-keyboard-response","160","115369","0.0-234.0","3B4YI393VAIBG9LZGJ6M941DT8GSSU","A14LOABUGAITBM","3JUDR1D0D6D4CARU3YX9Y3DK5DJ2QK","","32.5","img/food3.png","75","37.600000001490116","2","1","false","3","2","1,0.5,0,1,0.5,0,0.5,0,1","0.5,0,1,0.5,0,1,0,1,0.5","2",""
"","html-keyboard-response","161","115674","0.0-235.0","3B4YI393VAIBG9LZGJ6M941DT8GSSU","A14LOABUGAITBM","3JUDR1D0D6D4CARU3YX9Y3DK5DJ2QK","","null","<img src=""img/food3.png"" style=""width:200px; border:14px solid green;"">","null","","","","","","","","","",""
"","image-keyboard-response","162","115759","0.0-237.0","3B4YI393VAIBG9LZGJ6M941DT8GSSU","A14LOABUGAITBM","3JUDR1D0D6D4CARU3YX9Y3DK5DJ2QK","","83.60000000149012","img/food3.png","75","84.79999999701977","2","1","false","3","2","1,0.5,0,1,0.5,0,0.5,0,1","0.5,0,1,0.5,0,1,0,1,0.5","2",""
"","html-keyboard-response","163","116062","0.0-238.0","3B4YI393VAIBG9LZGJ6M941DT8GSSU","A14LOABUGAITBM","3JUDR1D0D6D4CARU3YX9Y3DK5DJ2QK","","null","<img src=""img/food3.png"" style=""width:200px; border:14px solid green;"">","null","","","","","","","","","",""
"","image-keyboard-response","164","116135","0.0-240.0","3B4YI393VAIBG9LZGJ6M941DT8GSSU","A14LOABUGAITBM","3JUDR1D0D6D4CARU3YX9Y3DK5DJ2QK","","70.79999999701977","img/food1.png","76","72.70000000298023","3","1","false","1","2","1,0.5,0,1,0.5,0,0.5,0,1","0.5,0,1,0.5,0,1,0,1,0.5","2",""
"","html-keyboard-response","165","116437","0.0-241.0","3B4YI393VAIBG9LZGJ6M941DT8GSSU","A14LOABUGAITBM","3JUDR1D0D6D4CARU3YX9Y3DK5DJ2QK","","null","<img src=""img/food1.png"" style=""width:200px; border:14px solid green;"">","null","","","","","","","","","",""
"","image-keyboard-response","166","116520","0.0-243.0","3B4YI393VAIBG9LZGJ6M941DT8GSSU","A14LOABUGAITBM","3JUDR1D0D6D4CARU3YX9Y3DK5DJ2QK","","81.20000000298023","img/food1.png","76","82.5","3","1","false","1","2","1,0.5,0,1,0.5,0,0.5,0,1","0.5,0,1,0.5,0,1,0,1,0.5","2",""
"","html-keyboard-response","167","116824","0.0-244.0","3B4YI393VAIBG9LZGJ6M941DT8GSSU","A14LOABUGAITBM","3JUDR1D0D6D4CARU3YX9Y3DK5DJ2QK","","null","<img src=""img/food1.png"" style=""width:200px; border:14px solid green;"">","null","","","","","","","","","",""
"","image-keyboard-response","168","116889","0.0-246.0","3B4YI393VAIBG9LZGJ6M941DT8GSSU","A14LOABUGAITBM","3JUDR1D0D6D4CARU3YX9Y3DK5DJ2QK","","62.30000000447035","img/food2.png","76","63.900000005960464","3","1","false","2","2","1,0.5,0,1,0.5,0,0.5,0,1","0.5,0,1,0.5,0,1,0,1,0.5","2",""
"","html-keyboard-response","169","117191","0.0-247.0","3B4YI393VAIBG9LZGJ6M941DT8GSSU","A14LOABUGAITBM","3JUDR1D0D6D4CARU3YX9Y3DK5DJ2QK","","null","<img src=""img/food2.png"" style=""width:200px; border:14px solid green;"">","null","","","","","","","","","",""
"","image-keyboard-response","170","117223","0.0-249.0","3B4YI393VAIBG9LZGJ6M941DT8GSSU","A14LOABUGAITBM","3JUDR1D0D6D4CARU3YX9Y3DK5DJ2QK","","30.5","img/food1.png","75","31.799999997019768","2","0","false","1","2","1,0.5,0,1,0.5,0,0.5,0,1","0.5,0,1,0.5,0,1,0,1,0.5","2",""
"","html-keyboard-response","171","117526","0.0-250.0","3B4YI393VAIBG9LZGJ6M941DT8GSSU","A14LOABUGAITBM","3JUDR1D0D6D4CARU3YX9Y3DK5DJ2QK","","null","<img src=""img/food1.png"" style=""width:200px;border:14px solid red;"">","null","","","","","","","","","",""
"","image-keyboard-response","172","117600","0.0-252.0","3B4YI393VAIBG9LZGJ6M941DT8GSSU","A14LOABUGAITBM","3JUDR1D0D6D4CARU3YX9Y3DK5DJ2QK","","72","img/food2.png","74","73.79999999701977","1","0","false","2","2","1,0.5,0,1,0.5,0,0.5,0,1","0.5,0,1,0.5,0,1,0,1,0.5","2",""
"","html-keyboard-response","173","117904","0.0-253.0","3B4YI393VAIBG9LZGJ6M941DT8GSSU","A14LOABUGAITBM","3JUDR1D0D6D4CARU3YX9Y3DK5DJ2QK","","null","<img src=""img/food2.png"" style=""width:200px;border:14px solid red;"">","null","","","","","","","","","",""
"","image-keyboard-response","174","118248","0.0-255.0","3B4YI393VAIBG9LZGJ6M941DT8GSSU","A14LOABUGAITBM","3JUDR1D0D6D4CARU3YX9Y3DK5DJ2QK","","342","img/food3.png","74","343.20000000298023","1","0","false","3","2","1,0.5,0,1,0.5,0,0.5,0,1","0.5,0,1,0.5,0,1,0,1,0.5","2",""
"","html-keyboard-response","175","118551","0.0-256.0","3B4YI393VAIBG9LZGJ6M941DT8GSSU","A14LOABUGAITBM","3JUDR1D0D6D4CARU3YX9Y3DK5DJ2QK","","null","<img src=""img/food3.png"" style=""width:200px;border:14px solid red;"">","null","","","","","","","","","",""
"","image-keyboard-response","176","118759","0.0-258.0","3B4YI393VAIBG9LZGJ6M941DT8GSSU","A14LOABUGAITBM","3JUDR1D0D6D4CARU3YX9Y3DK5DJ2QK","","206.70000000298023","img/food2.png","76","208.10000000149012","3","1","false","2","2","1,0.5,0,1,0.5,0,0.5,0,1","0.5,0,1,0.5,0,1,0,1,0.5","2",""
"","html-keyboard-response","177","119062","0.0-259.0","3B4YI393VAIBG9LZGJ6M941DT8GSSU","A14LOABUGAITBM","3JUDR1D0D6D4CARU3YX9Y3DK5DJ2QK","","null","<img src=""img/food2.png"" style=""width:200px; border:14px solid green;"">","null","","","","","","","","","",""
"","image-keyboard-response","178","119199","0.0-261.0","3B4YI393VAIBG9LZGJ6M941DT8GSSU","A14LOABUGAITBM","3JUDR1D0D6D4CARU3YX9Y3DK5DJ2QK","","135.69999999552965","img/food2.png","76","137","3","1","false","2","2","1,0.5,0,1,0.5,0,0.5,0,1","0.5,0,1,0.5,0,1,0,1,0.5","2",""
"","html-keyboard-response","179","119502","0.0-262.0","3B4YI393VAIBG9LZGJ6M941DT8GSSU","A14LOABUGAITBM","3JUDR1D0D6D4CARU3YX9Y3DK5DJ2QK","","null","<img src=""img/food2.png"" style=""width:200px; border:14px solid green;"">","null","","","","","","","","","",""
"","image-keyboard-response","180","119647","0.0-264.0","3B4YI393VAIBG9LZGJ6M941DT8GSSU","A14LOABUGAITBM","3JUDR1D0D6D4CARU3YX9Y3DK5DJ2QK","","143","img/food3.png","75","145.10000000149012","2","1","false","3","2","1,0.5,0,1,0.5,0,0.5,0,1","0.5,0,1,0.5,0,1,0,1,0.5","2",""
"","html-keyboard-response","181","119950","0.0-265.0","3B4YI393VAIBG9LZGJ6M941DT8GSSU","A14LOABUGAITBM","3JUDR1D0D6D4CARU3YX9Y3DK5DJ2QK","","null","<img src=""img/food3.png"" style=""width:200px; border:14px solid green;"">","null","","","","","","","","","",""
"","image-keyboard-response","182","119975","0.0-267.0","3B4YI393VAIBG9LZGJ6M941DT8GSSU","A14LOABUGAITBM","3JUDR1D0D6D4CARU3YX9Y3DK5DJ2QK","","23.69999999552965","img/food2.png","75","25.099999994039536","2","0","false","2","2","1,0.5,0,1,0.5,0,0.5,0,1","0.5,0,1,0.5,0,1,0,1,0.5","2",""
"","html-keyboard-response","183","120278","0.0-268.0","3B4YI393VAIBG9LZGJ6M941DT8GSSU","A14LOABUGAITBM","3JUDR1D0D6D4CARU3YX9Y3DK5DJ2QK","","null","<img src=""img/food2.png"" style=""width:200px;border:14px solid red;"">","null","","","","","","","","","",""
"","image-keyboard-response","184","120663","0.0-270.0","3B4YI393VAIBG9LZGJ6M941DT8GSSU","A14LOABUGAITBM","3JUDR1D0D6D4CARU3YX9Y3DK5DJ2QK","","384.19999999552965","img/food2.png","76","385.29999999701977","3","1","false","2","2","1,0.5,0,1,0.5,0,0.5,0,1","0.5,0,1,0.5,0,1,0,1,0.5","2",""
"","html-keyboard-response","185","120966","0.0-271.0","3B4YI393VAIBG9LZGJ6M941DT8GSSU","A14LOABUGAITBM","3JUDR1D0D6D4CARU3YX9Y3DK5DJ2QK","","null","<img src=""img/food2.png"" style=""width:200px; border:14px solid green;"">","null","","","","","","","","","",""
"","instructions","186","124882","0.0-273.0","3B4YI393VAIBG9LZGJ6M941DT8GSSU","A14LOABUGAITBM","3JUDR1D0D6D4CARU3YX9Y3DK5DJ2QK","[{""page_index"":0,""viewing_time"":2778.7999999970198},{""page_index"":1,""viewing_time"":1135.8999999985099}]","3915.10000000149","","","","","","","","","","","",""
"","image-keyboard-response","187","126128","0.0-274.0","3B4YI393VAIBG9LZGJ6M941DT8GSSU","A14LOABUGAITBM","3JUDR1D0D6D4CARU3YX9Y3DK5DJ2QK","","1244.1999999955297","img/food6.png","76","1246.2999999970198","3","0","","1","1","1,0.5,0,1,0.5,0,0.5,0,1","1,0.5,0,1,0.5,0,0.5,0,1","1",""
"","html-keyboard-response","188","126433","0.0-275.0","3B4YI393VAIBG9LZGJ6M941DT8GSSU","A14LOABUGAITBM","3JUDR1D0D6D4CARU3YX9Y3DK5DJ2QK","","null","<img src=""img/food6.png"" style=""width:200px;border:14px solid red;"">","null","","","","","","","","","",""
"","image-keyboard-response","189","127248","0.0-276.0","3B4YI393VAIBG9LZGJ6M941DT8GSSU","A14LOABUGAITBM","3JUDR1D0D6D4CARU3YX9Y3DK5DJ2QK","","814.2000000029802","img/food5.png","74","815.5","1","1","","2","1","1,0.5,0,1,0.5,0,0.5,0,1","1,0.5,0,1,0.5,0,0.5,0,1","1",""
"","html-keyboard-response","190","127551","0.0-277.0","3B4YI393VAIBG9LZGJ6M941DT8GSSU","A14LOABUGAITBM","3JUDR1D0D6D4CARU3YX9Y3DK5DJ2QK","","null","<img src=""img/food5.png"" style=""width:200px; border:14px solid green;"">","null","","","","","","","","","",""
"","image-keyboard-response","191","128217","0.0-278.0","3B4YI393VAIBG9LZGJ6M941DT8GSSU","A14LOABUGAITBM","3JUDR1D0D6D4CARU3YX9Y3DK5DJ2QK","","663.6999999955297","img/food6.png","75","665.6000000014901","2","1","","1","1","1,0.5,0,1,0.5,0,0.5,0,1","1,0.5,0,1,0.5,0,0.5,0,1","1",""
"","html-keyboard-response","192","128519","0.0-279.0","3B4YI393VAIBG9LZGJ6M941DT8GSSU","A14LOABUGAITBM","3JUDR1D0D6D4CARU3YX9Y3DK5DJ2QK","","null","<img src=""img/food6.png"" style=""width:200px; border:14px solid green;"">","null","","","","","","","","","",""
"","image-keyboard-response","193","129520","0.0-280.0","3B4YI393VAIBG9LZGJ6M941DT8GSSU","A14LOABUGAITBM","3JUDR1D0D6D4CARU3YX9Y3DK5DJ2QK","","999.1999999955297","img/food4.png","75","1000.7000000029802","2","0","","3","1","1,0.5,0,1,0.5,0,0.5,0,1","1,0.5,0,1,0.5,0,0.5,0,1","1",""
"","html-keyboard-response","194","129823","0.0-281.0","3B4YI393VAIBG9LZGJ6M941DT8GSSU","A14LOABUGAITBM","3JUDR1D0D6D4CARU3YX9Y3DK5DJ2QK","","null","<img src=""img/food4.png"" style=""width:200px;border:14px solid red;"">","null","","","","","","","","","",""
"","image-keyboard-response","195","130228","0.0-282.0","3B4YI393VAIBG9LZGJ6M941DT8GSSU","A14LOABUGAITBM","3JUDR1D0D6D4CARU3YX9Y3DK5DJ2QK","","403","img/food4.png","74","404.79999999701977","1","0","","3","1","1,0.5,0,1,0.5,0,0.5,0,1","1,0.5,0,1,0.5,0,0.5,0,1","1",""
"","html-keyboard-response","196","130532","0.0-283.0","3B4YI393VAIBG9LZGJ6M941DT8GSSU","A14LOABUGAITBM","3JUDR1D0D6D4CARU3YX9Y3DK5DJ2QK","","null","<img src=""img/food4.png"" style=""width:200px;border:14px solid red;"">","null","","","","","","","","","",""
"","image-keyboard-response","197","131303","0.0-284.0","3B4YI393VAIBG9LZGJ6M941DT8GSSU","A14LOABUGAITBM","3JUDR1D0D6D4CARU3YX9Y3DK5DJ2QK","","769.4000000059605","img/food6.png","76","770.7000000029802","3","0","","1","1","1,0.5,0,1,0.5,0,0.5,0,1","1,0.5,0,1,0.5,0,0.5,0,1","1",""
"","html-keyboard-response","198","131606","0.0-285.0","3B4YI393VAIBG9LZGJ6M941DT8GSSU","A14LOABUGAITBM","3JUDR1D0D6D4CARU3YX9Y3DK5DJ2QK","","null","<img src=""img/food6.png"" style=""width:200px;border:14px solid red;"">","null","","","","","","","","","",""
"","image-keyboard-response","199","132223","0.0-286.0","3B4YI393VAIBG9LZGJ6M941DT8GSSU","A14LOABUGAITBM","3JUDR1D0D6D4CARU3YX9Y3DK5DJ2QK","","614.8999999985099","img/food6.png","74","616.6999999955297","1","1","","1","1","1,0.5,0,1,0.5,0,0.5,0,1","1,0.5,0,1,0.5,0,0.5,0,1","1",""
"","html-keyboard-response","200","132526","0.0-287.0","3B4YI393VAIBG9LZGJ6M941DT8GSSU","A14LOABUGAITBM","3JUDR1D0D6D4CARU3YX9Y3DK5DJ2QK","","null","<img src=""img/food6.png"" style=""width:200px; border:14px solid green;"">","null","","","","","","","","","",""
"","image-keyboard-response","201","133449","0.0-288.0","3B4YI393VAIBG9LZGJ6M941DT8GSSU","A14LOABUGAITBM","3JUDR1D0D6D4CARU3YX9Y3DK5DJ2QK","","920.5","img/food5.png","74","922.2999999970198","1","1","","2","1","1,0.5,0,1,0.5,0,0.5,0,1","1,0.5,0,1,0.5,0,0.5,0,1","1",""
"","html-keyboard-response","202","133755","0.0-289.0","3B4YI393VAIBG9LZGJ6M941DT8GSSU","A14LOABUGAITBM","3JUDR1D0D6D4CARU3YX9Y3DK5DJ2QK","","null","<img src=""img/food5.png"" style=""width:200px; border:14px solid green;"">","null","","","","","","","","","",""
"","image-keyboard-response","203","134381","0.0-290.0","3B4YI393VAIBG9LZGJ6M941DT8GSSU","A14LOABUGAITBM","3JUDR1D0D6D4CARU3YX9Y3DK5DJ2QK","","624.3000000044703","img/food5.png","74","625.6000000014901","1","1","","2","1","1,0.5,0,1,0.5,0,0.5,0,1","1,0.5,0,1,0.5,0,0.5,0,1","1",""
"","html-keyboard-response","204","134684","0.0-291.0","3B4YI393VAIBG9LZGJ6M941DT8GSSU","A14LOABUGAITBM","3JUDR1D0D6D4CARU3YX9Y3DK5DJ2QK","","null","<img src=""img/food5.png"" style=""width:200px; border:14px solid green;"">","null","","","","","","","","","",""
"","image-keyboard-response","205","135503","0.0-292.0","3B4YI393VAIBG9LZGJ6M941DT8GSSU","A14LOABUGAITBM","3JUDR1D0D6D4CARU3YX9Y3DK5DJ2QK","","817.1000000014901","img/food6.png","75","818.5","2","0","","1","1","1,0.5,0,1,0.5,0,0.5,0,1","1,0.5,0,1,0.5,0,0.5,0,1","1",""
"","html-keyboard-response","206","135806","0.0-293.0","3B4YI393VAIBG9LZGJ6M941DT8GSSU","A14LOABUGAITBM","3JUDR1D0D6D4CARU3YX9Y3DK5DJ2QK","","null","<img src=""img/food6.png"" style=""width:200px;border:14px solid red;"">","null","","","","","","","","","",""
"","image-keyboard-response","207","136648","0.0-294.0","3B4YI393VAIBG9LZGJ6M941DT8GSSU","A14LOABUGAITBM","3JUDR1D0D6D4CARU3YX9Y3DK5DJ2QK","","840.7000000029802","img/food6.png","75","842.3999999985099","2","0","","1","1","1,0.5,0,1,0.5,0,0.5,0,1","1,0.5,0,1,0.5,0,0.5,0,1","1",""
"","html-keyboard-response","208","136952","0.0-295.0","3B4YI393VAIBG9LZGJ6M941DT8GSSU","A14LOABUGAITBM","3JUDR1D0D6D4CARU3YX9Y3DK5DJ2QK","","null","<img src=""img/food6.png"" style=""width:200px;border:14px solid red;"">","null","","","","","","","","","",""
"","image-keyboard-response","209","137063","0.0-296.0","3B4YI393VAIBG9LZGJ6M941DT8GSSU","A14LOABUGAITBM","3JUDR1D0D6D4CARU3YX9Y3DK5DJ2QK","","108.89999999850988","img/food4.png","74","110.79999999701977","1","0","","3","1","1,0.5,0,1,0.5,0,0.5,0,1","1,0.5,0,1,0.5,0,0.5,0,1","1",""
"","html-keyboard-response","210","137366","0.0-297.0","3B4YI393VAIBG9LZGJ6M941DT8GSSU","A14LOABUGAITBM","3JUDR1D0D6D4CARU3YX9Y3DK5DJ2QK","","null","<img src=""img/food4.png"" style=""width:200px;border:14px solid red;"">","null","","","","","","","","","",""
"","image-keyboard-response","211","137777","0.0-298.0","3B4YI393VAIBG9LZGJ6M941DT8GSSU","A14LOABUGAITBM","3JUDR1D0D6D4CARU3YX9Y3DK5DJ2QK","","408.70000000298023","img/food4.png","74","410.80000000447035","1","1","","3","1","1,0.5,0,1,0.5,0,0.5,0,1","1,0.5,0,1,0.5,0,0.5,0,1","1",""
"","html-keyboard-response","212","138082","0.0-299.0","3B4YI393VAIBG9LZGJ6M941DT8GSSU","A14LOABUGAITBM","3JUDR1D0D6D4CARU3YX9Y3DK5DJ2QK","","null","<img src=""img/food4.png"" style=""width:200px; border:14px solid green;"">","null","","","","","","","","","",""
"","image-keyboard-response","213","138840","0.0-300.0","3B4YI393VAIBG9LZGJ6M941DT8GSSU","A14LOABUGAITBM","3JUDR1D0D6D4CARU3YX9Y3DK5DJ2QK","","756.6000000014901","img/food6.png","76","757.8999999985099","3","0","","1","1","1,0.5,0,1,0.5,0,0.5,0,1","1,0.5,0,1,0.5,0,0.5,0,1","1",""
"","html-keyboard-response","214","139143","0.0-301.0","3B4YI393VAIBG9LZGJ6M941DT8GSSU","A14LOABUGAITBM","3JUDR1D0D6D4CARU3YX9Y3DK5DJ2QK","","null","<img src=""img/food6.png"" style=""width:200px;border:14px solid red;"">","null","","","","","","","","","",""
"","image-keyboard-response","215","139744","0.0-302.0","3B4YI393VAIBG9LZGJ6M941DT8GSSU","A14LOABUGAITBM","3JUDR1D0D6D4CARU3YX9Y3DK5DJ2QK","","600","img/food5.png","74","601.2999999970198","1","1","","2","1","1,0.5,0,1,0.5,0,0.5,0,1","1,0.5,0,1,0.5,0,0.5,0,1","1",""
"","html-keyboard-response","216","140047","0.0-303.0","3B4YI393VAIBG9LZGJ6M941DT8GSSU","A14LOABUGAITBM","3JUDR1D0D6D4CARU3YX9Y3DK5DJ2QK","","null","<img src=""img/food5.png"" style=""width:200px; border:14px solid green;"">","null","","","","","","","","","",""
"","image-keyboard-response","217","140599","0.0-304.0","3B4YI393VAIBG9LZGJ6M941DT8GSSU","A14LOABUGAITBM","3JUDR1D0D6D4CARU3YX9Y3DK5DJ2QK","","550.7999999970198","img/food5.png","74","551.7999999970198","1","1","","2","1","1,0.5,0,1,0.5,0,0.5,0,1","1,0.5,0,1,0.5,0,0.5,0,1","1",""
"","html-keyboard-response","218","140901","0.0-305.0","3B4YI393VAIBG9LZGJ6M941DT8GSSU","A14LOABUGAITBM","3JUDR1D0D6D4CARU3YX9Y3DK5DJ2QK","","null","<img src=""img/food5.png"" style=""width:200px; border:14px solid green;"">","null","","","","","","","","","",""
"","image-keyboard-response","219","141688","0.0-306.0","3B4YI393VAIBG9LZGJ6M941DT8GSSU","A14LOABUGAITBM","3JUDR1D0D6D4CARU3YX9Y3DK5DJ2QK","","785.1000000014901","img/food4.png","75","786.7999999970198","2","0","","3","1","1,0.5,0,1,0.5,0,0.5,0,1","1,0.5,0,1,0.5,0,0.5,0,1","1",""
"","html-keyboard-response","220","141992","0.0-307.0","3B4YI393VAIBG9LZGJ6M941DT8GSSU","A14LOABUGAITBM","3JUDR1D0D6D4CARU3YX9Y3DK5DJ2QK","","null","<img src=""img/food4.png"" style=""width:200px;border:14px solid red;"">","null","","","","","","","","","",""
"","image-keyboard-response","221","142456","0.0-308.0","3B4YI393VAIBG9LZGJ6M941DT8GSSU","A14LOABUGAITBM","3JUDR1D0D6D4CARU3YX9Y3DK5DJ2QK","","462.59999999403954","img/food6.png","74","463.70000000298023","1","1","","1","1","1,0.5,0,1,0.5,0,0.5,0,1","1,0.5,0,1,0.5,0,0.5,0,1","1",""
"","html-keyboard-response","222","142758","0.0-309.0","3B4YI393VAIBG9LZGJ6M941DT8GSSU","A14LOABUGAITBM","3JUDR1D0D6D4CARU3YX9Y3DK5DJ2QK","","null","<img src=""img/food6.png"" style=""width:200px; border:14px solid green;"">","null","","","","","","","","","",""
"","image-keyboard-response","223","143167","0.0-310.0","3B4YI393VAIBG9LZGJ6M941DT8GSSU","A14LOABUGAITBM","3JUDR1D0D6D4CARU3YX9Y3DK5DJ2QK","","407.79999999701977","img/food4.png","74","409.19999999552965","1","1","","3","1","1,0.5,0,1,0.5,0,0.5,0,1","1,0.5,0,1,0.5,0,0.5,0,1","1",""
"","html-keyboard-response","224","143470","0.0-311.0","3B4YI393VAIBG9LZGJ6M941DT8GSSU","A14LOABUGAITBM","3JUDR1D0D6D4CARU3YX9Y3DK5DJ2QK","","null","<img src=""img/food4.png"" style=""width:200px; border:14px solid green;"">","null","","","","","","","","","",""
"","image-keyboard-response","225","143983","0.0-312.0","3B4YI393VAIBG9LZGJ6M941DT8GSSU","A14LOABUGAITBM","3JUDR1D0D6D4CARU3YX9Y3DK5DJ2QK","","511.70000000298023","img/food6.png","74","513.1000000014901","1","1","","1","1","1,0.5,0,1,0.5,0,0.5,0,1","1,0.5,0,1,0.5,0,0.5,0,1","1",""
"","html-keyboard-response","226","144286","0.0-313.0","3B4YI393VAIBG9LZGJ6M941DT8GSSU","A14LOABUGAITBM","3JUDR1D0D6D4CARU3YX9Y3DK5DJ2QK","","null","<img src=""img/food6.png"" style=""width:200px; border:14px solid green;"">","null","","","","","","","","","",""
"","image-keyboard-response","227","144784","0.0-314.0","3B4YI393VAIBG9LZGJ6M941DT8GSSU","A14LOABUGAITBM","3JUDR1D0D6D4CARU3YX9Y3DK5DJ2QK","","496.80000000447035","img/food4.png","74","497.8999999985099","1","1","","3","1","1,0.5,0,1,0.5,0,0.5,0,1","1,0.5,0,1,0.5,0,0.5,0,1","1",""
"","html-keyboard-response","228","145086","0.0-315.0","3B4YI393VAIBG9LZGJ6M941DT8GSSU","A14LOABUGAITBM","3JUDR1D0D6D4CARU3YX9Y3DK5DJ2QK","","null","<img src=""img/food4.png"" style=""width:200px; border:14px solid green;"">","null","","","","","","","","","",""
"","image-keyboard-response","229","145463","0.0-316.0","3B4YI393VAIBG9LZGJ6M941DT8GSSU","A14LOABUGAITBM","3JUDR1D0D6D4CARU3YX9Y3DK5DJ2QK","","375.29999999701977","img/food6.png","74","376.69999999552965","1","1","","1","1","1,0.5,0,1,0.5,0,0.5,0,1","1,0.5,0,1,0.5,0,0.5,0,1","1",""
"","html-keyboard-response","230","145765","0.0-317.0","3B4YI393VAIBG9LZGJ6M941DT8GSSU","A14LOABUGAITBM","3JUDR1D0D6D4CARU3YX9Y3DK5DJ2QK","","null","<img src=""img/food6.png"" style=""width:200px; border:14px solid green;"">","null","","","","","","","","","",""
"","image-keyboard-response","231","145929","0.0-318.0","3B4YI393VAIBG9LZGJ6M941DT8GSSU","A14LOABUGAITBM","3JUDR1D0D6D4CARU3YX9Y3DK5DJ2QK","","162.30000000447035","img/food6.png","74","163.89999999850988","1","1","","1","1","1,0.5,0,1,0.5,0,0.5,0,1","1,0.5,0,1,0.5,0,0.5,0,1","1",""
"","html-keyboard-response","232","146232","0.0-319.0","3B4YI393VAIBG9LZGJ6M941DT8GSSU","A14LOABUGAITBM","3JUDR1D0D6D4CARU3YX9Y3DK5DJ2QK","","null","<img src=""img/food6.png"" style=""width:200px; border:14px solid green;"">","null","","","","","","","","","",""
"","image-keyboard-response","233","146424","0.0-320.0","3B4YI393VAIBG9LZGJ6M941DT8GSSU","A14LOABUGAITBM","3JUDR1D0D6D4CARU3YX9Y3DK5DJ2QK","","190.60000000149012","img/food5.png","74","192.10000000149012","1","1","","2","1","1,0.5,0,1,0.5,0,0.5,0,1","1,0.5,0,1,0.5,0,0.5,0,1","1",""
"","html-keyboard-response","234","146727","0.0-321.0","3B4YI393VAIBG9LZGJ6M941DT8GSSU","A14LOABUGAITBM","3JUDR1D0D6D4CARU3YX9Y3DK5DJ2QK","","null","<img src=""img/food5.png"" style=""width:200px; border:14px solid green;"">","null","","","","","","","","","",""
"","image-keyboard-response","235","146776","0.0-322.0","3B4YI393VAIBG9LZGJ6M941DT8GSSU","A14LOABUGAITBM","3JUDR1D0D6D4CARU3YX9Y3DK5DJ2QK","","46.899999998509884","img/food5.png","74","48.20000000298023","1","1","","2","1","1,0.5,0,1,0.5,0,0.5,0,1","1,0.5,0,1,0.5,0,0.5,0,1","1",""
"","html-keyboard-response","236","147079","0.0-323.0","3B4YI393VAIBG9LZGJ6M941DT8GSSU","A14LOABUGAITBM","3JUDR1D0D6D4CARU3YX9Y3DK5DJ2QK","","null","<img src=""img/food5.png"" style=""width:200px; border:14px solid green;"">","null","","","","","","","","","",""
"","image-keyboard-response","237","147167","0.0-324.0","3B4YI393VAIBG9LZGJ6M941DT8GSSU","A14LOABUGAITBM","3JUDR1D0D6D4CARU3YX9Y3DK5DJ2QK","","87","img/food4.png","74","88.09999999403954","1","0","","3","1","1,0.5,0,1,0.5,0,0.5,0,1","1,0.5,0,1,0.5,0,0.5,0,1","1",""
"","html-keyboard-response","238","147469","0.0-325.0","3B4YI393VAIBG9LZGJ6M941DT8GSSU","A14LOABUGAITBM","3JUDR1D0D6D4CARU3YX9Y3DK5DJ2QK","","null","<img src=""img/food4.png"" style=""width:200px;border:14px solid red;"">","null","","","","","","","","","",""
"","image-keyboard-response","239","147536","0.0-326.0","3B4YI393VAIBG9LZGJ6M941DT8GSSU","A14LOABUGAITBM","3JUDR1D0D6D4CARU3YX9Y3DK5DJ2QK","","65.5","img/food4.png","74","67","1","1","","3","1","1,0.5,0,1,0.5,0,0.5,0,1","1,0.5,0,1,0.5,0,0.5,0,1","1",""
"","html-keyboard-response","240","147839","0.0-327.0","3B4YI393VAIBG9LZGJ6M941DT8GSSU","A14LOABUGAITBM","3JUDR1D0D6D4CARU3YX9Y3DK5DJ2QK","","null","<img src=""img/food4.png"" style=""width:200px; border:14px solid green;"">","null","","","","","","","","","",""
"","image-keyboard-response","241","147992","0.0-328.0","3B4YI393VAIBG9LZGJ6M941DT8GSSU","A14LOABUGAITBM","3JUDR1D0D6D4CARU3YX9Y3DK5DJ2QK","","151.60000000149012","img/food6.png","75","152.59999999403954","2","1","","1","1","1,0.5,0,1,0.5,0,0.5,0,1","1,0.5,0,1,0.5,0,0.5,0,1","1",""
"","html-keyboard-response","242","148294","0.0-329.0","3B4YI393VAIBG9LZGJ6M941DT8GSSU","A14LOABUGAITBM","3JUDR1D0D6D4CARU3YX9Y3DK5DJ2QK","","null","<img src=""img/food6.png"" style=""width:200px; border:14px solid green;"">","null","","","","","","","","","",""
"","image-keyboard-response","243","148552","0.0-330.0","3B4YI393VAIBG9LZGJ6M941DT8GSSU","A14LOABUGAITBM","3JUDR1D0D6D4CARU3YX9Y3DK5DJ2QK","","255.60000000149012","img/food4.png","74","257.20000000298023","1","0","","3","1","1,0.5,0,1,0.5,0,0.5,0,1","1,0.5,0,1,0.5,0,0.5,0,1","1",""
"","html-keyboard-response","244","148854","0.0-331.0","3B4YI393VAIBG9LZGJ6M941DT8GSSU","A14LOABUGAITBM","3JUDR1D0D6D4CARU3YX9Y3DK5DJ2QK","","null","<img src=""img/food4.png"" style=""width:200px;border:14px solid red;"">","null","","","","","","","","","",""
"","image-keyboard-response","245","148889","0.0-332.0","3B4YI393VAIBG9LZGJ6M941DT8GSSU","A14LOABUGAITBM","3JUDR1D0D6D4CARU3YX9Y3DK5DJ2QK","","33.399999998509884","img/food4.png","74","34.80000000447035","1","1","","3","1","1,0.5,0,1,0.5,0,0.5,0,1","1,0.5,0,1,0.5,0,0.5,0,1","1",""
"","html-keyboard-response","246","149191","0.0-333.0","3B4YI393VAIBG9LZGJ6M941DT8GSSU","A14LOABUGAITBM","3JUDR1D0D6D4CARU3YX9Y3DK5DJ2QK","","null","<img src=""img/food4.png"" style=""width:200px; border:14px solid green;"">","null","","","","","","","","","",""
"","image-keyboard-response","247","149248","0.0-334.0","3B4YI393VAIBG9LZGJ6M941DT8GSSU","A14LOABUGAITBM","3JUDR1D0D6D4CARU3YX9Y3DK5DJ2QK","","55.899999998509884","img/food6.png","75","57","2","0","","1","1","1,0.5,0,1,0.5,0,0.5,0,1","1,0.5,0,1,0.5,0,0.5,0,1","1",""
"","html-keyboard-response","248","149551","0.0-335.0","3B4YI393VAIBG9LZGJ6M941DT8GSSU","A14LOABUGAITBM","3JUDR1D0D6D4CARU3YX9Y3DK5DJ2QK","","null","<img src=""img/food6.png"" style=""width:200px;border:14px solid red;"">","null","","","","","","","","","",""
"","image-keyboard-response","249","149879","0.0-336.0","3B4YI393VAIBG9LZGJ6M941DT8GSSU","A14LOABUGAITBM","3JUDR1D0D6D4CARU3YX9Y3DK5DJ2QK","","326.29999999701977","img/food6.png","74","327.8999999985099","1","1","","1","1","1,0.5,0,1,0.5,0,0.5,0,1","1,0.5,0,1,0.5,0,0.5,0,1","1",""
"","html-keyboard-response","250","150182","0.0-337.0","3B4YI393VAIBG9LZGJ6M941DT8GSSU","A14LOABUGAITBM","3JUDR1D0D6D4CARU3YX9Y3DK5DJ2QK","","null","<img src=""img/food6.png"" style=""width:200px; border:14px solid green;"">","null","","","","","","","","","",""
"","image-keyboard-response","251","150248","0.0-338.0","3B4YI393VAIBG9LZGJ6M941DT8GSSU","A14LOABUGAITBM","3JUDR1D0D6D4CARU3YX9Y3DK5DJ2QK","","64.39999999850988","img/food4.png","74","65.90000000596046","1","1","","3","1","1,0.5,0,1,0.5,0,0.5,0,1","1,0.5,0,1,0.5,0,0.5,0,1","1",""
"","html-keyboard-response","252","150551","0.0-339.0","3B4YI393VAIBG9LZGJ6M941DT8GSSU","A14LOABUGAITBM","3JUDR1D0D6D4CARU3YX9Y3DK5DJ2QK","","null","<img src=""img/food4.png"" style=""width:200px; border:14px solid green;"">","null","","","","","","","","","",""
"","image-keyboard-response","253","150615","0.0-340.0","3B4YI393VAIBG9LZGJ6M941DT8GSSU","A14LOABUGAITBM","3JUDR1D0D6D4CARU3YX9Y3DK5DJ2QK","","62.29999999701977","img/food5.png","74","63.70000000298023","1","1","","2","1","1,0.5,0,1,0.5,0,0.5,0,1","1,0.5,0,1,0.5,0,0.5,0,1","1",""
"","html-keyboard-response","254","150917","0.0-341.0","3B4YI393VAIBG9LZGJ6M941DT8GSSU","A14LOABUGAITBM","3JUDR1D0D6D4CARU3YX9Y3DK5DJ2QK","","null","<img src=""img/food5.png"" style=""width:200px; border:14px solid green;"">","null","","","","","","","","","",""
"","image-keyboard-response","255","151135","0.0-342.0","3B4YI393VAIBG9LZGJ6M941DT8GSSU","A14LOABUGAITBM","3JUDR1D0D6D4CARU3YX9Y3DK5DJ2QK","","216.39999999850988","img/food4.png","74","217.5","1","0","","3","1","1,0.5,0,1,0.5,0,0.5,0,1","1,0.5,0,1,0.5,0,0.5,0,1","1",""
"","html-keyboard-response","256","151438","0.0-343.0","3B4YI393VAIBG9LZGJ6M941DT8GSSU","A14LOABUGAITBM","3JUDR1D0D6D4CARU3YX9Y3DK5DJ2QK","","null","<img src=""img/food4.png"" style=""width:200px;border:14px solid red;"">","null","","","","","","","","","",""
"","image-keyboard-response","257","151568","0.0-344.0","3B4YI393VAIBG9LZGJ6M941DT8GSSU","A14LOABUGAITBM","3JUDR1D0D6D4CARU3YX9Y3DK5DJ2QK","","127.89999999850988","img/food6.png","74","129.5","1","1","","1","1","1,0.5,0,1,0.5,0,0.5,0,1","1,0.5,0,1,0.5,0,0.5,0,1","1",""
"","html-keyboard-response","258","151871","0.0-345.0","3B4YI393VAIBG9LZGJ6M941DT8GSSU","A14LOABUGAITBM","3JUDR1D0D6D4CARU3YX9Y3DK5DJ2QK","","null","<img src=""img/food6.png"" style=""width:200px; border:14px solid green;"">","null","","","","","","","","","",""
"","image-keyboard-response","259","152087","0.0-346.0","3B4YI393VAIBG9LZGJ6M941DT8GSSU","A14LOABUGAITBM","3JUDR1D0D6D4CARU3YX9Y3DK5DJ2QK","","214.60000000149012","img/food4.png","74","215.89999999850988","1","1","","3","1","1,0.5,0,1,0.5,0,0.5,0,1","1,0.5,0,1,0.5,0,0.5,0,1","1",""
"","html-keyboard-response","260","152389","0.0-347.0","3B4YI393VAIBG9LZGJ6M941DT8GSSU","A14LOABUGAITBM","3JUDR1D0D6D4CARU3YX9Y3DK5DJ2QK","","null","<img src=""img/food4.png"" style=""width:200px; border:14px solid green;"">","null","","","","","","","","","",""
"","image-keyboard-response","261","152520","0.0-348.0","3B4YI393VAIBG9LZGJ6M941DT8GSSU","A14LOABUGAITBM","3JUDR1D0D6D4CARU3YX9Y3DK5DJ2QK","","129.5","img/food5.png","74","130.80000000447035","1","1","","2","1","1,0.5,0,1,0.5,0,0.5,0,1","1,0.5,0,1,0.5,0,0.5,0,1","1",""
"","html-keyboard-response","262","152823","0.0-349.0","3B4YI393VAIBG9LZGJ6M941DT8GSSU","A14LOABUGAITBM","3JUDR1D0D6D4CARU3YX9Y3DK5DJ2QK","","null","<img src=""img/food5.png"" style=""width:200px; border:14px solid green;"">","null","","","","","","","","","",""
"","image-keyboard-response","263","152968","0.0-350.0","3B4YI393VAIBG9LZGJ6M941DT8GSSU","A14LOABUGAITBM","3JUDR1D0D6D4CARU3YX9Y3DK5DJ2QK","","143.5","img/food4.png","74","144.60000000149012","1","1","","3","1","1,0.5,0,1,0.5,0,0.5,0,1","1,0.5,0,1,0.5,0,0.5,0,1","1",""
"","html-keyboard-response","264","153271","0.0-351.0","3B4YI393VAIBG9LZGJ6M941DT8GSSU","A14LOABUGAITBM","3JUDR1D0D6D4CARU3YX9Y3DK5DJ2QK","","null","<img src=""img/food4.png"" style=""width:200px; border:14px solid green;"">","null","","","","","","","","","",""
"","image-keyboard-response","265","153368","0.0-352.0","3B4YI393VAIBG9LZGJ6M941DT8GSSU","A14LOABUGAITBM","3JUDR1D0D6D4CARU3YX9Y3DK5DJ2QK","","95.40000000596046","img/food4.png","74","96.89999999850988","1","1","","3","1","1,0.5,0,1,0.5,0,0.5,0,1","1,0.5,0,1,0.5,0,0.5,0,1","1",""
"","html-keyboard-response","266","153671","0.0-353.0","3B4YI393VAIBG9LZGJ6M941DT8GSSU","A14LOABUGAITBM","3JUDR1D0D6D4CARU3YX9Y3DK5DJ2QK","","null","<img src=""img/food4.png"" style=""width:200px; border:14px solid green;"">","null","","","","","","","","","",""
"","image-keyboard-response","267","153967","0.0-354.0","3B4YI393VAIBG9LZGJ6M941DT8GSSU","A14LOABUGAITBM","3JUDR1D0D6D4CARU3YX9Y3DK5DJ2QK","","294.69999999552965","img/food5.png","74","296","1","1","","2","1","1,0.5,0,1,0.5,0,0.5,0,1","1,0.5,0,1,0.5,0,0.5,0,1","1",""
"","html-keyboard-response","268","154269","0.0-355.0","3B4YI393VAIBG9LZGJ6M941DT8GSSU","A14LOABUGAITBM","3JUDR1D0D6D4CARU3YX9Y3DK5DJ2QK","","null","<img src=""img/food5.png"" style=""width:200px; border:14px solid green;"">","null","","","","","","","","","",""
"","image-keyboard-response","269","154616","0.0-356.0","3B4YI393VAIBG9LZGJ6M941DT8GSSU","A14LOABUGAITBM","3JUDR1D0D6D4CARU3YX9Y3DK5DJ2QK","","345.29999999701977","img/food5.png","74","346.8999999985099","1","1","","2","1","1,0.5,0,1,0.5,0,0.5,0,1","1,0.5,0,1,0.5,0,0.5,0,1","1",""
"","html-keyboard-response","270","154919","0.0-357.0","3B4YI393VAIBG9LZGJ6M941DT8GSSU","A14LOABUGAITBM","3JUDR1D0D6D4CARU3YX9Y3DK5DJ2QK","","null","<img src=""img/food5.png"" style=""width:200px; border:14px solid green;"">","null","","","","","","","","","",""
"","image-keyboard-response","271","154960","0.0-358.0","3B4YI393VAIBG9LZGJ6M941DT8GSSU","A14LOABUGAITBM","3JUDR1D0D6D4CARU3YX9Y3DK5DJ2QK","","39.600000001490116","img/food6.png","74","41.29999999701977","1","1","","1","1","1,0.5,0,1,0.5,0,0.5,0,1","1,0.5,0,1,0.5,0,0.5,0,1","1",""
"","html-keyboard-response","272","155263","0.0-359.0","3B4YI393VAIBG9LZGJ6M941DT8GSSU","A14LOABUGAITBM","3JUDR1D0D6D4CARU3YX9Y3DK5DJ2QK","","null","<img src=""img/food6.png"" style=""width:200px; border:14px solid green;"">","null","","","","","","","","","",""
"","image-keyboard-response","273","155327","0.0-360.0","3B4YI393VAIBG9LZGJ6M941DT8GSSU","A14LOABUGAITBM","3JUDR1D0D6D4CARU3YX9Y3DK5DJ2QK","","63.19999999552965","img/food4.png","74","64.5","1","0","","3","1","1,0.5,0,1,0.5,0,0.5,0,1","1,0.5,0,1,0.5,0,0.5,0,1","1",""
"","html-keyboard-response","274","155630","0.0-361.0","3B4YI393VAIBG9LZGJ6M941DT8GSSU","A14LOABUGAITBM","3JUDR1D0D6D4CARU3YX9Y3DK5DJ2QK","","null","<img src=""img/food4.png"" style=""width:200px;border:14px solid red;"">","null","","","","","","","","","",""
"","image-keyboard-response","275","155824","0.0-362.0","3B4YI393VAIBG9LZGJ6M941DT8GSSU","A14LOABUGAITBM","3JUDR1D0D6D4CARU3YX9Y3DK5DJ2QK","","193","img/food6.png","74","194.29999999701977","1","1","","1","1","1,0.5,0,1,0.5,0,0.5,0,1","1,0.5,0,1,0.5,0,0.5,0,1","1",""
"","html-keyboard-response","276","156127","0.0-363.0","3B4YI393VAIBG9LZGJ6M941DT8GSSU","A14LOABUGAITBM","3JUDR1D0D6D4CARU3YX9Y3DK5DJ2QK","","null","<img src=""img/food6.png"" style=""width:200px; border:14px solid green;"">","null","","","","","","","","","",""
"","image-keyboard-response","277","156664","0.0-364.0","3B4YI393VAIBG9LZGJ6M941DT8GSSU","A14LOABUGAITBM","3JUDR1D0D6D4CARU3YX9Y3DK5DJ2QK","","536","img/food5.png","74","537.1000000014901","1","1","","2","1","1,0.5,0,1,0.5,0,0.5,0,1","1,0.5,0,1,0.5,0,0.5,0,1","1",""
"","html-keyboard-response","278","156966","0.0-365.0","3B4YI393VAIBG9LZGJ6M941DT8GSSU","A14LOABUGAITBM","3JUDR1D0D6D4CARU3YX9Y3DK5DJ2QK","","null","<img src=""img/food5.png"" style=""width:200px; border:14px solid green;"">","null","","","","","","","","","",""
"","image-keyboard-response","279","157167","0.0-366.0","3B4YI393VAIBG9LZGJ6M941DT8GSSU","A14LOABUGAITBM","3JUDR1D0D6D4CARU3YX9Y3DK5DJ2QK","","199.19999999552965","img/food6.png","74","200.59999999403954","1","1","","1","1","1,0.5,0,1,0.5,0,0.5,0,1","1,0.5,0,1,0.5,0,0.5,0,1","1",""
"","html-keyboard-response","280","157469","0.0-367.0","3B4YI393VAIBG9LZGJ6M941DT8GSSU","A14LOABUGAITBM","3JUDR1D0D6D4CARU3YX9Y3DK5DJ2QK","","null","<img src=""img/food6.png"" style=""width:200px; border:14px solid green;"">","null","","","","","","","","","",""
"","image-keyboard-response","281","157720","0.0-368.0","3B4YI393VAIBG9LZGJ6M941DT8GSSU","A14LOABUGAITBM","3JUDR1D0D6D4CARU3YX9Y3DK5DJ2QK","","248.79999999701977","img/food5.png","74","250.60000000149012","1","1","","2","1","1,0.5,0,1,0.5,0,0.5,0,1","1,0.5,0,1,0.5,0,0.5,0,1","1",""
"","html-keyboard-response","282","158023","0.0-369.0","3B4YI393VAIBG9LZGJ6M941DT8GSSU","A14LOABUGAITBM","3JUDR1D0D6D4CARU3YX9Y3DK5DJ2QK","","null","<img src=""img/food5.png"" style=""width:200px; border:14px solid green;"">","null","","","","","","","","","",""
"","image-keyboard-response","283","158224","0.0-370.0","3B4YI393VAIBG9LZGJ6M941DT8GSSU","A14LOABUGAITBM","3JUDR1D0D6D4CARU3YX9Y3DK5DJ2QK","","199.39999999850988","img/food4.png","74","200.69999999552965","1","0","","3","1","1,0.5,0,1,0.5,0,0.5,0,1","1,0.5,0,1,0.5,0,0.5,0,1","1",""
"","html-keyboard-response","284","158527","0.0-371.0","3B4YI393VAIBG9LZGJ6M941DT8GSSU","A14LOABUGAITBM","3JUDR1D0D6D4CARU3YX9Y3DK5DJ2QK","","null","<img src=""img/food4.png"" style=""width:200px;border:14px solid red;"">","null","","","","","","","","","",""
"","image-keyboard-response","285","158600","0.0-372.0","3B4YI393VAIBG9LZGJ6M941DT8GSSU","A14LOABUGAITBM","3JUDR1D0D6D4CARU3YX9Y3DK5DJ2QK","","71.60000000149012","img/food5.png","74","73.20000000298023","1","1","","2","1","1,0.5,0,1,0.5,0,0.5,0,1","1,0.5,0,1,0.5,0,0.5,0,1","1",""
"","html-keyboard-response","286","158904","0.0-373.0","3B4YI393VAIBG9LZGJ6M941DT8GSSU","A14LOABUGAITBM","3JUDR1D0D6D4CARU3YX9Y3DK5DJ2QK","","null","<img src=""img/food5.png"" style=""width:200px; border:14px solid green;"">","null","","","","","","","","","",""
"","image-keyboard-response","287","159039","0.0-374.0","3B4YI393VAIBG9LZGJ6M941DT8GSSU","A14LOABUGAITBM","3JUDR1D0D6D4CARU3YX9Y3DK5DJ2QK","","133.89999999850988","img/food4.png","74","135.10000000149012","1","1","","3","1","1,0.5,0,1,0.5,0,0.5,0,1","1,0.5,0,1,0.5,0,0.5,0,1","1",""
"","html-keyboard-response","288","159343","0.0-375.0","3B4YI393VAIBG9LZGJ6M941DT8GSSU","A14LOABUGAITBM","3JUDR1D0D6D4CARU3YX9Y3DK5DJ2QK","","null","<img src=""img/food4.png"" style=""width:200px; border:14px solid green;"">","null","","","","","","","","","",""
"","image-keyboard-response","289","159424","0.0-376.0","3B4YI393VAIBG9LZGJ6M941DT8GSSU","A14LOABUGAITBM","3JUDR1D0D6D4CARU3YX9Y3DK5DJ2QK","","78.90000000596046","img/food6.png","74","80.70000000298023","1","1","","1","1","1,0.5,0,1,0.5,0,0.5,0,1","1,0.5,0,1,0.5,0,0.5,0,1","1",""
"","html-keyboard-response","290","159727","0.0-377.0","3B4YI393VAIBG9LZGJ6M941DT8GSSU","A14LOABUGAITBM","3JUDR1D0D6D4CARU3YX9Y3DK5DJ2QK","","null","<img src=""img/food6.png"" style=""width:200px; border:14px solid green;"">","null","","","","","","","","","",""
"","image-keyboard-response","291","159856","0.0-378.0","3B4YI393VAIBG9LZGJ6M941DT8GSSU","A14LOABUGAITBM","3JUDR1D0D6D4CARU3YX9Y3DK5DJ2QK","","127","img/food4.png","74","128.30000000447035","1","1","","3","1","1,0.5,0,1,0.5,0,0.5,0,1","1,0.5,0,1,0.5,0,0.5,0,1","1",""
"","html-keyboard-response","292","160159","0.0-379.0","3B4YI393VAIBG9LZGJ6M941DT8GSSU","A14LOABUGAITBM","3JUDR1D0D6D4CARU3YX9Y3DK5DJ2QK","","null","<img src=""img/food4.png"" style=""width:200px; border:14px solid green;"">","null","","","","","","","","","",""
"","image-keyboard-response","293","160264","0.0-380.0","3B4YI393VAIBG9LZGJ6M941DT8GSSU","A14LOABUGAITBM","3JUDR1D0D6D4CARU3YX9Y3DK5DJ2QK","","103.80000000447035","img/food5.png","74","105","1","1","","2","1","1,0.5,0,1,0.5,0,0.5,0,1","1,0.5,0,1,0.5,0,0.5,0,1","1",""
"","html-keyboard-response","294","160567","0.0-381.0","3B4YI393VAIBG9LZGJ6M941DT8GSSU","A14LOABUGAITBM","3JUDR1D0D6D4CARU3YX9Y3DK5DJ2QK","","null","<img src=""img/food5.png"" style=""width:200px; border:14px solid green;"">","null","","","","","","","","","",""
"","image-keyboard-response","295","160712","0.0-382.0","3B4YI393VAIBG9LZGJ6M941DT8GSSU","A14LOABUGAITBM","3JUDR1D0D6D4CARU3YX9Y3DK5DJ2QK","","143.29999999701977","img/food5.png","74","144.59999999403954","1","1","","2","1","1,0.5,0,1,0.5,0,0.5,0,1","1,0.5,0,1,0.5,0,0.5,0,1","1",""
"","html-keyboard-response","296","161014","0.0-383.0","3B4YI393VAIBG9LZGJ6M941DT8GSSU","A14LOABUGAITBM","3JUDR1D0D6D4CARU3YX9Y3DK5DJ2QK","","null","<img src=""img/food5.png"" style=""width:200px; border:14px solid green;"">","null","","","","","","","","","",""
"","image-keyboard-response","297","161297","0.0-384.0","3B4YI393VAIBG9LZGJ6M941DT8GSSU","A14LOABUGAITBM","3JUDR1D0D6D4CARU3YX9Y3DK5DJ2QK","","281.40000000596046","img/food6.png","74","282.90000000596046","1","1","","1","1","1,0.5,0,1,0.5,0,0.5,0,1","1,0.5,0,1,0.5,0,0.5,0,1","1",""
"","html-keyboard-response","298","161601","0.0-385.0","3B4YI393VAIBG9LZGJ6M941DT8GSSU","A14LOABUGAITBM","3JUDR1D0D6D4CARU3YX9Y3DK5DJ2QK","","null","<img src=""img/food6.png"" style=""width:200px; border:14px solid green;"">","null","","","","","","","","","",""
"","image-keyboard-response","299","161835","0.0-386.0","3B4YI393VAIBG9LZGJ6M941DT8GSSU","A14LOABUGAITBM","3JUDR1D0D6D4CARU3YX9Y3DK5DJ2QK","","232.79999999701977","img/food5.png","75","234.29999999701977","2","1","","2","1","1,0.5,0,1,0.5,0,0.5,0,1","1,0.5,0,1,0.5,0,0.5,0,1","1",""
"","html-keyboard-response","300","162138","0.0-387.0","3B4YI393VAIBG9LZGJ6M941DT8GSSU","A14LOABUGAITBM","3JUDR1D0D6D4CARU3YX9Y3DK5DJ2QK","","null","<img src=""img/food5.png"" style=""width:200px; border:14px solid green;"">","null","","","","","","","","","",""
"","image-keyboard-response","301","162288","0.0-388.0","3B4YI393VAIBG9LZGJ6M941DT8GSSU","A14LOABUGAITBM","3JUDR1D0D6D4CARU3YX9Y3DK5DJ2QK","","148.10000000149012","img/food6.png","75","149.59999999403954","2","1","","1","1","1,0.5,0,1,0.5,0,0.5,0,1","1,0.5,0,1,0.5,0,0.5,0,1","1",""
"","html-keyboard-response","302","162590","0.0-389.0","3B4YI393VAIBG9LZGJ6M941DT8GSSU","A14LOABUGAITBM","3JUDR1D0D6D4CARU3YX9Y3DK5DJ2QK","","null","<img src=""img/food6.png"" style=""width:200px; border:14px solid green;"">","null","","","","","","","","","",""
"","image-keyboard-response","303","162792","0.0-390.0","3B4YI393VAIBG9LZGJ6M941DT8GSSU","A14LOABUGAITBM","3JUDR1D0D6D4CARU3YX9Y3DK5DJ2QK","","200","img/food5.png","74","201.60000000149012","1","1","","2","1","1,0.5,0,1,0.5,0,0.5,0,1","1,0.5,0,1,0.5,0,0.5,0,1","1",""
"","html-keyboard-response","304","163094","0.0-391.0","3B4YI393VAIBG9LZGJ6M941DT8GSSU","A14LOABUGAITBM","3JUDR1D0D6D4CARU3YX9Y3DK5DJ2QK","","null","<img src=""img/food5.png"" style=""width:200px; border:14px solid green;"">","null","","","","","","","","","",""
"","image-keyboard-response","305","163353","0.0-392.0","3B4YI393VAIBG9LZGJ6M941DT8GSSU","A14LOABUGAITBM","3JUDR1D0D6D4CARU3YX9Y3DK5DJ2QK","","256.69999999552965","img/food5.png","75","258.1000000014901","2","0","","2","1","1,0.5,0,1,0.5,0,0.5,0,1","1,0.5,0,1,0.5,0,0.5,0,1","1",""
"","html-keyboard-response","306","163656","0.0-393.0","3B4YI393VAIBG9LZGJ6M941DT8GSSU","A14LOABUGAITBM","3JUDR1D0D6D4CARU3YX9Y3DK5DJ2QK","","null","<img src=""img/food5.png"" style=""width:200px;border:14px solid red;"">","null","","","","","","","","","",""
"","image-keyboard-response","307","163840","0.0-394.0","3B4YI393VAIBG9LZGJ6M941DT8GSSU","A14LOABUGAITBM","3JUDR1D0D6D4CARU3YX9Y3DK5DJ2QK","","181.10000000149012","img/food4.png","74","183","1","1","","3","1","1,0.5,0,1,0.5,0,0.5,0,1","1,0.5,0,1,0.5,0,0.5,0,1","1",""
"","html-keyboard-response","308","164142","0.0-395.0","3B4YI393VAIBG9LZGJ6M941DT8GSSU","A14LOABUGAITBM","3JUDR1D0D6D4CARU3YX9Y3DK5DJ2QK","","null","<img src=""img/food4.png"" style=""width:200px; border:14px solid green;"">","null","","","","","","","","","",""
"","image-keyboard-response","309","164272","0.0-396.0","3B4YI393VAIBG9LZGJ6M941DT8GSSU","A14LOABUGAITBM","3JUDR1D0D6D4CARU3YX9Y3DK5DJ2QK","","127.5","img/food6.png","74","129.39999999850988","1","1","","1","1","1,0.5,0,1,0.5,0,0.5,0,1","1,0.5,0,1,0.5,0,0.5,0,1","1",""
"","html-keyboard-response","310","164574","0.0-397.0","3B4YI393VAIBG9LZGJ6M941DT8GSSU","A14LOABUGAITBM","3JUDR1D0D6D4CARU3YX9Y3DK5DJ2QK","","null","<img src=""img/food6.png"" style=""width:200px; border:14px solid green;"">","null","","","","","","","","","",""
"","image-keyboard-response","311","164655","0.0-398.0","3B4YI393VAIBG9LZGJ6M941DT8GSSU","A14LOABUGAITBM","3JUDR1D0D6D4CARU3YX9Y3DK5DJ2QK","","80.10000000149012","img/food5.png","74","81.19999999552965","1","1","","2","1","1,0.5,0,1,0.5,0,0.5,0,1","1,0.5,0,1,0.5,0,0.5,0,1","1",""
"","html-keyboard-response","312","164958","0.0-399.0","3B4YI393VAIBG9LZGJ6M941DT8GSSU","A14LOABUGAITBM","3JUDR1D0D6D4CARU3YX9Y3DK5DJ2QK","","null","<img src=""img/food5.png"" style=""width:200px; border:14px solid green;"">","null","","","","","","","","","",""
"","image-keyboard-response","313","165023","0.0-400.0","3B4YI393VAIBG9LZGJ6M941DT8GSSU","A14LOABUGAITBM","3JUDR1D0D6D4CARU3YX9Y3DK5DJ2QK","","63.79999999701977","img/food4.png","74","65","1","0","","3","1","1,0.5,0,1,0.5,0,0.5,0,1","1,0.5,0,1,0.5,0,0.5,0,1","1",""
"","html-keyboard-response","314","165325","0.0-401.0","3B4YI393VAIBG9LZGJ6M941DT8GSSU","A14LOABUGAITBM","3JUDR1D0D6D4CARU3YX9Y3DK5DJ2QK","","null","<img src=""img/food4.png"" style=""width:200px;border:14px solid red;"">","null","","","","","","","","","",""
"","image-keyboard-response","315","165631","0.0-402.0","3B4YI393VAIBG9LZGJ6M941DT8GSSU","A14LOABUGAITBM","3JUDR1D0D6D4CARU3YX9Y3DK5DJ2QK","","304.69999999552965","img/food5.png","74","306.09999999403954","1","1","","2","1","1,0.5,0,1,0.5,0,0.5,0,1","1,0.5,0,1,0.5,0,0.5,0,1","1",""
"","html-keyboard-response","316","165934","0.0-403.0","3B4YI393VAIBG9LZGJ6M941DT8GSSU","A14LOABUGAITBM","3JUDR1D0D6D4CARU3YX9Y3DK5DJ2QK","","null","<img src=""img/food5.png"" style=""width:200px; border:14px solid green;"">","null","","","","","","","","","",""
"","image-keyboard-response","317","165967","0.0-404.0","3B4YI393VAIBG9LZGJ6M941DT8GSSU","A14LOABUGAITBM","3JUDR1D0D6D4CARU3YX9Y3DK5DJ2QK","","31.700000002980232","img/food6.png","75","32.899999998509884","2","1","","1","1","1,0.5,0,1,0.5,0,0.5,0,1","1,0.5,0,1,0.5,0,0.5,0,1","1",""
"","html-keyboard-response","318","166269","0.0-405.0","3B4YI393VAIBG9LZGJ6M941DT8GSSU","A14LOABUGAITBM","3JUDR1D0D6D4CARU3YX9Y3DK5DJ2QK","","null","<img src=""img/food6.png"" style=""width:200px; border:14px solid green;"">","null","","","","","","","","","",""
"","image-keyboard-response","319","166544","0.0-406.0","3B4YI393VAIBG9LZGJ6M941DT8GSSU","A14LOABUGAITBM","3JUDR1D0D6D4CARU3YX9Y3DK5DJ2QK","","273.19999999552965","img/food4.png","76","274.59999999403954","3","1","","3","1","1,0.5,0,1,0.5,0,0.5,0,1","1,0.5,0,1,0.5,0,0.5,0,1","1",""
"","html-keyboard-response","320","166846","0.0-407.0","3B4YI393VAIBG9LZGJ6M941DT8GSSU","A14LOABUGAITBM","3JUDR1D0D6D4CARU3YX9Y3DK5DJ2QK","","null","<img src=""img/food4.png"" style=""width:200px; border:14px solid green;"">","null","","","","","","","","","",""
"","image-keyboard-response","321","166960","0.0-408.0","3B4YI393VAIBG9LZGJ6M941DT8GSSU","A14LOABUGAITBM","3JUDR1D0D6D4CARU3YX9Y3DK5DJ2QK","","112.5","img/food5.png","76","114","3","0","","2","1","1,0.5,0,1,0.5,0,0.5,0,1","1,0.5,0,1,0.5,0,0.5,0,1","1",""
"","html-keyboard-response","322","167262","0.0-409.0","3B4YI393VAIBG9LZGJ6M941DT8GSSU","A14LOABUGAITBM","3JUDR1D0D6D4CARU3YX9Y3DK5DJ2QK","","null","<img src=""img/food5.png"" style=""width:200px;border:14px solid red;"">","null","","","","","","","","","",""
"","image-keyboard-response","323","167465","0.0-410.0","3B4YI393VAIBG9LZGJ6M941DT8GSSU","A14LOABUGAITBM","3JUDR1D0D6D4CARU3YX9Y3DK5DJ2QK","","201.70000000298023","img/food5.png","76","203.5","3","0","","2","1","1,0.5,0,1,0.5,0,0.5,0,1","1,0.5,0,1,0.5,0,0.5,0,1","1",""
"","html-keyboard-response","324","167768","0.0-411.0","3B4YI393VAIBG9LZGJ6M941DT8GSSU","A14LOABUGAITBM","3JUDR1D0D6D4CARU3YX9Y3DK5DJ2QK","","null","<img src=""img/food5.png"" style=""width:200px;border:14px solid red;"">","null","","","","","","","","","",""
"","image-keyboard-response","325","167984","0.0-412.0","3B4YI393VAIBG9LZGJ6M941DT8GSSU","A14LOABUGAITBM","3JUDR1D0D6D4CARU3YX9Y3DK5DJ2QK","","214.39999999850988","img/food6.png","74","215.60000000149012","1","1","","1","1","1,0.5,0,1,0.5,0,0.5,0,1","1,0.5,0,1,0.5,0,0.5,0,1","1",""
"","html-keyboard-response","326","168286","0.0-413.0","3B4YI393VAIBG9LZGJ6M941DT8GSSU","A14LOABUGAITBM","3JUDR1D0D6D4CARU3YX9Y3DK5DJ2QK","","null","<img src=""img/food6.png"" style=""width:200px; border:14px solid green;"">","null","","","","","","","","","",""
"","image-keyboard-response","327","168312","0.0-414.0","3B4YI393VAIBG9LZGJ6M941DT8GSSU","A14LOABUGAITBM","3JUDR1D0D6D4CARU3YX9Y3DK5DJ2QK","","24.200000002980232","img/food6.png","74","25.299999997019768","1","1","","1","1","1,0.5,0,1,0.5,0,0.5,0,1","1,0.5,0,1,0.5,0,0.5,0,1","1",""
"","html-keyboard-response","328","168614","0.0-415.0","3B4YI393VAIBG9LZGJ6M941DT8GSSU","A14LOABUGAITBM","3JUDR1D0D6D4CARU3YX9Y3DK5DJ2QK","","null","<img src=""img/food6.png"" style=""width:200px; border:14px solid green;"">","null","","","","","","","","","",""
"","image-keyboard-response","329","168664","0.0-416.0","3B4YI393VAIBG9LZGJ6M941DT8GSSU","A14LOABUGAITBM","3JUDR1D0D6D4CARU3YX9Y3DK5DJ2QK","","48.100000001490116","img/food6.png","74","49.19999999552965","1","1","","1","1","1,0.5,0,1,0.5,0,0.5,0,1","1,0.5,0,1,0.5,0,0.5,0,1","1",""
"","html-keyboard-response","330","168967","0.0-417.0","3B4YI393VAIBG9LZGJ6M941DT8GSSU","A14LOABUGAITBM","3JUDR1D0D6D4CARU3YX9Y3DK5DJ2QK","","null","<img src=""img/food6.png"" style=""width:200px; border:14px solid green;"">","null","","","","","","","","","",""
"","image-keyboard-response","331","169152","0.0-418.0","3B4YI393VAIBG9LZGJ6M941DT8GSSU","A14LOABUGAITBM","3JUDR1D0D6D4CARU3YX9Y3DK5DJ2QK","","182.10000000149012","img/food5.png","74","184.39999999850988","1","1","","2","1","1,0.5,0,1,0.5,0,0.5,0,1","1,0.5,0,1,0.5,0,0.5,0,1","1",""
"","html-keyboard-response","332","169454","0.0-419.0","3B4YI393VAIBG9LZGJ6M941DT8GSSU","A14LOABUGAITBM","3JUDR1D0D6D4CARU3YX9Y3DK5DJ2QK","","null","<img src=""img/food5.png"" style=""width:200px; border:14px solid green;"">","null","","","","","","","","","",""
"","image-keyboard-response","333","169823","0.0-420.0","3B4YI393VAIBG9LZGJ6M941DT8GSSU","A14LOABUGAITBM","3JUDR1D0D6D4CARU3YX9Y3DK5DJ2QK","","366.79999999701977","img/food5.png","74","368.69999999552965","1","1","","2","1","1,0.5,0,1,0.5,0,0.5,0,1","1,0.5,0,1,0.5,0,0.5,0,1","1",""
"","html-keyboard-response","334","170126","0.0-421.0","3B4YI393VAIBG9LZGJ6M941DT8GSSU","A14LOABUGAITBM","3JUDR1D0D6D4CARU3YX9Y3DK5DJ2QK","","null","<img src=""img/food5.png"" style=""width:200px; border:14px solid green;"">","null","","","","","","","","","",""
"","image-keyboard-response","335","170159","0.0-422.0","3B4YI393VAIBG9LZGJ6M941DT8GSSU","A14LOABUGAITBM","3JUDR1D0D6D4CARU3YX9Y3DK5DJ2QK","","31.5","img/food4.png","75","32.899999998509884","2","0","","3","1","1,0.5,0,1,0.5,0,0.5,0,1","1,0.5,0,1,0.5,0,0.5,0,1","1",""
"","html-keyboard-response","336","170462","0.0-423.0","3B4YI393VAIBG9LZGJ6M941DT8GSSU","A14LOABUGAITBM","3JUDR1D0D6D4CARU3YX9Y3DK5DJ2QK","","null","<img src=""img/food4.png"" style=""width:200px;border:14px solid red;"">","null","","","","","","","","","",""
"","image-keyboard-response","337","170664","0.0-424.0","3B4YI393VAIBG9LZGJ6M941DT8GSSU","A14LOABUGAITBM","3JUDR1D0D6D4CARU3YX9Y3DK5DJ2QK","","199.89999999850988","img/food5.png","74","201.39999999850988","1","1","","2","1","1,0.5,0,1,0.5,0,0.5,0,1","1,0.5,0,1,0.5,0,0.5,0,1","1",""
"","html-keyboard-response","338","170966","0.0-425.0","3B4YI393VAIBG9LZGJ6M941DT8GSSU","A14LOABUGAITBM","3JUDR1D0D6D4CARU3YX9Y3DK5DJ2QK","","null","<img src=""img/food5.png"" style=""width:200px; border:14px solid green;"">","null","","","","","","","","","",""
"","image-keyboard-response","339","171087","0.0-426.0","3B4YI393VAIBG9LZGJ6M941DT8GSSU","A14LOABUGAITBM","3JUDR1D0D6D4CARU3YX9Y3DK5DJ2QK","","118.60000000149012","img/food6.png","74","120.5","1","1","","1","1","1,0.5,0,1,0.5,0,0.5,0,1","1,0.5,0,1,0.5,0,0.5,0,1","1",""
"","html-keyboard-response","340","171390","0.0-427.0","3B4YI393VAIBG9LZGJ6M941DT8GSSU","A14LOABUGAITBM","3JUDR1D0D6D4CARU3YX9Y3DK5DJ2QK","","null","<img src=""img/food6.png"" style=""width:200px; border:14px solid green;"">","null","","","","","","","","","",""
"","image-keyboard-response","341","171487","0.0-428.0","3B4YI393VAIBG9LZGJ6M941DT8GSSU","A14LOABUGAITBM","3JUDR1D0D6D4CARU3YX9Y3DK5DJ2QK","","95.79999999701977","img/food4.png","74","97","1","1","","3","1","1,0.5,0,1,0.5,0,0.5,0,1","1,0.5,0,1,0.5,0,0.5,0,1","1",""
"","html-keyboard-response","342","171789","0.0-429.0","3B4YI393VAIBG9LZGJ6M941DT8GSSU","A14LOABUGAITBM","3JUDR1D0D6D4CARU3YX9Y3DK5DJ2QK","","null","<img src=""img/food4.png"" style=""width:200px; border:14px solid green;"">","null","","","","","","","","","",""
"","image-keyboard-response","343","171903","0.0-430.0","3B4YI393VAIBG9LZGJ6M941DT8GSSU","A14LOABUGAITBM","3JUDR1D0D6D4CARU3YX9Y3DK5DJ2QK","","112.69999999552965","img/food6.png","74","114.19999999552965","1","1","","1","1","1,0.5,0,1,0.5,0,0.5,0,1","1,0.5,0,1,0.5,0,0.5,0,1","1",""
"","html-keyboard-response","344","172206","0.0-431.0","3B4YI393VAIBG9LZGJ6M941DT8GSSU","A14LOABUGAITBM","3JUDR1D0D6D4CARU3YX9Y3DK5DJ2QK","","null","<img src=""img/food6.png"" style=""width:200px; border:14px solid green;"">","null","","","","","","","","","",""
"","image-keyboard-response","345","172335","0.0-432.0","3B4YI393VAIBG9LZGJ6M941DT8GSSU","A14LOABUGAITBM","3JUDR1D0D6D4CARU3YX9Y3DK5DJ2QK","","127.70000000298023","img/food4.png","74","129.20000000298023","1","0","","3","1","1,0.5,0,1,0.5,0,0.5,0,1","1,0.5,0,1,0.5,0,0.5,0,1","1",""
"","html-keyboard-response","346","172639","0.0-433.0","3B4YI393VAIBG9LZGJ6M941DT8GSSU","A14LOABUGAITBM","3JUDR1D0D6D4CARU3YX9Y3DK5DJ2QK","","null","<img src=""img/food4.png"" style=""width:200px;border:14px solid red;"">","null","","","","","","","","","",""
"","image-keyboard-response","347","172791","0.0-434.0","3B4YI393VAIBG9LZGJ6M941DT8GSSU","A14LOABUGAITBM","3JUDR1D0D6D4CARU3YX9Y3DK5DJ2QK","","150.79999999701977","img/food4.png","74","152.29999999701977","1","0","","3","1","1,0.5,0,1,0.5,0,0.5,0,1","1,0.5,0,1,0.5,0,0.5,0,1","1",""
"","html-keyboard-response","348","173094","0.0-435.0","3B4YI393VAIBG9LZGJ6M941DT8GSSU","A14LOABUGAITBM","3JUDR1D0D6D4CARU3YX9Y3DK5DJ2QK","","null","<img src=""img/food4.png"" style=""width:200px;border:14px solid red;"">","null","","","","","","","","","",""
"","image-keyboard-response","349","173167","0.0-436.0","3B4YI393VAIBG9LZGJ6M941DT8GSSU","A14LOABUGAITBM","3JUDR1D0D6D4CARU3YX9Y3DK5DJ2QK","","71","img/food5.png","74","72.70000000298023","1","1","","2","1","1,0.5,0,1,0.5,0,0.5,0,1","1,0.5,0,1,0.5,0,0.5,0,1","1",""
"","html-keyboard-response","350","173469","0.0-437.0","3B4YI393VAIBG9LZGJ6M941DT8GSSU","A14LOABUGAITBM","3JUDR1D0D6D4CARU3YX9Y3DK5DJ2QK","","null","<img src=""img/food5.png"" style=""width:200px; border:14px solid green;"">","null","","","","","","","","","",""
"","image-keyboard-response","351","173975","0.0-438.0","3B4YI393VAIBG9LZGJ6M941DT8GSSU","A14LOABUGAITBM","3JUDR1D0D6D4CARU3YX9Y3DK5DJ2QK","","503.8999999985099","img/food4.png","74","505.70000000298023","1","0","","3","1","1,0.5,0,1,0.5,0,0.5,0,1","1,0.5,0,1,0.5,0,0.5,0,1","1",""
"","html-keyboard-response","352","174278","0.0-439.0","3B4YI393VAIBG9LZGJ6M941DT8GSSU","A14LOABUGAITBM","3JUDR1D0D6D4CARU3YX9Y3DK5DJ2QK","","null","<img src=""img/food4.png"" style=""width:200px;border:14px solid red;"">","null","","","","","","","","","",""
"","image-keyboard-response","353","174504","0.0-440.0","3B4YI393VAIBG9LZGJ6M941DT8GSSU","A14LOABUGAITBM","3JUDR1D0D6D4CARU3YX9Y3DK5DJ2QK","","224.10000000149012","img/food6.png","74","225.29999999701977","1","1","","1","1","1,0.5,0,1,0.5,0,0.5,0,1","1,0.5,0,1,0.5,0,0.5,0,1","1",""
"","html-keyboard-response","354","174806","0.0-441.0","3B4YI393VAIBG9LZGJ6M941DT8GSSU","A14LOABUGAITBM","3JUDR1D0D6D4CARU3YX9Y3DK5DJ2QK","","null","<img src=""img/food6.png"" style=""width:200px; border:14px solid green;"">","null","","","","","","","","","",""
"","image-keyboard-response","355","174912","0.0-442.0","3B4YI393VAIBG9LZGJ6M941DT8GSSU","A14LOABUGAITBM","3JUDR1D0D6D4CARU3YX9Y3DK5DJ2QK","","103.5","img/food4.png","74","105","1","1","","3","1","1,0.5,0,1,0.5,0,0.5,0,1","1,0.5,0,1,0.5,0,0.5,0,1","1",""
"","html-keyboard-response","356","175214","0.0-443.0","3B4YI393VAIBG9LZGJ6M941DT8GSSU","A14LOABUGAITBM","3JUDR1D0D6D4CARU3YX9Y3DK5DJ2QK","","null","<img src=""img/food4.png"" style=""width:200px; border:14px solid green;"">","null","","","","","","","","","",""
"","image-keyboard-response","357","175336","0.0-444.0","3B4YI393VAIBG9LZGJ6M941DT8GSSU","A14LOABUGAITBM","3JUDR1D0D6D4CARU3YX9Y3DK5DJ2QK","","120.5","img/food5.png","74","122.39999999850988","1","1","","2","1","1,0.5,0,1,0.5,0,0.5,0,1","1,0.5,0,1,0.5,0,0.5,0,1","1",""
"","html-keyboard-response","358","175640","0.0-445.0","3B4YI393VAIBG9LZGJ6M941DT8GSSU","A14LOABUGAITBM","3JUDR1D0D6D4CARU3YX9Y3DK5DJ2QK","","null","<img src=""img/food5.png"" style=""width:200px; border:14px solid green;"">","null","","","","","","","","","",""
"","image-keyboard-response","359","175752","0.0-446.0","3B4YI393VAIBG9LZGJ6M941DT8GSSU","A14LOABUGAITBM","3JUDR1D0D6D4CARU3YX9Y3DK5DJ2QK","","108.79999999701977","img/food4.png","74","111","1","1","","3","1","1,0.5,0,1,0.5,0,0.5,0,1","1,0.5,0,1,0.5,0,0.5,0,1","1",""
"","html-keyboard-response","360","176054","0.0-447.0","3B4YI393VAIBG9LZGJ6M941DT8GSSU","A14LOABUGAITBM","3JUDR1D0D6D4CARU3YX9Y3DK5DJ2QK","","null","<img src=""img/food4.png"" style=""width:200px; border:14px solid green;"">","null","","","","","","","","","",""
"","image-keyboard-response","361","176432","0.0-448.0","3B4YI393VAIBG9LZGJ6M941DT8GSSU","A14LOABUGAITBM","3JUDR1D0D6D4CARU3YX9Y3DK5DJ2QK","","376.29999999701977","img/food6.png","74","378","1","1","","1","1","1,0.5,0,1,0.5,0,0.5,0,1","1,0.5,0,1,0.5,0,0.5,0,1","1",""
"","html-keyboard-response","362","176735","0.0-449.0","3B4YI393VAIBG9LZGJ6M941DT8GSSU","A14LOABUGAITBM","3JUDR1D0D6D4CARU3YX9Y3DK5DJ2QK","","null","<img src=""img/food6.png"" style=""width:200px; border:14px solid green;"">","null","","","","","","","","","",""
"","image-keyboard-response","363","176889","0.0-450.0","3B4YI393VAIBG9LZGJ6M941DT8GSSU","A14LOABUGAITBM","3JUDR1D0D6D4CARU3YX9Y3DK5DJ2QK","","151.79999999701977","img/food5.png","75","154.20000000298023","2","0","","2","1","1,0.5,0,1,0.5,0,0.5,0,1","1,0.5,0,1,0.5,0,0.5,0,1","1",""
"","html-keyboard-response","364","177192","0.0-451.0","3B4YI393VAIBG9LZGJ6M941DT8GSSU","A14LOABUGAITBM","3JUDR1D0D6D4CARU3YX9Y3DK5DJ2QK","","null","<img src=""img/food5.png"" style=""width:200px;border:14px solid red;"">","null","","","","","","","","","",""
"","image-keyboard-response","365","177336","0.0-452.0","3B4YI393VAIBG9LZGJ6M941DT8GSSU","A14LOABUGAITBM","3JUDR1D0D6D4CARU3YX9Y3DK5DJ2QK","","142.60000000149012","img/food5.png","74","144.60000000149012","1","1","","2","1","1,0.5,0,1,0.5,0,0.5,0,1","1,0.5,0,1,0.5,0,0.5,0,1","1",""
"","html-keyboard-response","366","177641","0.0-453.0","3B4YI393VAIBG9LZGJ6M941DT8GSSU","A14LOABUGAITBM","3JUDR1D0D6D4CARU3YX9Y3DK5DJ2QK","","null","<img src=""img/food5.png"" style=""width:200px; border:14px solid green;"">","null","","","","","","","","","",""
"","html-keyboard-response","367","182153","0.0-454.0","3B4YI393VAIBG9LZGJ6M941DT8GSSU","A14LOABUGAITBM","3JUDR1D0D6D4CARU3YX9Y3DK5DJ2QK","","","","","","","","","","","","","",""
"","instructions","368","184147","0.0-455.0","3B4YI393VAIBG9LZGJ6M941DT8GSSU","A14LOABUGAITBM","3JUDR1D0D6D4CARU3YX9Y3DK5DJ2QK","[{""page_index"":0,""viewing_time"":1990.3999999985099}]","1991.1000000014901","","","","","","","","","","","",""
"","survey-text","369","191508","0.0-456.0","3B4YI393VAIBG9LZGJ6M941DT8GSSU","A14LOABUGAITBM","3JUDR1D0D6D4CARU3YX9Y3DK5DJ2QK","","7352","","","","","","","","","","","","{""Q0"":""A14LOABUGAITBM""}"
