"success","trial_type","trial_index","time_elapsed","internal_node_id","assignmentID","mturkID","hitID","view_history","rt","stimulus","key_press","reactionTime","a","r","warning","s","cond","reward_cond","reward_cond_actual","reward_matrix_idx","responses"
"true","fullscreen","0","2810","0.0-0.0","3ERMJ6L4DZEMZGO28JCP246BEFU7M3","A15GLJU2DG7DLO","335VBRURDJMQFRMOFGHOE9WKSHX9E1","","","","","","","","","","","","","",""
"","instructions","1","92607","0.0-1.0","3ERMJ6L4DZEMZGO28JCP246BEFU7M3","A15GLJU2DG7DLO","335VBRURDJMQFRMOFGHOE9WKSHX9E1","[{""page_index"":0,""viewing_time"":6118.200000017881},{""page_index"":1,""viewing_time"":4586.5999999940395},{""page_index"":2,""viewing_time"":17614},{""page_index"":3,""viewing_time"":21848.5},{""page_index"":4,""viewing_time"":11191.199999988079},{""page_index"":5,""viewing_time"":22033.90000000596},{""page_index"":6,""viewing_time"":6404.199999988079}]","89797","","","","","","","","","","","",""
"","instructions","2","118858","0.0-2.0","3ERMJ6L4DZEMZGO28JCP246BEFU7M3","A15GLJU2DG7DLO","335VBRURDJMQFRMOFGHOE9WKSHX9E1","[{""page_index"":0,""viewing_time"":15743.199999988079},{""page_index"":1,""viewing_time"":10507.5}]","26250.90000000596","","","","","","","","","","","",""
"","image-keyboard-response","3","119371","0.0-3.0","3ERMJ6L4DZEMZGO28JCP246BEFU7M3","A15GLJU2DG7DLO","335VBRURDJMQFRMOFGHOE9WKSHX9E1","","512.6000000238419","img/food4.png","74","513.4000000059605","1","1","false","3","2","1,0.5,0,1,0.5,0,0.5,0,1","0,1,0.5,0,1,0.5,1,0.5,0","3",""
"","html-keyboard-response","4","119675","0.0-4.0","3ERMJ6L4DZEMZGO28JCP246BEFU7M3","A15GLJU2DG7DLO","335VBRURDJMQFRMOFGHOE9WKSHX9E1","","null","<img src=""img/food4.png"" style=""width:200px; border:14px solid green;"">","null","","","","","","","","","",""
"","image-keyboard-response","5","120267","0.0-6.0","3ERMJ6L4DZEMZGO28JCP246BEFU7M3","A15GLJU2DG7DLO","335VBRURDJMQFRMOFGHOE9WKSHX9E1","","590.9000000059605","img/food5.png","74","591.5","1","0","false","1","2","1,0.5,0,1,0.5,0,0.5,0,1","0,1,0.5,0,1,0.5,1,0.5,0","3",""
"","html-keyboard-response","6","120573","0.0-7.0","3ERMJ6L4DZEMZGO28JCP246BEFU7M3","A15GLJU2DG7DLO","335VBRURDJMQFRMOFGHOE9WKSHX9E1","","null","<img src=""img/food5.png"" style=""width:200px;border:14px solid red;"">","null","","","","","","","","","",""
"","image-keyboard-response","7","120987","0.0-9.0","3ERMJ6L4DZEMZGO28JCP246BEFU7M3","A15GLJU2DG7DLO","335VBRURDJMQFRMOFGHOE9WKSHX9E1","","413.2000000178814","img/food4.png","75","413.69999998807907","2","0","false","3","2","1,0.5,0,1,0.5,0,0.5,0,1","0,1,0.5,0,1,0.5,1,0.5,0","3",""
"","html-keyboard-response","8","121292","0.0-10.0","3ERMJ6L4DZEMZGO28JCP246BEFU7M3","A15GLJU2DG7DLO","335VBRURDJMQFRMOFGHOE9WKSHX9E1","","null","<img src=""img/food4.png"" style=""width:200px;border:14px solid red;"">","null","","","","","","","","","",""
"","image-keyboard-response","9","121419","0.0-12.0","3ERMJ6L4DZEMZGO28JCP246BEFU7M3","A15GLJU2DG7DLO","335VBRURDJMQFRMOFGHOE9WKSHX9E1","","125.90000000596046","img/food4.png","74","126.40000000596046","1","1","false","3","2","1,0.5,0,1,0.5,0,0.5,0,1","0,1,0.5,0,1,0.5,1,0.5,0","3",""
"","html-keyboard-response","10","121724","0.0-13.0","3ERMJ6L4DZEMZGO28JCP246BEFU7M3","A15GLJU2DG7DLO","335VBRURDJMQFRMOFGHOE9WKSHX9E1","","null","<img src=""img/food4.png"" style=""width:200px; border:14px solid green;"">","null","","","","","","","","","",""
"","image-keyboard-response","11","122379","0.0-15.0","3ERMJ6L4DZEMZGO28JCP246BEFU7M3","A15GLJU2DG7DLO","335VBRURDJMQFRMOFGHOE9WKSHX9E1","","654","img/food4.png","74","654.5999999940395","1","1","false","3","2","1,0.5,0,1,0.5,0,0.5,0,1","0,1,0.5,0,1,0.5,1,0.5,0","3",""
"","html-keyboard-response","12","122683","0.0-16.0","3ERMJ6L4DZEMZGO28JCP246BEFU7M3","A15GLJU2DG7DLO","335VBRURDJMQFRMOFGHOE9WKSHX9E1","","null","<img src=""img/food4.png"" style=""width:200px; border:14px solid green;"">","null","","","","","","","","","",""
"","image-keyboard-response","13","123243","0.0-18.0","3ERMJ6L4DZEMZGO28JCP246BEFU7M3","A15GLJU2DG7DLO","335VBRURDJMQFRMOFGHOE9WKSHX9E1","","559.3000000119209","img/food5.png","76","559.7999999821186","3","1","false","1","2","1,0.5,0,1,0.5,0,0.5,0,1","0,1,0.5,0,1,0.5,1,0.5,0","3",""
"","html-keyboard-response","14","123547","0.0-19.0","3ERMJ6L4DZEMZGO28JCP246BEFU7M3","A15GLJU2DG7DLO","335VBRURDJMQFRMOFGHOE9WKSHX9E1","","null","<img src=""img/food5.png"" style=""width:200px; border:14px solid green;"">","null","","","","","","","","","",""
"","image-keyboard-response","15","124035","0.0-21.0","3ERMJ6L4DZEMZGO28JCP246BEFU7M3","A15GLJU2DG7DLO","335VBRURDJMQFRMOFGHOE9WKSHX9E1","","486.80000001192093","img/food5.png","76","487.2999999821186","3","1","false","1","2","1,0.5,0,1,0.5,0,0.5,0,1","0,1,0.5,0,1,0.5,1,0.5,0","3",""
"","html-keyboard-response","16","124340","0.0-22.0","3ERMJ6L4DZEMZGO28JCP246BEFU7M3","A15GLJU2DG7DLO","335VBRURDJMQFRMOFGHOE9WKSHX9E1","","null","<img src=""img/food5.png"" style=""width:200px; border:14px solid green;"">","null","","","","","","","","","",""
"","image-keyboard-response","17","124811","0.0-24.0","3ERMJ6L4DZEMZGO28JCP246BEFU7M3","A15GLJU2DG7DLO","335VBRURDJMQFRMOFGHOE9WKSHX9E1","","470.5","img/food5.png","76","471.09999999403954","3","1","false","1","2","1,0.5,0,1,0.5,0,0.5,0,1","0,1,0.5,0,1,0.5,1,0.5,0","3",""
"","html-keyboard-response","18","125115","0.0-25.0","3ERMJ6L4DZEMZGO28JCP246BEFU7M3","A15GLJU2DG7DLO","335VBRURDJMQFRMOFGHOE9WKSHX9E1","","null","<img src=""img/food5.png"" style=""width:200px; border:14px solid green;"">","null","","","","","","","","","",""
"","image-keyboard-response","19","125643","0.0-27.0","3ERMJ6L4DZEMZGO28JCP246BEFU7M3","A15GLJU2DG7DLO","335VBRURDJMQFRMOFGHOE9WKSHX9E1","","526.7000000178814","img/food4.png","74","527","1","1","false","3","2","1,0.5,0,1,0.5,0,0.5,0,1","0,1,0.5,0,1,0.5,1,0.5,0","3",""
"","html-keyboard-response","20","125944","0.0-28.0","3ERMJ6L4DZEMZGO28JCP246BEFU7M3","A15GLJU2DG7DLO","335VBRURDJMQFRMOFGHOE9WKSHX9E1","","null","<img src=""img/food4.png"" style=""width:200px; border:14px solid green;"">","null","","","","","","","","","",""
"","image-keyboard-response","21","126243","0.0-30.0","3ERMJ6L4DZEMZGO28JCP246BEFU7M3","A15GLJU2DG7DLO","335VBRURDJMQFRMOFGHOE9WKSHX9E1","","298.5","img/food5.png","74","299","1","0","false","1","2","1,0.5,0,1,0.5,0,0.5,0,1","0,1,0.5,0,1,0.5,1,0.5,0","3",""
"","html-keyboard-response","22","126549","0.0-31.0","3ERMJ6L4DZEMZGO28JCP246BEFU7M3","A15GLJU2DG7DLO","335VBRURDJMQFRMOFGHOE9WKSHX9E1","","null","<img src=""img/food5.png"" style=""width:200px;border:14px solid red;"">","null","","","","","","","","","",""
"","image-keyboard-response","23","126891","0.0-33.0","3ERMJ6L4DZEMZGO28JCP246BEFU7M3","A15GLJU2DG7DLO","335VBRURDJMQFRMOFGHOE9WKSHX9E1","","340.90000000596046","img/food1.png","76","341.5","3","1","false","2","2","1,0.5,0,1,0.5,0,0.5,0,1","0,1,0.5,0,1,0.5,1,0.5,0","3",""
"","html-keyboard-response","24","127195","0.0-34.0","3ERMJ6L4DZEMZGO28JCP246BEFU7M3","A15GLJU2DG7DLO","335VBRURDJMQFRMOFGHOE9WKSHX9E1","","null","<img src=""img/food1.png"" style=""width:200px; border:14px solid green;"">","null","","","","","","","","","",""
"","image-keyboard-response","25","127555","0.0-36.0","3ERMJ6L4DZEMZGO28JCP246BEFU7M3","A15GLJU2DG7DLO","335VBRURDJMQFRMOFGHOE9WKSHX9E1","","358.90000000596046","img/food1.png","75","359.30000001192093","2","1","false","2","2","1,0.5,0,1,0.5,0,0.5,0,1","0,1,0.5,0,1,0.5,1,0.5,0","3",""
"","html-keyboard-response","26","127858","0.0-37.0","3ERMJ6L4DZEMZGO28JCP246BEFU7M3","A15GLJU2DG7DLO","335VBRURDJMQFRMOFGHOE9WKSHX9E1","","null","<img src=""img/food1.png"" style=""width:200px; border:14px solid green;"">","null","","","","","","","","","",""
"","image-keyboard-response","27","128243","0.0-39.0","3ERMJ6L4DZEMZGO28JCP246BEFU7M3","A15GLJU2DG7DLO","335VBRURDJMQFRMOFGHOE9WKSHX9E1","","384.30000001192093","img/food1.png","75","384.59999999403954","2","1","false","2","2","1,0.5,0,1,0.5,0,0.5,0,1","0,1,0.5,0,1,0.5,1,0.5,0","3",""
"","html-keyboard-response","28","128547","0.0-40.0","3ERMJ6L4DZEMZGO28JCP246BEFU7M3","A15GLJU2DG7DLO","335VBRURDJMQFRMOFGHOE9WKSHX9E1","","null","<img src=""img/food1.png"" style=""width:200px; border:14px solid green;"">","null","","","","","","","","","",""
"","image-keyboard-response","29","129219","0.0-42.0","3ERMJ6L4DZEMZGO28JCP246BEFU7M3","A15GLJU2DG7DLO","335VBRURDJMQFRMOFGHOE9WKSHX9E1","","671.6999999880791","img/food4.png","74","672.1000000238419","1","1","false","3","2","1,0.5,0,1,0.5,0,0.5,0,1","0,1,0.5,0,1,0.5,1,0.5,0","3",""
"","html-keyboard-response","30","129524","0.0-43.0","3ERMJ6L4DZEMZGO28JCP246BEFU7M3","A15GLJU2DG7DLO","335VBRURDJMQFRMOFGHOE9WKSHX9E1","","null","<img src=""img/food4.png"" style=""width:200px; border:14px solid green;"">","null","","","","","","","","","",""
"","image-keyboard-response","31","129843","0.0-45.0","3ERMJ6L4DZEMZGO28JCP246BEFU7M3","A15GLJU2DG7DLO","335VBRURDJMQFRMOFGHOE9WKSHX9E1","","318.09999999403954","img/food5.png","74","318.40000000596046","1","0","false","1","2","1,0.5,0,1,0.5,0,0.5,0,1","0,1,0.5,0,1,0.5,1,0.5,0","3",""
"","html-keyboard-response","32","130148","0.0-46.0","3ERMJ6L4DZEMZGO28JCP246BEFU7M3","A15GLJU2DG7DLO","335VBRURDJMQFRMOFGHOE9WKSHX9E1","","null","<img src=""img/food5.png"" style=""width:200px;border:14px solid red;"">","null","","","","","","","","","",""
"","image-keyboard-response","33","131075","0.0-48.0","3ERMJ6L4DZEMZGO28JCP246BEFU7M3","A15GLJU2DG7DLO","335VBRURDJMQFRMOFGHOE9WKSHX9E1","","926.1000000238419","img/food1.png","75","926.7999999821186","2","1","false","2","2","1,0.5,0,1,0.5,0,0.5,0,1","0,1,0.5,0,1,0.5,1,0.5,0","3",""
"","html-keyboard-response","34","131376","0.0-49.0","3ERMJ6L4DZEMZGO28JCP246BEFU7M3","A15GLJU2DG7DLO","335VBRURDJMQFRMOFGHOE9WKSHX9E1","","null","<img src=""img/food1.png"" style=""width:200px; border:14px solid green;"">","null","","","","","","","","","",""
"","image-keyboard-response","35","131675","0.0-51.0","3ERMJ6L4DZEMZGO28JCP246BEFU7M3","A15GLJU2DG7DLO","335VBRURDJMQFRMOFGHOE9WKSHX9E1","","298.2000000178814","img/food1.png","75","298.69999998807907","2","1","false","2","2","1,0.5,0,1,0.5,0,0.5,0,1","0,1,0.5,0,1,0.5,1,0.5,0","3",""
"","html-keyboard-response","36","131977","0.0-52.0","3ERMJ6L4DZEMZGO28JCP246BEFU7M3","A15GLJU2DG7DLO","335VBRURDJMQFRMOFGHOE9WKSHX9E1","","null","<img src=""img/food1.png"" style=""width:200px; border:14px solid green;"">","null","","","","","","","","","",""
"","image-keyboard-response","37","132507","0.0-54.0","3ERMJ6L4DZEMZGO28JCP246BEFU7M3","A15GLJU2DG7DLO","335VBRURDJMQFRMOFGHOE9WKSHX9E1","","529.3999999761581","img/food4.png","76","529.8000000119209","3","0","false","3","2","1,0.5,0,1,0.5,0,0.5,0,1","0,1,0.5,0,1,0.5,1,0.5,0","3",""
"","html-keyboard-response","38","132813","0.0-55.0","3ERMJ6L4DZEMZGO28JCP246BEFU7M3","A15GLJU2DG7DLO","335VBRURDJMQFRMOFGHOE9WKSHX9E1","","null","<img src=""img/food4.png"" style=""width:200px;border:14px solid red;"">","null","","","","","","","","","",""
"","image-keyboard-response","39","133011","0.0-57.0","3ERMJ6L4DZEMZGO28JCP246BEFU7M3","A15GLJU2DG7DLO","335VBRURDJMQFRMOFGHOE9WKSHX9E1","","197.40000000596046","img/food4.png","74","197.90000000596046","1","1","false","3","2","1,0.5,0,1,0.5,0,0.5,0,1","0,1,0.5,0,1,0.5,1,0.5,0","3",""
"","html-keyboard-response","40","133314","0.0-58.0","3ERMJ6L4DZEMZGO28JCP246BEFU7M3","A15GLJU2DG7DLO","335VBRURDJMQFRMOFGHOE9WKSHX9E1","","null","<img src=""img/food4.png"" style=""width:200px; border:14px solid green;"">","null","","","","","","","","","",""
"","image-keyboard-response","41","134003","0.0-60.0","3ERMJ6L4DZEMZGO28JCP246BEFU7M3","A15GLJU2DG7DLO","335VBRURDJMQFRMOFGHOE9WKSHX9E1","","688.1999999880791","img/food1.png","76","688.8000000119209","3","1","false","2","2","1,0.5,0,1,0.5,0,0.5,0,1","0,1,0.5,0,1,0.5,1,0.5,0","3",""
"","html-keyboard-response","42","134307","0.0-61.0","3ERMJ6L4DZEMZGO28JCP246BEFU7M3","A15GLJU2DG7DLO","335VBRURDJMQFRMOFGHOE9WKSHX9E1","","null","<img src=""img/food1.png"" style=""width:200px; border:14px solid green;"">","null","","","","","","","","","",""
"","image-keyboard-response","43","134515","0.0-63.0","3ERMJ6L4DZEMZGO28JCP246BEFU7M3","A15GLJU2DG7DLO","335VBRURDJMQFRMOFGHOE9WKSHX9E1","","206.80000001192093","img/food4.png","75","207.19999998807907","2","1","false","3","2","1,0.5,0,1,0.5,0,0.5,0,1","0,1,0.5,0,1,0.5,1,0.5,0","3",""
"","html-keyboard-response","44","134818","0.0-64.0","3ERMJ6L4DZEMZGO28JCP246BEFU7M3","A15GLJU2DG7DLO","335VBRURDJMQFRMOFGHOE9WKSHX9E1","","null","<img src=""img/food4.png"" style=""width:200px; border:14px solid green;"">","null","","","","","","","","","",""
"","image-keyboard-response","45","135419","0.0-66.0","3ERMJ6L4DZEMZGO28JCP246BEFU7M3","A15GLJU2DG7DLO","335VBRURDJMQFRMOFGHOE9WKSHX9E1","","599.6999999880791","img/food1.png","74","600","1","0","false","2","2","1,0.5,0,1,0.5,0,0.5,0,1","0,1,0.5,0,1,0.5,1,0.5,0","3",""
"","html-keyboard-response","46","135724","0.0-67.0","3ERMJ6L4DZEMZGO28JCP246BEFU7M3","A15GLJU2DG7DLO","335VBRURDJMQFRMOFGHOE9WKSHX9E1","","null","<img src=""img/food1.png"" style=""width:200px;border:14px solid red;"">","null","","","","","","","","","",""
"","image-keyboard-response","47","136346","0.0-69.0","3ERMJ6L4DZEMZGO28JCP246BEFU7M3","A15GLJU2DG7DLO","335VBRURDJMQFRMOFGHOE9WKSHX9E1","","622.2999999821186","img/food1.png","75","622.7000000178814","2","1","false","2","2","1,0.5,0,1,0.5,0,0.5,0,1","0,1,0.5,0,1,0.5,1,0.5,0","3",""
"","html-keyboard-response","48","136653","0.0-70.0","3ERMJ6L4DZEMZGO28JCP246BEFU7M3","A15GLJU2DG7DLO","335VBRURDJMQFRMOFGHOE9WKSHX9E1","","null","<img src=""img/food1.png"" style=""width:200px; border:14px solid green;"">","null","","","","","","","","","",""
"","image-keyboard-response","49","136947","0.0-72.0","3ERMJ6L4DZEMZGO28JCP246BEFU7M3","A15GLJU2DG7DLO","335VBRURDJMQFRMOFGHOE9WKSHX9E1","","293.40000000596046","img/food5.png","75","293.7999999821186","2","1","false","1","2","1,0.5,0,1,0.5,0,0.5,0,1","0,1,0.5,0,1,0.5,1,0.5,0","3",""
"","html-keyboard-response","50","137250","0.0-73.0","3ERMJ6L4DZEMZGO28JCP246BEFU7M3","A15GLJU2DG7DLO","335VBRURDJMQFRMOFGHOE9WKSHX9E1","","null","<img src=""img/food5.png"" style=""width:200px; border:14px solid green;"">","null","","","","","","","","","",""
"","image-keyboard-response","51","137827","0.0-75.0","3ERMJ6L4DZEMZGO28JCP246BEFU7M3","A15GLJU2DG7DLO","335VBRURDJMQFRMOFGHOE9WKSHX9E1","","576.2000000178814","img/food1.png","75","576.8000000119209","2","1","false","2","2","1,0.5,0,1,0.5,0,0.5,0,1","0,1,0.5,0,1,0.5,1,0.5,0","3",""
"","html-keyboard-response","52","138133","0.0-76.0","3ERMJ6L4DZEMZGO28JCP246BEFU7M3","A15GLJU2DG7DLO","335VBRURDJMQFRMOFGHOE9WKSHX9E1","","null","<img src=""img/food1.png"" style=""width:200px; border:14px solid green;"">","null","","","","","","","","","",""
"","image-keyboard-response","53","138795","0.0-78.0","3ERMJ6L4DZEMZGO28JCP246BEFU7M3","A15GLJU2DG7DLO","335VBRURDJMQFRMOFGHOE9WKSHX9E1","","661.1000000238419","img/food5.png","75","661.5999999940395","2","1","false","1","2","1,0.5,0,1,0.5,0,0.5,0,1","0,1,0.5,0,1,0.5,1,0.5,0","3",""
"","html-keyboard-response","54","139098","0.0-79.0","3ERMJ6L4DZEMZGO28JCP246BEFU7M3","A15GLJU2DG7DLO","335VBRURDJMQFRMOFGHOE9WKSHX9E1","","null","<img src=""img/food5.png"" style=""width:200px; border:14px solid green;"">","null","","","","","","","","","",""
"","image-keyboard-response","55","139771","0.0-81.0","3ERMJ6L4DZEMZGO28JCP246BEFU7M3","A15GLJU2DG7DLO","335VBRURDJMQFRMOFGHOE9WKSHX9E1","","671.5","img/food4.png","74","672.0999999940395","1","1","false","3","2","1,0.5,0,1,0.5,0,0.5,0,1","0,1,0.5,0,1,0.5,1,0.5,0","3",""
"","html-keyboard-response","56","140074","0.0-82.0","3ERMJ6L4DZEMZGO28JCP246BEFU7M3","A15GLJU2DG7DLO","335VBRURDJMQFRMOFGHOE9WKSHX9E1","","null","<img src=""img/food4.png"" style=""width:200px; border:14px solid green;"">","null","","","","","","","","","",""
"","image-keyboard-response","57","140723","0.0-84.0","3ERMJ6L4DZEMZGO28JCP246BEFU7M3","A15GLJU2DG7DLO","335VBRURDJMQFRMOFGHOE9WKSHX9E1","","647.5","img/food5.png","75","648","2","1","false","1","2","1,0.5,0,1,0.5,0,0.5,0,1","0,1,0.5,0,1,0.5,1,0.5,0","3",""
"","html-keyboard-response","58","141026","0.0-85.0","3ERMJ6L4DZEMZGO28JCP246BEFU7M3","A15GLJU2DG7DLO","335VBRURDJMQFRMOFGHOE9WKSHX9E1","","null","<img src=""img/food5.png"" style=""width:200px; border:14px solid green;"">","null","","","","","","","","","",""
"","image-keyboard-response","59","141355","0.0-87.0","3ERMJ6L4DZEMZGO28JCP246BEFU7M3","A15GLJU2DG7DLO","335VBRURDJMQFRMOFGHOE9WKSHX9E1","","327.7000000178814","img/food4.png","75","328.19999998807907","2","1","false","3","2","1,0.5,0,1,0.5,0,0.5,0,1","0,1,0.5,0,1,0.5,1,0.5,0","3",""
"","html-keyboard-response","60","141659","0.0-88.0","3ERMJ6L4DZEMZGO28JCP246BEFU7M3","A15GLJU2DG7DLO","335VBRURDJMQFRMOFGHOE9WKSHX9E1","","null","<img src=""img/food4.png"" style=""width:200px; border:14px solid green;"">","null","","","","","","","","","",""
"","image-keyboard-response","61","142131","0.0-90.0","3ERMJ6L4DZEMZGO28JCP246BEFU7M3","A15GLJU2DG7DLO","335VBRURDJMQFRMOFGHOE9WKSHX9E1","","470.7000000178814","img/food1.png","74","471.09999999403954","1","0","false","2","2","1,0.5,0,1,0.5,0,0.5,0,1","0,1,0.5,0,1,0.5,1,0.5,0","3",""
"","html-keyboard-response","62","142434","0.0-91.0","3ERMJ6L4DZEMZGO28JCP246BEFU7M3","A15GLJU2DG7DLO","335VBRURDJMQFRMOFGHOE9WKSHX9E1","","null","<img src=""img/food1.png"" style=""width:200px;border:14px solid red;"">","null","","","","","","","","","",""
"","image-keyboard-response","63","142963","0.0-93.0","3ERMJ6L4DZEMZGO28JCP246BEFU7M3","A15GLJU2DG7DLO","335VBRURDJMQFRMOFGHOE9WKSHX9E1","","527.7000000178814","img/food5.png","76","528.0999999940395","3","1","false","1","2","1,0.5,0,1,0.5,0,0.5,0,1","0,1,0.5,0,1,0.5,1,0.5,0","3",""
"","html-keyboard-response","64","143267","0.0-94.0","3ERMJ6L4DZEMZGO28JCP246BEFU7M3","A15GLJU2DG7DLO","335VBRURDJMQFRMOFGHOE9WKSHX9E1","","null","<img src=""img/food5.png"" style=""width:200px; border:14px solid green;"">","null","","","","","","","","","",""
"","image-keyboard-response","65","144123","0.0-96.0","3ERMJ6L4DZEMZGO28JCP246BEFU7M3","A15GLJU2DG7DLO","335VBRURDJMQFRMOFGHOE9WKSHX9E1","","855.2000000178814","img/food1.png","76","855.6999999880791","3","0","false","2","2","1,0.5,0,1,0.5,0,0.5,0,1","0,1,0.5,0,1,0.5,1,0.5,0","3",""
"","html-keyboard-response","66","144424","0.0-97.0","3ERMJ6L4DZEMZGO28JCP246BEFU7M3","A15GLJU2DG7DLO","335VBRURDJMQFRMOFGHOE9WKSHX9E1","","null","<img src=""img/food1.png"" style=""width:200px;border:14px solid red;"">","null","","","","","","","","","",""
"","image-keyboard-response","67","145083","0.0-99.0","3ERMJ6L4DZEMZGO28JCP246BEFU7M3","A15GLJU2DG7DLO","335VBRURDJMQFRMOFGHOE9WKSHX9E1","","657.6999999880791","img/food1.png","75","658.0999999940395","2","1","false","2","2","1,0.5,0,1,0.5,0,0.5,0,1","0,1,0.5,0,1,0.5,1,0.5,0","3",""
"","html-keyboard-response","68","145389","0.0-100.0","3ERMJ6L4DZEMZGO28JCP246BEFU7M3","A15GLJU2DG7DLO","335VBRURDJMQFRMOFGHOE9WKSHX9E1","","null","<img src=""img/food1.png"" style=""width:200px; border:14px solid green;"">","null","","","","","","","","","",""
"","image-keyboard-response","69","145698","0.0-102.0","3ERMJ6L4DZEMZGO28JCP246BEFU7M3","A15GLJU2DG7DLO","335VBRURDJMQFRMOFGHOE9WKSHX9E1","","309.2000000178814","img/food5.png","75","309.7999999821186","2","1","false","1","2","1,0.5,0,1,0.5,0,0.5,0,1","0,1,0.5,0,1,0.5,1,0.5,0","3",""
"","html-keyboard-response","70","146000","0.0-103.0","3ERMJ6L4DZEMZGO28JCP246BEFU7M3","A15GLJU2DG7DLO","335VBRURDJMQFRMOFGHOE9WKSHX9E1","","null","<img src=""img/food5.png"" style=""width:200px; border:14px solid green;"">","null","","","","","","","","","",""
"","image-keyboard-response","71","146379","0.0-105.0","3ERMJ6L4DZEMZGO28JCP246BEFU7M3","A15GLJU2DG7DLO","335VBRURDJMQFRMOFGHOE9WKSHX9E1","","377.59999999403954","img/food1.png","74","378.19999998807907","1","0","false","2","2","1,0.5,0,1,0.5,0,0.5,0,1","0,1,0.5,0,1,0.5,1,0.5,0","3",""
"","html-keyboard-response","72","146682","0.0-106.0","3ERMJ6L4DZEMZGO28JCP246BEFU7M3","A15GLJU2DG7DLO","335VBRURDJMQFRMOFGHOE9WKSHX9E1","","null","<img src=""img/food1.png"" style=""width:200px;border:14px solid red;"">","null","","","","","","","","","",""
"","image-keyboard-response","73","147131","0.0-108.0","3ERMJ6L4DZEMZGO28JCP246BEFU7M3","A15GLJU2DG7DLO","335VBRURDJMQFRMOFGHOE9WKSHX9E1","","447.5","img/food1.png","74","448.10000002384186","1","0","false","2","2","1,0.5,0,1,0.5,0,0.5,0,1","0,1,0.5,0,1,0.5,1,0.5,0","3",""
"","html-keyboard-response","74","147432","0.0-109.0","3ERMJ6L4DZEMZGO28JCP246BEFU7M3","A15GLJU2DG7DLO","335VBRURDJMQFRMOFGHOE9WKSHX9E1","","null","<img src=""img/food1.png"" style=""width:200px;border:14px solid red;"">","null","","","","","","","","","",""
"","image-keyboard-response","75","148195","0.0-111.0","3ERMJ6L4DZEMZGO28JCP246BEFU7M3","A15GLJU2DG7DLO","335VBRURDJMQFRMOFGHOE9WKSHX9E1","","761.7000000178814","img/food4.png","74","762.1999999880791","1","1","false","3","2","1,0.5,0,1,0.5,0,0.5,0,1","0,1,0.5,0,1,0.5,1,0.5,0","3",""
"","html-keyboard-response","76","148500","0.0-112.0","3ERMJ6L4DZEMZGO28JCP246BEFU7M3","A15GLJU2DG7DLO","335VBRURDJMQFRMOFGHOE9WKSHX9E1","","null","<img src=""img/food4.png"" style=""width:200px; border:14px solid green;"">","null","","","","","","","","","",""
"","image-keyboard-response","77","148875","0.0-114.0","3ERMJ6L4DZEMZGO28JCP246BEFU7M3","A15GLJU2DG7DLO","335VBRURDJMQFRMOFGHOE9WKSHX9E1","","373.69999998807907","img/food4.png","74","374.2000000178814","1","1","false","3","2","1,0.5,0,1,0.5,0,0.5,0,1","0,1,0.5,0,1,0.5,1,0.5,0","3",""
"","html-keyboard-response","78","149176","0.0-115.0","3ERMJ6L4DZEMZGO28JCP246BEFU7M3","A15GLJU2DG7DLO","335VBRURDJMQFRMOFGHOE9WKSHX9E1","","null","<img src=""img/food4.png"" style=""width:200px; border:14px solid green;"">","null","","","","","","","","","",""
"","image-keyboard-response","79","149554","0.0-117.0","3ERMJ6L4DZEMZGO28JCP246BEFU7M3","A15GLJU2DG7DLO","335VBRURDJMQFRMOFGHOE9WKSHX9E1","","377.40000000596046","img/food4.png","74","378","1","1","false","3","2","1,0.5,0,1,0.5,0,0.5,0,1","0,1,0.5,0,1,0.5,1,0.5,0","3",""
"","html-keyboard-response","80","149857","0.0-118.0","3ERMJ6L4DZEMZGO28JCP246BEFU7M3","A15GLJU2DG7DLO","335VBRURDJMQFRMOFGHOE9WKSHX9E1","","null","<img src=""img/food4.png"" style=""width:200px; border:14px solid green;"">","null","","","","","","","","","",""
"","image-keyboard-response","81","150490","0.0-120.0","3ERMJ6L4DZEMZGO28JCP246BEFU7M3","A15GLJU2DG7DLO","335VBRURDJMQFRMOFGHOE9WKSHX9E1","","632.4000000059605","img/food5.png","75","632.9000000059605","2","1","false","1","2","1,0.5,0,1,0.5,0,0.5,0,1","0,1,0.5,0,1,0.5,1,0.5,0","3",""
"","html-keyboard-response","82","150795","0.0-121.0","3ERMJ6L4DZEMZGO28JCP246BEFU7M3","A15GLJU2DG7DLO","335VBRURDJMQFRMOFGHOE9WKSHX9E1","","null","<img src=""img/food5.png"" style=""width:200px; border:14px solid green;"">","null","","","","","","","","","",""
"","image-keyboard-response","83","151163","0.0-123.0","3ERMJ6L4DZEMZGO28JCP246BEFU7M3","A15GLJU2DG7DLO","335VBRURDJMQFRMOFGHOE9WKSHX9E1","","367.30000001192093","img/food5.png","75","367.59999999403954","2","1","false","1","2","1,0.5,0,1,0.5,0,0.5,0,1","0,1,0.5,0,1,0.5,1,0.5,0","3",""
"","html-keyboard-response","84","151467","0.0-124.0","3ERMJ6L4DZEMZGO28JCP246BEFU7M3","A15GLJU2DG7DLO","335VBRURDJMQFRMOFGHOE9WKSHX9E1","","null","<img src=""img/food5.png"" style=""width:200px; border:14px solid green;"">","null","","","","","","","","","",""
"","image-keyboard-response","85","152195","0.0-126.0","3ERMJ6L4DZEMZGO28JCP246BEFU7M3","A15GLJU2DG7DLO","335VBRURDJMQFRMOFGHOE9WKSHX9E1","","727","img/food4.png","74","727.3999999761581","1","1","false","3","2","1,0.5,0,1,0.5,0,0.5,0,1","0,1,0.5,0,1,0.5,1,0.5,0","3",""
"","html-keyboard-response","86","152500","0.0-127.0","3ERMJ6L4DZEMZGO28JCP246BEFU7M3","A15GLJU2DG7DLO","335VBRURDJMQFRMOFGHOE9WKSHX9E1","","null","<img src=""img/food4.png"" style=""width:200px; border:14px solid green;"">","null","","","","","","","","","",""
"","image-keyboard-response","87","152850","0.0-129.0","3ERMJ6L4DZEMZGO28JCP246BEFU7M3","A15GLJU2DG7DLO","335VBRURDJMQFRMOFGHOE9WKSHX9E1","","349.90000000596046","img/food4.png","74","350.2999999821186","1","1","false","3","2","1,0.5,0,1,0.5,0,0.5,0,1","0,1,0.5,0,1,0.5,1,0.5,0","3",""
"","html-keyboard-response","88","153156","0.0-130.0","3ERMJ6L4DZEMZGO28JCP246BEFU7M3","A15GLJU2DG7DLO","335VBRURDJMQFRMOFGHOE9WKSHX9E1","","null","<img src=""img/food4.png"" style=""width:200px; border:14px solid green;"">","null","","","","","","","","","",""
"","image-keyboard-response","89","153826","0.0-132.0","3ERMJ6L4DZEMZGO28JCP246BEFU7M3","A15GLJU2DG7DLO","335VBRURDJMQFRMOFGHOE9WKSHX9E1","","670","img/food5.png","75","670.5","2","1","false","1","2","1,0.5,0,1,0.5,0,0.5,0,1","0,1,0.5,0,1,0.5,1,0.5,0","3",""
"","html-keyboard-response","90","154131","0.0-133.0","3ERMJ6L4DZEMZGO28JCP246BEFU7M3","A15GLJU2DG7DLO","335VBRURDJMQFRMOFGHOE9WKSHX9E1","","null","<img src=""img/food5.png"" style=""width:200px; border:14px solid green;"">","null","","","","","","","","","",""
"","image-keyboard-response","91","154466","0.0-135.0","3ERMJ6L4DZEMZGO28JCP246BEFU7M3","A15GLJU2DG7DLO","335VBRURDJMQFRMOFGHOE9WKSHX9E1","","334.7000000178814","img/food1.png","75","335.09999999403954","2","1","false","2","2","1,0.5,0,1,0.5,0,0.5,0,1","0,1,0.5,0,1,0.5,1,0.5,0","3",""
"","html-keyboard-response","92","154772","0.0-136.0","3ERMJ6L4DZEMZGO28JCP246BEFU7M3","A15GLJU2DG7DLO","335VBRURDJMQFRMOFGHOE9WKSHX9E1","","null","<img src=""img/food1.png"" style=""width:200px; border:14px solid green;"">","null","","","","","","","","","",""
"","image-keyboard-response","93","155042","0.0-138.0","3ERMJ6L4DZEMZGO28JCP246BEFU7M3","A15GLJU2DG7DLO","335VBRURDJMQFRMOFGHOE9WKSHX9E1","","269.19999998807907","img/food4.png","76","269.59999999403954","3","0","false","3","2","1,0.5,0,1,0.5,0,0.5,0,1","0,1,0.5,0,1,0.5,1,0.5,0","3",""
"","html-keyboard-response","94","155344","0.0-139.0","3ERMJ6L4DZEMZGO28JCP246BEFU7M3","A15GLJU2DG7DLO","335VBRURDJMQFRMOFGHOE9WKSHX9E1","","null","<img src=""img/food4.png"" style=""width:200px;border:14px solid red;"">","null","","","","","","","","","",""
"","image-keyboard-response","95","156323","0.0-141.0","3ERMJ6L4DZEMZGO28JCP246BEFU7M3","A15GLJU2DG7DLO","335VBRURDJMQFRMOFGHOE9WKSHX9E1","","977.5","img/food4.png","75","978.1000000238419","2","1","false","3","2","1,0.5,0,1,0.5,0,0.5,0,1","0,1,0.5,0,1,0.5,1,0.5,0","3",""
"","html-keyboard-response","96","156624","0.0-142.0","3ERMJ6L4DZEMZGO28JCP246BEFU7M3","A15GLJU2DG7DLO","335VBRURDJMQFRMOFGHOE9WKSHX9E1","","null","<img src=""img/food4.png"" style=""width:200px; border:14px solid green;"">","null","","","","","","","","","",""
"","image-keyboard-response","97","157499","0.0-144.0","3ERMJ6L4DZEMZGO28JCP246BEFU7M3","A15GLJU2DG7DLO","335VBRURDJMQFRMOFGHOE9WKSHX9E1","","873.7999999821186","img/food1.png","75","874.3000000119209","2","1","false","2","2","1,0.5,0,1,0.5,0,0.5,0,1","0,1,0.5,0,1,0.5,1,0.5,0","3",""
"","html-keyboard-response","98","157802","0.0-145.0","3ERMJ6L4DZEMZGO28JCP246BEFU7M3","A15GLJU2DG7DLO","335VBRURDJMQFRMOFGHOE9WKSHX9E1","","null","<img src=""img/food1.png"" style=""width:200px; border:14px solid green;"">","null","","","","","","","","","",""
"","image-keyboard-response","99","158114","0.0-147.0","3ERMJ6L4DZEMZGO28JCP246BEFU7M3","A15GLJU2DG7DLO","335VBRURDJMQFRMOFGHOE9WKSHX9E1","","311.60000002384186","img/food4.png","75","312.2999999821186","2","0","false","3","2","1,0.5,0,1,0.5,0,0.5,0,1","0,1,0.5,0,1,0.5,1,0.5,0","3",""
"","html-keyboard-response","100","158418","0.0-148.0","3ERMJ6L4DZEMZGO28JCP246BEFU7M3","A15GLJU2DG7DLO","335VBRURDJMQFRMOFGHOE9WKSHX9E1","","null","<img src=""img/food4.png"" style=""width:200px;border:14px solid red;"">","null","","","","","","","","","",""
"","image-keyboard-response","101","158807","0.0-150.0","3ERMJ6L4DZEMZGO28JCP246BEFU7M3","A15GLJU2DG7DLO","335VBRURDJMQFRMOFGHOE9WKSHX9E1","","388.7000000178814","img/food5.png","74","389.19999998807907","1","0","false","1","2","1,0.5,0,1,0.5,0,0.5,0,1","0,1,0.5,0,1,0.5,1,0.5,0","3",""
"","html-keyboard-response","102","159110","0.0-151.0","3ERMJ6L4DZEMZGO28JCP246BEFU7M3","A15GLJU2DG7DLO","335VBRURDJMQFRMOFGHOE9WKSHX9E1","","null","<img src=""img/food5.png"" style=""width:200px;border:14px solid red;"">","null","","","","","","","","","",""
"","image-keyboard-response","103","159498","0.0-153.0","3ERMJ6L4DZEMZGO28JCP246BEFU7M3","A15GLJU2DG7DLO","335VBRURDJMQFRMOFGHOE9WKSHX9E1","","387.19999998807907","img/food5.png","74","387.90000000596046","1","0","false","1","2","1,0.5,0,1,0.5,0,0.5,0,1","0,1,0.5,0,1,0.5,1,0.5,0","3",""
"","html-keyboard-response","104","159803","0.0-154.0","3ERMJ6L4DZEMZGO28JCP246BEFU7M3","A15GLJU2DG7DLO","335VBRURDJMQFRMOFGHOE9WKSHX9E1","","null","<img src=""img/food5.png"" style=""width:200px;border:14px solid red;"">","null","","","","","","","","","",""
"","image-keyboard-response","105","160114","0.0-156.0","3ERMJ6L4DZEMZGO28JCP246BEFU7M3","A15GLJU2DG7DLO","335VBRURDJMQFRMOFGHOE9WKSHX9E1","","311.10000002384186","img/food1.png","76","311.69999998807907","3","0","false","2","2","1,0.5,0,1,0.5,0,0.5,0,1","0,1,0.5,0,1,0.5,1,0.5,0","3",""
"","html-keyboard-response","106","160420","0.0-157.0","3ERMJ6L4DZEMZGO28JCP246BEFU7M3","A15GLJU2DG7DLO","335VBRURDJMQFRMOFGHOE9WKSHX9E1","","null","<img src=""img/food1.png"" style=""width:200px;border:14px solid red;"">","null","","","","","","","","","",""
"","image-keyboard-response","107","160939","0.0-159.0","3ERMJ6L4DZEMZGO28JCP246BEFU7M3","A15GLJU2DG7DLO","335VBRURDJMQFRMOFGHOE9WKSHX9E1","","517.2999999821186","img/food4.png","75","517.9000000059605","2","0","false","3","2","1,0.5,0,1,0.5,0,0.5,0,1","0,1,0.5,0,1,0.5,1,0.5,0","3",""
"","html-keyboard-response","108","161241","0.0-160.0","3ERMJ6L4DZEMZGO28JCP246BEFU7M3","A15GLJU2DG7DLO","335VBRURDJMQFRMOFGHOE9WKSHX9E1","","null","<img src=""img/food4.png"" style=""width:200px;border:14px solid red;"">","null","","","","","","","","","",""
"","image-keyboard-response","109","161554","0.0-162.0","3ERMJ6L4DZEMZGO28JCP246BEFU7M3","A15GLJU2DG7DLO","335VBRURDJMQFRMOFGHOE9WKSHX9E1","","312.2000000178814","img/food5.png","74","312.7999999821186","1","0","false","1","2","1,0.5,0,1,0.5,0,0.5,0,1","0,1,0.5,0,1,0.5,1,0.5,0","3",""
"","html-keyboard-response","110","161860","0.0-163.0","3ERMJ6L4DZEMZGO28JCP246BEFU7M3","A15GLJU2DG7DLO","335VBRURDJMQFRMOFGHOE9WKSHX9E1","","null","<img src=""img/food5.png"" style=""width:200px;border:14px solid red;"">","null","","","","","","","","","",""
"","image-keyboard-response","111","162274","0.0-165.0","3ERMJ6L4DZEMZGO28JCP246BEFU7M3","A15GLJU2DG7DLO","335VBRURDJMQFRMOFGHOE9WKSHX9E1","","413.69999998807907","img/food1.png","74","414.2000000178814","1","0","false","2","2","1,0.5,0,1,0.5,0,0.5,0,1","0,1,0.5,0,1,0.5,1,0.5,0","3",""
"","html-keyboard-response","112","162580","0.0-166.0","3ERMJ6L4DZEMZGO28JCP246BEFU7M3","A15GLJU2DG7DLO","335VBRURDJMQFRMOFGHOE9WKSHX9E1","","null","<img src=""img/food1.png"" style=""width:200px;border:14px solid red;"">","null","","","","","","","","","",""
"","image-keyboard-response","113","163250","0.0-168.0","3ERMJ6L4DZEMZGO28JCP246BEFU7M3","A15GLJU2DG7DLO","335VBRURDJMQFRMOFGHOE9WKSHX9E1","","669.7000000178814","img/food4.png","74","670.0999999940395","1","1","false","3","2","1,0.5,0,1,0.5,0,0.5,0,1","0,1,0.5,0,1,0.5,1,0.5,0","3",""
"","html-keyboard-response","114","163555","0.0-169.0","3ERMJ6L4DZEMZGO28JCP246BEFU7M3","A15GLJU2DG7DLO","335VBRURDJMQFRMOFGHOE9WKSHX9E1","","null","<img src=""img/food4.png"" style=""width:200px; border:14px solid green;"">","null","","","","","","","","","",""
"","image-keyboard-response","115","164386","0.0-171.0","3ERMJ6L4DZEMZGO28JCP246BEFU7M3","A15GLJU2DG7DLO","335VBRURDJMQFRMOFGHOE9WKSHX9E1","","830.5","img/food5.png","75","830.9000000059605","2","1","false","1","2","1,0.5,0,1,0.5,0,0.5,0,1","0,1,0.5,0,1,0.5,1,0.5,0","3",""
"","html-keyboard-response","116","164688","0.0-172.0","3ERMJ6L4DZEMZGO28JCP246BEFU7M3","A15GLJU2DG7DLO","335VBRURDJMQFRMOFGHOE9WKSHX9E1","","null","<img src=""img/food5.png"" style=""width:200px; border:14px solid green;"">","null","","","","","","","","","",""
"","image-keyboard-response","117","164978","0.0-174.0","3ERMJ6L4DZEMZGO28JCP246BEFU7M3","A15GLJU2DG7DLO","335VBRURDJMQFRMOFGHOE9WKSHX9E1","","289.40000000596046","img/food1.png","75","290.5","2","1","false","2","2","1,0.5,0,1,0.5,0,0.5,0,1","0,1,0.5,0,1,0.5,1,0.5,0","3",""
"","html-keyboard-response","118","165282","0.0-175.0","3ERMJ6L4DZEMZGO28JCP246BEFU7M3","A15GLJU2DG7DLO","335VBRURDJMQFRMOFGHOE9WKSHX9E1","","null","<img src=""img/food1.png"" style=""width:200px; border:14px solid green;"">","null","","","","","","","","","",""
"","image-keyboard-response","119","165674","0.0-177.0","3ERMJ6L4DZEMZGO28JCP246BEFU7M3","A15GLJU2DG7DLO","335VBRURDJMQFRMOFGHOE9WKSHX9E1","","391.30000001192093","img/food1.png","76","391.69999998807907","3","1","false","2","2","1,0.5,0,1,0.5,0,0.5,0,1","0,1,0.5,0,1,0.5,1,0.5,0","3",""
"","html-keyboard-response","120","165979","0.0-178.0","3ERMJ6L4DZEMZGO28JCP246BEFU7M3","A15GLJU2DG7DLO","335VBRURDJMQFRMOFGHOE9WKSHX9E1","","null","<img src=""img/food1.png"" style=""width:200px; border:14px solid green;"">","null","","","","","","","","","",""
"","image-keyboard-response","121","166282","0.0-180.0","3ERMJ6L4DZEMZGO28JCP246BEFU7M3","A15GLJU2DG7DLO","335VBRURDJMQFRMOFGHOE9WKSHX9E1","","302.7000000178814","img/food1.png","76","303.2999999821186","3","1","false","2","2","1,0.5,0,1,0.5,0,0.5,0,1","0,1,0.5,0,1,0.5,1,0.5,0","3",""
"","html-keyboard-response","122","166587","0.0-181.0","3ERMJ6L4DZEMZGO28JCP246BEFU7M3","A15GLJU2DG7DLO","335VBRURDJMQFRMOFGHOE9WKSHX9E1","","null","<img src=""img/food1.png"" style=""width:200px; border:14px solid green;"">","null","","","","","","","","","",""
"","image-keyboard-response","123","167234","0.0-183.0","3ERMJ6L4DZEMZGO28JCP246BEFU7M3","A15GLJU2DG7DLO","335VBRURDJMQFRMOFGHOE9WKSHX9E1","","645.8999999761581","img/food5.png","75","646.5","2","1","false","1","2","1,0.5,0,1,0.5,0,0.5,0,1","0,1,0.5,0,1,0.5,1,0.5,0","3",""
"","html-keyboard-response","124","167539","0.0-184.0","3ERMJ6L4DZEMZGO28JCP246BEFU7M3","A15GLJU2DG7DLO","335VBRURDJMQFRMOFGHOE9WKSHX9E1","","null","<img src=""img/food5.png"" style=""width:200px; border:14px solid green;"">","null","","","","","","","","","",""
"","image-keyboard-response","125","167826","0.0-186.0","3ERMJ6L4DZEMZGO28JCP246BEFU7M3","A15GLJU2DG7DLO","335VBRURDJMQFRMOFGHOE9WKSHX9E1","","286.30000001192093","img/food1.png","75","286.69999998807907","2","1","false","2","2","1,0.5,0,1,0.5,0,0.5,0,1","0,1,0.5,0,1,0.5,1,0.5,0","3",""
"","html-keyboard-response","126","168129","0.0-187.0","3ERMJ6L4DZEMZGO28JCP246BEFU7M3","A15GLJU2DG7DLO","335VBRURDJMQFRMOFGHOE9WKSHX9E1","","null","<img src=""img/food1.png"" style=""width:200px; border:14px solid green;"">","null","","","","","","","","","",""
"","image-keyboard-response","127","168522","0.0-189.0","3ERMJ6L4DZEMZGO28JCP246BEFU7M3","A15GLJU2DG7DLO","335VBRURDJMQFRMOFGHOE9WKSHX9E1","","392.7000000178814","img/food5.png","76","393.19999998807907","3","0","false","1","2","1,0.5,0,1,0.5,0,0.5,0,1","0,1,0.5,0,1,0.5,1,0.5,0","3",""
"","html-keyboard-response","128","168826","0.0-190.0","3ERMJ6L4DZEMZGO28JCP246BEFU7M3","A15GLJU2DG7DLO","335VBRURDJMQFRMOFGHOE9WKSHX9E1","","null","<img src=""img/food5.png"" style=""width:200px;border:14px solid red;"">","null","","","","","","","","","",""
"","image-keyboard-response","129","169618","0.0-192.0","3ERMJ6L4DZEMZGO28JCP246BEFU7M3","A15GLJU2DG7DLO","335VBRURDJMQFRMOFGHOE9WKSHX9E1","","791.4000000059605","img/food4.png","74","792.0999999940395","1","1","false","3","2","1,0.5,0,1,0.5,0,0.5,0,1","0,1,0.5,0,1,0.5,1,0.5,0","3",""
"","html-keyboard-response","130","169923","0.0-193.0","3ERMJ6L4DZEMZGO28JCP246BEFU7M3","A15GLJU2DG7DLO","335VBRURDJMQFRMOFGHOE9WKSHX9E1","","null","<img src=""img/food4.png"" style=""width:200px; border:14px solid green;"">","null","","","","","","","","","",""
"","image-keyboard-response","131","170811","0.0-195.0","3ERMJ6L4DZEMZGO28JCP246BEFU7M3","A15GLJU2DG7DLO","335VBRURDJMQFRMOFGHOE9WKSHX9E1","","887.1999999880791","img/food5.png","75","887.6999999880791","2","1","false","1","2","1,0.5,0,1,0.5,0,0.5,0,1","0,1,0.5,0,1,0.5,1,0.5,0","3",""
"","html-keyboard-response","132","171115","0.0-196.0","3ERMJ6L4DZEMZGO28JCP246BEFU7M3","A15GLJU2DG7DLO","335VBRURDJMQFRMOFGHOE9WKSHX9E1","","null","<img src=""img/food5.png"" style=""width:200px; border:14px solid green;"">","null","","","","","","","","","",""
"","image-keyboard-response","133","171378","0.0-198.0","3ERMJ6L4DZEMZGO28JCP246BEFU7M3","A15GLJU2DG7DLO","335VBRURDJMQFRMOFGHOE9WKSHX9E1","","262.5","img/food5.png","75","263","2","1","false","1","2","1,0.5,0,1,0.5,0,0.5,0,1","0,1,0.5,0,1,0.5,1,0.5,0","3",""
"","html-keyboard-response","134","171682","0.0-199.0","3ERMJ6L4DZEMZGO28JCP246BEFU7M3","A15GLJU2DG7DLO","335VBRURDJMQFRMOFGHOE9WKSHX9E1","","null","<img src=""img/food5.png"" style=""width:200px; border:14px solid green;"">","null","","","","","","","","","",""
"","image-keyboard-response","135","171986","0.0-201.0","3ERMJ6L4DZEMZGO28JCP246BEFU7M3","A15GLJU2DG7DLO","335VBRURDJMQFRMOFGHOE9WKSHX9E1","","304.09999999403954","img/food5.png","75","304.7000000178814","2","1","false","1","2","1,0.5,0,1,0.5,0,0.5,0,1","0,1,0.5,0,1,0.5,1,0.5,0","3",""
"","html-keyboard-response","136","172291","0.0-202.0","3ERMJ6L4DZEMZGO28JCP246BEFU7M3","A15GLJU2DG7DLO","335VBRURDJMQFRMOFGHOE9WKSHX9E1","","null","<img src=""img/food5.png"" style=""width:200px; border:14px solid green;"">","null","","","","","","","","","",""
"","image-keyboard-response","137","172530","0.0-204.0","3ERMJ6L4DZEMZGO28JCP246BEFU7M3","A15GLJU2DG7DLO","335VBRURDJMQFRMOFGHOE9WKSHX9E1","","238.2000000178814","img/food1.png","75","238.59999999403954","2","1","false","2","2","1,0.5,0,1,0.5,0,0.5,0,1","0,1,0.5,0,1,0.5,1,0.5,0","3",""
"","html-keyboard-response","138","172834","0.0-205.0","3ERMJ6L4DZEMZGO28JCP246BEFU7M3","A15GLJU2DG7DLO","335VBRURDJMQFRMOFGHOE9WKSHX9E1","","null","<img src=""img/food1.png"" style=""width:200px; border:14px solid green;"">","null","","","","","","","","","",""
"","image-keyboard-response","139","173690","0.0-207.0","3ERMJ6L4DZEMZGO28JCP246BEFU7M3","A15GLJU2DG7DLO","335VBRURDJMQFRMOFGHOE9WKSHX9E1","","855.1999999880791","img/food5.png","75","855.5999999940395","2","1","false","1","2","1,0.5,0,1,0.5,0,0.5,0,1","0,1,0.5,0,1,0.5,1,0.5,0","3",""
"","html-keyboard-response","140","173992","0.0-208.0","3ERMJ6L4DZEMZGO28JCP246BEFU7M3","A15GLJU2DG7DLO","335VBRURDJMQFRMOFGHOE9WKSHX9E1","","null","<img src=""img/food5.png"" style=""width:200px; border:14px solid green;"">","null","","","","","","","","","",""
"","image-keyboard-response","141","174522","0.0-210.0","3ERMJ6L4DZEMZGO28JCP246BEFU7M3","A15GLJU2DG7DLO","335VBRURDJMQFRMOFGHOE9WKSHX9E1","","529.4000000059605","img/food1.png","76","529.9000000059605","3","0","false","2","2","1,0.5,0,1,0.5,0,0.5,0,1","0,1,0.5,0,1,0.5,1,0.5,0","3",""
"","html-keyboard-response","142","174828","0.0-211.0","3ERMJ6L4DZEMZGO28JCP246BEFU7M3","A15GLJU2DG7DLO","335VBRURDJMQFRMOFGHOE9WKSHX9E1","","null","<img src=""img/food1.png"" style=""width:200px;border:14px solid red;"">","null","","","","","","","","","",""
"","image-keyboard-response","143","175338","0.0-213.0","3ERMJ6L4DZEMZGO28JCP246BEFU7M3","A15GLJU2DG7DLO","335VBRURDJMQFRMOFGHOE9WKSHX9E1","","509.10000002384186","img/food4.png","75","509.5","2","1","false","3","2","1,0.5,0,1,0.5,0,0.5,0,1","0,1,0.5,0,1,0.5,1,0.5,0","3",""
"","html-keyboard-response","144","175640","0.0-214.0","3ERMJ6L4DZEMZGO28JCP246BEFU7M3","A15GLJU2DG7DLO","335VBRURDJMQFRMOFGHOE9WKSHX9E1","","null","<img src=""img/food4.png"" style=""width:200px; border:14px solid green;"">","null","","","","","","","","","",""
"","image-keyboard-response","145","175986","0.0-216.0","3ERMJ6L4DZEMZGO28JCP246BEFU7M3","A15GLJU2DG7DLO","335VBRURDJMQFRMOFGHOE9WKSHX9E1","","345","img/food1.png","75","345.5","2","1","false","2","2","1,0.5,0,1,0.5,0,0.5,0,1","0,1,0.5,0,1,0.5,1,0.5,0","3",""
"","html-keyboard-response","146","176291","0.0-217.0","3ERMJ6L4DZEMZGO28JCP246BEFU7M3","A15GLJU2DG7DLO","335VBRURDJMQFRMOFGHOE9WKSHX9E1","","null","<img src=""img/food1.png"" style=""width:200px; border:14px solid green;"">","null","","","","","","","","","",""
"","image-keyboard-response","147","176634","0.0-219.0","3ERMJ6L4DZEMZGO28JCP246BEFU7M3","A15GLJU2DG7DLO","335VBRURDJMQFRMOFGHOE9WKSHX9E1","","342.5","img/food1.png","74","342.89999997615814","1","0","false","2","2","1,0.5,0,1,0.5,0,0.5,0,1","0,1,0.5,0,1,0.5,1,0.5,0","3",""
"","html-keyboard-response","148","176939","0.0-220.0","3ERMJ6L4DZEMZGO28JCP246BEFU7M3","A15GLJU2DG7DLO","335VBRURDJMQFRMOFGHOE9WKSHX9E1","","null","<img src=""img/food1.png"" style=""width:200px;border:14px solid red;"">","null","","","","","","","","","",""
"","image-keyboard-response","149","177658","0.0-222.0","3ERMJ6L4DZEMZGO28JCP246BEFU7M3","A15GLJU2DG7DLO","335VBRURDJMQFRMOFGHOE9WKSHX9E1","","718.9000000059605","img/food5.png","74","719.2999999821186","1","0","false","1","2","1,0.5,0,1,0.5,0,0.5,0,1","0,1,0.5,0,1,0.5,1,0.5,0","3",""
"","html-keyboard-response","150","177962","0.0-223.0","3ERMJ6L4DZEMZGO28JCP246BEFU7M3","A15GLJU2DG7DLO","335VBRURDJMQFRMOFGHOE9WKSHX9E1","","null","<img src=""img/food5.png"" style=""width:200px;border:14px solid red;"">","null","","","","","","","","","",""
"","image-keyboard-response","151","178546","0.0-225.0","3ERMJ6L4DZEMZGO28JCP246BEFU7M3","A15GLJU2DG7DLO","335VBRURDJMQFRMOFGHOE9WKSHX9E1","","583.5999999940395","img/food1.png","74","584.1999999880791","1","0","false","2","2","1,0.5,0,1,0.5,0,0.5,0,1","0,1,0.5,0,1,0.5,1,0.5,0","3",""
"","html-keyboard-response","152","178851","0.0-226.0","3ERMJ6L4DZEMZGO28JCP246BEFU7M3","A15GLJU2DG7DLO","335VBRURDJMQFRMOFGHOE9WKSHX9E1","","null","<img src=""img/food1.png"" style=""width:200px;border:14px solid red;"">","null","","","","","","","","","",""
"","image-keyboard-response","153","179154","0.0-228.0","3ERMJ6L4DZEMZGO28JCP246BEFU7M3","A15GLJU2DG7DLO","335VBRURDJMQFRMOFGHOE9WKSHX9E1","","302.30000001192093","img/food4.png","75","302.69999998807907","2","0","false","3","2","1,0.5,0,1,0.5,0,0.5,0,1","0,1,0.5,0,1,0.5,1,0.5,0","3",""
"","html-keyboard-response","154","179458","0.0-229.0","3ERMJ6L4DZEMZGO28JCP246BEFU7M3","A15GLJU2DG7DLO","335VBRURDJMQFRMOFGHOE9WKSHX9E1","","null","<img src=""img/food4.png"" style=""width:200px;border:14px solid red;"">","null","","","","","","","","","",""
"","image-keyboard-response","155","179562","0.0-231.0","3ERMJ6L4DZEMZGO28JCP246BEFU7M3","A15GLJU2DG7DLO","335VBRURDJMQFRMOFGHOE9WKSHX9E1","","103.30000001192093","img/food4.png","74","103.90000000596046","1","1","false","3","2","1,0.5,0,1,0.5,0,0.5,0,1","0,1,0.5,0,1,0.5,1,0.5,0","3",""
"","html-keyboard-response","156","179867","0.0-232.0","3ERMJ6L4DZEMZGO28JCP246BEFU7M3","A15GLJU2DG7DLO","335VBRURDJMQFRMOFGHOE9WKSHX9E1","","null","<img src=""img/food4.png"" style=""width:200px; border:14px solid green;"">","null","","","","","","","","","",""
"","image-keyboard-response","157","180202","0.0-234.0","3ERMJ6L4DZEMZGO28JCP246BEFU7M3","A15GLJU2DG7DLO","335VBRURDJMQFRMOFGHOE9WKSHX9E1","","334.5","img/food4.png","74","334.90000000596046","1","1","false","3","2","1,0.5,0,1,0.5,0,0.5,0,1","0,1,0.5,0,1,0.5,1,0.5,0","3",""
"","html-keyboard-response","158","180505","0.0-235.0","3ERMJ6L4DZEMZGO28JCP246BEFU7M3","A15GLJU2DG7DLO","335VBRURDJMQFRMOFGHOE9WKSHX9E1","","null","<img src=""img/food4.png"" style=""width:200px; border:14px solid green;"">","null","","","","","","","","","",""
"","image-keyboard-response","159","180819","0.0-237.0","3ERMJ6L4DZEMZGO28JCP246BEFU7M3","A15GLJU2DG7DLO","335VBRURDJMQFRMOFGHOE9WKSHX9E1","","313.5","img/food1.png","74","314","1","0","false","2","2","1,0.5,0,1,0.5,0,0.5,0,1","0,1,0.5,0,1,0.5,1,0.5,0","3",""
"","html-keyboard-response","160","181120","0.0-238.0","3ERMJ6L4DZEMZGO28JCP246BEFU7M3","A15GLJU2DG7DLO","335VBRURDJMQFRMOFGHOE9WKSHX9E1","","null","<img src=""img/food1.png"" style=""width:200px;border:14px solid red;"">","null","","","","","","","","","",""
"","image-keyboard-response","161","181475","0.0-240.0","3ERMJ6L4DZEMZGO28JCP246BEFU7M3","A15GLJU2DG7DLO","335VBRURDJMQFRMOFGHOE9WKSHX9E1","","353.40000000596046","img/food5.png","75","354","2","1","false","1","2","1,0.5,0,1,0.5,0,0.5,0,1","0,1,0.5,0,1,0.5,1,0.5,0","3",""
"","html-keyboard-response","162","181780","0.0-241.0","3ERMJ6L4DZEMZGO28JCP246BEFU7M3","A15GLJU2DG7DLO","335VBRURDJMQFRMOFGHOE9WKSHX9E1","","null","<img src=""img/food5.png"" style=""width:200px; border:14px solid green;"">","null","","","","","","","","","",""
"","image-keyboard-response","163","182098","0.0-243.0","3ERMJ6L4DZEMZGO28JCP246BEFU7M3","A15GLJU2DG7DLO","335VBRURDJMQFRMOFGHOE9WKSHX9E1","","317.40000000596046","img/food4.png","75","317.90000000596046","2","0","false","3","2","1,0.5,0,1,0.5,0,0.5,0,1","0,1,0.5,0,1,0.5,1,0.5,0","3",""
"","html-keyboard-response","164","182401","0.0-244.0","3ERMJ6L4DZEMZGO28JCP246BEFU7M3","A15GLJU2DG7DLO","335VBRURDJMQFRMOFGHOE9WKSHX9E1","","null","<img src=""img/food4.png"" style=""width:200px;border:14px solid red;"">","null","","","","","","","","","",""
"","image-keyboard-response","165","182834","0.0-246.0","3ERMJ6L4DZEMZGO28JCP246BEFU7M3","A15GLJU2DG7DLO","335VBRURDJMQFRMOFGHOE9WKSHX9E1","","432.40000000596046","img/food5.png","74","432.90000000596046","1","0","false","1","2","1,0.5,0,1,0.5,0,0.5,0,1","0,1,0.5,0,1,0.5,1,0.5,0","3",""
"","html-keyboard-response","166","183138","0.0-247.0","3ERMJ6L4DZEMZGO28JCP246BEFU7M3","A15GLJU2DG7DLO","335VBRURDJMQFRMOFGHOE9WKSHX9E1","","null","<img src=""img/food5.png"" style=""width:200px;border:14px solid red;"">","null","","","","","","","","","",""
"","image-keyboard-response","167","183930","0.0-249.0","3ERMJ6L4DZEMZGO28JCP246BEFU7M3","A15GLJU2DG7DLO","335VBRURDJMQFRMOFGHOE9WKSHX9E1","","791.8000000119209","img/food5.png","75","792.3999999761581","2","1","false","1","2","1,0.5,0,1,0.5,0,0.5,0,1","0,1,0.5,0,1,0.5,1,0.5,0","3",""
"","html-keyboard-response","168","184232","0.0-250.0","3ERMJ6L4DZEMZGO28JCP246BEFU7M3","A15GLJU2DG7DLO","335VBRURDJMQFRMOFGHOE9WKSHX9E1","","null","<img src=""img/food5.png"" style=""width:200px; border:14px solid green;"">","null","","","","","","","","","",""
"","image-keyboard-response","169","184570","0.0-252.0","3ERMJ6L4DZEMZGO28JCP246BEFU7M3","A15GLJU2DG7DLO","335VBRURDJMQFRMOFGHOE9WKSHX9E1","","336.2999999821186","img/food1.png","75","336.80000001192093","2","1","false","2","2","1,0.5,0,1,0.5,0,0.5,0,1","0,1,0.5,0,1,0.5,1,0.5,0","3",""
"","html-keyboard-response","170","184873","0.0-253.0","3ERMJ6L4DZEMZGO28JCP246BEFU7M3","A15GLJU2DG7DLO","335VBRURDJMQFRMOFGHOE9WKSHX9E1","","null","<img src=""img/food1.png"" style=""width:200px; border:14px solid green;"">","null","","","","","","","","","",""
"","image-keyboard-response","171","185778","0.0-255.0","3ERMJ6L4DZEMZGO28JCP246BEFU7M3","A15GLJU2DG7DLO","335VBRURDJMQFRMOFGHOE9WKSHX9E1","","904.3000000119209","img/food4.png","75","904.9000000059605","2","0","false","3","2","1,0.5,0,1,0.5,0,0.5,0,1","0,1,0.5,0,1,0.5,1,0.5,0","3",""
"","html-keyboard-response","172","186084","0.0-256.0","3ERMJ6L4DZEMZGO28JCP246BEFU7M3","A15GLJU2DG7DLO","335VBRURDJMQFRMOFGHOE9WKSHX9E1","","null","<img src=""img/food4.png"" style=""width:200px;border:14px solid red;"">","null","","","","","","","","","",""
"","image-keyboard-response","173","186186","0.0-258.0","3ERMJ6L4DZEMZGO28JCP246BEFU7M3","A15GLJU2DG7DLO","335VBRURDJMQFRMOFGHOE9WKSHX9E1","","101.30000001192093","img/food5.png","74","101.69999998807907","1","0","false","1","2","1,0.5,0,1,0.5,0,0.5,0,1","0,1,0.5,0,1,0.5,1,0.5,0","3",""
"","html-keyboard-response","174","186490","0.0-259.0","3ERMJ6L4DZEMZGO28JCP246BEFU7M3","A15GLJU2DG7DLO","335VBRURDJMQFRMOFGHOE9WKSHX9E1","","null","<img src=""img/food5.png"" style=""width:200px;border:14px solid red;"">","null","","","","","","","","","",""
"","image-keyboard-response","175","187338","0.0-261.0","3ERMJ6L4DZEMZGO28JCP246BEFU7M3","A15GLJU2DG7DLO","335VBRURDJMQFRMOFGHOE9WKSHX9E1","","847.0999999940395","img/food5.png","74","847.5","1","0","false","1","2","1,0.5,0,1,0.5,0,0.5,0,1","0,1,0.5,0,1,0.5,1,0.5,0","3",""
"","html-keyboard-response","176","187643","0.0-262.0","3ERMJ6L4DZEMZGO28JCP246BEFU7M3","A15GLJU2DG7DLO","335VBRURDJMQFRMOFGHOE9WKSHX9E1","","null","<img src=""img/food5.png"" style=""width:200px;border:14px solid red;"">","null","","","","","","","","","",""
"","image-keyboard-response","177","187714","0.0-264.0","3ERMJ6L4DZEMZGO28JCP246BEFU7M3","A15GLJU2DG7DLO","335VBRURDJMQFRMOFGHOE9WKSHX9E1","","70.2000000178814","img/food1.png","75","70.69999998807907","2","1","false","2","2","1,0.5,0,1,0.5,0,0.5,0,1","0,1,0.5,0,1,0.5,1,0.5,0","3",""
"","html-keyboard-response","178","188019","0.0-265.0","3ERMJ6L4DZEMZGO28JCP246BEFU7M3","A15GLJU2DG7DLO","335VBRURDJMQFRMOFGHOE9WKSHX9E1","","null","<img src=""img/food1.png"" style=""width:200px; border:14px solid green;"">","null","","","","","","","","","",""
"","image-keyboard-response","179","188706","0.0-267.0","3ERMJ6L4DZEMZGO28JCP246BEFU7M3","A15GLJU2DG7DLO","335VBRURDJMQFRMOFGHOE9WKSHX9E1","","686.0999999940395","img/food4.png","74","686.6999999880791","1","1","false","3","2","1,0.5,0,1,0.5,0,0.5,0,1","0,1,0.5,0,1,0.5,1,0.5,0","3",""
"","html-keyboard-response","180","189009","0.0-268.0","3ERMJ6L4DZEMZGO28JCP246BEFU7M3","A15GLJU2DG7DLO","335VBRURDJMQFRMOFGHOE9WKSHX9E1","","null","<img src=""img/food4.png"" style=""width:200px; border:14px solid green;"">","null","","","","","","","","","",""
"","image-keyboard-response","181","189466","0.0-270.0","3ERMJ6L4DZEMZGO28JCP246BEFU7M3","A15GLJU2DG7DLO","335VBRURDJMQFRMOFGHOE9WKSHX9E1","","455.80000001192093","img/food4.png","74","456.2999999821186","1","1","false","3","2","1,0.5,0,1,0.5,0,0.5,0,1","0,1,0.5,0,1,0.5,1,0.5,0","3",""
"","html-keyboard-response","182","189770","0.0-271.0","3ERMJ6L4DZEMZGO28JCP246BEFU7M3","A15GLJU2DG7DLO","335VBRURDJMQFRMOFGHOE9WKSHX9E1","","null","<img src=""img/food4.png"" style=""width:200px; border:14px solid green;"">","null","","","","","","","","","",""
"","instructions","183","203619","0.0-273.0","3ERMJ6L4DZEMZGO28JCP246BEFU7M3","A15GLJU2DG7DLO","335VBRURDJMQFRMOFGHOE9WKSHX9E1","[{""page_index"":0,""viewing_time"":11097},{""page_index"":1,""viewing_time"":2751.100000023842}]","13848.300000011921","","","","","","","","","","","",""
"","image-keyboard-response","184","204578","0.0-274.0","3ERMJ6L4DZEMZGO28JCP246BEFU7M3","A15GLJU2DG7DLO","335VBRURDJMQFRMOFGHOE9WKSHX9E1","","958.2000000178814","img/food3.png","74","958.8999999761581","1","0","","2","1","1,0.5,0,1,0.5,0,0.5,0,1","0.5,0,1,0.5,0,1,0,1,0.5","2",""
"","html-keyboard-response","185","204880","0.0-275.0","3ERMJ6L4DZEMZGO28JCP246BEFU7M3","A15GLJU2DG7DLO","335VBRURDJMQFRMOFGHOE9WKSHX9E1","","null","<img src=""img/food3.png"" style=""width:200px;border:14px solid red;"">","null","","","","","","","","","",""
"","image-keyboard-response","186","205602","0.0-276.0","3ERMJ6L4DZEMZGO28JCP246BEFU7M3","A15GLJU2DG7DLO","335VBRURDJMQFRMOFGHOE9WKSHX9E1","","721.0999999940395","img/food2.png","75","721.5999999940395","2","0","","1","1","1,0.5,0,1,0.5,0,0.5,0,1","0.5,0,1,0.5,0,1,0,1,0.5","2",""
"","html-keyboard-response","187","205905","0.0-277.0","3ERMJ6L4DZEMZGO28JCP246BEFU7M3","A15GLJU2DG7DLO","335VBRURDJMQFRMOFGHOE9WKSHX9E1","","null","<img src=""img/food2.png"" style=""width:200px;border:14px solid red;"">","null","","","","","","","","","",""
"","image-keyboard-response","188","206586","0.0-278.0","3ERMJ6L4DZEMZGO28JCP246BEFU7M3","A15GLJU2DG7DLO","335VBRURDJMQFRMOFGHOE9WKSHX9E1","","680","img/food6.png","76","680.5","3","0","","3","1","1,0.5,0,1,0.5,0,0.5,0,1","0.5,0,1,0.5,0,1,0,1,0.5","2",""
"","html-keyboard-response","189","206889","0.0-279.0","3ERMJ6L4DZEMZGO28JCP246BEFU7M3","A15GLJU2DG7DLO","335VBRURDJMQFRMOFGHOE9WKSHX9E1","","null","<img src=""img/food6.png"" style=""width:200px;border:14px solid red;"">","null","","","","","","","","","",""
"","image-keyboard-response","190","207610","0.0-280.0","3ERMJ6L4DZEMZGO28JCP246BEFU7M3","A15GLJU2DG7DLO","335VBRURDJMQFRMOFGHOE9WKSHX9E1","","720.3000000119209","img/food2.png","76","720.9000000059605","3","1","","1","1","1,0.5,0,1,0.5,0,0.5,0,1","0.5,0,1,0.5,0,1,0,1,0.5","2",""
"","html-keyboard-response","191","207911","0.0-281.0","3ERMJ6L4DZEMZGO28JCP246BEFU7M3","A15GLJU2DG7DLO","335VBRURDJMQFRMOFGHOE9WKSHX9E1","","null","<img src=""img/food2.png"" style=""width:200px; border:14px solid green;"">","null","","","","","","","","","",""
"","image-keyboard-response","192","208490","0.0-282.0","3ERMJ6L4DZEMZGO28JCP246BEFU7M3","A15GLJU2DG7DLO","335VBRURDJMQFRMOFGHOE9WKSHX9E1","","578.0999999940395","img/food2.png","76","578.6999999880791","3","1","","1","1","1,0.5,0,1,0.5,0,0.5,0,1","0.5,0,1,0.5,0,1,0,1,0.5","2",""
"","html-keyboard-response","193","208796","0.0-283.0","3ERMJ6L4DZEMZGO28JCP246BEFU7M3","A15GLJU2DG7DLO","335VBRURDJMQFRMOFGHOE9WKSHX9E1","","null","<img src=""img/food2.png"" style=""width:200px; border:14px solid green;"">","null","","","","","","","","","",""
"","image-keyboard-response","194","209546","0.0-284.0","3ERMJ6L4DZEMZGO28JCP246BEFU7M3","A15GLJU2DG7DLO","335VBRURDJMQFRMOFGHOE9WKSHX9E1","","749.2000000178814","img/food3.png","75","749.7999999821186","2","0","","2","1","1,0.5,0,1,0.5,0,0.5,0,1","0.5,0,1,0.5,0,1,0,1,0.5","2",""
"","html-keyboard-response","195","209849","0.0-285.0","3ERMJ6L4DZEMZGO28JCP246BEFU7M3","A15GLJU2DG7DLO","335VBRURDJMQFRMOFGHOE9WKSHX9E1","","null","<img src=""img/food3.png"" style=""width:200px;border:14px solid red;"">","null","","","","","","","","","",""
"","image-keyboard-response","196","211002","0.0-286.0","3ERMJ6L4DZEMZGO28JCP246BEFU7M3","A15GLJU2DG7DLO","335VBRURDJMQFRMOFGHOE9WKSHX9E1","","1151.800000011921","img/food6.png","75","1152.2999999821186","2","1","","3","1","1,0.5,0,1,0.5,0,0.5,0,1","0.5,0,1,0.5,0,1,0,1,0.5","2",""
"","html-keyboard-response","197","211305","0.0-287.0","3ERMJ6L4DZEMZGO28JCP246BEFU7M3","A15GLJU2DG7DLO","335VBRURDJMQFRMOFGHOE9WKSHX9E1","","null","<img src=""img/food6.png"" style=""width:200px; border:14px solid green;"">","null","","","","","","","","","",""
"","image-keyboard-response","198","211817","0.0-288.0","3ERMJ6L4DZEMZGO28JCP246BEFU7M3","A15GLJU2DG7DLO","335VBRURDJMQFRMOFGHOE9WKSHX9E1","","511.5","img/food6.png","75","512.0999999940395","2","1","","3","1","1,0.5,0,1,0.5,0,0.5,0,1","0.5,0,1,0.5,0,1,0,1,0.5","2",""
"","html-keyboard-response","199","212122","0.0-289.0","3ERMJ6L4DZEMZGO28JCP246BEFU7M3","A15GLJU2DG7DLO","335VBRURDJMQFRMOFGHOE9WKSHX9E1","","null","<img src=""img/food6.png"" style=""width:200px; border:14px solid green;"">","null","","","","","","","","","",""
"","image-keyboard-response","200","212770","0.0-290.0","3ERMJ6L4DZEMZGO28JCP246BEFU7M3","A15GLJU2DG7DLO","335VBRURDJMQFRMOFGHOE9WKSHX9E1","","647","img/food2.png","76","647.6000000238419","3","1","","1","1","1,0.5,0,1,0.5,0,0.5,0,1","0.5,0,1,0.5,0,1,0,1,0.5","2",""
"","html-keyboard-response","201","213075","0.0-291.0","3ERMJ6L4DZEMZGO28JCP246BEFU7M3","A15GLJU2DG7DLO","335VBRURDJMQFRMOFGHOE9WKSHX9E1","","null","<img src=""img/food2.png"" style=""width:200px; border:14px solid green;"">","null","","","","","","","","","",""
"","image-keyboard-response","202","213561","0.0-292.0","3ERMJ6L4DZEMZGO28JCP246BEFU7M3","A15GLJU2DG7DLO","335VBRURDJMQFRMOFGHOE9WKSHX9E1","","486","img/food2.png","76","486.5","3","1","","1","1","1,0.5,0,1,0.5,0,0.5,0,1","0.5,0,1,0.5,0,1,0,1,0.5","2",""
"","html-keyboard-response","203","213866","0.0-293.0","3ERMJ6L4DZEMZGO28JCP246BEFU7M3","A15GLJU2DG7DLO","335VBRURDJMQFRMOFGHOE9WKSHX9E1","","null","<img src=""img/food2.png"" style=""width:200px; border:14px solid green;"">","null","","","","","","","","","",""
"","image-keyboard-response","204","214450","0.0-294.0","3ERMJ6L4DZEMZGO28JCP246BEFU7M3","A15GLJU2DG7DLO","335VBRURDJMQFRMOFGHOE9WKSHX9E1","","582.7000000178814","img/food2.png","76","583.2999999821186","3","1","","1","1","1,0.5,0,1,0.5,0,0.5,0,1","0.5,0,1,0.5,0,1,0,1,0.5","2",""
"","html-keyboard-response","205","214753","0.0-295.0","3ERMJ6L4DZEMZGO28JCP246BEFU7M3","A15GLJU2DG7DLO","335VBRURDJMQFRMOFGHOE9WKSHX9E1","","null","<img src=""img/food2.png"" style=""width:200px; border:14px solid green;"">","null","","","","","","","","","",""
"","image-keyboard-response","206","215482","0.0-296.0","3ERMJ6L4DZEMZGO28JCP246BEFU7M3","A15GLJU2DG7DLO","335VBRURDJMQFRMOFGHOE9WKSHX9E1","","727.4000000059605","img/food3.png","75","728","2","0","","2","1","1,0.5,0,1,0.5,0,0.5,0,1","0.5,0,1,0.5,0,1,0,1,0.5","2",""
"","html-keyboard-response","207","215788","0.0-297.0","3ERMJ6L4DZEMZGO28JCP246BEFU7M3","A15GLJU2DG7DLO","335VBRURDJMQFRMOFGHOE9WKSHX9E1","","null","<img src=""img/food3.png"" style=""width:200px;border:14px solid red;"">","null","","","","","","","","","",""
"","image-keyboard-response","208","216114","0.0-298.0","3ERMJ6L4DZEMZGO28JCP246BEFU7M3","A15GLJU2DG7DLO","335VBRURDJMQFRMOFGHOE9WKSHX9E1","","325","img/food6.png","74","325.5","1","0","","3","1","1,0.5,0,1,0.5,0,0.5,0,1","0.5,0,1,0.5,0,1,0,1,0.5","2",""
"","html-keyboard-response","209","216418","0.0-299.0","3ERMJ6L4DZEMZGO28JCP246BEFU7M3","A15GLJU2DG7DLO","335VBRURDJMQFRMOFGHOE9WKSHX9E1","","null","<img src=""img/food6.png"" style=""width:200px;border:14px solid red;"">","null","","","","","","","","","",""
"","image-keyboard-response","210","217865","0.0-300.0","3ERMJ6L4DZEMZGO28JCP246BEFU7M3","A15GLJU2DG7DLO","335VBRURDJMQFRMOFGHOE9WKSHX9E1","","1447.2000000178814","img/food3.png","74","1447.699999988079","1","0","","2","1","1,0.5,0,1,0.5,0,0.5,0,1","0.5,0,1,0.5,0,1,0,1,0.5","2",""
"","html-keyboard-response","211","218171","0.0-301.0","3ERMJ6L4DZEMZGO28JCP246BEFU7M3","A15GLJU2DG7DLO","335VBRURDJMQFRMOFGHOE9WKSHX9E1","","null","<img src=""img/food3.png"" style=""width:200px;border:14px solid red;"">","null","","","","","","","","","",""
"","image-keyboard-response","212","219073","0.0-302.0","3ERMJ6L4DZEMZGO28JCP246BEFU7M3","A15GLJU2DG7DLO","335VBRURDJMQFRMOFGHOE9WKSHX9E1","","901.7999999821186","img/food6.png","75","902.3000000119209","2","1","","3","1","1,0.5,0,1,0.5,0,0.5,0,1","0.5,0,1,0.5,0,1,0,1,0.5","2",""
"","html-keyboard-response","213","219377","0.0-303.0","3ERMJ6L4DZEMZGO28JCP246BEFU7M3","A15GLJU2DG7DLO","335VBRURDJMQFRMOFGHOE9WKSHX9E1","","null","<img src=""img/food6.png"" style=""width:200px; border:14px solid green;"">","null","","","","","","","","","",""
"","image-keyboard-response","214","219946","0.0-304.0","3ERMJ6L4DZEMZGO28JCP246BEFU7M3","A15GLJU2DG7DLO","335VBRURDJMQFRMOFGHOE9WKSHX9E1","","567.4000000059605","img/food6.png","75","568.0999999940395","2","1","","3","1","1,0.5,0,1,0.5,0,0.5,0,1","0.5,0,1,0.5,0,1,0,1,0.5","2",""
"","html-keyboard-response","215","220252","0.0-305.0","3ERMJ6L4DZEMZGO28JCP246BEFU7M3","A15GLJU2DG7DLO","335VBRURDJMQFRMOFGHOE9WKSHX9E1","","null","<img src=""img/food6.png"" style=""width:200px; border:14px solid green;"">","null","","","","","","","","","",""
"","image-keyboard-response","216","220993","0.0-306.0","3ERMJ6L4DZEMZGO28JCP246BEFU7M3","A15GLJU2DG7DLO","335VBRURDJMQFRMOFGHOE9WKSHX9E1","","741.2000000178814","img/food2.png","76","741.6999999880791","3","1","","1","1","1,0.5,0,1,0.5,0,0.5,0,1","0.5,0,1,0.5,0,1,0,1,0.5","2",""
"","html-keyboard-response","217","221296","0.0-307.0","3ERMJ6L4DZEMZGO28JCP246BEFU7M3","A15GLJU2DG7DLO","335VBRURDJMQFRMOFGHOE9WKSHX9E1","","null","<img src=""img/food2.png"" style=""width:200px; border:14px solid green;"">","null","","","","","","","","","",""
"","image-keyboard-response","218","222002","0.0-308.0","3ERMJ6L4DZEMZGO28JCP246BEFU7M3","A15GLJU2DG7DLO","335VBRURDJMQFRMOFGHOE9WKSHX9E1","","705.1999999880791","img/food6.png","75","705.9000000059605","2","1","","3","1","1,0.5,0,1,0.5,0,0.5,0,1","0.5,0,1,0.5,0,1,0,1,0.5","2",""
"","html-keyboard-response","219","222307","0.0-309.0","3ERMJ6L4DZEMZGO28JCP246BEFU7M3","A15GLJU2DG7DLO","335VBRURDJMQFRMOFGHOE9WKSHX9E1","","null","<img src=""img/food6.png"" style=""width:200px; border:14px solid green;"">","null","","","","","","","","","",""
"","image-keyboard-response","220","222777","0.0-310.0","3ERMJ6L4DZEMZGO28JCP246BEFU7M3","A15GLJU2DG7DLO","335VBRURDJMQFRMOFGHOE9WKSHX9E1","","470.30000001192093","img/food6.png","75","470.89999997615814","2","1","","3","1","1,0.5,0,1,0.5,0,0.5,0,1","0.5,0,1,0.5,0,1,0,1,0.5","2",""
"","html-keyboard-response","221","223082","0.0-311.0","3ERMJ6L4DZEMZGO28JCP246BEFU7M3","A15GLJU2DG7DLO","335VBRURDJMQFRMOFGHOE9WKSHX9E1","","null","<img src=""img/food6.png"" style=""width:200px; border:14px solid green;"">","null","","","","","","","","","",""
"","image-keyboard-response","222","223642","0.0-312.0","3ERMJ6L4DZEMZGO28JCP246BEFU7M3","A15GLJU2DG7DLO","335VBRURDJMQFRMOFGHOE9WKSHX9E1","","559.0999999940395","img/food6.png","75","559.7000000178814","2","1","","3","1","1,0.5,0,1,0.5,0,0.5,0,1","0.5,0,1,0.5,0,1,0,1,0.5","2",""
"","html-keyboard-response","223","223947","0.0-313.0","3ERMJ6L4DZEMZGO28JCP246BEFU7M3","A15GLJU2DG7DLO","335VBRURDJMQFRMOFGHOE9WKSHX9E1","","null","<img src=""img/food6.png"" style=""width:200px; border:14px solid green;"">","null","","","","","","","","","",""
"","image-keyboard-response","224","224626","0.0-314.0","3ERMJ6L4DZEMZGO28JCP246BEFU7M3","A15GLJU2DG7DLO","335VBRURDJMQFRMOFGHOE9WKSHX9E1","","678.3000000119209","img/food2.png","76","678.8000000119209","3","1","","1","1","1,0.5,0,1,0.5,0,0.5,0,1","0.5,0,1,0.5,0,1,0,1,0.5","2",""
"","html-keyboard-response","225","224930","0.0-315.0","3ERMJ6L4DZEMZGO28JCP246BEFU7M3","A15GLJU2DG7DLO","335VBRURDJMQFRMOFGHOE9WKSHX9E1","","null","<img src=""img/food2.png"" style=""width:200px; border:14px solid green;"">","null","","","","","","","","","",""
"","image-keyboard-response","226","225465","0.0-316.0","3ERMJ6L4DZEMZGO28JCP246BEFU7M3","A15GLJU2DG7DLO","335VBRURDJMQFRMOFGHOE9WKSHX9E1","","534.3000000119209","img/food2.png","76","535","3","1","","1","1","1,0.5,0,1,0.5,0,0.5,0,1","0.5,0,1,0.5,0,1,0,1,0.5","2",""
"","html-keyboard-response","227","225770","0.0-317.0","3ERMJ6L4DZEMZGO28JCP246BEFU7M3","A15GLJU2DG7DLO","335VBRURDJMQFRMOFGHOE9WKSHX9E1","","null","<img src=""img/food2.png"" style=""width:200px; border:14px solid green;"">","null","","","","","","","","","",""
"","image-keyboard-response","228","226385","0.0-318.0","3ERMJ6L4DZEMZGO28JCP246BEFU7M3","A15GLJU2DG7DLO","335VBRURDJMQFRMOFGHOE9WKSHX9E1","","615.3000000119209","img/food6.png","75","615.5999999940395","2","1","","3","1","1,0.5,0,1,0.5,0,0.5,0,1","0.5,0,1,0.5,0,1,0,1,0.5","2",""
"","html-keyboard-response","229","226687","0.0-319.0","3ERMJ6L4DZEMZGO28JCP246BEFU7M3","A15GLJU2DG7DLO","335VBRURDJMQFRMOFGHOE9WKSHX9E1","","null","<img src=""img/food6.png"" style=""width:200px; border:14px solid green;"">","null","","","","","","","","","",""
"","image-keyboard-response","230","227345","0.0-320.0","3ERMJ6L4DZEMZGO28JCP246BEFU7M3","A15GLJU2DG7DLO","335VBRURDJMQFRMOFGHOE9WKSHX9E1","","658.0999999940395","img/food3.png","75","658.5999999940395","2","0","","2","1","1,0.5,0,1,0.5,0,0.5,0,1","0.5,0,1,0.5,0,1,0,1,0.5","2",""
"","html-keyboard-response","231","227647","0.0-321.0","3ERMJ6L4DZEMZGO28JCP246BEFU7M3","A15GLJU2DG7DLO","335VBRURDJMQFRMOFGHOE9WKSHX9E1","","null","<img src=""img/food3.png"" style=""width:200px;border:14px solid red;"">","null","","","","","","","","","",""
"","image-keyboard-response","232","228577","0.0-322.0","3ERMJ6L4DZEMZGO28JCP246BEFU7M3","A15GLJU2DG7DLO","335VBRURDJMQFRMOFGHOE9WKSHX9E1","","929.5999999940395","img/food2.png","76","930.1999999880791","3","1","","1","1","1,0.5,0,1,0.5,0,0.5,0,1","0.5,0,1,0.5,0,1,0,1,0.5","2",""
"","html-keyboard-response","233","228884","0.0-323.0","3ERMJ6L4DZEMZGO28JCP246BEFU7M3","A15GLJU2DG7DLO","335VBRURDJMQFRMOFGHOE9WKSHX9E1","","null","<img src=""img/food2.png"" style=""width:200px; border:14px solid green;"">","null","","","","","","","","","",""
"","image-keyboard-response","234","229714","0.0-324.0","3ERMJ6L4DZEMZGO28JCP246BEFU7M3","A15GLJU2DG7DLO","335VBRURDJMQFRMOFGHOE9WKSHX9E1","","829.4000000059605","img/food3.png","76","829.8000000119209","3","1","","2","1","1,0.5,0,1,0.5,0,0.5,0,1","0.5,0,1,0.5,0,1,0,1,0.5","2",""
"","html-keyboard-response","235","230019","0.0-325.0","3ERMJ6L4DZEMZGO28JCP246BEFU7M3","A15GLJU2DG7DLO","335VBRURDJMQFRMOFGHOE9WKSHX9E1","","null","<img src=""img/food3.png"" style=""width:200px; border:14px solid green;"">","null","","","","","","","","","",""
"","image-keyboard-response","236","230513","0.0-326.0","3ERMJ6L4DZEMZGO28JCP246BEFU7M3","A15GLJU2DG7DLO","335VBRURDJMQFRMOFGHOE9WKSHX9E1","","494.2000000178814","img/food3.png","76","494.7999999821186","3","1","","2","1","1,0.5,0,1,0.5,0,0.5,0,1","0.5,0,1,0.5,0,1,0,1,0.5","2",""
"","html-keyboard-response","237","230817","0.0-327.0","3ERMJ6L4DZEMZGO28JCP246BEFU7M3","A15GLJU2DG7DLO","335VBRURDJMQFRMOFGHOE9WKSHX9E1","","null","<img src=""img/food3.png"" style=""width:200px; border:14px solid green;"">","null","","","","","","","","","",""
"","image-keyboard-response","238","231497","0.0-328.0","3ERMJ6L4DZEMZGO28JCP246BEFU7M3","A15GLJU2DG7DLO","335VBRURDJMQFRMOFGHOE9WKSHX9E1","","680.3000000119209","img/food2.png","76","680.7999999821186","3","1","","1","1","1,0.5,0,1,0.5,0,0.5,0,1","0.5,0,1,0.5,0,1,0,1,0.5","2",""
"","html-keyboard-response","239","231803","0.0-329.0","3ERMJ6L4DZEMZGO28JCP246BEFU7M3","A15GLJU2DG7DLO","335VBRURDJMQFRMOFGHOE9WKSHX9E1","","null","<img src=""img/food2.png"" style=""width:200px; border:14px solid green;"">","null","","","","","","","","","",""
"","image-keyboard-response","240","232433","0.0-330.0","3ERMJ6L4DZEMZGO28JCP246BEFU7M3","A15GLJU2DG7DLO","335VBRURDJMQFRMOFGHOE9WKSHX9E1","","629.5","img/food3.png","76","629.7999999821186","3","1","","2","1","1,0.5,0,1,0.5,0,0.5,0,1","0.5,0,1,0.5,0,1,0,1,0.5","2",""
"","html-keyboard-response","241","232738","0.0-331.0","3ERMJ6L4DZEMZGO28JCP246BEFU7M3","A15GLJU2DG7DLO","335VBRURDJMQFRMOFGHOE9WKSHX9E1","","null","<img src=""img/food3.png"" style=""width:200px; border:14px solid green;"">","null","","","","","","","","","",""
"","image-keyboard-response","242","233281","0.0-332.0","3ERMJ6L4DZEMZGO28JCP246BEFU7M3","A15GLJU2DG7DLO","335VBRURDJMQFRMOFGHOE9WKSHX9E1","","542.5999999940395","img/food3.png","76","543","3","1","","2","1","1,0.5,0,1,0.5,0,0.5,0,1","0.5,0,1,0.5,0,1,0,1,0.5","2",""
"","html-keyboard-response","243","233585","0.0-333.0","3ERMJ6L4DZEMZGO28JCP246BEFU7M3","A15GLJU2DG7DLO","335VBRURDJMQFRMOFGHOE9WKSHX9E1","","null","<img src=""img/food3.png"" style=""width:200px; border:14px solid green;"">","null","","","","","","","","","",""
"","image-keyboard-response","244","234105","0.0-334.0","3ERMJ6L4DZEMZGO28JCP246BEFU7M3","A15GLJU2DG7DLO","335VBRURDJMQFRMOFGHOE9WKSHX9E1","","519.5999999940395","img/food3.png","76","520.1000000238419","3","1","","2","1","1,0.5,0,1,0.5,0,0.5,0,1","0.5,0,1,0.5,0,1,0,1,0.5","2",""
"","html-keyboard-response","245","234410","0.0-335.0","3ERMJ6L4DZEMZGO28JCP246BEFU7M3","A15GLJU2DG7DLO","335VBRURDJMQFRMOFGHOE9WKSHX9E1","","null","<img src=""img/food3.png"" style=""width:200px; border:14px solid green;"">","null","","","","","","","","","",""
"","image-keyboard-response","246","235345","0.0-336.0","3ERMJ6L4DZEMZGO28JCP246BEFU7M3","A15GLJU2DG7DLO","335VBRURDJMQFRMOFGHOE9WKSHX9E1","","934.5999999940395","img/food6.png","75","935.0999999940395","2","1","","3","1","1,0.5,0,1,0.5,0,0.5,0,1","0.5,0,1,0.5,0,1,0,1,0.5","2",""
"","html-keyboard-response","247","235648","0.0-337.0","3ERMJ6L4DZEMZGO28JCP246BEFU7M3","A15GLJU2DG7DLO","335VBRURDJMQFRMOFGHOE9WKSHX9E1","","null","<img src=""img/food6.png"" style=""width:200px; border:14px solid green;"">","null","","","","","","","","","",""
"","image-keyboard-response","248","236297","0.0-338.0","3ERMJ6L4DZEMZGO28JCP246BEFU7M3","A15GLJU2DG7DLO","335VBRURDJMQFRMOFGHOE9WKSHX9E1","","648.7999999821186","img/food3.png","76","649.3000000119209","3","1","","2","1","1,0.5,0,1,0.5,0,0.5,0,1","0.5,0,1,0.5,0,1,0,1,0.5","2",""
"","html-keyboard-response","249","236601","0.0-339.0","3ERMJ6L4DZEMZGO28JCP246BEFU7M3","A15GLJU2DG7DLO","335VBRURDJMQFRMOFGHOE9WKSHX9E1","","null","<img src=""img/food3.png"" style=""width:200px; border:14px solid green;"">","null","","","","","","","","","",""
"","image-keyboard-response","250","237073","0.0-340.0","3ERMJ6L4DZEMZGO28JCP246BEFU7M3","A15GLJU2DG7DLO","335VBRURDJMQFRMOFGHOE9WKSHX9E1","","471.30000001192093","img/food6.png","76","471.89999997615814","3","1","","3","1","1,0.5,0,1,0.5,0,0.5,0,1","0.5,0,1,0.5,0,1,0,1,0.5","2",""
"","html-keyboard-response","251","237378","0.0-341.0","3ERMJ6L4DZEMZGO28JCP246BEFU7M3","A15GLJU2DG7DLO","335VBRURDJMQFRMOFGHOE9WKSHX9E1","","null","<img src=""img/food6.png"" style=""width:200px; border:14px solid green;"">","null","","","","","","","","","",""
"","image-keyboard-response","252","237849","0.0-342.0","3ERMJ6L4DZEMZGO28JCP246BEFU7M3","A15GLJU2DG7DLO","335VBRURDJMQFRMOFGHOE9WKSHX9E1","","470.5","img/food6.png","76","470.89999997615814","3","0","","3","1","1,0.5,0,1,0.5,0,0.5,0,1","0.5,0,1,0.5,0,1,0,1,0.5","2",""
"","html-keyboard-response","253","238154","0.0-343.0","3ERMJ6L4DZEMZGO28JCP246BEFU7M3","A15GLJU2DG7DLO","335VBRURDJMQFRMOFGHOE9WKSHX9E1","","null","<img src=""img/food6.png"" style=""width:200px;border:14px solid red;"">","null","","","","","","","","","",""
"","image-keyboard-response","254","238993","0.0-344.0","3ERMJ6L4DZEMZGO28JCP246BEFU7M3","A15GLJU2DG7DLO","335VBRURDJMQFRMOFGHOE9WKSHX9E1","","838.5999999940395","img/food2.png","75","839.0999999940395","2","0","","1","1","1,0.5,0,1,0.5,0,0.5,0,1","0.5,0,1,0.5,0,1,0,1,0.5","2",""
"","html-keyboard-response","255","239297","0.0-345.0","3ERMJ6L4DZEMZGO28JCP246BEFU7M3","A15GLJU2DG7DLO","335VBRURDJMQFRMOFGHOE9WKSHX9E1","","null","<img src=""img/food2.png"" style=""width:200px;border:14px solid red;"">","null","","","","","","","","","",""
"","image-keyboard-response","256","240161","0.0-346.0","3ERMJ6L4DZEMZGO28JCP246BEFU7M3","A15GLJU2DG7DLO","335VBRURDJMQFRMOFGHOE9WKSHX9E1","","863.5","img/food2.png","76","864","3","1","","1","1","1,0.5,0,1,0.5,0,0.5,0,1","0.5,0,1,0.5,0,1,0,1,0.5","2",""
"","html-keyboard-response","257","240468","0.0-347.0","3ERMJ6L4DZEMZGO28JCP246BEFU7M3","A15GLJU2DG7DLO","335VBRURDJMQFRMOFGHOE9WKSHX9E1","","null","<img src=""img/food2.png"" style=""width:200px; border:14px solid green;"">","null","","","","","","","","","",""
"","image-keyboard-response","258","241370","0.0-348.0","3ERMJ6L4DZEMZGO28JCP246BEFU7M3","A15GLJU2DG7DLO","335VBRURDJMQFRMOFGHOE9WKSHX9E1","","901.1999999880791","img/food6.png","75","901.9000000059605","2","1","","3","1","1,0.5,0,1,0.5,0,0.5,0,1","0.5,0,1,0.5,0,1,0,1,0.5","2",""
"","html-keyboard-response","259","241674","0.0-349.0","3ERMJ6L4DZEMZGO28JCP246BEFU7M3","A15GLJU2DG7DLO","335VBRURDJMQFRMOFGHOE9WKSHX9E1","","null","<img src=""img/food6.png"" style=""width:200px; border:14px solid green;"">","null","","","","","","","","","",""
"","image-keyboard-response","260","242049","0.0-350.0","3ERMJ6L4DZEMZGO28JCP246BEFU7M3","A15GLJU2DG7DLO","335VBRURDJMQFRMOFGHOE9WKSHX9E1","","374.5","img/food6.png","75","375","2","1","","3","1","1,0.5,0,1,0.5,0,0.5,0,1","0.5,0,1,0.5,0,1,0,1,0.5","2",""
"","html-keyboard-response","261","242354","0.0-351.0","3ERMJ6L4DZEMZGO28JCP246BEFU7M3","A15GLJU2DG7DLO","335VBRURDJMQFRMOFGHOE9WKSHX9E1","","null","<img src=""img/food6.png"" style=""width:200px; border:14px solid green;"">","null","","","","","","","","","",""
"","image-keyboard-response","262","243273","0.0-352.0","3ERMJ6L4DZEMZGO28JCP246BEFU7M3","A15GLJU2DG7DLO","335VBRURDJMQFRMOFGHOE9WKSHX9E1","","918.6999999880791","img/food3.png","76","919.0999999940395","3","1","","2","1","1,0.5,0,1,0.5,0,0.5,0,1","0.5,0,1,0.5,0,1,0,1,0.5","2",""
"","html-keyboard-response","263","243578","0.0-353.0","3ERMJ6L4DZEMZGO28JCP246BEFU7M3","A15GLJU2DG7DLO","335VBRURDJMQFRMOFGHOE9WKSHX9E1","","null","<img src=""img/food3.png"" style=""width:200px; border:14px solid green;"">","null","","","","","","","","","",""
"","image-keyboard-response","264","244017","0.0-354.0","3ERMJ6L4DZEMZGO28JCP246BEFU7M3","A15GLJU2DG7DLO","335VBRURDJMQFRMOFGHOE9WKSHX9E1","","438.5","img/food6.png","76","439","3","0","","3","1","1,0.5,0,1,0.5,0,0.5,0,1","0.5,0,1,0.5,0,1,0,1,0.5","2",""
"","html-keyboard-response","265","244322","0.0-355.0","3ERMJ6L4DZEMZGO28JCP246BEFU7M3","A15GLJU2DG7DLO","335VBRURDJMQFRMOFGHOE9WKSHX9E1","","null","<img src=""img/food6.png"" style=""width:200px;border:14px solid red;"">","null","","","","","","","","","",""
"","image-keyboard-response","266","245113","0.0-356.0","3ERMJ6L4DZEMZGO28JCP246BEFU7M3","A15GLJU2DG7DLO","335VBRURDJMQFRMOFGHOE9WKSHX9E1","","790.7000000178814","img/food2.png","76","791.2999999821186","3","1","","1","1","1,0.5,0,1,0.5,0,0.5,0,1","0.5,0,1,0.5,0,1,0,1,0.5","2",""
"","html-keyboard-response","267","245417","0.0-357.0","3ERMJ6L4DZEMZGO28JCP246BEFU7M3","A15GLJU2DG7DLO","335VBRURDJMQFRMOFGHOE9WKSHX9E1","","null","<img src=""img/food2.png"" style=""width:200px; border:14px solid green;"">","null","","","","","","","","","",""
"","image-keyboard-response","268","245841","0.0-358.0","3ERMJ6L4DZEMZGO28JCP246BEFU7M3","A15GLJU2DG7DLO","335VBRURDJMQFRMOFGHOE9WKSHX9E1","","423.5","img/food2.png","76","424","3","1","","1","1","1,0.5,0,1,0.5,0,0.5,0,1","0.5,0,1,0.5,0,1,0,1,0.5","2",""
"","html-keyboard-response","269","246147","0.0-359.0","3ERMJ6L4DZEMZGO28JCP246BEFU7M3","A15GLJU2DG7DLO","335VBRURDJMQFRMOFGHOE9WKSHX9E1","","null","<img src=""img/food2.png"" style=""width:200px; border:14px solid green;"">","null","","","","","","","","","",""
"","image-keyboard-response","270","246561","0.0-360.0","3ERMJ6L4DZEMZGO28JCP246BEFU7M3","A15GLJU2DG7DLO","335VBRURDJMQFRMOFGHOE9WKSHX9E1","","413.2000000178814","img/food2.png","76","413.69999998807907","3","1","","1","1","1,0.5,0,1,0.5,0,0.5,0,1","0.5,0,1,0.5,0,1,0,1,0.5","2",""
"","html-keyboard-response","271","246864","0.0-361.0","3ERMJ6L4DZEMZGO28JCP246BEFU7M3","A15GLJU2DG7DLO","335VBRURDJMQFRMOFGHOE9WKSHX9E1","","null","<img src=""img/food2.png"" style=""width:200px; border:14px solid green;"">","null","","","","","","","","","",""
"","image-keyboard-response","272","247953","0.0-362.0","3ERMJ6L4DZEMZGO28JCP246BEFU7M3","A15GLJU2DG7DLO","335VBRURDJMQFRMOFGHOE9WKSHX9E1","","1088.2999999821186","img/food6.png","75","1088.9000000059605","2","1","","3","1","1,0.5,0,1,0.5,0,0.5,0,1","0.5,0,1,0.5,0,1,0,1,0.5","2",""
"","html-keyboard-response","273","248256","0.0-363.0","3ERMJ6L4DZEMZGO28JCP246BEFU7M3","A15GLJU2DG7DLO","335VBRURDJMQFRMOFGHOE9WKSHX9E1","","null","<img src=""img/food6.png"" style=""width:200px; border:14px solid green;"">","null","","","","","","","","","",""
"","image-keyboard-response","274","248657","0.0-364.0","3ERMJ6L4DZEMZGO28JCP246BEFU7M3","A15GLJU2DG7DLO","335VBRURDJMQFRMOFGHOE9WKSHX9E1","","400.30000001192093","img/food6.png","75","400.59999999403954","2","1","","3","1","1,0.5,0,1,0.5,0,0.5,0,1","0.5,0,1,0.5,0,1,0,1,0.5","2",""
"","html-keyboard-response","275","248963","0.0-365.0","3ERMJ6L4DZEMZGO28JCP246BEFU7M3","A15GLJU2DG7DLO","335VBRURDJMQFRMOFGHOE9WKSHX9E1","","null","<img src=""img/food6.png"" style=""width:200px; border:14px solid green;"">","null","","","","","","","","","",""
"","image-keyboard-response","276","249441","0.0-366.0","3ERMJ6L4DZEMZGO28JCP246BEFU7M3","A15GLJU2DG7DLO","335VBRURDJMQFRMOFGHOE9WKSHX9E1","","477.90000000596046","img/food6.png","75","478.40000000596046","2","1","","3","1","1,0.5,0,1,0.5,0,0.5,0,1","0.5,0,1,0.5,0,1,0,1,0.5","2",""
"","html-keyboard-response","277","249746","0.0-367.0","3ERMJ6L4DZEMZGO28JCP246BEFU7M3","A15GLJU2DG7DLO","335VBRURDJMQFRMOFGHOE9WKSHX9E1","","null","<img src=""img/food6.png"" style=""width:200px; border:14px solid green;"">","null","","","","","","","","","",""
"","image-keyboard-response","278","250441","0.0-368.0","3ERMJ6L4DZEMZGO28JCP246BEFU7M3","A15GLJU2DG7DLO","335VBRURDJMQFRMOFGHOE9WKSHX9E1","","694.8000000119209","img/food2.png","76","695.4000000059605","3","1","","1","1","1,0.5,0,1,0.5,0,0.5,0,1","0.5,0,1,0.5,0,1,0,1,0.5","2",""
"","html-keyboard-response","279","250745","0.0-369.0","3ERMJ6L4DZEMZGO28JCP246BEFU7M3","A15GLJU2DG7DLO","335VBRURDJMQFRMOFGHOE9WKSHX9E1","","null","<img src=""img/food2.png"" style=""width:200px; border:14px solid green;"">","null","","","","","","","","","",""
"","image-keyboard-response","280","251169","0.0-370.0","3ERMJ6L4DZEMZGO28JCP246BEFU7M3","A15GLJU2DG7DLO","335VBRURDJMQFRMOFGHOE9WKSHX9E1","","423.5","img/food2.png","76","424.09999999403954","3","1","","1","1","1,0.5,0,1,0.5,0,0.5,0,1","0.5,0,1,0.5,0,1,0,1,0.5","2",""
"","html-keyboard-response","281","251474","0.0-371.0","3ERMJ6L4DZEMZGO28JCP246BEFU7M3","A15GLJU2DG7DLO","335VBRURDJMQFRMOFGHOE9WKSHX9E1","","null","<img src=""img/food2.png"" style=""width:200px; border:14px solid green;"">","null","","","","","","","","","",""
"","image-keyboard-response","282","252425","0.0-372.0","3ERMJ6L4DZEMZGO28JCP246BEFU7M3","A15GLJU2DG7DLO","335VBRURDJMQFRMOFGHOE9WKSHX9E1","","951.0999999940395","img/food3.png","75","951.5","2","0","","2","1","1,0.5,0,1,0.5,0,0.5,0,1","0.5,0,1,0.5,0,1,0,1,0.5","2",""
"","html-keyboard-response","283","252730","0.0-373.0","3ERMJ6L4DZEMZGO28JCP246BEFU7M3","A15GLJU2DG7DLO","335VBRURDJMQFRMOFGHOE9WKSHX9E1","","null","<img src=""img/food3.png"" style=""width:200px;border:14px solid red;"">","null","","","","","","","","","",""
"","image-keyboard-response","284","253145","0.0-374.0","3ERMJ6L4DZEMZGO28JCP246BEFU7M3","A15GLJU2DG7DLO","335VBRURDJMQFRMOFGHOE9WKSHX9E1","","414","img/food3.png","76","414.59999999403954","3","1","","2","1","1,0.5,0,1,0.5,0,0.5,0,1","0.5,0,1,0.5,0,1,0,1,0.5","2",""
"","html-keyboard-response","285","253449","0.0-375.0","3ERMJ6L4DZEMZGO28JCP246BEFU7M3","A15GLJU2DG7DLO","335VBRURDJMQFRMOFGHOE9WKSHX9E1","","null","<img src=""img/food3.png"" style=""width:200px; border:14px solid green;"">","null","","","","","","","","","",""
"","image-keyboard-response","286","254273","0.0-376.0","3ERMJ6L4DZEMZGO28JCP246BEFU7M3","A15GLJU2DG7DLO","335VBRURDJMQFRMOFGHOE9WKSHX9E1","","823","img/food2.png","76","823.3000000119209","3","1","","1","1","1,0.5,0,1,0.5,0,0.5,0,1","0.5,0,1,0.5,0,1,0,1,0.5","2",""
"","html-keyboard-response","287","254579","0.0-377.0","3ERMJ6L4DZEMZGO28JCP246BEFU7M3","A15GLJU2DG7DLO","335VBRURDJMQFRMOFGHOE9WKSHX9E1","","null","<img src=""img/food2.png"" style=""width:200px; border:14px solid green;"">","null","","","","","","","","","",""
"","image-keyboard-response","288","255377","0.0-378.0","3ERMJ6L4DZEMZGO28JCP246BEFU7M3","A15GLJU2DG7DLO","335VBRURDJMQFRMOFGHOE9WKSHX9E1","","797.3000000119209","img/food3.png","76","797.7999999821186","3","1","","2","1","1,0.5,0,1,0.5,0,0.5,0,1","0.5,0,1,0.5,0,1,0,1,0.5","2",""
"","html-keyboard-response","289","255682","0.0-379.0","3ERMJ6L4DZEMZGO28JCP246BEFU7M3","A15GLJU2DG7DLO","335VBRURDJMQFRMOFGHOE9WKSHX9E1","","null","<img src=""img/food3.png"" style=""width:200px; border:14px solid green;"">","null","","","","","","","","","",""
"","image-keyboard-response","290","256409","0.0-380.0","3ERMJ6L4DZEMZGO28JCP246BEFU7M3","A15GLJU2DG7DLO","335VBRURDJMQFRMOFGHOE9WKSHX9E1","","726.3000000119209","img/food2.png","76","726.7999999821186","3","1","","1","1","1,0.5,0,1,0.5,0,0.5,0,1","0.5,0,1,0.5,0,1,0,1,0.5","2",""
"","html-keyboard-response","291","256712","0.0-381.0","3ERMJ6L4DZEMZGO28JCP246BEFU7M3","A15GLJU2DG7DLO","335VBRURDJMQFRMOFGHOE9WKSHX9E1","","null","<img src=""img/food2.png"" style=""width:200px; border:14px solid green;"">","null","","","","","","","","","",""
"","image-keyboard-response","292","257137","0.0-382.0","3ERMJ6L4DZEMZGO28JCP246BEFU7M3","A15GLJU2DG7DLO","335VBRURDJMQFRMOFGHOE9WKSHX9E1","","424","img/food2.png","76","424.59999999403954","3","1","","1","1","1,0.5,0,1,0.5,0,0.5,0,1","0.5,0,1,0.5,0,1,0,1,0.5","2",""
"","html-keyboard-response","293","257441","0.0-383.0","3ERMJ6L4DZEMZGO28JCP246BEFU7M3","A15GLJU2DG7DLO","335VBRURDJMQFRMOFGHOE9WKSHX9E1","","null","<img src=""img/food2.png"" style=""width:200px; border:14px solid green;"">","null","","","","","","","","","",""
"","image-keyboard-response","294","258305","0.0-384.0","3ERMJ6L4DZEMZGO28JCP246BEFU7M3","A15GLJU2DG7DLO","335VBRURDJMQFRMOFGHOE9WKSHX9E1","","863.5","img/food6.png","75","863.8999999761581","2","1","","3","1","1,0.5,0,1,0.5,0,0.5,0,1","0.5,0,1,0.5,0,1,0,1,0.5","2",""
"","html-keyboard-response","295","258608","0.0-385.0","3ERMJ6L4DZEMZGO28JCP246BEFU7M3","A15GLJU2DG7DLO","335VBRURDJMQFRMOFGHOE9WKSHX9E1","","null","<img src=""img/food6.png"" style=""width:200px; border:14px solid green;"">","null","","","","","","","","","",""
"","image-keyboard-response","296","259185","0.0-386.0","3ERMJ6L4DZEMZGO28JCP246BEFU7M3","A15GLJU2DG7DLO","335VBRURDJMQFRMOFGHOE9WKSHX9E1","","576.4000000059605","img/food2.png","76","577","3","1","","1","1","1,0.5,0,1,0.5,0,0.5,0,1","0.5,0,1,0.5,0,1,0,1,0.5","2",""
"","html-keyboard-response","297","259490","0.0-387.0","3ERMJ6L4DZEMZGO28JCP246BEFU7M3","A15GLJU2DG7DLO","335VBRURDJMQFRMOFGHOE9WKSHX9E1","","null","<img src=""img/food2.png"" style=""width:200px; border:14px solid green;"">","null","","","","","","","","","",""
"","image-keyboard-response","298","260041","0.0-388.0","3ERMJ6L4DZEMZGO28JCP246BEFU7M3","A15GLJU2DG7DLO","335VBRURDJMQFRMOFGHOE9WKSHX9E1","","550.2000000178814","img/food3.png","76","550.6999999880791","3","1","","2","1","1,0.5,0,1,0.5,0,0.5,0,1","0.5,0,1,0.5,0,1,0,1,0.5","2",""
"","html-keyboard-response","299","260346","0.0-389.0","3ERMJ6L4DZEMZGO28JCP246BEFU7M3","A15GLJU2DG7DLO","335VBRURDJMQFRMOFGHOE9WKSHX9E1","","null","<img src=""img/food3.png"" style=""width:200px; border:14px solid green;"">","null","","","","","","","","","",""
"","image-keyboard-response","300","261057","0.0-390.0","3ERMJ6L4DZEMZGO28JCP246BEFU7M3","A15GLJU2DG7DLO","335VBRURDJMQFRMOFGHOE9WKSHX9E1","","710.4000000059605","img/food6.png","75","711","2","1","","3","1","1,0.5,0,1,0.5,0,0.5,0,1","0.5,0,1,0.5,0,1,0,1,0.5","2",""
"","html-keyboard-response","301","261362","0.0-391.0","3ERMJ6L4DZEMZGO28JCP246BEFU7M3","A15GLJU2DG7DLO","335VBRURDJMQFRMOFGHOE9WKSHX9E1","","null","<img src=""img/food6.png"" style=""width:200px; border:14px solid green;"">","null","","","","","","","","","",""
"","image-keyboard-response","302","261897","0.0-392.0","3ERMJ6L4DZEMZGO28JCP246BEFU7M3","A15GLJU2DG7DLO","335VBRURDJMQFRMOFGHOE9WKSHX9E1","","534","img/food2.png","76","534.5","3","1","","1","1","1,0.5,0,1,0.5,0,0.5,0,1","0.5,0,1,0.5,0,1,0,1,0.5","2",""
"","html-keyboard-response","303","262204","0.0-393.0","3ERMJ6L4DZEMZGO28JCP246BEFU7M3","A15GLJU2DG7DLO","335VBRURDJMQFRMOFGHOE9WKSHX9E1","","null","<img src=""img/food2.png"" style=""width:200px; border:14px solid green;"">","null","","","","","","","","","",""
"","image-keyboard-response","304","262833","0.0-394.0","3ERMJ6L4DZEMZGO28JCP246BEFU7M3","A15GLJU2DG7DLO","335VBRURDJMQFRMOFGHOE9WKSHX9E1","","628.6999999880791","img/food3.png","76","629.2000000178814","3","1","","2","1","1,0.5,0,1,0.5,0,0.5,0,1","0.5,0,1,0.5,0,1,0,1,0.5","2",""
"","html-keyboard-response","305","263139","0.0-395.0","3ERMJ6L4DZEMZGO28JCP246BEFU7M3","A15GLJU2DG7DLO","335VBRURDJMQFRMOFGHOE9WKSHX9E1","","null","<img src=""img/food3.png"" style=""width:200px; border:14px solid green;"">","null","","","","","","","","","",""
"","image-keyboard-response","306","263889","0.0-396.0","3ERMJ6L4DZEMZGO28JCP246BEFU7M3","A15GLJU2DG7DLO","335VBRURDJMQFRMOFGHOE9WKSHX9E1","","749.5","img/food6.png","75","750.0999999940395","2","1","","3","1","1,0.5,0,1,0.5,0,0.5,0,1","0.5,0,1,0.5,0,1,0,1,0.5","2",""
"","html-keyboard-response","307","264195","0.0-397.0","3ERMJ6L4DZEMZGO28JCP246BEFU7M3","A15GLJU2DG7DLO","335VBRURDJMQFRMOFGHOE9WKSHX9E1","","null","<img src=""img/food6.png"" style=""width:200px; border:14px solid green;"">","null","","","","","","","","","",""
"","image-keyboard-response","308","264777","0.0-398.0","3ERMJ6L4DZEMZGO28JCP246BEFU7M3","A15GLJU2DG7DLO","335VBRURDJMQFRMOFGHOE9WKSHX9E1","","581.5999999940395","img/food3.png","76","582.2000000178814","3","1","","2","1","1,0.5,0,1,0.5,0,0.5,0,1","0.5,0,1,0.5,0,1,0,1,0.5","2",""
"","html-keyboard-response","309","265082","0.0-399.0","3ERMJ6L4DZEMZGO28JCP246BEFU7M3","A15GLJU2DG7DLO","335VBRURDJMQFRMOFGHOE9WKSHX9E1","","null","<img src=""img/food3.png"" style=""width:200px; border:14px solid green;"">","null","","","","","","","","","",""
"","image-keyboard-response","310","265841","0.0-400.0","3ERMJ6L4DZEMZGO28JCP246BEFU7M3","A15GLJU2DG7DLO","335VBRURDJMQFRMOFGHOE9WKSHX9E1","","758.1000000238419","img/food6.png","75","758.6999999880791","2","1","","3","1","1,0.5,0,1,0.5,0,0.5,0,1","0.5,0,1,0.5,0,1,0,1,0.5","2",""
"","html-keyboard-response","311","266145","0.0-401.0","3ERMJ6L4DZEMZGO28JCP246BEFU7M3","A15GLJU2DG7DLO","335VBRURDJMQFRMOFGHOE9WKSHX9E1","","null","<img src=""img/food6.png"" style=""width:200px; border:14px solid green;"">","null","","","","","","","","","",""
"","image-keyboard-response","312","266777","0.0-402.0","3ERMJ6L4DZEMZGO28JCP246BEFU7M3","A15GLJU2DG7DLO","335VBRURDJMQFRMOFGHOE9WKSHX9E1","","631.2000000178814","img/food3.png","76","631.5999999940395","3","1","","2","1","1,0.5,0,1,0.5,0,0.5,0,1","0.5,0,1,0.5,0,1,0,1,0.5","2",""
"","html-keyboard-response","313","267079","0.0-403.0","3ERMJ6L4DZEMZGO28JCP246BEFU7M3","A15GLJU2DG7DLO","335VBRURDJMQFRMOFGHOE9WKSHX9E1","","null","<img src=""img/food3.png"" style=""width:200px; border:14px solid green;"">","null","","","","","","","","","",""
"","image-keyboard-response","314","267569","0.0-404.0","3ERMJ6L4DZEMZGO28JCP246BEFU7M3","A15GLJU2DG7DLO","335VBRURDJMQFRMOFGHOE9WKSHX9E1","","489","img/food3.png","76","489.5","3","1","","2","1","1,0.5,0,1,0.5,0,0.5,0,1","0.5,0,1,0.5,0,1,0,1,0.5","2",""
"","html-keyboard-response","315","267871","0.0-405.0","3ERMJ6L4DZEMZGO28JCP246BEFU7M3","A15GLJU2DG7DLO","335VBRURDJMQFRMOFGHOE9WKSHX9E1","","null","<img src=""img/food3.png"" style=""width:200px; border:14px solid green;"">","null","","","","","","","","","",""
"","image-keyboard-response","316","268385","0.0-406.0","3ERMJ6L4DZEMZGO28JCP246BEFU7M3","A15GLJU2DG7DLO","335VBRURDJMQFRMOFGHOE9WKSHX9E1","","513.4000000059605","img/food3.png","76","514","3","1","","2","1","1,0.5,0,1,0.5,0,0.5,0,1","0.5,0,1,0.5,0,1,0,1,0.5","2",""
"","html-keyboard-response","317","268687","0.0-407.0","3ERMJ6L4DZEMZGO28JCP246BEFU7M3","A15GLJU2DG7DLO","335VBRURDJMQFRMOFGHOE9WKSHX9E1","","null","<img src=""img/food3.png"" style=""width:200px; border:14px solid green;"">","null","","","","","","","","","",""
"","image-keyboard-response","318","269497","0.0-408.0","3ERMJ6L4DZEMZGO28JCP246BEFU7M3","A15GLJU2DG7DLO","335VBRURDJMQFRMOFGHOE9WKSHX9E1","","809.1999999880791","img/food2.png","76","809.8000000119209","3","1","","1","1","1,0.5,0,1,0.5,0,0.5,0,1","0.5,0,1,0.5,0,1,0,1,0.5","2",""
"","html-keyboard-response","319","269802","0.0-409.0","3ERMJ6L4DZEMZGO28JCP246BEFU7M3","A15GLJU2DG7DLO","335VBRURDJMQFRMOFGHOE9WKSHX9E1","","null","<img src=""img/food2.png"" style=""width:200px; border:14px solid green;"">","null","","","","","","","","","",""
"","image-keyboard-response","320","270769","0.0-410.0","3ERMJ6L4DZEMZGO28JCP246BEFU7M3","A15GLJU2DG7DLO","335VBRURDJMQFRMOFGHOE9WKSHX9E1","","965.6999999880791","img/food3.png","76","966.2000000178814","3","1","","2","1","1,0.5,0,1,0.5,0,0.5,0,1","0.5,0,1,0.5,0,1,0,1,0.5","2",""
"","html-keyboard-response","321","271073","0.0-411.0","3ERMJ6L4DZEMZGO28JCP246BEFU7M3","A15GLJU2DG7DLO","335VBRURDJMQFRMOFGHOE9WKSHX9E1","","null","<img src=""img/food3.png"" style=""width:200px; border:14px solid green;"">","null","","","","","","","","","",""
"","image-keyboard-response","322","271577","0.0-412.0","3ERMJ6L4DZEMZGO28JCP246BEFU7M3","A15GLJU2DG7DLO","335VBRURDJMQFRMOFGHOE9WKSHX9E1","","502.69999998807907","img/food3.png","76","503.30000001192093","3","1","","2","1","1,0.5,0,1,0.5,0,0.5,0,1","0.5,0,1,0.5,0,1,0,1,0.5","2",""
"","html-keyboard-response","323","271879","0.0-413.0","3ERMJ6L4DZEMZGO28JCP246BEFU7M3","A15GLJU2DG7DLO","335VBRURDJMQFRMOFGHOE9WKSHX9E1","","null","<img src=""img/food3.png"" style=""width:200px; border:14px solid green;"">","null","","","","","","","","","",""
"","image-keyboard-response","324","272369","0.0-414.0","3ERMJ6L4DZEMZGO28JCP246BEFU7M3","A15GLJU2DG7DLO","335VBRURDJMQFRMOFGHOE9WKSHX9E1","","488.90000000596046","img/food3.png","76","489.30000001192093","3","1","","2","1","1,0.5,0,1,0.5,0,0.5,0,1","0.5,0,1,0.5,0,1,0,1,0.5","2",""
"","html-keyboard-response","325","272670","0.0-415.0","3ERMJ6L4DZEMZGO28JCP246BEFU7M3","A15GLJU2DG7DLO","335VBRURDJMQFRMOFGHOE9WKSHX9E1","","null","<img src=""img/food3.png"" style=""width:200px; border:14px solid green;"">","null","","","","","","","","","",""
"","image-keyboard-response","326","273497","0.0-416.0","3ERMJ6L4DZEMZGO28JCP246BEFU7M3","A15GLJU2DG7DLO","335VBRURDJMQFRMOFGHOE9WKSHX9E1","","825.9000000059605","img/food6.png","75","826.2999999821186","2","1","","3","1","1,0.5,0,1,0.5,0,0.5,0,1","0.5,0,1,0.5,0,1,0,1,0.5","2",""
"","html-keyboard-response","327","273802","0.0-417.0","3ERMJ6L4DZEMZGO28JCP246BEFU7M3","A15GLJU2DG7DLO","335VBRURDJMQFRMOFGHOE9WKSHX9E1","","null","<img src=""img/food6.png"" style=""width:200px; border:14px solid green;"">","null","","","","","","","","","",""
"","image-keyboard-response","328","274385","0.0-418.0","3ERMJ6L4DZEMZGO28JCP246BEFU7M3","A15GLJU2DG7DLO","335VBRURDJMQFRMOFGHOE9WKSHX9E1","","582","img/food2.png","76","582.5","3","1","","1","1","1,0.5,0,1,0.5,0,0.5,0,1","0.5,0,1,0.5,0,1,0,1,0.5","2",""
"","html-keyboard-response","329","274689","0.0-419.0","3ERMJ6L4DZEMZGO28JCP246BEFU7M3","A15GLJU2DG7DLO","335VBRURDJMQFRMOFGHOE9WKSHX9E1","","null","<img src=""img/food2.png"" style=""width:200px; border:14px solid green;"">","null","","","","","","","","","",""
"","image-keyboard-response","330","275165","0.0-420.0","3ERMJ6L4DZEMZGO28JCP246BEFU7M3","A15GLJU2DG7DLO","335VBRURDJMQFRMOFGHOE9WKSHX9E1","","475.40000000596046","img/food2.png","76","476","3","1","","1","1","1,0.5,0,1,0.5,0,0.5,0,1","0.5,0,1,0.5,0,1,0,1,0.5","2",""
"","html-keyboard-response","331","275468","0.0-421.0","3ERMJ6L4DZEMZGO28JCP246BEFU7M3","A15GLJU2DG7DLO","335VBRURDJMQFRMOFGHOE9WKSHX9E1","","null","<img src=""img/food2.png"" style=""width:200px; border:14px solid green;"">","null","","","","","","","","","",""
"","image-keyboard-response","332","276273","0.0-422.0","3ERMJ6L4DZEMZGO28JCP246BEFU7M3","A15GLJU2DG7DLO","335VBRURDJMQFRMOFGHOE9WKSHX9E1","","804.3000000119209","img/food3.png","76","804.8000000119209","3","1","","2","1","1,0.5,0,1,0.5,0,0.5,0,1","0.5,0,1,0.5,0,1,0,1,0.5","2",""
"","html-keyboard-response","333","276577","0.0-423.0","3ERMJ6L4DZEMZGO28JCP246BEFU7M3","A15GLJU2DG7DLO","335VBRURDJMQFRMOFGHOE9WKSHX9E1","","null","<img src=""img/food3.png"" style=""width:200px; border:14px solid green;"">","null","","","","","","","","","",""
"","image-keyboard-response","334","277185","0.0-424.0","3ERMJ6L4DZEMZGO28JCP246BEFU7M3","A15GLJU2DG7DLO","335VBRURDJMQFRMOFGHOE9WKSHX9E1","","607.1999999880791","img/food2.png","76","607.7999999821186","3","1","","1","1","1,0.5,0,1,0.5,0,0.5,0,1","0.5,0,1,0.5,0,1,0,1,0.5","2",""
"","html-keyboard-response","335","277488","0.0-425.0","3ERMJ6L4DZEMZGO28JCP246BEFU7M3","A15GLJU2DG7DLO","335VBRURDJMQFRMOFGHOE9WKSHX9E1","","null","<img src=""img/food2.png"" style=""width:200px; border:14px solid green;"">","null","","","","","","","","","",""
"","image-keyboard-response","336","278081","0.0-426.0","3ERMJ6L4DZEMZGO28JCP246BEFU7M3","A15GLJU2DG7DLO","335VBRURDJMQFRMOFGHOE9WKSHX9E1","","592.4000000059605","img/food3.png","76","592.9000000059605","3","1","","2","1","1,0.5,0,1,0.5,0,0.5,0,1","0.5,0,1,0.5,0,1,0,1,0.5","2",""
"","html-keyboard-response","337","278384","0.0-427.0","3ERMJ6L4DZEMZGO28JCP246BEFU7M3","A15GLJU2DG7DLO","335VBRURDJMQFRMOFGHOE9WKSHX9E1","","null","<img src=""img/food3.png"" style=""width:200px; border:14px solid green;"">","null","","","","","","","","","",""
"","image-keyboard-response","338","278849","0.0-428.0","3ERMJ6L4DZEMZGO28JCP246BEFU7M3","A15GLJU2DG7DLO","335VBRURDJMQFRMOFGHOE9WKSHX9E1","","464.2000000178814","img/food6.png","75","464.59999999403954","2","1","","3","1","1,0.5,0,1,0.5,0,0.5,0,1","0.5,0,1,0.5,0,1,0,1,0.5","2",""
"","html-keyboard-response","339","279154","0.0-429.0","3ERMJ6L4DZEMZGO28JCP246BEFU7M3","A15GLJU2DG7DLO","335VBRURDJMQFRMOFGHOE9WKSHX9E1","","null","<img src=""img/food6.png"" style=""width:200px; border:14px solid green;"">","null","","","","","","","","","",""
"","image-keyboard-response","340","279689","0.0-430.0","3ERMJ6L4DZEMZGO28JCP246BEFU7M3","A15GLJU2DG7DLO","335VBRURDJMQFRMOFGHOE9WKSHX9E1","","533.7000000178814","img/food2.png","76","534.3000000119209","3","1","","1","1","1,0.5,0,1,0.5,0,0.5,0,1","0.5,0,1,0.5,0,1,0,1,0.5","2",""
"","html-keyboard-response","341","279990","0.0-431.0","3ERMJ6L4DZEMZGO28JCP246BEFU7M3","A15GLJU2DG7DLO","335VBRURDJMQFRMOFGHOE9WKSHX9E1","","null","<img src=""img/food2.png"" style=""width:200px; border:14px solid green;"">","null","","","","","","","","","",""
"","image-keyboard-response","342","280705","0.0-432.0","3ERMJ6L4DZEMZGO28JCP246BEFU7M3","A15GLJU2DG7DLO","335VBRURDJMQFRMOFGHOE9WKSHX9E1","","714.2000000178814","img/food3.png","76","714.6999999880791","3","1","","2","1","1,0.5,0,1,0.5,0,0.5,0,1","0.5,0,1,0.5,0,1,0,1,0.5","2",""
"","html-keyboard-response","343","281008","0.0-433.0","3ERMJ6L4DZEMZGO28JCP246BEFU7M3","A15GLJU2DG7DLO","335VBRURDJMQFRMOFGHOE9WKSHX9E1","","null","<img src=""img/food3.png"" style=""width:200px; border:14px solid green;"">","null","","","","","","","","","",""
"","image-keyboard-response","344","281705","0.0-434.0","3ERMJ6L4DZEMZGO28JCP246BEFU7M3","A15GLJU2DG7DLO","335VBRURDJMQFRMOFGHOE9WKSHX9E1","","695.9000000059605","img/food6.png","75","696.2999999821186","2","1","","3","1","1,0.5,0,1,0.5,0,0.5,0,1","0.5,0,1,0.5,0,1,0,1,0.5","2",""
"","html-keyboard-response","345","282007","0.0-435.0","3ERMJ6L4DZEMZGO28JCP246BEFU7M3","A15GLJU2DG7DLO","335VBRURDJMQFRMOFGHOE9WKSHX9E1","","null","<img src=""img/food6.png"" style=""width:200px; border:14px solid green;"">","null","","","","","","","","","",""
"","image-keyboard-response","346","282577","0.0-436.0","3ERMJ6L4DZEMZGO28JCP246BEFU7M3","A15GLJU2DG7DLO","335VBRURDJMQFRMOFGHOE9WKSHX9E1","","568.6000000238419","img/food3.png","76","569.0999999940395","3","1","","2","1","1,0.5,0,1,0.5,0,0.5,0,1","0.5,0,1,0.5,0,1,0,1,0.5","2",""
"","html-keyboard-response","347","282881","0.0-437.0","3ERMJ6L4DZEMZGO28JCP246BEFU7M3","A15GLJU2DG7DLO","335VBRURDJMQFRMOFGHOE9WKSHX9E1","","null","<img src=""img/food3.png"" style=""width:200px; border:14px solid green;"">","null","","","","","","","","","",""
"","image-keyboard-response","348","283417","0.0-438.0","3ERMJ6L4DZEMZGO28JCP246BEFU7M3","A15GLJU2DG7DLO","335VBRURDJMQFRMOFGHOE9WKSHX9E1","","535.2000000178814","img/food2.png","76","535.6999999880791","3","1","","1","1","1,0.5,0,1,0.5,0,0.5,0,1","0.5,0,1,0.5,0,1,0,1,0.5","2",""
"","html-keyboard-response","349","283723","0.0-439.0","3ERMJ6L4DZEMZGO28JCP246BEFU7M3","A15GLJU2DG7DLO","335VBRURDJMQFRMOFGHOE9WKSHX9E1","","null","<img src=""img/food2.png"" style=""width:200px; border:14px solid green;"">","null","","","","","","","","","",""
"","image-keyboard-response","350","284289","0.0-440.0","3ERMJ6L4DZEMZGO28JCP246BEFU7M3","A15GLJU2DG7DLO","335VBRURDJMQFRMOFGHOE9WKSHX9E1","","564.9000000059605","img/food3.png","76","565.5","3","1","","2","1","1,0.5,0,1,0.5,0,0.5,0,1","0.5,0,1,0.5,0,1,0,1,0.5","2",""
"","html-keyboard-response","351","284593","0.0-441.0","3ERMJ6L4DZEMZGO28JCP246BEFU7M3","A15GLJU2DG7DLO","335VBRURDJMQFRMOFGHOE9WKSHX9E1","","null","<img src=""img/food3.png"" style=""width:200px; border:14px solid green;"">","null","","","","","","","","","",""
"","image-keyboard-response","352","285160","0.0-442.0","3ERMJ6L4DZEMZGO28JCP246BEFU7M3","A15GLJU2DG7DLO","335VBRURDJMQFRMOFGHOE9WKSHX9E1","","566.6000000238419","img/food6.png","75","567.0999999940395","2","1","","3","1","1,0.5,0,1,0.5,0,0.5,0,1","0.5,0,1,0.5,0,1,0,1,0.5","2",""
"","html-keyboard-response","353","285463","0.0-443.0","3ERMJ6L4DZEMZGO28JCP246BEFU7M3","A15GLJU2DG7DLO","335VBRURDJMQFRMOFGHOE9WKSHX9E1","","null","<img src=""img/food6.png"" style=""width:200px; border:14px solid green;"">","null","","","","","","","","","",""
"","image-keyboard-response","354","286041","0.0-444.0","3ERMJ6L4DZEMZGO28JCP246BEFU7M3","A15GLJU2DG7DLO","335VBRURDJMQFRMOFGHOE9WKSHX9E1","","576.9000000059605","img/food6.png","75","577.5","2","1","","3","1","1,0.5,0,1,0.5,0,0.5,0,1","0.5,0,1,0.5,0,1,0,1,0.5","2",""
"","html-keyboard-response","355","286344","0.0-445.0","3ERMJ6L4DZEMZGO28JCP246BEFU7M3","A15GLJU2DG7DLO","335VBRURDJMQFRMOFGHOE9WKSHX9E1","","null","<img src=""img/food6.png"" style=""width:200px; border:14px solid green;"">","null","","","","","","","","","",""
"","image-keyboard-response","356","287256","0.0-446.0","3ERMJ6L4DZEMZGO28JCP246BEFU7M3","A15GLJU2DG7DLO","335VBRURDJMQFRMOFGHOE9WKSHX9E1","","912.0999999940395","img/food3.png","76","912.6999999880791","3","1","","2","1","1,0.5,0,1,0.5,0,0.5,0,1","0.5,0,1,0.5,0,1,0,1,0.5","2",""
"","html-keyboard-response","357","287563","0.0-447.0","3ERMJ6L4DZEMZGO28JCP246BEFU7M3","A15GLJU2DG7DLO","335VBRURDJMQFRMOFGHOE9WKSHX9E1","","null","<img src=""img/food3.png"" style=""width:200px; border:14px solid green;"">","null","","","","","","","","","",""
"","image-keyboard-response","358","288305","0.0-448.0","3ERMJ6L4DZEMZGO28JCP246BEFU7M3","A15GLJU2DG7DLO","335VBRURDJMQFRMOFGHOE9WKSHX9E1","","741.4000000059605","img/food6.png","75","741.9000000059605","2","1","","3","1","1,0.5,0,1,0.5,0,0.5,0,1","0.5,0,1,0.5,0,1,0,1,0.5","2",""
"","html-keyboard-response","359","288610","0.0-449.0","3ERMJ6L4DZEMZGO28JCP246BEFU7M3","A15GLJU2DG7DLO","335VBRURDJMQFRMOFGHOE9WKSHX9E1","","null","<img src=""img/food6.png"" style=""width:200px; border:14px solid green;"">","null","","","","","","","","","",""
"","image-keyboard-response","360","289193","0.0-450.0","3ERMJ6L4DZEMZGO28JCP246BEFU7M3","A15GLJU2DG7DLO","335VBRURDJMQFRMOFGHOE9WKSHX9E1","","581.6000000238419","img/food2.png","76","582.1999999880791","3","1","","1","1","1,0.5,0,1,0.5,0,0.5,0,1","0.5,0,1,0.5,0,1,0,1,0.5","2",""
"","html-keyboard-response","361","289495","0.0-451.0","3ERMJ6L4DZEMZGO28JCP246BEFU7M3","A15GLJU2DG7DLO","335VBRURDJMQFRMOFGHOE9WKSHX9E1","","null","<img src=""img/food2.png"" style=""width:200px; border:14px solid green;"">","null","","","","","","","","","",""
"","image-keyboard-response","362","290097","0.0-452.0","3ERMJ6L4DZEMZGO28JCP246BEFU7M3","A15GLJU2DG7DLO","335VBRURDJMQFRMOFGHOE9WKSHX9E1","","600.8000000119209","img/food6.png","75","601.3999999761581","2","1","","3","1","1,0.5,0,1,0.5,0,0.5,0,1","0.5,0,1,0.5,0,1,0,1,0.5","2",""
"","html-keyboard-response","363","290401","0.0-453.0","3ERMJ6L4DZEMZGO28JCP246BEFU7M3","A15GLJU2DG7DLO","335VBRURDJMQFRMOFGHOE9WKSHX9E1","","null","<img src=""img/food6.png"" style=""width:200px; border:14px solid green;"">","null","","","","","","","","","",""
"","html-keyboard-response","364","294617","0.0-454.0","3ERMJ6L4DZEMZGO28JCP246BEFU7M3","A15GLJU2DG7DLO","335VBRURDJMQFRMOFGHOE9WKSHX9E1","","","","","","","","","","","","","",""
"","instructions","365","298187","0.0-455.0","3ERMJ6L4DZEMZGO28JCP246BEFU7M3","A15GLJU2DG7DLO","335VBRURDJMQFRMOFGHOE9WKSHX9E1","[{""page_index"":0,""viewing_time"":3569.4000000059605}]","3569.5","","","","","","","","","","","",""
"","survey-text","366","305893","0.0-456.0","3ERMJ6L4DZEMZGO28JCP246BEFU7M3","A15GLJU2DG7DLO","335VBRURDJMQFRMOFGHOE9WKSHX9E1","","7704.200000017881","","","","","","","","","","","","{""Q0"":""A15GLJU2DG7DLO""}"
