"success","trial_type","trial_index","time_elapsed","internal_node_id","assignmentID","mturkID","hitID","view_history","rt","stimulus","key_press","reactionTime","a","r","s","cond","reward_cond","reward_cond_actual","reward_matrix_idx","warning","responses"
"true","fullscreen","0","2944","0.0-0.0","3AMW0RGHOEOHN4D2G6L6F5MWJO4PN0","A16335MOISDG1F","3D1UCPY6GGVNRONHL4UEVMXCHLT38H","","","","","","","","","","","","","",""
"","instructions","1","28834","0.0-1.0","3AMW0RGHOEOHN4D2G6L6F5MWJO4PN0","A16335MOISDG1F","3D1UCPY6GGVNRONHL4UEVMXCHLT38H","[{""page_index"":0,""viewing_time"":1798.0999999996275},{""page_index"":1,""viewing_time"":1324.9000000003725},{""page_index"":2,""viewing_time"":3305},{""page_index"":3,""viewing_time"":5726.9000000003725},{""page_index"":4,""viewing_time"":6853.9000000003725},{""page_index"":5,""viewing_time"":2267.0999999996275},{""page_index"":6,""viewing_time"":4610}]","25886.199999999255","","","","","","","","","","","",""
"","image-keyboard-response","2","29720","0.0-2.0","3AMW0RGHOEOHN4D2G6L6F5MWJO4PN0","A16335MOISDG1F","3D1UCPY6GGVNRONHL4UEVMXCHLT38H","","884.3000000007451","img/food3.png","74","886.5","1","1","3","1","1,0.5,0,1,0.5,0,0.5,0,1","1,0.5,0,1,0.5,0,0.5,0,1","1","",""
"","html-keyboard-response","3","30024","0.0-3.0","3AMW0RGHOEOHN4D2G6L6F5MWJO4PN0","A16335MOISDG1F","3D1UCPY6GGVNRONHL4UEVMXCHLT38H","","null","<img src=""img/food3.png"" style=""width:200px; border:14px solid green;"">","null","","","","","","","","","",""
"","image-keyboard-response","4","31012","0.0-4.0","3AMW0RGHOEOHN4D2G6L6F5MWJO4PN0","A16335MOISDG1F","3D1UCPY6GGVNRONHL4UEVMXCHLT38H","","986.4000000003725","img/food4.png","74","987.5","1","1","1","1","1,0.5,0,1,0.5,0,0.5,0,1","1,0.5,0,1,0.5,0,0.5,0,1","1","",""
"","html-keyboard-response","5","31315","0.0-5.0","3AMW0RGHOEOHN4D2G6L6F5MWJO4PN0","A16335MOISDG1F","3D1UCPY6GGVNRONHL4UEVMXCHLT38H","","null","<img src=""img/food4.png"" style=""width:200px; border:14px solid green;"">","null","","","","","","","","","",""
"","image-keyboard-response","6","32185","0.0-6.0","3AMW0RGHOEOHN4D2G6L6F5MWJO4PN0","A16335MOISDG1F","3D1UCPY6GGVNRONHL4UEVMXCHLT38H","","868.7000000011176","img/food4.png","74","869.6000000014901","1","1","1","1","1,0.5,0,1,0.5,0,0.5,0,1","1,0.5,0,1,0.5,0,0.5,0,1","1","",""
"","html-keyboard-response","7","32498","0.0-7.0","3AMW0RGHOEOHN4D2G6L6F5MWJO4PN0","A16335MOISDG1F","3D1UCPY6GGVNRONHL4UEVMXCHLT38H","","null","<img src=""img/food4.png"" style=""width:200px; border:14px solid green;"">","null","","","","","","","","","",""
"","image-keyboard-response","8","33337","0.0-8.0","3AMW0RGHOEOHN4D2G6L6F5MWJO4PN0","A16335MOISDG1F","3D1UCPY6GGVNRONHL4UEVMXCHLT38H","","837","img/food1.png","74","838.1999999992549","1","1","2","1","1,0.5,0,1,0.5,0,0.5,0,1","1,0.5,0,1,0.5,0,0.5,0,1","1","",""
"","html-keyboard-response","9","33640","0.0-9.0","3AMW0RGHOEOHN4D2G6L6F5MWJO4PN0","A16335MOISDG1F","3D1UCPY6GGVNRONHL4UEVMXCHLT38H","","null","<img src=""img/food1.png"" style=""width:200px; border:14px solid green;"">","null","","","","","","","","","",""
"","image-keyboard-response","10","34395","0.0-10.0","3AMW0RGHOEOHN4D2G6L6F5MWJO4PN0","A16335MOISDG1F","3D1UCPY6GGVNRONHL4UEVMXCHLT38H","","753.4000000003725","img/food1.png","74","754.6999999992549","1","1","2","1","1,0.5,0,1,0.5,0,0.5,0,1","1,0.5,0,1,0.5,0,0.5,0,1","1","",""
"","html-keyboard-response","11","34697","0.0-11.0","3AMW0RGHOEOHN4D2G6L6F5MWJO4PN0","A16335MOISDG1F","3D1UCPY6GGVNRONHL4UEVMXCHLT38H","","null","<img src=""img/food1.png"" style=""width:200px; border:14px solid green;"">","null","","","","","","","","","",""
"","image-keyboard-response","12","35447","0.0-12.0","3AMW0RGHOEOHN4D2G6L6F5MWJO4PN0","A16335MOISDG1F","3D1UCPY6GGVNRONHL4UEVMXCHLT38H","","748.0999999996275","img/food1.png","74","749.2999999988824","1","1","2","1","1,0.5,0,1,0.5,0,0.5,0,1","1,0.5,0,1,0.5,0,0.5,0,1","1","",""
"","html-keyboard-response","13","35749","0.0-13.0","3AMW0RGHOEOHN4D2G6L6F5MWJO4PN0","A16335MOISDG1F","3D1UCPY6GGVNRONHL4UEVMXCHLT38H","","null","<img src=""img/food1.png"" style=""width:200px; border:14px solid green;"">","null","","","","","","","","","",""
"","image-keyboard-response","14","36594","0.0-14.0","3AMW0RGHOEOHN4D2G6L6F5MWJO4PN0","A16335MOISDG1F","3D1UCPY6GGVNRONHL4UEVMXCHLT38H","","843.6999999992549","img/food4.png","74","845.1999999992549","1","1","1","1","1,0.5,0,1,0.5,0,0.5,0,1","1,0.5,0,1,0.5,0,0.5,0,1","1","",""
"","html-keyboard-response","15","36897","0.0-15.0","3AMW0RGHOEOHN4D2G6L6F5MWJO4PN0","A16335MOISDG1F","3D1UCPY6GGVNRONHL4UEVMXCHLT38H","","null","<img src=""img/food4.png"" style=""width:200px; border:14px solid green;"">","null","","","","","","","","","",""
"","image-keyboard-response","16","37672","0.0-16.0","3AMW0RGHOEOHN4D2G6L6F5MWJO4PN0","A16335MOISDG1F","3D1UCPY6GGVNRONHL4UEVMXCHLT38H","","773.3000000007451","img/food3.png","74","774.9000000003725","1","0","3","1","1,0.5,0,1,0.5,0,0.5,0,1","1,0.5,0,1,0.5,0,0.5,0,1","1","",""
"","html-keyboard-response","17","37976","0.0-17.0","3AMW0RGHOEOHN4D2G6L6F5MWJO4PN0","A16335MOISDG1F","3D1UCPY6GGVNRONHL4UEVMXCHLT38H","","null","<img src=""img/food3.png"" style=""width:200px;border:14px solid red;"">","null","","","","","","","","","",""
"","image-keyboard-response","18","38709","0.0-18.0","3AMW0RGHOEOHN4D2G6L6F5MWJO4PN0","A16335MOISDG1F","3D1UCPY6GGVNRONHL4UEVMXCHLT38H","","731.5999999996275","img/food4.png","74","733.2999999988824","1","1","1","1","1,0.5,0,1,0.5,0,0.5,0,1","1,0.5,0,1,0.5,0,0.5,0,1","1","",""
"","html-keyboard-response","19","39022","0.0-19.0","3AMW0RGHOEOHN4D2G6L6F5MWJO4PN0","A16335MOISDG1F","3D1UCPY6GGVNRONHL4UEVMXCHLT38H","","null","<img src=""img/food4.png"" style=""width:200px; border:14px solid green;"">","null","","","","","","","","","",""
"","image-keyboard-response","20","39738","0.0-20.0","3AMW0RGHOEOHN4D2G6L6F5MWJO4PN0","A16335MOISDG1F","3D1UCPY6GGVNRONHL4UEVMXCHLT38H","","713.5999999996275","img/food4.png","74","715.0999999996275","1","1","1","1","1,0.5,0,1,0.5,0,0.5,0,1","1,0.5,0,1,0.5,0,0.5,0,1","1","",""
"","html-keyboard-response","21","40040","0.0-21.0","3AMW0RGHOEOHN4D2G6L6F5MWJO4PN0","A16335MOISDG1F","3D1UCPY6GGVNRONHL4UEVMXCHLT38H","","null","<img src=""img/food4.png"" style=""width:200px; border:14px solid green;"">","null","","","","","","","","","",""
"","image-keyboard-response","22","40795","0.0-22.0","3AMW0RGHOEOHN4D2G6L6F5MWJO4PN0","A16335MOISDG1F","3D1UCPY6GGVNRONHL4UEVMXCHLT38H","","752.2999999988824","img/food1.png","74","753.8999999985099","1","1","2","1","1,0.5,0,1,0.5,0,0.5,0,1","1,0.5,0,1,0.5,0,0.5,0,1","1","",""
"","html-keyboard-response","23","41097","0.0-23.0","3AMW0RGHOEOHN4D2G6L6F5MWJO4PN0","A16335MOISDG1F","3D1UCPY6GGVNRONHL4UEVMXCHLT38H","","null","<img src=""img/food1.png"" style=""width:200px; border:14px solid green;"">","null","","","","","","","","","",""
"","image-keyboard-response","24","41886","0.0-24.0","3AMW0RGHOEOHN4D2G6L6F5MWJO4PN0","A16335MOISDG1F","3D1UCPY6GGVNRONHL4UEVMXCHLT38H","","787.5","img/food3.png","74","788.6999999992549","1","0","3","1","1,0.5,0,1,0.5,0,0.5,0,1","1,0.5,0,1,0.5,0,0.5,0,1","1","",""
"","html-keyboard-response","25","42189","0.0-25.0","3AMW0RGHOEOHN4D2G6L6F5MWJO4PN0","A16335MOISDG1F","3D1UCPY6GGVNRONHL4UEVMXCHLT38H","","null","<img src=""img/food3.png"" style=""width:200px;border:14px solid red;"">","null","","","","","","","","","",""
"","image-keyboard-response","26","42938","0.0-26.0","3AMW0RGHOEOHN4D2G6L6F5MWJO4PN0","A16335MOISDG1F","3D1UCPY6GGVNRONHL4UEVMXCHLT38H","","748.3000000007451","img/food4.png","74","749.5","1","1","1","1","1,0.5,0,1,0.5,0,0.5,0,1","1,0.5,0,1,0.5,0,0.5,0,1","1","",""
"","html-keyboard-response","27","43240","0.0-27.0","3AMW0RGHOEOHN4D2G6L6F5MWJO4PN0","A16335MOISDG1F","3D1UCPY6GGVNRONHL4UEVMXCHLT38H","","null","<img src=""img/food4.png"" style=""width:200px; border:14px solid green;"">","null","","","","","","","","","",""
"","image-keyboard-response","28","43947","0.0-28.0","3AMW0RGHOEOHN4D2G6L6F5MWJO4PN0","A16335MOISDG1F","3D1UCPY6GGVNRONHL4UEVMXCHLT38H","","705.5","img/food3.png","75","707","2","0","3","1","1,0.5,0,1,0.5,0,0.5,0,1","1,0.5,0,1,0.5,0,0.5,0,1","1","",""
"","html-keyboard-response","29","44251","0.0-29.0","3AMW0RGHOEOHN4D2G6L6F5MWJO4PN0","A16335MOISDG1F","3D1UCPY6GGVNRONHL4UEVMXCHLT38H","","null","<img src=""img/food3.png"" style=""width:200px;border:14px solid red;"">","null","","","","","","","","","",""
"","image-keyboard-response","30","44774","0.0-30.0","3AMW0RGHOEOHN4D2G6L6F5MWJO4PN0","A16335MOISDG1F","3D1UCPY6GGVNRONHL4UEVMXCHLT38H","","522.0999999996275","img/food3.png","76","523.5","3","1","3","1","1,0.5,0,1,0.5,0,0.5,0,1","1,0.5,0,1,0.5,0,0.5,0,1","1","",""
"","html-keyboard-response","31","45077","0.0-31.0","3AMW0RGHOEOHN4D2G6L6F5MWJO4PN0","A16335MOISDG1F","3D1UCPY6GGVNRONHL4UEVMXCHLT38H","","null","<img src=""img/food3.png"" style=""width:200px; border:14px solid green;"">","null","","","","","","","","","",""
"","image-keyboard-response","32","45896","0.0-32.0","3AMW0RGHOEOHN4D2G6L6F5MWJO4PN0","A16335MOISDG1F","3D1UCPY6GGVNRONHL4UEVMXCHLT38H","","817.3000000007451","img/food1.png","74","818.5999999996275","1","1","2","1","1,0.5,0,1,0.5,0,0.5,0,1","1,0.5,0,1,0.5,0,0.5,0,1","1","",""
"","html-keyboard-response","33","46199","0.0-33.0","3AMW0RGHOEOHN4D2G6L6F5MWJO4PN0","A16335MOISDG1F","3D1UCPY6GGVNRONHL4UEVMXCHLT38H","","null","<img src=""img/food1.png"" style=""width:200px; border:14px solid green;"">","null","","","","","","","","","",""
"","image-keyboard-response","34","46939","0.0-34.0","3AMW0RGHOEOHN4D2G6L6F5MWJO4PN0","A16335MOISDG1F","3D1UCPY6GGVNRONHL4UEVMXCHLT38H","","738.7999999988824","img/food1.png","74","739.7000000011176","1","1","2","1","1,0.5,0,1,0.5,0,0.5,0,1","1,0.5,0,1,0.5,0,0.5,0,1","1","",""
"","html-keyboard-response","35","47241","0.0-35.0","3AMW0RGHOEOHN4D2G6L6F5MWJO4PN0","A16335MOISDG1F","3D1UCPY6GGVNRONHL4UEVMXCHLT38H","","null","<img src=""img/food1.png"" style=""width:200px; border:14px solid green;"">","null","","","","","","","","","",""
"","image-keyboard-response","36","47957","0.0-36.0","3AMW0RGHOEOHN4D2G6L6F5MWJO4PN0","A16335MOISDG1F","3D1UCPY6GGVNRONHL4UEVMXCHLT38H","","713.5999999996275","img/food1.png","74","715.2000000011176","1","1","2","1","1,0.5,0,1,0.5,0,0.5,0,1","1,0.5,0,1,0.5,0,0.5,0,1","1","",""
"","html-keyboard-response","37","48260","0.0-37.0","3AMW0RGHOEOHN4D2G6L6F5MWJO4PN0","A16335MOISDG1F","3D1UCPY6GGVNRONHL4UEVMXCHLT38H","","null","<img src=""img/food1.png"" style=""width:200px; border:14px solid green;"">","null","","","","","","","","","",""
"","image-keyboard-response","38","48974","0.0-38.0","3AMW0RGHOEOHN4D2G6L6F5MWJO4PN0","A16335MOISDG1F","3D1UCPY6GGVNRONHL4UEVMXCHLT38H","","712.5999999996275","img/food1.png","74","714.0999999996275","1","1","2","1","1,0.5,0,1,0.5,0,0.5,0,1","1,0.5,0,1,0.5,0,0.5,0,1","1","",""
"","html-keyboard-response","39","49277","0.0-39.0","3AMW0RGHOEOHN4D2G6L6F5MWJO4PN0","A16335MOISDG1F","3D1UCPY6GGVNRONHL4UEVMXCHLT38H","","null","<img src=""img/food1.png"" style=""width:200px; border:14px solid green;"">","null","","","","","","","","","",""
"","image-keyboard-response","40","50182","0.0-40.0","3AMW0RGHOEOHN4D2G6L6F5MWJO4PN0","A16335MOISDG1F","3D1UCPY6GGVNRONHL4UEVMXCHLT38H","","902.5999999996275","img/food3.png","74","904.6999999992549","1","1","3","1","1,0.5,0,1,0.5,0,0.5,0,1","1,0.5,0,1,0.5,0,0.5,0,1","1","",""
"","html-keyboard-response","41","50485","0.0-41.0","3AMW0RGHOEOHN4D2G6L6F5MWJO4PN0","A16335MOISDG1F","3D1UCPY6GGVNRONHL4UEVMXCHLT38H","","null","<img src=""img/food3.png"" style=""width:200px; border:14px solid green;"">","null","","","","","","","","","",""
"","image-keyboard-response","42","51395","0.0-42.0","3AMW0RGHOEOHN4D2G6L6F5MWJO4PN0","A16335MOISDG1F","3D1UCPY6GGVNRONHL4UEVMXCHLT38H","","907.5999999996275","img/food4.png","74","909.1999999992549","1","1","1","1","1,0.5,0,1,0.5,0,0.5,0,1","1,0.5,0,1,0.5,0,0.5,0,1","1","",""
"","html-keyboard-response","43","51698","0.0-43.0","3AMW0RGHOEOHN4D2G6L6F5MWJO4PN0","A16335MOISDG1F","3D1UCPY6GGVNRONHL4UEVMXCHLT38H","","null","<img src=""img/food4.png"" style=""width:200px; border:14px solid green;"">","null","","","","","","","","","",""
"","image-keyboard-response","44","52422","0.0-44.0","3AMW0RGHOEOHN4D2G6L6F5MWJO4PN0","A16335MOISDG1F","3D1UCPY6GGVNRONHL4UEVMXCHLT38H","","722.3000000007451","img/food4.png","74","723.5","1","1","1","1","1,0.5,0,1,0.5,0,0.5,0,1","1,0.5,0,1,0.5,0,0.5,0,1","1","",""
"","html-keyboard-response","45","52724","0.0-45.0","3AMW0RGHOEOHN4D2G6L6F5MWJO4PN0","A16335MOISDG1F","3D1UCPY6GGVNRONHL4UEVMXCHLT38H","","null","<img src=""img/food4.png"" style=""width:200px; border:14px solid green;"">","null","","","","","","","","","",""
"","image-keyboard-response","46","53485","0.0-46.0","3AMW0RGHOEOHN4D2G6L6F5MWJO4PN0","A16335MOISDG1F","3D1UCPY6GGVNRONHL4UEVMXCHLT38H","","759.2000000011176","img/food3.png","74","760.7000000011176","1","1","3","1","1,0.5,0,1,0.5,0,0.5,0,1","1,0.5,0,1,0.5,0,0.5,0,1","1","",""
"","html-keyboard-response","47","53787","0.0-47.0","3AMW0RGHOEOHN4D2G6L6F5MWJO4PN0","A16335MOISDG1F","3D1UCPY6GGVNRONHL4UEVMXCHLT38H","","null","<img src=""img/food3.png"" style=""width:200px; border:14px solid green;"">","null","","","","","","","","","",""
"","image-keyboard-response","48","54538","0.0-48.0","3AMW0RGHOEOHN4D2G6L6F5MWJO4PN0","A16335MOISDG1F","3D1UCPY6GGVNRONHL4UEVMXCHLT38H","","748.5","img/food3.png","74","749.9000000003725","1","1","3","1","1,0.5,0,1,0.5,0,0.5,0,1","1,0.5,0,1,0.5,0,0.5,0,1","1","",""
"","html-keyboard-response","49","54841","0.0-49.0","3AMW0RGHOEOHN4D2G6L6F5MWJO4PN0","A16335MOISDG1F","3D1UCPY6GGVNRONHL4UEVMXCHLT38H","","null","<img src=""img/food3.png"" style=""width:200px; border:14px solid green;"">","null","","","","","","","","","",""
"","image-keyboard-response","50","55638","0.0-50.0","3AMW0RGHOEOHN4D2G6L6F5MWJO4PN0","A16335MOISDG1F","3D1UCPY6GGVNRONHL4UEVMXCHLT38H","","795.7999999988824","img/food1.png","74","797.0999999996275","1","1","2","1","1,0.5,0,1,0.5,0,0.5,0,1","1,0.5,0,1,0.5,0,0.5,0,1","1","",""
"","html-keyboard-response","51","55940","0.0-51.0","3AMW0RGHOEOHN4D2G6L6F5MWJO4PN0","A16335MOISDG1F","3D1UCPY6GGVNRONHL4UEVMXCHLT38H","","null","<img src=""img/food1.png"" style=""width:200px; border:14px solid green;"">","null","","","","","","","","","",""
"","image-keyboard-response","52","57198","0.0-52.0","3AMW0RGHOEOHN4D2G6L6F5MWJO4PN0","A16335MOISDG1F","3D1UCPY6GGVNRONHL4UEVMXCHLT38H","","1256.9000000003725","img/food3.png","76","1258.4000000003725","3","1","3","1","1,0.5,0,1,0.5,0,0.5,0,1","1,0.5,0,1,0.5,0,0.5,0,1","1","",""
"","html-keyboard-response","53","57502","0.0-53.0","3AMW0RGHOEOHN4D2G6L6F5MWJO4PN0","A16335MOISDG1F","3D1UCPY6GGVNRONHL4UEVMXCHLT38H","","null","<img src=""img/food3.png"" style=""width:200px; border:14px solid green;"">","null","","","","","","","","","",""
"","image-keyboard-response","54","58276","0.0-54.0","3AMW0RGHOEOHN4D2G6L6F5MWJO4PN0","A16335MOISDG1F","3D1UCPY6GGVNRONHL4UEVMXCHLT38H","","772.9000000003725","img/food1.png","74","774.4000000003725","1","1","2","1","1,0.5,0,1,0.5,0,0.5,0,1","1,0.5,0,1,0.5,0,0.5,0,1","1","",""
"","html-keyboard-response","55","58579","0.0-55.0","3AMW0RGHOEOHN4D2G6L6F5MWJO4PN0","A16335MOISDG1F","3D1UCPY6GGVNRONHL4UEVMXCHLT38H","","null","<img src=""img/food1.png"" style=""width:200px; border:14px solid green;"">","null","","","","","","","","","",""
"","image-keyboard-response","56","59403","0.0-56.0","3AMW0RGHOEOHN4D2G6L6F5MWJO4PN0","A16335MOISDG1F","3D1UCPY6GGVNRONHL4UEVMXCHLT38H","","823.0999999996275","img/food4.png","74","824.5","1","1","1","1","1,0.5,0,1,0.5,0,0.5,0,1","1,0.5,0,1,0.5,0,0.5,0,1","1","",""
"","html-keyboard-response","57","59706","0.0-57.0","3AMW0RGHOEOHN4D2G6L6F5MWJO4PN0","A16335MOISDG1F","3D1UCPY6GGVNRONHL4UEVMXCHLT38H","","null","<img src=""img/food4.png"" style=""width:200px; border:14px solid green;"">","null","","","","","","","","","",""
"","image-keyboard-response","58","60450","0.0-58.0","3AMW0RGHOEOHN4D2G6L6F5MWJO4PN0","A16335MOISDG1F","3D1UCPY6GGVNRONHL4UEVMXCHLT38H","","742.8000000007451","img/food4.png","74","744.1000000014901","1","1","1","1","1,0.5,0,1,0.5,0,0.5,0,1","1,0.5,0,1,0.5,0,0.5,0,1","1","",""
"","html-keyboard-response","59","60752","0.0-59.0","3AMW0RGHOEOHN4D2G6L6F5MWJO4PN0","A16335MOISDG1F","3D1UCPY6GGVNRONHL4UEVMXCHLT38H","","null","<img src=""img/food4.png"" style=""width:200px; border:14px solid green;"">","null","","","","","","","","","",""
"","image-keyboard-response","60","61487","0.0-60.0","3AMW0RGHOEOHN4D2G6L6F5MWJO4PN0","A16335MOISDG1F","3D1UCPY6GGVNRONHL4UEVMXCHLT38H","","732.6999999992549","img/food1.png","74","734","1","1","2","1","1,0.5,0,1,0.5,0,0.5,0,1","1,0.5,0,1,0.5,0,0.5,0,1","1","",""
"","html-keyboard-response","61","61788","0.0-61.0","3AMW0RGHOEOHN4D2G6L6F5MWJO4PN0","A16335MOISDG1F","3D1UCPY6GGVNRONHL4UEVMXCHLT38H","","null","<img src=""img/food1.png"" style=""width:200px; border:14px solid green;"">","null","","","","","","","","","",""
"","image-keyboard-response","62","62546","0.0-62.0","3AMW0RGHOEOHN4D2G6L6F5MWJO4PN0","A16335MOISDG1F","3D1UCPY6GGVNRONHL4UEVMXCHLT38H","","756.3000000007451","img/food4.png","74","757.4000000003725","1","1","1","1","1,0.5,0,1,0.5,0,0.5,0,1","1,0.5,0,1,0.5,0,0.5,0,1","1","",""
"","html-keyboard-response","63","62848","0.0-63.0","3AMW0RGHOEOHN4D2G6L6F5MWJO4PN0","A16335MOISDG1F","3D1UCPY6GGVNRONHL4UEVMXCHLT38H","","null","<img src=""img/food4.png"" style=""width:200px; border:14px solid green;"">","null","","","","","","","","","",""
"","image-keyboard-response","64","63598","0.0-64.0","3AMW0RGHOEOHN4D2G6L6F5MWJO4PN0","A16335MOISDG1F","3D1UCPY6GGVNRONHL4UEVMXCHLT38H","","748.4000000003725","img/food3.png","74","750","1","0","3","1","1,0.5,0,1,0.5,0,0.5,0,1","1,0.5,0,1,0.5,0,0.5,0,1","1","",""
"","html-keyboard-response","65","63907","0.0-65.0","3AMW0RGHOEOHN4D2G6L6F5MWJO4PN0","A16335MOISDG1F","3D1UCPY6GGVNRONHL4UEVMXCHLT38H","","null","<img src=""img/food3.png"" style=""width:200px;border:14px solid red;"">","null","","","","","","","","","",""
"","image-keyboard-response","66","64004","0.0-66.0","3AMW0RGHOEOHN4D2G6L6F5MWJO4PN0","A16335MOISDG1F","3D1UCPY6GGVNRONHL4UEVMXCHLT38H","","95.30000000074506","img/food1.png","76","96.80000000074506","3","0","2","1","1,0.5,0,1,0.5,0,0.5,0,1","1,0.5,0,1,0.5,0,0.5,0,1","1","",""
"","html-keyboard-response","67","64307","0.0-67.0","3AMW0RGHOEOHN4D2G6L6F5MWJO4PN0","A16335MOISDG1F","3D1UCPY6GGVNRONHL4UEVMXCHLT38H","","null","<img src=""img/food1.png"" style=""width:200px;border:14px solid red;"">","null","","","","","","","","","",""
"","image-keyboard-response","68","65338","0.0-68.0","3AMW0RGHOEOHN4D2G6L6F5MWJO4PN0","A16335MOISDG1F","3D1UCPY6GGVNRONHL4UEVMXCHLT38H","","1029.0999999996275","img/food3.png","76","1030.699999999255","3","1","3","1","1,0.5,0,1,0.5,0,0.5,0,1","1,0.5,0,1,0.5,0,0.5,0,1","1","",""
"","html-keyboard-response","69","65640","0.0-69.0","3AMW0RGHOEOHN4D2G6L6F5MWJO4PN0","A16335MOISDG1F","3D1UCPY6GGVNRONHL4UEVMXCHLT38H","","null","<img src=""img/food3.png"" style=""width:200px; border:14px solid green;"">","null","","","","","","","","","",""
"","image-keyboard-response","70","66230","0.0-70.0","3AMW0RGHOEOHN4D2G6L6F5MWJO4PN0","A16335MOISDG1F","3D1UCPY6GGVNRONHL4UEVMXCHLT38H","","587.7999999988824","img/food3.png","76","589.1999999992549","3","1","3","1","1,0.5,0,1,0.5,0,0.5,0,1","1,0.5,0,1,0.5,0,0.5,0,1","1","",""
"","html-keyboard-response","71","66532","0.0-71.0","3AMW0RGHOEOHN4D2G6L6F5MWJO4PN0","A16335MOISDG1F","3D1UCPY6GGVNRONHL4UEVMXCHLT38H","","null","<img src=""img/food3.png"" style=""width:200px; border:14px solid green;"">","null","","","","","","","","","",""
"","image-keyboard-response","72","67082","0.0-72.0","3AMW0RGHOEOHN4D2G6L6F5MWJO4PN0","A16335MOISDG1F","3D1UCPY6GGVNRONHL4UEVMXCHLT38H","","547.4000000003725","img/food1.png","74","549.0999999996275","1","1","2","1","1,0.5,0,1,0.5,0,0.5,0,1","1,0.5,0,1,0.5,0,0.5,0,1","1","",""
"","html-keyboard-response","73","67384","0.0-73.0","3AMW0RGHOEOHN4D2G6L6F5MWJO4PN0","A16335MOISDG1F","3D1UCPY6GGVNRONHL4UEVMXCHLT38H","","null","<img src=""img/food1.png"" style=""width:200px; border:14px solid green;"">","null","","","","","","","","","",""
"","image-keyboard-response","74","68029","0.0-74.0","3AMW0RGHOEOHN4D2G6L6F5MWJO4PN0","A16335MOISDG1F","3D1UCPY6GGVNRONHL4UEVMXCHLT38H","","642.4000000003725","img/food4.png","74","643.8000000007451","1","1","1","1","1,0.5,0,1,0.5,0,0.5,0,1","1,0.5,0,1,0.5,0,0.5,0,1","1","",""
"","html-keyboard-response","75","68332","0.0-75.0","3AMW0RGHOEOHN4D2G6L6F5MWJO4PN0","A16335MOISDG1F","3D1UCPY6GGVNRONHL4UEVMXCHLT38H","","null","<img src=""img/food4.png"" style=""width:200px; border:14px solid green;"">","null","","","","","","","","","",""
"","image-keyboard-response","76","68955","0.0-76.0","3AMW0RGHOEOHN4D2G6L6F5MWJO4PN0","A16335MOISDG1F","3D1UCPY6GGVNRONHL4UEVMXCHLT38H","","621.6000000014901","img/food1.png","74","622.6999999992549","1","1","2","1","1,0.5,0,1,0.5,0,0.5,0,1","1,0.5,0,1,0.5,0,0.5,0,1","1","",""
"","html-keyboard-response","77","69257","0.0-77.0","3AMW0RGHOEOHN4D2G6L6F5MWJO4PN0","A16335MOISDG1F","3D1UCPY6GGVNRONHL4UEVMXCHLT38H","","null","<img src=""img/food1.png"" style=""width:200px; border:14px solid green;"">","null","","","","","","","","","",""
"","image-keyboard-response","78","69838","0.0-78.0","3AMW0RGHOEOHN4D2G6L6F5MWJO4PN0","A16335MOISDG1F","3D1UCPY6GGVNRONHL4UEVMXCHLT38H","","578.6999999992549","img/food1.png","74","580.1999999992549","1","1","2","1","1,0.5,0,1,0.5,0,0.5,0,1","1,0.5,0,1,0.5,0,0.5,0,1","1","",""
"","html-keyboard-response","79","70141","0.0-79.0","3AMW0RGHOEOHN4D2G6L6F5MWJO4PN0","A16335MOISDG1F","3D1UCPY6GGVNRONHL4UEVMXCHLT38H","","null","<img src=""img/food1.png"" style=""width:200px; border:14px solid green;"">","null","","","","","","","","","",""
"","image-keyboard-response","80","70836","0.0-80.0","3AMW0RGHOEOHN4D2G6L6F5MWJO4PN0","A16335MOISDG1F","3D1UCPY6GGVNRONHL4UEVMXCHLT38H","","693.5","img/food3.png","76","694.3000000007451","3","1","3","1","1,0.5,0,1,0.5,0,0.5,0,1","1,0.5,0,1,0.5,0,0.5,0,1","1","",""
"","html-keyboard-response","81","71138","0.0-81.0","3AMW0RGHOEOHN4D2G6L6F5MWJO4PN0","A16335MOISDG1F","3D1UCPY6GGVNRONHL4UEVMXCHLT38H","","null","<img src=""img/food3.png"" style=""width:200px; border:14px solid green;"">","null","","","","","","","","","",""
"","image-keyboard-response","82","71718","0.0-82.0","3AMW0RGHOEOHN4D2G6L6F5MWJO4PN0","A16335MOISDG1F","3D1UCPY6GGVNRONHL4UEVMXCHLT38H","","577.7000000011176","img/food1.png","74","579.3000000007451","1","1","2","1","1,0.5,0,1,0.5,0,0.5,0,1","1,0.5,0,1,0.5,0,0.5,0,1","1","",""
"","html-keyboard-response","83","72020","0.0-83.0","3AMW0RGHOEOHN4D2G6L6F5MWJO4PN0","A16335MOISDG1F","3D1UCPY6GGVNRONHL4UEVMXCHLT38H","","null","<img src=""img/food1.png"" style=""width:200px; border:14px solid green;"">","null","","","","","","","","","",""
"","image-keyboard-response","84","72615","0.0-84.0","3AMW0RGHOEOHN4D2G6L6F5MWJO4PN0","A16335MOISDG1F","3D1UCPY6GGVNRONHL4UEVMXCHLT38H","","592.5","img/food1.png","74","594","1","1","2","1","1,0.5,0,1,0.5,0,0.5,0,1","1,0.5,0,1,0.5,0,0.5,0,1","1","",""
"","html-keyboard-response","85","72917","0.0-85.0","3AMW0RGHOEOHN4D2G6L6F5MWJO4PN0","A16335MOISDG1F","3D1UCPY6GGVNRONHL4UEVMXCHLT38H","","null","<img src=""img/food1.png"" style=""width:200px; border:14px solid green;"">","null","","","","","","","","","",""
"","image-keyboard-response","86","73537","0.0-86.0","3AMW0RGHOEOHN4D2G6L6F5MWJO4PN0","A16335MOISDG1F","3D1UCPY6GGVNRONHL4UEVMXCHLT38H","","617.7000000011176","img/food1.png","74","619.3000000007451","1","1","2","1","1,0.5,0,1,0.5,0,0.5,0,1","1,0.5,0,1,0.5,0,0.5,0,1","1","",""
"","html-keyboard-response","87","73840","0.0-87.0","3AMW0RGHOEOHN4D2G6L6F5MWJO4PN0","A16335MOISDG1F","3D1UCPY6GGVNRONHL4UEVMXCHLT38H","","null","<img src=""img/food1.png"" style=""width:200px; border:14px solid green;"">","null","","","","","","","","","",""
"","image-keyboard-response","88","74519","0.0-88.0","3AMW0RGHOEOHN4D2G6L6F5MWJO4PN0","A16335MOISDG1F","3D1UCPY6GGVNRONHL4UEVMXCHLT38H","","677.3000000007451","img/food4.png","74","678.8999999985099","1","1","1","1","1,0.5,0,1,0.5,0,0.5,0,1","1,0.5,0,1,0.5,0,0.5,0,1","1","",""
"","html-keyboard-response","89","74822","0.0-89.0","3AMW0RGHOEOHN4D2G6L6F5MWJO4PN0","A16335MOISDG1F","3D1UCPY6GGVNRONHL4UEVMXCHLT38H","","null","<img src=""img/food4.png"" style=""width:200px; border:14px solid green;"">","null","","","","","","","","","",""
"","image-keyboard-response","90","75522","0.0-90.0","3AMW0RGHOEOHN4D2G6L6F5MWJO4PN0","A16335MOISDG1F","3D1UCPY6GGVNRONHL4UEVMXCHLT38H","","698.2000000011176","img/food3.png","76","699.8000000007451","3","1","3","1","1,0.5,0,1,0.5,0,0.5,0,1","1,0.5,0,1,0.5,0,0.5,0,1","1","",""
"","html-keyboard-response","91","75826","0.0-91.0","3AMW0RGHOEOHN4D2G6L6F5MWJO4PN0","A16335MOISDG1F","3D1UCPY6GGVNRONHL4UEVMXCHLT38H","","null","<img src=""img/food3.png"" style=""width:200px; border:14px solid green;"">","null","","","","","","","","","",""
"","image-keyboard-response","92","76424","0.0-92.0","3AMW0RGHOEOHN4D2G6L6F5MWJO4PN0","A16335MOISDG1F","3D1UCPY6GGVNRONHL4UEVMXCHLT38H","","595.8999999985099","img/food3.png","76","597.4000000003725","3","1","3","1","1,0.5,0,1,0.5,0,0.5,0,1","1,0.5,0,1,0.5,0,0.5,0,1","1","",""
"","html-keyboard-response","93","76726","0.0-93.0","3AMW0RGHOEOHN4D2G6L6F5MWJO4PN0","A16335MOISDG1F","3D1UCPY6GGVNRONHL4UEVMXCHLT38H","","null","<img src=""img/food3.png"" style=""width:200px; border:14px solid green;"">","null","","","","","","","","","",""
"","image-keyboard-response","94","77331","0.0-94.0","3AMW0RGHOEOHN4D2G6L6F5MWJO4PN0","A16335MOISDG1F","3D1UCPY6GGVNRONHL4UEVMXCHLT38H","","603.7999999988824","img/food4.png","74","604.6999999992549","1","1","1","1","1,0.5,0,1,0.5,0,0.5,0,1","1,0.5,0,1,0.5,0,0.5,0,1","1","",""
"","html-keyboard-response","95","77635","0.0-95.0","3AMW0RGHOEOHN4D2G6L6F5MWJO4PN0","A16335MOISDG1F","3D1UCPY6GGVNRONHL4UEVMXCHLT38H","","null","<img src=""img/food4.png"" style=""width:200px; border:14px solid green;"">","null","","","","","","","","","",""
"","image-keyboard-response","96","78198","0.0-96.0","3AMW0RGHOEOHN4D2G6L6F5MWJO4PN0","A16335MOISDG1F","3D1UCPY6GGVNRONHL4UEVMXCHLT38H","","561.0999999996275","img/food4.png","74","562.5","1","1","1","1","1,0.5,0,1,0.5,0,0.5,0,1","1,0.5,0,1,0.5,0,0.5,0,1","1","",""
"","html-keyboard-response","97","78500","0.0-97.0","3AMW0RGHOEOHN4D2G6L6F5MWJO4PN0","A16335MOISDG1F","3D1UCPY6GGVNRONHL4UEVMXCHLT38H","","null","<img src=""img/food4.png"" style=""width:200px; border:14px solid green;"">","null","","","","","","","","","",""
"","image-keyboard-response","98","79064","0.0-98.0","3AMW0RGHOEOHN4D2G6L6F5MWJO4PN0","A16335MOISDG1F","3D1UCPY6GGVNRONHL4UEVMXCHLT38H","","562.4000000003725","img/food4.png","74","563.7000000011176","1","1","1","1","1,0.5,0,1,0.5,0,0.5,0,1","1,0.5,0,1,0.5,0,0.5,0,1","1","",""
"","html-keyboard-response","99","79366","0.0-99.0","3AMW0RGHOEOHN4D2G6L6F5MWJO4PN0","A16335MOISDG1F","3D1UCPY6GGVNRONHL4UEVMXCHLT38H","","null","<img src=""img/food4.png"" style=""width:200px; border:14px solid green;"">","null","","","","","","","","","",""
"","image-keyboard-response","100","79957","0.0-100.0","3AMW0RGHOEOHN4D2G6L6F5MWJO4PN0","A16335MOISDG1F","3D1UCPY6GGVNRONHL4UEVMXCHLT38H","","588.8000000007451","img/food4.png","74","590.3000000007451","1","1","1","1","1,0.5,0,1,0.5,0,0.5,0,1","1,0.5,0,1,0.5,0,0.5,0,1","1","",""
"","html-keyboard-response","101","80260","0.0-101.0","3AMW0RGHOEOHN4D2G6L6F5MWJO4PN0","A16335MOISDG1F","3D1UCPY6GGVNRONHL4UEVMXCHLT38H","","null","<img src=""img/food4.png"" style=""width:200px; border:14px solid green;"">","null","","","","","","","","","",""
"","image-keyboard-response","102","80849","0.0-102.0","3AMW0RGHOEOHN4D2G6L6F5MWJO4PN0","A16335MOISDG1F","3D1UCPY6GGVNRONHL4UEVMXCHLT38H","","587.1999999992549","img/food4.png","74","588.5999999996275","1","1","1","1","1,0.5,0,1,0.5,0,0.5,0,1","1,0.5,0,1,0.5,0,0.5,0,1","1","",""
"","html-keyboard-response","103","81152","0.0-103.0","3AMW0RGHOEOHN4D2G6L6F5MWJO4PN0","A16335MOISDG1F","3D1UCPY6GGVNRONHL4UEVMXCHLT38H","","null","<img src=""img/food4.png"" style=""width:200px; border:14px solid green;"">","null","","","","","","","","","",""
"","image-keyboard-response","104","81716","0.0-104.0","3AMW0RGHOEOHN4D2G6L6F5MWJO4PN0","A16335MOISDG1F","3D1UCPY6GGVNRONHL4UEVMXCHLT38H","","562.5","img/food1.png","76","564","3","0","2","1","1,0.5,0,1,0.5,0,0.5,0,1","1,0.5,0,1,0.5,0,0.5,0,1","1","",""
"","html-keyboard-response","105","82019","0.0-105.0","3AMW0RGHOEOHN4D2G6L6F5MWJO4PN0","A16335MOISDG1F","3D1UCPY6GGVNRONHL4UEVMXCHLT38H","","null","<img src=""img/food1.png"" style=""width:200px;border:14px solid red;"">","null","","","","","","","","","",""
"","image-keyboard-response","106","82487","0.0-106.0","3AMW0RGHOEOHN4D2G6L6F5MWJO4PN0","A16335MOISDG1F","3D1UCPY6GGVNRONHL4UEVMXCHLT38H","","465.69999999925494","img/food1.png","74","466.90000000037253","1","1","2","1","1,0.5,0,1,0.5,0,0.5,0,1","1,0.5,0,1,0.5,0,0.5,0,1","1","",""
"","html-keyboard-response","107","82788","0.0-107.0","3AMW0RGHOEOHN4D2G6L6F5MWJO4PN0","A16335MOISDG1F","3D1UCPY6GGVNRONHL4UEVMXCHLT38H","","null","<img src=""img/food1.png"" style=""width:200px; border:14px solid green;"">","null","","","","","","","","","",""
"","image-keyboard-response","108","83385","0.0-108.0","3AMW0RGHOEOHN4D2G6L6F5MWJO4PN0","A16335MOISDG1F","3D1UCPY6GGVNRONHL4UEVMXCHLT38H","","595.4000000003725","img/food1.png","74","596.3999999985099","1","1","2","1","1,0.5,0,1,0.5,0,0.5,0,1","1,0.5,0,1,0.5,0,0.5,0,1","1","",""
"","html-keyboard-response","109","83688","0.0-109.0","3AMW0RGHOEOHN4D2G6L6F5MWJO4PN0","A16335MOISDG1F","3D1UCPY6GGVNRONHL4UEVMXCHLT38H","","null","<img src=""img/food1.png"" style=""width:200px; border:14px solid green;"">","null","","","","","","","","","",""
"","image-keyboard-response","110","84328","0.0-110.0","3AMW0RGHOEOHN4D2G6L6F5MWJO4PN0","A16335MOISDG1F","3D1UCPY6GGVNRONHL4UEVMXCHLT38H","","638.2999999988824","img/food3.png","76","639.9000000003725","3","1","3","1","1,0.5,0,1,0.5,0,0.5,0,1","1,0.5,0,1,0.5,0,0.5,0,1","1","",""
"","html-keyboard-response","111","84633","0.0-111.0","3AMW0RGHOEOHN4D2G6L6F5MWJO4PN0","A16335MOISDG1F","3D1UCPY6GGVNRONHL4UEVMXCHLT38H","","null","<img src=""img/food3.png"" style=""width:200px; border:14px solid green;"">","null","","","","","","","","","",""
"","image-keyboard-response","112","85250","0.0-112.0","3AMW0RGHOEOHN4D2G6L6F5MWJO4PN0","A16335MOISDG1F","3D1UCPY6GGVNRONHL4UEVMXCHLT38H","","615","img/food4.png","74","616.4000000003725","1","1","1","1","1,0.5,0,1,0.5,0,0.5,0,1","1,0.5,0,1,0.5,0,0.5,0,1","1","",""
"","html-keyboard-response","113","85552","0.0-113.0","3AMW0RGHOEOHN4D2G6L6F5MWJO4PN0","A16335MOISDG1F","3D1UCPY6GGVNRONHL4UEVMXCHLT38H","","null","<img src=""img/food4.png"" style=""width:200px; border:14px solid green;"">","null","","","","","","","","","",""
"","image-keyboard-response","114","86207","0.0-114.0","3AMW0RGHOEOHN4D2G6L6F5MWJO4PN0","A16335MOISDG1F","3D1UCPY6GGVNRONHL4UEVMXCHLT38H","","652.7999999988824","img/food3.png","76","654.3999999985099","3","1","3","1","1,0.5,0,1,0.5,0,0.5,0,1","1,0.5,0,1,0.5,0,0.5,0,1","1","",""
"","html-keyboard-response","115","86510","0.0-115.0","3AMW0RGHOEOHN4D2G6L6F5MWJO4PN0","A16335MOISDG1F","3D1UCPY6GGVNRONHL4UEVMXCHLT38H","","null","<img src=""img/food3.png"" style=""width:200px; border:14px solid green;"">","null","","","","","","","","","",""
"","image-keyboard-response","116","87043","0.0-116.0","3AMW0RGHOEOHN4D2G6L6F5MWJO4PN0","A16335MOISDG1F","3D1UCPY6GGVNRONHL4UEVMXCHLT38H","","530.6999999992549","img/food1.png","74","531.9000000003725","1","1","2","1","1,0.5,0,1,0.5,0,0.5,0,1","1,0.5,0,1,0.5,0,0.5,0,1","1","",""
"","html-keyboard-response","117","87344","0.0-117.0","3AMW0RGHOEOHN4D2G6L6F5MWJO4PN0","A16335MOISDG1F","3D1UCPY6GGVNRONHL4UEVMXCHLT38H","","null","<img src=""img/food1.png"" style=""width:200px; border:14px solid green;"">","null","","","","","","","","","",""
"","image-keyboard-response","118","87836","0.0-118.0","3AMW0RGHOEOHN4D2G6L6F5MWJO4PN0","A16335MOISDG1F","3D1UCPY6GGVNRONHL4UEVMXCHLT38H","","490.40000000037253","img/food1.png","74","491.7999999988824","1","1","2","1","1,0.5,0,1,0.5,0,0.5,0,1","1,0.5,0,1,0.5,0,0.5,0,1","1","",""
"","html-keyboard-response","119","88139","0.0-119.0","3AMW0RGHOEOHN4D2G6L6F5MWJO4PN0","A16335MOISDG1F","3D1UCPY6GGVNRONHL4UEVMXCHLT38H","","null","<img src=""img/food1.png"" style=""width:200px; border:14px solid green;"">","null","","","","","","","","","",""
"","image-keyboard-response","120","88653","0.0-120.0","3AMW0RGHOEOHN4D2G6L6F5MWJO4PN0","A16335MOISDG1F","3D1UCPY6GGVNRONHL4UEVMXCHLT38H","","512.8999999985099","img/food1.png","74","513.7999999988824","1","1","2","1","1,0.5,0,1,0.5,0,0.5,0,1","1,0.5,0,1,0.5,0,0.5,0,1","1","",""
"","html-keyboard-response","121","88956","0.0-121.0","3AMW0RGHOEOHN4D2G6L6F5MWJO4PN0","A16335MOISDG1F","3D1UCPY6GGVNRONHL4UEVMXCHLT38H","","null","<img src=""img/food1.png"" style=""width:200px; border:14px solid green;"">","null","","","","","","","","","",""
"","image-keyboard-response","122","89570","0.0-122.0","3AMW0RGHOEOHN4D2G6L6F5MWJO4PN0","A16335MOISDG1F","3D1UCPY6GGVNRONHL4UEVMXCHLT38H","","612.2999999988824","img/food3.png","76","613.9000000003725","3","1","3","1","1,0.5,0,1,0.5,0,0.5,0,1","1,0.5,0,1,0.5,0,0.5,0,1","1","",""
"","html-keyboard-response","123","89872","0.0-123.0","3AMW0RGHOEOHN4D2G6L6F5MWJO4PN0","A16335MOISDG1F","3D1UCPY6GGVNRONHL4UEVMXCHLT38H","","null","<img src=""img/food3.png"" style=""width:200px; border:14px solid green;"">","null","","","","","","","","","",""
"","image-keyboard-response","124","90347","0.0-124.0","3AMW0RGHOEOHN4D2G6L6F5MWJO4PN0","A16335MOISDG1F","3D1UCPY6GGVNRONHL4UEVMXCHLT38H","","472.59999999962747","img/food3.png","76","474.19999999925494","3","1","3","1","1,0.5,0,1,0.5,0,0.5,0,1","1,0.5,0,1,0.5,0,0.5,0,1","1","",""
"","html-keyboard-response","125","90649","0.0-125.0","3AMW0RGHOEOHN4D2G6L6F5MWJO4PN0","A16335MOISDG1F","3D1UCPY6GGVNRONHL4UEVMXCHLT38H","","null","<img src=""img/food3.png"" style=""width:200px; border:14px solid green;"">","null","","","","","","","","","",""
"","image-keyboard-response","126","91129","0.0-126.0","3AMW0RGHOEOHN4D2G6L6F5MWJO4PN0","A16335MOISDG1F","3D1UCPY6GGVNRONHL4UEVMXCHLT38H","","477.40000000037253","img/food3.png","76","478.90000000037253","3","1","3","1","1,0.5,0,1,0.5,0,0.5,0,1","1,0.5,0,1,0.5,0,0.5,0,1","1","",""
"","html-keyboard-response","127","91432","0.0-127.0","3AMW0RGHOEOHN4D2G6L6F5MWJO4PN0","A16335MOISDG1F","3D1UCPY6GGVNRONHL4UEVMXCHLT38H","","null","<img src=""img/food3.png"" style=""width:200px; border:14px solid green;"">","null","","","","","","","","","",""
"","image-keyboard-response","128","91981","0.0-128.0","3AMW0RGHOEOHN4D2G6L6F5MWJO4PN0","A16335MOISDG1F","3D1UCPY6GGVNRONHL4UEVMXCHLT38H","","546.8999999985099","img/food4.png","74","548.4000000003725","1","1","1","1","1,0.5,0,1,0.5,0,0.5,0,1","1,0.5,0,1,0.5,0,0.5,0,1","1","",""
"","html-keyboard-response","129","92284","0.0-129.0","3AMW0RGHOEOHN4D2G6L6F5MWJO4PN0","A16335MOISDG1F","3D1UCPY6GGVNRONHL4UEVMXCHLT38H","","null","<img src=""img/food4.png"" style=""width:200px; border:14px solid green;"">","null","","","","","","","","","",""
"","image-keyboard-response","130","92782","0.0-130.0","3AMW0RGHOEOHN4D2G6L6F5MWJO4PN0","A16335MOISDG1F","3D1UCPY6GGVNRONHL4UEVMXCHLT38H","","496.59999999962747","img/food4.png","74","497.30000000074506","1","1","1","1","1,0.5,0,1,0.5,0,0.5,0,1","1,0.5,0,1,0.5,0,0.5,0,1","1","",""
"","html-keyboard-response","131","93084","0.0-131.0","3AMW0RGHOEOHN4D2G6L6F5MWJO4PN0","A16335MOISDG1F","3D1UCPY6GGVNRONHL4UEVMXCHLT38H","","null","<img src=""img/food4.png"" style=""width:200px; border:14px solid green;"">","null","","","","","","","","","",""
"","image-keyboard-response","132","93585","0.0-132.0","3AMW0RGHOEOHN4D2G6L6F5MWJO4PN0","A16335MOISDG1F","3D1UCPY6GGVNRONHL4UEVMXCHLT38H","","499.2999999988824","img/food4.png","74","500.7999999988824","1","1","1","1","1,0.5,0,1,0.5,0,0.5,0,1","1,0.5,0,1,0.5,0,0.5,0,1","1","",""
"","html-keyboard-response","133","93888","0.0-133.0","3AMW0RGHOEOHN4D2G6L6F5MWJO4PN0","A16335MOISDG1F","3D1UCPY6GGVNRONHL4UEVMXCHLT38H","","null","<img src=""img/food4.png"" style=""width:200px; border:14px solid green;"">","null","","","","","","","","","",""
"","image-keyboard-response","134","94823","0.0-134.0","3AMW0RGHOEOHN4D2G6L6F5MWJO4PN0","A16335MOISDG1F","3D1UCPY6GGVNRONHL4UEVMXCHLT38H","","933.5999999996275","img/food3.png","76","934.7999999988824","3","1","3","1","1,0.5,0,1,0.5,0,0.5,0,1","1,0.5,0,1,0.5,0,0.5,0,1","1","",""
"","html-keyboard-response","135","95128","0.0-135.0","3AMW0RGHOEOHN4D2G6L6F5MWJO4PN0","A16335MOISDG1F","3D1UCPY6GGVNRONHL4UEVMXCHLT38H","","null","<img src=""img/food3.png"" style=""width:200px; border:14px solid green;"">","null","","","","","","","","","",""
"","image-keyboard-response","136","95715","0.0-136.0","3AMW0RGHOEOHN4D2G6L6F5MWJO4PN0","A16335MOISDG1F","3D1UCPY6GGVNRONHL4UEVMXCHLT38H","","586","img/food1.png","74","587.4000000003725","1","1","2","1","1,0.5,0,1,0.5,0,0.5,0,1","1,0.5,0,1,0.5,0,0.5,0,1","1","",""
"","html-keyboard-response","137","96018","0.0-137.0","3AMW0RGHOEOHN4D2G6L6F5MWJO4PN0","A16335MOISDG1F","3D1UCPY6GGVNRONHL4UEVMXCHLT38H","","null","<img src=""img/food1.png"" style=""width:200px; border:14px solid green;"">","null","","","","","","","","","",""
"","image-keyboard-response","138","96677","0.0-138.0","3AMW0RGHOEOHN4D2G6L6F5MWJO4PN0","A16335MOISDG1F","3D1UCPY6GGVNRONHL4UEVMXCHLT38H","","657.1000000014901","img/food4.png","74","658.9000000003725","1","1","1","1","1,0.5,0,1,0.5,0,0.5,0,1","1,0.5,0,1,0.5,0,0.5,0,1","1","",""
"","html-keyboard-response","139","96981","0.0-139.0","3AMW0RGHOEOHN4D2G6L6F5MWJO4PN0","A16335MOISDG1F","3D1UCPY6GGVNRONHL4UEVMXCHLT38H","","null","<img src=""img/food4.png"" style=""width:200px; border:14px solid green;"">","null","","","","","","","","","",""
"","image-keyboard-response","140","97648","0.0-140.0","3AMW0RGHOEOHN4D2G6L6F5MWJO4PN0","A16335MOISDG1F","3D1UCPY6GGVNRONHL4UEVMXCHLT38H","","665.9000000003725","img/food3.png","74","667.2000000011176","1","0","3","1","1,0.5,0,1,0.5,0,0.5,0,1","1,0.5,0,1,0.5,0,0.5,0,1","1","",""
"","html-keyboard-response","141","97950","0.0-141.0","3AMW0RGHOEOHN4D2G6L6F5MWJO4PN0","A16335MOISDG1F","3D1UCPY6GGVNRONHL4UEVMXCHLT38H","","null","<img src=""img/food3.png"" style=""width:200px;border:14px solid red;"">","null","","","","","","","","","",""
"","image-keyboard-response","142","97964","0.0-142.0","3AMW0RGHOEOHN4D2G6L6F5MWJO4PN0","A16335MOISDG1F","3D1UCPY6GGVNRONHL4UEVMXCHLT38H","","13.299999998882413","img/food1.png","76","14.200000001117587","3","0","2","1","1,0.5,0,1,0.5,0,0.5,0,1","1,0.5,0,1,0.5,0,0.5,0,1","1","",""
"","html-keyboard-response","143","98267","0.0-143.0","3AMW0RGHOEOHN4D2G6L6F5MWJO4PN0","A16335MOISDG1F","3D1UCPY6GGVNRONHL4UEVMXCHLT38H","","null","<img src=""img/food1.png"" style=""width:200px;border:14px solid red;"">","null","","","","","","","","","",""
"","image-keyboard-response","144","99523","0.0-144.0","3AMW0RGHOEOHN4D2G6L6F5MWJO4PN0","A16335MOISDG1F","3D1UCPY6GGVNRONHL4UEVMXCHLT38H","","1254.5","img/food4.png","74","1255.7999999988824","1","1","1","1","1,0.5,0,1,0.5,0,0.5,0,1","1,0.5,0,1,0.5,0,0.5,0,1","1","",""
"","html-keyboard-response","145","99825","0.0-145.0","3AMW0RGHOEOHN4D2G6L6F5MWJO4PN0","A16335MOISDG1F","3D1UCPY6GGVNRONHL4UEVMXCHLT38H","","null","<img src=""img/food4.png"" style=""width:200px; border:14px solid green;"">","null","","","","","","","","","",""
"","image-keyboard-response","146","100311","0.0-146.0","3AMW0RGHOEOHN4D2G6L6F5MWJO4PN0","A16335MOISDG1F","3D1UCPY6GGVNRONHL4UEVMXCHLT38H","","484.80000000074506","img/food3.png","74","486.1000000014901","1","0","3","1","1,0.5,0,1,0.5,0,0.5,0,1","1,0.5,0,1,0.5,0,0.5,0,1","1","",""
"","html-keyboard-response","147","100614","0.0-147.0","3AMW0RGHOEOHN4D2G6L6F5MWJO4PN0","A16335MOISDG1F","3D1UCPY6GGVNRONHL4UEVMXCHLT38H","","null","<img src=""img/food3.png"" style=""width:200px;border:14px solid red;"">","null","","","","","","","","","",""
"","image-keyboard-response","148","101098","0.0-148.0","3AMW0RGHOEOHN4D2G6L6F5MWJO4PN0","A16335MOISDG1F","3D1UCPY6GGVNRONHL4UEVMXCHLT38H","","482.5","img/food3.png","76","484","3","1","3","1","1,0.5,0,1,0.5,0,0.5,0,1","1,0.5,0,1,0.5,0,0.5,0,1","1","",""
"","html-keyboard-response","149","101401","0.0-149.0","3AMW0RGHOEOHN4D2G6L6F5MWJO4PN0","A16335MOISDG1F","3D1UCPY6GGVNRONHL4UEVMXCHLT38H","","null","<img src=""img/food3.png"" style=""width:200px; border:14px solid green;"">","null","","","","","","","","","",""
"","image-keyboard-response","150","102096","0.0-150.0","3AMW0RGHOEOHN4D2G6L6F5MWJO4PN0","A16335MOISDG1F","3D1UCPY6GGVNRONHL4UEVMXCHLT38H","","693.3000000007451","img/food3.png","76","694.8000000007451","3","1","3","1","1,0.5,0,1,0.5,0,0.5,0,1","1,0.5,0,1,0.5,0,0.5,0,1","1","",""
"","html-keyboard-response","151","102399","0.0-151.0","3AMW0RGHOEOHN4D2G6L6F5MWJO4PN0","A16335MOISDG1F","3D1UCPY6GGVNRONHL4UEVMXCHLT38H","","null","<img src=""img/food3.png"" style=""width:200px; border:14px solid green;"">","null","","","","","","","","","",""
"","image-keyboard-response","152","103082","0.0-152.0","3AMW0RGHOEOHN4D2G6L6F5MWJO4PN0","A16335MOISDG1F","3D1UCPY6GGVNRONHL4UEVMXCHLT38H","","681.1000000014901","img/food1.png","74","682.7000000011176","1","1","2","1","1,0.5,0,1,0.5,0,0.5,0,1","1,0.5,0,1,0.5,0,0.5,0,1","1","",""
"","html-keyboard-response","153","103384","0.0-153.0","3AMW0RGHOEOHN4D2G6L6F5MWJO4PN0","A16335MOISDG1F","3D1UCPY6GGVNRONHL4UEVMXCHLT38H","","null","<img src=""img/food1.png"" style=""width:200px; border:14px solid green;"">","null","","","","","","","","","",""
"","image-keyboard-response","154","104034","0.0-154.0","3AMW0RGHOEOHN4D2G6L6F5MWJO4PN0","A16335MOISDG1F","3D1UCPY6GGVNRONHL4UEVMXCHLT38H","","648.2000000011176","img/food3.png","76","649.5999999996275","3","1","3","1","1,0.5,0,1,0.5,0,0.5,0,1","1,0.5,0,1,0.5,0,0.5,0,1","1","",""
"","html-keyboard-response","155","104337","0.0-155.0","3AMW0RGHOEOHN4D2G6L6F5MWJO4PN0","A16335MOISDG1F","3D1UCPY6GGVNRONHL4UEVMXCHLT38H","","null","<img src=""img/food3.png"" style=""width:200px; border:14px solid green;"">","null","","","","","","","","","",""
"","image-keyboard-response","156","105042","0.0-156.0","3AMW0RGHOEOHN4D2G6L6F5MWJO4PN0","A16335MOISDG1F","3D1UCPY6GGVNRONHL4UEVMXCHLT38H","","703.3000000007451","img/food4.png","74","704.6999999992549","1","1","1","1","1,0.5,0,1,0.5,0,0.5,0,1","1,0.5,0,1,0.5,0,0.5,0,1","1","",""
"","html-keyboard-response","157","105344","0.0-157.0","3AMW0RGHOEOHN4D2G6L6F5MWJO4PN0","A16335MOISDG1F","3D1UCPY6GGVNRONHL4UEVMXCHLT38H","","null","<img src=""img/food4.png"" style=""width:200px; border:14px solid green;"">","null","","","","","","","","","",""
"","image-keyboard-response","158","106380","0.0-158.0","3AMW0RGHOEOHN4D2G6L6F5MWJO4PN0","A16335MOISDG1F","3D1UCPY6GGVNRONHL4UEVMXCHLT38H","","1035","img/food3.png","76","1036","3","1","3","1","1,0.5,0,1,0.5,0,0.5,0,1","1,0.5,0,1,0.5,0,0.5,0,1","1","",""
"","html-keyboard-response","159","106684","0.0-159.0","3AMW0RGHOEOHN4D2G6L6F5MWJO4PN0","A16335MOISDG1F","3D1UCPY6GGVNRONHL4UEVMXCHLT38H","","null","<img src=""img/food3.png"" style=""width:200px; border:14px solid green;"">","null","","","","","","","","","",""
"","image-keyboard-response","160","107397","0.0-160.0","3AMW0RGHOEOHN4D2G6L6F5MWJO4PN0","A16335MOISDG1F","3D1UCPY6GGVNRONHL4UEVMXCHLT38H","","711.5999999996275","img/food4.png","74","712.6999999992549","1","1","1","1","1,0.5,0,1,0.5,0,0.5,0,1","1,0.5,0,1,0.5,0,0.5,0,1","1","",""
"","html-keyboard-response","161","107700","0.0-161.0","3AMW0RGHOEOHN4D2G6L6F5MWJO4PN0","A16335MOISDG1F","3D1UCPY6GGVNRONHL4UEVMXCHLT38H","","null","<img src=""img/food4.png"" style=""width:200px; border:14px solid green;"">","null","","","","","","","","","",""
"","image-keyboard-response","162","108265","0.0-162.0","3AMW0RGHOEOHN4D2G6L6F5MWJO4PN0","A16335MOISDG1F","3D1UCPY6GGVNRONHL4UEVMXCHLT38H","","563.7999999988824","img/food3.png","76","565.2000000011176","3","1","3","1","1,0.5,0,1,0.5,0,0.5,0,1","1,0.5,0,1,0.5,0,0.5,0,1","1","",""
"","html-keyboard-response","163","108568","0.0-163.0","3AMW0RGHOEOHN4D2G6L6F5MWJO4PN0","A16335MOISDG1F","3D1UCPY6GGVNRONHL4UEVMXCHLT38H","","null","<img src=""img/food3.png"" style=""width:200px; border:14px solid green;"">","null","","","","","","","","","",""
"","image-keyboard-response","164","109192","0.0-164.0","3AMW0RGHOEOHN4D2G6L6F5MWJO4PN0","A16335MOISDG1F","3D1UCPY6GGVNRONHL4UEVMXCHLT38H","","622.0999999996275","img/food1.png","74","623.4000000003725","1","1","2","1","1,0.5,0,1,0.5,0,0.5,0,1","1,0.5,0,1,0.5,0,0.5,0,1","1","",""
"","html-keyboard-response","165","109495","0.0-165.0","3AMW0RGHOEOHN4D2G6L6F5MWJO4PN0","A16335MOISDG1F","3D1UCPY6GGVNRONHL4UEVMXCHLT38H","","null","<img src=""img/food1.png"" style=""width:200px; border:14px solid green;"">","null","","","","","","","","","",""
"","image-keyboard-response","166","110229","0.0-166.0","3AMW0RGHOEOHN4D2G6L6F5MWJO4PN0","A16335MOISDG1F","3D1UCPY6GGVNRONHL4UEVMXCHLT38H","","732.2000000011176","img/food3.png","76","733.5","3","1","3","1","1,0.5,0,1,0.5,0,0.5,0,1","1,0.5,0,1,0.5,0,0.5,0,1","1","",""
"","html-keyboard-response","167","110532","0.0-167.0","3AMW0RGHOEOHN4D2G6L6F5MWJO4PN0","A16335MOISDG1F","3D1UCPY6GGVNRONHL4UEVMXCHLT38H","","null","<img src=""img/food3.png"" style=""width:200px; border:14px solid green;"">","null","","","","","","","","","",""
"","image-keyboard-response","168","111065","0.0-168.0","3AMW0RGHOEOHN4D2G6L6F5MWJO4PN0","A16335MOISDG1F","3D1UCPY6GGVNRONHL4UEVMXCHLT38H","","531.0999999996275","img/food1.png","74","532.2999999988824","1","1","2","1","1,0.5,0,1,0.5,0,0.5,0,1","1,0.5,0,1,0.5,0,0.5,0,1","1","",""
"","html-keyboard-response","169","111366","0.0-169.0","3AMW0RGHOEOHN4D2G6L6F5MWJO4PN0","A16335MOISDG1F","3D1UCPY6GGVNRONHL4UEVMXCHLT38H","","null","<img src=""img/food1.png"" style=""width:200px; border:14px solid green;"">","null","","","","","","","","","",""
"","image-keyboard-response","170","111783","0.0-170.0","3AMW0RGHOEOHN4D2G6L6F5MWJO4PN0","A16335MOISDG1F","3D1UCPY6GGVNRONHL4UEVMXCHLT38H","","414.90000000037253","img/food1.png","74","416.2999999988824","1","1","2","1","1,0.5,0,1,0.5,0,0.5,0,1","1,0.5,0,1,0.5,0,0.5,0,1","1","",""
"","html-keyboard-response","171","112085","0.0-171.0","3AMW0RGHOEOHN4D2G6L6F5MWJO4PN0","A16335MOISDG1F","3D1UCPY6GGVNRONHL4UEVMXCHLT38H","","null","<img src=""img/food1.png"" style=""width:200px; border:14px solid green;"">","null","","","","","","","","","",""
"","image-keyboard-response","172","112715","0.0-172.0","3AMW0RGHOEOHN4D2G6L6F5MWJO4PN0","A16335MOISDG1F","3D1UCPY6GGVNRONHL4UEVMXCHLT38H","","627.5","img/food4.png","74","629.0999999996275","1","1","1","1","1,0.5,0,1,0.5,0,0.5,0,1","1,0.5,0,1,0.5,0,0.5,0,1","1","",""
"","html-keyboard-response","173","113018","0.0-173.0","3AMW0RGHOEOHN4D2G6L6F5MWJO4PN0","A16335MOISDG1F","3D1UCPY6GGVNRONHL4UEVMXCHLT38H","","null","<img src=""img/food4.png"" style=""width:200px; border:14px solid green;"">","null","","","","","","","","","",""
"","image-keyboard-response","174","113596","0.0-174.0","3AMW0RGHOEOHN4D2G6L6F5MWJO4PN0","A16335MOISDG1F","3D1UCPY6GGVNRONHL4UEVMXCHLT38H","","576.1999999992549","img/food4.png","74","577.2999999988824","1","1","1","1","1,0.5,0,1,0.5,0,0.5,0,1","1,0.5,0,1,0.5,0,0.5,0,1","1","",""
"","html-keyboard-response","175","113897","0.0-175.0","3AMW0RGHOEOHN4D2G6L6F5MWJO4PN0","A16335MOISDG1F","3D1UCPY6GGVNRONHL4UEVMXCHLT38H","","null","<img src=""img/food4.png"" style=""width:200px; border:14px solid green;"">","null","","","","","","","","","",""
"","image-keyboard-response","176","114459","0.0-176.0","3AMW0RGHOEOHN4D2G6L6F5MWJO4PN0","A16335MOISDG1F","3D1UCPY6GGVNRONHL4UEVMXCHLT38H","","560.5","img/food4.png","74","562","1","1","1","1","1,0.5,0,1,0.5,0,0.5,0,1","1,0.5,0,1,0.5,0,0.5,0,1","1","",""
"","html-keyboard-response","177","114776","0.0-177.0","3AMW0RGHOEOHN4D2G6L6F5MWJO4PN0","A16335MOISDG1F","3D1UCPY6GGVNRONHL4UEVMXCHLT38H","","null","<img src=""img/food4.png"" style=""width:200px; border:14px solid green;"">","null","","","","","","","","","",""
"","image-keyboard-response","178","115331","0.0-178.0","3AMW0RGHOEOHN4D2G6L6F5MWJO4PN0","A16335MOISDG1F","3D1UCPY6GGVNRONHL4UEVMXCHLT38H","","553.6999999992549","img/food4.png","74","554.6999999992549","1","1","1","1","1,0.5,0,1,0.5,0,0.5,0,1","1,0.5,0,1,0.5,0,0.5,0,1","1","",""
"","html-keyboard-response","179","115633","0.0-179.0","3AMW0RGHOEOHN4D2G6L6F5MWJO4PN0","A16335MOISDG1F","3D1UCPY6GGVNRONHL4UEVMXCHLT38H","","null","<img src=""img/food4.png"" style=""width:200px; border:14px solid green;"">","null","","","","","","","","","",""
"","image-keyboard-response","180","116414","0.0-180.0","3AMW0RGHOEOHN4D2G6L6F5MWJO4PN0","A16335MOISDG1F","3D1UCPY6GGVNRONHL4UEVMXCHLT38H","","779.5","img/food3.png","76","781","3","1","3","1","1,0.5,0,1,0.5,0,0.5,0,1","1,0.5,0,1,0.5,0,0.5,0,1","1","",""
"","html-keyboard-response","181","116717","0.0-181.0","3AMW0RGHOEOHN4D2G6L6F5MWJO4PN0","A16335MOISDG1F","3D1UCPY6GGVNRONHL4UEVMXCHLT38H","","null","<img src=""img/food3.png"" style=""width:200px; border:14px solid green;"">","null","","","","","","","","","",""
"","html-keyboard-response","182","121442","0.0-182.0","3AMW0RGHOEOHN4D2G6L6F5MWJO4PN0","A16335MOISDG1F","3D1UCPY6GGVNRONHL4UEVMXCHLT38H","","","","","","","","","","","","","",""
"","instructions","183","141658","0.0-183.0","3AMW0RGHOEOHN4D2G6L6F5MWJO4PN0","A16335MOISDG1F","3D1UCPY6GGVNRONHL4UEVMXCHLT38H","[{""page_index"":0,""viewing_time"":16607.300000000745},{""page_index"":1,""viewing_time"":3608.9000000003725}]","20216.400000000373","","","","","","","","","","","",""
"","image-keyboard-response","184","142130","0.0-184.0","3AMW0RGHOEOHN4D2G6L6F5MWJO4PN0","A16335MOISDG1F","3D1UCPY6GGVNRONHL4UEVMXCHLT38H","","470.7000000011176","img/food5.png","74","471.8999999985099","1","0","2","2","1,0.5,0,1,0.5,0,0.5,0,1","0.5,0,1,0.5,0,1,0,1,0.5","2","false",""
"","html-keyboard-response","185","142434","0.0-185.0","3AMW0RGHOEOHN4D2G6L6F5MWJO4PN0","A16335MOISDG1F","3D1UCPY6GGVNRONHL4UEVMXCHLT38H","","null","<img src=""img/food5.png"" style=""width:200px;border:14px solid red;"">","null","","","","","","","","","",""
"","image-keyboard-response","186","142882","0.0-187.0","3AMW0RGHOEOHN4D2G6L6F5MWJO4PN0","A16335MOISDG1F","3D1UCPY6GGVNRONHL4UEVMXCHLT38H","","444.8999999985099","img/food5.png","76","446.3999999985099","3","1","2","2","1,0.5,0,1,0.5,0,0.5,0,1","0.5,0,1,0.5,0,1,0,1,0.5","2","false",""
"","html-keyboard-response","187","143184","0.0-188.0","3AMW0RGHOEOHN4D2G6L6F5MWJO4PN0","A16335MOISDG1F","3D1UCPY6GGVNRONHL4UEVMXCHLT38H","","null","<img src=""img/food5.png"" style=""width:200px; border:14px solid green;"">","null","","","","","","","","","",""
"","image-keyboard-response","188","143904","0.0-190.0","3AMW0RGHOEOHN4D2G6L6F5MWJO4PN0","A16335MOISDG1F","3D1UCPY6GGVNRONHL4UEVMXCHLT38H","","717.0999999996275","img/food2.png","76","718.8000000007451","3","1","1","2","1,0.5,0,1,0.5,0,0.5,0,1","0.5,0,1,0.5,0,1,0,1,0.5","2","false",""
"","html-keyboard-response","189","144208","0.0-191.0","3AMW0RGHOEOHN4D2G6L6F5MWJO4PN0","A16335MOISDG1F","3D1UCPY6GGVNRONHL4UEVMXCHLT38H","","null","<img src=""img/food2.png"" style=""width:200px; border:14px solid green;"">","null","","","","","","","","","",""
"","image-keyboard-response","190","145097","0.0-193.0","3AMW0RGHOEOHN4D2G6L6F5MWJO4PN0","A16335MOISDG1F","3D1UCPY6GGVNRONHL4UEVMXCHLT38H","","887.1000000014901","img/food6.png","76","888.6000000014901","3","1","3","2","1,0.5,0,1,0.5,0,0.5,0,1","0.5,0,1,0.5,0,1,0,1,0.5","2","false",""
"","html-keyboard-response","191","145400","0.0-194.0","3AMW0RGHOEOHN4D2G6L6F5MWJO4PN0","A16335MOISDG1F","3D1UCPY6GGVNRONHL4UEVMXCHLT38H","","null","<img src=""img/food6.png"" style=""width:200px; border:14px solid green;"">","null","","","","","","","","","",""
"","image-keyboard-response","192","146109","0.0-196.0","3AMW0RGHOEOHN4D2G6L6F5MWJO4PN0","A16335MOISDG1F","3D1UCPY6GGVNRONHL4UEVMXCHLT38H","","706.9000000003725","img/food2.png","76","708.5999999996275","3","1","1","2","1,0.5,0,1,0.5,0,0.5,0,1","0.5,0,1,0.5,0,1,0,1,0.5","2","false",""
"","html-keyboard-response","193","146412","0.0-197.0","3AMW0RGHOEOHN4D2G6L6F5MWJO4PN0","A16335MOISDG1F","3D1UCPY6GGVNRONHL4UEVMXCHLT38H","","null","<img src=""img/food2.png"" style=""width:200px; border:14px solid green;"">","null","","","","","","","","","",""
"","image-keyboard-response","194","146801","0.0-199.0","3AMW0RGHOEOHN4D2G6L6F5MWJO4PN0","A16335MOISDG1F","3D1UCPY6GGVNRONHL4UEVMXCHLT38H","","386.90000000037253","img/food2.png","76","388.30000000074506","3","1","1","2","1,0.5,0,1,0.5,0,0.5,0,1","0.5,0,1,0.5,0,1,0,1,0.5","2","false",""
"","html-keyboard-response","195","147104","0.0-200.0","3AMW0RGHOEOHN4D2G6L6F5MWJO4PN0","A16335MOISDG1F","3D1UCPY6GGVNRONHL4UEVMXCHLT38H","","null","<img src=""img/food2.png"" style=""width:200px; border:14px solid green;"">","null","","","","","","","","","",""
"","image-keyboard-response","196","147783","0.0-202.0","3AMW0RGHOEOHN4D2G6L6F5MWJO4PN0","A16335MOISDG1F","3D1UCPY6GGVNRONHL4UEVMXCHLT38H","","678.2000000011176","img/food5.png","76","679.1999999992549","3","1","2","2","1,0.5,0,1,0.5,0,0.5,0,1","0.5,0,1,0.5,0,1,0,1,0.5","2","false",""
"","html-keyboard-response","197","148087","0.0-203.0","3AMW0RGHOEOHN4D2G6L6F5MWJO4PN0","A16335MOISDG1F","3D1UCPY6GGVNRONHL4UEVMXCHLT38H","","null","<img src=""img/food5.png"" style=""width:200px; border:14px solid green;"">","null","","","","","","","","","",""
"","image-keyboard-response","198","148514","0.0-205.0","3AMW0RGHOEOHN4D2G6L6F5MWJO4PN0","A16335MOISDG1F","3D1UCPY6GGVNRONHL4UEVMXCHLT38H","","426.80000000074506","img/food5.png","76","427.59999999962747","3","1","2","2","1,0.5,0,1,0.5,0,0.5,0,1","0.5,0,1,0.5,0,1,0,1,0.5","2","false",""
"","html-keyboard-response","199","148817","0.0-206.0","3AMW0RGHOEOHN4D2G6L6F5MWJO4PN0","A16335MOISDG1F","3D1UCPY6GGVNRONHL4UEVMXCHLT38H","","null","<img src=""img/food5.png"" style=""width:200px; border:14px solid green;"">","null","","","","","","","","","",""
"","image-keyboard-response","200","149346","0.0-208.0","3AMW0RGHOEOHN4D2G6L6F5MWJO4PN0","A16335MOISDG1F","3D1UCPY6GGVNRONHL4UEVMXCHLT38H","","527.7000000011176","img/food5.png","76","529.0999999996275","3","1","2","2","1,0.5,0,1,0.5,0,0.5,0,1","0.5,0,1,0.5,0,1,0,1,0.5","2","false",""
"","html-keyboard-response","201","149649","0.0-209.0","3AMW0RGHOEOHN4D2G6L6F5MWJO4PN0","A16335MOISDG1F","3D1UCPY6GGVNRONHL4UEVMXCHLT38H","","null","<img src=""img/food5.png"" style=""width:200px; border:14px solid green;"">","null","","","","","","","","","",""
"","image-keyboard-response","202","150198","0.0-211.0","3AMW0RGHOEOHN4D2G6L6F5MWJO4PN0","A16335MOISDG1F","3D1UCPY6GGVNRONHL4UEVMXCHLT38H","","547.5999999996275","img/food2.png","76","548.8000000007451","3","1","1","2","1,0.5,0,1,0.5,0,0.5,0,1","0.5,0,1,0.5,0,1,0,1,0.5","2","false",""
"","html-keyboard-response","203","150514","0.0-212.0","3AMW0RGHOEOHN4D2G6L6F5MWJO4PN0","A16335MOISDG1F","3D1UCPY6GGVNRONHL4UEVMXCHLT38H","","null","<img src=""img/food2.png"" style=""width:200px; border:14px solid green;"">","null","","","","","","","","","",""
"","image-keyboard-response","204","151020","0.0-214.0","3AMW0RGHOEOHN4D2G6L6F5MWJO4PN0","A16335MOISDG1F","3D1UCPY6GGVNRONHL4UEVMXCHLT38H","","503.7999999988824","img/food5.png","76","505.19999999925494","3","1","2","2","1,0.5,0,1,0.5,0,0.5,0,1","0.5,0,1,0.5,0,1,0,1,0.5","2","false",""
"","html-keyboard-response","205","151323","0.0-215.0","3AMW0RGHOEOHN4D2G6L6F5MWJO4PN0","A16335MOISDG1F","3D1UCPY6GGVNRONHL4UEVMXCHLT38H","","null","<img src=""img/food5.png"" style=""width:200px; border:14px solid green;"">","null","","","","","","","","","",""
"","image-keyboard-response","206","151888","0.0-217.0","3AMW0RGHOEOHN4D2G6L6F5MWJO4PN0","A16335MOISDG1F","3D1UCPY6GGVNRONHL4UEVMXCHLT38H","","564.4000000003725","img/food6.png","76","565.5999999996275","3","0","3","2","1,0.5,0,1,0.5,0,0.5,0,1","0.5,0,1,0.5,0,1,0,1,0.5","2","false",""
"","html-keyboard-response","207","152190","0.0-218.0","3AMW0RGHOEOHN4D2G6L6F5MWJO4PN0","A16335MOISDG1F","3D1UCPY6GGVNRONHL4UEVMXCHLT38H","","null","<img src=""img/food6.png"" style=""width:200px;border:14px solid red;"">","null","","","","","","","","","",""
"","image-keyboard-response","208","152710","0.0-220.0","3AMW0RGHOEOHN4D2G6L6F5MWJO4PN0","A16335MOISDG1F","3D1UCPY6GGVNRONHL4UEVMXCHLT38H","","517.5999999996275","img/food2.png","76","519.5","3","1","1","2","1,0.5,0,1,0.5,0,0.5,0,1","0.5,0,1,0.5,0,1,0,1,0.5","2","false",""
"","html-keyboard-response","209","153014","0.0-221.0","3AMW0RGHOEOHN4D2G6L6F5MWJO4PN0","A16335MOISDG1F","3D1UCPY6GGVNRONHL4UEVMXCHLT38H","","null","<img src=""img/food2.png"" style=""width:200px; border:14px solid green;"">","null","","","","","","","","","",""
"","image-keyboard-response","210","153497","0.0-223.0","3AMW0RGHOEOHN4D2G6L6F5MWJO4PN0","A16335MOISDG1F","3D1UCPY6GGVNRONHL4UEVMXCHLT38H","","482.30000000074506","img/food2.png","76","483.30000000074506","3","1","1","2","1,0.5,0,1,0.5,0,0.5,0,1","0.5,0,1,0.5,0,1,0,1,0.5","2","false",""
"","html-keyboard-response","211","153800","0.0-224.0","3AMW0RGHOEOHN4D2G6L6F5MWJO4PN0","A16335MOISDG1F","3D1UCPY6GGVNRONHL4UEVMXCHLT38H","","null","<img src=""img/food2.png"" style=""width:200px; border:14px solid green;"">","null","","","","","","","","","",""
"","image-keyboard-response","212","154314","0.0-226.0","3AMW0RGHOEOHN4D2G6L6F5MWJO4PN0","A16335MOISDG1F","3D1UCPY6GGVNRONHL4UEVMXCHLT38H","","512.3000000007451","img/food5.png","76","513.8000000007451","3","1","2","2","1,0.5,0,1,0.5,0,0.5,0,1","0.5,0,1,0.5,0,1,0,1,0.5","2","false",""
"","html-keyboard-response","213","154616","0.0-227.0","3AMW0RGHOEOHN4D2G6L6F5MWJO4PN0","A16335MOISDG1F","3D1UCPY6GGVNRONHL4UEVMXCHLT38H","","null","<img src=""img/food5.png"" style=""width:200px; border:14px solid green;"">","null","","","","","","","","","",""
"","image-keyboard-response","214","155091","0.0-229.0","3AMW0RGHOEOHN4D2G6L6F5MWJO4PN0","A16335MOISDG1F","3D1UCPY6GGVNRONHL4UEVMXCHLT38H","","471","img/food2.png","76","472.59999999962747","3","1","1","2","1,0.5,0,1,0.5,0,0.5,0,1","0.5,0,1,0.5,0,1,0,1,0.5","2","false",""
"","html-keyboard-response","215","155394","0.0-230.0","3AMW0RGHOEOHN4D2G6L6F5MWJO4PN0","A16335MOISDG1F","3D1UCPY6GGVNRONHL4UEVMXCHLT38H","","null","<img src=""img/food2.png"" style=""width:200px; border:14px solid green;"">","null","","","","","","","","","",""
"","image-keyboard-response","216","155897","0.0-232.0","3AMW0RGHOEOHN4D2G6L6F5MWJO4PN0","A16335MOISDG1F","3D1UCPY6GGVNRONHL4UEVMXCHLT38H","","502.59999999962747","img/food2.png","76","503.19999999925494","3","1","1","2","1,0.5,0,1,0.5,0,0.5,0,1","0.5,0,1,0.5,0,1,0,1,0.5","2","false",""
"","html-keyboard-response","217","156199","0.0-233.0","3AMW0RGHOEOHN4D2G6L6F5MWJO4PN0","A16335MOISDG1F","3D1UCPY6GGVNRONHL4UEVMXCHLT38H","","null","<img src=""img/food2.png"" style=""width:200px; border:14px solid green;"">","null","","","","","","","","","",""
"","image-keyboard-response","218","156770","0.0-235.0","3AMW0RGHOEOHN4D2G6L6F5MWJO4PN0","A16335MOISDG1F","3D1UCPY6GGVNRONHL4UEVMXCHLT38H","","568.7000000011176","img/food5.png","76","570.2000000011176","3","1","2","2","1,0.5,0,1,0.5,0,0.5,0,1","0.5,0,1,0.5,0,1,0,1,0.5","2","false",""
"","html-keyboard-response","219","157072","0.0-236.0","3AMW0RGHOEOHN4D2G6L6F5MWJO4PN0","A16335MOISDG1F","3D1UCPY6GGVNRONHL4UEVMXCHLT38H","","null","<img src=""img/food5.png"" style=""width:200px; border:14px solid green;"">","null","","","","","","","","","",""
"","image-keyboard-response","220","157547","0.0-238.0","3AMW0RGHOEOHN4D2G6L6F5MWJO4PN0","A16335MOISDG1F","3D1UCPY6GGVNRONHL4UEVMXCHLT38H","","472.80000000074506","img/food2.png","76","474.30000000074506","3","1","1","2","1,0.5,0,1,0.5,0,0.5,0,1","0.5,0,1,0.5,0,1,0,1,0.5","2","false",""
"","html-keyboard-response","221","157850","0.0-239.0","3AMW0RGHOEOHN4D2G6L6F5MWJO4PN0","A16335MOISDG1F","3D1UCPY6GGVNRONHL4UEVMXCHLT38H","","null","<img src=""img/food2.png"" style=""width:200px; border:14px solid green;"">","null","","","","","","","","","",""
"","image-keyboard-response","222","158293","0.0-241.0","3AMW0RGHOEOHN4D2G6L6F5MWJO4PN0","A16335MOISDG1F","3D1UCPY6GGVNRONHL4UEVMXCHLT38H","","440.7000000011176","img/food2.png","76","442.2000000011176","3","1","1","2","1,0.5,0,1,0.5,0,0.5,0,1","0.5,0,1,0.5,0,1,0,1,0.5","2","false",""
"","html-keyboard-response","223","158597","0.0-242.0","3AMW0RGHOEOHN4D2G6L6F5MWJO4PN0","A16335MOISDG1F","3D1UCPY6GGVNRONHL4UEVMXCHLT38H","","null","<img src=""img/food2.png"" style=""width:200px; border:14px solid green;"">","null","","","","","","","","","",""
"","image-keyboard-response","224","159061","0.0-244.0","3AMW0RGHOEOHN4D2G6L6F5MWJO4PN0","A16335MOISDG1F","3D1UCPY6GGVNRONHL4UEVMXCHLT38H","","461.69999999925494","img/food6.png","75","463.30000000074506","2","1","3","2","1,0.5,0,1,0.5,0,0.5,0,1","0.5,0,1,0.5,0,1,0,1,0.5","2","false",""
"","html-keyboard-response","225","159363","0.0-245.0","3AMW0RGHOEOHN4D2G6L6F5MWJO4PN0","A16335MOISDG1F","3D1UCPY6GGVNRONHL4UEVMXCHLT38H","","null","<img src=""img/food6.png"" style=""width:200px; border:14px solid green;"">","null","","","","","","","","","",""
"","image-keyboard-response","226","159832","0.0-247.0","3AMW0RGHOEOHN4D2G6L6F5MWJO4PN0","A16335MOISDG1F","3D1UCPY6GGVNRONHL4UEVMXCHLT38H","","467","img/food6.png","75","468.5","2","1","3","2","1,0.5,0,1,0.5,0,0.5,0,1","0.5,0,1,0.5,0,1,0,1,0.5","2","false",""
"","html-keyboard-response","227","160135","0.0-248.0","3AMW0RGHOEOHN4D2G6L6F5MWJO4PN0","A16335MOISDG1F","3D1UCPY6GGVNRONHL4UEVMXCHLT38H","","null","<img src=""img/food6.png"" style=""width:200px; border:14px solid green;"">","null","","","","","","","","","",""
"","image-keyboard-response","228","160614","0.0-250.0","3AMW0RGHOEOHN4D2G6L6F5MWJO4PN0","A16335MOISDG1F","3D1UCPY6GGVNRONHL4UEVMXCHLT38H","","477.59999999962747","img/food6.png","75","479.09999999962747","2","1","3","2","1,0.5,0,1,0.5,0,0.5,0,1","0.5,0,1,0.5,0,1,0,1,0.5","2","false",""
"","html-keyboard-response","229","160916","0.0-251.0","3AMW0RGHOEOHN4D2G6L6F5MWJO4PN0","A16335MOISDG1F","3D1UCPY6GGVNRONHL4UEVMXCHLT38H","","null","<img src=""img/food6.png"" style=""width:200px; border:14px solid green;"">","null","","","","","","","","","",""
"","image-keyboard-response","230","161371","0.0-253.0","3AMW0RGHOEOHN4D2G6L6F5MWJO4PN0","A16335MOISDG1F","3D1UCPY6GGVNRONHL4UEVMXCHLT38H","","453.90000000037253","img/food5.png","76","454.90000000037253","3","1","2","2","1,0.5,0,1,0.5,0,0.5,0,1","0.5,0,1,0.5,0,1,0,1,0.5","2","false",""
"","html-keyboard-response","231","161674","0.0-254.0","3AMW0RGHOEOHN4D2G6L6F5MWJO4PN0","A16335MOISDG1F","3D1UCPY6GGVNRONHL4UEVMXCHLT38H","","null","<img src=""img/food5.png"" style=""width:200px; border:14px solid green;"">","null","","","","","","","","","",""
"","image-keyboard-response","232","162143","0.0-256.0","3AMW0RGHOEOHN4D2G6L6F5MWJO4PN0","A16335MOISDG1F","3D1UCPY6GGVNRONHL4UEVMXCHLT38H","","467","img/food5.png","76","468.80000000074506","3","1","2","2","1,0.5,0,1,0.5,0,0.5,0,1","0.5,0,1,0.5,0,1,0,1,0.5","2","false",""
"","html-keyboard-response","233","162447","0.0-257.0","3AMW0RGHOEOHN4D2G6L6F5MWJO4PN0","A16335MOISDG1F","3D1UCPY6GGVNRONHL4UEVMXCHLT38H","","null","<img src=""img/food5.png"" style=""width:200px; border:14px solid green;"">","null","","","","","","","","","",""
"","image-keyboard-response","234","162914","0.0-259.0","3AMW0RGHOEOHN4D2G6L6F5MWJO4PN0","A16335MOISDG1F","3D1UCPY6GGVNRONHL4UEVMXCHLT38H","","465.2000000011176","img/food2.png","76","466.80000000074506","3","1","1","2","1,0.5,0,1,0.5,0,0.5,0,1","0.5,0,1,0.5,0,1,0,1,0.5","2","false",""
"","html-keyboard-response","235","163216","0.0-260.0","3AMW0RGHOEOHN4D2G6L6F5MWJO4PN0","A16335MOISDG1F","3D1UCPY6GGVNRONHL4UEVMXCHLT38H","","null","<img src=""img/food2.png"" style=""width:200px; border:14px solid green;"">","null","","","","","","","","","",""
"","image-keyboard-response","236","163681","0.0-262.0","3AMW0RGHOEOHN4D2G6L6F5MWJO4PN0","A16335MOISDG1F","3D1UCPY6GGVNRONHL4UEVMXCHLT38H","","462.7000000011176","img/food5.png","76","464.30000000074506","3","1","2","2","1,0.5,0,1,0.5,0,0.5,0,1","0.5,0,1,0.5,0,1,0,1,0.5","2","false",""
"","html-keyboard-response","237","163984","0.0-263.0","3AMW0RGHOEOHN4D2G6L6F5MWJO4PN0","A16335MOISDG1F","3D1UCPY6GGVNRONHL4UEVMXCHLT38H","","null","<img src=""img/food5.png"" style=""width:200px; border:14px solid green;"">","null","","","","","","","","","",""
"","image-keyboard-response","238","164418","0.0-265.0","3AMW0RGHOEOHN4D2G6L6F5MWJO4PN0","A16335MOISDG1F","3D1UCPY6GGVNRONHL4UEVMXCHLT38H","","432.09999999962747","img/food5.png","76","433.59999999962747","3","1","2","2","1,0.5,0,1,0.5,0,0.5,0,1","0.5,0,1,0.5,0,1,0,1,0.5","2","false",""
"","html-keyboard-response","239","164734","0.0-266.0","3AMW0RGHOEOHN4D2G6L6F5MWJO4PN0","A16335MOISDG1F","3D1UCPY6GGVNRONHL4UEVMXCHLT38H","","null","<img src=""img/food5.png"" style=""width:200px; border:14px solid green;"">","null","","","","","","","","","",""
"","image-keyboard-response","240","165390","0.0-268.0","3AMW0RGHOEOHN4D2G6L6F5MWJO4PN0","A16335MOISDG1F","3D1UCPY6GGVNRONHL4UEVMXCHLT38H","","653.6999999992549","img/food6.png","75","655.4000000003725","2","1","3","2","1,0.5,0,1,0.5,0,0.5,0,1","0.5,0,1,0.5,0,1,0,1,0.5","2","false",""
"","html-keyboard-response","241","165700","0.0-269.0","3AMW0RGHOEOHN4D2G6L6F5MWJO4PN0","A16335MOISDG1F","3D1UCPY6GGVNRONHL4UEVMXCHLT38H","","null","<img src=""img/food6.png"" style=""width:200px; border:14px solid green;"">","null","","","","","","","","","",""
"","image-keyboard-response","242","166067","0.0-271.0","3AMW0RGHOEOHN4D2G6L6F5MWJO4PN0","A16335MOISDG1F","3D1UCPY6GGVNRONHL4UEVMXCHLT38H","","365.2999999988824","img/food6.png","75","366.5","2","1","3","2","1,0.5,0,1,0.5,0,0.5,0,1","0.5,0,1,0.5,0,1,0,1,0.5","2","false",""
"","html-keyboard-response","243","166370","0.0-272.0","3AMW0RGHOEOHN4D2G6L6F5MWJO4PN0","A16335MOISDG1F","3D1UCPY6GGVNRONHL4UEVMXCHLT38H","","null","<img src=""img/food6.png"" style=""width:200px; border:14px solid green;"">","null","","","","","","","","","",""
"","image-keyboard-response","244","166884","0.0-274.0","3AMW0RGHOEOHN4D2G6L6F5MWJO4PN0","A16335MOISDG1F","3D1UCPY6GGVNRONHL4UEVMXCHLT38H","","511.90000000037253","img/food5.png","76","513.5","3","1","2","2","1,0.5,0,1,0.5,0,0.5,0,1","0.5,0,1,0.5,0,1,0,1,0.5","2","false",""
"","html-keyboard-response","245","167187","0.0-275.0","3AMW0RGHOEOHN4D2G6L6F5MWJO4PN0","A16335MOISDG1F","3D1UCPY6GGVNRONHL4UEVMXCHLT38H","","null","<img src=""img/food5.png"" style=""width:200px; border:14px solid green;"">","null","","","","","","","","","",""
"","image-keyboard-response","246","167766","0.0-277.0","3AMW0RGHOEOHN4D2G6L6F5MWJO4PN0","A16335MOISDG1F","3D1UCPY6GGVNRONHL4UEVMXCHLT38H","","578.3000000007451","img/food6.png","75","579.3000000007451","2","1","3","2","1,0.5,0,1,0.5,0,0.5,0,1","0.5,0,1,0.5,0,1,0,1,0.5","2","false",""
"","html-keyboard-response","247","168079","0.0-278.0","3AMW0RGHOEOHN4D2G6L6F5MWJO4PN0","A16335MOISDG1F","3D1UCPY6GGVNRONHL4UEVMXCHLT38H","","null","<img src=""img/food6.png"" style=""width:200px; border:14px solid green;"">","null","","","","","","","","","",""
"","image-keyboard-response","248","168473","0.0-280.0","3AMW0RGHOEOHN4D2G6L6F5MWJO4PN0","A16335MOISDG1F","3D1UCPY6GGVNRONHL4UEVMXCHLT38H","","392.80000000074506","img/food6.png","75","393.90000000037253","2","1","3","2","1,0.5,0,1,0.5,0,0.5,0,1","0.5,0,1,0.5,0,1,0,1,0.5","2","false",""
"","html-keyboard-response","249","168776","0.0-281.0","3AMW0RGHOEOHN4D2G6L6F5MWJO4PN0","A16335MOISDG1F","3D1UCPY6GGVNRONHL4UEVMXCHLT38H","","null","<img src=""img/food6.png"" style=""width:200px; border:14px solid green;"">","null","","","","","","","","","",""
"","image-keyboard-response","250","169208","0.0-283.0","3AMW0RGHOEOHN4D2G6L6F5MWJO4PN0","A16335MOISDG1F","3D1UCPY6GGVNRONHL4UEVMXCHLT38H","","430.30000000074506","img/food5.png","76","431.59999999962747","3","1","2","2","1,0.5,0,1,0.5,0,0.5,0,1","0.5,0,1,0.5,0,1,0,1,0.5","2","false",""
"","html-keyboard-response","251","169510","0.0-284.0","3AMW0RGHOEOHN4D2G6L6F5MWJO4PN0","A16335MOISDG1F","3D1UCPY6GGVNRONHL4UEVMXCHLT38H","","null","<img src=""img/food5.png"" style=""width:200px; border:14px solid green;"">","null","","","","","","","","","",""
"","image-keyboard-response","252","170132","0.0-286.0","3AMW0RGHOEOHN4D2G6L6F5MWJO4PN0","A16335MOISDG1F","3D1UCPY6GGVNRONHL4UEVMXCHLT38H","","620.5","img/food2.png","76","622","3","1","1","2","1,0.5,0,1,0.5,0,0.5,0,1","0.5,0,1,0.5,0,1,0,1,0.5","2","false",""
"","html-keyboard-response","253","170435","0.0-287.0","3AMW0RGHOEOHN4D2G6L6F5MWJO4PN0","A16335MOISDG1F","3D1UCPY6GGVNRONHL4UEVMXCHLT38H","","null","<img src=""img/food2.png"" style=""width:200px; border:14px solid green;"">","null","","","","","","","","","",""
"","image-keyboard-response","254","170903","0.0-289.0","3AMW0RGHOEOHN4D2G6L6F5MWJO4PN0","A16335MOISDG1F","3D1UCPY6GGVNRONHL4UEVMXCHLT38H","","466.40000000037253","img/food6.png","76","468.09999999962747","3","0","3","2","1,0.5,0,1,0.5,0,0.5,0,1","0.5,0,1,0.5,0,1,0,1,0.5","2","false",""
"","html-keyboard-response","255","171206","0.0-290.0","3AMW0RGHOEOHN4D2G6L6F5MWJO4PN0","A16335MOISDG1F","3D1UCPY6GGVNRONHL4UEVMXCHLT38H","","null","<img src=""img/food6.png"" style=""width:200px;border:14px solid red;"">","null","","","","","","","","","",""
"","image-keyboard-response","256","171760","0.0-292.0","3AMW0RGHOEOHN4D2G6L6F5MWJO4PN0","A16335MOISDG1F","3D1UCPY6GGVNRONHL4UEVMXCHLT38H","","551.9000000003725","img/food6.png","75","553.7999999988824","2","1","3","2","1,0.5,0,1,0.5,0,0.5,0,1","0.5,0,1,0.5,0,1,0,1,0.5","2","false",""
"","html-keyboard-response","257","172063","0.0-293.0","3AMW0RGHOEOHN4D2G6L6F5MWJO4PN0","A16335MOISDG1F","3D1UCPY6GGVNRONHL4UEVMXCHLT38H","","null","<img src=""img/food6.png"" style=""width:200px; border:14px solid green;"">","null","","","","","","","","","",""
"","image-keyboard-response","258","172547","0.0-295.0","3AMW0RGHOEOHN4D2G6L6F5MWJO4PN0","A16335MOISDG1F","3D1UCPY6GGVNRONHL4UEVMXCHLT38H","","481.59999999962747","img/food6.png","75","483","2","1","3","2","1,0.5,0,1,0.5,0,0.5,0,1","0.5,0,1,0.5,0,1,0,1,0.5","2","false",""
"","html-keyboard-response","259","172849","0.0-296.0","3AMW0RGHOEOHN4D2G6L6F5MWJO4PN0","A16335MOISDG1F","3D1UCPY6GGVNRONHL4UEVMXCHLT38H","","null","<img src=""img/food6.png"" style=""width:200px; border:14px solid green;"">","null","","","","","","","","","",""
"","image-keyboard-response","260","173304","0.0-298.0","3AMW0RGHOEOHN4D2G6L6F5MWJO4PN0","A16335MOISDG1F","3D1UCPY6GGVNRONHL4UEVMXCHLT38H","","452.90000000037253","img/food5.png","76","454.40000000037253","3","1","2","2","1,0.5,0,1,0.5,0,0.5,0,1","0.5,0,1,0.5,0,1,0,1,0.5","2","false",""
"","html-keyboard-response","261","173607","0.0-299.0","3AMW0RGHOEOHN4D2G6L6F5MWJO4PN0","A16335MOISDG1F","3D1UCPY6GGVNRONHL4UEVMXCHLT38H","","null","<img src=""img/food5.png"" style=""width:200px; border:14px solid green;"">","null","","","","","","","","","",""
"","image-keyboard-response","262","174146","0.0-301.0","3AMW0RGHOEOHN4D2G6L6F5MWJO4PN0","A16335MOISDG1F","3D1UCPY6GGVNRONHL4UEVMXCHLT38H","","536.6000000014901","img/food6.png","76","538.2000000011176","3","0","3","2","1,0.5,0,1,0.5,0,0.5,0,1","0.5,0,1,0.5,0,1,0,1,0.5","2","false",""
"","html-keyboard-response","263","174449","0.0-302.0","3AMW0RGHOEOHN4D2G6L6F5MWJO4PN0","A16335MOISDG1F","3D1UCPY6GGVNRONHL4UEVMXCHLT38H","","null","<img src=""img/food6.png"" style=""width:200px;border:14px solid red;"">","null","","","","","","","","","",""
"","image-keyboard-response","264","175078","0.0-304.0","3AMW0RGHOEOHN4D2G6L6F5MWJO4PN0","A16335MOISDG1F","3D1UCPY6GGVNRONHL4UEVMXCHLT38H","","627","img/food2.png","76","628.4000000003725","3","1","1","2","1,0.5,0,1,0.5,0,0.5,0,1","0.5,0,1,0.5,0,1,0,1,0.5","2","false",""
"","html-keyboard-response","265","175379","0.0-305.0","3AMW0RGHOEOHN4D2G6L6F5MWJO4PN0","A16335MOISDG1F","3D1UCPY6GGVNRONHL4UEVMXCHLT38H","","null","<img src=""img/food2.png"" style=""width:200px; border:14px solid green;"">","null","","","","","","","","","",""
"","image-keyboard-response","266","175750","0.0-307.0","3AMW0RGHOEOHN4D2G6L6F5MWJO4PN0","A16335MOISDG1F","3D1UCPY6GGVNRONHL4UEVMXCHLT38H","","368.69999999925494","img/food2.png","76","370.19999999925494","3","1","1","2","1,0.5,0,1,0.5,0,0.5,0,1","0.5,0,1,0.5,0,1,0,1,0.5","2","false",""
"","html-keyboard-response","267","176053","0.0-308.0","3AMW0RGHOEOHN4D2G6L6F5MWJO4PN0","A16335MOISDG1F","3D1UCPY6GGVNRONHL4UEVMXCHLT38H","","null","<img src=""img/food2.png"" style=""width:200px; border:14px solid green;"">","null","","","","","","","","","",""
"","image-keyboard-response","268","176627","0.0-310.0","3AMW0RGHOEOHN4D2G6L6F5MWJO4PN0","A16335MOISDG1F","3D1UCPY6GGVNRONHL4UEVMXCHLT38H","","571.6000000014901","img/food5.png","76","573.3000000007451","3","1","2","2","1,0.5,0,1,0.5,0,0.5,0,1","0.5,0,1,0.5,0,1,0,1,0.5","2","false",""
"","html-keyboard-response","269","176931","0.0-311.0","3AMW0RGHOEOHN4D2G6L6F5MWJO4PN0","A16335MOISDG1F","3D1UCPY6GGVNRONHL4UEVMXCHLT38H","","null","<img src=""img/food5.png"" style=""width:200px; border:14px solid green;"">","null","","","","","","","","","",""
"","image-keyboard-response","270","177428","0.0-313.0","3AMW0RGHOEOHN4D2G6L6F5MWJO4PN0","A16335MOISDG1F","3D1UCPY6GGVNRONHL4UEVMXCHLT38H","","496.09999999962747","img/food6.png","75","496.7999999988824","2","1","3","2","1,0.5,0,1,0.5,0,0.5,0,1","0.5,0,1,0.5,0,1,0,1,0.5","2","false",""
"","html-keyboard-response","271","177730","0.0-314.0","3AMW0RGHOEOHN4D2G6L6F5MWJO4PN0","A16335MOISDG1F","3D1UCPY6GGVNRONHL4UEVMXCHLT38H","","null","<img src=""img/food6.png"" style=""width:200px; border:14px solid green;"">","null","","","","","","","","","",""
"","image-keyboard-response","272","178121","0.0-316.0","3AMW0RGHOEOHN4D2G6L6F5MWJO4PN0","A16335MOISDG1F","3D1UCPY6GGVNRONHL4UEVMXCHLT38H","","389.30000000074506","img/food6.png","75","390.09999999962747","2","1","3","2","1,0.5,0,1,0.5,0,0.5,0,1","0.5,0,1,0.5,0,1,0,1,0.5","2","false",""
"","html-keyboard-response","273","178434","0.0-317.0","3AMW0RGHOEOHN4D2G6L6F5MWJO4PN0","A16335MOISDG1F","3D1UCPY6GGVNRONHL4UEVMXCHLT38H","","null","<img src=""img/food6.png"" style=""width:200px; border:14px solid green;"">","null","","","","","","","","","",""
"","image-keyboard-response","274","178912","0.0-319.0","3AMW0RGHOEOHN4D2G6L6F5MWJO4PN0","A16335MOISDG1F","3D1UCPY6GGVNRONHL4UEVMXCHLT38H","","476.5","img/food2.png","76","478","3","1","1","2","1,0.5,0,1,0.5,0,0.5,0,1","0.5,0,1,0.5,0,1,0,1,0.5","2","false",""
"","html-keyboard-response","275","179215","0.0-320.0","3AMW0RGHOEOHN4D2G6L6F5MWJO4PN0","A16335MOISDG1F","3D1UCPY6GGVNRONHL4UEVMXCHLT38H","","null","<img src=""img/food2.png"" style=""width:200px; border:14px solid green;"">","null","","","","","","","","","",""
"","image-keyboard-response","276","179705","0.0-322.0","3AMW0RGHOEOHN4D2G6L6F5MWJO4PN0","A16335MOISDG1F","3D1UCPY6GGVNRONHL4UEVMXCHLT38H","","487.69999999925494","img/food5.png","76","489.2000000011176","3","1","2","2","1,0.5,0,1,0.5,0,0.5,0,1","0.5,0,1,0.5,0,1,0,1,0.5","2","false",""
"","html-keyboard-response","277","180007","0.0-323.0","3AMW0RGHOEOHN4D2G6L6F5MWJO4PN0","A16335MOISDG1F","3D1UCPY6GGVNRONHL4UEVMXCHLT38H","","null","<img src=""img/food5.png"" style=""width:200px; border:14px solid green;"">","null","","","","","","","","","",""
"","image-keyboard-response","278","180586","0.0-325.0","3AMW0RGHOEOHN4D2G6L6F5MWJO4PN0","A16335MOISDG1F","3D1UCPY6GGVNRONHL4UEVMXCHLT38H","","578.1000000014901","img/food6.png","75","579","2","1","3","2","1,0.5,0,1,0.5,0,0.5,0,1","0.5,0,1,0.5,0,1,0,1,0.5","2","false",""
"","html-keyboard-response","279","180889","0.0-326.0","3AMW0RGHOEOHN4D2G6L6F5MWJO4PN0","A16335MOISDG1F","3D1UCPY6GGVNRONHL4UEVMXCHLT38H","","null","<img src=""img/food6.png"" style=""width:200px; border:14px solid green;"">","null","","","","","","","","","",""
"","image-keyboard-response","280","181323","0.0-328.0","3AMW0RGHOEOHN4D2G6L6F5MWJO4PN0","A16335MOISDG1F","3D1UCPY6GGVNRONHL4UEVMXCHLT38H","","429.7999999988824","img/food2.png","76","431.09999999962747","3","1","1","2","1,0.5,0,1,0.5,0,0.5,0,1","0.5,0,1,0.5,0,1,0,1,0.5","2","false",""
"","html-keyboard-response","281","181636","0.0-329.0","3AMW0RGHOEOHN4D2G6L6F5MWJO4PN0","A16335MOISDG1F","3D1UCPY6GGVNRONHL4UEVMXCHLT38H","","null","<img src=""img/food2.png"" style=""width:200px; border:14px solid green;"">","null","","","","","","","","","",""
"","image-keyboard-response","282","182201","0.0-331.0","3AMW0RGHOEOHN4D2G6L6F5MWJO4PN0","A16335MOISDG1F","3D1UCPY6GGVNRONHL4UEVMXCHLT38H","","562.5","img/food5.png","76","564.4000000003725","3","1","2","2","1,0.5,0,1,0.5,0,0.5,0,1","0.5,0,1,0.5,0,1,0,1,0.5","2","false",""
"","html-keyboard-response","283","182504","0.0-332.0","3AMW0RGHOEOHN4D2G6L6F5MWJO4PN0","A16335MOISDG1F","3D1UCPY6GGVNRONHL4UEVMXCHLT38H","","null","<img src=""img/food5.png"" style=""width:200px; border:14px solid green;"">","null","","","","","","","","","",""
"","image-keyboard-response","284","182993","0.0-334.0","3AMW0RGHOEOHN4D2G6L6F5MWJO4PN0","A16335MOISDG1F","3D1UCPY6GGVNRONHL4UEVMXCHLT38H","","486.80000000074506","img/food6.png","76","488.40000000037253","3","0","3","2","1,0.5,0,1,0.5,0,0.5,0,1","0.5,0,1,0.5,0,1,0,1,0.5","2","false",""
"","html-keyboard-response","285","183296","0.0-335.0","3AMW0RGHOEOHN4D2G6L6F5MWJO4PN0","A16335MOISDG1F","3D1UCPY6GGVNRONHL4UEVMXCHLT38H","","null","<img src=""img/food6.png"" style=""width:200px;border:14px solid red;"">","null","","","","","","","","","",""
"","image-keyboard-response","286","183949","0.0-337.0","3AMW0RGHOEOHN4D2G6L6F5MWJO4PN0","A16335MOISDG1F","3D1UCPY6GGVNRONHL4UEVMXCHLT38H","","651.6000000014901","img/food5.png","76","653.1000000014901","3","1","2","2","1,0.5,0,1,0.5,0,0.5,0,1","0.5,0,1,0.5,0,1,0,1,0.5","2","false",""
"","html-keyboard-response","287","184253","0.0-338.0","3AMW0RGHOEOHN4D2G6L6F5MWJO4PN0","A16335MOISDG1F","3D1UCPY6GGVNRONHL4UEVMXCHLT38H","","null","<img src=""img/food5.png"" style=""width:200px; border:14px solid green;"">","null","","","","","","","","","",""
"","image-keyboard-response","288","184746","0.0-340.0","3AMW0RGHOEOHN4D2G6L6F5MWJO4PN0","A16335MOISDG1F","3D1UCPY6GGVNRONHL4UEVMXCHLT38H","","491.6000000014901","img/food2.png","76","493.2000000011176","3","1","1","2","1,0.5,0,1,0.5,0,0.5,0,1","0.5,0,1,0.5,0,1,0,1,0.5","2","false",""
"","html-keyboard-response","289","185050","0.0-341.0","3AMW0RGHOEOHN4D2G6L6F5MWJO4PN0","A16335MOISDG1F","3D1UCPY6GGVNRONHL4UEVMXCHLT38H","","null","<img src=""img/food2.png"" style=""width:200px; border:14px solid green;"">","null","","","","","","","","","",""
"","image-keyboard-response","290","185469","0.0-343.0","3AMW0RGHOEOHN4D2G6L6F5MWJO4PN0","A16335MOISDG1F","3D1UCPY6GGVNRONHL4UEVMXCHLT38H","","416.2000000011176","img/food5.png","75","418","2","0","2","2","1,0.5,0,1,0.5,0,0.5,0,1","0.5,0,1,0.5,0,1,0,1,0.5","2","false",""
"","html-keyboard-response","291","185771","0.0-344.0","3AMW0RGHOEOHN4D2G6L6F5MWJO4PN0","A16335MOISDG1F","3D1UCPY6GGVNRONHL4UEVMXCHLT38H","","null","<img src=""img/food5.png"" style=""width:200px;border:14px solid red;"">","null","","","","","","","","","",""
"","image-keyboard-response","292","186537","0.0-346.0","3AMW0RGHOEOHN4D2G6L6F5MWJO4PN0","A16335MOISDG1F","3D1UCPY6GGVNRONHL4UEVMXCHLT38H","","763.0999999996275","img/food2.png","76","764.5999999996275","3","1","1","2","1,0.5,0,1,0.5,0,0.5,0,1","0.5,0,1,0.5,0,1,0,1,0.5","2","false",""
"","html-keyboard-response","293","186840","0.0-347.0","3AMW0RGHOEOHN4D2G6L6F5MWJO4PN0","A16335MOISDG1F","3D1UCPY6GGVNRONHL4UEVMXCHLT38H","","null","<img src=""img/food2.png"" style=""width:200px; border:14px solid green;"">","null","","","","","","","","","",""
"","image-keyboard-response","294","187196","0.0-349.0","3AMW0RGHOEOHN4D2G6L6F5MWJO4PN0","A16335MOISDG1F","3D1UCPY6GGVNRONHL4UEVMXCHLT38H","","354.7000000011176","img/food2.png","76","356.09999999962747","3","1","1","2","1,0.5,0,1,0.5,0,0.5,0,1","0.5,0,1,0.5,0,1,0,1,0.5","2","false",""
"","html-keyboard-response","295","187498","0.0-350.0","3AMW0RGHOEOHN4D2G6L6F5MWJO4PN0","A16335MOISDG1F","3D1UCPY6GGVNRONHL4UEVMXCHLT38H","","null","<img src=""img/food2.png"" style=""width:200px; border:14px solid green;"">","null","","","","","","","","","",""
"","image-keyboard-response","296","188069","0.0-352.0","3AMW0RGHOEOHN4D2G6L6F5MWJO4PN0","A16335MOISDG1F","3D1UCPY6GGVNRONHL4UEVMXCHLT38H","","568.5","img/food6.png","75","569.7999999988824","2","1","3","2","1,0.5,0,1,0.5,0,0.5,0,1","0.5,0,1,0.5,0,1,0,1,0.5","2","false",""
"","html-keyboard-response","297","188371","0.0-353.0","3AMW0RGHOEOHN4D2G6L6F5MWJO4PN0","A16335MOISDG1F","3D1UCPY6GGVNRONHL4UEVMXCHLT38H","","null","<img src=""img/food6.png"" style=""width:200px; border:14px solid green;"">","null","","","","","","","","","",""
"","image-keyboard-response","298","188727","0.0-355.0","3AMW0RGHOEOHN4D2G6L6F5MWJO4PN0","A16335MOISDG1F","3D1UCPY6GGVNRONHL4UEVMXCHLT38H","","353.30000000074506","img/food6.png","75","354.90000000037253","2","1","3","2","1,0.5,0,1,0.5,0,0.5,0,1","0.5,0,1,0.5,0,1,0,1,0.5","2","false",""
"","html-keyboard-response","299","189030","0.0-356.0","3AMW0RGHOEOHN4D2G6L6F5MWJO4PN0","A16335MOISDG1F","3D1UCPY6GGVNRONHL4UEVMXCHLT38H","","null","<img src=""img/food6.png"" style=""width:200px; border:14px solid green;"">","null","","","","","","","","","",""
"","image-keyboard-response","300","189418","0.0-358.0","3AMW0RGHOEOHN4D2G6L6F5MWJO4PN0","A16335MOISDG1F","3D1UCPY6GGVNRONHL4UEVMXCHLT38H","","385.7000000011176","img/food6.png","75","387.40000000037253","2","1","3","2","1,0.5,0,1,0.5,0,0.5,0,1","0.5,0,1,0.5,0,1,0,1,0.5","2","false",""
"","html-keyboard-response","301","189720","0.0-359.0","3AMW0RGHOEOHN4D2G6L6F5MWJO4PN0","A16335MOISDG1F","3D1UCPY6GGVNRONHL4UEVMXCHLT38H","","null","<img src=""img/food6.png"" style=""width:200px; border:14px solid green;"">","null","","","","","","","","","",""
"","image-keyboard-response","302","190130","0.0-361.0","3AMW0RGHOEOHN4D2G6L6F5MWJO4PN0","A16335MOISDG1F","3D1UCPY6GGVNRONHL4UEVMXCHLT38H","","407.80000000074506","img/food2.png","76","409.30000000074506","3","1","1","2","1,0.5,0,1,0.5,0,0.5,0,1","0.5,0,1,0.5,0,1,0,1,0.5","2","false",""
"","html-keyboard-response","303","190432","0.0-362.0","3AMW0RGHOEOHN4D2G6L6F5MWJO4PN0","A16335MOISDG1F","3D1UCPY6GGVNRONHL4UEVMXCHLT38H","","null","<img src=""img/food2.png"" style=""width:200px; border:14px solid green;"">","null","","","","","","","","","",""
"","image-keyboard-response","304","190745","0.0-364.0","3AMW0RGHOEOHN4D2G6L6F5MWJO4PN0","A16335MOISDG1F","3D1UCPY6GGVNRONHL4UEVMXCHLT38H","","311.69999999925494","img/food2.png","76","312.59999999962747","3","1","1","2","1,0.5,0,1,0.5,0,0.5,0,1","0.5,0,1,0.5,0,1,0,1,0.5","2","false",""
"","html-keyboard-response","305","191047","0.0-365.0","3AMW0RGHOEOHN4D2G6L6F5MWJO4PN0","A16335MOISDG1F","3D1UCPY6GGVNRONHL4UEVMXCHLT38H","","null","<img src=""img/food2.png"" style=""width:200px; border:14px solid green;"">","null","","","","","","","","","",""
"","image-keyboard-response","306","191523","0.0-367.0","3AMW0RGHOEOHN4D2G6L6F5MWJO4PN0","A16335MOISDG1F","3D1UCPY6GGVNRONHL4UEVMXCHLT38H","","473.09999999962747","img/food6.png","75","474.69999999925494","2","1","3","2","1,0.5,0,1,0.5,0,0.5,0,1","0.5,0,1,0.5,0,1,0,1,0.5","2","false",""
"","html-keyboard-response","307","191826","0.0-368.0","3AMW0RGHOEOHN4D2G6L6F5MWJO4PN0","A16335MOISDG1F","3D1UCPY6GGVNRONHL4UEVMXCHLT38H","","null","<img src=""img/food6.png"" style=""width:200px; border:14px solid green;"">","null","","","","","","","","","",""
"","image-keyboard-response","308","192315","0.0-370.0","3AMW0RGHOEOHN4D2G6L6F5MWJO4PN0","A16335MOISDG1F","3D1UCPY6GGVNRONHL4UEVMXCHLT38H","","487.90000000037253","img/food2.png","76","488.8999999985099","3","1","1","2","1,0.5,0,1,0.5,0,0.5,0,1","0.5,0,1,0.5,0,1,0,1,0.5","2","false",""
"","html-keyboard-response","309","192618","0.0-371.0","3AMW0RGHOEOHN4D2G6L6F5MWJO4PN0","A16335MOISDG1F","3D1UCPY6GGVNRONHL4UEVMXCHLT38H","","null","<img src=""img/food2.png"" style=""width:200px; border:14px solid green;"">","null","","","","","","","","","",""
"","image-keyboard-response","310","192975","0.0-373.0","3AMW0RGHOEOHN4D2G6L6F5MWJO4PN0","A16335MOISDG1F","3D1UCPY6GGVNRONHL4UEVMXCHLT38H","","355.80000000074506","img/food2.png","76","357.09999999962747","3","1","1","2","1,0.5,0,1,0.5,0,0.5,0,1","0.5,0,1,0.5,0,1,0,1,0.5","2","false",""
"","html-keyboard-response","311","193278","0.0-374.0","3AMW0RGHOEOHN4D2G6L6F5MWJO4PN0","A16335MOISDG1F","3D1UCPY6GGVNRONHL4UEVMXCHLT38H","","null","<img src=""img/food2.png"" style=""width:200px; border:14px solid green;"">","null","","","","","","","","","",""
"","image-keyboard-response","312","193668","0.0-376.0","3AMW0RGHOEOHN4D2G6L6F5MWJO4PN0","A16335MOISDG1F","3D1UCPY6GGVNRONHL4UEVMXCHLT38H","","388.6000000014901","img/food5.png","75","390.2000000011176","2","0","2","2","1,0.5,0,1,0.5,0,0.5,0,1","0.5,0,1,0.5,0,1,0,1,0.5","2","false",""
"","html-keyboard-response","313","193972","0.0-377.0","3AMW0RGHOEOHN4D2G6L6F5MWJO4PN0","A16335MOISDG1F","3D1UCPY6GGVNRONHL4UEVMXCHLT38H","","null","<img src=""img/food5.png"" style=""width:200px;border:14px solid red;"">","null","","","","","","","","","",""
"","image-keyboard-response","314","194701","0.0-379.0","3AMW0RGHOEOHN4D2G6L6F5MWJO4PN0","A16335MOISDG1F","3D1UCPY6GGVNRONHL4UEVMXCHLT38H","","726.8000000007451","img/food2.png","76","728.5","3","1","1","2","1,0.5,0,1,0.5,0,0.5,0,1","0.5,0,1,0.5,0,1,0,1,0.5","2","false",""
"","html-keyboard-response","315","195004","0.0-380.0","3AMW0RGHOEOHN4D2G6L6F5MWJO4PN0","A16335MOISDG1F","3D1UCPY6GGVNRONHL4UEVMXCHLT38H","","null","<img src=""img/food2.png"" style=""width:200px; border:14px solid green;"">","null","","","","","","","","","",""
"","image-keyboard-response","316","195387","0.0-382.0","3AMW0RGHOEOHN4D2G6L6F5MWJO4PN0","A16335MOISDG1F","3D1UCPY6GGVNRONHL4UEVMXCHLT38H","","381.40000000037253","img/food2.png","76","382.6000000014901","3","1","1","2","1,0.5,0,1,0.5,0,0.5,0,1","0.5,0,1,0.5,0,1,0,1,0.5","2","false",""
"","html-keyboard-response","317","195689","0.0-383.0","3AMW0RGHOEOHN4D2G6L6F5MWJO4PN0","A16335MOISDG1F","3D1UCPY6GGVNRONHL4UEVMXCHLT38H","","null","<img src=""img/food2.png"" style=""width:200px; border:14px solid green;"">","null","","","","","","","","","",""
"","image-keyboard-response","318","196023","0.0-385.0","3AMW0RGHOEOHN4D2G6L6F5MWJO4PN0","A16335MOISDG1F","3D1UCPY6GGVNRONHL4UEVMXCHLT38H","","331.90000000037253","img/food2.png","76","333.5","3","1","1","2","1,0.5,0,1,0.5,0,0.5,0,1","0.5,0,1,0.5,0,1,0,1,0.5","2","false",""
"","html-keyboard-response","319","196327","0.0-386.0","3AMW0RGHOEOHN4D2G6L6F5MWJO4PN0","A16335MOISDG1F","3D1UCPY6GGVNRONHL4UEVMXCHLT38H","","null","<img src=""img/food2.png"" style=""width:200px; border:14px solid green;"">","null","","","","","","","","","",""
"","image-keyboard-response","320","196950","0.0-388.0","3AMW0RGHOEOHN4D2G6L6F5MWJO4PN0","A16335MOISDG1F","3D1UCPY6GGVNRONHL4UEVMXCHLT38H","","621.4000000003725","img/food5.png","76","623","3","1","2","2","1,0.5,0,1,0.5,0,0.5,0,1","0.5,0,1,0.5,0,1,0,1,0.5","2","false",""
"","html-keyboard-response","321","197253","0.0-389.0","3AMW0RGHOEOHN4D2G6L6F5MWJO4PN0","A16335MOISDG1F","3D1UCPY6GGVNRONHL4UEVMXCHLT38H","","null","<img src=""img/food5.png"" style=""width:200px; border:14px solid green;"">","null","","","","","","","","","",""
"","image-keyboard-response","322","197617","0.0-391.0","3AMW0RGHOEOHN4D2G6L6F5MWJO4PN0","A16335MOISDG1F","3D1UCPY6GGVNRONHL4UEVMXCHLT38H","","361.69999999925494","img/food5.png","76","362.90000000037253","3","1","2","2","1,0.5,0,1,0.5,0,0.5,0,1","0.5,0,1,0.5,0,1,0,1,0.5","2","false",""
"","html-keyboard-response","323","197918","0.0-392.0","3AMW0RGHOEOHN4D2G6L6F5MWJO4PN0","A16335MOISDG1F","3D1UCPY6GGVNRONHL4UEVMXCHLT38H","","null","<img src=""img/food5.png"" style=""width:200px; border:14px solid green;"">","null","","","","","","","","","",""
"","image-keyboard-response","324","198435","0.0-394.0","3AMW0RGHOEOHN4D2G6L6F5MWJO4PN0","A16335MOISDG1F","3D1UCPY6GGVNRONHL4UEVMXCHLT38H","","514.8000000007451","img/food2.png","76","516.4000000003725","3","1","1","2","1,0.5,0,1,0.5,0,0.5,0,1","0.5,0,1,0.5,0,1,0,1,0.5","2","false",""
"","html-keyboard-response","325","198738","0.0-395.0","3AMW0RGHOEOHN4D2G6L6F5MWJO4PN0","A16335MOISDG1F","3D1UCPY6GGVNRONHL4UEVMXCHLT38H","","null","<img src=""img/food2.png"" style=""width:200px; border:14px solid green;"">","null","","","","","","","","","",""
"","image-keyboard-response","326","199196","0.0-397.0","3AMW0RGHOEOHN4D2G6L6F5MWJO4PN0","A16335MOISDG1F","3D1UCPY6GGVNRONHL4UEVMXCHLT38H","","457.40000000037253","img/food5.png","76","458.30000000074506","3","1","2","2","1,0.5,0,1,0.5,0,0.5,0,1","0.5,0,1,0.5,0,1,0,1,0.5","2","false",""
"","html-keyboard-response","327","199499","0.0-398.0","3AMW0RGHOEOHN4D2G6L6F5MWJO4PN0","A16335MOISDG1F","3D1UCPY6GGVNRONHL4UEVMXCHLT38H","","null","<img src=""img/food5.png"" style=""width:200px; border:14px solid green;"">","null","","","","","","","","","",""
"","image-keyboard-response","328","199851","0.0-400.0","3AMW0RGHOEOHN4D2G6L6F5MWJO4PN0","A16335MOISDG1F","3D1UCPY6GGVNRONHL4UEVMXCHLT38H","","350.7000000011176","img/food5.png","76","352","3","1","2","2","1,0.5,0,1,0.5,0,0.5,0,1","0.5,0,1,0.5,0,1,0,1,0.5","2","false",""
"","html-keyboard-response","329","200153","0.0-401.0","3AMW0RGHOEOHN4D2G6L6F5MWJO4PN0","A16335MOISDG1F","3D1UCPY6GGVNRONHL4UEVMXCHLT38H","","null","<img src=""img/food5.png"" style=""width:200px; border:14px solid green;"">","null","","","","","","","","","",""
"","image-keyboard-response","330","200675","0.0-403.0","3AMW0RGHOEOHN4D2G6L6F5MWJO4PN0","A16335MOISDG1F","3D1UCPY6GGVNRONHL4UEVMXCHLT38H","","520.3999999985099","img/food6.png","75","521.5","2","1","3","2","1,0.5,0,1,0.5,0,0.5,0,1","0.5,0,1,0.5,0,1,0,1,0.5","2","false",""
"","html-keyboard-response","331","200978","0.0-404.0","3AMW0RGHOEOHN4D2G6L6F5MWJO4PN0","A16335MOISDG1F","3D1UCPY6GGVNRONHL4UEVMXCHLT38H","","null","<img src=""img/food6.png"" style=""width:200px; border:14px solid green;"">","null","","","","","","","","","",""
"","image-keyboard-response","332","201422","0.0-406.0","3AMW0RGHOEOHN4D2G6L6F5MWJO4PN0","A16335MOISDG1F","3D1UCPY6GGVNRONHL4UEVMXCHLT38H","","441.30000000074506","img/food2.png","76","443.09999999962747","3","1","1","2","1,0.5,0,1,0.5,0,0.5,0,1","0.5,0,1,0.5,0,1,0,1,0.5","2","false",""
"","html-keyboard-response","333","201724","0.0-407.0","3AMW0RGHOEOHN4D2G6L6F5MWJO4PN0","A16335MOISDG1F","3D1UCPY6GGVNRONHL4UEVMXCHLT38H","","null","<img src=""img/food2.png"" style=""width:200px; border:14px solid green;"">","null","","","","","","","","","",""
"","image-keyboard-response","334","202233","0.0-409.0","3AMW0RGHOEOHN4D2G6L6F5MWJO4PN0","A16335MOISDG1F","3D1UCPY6GGVNRONHL4UEVMXCHLT38H","","507.40000000037253","img/food6.png","75","508.7000000011176","2","1","3","2","1,0.5,0,1,0.5,0,0.5,0,1","0.5,0,1,0.5,0,1,0,1,0.5","2","false",""
"","html-keyboard-response","335","202535","0.0-410.0","3AMW0RGHOEOHN4D2G6L6F5MWJO4PN0","A16335MOISDG1F","3D1UCPY6GGVNRONHL4UEVMXCHLT38H","","null","<img src=""img/food6.png"" style=""width:200px; border:14px solid green;"">","null","","","","","","","","","",""
"","image-keyboard-response","336","202920","0.0-412.0","3AMW0RGHOEOHN4D2G6L6F5MWJO4PN0","A16335MOISDG1F","3D1UCPY6GGVNRONHL4UEVMXCHLT38H","","382.7000000011176","img/food6.png","75","384.40000000037253","2","1","3","2","1,0.5,0,1,0.5,0,0.5,0,1","0.5,0,1,0.5,0,1,0,1,0.5","2","false",""
"","html-keyboard-response","337","203222","0.0-413.0","3AMW0RGHOEOHN4D2G6L6F5MWJO4PN0","A16335MOISDG1F","3D1UCPY6GGVNRONHL4UEVMXCHLT38H","","null","<img src=""img/food6.png"" style=""width:200px; border:14px solid green;"">","null","","","","","","","","","",""
"","image-keyboard-response","338","203592","0.0-415.0","3AMW0RGHOEOHN4D2G6L6F5MWJO4PN0","A16335MOISDG1F","3D1UCPY6GGVNRONHL4UEVMXCHLT38H","","367.40000000037253","img/food6.png","75","368.90000000037253","2","1","3","2","1,0.5,0,1,0.5,0,0.5,0,1","0.5,0,1,0.5,0,1,0,1,0.5","2","false",""
"","html-keyboard-response","339","203894","0.0-416.0","3AMW0RGHOEOHN4D2G6L6F5MWJO4PN0","A16335MOISDG1F","3D1UCPY6GGVNRONHL4UEVMXCHLT38H","","null","<img src=""img/food6.png"" style=""width:200px; border:14px solid green;"">","null","","","","","","","","","",""
"","image-keyboard-response","340","204299","0.0-418.0","3AMW0RGHOEOHN4D2G6L6F5MWJO4PN0","A16335MOISDG1F","3D1UCPY6GGVNRONHL4UEVMXCHLT38H","","401.90000000037253","img/food5.png","76","403.59999999962747","3","1","2","2","1,0.5,0,1,0.5,0,0.5,0,1","0.5,0,1,0.5,0,1,0,1,0.5","2","false",""
"","html-keyboard-response","341","204601","0.0-419.0","3AMW0RGHOEOHN4D2G6L6F5MWJO4PN0","A16335MOISDG1F","3D1UCPY6GGVNRONHL4UEVMXCHLT38H","","null","<img src=""img/food5.png"" style=""width:200px; border:14px solid green;"">","null","","","","","","","","","",""
"","image-keyboard-response","342","205181","0.0-421.0","3AMW0RGHOEOHN4D2G6L6F5MWJO4PN0","A16335MOISDG1F","3D1UCPY6GGVNRONHL4UEVMXCHLT38H","","577.4000000003725","img/food6.png","75","579","2","1","3","2","1,0.5,0,1,0.5,0,0.5,0,1","0.5,0,1,0.5,0,1,0,1,0.5","2","false",""
"","html-keyboard-response","343","205484","0.0-422.0","3AMW0RGHOEOHN4D2G6L6F5MWJO4PN0","A16335MOISDG1F","3D1UCPY6GGVNRONHL4UEVMXCHLT38H","","null","<img src=""img/food6.png"" style=""width:200px; border:14px solid green;"">","null","","","","","","","","","",""
"","image-keyboard-response","344","205937","0.0-424.0","3AMW0RGHOEOHN4D2G6L6F5MWJO4PN0","A16335MOISDG1F","3D1UCPY6GGVNRONHL4UEVMXCHLT38H","","452.6000000014901","img/food5.png","76","453.7000000011176","3","1","2","2","1,0.5,0,1,0.5,0,0.5,0,1","0.5,0,1,0.5,0,1,0,1,0.5","2","false",""
"","html-keyboard-response","345","206241","0.0-425.0","3AMW0RGHOEOHN4D2G6L6F5MWJO4PN0","A16335MOISDG1F","3D1UCPY6GGVNRONHL4UEVMXCHLT38H","","null","<img src=""img/food5.png"" style=""width:200px; border:14px solid green;"">","null","","","","","","","","","",""
"","image-keyboard-response","346","206748","0.0-427.0","3AMW0RGHOEOHN4D2G6L6F5MWJO4PN0","A16335MOISDG1F","3D1UCPY6GGVNRONHL4UEVMXCHLT38H","","505.5","img/food6.png","75","506.69999999925494","2","1","3","2","1,0.5,0,1,0.5,0,0.5,0,1","0.5,0,1,0.5,0,1,0,1,0.5","2","false",""
"","html-keyboard-response","347","207050","0.0-428.0","3AMW0RGHOEOHN4D2G6L6F5MWJO4PN0","A16335MOISDG1F","3D1UCPY6GGVNRONHL4UEVMXCHLT38H","","null","<img src=""img/food6.png"" style=""width:200px; border:14px solid green;"">","null","","","","","","","","","",""
"","image-keyboard-response","348","207476","0.0-430.0","3AMW0RGHOEOHN4D2G6L6F5MWJO4PN0","A16335MOISDG1F","3D1UCPY6GGVNRONHL4UEVMXCHLT38H","","422.80000000074506","img/food6.png","75","424.40000000037253","2","1","3","2","1,0.5,0,1,0.5,0,0.5,0,1","0.5,0,1,0.5,0,1,0,1,0.5","2","false",""
"","html-keyboard-response","349","207778","0.0-431.0","3AMW0RGHOEOHN4D2G6L6F5MWJO4PN0","A16335MOISDG1F","3D1UCPY6GGVNRONHL4UEVMXCHLT38H","","null","<img src=""img/food6.png"" style=""width:200px; border:14px solid green;"">","null","","","","","","","","","",""
"","image-keyboard-response","350","208258","0.0-433.0","3AMW0RGHOEOHN4D2G6L6F5MWJO4PN0","A16335MOISDG1F","3D1UCPY6GGVNRONHL4UEVMXCHLT38H","","477.80000000074506","img/food2.png","76","479.5","3","1","1","2","1,0.5,0,1,0.5,0,0.5,0,1","0.5,0,1,0.5,0,1,0,1,0.5","2","false",""
"","html-keyboard-response","351","208561","0.0-434.0","3AMW0RGHOEOHN4D2G6L6F5MWJO4PN0","A16335MOISDG1F","3D1UCPY6GGVNRONHL4UEVMXCHLT38H","","null","<img src=""img/food2.png"" style=""width:200px; border:14px solid green;"">","null","","","","","","","","","",""
"","image-keyboard-response","352","209104","0.0-436.0","3AMW0RGHOEOHN4D2G6L6F5MWJO4PN0","A16335MOISDG1F","3D1UCPY6GGVNRONHL4UEVMXCHLT38H","","541.2999999988824","img/food6.png","75","542","2","1","3","2","1,0.5,0,1,0.5,0,0.5,0,1","0.5,0,1,0.5,0,1,0,1,0.5","2","false",""
"","html-keyboard-response","353","209406","0.0-437.0","3AMW0RGHOEOHN4D2G6L6F5MWJO4PN0","A16335MOISDG1F","3D1UCPY6GGVNRONHL4UEVMXCHLT38H","","null","<img src=""img/food6.png"" style=""width:200px; border:14px solid green;"">","null","","","","","","","","","",""
"","image-keyboard-response","354","209892","0.0-439.0","3AMW0RGHOEOHN4D2G6L6F5MWJO4PN0","A16335MOISDG1F","3D1UCPY6GGVNRONHL4UEVMXCHLT38H","","483.40000000037253","img/food2.png","76","484.90000000037253","3","1","1","2","1,0.5,0,1,0.5,0,0.5,0,1","0.5,0,1,0.5,0,1,0,1,0.5","2","false",""
"","html-keyboard-response","355","210194","0.0-440.0","3AMW0RGHOEOHN4D2G6L6F5MWJO4PN0","A16335MOISDG1F","3D1UCPY6GGVNRONHL4UEVMXCHLT38H","","null","<img src=""img/food2.png"" style=""width:200px; border:14px solid green;"">","null","","","","","","","","","",""
"","image-keyboard-response","356","210714","0.0-442.0","3AMW0RGHOEOHN4D2G6L6F5MWJO4PN0","A16335MOISDG1F","3D1UCPY6GGVNRONHL4UEVMXCHLT38H","","518.5999999996275","img/food6.png","75","519.6000000014901","2","1","3","2","1,0.5,0,1,0.5,0,0.5,0,1","0.5,0,1,0.5,0,1,0,1,0.5","2","false",""
"","html-keyboard-response","357","211017","0.0-443.0","3AMW0RGHOEOHN4D2G6L6F5MWJO4PN0","A16335MOISDG1F","3D1UCPY6GGVNRONHL4UEVMXCHLT38H","","null","<img src=""img/food6.png"" style=""width:200px; border:14px solid green;"">","null","","","","","","","","","",""
"","image-keyboard-response","358","211461","0.0-445.0","3AMW0RGHOEOHN4D2G6L6F5MWJO4PN0","A16335MOISDG1F","3D1UCPY6GGVNRONHL4UEVMXCHLT38H","","442.09999999962747","img/food5.png","76","443.90000000037253","3","1","2","2","1,0.5,0,1,0.5,0,0.5,0,1","0.5,0,1,0.5,0,1,0,1,0.5","2","false",""
"","html-keyboard-response","359","211764","0.0-446.0","3AMW0RGHOEOHN4D2G6L6F5MWJO4PN0","A16335MOISDG1F","3D1UCPY6GGVNRONHL4UEVMXCHLT38H","","null","<img src=""img/food5.png"" style=""width:200px; border:14px solid green;"">","null","","","","","","","","","",""
"","image-keyboard-response","360","212146","0.0-448.0","3AMW0RGHOEOHN4D2G6L6F5MWJO4PN0","A16335MOISDG1F","3D1UCPY6GGVNRONHL4UEVMXCHLT38H","","379.5","img/food5.png","76","380.80000000074506","3","1","2","2","1,0.5,0,1,0.5,0,0.5,0,1","0.5,0,1,0.5,0,1,0,1,0.5","2","false",""
"","html-keyboard-response","361","212450","0.0-449.0","3AMW0RGHOEOHN4D2G6L6F5MWJO4PN0","A16335MOISDG1F","3D1UCPY6GGVNRONHL4UEVMXCHLT38H","","null","<img src=""img/food5.png"" style=""width:200px; border:14px solid green;"">","null","","","","","","","","","",""
"","image-keyboard-response","362","212834","0.0-451.0","3AMW0RGHOEOHN4D2G6L6F5MWJO4PN0","A16335MOISDG1F","3D1UCPY6GGVNRONHL4UEVMXCHLT38H","","382.30000000074506","img/food5.png","76","383.30000000074506","3","1","2","2","1,0.5,0,1,0.5,0,0.5,0,1","0.5,0,1,0.5,0,1,0,1,0.5","2","false",""
"","html-keyboard-response","363","213136","0.0-452.0","3AMW0RGHOEOHN4D2G6L6F5MWJO4PN0","A16335MOISDG1F","3D1UCPY6GGVNRONHL4UEVMXCHLT38H","","null","<img src=""img/food5.png"" style=""width:200px; border:14px solid green;"">","null","","","","","","","","","",""
"","instructions","364","218917","0.0-454.0","3AMW0RGHOEOHN4D2G6L6F5MWJO4PN0","A16335MOISDG1F","3D1UCPY6GGVNRONHL4UEVMXCHLT38H","[{""page_index"":0,""viewing_time"":5779.4000000003725}]","5779.5","","","","","","","","","","","",""
"","survey-text","365","224065","0.0-455.0","3AMW0RGHOEOHN4D2G6L6F5MWJO4PN0","A16335MOISDG1F","3D1UCPY6GGVNRONHL4UEVMXCHLT38H","","5146.0999999996275","","","","","","","","","","","","{""Q0"":""A16335MOISDG1F""}"
